File: remote_trans/data/nanoindenter/0828-1/data/Data_2025-08-06,11h17m57s/2025-07-22_16-23-58_1_1072.txt
2025-07-22, 16:23:58, 1
Index	Phase	Displacement	Time	Pos X	Pos Y	Pos Z	Rot A	Rot B	Piezo Z	Force A	Force B	Gripper	Voltage A	Voltage B	Temperature	Amplitude force	Amplitude pos	Stiffness	Phase shift	Phase excitation	Force A raw	Displacement raw	HMax	HMax raw	Real Force	Real Stiffness	Contact Depth	Area	Hardness	Reduced Mod.
[#]	[#]	[um]	[s]	[um]	[um]	[um]	[m°]	[m°]	[um]	[uN]	[uN]	[V]	[V]	[V]	[°C]	[uN]	[um]	[N/m]	[°]	[°]	[uN]	[um]	[um]	[um]	[uN]	[N/m]	[um]	[um^2]	[MPa]	[MPa]
1072	1.000000	0.002815	7.37554e+06	-53739.1	1055.82	-29745.3	0.000000	0.000000	6.002762	0.003662	NaN	0.000000	0.001611	0.001652	28.0832	0.047024	0.000990	47.5094	147.441	-171.452	0.017718	0.001618	-1.139250	-1.140447	0.003662	47.5094	-1.139308	-1.688316E+15	-2.169304E-18	NaN
1072	1.000000	0.012906	7.37554e+06	-53739.1	1055.82	-29745.3	0.000000	0.000000	6.012854	0.035746	NaN	0.000000	0.001543	0.001679	28.083	0.075379	0.001204	62.584	44.7017	10.8214	0.000275	0.011497	-1.129159	-1.130567	0.035746	62.584	-1.129587	-1.250514E+15	-2.858501E-17	NaN
1072	1.000000	0.022808	7.37554e+06	-53739.1	1055.82	-29745.3	0.000000	0.000000	6.022755	-0.011487	NaN	0.000000	0.001531	0.001666	28.0829	0.020671	0.001690	12.2324	35.0278	-161.848	-0.027691	0.021474	-1.119256	-1.120591	-0.011487	12.2324	-1.118552	-8.892948E+14	1.291683E-17	NaN
1072	1.000000	0.032781	7.37554e+06	-53739.1	1055.82	-29745.3	0.000000	0.000000	6.032725	-0.066087	NaN	0.000000	0.001550	0.001684	28.0831	0.059295	0.001984	29.8861	-117.402	11.7856	-0.063194	0.031433	-1.109284	-1.110632	-0.066087	29.8861	-1.107626	-6.344869E+14	1.041576E-16	NaN
1072	1.000000	0.042821	7.37554e+06	-53739.1	1055.82	-29745.3	0.000000	0.000000	6.042766	-0.043740	NaN	0.000000	0.001510	0.001660	28.0838	0.063728	0.001955	32.5917	177.775	-164.285	-0.027680	0.041494	-1.099244	-1.100571	-0.043740	32.5917	-1.098237	-4.746817E+14	9.214554E-17	NaN
1072	1.000000	0.052798	7.37554e+06	-53739.1	1055.82	-29745.3	0.000000	0.000000	6.052746	0.032193	NaN	0.000000	0.001572	0.001681	28.0843	0.019235	0.001982	9.703504	19.7432	16.3187	0.010028	0.051448	-1.089267	-1.090617	0.032193	9.703504	-1.091755	-3.884847E+14	-8.286888E-17	NaN
1072	1.000000	0.062821	7.37554e+06	-53739.1	1055.82	-29745.3	0.000000	0.000000	6.062766	-0.032694	NaN	0.000000	0.001542	0.001650	28.0845	0.118115	0.001965	60.1127	84.8872	-167.869	-0.038565	0.061525	-1.079244	-1.080540	-0.032694	60.1127	-1.078836	-2.605441E+14	1.254836E-16	NaN
1072	1.000000	0.072810	7.37554e+06	-53739.1	1055.82	-29745.3	0.000000	0.000000	6.072757	0.019308	NaN	0.000000	0.001561	0.001715	28.0843	0.134578	0.001989	67.6521	-88.7255	17.293	-0.014960	0.071474	-1.069255	-1.070590	0.019308	67.6521	-1.069469	-1.950083E+14	-9.900982E-17	NaN
1072	1.000000	0.082807	7.37554e+06	-53739.1	1055.82	-29745.3	0.000000	0.000000	6.082753	-0.034090	NaN	0.000000	0.001505	0.001722	28.0845	0.099104	0.002018	49.1067	-146.347	-164.67	-0.047288	0.081533	-1.059257	-1.060532	-0.034090	49.1067	-1.058737	-1.399085E+14	2.436600E-16	NaN
1072	1.000000	0.092828	7.37554e+06	-53739.1	1055.82	-29745.3	0.000000	0.000000	6.092775	0.006231	NaN	0.000000	0.001505	0.001717	28.0845	0.053371	0.002028	26.3175	39.2365	13.3182	0.101719	0.091486	-1.049236	-1.050579	0.006231	26.3175	-1.049414	-1.048421E+14	-5.942925E-17	NaN
1072	1.000000	0.102834	7.37554e+06	-53739.1	1055.82	-29745.3	0.000000	0.000000	6.102778	-0.054576	NaN	0.000000	0.001497	0.001700	28.0847	0.018715	0.002090	8.954455	11.5988	-165.547	-0.016876	0.101506	-1.039231	-1.040559	-0.054576	8.954455	-1.034660	-6.639850E+13	8.219476E-16	NaN
1072	1.000000	0.112828	7.37554e+06	-53739.1	1055.82	-29745.3	0.000000	0.000000	6.112775	0.019329	NaN	0.000000	0.001604	0.001704	28.0848	0.070087	0.001988	35.2534	14.8995	12.5686	0.032232	0.111435	-1.029237	-1.030630	0.019329	35.2534	-1.029648	-5.685265E+13	-3.399791E-16	NaN
1072	1.000000	0.122795	7.37554e+06	-53739.1	1055.82	-29745.3	0.000000	0.000000	6.122741	-0.028674	NaN	0.000000	0.001620	0.001727	28.0845	0.086372	0.001986	43.4885	24.1651	-165.552	-0.039426	0.121500	-1.019269	-1.020565	-0.028674	43.4885	-1.018775	-4.059451E+13	7.063509E-16	NaN
1072	1.000000	0.132834	7.37554e+06	-53739.1	1055.82	-29745.3	0.000000	0.000000	6.132780	-0.006621	NaN	0.000000	0.001631	0.001665	28.0848	0.118040	0.002036	57.9792	62.4208	15.3011	0.033437	0.131487	-1.009231	-1.010578	-0.006621	57.9792	-1.009145	-3.012154E+13	2.198137E-16	NaN
1072	1.000000	0.142814	7.37554e+06	-53739.1	1055.82	-29745.3	0.000000	0.000000	6.142759	-0.032178	NaN	0.000000	0.001636	0.001705	28.0845	0.050993	0.002128	23.9594	-172.668	-164.08	0.022883	0.141565	-0.999251	-1.000500	-0.032178	23.9594	-0.998243	-2.148420E+13	1.497760E-15	NaN
1072	1.000000	0.152854	7.37554e+06	-53739.1	1055.82	-29745.3	0.000000	0.000000	6.152800	-0.008195	NaN	0.000000	0.001627	0.001673	28.0843	0.018613	0.001959	9.502630	63.648	13.8161	-0.023412	0.151491	-0.989211	-0.990573	-0.008195	9.502630	-0.988564	-1.591376E+13	5.149700E-16	NaN
1072	1.000000	0.162833	7.37554e+06	-53739.1	1055.82	-29745.3	0.000000	0.000000	6.162782	0.054793	NaN	0.000000	0.001650	0.001693	28.0843	0.091365	0.001913	47.755	36.2728	-165.316	0.010001	0.161461	-0.979232	-0.980604	0.054793	47.755	-0.980093	-1.223657E+13	-4.477768E-15	NaN
1072	1.000000	0.172848	7.37554e+06	-53739.1	1055.82	-29745.3	0.000000	0.000000	6.172792	-0.075207	NaN	0.000000	0.001632	0.001711	28.0846	0.056273	0.002011	27.9896	160.005	17.2286	-0.067435	0.171529	-0.969217	-0.970535	-0.075207	27.9896	-0.967201	-8.202445E+12	9.168885E-15	NaN
1072	1.000000	0.182872	7.37554e+06	-53739.1	1055.82	-29745.3	0.000000	0.000000	6.182818	-0.002431	NaN	0.000000	0.001631	0.001679	28.0833	0.040718	0.002120	19.2105	46.7866	-166.634	0.026454	0.181575	-0.959193	-0.960490	-0.002431	19.2105	-0.959098	-6.378407E+12	3.810725E-16	NaN
1072	1.000000	0.192839	7.37554e+06	-53739.1	1055.82	-29745.3	0.000000	0.000000	6.192785	-0.017040	NaN	0.000000	0.001642	0.001672	28.0834	0.063335	0.001885	33.6019	-109.441	12.6105	-0.019498	0.191466	-0.949225	-0.950599	-0.017040	33.6019	-0.948845	-4.639288E+12	3.672997E-15	NaN
1072	1.000000	0.202859	7.37554e+06	-53739.1	1055.82	-29745.3	0.000000	0.000000	6.202806	0.005470	NaN	0.000000	0.001547	0.001709	28.0834	0.033517	0.002073	16.1714	56.4617	-166.196	0.094012	0.201530	-0.939206	-0.940535	0.005470	16.1714	-0.939460	-3.466134E+12	-1.578152E-15	NaN
1072	1.000000	0.212879	7.37554e+06	-53739.1	1055.82	-29745.3	0.000000	0.000000	6.212824	-0.059672	NaN	0.000000	0.001546	0.001707	28.0833	0.039698	0.001961	20.2436	-70.2238	15.0075	-0.062175	0.211501	-0.929185	-0.930564	-0.059672	20.2436	-0.926975	-2.351587E+12	2.537537E-14	NaN
1072	1.000000	0.222868	7.37554e+06	-53739.1	1055.82	-29745.3	0.000000	0.000000	6.222813	-0.047078	NaN	0.000000	0.001553	0.001673	28.0833	0.115061	0.002015	57.0944	-152.992	-164.135	-0.000870	0.221537	-0.919197	-0.920528	-0.047078	57.0944	-0.918578	-1.811374E+12	2.599048E-14	NaN
1072	1.000000	0.232880	7.37554e+06	-53739.1	1055.82	-29745.3	0.000000	0.000000	6.232825	-0.034313	NaN	0.000000	0.001525	0.001700	28.0832	0.091407	0.001980	46.1597	83.0342	14.4545	0.053824	0.231530	-0.909185	-0.910535	-0.034313	46.1597	-0.908627	-1.329286E+12	2.581289E-14	NaN
1072	1.000000	0.242912	7.37554e+06	-53739.1	1055.82	-29745.3	0.000000	0.000000	6.242860	0.038886	NaN	0.000000	0.001549	0.001716	28.0833	0.109341	0.001892	57.7816	83.3271	-166.029	0.038302	0.241567	-0.899153	-0.900498	0.038886	57.7816	-0.899658	-1.005631E+12	-3.866812E-14	NaN
1072	1.000000	0.252876	7.37554e+06	-53739.1	1055.82	-29745.3	0.000000	0.000000	6.252822	-0.025085	NaN	0.000000	0.001555	0.001666	28.0831	0.117170	0.001960	59.7744	-36.1456	14.2108	-0.050322	0.251510	-0.889189	-0.890555	-0.025085	59.7744	-0.888874	-7.189410E+11	3.489205E-14	NaN
1072	1.000000	0.262878	7.37554e+06	-53739.1	1055.82	-29745.3	0.000000	0.000000	6.262822	-0.067144	NaN	0.000000	0.001553	0.001678	28.083	0.101632	0.001936	52.501	88.5478	-165.877	-0.045991	0.261573	-0.879187	-0.880492	-0.067144	52.501	-0.878228	-5.161102E+11	1.300959E-13	NaN
1072	1.000000	0.272871	7.37554e+06	-53739.1	1055.82	-29745.3	0.000000	0.000000	6.272817	-0.010025	NaN	0.000000	0.001566	0.001701	28.0832	0.025299	0.001939	13.0446	-107.275	13.642	-0.024485	0.271543	-0.869194	-0.870522	-0.010025	13.0446	-0.868618	-3.825995E+11	2.620227E-14	NaN
1072	1.000000	0.282891	7.37554e+06	-53739.1	1055.82	-29745.3	0.000000	0.000000	6.282836	-0.030408	NaN	0.000000	0.001532	0.001721	28.0836	0.019868	0.002126	9.347219	98.9432	-168.173	-0.066284	0.281584	-0.859174	-0.860481	-0.030408	9.347219	-0.856734	-2.641894E+11	1.151003E-13	NaN
1072	1.000000	0.292916	7.37554e+06	-53739.1	1055.82	-29745.3	0.000000	0.000000	6.292862	-0.022668	NaN	0.000000	0.001565	0.001683	28.0831	0.097515	0.001979	49.2799	-28.017	13.2313	-0.065502	0.291530	-0.849148	-0.850534	-0.022668	49.2799	-0.848803	-2.063165E+11	1.098680E-13	NaN
1072	1.000000	0.302912	7.37554e+06	-53739.1	1055.82	-29745.3	0.000000	0.000000	6.302860	0.024194	NaN	0.000000	0.001556	0.001699	28.0832	0.071239	0.001827	39.0015	165.452	-164.067	-0.005430	0.301613	-0.839153	-0.840452	0.024194	39.0015	-0.839618	-1.549242E+11	-1.561639E-13	NaN
1072	1.000000	0.312913	7.37554e+06	-53739.1	1055.82	-29745.3	0.000000	0.000000	6.312860	0.024201	NaN	0.000000	0.001554	0.001666	28.0831	0.028569	0.002090	13.671	-95.7835	14.5228	0.071167	0.311557	-0.829152	-0.830508	0.024201	13.671	-0.830480	-1.164896E+11	-2.077526E-13	NaN
1072	1.000000	0.322932	7.37554e+06	-53739.1	1055.82	-29745.3	0.000000	0.000000	6.322877	-0.041889	NaN	0.000000	0.001545	0.001684	28.0846	0.064159	0.001946	32.9764	-71.3465	-167.469	-0.089467	0.321552	-0.819132	-0.820512	-0.041889	32.9764	-0.818180	-7.934624E+10	5.279297E-13	NaN
1072	1.000000	0.332895	7.37554e+06	-53739.1	1055.82	-29745.3	0.000000	0.000000	6.332840	-0.036637	NaN	0.000000	0.001526	0.001723	28.0843	0.073252	0.001939	37.7852	-123.594	13.3889	-0.028767	0.331578	-0.809170	-0.810487	-0.036637	37.7852	-0.808443	-5.853868E+10	6.258582E-13	NaN
1072	1.000000	0.342941	7.37554e+06	-53739.1	1055.82	-29745.3	0.000000	0.000000	6.342887	-0.012626	NaN	0.000000	0.001583	0.001701	28.0842	0.112835	0.002014	56.0256	70.2049	-167.617	-0.009826	0.341595	-0.799123	-0.800470	-0.012626	56.0256	-0.798954	-4.351806E+10	2.901396E-13	NaN
1072	1.000000	0.352915	7.37554e+06	-53739.1	1055.82	-29745.3	0.000000	0.000000	6.352864	0.058312	NaN	0.000000	0.001546	0.001688	28.0844	0.071053	0.002041	34.8118	30.4322	15.8562	0.082248	0.351575	-0.789150	-0.790490	0.058312	34.8118	-0.790406	-3.331218E+10	-1.750477E-12	NaN
1072	1.000000	0.362913	7.37554e+06	-53739.1	1055.82	-29745.3	0.000000	0.000000	6.362859	-0.013888	NaN	0.000000	0.001574	0.001676	28.0843	0.049748	0.002023	24.5856	-116.702	-165.819	-0.039387	0.361637	-0.779152	-0.780428	-0.013888	24.5856	-0.778728	-2.311771E+10	6.007506E-13	NaN
1072	1.000000	0.372925	7.37554e+06	-53739.1	1055.82	-29745.3	0.000000	0.000000	6.372870	-0.040264	NaN	0.000000	0.001534	0.001722	28.0843	0.054254	0.001861	29.1553	-57.599	12.6893	-0.077466	0.371542	-0.769140	-0.770523	-0.040264	29.1553	-0.768104	-1.657784E+10	2.428788E-12	NaN
1072	1.000000	0.382910	7.37554e+06	-53739.1	1055.82	-29745.3	0.000000	0.000000	6.382853	-0.084707	NaN	0.000000	0.001567	0.001732	28.0842	0.105309	0.001925	54.6927	157.362	-165.719	-0.072668	0.381612	-0.759155	-0.760453	-0.084707	54.6927	-0.757993	-1.207807E+10	7.013328E-12	NaN
1072	1.000000	0.392936	7.37554e+06	-53739.1	1055.82	-29745.3	0.000000	0.000000	6.392885	0.042929	NaN	0.000000	0.001579	0.001709	28.0846	0.023565	0.001942	12.1355	134.594	10.8096	0.028685	0.391641	-0.749128	-0.750424	0.042929	12.1355	-0.751782	-9.941892E+9	-4.318013E-12	NaN
1072	1.000000	0.402962	7.37554e+06	-53739.1	1055.82	-29745.3	0.000000	0.000000	6.402910	0.040015	NaN	0.000000	0.001627	0.001697	28.0844	0.027696	0.001990	13.9151	89.2599	-166.781	-0.001857	0.401620	-0.739103	-0.740445	0.040015	13.9151	-0.741260	-7.148435E+9	-5.597781E-12	NaN
1072	1.000000	0.412973	7.37554e+06	-53739.1	1055.82	-29745.3	0.000000	0.000000	6.412917	-0.062477	NaN	0.000000	0.001597	0.001662	28.0844	0.068620	0.002035	33.724	-54.9152	13.7687	-0.042937	0.411666	-0.729092	-0.730399	-0.062477	33.724	-0.727702	-4.671842E+9	1.337309E-11	NaN
1072	1.000000	0.422991	7.37554e+06	-53739.1	1055.82	-29745.3	0.000000	0.000000	6.422936	-0.048830	NaN	0.000000	0.001594	0.001665	28.0844	0.011959	0.001931	6.193817	6.236744	-165.503	-0.018124	0.421691	-0.719073	-0.720374	-0.048830	6.193817	-0.713161	-2.959232E+9	1.650086E-11	NaN
1072	1.000000	0.432933	7.37554e+06	-53739.1	1055.82	-29745.3	0.000000	0.000000	6.432881	0.032174	NaN	0.000000	0.001611	0.001683	28.0844	0.073206	0.001975	37.0749	100.615	14.4042	0.016140	0.431621	-0.709132	-0.710444	0.032174	37.0749	-0.709783	-2.661264E+9	-1.208969E-11	NaN
1072	1.000000	0.442985	7.37554e+06	-53739.1	1055.82	-29745.3	0.000000	0.000000	6.442931	-0.010551	NaN	0.000000	0.001623	0.001724	28.0844	0.037644	0.001909	19.7164	149.417	-167.762	-0.120214	0.441645	-0.699080	-0.700420	-0.010551	19.7164	-0.698678	-1.877079E+9	5.621187E-12	NaN
1072	1.000000	0.452977	7.37554e+06	-53739.1	1055.82	-29745.3	0.000000	0.000000	6.452922	-0.021900	NaN	0.000000	0.001657	0.001705	28.0834	0.118976	0.001980	60.0962	46.1124	14.9501	0.016292	0.451610	-0.689088	-0.690455	-0.021900	60.0962	-0.688815	-1.376322E+9	1.591211E-11	NaN
1072	1.000000	0.462967	7.37554e+06	-53739.1	1055.82	-29745.3	0.000000	0.000000	6.462911	-0.061809	NaN	0.000000	0.001643	0.001677	28.0835	0.017865	0.002041	8.753785	110.695	-163.237	-0.071459	0.461579	-0.679098	-0.680486	-0.061809	8.753785	-0.673802	-8.578762E+8	7.204922E-11	NaN
1072	1.000000	0.472950	7.37554e+06	-53739.1	1055.82	-29745.3	0.000000	0.000000	6.472898	0.036492	NaN	0.000000	0.001665	0.001656	28.0831	0.077338	0.002060	37.5485	-101.86	14.5499	-0.035924	0.471633	-0.669115	-0.670431	0.036492	37.5485	-0.669844	-7.572760E+8	-4.818879E-11	NaN
1072	1.000000	0.482957	7.37554e+06	-53739.1	1055.82	-29745.3	0.000000	0.000000	6.482902	-0.034099	NaN	0.000000	0.001643	0.001681	28.0831	0.042430	0.002081	20.3902	-114.067	-165.488	-0.013873	0.481672	-0.659108	-0.660393	-0.034099	20.3902	-0.657854	-5.188835E+8	6.571520E-11	NaN
1072	1.000000	0.492975	7.37554e+06	-53739.1	1055.82	-29745.3	0.000000	0.000000	6.492919	-0.068760	NaN	0.000000	0.001633	0.001676	28.0832	0.078290	0.001972	39.7069	-158.77	12.9168	-0.126101	0.491620	-0.649090	-0.650445	-0.068760	39.7069	-0.647791	-3.777063E+8	1.820459E-10	NaN
1072	1.000000	0.502981	7.37554e+06	-53739.1	1055.82	-29745.3	0.000000	0.000000	6.502930	0.042541	NaN	0.000000	0.001613	0.001686	28.0836	0.066587	0.002039	32.6622	110.095	-165.745	0.020754	0.501705	-0.639083	-0.640360	0.042541	32.6622	-0.640060	-2.958794E+8	-1.437769E-10	NaN
1072	1.000000	0.513019	7.37554e+06	-53739.1	1055.82	-29745.3	0.000000	0.000000	6.512968	0.057692	NaN	0.000000	0.001631	0.001700	28.0832	0.052527	0.001913	27.4633	-173.468	10.5358	-0.058491	0.511631	-0.629045	-0.630434	0.057692	27.4633	-0.630621	-2.195590E+8	-2.627651E-10	NaN
1072	1.000000	0.522957	7.37554e+06	-53739.1	1055.82	-29745.3	0.000000	0.000000	6.522903	-0.025662	NaN	0.000000	0.001627	0.001684	28.0832	0.072206	0.002012	35.8898	-45.2069	-165.479	-0.047584	0.521682	-0.619107	-0.620383	-0.025662	35.8898	-0.618571	-1.499655E+8	1.711212E-10	NaN
1072	1.000000	0.533021	7.37554e+06	-53739.1	1055.82	-29745.3	0.000000	0.000000	6.532966	-0.050962	NaN	0.000000	0.001626	0.001653	28.0836	0.083789	0.001990	42.0979	36.6983	15.278	-0.012952	0.531661	-0.609044	-0.610404	-0.050962	42.0979	-0.608136	-1.077616E+8	4.729119E-10	NaN
1072	1.000000	0.543011	7.37554e+06	-53739.1	1055.82	-29745.3	0.000000	0.000000	6.542957	-0.036416	NaN	0.000000	0.001618	0.001670	28.0836	0.027509	0.002009	13.6898	167.555	-168.667	-0.069871	0.541731	-0.599053	-0.600334	-0.036416	13.6898	-0.597058	-7.584720E+7	4.801275E-10	NaN
1072	1.000000	0.553010	7.37554e+06	-53739.1	1055.82	-29745.3	0.000000	0.000000	6.552956	-0.017675	NaN	0.000000	0.001607	0.001682	28.0837	0.034275	0.001946	17.6106	-32.5197	11.9369	-0.016610	0.551696	-0.589055	-0.590369	-0.017675	17.6106	-0.588302	-5.744528E+7	3.076780E-10	NaN
1072	1.000000	0.563020	7.37554e+06	-53739.1	1055.82	-29745.3	0.000000	0.000000	6.562970	0.064182	NaN	0.000000	0.001583	0.001633	28.0834	0.065437	0.002057	31.8165	121.379	-168.777	0.011100	0.561712	-0.579044	-0.580353	0.064182	31.8165	-0.580557	-4.491765E+7	-1.428890E-9	NaN
1072	1.000000	0.573012	7.37554e+06	-53739.1	1055.82	-29745.3	0.000000	0.000000	6.572956	-0.070590	NaN	0.000000	0.001546	0.001685	28.0839	0.037801	0.001979	19.1032	-52.7102	12.8767	-0.068999	0.571660	-0.569053	-0.570404	-0.070590	19.1032	-0.566281	-2.852586E+7	2.474585E-9	NaN
1072	1.000000	0.583034	7.37554e+06	-53739.1	1055.82	-29745.3	0.000000	0.000000	6.582976	-0.099260	NaN	0.000000	0.001578	0.001707	28.0832	0.057256	0.002008	28.5095	108.924	-168.491	-0.141088	0.581717	-0.559031	-0.560348	-0.099260	28.5095	-0.556420	-2.083720E+7	4.763582E-9	NaN
1072	1.000000	0.593000	7.37554e+06	-53739.1	1055.82	-29745.3	0.000000	0.000000	6.592945	-0.039409	NaN	0.000000	0.001566	0.001704	28.0847	0.133545	0.002103	63.5141	-158.491	16.5053	-0.008575	0.591650	-0.549065	-0.550415	-0.039409	63.5141	-0.548599	-1.623886E+7	2.426859E-9	NaN
1072	1.000000	0.603079	7.37554e+06	-53739.1	1055.82	-29745.3	0.000000	0.000000	6.603023	-0.053299	NaN	0.000000	0.001594	0.001673	28.0844	0.043243	0.002147	20.1451	-86.6233	-164.454	-0.013522	0.601751	-0.538986	-0.540314	-0.053299	20.1451	-0.537001	-1.121408E+7	4.752863E-9	NaN
1072	1.000000	0.613049	7.37554e+06	-53739.1	1055.82	-29745.3	0.000000	0.000000	6.612994	-0.032398	NaN	0.000000	0.001618	0.001672	28.0847	0.041997	0.002060	20.3888	-76.4171	16.2803	-0.092591	0.611655	-0.529016	-0.530409	-0.032398	20.3888	-0.527824	-8.36282e+06	3.874049E-9	NaN
1072	1.000000	0.623043	7.37554e+06	-53739.1	1055.82	-29745.3	0.000000	0.000000	6.622988	-0.048940	NaN	0.000000	0.001626	0.001658	28.0845	0.091671	0.002019	45.4064	-82.422	-169.948	0.020738	0.621711	-0.519021	-0.520354	-0.048940	45.4064	-0.518213	-6.1481e+06	7.960265E-9	NaN
1072	1.000000	0.633043	7.37554e+06	-53739.1	1055.82	-29745.3	0.000000	0.000000	6.632987	-0.072549	NaN	0.000000	0.001639	0.001702	28.0845	0.115542	0.002144	53.8954	142.983	13.0484	-0.025409	0.631685	-0.509021	-0.510379	-0.072549	53.8954	-0.508012	-4.43321e+06	1.636482E-8	NaN
1072	1.000000	0.643036	7.37554e+06	-53739.1	1055.82	-29745.3	0.000000	0.000000	6.642980	-0.073433	NaN	0.000000	0.001655	0.001680	28.0847	0.082352	0.001932	42.6195	26.5671	-166.122	-0.080372	0.641714	-0.499029	-0.500350	-0.073433	42.6195	-0.497736	-3.18738e+06	2.303861E-8	NaN
1072	1.000000	0.653075	7.37554e+06	-53739.1	1055.82	-29745.3	0.000000	0.000000	6.653018	-0.072357	NaN	0.000000	0.001622	0.001671	28.0845	0.013564	0.001984	6.837172	92.3876	13.0833	-0.025011	0.651712	-0.488990	-0.490353	-0.072357	6.837172	-0.481053	-1.86324e+06	3.883402E-8	NaN
1072	1.000000	0.663054	7.37554e+06	-53739.1	1055.82	-29745.3	0.000000	0.000000	6.662999	-0.038551	NaN	0.000000	0.001627	0.001681	28.0846	0.085003	0.001994	42.6205	-108.989	-169.012	-0.030445	0.661818	-0.479010	-0.480247	-0.038551	42.6205	-0.478332	-1.70677e+06	2.258737E-8	NaN
1072	1.000000	0.673102	7.37554e+06	-53739.1	1055.82	-29745.3	0.000000	0.000000	6.673047	-0.028803	NaN	0.000000	0.001625	0.001660	28.0844	0.057446	0.001995	28.789	-156.647	9.878281	-0.004065	0.671647	-0.468963	-0.470417	-0.028803	28.789	-0.468212	-1.23121e+06	2.339364E-8	NaN
1072	1.000000	0.683053	7.37554e+06	-53739.1	1055.82	-29745.3	0.000000	0.000000	6.682998	-0.022504	NaN	0.000000	0.001634	0.001656	28.0845	0.033288	0.002078	16.0183	128.006	-164.977	-0.059753	0.681743	-0.459012	-0.460322	-0.022504	16.0183	-0.457959	-883738	2.546484E-8	NaN
1072	1.000000	0.693060	7.37554e+06	-53739.1	1055.82	-29745.3	0.000000	0.000000	6.693007	0.001379	NaN	0.000000	0.001581	0.001658	28.0847	0.015476	0.001928	8.027938	-12.5386	12.0594	-0.060146	0.691727	-0.449004	-0.450338	0.001379	8.027938	-0.449133	-663949	-2.076546E-9	NaN
1072	1.000000	0.703109	7.37554e+06	-53739.1	1055.82	-29745.3	0.000000	0.000000	6.703053	-0.056605	NaN	0.000000	0.001613	0.001686	28.0846	0.056390	0.002022	27.8895	-83.8768	-168.499	-0.047259	0.701772	-0.438956	-0.440293	-0.056605	27.8895	-0.437434	-454079	1.246586E-7	NaN
1072	1.000000	0.713078	7.37554e+06	-53739.1	1055.82	-29745.3	0.000000	0.000000	6.713023	-0.043134	NaN	0.000000	0.001651	0.001696	28.0851	0.028316	0.002084	13.589	176.165	14.6295	-0.053689	0.711738	-0.428987	-0.430327	-0.043134	13.589	-0.426606	-319172	1.351424E-7	NaN
1072	1.000000	0.723064	7.37554e+06	-53739.1	1055.82	-29745.3	0.000000	0.000000	6.723010	-0.030923	NaN	0.000000	0.001630	0.001686	28.0847	0.111998	0.001966	56.9761	88.8158	-165.485	-0.045110	0.721779	-0.419001	-0.420286	-0.030923	56.9761	-0.418593	-245733	1.258392E-7	NaN
1072	1.000000	0.733094	7.37554e+06	-53739.1	1055.82	-29745.3	0.000000	0.000000	6.733039	-0.054959	NaN	0.000000	0.001625	0.001652	28.0838	0.072826	0.001987	36.6599	-16.9201	14.4307	-0.046500	0.731744	-0.408970	-0.410320	-0.054959	36.6599	-0.407846	-172886	3.178928E-7	NaN
1072	1.000000	0.743091	7.37554e+06	-53739.1	1055.82	-29745.3	0.000000	0.000000	6.743036	-0.022058	NaN	0.000000	0.001631	0.001660	28.0834	0.046452	0.001979	23.4772	4.357813	-166.106	0.067698	0.741755	-0.398974	-0.400310	-0.022058	23.4772	-0.398270	-126273	1.746864E-7	NaN
1072	1.000000	0.753102	7.37554e+06	-53739.1	1055.82	-29745.3	0.000000	0.000000	6.753045	-0.082301	NaN	0.000000	0.001609	0.001634	28.0837	0.053954	0.001926	28.0114	119.039	14.0261	-0.006352	0.751778	-0.388963	-0.390287	-0.082301	28.0114	-0.386759	-86453.8	9.519599E-7	NaN
1072	1.000000	0.763119	7.37554e+06	-53739.1	1055.82	-29745.3	0.000000	0.000000	6.763065	-0.009374	NaN	0.000000	0.001630	0.001655	28.0834	0.041143	0.002010	20.4686	-167.2	-165.408	-0.040361	0.761736	-0.378946	-0.380329	-0.009374	20.4686	-0.378602	-66042.4	1.419337E-7	NaN
1072	1.000000	0.773107	7.37554e+06	-53739.1	1055.82	-29745.3	0.000000	0.000000	6.773050	-0.082943	NaN	0.000000	0.001616	0.001668	28.0834	0.088824	0.002002	44.3664	73.352	14.6465	0.043815	0.771736	-0.368958	-0.370329	-0.082943	44.3664	-0.367556	-45805.3	1.810773E-6	NaN
1072	1.000000	0.783101	7.37554e+06	-53739.1	1055.82	-29745.3	0.000000	0.000000	6.783043	-0.130536	NaN	0.000000	0.001612	0.001694	28.0835	0.077124	0.001970	39.1574	-143.279	-166.91	-0.080415	0.781780	-0.358963	-0.360285	-0.130536	39.1574	-0.356463	-31672.6	4.121424E-6	NaN
1072	1.000000	0.793108	7.37554e+06	-53739.1	1055.82	-29745.3	0.000000	0.000000	6.793056	0.017661	NaN	0.000000	0.001633	0.001722	28.0839	0.141507	0.002015	70.2233	-92.28	13.7734	-0.046989	0.791762	-0.348957	-0.350303	0.017661	70.2233	-0.349145	-24808.1	-7.119131E-7	NaN
1072	1.000000	0.803107	7.37554e+06	-53739.1	1055.82	-29745.3	0.000000	0.000000	6.803054	0.011264	NaN	0.000000	0.001619	0.001638	28.0836	0.030586	0.001944	15.7305	-66.7752	-167.789	0.039584	0.801841	-0.338958	-0.340224	0.011264	15.7305	-0.339495	-17955.1	-6.273290E-7	NaN
1072	1.000000	0.813149	7.37554e+06	-53739.1	1055.82	-29745.3	0.000000	0.000000	6.813093	-0.057385	NaN	0.000000	0.001666	0.001667	28.0837	0.136349	0.002043	66.7334	-7.407981	14.2708	0.004725	0.811764	-0.328916	-0.330300	-0.057385	66.7334	-0.328271	-12306.2	4.663104E-6	NaN
1072	1.000000	0.823125	7.37554e+06	-53739.1	1055.82	-29745.3	0.000000	0.000000	6.823072	0.010466	NaN	0.000000	0.001656	0.001665	28.084	0.040449	0.002069	19.5492	-36.4611	-164.055	-0.034445	0.821836	-0.318940	-0.320228	0.010466	19.5492	-0.319341	-9097.89	-1.150347E-6	NaN
1072	1.000000	0.833121	7.37554e+06	-53739.1	1055.82	-29745.3	0.000000	0.000000	6.833063	-0.097608	NaN	0.000000	0.001598	0.001689	28.0837	0.034466	0.002064	16.7009	-115.405	10.4904	-0.077190	0.831741	-0.308944	-0.310324	-0.097608	16.7009	-0.304561	-5500.92	1.774401E-5	NaN
1072	1.000000	0.843178	7.37554e+06	-53739.1	1055.82	-29745.3	0.000000	0.000000	6.843122	-0.051785	NaN	0.000000	0.001577	0.001691	28.0838	0.142730	0.001880	75.9333	-36.9178	-169.826	0.011963	0.841797	-0.298887	-0.300268	-0.051785	75.9333	-0.298376	-4450.84	1.163493E-5	NaN
1072	1.000000	0.853149	7.37554e+06	-53739.1	1055.82	-29745.3	0.000000	0.000000	6.853092	-0.074827	NaN	0.000000	0.001591	0.001714	28.0835	0.012396	0.002019	6.140008	83.4952	14.5173	-0.090478	0.851746	-0.288916	-0.290319	-0.074827	6.140008	-0.279776	-2342.01	3.194978E-5	NaN
1072	1.000000	0.863154	7.37554e+06	-53739.1	1055.82	-29745.3	0.000000	0.000000	6.863100	-0.014279	NaN	0.000000	0.001607	0.001658	28.0852	0.038534	0.002086	18.4701	82.1481	-166.822	-0.055620	0.861868	-0.278911	-0.280196	-0.014279	18.4701	-0.278331	-2227.29	6.410733E-6	NaN
1072	1.000000	0.873159	7.37554e+06	-53739.1	1055.82	-29745.3	0.000000	0.000000	6.873103	-0.068220	NaN	0.000000	0.001563	0.001660	28.0846	0.115314	0.002086	55.2729	30.8726	11.4597	-0.025015	0.871746	-0.268906	-0.270319	-0.068220	55.2729	-0.267980	-1551.73	4.396409E-5	NaN
1072	1.000000	0.883140	7.37554e+06	-53739.1	1055.82	-29745.3	0.000000	0.000000	6.883086	-0.021777	NaN	0.000000	0.001643	0.001682	28.0849	0.033986	0.002078	16.3577	-21.738	-168.403	-0.057264	0.881806	-0.258925	-0.260259	-0.021777	16.3577	-0.257926	-1089.2	1.999385E-5	NaN
1072	1.000000	0.893140	7.37554e+06	-53739.1	1055.82	-29745.3	0.000000	0.000000	6.893087	-0.009086	NaN	0.000000	0.001615	0.001670	28.0847	0.111199	0.002031	54.7416	-104.961	13.1794	-0.033220	0.891823	-0.248924	-0.250242	-0.009086	54.7416	-0.248800	-787.761	1.153350E-5	NaN
1072	1.000000	0.903138	7.37554e+06	-53739.1	1055.82	-29745.3	0.000000	0.000000	6.903083	-0.023663	NaN	0.000000	0.001607	0.001699	28.0851	0.035874	0.001995	17.9774	39.4675	-167.379	0.053207	0.901857	-0.238927	-0.240208	-0.023663	17.9774	-0.237940	-533.756	4.433284E-5	NaN
1072	1.000000	0.913184	7.37554e+06	-53739.1	1055.82	-29745.3	0.000000	0.000000	6.913131	0.012552	NaN	0.000000	0.001606	0.001694	28.0849	0.059166	0.001948	30.3736	-129.806	12.793	-0.082029	0.911751	-0.228881	-0.230314	0.012552	30.3736	-0.229191	-388.805	-3.228349E-5	NaN
1072	1.000000	0.923145	7.37554e+06	-53739.1	1055.82	-29745.3	0.000000	0.000000	6.923093	0.028772	NaN	0.000000	0.001584	0.001704	28.0851	0.042864	0.002090	20.5132	49.7853	-166.505	-0.031059	0.921845	-0.218919	-0.220219	0.028772	20.5132	-0.219971	-277.471	-0.000104	NaN
1072	1.000000	0.933155	7.37554e+06	-53739.1	1055.82	-29745.3	0.000000	0.000000	6.933100	-0.039456	NaN	0.000000	0.001644	0.001708	28.0852	0.067384	0.002069	32.5655	-173.521	11.8114	0.023531	0.931829	-0.208910	-0.210235	-0.039456	32.5655	-0.208001	-177.993	0.000222	NaN
1072	1.000000	0.943162	7.37554e+06	-53739.1	1055.82	-29745.3	0.000000	0.000000	6.943107	-0.039021	NaN	0.000000	0.001610	0.001676	28.0852	0.141967	0.002060	68.9125	-104.47	-162.495	0.055746	0.941901	-0.198903	-0.200164	-0.039021	68.9125	-0.198478	-124.353	0.000314	NaN
1072	1.000000	0.953174	7.37554e+06	-53739.1	1055.82	-29745.3	0.000000	0.000000	6.953120	-0.027582	NaN	0.000000	0.001619	0.001663	28.0848	0.030536	0.002089	14.6148	96.4803	11.8055	-0.021814	0.951790	-0.188891	-0.190274	-0.027582	14.6148	-0.187475	-81.6124	0.000338	NaN
1072	1.000000	0.963166	7.37554e+06	-53739.1	1055.82	-29745.3	0.000000	0.000000	6.963113	0.007565	NaN	0.000000	0.001627	0.001661	28.085	0.153593	0.002082	73.767	174.721	-165.469	0.025818	0.961864	-0.178899	-0.180201	0.007565	73.767	-0.178976	-58.6169	-0.000129	NaN
1072	1.000000	0.973171	7.37554e+06	-53739.1	1055.82	-29745.3	0.000000	0.000000	6.973116	-0.044922	NaN	0.000000	0.001603	0.001701	28.0852	0.044595	0.002082	21.4202	165.48	14.0426	-0.054673	0.971823	-0.168893	-0.170241	-0.044922	21.4202	-0.167320	-36.8931	0.001218	NaN
1072	1.000000	0.983191	7.37554e+06	-53739.1	1055.82	-29745.3	0.000000	0.000000	6.983134	-0.078824	NaN	0.000000	0.001540	0.001745	28.0848	0.078374	0.002037	38.468	-11.4091	-170.613	-0.100527	0.981831	-0.158874	-0.160234	-0.078824	38.468	-0.157337	-24.5761	0.003207	NaN
1072	1.000000	0.993176	7.37554e+06	-53739.1	1055.82	-29745.3	0.000000	0.000000	6.993124	0.025381	NaN	0.000000	0.001562	0.001687	28.0848	0.117184	0.002174	53.9042	-132.294	14.5846	0.032690	0.991836	-0.148889	-0.150229	0.025381	53.9042	-0.149242	-17.5453	-0.001447	NaN
1072	1.000000	1.003199	7.37554e+06	-53739.1	1055.82	-29745.3	0.000000	0.000000	7.003145	-0.015661	NaN	0.000000	0.001562	0.001681	28.0834	0.093667	0.001980	47.3125	-136.12	-165.957	-0.042932	1.001885	-0.138866	-0.140180	-0.015661	47.3125	-0.138618	-11.1416	0.001406	NaN
1072	1.000000	1.013207	7.37554e+06	-53739.1	1055.82	-29745.3	0.000000	0.000000	7.013153	-0.017413	NaN	0.000000	0.001574	0.001679	28.0835	0.099926	0.001989	50.2454	13.7782	14.8724	-0.069439	1.011861	-0.128857	-0.130203	-0.017413	50.2454	-0.128598	-7.156496	0.002433	NaN
1072	1.000000	1.023201	7.37554e+06	-53739.1	1055.82	-29745.3	0.000000	0.000000	7.023148	-1.857543E-5	NaN	0.000000	0.001534	0.001696	28.0834	0.051762	0.001902	27.2161	166.374	-167.997	-0.028631	1.021844	-0.118864	-0.120221	-1.857543E-5	27.2161	-0.118863	-4.582299	4.053736E-6	NaN
1072	1.000000	1.033226	7.37554e+06	-53739.1	1055.82	-29745.3	0.000000	0.000000	7.033170	-0.060608	NaN	0.000000	0.001540	0.001690	28.0834	0.081216	0.001968	41.2685	-75.5897	15.0918	-0.025307	1.031854	-0.108839	-0.110210	-0.060608	41.2685	-0.107737	-2.690947	0.022523	NaN
1072	1.000000	1.043202	7.37554e+06	-53739.1	1055.82	-29745.3	0.000000	0.000000	7.043147	-0.033595	NaN	0.000000	0.001531	0.001675	28.0834	0.095916	0.001927	49.7776	89.2178	-164.626	-0.072145	1.041916	-0.098863	-0.100148	-0.033595	49.7776	-0.098357	-1.679515	0.020003	NaN
1072	1.000000	1.053205	7.37554e+06	-53739.1	1055.82	-29745.3	0.000000	0.000000	7.053147	-0.100464	NaN	0.000000	0.001536	0.001677	28.0835	0.109997	0.001972	55.7897	165.577	14.4889	-0.010048	1.051879	-0.088860	-0.090185	-0.100464	55.7897	-0.087510	-0.943932	0.106432	NaN
1072	1.000000	1.063209	7.37554e+06	-53739.1	1055.82	-29745.3	0.000000	0.000000	7.063153	-0.062543	NaN	0.000000	0.001556	0.001750	28.0835	0.095111	0.002019	47.0981	149.793	-168.695	-0.073195	1.061925	-0.078856	-0.080140	-0.062543	47.0981	-0.077860	-0.546734	0.114394	NaN
1072	1.000000	1.073212	7.37554e+06	-53739.1	1055.82	-29745.3	0.000000	0.000000	7.073161	0.064070	NaN	0.000000	0.001560	0.001711	28.0835	0.097300	0.001973	49.3124	29.7458	8.373238	0.068969	1.071858	-0.068853	-0.070206	0.064070	49.3124	-0.069827	-0.337491	-0.189841	NaN
1072	1.000000	1.083262	7.37554e+06	-53739.1	1055.82	-29745.3	0.000000	0.000000	7.083208	-0.015394	NaN	0.000000	0.001549	0.001741	28.0836	0.141541	0.001976	71.623	174.136	-164.675	0.009961	1.081914	-0.058803	-0.060151	-0.015394	71.623	-0.058642	-0.164575	0.093535	NaN
1072	1.000000	1.093236	7.37554e+06	-53739.1	1055.82	-29745.3	0.000000	0.000000	7.093183	0.011783	NaN	0.000000	0.001583	0.001729	28.0838	0.084646	0.002107	40.1739	-77.2095	15.7916	0.010607	1.091855	-0.048828	-0.050210	0.011783	40.1739	-0.049048	-0.085391	-0.137993	NaN
1072	1.000000	1.103236	7.37554e+06	-53739.1	1055.82	-29745.3	0.000000	0.000000	7.103183	0.007056	NaN	0.000000	0.001591	0.001735	28.0834	0.090360	0.001954	46.2505	-59.9459	-164.774	0.042872	1.101880	-0.038828	-0.040185	0.007056	46.2505	-0.038943	-0.042006	-0.167982	NaN
1072	1.000000	1.113222	7.37554e+06	-53739.1	1055.82	-29745.3	0.000000	0.000000	7.113166	-0.063919	NaN	0.000000	0.001606	0.001701	28.0835	0.055744	0.002100	26.5387	138.749	14.817	-0.082128	1.111904	-0.028843	-0.030161	-0.063919	26.5387	-0.027037	-0.019098	3.346928	NaN
1072	1.000000	1.123234	7.37554e+06	-53739.1	1055.82	-29745.3	0.000000	0.000000	7.123177	-0.068328	NaN	0.000000	0.001575	0.001718	28.0835	0.033123	0.001900	17.4334	-49.6407	-168.266	-0.057105	1.121922	-0.018831	-0.020142	-0.068328	17.4334	-0.015892	-0.009816	6.960629	NaN
1072	1.000000	1.133271	7.37554e+06	-53739.1	1055.82	-29745.3	0.000000	0.000000	7.133221	0.071977	NaN	0.000000	0.001610	0.001727	28.0835	0.062182	0.001998	31.1171	140.314	11.8186	-0.009684	1.131939	-0.008793	-0.010126	0.071977	31.1171	-0.010528	-0.006689	-10.7603	NaN
1072	1.000000	1.143285	7.37554e+06	-53739.1	1055.82	-29745.3	0.000000	0.000000	7.143233	0.047902	NaN	0.000000	0.001607	0.001739	28.0846	0.233158	0.001950	119.595	21.6611	-165.789	-0.106095	1.141980	0.001220	-8.431062E-5	0.047902	119.595	0.000919	0.000699	68.4826	4131.42
1072	2.000000	1.152367	7.37554e+06	-53739.1	1055.82	-29745.3	0.000000	0.000000	7.152658	8.362221	NaN	0.000000	0.001552	0.001703	28.0845	8.732221	0.001538	5678.05	9.413706	5.839906	7.965754	1.151741	0.010302	0.009676	8.362221	5678.05	0.009198	0.008304	1007.06	56929.6
1072	2.000000	1.154928	7.37554e+06	-53739.1	1055.82	-29745.3	0.000000	0.000000	7.155337	11.2346	NaN	0.000000	0.001570	0.001712	28.0845	12.1852	0.001680	7253.05	7.155566	-175.548	10.3837	1.154642	0.012864	0.012577	11.2346	7253.05	0.011702	0.011135	1008.94	62798.3
1072	2.000000	1.157415	7.37554e+06	-53739.1	1055.82	-29745.3	0.000000	0.000000	7.158018	15.9409	NaN	0.000000	0.001603	0.001731	28.0843	14.4432	0.001555	9288.57	8.246692	0.470647	14.9613	1.157048	0.015350	0.014983	15.9409	9288.57	0.014063	0.014056	1134.06	71578.8
1072	2.000000	1.159883	7.37554e+06	-53739.1	1055.82	-29745.3	0.000000	0.000000	7.160620	19.2285	NaN	0.000000	0.001580	0.001712	28.0846	17.3181	0.001730	10009.7	5.830872	-176.806	18.457	1.159560	0.017818	0.017495	19.2285	10009.7	0.016377	0.017166	1120.14	69800.6
1072	2.000000	1.162377	7.37554e+06	-53739.1	1055.82	-29745.3	0.000000	0.000000	7.163337	24.6316	NaN	0.000000	0.001580	0.001705	28.0849	19.0955	0.001606	11888.5	5.840608	1.893470	23.1704	1.162028	0.020312	0.019963	24.6316	11888.5	0.018759	0.020629	1194.03	75624.6
1072	2.000000	1.164895	7.37554e+06	-53739.1	1055.82	-29745.3	0.000000	0.000000	7.166015	28.5308	NaN	0.000000	0.001630	0.001703	28.0847	23.0006	0.001939	11865.2	10.4972	178.32	29.516	1.164616	0.022830	0.022551	28.5308	11865.2	0.021027	0.024182	1179.85	69711.3
1072	2.000000	1.167328	7.37554e+06	-53739.1	1055.82	-29745.3	0.000000	0.000000	7.168624	32.8111	NaN	0.000000	0.001605	0.001658	28.0845	25.0605	0.001836	13649.6	6.206933	-0.389625	30.367	1.167095	0.025263	0.025030	32.8111	13649.6	0.023460	0.028274	1160.48	74165.5
1072	2.000000	1.169858	7.37554e+06	-53739.1	1055.82	-29745.3	0.000000	0.000000	7.171588	43.3502	NaN	0.000000	0.001595	0.001696	28.0844	27.2942	0.001756	15545.2	6.204113	179.21	43.4316	1.169476	0.027794	0.027412	43.3502	15545.2	0.025702	0.032305	1341.89	79019.1
1072	2.000000	1.172318	7.37554e+06	-53739.1	1055.82	-29745.3	0.000000	0.000000	7.174171	46.3463	NaN	0.000000	0.001618	0.001718	28.085	30.209	0.001761	17156.1	4.599826	-0.109000	44.1722	1.172011	0.030254	0.029946	46.3463	17156.1	0.028227	0.037150	1247.55	81322.7
1072	2.000000	1.174821	7.37554e+06	-53739.1	1055.82	-29745.3	0.000000	0.000000	7.177074	56.07	NaN	0.000000	0.001617	0.001720	28.0844	32.4451	0.001691	19189.1	1.375751	-178.702	53.9964	1.174542	0.032756	0.032477	56.07	19189.1	0.030565	0.041923	1337.45	85625.2
1072	2.000000	1.177370	7.37554e+06	-53739.1	1055.82	-29745.3	0.000000	0.000000	7.180075	67.0532	NaN	0.000000	0.001640	0.001685	28.085	35.0806	0.001749	20062	5.550992	-2.201489	66.9398	1.176975	0.035306	0.034910	67.0532	20062	0.032799	0.046745	1434.45	84777.3
1072	2.000000	1.179808	7.37554e+06	-53739.1	1055.82	-29745.3	0.000000	0.000000	7.182894	76.3151	NaN	0.000000	0.001636	0.001717	28.0846	37.177	0.001697	21907	4.235374	177.816	74.2274	1.179461	0.037743	0.037396	76.3151	21907	0.035131	0.052050	1466.18	87729.3
1072	2.000000	1.182294	7.37554e+06	-53739.1	1055.82	-29745.3	0.000000	0.000000	7.185841	87.5229	NaN	0.000000	0.001619	0.001710	28.0848	40.899	0.001829	22366	8.745238	-5.778542	84.1193	1.181904	0.040229	0.039839	87.5229	22366	0.037294	0.057223	1529.51	85423.3
1072	2.000000	1.184790	7.37554e+06	-53739.1	1055.82	-29745.3	0.000000	0.000000	7.188619	94.3899	NaN	0.000000	0.001572	0.001707	28.0832	42.2859	0.001791	23606	0.079974	-177.809	91.5315	1.184498	0.042725	0.042433	94.3899	23606	0.039726	0.063323	1490.6	85706.6
1072	2.000000	1.187319	7.37554e+06	-53739.1	1055.82	-29745.3	0.000000	0.000000	7.191571	104.679	NaN	0.000000	0.001537	0.001716	28.0843	44.4537	0.001661	26768.1	1.225501	-0.849537	101.178	1.186999	0.045254	0.044935	104.679	26768.1	0.042321	0.070164	1491.92	92327.9
1072	2.000000	1.189827	7.37554e+06	-53739.1	1055.82	-29745.3	0.000000	0.000000	7.194693	119.599	NaN	0.000000	0.001540	0.001685	28.0832	47.2675	0.001631	28982.3	6.195806	173.234	120.113	1.189505	0.047762	0.047440	119.599	28982.3	0.044667	0.076646	1560.42	95644.8
1072	2.000000	1.192267	7.37554e+06	-53739.1	1055.82	-29745.3	0.000000	0.000000	7.197443	127.137	NaN	0.000000	0.001553	0.001705	28.0842	49.6925	0.001687	29450	0.496864	-0.213239	124.854	1.191894	0.050202	0.049829	127.137	29450	0.046964	0.083262	1526.96	93247
1072	2.000000	1.194829	7.37554e+06	-53739.1	1055.82	-29745.3	0.000000	0.000000	7.200401	136.765	NaN	0.000000	0.001537	0.001737	28.0835	53.8285	0.001716	31365.6	3.313996	175.079	135.127	1.194612	0.052764	0.052548	136.765	31365.6	0.049494	0.090855	1505.3	95071.8
1072	2.000000	1.197303	7.37554e+06	-53739.1	1055.82	-29745.3	0.000000	0.000000	7.203580	153.919	NaN	0.000000	0.001555	0.001689	28.0837	55.4079	0.001753	31614.6	2.907498	-4.133774	151.387	1.197004	0.055238	0.054939	153.919	31614.6	0.051586	0.097379	1580.61	92561
1072	2.000000	1.199832	7.37554e+06	-53739.1	1055.82	-29745.3	0.000000	0.000000	7.206524	164.013	NaN	0.000000	0.001534	0.001730	28.0834	58.5199	0.001869	31310	6.422325	172.427	165.436	1.199543	0.057767	0.057478	164.013	31310	0.053838	0.104645	1567.34	88429.7
1072	2.000000	1.202252	7.37554e+06	-53739.1	1055.82	-29745.3	0.000000	0.000000	7.209653	181.23	NaN	0.000000	0.001567	0.001727	28.0838	60.0249	0.001796	33427.5	3.331234	-5.037959	175.337	1.201903	0.060187	0.059839	181.23	33427.5	0.056121	0.112268	1614.26	91148.4
1072	2.000000	1.204755	7.37554e+06	-53739.1	1055.82	-29745.3	0.000000	0.000000	7.212438	188.091	NaN	0.000000	0.001563	0.001692	28.0833	63.272	0.001742	36319.8	3.788784	173.601	185.43	1.204576	0.062690	0.062511	188.091	36319.8	0.058806	0.121562	1547.29	95173.9
1072	2.000000	1.207322	7.37554e+06	-53739.1	1055.82	-29745.3	0.000000	0.000000	7.215888	209.555	NaN	0.000000	0.001567	0.001715	28.0838	66.0891	0.001806	36600.9	8.136099	-10.4864	207.993	1.206988	0.065257	0.064923	209.555	36600.9	0.060963	0.129283	1620.9	93002.4
1072	2.000000	1.209850	7.37554e+06	-53739.1	1055.82	-29745.3	0.000000	0.000000	7.218886	220.98	NaN	0.000000	0.001516	0.001707	28.0836	68.1486	0.001747	39004.2	7.510310	169.377	221.561	1.209588	0.067785	0.067524	220.98	39004.2	0.063536	0.138794	1592.15	95653.4
1072	2.000000	1.212285	7.37554e+06	-53739.1	1055.82	-29745.3	0.000000	0.000000	7.221898	235.011	NaN	0.000000	0.001539	0.001690	28.0844	70.9047	0.001849	38352.6	-0.151719	-2.226453	232.79	1.212016	0.070220	0.069951	235.011	38352.6	0.065624	0.146745	1601.5	91471.7
1072	2.000000	1.214718	7.37554e+06	-53739.1	1055.82	-29745.3	0.000000	0.000000	7.225272	257.886	NaN	0.000000	0.001521	0.001714	28.0834	73.6157	0.001892	38898.7	2.938243	174.739	252.884	1.214450	0.072653	0.072385	257.886	38898.7	0.067681	0.154782	1666.12	90333.4
1072	2.000000	1.217260	7.37554e+06	-53739.1	1055.82	-29745.3	0.000000	0.000000	7.228396	272.037	NaN	0.000000	0.001551	0.001693	28.0864	74.4765	0.001749	42575.2	1.512538	-4.472440	268.789	1.217060	0.075195	0.074995	272.037	42575.2	0.070403	0.165732	1641.43	95549.3
1072	2.000000	1.219756	7.37554e+06	-53739.1	1055.82	-29745.3	0.000000	0.000000	7.231791	293.868	NaN	0.000000	0.001549	0.001709	28.0877	76.7137	0.001760	43589.1	3.980030	172.851	291.434	1.219383	0.077692	0.077319	293.868	43589.1	0.072635	0.174973	1679.5	95206.1
1072	2.000000	1.222249	7.37554e+06	-53739.1	1055.82	-29745.3	0.000000	0.000000	7.234926	309.496	NaN	0.000000	0.001530	0.001701	28.0856	80.8791	0.001725	46888.4	8.351506	-11.8881	305.177	1.221788	0.080184	0.079723	309.496	46888.4	0.075233	0.186026	1663.72	99323.5
1072	2.000000	1.224690	7.37554e+06	-53739.1	1055.82	-29745.3	0.000000	0.000000	7.237973	324.226	NaN	0.000000	0.001508	0.001759	28.0846	82.5194	0.001813	45510.9	0.419014	176.048	319.553	1.224480	0.082626	0.082415	324.226	45510.9	0.077282	0.194967	1662.97	94169
1072	2.000000	1.227186	7.37554e+06	-53739.1	1055.82	-29745.3	0.000000	0.000000	7.241201	342.017	NaN	0.000000	0.001527	0.001695	28.0846	84.7979	0.001893	44790	3.590068	-6.360906	334.141	1.226820	0.085122	0.084755	342.017	44790	0.079395	0.204390	1673.35	90515.8
1072	2.000000	1.229715	7.37554e+06	-53739.1	1055.82	-29745.3	0.000000	0.000000	7.244588	362.909	NaN	0.000000	0.001493	0.001685	28.0846	87.5298	0.001814	48242.8	4.715871	171.766	359.789	1.229454	0.087650	0.087389	362.909	48242.8	0.082008	0.216336	1677.53	94763.6
1072	2.000000	1.232229	7.37554e+06	-53739.1	1055.82	-29745.3	0.000000	0.000000	7.247533	373.383	NaN	0.000000	0.001517	0.001664	28.085	91.189	0.001744	52286.4	6.635534	-11.5282	369.56	1.232017	0.090164	0.089952	373.383	52286.4	0.084808	0.229487	1627.03	99720.1
1072	2.000000	1.234806	7.37554e+06	-53739.1	1055.82	-29745.3	0.000000	0.000000	7.251019	395.474	NaN	0.000000	0.001550	0.001723	28.0848	93.5923	0.001920	48744	2.111451	174.116	396.205	1.234551	0.092741	0.092486	395.474	48744	0.086656	0.238367	1659.1	91216
1072	2.000000	1.237241	7.37554e+06	-53739.1	1055.82	-29745.3	0.000000	0.000000	7.254432	419.259	NaN	0.000000	0.001523	0.001680	28.0847	94.2876	0.001755	53738.5	2.862164	-7.114879	416.003	1.236865	0.095176	0.094800	419.259	53738.5	0.089325	0.251462	1667.28	97909
1072	2.000000	1.239677	7.37554e+06	-53739.1	1055.82	-29745.3	0.000000	0.000000	7.257111	425.136	NaN	0.000000	0.001520	0.001712	28.0849	96.3641	0.001829	52698	2.799637	172.331	419.831	1.239441	0.097612	0.097376	425.136	52698	0.091562	0.262696	1618.36	93937.9
1072	2.000000	1.242250	7.37554e+06	-53739.1	1055.82	-29745.3	0.000000	0.000000	7.260479	444.478	NaN	0.000000	0.001554	0.001697	28.0846	99.4587	0.001788	55633.4	4.794032	-9.984487	441.258	1.241959	0.100185	0.099894	444.478	55633.4	0.094193	0.276199	1609.27	96715.9
1072	2.000000	1.244778	7.37554e+06	-53739.1	1055.82	-29745.3	0.000000	0.000000	7.263954	467.52	NaN	0.000000	0.001517	0.001705	28.0852	102.632	0.001772	57914.8	4.055380	170.728	467.522	1.244499	0.102713	0.102434	467.52	57914.8	0.096659	0.289139	1616.94	98403.3
1072	2.000000	1.247125	7.37554e+06	-53739.1	1055.82	-29745.3	0.000000	0.000000	7.266906	482.217	NaN	0.000000	0.001535	0.001701	28.0848	103.946	0.001775	58560.9	2.546427	-8.045464	472.078	1.246886	0.105060	0.104821	482.217	58560.9	0.098884	0.301059	1601.73	97511.4
1072	2.000000	1.249700	7.37554e+06	-53739.1	1055.82	-29745.3	0.000000	0.000000	7.270684	511.467	NaN	0.000000	0.001534	0.001696	28.0848	105.735	0.001707	61927.6	2.964831	171.289	507.191	1.249371	0.107635	0.107307	511.467	61927.6	0.101441	0.315029	1623.55	100805
1072	2.000000	1.250902	7.37554e+06	-53739.1	1055.82	-29745.3	0.000000	0.000000	7.272199	519.07	NaN	0.000000	0.001552	0.001700	28.0835	109.298	0.001805	60565.2	11.7102	164.535	525.488	1.250247	0.108837	0.108182	519.07	60565.2	0.102409	0.320397	1620.08	97758