File: remote_trans/data/nanoindenter/0828-1/data/Data_2025-08-06,11h17m57s/2025-07-22_16-23-58_1_261.txt
2025-07-22, 16:23:58, 1
Index	Phase	Displacement	Time	Pos X	Pos Y	Pos Z	Rot A	Rot B	Piezo Z	Force A	Force B	Gripper	Voltage A	Voltage B	Temperature	Amplitude force	Amplitude pos	Stiffness	Phase shift	Phase excitation	Force A raw	Displacement raw	HMax	HMax raw	Real Force	Real Stiffness	Contact Depth	Area	Hardness	Reduced Mod.
[#]	[#]	[um]	[s]	[um]	[um]	[um]	[m°]	[m°]	[um]	[uN]	[uN]	[V]	[V]	[V]	[°C]	[uN]	[um]	[N/m]	[°]	[°]	[uN]	[um]	[um]	[um]	[uN]	[N/m]	[um]	[um^2]	[MPa]	[MPa]
261	1.000000	0.002309	7.36761e+06	-51689.1	955.819	-29751.6	0.000000	0.000000	6.002793	0.048489	NaN	0.000000	0.001610	0.001524	28.0796	0.050027	0.000961	52.0835	-100.784	-165.469	0.040402	0.001086	-1.186762	-1.187985	0.048489	52.0835	-1.187460	-7.461144E+15	-6.498912E-18	NaN
261	1.000000	0.012385	7.36761e+06	-51689.1	955.819	-29751.6	0.000000	0.000000	6.012870	0.080697	NaN	0.000000	0.001591	0.001526	28.0797	0.088990	0.001177	75.5937	151.551	17.0668	0.074412	0.010897	-1.176687	-1.178174	0.080697	75.5937	-1.177487	-5.485371E+15	-1.471126E-17	NaN
261	1.000000	0.022268	7.36761e+06	-51689.1	955.818	-29751.6	0.000000	0.000000	6.022750	-0.006115	NaN	0.000000	0.001603	0.001539	28.0797	0.032606	0.001742	18.7209	137.117	-166.826	-0.043560	0.020999	-1.166804	-1.168072	-0.006115	18.7209	-1.166559	-3.915331E+15	1.561741E-18	NaN
261	1.000000	0.032276	7.36761e+06	-51689.1	955.819	-29751.6	0.000000	0.000000	6.032756	-0.033384	NaN	0.000000	0.001575	0.001541	28.0796	0.091088	0.001968	46.2907	61.0684	14.7227	0.020073	0.030946	-1.156795	-1.158125	-0.033384	46.2907	-1.156255	-2.848824E+15	1.171840E-17	NaN
261	1.000000	0.042260	7.36761e+06	-51689.1	955.819	-29751.6	0.000000	0.000000	6.042743	0.026340	NaN	0.000000	0.001614	0.001541	28.0797	0.127629	0.001929	66.1508	-88.4408	-166.883	0.043813	0.040939	-1.146811	-1.148132	0.026340	66.1508	-1.147110	-2.148199E+15	-1.226144E-17	NaN
261	1.000000	0.052280	7.36761e+06	-51689.1	955.819	-29751.6	0.000000	0.000000	6.052760	-0.027614	NaN	0.000000	0.001601	0.001499	28.0796	0.060624	0.002020	30.0153	-125.701	14.2221	-0.001128	0.050918	-1.136792	-1.138153	-0.027614	30.0153	-1.136102	-1.529184E+15	1.805831E-17	NaN
261	1.000000	0.062260	7.36761e+06	-51689.1	955.818	-29751.6	0.000000	0.000000	6.062744	0.041564	NaN	0.000000	0.001586	0.001526	28.0799	0.045568	0.002018	22.5853	-80.5487	-168.384	-0.003251	0.060997	-1.126811	-1.128075	0.041564	22.5853	-1.128192	-1.197750E+15	-3.470202E-17	NaN
261	1.000000	0.072284	7.36761e+06	-51689.1	955.819	-29751.6	0.000000	0.000000	6.072763	-0.065965	NaN	0.000000	0.001611	0.001516	28.0797	0.052974	0.001917	27.636	-156.26	14.2666	0.001599	0.070890	-1.116788	-1.118182	-0.065965	27.636	-1.114997	-7.968001E+14	8.278713E-17	NaN
261	1.000000	0.082256	7.36761e+06	-51689.1	955.818	-29751.6	0.000000	0.000000	6.082739	0.008300	NaN	0.000000	0.001642	0.001503	28.0797	0.042704	0.002015	21.1933	-24.1647	-164.92	0.007329	0.080998	-1.106815	-1.108073	0.008300	21.1933	-1.107109	-6.244326E+14	-1.329199E-17	NaN
261	1.000000	0.092286	7.36761e+06	-51689.1	955.819	-29751.6	0.000000	0.000000	6.092767	-0.030769	NaN	0.000000	0.001603	0.001474	28.0799	0.097652	0.002026	48.1983	-75.1361	12.01	-0.055791	0.090935	-1.096785	-1.098136	-0.030769	48.1983	-1.096307	-4.471846E+14	6.880538E-17	NaN
261	1.000000	0.102266	7.36761e+06	-51689.1	955.818	-29751.6	0.000000	0.000000	6.102750	0.051318	NaN	0.000000	0.001607	0.001505	28.081	0.125656	0.001902	66.0816	62.8614	-166.299	0.016124	0.101004	-1.086806	-1.088067	0.051318	66.0816	-1.087388	-3.394225E+14	-1.511924E-16	NaN
261	1.000000	0.112303	7.36761e+06	-51689.1	955.819	-29751.6	0.000000	0.000000	6.112787	0.038117	NaN	0.000000	0.001619	0.001493	28.0809	0.020704	0.001924	10.7595	60.4498	14.1431	-0.013535	0.110932	-1.076768	-1.078139	0.038117	10.7595	-1.079425	-2.653362E+14	-1.436551E-16	NaN
261	1.000000	0.122305	7.36761e+06	-51689.1	955.818	-29751.6	0.000000	0.000000	6.122789	0.047914	NaN	0.000000	0.001581	0.001516	28.0812	0.069953	0.002029	34.4811	58.0898	-165.025	0.025692	0.121046	-1.066766	-1.068025	0.047914	34.4811	-1.067808	-1.852433E+14	-2.586566E-16	NaN
261	1.000000	0.132276	7.36761e+06	-51689.1	955.818	-29751.6	0.000000	0.000000	6.132760	0.026365	NaN	0.000000	0.001595	0.001566	28.081	0.091068	0.002058	44.2404	-176.745	12.8404	-0.032664	0.130951	-1.056795	-1.058121	0.026365	44.2404	-1.057242	-1.335835E+14	-1.973674E-16	NaN
261	1.000000	0.142291	7.36761e+06	-51689.1	955.82	-29751.6	0.000000	0.000000	6.142771	-0.044654	NaN	0.000000	0.001570	0.001527	28.0808	0.107585	0.001970	54.6198	35.3251	-163.987	0.013448	0.141029	-1.046780	-1.048043	-0.044654	54.6198	-1.046167	-9.481771E+13	4.709473E-16	NaN
261	1.000000	0.152308	7.36761e+06	-51689.1	955.819	-29751.6	0.000000	0.000000	6.152789	-0.003393	NaN	0.000000	0.001610	0.001537	28.0807	0.003856	0.001939	1.989031	166.085	15.0848	-0.012391	0.150970	-1.036764	-1.038102	-0.003393	1.989031	-1.035484	-6.811478E+13	4.981673E-17	NaN
261	1.000000	0.162305	7.36761e+06	-51689.1	955.818	-29751.6	0.000000	0.000000	6.162789	0.039729	NaN	0.000000	0.001657	0.001536	28.0809	0.020978	0.002133	9.832841	-110.954	-165.303	-0.061434	0.160993	-1.026766	-1.028078	0.039729	9.832841	-1.029797	-5.711422E+13	-6.956023E-16	NaN
261	1.000000	0.172286	7.36761e+06	-51689.1	955.82	-29751.6	0.000000	0.000000	6.172769	0.029406	NaN	0.000000	0.001641	0.001523	28.0809	0.030455	0.002174	14.0111	-151.721	20.4156	0.047503	0.170952	-1.016785	-1.018119	0.029406	14.0111	-1.018359	-4.007536E+13	-7.337747E-16	NaN
261	1.000000	0.182357	7.36761e+06	-51689.1	955.818	-29751.6	0.000000	0.000000	6.182841	0.052148	NaN	0.000000	0.001682	0.001547	28.0808	0.084646	0.002137	39.6097	80.6104	-168.333	0.021584	0.180970	-1.006714	-1.008101	0.052148	39.6097	-1.007701	-2.880339E+13	-1.810471E-15	NaN
261	1.000000	0.192310	7.36761e+06	-51689.1	955.818	-29751.6	0.000000	0.000000	6.192792	-0.000752	NaN	0.000000	0.001649	0.001520	28.0807	0.079403	0.001940	40.9365	-9.846352	12.3814	-0.023451	0.190910	-0.996762	-0.998162	-0.000752	40.9365	-0.996748	-2.051071E+13	3.668564E-17	NaN
261	1.000000	0.202359	7.36761e+06	-51689.1	955.819	-29751.6	0.000000	0.000000	6.202844	0.062309	NaN	0.000000	0.001646	0.001550	28.0811	0.090123	0.001957	46.0454	134.065	-166.757	-0.020119	0.201012	-0.986712	-0.988060	0.062309	46.0454	-0.987727	-1.550602E+13	-4.018373E-15	NaN
261	1.000000	0.212331	7.36761e+06	-51689.1	955.818	-29751.6	0.000000	0.000000	6.212814	0.022559	NaN	0.000000	0.001632	0.001545	28.0808	0.045941	0.002096	21.9223	140.306	14.2649	0.018408	0.210974	-0.976740	-0.978097	0.022559	21.9223	-0.977512	-1.129507E+13	-1.997258E-15	NaN
261	1.000000	0.222332	7.36761e+06	-51689.1	955.817	-29751.6	0.000000	0.000000	6.222816	0.059479	NaN	0.000000	0.001647	0.001542	28.0808	0.078791	0.002138	36.8548	111.929	-164.963	-0.050634	0.221045	-0.966739	-0.968026	0.059479	36.8548	-0.967950	-8.395234E+12	-7.084874E-15	NaN
261	1.000000	0.232359	7.36761e+06	-51689.1	955.819	-29751.6	0.000000	0.000000	6.232841	-0.000502	NaN	0.000000	0.001632	0.001526	28.0797	0.056647	0.001971	28.7462	-57.4356	14.504	-0.069504	0.231000	-0.956713	-0.958071	-0.000502	28.7462	-0.956700	-5.920663E+12	8.485510E-17	NaN
261	1.000000	0.242335	7.36761e+06	-51689.1	955.819	-29751.6	0.000000	0.000000	6.242818	0.026456	NaN	0.000000	0.001628	0.001588	28.0797	0.068912	0.001948	35.3811	2.941141	-165.346	0.010480	0.241031	-0.946737	-0.948040	0.026456	35.3811	-0.947298	-4.421590E+12	-5.983325E-15	NaN
261	1.000000	0.252375	7.36761e+06	-51689.1	955.818	-29751.6	0.000000	0.000000	6.252856	-0.030718	NaN	0.000000	0.001583	0.001557	28.0794	0.065543	0.002040	32.1358	121.701	13.5159	0.088329	0.251011	-0.936696	-0.938061	-0.030718	32.1358	-0.935979	-3.110918E+12	9.874235E-15	NaN
261	1.000000	0.262380	7.36761e+06	-51689.1	955.819	-29751.6	0.000000	0.000000	6.262863	0.016050	NaN	0.000000	0.001637	0.001536	28.0796	0.076342	0.002114	36.1185	-140.863	-167.689	0.076916	0.261104	-0.926691	-0.927968	0.016050	36.1185	-0.927024	-2.355222E+12	-6.814837E-15	NaN
261	1.000000	0.272331	7.36761e+06	-51689.1	955.818	-29751.6	0.000000	0.000000	6.272813	0.015127	NaN	0.000000	0.001595	0.001549	28.0797	0.026422	0.001932	13.6792	-99.9052	13.6382	0.005181	0.270972	-0.916741	-0.918099	0.015127	13.6792	-0.917570	-1.755486E+12	-8.616947E-15	NaN
261	1.000000	0.282359	7.36761e+06	-51689.1	955.819	-29751.6	0.000000	0.000000	6.282842	0.019482	NaN	0.000000	0.001611	0.001553	28.0798	0.069525	0.001965	35.3842	-141.835	-166.105	0.025535	0.281059	-0.906712	-0.908013	0.019482	35.3842	-0.907125	-1.268627E+12	-1.535696E-14	NaN
261	1.000000	0.292361	7.36761e+06	-51689.1	955.819	-29751.6	0.000000	0.000000	6.292840	-0.067257	NaN	0.000000	0.001541	0.001522	28.0795	0.052742	0.002037	25.8873	3.211063	16.2219	-0.001833	0.291028	-0.896710	-0.898044	-0.067257	25.8873	-0.894762	-8.635299E+11	7.788644E-14	NaN
261	1.000000	0.302376	7.36761e+06	-51689.1	955.82	-29751.6	0.000000	0.000000	6.302859	0.011929	NaN	0.000000	0.001536	0.001514	28.0796	0.032179	0.002042	15.7548	-153.423	-166.334	-0.008927	0.301043	-0.886695	-0.888029	0.011929	15.7548	-0.887263	-6.837719E+11	-1.744637E-14	NaN
261	1.000000	0.312370	7.36761e+06	-51689.1	955.819	-29751.6	0.000000	0.000000	6.312854	0.042535	NaN	0.000000	0.001562	0.001500	28.0799	0.020626	0.001942	10.6195	0.454748	12.2	0.071347	0.311001	-0.876701	-0.878070	0.042535	10.6195	-0.879705	-5.404047E+11	-7.870994E-14	NaN
261	1.000000	0.322389	7.36761e+06	-51689.1	955.819	-29751.6	0.000000	0.000000	6.322872	0.038417	NaN	0.000000	0.001562	0.001508	28.0796	0.037373	0.002035	18.3609	163.051	-165.088	0.030123	0.321080	-0.866683	-0.867991	0.038417	18.3609	-0.868252	-3.782600E+11	-1.015625E-13	NaN
261	1.000000	0.332403	7.36761e+06	-51689.1	955.819	-29751.6	0.000000	0.000000	6.332886	0.008036	NaN	0.000000	0.001545	0.001529	28.0797	0.013140	0.001882	6.983607	-94.9591	10.1709	0.038206	0.331051	-0.856668	-0.858020	0.008036	6.983607	-0.857531	-2.708310E+11	-2.967024E-14	NaN
261	1.000000	0.342408	7.36761e+06	-51689.1	955.819	-29751.6	0.000000	0.000000	6.342892	0.068965	NaN	0.000000	0.001575	0.001525	28.0795	0.071594	0.001885	37.9781	14.5678	-166.134	0.023373	0.341087	-0.846664	-0.847984	0.068965	37.9781	-0.848026	-2.013734E+11	-3.424745E-13	NaN
261	1.000000	0.352396	7.36761e+06	-51689.1	955.818	-29751.6	0.000000	0.000000	6.352878	-0.014725	NaN	0.000000	0.001574	0.001529	28.0798	0.076494	0.001953	39.1627	179.115	13.3065	-0.051092	0.351041	-0.836675	-0.838030	-0.014725	39.1627	-0.836393	-1.400956E+11	1.051073E-13	NaN
261	1.000000	0.362417	7.36761e+06	-51689.1	955.819	-29751.6	0.000000	0.000000	6.362899	0.018102	NaN	0.000000	0.001550	0.001516	28.0794	0.060104	0.002035	29.5314	49.4649	-165.468	-0.016644	0.361114	-0.826655	-0.827957	0.018102	29.5314	-0.827114	-1.048747E+11	-1.726025E-13	NaN
261	1.000000	0.372409	7.36761e+06	-51689.1	955.82	-29751.6	0.000000	0.000000	6.372893	0.054287	NaN	0.000000	0.001539	0.001522	28.0805	0.106826	0.002048	52.1631	-147.976	14.7154	0.023998	0.370988	-0.816663	-0.818083	0.054287	52.1631	-0.817443	-7.754204E+10	-7.000987E-13	NaN
261	1.000000	0.382409	7.36761e+06	-51689.1	955.819	-29751.6	0.000000	0.000000	6.382893	0.039760	NaN	0.000000	0.001574	0.001508	28.0807	0.135909	0.002053	66.1905	60.3837	-167.765	0.061156	0.381110	-0.806662	-0.807961	0.039760	66.1905	-0.807112	-5.615535E+10	-7.080272E-13	NaN
261	1.000000	0.392416	7.36761e+06	-51689.1	955.819	-29751.6	0.000000	0.000000	6.392897	-0.018698	NaN	0.000000	0.001568	0.001532	28.081	0.084643	0.001826	46.3464	-120.559	13.9912	-0.040861	0.391089	-0.796656	-0.797982	-0.018698	46.3464	-0.796353	-4.011936E+10	4.660698E-13	NaN
261	1.000000	0.402449	7.36761e+06	-51689.1	955.82	-29751.6	0.000000	0.000000	6.402932	0.023272	NaN	0.000000	0.001522	0.001524	28.0809	0.106731	0.002146	49.7335	87.2062	-165.671	0.060764	0.401105	-0.786622	-0.787967	0.023272	49.7335	-0.786973	-2.992072E+10	-7.777773E-13	NaN
261	1.000000	0.412408	7.36761e+06	-51689.1	955.819	-29751.6	0.000000	0.000000	6.412892	0.048130	NaN	0.000000	0.001580	0.001507	28.0808	0.122583	0.001984	61.7723	145.678	11.9214	0.052964	0.411092	-0.776663	-0.777979	0.048130	61.7723	-0.777248	-2.207122E+10	-2.180678E-12	NaN
261	1.000000	0.422430	7.36761e+06	-51689.1	955.819	-29751.6	0.000000	0.000000	6.422914	0.032689	NaN	0.000000	0.001578	0.001515	28.081	0.086357	0.002113	40.8629	5.481883	-165.838	0.091802	0.421077	-0.766641	-0.767994	0.032689	40.8629	-0.767241	-1.613572E+10	-2.025857E-12	NaN
261	1.000000	0.432443	7.36761e+06	-51689.1	955.82	-29751.6	0.000000	0.000000	6.432930	0.104623	NaN	0.000000	0.001551	0.001543	28.0808	0.053411	0.002053	26.0194	-163.974	11.275	0.120195	0.431056	-0.756628	-0.758015	0.104623	26.0194	-0.759644	-1.271904E+10	-8.225679E-12	NaN
261	1.000000	0.442438	7.36761e+06	-51689.1	955.818	-29751.6	0.000000	0.000000	6.442922	0.057216	NaN	0.000000	0.001578	0.001521	28.0808	0.076202	0.002003	38.0409	126.577	-165.505	0.029963	0.441164	-0.746634	-0.747907	0.057216	38.0409	-0.747762	-8.764982E+9	-6.527841E-12	NaN
261	1.000000	0.452449	7.36761e+06	-51689.1	955.818	-29751.6	0.000000	0.000000	6.452931	0.010415	NaN	0.000000	0.001562	0.001520	28.0806	0.121755	0.001955	62.2812	77.5276	11.0966	0.051126	0.451044	-0.736622	-0.738028	0.010415	62.2812	-0.736748	-6.205158E+9	-1.678433E-12	NaN
261	1.000000	0.462452	7.36761e+06	-51689.1	955.819	-29751.6	0.000000	0.000000	6.462935	0.030957	NaN	0.000000	0.001502	0.001514	28.0809	0.102904	0.002093	49.1687	-9.449474	-165.474	0.003271	0.461165	-0.726620	-0.727906	0.030957	49.1687	-0.727092	-4.583194E+9	-6.754489E-12	NaN
261	1.000000	0.472425	7.36761e+06	-51689.1	955.818	-29751.6	0.000000	0.000000	6.472909	0.044643	NaN	0.000000	0.001530	0.001512	28.0808	0.068459	0.001986	34.4766	-1.420399	9.061354	0.084690	0.471087	-0.716646	-0.717985	0.044643	34.4766	-0.717617	-3.403894E+9	-1.311541E-11	NaN
261	1.000000	0.482419	7.36761e+06	-51689.1	955.819	-29751.6	0.000000	0.000000	6.482901	-0.009241	NaN	0.000000	0.001524	0.001549	28.0806	0.044168	0.001956	22.5852	-1.899272	-166.537	0.021448	0.481084	-0.706652	-0.707988	-0.009241	22.5852	-0.706345	-2.388730E+9	3.868493E-12	NaN
261	1.000000	0.492453	7.36761e+06	-51689.1	955.818	-29751.6	0.000000	0.000000	6.492936	0.044799	NaN	0.000000	0.001534	0.001524	28.0807	0.093945	0.001990	47.2186	74.5664	12.1061	0.075768	0.491088	-0.696619	-0.697983	0.044799	47.2186	-0.697330	-1.799161E+9	-2.489994E-11	NaN
261	1.000000	0.502466	7.36761e+06	-51689.1	955.819	-29751.6	0.000000	0.000000	6.502947	-0.014087	NaN	0.000000	0.001528	0.001522	28.0812	0.009297	0.002020	4.602055	122.648	-169.148	-0.005277	0.501154	-0.686605	-0.687917	-0.014087	4.602055	-0.684310	-1.194365E+9	1.179467E-11	NaN
261	1.000000	0.512446	7.36761e+06	-51689.1	955.819	-29751.6	0.000000	0.000000	6.512927	-0.022780	NaN	0.000000	0.001497	0.001493	28.0798	0.077871	0.001970	39.531	104.128	13.4215	-0.003037	0.511087	-0.676626	-0.677985	-0.022780	39.531	-0.676193	-9.249936E+8	2.462714E-11	NaN
261	1.000000	0.522483	7.36761e+06	-51689.1	955.819	-29751.6	0.000000	0.000000	6.522966	0.015352	NaN	0.000000	0.001512	0.001472	28.0795	0.030501	0.001966	15.5119	125.036	-172.826	0.004470	0.521136	-0.666588	-0.667935	0.015352	15.5119	-0.667330	-6.995915E+8	-2.194398E-11	NaN
261	1.000000	0.532474	7.36761e+06	-51689.1	955.818	-29751.6	0.000000	0.000000	6.532957	0.023158	NaN	0.000000	0.001506	0.001550	28.0793	0.060524	0.002053	29.4864	95.525	13.0858	0.051572	0.531136	-0.656597	-0.657935	0.023158	29.4864	-0.657186	-5.080635E+8	-4.558008E-11	NaN
261	1.000000	0.542480	7.36761e+06	-51689.1	955.818	-29751.6	0.000000	0.000000	6.542962	-0.003997	NaN	0.000000	0.001572	0.001561	28.0796	0.031931	0.002016	15.8355	-153.598	-163.023	-0.034904	0.541149	-0.646591	-0.647922	-0.003997	15.8355	-0.646402	-3.614966E+8	1.105547E-11	NaN
261	1.000000	0.552474	7.36761e+06	-51689.1	955.819	-29751.6	0.000000	0.000000	6.552958	0.038598	NaN	0.000000	0.001557	0.001560	28.0792	0.068203	0.001993	34.2239	163.97	14.7223	-0.018521	0.551180	-0.636597	-0.637891	0.038598	34.2239	-0.637443	-2.723962E+8	-1.416995E-10	NaN
261	1.000000	0.562486	7.36761e+06	-51689.1	955.819	-29751.6	0.000000	0.000000	6.562971	0.069704	NaN	0.000000	0.001523	0.001590	28.0795	0.125506	0.001957	64.138	26.3728	-164.758	0.037144	0.561223	-0.626585	-0.627848	0.069704	64.138	-0.627400	-1.982963E+8	-3.515149E-10	NaN
261	1.000000	0.572486	7.36761e+06	-51689.1	955.819	-29751.6	0.000000	0.000000	6.572967	-0.003859	NaN	0.000000	0.001537	0.001542	28.0795	0.042310	0.002020	20.9503	-132.833	13.0278	-0.003688	0.571115	-0.616586	-0.617957	-0.003859	20.9503	-0.616448	-1.402153E+8	2.752100E-11	NaN
261	1.000000	0.582487	7.36761e+06	-51689.1	955.819	-29751.6	0.000000	0.000000	6.582970	0.037193	NaN	0.000000	0.001567	0.001506	28.0797	0.091237	0.002008	45.4453	88.1377	-164.182	0.008865	0.581199	-0.606584	-0.607872	0.037193	45.4453	-0.607198	-1.046073E+8	-3.555522E-10	NaN
261	1.000000	0.592496	7.36761e+06	-51689.1	955.819	-29751.6	0.000000	0.000000	6.592980	0.043468	NaN	0.000000	0.001504	0.001539	28.0798	0.072928	0.001998	36.4992	-128.267	13.3977	0.055386	0.591127	-0.596575	-0.597945	0.043468	36.4992	-0.597468	-7.684007E+7	-5.656952E-10	NaN
261	1.000000	0.602528	7.36761e+06	-51689.1	955.819	-29751.6	0.000000	0.000000	6.603008	-0.033450	NaN	0.000000	0.001506	0.001563	28.0795	0.050593	0.002054	24.6338	-104.125	-167.777	-0.025687	0.601230	-0.586544	-0.587842	-0.033450	24.6338	-0.585525	-5.259707E+7	6.359644E-10	NaN
261	1.000000	0.612506	7.36761e+06	-51689.1	955.819	-29751.6	0.000000	0.000000	6.612989	0.019251	NaN	0.000000	0.001513	0.001531	28.0795	0.015875	0.001892	8.390412	-165.761	11.1825	0.017050	0.611130	-0.576565	-0.577941	0.019251	8.390412	-0.578286	-4.178940E+7	-4.606650E-10	NaN
261	1.000000	0.622524	7.36761e+06	-51689.1	955.819	-29751.6	0.000000	0.000000	6.623005	-0.011286	NaN	0.000000	0.001551	0.001538	28.0793	0.082828	0.001933	42.839	16.3296	-166.126	0.066685	0.621171	-0.566548	-0.567900	-0.011286	42.839	-0.566350	-2.858843E+7	3.947803E-10	NaN
261	1.000000	0.632527	7.36761e+06	-51689.1	955.818	-29751.6	0.000000	0.000000	6.633010	0.012647	NaN	0.000000	0.001576	0.001540	28.0793	0.034203	0.002035	16.8064	-41.5985	16.132	-0.017679	0.631164	-0.556544	-0.557908	0.012647	16.8064	-0.557109	-2.129962E+7	-5.937550E-10	NaN
261	1.000000	0.642524	7.36761e+06	-51689.1	955.82	-29751.6	0.000000	0.000000	6.643004	-0.040425	NaN	0.000000	0.001523	0.001546	28.0807	0.064153	0.002093	30.6559	64.9845	-166.383	0.001510	0.641209	-0.546548	-0.547862	-0.040425	30.6559	-0.545559	-1.473744E+7	2.743012E-9	NaN
261	1.000000	0.652527	7.36761e+06	-51689.1	955.82	-29751.6	0.000000	0.000000	6.653014	0.107559	NaN	0.000000	0.001525	0.001568	28.0811	0.117037	0.001865	62.7405	86.8269	13.7034	0.070417	0.651204	-0.536544	-0.537868	0.107559	62.7405	-0.537830	-1.151470E+7	-9.341046E-9	NaN
261	1.000000	0.662527	7.36761e+06	-51689.1	955.819	-29751.6	0.000000	0.000000	6.663010	0.024149	NaN	0.000000	0.001549	0.001470	28.0809	0.051554	0.001959	26.3229	62.0362	-161.007	0.042965	0.661221	-0.526544	-0.527850	0.024149	26.3229	-0.527232	-8.2059e+06	-2.942830E-9	NaN
261	1.000000	0.672515	7.36761e+06	-51689.1	955.818	-29751.6	0.000000	0.000000	6.672995	-0.028228	NaN	0.000000	0.001547	0.001513	28.0808	0.088113	0.001982	44.4631	13.9812	15.4708	-0.050304	0.671187	-0.516557	-0.517884	-0.028228	44.4631	-0.516081	-5.7421e+06	4.915914E-9	NaN
261	1.000000	0.682504	7.36761e+06	-51689.1	955.818	-29751.6	0.000000	0.000000	6.682986	-0.008085	NaN	0.000000	0.001565	0.001499	28.0809	0.039288	0.001967	19.9766	-85.7378	-167.09	0.002462	0.681218	-0.506567	-0.507853	-0.008085	19.9766	-0.506263	-4.19136e+06	1.929036E-9	NaN
261	1.000000	0.692549	7.36761e+06	-51689.1	955.819	-29751.6	0.000000	0.000000	6.693030	-0.041355	NaN	0.000000	0.001559	0.001530	28.0808	0.045602	0.001920	23.7546	-175.595	12.7275	-0.005542	0.691186	-0.496522	-0.497886	-0.041355	23.7546	-0.495216	-2.93937e+06	1.406925E-8	NaN
261	1.000000	0.702530	7.36761e+06	-51689.1	955.818	-29751.6	0.000000	0.000000	6.703012	0.023862	NaN	0.000000	0.001552	0.001513	28.0806	0.119730	0.001894	63.2042	-165.161	-168.023	0.011670	0.701182	-0.486542	-0.487889	0.023862	63.2042	-0.486825	-2.24394e+06	-1.063377E-8	NaN
261	1.000000	0.712545	7.36761e+06	-51689.1	955.818	-29751.6	0.000000	0.000000	6.713026	-0.041590	NaN	0.000000	0.001595	0.001479	28.0808	0.112802	0.001959	57.5843	-137.384	11.9231	-0.072574	0.711208	-0.476526	-0.477863	-0.041590	57.5843	-0.475984	-1.58231e+06	2.628453E-8	NaN
261	1.000000	0.722555	7.36761e+06	-51689.1	955.819	-29751.6	0.000000	0.000000	6.723036	-0.021331	NaN	0.000000	0.001607	0.001498	28.0809	0.086946	0.002077	41.869	-97.0932	-164.33	-0.054945	0.721208	-0.466516	-0.467863	-0.021331	41.869	-0.466134	-1.15124e+06	1.852900E-8	NaN
261	1.000000	0.732541	7.36761e+06	-51689.1	955.819	-29751.6	0.000000	0.000000	6.733021	-0.039102	NaN	0.000000	0.001585	0.001481	28.0806	0.085555	0.002059	41.5442	134.509	16.8411	-0.064803	0.731236	-0.456530	-0.457835	-0.039102	41.5442	-0.455824	-824733	4.741155E-8	NaN
261	1.000000	0.742557	7.36761e+06	-51689.1	955.819	-29751.6	0.000000	0.000000	6.743039	0.008722	NaN	0.000000	0.001592	0.001498	28.0806	0.056341	0.001970	28.6008	165.793	-164.557	-0.030901	0.741274	-0.446514	-0.447797	0.008722	28.6008	-0.446743	-614415	-1.419569E-8	NaN
261	1.000000	0.752565	7.36761e+06	-51689.1	955.818	-29751.6	0.000000	0.000000	6.753048	0.008916	NaN	0.000000	0.001555	0.001480	28.0805	0.032277	0.002043	15.8012	-40.0468	13.5454	-0.013549	0.751233	-0.436506	-0.437839	0.008916	15.8012	-0.436929	-446693	-1.996051E-8	NaN
261	1.000000	0.762559	7.36761e+06	-51689.1	955.818	-29751.6	0.000000	0.000000	6.763041	0.008891	NaN	0.000000	0.001565	0.001478	28.0809	0.008141	0.001922	4.235814	-0.757061	-168.122	-0.016674	0.761252	-0.426512	-0.427820	0.008891	4.235814	-0.428087	-334954	-2.654322E-8	NaN
261	1.000000	0.772589	7.36761e+06	-51689.1	955.819	-29751.6	0.000000	0.000000	6.773070	-0.025055	NaN	0.000000	0.001577	0.001463	28.0808	0.121719	0.002008	60.6202	131.508	12.3845	0.027204	0.771210	-0.416482	-0.417861	-0.025055	60.6202	-0.416172	-227036	1.103553E-7	NaN
261	1.000000	0.782562	7.36761e+06	-51689.1	955.818	-29751.6	0.000000	0.000000	6.783042	-0.040023	NaN	0.000000	0.001547	0.001492	28.0795	0.086436	0.001886	45.8394	-80.7046	-164.987	-0.052918	0.781270	-0.406509	-0.407801	-0.040023	45.8394	-0.405854	-161962	2.471155E-7	NaN
261	1.000000	0.792599	7.36761e+06	-51689.1	955.819	-29751.6	0.000000	0.000000	6.793080	-0.034089	NaN	0.000000	0.001563	0.001495	28.0796	0.046152	0.002005	23.0239	-153.933	16.6896	-0.012042	0.791213	-0.396472	-0.397859	-0.034089	23.0239	-0.395361	-114761	2.970424E-7	NaN
261	1.000000	0.802577	7.36761e+06	-51689.1	955.819	-29751.6	0.000000	0.000000	6.803057	-0.028689	NaN	0.000000	0.001549	0.001518	28.0797	0.051293	0.001965	26.1087	76.1771	-165.293	-0.022330	0.801256	-0.386495	-0.387816	-0.028689	26.1087	-0.385671	-83405.3	3.439726E-7	NaN
261	1.000000	0.812586	7.36761e+06	-51689.1	955.819	-29751.6	0.000000	0.000000	6.813065	-0.058499	NaN	0.000000	0.001525	0.001513	28.0796	0.149421	0.002083	71.7181	166.072	10.4547	0.008117	0.811237	-0.376485	-0.377834	-0.058499	71.7181	-0.375874	-60343.4	9.694327E-7	NaN
261	1.000000	0.822604	7.36761e+06	-51689.1	955.819	-29751.6	0.000000	0.000000	6.823086	0.017822	NaN	0.000000	0.001570	0.001516	28.0796	0.115085	0.001938	59.3693	-23.4525	-165.276	0.007600	0.821224	-0.366468	-0.367847	0.017822	59.3693	-0.366693	-44511.5	-4.003995E-7	NaN
261	1.000000	0.832573	7.36761e+06	-51689.1	955.818	-29751.6	0.000000	0.000000	6.833056	0.006157	NaN	0.000000	0.001577	0.001524	28.0799	0.079715	0.002043	39.0122	179.605	14.1198	0.070804	0.831265	-0.356498	-0.357806	0.006157	39.0122	-0.356616	-31834.6	-1.934092E-7	NaN
261	1.000000	0.842605	7.36761e+06	-51689.1	955.819	-29751.6	0.000000	0.000000	6.843085	-0.045649	NaN	0.000000	0.001579	0.001514	28.0798	0.024998	0.002047	12.2108	-79.3024	-165.618	-0.100964	0.841301	-0.346467	-0.347770	-0.045649	12.2108	-0.343663	-20649.2	2.210675E-6	NaN
261	1.000000	0.852613	7.36761e+06	-51689.1	955.819	-29751.6	0.000000	0.000000	6.853094	-0.007839	NaN	0.000000	0.001602	0.001531	28.0798	0.088331	0.001974	44.758	-17.9263	11.71	-0.069880	0.851250	-0.336459	-0.337822	-0.007839	44.758	-0.336327	-16142.6	4.855827E-7	NaN
261	1.000000	0.862616	7.36761e+06	-51689.1	955.819	-29751.6	0.000000	0.000000	6.863097	-0.021179	NaN	0.000000	0.001549	0.001547	28.0796	0.071909	0.001958	36.7263	-49.9592	-164.578	-0.044509	0.861324	-0.326456	-0.327748	-0.021179	36.7263	-0.326023	-11406.5	1.856703E-6	NaN
261	1.000000	0.872577	7.36761e+06	-51689.1	955.819	-29751.6	0.000000	0.000000	6.873061	0.054760	NaN	0.000000	0.001615	0.001550	28.0798	0.070513	0.002115	33.3344	176.589	14.8937	-0.031188	0.871235	-0.316494	-0.317836	0.054760	33.3344	-0.317726	-8612.94	-6.357832E-6	NaN
261	1.000000	0.882606	7.36761e+06	-51689.1	955.82	-29751.6	0.000000	0.000000	6.883088	0.012963	NaN	0.000000	0.001620	0.001530	28.0796	0.126120	0.001962	64.2755	85.8307	-163.303	0.042860	0.881304	-0.306466	-0.307767	0.012963	64.2755	-0.306617	-5901.2	-2.196678E-6	NaN
261	1.000000	0.892626	7.36761e+06	-51689.1	955.819	-29751.6	0.000000	0.000000	6.893108	-0.011132	NaN	0.000000	0.001656	0.001498	28.0796	0.115320	0.001959	58.8634	150.723	11.0654	-0.040032	0.891193	-0.296445	-0.297878	-0.011132	58.8634	-0.296303	-4145.15	2.685526E-6	NaN
261	1.000000	0.902653	7.36761e+06	-51689.1	955.818	-29751.6	0.000000	0.000000	6.903138	0.066747	NaN	0.000000	0.001657	0.001535	28.0796	0.030120	0.001806	16.676	104.097	-164.96	0.007855	0.901364	-0.286418	-0.287708	0.066747	16.676	-0.289420	-3270.48	-2.040889E-5	NaN
261	1.000000	0.912630	7.36761e+06	-51689.1	955.819	-29751.6	0.000000	0.000000	6.913113	0.030133	NaN	0.000000	0.001667	0.001561	28.08	0.114815	0.002077	55.277	102.667	11.6907	0.099871	0.911240	-0.276442	-0.277831	0.030133	55.277	-0.276850	-2115.44	-1.424432E-5	NaN
261	1.000000	0.922629	7.36761e+06	-51689.1	955.82	-29751.6	0.000000	0.000000	6.923111	0.001086	NaN	0.000000	0.001589	0.001532	28.0809	0.021724	0.002130	10.1983	-71.017	-164.921	-0.045658	0.921320	-0.266443	-0.267752	0.001086	10.1983	-0.266522	-1474.38	-7.363103E-7	NaN
261	1.000000	0.932620	7.36761e+06	-51689.1	955.819	-29751.6	0.000000	0.000000	6.933101	-0.019856	NaN	0.000000	0.001599	0.001550	28.0811	0.062087	0.002022	30.7046	-124.59	13.3229	0.034896	0.931301	-0.256452	-0.257770	-0.019856	30.7046	-0.255967	-1016.23	1.953891E-5	NaN
261	1.000000	0.942642	7.36761e+06	-51689.1	955.819	-29751.6	0.000000	0.000000	6.943125	0.023868	NaN	0.000000	0.001589	0.001565	28.0812	0.078769	0.001927	40.8791	-93.5017	-165.429	0.018566	0.941361	-0.246429	-0.247710	0.023868	40.8791	-0.246867	-735.26	-3.246211E-5	NaN
261	1.000000	0.952649	7.36761e+06	-51689.1	955.818	-29751.6	0.000000	0.000000	6.953129	-0.054646	NaN	0.000000	0.001566	0.001544	28.081	0.048674	0.001919	25.3633	53.8378	12.824	-0.047936	0.951268	-0.236422	-0.237803	-0.054646	25.3633	-0.234806	-476.658	0.000115	NaN
261	1.000000	0.962609	7.36761e+06	-51689.1	955.82	-29751.6	0.000000	0.000000	6.963091	0.016211	NaN	0.000000	0.001591	0.001547	28.081	0.071067	0.001989	35.7315	-34.974	-164.437	0.005077	0.961346	-0.226463	-0.227726	0.016211	35.7315	-0.226803	-356.4	-4.548505E-5	NaN
261	1.000000	0.972651	7.36761e+06	-51689.1	955.818	-29751.6	0.000000	0.000000	6.973131	-0.049684	NaN	0.000000	0.001600	0.001506	28.0808	0.114168	0.001939	58.8882	28.6607	12.5979	-0.073857	0.971272	-0.216420	-0.217799	-0.049684	58.8882	-0.215788	-237.781	0.000209	NaN
261	1.000000	0.982649	7.36761e+06	-51689.1	955.818	-29751.6	0.000000	0.000000	6.983133	0.043201	NaN	0.000000	0.001580	0.001511	28.081	0.020782	0.002128	9.765061	134.856	-162.847	-0.001870	0.981319	-0.206422	-0.207753	0.043201	9.765061	-0.209740	-189.936	-0.000227	NaN
261	1.000000	0.992659	7.36761e+06	-51689.1	955.819	-29751.6	0.000000	0.000000	6.993140	-0.024039	NaN	0.000000	0.001576	0.001576	28.081	0.128675	0.002017	63.796	174.773	13.0915	-0.059086	0.991276	-0.196412	-0.197795	-0.024039	63.796	-0.196130	-113.737	0.000211	NaN
261	1.000000	1.002662	7.36761e+06	-51689.1	955.818	-29751.6	0.000000	0.000000	7.003143	-0.036318	NaN	0.000000	0.001595	0.001549	28.0811	0.096040	0.002003	47.9494	0.742300	-167.696	-0.073400	1.001423	-0.186409	-0.187648	-0.036318	47.9494	-0.185841	-76.6121	0.000474	NaN
261	1.000000	1.012678	7.36761e+06	-51689.1	955.818	-29751.6	0.000000	0.000000	7.013161	0.007152	NaN	0.000000	0.001585	0.001568	28.0811	0.026969	0.002055	13.1214	-2.653866	10.3873	0.107868	1.011354	-0.176393	-0.177717	0.007152	13.1214	-0.176802	-53.8127	-0.000133	NaN
261	1.000000	1.022697	7.36761e+06	-51689.1	955.817	-29751.6	0.000000	0.000000	7.023179	0.001534	NaN	0.000000	0.001562	0.001584	28.0814	0.134412	0.001854	72.4941	95.1412	-164.189	0.019561	1.021344	-0.166375	-0.167727	0.001534	72.4941	-0.166391	-35.5375	-4.316848E-5	NaN
261	1.000000	1.032687	7.36761e+06	-51689.1	955.817	-29751.6	0.000000	0.000000	7.033172	0.065357	NaN	0.000000	0.001579	0.001570	28.0809	0.013517	0.002072	6.523020	-81.0782	16.4116	0.064834	1.031326	-0.156384	-0.157745	0.065357	6.523020	-0.163899	-32.1323	-0.002034	NaN
261	1.000000	1.042668	7.36761e+06	-51689.1	955.817	-29751.6	0.000000	0.000000	7.043150	0.002402	NaN	0.000000	0.001595	0.001545	28.0814	0.050153	0.002028	24.732	-73.8004	-167.589	0.007142	1.041330	-0.146403	-0.147741	0.002402	24.732	-0.146476	-15.6106	-0.000154	NaN
261	1.000000	1.052650	7.36761e+06	-51689.1	955.818	-29751.6	0.000000	0.000000	7.053132	-0.009730	NaN	0.000000	0.001557	0.001509	28.08	0.022436	0.001956	11.4694	-27.7654	12.9255	-0.000674	1.051316	-0.136421	-0.137755	-0.009730	11.4694	-0.135785	-9.845965	0.000988	NaN
261	1.000000	1.062660	7.36761e+06	-51689.1	955.818	-29751.6	0.000000	0.000000	7.063141	-0.017825	NaN	0.000000	0.001574	0.001530	28.08	0.143313	0.002038	70.3207	117.715	-167.147	0.039273	1.061370	-0.126412	-0.127701	-0.017825	70.3207	-0.126222	-6.428499	0.002773	NaN
261	1.000000	1.072726	7.36761e+06	-51689.1	955.82	-29751.6	0.000000	0.000000	7.073208	0.016472	NaN	0.000000	0.001602	0.001538	28.0798	0.061113	0.001848	33.0638	-24.7646	10.8268	0.021118	1.071328	-0.116345	-0.117743	0.016472	33.0638	-0.116719	-4.143929	-0.003975	NaN
261	1.000000	1.082694	7.36761e+06	-51689.1	955.819	-29751.6	0.000000	0.000000	7.083174	-0.053817	NaN	0.000000	0.001576	0.001523	28.0802	0.074043	0.001888	39.2135	-100.212	-170.215	-0.096119	1.081390	-0.106377	-0.107681	-0.053817	39.2135	-0.105348	-2.391593	0.022503	NaN
261	1.000000	1.092703	7.36761e+06	-51689.1	955.82	-29751.6	0.000000	0.000000	7.093183	-0.048683	NaN	0.000000	0.001581	0.001547	28.0801	0.113474	0.002059	55.1079	50.9113	16.1338	-0.016103	1.091299	-0.096368	-0.097772	-0.048683	55.1079	-0.095705	-1.463716	0.033260	NaN
261	1.000000	1.102684	7.36761e+06	-51689.1	955.82	-29751.6	0.000000	0.000000	7.103166	0.003697	NaN	0.000000	0.001604	0.001534	28.0797	0.107819	0.002104	51.2454	146.072	-165.646	-0.034208	1.101369	-0.086387	-0.087702	0.003697	51.2454	-0.086441	-0.890033	-0.004153	NaN
261	1.000000	1.112688	7.36761e+06	-51689.1	955.818	-29751.6	0.000000	0.000000	7.113170	0.008375	NaN	0.000000	0.001570	0.001516	28.0798	0.090369	0.001946	46.4334	-60.0819	12.4263	-0.051909	1.111415	-0.076383	-0.077656	0.008375	46.4334	-0.076518	-0.505359	-0.016573	NaN
261	1.000000	1.122730	7.36761e+06	-51689.1	955.819	-29751.6	0.000000	0.000000	7.123212	0.016442	NaN	0.000000	0.001520	0.001497	28.0799	0.064434	0.002049	31.4394	140.004	-165.574	-0.006547	1.121417	-0.066342	-0.067654	0.016442	31.4394	-0.066734	-0.278219	-0.059098	NaN
261	1.000000	1.132735	7.36761e+06	-51689.1	955.818	-29751.6	0.000000	0.000000	7.133216	-0.035436	NaN	0.000000	0.001539	0.001500	28.0799	0.081170	0.002150	37.7585	108.398	14.5382	-0.039452	1.131348	-0.056336	-0.057723	-0.035436	37.7585	-0.055632	-0.134428	0.263608	NaN
261	1.000000	1.142711	7.36761e+06	-51689.1	955.818	-29751.6	0.000000	0.000000	7.143194	0.033089	NaN	0.000000	0.001540	0.001538	28.0798	0.025358	0.001961	12.9303	89.833	-167.945	0.058811	1.141389	-0.046361	-0.047682	0.033089	12.9303	-0.048280	-0.080923	-0.408896	NaN
261	1.000000	1.152690	7.36761e+06	-51689.1	955.819	-29751.6	0.000000	0.000000	7.153170	-0.055013	NaN	0.000000	0.001567	0.001519	28.0798	0.016984	0.002093	8.113795	70.0814	12.6553	-0.051717	1.151368	-0.036381	-0.037703	-0.055013	8.113795	-0.031296	-0.025025	2.198311	NaN
261	1.000000	1.162718	7.36761e+06	-51689.1	955.817	-29751.6	0.000000	0.000000	7.163203	0.061323	NaN	0.000000	0.001497	0.001526	28.0799	0.044091	0.001950	22.6128	-9.348287	-167.145	0.075277	1.161413	-0.026353	-0.027658	0.061323	22.6128	-0.028387	-0.020773	-2.952099	NaN
261	1.000000	1.172704	7.36761e+06	-51689.1	955.82	-29751.6	0.000000	0.000000	7.173187	0.029475	NaN	0.000000	0.001520	0.001496	28.0798	0.114220	0.001865	61.2502	-150.137	14.9345	0.127122	1.171395	-0.016367	-0.017676	0.029475	61.2502	-0.016728	-0.010338	-2.851159	NaN
261	1.000000	1.182740	7.36761e+06	-51689.1	955.819	-29751.6	0.000000	0.000000	7.183220	-0.045428	NaN	0.000000	0.001537	0.001519	28.0798	0.134963	0.001803	74.8529	-19.9122	-166.331	-0.034573	1.181460	-0.006331	-0.007611	-0.045428	74.8529	-0.005876	-0.003961	11.47	NaN
261	1.000000	1.192710	7.36761e+06	-51689.1	955.82	-29751.6	0.000000	0.000000	7.193324	3.205732	NaN	0.000000	0.001596	0.001539	28.0812	4.028533	0.001924	2093.66	7.346070	11.6642	1.416354	1.191362	0.003639	0.002291	3.205732	2093.66	0.002490	0.001955	1639.49	43258.3
261	2.000000	1.198358	7.36761e+06	-51689.1	955.818	-29751.6	0.000000	0.000000	7.199304	11.2745	NaN	0.000000	0.001602	0.001541	28.0812	9.726309	0.001519	6404.19	3.534422	-171.984	10.1853	1.198044	0.009287	0.008972	11.2745	6404.19	0.007966	0.007008	1608.88	69895.6
261	2.000000	1.200897	7.36761e+06	-51689.1	955.819	-29751.6	0.000000	0.000000	7.201973	14.4512	NaN	0.000000	0.001591	0.001520	28.0812	12.3795	0.001717	7209.15	9.826259	3.407081	13.8968	1.200540	0.011826	0.011468	14.4512	7209.15	0.010322	0.009542	1514.53	67428.6
261	2.000000	1.203315	7.36761e+06	-51689.1	955.82	-29751.6	0.000000	0.000000	7.204566	18.6895	NaN	0.000000	0.001605	0.001534	28.081	15.2204	0.001660	9167.15	6.220482	-175.705	18.2718	1.202973	0.014244	0.013902	18.6895	9167.15	0.012715	0.012357	1512.42	75343.3
261	2.000000	1.205866	7.36761e+06	-51689.1	955.819	-29751.6	0.000000	0.000000	7.207200	20.7221	NaN	0.000000	0.001574	0.001529	28.0813	17.8839	0.001737	10293.1	5.010332	4.063529	19.8374	1.205461	0.016795	0.016390	20.7221	10293.1	0.015285	0.015667	1322.65	75131.8
261	2.000000	1.208311	7.36761e+06	-51689.1	955.819	-29751.6	0.000000	0.000000	7.209978	28.7969	NaN	0.000000	0.001574	0.001526	28.0814	20.5406	0.001631	12596.8	2.997103	-176.675	27.4335	1.208012	0.019240	0.018941	28.7969	12596.8	0.017526	0.018802	1531.57	83932.4
261	2.000000	1.210820	7.36761e+06	-51689.1	955.82	-29751.6	0.000000	0.000000	7.212679	33.4699	NaN	0.000000	0.001525	0.001527	28.0811	22.829	0.001815	12579.8	5.484926	0.806368	32.046	1.210529	0.021749	0.021458	33.4699	12579.8	0.019754	0.022157	1510.6	77214.1
261	2.000000	1.213287	7.36761e+06	-51689.1	955.819	-29751.6	0.000000	0.000000	7.215257	36.1642	NaN	0.000000	0.001572	0.001550	28.0812	24.8802	0.001679	14816.6	5.348152	-179.467	35.1693	1.213002	0.024216	0.023931	36.1642	14816.6	0.022386	0.026430	1368.29	83266.7
261	2.000000	1.215748	7.36761e+06	-51689.1	955.817	-29751.6	0.000000	0.000000	7.218133	46.2672	NaN	0.000000	0.001547	0.001535	28.0811	28.0779	0.001758	15975.1	4.151148	0.145947	43.4388	1.215453	0.026677	0.026382	46.2672	15975.1	0.024504	0.030120	1536.08	84098.4
261	2.000000	1.218272	7.36761e+06	-51689.1	955.818	-29751.6	0.000000	0.000000	7.221033	55.4317	NaN	0.000000	0.001552	0.001502	28.0812	31.165	0.001813	17191.1	4.827749	179.798	54.9146	1.217955	0.029201	0.028883	55.4317	17191.1	0.026782	0.034338	1614.3	84759.9
261	2.000000	1.220753	7.36761e+06	-51689.1	955.817	-29751.6	0.000000	0.000000	7.223703	60.0187	NaN	0.000000	0.001565	0.001505	28.0809	33.6446	0.001860	18092.3	9.367733	-5.276657	55.9141	1.220345	0.031681	0.031274	60.0187	18092.3	0.029193	0.039089	1535.45	83607.1
261	2.000000	1.223264	7.36761e+06	-51689.1	955.818	-29751.6	0.000000	0.000000	7.226583	68.9854	NaN	0.000000	0.001521	0.001511	28.0811	34.5748	0.001705	20273.2	4.950797	178.428	67.624	1.222977	0.034193	0.033906	68.9854	20273.2	0.031641	0.044213	1560.3	88089.1
261	2.000000	1.225761	7.36761e+06	-51689.1	955.818	-29751.6	0.000000	0.000000	7.229418	77.19	NaN	0.000000	0.001573	0.001512	28.0812	38.2434	0.001788	21394.5	1.402914	1.587064	76.2579	1.225376	0.036690	0.036305	77.19	21394.5	0.033984	0.049406	1562.35	87939.5
261	2.000000	1.228287	7.36761e+06	-51689.1	955.818	-29751.6	0.000000	0.000000	7.232140	81.9594	NaN	0.000000	0.001546	0.001558	28.0812	42.9922	0.001930	22272.6	11.0517	171.266	83.8218	1.228028	0.039216	0.038956	81.9594	22272.6	0.036456	0.055190	1485.03	86618.9
261	2.000000	1.230710	7.36761e+06	-51689.1	955.819	-29751.6	0.000000	0.000000	7.235085	94.6511	NaN	0.000000	0.001584	0.001521	28.0799	42.8196	0.001707	25081.8	2.928242	-1.696857	90.8411	1.230419	0.041639	0.041348	94.6511	25081.8	0.038809	0.060986	1552.02	92793.3
261	2.000000	1.233182	7.36761e+06	-51689.1	955.819	-29751.6	0.000000	0.000000	7.238109	108.093	NaN	0.000000	0.001531	0.001501	28.0797	45.0088	0.001722	26131.8	3.611971	177.283	104.656	1.232956	0.044111	0.043884	108.093	26131.8	0.041008	0.066660	1621.56	92471.9
261	2.000000	1.235775	7.36761e+06	-51689.1	955.818	-29751.6	0.000000	0.000000	7.241063	116.87	NaN	0.000000	0.001529	0.001542	28.08	48.7733	0.001879	25957.8	6.998016	-5.271835	116.907	1.235351	0.046703	0.046280	116.87	25957.8	0.043326	0.072907	1603	87832.5
261	2.000000	1.238255	7.36761e+06	-51689.1	955.817	-29751.6	0.000000	0.000000	7.243761	122.178	NaN	0.000000	0.001529	0.001571	28.0797	50.6437	0.001757	28827.8	1.398594	178.397	122.238	1.237974	0.049183	0.048903	122.178	28827.8	0.046005	0.080466	1518.4	92849.6
261	2.000000	1.240663	7.36761e+06	-51689.1	955.819	-29751.6	0.000000	0.000000	7.247002	142.427	NaN	0.000000	0.001493	0.001590	28.0797	52.6292	0.001761	29886	4.262084	-4.180081	135.667	1.240300	0.051592	0.051228	142.427	29886	0.048017	0.086384	1648.77	92901.9
261	2.000000	1.243230	7.36761e+06	-51689.1	955.817	-29751.6	0.000000	0.000000	7.250086	154.996	NaN	0.000000	0.001585	0.001554	28.0796	55.026	0.001783	30855	8.644137	171.772	154.241	1.242868	0.054159	0.053796	154.996	30855	0.050391	0.093626	1655.47	92129.5
261	2.000000	1.245704	7.36761e+06	-51689.1	955.818	-29751.6	0.000000	0.000000	7.252908	163.474	NaN	0.000000	0.001542	0.001571	28.0799	56.9872	0.001729	32968.8	-0.604317	-0.716967	159.991	1.245388	0.056632	0.056317	163.474	32968.8	0.052913	0.101631	1608.51	94485.3
261	2.000000	1.248195	7.36761e+06	-51689.1	955.818	-29751.6	0.000000	0.000000	7.256024	178.633	NaN	0.000000	0.001524	0.001536	28.0796	61.251	0.001840	33296.8	4.833584	174.268	176.461	1.247940	0.059124	0.058869	178.633	33296.8	0.055100	0.108827	1641.43	92216.1
261	2.000000	1.250735	7.36761e+06	-51689.1	955.818	-29751.6	0.000000	0.000000	7.259057	190.64	NaN	0.000000	0.001589	0.001622	28.0796	62.7328	0.001821	34452.4	4.384805	-4.769670	188.534	1.250343	0.061664	0.061271	190.64	34452.4	0.057513	0.117043	1628.8	92006.7
261	2.000000	1.253197	7.36761e+06	-51689.1	955.819	-29751.6	0.000000	0.000000	7.262034	203.182	NaN	0.000000	0.001559	0.001538	28.0798	65.1154	0.001710	38081.5	4.793393	172.734	198.334	1.252822	0.064125	0.063750	203.182	38081.5	0.060124	0.126252	1609.33	97919.2
261	2.000000	1.255660	7.36761e+06	-51689.1	955.819	-29751.6	0.000000	0.000000	7.265103	217.876	NaN	0.000000	0.001529	0.001512	28.0797	69.4221	0.001882	36879	5.692790	-7.183111	213.83	1.255382	0.066589	0.066310	217.876	36879	0.062158	0.133661	1630.06	92161.7
261	2.000000	1.258206	7.36761e+06	-51689.1	955.819	-29751.6	0.000000	0.000000	7.268336	234.604	NaN	0.000000	0.001543	0.001529	28.0797	70.7984	0.001741	40666.5	3.242888	173.953	232.933	1.257973	0.069134	0.068902	234.604	40666.5	0.064808	0.143610	1633.62	98043
261	2.000000	1.260736	7.36761e+06	-51689.1	955.818	-29751.6	0.000000	0.000000	7.271513	250.339	NaN	0.000000	0.001561	0.001532	28.0797	72.567	0.001666	43559.6	5.379475	-7.766274	248.682	1.260399	0.071665	0.071327	250.339	43559.6	0.067354	0.153493	1630.95	101581
261	2.000000	1.263229	7.36761e+06	-51689.1	955.817	-29751.6	0.000000	0.000000	7.274528	263.032	NaN	0.000000	0.001558	0.001615	28.0814	75.4279	0.001664	45341.7	7.498598	168.675	264.444	1.262959	0.074157	0.073888	263.032	45341.7	0.069807	0.163302	1610.71	102512
261	2.000000	1.265793	7.36761e+06	-51689.1	955.818	-29751.6	0.000000	0.000000	7.277434	271.344	NaN	0.000000	0.001565	0.001596	28.0812	78.2144	0.001859	42074.7	2.128504	-4.875676	275.179	1.265553	0.076722	0.076481	271.344	42074.7	0.071885	0.171840	1579.05	92732.4
261	2.000000	1.268185	7.36761e+06	-51689.1	955.817	-29751.6	0.000000	0.000000	7.281166	303.931	NaN	0.000000	0.001586	0.001578	28.0811	80.339	0.001576	50963.2	3.350998	172.246	300.875	1.267872	0.079114	0.078801	303.931	50963.2	0.074641	0.183478	1656.5	108702
261	2.000000	1.270759	7.36761e+06	-51689.1	955.817	-29751.6	0.000000	0.000000	7.284232	315.888	NaN	0.000000	0.001558	0.001579	28.0813	82.3658	0.001781	46234.2	2.480510	-5.708515	315.306	1.270505	0.081688	0.081433	315.888	46234.2	0.076563	0.191807	1646.91	96450.4
261	2.000000	1.273127	7.36761e+06	-51689.1	955.817	-29751.6	0.000000	0.000000	7.287327	333.575	NaN	0.000000	0.001523	0.001615	28.0813	85.3969	0.001720	49653.1	5.049409	170.733	330.18	1.272927	0.084055	0.083855	333.575	49653.1	0.079017	0.202688	1645.75	100764
261	2.000000	1.275677	7.36761e+06	-51689.1	955.818	-29751.6	0.000000	0.000000	7.291040	361.85	NaN	0.000000	0.001548	0.001582	28.0815	88.56	0.001811	48892.2	1.949079	-5.751691	357.92	1.275277	0.086605	0.086205	361.85	48892.2	0.081054	0.211940	1707.32	97030
261	2.000000	1.278307	7.36761e+06	-51689.1	955.816	-29751.6	0.000000	0.000000	7.294345	378.269	NaN	0.000000	0.001538	0.001619	28.081	91.2055	0.001769	51558.1	3.295971	172.72	383.569	1.277920	0.089236	0.088849	378.269	51558.1	0.083733	0.224395	1685.73	99440.4
261	2.000000	1.280690	7.36761e+06	-51689.1	955.817	-29751.6	0.000000	0.000000	7.297415	394.951	NaN	0.000000	0.001554	0.001622	28.0814	91.9631	0.001680	54739.2	3.223835	-7.059307	392.041	1.280263	0.091619	0.091192	394.951	54739.2	0.086207	0.236195	1672.14	102905
261	2.000000	1.283199	7.36761e+06	-51689.1	955.817	-29751.6	0.000000	0.000000	7.301190	425.758	NaN	0.000000	0.001562	0.001639	28.0813	94.7555	0.001770	53522.6	4.542015	171.494	425.749	1.282764	0.094128	0.093693	425.758	53522.6	0.088162	0.245714	1732.74	98649.6
261	2.000000	1.285626	7.36761e+06	-51689.1	955.817	-29751.6	0.000000	0.000000	7.304205	440.038	NaN	0.000000	0.001538	0.001626	28.0818	98.03	0.001751	55998.8	4.047240	-8.596707	433.572	1.285239	0.096555	0.096167	440.038	55998.8	0.090662	0.258148	1704.6	100697
261	2.000000	1.288189	7.36761e+06	-51689.1	955.818	-29751.6	0.000000	0.000000	7.307468	457.069	NaN	0.000000	0.001579	0.001653	28.081	101.897	0.001874	54379.1	4.797213	170.736	456.153	1.287892	0.099118	0.098821	457.069	54379.1	0.092814	0.269080	1698.63	95777.7
261	2.000000	1.290586	7.36761e+06	-51689.1	955.817	-29751.6	0.000000	0.000000	7.310325	468.268	NaN	0.000000	0.001610	0.001634	28.0815	102.205	0.001906	53610.4	4.807812	-9.204858	457.297	1.290273	0.101514	0.101201	468.268	53610.4	0.094963	0.280212	1671.12	92529.3
261	2.000000	1.293096	7.36761e+06	-51689.1	955.819	-29751.6	0.000000	0.000000	7.314352	505.157	NaN	0.000000	0.001606	0.001625	28.0815	103.416	0.001732	59705.5	1.604029	173.259	498.609	1.292789	0.104024	0.103717	505.157	59705.5	0.097679	0.294575	1714.87	100505
261	2.000000	1.295118	7.36761e+06	-51689.1	955.819	-29751.6	0.000000	0.000000	7.316813	515.796	NaN	0.000000	0.001568	0.001625	28.0816	107.637	0.001738	61930.5	4.169813	170.346	509.797	1.294724	0.106047	0.105652	515.796	61930.5	0.099801	0.306032	1685.43	102281