File: remote_trans/data/nanoindenter/0828-1/data/Data_2025-08-06,11h17m57s/2025-07-22_16-23-58_1_272.txt
2025-07-22, 16:23:58, 1
Index	Phase	Displacement	Time	Pos X	Pos Y	Pos Z	Rot A	Rot B	Piezo Z	Force A	Force B	Gripper	Voltage A	Voltage B	Temperature	Amplitude force	Amplitude pos	Stiffness	Phase shift	Phase excitation	Force A raw	Displacement raw	HMax	HMax raw	Real Force	Real Stiffness	Contact Depth	Area	Hardness	Reduced Mod.
[#]	[#]	[um]	[s]	[um]	[um]	[um]	[m°]	[m°]	[um]	[uN]	[uN]	[V]	[V]	[V]	[°C]	[uN]	[um]	[N/m]	[°]	[°]	[uN]	[um]	[um]	[um]	[uN]	[N/m]	[um]	[um^2]	[MPa]	[MPa]
272	1.000000	0.002301	7.36772e+06	-52239.1	955.819	-29750.1	0.000000	0.000000	6.002827	-0.015226	NaN	0.000000	0.001676	0.001701	28.0804	0.113144	0.000828	136.674	-139.157	-169.142	0.028061	0.001040	-1.080445	-1.081706	-0.015226	136.674	-1.080362	-2.731358E+14	5.574696E-17	NaN
272	1.000000	0.010232	7.36772e+06	-52239.1	955.818	-29750.1	0.000000	0.000000	6.010761	0.066960	NaN	0.000000	0.001685	0.001680	28.0803	0.033151	0.000941	35.2296	68.754	-159.552	0.069344	0.008882	-1.072515	-1.073865	0.066960	35.2296	-1.073941	-2.239397E+14	-2.990098E-16	NaN
272	1.000000	0.018232	7.36772e+06	-52239.1	955.819	-29750.1	0.000000	0.000000	6.018759	0.014023	NaN	0.000000	0.001685	0.001701	28.0803	0.012861	0.001657	7.763778	-34.5011	-161.535	-0.031185	0.016925	-1.064515	-1.065822	0.014023	7.763778	-1.065870	-1.744602E+14	-8.038117E-17	NaN
272	1.000000	0.026273	7.36772e+06	-52239.1	955.818	-29750.1	0.000000	0.000000	6.026798	-0.052949	NaN	0.000000	0.001661	0.001710	28.0804	0.028447	0.001700	16.7304	-113.597	-164.315	-0.068821	0.024965	-1.056474	-1.057782	-0.052949	16.7304	-1.054100	-1.212062E+14	4.368497E-16	NaN
272	1.000000	0.034242	7.36772e+06	-52239.1	955.817	-29750.1	0.000000	0.000000	6.034768	-0.007255	NaN	0.000000	0.001654	0.001698	28.0803	0.103908	0.001927	53.9138	82.045	-166.028	0.005317	0.032905	-1.048505	-1.049842	-0.007255	53.9138	-1.048404	-1.016158E+14	7.139210E-17	NaN
272	1.000000	0.042237	7.36772e+06	-52239.1	955.819	-29750.1	0.000000	0.000000	6.042765	0.035238	NaN	0.000000	0.001671	0.001689	28.0802	0.073283	0.001940	37.7814	-1.613368	-165.991	0.061858	0.040883	-1.040510	-1.041864	0.035238	37.7814	-1.041210	-8.132652E+13	-4.332953E-16	NaN
272	1.000000	0.050237	7.36772e+06	-52239.1	955.819	-29750.1	0.000000	0.000000	6.050763	-0.005343	NaN	0.000000	0.001676	0.001688	28.0805	0.077901	0.002098	37.1234	-113.652	-167.402	-0.048246	0.048861	-1.032510	-1.033886	-0.005343	37.1234	-1.032402	-6.191373E+13	8.629736E-17	NaN
272	1.000000	0.058243	7.36772e+06	-52239.1	955.818	-29750.1	0.000000	0.000000	6.058769	-0.006983	NaN	0.000000	0.001677	0.001706	28.0805	0.020938	0.002116	9.896652	25.9186	-165.369	-0.024129	0.056902	-1.024504	-1.025845	-0.006983	9.896652	-1.023975	-4.769052E+13	1.464241E-16	NaN
272	1.000000	0.066245	7.36772e+06	-52239.1	955.818	-29750.1	0.000000	0.000000	6.066772	0.023095	NaN	0.000000	0.001653	0.001669	28.0806	0.039915	0.001891	21.1039	-126.093	-163.57	0.057681	0.064946	-1.016502	-1.017801	0.023095	21.1039	-1.017323	-3.880908E+13	-5.950994E-16	NaN
272	1.000000	0.074230	7.36772e+06	-52239.1	955.818	-29750.1	0.000000	0.000000	6.074755	-0.037583	NaN	0.000000	0.001636	0.001680	28.0805	0.095641	0.002035	47.0054	130.929	-165.935	-0.045807	0.072973	-1.008517	-1.009774	-0.037583	47.0054	-1.007918	-2.899710E+13	1.296106E-15	NaN
272	1.000000	0.082228	7.36772e+06	-52239.1	955.818	-29750.1	0.000000	0.000000	6.082753	-0.020020	NaN	0.000000	0.001654	0.001650	28.0805	0.052303	0.001843	28.3721	5.290051	-163.506	0.009698	0.080940	-1.000519	-1.001806	-0.020020	28.3721	-0.999990	-2.267952E+13	8.827129E-16	NaN
272	1.000000	0.090220	7.36772e+06	-52239.1	955.818	-29750.1	0.000000	0.000000	6.090746	-0.033170	NaN	0.000000	0.001646	0.001683	28.0805	0.090297	0.001954	46.219	19.2554	-165.919	-0.032096	0.088935	-0.992527	-0.993812	-0.033170	46.219	-0.991988	-1.769656E+13	1.874367E-15	NaN
272	1.000000	0.098242	7.36772e+06	-52239.1	955.819	-29750.1	0.000000	0.000000	6.098771	0.043825	NaN	0.000000	0.001614	0.001720	28.0803	0.036297	0.002039	17.8029	36.7723	-163.843	0.104644	0.096906	-0.984505	-0.985841	0.043825	17.8029	-0.986351	-1.485807E+13	-2.949608E-15	NaN
272	1.000000	0.106231	7.36772e+06	-52239.1	955.819	-29750.1	0.000000	0.000000	6.106758	0.007326	NaN	0.000000	0.001660	0.001733	28.0804	0.061934	0.002054	30.1504	164.698	-163.194	0.002254	0.104928	-0.976516	-0.977818	0.007326	30.1504	-0.976698	-1.101343E+13	-6.651991E-16	NaN
272	1.000000	0.114232	7.36772e+06	-52239.1	955.818	-29750.1	0.000000	0.000000	6.114760	0.029513	NaN	0.000000	0.001658	0.001702	28.0804	0.135185	0.001967	68.715	-54.2178	-166.27	0.010901	0.112956	-0.968515	-0.969791	0.029513	68.715	-0.968837	-8.629581E+12	-3.419927E-15	NaN
272	1.000000	0.122265	7.36772e+06	-52239.1	955.819	-29750.1	0.000000	0.000000	6.122789	-0.064108	NaN	0.000000	0.001667	0.001714	28.0791	0.109285	0.002040	53.581	97.1034	-164.776	-0.086417	0.120930	-0.960482	-0.961817	-0.064108	53.581	-0.959584	-6.475343E+12	9.900367E-15	NaN
272	1.000000	0.130258	7.36772e+06	-52239.1	955.818	-29750.1	0.000000	0.000000	6.130784	-0.015763	NaN	0.000000	0.001664	0.001690	28.079	0.044747	0.002089	21.4221	-54.5866	-162.569	0.030056	0.128955	-0.952489	-0.953792	-0.015763	21.4221	-0.951937	-5.106866E+12	3.086627E-15	NaN
272	1.000000	0.138242	7.36772e+06	-52239.1	955.819	-29750.1	0.000000	0.000000	6.138769	0.030073	NaN	0.000000	0.001684	0.001699	28.0791	0.069634	0.002043	34.0782	83.5375	-165.232	0.031678	0.136952	-0.944505	-0.945795	0.030073	34.0782	-0.945167	-4.138490E+12	-7.266756E-15	NaN
272	1.000000	0.146260	7.36772e+06	-52239.1	955.818	-29750.1	0.000000	0.000000	6.146787	0.029886	NaN	0.000000	0.001654	0.001715	28.0797	0.077931	0.001916	40.6684	122.431	-164.256	0.098264	0.144893	-0.936487	-0.937854	0.029886	40.6684	-0.937038	-3.214983E+12	-9.295852E-15	NaN
272	1.000000	0.154261	7.36772e+06	-52239.1	955.819	-29750.1	0.000000	0.000000	6.154786	-0.042039	NaN	0.000000	0.001635	0.001697	28.0791	0.144977	0.001914	75.7429	-109.731	-162.719	-0.050755	0.152949	-0.928486	-0.929798	-0.042039	75.7429	-0.928070	-2.433015E+12	1.727839E-14	NaN
272	1.000000	0.162224	7.36772e+06	-52239.1	955.819	-29750.1	0.000000	0.000000	6.162752	0.034004	NaN	0.000000	0.001675	0.001708	28.0792	0.172161	0.001942	88.6462	93.7406	-165.248	0.010290	0.160911	-0.920523	-0.921836	0.034004	88.6462	-0.920810	-1.941541E+12	-1.751408E-14	NaN
272	1.000000	0.170259	7.36772e+06	-52239.1	955.819	-29750.1	0.000000	0.000000	6.170786	0.016599	NaN	0.000000	0.001684	0.001706	28.0791	0.126523	0.001864	67.8742	-69.0679	-164.764	0.130786	0.168935	-0.912488	-0.913812	0.016599	67.8742	-0.912671	-1.507447E+12	-1.101141E-14	NaN
272	1.000000	0.178270	7.36772e+06	-52239.1	955.818	-29750.1	0.000000	0.000000	6.178796	-0.011263	NaN	0.000000	0.001670	0.001680	28.0794	0.166336	0.001962	84.7635	107.031	-166.375	-0.012650	0.176955	-0.904477	-0.905792	-0.011263	84.7635	-0.904378	-1.164697E+12	9.670500E-15	NaN
272	1.000000	0.186285	7.36772e+06	-52239.1	955.819	-29750.1	0.000000	0.000000	6.186811	-0.019942	NaN	0.000000	0.001661	0.001708	28.0796	0.104666	0.002011	52.0414	-27.5909	-165.827	-0.005468	0.185007	-0.896462	-0.897739	-0.019942	52.0414	-0.896174	-9.023321E+11	2.210021E-14	NaN
272	1.000000	0.194282	7.36772e+06	-52239.1	955.818	-29750.1	0.000000	0.000000	6.194809	-0.006290	NaN	0.000000	0.001684	0.001670	28.0793	0.036761	0.001972	18.6456	118.789	-163.746	0.053756	0.192993	-0.888465	-0.889754	-0.006290	18.6456	-0.888212	-7.042690E+11	8.930928E-15	NaN
272	1.000000	0.202251	7.36772e+06	-52239.1	955.819	-29750.1	0.000000	0.000000	6.202778	0.009017	NaN	0.000000	0.001701	0.001673	28.0796	0.070025	0.001987	35.2438	55.7693	-167.692	-0.039107	0.200959	-0.880496	-0.881787	0.009017	35.2438	-0.880688	-5.572016E+11	-1.618305E-14	NaN
272	1.000000	0.210306	7.36772e+06	-52239.1	955.819	-29750.1	0.000000	0.000000	6.210830	-0.059506	NaN	0.000000	0.001708	0.001692	28.0791	0.096667	0.002075	46.5791	-61.1067	-165.072	-0.024460	0.208978	-0.872441	-0.873769	-0.059506	46.5791	-0.871483	-4.183213E+11	1.422501E-13	NaN
272	1.000000	0.218302	7.36772e+06	-52239.1	955.817	-29750.1	0.000000	0.000000	6.218826	-0.058364	NaN	0.000000	0.001686	0.001690	28.0792	0.124971	0.002033	61.4729	46.5785	-165.172	-0.041137	0.216976	-0.864445	-0.865770	-0.058364	61.4729	-0.863733	-3.285796E+11	1.776240E-13	NaN
272	1.000000	0.226293	7.36772e+06	-52239.1	955.818	-29750.1	0.000000	0.000000	6.226819	-0.005008	NaN	0.000000	0.001657	0.001671	28.0791	0.163762	0.002082	78.6393	84.7527	-165.962	0.011259	0.225032	-0.856454	-0.857715	-0.005008	78.6393	-0.856407	-2.615040E+11	1.914985E-14	NaN
272	1.000000	0.234280	7.36772e+06	-52239.1	955.819	-29750.1	0.000000	0.000000	6.234808	0.034823	NaN	0.000000	0.001623	0.001675	28.0793	0.081170	0.002057	39.4593	79.9709	-163.287	0.043964	0.232985	-0.848466	-0.849762	0.034823	39.4593	-0.849128	-2.084169E+11	-1.670816E-13	NaN
272	1.000000	0.242314	7.36772e+06	-52239.1	955.819	-29750.1	0.000000	0.000000	6.242843	0.040388	NaN	0.000000	0.001668	0.001674	28.0794	0.118906	0.002036	58.3958	160.717	-163.324	0.010719	0.240966	-0.840432	-0.841781	0.040388	58.3958	-0.840951	-1.615024E+11	-2.500769E-13	NaN
272	1.000000	0.250310	7.36772e+06	-52239.1	955.817	-29750.1	0.000000	0.000000	6.250837	0.010695	NaN	0.000000	0.001636	0.001683	28.0791	0.082145	0.002039	40.2784	177.912	-165.828	0.072229	0.248964	-0.832437	-0.833783	0.010695	40.2784	-0.832636	-1.245990E+11	-8.583908E-14	NaN
272	1.000000	0.258323	7.36772e+06	-52239.1	955.819	-29750.1	0.000000	0.000000	6.258851	0.023692	NaN	0.000000	0.001641	0.001663	28.0805	0.050346	0.002010	25.0532	88.3807	-163.275	0.022335	0.257012	-0.824424	-0.825735	0.023692	25.0532	-0.825133	-9.858389E+10	-2.403198E-13	NaN
272	1.000000	0.266304	7.36772e+06	-52239.1	955.818	-29750.1	0.000000	0.000000	6.266831	0.014535	NaN	0.000000	0.001664	0.001685	28.0805	0.058928	0.001961	30.0475	-147.13	-164.162	0.007980	0.265022	-0.816443	-0.817725	0.014535	30.0475	-0.816806	-7.601371E+10	-1.912119E-13	NaN
272	1.000000	0.274306	7.36772e+06	-52239.1	955.819	-29750.1	0.000000	0.000000	6.274832	-0.021698	NaN	0.000000	0.001647	0.001692	28.08	0.033767	0.002119	15.9334	-12.4849	-164.193	-0.030330	0.272988	-0.808441	-0.809759	-0.021698	15.9334	-0.807420	-5.669707E+10	3.826981E-13	NaN
272	1.000000	0.282348	7.36772e+06	-52239.1	955.818	-29750.1	0.000000	0.000000	6.282874	-0.024359	NaN	0.000000	0.001687	0.001695	28.0802	0.049454	0.001999	24.7451	34.177	-163.728	-0.036536	0.281025	-0.800399	-0.801722	-0.024359	24.7451	-0.799660	-4.448915E+10	5.475293E-13	NaN
272	1.000000	0.290317	7.36772e+06	-52239.1	955.819	-29750.1	0.000000	0.000000	6.290843	-0.011981	NaN	0.000000	0.001709	0.001677	28.0799	0.017383	0.001825	9.523341	-82.1249	-166.677	-0.093091	0.288983	-0.792430	-0.793764	-0.011981	9.523341	-0.791487	-3.445667E+10	3.477053E-13	NaN
272	1.000000	0.298348	7.36772e+06	-52239.1	955.817	-29750.1	0.000000	0.000000	6.298874	-0.015664	NaN	0.000000	0.001724	0.001691	28.0803	0.023714	0.002043	11.6049	-31.2831	-163.8	-0.007319	0.296992	-0.784399	-0.785755	-0.015664	11.6049	-0.783387	-2.674556E+10	5.856628E-13	NaN
272	1.000000	0.306370	7.36772e+06	-52239.1	955.819	-29750.1	0.000000	0.000000	6.306895	-0.023689	NaN	0.000000	0.001689	0.001676	28.0801	0.087247	0.001999	43.6476	134.857	-164.507	-0.031764	0.305027	-0.776377	-0.777720	-0.023689	43.6476	-0.775970	-2.120635E+10	1.117062E-12	NaN
272	1.000000	0.314332	7.36772e+06	-52239.1	955.819	-29750.1	0.000000	0.000000	6.314861	0.063386	NaN	0.000000	0.001732	0.001671	28.0799	0.102981	0.002046	50.3394	-87.3531	-163.078	0.080608	0.313030	-0.768415	-0.769717	0.063386	50.3394	-0.769359	-1.724236E+10	-3.676153E-12	NaN
272	1.000000	0.322327	7.36772e+06	-52239.1	955.818	-29750.1	0.000000	0.000000	6.322854	0.015145	NaN	0.000000	0.001713	0.001631	28.08	0.046127	0.002009	22.9561	-28.3825	-164.982	0.002040	0.321033	-0.760420	-0.761714	0.015145	22.9561	-0.760915	-1.323560E+10	-1.144295E-12	NaN
272	1.000000	0.330339	7.36772e+06	-52239.1	955.818	-29750.1	0.000000	0.000000	6.330864	-0.038804	NaN	0.000000	0.001675	0.001659	28.0801	0.078601	0.002037	38.5813	104.389	-167.819	0.023415	0.329089	-0.752408	-0.753658	-0.038804	38.5813	-0.751654	-9.902206E+9	3.918735E-12	NaN
272	1.000000	0.338339	7.36772e+06	-52239.1	955.82	-29750.1	0.000000	0.000000	6.338865	-0.003674	NaN	0.000000	0.001730	0.001704	28.0802	0.072273	0.001962	36.8443	26.7997	-165.362	0.034096	0.337038	-0.744408	-0.745709	-0.003674	36.8443	-0.744333	-7.871678E+9	4.667468E-13	NaN
272	1.000000	0.346358	7.36772e+06	-52239.1	955.818	-29750.1	0.000000	0.000000	6.346884	-0.026146	NaN	0.000000	0.001688	0.001668	28.0802	0.007901	0.001912	4.132056	13.3045	-166.746	0.000415	0.345020	-0.736389	-0.737727	-0.026146	4.132056	-0.731643	-5.286916E+9	4.945338E-12	NaN
272	1.000000	0.354373	7.36772e+06	-52239.1	955.82	-29750.1	0.000000	0.000000	6.354897	-0.063859	NaN	0.000000	0.001684	0.001686	28.0803	0.040184	0.002111	19.0389	-35.1264	-163.788	-0.024524	0.353087	-0.728374	-0.729660	-0.063859	19.0389	-0.725858	-4.409075E+9	1.448364E-11	NaN
272	1.000000	0.362358	7.36772e+06	-52239.1	955.818	-29750.1	0.000000	0.000000	6.362889	0.104481	NaN	0.000000	0.001685	0.001689	28.0801	0.079713	0.001963	40.6027	22.8547	-163.966	0.075748	0.361109	-0.720389	-0.721638	0.104481	40.6027	-0.722319	-3.945415E+9	-2.648165E-11	NaN
272	1.000000	0.370368	7.36772e+06	-52239.1	955.819	-29750.1	0.000000	0.000000	6.370893	-0.048351	NaN	0.000000	0.001715	0.001646	28.0813	0.029651	0.002068	14.341	-55.3252	-163.851	-0.045219	0.369093	-0.712379	-0.713654	-0.048351	14.341	-0.709850	-2.666869E+9	1.813034E-11	NaN
272	1.000000	0.378348	7.36772e+06	-52239.1	955.817	-29750.1	0.000000	0.000000	6.378875	0.000533	NaN	0.000000	0.001667	0.001683	28.0804	0.108485	0.002011	53.9497	-18.0127	-169.244	-0.044638	0.377051	-0.704399	-0.705695	0.000533	53.9497	-0.704406	-2.247469E+9	-2.371844E-13	NaN
272	1.000000	0.386380	7.36772e+06	-52239.1	955.818	-29750.1	0.000000	0.000000	6.386902	-0.095895	NaN	0.000000	0.001663	0.001705	28.0801	0.099994	0.001992	50.1909	33.6416	-167.047	-0.031916	0.385020	-0.696367	-0.697727	-0.095895	50.1909	-0.694934	-1.668539E+9	5.747261E-11	NaN
272	1.000000	0.394364	7.36772e+06	-52239.1	955.817	-29750.1	0.000000	0.000000	6.394893	0.058208	NaN	0.000000	0.001670	0.001673	28.0792	0.092138	0.001961	46.9746	82.8626	-165.837	0.007983	0.393016	-0.688383	-0.689731	0.058208	46.9746	-0.689312	-1.398037E+9	-4.163564E-11	NaN
272	1.000000	0.402375	7.36772e+06	-52239.1	955.82	-29750.1	0.000000	0.000000	6.402899	-0.054772	NaN	0.000000	0.001670	0.001682	28.0791	0.081924	0.002117	38.6996	9.901111	-165.862	0.015270	0.401080	-0.680372	-0.681667	-0.054772	38.6996	-0.679311	-1.020416E+9	5.367581E-11	NaN
272	1.000000	0.410379	7.36772e+06	-52239.1	955.817	-29750.1	0.000000	0.000000	6.410903	-0.062127	NaN	0.000000	0.001668	0.001692	28.0789	0.055182	0.002012	27.422	159.468	-166.298	-0.008611	0.409021	-0.672368	-0.673726	-0.062127	27.422	-0.670669	-7.772288E+8	7.993346E-11	NaN
272	1.000000	0.418389	7.36772e+06	-52239.1	955.819	-29750.1	0.000000	0.000000	6.418915	-0.017323	NaN	0.000000	0.001673	0.001687	28.0789	0.116278	0.001933	60.1633	-87.2847	-164.032	-0.032304	0.417030	-0.664358	-0.665717	-0.017323	60.1633	-0.664142	-6.326973E+8	2.737919E-11	NaN
272	1.000000	0.426380	7.36772e+06	-52239.1	955.819	-29750.1	0.000000	0.000000	6.426906	-0.015085	NaN	0.000000	0.001657	0.001701	28.079	0.078333	0.001931	40.5594	-173.158	-163.545	-0.032883	0.425113	-0.656366	-0.657634	-0.015085	40.5594	-0.656087	-4.907582E+8	3.073734E-11	NaN
272	1.000000	0.434382	7.36772e+06	-52239.1	955.818	-29750.1	0.000000	0.000000	6.434908	-0.020467	NaN	0.000000	0.001679	0.001690	28.0792	0.109387	0.001969	55.542	-143.004	-164.463	0.061013	0.433091	-0.648365	-0.649656	-0.020467	55.542	-0.648088	-3.812664E+8	5.368216E-11	NaN
272	1.000000	0.442395	7.36772e+06	-52239.1	955.818	-29750.1	0.000000	0.000000	6.442922	0.017894	NaN	0.000000	0.001673	0.001714	28.0788	0.009859	0.001871	5.269169	121.09	-163.818	0.016806	0.441086	-0.640352	-0.641661	0.017894	5.269169	-0.642899	-3.236366E+8	-5.528897E-11	NaN
272	1.000000	0.450395	7.36772e+06	-52239.1	955.818	-29750.1	0.000000	0.000000	6.450924	0.066348	NaN	0.000000	0.001727	0.001700	28.0795	0.066560	0.001853	35.9286	8.608283	-168.803	0.032585	0.449082	-0.632352	-0.633664	0.066348	35.9286	-0.633737	-2.422866E+8	-2.738394E-10	NaN
272	1.000000	0.458393	7.36772e+06	-52239.1	955.818	-29750.1	0.000000	0.000000	6.458919	-0.006721	NaN	0.000000	0.001679	0.001703	28.079	0.048735	0.001933	25.218	-121.492	-165.349	-0.019771	0.457068	-0.624354	-0.625679	-0.006721	25.218	-0.624154	-1.789460E+8	3.756034E-11	NaN
272	1.000000	0.466402	7.36772e+06	-52239.1	955.819	-29750.1	0.000000	0.000000	6.466928	-0.009141	NaN	0.000000	0.001674	0.001701	28.0789	0.060164	0.001951	30.841	127.795	-160.705	0.015317	0.465084	-0.616345	-0.617663	-0.009141	30.841	-0.616123	-1.387802E+8	6.586929E-11	NaN
272	1.000000	0.474441	7.36772e+06	-52239.1	955.817	-29750.1	0.000000	0.000000	6.474972	0.105258	NaN	0.000000	0.001703	0.001695	28.079	0.116073	0.002167	53.5706	164.149	-165.208	0.063076	0.473086	-0.608306	-0.609661	0.105258	53.5706	-0.609779	-1.135214E+8	-9.272121E-10	NaN
272	1.000000	0.482430	7.36772e+06	-52239.1	955.818	-29750.1	0.000000	0.000000	6.482956	-0.012506	NaN	0.000000	0.001698	0.001686	28.079	0.016210	0.001932	8.388052	126.746	-162.962	-0.029655	0.481078	-0.600317	-0.601669	-0.012506	8.388052	-0.599199	-8.117574E+7	1.540623E-10	NaN
272	1.000000	0.490404	7.36772e+06	-52239.1	955.819	-29750.1	0.000000	0.000000	6.490932	0.023066	NaN	0.000000	0.001690	0.001708	28.0793	0.058202	0.001936	30.0587	178.522	-163.373	-0.014227	0.489088	-0.592343	-0.593659	0.023066	30.0587	-0.592918	-6.651088E+7	-3.467986E-10	NaN
272	1.000000	0.498380	7.36772e+06	-52239.1	955.819	-29750.1	0.000000	0.000000	6.498908	0.018484	NaN	0.000000	0.001716	0.001718	28.0789	0.010423	0.001970	5.290286	-154.216	-162.95	-0.038748	0.497110	-0.584366	-0.585637	0.018484	5.290286	-0.586987	-5.509586E+7	-3.354882E-10	NaN
272	1.000000	0.506438	7.36772e+06	-52239.1	955.818	-29750.1	0.000000	0.000000	6.506964	-0.005186	NaN	0.000000	0.001684	0.001672	28.079	0.092168	0.001998	46.1357	-5.711939	-162.677	-0.051029	0.505105	-0.576309	-0.577642	-0.005186	46.1357	-0.576225	-3.913877E+7	1.324954E-10	NaN
272	1.000000	0.514444	7.36772e+06	-52239.1	955.818	-29750.1	0.000000	0.000000	6.514971	0.020006	NaN	0.000000	0.001677	0.001697	28.079	0.082857	0.001998	41.4791	125.56	-166.697	-0.040553	0.513111	-0.568303	-0.569636	0.020006	41.4791	-0.568665	-3.077394E+7	-6.501088E-10	NaN
272	1.000000	0.522427	7.36772e+06	-52239.1	955.819	-29750.1	0.000000	0.000000	6.522955	0.032312	NaN	0.000000	0.001681	0.001735	28.0788	0.102497	0.001994	51.3956	-143.634	-165.969	0.052255	0.521063	-0.560319	-0.561684	0.032312	51.3956	-0.560791	-2.395081E+7	-1.349117E-9	NaN
272	1.000000	0.530434	7.36772e+06	-52239.1	955.817	-29750.1	0.000000	0.000000	6.530958	-0.057460	NaN	0.000000	0.001705	0.001661	28.0804	0.057848	0.001959	29.5321	96.4852	-165.155	0.109188	0.529103	-0.552313	-0.553643	-0.057460	29.5321	-0.550853	-1.744917E+7	3.293019E-9	NaN
272	1.000000	0.538442	7.36772e+06	-52239.1	955.819	-29750.1	0.000000	0.000000	6.538971	0.058870	NaN	0.000000	0.001664	0.001708	28.0802	0.110703	0.001923	57.5724	58.24	-164.349	0.033608	0.537107	-0.544305	-0.545640	0.058870	57.5724	-0.545072	-1.451040E+7	-4.057108E-9	NaN
272	1.000000	0.546448	7.36772e+06	-52239.1	955.818	-29750.1	0.000000	0.000000	6.546973	-0.035446	NaN	0.000000	0.001662	0.001690	28.0804	0.092996	0.002054	45.2843	-46.4565	-165.869	0.003140	0.545119	-0.536299	-0.537628	-0.035446	45.2843	-0.535712	-1.076136E+7	3.293775E-9	NaN
272	1.000000	0.554415	7.36772e+06	-52239.1	955.819	-29750.1	0.000000	0.000000	6.554941	-0.022306	NaN	0.000000	0.001646	0.001714	28.0805	0.038396	0.002005	19.1455	159.047	-162.942	0.007566	0.553115	-0.528332	-0.529632	-0.022306	19.1455	-0.527458	-8.2654e+06	2.698734E-9	NaN
272	1.000000	0.562436	7.36772e+06	-52239.1	955.817	-29750.1	0.000000	0.000000	6.562960	-0.075672	NaN	0.000000	0.001668	0.001719	28.0805	0.072640	0.002103	34.5359	-97.7502	-163.917	-0.115438	0.561176	-0.520310	-0.521571	-0.075672	34.5359	-0.518667	-6.23817e+06	1.213047E-8	NaN
272	1.000000	0.570441	7.36772e+06	-52239.1	955.82	-29750.1	0.000000	0.000000	6.570965	-0.063910	NaN	0.000000	0.001666	0.001674	28.0806	0.114893	0.002072	55.4576	177.927	-164.2	-0.007732	0.569143	-0.512306	-0.513604	-0.063910	55.4576	-0.511442	-4.94873e+06	1.291441E-8	NaN
272	1.000000	0.578448	7.36772e+06	-52239.1	955.818	-29750.1	0.000000	0.000000	6.578975	0.012601	NaN	0.000000	0.001708	0.001677	28.0803	0.022276	0.002000	11.1382	-1.865571	-162.519	0.018263	0.577134	-0.504298	-0.505613	0.012601	11.1382	-0.505147	-4.04383e+06	-3.116014E-9	NaN
272	1.000000	0.586419	7.36772e+06	-52239.1	955.818	-29750.1	0.000000	0.000000	6.586948	0.037124	NaN	0.000000	0.001704	0.001698	28.0804	0.075934	0.001953	38.8741	119.656	-165.671	0.077514	0.585133	-0.496327	-0.497614	0.037124	38.8741	-0.497044	-3.11719e+06	-1.190930E-8	NaN
272	1.000000	0.594468	7.36772e+06	-52239.1	955.819	-29750.1	0.000000	0.000000	6.594993	-0.040709	NaN	0.000000	0.001711	0.001697	28.0804	0.075373	0.002013	37.4359	50.9943	-164.787	-0.008242	0.593167	-0.488279	-0.489580	-0.040709	37.4359	-0.487464	-2.29056e+06	1.777249E-8	NaN
272	1.000000	0.602479	7.36772e+06	-52239.1	955.819	-29750.1	0.000000	0.000000	6.603007	0.030031	NaN	0.000000	0.001659	0.001665	28.0802	0.067630	0.002042	33.114	-179.8	-166.274	0.084433	0.601127	-0.480268	-0.481620	0.030031	33.114	-0.480948	-1.85694e+06	-1.617203E-8	NaN
272	1.000000	0.610440	7.36772e+06	-52239.1	955.818	-29750.1	0.000000	0.000000	6.610967	-0.001133	NaN	0.000000	0.001707	0.001638	28.0801	0.101117	0.002061	49.0509	-72.5862	-163.248	-0.026642	0.609182	-0.472307	-0.473565	-0.001133	49.0509	-0.472289	-1.40445e+06	8.069035E-10	NaN
272	1.000000	0.618409	7.36772e+06	-52239.1	955.819	-29750.1	0.000000	0.000000	6.618934	-0.023630	NaN	0.000000	0.001707	0.001641	28.0801	0.023274	0.002060	11.2964	-87.518	-163.076	-0.001806	0.617156	-0.464338	-0.465591	-0.023630	11.2964	-0.462769	-1.03258e+06	2.288432E-8	NaN
272	1.000000	0.626477	7.36772e+06	-52239.1	955.817	-29750.1	0.000000	0.000000	6.627002	-0.045759	NaN	0.000000	0.001732	0.001655	28.0805	0.038224	0.002031	18.8239	72.304	-166.925	0.003162	0.625143	-0.456270	-0.457604	-0.045759	18.8239	-0.454447	-788741	5.801463E-8	NaN
272	1.000000	0.634466	7.36772e+06	-52239.1	955.819	-29750.1	0.000000	0.000000	6.634993	-0.008463	NaN	0.000000	0.001708	0.001666	28.0804	0.053114	0.001978	26.8583	-11.7489	-166.201	-0.101961	0.633142	-0.448281	-0.449605	-0.008463	26.8583	-0.448044	-640906	1.320518E-8	NaN
272	1.000000	0.642447	7.36772e+06	-52239.1	955.818	-29750.1	0.000000	0.000000	6.642976	0.067912	NaN	0.000000	0.001704	0.001639	28.0804	0.035777	0.002032	17.6106	98.5634	-163.047	0.016447	0.641133	-0.440300	-0.441614	0.067912	17.6106	-0.443193	-547527	-1.240340E-7	NaN
272	1.000000	0.650453	7.36772e+06	-52239.1	955.817	-29750.1	0.000000	0.000000	6.650978	-0.022283	NaN	0.000000	0.001683	0.001651	28.0805	0.052084	0.002059	25.2904	126.364	-163.967	0.030272	0.649134	-0.432294	-0.433613	-0.022283	25.2904	-0.431633	-375981	5.926687E-8	NaN
272	1.000000	0.658467	7.36772e+06	-52239.1	955.819	-29750.1	0.000000	0.000000	6.658994	0.025866	NaN	0.000000	0.001701	0.001648	28.0804	0.075759	0.001957	38.7028	174.466	-163.569	0.070964	0.657138	-0.424280	-0.425609	0.025866	38.7028	-0.424782	-300738	-8.600938E-8	NaN
272	1.000000	0.666480	7.36772e+06	-52239.1	955.817	-29750.1	0.000000	0.000000	6.667008	0.034088	NaN	0.000000	0.001684	0.001654	28.0798	0.094498	0.002050	46.0904	-0.670471	-167.226	0.034437	0.665165	-0.416267	-0.417582	0.034088	46.0904	-0.416821	-231906	-1.469882E-7	NaN
272	1.000000	0.674490	7.36772e+06	-52239.1	955.818	-29750.1	0.000000	0.000000	6.675017	0.005147	NaN	0.000000	0.001680	0.001652	28.0793	0.099681	0.002181	45.7144	143.637	-164.728	-0.057366	0.673231	-0.408257	-0.409516	0.005147	45.7144	-0.408341	-175714	-2.928936E-8	NaN
272	1.000000	0.682470	7.36772e+06	-52239.1	955.819	-29750.1	0.000000	0.000000	6.682996	-0.026128	NaN	0.000000	0.001683	0.001661	28.0794	0.021958	0.001969	11.1513	-52.2363	-165.112	-0.018403	0.681197	-0.400277	-0.401550	-0.026128	11.1513	-0.398519	-127313	2.052296E-7	NaN
272	1.000000	0.690490	7.36772e+06	-52239.1	955.818	-29750.1	0.000000	0.000000	6.691016	-0.010150	NaN	0.000000	0.001690	0.001724	28.0792	0.059714	0.001949	30.6429	-59.4066	-163.457	0.029192	0.689199	-0.392257	-0.393548	-0.010150	30.6429	-0.392008	-102775	9.875998E-8	NaN
272	1.000000	0.698501	7.36772e+06	-52239.1	955.818	-29750.1	0.000000	0.000000	6.699026	-0.026504	NaN	0.000000	0.001757	0.001670	28.0792	0.086801	0.002084	41.6415	-7.408834	-167.766	0.022856	0.697185	-0.384246	-0.385562	-0.026504	41.6415	-0.383769	-78332.4	3.383577E-7	NaN
272	1.000000	0.706517	7.36772e+06	-52239.1	955.819	-29750.1	0.000000	0.000000	6.707043	-0.023355	NaN	0.000000	0.001739	0.001652	28.0791	0.123861	0.002038	60.7775	129.549	-167.257	0.005745	0.705260	-0.376230	-0.377487	-0.023355	60.7775	-0.375942	-60479	3.861731E-7	NaN
272	1.000000	0.714492	7.36772e+06	-52239.1	955.82	-29750.1	0.000000	0.000000	6.715020	0.045436	NaN	0.000000	0.001742	0.001659	28.0792	0.096318	0.001836	52.4746	-20.9302	-164.119	-0.002720	0.713212	-0.368255	-0.369535	0.045436	52.4746	-0.368905	-47901.5	-9.485282E-7	NaN
272	1.000000	0.722521	7.36772e+06	-52239.1	955.818	-29750.1	0.000000	0.000000	6.723046	-0.034396	NaN	0.000000	0.001772	0.001683	28.0796	0.070275	0.002032	34.5791	1.200790	-166.581	-0.096683	0.721283	-0.360226	-0.361464	-0.034396	34.5791	-0.359480	-35020.9	9.821631E-7	NaN
272	1.000000	0.730509	7.36772e+06	-52239.1	955.818	-29750.1	0.000000	0.000000	6.731036	0.026681	NaN	0.000000	0.001778	0.001663	28.0789	0.088419	0.001949	45.3677	-98.7848	-163.133	0.030589	0.729178	-0.352238	-0.353569	0.026681	45.3677	-0.352679	-27916.8	-9.557290E-7	NaN
272	1.000000	0.738499	7.36772e+06	-52239.1	955.818	-29750.1	0.000000	0.000000	6.739028	0.060123	NaN	0.000000	0.001726	0.001660	28.0792	0.078837	0.001999	39.4478	71.2121	-162.98	0.007942	0.737231	-0.344248	-0.345516	0.060123	39.4478	-0.345391	-21879.9	-2.747881E-6	NaN
272	1.000000	0.746519	7.36772e+06	-52239.1	955.817	-29750.1	0.000000	0.000000	6.747046	0.023575	NaN	0.000000	0.001768	0.001684	28.079	0.066097	0.002003	32.9995	103.746	-164.536	0.095493	0.745149	-0.336228	-0.337598	0.023575	32.9995	-0.336764	-16381.3	-1.439167E-6	NaN
272	1.000000	0.754509	7.36772e+06	-52239.1	955.818	-29750.1	0.000000	0.000000	6.755038	0.059531	NaN	0.000000	0.001736	0.001714	28.0789	0.058362	0.002029	28.7667	95.0271	-164.582	0.034382	0.753232	-0.328237	-0.329515	0.059531	28.7667	-0.329789	-12952.9	-4.595965E-6	NaN
272	1.000000	0.762510	7.36772e+06	-52239.1	955.819	-29750.1	0.000000	0.000000	6.763037	0.014402	NaN	0.000000	0.001754	0.001686	28.0794	0.041743	0.002009	20.7756	-47.3152	-162.965	0.100187	0.761198	-0.320237	-0.321548	0.014402	20.7756	-0.320757	-9544.96	-1.508818E-6	NaN
272	1.000000	0.770522	7.36772e+06	-52239.1	955.819	-29750.1	0.000000	0.000000	6.771049	0.004611	NaN	0.000000	0.001768	0.001678	28.079	0.120757	0.002098	57.5655	169.128	-163.904	0.106147	0.769222	-0.312224	-0.313524	0.004611	57.5655	-0.312285	-7158.84	-6.440780E-7	NaN
272	1.000000	0.778528	7.36772e+06	-52239.1	955.818	-29750.1	0.000000	0.000000	6.779059	0.106978	NaN	0.000000	0.001749	0.001685	28.079	0.064388	0.001986	32.419	-174.131	-167.89	0.111787	0.777190	-0.304219	-0.305556	0.106978	32.419	-0.306694	-5916.7	-1.808063E-5	NaN
272	1.000000	0.786547	7.36772e+06	-52239.1	955.819	-29750.1	0.000000	0.000000	6.787078	0.099734	NaN	0.000000	0.001758	0.001666	28.0789	0.141384	0.001950	72.4993	-112.638	-165.38	0.072460	0.785244	-0.296200	-0.297503	0.099734	72.4993	-0.297232	-4279.47	-2.330526E-5	NaN
272	1.000000	0.794553	7.36772e+06	-52239.1	955.819	-29750.1	0.000000	0.000000	6.795081	0.036899	NaN	0.000000	0.001769	0.001644	28.0789	0.037943	0.001970	19.2566	47.4395	-164.793	0.031798	0.793222	-0.288194	-0.289525	0.036899	19.2566	-0.289631	-3294.41	-1.120061E-5	NaN
272	1.000000	0.802598	7.36772e+06	-52239.1	955.819	-29750.1	0.000000	0.000000	6.803126	0.040300	NaN	0.000000	0.001773	0.001662	28.0798	0.027398	0.002049	13.3687	171.965	-165.257	-0.006387	0.801286	-0.280149	-0.281461	0.040300	13.3687	-0.282410	-2566.25	-1.570405E-5	NaN
272	1.000000	0.810561	7.36772e+06	-52239.1	955.817	-29750.1	0.000000	0.000000	6.811085	-0.068205	NaN	0.000000	0.001779	0.001672	28.0803	0.116971	0.002033	57.541	-105.32	-164.708	-0.027384	0.809237	-0.272186	-0.273510	-0.068205	57.541	-0.271297	-1742.8	3.913525E-5	NaN
272	1.000000	0.818561	7.36772e+06	-52239.1	955.818	-29750.1	0.000000	0.000000	6.819086	-0.046112	NaN	0.000000	0.001770	0.001657	28.0805	0.129421	0.001993	64.9345	22.0008	-165.955	0.031685	0.817258	-0.264186	-0.265489	-0.046112	64.9345	-0.263653	-1332.97	3.459314E-5	NaN
272	1.000000	0.826566	7.36772e+06	-52239.1	955.818	-29750.1	0.000000	0.000000	6.827094	0.028966	NaN	0.000000	0.001787	0.001679	28.0804	0.082071	0.002013	40.7728	-82.2181	-163.81	0.098991	0.825235	-0.256181	-0.257512	0.028966	40.7728	-0.256714	-1043.47	-2.775950E-5	NaN
272	1.000000	0.834547	7.36772e+06	-52239.1	955.818	-29750.1	0.000000	0.000000	6.835075	0.030289	NaN	0.000000	0.001770	0.001686	28.0803	0.008068	0.001986	4.061601	150.828	-164.604	-0.071991	0.833237	-0.248200	-0.249510	0.030289	4.061601	-0.253793	-940.852	-3.219341E-5	NaN
272	1.000000	0.842571	7.36772e+06	-52239.1	955.819	-29750.1	0.000000	0.000000	6.843100	0.063790	NaN	0.000000	0.001691	0.001698	28.0809	0.055858	0.001901	29.3827	-125.145	-164.794	0.048649	0.841251	-0.240176	-0.241496	0.063790	29.3827	-0.241804	-613.346	-0.000104	NaN
272	1.000000	0.850572	7.36772e+06	-52239.1	955.818	-29750.1	0.000000	0.000000	6.851097	-0.047785	NaN	0.000000	0.001693	0.001654	28.0801	0.090573	0.002146	42.2001	112.203	-166.916	-0.096671	0.849262	-0.232175	-0.233485	-0.047785	42.2001	-0.231325	-420.174	0.000114	NaN
272	1.000000	0.858548	7.36772e+06	-52239.1	955.818	-29750.1	0.000000	0.000000	6.859075	0.010512	NaN	0.000000	0.001689	0.001658	28.0803	0.163562	0.002005	81.5567	40.3605	-166.085	-0.115640	0.857236	-0.224199	-0.225511	0.010512	81.5567	-0.224295	-325.192	-3.232529E-5	NaN
272	1.000000	0.866574	7.36772e+06	-52239.1	955.819	-29750.1	0.000000	0.000000	6.867098	-0.056991	NaN	0.000000	0.001683	0.001670	28.0801	0.040744	0.001913	21.3015	-31.7973	-162.698	-0.071348	0.865257	-0.216173	-0.217490	-0.056991	21.3015	-0.214167	-223.924	0.000255	NaN
272	1.000000	0.874599	7.36772e+06	-52239.1	955.819	-29750.1	0.000000	0.000000	6.875125	0.002316	NaN	0.000000	0.001736	0.001689	28.0802	0.027176	0.001994	13.6296	-52.3571	-162.887	-0.034375	0.873284	-0.208148	-0.209463	0.002316	13.6296	-0.208276	-179.829	-1.287902E-5	NaN
272	1.000000	0.882586	7.36772e+06	-52239.1	955.819	-29750.1	0.000000	0.000000	6.883115	0.076536	NaN	0.000000	0.001693	0.001639	28.0806	0.052400	0.002070	25.314	-166.801	-164.732	0.011849	0.881313	-0.200161	-0.201434	0.076536	25.314	-0.202429	-144.392	-0.000530	NaN
272	1.000000	0.890583	7.36772e+06	-52239.1	955.817	-29750.1	0.000000	0.000000	6.891110	0.003610	NaN	0.000000	0.001670	0.001667	28.0799	0.124894	0.002009	62.1714	-165.989	-165.012	0.010425	0.889247	-0.192164	-0.193500	0.003610	62.1714	-0.192207	-97.9111	-3.687268E-5	NaN
272	1.000000	0.898603	7.36772e+06	-52239.1	955.819	-29750.1	0.000000	0.000000	6.899129	-0.018181	NaN	0.000000	0.001679	0.001654	28.0804	0.044258	0.002013	21.987	-161.993	-161.579	-0.006472	0.897299	-0.184144	-0.185448	-0.018181	21.987	-0.183523	-70.0185	0.000260	NaN
272	1.000000	0.906583	7.36772e+06	-52239.1	955.819	-29750.1	0.000000	0.000000	6.907108	-0.024139	NaN	0.000000	0.001705	0.001683	28.0804	0.064524	0.002104	30.666	75.6711	-164.995	-0.071314	0.905269	-0.176164	-0.177478	-0.024139	30.666	-0.175574	-51.2663	0.000471	NaN
272	1.000000	0.914553	7.36772e+06	-52239.1	955.82	-29750.1	0.000000	0.000000	6.915077	-0.056222	NaN	0.000000	0.001747	0.001650	28.0805	0.066475	0.001978	33.6127	-0.807366	-167.374	-0.027140	0.913215	-0.168194	-0.169532	-0.056222	33.6127	-0.166939	-36.3318	0.001547	NaN
272	1.000000	0.922600	7.36772e+06	-52239.1	955.819	-29750.1	0.000000	0.000000	6.923125	-0.025589	NaN	0.000000	0.001704	0.001652	28.0804	0.050167	0.002010	24.9588	7.191588	-164.01	0.005683	0.921310	-0.160147	-0.161437	-0.025589	24.9588	-0.159378	-26.7258	0.000957	NaN
272	1.000000	0.930617	7.36772e+06	-52239.1	955.819	-29750.1	0.000000	0.000000	6.931142	-0.048176	NaN	0.000000	0.001677	0.001657	28.0805	0.048632	0.002010	24.1952	-155.436	-168.707	-0.018117	0.929297	-0.152129	-0.153450	-0.048176	24.1952	-0.150636	-18.6036	0.002590	NaN
272	1.000000	0.938609	7.36772e+06	-52239.1	955.818	-29750.1	0.000000	0.000000	6.939138	0.037209	NaN	0.000000	0.001688	0.001635	28.0804	0.073123	0.002054	35.5924	64.8992	-166.142	-0.051329	0.937315	-0.144137	-0.145432	0.037209	35.5924	-0.144921	-14.6121	-0.002546	NaN
272	1.000000	0.946588	7.36772e+06	-52239.1	955.818	-29750.1	0.000000	0.000000	6.947117	0.046949	NaN	0.000000	0.001696	0.001664	28.0792	0.034538	0.001988	17.3725	34.577	-165.492	0.022939	0.945289	-0.136159	-0.137458	0.046949	17.3725	-0.138186	-10.9342	-0.004294	NaN
272	1.000000	0.954575	7.36772e+06	-52239.1	955.818	-29750.1	0.000000	0.000000	6.955102	0.009895	NaN	0.000000	0.001735	0.001629	28.0793	0.052671	0.002119	24.8555	128.397	-164.203	0.028739	0.953262	-0.128171	-0.129485	0.009895	24.8555	-0.128470	-7.115590	-0.001391	NaN
272	1.000000	0.962588	7.36772e+06	-52239.1	955.818	-29750.1	0.000000	0.000000	6.963113	-0.044657	NaN	0.000000	0.001709	0.001656	28.079	0.035742	0.002022	17.6759	15.4761	-165.716	-0.063197	0.961315	-0.120159	-0.121432	-0.044657	17.6759	-0.118264	-4.455704	0.010022	NaN
272	1.000000	0.970612	7.36772e+06	-52239.1	955.819	-29750.1	0.000000	0.000000	6.971137	-0.045435	NaN	0.000000	0.001707	0.001681	28.0793	0.035335	0.001896	18.6318	-166.389	-171.353	-0.049291	0.969353	-0.112135	-0.113394	-0.045435	18.6318	-0.110306	-3.050154	0.014896	NaN
272	1.000000	0.978596	7.36772e+06	-52239.1	955.818	-29750.1	0.000000	0.000000	6.979120	-0.039646	NaN	0.000000	0.001706	0.001695	28.0794	0.124171	0.002087	59.5015	172.714	-164.093	-0.126311	0.977314	-0.104151	-0.105432	-0.039646	59.5015	-0.103652	-2.197591	0.018041	NaN
272	1.000000	0.986629	7.36772e+06	-52239.1	955.817	-29750.1	0.000000	0.000000	6.987156	0.015316	NaN	0.000000	0.001719	0.001672	28.0793	0.080594	0.002019	39.9139	-149.043	-163.563	0.073513	0.985322	-0.096118	-0.097424	0.015316	39.9139	-0.096405	-1.518141	-0.010089	NaN
272	1.000000	0.994584	7.36772e+06	-52239.1	955.817	-29750.1	0.000000	0.000000	6.995112	0.023365	NaN	0.000000	0.001711	0.001655	28.079	0.027215	0.002016	13.4984	-162.332	-163.278	0.069313	0.993302	-0.088163	-0.089445	0.023365	13.4984	-0.089461	-1.049902	-0.022255	NaN
272	1.000000	1.002608	7.36772e+06	-52239.1	955.818	-29750.1	0.000000	0.000000	7.003136	0.021816	NaN	0.000000	0.001702	0.001646	28.0791	0.080631	0.001947	41.406	58.0029	-165.13	0.008425	1.001333	-0.080139	-0.081414	0.021816	41.406	-0.080534	-0.638277	-0.034180	NaN
272	1.000000	1.010619	7.36772e+06	-52239.1	955.817	-29750.1	0.000000	0.000000	7.011146	-0.004063	NaN	0.000000	0.001678	0.001657	28.0793	0.050260	0.002012	24.9826	5.907754	-165.177	-0.062790	1.009345	-0.072128	-0.073402	-0.004063	24.9826	-0.072006	-0.385696	0.010535	NaN
272	1.000000	1.018648	7.36772e+06	-52239.1	955.817	-29750.1	0.000000	0.000000	7.019174	-0.019519	NaN	0.000000	0.001667	0.001657	28.0792	0.039938	0.001921	20.7924	-155.995	-163.25	-0.030015	1.017336	-0.064099	-0.065411	-0.019519	20.7924	-0.063395	-0.224806	0.086824	NaN
272	1.000000	1.026640	7.36772e+06	-52239.1	955.816	-29750.1	0.000000	0.000000	7.027164	-0.064470	NaN	0.000000	0.001681	0.001648	28.0793	0.011451	0.002038	5.617906	59.4971	-162.18	0.093197	1.025330	-0.056107	-0.057417	-0.064470	5.617906	-0.047500	-0.076617	0.841458	NaN
272	1.000000	1.034650	7.36772e+06	-52239.1	955.817	-29750.1	0.000000	0.000000	7.035181	0.088258	NaN	0.000000	0.001709	0.001659	28.0794	0.061501	0.002008	30.6289	-115.97	-165.878	0.099678	1.033306	-0.048096	-0.049441	0.088258	30.6289	-0.050258	-0.092901	-0.950021	NaN
272	1.000000	1.042624	7.36772e+06	-52239.1	955.818	-29750.1	0.000000	0.000000	7.043149	-0.050722	NaN	0.000000	0.001686	0.001636	28.0791	0.078990	0.002037	38.778	-157.671	-166.831	-0.047159	1.041292	-0.040123	-0.041455	-0.050722	38.778	-0.039142	-0.042591	1.190905	NaN
272	1.000000	1.050635	7.36772e+06	-52239.1	955.817	-29750.1	0.000000	0.000000	7.051163	0.027814	NaN	0.000000	0.001707	0.001674	28.0797	0.036069	0.002073	17.3968	-31.4009	-165.629	0.055773	1.049325	-0.032112	-0.033422	0.027814	17.3968	-0.033311	-0.028584	-0.973051	NaN
272	1.000000	1.058652	7.36772e+06	-52239.1	955.818	-29750.1	0.000000	0.000000	7.059177	-0.026633	NaN	0.000000	0.001719	0.001679	28.0792	0.079818	0.002053	38.8779	78.2118	-166.691	0.009746	1.057361	-0.024095	-0.025386	-0.026633	38.8779	-0.023582	-0.015501	1.718198	NaN
272	1.000000	1.066674	7.36772e+06	-52239.1	955.818	-29750.1	0.000000	0.000000	7.067198	-0.049898	NaN	0.000000	0.001705	0.001629	28.0791	0.105302	0.001975	53.3074	-32.5515	-163.412	-0.050836	1.065366	-0.016073	-0.017381	-0.049898	53.3074	-0.015371	-0.009499	5.252967	NaN
272	1.000000	1.074660	7.36772e+06	-52239.1	955.817	-29750.1	0.000000	0.000000	7.075185	-0.041759	NaN	0.000000	0.001731	0.001633	28.0795	0.053648	0.001945	27.5793	-176.303	-166.253	-0.008809	1.073365	-0.008087	-0.009382	-0.041759	27.5793	-0.006952	-0.004611	9.055423	NaN
272	1.000000	1.082633	7.36772e+06	-52239.1	955.817	-29750.1	0.000000	0.000000	7.083160	0.027607	NaN	0.000000	0.001737	0.001665	28.0805	0.164254	0.002029	80.9336	6.827022	-162.923	-0.065478	1.081323	-0.000114	-0.001424	0.027607	80.9336	-0.000370	-0.000274	-100.575	NaN
272	1.000000	1.090621	7.36772e+06	-52239.1	955.817	-29750.1	0.000000	0.000000	7.091364	5.279348	NaN	0.000000	0.001732	0.001684	28.081	5.912975	0.001653	3576.81	8.761277	-167.821	3.853801	1.089313	0.007874	0.006566	5.279348	3576.81	0.006767	0.005804	909.558	42893.7
272	2.000000	1.094359	7.36772e+06	-52239.1	955.818	-29750.1	0.000000	0.000000	7.095249	8.847710	NaN	0.000000	0.001696	0.001677	28.0804	9.460920	0.001490	6348.86	3.980891	-171.493	9.006841	1.094076	0.011612	0.011329	8.847710	6348.86	0.010567	0.009818	901.165	58540.4
272	2.000000	1.096371	7.36772e+06	-52239.1	955.818	-29750.1	0.000000	0.000000	7.097382	11.7838	NaN	0.000000	0.001636	0.001709	28.0806	12.3833	0.001775	6974.91	11.0396	-174.949	11.7277	1.096032	0.013624	0.013285	11.7838	6974.91	0.012357	0.011920	988.556	58367.2
272	2.000000	1.098327	7.36772e+06	-52239.1	955.817	-29750.1	0.000000	0.000000	7.099418	13.7341	NaN	0.000000	0.001649	0.001678	28.0806	14.0879	0.001767	7972.84	6.919812	-174.564	13.7692	1.097996	0.015580	0.015250	13.7341	7972.84	0.014288	0.014347	957.252	60813.4
272	2.000000	1.100307	7.36772e+06	-52239.1	955.819	-29750.1	0.000000	0.000000	7.101501	16.2383	NaN	0.000000	0.001570	0.001705	28.0804	16.3192	0.001786	9136.73	6.379157	-174.031	15.9213	1.100039	0.017560	0.017293	16.2383	9136.73	0.016227	0.016957	957.622	64104.8
272	2.000000	1.102271	7.36772e+06	-52239.1	955.818	-29750.1	0.000000	0.000000	7.103702	22.0022	NaN	0.000000	0.001634	0.001729	28.081	17.6557	0.001697	10403.7	2.015504	-171.761	20.6837	1.101905	0.019524	0.019158	22.0022	10403.7	0.017938	0.019405	1133.84	68234.4
272	2.000000	1.104288	7.36772e+06	-52239.1	955.818	-29750.1	0.000000	0.000000	7.105767	23.1706	NaN	0.000000	0.001671	0.001701	28.0803	20.1878	0.001808	11166.7	7.406961	-177.186	23.1342	1.103975	0.021541	0.021228	23.1706	11166.7	0.019985	0.022518	1028.98	67987.9
272	2.000000	1.106304	7.36772e+06	-52239.1	955.818	-29750.1	0.000000	0.000000	7.108036	29.3106	NaN	0.000000	0.001671	0.001659	28.0805	22.122	0.001702	12998.8	2.271178	-173.917	28.7265	1.105949	0.023557	0.023203	29.3106	12998.8	0.021866	0.025560	1146.73	74283.8
272	2.000000	1.108226	7.36772e+06	-52239.1	955.818	-29750.1	0.000000	0.000000	7.110148	33.9371	NaN	0.000000	0.001676	0.001697	28.0805	24.0322	0.001741	13801.1	5.357958	-176.593	32.4103	1.107924	0.025479	0.025177	33.9371	13801.1	0.023635	0.028579	1187.49	74587.1
272	2.000000	1.110252	7.36772e+06	-52239.1	955.819	-29750.1	0.000000	0.000000	7.112249	35.7574	NaN	0.000000	0.001630	0.001669	28.0805	25.8078	0.001689	15276.3	4.997640	-178.881	34.9625	1.109978	0.027505	0.027231	35.7574	15276.3	0.025749	0.032393	1103.88	77547.7
272	2.000000	1.112247	7.36772e+06	-52239.1	955.818	-29750.1	0.000000	0.000000	7.114502	42.0448	NaN	0.000000	0.001686	0.001718	28.0815	27.3438	0.001726	15839.6	5.661482	-178.075	41.6388	1.111913	0.029500	0.029166	42.0448	15839.6	0.027509	0.035739	1176.45	76550.4
272	2.000000	1.114266	7.36772e+06	-52239.1	955.819	-29750.1	0.000000	0.000000	7.116720	46.8771	NaN	0.000000	0.001684	0.001688	28.0805	29.2647	0.001771	16523.2	6.340735	-179.998	47.0764	1.113994	0.031519	0.031247	46.8771	16523.2	0.029391	0.039491	1187.02	75965.4
272	2.000000	1.116250	7.36772e+06	-52239.1	955.819	-29750.1	0.000000	0.000000	7.118917	52.0285	NaN	0.000000	0.001659	0.001664	28.0807	31.4572	0.001699	18513.5	6.146066	179.572	50.6884	1.115931	0.033504	0.033184	52.0285	18513.5	0.031396	0.043687	1190.95	80925.9
272	2.000000	1.118212	7.36772e+06	-52239.1	955.818	-29750.1	0.000000	0.000000	7.121127	58.0914	NaN	0.000000	0.001648	0.001686	28.0808	32.4981	0.001699	19132.1	4.112931	-178.737	57.1329	1.117877	0.035465	0.035130	58.0914	19132.1	0.033188	0.047610	1220.15	80109.9
272	2.000000	1.120248	7.36772e+06	-52239.1	955.818	-29750.1	0.000000	0.000000	7.123302	61.4641	NaN	0.000000	0.001699	0.001696	28.0802	35.4522	0.001799	19701.4	5.565025	179.441	62.56	1.119968	0.037501	0.037221	61.4641	19701.4	0.035161	0.052122	1179.23	78842.1
272	2.000000	1.122184	7.36772e+06	-52239.1	955.818	-29750.1	0.000000	0.000000	7.125568	69.4653	NaN	0.000000	0.001631	0.001694	28.0808	36.747	0.001865	19703	4.842849	179.582	67.2483	1.121881	0.039437	0.039134	69.4653	19703	0.036793	0.056004	1240.37	76067.2
272	2.000000	1.124229	7.36772e+06	-52239.1	955.817	-29750.1	0.000000	0.000000	7.128072	80.6397	NaN	0.000000	0.001641	0.001646	28.0793	37.869	0.001694	22353	4.552879	179.672	80.471	1.123881	0.041482	0.041134	80.6397	22353	0.038776	0.060903	1324.06	82753.9
272	2.000000	1.126188	7.36772e+06	-52239.1	955.819	-29750.1	0.000000	0.000000	7.130186	84.4061	NaN	0.000000	0.001643	0.001651	28.0794	41.1056	0.001808	22729.3	3.831414	179.627	82.2544	1.125900	0.043441	0.043153	84.4061	22729.3	0.040656	0.065735	1284.04	80995.8
272	2.000000	1.128183	7.36772e+06	-52239.1	955.819	-29750.1	0.000000	0.000000	7.132462	91.2341	NaN	0.000000	0.001668	0.001691	28.0793	43.1966	0.001671	25857.5	7.640620	174.125	87.907	1.127892	0.045436	0.045146	91.2341	25857.5	0.042790	0.071438	1277.12	88388.6
272	2.000000	1.130241	7.36772e+06	-52239.1	955.819	-29750.1	0.000000	0.000000	7.134826	98.6809	NaN	0.000000	0.001671	0.001667	28.079	45.6112	0.001884	24214.3	2.381024	-179.57	98.0933	1.129970	0.047495	0.047223	98.6809	24214.3	0.044438	0.076000	1298.43	80248.7
272	2.000000	1.132290	7.36772e+06	-52239.1	955.819	-29750.1	0.000000	0.000000	7.137240	107.549	NaN	0.000000	0.001607	0.001687	28.0801	47.4734	0.001804	26309.9	5.785320	176.987	111.779	1.131930	0.049543	0.049183	107.549	26309.9	0.046477	0.081837	1314.2	84027
272	2.000000	1.134167	7.36772e+06	-52239.1	955.818	-29750.1	0.000000	0.000000	7.139526	117.485	NaN	0.000000	0.001652	0.001646	28.0793	49.4921	0.001840	26904.6	5.771379	177.048	115.597	1.133803	0.051421	0.051056	117.485	26904.6	0.048146	0.086767	1354.02	83449.1
272	2.000000	1.136213	7.36772e+06	-52239.1	955.818	-29750.1	0.000000	0.000000	7.141912	125.771	NaN	0.000000	0.001710	0.001660	28.0792	51.9662	0.001760	29523.9	10.6078	171.269	124.807	1.135857	0.053466	0.053111	125.771	29523.9	0.050271	0.093253	1348.71	88331.6
272	2.000000	1.138168	7.36772e+06	-52239.1	955.819	-29750.1	0.000000	0.000000	7.144327	136.958	NaN	0.000000	0.001669	0.001668	28.0791	52.292	0.001755	29798.2	3.481297	178.334	135.579	1.137855	0.055421	0.055108	136.958	29798.2	0.051974	0.098613	1388.85	86695.5
272	2.000000	1.140240	7.36772e+06	-52239.1	955.818	-29750.1	0.000000	0.000000	7.146668	143.485	NaN	0.000000	0.001675	0.001650	28.0788	55.1205	0.001775	31052.3	3.526428	177.351	144.521	1.139981	0.057493	0.057234	143.485	31052.3	0.054027	0.105267	1363.06	87442
272	2.000000	1.142145	7.36772e+06	-52239.1	955.819	-29750.1	0.000000	0.000000	7.149114	156.637	NaN	0.000000	0.001750	0.001714	28.0792	55.8723	0.001809	30877.9	5.646434	175.162	153.473	1.141882	0.059399	0.059135	156.637	30877.9	0.055594	0.110485	1417.72	84872.9
272	2.000000	1.144221	7.36772e+06	-52239.1	955.819	-29750.1	0.000000	0.000000	7.151432	162.535	NaN	0.000000	0.001787	0.001672	28.079	58.332	0.001663	35079.1	2.621563	176.975	164.067	1.143899	0.061474	0.061152	162.535	35079.1	0.057999	0.118731	1368.93	93012
272	2.000000	1.146184	7.36772e+06	-52239.1	955.818	-29750.1	0.000000	0.000000	7.153944	175.879	NaN	0.000000	0.001765	0.001638	28.0792	61.7142	0.001934	31904	9.934085	172.121	172.677	1.145792	0.063437	0.063045	175.879	31904	0.059302	0.123318	1426.22	83004.9
272	2.000000	1.148155	7.36772e+06	-52239.1	955.818	-29750.1	0.000000	0.000000	7.156194	182.675	NaN	0.000000	0.001762	0.001650	28.0791	62.4824	0.001761	35480.6	3.501647	176.426	179.433	1.147903	0.065408	0.065156	182.675	35480.6	0.061547	0.131413	1390.09	89422.2
272	2.000000	1.150239	7.36772e+06	-52239.1	955.818	-29750.1	0.000000	0.000000	7.158714	193.265	NaN	0.000000	0.001782	0.001676	28.0789	65.9423	0.001899	34719.5	9.424393	171.482	193.94	1.149800	0.067492	0.067053	193.265	34719.5	0.063317	0.137971	1400.77	85399.2
272	2.000000	1.152158	7.36772e+06	-52239.1	955.819	-29750.1	0.000000	0.000000	7.161072	203.933	NaN	0.000000	0.001757	0.001663	28.0792	65.3048	0.001761	37073.9	2.295802	176.988	201.993	1.151880	0.069411	0.069133	203.933	37073.9	0.065286	0.145442	1402.16	88817.2
272	2.000000	1.154183	7.36772e+06	-52239.1	955.818	-29750.1	0.000000	0.000000	7.163489	213.469	NaN	0.000000	0.001760	0.001667	28.0791	67.3553	0.001722	39122	2.473580	176.99	212.725	1.153757	0.071436	0.071010	213.469	39122	0.067344	0.153451	1391.12	91244.8
272	2.000000	1.156216	7.36772e+06	-52239.1	955.819	-29750.1	0.000000	0.000000	7.166010	225.351	NaN	0.000000	0.001759	0.001643	28.0794	70.6635	0.001803	39189.9	5.722504	174.107	224.9	1.155845	0.073469	0.073098	225.351	39189.9	0.069156	0.160673	1402.55	89325.7
272	2.000000	1.158082	7.36772e+06	-52239.1	955.818	-29750.1	0.000000	0.000000	7.168242	234.236	NaN	0.000000	0.001756	0.001659	28.0805	71.9751	0.001770	40655.7	5.872237	173.177	227.924	1.157762	0.075335	0.075015	234.236	40655.7	0.071014	0.168238	1392.29	90559.4
272	2.000000	1.160130	7.36772e+06	-52239.1	955.818	-29750.1	0.000000	0.000000	7.170783	246.21	NaN	0.000000	0.001732	0.001652	28.0802	75.5322	0.001933	39073.9	4.703149	174.815	242.777	1.159809	0.077383	0.077062	246.21	39073.9	0.072658	0.175067	1406.38	85321.6
272	2.000000	1.162147	7.36772e+06	-52239.1	955.819	-29750.1	0.000000	0.000000	7.173249	257.146	NaN	0.000000	0.001742	0.001649	28.0802	74.4688	0.001696	43918.3	1.267446	177.67	254.507	1.161916	0.079400	0.079169	257.146	43918.3	0.075008	0.185056	1389.56	93275.3
272	2.000000	1.164165	7.36772e+06	-52239.1	955.819	-29750.1	0.000000	0.000000	7.175510	263.055	NaN	0.000000	0.001780	0.001649	28.0802	77.9636	0.001749	44581.3	2.460750	175.291	261.697	1.163886	0.081418	0.081139	263.055	44581.3	0.076992	0.193689	1358.13	92549.2
272	2.000000	1.166176	7.36772e+06	-52239.1	955.817	-29750.1	0.000000	0.000000	7.178149	278.315	NaN	0.000000	0.001754	0.001657	28.0808	80.844	0.001814	44554.7	7.766100	171.056	275.804	1.165831	0.083429	0.083085	278.315	44554.7	0.078744	0.201466	1381.45	90691.3
272	2.000000	1.168162	7.36772e+06	-52239.1	955.818	-29750.1	0.000000	0.000000	7.180581	289.157	NaN	0.000000	0.001766	0.001662	28.0804	81.7374	0.001766	46283.3	3.037228	174.91	286.489	1.167834	0.085415	0.085087	289.157	46283.3	0.080729	0.210451	1373.99	92176.8
272	2.000000	1.170266	7.36772e+06	-52239.1	955.818	-29750.1	0.000000	0.000000	7.183052	298.093	NaN	0.000000	0.001787	0.001671	28.0804	83.7605	0.001692	49518.3	2.350372	175.455	302.741	1.169863	0.087519	0.087117	298.093	49518.3	0.083004	0.220972	1349.01	96243.2
272	2.000000	1.172111	7.36772e+06	-52239.1	955.817	-29750.1	0.000000	0.000000	7.185791	319.829	NaN	0.000000	0.001749	0.001671	28.0804	84.6633	0.001718	49275	4.589173	172.982	315.848	1.171755	0.089364	0.089008	319.829	49275	0.084496	0.228004	1402.73	94282
272	2.000000	1.174001	7.36772e+06	-52239.1	955.818	-29750.1	0.000000	0.000000	7.188099	329.995	NaN	0.000000	0.001768	0.001669	28.0804	87.4408	0.001821	48010.7	4.882457	173.739	322.38	1.173661	0.091254	0.090915	329.995	48010.7	0.086099	0.235671	1400.24	90356.3
272	2.000000	1.176181	7.36772e+06	-52239.1	955.819	-29750.1	0.000000	0.000000	7.190882	344.652	NaN	0.000000	0.001768	0.001663	28.0805	89.3956	0.001830	48839.4	3.254130	175.328	344.401	1.175722	0.093434	0.092975	344.652	48839.4	0.088142	0.245616	1403.22	90035.8
272	2.000000	1.178136	7.36772e+06	-52239.1	955.818	-29750.1	0.000000	0.000000	7.193651	364.444	NaN	0.000000	0.001751	0.001655	28.0802	92.1853	0.001852	49787.9	7.477472	170.556	363.895	1.177737	0.095389	0.094990	364.444	49787.9	0.089899	0.254323	1432.99	90199.5
272	2.000000	1.180117	7.36772e+06	-52239.1	955.819	-29750.1	0.000000	0.000000	7.195808	368.716	NaN	0.000000	0.001761	0.001666	28.0802	92.5111	0.001802	51328.1	1.667460	175.411	365.884	1.179963	0.097370	0.097216	368.716	51328.1	0.091982	0.264832	1392.26	91126.1
272	2.000000	1.182175	7.36772e+06	-52239.1	955.818	-29750.1	0.000000	0.000000	7.198532	384.92	NaN	0.000000	0.001736	0.001657	28.0801	92.929	0.001783	52109.5	2.626037	174.83	384.554	1.181936	0.099428	0.099189	384.92	52109.5	0.093888	0.274617	1401.66	90850.2
272	2.000000	1.184229	7.36772e+06	-52239.1	955.819	-29750.1	0.000000	0.000000	7.200903	392.622	NaN	0.000000	0.001748	0.001663	28.0802	95.644	0.001748	54724.1	2.711856	174.09	397.222	1.183914	0.101482	0.101167	392.622	54724.1	0.096101	0.286191	1371.89	93459.6
272	2.000000	1.186053	7.36772e+06	-52239.1	955.819	-29750.1	0.000000	0.000000	7.203635	414.678	NaN	0.000000	0.001722	0.001674	28.0803	97.107	0.001831	53024.5	3.015207	174.571	408.224	1.185719	0.103307	0.102972	414.678	53024.5	0.097441	0.293305	1413.81	89452.1
272	2.000000	1.188077	7.36772e+06	-52239.1	955.818	-29750.1	0.000000	0.000000	7.206297	430.216	NaN	0.000000	0.001746	0.001685	28.0801	97.7755	0.001713	57066.5	2.068351	174.709	426.753	1.187745	0.105330	0.104999	430.216	57066.5	0.099676	0.305353	1408.91	94352.5
272	2.000000	1.190160	7.36772e+06	-52239.1	955.818	-29750.1	0.000000	0.000000	7.208516	433.516	NaN	0.000000	0.001699	0.001649	28.08	101.859	0.001839	55401.7	1.630630	175.021	432.874	1.189996	0.107413	0.107249	433.516	55401.7	0.101544	0.315600	1373.62	90100.5
272	2.000000	1.191175	7.36772e+06	-52239.1	955.818	-29750.1	0.000000	0.000000	7.210182	449.343	NaN	0.000000	0.001740	0.001689	28.079	103.015	0.001788	57618.6	6.964165	170.057	450.685	1.190609	0.108428	0.107862	449.343	57618.6	0.102579	0.321344	1398.32	92864.7