File: remote_trans/data/nanoindenter/0828-1/data/Data_2025-08-06,11h17m57s/2025-07-22_16-23-58_1_523.txt
2025-07-22, 16:23:58, 1
Index	Phase	Displacement	Time	Pos X	Pos Y	Pos Z	Rot A	Rot B	Piezo Z	Force A	Force B	Gripper	Voltage A	Voltage B	Temperature	Amplitude force	Amplitude pos	Stiffness	Phase shift	Phase excitation	Force A raw	Displacement raw	HMax	HMax raw	Real Force	Real Stiffness	Contact Depth	Area	Hardness	Reduced Mod.
[#]	[#]	[um]	[s]	[um]	[um]	[um]	[m°]	[m°]	[um]	[uN]	[uN]	[V]	[V]	[V]	[°C]	[uN]	[um]	[N/m]	[°]	[°]	[uN]	[um]	[um]	[um]	[uN]	[N/m]	[um]	[um^2]	[MPa]	[MPa]
523	1.000000	0.002342	7.37017e+06	-50939.1	1005.82	-29754	0.000000	0.000000	6.002801	-0.002138	NaN	0.000000	0.001655	0.001896	28.0809	0.091857	0.001006	91.3459	-116.353	-158.266	-0.073681	0.001096	-1.144561	-1.145807	-0.002138	91.3459	-1.144544	-1.984562E+15	1.077453E-18	NaN
523	1.000000	0.012404	7.37017e+06	-50939.1	1005.82	-29754	0.000000	0.000000	6.012863	-0.014182	NaN	0.000000	0.001640	0.001905	28.0805	0.033092	0.001253	26.4132	-6.685158	18.8257	-0.043823	0.010969	-1.134499	-1.135934	-0.014182	26.4132	-1.134096	-1.437357E+15	9.866807E-18	NaN
523	1.000000	0.022289	7.37017e+06	-50939.1	1005.82	-29754	0.000000	0.000000	6.022748	-0.017713	NaN	0.000000	0.001617	0.001921	28.0809	0.043652	0.001712	25.4962	93.5538	-165.014	0.010009	0.020991	-1.124614	-1.125912	-0.017713	25.4962	-1.124093	-1.055326E+15	1.678433E-17	NaN
523	1.000000	0.032296	7.37017e+06	-50939.1	1005.82	-29754	0.000000	0.000000	6.032752	-0.093920	NaN	0.000000	0.001620	0.001880	28.0809	0.024433	0.001724	14.1719	164.661	17.2744	-0.020122	0.030966	-1.114607	-1.115937	-0.093920	14.1719	-1.109636	-6.751625E+14	1.391070E-16	NaN
523	1.000000	0.042300	7.37017e+06	-50939.1	1005.82	-29754	0.000000	0.000000	6.042760	0.008366	NaN	0.000000	0.001609	0.001891	28.0809	0.059664	0.002051	29.0964	131.187	-164.725	0.009513	0.040981	-1.104603	-1.105922	0.008366	29.0964	-1.104819	-5.817660E+14	-1.438087E-17	NaN
523	1.000000	0.052274	7.37017e+06	-50939.1	1005.82	-29754	0.000000	0.000000	6.052736	0.057411	NaN	0.000000	0.001606	0.001917	28.0805	0.153141	0.002036	75.1989	174.419	15.9344	0.035084	0.050964	-1.094629	-1.095939	0.057411	75.1989	-1.095202	-4.321713E+14	-1.328426E-16	NaN
523	1.000000	0.062310	7.37017e+06	-50939.1	1005.82	-29754	0.000000	0.000000	6.062769	-0.013400	NaN	0.000000	0.001609	0.001874	28.0807	0.136128	0.002021	67.3585	-105.377	-166.614	0.036863	0.060994	-1.084593	-1.085909	-0.013400	67.3585	-1.084444	-3.098879E+14	4.324101E-17	NaN
523	1.000000	0.072292	7.37017e+06	-50939.1	1005.82	-29754	0.000000	0.000000	6.072750	-0.026495	NaN	0.000000	0.001635	0.001891	28.0805	0.032275	0.002027	15.9226	-134.989	18.9751	0.008169	0.070921	-1.074612	-1.075982	-0.026495	15.9226	-1.073364	-2.199764E+14	1.204448E-16	NaN
523	1.000000	0.082294	7.37017e+06	-50939.1	1005.82	-29754	0.000000	0.000000	6.082750	-0.089185	NaN	0.000000	0.001578	0.001852	28.0806	0.039618	0.002127	18.6248	76.1017	-157.319	-0.049738	0.081003	-1.064610	-1.065900	-0.089185	18.6248	-1.061018	-1.501425E+14	5.940014E-16	NaN
523	1.000000	0.092308	7.37017e+06	-50939.1	1005.82	-29754	0.000000	0.000000	6.092768	0.011815	NaN	0.000000	0.001620	0.001835	28.0805	0.088196	0.001943	45.4024	177.678	14.623	0.057280	0.090955	-1.054595	-1.055948	0.011815	45.4024	-1.054790	-1.238242E+14	-9.541987E-17	NaN
523	1.000000	0.102288	7.37017e+06	-50939.1	1005.82	-29754	0.000000	0.000000	6.102747	-0.007547	NaN	0.000000	0.001594	0.001907	28.0807	0.087791	0.001972	44.5139	44.5567	-164.422	-0.018055	0.101007	-1.044615	-1.045896	-0.007547	44.5139	-1.044488	-9.001441E+13	8.384378E-17	NaN
523	1.000000	0.112328	7.37017e+06	-50939.1	1005.82	-29754	0.000000	0.000000	6.112787	-0.009199	NaN	0.000000	0.001610	0.001861	28.0819	0.039059	0.002060	18.9611	142.41	15.5118	-0.059674	0.110920	-1.034576	-1.035983	-0.009199	18.9611	-1.034212	-6.548282E+13	1.404721E-16	NaN
523	1.000000	0.122322	7.37017e+06	-50939.1	1005.82	-29754	0.000000	0.000000	6.122781	-0.023222	NaN	0.000000	0.001640	0.001859	28.0819	0.010230	0.001905	5.369689	133.674	-163.492	0.010824	0.120985	-1.024581	-1.025918	-0.023222	5.369689	-1.021337	-4.394834E+13	5.283997E-16	NaN
523	1.000000	0.132354	7.37017e+06	-50939.1	1005.82	-29754	0.000000	0.000000	6.132816	0.072747	NaN	0.000000	0.001647	0.001824	28.082	0.097171	0.002002	48.5425	-42.8986	15.918	-0.027659	0.130964	-1.014549	-1.015939	0.072747	48.5425	-1.015673	-3.687517E+13	-1.972781E-15	NaN
523	1.000000	0.142356	7.37017e+06	-50939.1	1005.82	-29754	0.000000	0.000000	6.142813	-0.082559	NaN	0.000000	0.001653	0.001860	28.0819	0.045114	0.002045	22.0648	171.341	-161.558	-0.125005	0.141007	-1.004547	-1.005896	-0.082559	22.0648	-1.001740	-2.394426E+13	3.447982E-15	NaN
523	1.000000	0.152320	7.37017e+06	-50939.1	1005.82	-29754	0.000000	0.000000	6.152780	0.013891	NaN	0.000000	0.001631	0.001874	28.0818	0.050364	0.002062	24.4214	29.916	17.065	0.026711	0.150983	-0.994583	-0.995921	0.013891	24.4214	-0.995010	-1.943464E+13	-7.147753E-16	NaN
523	1.000000	0.162323	7.37017e+06	-50939.1	1005.82	-29754	0.000000	0.000000	6.162783	0.020202	NaN	0.000000	0.001656	0.001846	28.0816	0.013119	0.001938	6.769619	72.1979	-164.337	0.003894	0.160998	-0.984580	-0.985905	0.020202	6.769619	-0.986818	-1.507512E+13	-1.340118E-15	NaN
523	1.000000	0.172351	7.37017e+06	-50939.1	1005.82	-29754	0.000000	0.000000	6.172812	0.039732	NaN	0.000000	0.001700	0.001880	28.0815	0.048689	0.001963	24.8057	10.3112	12.6567	0.055583	0.170933	-0.974552	-0.975970	0.039732	24.8057	-0.975754	-1.069538E+13	-3.714921E-15	NaN
523	1.000000	0.182329	7.37017e+06	-50939.1	1005.82	-29754	0.000000	0.000000	6.182788	-0.016337	NaN	0.000000	0.001642	0.001880	28.0819	0.109652	0.002046	53.592	96.6934	-164.452	0.007359	0.181011	-0.964574	-0.965892	-0.016337	53.592	-0.964345	-7.506607E+12	2.176415E-15	NaN
523	1.000000	0.192297	7.37017e+06	-50939.1	1005.82	-29754	0.000000	0.000000	6.192756	-0.007341	NaN	0.000000	0.001602	0.001890	28.0815	0.084636	0.001904	44.454	-30.0494	17.7677	-0.079572	0.190965	-0.954606	-0.955938	-0.007341	44.454	-0.954482	-5.526789E+12	1.328195E-15	NaN
523	1.000000	0.202347	7.37017e+06	-50939.1	1005.82	-29754	0.000000	0.000000	6.202805	-0.034681	NaN	0.000000	0.001606	0.001932	28.0817	0.075616	0.001969	38.4122	50.6379	-165.779	-0.038920	0.201035	-0.944556	-0.945869	-0.034681	38.4122	-0.943879	-3.976165E+12	8.722100E-15	NaN
523	1.000000	0.212355	7.37017e+06	-50939.1	1005.82	-29754	0.000000	0.000000	6.212815	0.019334	NaN	0.000000	0.001635	0.001885	28.0817	0.049658	0.001904	26.08	-4.679285	12.8171	0.002192	0.211031	-0.934548	-0.935873	0.019334	26.08	-0.935104	-3.027468E+12	-6.386044E-15	NaN
523	1.000000	0.222362	7.37017e+06	-50939.1	1005.82	-29754	0.000000	0.000000	6.222821	-0.009994	NaN	0.000000	0.001593	0.001874	28.0814	0.117860	0.001923	61.2792	-131.812	-161.031	-0.001741	0.221040	-0.924542	-0.925863	-0.009994	61.2792	-0.924419	-2.172039E+12	4.601110E-15	NaN
523	1.000000	0.232358	7.37017e+06	-50939.1	1005.82	-29754	0.000000	0.000000	6.232820	0.045721	NaN	0.000000	0.001584	0.001891	28.0816	0.046454	0.001933	24.0341	122.658	13.3045	0.081218	0.230997	-0.914545	-0.915906	0.045721	24.0341	-0.915971	-1.670356E+12	-2.737173E-14	NaN
523	1.000000	0.242382	7.37017e+06	-50939.1	1005.82	-29754	0.000000	0.000000	6.242842	0.007814	NaN	0.000000	0.001585	0.001875	28.0814	0.078505	0.002023	38.8054	122.53	-166.553	-0.003592	0.241001	-0.904521	-0.905902	0.007814	38.8054	-0.904672	-1.175420E+12	-6.647915E-15	NaN
523	1.000000	0.252352	7.37017e+06	-50939.1	1005.82	-29754	0.000000	0.000000	6.252812	-0.001998	NaN	0.000000	0.001581	0.001884	28.0807	0.058971	0.002148	27.4586	-174.492	18.9701	-0.005210	0.251031	-0.894551	-0.895872	-0.001998	27.4586	-0.894496	-8.564278E+11	2.332935E-15	NaN
523	1.000000	0.262362	7.37017e+06	-50939.1	1005.82	-29754	0.000000	0.000000	6.262819	-0.060424	NaN	0.000000	0.001617	0.001894	28.0804	0.132983	0.002134	62.3229	-131.544	-166.389	-0.048392	0.261079	-0.884541	-0.885824	-0.060424	62.3229	-0.883814	-6.141638E+11	9.838398E-14	NaN
523	1.000000	0.272363	7.37017e+06	-50939.1	1005.82	-29754	0.000000	0.000000	6.272826	0.085948	NaN	0.000000	0.001573	0.001880	28.0804	0.057382	0.002063	27.8138	135.127	15.6733	0.008664	0.271040	-0.874540	-0.875863	0.085948	27.8138	-0.876858	-4.945526E+11	-1.737904E-13	NaN
523	1.000000	0.282386	7.37017e+06	-50939.1	1005.82	-29754	0.000000	0.000000	6.282845	-0.014927	NaN	0.000000	0.001635	0.001891	28.0803	0.019196	0.001921	9.992189	-98.8576	-162.594	-0.048583	0.281043	-0.864517	-0.865860	-0.014927	9.992189	-0.863396	-3.251531E+11	4.590818E-14	NaN
523	1.000000	0.292397	7.37017e+06	-50939.1	1005.82	-29754	0.000000	0.000000	6.292856	-0.003775	NaN	0.000000	0.001606	0.001913	28.0806	0.066018	0.001941	34.0172	46.2985	13.4079	-0.051182	0.291034	-0.854507	-0.855870	-0.003775	34.0172	-0.854423	-2.458268E+11	1.535774E-14	NaN
523	1.000000	0.302414	7.37017e+06	-50939.1	1005.82	-29754	0.000000	0.000000	6.302875	0.040233	NaN	0.000000	0.001598	0.001887	28.08	0.099507	0.001886	52.7596	108.718	-164.09	-0.006661	0.301106	-0.844489	-0.845797	0.040233	52.7596	-0.845061	-1.835902E+11	-2.191463E-13	NaN
523	1.000000	0.312381	7.37017e+06	-50939.1	1005.82	-29754	0.000000	0.000000	6.312839	-0.048586	NaN	0.000000	0.001627	0.001905	28.0805	0.069032	0.001929	35.7825	-33.1288	13.3563	0.000749	0.311028	-0.834522	-0.835875	-0.048586	35.7825	-0.833504	-1.280180E+11	3.795267E-13	NaN
523	1.000000	0.322424	7.37017e+06	-50939.1	1005.82	-29754	0.000000	0.000000	6.322882	-0.042327	NaN	0.000000	0.001616	0.001886	28.0804	0.137837	0.001923	71.6942	-62.9972	-160.713	-0.036480	0.321092	-0.824479	-0.825811	-0.042327	71.6942	-0.824037	-9.526760E+10	4.442916E-13	NaN
523	1.000000	0.332402	7.37017e+06	-50939.1	1005.82	-29754	0.000000	0.000000	6.332860	-0.057784	NaN	0.000000	0.001656	0.001877	28.0806	0.069965	0.001942	36.0341	149.267	16.5901	-0.044438	0.331073	-0.814501	-0.815831	-0.057784	36.0341	-0.813298	-6.812607E+10	8.481953E-13	NaN
523	1.000000	0.342431	7.37017e+06	-50939.1	1005.82	-29754	0.000000	0.000000	6.342890	-0.038662	NaN	0.000000	0.001665	0.001866	28.0802	0.014426	0.002020	7.141875	-93.0165	-162.536	-0.066724	0.341104	-0.804472	-0.805799	-0.038662	7.141875	-0.800412	-4.554587E+10	8.488689E-13	NaN
523	1.000000	0.352408	7.37017e+06	-50939.1	1005.82	-29754	0.000000	0.000000	6.352866	-0.033694	NaN	0.000000	0.001698	0.001876	28.0804	0.092168	0.002059	44.7575	-82.0203	17.3183	-0.095592	0.351120	-0.794495	-0.795783	-0.033694	44.7575	-0.793931	-3.719331E+10	9.059230E-13	NaN
523	1.000000	0.362419	7.37017e+06	-50939.1	1005.82	-29754	0.000000	0.000000	6.362876	-0.077071	NaN	0.000000	0.001709	0.001879	28.0803	0.078380	0.001977	39.6431	-147.484	-165.673	-0.048526	0.361142	-0.784484	-0.785762	-0.077071	39.6431	-0.783026	-2.644524E+10	2.914371E-12	NaN
523	1.000000	0.372430	7.37017e+06	-50939.1	1005.82	-29754	0.000000	0.000000	6.372889	-0.015241	NaN	0.000000	0.001688	0.001837	28.0803	0.051747	0.002071	24.9923	-131.34	15.7906	0.003368	0.371075	-0.774473	-0.775828	-0.015241	24.9923	-0.774016	-1.994811E+10	7.640364E-13	NaN
523	1.000000	0.382418	7.37017e+06	-50939.1	1005.82	-29754	0.000000	0.000000	6.382878	0.013954	NaN	0.000000	0.001701	0.001890	28.0812	0.097327	0.002051	47.4593	49.3458	-163.299	-0.062753	0.381077	-0.764485	-0.765826	0.013954	47.4593	-0.764706	-1.490426E+10	-9.362528E-13	NaN
523	1.000000	0.392450	7.37017e+06	-50939.1	1005.82	-29754	0.000000	0.000000	6.392906	-0.078523	NaN	0.000000	0.001681	0.001912	28.0816	0.062143	0.001903	32.6611	11.0959	13.2566	-0.028524	0.391051	-0.754453	-0.755852	-0.078523	32.6611	-0.752650	-1.021626E+10	7.686094E-12	NaN
523	1.000000	0.402436	7.37017e+06	-50939.1	1005.82	-29754	0.000000	0.000000	6.402895	-0.012081	NaN	0.000000	0.001675	0.001845	28.0814	0.072451	0.001948	37.1948	-77.6042	-162.445	0.054609	0.401141	-0.744467	-0.745762	-0.012081	37.1948	-0.744224	-7.844768E+9	1.540043E-12	NaN
523	1.000000	0.412416	7.37017e+06	-50939.1	1005.82	-29754	0.000000	0.000000	6.412874	-0.047974	NaN	0.000000	0.001703	0.001834	28.0814	0.071488	0.002015	35.4781	-16.877	17.6977	-0.029562	0.411062	-0.734487	-0.735841	-0.047974	35.4781	-0.733473	-5.599304E+9	8.567911E-12	NaN
523	1.000000	0.422455	7.37017e+06	-50939.1	1005.82	-29754	0.000000	0.000000	6.422913	-0.054333	NaN	0.000000	0.001683	0.001827	28.0814	0.016349	0.001975	8.276712	21.6111	-164.835	-0.060884	0.421119	-0.724448	-0.725784	-0.054333	8.276712	-0.719525	-3.614011E+9	1.503392E-11	NaN
523	1.000000	0.432444	7.37017e+06	-50939.1	1005.82	-29754	0.000000	0.000000	6.432903	-0.016678	NaN	0.000000	0.001643	0.001823	28.0816	0.042926	0.002118	20.2693	-120.975	17.6724	-0.018872	0.431102	-0.714459	-0.715801	-0.016678	20.2693	-0.713842	-3.023229E+9	5.516764E-12	NaN
523	1.000000	0.442451	7.37017e+06	-50939.1	1005.82	-29754	0.000000	0.000000	6.442911	-0.003690	NaN	0.000000	0.001691	0.001879	28.0814	0.057867	0.001941	29.8186	-101.764	-165.759	0.024968	0.441127	-0.704452	-0.705776	-0.003690	29.8186	-0.704359	-2.244143E+9	1.644337E-12	NaN
523	1.000000	0.452503	7.37017e+06	-50939.1	1005.82	-29754	0.000000	0.000000	6.452963	-0.004293	NaN	0.000000	0.001681	0.001846	28.0814	0.118653	0.001936	61.2746	-43.7825	15.5317	-0.001958	0.451097	-0.694400	-0.695806	-0.004293	61.2746	-0.694347	-1.638025E+9	2.620583E-12	NaN
523	1.000000	0.462449	7.37017e+06	-50939.1	1005.82	-29754	0.000000	0.000000	6.462908	-0.014987	NaN	0.000000	0.001649	0.001836	28.0815	0.118753	0.001993	59.5836	-171.383	-162.385	-0.101507	0.461193	-0.684454	-0.685710	-0.014987	59.5836	-0.684265	-1.192697E+9	1.256547E-11	NaN
523	1.000000	0.472472	7.37017e+06	-50939.1	1005.82	-29754	0.000000	0.000000	6.472927	-0.096174	NaN	0.000000	0.001584	0.001825	28.0816	0.136352	0.001931	70.6101	128.422	15.3293	-0.070744	0.471118	-0.674432	-0.675785	-0.096174	70.6101	-0.673410	-8.473384E+8	1.135008E-10	NaN
523	1.000000	0.482507	7.37017e+06	-50939.1	1005.82	-29754	0.000000	0.000000	6.482965	-0.035796	NaN	0.000000	0.001645	0.001843	28.0814	0.076990	0.002074	37.1179	-133.773	-164.506	0.089308	0.481148	-0.664396	-0.665755	-0.035796	37.1179	-0.663673	-6.234063E+8	5.741996E-11	NaN
523	1.000000	0.492431	7.37017e+06	-50939.1	1005.82	-29754	0.000000	0.000000	6.492891	0.010720	NaN	0.000000	0.001667	0.001812	28.0815	0.086004	0.001970	43.6473	96.1363	16.7536	-0.053399	0.491131	-0.654472	-0.655772	0.010720	43.6473	-0.654657	-4.690960E+8	-2.285150E-11	NaN
523	1.000000	0.502487	7.37017e+06	-50939.1	1005.82	-29754	0.000000	0.000000	6.502944	-0.063954	NaN	0.000000	0.001667	0.001831	28.0818	0.036752	0.001917	19.1688	-178.545	-164.46	-0.053877	0.501189	-0.644416	-0.645714	-0.063954	19.1688	-0.641914	-3.137246E+8	2.038555E-10	NaN
523	1.000000	0.512470	7.37017e+06	-50939.1	1005.82	-29754	0.000000	0.000000	6.512929	-0.008554	NaN	0.000000	0.001674	0.001837	28.0817	0.019552	0.001988	9.834920	-32.7699	17.0482	0.020339	0.511140	-0.634434	-0.635763	-0.008554	9.834920	-0.633781	-2.426279E+8	3.525581E-11	NaN
523	1.000000	0.522495	7.37017e+06	-50939.1	1005.82	-29754	0.000000	0.000000	6.522956	0.034777	NaN	0.000000	0.001632	0.001811	28.0802	0.073910	0.001912	38.6507	-65.3202	-164.362	0.096436	0.521174	-0.624408	-0.625729	0.034777	38.6507	-0.625083	-1.842823E+8	-1.887135E-10	NaN
523	1.000000	0.532465	7.37017e+06	-50939.1	1005.82	-29754	0.000000	0.000000	6.532923	-0.048686	NaN	0.000000	0.001624	0.001826	28.0803	0.079094	0.001938	40.8063	-114.815	12.2974	-0.035443	0.531162	-0.614438	-0.615741	-0.048686	40.8063	-0.613543	-1.278958E+8	3.806712E-10	NaN
523	1.000000	0.542526	7.37017e+06	-50939.1	1005.82	-29754	0.000000	0.000000	6.542985	-0.023671	NaN	0.000000	0.001647	0.001818	28.0803	0.050266	0.001979	25.4	25.4549	-162.7	-0.005671	0.541181	-0.604377	-0.605722	-0.023671	25.4	-0.603678	-9.356240E+7	2.529959E-10	NaN
523	1.000000	0.552504	7.37017e+06	-50939.1	1005.82	-29754	0.000000	0.000000	6.552964	0.021475	NaN	0.000000	0.001649	0.001812	28.08	0.036723	0.001882	19.5134	169.224	15.9077	0.057302	0.551141	-0.594400	-0.595762	0.021475	19.5134	-0.595225	-7.156181E+7	-3.000950E-10	NaN
523	1.000000	0.562513	7.37017e+06	-50939.1	1005.82	-29754	0.000000	0.000000	6.562976	0.068752	NaN	0.000000	0.001604	0.001844	28.0802	0.035537	0.002042	17.4033	107.4	-162.931	-0.014613	0.561162	-0.584390	-0.585741	0.068752	17.4033	-0.587353	-5.574007E+7	-1.233443E-9	NaN
523	1.000000	0.572482	7.37017e+06	-50939.1	1005.82	-29754	0.000000	0.000000	6.572942	0.008329	NaN	0.000000	0.001561	0.001840	28.0804	0.077322	0.002117	36.524	33.8081	14.898	0.072680	0.571114	-0.574421	-0.575789	0.008329	36.524	-0.574592	-3.715883E+7	-2.241330E-10	NaN
523	1.000000	0.582509	7.37017e+06	-50939.1	1005.82	-29754	0.000000	0.000000	6.582967	-0.041978	NaN	0.000000	0.001556	0.001832	28.0804	0.046192	0.002063	22.3919	139.272	-166.26	-0.026987	0.581237	-0.564394	-0.565666	-0.041978	22.3919	-0.562988	-2.568684E+7	1.634206E-9	NaN
523	1.000000	0.592509	7.37017e+06	-50939.1	1005.82	-29754	0.000000	0.000000	6.592968	0.004953	NaN	0.000000	0.001592	0.001787	28.0802	0.083701	0.001872	44.7045	-82.474	17.3874	0.083869	0.591173	-0.554395	-0.555730	0.004953	44.7045	-0.554478	-1.958656E+7	-2.528890E-10	NaN
523	1.000000	0.602497	7.37017e+06	-50939.1	1005.82	-29754	0.000000	0.000000	6.602959	0.036182	NaN	0.000000	0.001589	0.001824	28.0804	0.012122	0.001920	6.314556	-170.347	-163.531	0.038938	0.601197	-0.544406	-0.545706	0.036182	6.314556	-0.548703	-1.629266E+7	-2.220744E-9	NaN
523	1.000000	0.612533	7.37017e+06	-50939.1	1005.82	-29754	0.000000	0.000000	6.612992	-0.012460	NaN	0.000000	0.001613	0.001823	28.0805	0.084503	0.002096	40.3142	64.4189	16.3441	-0.075938	0.611203	-0.534370	-0.535701	-0.012460	40.3142	-0.534139	-1.023375E+7	1.217589E-9	NaN
523	1.000000	0.622509	7.37017e+06	-50939.1	1005.82	-29754	0.000000	0.000000	6.622968	-0.000327	NaN	0.000000	0.001588	0.001845	28.0803	0.047042	0.002002	23.4936	-167.057	-164.782	0.055878	0.621210	-0.524394	-0.525693	-0.000327	23.4936	-0.524384	-7.49116e+06	4.366926E-11	NaN
523	1.000000	0.632548	7.37017e+06	-50939.1	1005.82	-29754	0.000000	0.000000	6.633007	-0.013205	NaN	0.000000	0.001609	0.001817	28.0802	0.040367	0.002009	20.0946	77.9405	13.6946	-0.005639	0.631186	-0.514355	-0.515717	-0.013205	20.0946	-0.513862	-5.34803e+06	2.469104E-9	NaN
523	1.000000	0.642535	7.37017e+06	-50939.1	1005.82	-29754	0.000000	0.000000	6.642993	-0.049881	NaN	0.000000	0.001578	0.001797	28.0805	0.128323	0.001994	64.3649	-135.348	-168.504	-0.040475	0.641246	-0.504368	-0.505657	-0.049881	64.3649	-0.503786	-3.87103e+06	1.288560E-8	NaN
523	1.000000	0.652552	7.37017e+06	-50939.1	1005.82	-29754	0.000000	0.000000	6.653011	-0.005463	NaN	0.000000	0.001602	0.001806	28.0807	0.103341	0.002028	50.9625	13.1157	13.7512	-0.018341	0.651179	-0.494351	-0.495724	-0.005463	50.9625	-0.494271	-2.85136e+06	1.915854E-9	NaN
523	1.000000	0.662542	7.37017e+06	-50939.1	1005.82	-29754	0.000000	0.000000	6.663002	0.017237	NaN	0.000000	0.001627	0.001816	28.0817	0.055414	0.002064	26.8479	-63.6819	-166.696	0.031638	0.661250	-0.484361	-0.485653	0.017237	26.8479	-0.484843	-2.10518e+06	-8.187861E-9	NaN
523	1.000000	0.672546	7.37017e+06	-50939.1	1005.82	-29754	0.000000	0.000000	6.673006	-0.006118	NaN	0.000000	0.001590	0.001838	28.0816	0.026029	0.001972	13.2019	-165.425	18.319	0.027366	0.671215	-0.474357	-0.475689	-0.006118	13.2019	-0.474009	-1.48462e+06	4.121093E-9	NaN
523	1.000000	0.682571	7.37017e+06	-50939.1	1005.82	-29754	0.000000	0.000000	6.683030	-0.016980	NaN	0.000000	0.001607	0.001806	28.0818	0.064095	0.001939	33.0547	-155.911	-163.145	0.003880	0.681236	-0.464332	-0.465667	-0.016980	33.0547	-0.463947	-1.07267e+06	1.583013E-8	NaN
523	1.000000	0.692553	7.37017e+06	-50939.1	1005.82	-29754	0.000000	0.000000	6.693012	-0.002768	NaN	0.000000	0.001613	0.001811	28.0819	0.090291	0.001930	46.7929	131.624	14.3736	0.001051	0.691246	-0.454350	-0.455658	-0.002768	46.7929	-0.454306	-785155	3.525922E-9	NaN
523	1.000000	0.702562	7.37017e+06	-50939.1	1005.82	-29754	0.000000	0.000000	6.703020	-0.038841	NaN	0.000000	0.001608	0.001791	28.0819	0.023895	0.001992	11.9969	-167.319	-161.911	-0.032841	0.701252	-0.444341	-0.445652	-0.038841	11.9969	-0.441913	-525241	7.394860E-8	NaN
523	1.000000	0.712571	7.37017e+06	-50939.1	1005.82	-29754	0.000000	0.000000	6.713029	-0.037806	NaN	0.000000	0.001597	0.001827	28.0816	0.036630	0.001897	19.3047	-58.3629	15.5862	0.009317	0.711204	-0.434332	-0.435699	-0.037806	19.3047	-0.432863	-391341	9.660569E-8	NaN
523	1.000000	0.722578	7.37017e+06	-50939.1	1005.82	-29754	0.000000	0.000000	6.723036	-0.044426	NaN	0.000000	0.001593	0.001815	28.0819	0.123243	0.002163	56.9762	173.831	-160.997	0.026776	0.721307	-0.424325	-0.425597	-0.044426	56.9762	-0.423740	-290695	1.528253E-7	NaN
523	1.000000	0.732538	7.37017e+06	-50939.1	1005.82	-29754	0.000000	0.000000	6.732997	-0.019324	NaN	0.000000	0.001618	0.001843	28.0815	0.045119	0.002030	22.2308	-176.731	12.6726	-0.026931	0.731197	-0.414365	-0.415706	-0.019324	22.2308	-0.413713	-209498	9.223817E-8	NaN
523	1.000000	0.742586	7.37017e+06	-50939.1	1005.82	-29754	0.000000	0.000000	6.743047	0.036049	NaN	0.000000	0.001629	0.001802	28.0816	0.017935	0.002023	8.864641	-65.8588	-165.65	-0.008348	0.741284	-0.404317	-0.405620	0.036049	8.864641	-0.407367	-170194	-2.118126E-7	NaN
523	1.000000	0.752581	7.37017e+06	-50939.1	1005.82	-29754	0.000000	0.000000	6.753041	0.001992	NaN	0.000000	0.001617	0.001813	28.0816	0.060502	0.001939	31.1977	46.5467	11.8757	0.014468	0.751228	-0.394322	-0.395675	0.001992	31.1977	-0.394370	-111079	-1.793594E-8	NaN
523	1.000000	0.762564	7.37017e+06	-50939.1	1005.82	-29754	0.000000	0.000000	6.763023	-0.003680	NaN	0.000000	0.001577	0.001815	28.0817	0.059588	0.002033	29.3113	-132.393	-167.255	-0.014462	0.761324	-0.384339	-0.385579	-0.003680	29.3113	-0.384245	-79573.5	4.624409E-8	NaN
523	1.000000	0.772611	7.37017e+06	-50939.1	1005.82	-29754	0.000000	0.000000	6.773071	0.018645	NaN	0.000000	0.001607	0.001813	28.0818	0.013672	0.001872	7.302060	127.266	13.2286	0.007089	0.771218	-0.374293	-0.375685	0.018645	7.302060	-0.376208	-61013.7	-3.055914E-7	NaN
523	1.000000	0.782613	7.37017e+06	-50939.1	1005.82	-29754	0.000000	0.000000	6.783072	-0.012823	NaN	0.000000	0.001610	0.001809	28.0817	0.130638	0.001897	68.8606	-140.639	-163.502	0.034383	0.781257	-0.364291	-0.365647	-0.012823	68.8606	-0.364151	-40907.3	3.134700E-7	NaN
523	1.000000	0.792604	7.37017e+06	-50939.1	1005.82	-29754	0.000000	0.000000	6.793068	0.103224	NaN	0.000000	0.001616	0.001827	28.0808	0.096036	0.002012	47.7222	111.014	14.777	0.098899	0.791275	-0.354299	-0.355629	0.103224	47.7222	-0.355921	-31105.5	-3.318501E-6	NaN
523	1.000000	0.802639	7.37017e+06	-50939.1	1005.82	-29754	0.000000	0.000000	6.803099	0.008994	NaN	0.000000	0.001598	0.001816	28.0806	0.029752	0.002005	14.8375	104.088	-166.099	-0.050358	0.801220	-0.344264	-0.345683	0.008994	14.8375	-0.344718	-21392.5	-4.204346E-7	NaN
523	1.000000	0.812628	7.37017e+06	-50939.1	1005.82	-29754	0.000000	0.000000	6.813087	-0.016197	NaN	0.000000	0.001643	0.001837	28.0806	0.025387	0.001960	12.9504	115.183	15.0974	0.022044	0.811263	-0.334276	-0.335640	-0.016197	12.9504	-0.333338	-14597.9	1.109537E-6	NaN
523	1.000000	0.822584	7.37017e+06	-50939.1	1005.82	-29754	0.000000	0.000000	6.823042	-0.039123	NaN	0.000000	0.001632	0.001808	28.0805	0.032531	0.002013	16.1579	-7.831483	-163.648	-0.070254	0.821282	-0.324319	-0.325621	-0.039123	16.1579	-0.322503	-10126.3	3.863517E-6	NaN
523	1.000000	0.832606	7.37017e+06	-50939.1	1005.82	-29754	0.000000	0.000000	6.833065	-0.032506	NaN	0.000000	0.001631	0.001820	28.0811	0.027216	0.002104	12.937	-160.595	13.9671	-0.000921	0.831184	-0.314297	-0.315719	-0.032506	12.937	-0.312412	-7190.03	4.521023E-6	NaN
523	1.000000	0.842607	7.37017e+06	-50939.1	1005.82	-29754	0.000000	0.000000	6.843067	0.009368	NaN	0.000000	0.001599	0.001809	28.0808	0.023963	0.001938	12.3628	-6.417448	-166.807	0.004963	0.841304	-0.304296	-0.305599	0.009368	12.3628	-0.304865	-5558.37	-1.685472E-6	NaN
523	1.000000	0.852615	7.37017e+06	-50939.1	1005.82	-29754	0.000000	0.000000	6.853075	0.021432	NaN	0.000000	0.001615	0.001819	28.0808	0.053483	0.002127	25.1446	-102.647	14.9877	0.027363	0.851313	-0.294288	-0.295590	0.021432	25.1446	-0.294928	-3953.72	-5.420707E-6	NaN
523	1.000000	0.862604	7.37017e+06	-50939.1	1005.82	-29754	0.000000	0.000000	6.863063	-0.013236	NaN	0.000000	0.001595	0.001857	28.0806	0.073739	0.002000	36.8695	39.3643	-165.326	0.013210	0.861288	-0.284300	-0.285615	-0.013236	36.8695	-0.284030	-2714.46	4.876184E-6	NaN
523	1.000000	0.872651	7.37017e+06	-50939.1	1005.82	-29754	0.000000	0.000000	6.873112	0.019597	NaN	0.000000	0.001590	0.001849	28.0808	0.054020	0.001960	27.5565	123.624	17.5592	0.028385	0.871286	-0.274252	-0.275617	0.019597	27.5565	-0.274785	-1968.57	-9.954705E-6	NaN
523	1.000000	0.882672	7.37017e+06	-50939.1	1005.82	-29754	0.000000	0.000000	6.883127	-0.105492	NaN	0.000000	0.001573	0.001872	28.0808	0.031755	0.002030	15.6468	83.9872	-162.996	-0.011566	0.881360	-0.264231	-0.265543	-0.105492	15.6468	-0.259175	-1138.32	9.267384E-5	NaN
523	1.000000	0.892629	7.37017e+06	-50939.1	1005.82	-29754	0.000000	0.000000	6.893086	-0.063004	NaN	0.000000	0.001582	0.001824	28.0807	0.028940	0.002104	13.7519	-156.911	13.5	-0.029506	0.891309	-0.254274	-0.255594	-0.063004	13.7519	-0.250838	-847.076	7.437824E-5	NaN
523	1.000000	0.902671	7.37017e+06	-50939.1	1005.82	-29754	0.000000	0.000000	6.903133	0.063637	NaN	0.000000	0.001588	0.001840	28.081	0.062449	0.002082	29.992	-101.038	-167.515	0.086544	0.901342	-0.244232	-0.245561	0.063637	29.992	-0.245824	-708.345	-8.983969E-5	NaN
523	1.000000	0.912659	7.37017e+06	-50939.1	1005.82	-29754	0.000000	0.000000	6.913120	0.025761	NaN	0.000000	0.001614	0.001837	28.0811	0.038255	0.001906	20.076	-138.841	13.4489	-0.008208	0.911245	-0.234244	-0.235658	0.025761	20.076	-0.235207	-483.606	-5.326792E-5	NaN
523	1.000000	0.922667	7.37017e+06	-50939.1	1005.82	-29754	0.000000	0.000000	6.923126	-0.035213	NaN	0.000000	0.001604	0.001846	28.0804	0.068173	0.002045	33.334	106.466	-165.243	-0.009176	0.921366	-0.224236	-0.225537	-0.035213	33.334	-0.223444	-315.203	0.000112	NaN
523	1.000000	0.932653	7.37017e+06	-50939.1	1005.82	-29754	0.000000	0.000000	6.933113	-0.006507	NaN	0.000000	0.001569	0.001854	28.0817	0.088547	0.002039	43.4216	85.4736	14.0217	-0.038063	0.931262	-0.214250	-0.215641	-0.006507	43.4216	-0.214137	-223.681	2.908998E-5	NaN
523	1.000000	0.942687	7.37017e+06	-50939.1	1005.82	-29754	0.000000	0.000000	6.943147	-0.000185	NaN	0.000000	0.001573	0.001850	28.0819	0.087362	0.002050	42.6235	-102.467	-165.717	-0.066181	0.941343	-0.204216	-0.205560	-0.000185	42.6235	-0.204213	-154.424	1.196675E-6	NaN
523	1.000000	0.952692	7.37017e+06	-50939.1	1005.82	-29754	0.000000	0.000000	6.953152	-0.000329	NaN	0.000000	0.001590	0.001855	28.0816	0.073685	0.002043	36.0625	-176.373	12.0122	-0.045188	0.951354	-0.194211	-0.195550	-0.000329	36.0625	-0.194204	-105.684	3.110475E-6	NaN
523	1.000000	0.962652	7.37017e+06	-50939.1	1005.82	-29754	0.000000	0.000000	6.963112	0.003099	NaN	0.000000	0.001572	0.001801	28.0818	0.130928	0.002078	62.9968	-161.941	-163.935	-0.015454	0.961376	-0.184251	-0.185527	0.003099	62.9968	-0.184288	-72.1321	-4.295858E-5	NaN
523	1.000000	0.972682	7.37017e+06	-50939.1	1005.82	-29754	0.000000	0.000000	6.973140	-0.039988	NaN	0.000000	0.001602	0.001818	28.0817	0.023842	0.001926	12.3782	74.3798	18.5732	0.021910	0.971309	-0.174221	-0.175594	-0.039988	12.3782	-0.171799	-44.1354	0.000906	NaN
523	1.000000	0.982685	7.37017e+06	-50939.1	1005.82	-29754	0.000000	0.000000	6.983142	-0.062395	NaN	0.000000	0.001675	0.001828	28.0817	0.014278	0.001908	7.484124	90.6775	-166.193	-0.032268	0.981395	-0.164218	-0.165508	-0.062395	7.484124	-0.157965	-25.2198	0.002474	NaN
523	1.000000	0.992708	7.37017e+06	-50939.1	1005.82	-29754	0.000000	0.000000	6.993168	-0.009787	NaN	0.000000	0.001640	0.001831	28.0817	0.112958	0.002008	56.2597	33.4805	12.3898	-0.077700	0.991306	-0.154195	-0.155598	-0.009787	56.2597	-0.154064	-21.4646	0.000456	NaN
523	1.000000	1.002673	7.37017e+06	-50939.1	1005.82	-29754	0.000000	0.000000	7.003133	0.004717	NaN	0.000000	0.001631	0.001837	28.0816	0.051774	0.001958	26.4358	123.236	-165.862	-0.043245	1.001392	-0.144230	-0.145511	0.004717	26.4358	-0.144364	-14.2686	-0.000331	NaN
523	1.000000	1.012704	7.37017e+06	-50939.1	1005.82	-29754	0.000000	0.000000	7.013161	-0.072401	NaN	0.000000	0.001606	0.001816	28.0817	0.079742	0.001975	40.372	133.016	8.974347	0.005679	1.011309	-0.134199	-0.135594	-0.072401	40.372	-0.132854	-8.653006	0.008367	NaN
523	1.000000	1.022704	7.37017e+06	-50939.1	1005.82	-29754	0.000000	0.000000	7.023163	-0.013073	NaN	0.000000	0.001592	0.001862	28.0814	0.056577	0.002010	28.141	178.456	-167.453	0.000835	1.021398	-0.124199	-0.125505	-0.013073	28.141	-0.123850	-5.770292	0.002265	NaN
523	1.000000	1.032707	7.37017e+06	-50939.1	1005.82	-29754	0.000000	0.000000	7.033166	-0.009532	NaN	0.000000	0.001650	0.001843	28.0815	0.115108	0.001875	61.3848	-44.6784	18.955	0.005335	1.031406	-0.114197	-0.115497	-0.009532	61.3848	-0.114080	-3.656822	0.002607	NaN
523	1.000000	1.042682	7.37017e+06	-50939.1	1005.82	-29754	0.000000	0.000000	7.043142	0.011196	NaN	0.000000	0.001599	0.001865	28.0818	0.015362	0.001851	8.299744	29.8383	-168.346	-0.017854	1.041433	-0.104221	-0.105470	0.011196	8.299744	-0.105233	-2.377961	-0.004708	NaN
523	1.000000	1.052706	7.37017e+06	-50939.1	1005.82	-29754	0.000000	0.000000	7.053165	0.003406	NaN	0.000000	0.001606	0.001876	28.0815	0.146024	0.001953	74.7602	-106.808	11.5567	0.008023	1.051350	-0.094198	-0.095554	0.003406	74.7602	-0.094232	-1.354782	-0.002514	NaN
523	1.000000	1.062683	7.37017e+06	-50939.1	1005.82	-29754	0.000000	0.000000	7.063141	-0.048066	NaN	0.000000	0.001621	0.001848	28.0808	0.071141	0.002109	33.7243	-140.744	-166.233	-0.088959	1.061386	-0.084220	-0.085517	-0.048066	33.7243	-0.083151	-0.740730	0.064890	NaN
523	1.000000	1.072699	7.37017e+06	-50939.1	1005.82	-29754	0.000000	0.000000	7.073161	0.069436	NaN	0.000000	0.001615	0.001862	28.0801	0.077908	0.001950	39.9556	-54.6398	12.2585	0.037380	1.071342	-0.074204	-0.075562	0.069436	39.9556	-0.075508	-0.476031	-0.145865	NaN
523	1.000000	1.082711	7.37017e+06	-50939.1	1005.82	-29754	0.000000	0.000000	7.083171	-0.010346	NaN	0.000000	0.001651	0.001867	28.0804	0.087560	0.002013	43.4994	69.7203	-167.063	-0.108109	1.081422	-0.064192	-0.065481	-0.010346	43.4994	-0.064013	-0.233944	0.044226	NaN
523	1.000000	1.092695	7.37017e+06	-50939.1	1005.82	-29754	0.000000	0.000000	7.093156	0.010257	NaN	0.000000	0.001587	0.001862	28.0805	0.070427	0.001903	37.0128	-31.7789	10.9895	-0.000890	1.091300	-0.054208	-0.055604	0.010257	37.0128	-0.054415	-0.123748	-0.082884	NaN
523	1.000000	1.102694	7.37017e+06	-50939.1	1005.82	-29754	0.000000	0.000000	7.103154	-0.000573	NaN	0.000000	0.001628	0.001822	28.0805	0.068802	0.001905	36.1083	-177.01	-167.248	0.016176	1.101417	-0.044209	-0.045486	-0.000573	36.1083	-0.044197	-0.060734	0.009435	NaN
523	1.000000	1.112711	7.37017e+06	-50939.1	1005.82	-29754	0.000000	0.000000	7.113172	0.048256	NaN	0.000000	0.001632	0.001834	28.0804	0.032526	0.002097	15.5138	21.6724	13.8674	0.073984	1.111431	-0.034192	-0.035472	0.048256	15.5138	-0.036525	-0.035538	-1.357889	NaN
523	1.000000	1.122733	7.37017e+06	-50939.1	1005.82	-29754	0.000000	0.000000	7.123192	-0.003664	NaN	0.000000	0.001608	0.001844	28.0806	0.119274	0.001874	63.6498	-76.3568	-167.086	-0.008670	1.121439	-0.024170	-0.025464	-0.003664	63.6498	-0.024127	-0.016011	0.228835	NaN
523	1.000000	1.132758	7.37017e+06	-50939.1	1005.82	-29754	0.000000	0.000000	7.133215	-0.044706	NaN	0.000000	0.001650	0.001864	28.0803	0.024543	0.001820	13.4856	-154.847	10.8353	0.005034	1.131374	-0.014146	-0.015529	-0.044706	13.4856	-0.011659	-0.007334	6.095696	NaN
523	1.000000	1.142739	7.37017e+06	-50939.1	1005.82	-29754	0.000000	0.000000	7.143229	0.732976	NaN	0.000000	0.001621	0.001841	28.0806	1.086998	0.002036	533.919	11.4207	-166.969	0.209214	1.141441	-0.004164	-0.005462	0.732976	533.919	-0.005193	-0.003538	-207.183	NaN
523	2.000000	1.151756	7.37017e+06	-50939.1	1005.82	-29754	0.000000	0.000000	7.152593	9.174291	NaN	0.000000	0.001622	0.001812	28.0805	9.059590	0.001564	5791.98	11.019	3.499208	8.867609	1.151180	0.004853	0.004277	9.174291	5791.98	0.003665	0.002948	3112.54	97470
523	2.000000	1.154239	7.37017e+06	-50939.1	1005.82	-29754	0.000000	0.000000	7.155193	12.0196	NaN	0.000000	0.001616	0.001820	28.0813	12.0821	0.001838	6575.03	7.343894	-173.076	11.2413	1.153963	0.007336	0.007060	12.0196	6575.03	0.005965	0.005031	2388.92	84689
523	2.000000	1.156756	7.37017e+06	-50939.1	1005.82	-29754	0.000000	0.000000	7.157863	15.7453	NaN	0.000000	0.001627	0.001856	28.0804	14.7538	0.001811	8148.71	7.513027	3.877981	14.6781	1.156464	0.009853	0.009561	15.7453	8148.71	0.008404	0.007461	2110.32	86190.9
523	2.000000	1.159205	7.37017e+06	-50939.1	1005.82	-29754	0.000000	0.000000	7.160566	21.9001	NaN	0.000000	0.001648	0.001811	28.0812	17.3141	0.001791	9666.31	7.747120	-177.169	21.201	1.158925	0.012302	0.012022	21.9001	9666.31	0.010603	0.009859	2221.26	88942.8
523	2.000000	1.161681	7.37017e+06	-50939.1	1005.82	-29754	0.000000	0.000000	7.163259	27.1828	NaN	0.000000	0.001596	0.001822	28.0806	21.2157	0.001855	11434	7.939793	0.011284	25.4013	1.161389	0.014778	0.014486	27.1828	11434	0.012995	0.012704	2139.65	92682.2
523	2.000000	1.164207	7.37017e+06	-50939.1	1005.82	-29754	0.000000	0.000000	7.166036	33.2985	NaN	0.000000	0.001563	0.001814	28.0826	23.9987	0.001866	12857.7	10.6082	178.017	33.2617	1.163901	0.017304	0.016997	33.2985	12857.7	0.015361	0.015770	2111.47	93543.9
523	2.000000	1.166695	7.37017e+06	-50939.1	1005.82	-29754	0.000000	0.000000	7.168843	41.0463	NaN	0.000000	0.001559	0.001808	28.0817	26.1381	0.001802	14503.8	7.860678	-0.732157	40.271	1.166294	0.019792	0.019391	41.0463	14503.8	0.017670	0.019012	2158.95	96103.5
523	2.000000	1.169190	7.37017e+06	-50939.1	1005.82	-29754	0.000000	0.000000	7.171679	49.3546	NaN	0.000000	0.001602	0.001791	28.0825	27.8269	0.001639	16977.5	2.925782	-178.595	47.1738	1.168869	0.022287	0.021966	49.3546	16977.5	0.020107	0.022710	2173.24	102929
523	2.000000	1.171699	7.37017e+06	-50939.1	1005.82	-29754	0.000000	0.000000	7.174569	58.6191	NaN	0.000000	0.001624	0.001842	28.0819	32.0094	0.001709	18728.8	7.756445	-3.800438	57.8545	1.171309	0.024796	0.024406	58.6191	18728.8	0.022449	0.026537	2208.95	105041
523	2.000000	1.174138	7.37017e+06	-50939.1	1005.82	-29754	0.000000	0.000000	7.177456	69.5156	NaN	0.000000	0.001620	0.001817	28.0826	34.5121	0.001653	20884.4	2.145025	-179.993	67.1248	1.173880	0.027235	0.026977	69.5156	20884.4	0.024738	0.030541	2276.12	109182
523	2.000000	1.176702	7.37017e+06	-50939.1	1005.82	-29754	0.000000	0.000000	7.180431	79.4983	NaN	0.000000	0.001616	0.001807	28.0819	37.727	0.001790	21073.7	7.845971	-5.043691	78.7488	1.176394	0.029799	0.029491	79.4983	21073.7	0.026970	0.034697	2291.2	103363
523	2.000000	1.179150	7.37017e+06	-50939.1	1005.82	-29754	0.000000	0.000000	7.183355	91.0836	NaN	0.000000	0.001580	0.001832	28.0819	39.3636	0.001743	22588.9	2.882380	179.502	89.4738	1.178846	0.032247	0.031942	91.0836	22588.9	0.029223	0.039148	2326.66	104307
523	2.000000	1.181659	7.37017e+06	-50939.1	1005.82	-29754	0.000000	0.000000	7.186283	101.261	NaN	0.000000	0.001562	0.001798	28.0821	42.7687	0.001927	22198.7	1.861860	0.722479	99.4029	1.181349	0.034756	0.034446	101.261	22198.7	0.031335	0.043556	2324.86	97180.3
523	2.000000	1.184140	7.37017e+06	-50939.1	1005.82	-29754	0.000000	0.000000	7.189198	111.804	NaN	0.000000	0.001561	0.001822	28.0823	44.4176	0.001737	25574.3	2.201316	178.942	110.496	1.183903	0.037237	0.037000	111.804	25574.3	0.033958	0.049348	2265.6	105182
523	2.000000	1.186685	7.37017e+06	-50939.1	1005.82	-29754	0.000000	0.000000	7.192288	125.072	NaN	0.000000	0.001612	0.001803	28.0817	46.8871	0.001721	27249.4	6.383311	-5.628242	124.868	1.186397	0.039782	0.039494	125.072	27249.4	0.036339	0.054910	2277.77	106244
523	2.000000	1.189132	7.37017e+06	-50939.1	1005.82	-29754	0.000000	0.000000	7.195267	138.02	NaN	0.000000	0.001597	0.001818	28.0822	49.0875	0.001758	27927	5.639070	174.951	136.532	1.188794	0.042229	0.041890	138.02	27927	0.038522	0.060264	2290.24	103936
523	2.000000	1.191600	7.37017e+06	-50939.1	1005.82	-29754	0.000000	0.000000	7.198290	151.512	NaN	0.000000	0.001624	0.001824	28.0823	50.1129	0.001740	28803	2.833416	-1.949001	148.023	1.191305	0.044697	0.044401	151.512	28803	0.040752	0.065985	2296.14	102444
523	2.000000	1.194119	7.37017e+06	-50939.1	1005.82	-29754	0.000000	0.000000	7.201114	158.929	NaN	0.000000	0.001578	0.001815	28.0821	53.3708	0.001752	30465.3	2.396185	176.976	157.155	1.193951	0.047216	0.047048	158.929	30465.3	0.043303	0.072843	2181.81	103130
523	2.000000	1.196604	7.37017e+06	-50939.1	1005.82	-29754	0.000000	0.000000	7.204239	174.487	NaN	0.000000	0.001588	0.001836	28.0821	55.6573	0.001732	32128.1	3.842013	-5.191746	168.574	1.196272	0.049701	0.049369	174.487	32128.1	0.045628	0.079380	2198.13	104185
523	2.000000	1.199114	7.37017e+06	-50939.1	1005.82	-29754	0.000000	0.000000	7.207330	188.6	NaN	0.000000	0.001607	0.001842	28.0809	57.6037	0.001788	32220.5	3.943766	175.946	188.252	1.198747	0.052211	0.051843	188.6	32220.5	0.047821	0.085797	2198.21	100501
523	2.000000	1.201599	7.37017e+06	-50939.1	1005.82	-29754	0.000000	0.000000	7.210483	204.849	NaN	0.000000	0.001562	0.001834	28.0806	60.3486	0.001810	33332.8	4.598615	-5.123445	202.828	1.201355	0.054696	0.054452	204.849	33332.8	0.050087	0.092681	2210.25	100034
523	2.000000	1.204131	7.37017e+06	-50939.1	1005.82	-29754	0.000000	0.000000	7.213730	222.253	NaN	0.000000	0.001568	0.001841	28.0808	64.3812	0.001759	36594.6	10.1184	168.187	222.294	1.203818	0.057228	0.056915	222.253	36594.6	0.052673	0.100854	2203.72	105280
523	2.000000	1.206626	7.37017e+06	-50939.1	1005.82	-29754	0.000000	0.000000	7.217018	241.54	NaN	0.000000	0.001584	0.001825	28.0806	65.3765	0.001827	35775.9	6.847416	-8.097156	238.523	1.206301	0.059723	0.059398	241.54	35775.9	0.054659	0.107356	2249.89	99758.4
523	2.000000	1.209048	7.37017e+06	-50939.1	1005.82	-29754	0.000000	0.000000	7.220172	259.336	NaN	0.000000	0.001592	0.001811	28.0809	68.4266	0.001774	38577.7	8.111289	169.862	255.041	1.208821	0.062145	0.061918	259.336	38577.7	0.057103	0.115625	2242.92	103654
523	2.000000	1.211583	7.37017e+06	-50939.1	1005.82	-29754	0.000000	0.000000	7.223614	281.39	NaN	0.000000	0.001578	0.001844	28.0807	70.3972	0.001729	40714.6	3.662261	-5.284342	276.681	1.211225	0.064680	0.064321	281.39	40714.6	0.059496	0.124008	2269.14	105633
523	2.000000	1.214057	7.37017e+06	-50939.1	1005.82	-29754	0.000000	0.000000	7.226654	295.154	NaN	0.000000	0.001564	0.001838	28.081	73.2384	0.001822	40190.8	2.153906	175.469	289.504	1.213729	0.067154	0.066826	295.154	40190.8	0.061646	0.131776	2239.81	101154
523	2.000000	1.216610	7.37017e+06	-50939.1	1005.82	-29754	0.000000	0.000000	7.230099	316.846	NaN	0.000000	0.001578	0.001852	28.0805	75.7074	0.001763	42931.5	7.954162	-11.1466	313.727	1.216300	0.069707	0.069397	316.846	42931.5	0.064172	0.141190	2244.1	104387
523	2.000000	1.219177	7.37017e+06	-50939.1	1005.82	-29754	0.000000	0.000000	7.233222	330.371	NaN	0.000000	0.001629	0.001817	28.0809	78.6157	0.001841	42712.6	6.529533	170.892	332.632	1.218723	0.072274	0.071819	330.371	42712.6	0.066472	0.150035	2201.95	100747
523	2.000000	1.221606	7.37017e+06	-50939.1	1005.82	-29754	0.000000	0.000000	7.236506	351.167	NaN	0.000000	0.001606	0.001823	28.0804	81.5237	0.001775	45934.9	6.567018	-10.5874	346.831	1.221193	0.074702	0.074290	351.167	45934.9	0.068969	0.159919	2195.91	104946
523	2.000000	1.224082	7.37017e+06	-50939.1	1005.82	-29754	0.000000	0.000000	7.239699	368.58	NaN	0.000000	0.001586	0.001863	28.0811	84.4188	0.001795	47023.2	8.044725	169.047	366.843	1.223730	0.077179	0.076827	368.58	47023.2	0.071300	0.169418	2175.56	104377
523	2.000000	1.226602	7.37017e+06	-50939.1	1005.82	-29754	0.000000	0.000000	7.242846	383.83	NaN	0.000000	0.001629	0.001852	28.0807	86.1644	0.001881	45808	7.632132	-11.2216	378.942	1.226260	0.079699	0.079357	383.83	45808	0.073414	0.178254	2153.27	99127.7
523	2.000000	1.229045	7.37017e+06	-50939.1	1005.82	-29754	0.000000	0.000000	7.246360	409.876	NaN	0.000000	0.001618	0.001795	28.0807	87.2627	0.001800	48486.6	3.072596	173.135	406.668	1.228739	0.082142	0.081836	409.876	48486.6	0.075802	0.188485	2174.58	102037
523	2.000000	1.231570	7.37017e+06	-50939.1	1005.82	-29754	0.000000	0.000000	7.249189	417.271	NaN	0.000000	0.001613	0.001813	28.0814	89.6116	0.001798	49836.9	1.133814	-5.431062	413.613	1.231400	0.084667	0.084497	417.271	49836.9	0.078387	0.199870	2087.71	101848
523	2.000000	1.234074	7.37017e+06	-50939.1	1005.82	-29754	0.000000	0.000000	7.252820	444.654	NaN	0.000000	0.001610	0.001842	28.0821	93.2871	0.001862	50098.9	7.690135	168.217	440.622	1.233656	0.087171	0.086753	444.654	50098.9	0.080515	0.209471	2122.75	100009
523	2.000000	1.236617	7.37017e+06	-50939.1	1005.82	-29754	0.000000	0.000000	7.255866	456.907	NaN	0.000000	0.001628	0.001810	28.082	93.5377	0.001756	53271.2	3.596994	-7.658856	452.145	1.236177	0.089714	0.089274	456.907	53271.2	0.083281	0.222270	2055.64	103234
523	2.000000	1.239037	7.37017e+06	-50939.1	1005.82	-29754	0.000000	0.000000	7.259242	480.156	NaN	0.000000	0.001618	0.001837	28.0821	96.2982	0.001825	52764.5	8.308209	167.061	476.719	1.238675	0.092134	0.091772	480.156	52764.5	0.085309	0.231879	2070.72	100112
523	2.000000	1.241487	7.37017e+06	-50939.1	1005.82	-29754	0.000000	0.000000	7.262540	500.766	NaN	0.000000	0.001619	0.001834	28.0818	98.025	0.001751	55979.6	2.446640	-7.597080	491.977	1.241130	0.094584	0.094227	500.766	55979.6	0.087875	0.244308	2049.73	103475
523	2.000000	1.244089	7.37017e+06	-50939.1	1005.82	-29754	0.000000	0.000000	7.265904	519.315	NaN	0.000000	0.001634	0.001794	28.082	102.505	0.001896	54062.9	6.266795	169.306	517.971	1.243722	0.097186	0.096819	519.315	54062.9	0.089981	0.254737	2038.63	97864.8
523	2.000000	1.246524	7.37017e+06	-50939.1	1005.82	-29754	0.000000	0.000000	7.269232	541.01	NaN	0.000000	0.001642	0.001873	28.0821	103.288	0.001828	56498.7	5.488889	-10.1482	536.088	1.246270	0.099621	0.099366	541.01	56498.7	0.092439	0.267163	2025.02	99867.4
523	2.000000	1.248912	7.37017e+06	-50939.1	1005.82	-29754	0.000000	0.000000	7.272346	558.675	NaN	0.000000	0.001627	0.001830	28.0819	104.554	0.001863	56115.2	4.023377	170.88	548.298	1.248578	0.102009	0.101675	558.675	56115.2	0.094542	0.278012	2009.54	97234.9
523	2.000000	1.250152	7.37017e+06	-50939.1	1005.82	-29754	0.000000	0.000000	7.273996	568.643	NaN	0.000000	0.001577	0.001810	28.082	105.577	0.001796	58771.4	3.939139	170.438	569.329	1.249764	0.103248	0.102861	568.643	58771.4	0.095992	0.285613	1990.96	100473