File: remote_trans/data/nanoindenter/0828-1/data/Data_2025-08-06,11h17m57s/2025-07-22_16-23-58_1_452.txt
2025-07-22, 16:23:58, 1
Index	Phase	Displacement	Time	Pos X	Pos Y	Pos Z	Rot A	Rot B	Piezo Z	Force A	Force B	Gripper	Voltage A	Voltage B	Temperature	Amplitude force	Amplitude pos	Stiffness	Phase shift	Phase excitation	Force A raw	Displacement raw	HMax	HMax raw	Real Force	Real Stiffness	Contact Depth	Area	Hardness	Reduced Mod.
[#]	[#]	[um]	[s]	[um]	[um]	[um]	[m°]	[m°]	[um]	[uN]	[uN]	[V]	[V]	[V]	[°C]	[uN]	[um]	[N/m]	[°]	[°]	[uN]	[um]	[um]	[um]	[uN]	[N/m]	[um]	[um^2]	[MPa]	[MPa]
452	1.000000	0.002600	7.36948e+06	-54489.1	1005.82	-29743.5	0.000000	0.000000	6.002803	-0.000503	NaN	0.000000	0.001555	0.001672	28.0801	0.090910	0.001070	84.9359	127.373	-161.422	0.002296	0.001329	-1.090100	-1.091371	-0.000503	84.9359	-1.090096	-3.690582E+14	1.361678E-18	NaN
452	1.000000	0.012658	7.36948e+06	-54489.1	1005.82	-29743.5	0.000000	0.000000	6.012858	-0.063860	NaN	0.000000	0.001577	0.001686	28.0802	0.012857	0.001185	10.8499	-96.5126	13.6792	-0.063550	0.011227	-1.080042	-1.081473	-0.063860	10.8499	-1.075628	-2.359356E+14	2.706686E-16	NaN
452	1.000000	0.022530	7.36948e+06	-54489.1	1005.82	-29743.5	0.000000	0.000000	6.022729	-0.086618	NaN	0.000000	0.001536	0.001704	28.08	0.093807	0.001575	59.5438	1.015320	-166.79	-0.053108	0.021215	-1.070170	-1.071485	-0.086618	59.5438	-1.069079	-1.926705E+14	4.495633E-16	NaN
452	1.000000	0.032531	7.36948e+06	-54489.1	1005.82	-29743.5	0.000000	0.000000	6.032731	-0.071301	NaN	0.000000	0.001539	0.001724	28.0799	0.067486	0.002037	33.1256	40.0987	9.086892	0.059005	0.031172	-1.060169	-1.061527	-0.071301	33.1256	-1.058555	-1.391238E+14	5.124989E-16	NaN
452	1.000000	0.042549	7.36948e+06	-54489.1	1005.82	-29743.5	0.000000	0.000000	6.042753	0.016465	NaN	0.000000	0.001571	0.001729	28.0801	0.061810	0.001982	31.1845	-170.344	-166.876	0.020854	0.041277	-1.050150	-1.051423	0.016465	31.1845	-1.050546	-1.085825E+14	-1.516328E-16	NaN
452	1.000000	0.052556	7.36948e+06	-54489.1	1005.82	-29743.5	0.000000	0.000000	6.052758	-0.030084	NaN	0.000000	0.001605	0.001726	28.0799	0.029577	0.001850	15.9913	-22.0652	15.4257	0.020034	0.051201	-1.040143	-1.041499	-0.030084	15.9913	-1.038733	-7.532243E+13	3.993975E-16	NaN
452	1.000000	0.062556	7.36948e+06	-54489.1	1005.82	-29743.5	0.000000	0.000000	6.062757	-0.037742	NaN	0.000000	0.001569	0.001718	28.08	0.083257	0.002036	40.8864	48.189	-168.025	-0.032698	0.061203	-1.030144	-1.031497	-0.037742	40.8864	-1.029452	-5.650753E+13	6.679177E-16	NaN
452	1.000000	0.072558	7.36948e+06	-54489.1	1005.82	-29743.5	0.000000	0.000000	6.072759	-0.032853	NaN	0.000000	0.001556	0.001719	28.0801	0.003035	0.002085	1.455426	128.904	15.013	0.002789	0.071211	-1.020142	-1.021489	-0.032853	1.455426	-1.003213	-2.506245E+13	1.310832E-15	NaN
452	1.000000	0.082551	7.36948e+06	-54489.1	1005.82	-29743.5	0.000000	0.000000	6.082751	-0.075517	NaN	0.000000	0.001569	0.001717	28.0804	0.079191	0.002048	38.6642	-169.689	-162.409	-0.062518	0.081230	-1.010149	-1.011470	-0.075517	38.6642	-1.008684	-2.969444E+13	2.543136E-15	NaN
452	1.000000	0.092546	7.36948e+06	-54489.1	1005.82	-29743.5	0.000000	0.000000	6.092749	0.001917	NaN	0.000000	0.001577	0.001713	28.0808	0.037739	0.001979	19.0725	-109.532	9.601055	-0.011413	0.091143	-1.000154	-1.001557	0.001917	19.0725	-1.000230	-2.284870E+13	-8.392120E-17	NaN
452	1.000000	0.102583	7.36948e+06	-54489.1	1005.82	-29743.5	0.000000	0.000000	6.102789	0.064622	NaN	0.000000	0.001583	0.001716	28.08	0.063419	0.002134	29.7123	-132.327	-165.085	0.105621	0.101272	-0.990117	-0.991427	0.064622	29.7123	-0.991748	-1.756519E+13	-3.678989E-15	NaN
452	1.000000	0.112570	7.36948e+06	-54489.1	1005.82	-29743.5	0.000000	0.000000	6.112773	0.003187	NaN	0.000000	0.001603	0.001785	28.0799	0.027750	0.002053	13.5173	14.5761	12.7001	0.060133	0.111185	-0.980130	-0.981514	0.003187	13.5173	-0.980307	-1.231819E+13	-2.586890E-16	NaN
452	1.000000	0.122564	7.36948e+06	-54489.1	1005.82	-29743.5	0.000000	0.000000	6.122769	0.053304	NaN	0.000000	0.001568	0.001763	28.0803	0.074028	0.001929	38.3832	69.0283	-166.759	0.049045	0.121239	-0.970136	-0.971461	0.053304	38.3832	-0.971178	-9.279731E+12	-5.744105E-15	NaN
452	1.000000	0.132611	7.36948e+06	-54489.1	1005.82	-29743.5	0.000000	0.000000	6.132814	-0.002421	NaN	0.000000	0.001579	0.001737	28.0805	0.051305	0.002058	24.9247	-82.0343	15.4481	-0.030395	0.131239	-0.960089	-0.961461	-0.002421	24.9247	-0.960016	-6.562818E+12	3.689565E-16	NaN
452	1.000000	0.142578	7.36948e+06	-54489.1	1005.82	-29743.5	0.000000	0.000000	6.142781	-0.009169	NaN	0.000000	0.001607	0.001760	28.0812	0.159720	0.001967	81.1851	-151.129	-166.112	0.070023	0.141293	-0.950121	-0.951407	-0.009169	81.1851	-0.950037	-4.814189E+12	1.904671E-15	NaN
452	1.000000	0.152601	7.36948e+06	-54489.1	1005.82	-29743.5	0.000000	0.000000	6.152803	-0.026739	NaN	0.000000	0.001628	0.001737	28.0812	0.043838	0.002144	20.4483	105.781	13.8397	-0.039293	0.151188	-0.940099	-0.941512	-0.026739	20.4483	-0.939118	-3.429539E+12	7.796537E-15	NaN
452	1.000000	0.162571	7.36948e+06	-54489.1	1005.82	-29743.5	0.000000	0.000000	6.162775	0.023090	NaN	0.000000	0.001584	0.001745	28.0812	0.060437	0.002035	29.6926	141.607	-165.014	-0.037624	0.161251	-0.930129	-0.931448	0.023090	29.6926	-0.930712	-2.641249E+12	-8.741978E-15	NaN
452	1.000000	0.172600	7.36948e+06	-54489.1	1005.82	-29743.5	0.000000	0.000000	6.172801	-0.039387	NaN	0.000000	0.001611	0.001738	28.0811	0.079667	0.001817	43.8469	-0.458572	13.5133	-0.029172	0.171265	-0.920100	-0.921435	-0.039387	43.8469	-0.919426	-1.859773E+12	2.117856E-14	NaN
452	1.000000	0.182580	7.36948e+06	-54489.1	1005.82	-29743.5	0.000000	0.000000	6.182785	0.039481	NaN	0.000000	0.001578	0.001738	28.0811	0.065597	0.001945	33.7308	176.176	-167.009	0.044352	0.181275	-0.910119	-0.911425	0.039481	33.7308	-0.910997	-1.430978E+12	-2.759022E-14	NaN
452	1.000000	0.192596	7.36948e+06	-54489.1	1005.82	-29743.5	0.000000	0.000000	6.192800	0.012845	NaN	0.000000	0.001583	0.001720	28.0813	0.079324	0.001876	42.2787	-49.0984	13.1878	0.010715	0.191216	-0.900104	-0.901484	0.012845	42.2787	-0.900332	-1.026953E+12	-1.250783E-14	NaN
452	1.000000	0.202614	7.36948e+06	-54489.1	1005.82	-29743.5	0.000000	0.000000	6.202813	-0.097836	NaN	0.000000	0.001582	0.001714	28.081	0.065404	0.002030	32.2141	-16.2798	-165.867	-0.052701	0.201239	-0.890086	-0.891461	-0.097836	32.2141	-0.887808	-6.954824E+11	1.406730E-13	NaN
452	1.000000	0.212630	7.36948e+06	-54489.1	1005.82	-29743.5	0.000000	0.000000	6.212834	0.016189	NaN	0.000000	0.001566	0.001777	28.0812	0.087921	0.002127	41.3334	33.9751	8.913064	0.037134	0.211286	-0.880070	-0.881414	0.016189	41.3334	-0.880364	-5.516035E+11	-2.934838E-14	NaN
452	1.000000	0.222623	7.36948e+06	-54489.1	1005.82	-29743.5	0.000000	0.000000	6.222824	-0.054452	NaN	0.000000	0.001598	0.001741	28.0813	0.023109	0.001950	11.8505	134.015	-167.066	0.055083	0.221281	-0.870077	-0.871419	-0.054452	11.8505	-0.866631	-3.596324E+11	1.514089E-13	NaN
452	1.000000	0.232611	7.36948e+06	-54489.1	1005.82	-29743.5	0.000000	0.000000	6.232813	-0.023412	NaN	0.000000	0.001578	0.001743	28.081	0.033413	0.001996	16.741	-108.567	11.5756	-0.010849	0.231267	-0.860089	-0.861433	-0.023412	16.741	-0.859040	-2.838740E+11	8.247258E-14	NaN
452	1.000000	0.242627	7.36948e+06	-54489.1	1005.82	-29743.5	0.000000	0.000000	6.242828	-0.052368	NaN	0.000000	0.001593	0.001749	28.0807	0.210494	0.002090	100.721	-14.7473	-166.297	-0.006725	0.241320	-0.850073	-0.851380	-0.052368	100.721	-0.849683	-2.120525E+11	2.469565E-13	NaN
452	1.000000	0.252666	7.36948e+06	-54489.1	1005.82	-29743.5	0.000000	0.000000	6.252869	-0.010039	NaN	0.000000	0.001578	0.001726	28.0808	0.026862	0.002023	13.2788	-59.7813	11.9404	-0.007446	0.251251	-0.840034	-0.841449	-0.010039	13.2788	-0.839467	-1.541955E+11	6.510817E-14	NaN
452	1.000000	0.262610	7.36948e+06	-54489.1	1005.82	-29743.5	0.000000	0.000000	6.262810	-0.074867	NaN	0.000000	0.001577	0.001757	28.0811	0.125742	0.002040	61.6319	-114.64	-168.631	-0.084231	0.261360	-0.830090	-0.831340	-0.074867	61.6319	-0.829179	-1.118536E+11	6.693270E-13	NaN
452	1.000000	0.272640	7.36948e+06	-54489.1	1005.82	-29743.5	0.000000	0.000000	6.272842	-0.038332	NaN	0.000000	0.001557	0.001719	28.08	0.061923	0.002078	29.7985	-8.932284	14.0509	0.003995	0.271245	-0.820060	-0.821455	-0.038332	29.7985	-0.819095	-8.164690E+10	4.694818E-13	NaN
452	1.000000	0.282658	7.36948e+06	-54489.1	1005.82	-29743.5	0.000000	0.000000	6.282862	0.007109	NaN	0.000000	0.001569	0.001746	28.0796	0.054404	0.001952	27.8705	-108.469	-164.745	0.025532	0.281316	-0.810042	-0.811384	0.007109	27.8705	-0.810233	-6.190565E+10	-1.148307E-13	NaN
452	1.000000	0.292621	7.36948e+06	-54489.1	1005.82	-29743.5	0.000000	0.000000	6.292824	-0.008389	NaN	0.000000	0.001579	0.001790	28.0798	0.209580	0.002097	99.9586	174.269	10.7927	-0.041393	0.291310	-0.800079	-0.801390	-0.008389	99.9586	-0.800016	-4.498637E+10	1.864808E-13	NaN
452	1.000000	0.302680	7.36948e+06	-54489.1	1005.82	-29743.5	0.000000	0.000000	6.302882	-0.030428	NaN	0.000000	0.001560	0.001766	28.0802	0.127376	0.002130	59.7946	149.362	-166.184	-0.026008	0.301378	-0.790020	-0.791321	-0.030428	59.7946	-0.789638	-3.252131E+10	9.356381E-13	NaN
452	1.000000	0.312634	7.36948e+06	-54489.1	1005.82	-29743.5	0.000000	0.000000	6.312837	0.010540	NaN	0.000000	0.001548	0.001755	28.0798	0.054306	0.002059	26.3738	-84.8211	13.442	0.053658	0.311285	-0.780066	-0.781415	0.010540	26.3738	-0.780366	-2.433336E+10	-4.331525E-13	NaN
452	1.000000	0.322627	7.36948e+06	-54489.1	1005.82	-29743.5	0.000000	0.000000	6.322830	-0.004668	NaN	0.000000	0.001623	0.001789	28.08	0.058983	0.001949	30.2576	-86.3808	-162.348	-0.063459	0.321333	-0.770073	-0.771367	-0.004668	30.2576	-0.769958	-1.756822E+10	2.657015E-13	NaN
452	1.000000	0.332644	7.36948e+06	-54489.1	1005.82	-29743.5	0.000000	0.000000	6.332847	-0.000268	NaN	0.000000	0.001636	0.001779	28.0798	0.019582	0.001966	9.958480	-52.7697	11.4185	-0.019804	0.331257	-0.760056	-0.761443	-0.000268	9.958480	-0.760035	-1.287609E+10	2.084092E-14	NaN
452	1.000000	0.342661	7.36948e+06	-54489.1	1005.82	-29743.5	0.000000	0.000000	6.342865	0.023753	NaN	0.000000	0.001607	0.001738	28.0802	0.031768	0.001956	16.2411	81.0721	-167.222	0.048682	0.341317	-0.750039	-0.751383	0.023753	16.2411	-0.751136	-9.742709E+9	-2.438002E-12	NaN
452	1.000000	0.352677	7.36948e+06	-54489.1	1005.82	-29743.5	0.000000	0.000000	6.352881	0.005677	NaN	0.000000	0.001641	0.001764	28.0798	0.047752	0.001966	24.2922	141.782	12.1047	-0.029370	0.351262	-0.740022	-0.741438	0.005677	24.2922	-0.740198	-6.914304E+9	-8.210247E-13	NaN
452	1.000000	0.362681	7.36948e+06	-54489.1	1005.82	-29743.5	0.000000	0.000000	6.362883	-0.048216	NaN	0.000000	0.001640	0.001709	28.0799	0.053705	0.002028	26.4844	-47.7321	-164.292	-0.035741	0.361374	-0.730018	-0.731326	-0.048216	26.4844	-0.728653	-4.813363E+9	1.001719E-11	NaN
452	1.000000	0.372671	7.36948e+06	-54489.1	1005.82	-29743.5	0.000000	0.000000	6.372875	0.026897	NaN	0.000000	0.001615	0.001753	28.0799	0.057921	0.001939	29.8717	73.9158	12.2473	0.019098	0.371325	-0.720029	-0.721375	0.026897	29.8717	-0.720704	-3.750420E+9	-7.171683E-12	NaN
452	1.000000	0.382692	7.36948e+06	-54489.1	1005.82	-29743.5	0.000000	0.000000	6.382895	-0.014187	NaN	0.000000	0.001691	0.001778	28.0799	0.072398	0.001974	36.6794	150.688	-164.093	-0.022519	0.381388	-0.710008	-0.711312	-0.014187	36.6794	-0.709718	-2.655787E+9	5.341899E-12	NaN
452	1.000000	0.392673	7.36948e+06	-54489.1	1005.82	-29743.5	0.000000	0.000000	6.392875	-0.019385	NaN	0.000000	0.001624	0.001740	28.0799	0.079753	0.001946	40.982	67.2536	14.0545	-0.012182	0.391318	-0.700027	-0.701382	-0.019385	40.982	-0.699672	-1.936682E+9	1.000922E-11	NaN
452	1.000000	0.402689	7.36948e+06	-54489.1	1005.82	-29743.5	0.000000	0.000000	6.402893	0.027373	NaN	0.000000	0.001624	0.001732	28.0799	0.028743	0.001982	14.499	-120.566	-167.064	-0.001221	0.401355	-0.690011	-0.691345	0.027373	14.499	-0.691427	-1.494241E+9	-1.831870E-11	NaN
452	1.000000	0.412694	7.36948e+06	-54489.1	1005.82	-29743.5	0.000000	0.000000	6.412897	-0.009646	NaN	0.000000	0.001622	0.001704	28.0816	0.110537	0.002021	54.7025	-83.41	11.7829	-0.113087	0.411399	-0.680006	-0.681301	-0.009646	54.7025	-0.679873	-1.038661E+9	9.286704E-12	NaN
452	1.000000	0.422716	7.36948e+06	-54489.1	1005.82	-29743.5	0.000000	0.000000	6.422917	-0.059136	NaN	0.000000	0.001599	0.001697	28.0811	0.099732	0.002085	47.8387	-151.305	-167.309	0.041268	0.421442	-0.669984	-0.671257	-0.059136	47.8387	-0.669057	-7.387241E+8	8.005099E-11	NaN
452	1.000000	0.432687	7.36948e+06	-54489.1	1005.82	-29743.5	0.000000	0.000000	6.432890	-0.000744	NaN	0.000000	0.001617	0.001695	28.081	0.069276	0.002000	34.6428	-48.4968	15.7222	-0.046195	0.431339	-0.660013	-0.661361	-0.000744	34.6428	-0.659997	-5.551695E+8	1.339662E-12	NaN
452	1.000000	0.442686	7.36948e+06	-54489.1	1005.82	-29743.5	0.000000	0.000000	6.442889	-0.013354	NaN	0.000000	0.001558	0.001701	28.0812	0.082186	0.002179	37.7236	127.753	-165.169	-0.116986	0.441416	-0.650013	-0.651284	-0.013354	37.7236	-0.649748	-4.017739E+8	3.323704E-11	NaN
452	1.000000	0.452713	7.36948e+06	-54489.1	1005.82	-29743.5	0.000000	0.000000	6.452914	-0.045574	NaN	0.000000	0.001589	0.001735	28.0812	0.102105	0.002038	50.1114	133.857	15.9065	-0.057130	0.451307	-0.639987	-0.641393	-0.045574	50.1114	-0.639305	-2.889061E+8	1.577478E-10	NaN
452	1.000000	0.462732	7.36948e+06	-54489.1	1005.82	-29743.5	0.000000	0.000000	6.462933	-0.052238	NaN	0.000000	0.001557	0.001743	28.0812	0.093124	0.002037	45.7141	89.7281	-165.57	-0.061013	0.461408	-0.629968	-0.631292	-0.052238	45.7141	-0.629111	-2.093189E+8	2.495611E-10	NaN
452	1.000000	0.472736	7.36948e+06	-54489.1	1005.82	-29743.5	0.000000	0.000000	6.472938	-0.047716	NaN	0.000000	0.001535	0.001753	28.0813	0.019664	0.002012	9.773979	42.3943	15.7887	-0.154839	0.471374	-0.619963	-0.621326	-0.047716	9.773979	-0.616302	-1.395707E+8	3.418778E-10	NaN
452	1.000000	0.482728	7.36948e+06	-54489.1	1005.82	-29743.5	0.000000	0.000000	6.482930	-0.015244	NaN	0.000000	0.001538	0.001742	28.0814	0.087805	0.001994	44.042	59.302	-163.474	0.015315	0.481449	-0.609972	-0.611251	-0.015244	44.042	-0.609713	-1.132814E+8	1.345683E-10	NaN
452	1.000000	0.492745	7.36948e+06	-54489.1	1005.82	-29743.5	0.000000	0.000000	6.492948	-0.008748	NaN	0.000000	0.001576	0.001757	28.0814	0.074169	0.002052	36.1428	30.8923	13.0867	-0.035828	0.491373	-0.599955	-0.601327	-0.008748	36.1428	-0.599773	-8.266826E+7	1.058251E-10	NaN
452	1.000000	0.502749	7.36948e+06	-54489.1	1005.82	-29743.5	0.000000	0.000000	6.502951	-0.035369	NaN	0.000000	0.001559	0.001762	28.0813	0.013699	0.002003	6.840238	85.2774	-168.018	-0.000694	0.501436	-0.589951	-0.591264	-0.035369	6.840238	-0.586073	-5.351951E+7	6.608569E-10	NaN
452	1.000000	0.512747	7.36948e+06	-54489.1	1005.82	-29743.5	0.000000	0.000000	6.512948	-0.065915	NaN	0.000000	0.001556	0.001728	28.0814	0.034435	0.002063	16.6909	87.8301	12.9229	-0.106675	0.511386	-0.579953	-0.581313	-0.065915	16.6909	-0.576991	-4.010377E+7	1.643621E-9	NaN
452	1.000000	0.522741	7.36948e+06	-54489.1	1005.82	-29743.5	0.000000	0.000000	6.522944	0.005800	NaN	0.000000	0.001557	0.001765	28.0813	0.071367	0.001975	36.1341	105.723	-166.202	0.002691	0.521434	-0.569959	-0.571266	0.005800	36.1341	-0.570080	-3.219089E+7	-1.801643E-10	NaN
452	1.000000	0.532775	7.36948e+06	-54489.1	1005.82	-29743.5	0.000000	0.000000	6.532979	0.011296	NaN	0.000000	0.001572	0.001751	28.0813	0.075498	0.002080	36.3017	-97.4787	12.7869	0.022251	0.531370	-0.559925	-0.561330	0.011296	36.3017	-0.560158	-2.347288E+7	-4.812274E-10	NaN
452	1.000000	0.542716	7.36948e+06	-54489.1	1005.82	-29743.5	0.000000	0.000000	6.542918	-0.007696	NaN	0.000000	0.001562	0.001760	28.0803	0.035495	0.002086	17.0188	83.5221	-164.701	-0.061290	0.541413	-0.549984	-0.551287	-0.007696	17.0188	-0.549645	-1.678959E+7	4.584060E-10	NaN
452	1.000000	0.552752	7.36948e+06	-54489.1	1005.82	-29743.5	0.000000	0.000000	6.552954	-0.022441	NaN	0.000000	0.001581	0.001735	28.0804	0.090514	0.002060	43.9454	-119.632	14.7126	0.016918	0.551400	-0.539948	-0.541299	-0.022441	43.9454	-0.539565	-1.217084E+7	1.843859E-9	NaN
452	1.000000	0.562764	7.36948e+06	-54489.1	1005.82	-29743.5	0.000000	0.000000	6.562966	-0.041097	NaN	0.000000	0.001546	0.001710	28.0801	0.024970	0.001826	13.6756	-100.499	-163.501	-0.016874	0.561454	-0.529935	-0.531246	-0.041097	13.6756	-0.527682	-8.32478e+06	4.936685E-9	NaN
452	1.000000	0.572791	7.36948e+06	-54489.1	1005.82	-29743.5	0.000000	0.000000	6.572995	0.001929	NaN	0.000000	0.001570	0.001727	28.0802	0.113638	0.001905	59.6375	125.299	13.5739	0.022110	0.571417	-0.519908	-0.521283	0.001929	59.6375	-0.519933	-6.49623e+06	-2.969778E-10	NaN
452	1.000000	0.582766	7.36948e+06	-54489.1	1005.82	-29743.5	0.000000	0.000000	6.582973	0.107439	NaN	0.000000	0.001559	0.001747	28.08	0.048823	0.001857	26.297	55.6826	-163.71	-0.028025	0.581514	-0.509934	-0.511186	0.107439	26.297	-0.512998	-5.202e+06	-2.065342E-8	NaN
452	1.000000	0.592772	7.36948e+06	-54489.1	1005.82	-29743.5	0.000000	0.000000	6.592972	-0.073082	NaN	0.000000	0.001534	0.001720	28.0805	0.081371	0.001977	41.1639	-8.599337	16.196	-0.097764	0.591446	-0.499928	-0.501254	-0.073082	41.1639	-0.498596	-3.27665e+06	2.230396E-8	NaN
452	1.000000	0.602782	7.36948e+06	-54489.1	1005.82	-29743.5	0.000000	0.000000	6.602984	-0.048270	NaN	0.000000	0.001558	0.001688	28.0802	0.091903	0.002055	44.7264	-102.5	-166.432	0.021457	0.601527	-0.489917	-0.491173	-0.048270	44.7264	-0.489108	-2.41505e+06	1.998695E-8	NaN
452	1.000000	0.612754	7.36948e+06	-54489.1	1005.82	-29743.5	0.000000	0.000000	6.612958	0.033568	NaN	0.000000	0.001549	0.001702	28.0801	0.054966	0.002037	26.9875	-94.9063	14.256	-0.030566	0.611480	-0.479946	-0.481220	0.033568	26.9875	-0.480879	-1.85282e+06	-1.811749E-8	NaN
452	1.000000	0.622765	7.36948e+06	-54489.1	1005.82	-29743.5	0.000000	0.000000	6.622969	0.017997	NaN	0.000000	0.001587	0.001774	28.0802	0.108699	0.002037	53.3737	-66.4201	-162.274	-0.060862	0.621528	-0.469935	-0.471172	0.017997	53.3737	-0.470188	-1.31232e+06	-1.371382E-8	NaN
452	1.000000	0.632800	7.36948e+06	-54489.1	1005.82	-29743.5	0.000000	0.000000	6.633001	-0.052227	NaN	0.000000	0.001592	0.001775	28.0803	0.120036	0.001996	60.1489	-0.390114	14.512	-0.044485	0.631421	-0.459900	-0.461278	-0.052227	60.1489	-0.459249	-921433	5.668051E-8	NaN
452	1.000000	0.642809	7.36948e+06	-54489.1	1005.82	-29743.5	0.000000	0.000000	6.643009	-0.077363	NaN	0.000000	0.001559	0.001789	28.0801	0.060116	0.002042	29.4365	120.485	-167.797	-0.087263	0.641497	-0.449891	-0.451203	-0.077363	29.4365	-0.447919	-638317	1.211992E-7	NaN
452	1.000000	0.652783	7.36948e+06	-54489.1	1005.82	-29743.5	0.000000	0.000000	6.652984	-0.042820	NaN	0.000000	0.001537	0.001800	28.0801	0.064026	0.002055	31.1523	-44.0917	12.4862	-0.082284	0.651423	-0.439917	-0.441277	-0.042820	31.1523	-0.438886	-476037	8.995119E-8	NaN
452	1.000000	0.662790	7.36948e+06	-54489.1	1005.82	-29743.5	0.000000	0.000000	6.662995	0.032582	NaN	0.000000	0.001589	0.001750	28.0802	0.038726	0.001981	19.5492	108.062	-168.247	0.028119	0.661539	-0.429909	-0.431161	0.032582	19.5492	-0.431159	-370221	-8.800572E-8	NaN
452	1.000000	0.672829	7.36948e+06	-54489.1	1005.82	-29743.5	0.000000	0.000000	6.673029	-0.066271	NaN	0.000000	0.001528	0.001732	28.0799	0.076671	0.001909	40.1733	75.8251	13.9381	-0.116457	0.671435	-0.419871	-0.421265	-0.066271	40.1733	-0.418634	-246058	2.693322E-7	NaN
452	1.000000	0.682839	7.36948e+06	-54489.1	1005.82	-29743.5	0.000000	0.000000	6.683043	0.016454	NaN	0.000000	0.001562	0.001743	28.0814	0.078109	0.001941	40.2428	169.315	-168.147	0.041171	0.681445	-0.409861	-0.411255	0.016454	40.2428	-0.410167	-186543	-8.820264E-8	NaN
452	1.000000	0.692808	7.36948e+06	-54489.1	1005.82	-29743.5	0.000000	0.000000	6.693011	0.004986	NaN	0.000000	0.001556	0.001752	28.0813	0.048866	0.001957	24.9716	-21.7727	10.8123	0.022980	0.691435	-0.399892	-0.401265	0.004986	24.9716	-0.400042	-133842	-3.725084E-8	NaN
452	1.000000	0.702826	7.36948e+06	-54489.1	1005.82	-29743.5	0.000000	0.000000	6.703029	-0.017832	NaN	0.000000	0.001544	0.001772	28.0816	0.075258	0.001949	38.623	-157.746	-163.492	-0.022658	0.701503	-0.389873	-0.391196	-0.017832	38.623	-0.389527	-94711.3	1.882746E-7	NaN
452	1.000000	0.712844	7.36948e+06	-54489.1	1005.82	-29743.5	0.000000	0.000000	6.713048	0.022231	NaN	0.000000	0.001551	0.001778	28.0812	0.068155	0.002070	32.933	59.3366	14.8525	-0.024157	0.711441	-0.379856	-0.381259	0.022231	32.933	-0.380362	-69998.8	-3.175875E-7	NaN
452	1.000000	0.722824	7.36948e+06	-54489.1	1005.82	-29743.5	0.000000	0.000000	6.723027	0.015854	NaN	0.000000	0.001559	0.001786	28.0815	0.033479	0.001898	17.6434	-107.538	-171.033	0.077728	0.721493	-0.369876	-0.371207	0.015854	17.6434	-0.370550	-50588.4	-3.133842E-7	NaN
452	1.000000	0.732860	7.36948e+06	-54489.1	1005.82	-29743.5	0.000000	0.000000	6.733061	-0.038423	NaN	0.000000	0.001605	0.001738	28.0814	0.059930	0.001944	30.8357	65.6242	10.5596	-0.001681	0.731502	-0.359840	-0.361198	-0.038423	30.8357	-0.358906	-34357.8	1.118322E-6	NaN
452	1.000000	0.742851	7.36948e+06	-54489.1	1005.82	-29743.5	0.000000	0.000000	6.743053	-0.029646	NaN	0.000000	0.001578	0.001779	28.0816	0.084876	0.001951	43.4976	14.5788	-162.876	-0.023372	0.741555	-0.349849	-0.351144	-0.029646	43.4976	-0.349338	-24968.4	1.187349E-6	NaN
452	1.000000	0.752834	7.36948e+06	-54489.1	1005.82	-29743.5	0.000000	0.000000	6.753036	-0.026866	NaN	0.000000	0.001568	0.001801	28.0812	0.090151	0.002132	42.2848	168.849	13.9824	0.067085	0.751474	-0.339866	-0.341226	-0.026866	42.2848	-0.339389	-17891.5	1.501612E-6	NaN
452	1.000000	0.762821	7.36948e+06	-54489.1	1005.82	-29743.5	0.000000	0.000000	6.763027	0.063160	NaN	0.000000	0.001559	0.001774	28.0817	0.063642	0.001925	33.0626	-165.274	-166.619	0.094984	0.761514	-0.329879	-0.331186	0.063160	33.0626	-0.331312	-13634.9	-4.632211E-6	NaN
452	1.000000	0.772848	7.36948e+06	-54489.1	1005.82	-29743.5	0.000000	0.000000	6.773050	-0.039091	NaN	0.000000	0.001561	0.001748	28.0814	0.010515	0.002007	5.240268	137.859	14.5399	0.038881	0.771526	-0.319851	-0.321174	-0.039091	5.240268	-0.314257	-7655.52	5.106264E-6	NaN
452	1.000000	0.782858	7.36948e+06	-54489.1	1005.82	-29743.5	0.000000	0.000000	6.783063	0.051145	NaN	0.000000	0.001548	0.001756	28.0815	0.058674	0.001994	29.431	134.369	-165.435	0.030018	0.781571	-0.309842	-0.311128	0.051145	29.431	-0.311145	-6886.53	-7.426774E-6	NaN
452	1.000000	0.792866	7.36948e+06	-54489.1	1005.82	-29743.5	0.000000	0.000000	6.793070	0.000783	NaN	0.000000	0.001552	0.001792	28.0813	0.036687	0.001991	18.4231	-9.619261	13.7118	0.009835	0.791487	-0.299833	-0.301213	0.000783	18.4231	-0.299865	-4684.15	-1.670694E-7	NaN
452	1.000000	0.802853	7.36948e+06	-54489.1	1005.82	-29743.5	0.000000	0.000000	6.803057	0.020174	NaN	0.000000	0.001553	0.001782	28.0817	0.094894	0.002007	47.2908	-178.4	-165.115	0.000369	0.801521	-0.289847	-0.291178	0.020174	47.2908	-0.290167	-3355.81	-6.011768E-6	NaN
452	1.000000	0.812881	7.36948e+06	-54489.1	1005.82	-29743.5	0.000000	0.000000	6.813084	-0.014960	NaN	0.000000	0.001595	0.001786	28.0815	0.043430	0.001944	22.3414	81.5635	12.9502	0.023010	0.811552	-0.279819	-0.281148	-0.014960	22.3414	-0.279317	-2304.93	6.490564E-6	NaN
452	1.000000	0.822844	7.36948e+06	-54489.1	1005.82	-29743.5	0.000000	0.000000	6.823047	-0.005991	NaN	0.000000	0.001556	0.001755	28.0834	0.040657	0.001975	20.5861	130.198	-164.147	-0.109381	0.821532	-0.269856	-0.271168	-0.005991	20.5861	-0.269638	-1644.51	3.642935E-6	NaN
452	1.000000	0.832866	7.36948e+06	-54489.1	1005.82	-29743.5	0.000000	0.000000	6.833069	0.005162	NaN	0.000000	0.001639	0.001761	28.081	0.049862	0.001945	25.6418	97.0936	17.6542	-0.009358	0.831439	-0.259834	-0.261260	0.005162	25.6418	-0.259985	-1171.34	-4.406667E-6	NaN
452	1.000000	0.842889	7.36948e+06	-54489.1	1005.82	-29743.5	0.000000	0.000000	6.843095	0.075356	NaN	0.000000	0.001660	0.001750	28.0805	0.041607	0.002068	20.1239	160.869	-166.037	-0.014426	0.841594	-0.249811	-0.251106	0.075356	20.1239	-0.252620	-902.47	-8.349984E-5	NaN
452	1.000000	0.852874	7.36948e+06	-54489.1	1005.82	-29743.5	0.000000	0.000000	6.853078	0.025994	NaN	0.000000	0.001661	0.001765	28.0801	0.065148	0.002086	31.2331	113.618	16.7393	0.021095	0.851539	-0.239826	-0.241161	0.025994	31.2331	-0.240450	-584.225	-4.449330E-5	NaN
452	1.000000	0.862873	7.36948e+06	-54489.1	1005.82	-29743.5	0.000000	0.000000	6.863077	0.024785	NaN	0.000000	0.001653	0.001789	28.0801	0.066655	0.001920	34.7153	1.232299	-165.915	-0.078618	0.861556	-0.229827	-0.231144	0.024785	34.7153	-0.230363	-405.737	-6.108587E-5	NaN
452	1.000000	0.872876	7.36948e+06	-54489.1	1005.82	-29743.5	0.000000	0.000000	6.873081	0.036377	NaN	0.000000	0.001656	0.001755	28.0799	0.048390	0.002118	22.8435	140.235	11.3702	0.069480	0.871560	-0.219823	-0.221140	0.036377	22.8435	-0.221018	-288.357	-0.000126	NaN
452	1.000000	0.882885	7.36948e+06	-54489.1	1005.82	-29743.5	0.000000	0.000000	6.883088	-0.007226	NaN	0.000000	0.001614	0.001817	28.0798	0.163840	0.001934	84.6956	147.815	-164.895	0.035568	0.881589	-0.209815	-0.211111	-0.007226	84.6956	-0.209751	-190.014	3.802767E-5	NaN
452	1.000000	0.892875	7.36948e+06	-54489.1	1005.82	-29743.5	0.000000	0.000000	6.893076	-0.048546	NaN	0.000000	0.001651	0.001746	28.08	0.053498	0.001942	27.5514	-101.184	13.6458	-0.024739	0.891558	-0.199825	-0.201141	-0.048546	27.5514	-0.198503	-124.471	0.000390	NaN
452	1.000000	0.902891	7.36948e+06	-54489.1	1005.82	-29743.5	0.000000	0.000000	6.903093	-0.026295	NaN	0.000000	0.001664	0.001757	28.0805	0.044221	0.002110	20.956	162.454	-169.021	0.017681	0.901633	-0.189809	-0.191067	-0.026295	20.956	-0.188868	-86.1177	0.000305	NaN
452	1.000000	0.912893	7.36948e+06	-54489.1	1005.82	-29743.5	0.000000	0.000000	6.913096	-0.000757	NaN	0.000000	0.001653	0.001780	28.0798	0.057123	0.001992	28.6784	-42.8328	15.2267	0.025609	0.911571	-0.179807	-0.181129	-0.000757	28.6784	-0.179787	-60.5129	1.251183E-5	NaN
452	1.000000	0.922946	7.36948e+06	-54489.1	1005.82	-29743.5	0.000000	0.000000	6.923149	-0.013814	NaN	0.000000	0.001660	0.001793	28.0798	0.072180	0.001951	37.0053	119.099	-165.076	0.018616	0.921565	-0.169754	-0.171135	-0.013814	37.0053	-0.169474	-40.2228	0.000343	NaN
452	1.000000	0.932925	7.36948e+06	-54489.1	1005.82	-29743.5	0.000000	0.000000	6.933129	0.009010	NaN	0.000000	0.001700	0.001795	28.0801	0.057562	0.002000	28.781	94.7213	14.7328	-0.002776	0.931584	-0.159775	-0.161115	0.009010	28.781	-0.160010	-27.4255	-0.000329	NaN
452	1.000000	0.942904	7.36948e+06	-54489.1	1005.82	-29743.5	0.000000	0.000000	6.943106	-0.019957	NaN	0.000000	0.001652	0.001776	28.0801	0.052537	0.001969	26.6828	94.4053	-163.901	0.004694	0.941604	-0.149796	-0.151096	-0.019957	26.6828	-0.149235	-17.5402	0.001138	NaN
452	1.000000	0.952926	7.36948e+06	-54489.1	1005.82	-29743.5	0.000000	0.000000	6.953128	-0.034771	NaN	0.000000	0.001648	0.001784	28.0809	0.059275	0.002027	29.2432	82.5179	16.29	-0.088187	0.951535	-0.139773	-0.141165	-0.034771	29.2432	-0.138882	-11.27	0.003085	NaN
452	1.000000	0.962967	7.36948e+06	-54489.1	1005.82	-29743.5	0.000000	0.000000	6.963171	0.022855	NaN	0.000000	0.001659	0.001769	28.0811	0.075902	0.001978	38.3806	-120.64	-166.137	0.041530	0.961637	-0.129733	-0.131063	0.022855	38.3806	-0.130179	-7.682373	-0.002975	NaN
452	1.000000	0.972966	7.36948e+06	-54489.1	1005.82	-29743.5	0.000000	0.000000	6.973167	-0.049274	NaN	0.000000	0.001669	0.001789	28.0813	0.024819	0.001885	13.1686	-8.438903	14.3128	-0.048648	0.971560	-0.119734	-0.121139	-0.049274	13.1686	-0.116928	-4.184817	0.011774	NaN
452	1.000000	0.982925	7.36948e+06	-54489.1	1005.82	-29743.5	0.000000	0.000000	6.983127	-0.019718	NaN	0.000000	0.001642	0.001769	28.081	0.023997	0.002009	11.9468	117.047	-171.043	-0.153681	0.981633	-0.109775	-0.111067	-0.019718	11.9468	-0.108537	-2.798520	0.007046	NaN
452	1.000000	0.992921	7.36948e+06	-54489.1	1005.82	-29743.5	0.000000	0.000000	6.993125	0.025982	NaN	0.000000	0.001672	0.001795	28.0811	0.053929	0.002036	26.4926	-140.307	15.2328	-0.022519	0.991572	-0.099779	-0.101128	0.025982	26.4926	-0.100515	-1.875700	-0.013852	NaN
452	1.000000	1.002946	7.36948e+06	-54489.1	1005.82	-29743.5	0.000000	0.000000	7.003149	0.012978	NaN	0.000000	0.001660	0.001772	28.0812	0.016127	0.002068	7.799813	-114.568	-168.054	0.016573	1.001599	-0.089754	-0.091101	0.012978	7.799813	-0.091002	-1.140936	-0.011375	NaN
452	1.000000	1.012959	7.36948e+06	-54489.1	1005.82	-29743.5	0.000000	0.000000	7.013163	0.015134	NaN	0.000000	0.001677	0.001738	28.0813	0.132114	0.002081	63.4858	-141.655	13.4174	-0.028922	1.011556	-0.079740	-0.081144	0.015134	63.4858	-0.079919	-0.616119	-0.024563	NaN
452	1.000000	1.022935	7.36948e+06	-54489.1	1005.82	-29743.5	0.000000	0.000000	7.023134	-0.100219	NaN	0.000000	0.001636	0.001749	28.0812	0.094718	0.001935	48.947	159.146	-165.659	-0.071082	1.021644	-0.069765	-0.071056	-0.100219	48.947	-0.068229	-0.305599	0.327943	NaN
452	1.000000	1.032923	7.36948e+06	-54489.1	1005.82	-29743.5	0.000000	0.000000	7.033126	0.005167	NaN	0.000000	0.001644	0.001759	28.0814	0.047167	0.002140	22.0455	-50.6257	14.4322	0.014735	1.031629	-0.059777	-0.061071	0.005167	22.0455	-0.059953	-0.179536	-0.028782	NaN
452	1.000000	1.042952	7.36948e+06	-54489.1	1005.82	-29743.5	0.000000	0.000000	7.043151	-0.096784	NaN	0.000000	0.001625	0.001793	28.0814	0.051391	0.001910	26.9097	-34.5401	-165.018	-0.116888	1.041668	-0.049748	-0.051032	-0.096784	26.9097	-0.047050	-0.074238	1.303704	NaN
452	1.000000	1.052951	7.36948e+06	-54489.1	1005.82	-29743.5	0.000000	0.000000	7.053154	-0.012053	NaN	0.000000	0.001633	0.001759	28.0814	0.049736	0.001996	24.9189	-147.125	17.1296	0.031323	1.051576	-0.039749	-0.041124	-0.012053	24.9189	-0.039386	-0.043324	0.278209	NaN
452	1.000000	1.062990	7.36948e+06	-54489.1	1005.82	-29743.5	0.000000	0.000000	7.063191	-0.051761	NaN	0.000000	0.001645	0.001781	28.0811	0.044922	0.002039	22.0339	-36.9581	-165.074	-0.016087	1.061714	-0.029710	-0.030985	-0.051761	22.0339	-0.027948	-0.020209	2.561226	NaN
452	1.000000	1.072971	7.36948e+06	-54489.1	1005.82	-29743.5	0.000000	0.000000	7.073174	0.007852	NaN	0.000000	0.001654	0.001785	28.0817	0.126400	0.001994	63.3845	-173.232	12.6722	0.100371	1.071604	-0.019729	-0.021096	0.007852	63.3845	-0.019822	-0.012431	-0.631675	NaN
452	1.000000	1.083002	7.36948e+06	-54489.1	1005.82	-29743.5	0.000000	0.000000	7.083206	0.009996	NaN	0.000000	0.001667	0.001741	28.0813	0.064977	0.001976	32.8782	83.7912	-165.34	0.006770	1.081643	-0.009697	-0.011057	0.009996	32.8782	-0.009925	-0.006345	-1.575560	NaN
452	1.000000	1.092992	7.36948e+06	-54489.1	1005.82	-29743.5	0.000000	0.000000	7.093208	0.309568	NaN	0.000000	0.001642	0.001769	28.0801	0.645223	0.001979	326.115	14.6845	10.4611	0.069645	1.091619	0.000292	-0.001081	0.309568	326.115	-0.000420	-0.000311	-994.897	NaN
452	2.000000	1.101654	7.36948e+06	-54489.1	1005.82	-29743.5	0.000000	0.000000	7.102177	7.764624	NaN	0.000000	0.001662	0.001769	28.08	8.454730	0.001636	5167.9	11.4607	-174.503	8.254740	1.101281	0.008954	0.008581	7.764624	5167.9	0.007827	0.006865	1131	56984.7
452	2.000000	1.104161	7.36948e+06	-54489.1	1005.82	-29743.5	0.000000	0.000000	7.104833	11.3917	NaN	0.000000	0.001716	0.001793	28.0807	11.6339	0.001796	6478.36	7.585825	7.431557	11.4101	1.103804	0.011461	0.011104	11.3917	6478.36	0.010142	0.009340	1219.68	61244.5
452	2.000000	1.106588	7.36948e+06	-54489.1	1005.82	-29743.5	0.000000	0.000000	7.107380	14.3087	NaN	0.000000	0.001657	0.001768	28.0801	14.3873	0.001657	8682.97	2.306716	-172.667	13.112	1.106276	0.013888	0.013576	14.3087	8682.97	0.012652	0.012281	1165.12	71585.8
452	2.000000	1.109130	7.36948e+06	-54489.1	1005.82	-29743.5	0.000000	0.000000	7.110098	18.578	NaN	0.000000	0.001646	0.001794	28.08	16.5104	0.001682	9815.28	4.243626	5.956720	17.2509	1.108776	0.016430	0.016076	18.578	9815.28	0.015011	0.015300	1214.25	72498.8
452	2.000000	1.111606	7.36948e+06	-54489.1	1005.82	-29743.5	0.000000	0.000000	7.112771	23.3833	NaN	0.000000	0.001696	0.001817	28.0801	19.0988	0.001737	10995	4.752547	-175.89	22.3206	1.111196	0.018906	0.018496	23.3833	10995	0.017311	0.018491	1264.57	73873.4
452	2.000000	1.114063	7.36948e+06	-54489.1	1005.82	-29743.5	0.000000	0.000000	7.115432	28.3297	NaN	0.000000	0.001737	0.001795	28.0808	21.4889	0.001698	12657.9	3.277583	3.935977	25.2887	1.113669	0.021364	0.020970	28.3297	12657.9	0.019685	0.022050	1284.81	77881.1
452	2.000000	1.116582	7.36948e+06	-54489.1	1005.82	-29743.5	0.000000	0.000000	7.118227	35.0662	NaN	0.000000	0.001751	0.001761	28.0801	24.9924	0.001692	14773.5	8.501591	176.697	33.7392	1.116269	0.023882	0.023570	35.0662	14773.5	0.022101	0.025953	1351.16	83784.9
452	2.000000	1.119101	7.36948e+06	-54489.1	1005.82	-29743.5	0.000000	0.000000	7.120994	41.0696	NaN	0.000000	0.001688	0.001748	28.0803	26.1657	0.001634	16018.2	5.000388	0.863152	39.3288	1.118704	0.026401	0.026004	41.0696	16018.2	0.024478	0.030074	1365.63	84390.4
452	2.000000	1.121551	7.36948e+06	-54489.1	1005.82	-29743.5	0.000000	0.000000	7.123651	46.1261	NaN	0.000000	0.001664	0.001742	28.0801	29.6331	0.001771	16733.3	8.022570	176.937	45.1086	1.121205	0.028851	0.028505	46.1261	16733.3	0.026784	0.034341	1343.2	82499.2
452	2.000000	1.124093	7.36948e+06	-54489.1	1005.82	-29743.5	0.000000	0.000000	7.126540	54.5446	NaN	0.000000	0.001724	0.001768	28.0813	31.7663	0.001732	18344.4	7.736109	-3.531061	53.6189	1.123716	0.031393	0.031016	54.5446	18344.4	0.029163	0.039027	1397.61	84838.8
452	2.000000	1.126482	7.36948e+06	-54489.1	1005.82	-29743.5	0.000000	0.000000	7.129168	60.3502	NaN	0.000000	0.001621	0.001807	28.08	34.831	0.001859	18733.2	5.302094	178.6	56.2823	1.126281	0.033782	0.033581	60.3502	18733.2	0.031366	0.043623	1383.45	81945.9
452	2.000000	1.129095	7.36948e+06	-54489.1	1005.82	-29743.5	0.000000	0.000000	7.132189	70.2809	NaN	0.000000	0.001719	0.001743	28.0811	36.5483	0.001791	20407.3	7.028244	-3.664479	68.6238	1.128715	0.036395	0.036015	70.2809	20407.3	0.033812	0.049016	1433.82	84214.9
452	2.000000	1.131551	7.36948e+06	-54489.1	1005.82	-29743.5	0.000000	0.000000	7.134885	76.1087	NaN	0.000000	0.001682	0.001793	28.0801	39.0502	0.001784	21892	7.756071	175.039	75.7641	1.131203	0.038851	0.038503	76.1087	21892	0.036243	0.054681	1391.87	85534.3
452	2.000000	1.134021	7.36948e+06	-54489.1	1005.82	-29743.5	0.000000	0.000000	7.137706	84.6411	NaN	0.000000	0.001687	0.001779	28.0827	41.4487	0.001789	23164.9	3.672330	-1.352352	82.2179	1.133754	0.041321	0.041054	84.6411	23164.9	0.038581	0.060413	1401.05	86107.1
452	2.000000	1.136523	7.36948e+06	-54489.1	1005.82	-29743.5	0.000000	0.000000	7.140564	93.3058	NaN	0.000000	0.001686	0.001786	28.0812	44.3548	0.001768	25083.9	6.119051	174.815	90.8033	1.136250	0.043823	0.043550	93.3058	25083.9	0.041033	0.066725	1398.36	88720.6
452	2.000000	1.139044	7.36948e+06	-54489.1	1005.82	-29743.5	0.000000	0.000000	7.143551	104.62	NaN	0.000000	0.001688	0.001770	28.0816	45.4421	0.001708	26597.7	5.106101	-3.415871	102.895	1.138671	0.046344	0.045972	104.62	26597.7	0.043394	0.073093	1431.33	89883.3
452	2.000000	1.141547	7.36948e+06	-54489.1	1005.82	-29743.5	0.000000	0.000000	7.146352	111.879	NaN	0.000000	0.001712	0.001765	28.0813	47.6015	0.001704	27932.5	3.957973	176.698	112.277	1.141298	0.048847	0.048598	111.879	27932.5	0.045843	0.079999	1398.5	90227.6
452	2.000000	1.143971	7.36948e+06	-54489.1	1005.82	-29743.5	0.000000	0.000000	7.149432	127.841	NaN	0.000000	0.001665	0.001793	28.0823	50.617	0.001743	29044.7	3.793866	-3.826268	124.652	1.143645	0.051271	0.050945	127.841	29044.7	0.047970	0.086241	1482.38	90361.6
452	2.000000	1.146515	7.36948e+06	-54489.1	1005.82	-29743.5	0.000000	0.000000	7.152310	135.942	NaN	0.000000	0.001672	0.001781	28.0813	53.8952	0.001761	30611.3	8.132080	171.678	133.941	1.146158	0.053815	0.053458	135.942	30611.3	0.050484	0.093916	1447.49	91261
452	2.000000	1.149059	7.36948e+06	-54489.1	1005.82	-29743.5	0.000000	0.000000	7.155360	148.23	NaN	0.000000	0.001648	0.001800	28.0817	55.733	0.001825	30542.7	5.462511	-4.478358	147.552	1.148718	0.056359	0.056018	148.23	30542.7	0.052719	0.101003	1467.59	87803.7
452	2.000000	1.151541	7.36948e+06	-54489.1	1005.82	-29743.5	0.000000	0.000000	7.158150	155.727	NaN	0.000000	0.001639	0.001790	28.0814	58.6271	0.001810	32391.1	7.323185	172.912	156.895	1.151171	0.058841	0.058472	155.727	32391.1	0.055236	0.109280	1425.02	89521.7
452	2.000000	1.153986	7.36948e+06	-54489.1	1005.82	-29743.5	0.000000	0.000000	7.161099	167.986	NaN	0.000000	0.001633	0.001812	28.0816	61.1194	0.001822	33549.2	4.994991	-5.546305	165.619	1.153717	0.061286	0.061018	167.986	33549.2	0.057530	0.117102	1434.54	89572.3
452	2.000000	1.156523	7.36948e+06	-54489.1	1005.82	-29743.5	0.000000	0.000000	7.164062	178.322	NaN	0.000000	0.001656	0.001804	28.0813	63.2546	0.001839	34402.3	4.017506	175.728	179.038	1.156242	0.063824	0.063542	178.322	34402.3	0.059936	0.125579	1420	88695.6
452	2.000000	1.159003	7.36948e+06	-54489.1	1005.82	-29743.5	0.000000	0.000000	7.167138	192.839	NaN	0.000000	0.001722	0.001769	28.0813	65.4119	0.001814	36054.3	9.590901	-9.992727	188.454	1.158644	0.066303	0.065944	192.839	36054.3	0.062291	0.134153	1437.45	89935.5
452	2.000000	1.161532	7.36948e+06	-54489.1	1005.82	-29743.5	0.000000	0.000000	7.170061	202.415	NaN	0.000000	0.001641	0.001802	28.0812	67.4361	0.001817	37107.6	7.869020	171.031	204.429	1.161140	0.068832	0.068440	202.415	37107.6	0.064741	0.143356	1411.98	89542.4
452	2.000000	1.164006	7.36948e+06	-54489.1	1005.82	-29743.5	0.000000	0.000000	7.172931	212.051	NaN	0.000000	0.001744	0.001789	28.0813	67.5087	0.001769	38169.2	0.741364	-2.795442	209.888	1.163765	0.071306	0.071065	212.051	38169.2	0.067139	0.152645	1389.18	89257.5
452	2.000000	1.166502	7.36948e+06	-54489.1	1005.82	-29743.5	0.000000	0.000000	7.175816	221.477	NaN	0.000000	0.001733	0.001754	28.0801	70.897	0.001765	40160.5	3.702060	173.933	219.911	1.166320	0.073802	0.073620	221.477	40160.5	0.069666	0.162733	1360.99	90956.8
452	2.000000	1.168971	7.36949e+06	-54489.1	1005.82	-29743.5	0.000000	0.000000	7.178794	233.851	NaN	0.000000	0.001702	0.001749	28.0802	72.2066	0.001871	38592.9	-0.497852	-0.719917	228.303	1.168730	0.076271	0.076030	233.851	38592.9	0.071727	0.171182	1366.09	85221.8
452	2.000000	1.171556	7.36949e+06	-54489.1	1005.82	-29743.5	0.000000	0.000000	7.181934	247.359	NaN	0.000000	0.001672	0.001775	28.0802	75.8537	0.001812	41861.2	1.654054	175.778	249.84	1.171334	0.078856	0.078634	247.359	41861.2	0.074424	0.182550	1355.02	89514.5
452	2.000000	1.174014	7.36949e+06	-54489.1	1005.82	-29743.5	0.000000	0.000000	7.185179	266.489	NaN	0.000000	0.001698	0.001802	28.08	79.4387	0.001800	44134.1	7.557053	-10.6993	265.244	1.173595	0.081315	0.080896	266.489	44134.1	0.076786	0.192782	1382.33	91836.1
452	2.000000	1.176492	7.36949e+06	-54489.1	1005.82	-29743.5	0.000000	0.000000	7.188120	277.752	NaN	0.000000	0.001675	0.001750	28.08	80.6834	0.001858	43417.8	-0.557879	177.841	275.814	1.176220	0.083792	0.083520	277.752	43417.8	0.078994	0.202586	1371.03	88132.5
452	2.000000	1.179005	7.36949e+06	-54489.1	1005.82	-29743.5	0.000000	0.000000	7.191449	297.596	NaN	0.000000	0.001692	0.001791	28.0803	82.7227	0.001789	46238.9	2.033481	-4.903085	294.238	1.178657	0.086305	0.085957	297.596	46238.9	0.081478	0.213886	1391.37	91346
452	2.000000	1.181513	7.36949e+06	-54489.1	1005.82	-29743.5	0.000000	0.000000	7.194769	317.312	NaN	0.000000	0.001702	0.001794	28.0803	85.4605	0.001814	47105.7	5.158770	171.864	316.372	1.181230	0.088814	0.088530	317.312	47105.7	0.083761	0.224528	1413.24	90826.1
452	2.000000	1.184034	7.36949e+06	-54489.1	1005.82	-29743.5	0.000000	0.000000	7.198153	338.304	NaN	0.000000	0.001722	0.001790	28.0802	88.5936	0.001830	48398.9	7.617184	-10.5892	339.858	1.183599	0.091334	0.090899	338.304	48398.9	0.086092	0.235637	1435.7	91093.5
452	2.000000	1.186527	7.36949e+06	-54489.1	1005.82	-29743.5	0.000000	0.000000	7.201401	356.66	NaN	0.000000	0.001672	0.001815	28.0803	90.8129	0.001788	50795	7.310680	169.659	356.825	1.186067	0.093827	0.093367	356.66	50795	0.088561	0.247681	1439.99	93249.7
452	2.000000	1.188929	7.36949e+06	-54489.1	1005.82	-29743.5	0.000000	0.000000	7.204887	383.007	NaN	0.000000	0.001698	0.001779	28.0805	91.6874	0.001777	51603.1	4.087848	-7.681417	376.642	1.188575	0.096229	0.095875	383.007	51603.1	0.090663	0.258152	1483.65	92792.1
452	2.000000	1.191381	7.36949e+06	-54489.1	1005.82	-29743.5	0.000000	0.000000	7.208015	399.42	NaN	0.000000	0.001682	0.001789	28.0802	93.1979	0.001717	54269.2	2.570165	173.291	394.84	1.191196	0.098682	0.098496	399.42	54269.2	0.093162	0.270868	1474.59	95268.3
452	2.000000	1.193894	7.36949e+06	-54489.1	1005.82	-29743.5	0.000000	0.000000	7.211100	413.361	NaN	0.000000	0.001668	0.001780	28.0801	97.247	0.001704	57055.3	4.615468	-9.091480	408.077	1.193541	0.101194	0.100841	413.361	57055.3	0.095760	0.284391	1453.5	97748.7
452	2.000000	1.196478	7.36949e+06	-54489.1	1005.82	-29743.5	0.000000	0.000000	7.214604	435.713	NaN	0.000000	0.001657	0.001784	28.0801	100.644	0.001743	57748	4.312373	171.112	434.1	1.196187	0.103778	0.103487	435.713	57748	0.098120	0.296939	1467.35	96822.6
452	2.000000	1.198996	7.36949e+06	-54489.1	1005.82	-29743.5	0.000000	0.000000	7.218009	457.265	NaN	0.000000	0.001627	0.001765	28.0801	103.452	0.001924	53782.8	7.314862	-10.9552	453.751	1.198575	0.106297	0.105875	457.265	53782.8	0.099920	0.306683	1491	88730.3
452	2.000000	1.199548	7.36949e+06	-54489.1	1005.82	-29743.5	0.000000	0.000000	7.218492	455.589	NaN	0.000000	0.001638	0.001793	28.0803	103.72	0.001871	55447.2	2.158859	173.92	458.884	1.199227	0.106849	0.106527	455.589	55447.2	0.100686	0.310873	1465.51	90857.5