File: remote_trans/data/nanoindenter/0828-1/data/Data_2025-08-06,11h17m57s/2025-07-22_16-23-58_1_175.txt
2025-07-22, 16:23:58, 1
Index	Phase	Displacement	Time	Pos X	Pos Y	Pos Z	Rot A	Rot B	Piezo Z	Force A	Force B	Gripper	Voltage A	Voltage B	Temperature	Amplitude force	Amplitude pos	Stiffness	Phase shift	Phase excitation	Force A raw	Displacement raw	HMax	HMax raw	Real Force	Real Stiffness	Contact Depth	Area	Hardness	Reduced Mod.
[#]	[#]	[um]	[s]	[um]	[um]	[um]	[m°]	[m°]	[um]	[uN]	[uN]	[V]	[V]	[V]	[°C]	[uN]	[um]	[N/m]	[°]	[°]	[uN]	[um]	[um]	[um]	[uN]	[N/m]	[um]	[um^2]	[MPa]	[MPa]
175	1.000000	0.001953	7.36675e+06	-47389.1	955.819	-29766.5	0.000000	0.000000	6.002795	0.055467	NaN	0.000000	0.001523	0.001680	28.1319	0.086088	0.000975	88.314	126.563	-163.933	-0.046059	0.000681	-1.180447	-1.181720	0.055467	88.314	-1.180918	-6.097790E+15	-9.096278E-18	NaN
175	1.000000	0.011982	7.36675e+06	-47389.1	955.819	-29766.5	0.000000	0.000000	6.012817	-0.085660	NaN	0.000000	0.001516	0.001678	28.0992	0.098810	0.001197	82.5353	-120.937	17.0152	-0.119878	0.010510	-1.170419	-1.171890	-0.085660	82.5353	-1.169641	-4.305955E+15	1.989349E-17	NaN
175	1.000000	0.021920	7.36675e+06	-47389.1	955.819	-29766.5	0.000000	0.000000	6.022760	0.022924	NaN	0.000000	0.001510	0.001712	28.08	0.055275	0.001623	34.0641	134.411	-166.072	-0.037310	0.020558	-1.160481	-1.161842	0.022924	34.0641	-1.160986	-3.296693E+15	-6.953507E-18	NaN
175	1.000000	0.031897	7.36675e+06	-47389.1	955.818	-29766.5	0.000000	0.000000	6.032734	-0.048095	NaN	0.000000	0.001470	0.001721	28.0959	0.110368	0.001839	60.0085	-160.734	16.3178	-0.060262	0.030580	-1.150503	-1.151821	-0.048095	60.0085	-1.149902	-2.341573E+15	2.053965E-17	NaN
175	1.000000	0.041917	7.36675e+06	-47389.1	955.818	-29766.5	0.000000	0.000000	6.042759	0.089044	NaN	0.000000	0.001581	0.001727	28.1305	0.067232	0.002145	31.3388	-54.0749	-164.691	0.139075	0.040626	-1.140484	-1.141775	0.089044	31.3388	-1.142615	-1.869832E+15	-4.762129E-17	NaN
175	1.000000	0.051914	7.36675e+06	-47389.1	955.819	-29766.5	0.000000	0.000000	6.052754	0.028207	NaN	0.000000	0.001588	0.001716	28.0981	0.168299	0.002081	80.8906	0.933341	12.9818	-0.010605	0.050559	-1.130487	-1.131842	0.028207	80.8906	-1.130748	-1.296151E+15	-2.176211E-17	NaN
175	1.000000	0.061930	7.36675e+06	-47389.1	955.818	-29766.5	0.000000	0.000000	6.062770	0.015714	NaN	0.000000	0.001577	0.001687	28.0798	0.061579	0.001961	31.398	-35.2921	-166.496	-0.056915	0.060597	-1.120470	-1.121804	0.015714	31.398	-1.120846	-9.545941E+14	-1.646173E-17	NaN
175	1.000000	0.071918	7.36675e+06	-47389.1	955.818	-29766.5	0.000000	0.000000	6.072760	0.074930	NaN	0.000000	0.001585	0.001663	28.0968	0.082403	0.002012	40.9485	-128.815	14.9267	0.075275	0.070537	-1.110482	-1.111863	0.074930	40.9485	-1.111855	-7.230683E+14	-1.036283E-16	NaN
175	1.000000	0.081908	7.36675e+06	-47389.1	955.819	-29766.5	0.000000	0.000000	6.082747	-0.011902	NaN	0.000000	0.001609	0.001694	28.1318	0.037133	0.001928	19.2581	43.8591	-167.242	0.026329	0.080637	-1.100492	-1.101764	-0.011902	19.2581	-1.100029	-5.017144E+14	2.372212E-17	NaN
175	1.000000	0.091912	7.36675e+06	-47389.1	955.818	-29766.5	0.000000	0.000000	6.092752	0.032161	NaN	0.000000	0.001521	0.001679	28.0994	0.088294	0.001864	47.3737	-137.509	15.2734	0.020440	0.090540	-1.090488	-1.091861	0.032161	47.3737	-1.090998	-3.794953E+14	-8.474735E-17	NaN
175	1.000000	0.101928	7.36675e+06	-47389.1	955.819	-29766.5	0.000000	0.000000	6.102767	0.003364	NaN	0.000000	0.001564	0.001708	28.0789	0.017893	0.001981	9.032914	90.1247	-166.504	-0.045777	0.100611	-1.080472	-1.081790	0.003364	9.032914	-1.080752	-2.764475E+14	-1.216833E-17	NaN
175	1.000000	0.111960	7.36675e+06	-47389.1	955.818	-29766.5	0.000000	0.000000	6.112800	0.034650	NaN	0.000000	0.001535	0.001723	28.0951	0.008521	0.002079	4.098656	-70.5504	16.4721	0.060857	0.110538	-1.070441	-1.071862	0.034650	4.098656	-1.076781	-2.445050E+14	-1.417136E-16	NaN
175	1.000000	0.121945	7.36675e+06	-47389.1	955.819	-29766.5	0.000000	0.000000	6.122782	-0.039875	NaN	0.000000	0.001516	0.001736	28.1287	0.082613	0.001990	41.509	110.948	-165.03	-0.053187	0.120590	-1.060456	-1.061811	-0.039875	41.509	-1.059735	-1.442992E+14	2.763334E-16	NaN
175	1.000000	0.131964	7.36675e+06	-47389.1	955.818	-29766.5	0.000000	0.000000	6.132802	-0.015927	NaN	0.000000	0.001553	0.001724	28.0967	0.092019	0.001897	48.495	34.5804	13.6047	-0.002959	0.130601	-1.050437	-1.051799	-0.015927	48.495	-1.050191	-1.073934E+14	1.483027E-16	NaN
175	1.000000	0.141934	7.36675e+06	-47389.1	955.819	-29766.5	0.000000	0.000000	6.142773	0.009815	NaN	0.000000	0.001530	0.001748	28.0785	0.100816	0.001920	52.5179	-107.823	-167.917	0.096143	0.140668	-1.040466	-1.041732	0.009815	52.5179	-1.040607	-7.982218E+13	-1.229590E-16	NaN
175	1.000000	0.151920	7.36675e+06	-47389.1	955.819	-29766.5	0.000000	0.000000	6.152759	0.005167	NaN	0.000000	0.001520	0.001698	28.0945	0.098321	0.001959	50.1857	100.58	14.8009	0.026370	0.150624	-1.030481	-1.031776	0.005167	50.1857	-1.030558	-5.847751E+13	-8.835074E-17	NaN
175	1.000000	0.161951	7.36675e+06	-47389.1	955.818	-29766.5	0.000000	0.000000	6.162789	-0.012233	NaN	0.000000	0.001551	0.001687	28.1299	0.043383	0.002066	20.9969	26.3454	-165.643	-0.037752	0.160624	-1.020450	-1.021777	-0.012233	20.9969	-1.020013	-4.218211E+13	2.900044E-16	NaN
175	1.000000	0.171976	7.36675e+06	-47389.1	955.819	-29766.5	0.000000	0.000000	6.172814	-0.025617	NaN	0.000000	0.001572	0.001705	28.0977	0.132813	0.002004	66.285	-154.324	14.8109	0.017319	0.170593	-1.010425	-1.011808	-0.025617	66.285	-1.010135	-3.105961E+13	8.247653E-16	NaN
175	1.000000	0.181981	7.36675e+06	-47389.1	955.818	-29766.5	0.000000	0.000000	6.182820	0.007144	NaN	0.000000	0.001535	0.001682	28.0782	0.031915	0.002040	15.6429	-29.2694	-165.065	-0.015185	0.180641	-1.000419	-1.001759	0.007144	15.6429	-1.000762	-2.322881E+13	-3.075617E-16	NaN
175	1.000000	0.191958	7.36675e+06	-47389.1	955.818	-29766.5	0.000000	0.000000	6.192798	0.023769	NaN	0.000000	0.001511	0.001725	28.0926	0.034639	0.001978	17.5143	-0.031046	18.048	0.093811	0.190665	-0.990443	-0.991736	0.023769	17.5143	-0.991461	-1.740946E+13	-1.365321E-15	NaN
175	1.000000	0.201963	7.36675e+06	-47389.1	955.819	-29766.5	0.000000	0.000000	6.202803	0.028002	NaN	0.000000	0.001570	0.001682	28.1293	0.078721	0.002011	39.1545	-30.4389	-165.849	0.093195	0.200667	-0.980437	-0.981734	0.028002	39.1545	-0.980974	-1.257563E+13	-2.226692E-15	NaN
175	1.000000	0.211985	7.36675e+06	-47389.1	955.818	-29766.5	0.000000	0.000000	6.212826	0.052936	NaN	0.000000	0.001548	0.001743	28.0969	0.027662	0.002045	13.5266	47.8056	13.4418	0.100562	0.210588	-0.970416	-0.971813	0.052936	13.5266	-0.973351	-9.927138E+12	-5.332429E-15	NaN
175	1.000000	0.221985	7.36675e+06	-47389.1	955.819	-29766.5	0.000000	0.000000	6.222826	0.054582	NaN	0.000000	0.001571	0.001681	28.0791	0.025741	0.001938	13.2848	11.1553	-165.781	0.066988	0.220669	-0.960415	-0.961732	0.054582	13.2848	-0.963497	-7.311516E+12	-7.465147E-15	NaN
175	1.000000	0.231967	7.36675e+06	-47389.1	955.819	-29766.5	0.000000	0.000000	6.232806	0.017675	NaN	0.000000	0.001526	0.001674	28.0949	0.085260	0.002093	40.7343	166.607	13.5953	0.051654	0.230607	-0.950434	-0.951794	0.017675	40.7343	-0.950760	-4.923462E+12	-3.590027E-15	NaN
175	1.000000	0.241989	7.36675e+06	-47389.1	955.819	-29766.5	0.000000	0.000000	6.242830	0.049644	NaN	0.000000	0.001543	0.001682	28.1302	0.103488	0.001903	54.3759	-141.68	-167.403	0.064719	0.240676	-0.940412	-0.941724	0.049644	54.3759	-0.941097	-3.646964E+12	-1.361246E-14	NaN
175	1.000000	0.252010	7.36675e+06	-47389.1	955.819	-29766.5	0.000000	0.000000	6.252851	0.034624	NaN	0.000000	0.001529	0.001693	28.0987	0.079199	0.002079	38.0954	-98.3932	17.6103	0.091197	0.250682	-0.930390	-0.931719	0.034624	38.0954	-0.931072	-2.670931E+12	-1.296337E-14	NaN
175	1.000000	0.261969	7.36675e+06	-47389.1	955.819	-29766.5	0.000000	0.000000	6.262808	0.011801	NaN	0.000000	0.001543	0.001687	28.0798	0.045180	0.001946	23.222	-8.536673	-168.439	0.034901	0.260669	-0.920432	-0.921731	0.011801	23.222	-0.920813	-1.941704E+12	-6.077901E-15	NaN
175	1.000000	0.271985	7.36675e+06	-47389.1	955.819	-29766.5	0.000000	0.000000	6.272826	0.055351	NaN	0.000000	0.001526	0.001682	28.094	0.039193	0.001989	19.7048	-5.600579	13.5303	-0.063552	0.270654	-0.910416	-0.911747	0.055351	19.7048	-0.912523	-1.500496E+12	-3.688847E-14	NaN
175	1.000000	0.282040	7.36675e+06	-47389.1	955.818	-29766.5	0.000000	0.000000	6.282878	-0.004705	NaN	0.000000	0.001536	0.001672	28.1306	0.019039	0.002040	9.333819	-179.697	-166.787	-0.021994	0.280699	-0.900361	-0.901701	-0.004705	9.333819	-0.899983	-1.015859E+12	4.631869E-15	NaN
175	1.000000	0.291991	7.36675e+06	-47389.1	955.818	-29766.5	0.000000	0.000000	6.292834	0.100108	NaN	0.000000	0.001536	0.001699	28.0989	0.094302	0.001987	47.4692	108.179	13.1639	0.085008	0.290694	-0.890409	-0.891706	0.100108	47.4692	-0.891991	-7.921853E+11	-1.263689E-13	NaN
175	1.000000	0.302026	7.36675e+06	-47389.1	955.818	-29766.5	0.000000	0.000000	6.302865	0.008526	NaN	0.000000	0.001515	0.001689	28.08	0.056493	0.002040	27.6968	-53.6165	-165.573	-0.013964	0.300714	-0.880375	-0.881687	0.008526	27.6968	-0.880605	-5.557719E+11	-1.534000E-14	NaN
175	1.000000	0.312024	7.36675e+06	-47389.1	955.819	-29766.5	0.000000	0.000000	6.312863	0.012600	NaN	0.000000	0.001542	0.001683	28.0949	0.103164	0.001849	55.7918	-174.481	12.6721	-0.112781	0.310681	-0.870377	-0.871720	0.012600	55.7918	-0.870546	-4.062841E+11	-3.101348E-14	NaN
175	1.000000	0.322005	7.36675e+06	-47389.1	955.819	-29766.5	0.000000	0.000000	6.322846	0.059135	NaN	0.000000	0.001530	0.001693	28.1312	0.037295	0.002069	18.0282	80.3408	-166.558	0.074182	0.320734	-0.860396	-0.861666	0.059135	18.0282	-0.862856	-3.197245E+11	-1.849572E-13	NaN
175	1.000000	0.332045	7.36675e+06	-47389.1	955.819	-29766.5	0.000000	0.000000	6.332882	-0.058741	NaN	0.000000	0.001569	0.001660	28.1006	0.080308	0.002135	37.6181	142.209	11.6973	-0.043438	0.330692	-0.850355	-0.851709	-0.058741	37.6181	-0.849184	-2.087805E+11	2.813541E-13	NaN
175	1.000000	0.342033	7.36675e+06	-47389.1	955.818	-29766.5	0.000000	0.000000	6.342873	0.010328	NaN	0.000000	0.001558	0.001683	28.0775	0.088851	0.002173	40.893	0.818714	-166.314	0.030097	0.340712	-0.840367	-0.841689	0.010328	40.893	-0.840557	-1.595265E+11	-6.474407E-14	NaN
175	1.000000	0.352063	7.36675e+06	-47389.1	955.819	-29766.5	0.000000	0.000000	6.352902	0.005200	NaN	0.000000	0.001591	0.001673	28.0944	0.127690	0.001922	66.448	-143.439	14.4276	0.078766	0.350641	-0.830337	-0.831759	0.005200	66.448	-0.830396	-1.161854E+11	-4.476008E-14	NaN
175	1.000000	0.362034	7.36675e+06	-47389.1	955.82	-29766.5	0.000000	0.000000	6.362874	0.006732	NaN	0.000000	0.001569	0.001671	28.1305	0.098682	0.002048	48.1801	-63.739	-163.633	0.047284	0.360692	-0.820366	-0.821709	0.006732	48.1801	-0.820471	-8.523098E+10	-7.899027E-14	NaN
175	1.000000	0.372030	7.36675e+06	-47389.1	955.819	-29766.5	0.000000	0.000000	6.372870	0.016788	NaN	0.000000	0.001580	0.001678	28.0998	0.049492	0.001807	27.3952	-151.144	16.4079	0.083627	0.370726	-0.810370	-0.811675	0.016788	27.3952	-0.810830	-6.307155E+10	-2.661794E-13	NaN
175	1.000000	0.382031	7.36675e+06	-47389.1	955.82	-29766.5	0.000000	0.000000	6.382872	0.058908	NaN	0.000000	0.001544	0.001666	28.0805	0.099117	0.002065	47.9889	157.467	-163.235	-0.016319	0.380764	-0.800370	-0.801637	0.058908	47.9889	-0.801290	-4.681402E+10	-1.258334E-12	NaN
175	1.000000	0.392052	7.36675e+06	-47389.1	955.818	-29766.5	0.000000	0.000000	6.392891	-0.001532	NaN	0.000000	0.001513	0.001731	28.0942	0.065456	0.001833	35.7078	98.2532	16.5151	-0.004374	0.390646	-0.790349	-0.791755	-0.001532	35.7078	-0.790316	-3.321860E+10	4.612235E-14	NaN
175	1.000000	0.402061	7.36675e+06	-47389.1	955.82	-29766.5	0.000000	0.000000	6.402901	0.020572	NaN	0.000000	0.001512	0.001703	28.1302	0.132616	0.001980	66.9927	125.13	-164.707	-0.072136	0.400750	-0.780339	-0.781651	0.020572	66.9927	-0.780570	-2.448919E+10	-8.400286E-13	NaN
175	1.000000	0.412069	7.36675e+06	-47389.1	955.819	-29766.5	0.000000	0.000000	6.412910	0.036082	NaN	0.000000	0.001504	0.001711	28.0999	0.039357	0.002050	19.2007	63.7169	13.7407	0.011827	0.410731	-0.770331	-0.771670	0.036082	19.2007	-0.771741	-1.857685E+10	-1.942289E-12	NaN
175	1.000000	0.422081	7.36675e+06	-47389.1	955.819	-29766.5	0.000000	0.000000	6.422922	0.032970	NaN	0.000000	0.001540	0.001732	28.0792	0.099474	0.002035	48.8793	85.3826	-163.581	0.063799	0.420803	-0.760319	-0.761598	0.032970	48.8793	-0.760825	-1.319861E+10	-2.498010E-12	NaN
175	1.000000	0.432090	7.36675e+06	-47389.1	955.818	-29766.5	0.000000	0.000000	6.432929	0.009084	NaN	0.000000	0.001494	0.001730	28.0929	0.071524	0.002076	34.4585	0.605947	15.8445	0.099753	0.430689	-0.750311	-0.751712	0.009084	34.4585	-0.750508	-9.553034E+9	-9.509054E-13	NaN
175	1.000000	0.442100	7.36675e+06	-47389.1	955.818	-29766.5	0.000000	0.000000	6.442939	0.022064	NaN	0.000000	0.001519	0.001715	28.129	0.093272	0.001994	46.7804	148.064	-165.581	0.007586	0.440769	-0.740301	-0.741632	0.022064	46.7804	-0.740655	-7.014107E+9	-3.145595E-12	NaN
175	1.000000	0.452085	7.36675e+06	-47389.1	955.818	-29766.5	0.000000	0.000000	6.452926	0.040880	NaN	0.000000	0.001524	0.001695	28.0991	0.052529	0.002057	25.534	-109.432	13.8779	0.046806	0.450753	-0.730315	-0.731648	0.040880	25.534	-0.731516	-5.265853E+9	-7.763274E-12	NaN
175	1.000000	0.462081	7.36675e+06	-47389.1	955.819	-29766.5	0.000000	0.000000	6.462921	0.028919	NaN	0.000000	0.001530	0.001720	28.0797	0.129355	0.002051	63.0826	100.948	-166.746	-0.020317	0.460801	-0.720320	-0.721600	0.028919	63.0826	-0.720664	-3.745632E+9	-7.720790E-12	NaN
175	1.000000	0.472071	7.36675e+06	-47389.1	955.818	-29766.5	0.000000	0.000000	6.472911	0.019306	NaN	0.000000	0.001516	0.001674	28.0931	0.085260	0.001924	44.3193	-178.723	14.6205	0.034365	0.470750	-0.710329	-0.711650	0.019306	44.3193	-0.710656	-2.735290E+9	-7.058097E-12	NaN
175	1.000000	0.482080	7.36675e+06	-47389.1	955.82	-29766.5	0.000000	0.000000	6.482919	0.006855	NaN	0.000000	0.001548	0.001731	28.1305	0.068895	0.001972	34.9289	90.5199	-165.734	-0.002748	0.480797	-0.700321	-0.701603	0.006855	34.9289	-0.700468	-1.985728E+9	-3.452065E-12	NaN
175	1.000000	0.492066	7.36675e+06	-47389.1	955.818	-29766.5	0.000000	0.000000	6.492905	0.018686	NaN	0.000000	0.001525	0.001717	28.0999	0.086385	0.002037	42.4031	11.5615	13.4369	-0.011924	0.490719	-0.690335	-0.691681	0.018686	42.4031	-0.690665	-1.458855E+9	-1.280888E-11	NaN
175	1.000000	0.502091	7.36675e+06	-47389.1	955.819	-29766.5	0.000000	0.000000	6.502930	0.025755	NaN	0.000000	0.001541	0.001709	28.078	0.018031	0.001924	9.371003	48.5549	-163.712	0.022644	0.500807	-0.680310	-0.681593	0.025755	9.371003	-0.682371	-1.123660E+9	-2.292084E-11	NaN
175	1.000000	0.512119	7.36675e+06	-47389.1	955.819	-29766.5	0.000000	0.000000	6.512960	0.042469	NaN	0.000000	0.001539	0.001702	28.0914	0.031439	0.002060	15.2611	32.0843	12.6716	0.124387	0.510731	-0.670281	-0.671670	0.042469	15.2611	-0.672368	-8.199822E+8	-5.179220E-11	NaN
175	1.000000	0.522117	7.36675e+06	-47389.1	955.818	-29766.5	0.000000	0.000000	6.522958	0.051668	NaN	0.000000	0.001527	0.001739	28.1295	0.077291	0.001926	40.1355	-88.3763	-166.506	-0.040100	0.520821	-0.660284	-0.661580	0.051668	40.1355	-0.661249	-5.775405E+8	-8.946272E-11	NaN
175	1.000000	0.532109	7.36675e+06	-47389.1	955.819	-29766.5	0.000000	0.000000	6.532950	0.038015	NaN	0.000000	0.001542	0.001707	28.1002	0.058514	0.002119	27.6148	-93.6053	11.2292	0.007663	0.530732	-0.650291	-0.651668	0.038015	27.6148	-0.651324	-4.222632E+8	-9.002621E-11	NaN
175	1.000000	0.542135	7.36675e+06	-47389.1	955.819	-29766.5	0.000000	0.000000	6.542973	-0.013448	NaN	0.000000	0.001549	0.001689	28.0805	0.068356	0.002093	32.657	-111.449	-164.386	0.027040	0.540872	-0.640266	-0.641529	-0.013448	32.657	-0.639957	-2.949168E+8	4.560047E-11	NaN
175	1.000000	0.552151	7.36675e+06	-47389.1	955.819	-29766.5	0.000000	0.000000	6.552989	-0.015392	NaN	0.000000	0.001535	0.001699	28.0944	0.024975	0.001906	13.1009	166.261	19.359	-0.048810	0.550740	-0.630250	-0.631661	-0.015392	13.1009	-0.629369	-2.110363E+8	7.293427E-11	NaN
175	1.000000	0.562116	7.36675e+06	-47389.1	955.82	-29766.5	0.000000	0.000000	6.562955	0.003215	NaN	0.000000	0.001543	0.001687	28.1312	0.119498	0.001938	61.6604	36.9027	-163.474	0.035028	0.560771	-0.620284	-0.621630	0.003215	61.6604	-0.620323	-1.585173E+8	-2.028370E-11	NaN
175	1.000000	0.572131	7.36675e+06	-47389.1	955.819	-29766.5	0.000000	0.000000	6.572970	0.022231	NaN	0.000000	0.001514	0.001679	28.1015	0.091732	0.002040	44.9657	174.73	15.1921	-0.036382	0.570768	-0.610270	-0.611633	0.022231	44.9657	-0.610641	-1.166625E+8	-1.905605E-10	NaN
175	1.000000	0.582134	7.36675e+06	-47389.1	955.819	-29766.5	0.000000	0.000000	6.582973	0.024611	NaN	0.000000	0.001528	0.001662	28.0799	0.055116	0.002042	26.9908	53.3492	-165.315	-0.017432	0.580831	-0.600267	-0.601570	0.024611	26.9908	-0.600951	-8.581353E+7	-2.868019E-10	NaN
175	1.000000	0.592154	7.36675e+06	-47389.1	955.818	-29766.5	0.000000	0.000000	6.592994	0.016141	NaN	0.000000	0.001549	0.001673	28.0933	0.034622	0.002037	16.9936	-71.0573	13.9014	0.024321	0.590797	-0.590246	-0.591604	0.016141	16.9936	-0.590959	-6.250023E+7	-2.582516E-10	NaN
175	1.000000	0.602151	7.36675e+06	-47389.1	955.819	-29766.5	0.000000	0.000000	6.602989	-0.008274	NaN	0.000000	0.001554	0.001669	28.1301	0.040115	0.001848	21.7083	-13.1674	-165.959	0.007532	0.600843	-0.580250	-0.581558	-0.008274	21.7083	-0.579964	-4.407845E+7	1.877041E-10	NaN
175	1.000000	0.612137	7.36675e+06	-47389.1	955.818	-29766.5	0.000000	0.000000	6.612977	0.030124	NaN	0.000000	0.001533	0.001685	28.1014	0.139965	0.001961	71.381	-155.283	13.4071	-0.024894	0.610828	-0.570264	-0.571573	0.030124	71.381	-0.570580	-3.270781E+7	-9.209991E-10	NaN
175	1.000000	0.622162	7.36675e+06	-47389.1	955.82	-29766.5	0.000000	0.000000	6.623002	0.019279	NaN	0.000000	0.001542	0.001731	28.0815	0.114002	0.002053	55.5168	171.861	-164.009	0.071850	0.620824	-0.560238	-0.561577	0.019279	55.5168	-0.560499	-2.372881E+7	-8.124834E-10	NaN
175	1.000000	0.632162	7.36675e+06	-47389.1	955.819	-29766.5	0.000000	0.000000	6.633000	-0.033240	NaN	0.000000	0.001561	0.001700	28.0949	0.099844	0.002026	49.2835	-140.675	15.7289	-0.068765	0.630803	-0.550238	-0.551597	-0.033240	49.2835	-0.549732	-1.683636E+7	1.974283E-9	NaN
175	1.000000	0.642172	7.36675e+06	-47389.1	955.818	-29766.5	0.000000	0.000000	6.643013	0.049747	NaN	0.000000	0.001575	0.001713	28.1311	0.042695	0.002089	20.4425	92.5864	-165.057	0.080056	0.640856	-0.540228	-0.541544	0.049747	20.4425	-0.542053	-1.317749E+7	-3.775114E-9	NaN
175	1.000000	0.652149	7.36675e+06	-47389.1	955.818	-29766.5	0.000000	0.000000	6.652990	0.052701	NaN	0.000000	0.001580	0.001701	28.103	0.097643	0.002084	46.8623	149.576	17.5576	0.048590	0.650805	-0.530252	-0.531596	0.052701	46.8623	-0.531095	-9.28507e+06	-5.675864E-9	NaN
175	1.000000	0.662193	7.36675e+06	-47389.1	955.818	-29766.5	0.000000	0.000000	6.663034	0.038569	NaN	0.000000	0.001552	0.001724	28.0804	0.063819	0.002081	30.6647	30.9513	-166.392	-0.018291	0.660872	-0.520207	-0.521529	0.038569	30.6647	-0.521151	-6.75459e+06	-5.710023E-9	NaN
175	1.000000	0.672194	7.36675e+06	-47389.1	955.819	-29766.5	0.000000	0.000000	6.673036	0.059585	NaN	0.000000	0.001545	0.001719	28.0922	0.046444	0.001935	23.9974	-65.9462	14.8633	0.079818	0.670805	-0.510206	-0.511596	0.059585	23.9974	-0.512068	-5.04919e+06	-1.180093E-8	NaN
175	1.000000	0.682169	7.36675e+06	-47389.1	955.818	-29766.5	0.000000	0.000000	6.683009	0.027761	NaN	0.000000	0.001551	0.001658	28.1289	0.091490	0.002027	45.1359	47.1532	-165.094	0.023557	0.680846	-0.500232	-0.501555	0.027761	45.1359	-0.500693	-3.50498e+06	-7.920503E-9	NaN
175	1.000000	0.692204	7.36675e+06	-47389.1	955.819	-29766.5	0.000000	0.000000	6.693045	0.055123	NaN	0.000000	0.001521	0.001763	28.1	0.064854	0.001964	33.0168	-173.225	13.3862	-0.011590	0.690880	-0.490197	-0.491521	0.055123	33.0168	-0.491449	-2.604e+06	-2.116854E-8	NaN
175	1.000000	0.702173	7.36675e+06	-47389.1	955.818	-29766.5	0.000000	0.000000	6.703014	0.060637	NaN	0.000000	0.001575	0.001756	28.0794	0.029504	0.002109	13.9924	123.739	-164.015	0.071537	0.700921	-0.480228	-0.481480	0.060637	13.9924	-0.483478	-2.01464e+06	-3.009823E-8	NaN
175	1.000000	0.712190	7.36675e+06	-47389.1	955.819	-29766.5	0.000000	0.000000	6.713029	-0.008811	NaN	0.000000	0.001554	0.001735	28.0922	0.067102	0.002006	33.4522	-125.144	14.6108	-0.020928	0.710836	-0.470210	-0.471565	-0.008811	33.4522	-0.470013	-1.30493e+06	6.751849E-9	NaN
175	1.000000	0.722193	7.36675e+06	-47389.1	955.819	-29766.5	0.000000	0.000000	6.723032	0.017146	NaN	0.000000	0.001539	0.001729	28.13	0.035333	0.002060	17.1488	-167.811	-166.862	0.057170	0.720877	-0.460208	-0.461524	0.017146	17.1488	-0.460958	-973808	-1.760687E-8	NaN
175	1.000000	0.732168	7.36675e+06	-47389.1	955.819	-29766.5	0.000000	0.000000	6.733006	-0.023224	NaN	0.000000	0.001564	0.001750	28.1011	0.091279	0.002029	44.9962	87.1791	10.0793	-0.044933	0.730881	-0.450232	-0.451520	-0.023224	44.9962	-0.449845	-679460	3.418011E-8	NaN
175	1.000000	0.742202	7.36675e+06	-47389.1	955.818	-29766.5	0.000000	0.000000	6.743040	-0.004194	NaN	0.000000	0.001481	0.001739	28.0783	0.008760	0.001960	4.468359	-89.0934	-161.277	0.059489	0.740836	-0.440199	-0.441564	-0.004194	4.468359	-0.439495	-485556	8.636832E-9	NaN
175	1.000000	0.752209	7.36675e+06	-47389.1	955.819	-29766.5	0.000000	0.000000	6.753047	-0.024446	NaN	0.000000	0.001556	0.001740	28.0915	0.042666	0.001865	22.8764	155.593	16.695	0.005795	0.750866	-0.430191	-0.431535	-0.024446	22.8764	-0.429390	-349487	6.994841E-8	NaN
175	1.000000	0.762215	7.36675e+06	-47389.1	955.818	-29766.5	0.000000	0.000000	6.763056	0.047532	NaN	0.000000	0.001549	0.001733	28.1286	0.051634	0.002001	25.798	126.136	-165.76	0.012747	0.760888	-0.420186	-0.421513	0.047532	25.798	-0.421567	-270796	-1.755278E-7	NaN
175	1.000000	0.772218	7.36675e+06	-47389.1	955.819	-29766.5	0.000000	0.000000	6.773059	0.049739	NaN	0.000000	0.001547	0.001715	28.1001	0.110132	0.001959	56.2085	94.4752	14.3111	0.088474	0.770863	-0.410183	-0.411538	0.049739	56.2085	-0.410846	-190736	-2.607758E-7	NaN
175	1.000000	0.782204	7.36675e+06	-47389.1	955.818	-29766.5	0.000000	0.000000	6.783044	0.025194	NaN	0.000000	0.001517	0.001697	28.0799	0.048593	0.001996	24.3429	144.372	-162.83	0.090878	0.780930	-0.400196	-0.401471	0.025194	24.3429	-0.400972	-137994	-1.825761E-7	NaN
175	1.000000	0.792213	7.36675e+06	-47389.1	955.819	-29766.5	0.000000	0.000000	6.793054	0.037771	NaN	0.000000	0.001522	0.001709	28.0923	0.093490	0.001986	47.0739	83.376	14.7313	0.038533	0.790905	-0.390187	-0.391496	0.037771	47.0739	-0.390789	-98730.8	-3.825701E-7	NaN
175	1.000000	0.802222	7.36675e+06	-47389.1	955.818	-29766.5	0.000000	0.000000	6.803060	-0.040070	NaN	0.000000	0.001551	0.001711	28.1302	0.107682	0.002114	50.9418	90.2819	-166.527	-0.052687	0.800987	-0.380178	-0.381414	-0.040070	50.9418	-0.379588	-68230.9	5.872714E-7	NaN
175	1.000000	0.812255	7.36675e+06	-47389.1	955.819	-29766.5	0.000000	0.000000	6.813095	0.031356	NaN	0.000000	0.001555	0.001731	28.1026	0.032468	0.002115	15.3494	84.3097	12.7251	0.034103	0.810841	-0.370145	-0.371560	0.031356	15.3494	-0.371677	-52514.4	-5.970855E-7	NaN
175	1.000000	0.822210	7.36675e+06	-47389.1	955.819	-29766.5	0.000000	0.000000	6.823051	0.056936	NaN	0.000000	0.001524	0.001719	28.0807	0.037367	0.001976	18.9137	-126.218	-165.457	0.085118	0.820917	-0.360191	-0.361484	0.056936	18.9137	-0.362449	-38656.6	-1.472865E-6	NaN
175	1.000000	0.832227	7.36675e+06	-47389.1	955.818	-29766.5	0.000000	0.000000	6.833063	-0.057934	NaN	0.000000	0.001543	0.001710	28.0909	0.104580	0.001941	53.8767	71.7659	10.4497	-0.019310	0.830912	-0.350174	-0.351488	-0.057934	53.8767	-0.349367	-24993	2.318031E-6	NaN
175	1.000000	0.842243	7.36675e+06	-47389.1	955.818	-29766.5	0.000000	0.000000	6.843082	0.021388	NaN	0.000000	0.001534	0.001691	28.1298	0.016843	0.002096	8.035336	50.8678	-164.427	0.069037	0.840928	-0.340158	-0.341473	0.021388	8.035336	-0.342154	-19631.1	-1.089523E-6	NaN
175	1.000000	0.852266	7.36675e+06	-47389.1	955.818	-29766.5	0.000000	0.000000	6.853104	-0.012229	NaN	0.000000	0.001541	0.001744	28.102	0.015277	0.001938	7.884603	154.282	16.2137	-0.024196	0.850900	-0.330134	-0.331500	-0.012229	7.884603	-0.328971	-12600.3	9.704968E-7	NaN
175	1.000000	0.862247	7.36675e+06	-47389.1	955.819	-29766.5	0.000000	0.000000	6.863084	-0.042280	NaN	0.000000	0.001543	0.001710	28.0803	0.091134	0.002016	45.2153	83.8988	-161.973	0.010588	0.860905	-0.320153	-0.321496	-0.042280	45.2153	-0.319452	-9132.17	4.629767E-6	NaN
175	1.000000	0.872240	7.36675e+06	-47389.1	955.818	-29766.5	0.000000	0.000000	6.873078	-0.013330	NaN	0.000000	0.001536	0.001718	28.093	0.103633	0.002005	51.6861	-82.6387	13.109	-0.043612	0.870881	-0.310160	-0.311519	-0.013330	51.6861	-0.309967	-6615.58	2.014928E-6	NaN
175	1.000000	0.882256	7.36675e+06	-47389.1	955.818	-29766.5	0.000000	0.000000	6.883097	0.067301	NaN	0.000000	0.001531	0.001711	28.1308	0.041233	0.001931	21.3582	-51.5481	-165.009	0.068600	0.880927	-0.300145	-0.301474	0.067301	21.3582	-0.302508	-5127.99	-1.312430E-5	NaN
175	1.000000	0.892280	7.36675e+06	-47389.1	955.818	-29766.5	0.000000	0.000000	6.893120	0.026423	NaN	0.000000	0.001585	0.001710	28.1035	0.014180	0.001970	7.199298	80.7455	14.2074	0.018268	0.890904	-0.290121	-0.291496	0.026423	7.199298	-0.292873	-3683.92	-7.172542E-6	NaN
175	1.000000	0.902268	7.36675e+06	-47389.1	955.817	-29766.5	0.000000	0.000000	6.903111	0.087761	NaN	0.000000	0.001560	0.001672	28.0797	0.087187	0.002037	42.799	-52.1541	-170.383	0.117832	0.900938	-0.280132	-0.281463	0.087761	42.799	-0.281670	-2501.22	-3.508715E-5	NaN
175	1.000000	0.912286	7.36675e+06	-47389.1	955.819	-29766.5	0.000000	0.000000	6.913127	0.046343	NaN	0.000000	0.001570	0.001712	28.093	0.069483	0.002137	32.5072	105.957	14.4158	0.014494	0.910880	-0.270115	-0.271521	0.046343	32.5072	-0.271184	-1735.94	-2.669630E-5	NaN
175	1.000000	0.922242	7.36675e+06	-47389.1	955.818	-29766.5	0.000000	0.000000	6.923081	-0.006954	NaN	0.000000	0.001568	0.001716	28.1299	0.153550	0.001832	83.8284	3.685279	-162.93	-0.000426	0.920948	-0.260159	-0.261453	-0.006954	83.8284	-0.260096	-1175.96	5.913140E-6	NaN
175	1.000000	0.932297	7.36675e+06	-47389.1	955.818	-29766.5	0.000000	0.000000	6.933136	-0.001527	NaN	0.000000	0.001572	0.001717	28.1028	0.018139	0.001847	9.820371	101.183	14.2983	0.083908	0.930946	-0.250103	-0.251455	-0.001527	9.820371	-0.249987	-821.79	1.858055E-6	NaN
175	1.000000	0.942326	7.36675e+06	-47389.1	955.819	-29766.5	0.000000	0.000000	6.943165	0.011860	NaN	0.000000	0.001563	0.001715	28.0792	0.047593	0.002069	23.0028	-5.754396	-165.544	0.010288	0.941002	-0.240075	-0.241398	0.011860	23.0028	-0.240462	-584.469	-2.029269E-5	NaN
175	1.000000	0.952281	7.36675e+06	-47389.1	955.819	-29766.5	0.000000	0.000000	6.953120	0.014854	NaN	0.000000	0.001568	0.001666	28.0922	0.100801	0.001901	53.027	-71.5434	17.6174	-0.005068	0.950968	-0.230120	-0.231432	0.014854	53.027	-0.230330	-405.249	-3.665411E-5	NaN
175	1.000000	0.962290	7.36675e+06	-47389.1	955.818	-29766.5	0.000000	0.000000	6.963131	0.038037	NaN	0.000000	0.001540	0.001717	28.1296	0.029123	0.002013	14.466	-1.495507	-163.34	0.057502	0.961054	-0.220110	-0.221347	0.038037	14.466	-0.222082	-299.855	-0.000127	NaN
175	1.000000	0.972301	7.36675e+06	-47389.1	955.818	-29766.5	0.000000	0.000000	6.973140	0.011113	NaN	0.000000	0.001556	0.001706	28.103	0.039929	0.001898	21.0347	83.6645	11.3397	0.078201	0.970900	-0.210100	-0.211501	0.011113	21.0347	-0.210496	-195.366	-5.688389E-5	NaN
175	1.000000	0.982325	7.36675e+06	-47389.1	955.818	-29766.5	0.000000	0.000000	6.983164	0.006412	NaN	0.000000	0.001551	0.001711	28.0787	0.032371	0.001940	16.6841	15.3977	-168.164	0.027731	0.980975	-0.200076	-0.201426	0.006412	16.6841	-0.200364	-133.56	-4.801056E-5	NaN
175	1.000000	0.992312	7.36675e+06	-47389.1	955.818	-29766.5	0.000000	0.000000	6.993152	0.018289	NaN	0.000000	0.001545	0.001726	28.0903	0.010331	0.002062	5.011225	-47.2344	12.4028	0.050097	0.990948	-0.190089	-0.191453	0.018289	5.011225	-0.192826	-100.259	-0.000182	NaN
175	1.000000	1.002319	7.36675e+06	-47389.1	955.819	-29766.5	0.000000	0.000000	7.003160	0.041409	NaN	0.000000	0.001553	0.001751	28.1284	0.152701	0.002038	74.9355	144.925	-168.756	0.039735	1.001030	-0.180081	-0.181371	0.041409	74.9355	-0.180496	-62.2154	-0.000666	NaN
175	1.000000	1.012329	7.36675e+06	-47389.1	955.819	-29766.5	0.000000	0.000000	7.013167	-0.016572	NaN	0.000000	0.001532	0.001701	28.1019	0.014331	0.001983	7.226226	-20.5115	13.3575	0.018889	1.010992	-0.170072	-0.171409	-0.016572	7.226226	-0.168352	-38.4544	0.000431	NaN
175	1.000000	1.022285	7.36675e+06	-47389.1	955.818	-29766.5	0.000000	0.000000	7.023127	0.088897	NaN	0.000000	0.001518	0.001706	28.0782	0.062955	0.001888	33.3464	-83.4255	-163.948	0.025532	1.021020	-0.160116	-0.161381	0.088897	33.3464	-0.162115	-29.8865	-0.002974	NaN
175	1.000000	1.032321	7.36675e+06	-47389.1	955.819	-29766.5	0.000000	0.000000	7.033163	0.068056	NaN	0.000000	0.001512	0.001715	28.0914	0.020702	0.002023	10.2332	-89.3617	16.3701	0.021346	1.030923	-0.150079	-0.151478	0.068056	10.2332	-0.155067	-22.3763	-0.003041	NaN
175	1.000000	1.042323	7.36675e+06	-47389.1	955.819	-29766.5	0.000000	0.000000	7.043162	0.005096	NaN	0.000000	0.001539	0.001726	28.1295	0.061288	0.001952	31.3967	-40.9114	-163.804	-0.016564	1.040987	-0.140078	-0.141414	0.005096	31.3967	-0.140200	-11.932	-0.000427	NaN
175	1.000000	1.052331	7.36675e+06	-47389.1	955.817	-29766.5	0.000000	0.000000	7.053171	0.026411	NaN	0.000000	0.001536	0.001699	28.1024	0.050511	0.001978	25.5316	-58.9737	16.9135	-0.018938	1.050999	-0.130069	-0.131402	0.026411	25.5316	-0.130845	-7.914095	-0.003337	NaN
175	1.000000	1.062315	7.36675e+06	-47389.1	955.818	-29766.5	0.000000	0.000000	7.063153	-0.022281	NaN	0.000000	0.001548	0.001715	28.0782	0.065670	0.001997	32.8864	-101.996	-164.103	-0.004253	1.061042	-0.120085	-0.121359	-0.022281	32.8864	-0.119577	-4.737436	0.004703	NaN
175	1.000000	1.072321	7.36675e+06	-47389.1	955.819	-29766.5	0.000000	0.000000	7.073161	0.033639	NaN	0.000000	0.001550	0.001716	28.0892	0.066518	0.001872	35.5423	70.1209	12.3293	0.088876	1.070967	-0.110080	-0.111434	0.033639	35.5423	-0.110789	-3.122394	-0.010774	NaN
175	1.000000	1.082332	7.36675e+06	-47389.1	955.818	-29766.5	0.000000	0.000000	7.083169	-0.053268	NaN	0.000000	0.001525	0.001702	28.1297	0.052544	0.002060	25.5055	12.4145	-164.183	0.028734	1.081030	-0.100069	-0.101370	-0.053268	25.5055	-0.098502	-1.692158	0.031479	NaN
175	1.000000	1.092317	7.36675e+06	-47389.1	955.818	-29766.5	0.000000	0.000000	7.093157	0.011093	NaN	0.000000	0.001569	0.001696	28.1034	0.032292	0.002005	16.1089	22.0577	13.0252	0.051992	1.090989	-0.090083	-0.091412	0.011093	16.1089	-0.090600	-1.116515	-0.009936	NaN
175	1.000000	1.102353	7.36675e+06	-47389.1	955.818	-29766.5	0.000000	0.000000	7.103190	-0.034276	NaN	0.000000	0.001577	0.001717	28.0812	0.029935	0.002001	14.9568	-13.7389	-166.936	0.027929	1.101015	-0.080048	-0.081386	-0.034276	14.9568	-0.078329	-0.561921	0.060997	NaN
175	1.000000	1.112346	7.36675e+06	-47389.1	955.818	-29766.5	0.000000	0.000000	7.113184	-0.028300	NaN	0.000000	0.001565	0.001710	28.0915	0.047265	0.002024	23.3574	-130.414	10.8073	-0.049022	1.111005	-0.070054	-0.071396	-0.028300	23.3574	-0.069145	-0.323541	0.087471	NaN
175	1.000000	1.122347	7.36675e+06	-47389.1	955.817	-29766.5	0.000000	0.000000	7.123188	0.043969	NaN	0.000000	0.001564	0.001689	28.1307	0.071261	0.002059	34.6082	-44.0008	-163.953	-0.049575	1.121025	-0.060053	-0.061376	0.043969	34.6082	-0.061006	-0.192427	-0.228497	NaN
175	1.000000	1.132339	7.36675e+06	-47389.1	955.819	-29766.5	0.000000	0.000000	7.133177	-0.021160	NaN	0.000000	0.001570	0.001739	28.1052	0.065084	0.002012	32.348	-177.074	17.4972	-0.076462	1.130996	-0.050062	-0.051404	-0.021160	32.348	-0.049571	-0.088564	0.238923	NaN
175	1.000000	1.142356	7.36675e+06	-47389.1	955.819	-29766.5	0.000000	0.000000	7.143198	0.084985	NaN	0.000000	0.001615	0.001702	28.0775	0.069756	0.001931	36.1238	27.6193	-165.452	0.064026	1.141070	-0.040045	-0.041331	0.084985	36.1238	-0.041809	-0.051339	-1.655372	NaN
175	1.000000	1.152372	7.36675e+06	-47389.1	955.819	-29766.5	0.000000	0.000000	7.153211	-0.000671	NaN	0.000000	0.001591	0.001715	28.0908	0.006259	0.001922	3.256251	158.389	17.0059	-0.067073	1.151012	-0.030028	-0.031389	-0.000671	3.256251	-0.029874	-0.022827	0.029402	NaN
175	1.000000	1.162355	7.36675e+06	-47389.1	955.819	-29766.5	0.000000	0.000000	7.163192	-0.053001	NaN	0.000000	0.001622	0.001689	28.1291	0.052556	0.001987	26.4432	-138.026	-165.007	-0.005692	1.161081	-0.020045	-0.021319	-0.053001	26.4432	-0.018542	-0.011528	4.597555	NaN
175	1.000000	1.172356	7.36675e+06	-47389.1	955.817	-29766.5	0.000000	0.000000	7.173199	0.096291	NaN	0.000000	0.001573	0.001683	28.1042	0.040421	0.002051	19.7108	51.0926	16.4972	0.014164	1.171015	-0.010045	-0.011386	0.096291	19.7108	-0.013709	-0.008513	-11.311	NaN
175	1.000000	1.182394	7.36675e+06	-47389.1	955.819	-29766.5	0.000000	0.000000	7.183259	0.637024	NaN	0.000000	0.001618	0.001726	28.0808	0.854253	0.001940	440.347	8.152033	-166.008	0.135602	1.181064	-6.870207E-6	-0.001337	0.637024	440.347	-0.001092	-0.000799	-797.154	NaN
175	2.000000	1.190536	7.36675e+06	-47389.1	955.818	-29766.5	0.000000	0.000000	7.191758	9.333869	NaN	0.000000	0.001622	0.001720	28.0922	8.887147	0.001610	5518.29	6.396629	6.300782	8.716251	1.190112	0.008135	0.007712	9.333869	5518.29	0.006867	0.005902	1581.41	65625
175	2.000000	1.193012	7.36675e+06	-47389.1	955.818	-29766.5	0.000000	0.000000	7.194354	12.2343	NaN	0.000000	0.001636	0.001671	28.1305	11.726	0.001785	6568.11	9.122481	-175.365	12.8423	1.192727	0.010612	0.010326	12.2343	6568.11	0.009215	0.008322	1470.13	65781.3
175	2.000000	1.195502	7.36675e+06	-47389.1	955.818	-29766.5	0.000000	0.000000	7.197000	16.0464	NaN	0.000000	0.001649	0.001716	28.105	13.5253	0.001737	7787.02	5.258665	6.700952	14.8772	1.195116	0.013101	0.012715	16.0464	7787.02	0.011556	0.010962	1463.81	67951.3
175	2.000000	1.197977	7.36675e+06	-47389.1	955.819	-29766.5	0.000000	0.000000	7.199525	17.2458	NaN	0.000000	0.001640	0.001743	28.0793	15.589	0.001820	8567.55	7.671061	-174.55	17.2005	1.197668	0.015576	0.015268	17.2458	8567.55	0.014067	0.014061	1226.49	66011.7
175	2.000000	1.200447	7.36675e+06	-47389.1	955.818	-29766.5	0.000000	0.000000	7.202244	23.3203	NaN	0.000000	0.001669	0.001713	28.0896	18.2058	0.001767	10303.1	6.697586	2.923096	22.3817	1.200101	0.018046	0.017700	23.3203	10303.1	0.016348	0.017126	1361.71	71930.7
175	2.000000	1.202959	7.36675e+06	-47389.1	955.819	-29766.5	0.000000	0.000000	7.204874	26.1639	NaN	0.000000	0.001653	0.001705	28.1282	20.7549	0.001814	11438.4	6.595171	-178.303	26.2422	1.202635	0.020558	0.020234	26.1639	11438.4	0.018843	0.020757	1260.51	72537.1
175	2.000000	1.205461	7.36675e+06	-47389.1	955.819	-29766.5	0.000000	0.000000	7.207596	31.5484	NaN	0.000000	0.001658	0.001746	28.1037	22.6875	0.001752	12948	7.183230	0.828896	30.4492	1.205094	0.023060	0.022693	31.5484	12948	0.021233	0.024516	1286.84	75552.4
175	2.000000	1.207889	7.36675e+06	-47389.1	955.819	-29766.5	0.000000	0.000000	7.210262	37.3123	NaN	0.000000	0.001678	0.001731	28.0791	25.4799	0.001773	14370.7	8.811483	178.593	35.4311	1.207595	0.025489	0.025195	37.3123	14370.7	0.023541	0.028415	1313.1	77888.3
175	2.000000	1.210389	7.36675e+06	-47389.1	955.819	-29766.5	0.000000	0.000000	7.213006	43.2674	NaN	0.000000	0.001629	0.001731	28.0904	27.9426	0.001862	15004.1	6.819593	0.419465	41.0359	1.210082	0.027988	0.027681	43.2674	15004.1	0.025825	0.032534	1329.92	76000.1
175	2.000000	1.212896	7.36675e+06	-47389.1	955.819	-29766.5	0.000000	0.000000	7.215834	51.0639	NaN	0.000000	0.001640	0.001751	28.1288	30.2984	0.001826	16594.7	3.907255	-177.738	49.5154	1.212595	0.030496	0.030194	51.0639	16594.7	0.028188	0.037071	1377.46	78745.2
175	2.000000	1.215421	7.36675e+06	-47389.1	955.818	-29766.5	0.000000	0.000000	7.218760	60.8268	NaN	0.000000	0.001611	0.001773	28.1049	31.705	0.001723	18398.8	7.340567	-1.362095	58.0378	1.214967	0.033020	0.032566	60.8268	18398.8	0.030541	0.041872	1452.7	82148.9
175	2.000000	1.217909	7.36675e+06	-47389.1	955.818	-29766.5	0.000000	0.000000	7.221413	64.8286	NaN	0.000000	0.001622	0.001747	28.0778	34.8201	0.001684	20681.3	10.1066	172.609	64.4012	1.217616	0.035508	0.035215	64.8286	20681.3	0.033157	0.047542	1363.61	86658.8
175	2.000000	1.220357	7.36675e+06	-47389.1	955.819	-29766.5	0.000000	0.000000	7.224247	74.1966	NaN	0.000000	0.001585	0.001731	28.0897	37.7244	0.001830	20617.3	4.016922	-0.567153	70.8141	1.220053	0.037957	0.037652	74.1966	20617.3	0.035258	0.052348	1417.38	82329.5
175	2.000000	1.222882	7.36675e+06	-47389.1	955.819	-29766.5	0.000000	0.000000	7.227054	81.0705	NaN	0.000000	0.001672	0.001745	28.1279	39.1712	0.001787	21915.8	2.715878	-179.162	80.9572	1.222635	0.040482	0.040234	81.0705	21915.8	0.037707	0.058238	1392.06	82971.3
175	2.000000	1.225389	7.36675e+06	-47389.1	955.818	-29766.5	0.000000	0.000000	7.229910	89.5517	NaN	0.000000	0.001672	0.001734	28.1047	41.1379	0.001686	24394.1	3.281901	0.277648	88.6366	1.224988	0.042988	0.042587	89.5517	24394.1	0.040235	0.064637	1385.45	87663.2
175	2.000000	1.227869	7.36675e+06	-47389.1	955.818	-29766.5	0.000000	0.000000	7.232844	100.589	NaN	0.000000	0.001724	0.001733	28.0791	43.0333	0.001658	25948.2	1.184835	-179.75	97.1398	1.227570	0.045469	0.045169	100.589	25948.2	0.042561	0.070815	1420.44	89087.7
175	2.000000	1.230440	7.36675e+06	-47389.1	955.819	-29766.5	0.000000	0.000000	7.235746	108.651	NaN	0.000000	0.001673	0.001718	28.0908	47.2087	0.001834	25746.1	4.416516	-2.058611	109.311	1.230049	0.048039	0.047648	108.651	25746.1	0.044874	0.077230	1406.85	84643.1
175	2.000000	1.232843	7.36675e+06	-47389.1	955.819	-29766.5	0.000000	0.000000	7.238584	119.246	NaN	0.000000	0.001627	0.001695	28.1304	48.9946	0.001706	28717.3	1.602084	179.256	116.983	1.232616	0.050442	0.050215	119.246	28717.3	0.047328	0.084334	1413.98	90347.5
175	2.000000	1.235363	7.36675e+06	-47389.1	955.819	-29766.5	0.000000	0.000000	7.241671	133.028	NaN	0.000000	0.001663	0.001754	28.1066	51.6065	0.001939	26620.5	6.760293	-3.831600	130.184	1.234994	0.052963	0.052594	133.028	26620.5	0.049215	0.090002	1478.06	81070.7
175	2.000000	1.237830	7.36675e+06	-47389.1	955.819	-29766.5	0.000000	0.000000	7.244627	144.905	NaN	0.000000	0.001669	0.001730	28.0805	52.9783	0.001778	29799.8	2.947452	178.096	140.73	1.237560	0.055430	0.055159	144.905	29799.8	0.051783	0.098003	1478.58	86969.5
175	2.000000	1.240373	7.36675e+06	-47389.1	955.819	-29766.5	0.000000	0.000000	7.247630	156.115	NaN	0.000000	0.001672	0.001713	28.0912	56.2475	0.001866	30136.3	5.624048	-4.734418	153.895	1.240014	0.057972	0.057614	156.115	30136.3	0.054087	0.105463	1480.28	84783.8
175	2.000000	1.242841	7.36675e+06	-47389.1	955.82	-29766.5	0.000000	0.000000	7.250519	166.351	NaN	0.000000	0.001661	0.001704	28.1291	58.1783	0.001741	33413.3	2.294404	177.45	163.82	1.242636	0.060441	0.060236	166.351	33413.3	0.056707	0.114265	1455.84	90310.3
175	2.000000	1.245434	7.36675e+06	-47389.1	955.82	-29766.5	0.000000	0.000000	7.253734	181.494	NaN	0.000000	0.001623	0.001697	28.1061	60.5387	0.001776	34088	6.895115	-6.906691	180.752	1.245126	0.063033	0.062726	181.494	34088	0.059040	0.122389	1482.93	89023.3
175	2.000000	1.247889	7.36675e+06	-47389.1	955.819	-29766.5	0.000000	0.000000	7.256885	198.416	NaN	0.000000	0.001637	0.001715	28.0814	61.9412	0.001779	34823.9	3.287482	177.324	200.902	1.247539	0.065488	0.065138	198.416	34823.9	0.061215	0.130201	1523.92	88174.6
175	2.000000	1.250345	7.36675e+06	-47389.1	955.819	-29766.5	0.000000	0.000000	7.259641	205.712	NaN	0.000000	0.001638	0.001705	28.0913	65.0492	0.001734	37520	1.202638	-2.353927	201.717	1.249969	0.067944	0.067569	205.712	37520	0.063832	0.139908	1470.33	91646.3
175	2.000000	1.252875	7.36675e+06	-47389.1	955.819	-29766.5	0.000000	0.000000	7.262682	218.133	NaN	0.000000	0.001641	0.001720	28.1303	68.891	0.001732	39778.9	2.491116	176.532	218.633	1.252572	0.070475	0.070171	218.133	39778.9	0.066362	0.149605	1458.06	93962.2
175	2.000000	1.255320	7.36675e+06	-47389.1	955.818	-29766.5	0.000000	0.000000	7.265840	235.493	NaN	0.000000	0.001647	0.001725	28.1067	71.1333	0.001828	38902.6	5.264344	-5.620385	231.95	1.254865	0.072919	0.072465	235.493	38902.6	0.068379	0.157557	1494.66	89543.4
175	2.000000	1.257835	7.36675e+06	-47389.1	955.819	-29766.5	0.000000	0.000000	7.268958	250.149	NaN	0.000000	0.001638	0.001741	28.0794	72.4941	0.001741	41649.3	0.932417	177.389	247.999	1.257581	0.075434	0.075181	250.149	41649.3	0.070929	0.167890	1489.96	92868.7
175	2.000000	1.260338	7.36675e+06	-47389.1	955.818	-29766.5	0.000000	0.000000	7.272150	266.908	NaN	0.000000	0.001597	0.001756	28.0891	76.3505	0.001800	42414.1	6.227348	-7.981302	264.977	1.260019	0.077937	0.077619	266.908	42414.1	0.073218	0.177422	1504.37	91998.2
175	2.000000	1.262919	7.36675e+06	-47389.1	955.82	-29766.5	0.000000	0.000000	7.274944	272.103	NaN	0.000000	0.001562	0.001757	28.1283	78.9264	0.001850	42655.1	3.930827	174.034	272.411	1.262603	0.080518	0.080202	272.103	42655.1	0.075734	0.188191	1445.89	89835
175	2.000000	1.265437	7.36675e+06	-47389.1	955.819	-29766.5	0.000000	0.000000	7.278354	293.797	NaN	0.000000	0.001599	0.001732	28.1041	80.2656	0.001860	43151.2	3.785317	-5.495973	294.85	1.265121	0.083036	0.082720	293.797	43151.2	0.077930	0.197832	1485.08	88637.5
175	2.000000	1.267815	7.36675e+06	-47389.1	955.818	-29766.5	0.000000	0.000000	7.281486	312.14	NaN	0.000000	0.001576	0.001761	28.0794	82.0671	0.001765	46489.2	3.859497	173.442	310.537	1.267532	0.085414	0.085131	312.14	46489.2	0.080378	0.208849	1494.57	92941.4
175	2.000000	1.270390	7.36675e+06	-47389.1	955.819	-29766.5	0.000000	0.000000	7.284771	329.396	NaN	0.000000	0.001591	0.001740	28.0902	85.7655	0.001783	48092	5.470704	-7.738003	330.75	1.269926	0.087990	0.087526	329.396	48092	0.082853	0.220264	1495.46	93621.1
175	2.000000	1.272833	7.36675e+06	-47389.1	955.819	-29766.5	0.000000	0.000000	7.287958	347.5	NaN	0.000000	0.001593	0.001792	28.1283	88.5121	0.001776	49826.2	5.400355	171.533	346.29	1.272655	0.090432	0.090254	347.5	49826.2	0.085201	0.231363	1501.97	94642.1
175	2.000000	1.275342	7.36675e+06	-47389.1	955.82	-29766.5	0.000000	0.000000	7.291292	367.54	NaN	0.000000	0.001581	0.001782	28.1054	89.1488	0.001728	51580.4	1.481122	-4.825488	363.429	1.275045	0.092942	0.092644	367.54	51580.4	0.087598	0.242949	1512.83	95609.3
175	2.000000	1.277799	7.36675e+06	-47389.1	955.819	-29766.5	0.000000	0.000000	7.294729	391.399	NaN	0.000000	0.001613	0.001787	28.078	92.2125	0.001877	49124.7	5.671231	171.821	389.024	1.277479	0.095398	0.095079	391.399	49124.7	0.089422	0.251949	1553.49	89416.3
175	2.000000	1.280228	7.36675e+06	-47389.1	955.819	-29766.5	0.000000	0.000000	7.297913	409.739	NaN	0.000000	0.001584	0.001752	28.0872	93.9829	0.001786	52632.4	3.979841	-7.159567	401.335	1.279831	0.097828	0.097430	409.739	52632.4	0.091989	0.264866	1546.96	93435.7
175	2.000000	1.282873	7.36675e+06	-47389.1	955.819	-29766.5	0.000000	0.000000	7.301000	420.507	NaN	0.000000	0.001595	0.001770	28.1276	97.5088	0.001728	56427.4	7.693599	168.746	420.955	1.282508	0.100472	0.100107	420.507	56427.4	0.094883	0.279793	1502.92	97464.2
175	2.000000	1.285309	7.36675e+06	-47389.1	955.819	-29766.5	0.000000	0.000000	7.304300	441.516	NaN	0.000000	0.001590	0.001769	28.1048	98.516	0.001903	51763	4.211867	-6.640740	437.149	1.284993	0.102908	0.102592	441.516	51763	0.096511	0.288357	1531.14	88069.8
175	2.000000	1.287848	7.36675e+06	-47389.1	955.819	-29766.5	0.000000	0.000000	7.307606	460.195	NaN	0.000000	0.001586	0.001752	28.0799	100.45	0.001753	57305.5	3.465647	172.714	460.596	1.287484	0.105447	0.105084	460.195	57305.5	0.099424	0.303985	1513.87	94960.6
175	2.000000	1.288327	7.36675e+06	-47389.1	955.819	-29766.5	0.000000	0.000000	7.308181	462.509	NaN	0.000000	0.001593	0.001739	28.0889	100.705	0.001835	54878.8	2.412703	-5.924376	460.069	1.287992	0.105926	0.105591	462.509	54878.8	0.099605	0.304970	1516.57	90792.4