File: remote_trans/data/nanoindenter/0828-1/data/Data_2025-08-06,11h17m57s/2025-07-22_16-23-58_1_161.txt
2025-07-22, 16:23:58, 1
Index	Phase	Displacement	Time	Pos X	Pos Y	Pos Z	Rot A	Rot B	Piezo Z	Force A	Force B	Gripper	Voltage A	Voltage B	Temperature	Amplitude force	Amplitude pos	Stiffness	Phase shift	Phase excitation	Force A raw	Displacement raw	HMax	HMax raw	Real Force	Real Stiffness	Contact Depth	Area	Hardness	Reduced Mod.
[#]	[#]	[um]	[s]	[um]	[um]	[um]	[m°]	[m°]	[um]	[uN]	[uN]	[V]	[V]	[V]	[°C]	[uN]	[um]	[N/m]	[°]	[°]	[uN]	[um]	[um]	[um]	[uN]	[N/m]	[um]	[um^2]	[MPa]	[MPa]
161	1.000000	0.002649	7.36661e+06	-46689.1	955.818	-29768.9	0.000000	0.000000	6.002808	-0.006551	NaN	0.000000	0.001583	0.001702	28.0989	0.168709	0.000968	174.295	129.831	-165.424	0.023714	0.001367	-0.986674	-0.987956	-0.006551	174.295	-0.986646	-1.499470E+13	4.368736E-16	NaN
161	1.000000	0.010610	7.36661e+06	-46689.1	955.819	-29768.9	0.000000	0.000000	6.010771	0.055271	NaN	0.000000	0.001590	0.001713	28.0987	0.144695	0.000878	164.762	-105.591	-163.713	0.077991	0.009274	-0.978713	-0.980050	0.055271	164.762	-0.978965	-1.181589E+13	-4.677724E-15	NaN
161	1.000000	0.018595	7.36661e+06	-46689.1	955.818	-29768.9	0.000000	0.000000	6.018754	0.013401	NaN	0.000000	0.001609	0.001726	28.0995	0.041598	0.001637	25.4083	167.314	-162.827	-0.020657	0.017289	-0.970728	-0.972034	0.013401	25.4083	-0.971124	-9.264249E+12	-1.446574E-15	NaN
161	1.000000	0.026615	7.36661e+06	-46689.1	955.818	-29768.9	0.000000	0.000000	6.026772	-0.052962	NaN	0.000000	0.001591	0.001698	28.0989	0.084903	0.001723	49.279	8.399352	-167.174	-0.049951	0.025298	-0.962708	-0.964026	-0.052962	49.279	-0.961902	-6.958421E+12	7.611179E-15	NaN
161	1.000000	0.034563	7.36661e+06	-46689.1	955.818	-29768.9	0.000000	0.000000	6.034720	-0.036210	NaN	0.000000	0.001618	0.001712	28.0982	0.096040	0.001941	49.4853	-59.0059	-161.85	-0.005295	0.033308	-0.954761	-0.956016	-0.036210	49.4853	-0.954212	-5.480584E+12	6.606916E-15	NaN
161	1.000000	0.042615	7.36661e+06	-46689.1	955.819	-29768.9	0.000000	0.000000	6.042775	0.029394	NaN	0.000000	0.001583	0.001693	28.0988	0.056587	0.001983	28.5322	44.5199	-163.411	0.041334	0.041277	-0.946708	-0.948047	0.029394	28.5322	-0.947481	-4.446826E+12	-6.610004E-15	NaN
161	1.000000	0.050571	7.36661e+06	-46689.1	955.818	-29768.9	0.000000	0.000000	6.050729	0.003944	NaN	0.000000	0.001613	0.001683	28.0992	0.019870	0.001989	9.989558	-173.667	-165.573	-0.008250	0.049309	-0.938753	-0.940014	0.003944	9.989558	-0.939049	-3.422199E+12	-1.152597E-15	NaN
161	1.000000	0.058590	7.36661e+06	-46689.1	955.818	-29768.9	0.000000	0.000000	6.058746	-0.052027	NaN	0.000000	0.001596	0.001696	28.0984	0.077416	0.001892	40.9147	-50.0948	-165.729	-0.053798	0.057322	-0.930734	-0.932002	-0.052027	40.9147	-0.929780	-2.565832E+12	2.027703E-14	NaN
161	1.000000	0.066615	7.36661e+06	-46689.1	955.819	-29768.9	0.000000	0.000000	6.066775	0.035420	NaN	0.000000	0.001614	0.001703	28.0989	0.009651	0.002033	4.746258	149.779	-165.63	0.074671	0.065304	-0.922708	-0.924019	0.035420	4.746258	-0.928306	-2.450911E+12	-1.445191E-14	NaN
161	1.000000	0.074586	7.36661e+06	-46689.1	955.818	-29768.9	0.000000	0.000000	6.074744	-0.015233	NaN	0.000000	0.001597	0.001649	28.1003	0.058033	0.002086	27.8145	-65.3707	-165.343	0.067031	0.073285	-0.914737	-0.916039	-0.015233	27.8145	-0.914326	-1.587058E+12	9.598285E-15	NaN
161	1.000000	0.082608	7.36661e+06	-46689.1	955.819	-29768.9	0.000000	0.000000	6.082767	0.001397	NaN	0.000000	0.001608	0.001710	28.0984	0.091454	0.002094	43.6748	-170.628	-166.466	-0.056657	0.081282	-0.906715	-0.908041	0.001397	43.6748	-0.906739	-1.253484E+12	-1.114703E-15	NaN
161	1.000000	0.090623	7.36661e+06	-46689.1	955.819	-29768.9	0.000000	0.000000	6.090782	0.005601	NaN	0.000000	0.001624	0.001713	28.0982	0.055866	0.002055	27.1917	-165.838	-164.814	-0.009463	0.089272	-0.898701	-0.900051	0.005601	27.1917	-0.898855	-9.808316E+11	-5.710526E-15	NaN
161	1.000000	0.098617	7.36661e+06	-46689.1	955.818	-29768.9	0.000000	0.000000	6.098773	-0.061578	NaN	0.000000	0.001611	0.001692	28.0988	0.069676	0.001968	35.4109	-156.812	-165.427	-0.050301	0.097311	-0.890706	-0.892013	-0.061578	35.4109	-0.889402	-7.308511E+11	8.425560E-14	NaN
161	1.000000	0.106596	7.36661e+06	-46689.1	955.818	-29768.9	0.000000	0.000000	6.106755	0.013415	NaN	0.000000	0.001703	0.001729	28.0981	0.013085	0.002061	6.349410	96.4808	-165.85	0.013506	0.105346	-0.882727	-0.883978	0.013415	6.349410	-0.884312	-6.237569E+11	-2.150737E-14	NaN
161	1.000000	0.114604	7.36661e+06	-46689.1	955.818	-29768.9	0.000000	0.000000	6.114764	0.040880	NaN	0.000000	0.001689	0.001740	28.0987	0.012410	0.001994	6.222375	-101.042	-164.828	-0.037430	0.113263	-0.874719	-0.876060	0.040880	6.222375	-0.879647	-5.394234E+11	-7.578542E-14	NaN
161	1.000000	0.122611	7.36661e+06	-46689.1	955.819	-29768.9	0.000000	0.000000	6.122768	-0.033697	NaN	0.000000	0.001686	0.001700	28.0978	0.081009	0.002099	38.5956	161.294	-166.526	0.017984	0.121297	-0.866713	-0.868026	-0.033697	38.5956	-0.866058	-3.532703E+11	9.538490E-14	NaN
161	1.000000	0.130650	7.36661e+06	-46689.1	955.819	-29768.9	0.000000	0.000000	6.130809	0.008718	NaN	0.000000	0.001681	0.001728	28.0999	0.112097	0.001897	59.1063	31.9491	-161.52	-0.005215	0.129317	-0.858673	-0.860007	0.008718	59.1063	-0.858784	-2.816171E+11	-3.095696E-14	NaN
161	1.000000	0.138637	7.36661e+06	-46689.1	955.818	-29768.9	0.000000	0.000000	6.138794	-0.038539	NaN	0.000000	0.001661	0.001671	28.0996	0.089257	0.002066	43.2112	-108.853	-163.305	-0.001989	0.137296	-0.850687	-0.852028	-0.038539	43.2112	-0.850018	-2.142790E+11	1.798558E-13	NaN
161	1.000000	0.146626	7.36661e+06	-46689.1	955.819	-29768.9	0.000000	0.000000	6.146787	0.057718	NaN	0.000000	0.001686	0.001703	28.1003	0.016561	0.002090	7.925423	87.4254	-164.287	0.082756	0.145332	-0.842697	-0.843992	0.057718	7.925423	-0.848159	-2.022148E+11	-2.854283E-13	NaN
161	1.000000	0.154649	7.36661e+06	-46689.1	955.82	-29768.9	0.000000	0.000000	6.154807	-0.024590	NaN	0.000000	0.001660	0.001692	28.0998	0.042452	0.002132	19.9077	105.142	-166.473	0.020617	0.153333	-0.834674	-0.835991	-0.024590	19.9077	-0.833748	-1.289963E+11	1.906238E-13	NaN
161	1.000000	0.162615	7.36661e+06	-46689.1	955.819	-29768.9	0.000000	0.000000	6.162773	-0.011342	NaN	0.000000	0.001672	0.001691	28.1005	0.119848	0.001868	64.1599	13.9752	-162.256	-0.066795	0.161299	-0.826708	-0.828024	-0.011342	64.1599	-0.826576	-1.031255E+11	1.099782E-13	NaN
161	1.000000	0.170631	7.36661e+06	-46689.1	955.818	-29768.9	0.000000	0.000000	6.170789	-0.022260	NaN	0.000000	0.001609	0.001716	28.0986	0.101156	0.001974	51.2407	-158.193	-162.382	0.009187	0.169288	-0.818692	-0.820035	-0.022260	51.2407	-0.818367	-7.981078E+10	2.789047E-13	NaN
161	1.000000	0.178649	7.36661e+06	-46689.1	955.818	-29768.9	0.000000	0.000000	6.178807	0.004289	NaN	0.000000	0.001597	0.001758	28.0985	0.072256	0.001905	37.9321	33.7403	-164.813	-0.043268	0.177354	-0.810675	-0.811970	0.004289	37.9321	-0.810760	-6.293285E+10	-6.814933E-14	NaN
161	1.000000	0.186647	7.36661e+06	-46689.1	955.819	-29768.9	0.000000	0.000000	6.186804	-0.055677	NaN	0.000000	0.001572	0.001772	28.0991	0.048100	0.002203	21.8329	7.872992	-161.861	-0.078256	0.185343	-0.802676	-0.803980	-0.055677	21.8329	-0.800763	-4.604958E+10	1.209066E-12	NaN
161	1.000000	0.194659	7.36661e+06	-46689.1	955.818	-29768.9	0.000000	0.000000	6.194819	0.032458	NaN	0.000000	0.001607	0.001761	28.0983	0.022931	0.002041	11.2361	45.6157	-163.757	0.054363	0.193363	-0.794665	-0.795960	0.032458	11.2361	-0.796831	-4.072361E+10	-7.970220E-13	NaN
161	1.000000	0.202630	7.36661e+06	-46689.1	955.818	-29768.9	0.000000	0.000000	6.202789	9.876692E-6	NaN	0.000000	0.001618	0.001743	28.0998	0.139889	0.001886	74.1914	-66.2385	-164.594	-0.059732	0.201387	-0.786693	-0.787936	9.876692E-6	74.1914	-0.786694	-2.966015E+10	-3.329954E-16	NaN
161	1.000000	0.210626	7.36661e+06	-46689.1	955.819	-29768.9	0.000000	0.000000	6.210784	-0.004778	NaN	0.000000	0.001598	0.001744	28.1	0.060125	0.001883	31.9321	22.6668	-163.429	0.008386	0.209339	-0.778698	-0.779984	-0.004778	31.9321	-0.778585	-2.301487E+10	2.075973E-13	NaN
161	1.000000	0.218612	7.36661e+06	-46689.1	955.818	-29768.9	0.000000	0.000000	6.218772	0.030119	NaN	0.000000	0.001639	0.001714	28.0986	0.117562	0.001979	59.4101	78.5057	-165.575	0.006141	0.217333	-0.770711	-0.771990	0.030119	59.4101	-0.771092	-1.820320E+10	-1.654608E-12	NaN
161	1.000000	0.226656	7.36661e+06	-46689.1	955.818	-29768.9	0.000000	0.000000	6.226815	0.003529	NaN	0.000000	0.001630	0.001721	28.1001	0.030564	0.002022	15.1149	168.877	-163.936	0.012028	0.225316	-0.762667	-0.764007	0.003529	15.1149	-0.762842	-1.405946E+10	-2.510147E-13	NaN
161	1.000000	0.234642	7.36661e+06	-46689.1	955.819	-29768.9	0.000000	0.000000	6.234803	0.065271	NaN	0.000000	0.001603	0.001710	28.0989	0.074444	0.001946	38.2457	-99.3078	-164.677	0.071052	0.233294	-0.754682	-0.756030	0.065271	38.2457	-0.755961	-1.133326E+10	-5.759224E-12	NaN
161	1.000000	0.242691	7.36661e+06	-46689.1	955.818	-29768.9	0.000000	0.000000	6.242848	-0.032203	NaN	0.000000	0.001566	0.001705	28.0996	0.138936	0.002062	67.3767	-12.298	-163.973	-0.027774	0.241342	-0.746632	-0.747981	-0.032203	67.3767	-0.746274	-8.365491E+9	3.849451E-12	NaN
161	1.000000	0.250689	7.36661e+06	-46689.1	955.818	-29768.9	0.000000	0.000000	6.250846	-0.036120	NaN	0.000000	0.001610	0.001689	28.0981	0.086720	0.002088	41.5338	138.18	-162.042	-0.043484	0.249340	-0.738634	-0.739984	-0.036120	41.5338	-0.737982	-6.450087E+9	5.599887E-12	NaN
161	1.000000	0.258686	7.36662e+06	-46689.1	955.818	-29768.9	0.000000	0.000000	6.258845	0.008338	NaN	0.000000	0.001636	0.001698	28.0975	0.055785	0.002070	26.9453	81.2443	-164.043	-0.059989	0.257340	-0.730638	-0.731983	0.008338	26.9453	-0.730870	-5.160160E+9	-1.615912E-12	NaN
161	1.000000	0.266678	7.36662e+06	-46689.1	955.819	-29768.9	0.000000	0.000000	6.266835	-0.028573	NaN	0.000000	0.001608	0.001717	28.0968	0.079357	0.002096	37.8624	148.35	-162.044	0.021916	0.265399	-0.722646	-0.723925	-0.028573	37.8624	-0.722080	-3.915930E+9	7.296628E-12	NaN
161	1.000000	0.274705	7.36662e+06	-46689.1	955.818	-29768.9	0.000000	0.000000	6.274865	0.049782	NaN	0.000000	0.001637	0.001707	28.0978	0.064672	0.001838	35.1815	-72.4018	-164.233	0.002216	0.273403	-0.714619	-0.715921	0.049782	35.1815	-0.715680	-3.202928E+9	-1.554253E-11	NaN
161	1.000000	0.282698	7.36662e+06	-46689.1	955.818	-29768.9	0.000000	0.000000	6.282856	-0.020593	NaN	0.000000	0.001573	0.001692	28.0965	0.094438	0.002024	46.6644	-97.823	-164.095	-0.064424	0.281396	-0.706626	-0.707927	-0.020593	46.6644	-0.706295	-2.384918E+9	8.634752E-12	NaN
161	1.000000	0.290693	7.36662e+06	-46689.1	955.819	-29768.9	0.000000	0.000000	6.290853	0.026004	NaN	0.000000	0.001580	0.001707	28.0978	0.099603	0.002046	48.6879	-83.4691	-163	0.000829	0.289401	-0.698630	-0.699922	0.026004	48.6879	-0.699031	-1.897983E+9	-1.370065E-11	NaN
161	1.000000	0.298708	7.36662e+06	-46689.1	955.818	-29768.9	0.000000	0.000000	6.298867	-0.001502	NaN	0.000000	0.001612	0.001724	28.0979	0.039976	0.002101	19.0309	11.0054	-166.706	0.081804	0.297383	-0.690615	-0.691941	-0.001502	19.0309	-0.690556	-1.453848E+9	1.033429E-12	NaN
161	1.000000	0.306680	7.36662e+06	-46689.1	955.819	-29768.9	0.000000	0.000000	6.306841	0.046429	NaN	0.000000	0.001584	0.001731	28.0969	0.090344	0.002038	44.3281	156.771	-166.536	0.082368	0.305431	-0.682643	-0.683892	0.046429	44.3281	-0.683429	-1.161688E+9	-3.996673E-11	NaN
161	1.000000	0.314708	7.36662e+06	-46689.1	955.819	-29768.9	0.000000	0.000000	6.314869	0.054869	NaN	0.000000	0.001593	0.001758	28.0978	0.113487	0.001959	57.9291	62.6486	-165.831	-0.024154	0.313404	-0.674616	-0.675919	0.054869	57.9291	-0.675326	-9.000566E+8	-6.096193E-11	NaN
161	1.000000	0.322684	7.36662e+06	-46689.1	955.819	-29768.9	0.000000	0.000000	6.322843	0.020887	NaN	0.000000	0.001598	0.001779	28.0976	0.018677	0.001962	9.519918	44.3534	-165.45	0.013457	0.321399	-0.666639	-0.667924	0.020887	9.519918	-0.668285	-7.209670E+8	-2.897147E-11	NaN
161	1.000000	0.330691	7.36662e+06	-46689.1	955.818	-29768.9	0.000000	0.000000	6.330851	0.028444	NaN	0.000000	0.001609	0.001758	28.0963	0.032682	0.001943	16.8171	-132.527	-166.651	0.017652	0.329407	-0.658632	-0.659916	0.028444	16.8171	-0.659901	-5.534929E+8	-5.138946E-11	NaN
161	1.000000	0.338693	7.36662e+06	-46689.1	955.818	-29768.9	0.000000	0.000000	6.338852	0.018385	NaN	0.000000	0.001594	0.001739	28.0967	0.048636	0.002006	24.2466	13.8161	-166.544	0.078486	0.337392	-0.650631	-0.651931	0.018385	24.2466	-0.651199	-4.206095E+8	-4.370942E-11	NaN
161	1.000000	0.346737	7.36662e+06	-46689.1	955.818	-29768.9	0.000000	0.000000	6.346897	0.037798	NaN	0.000000	0.001565	0.001758	28.0971	0.059079	0.002108	28.0231	58.3673	-163.604	0.009555	0.345418	-0.642587	-0.643905	0.037798	28.0231	-0.643598	-3.308663E+8	-1.142401E-10	NaN
161	1.000000	0.354697	7.36662e+06	-46689.1	955.819	-29768.9	0.000000	0.000000	6.354856	0.002406	NaN	0.000000	0.001589	0.001777	28.0965	0.042733	0.002004	21.3221	129.728	-162.648	0.029225	0.353429	-0.634626	-0.635894	0.002406	21.3221	-0.634711	-2.498621E+8	-9.630366E-12	NaN
161	1.000000	0.362717	7.36662e+06	-46689.1	955.818	-29768.9	0.000000	0.000000	6.362875	-0.004317	NaN	0.000000	0.001578	0.001768	28.097	0.151493	0.002038	74.3182	-74.797	-163.101	-0.076147	0.361441	-0.626607	-0.627883	-0.004317	74.3182	-0.626563	-1.931169E+8	2.235272E-11	NaN
161	1.000000	0.370731	7.36662e+06	-46689.1	955.819	-29768.9	0.000000	0.000000	6.370890	0.000122	NaN	0.000000	0.001583	0.001778	28.0973	0.096194	0.002139	44.9696	-161.092	-165.576	-0.052238	0.369393	-0.618592	-0.619931	0.000122	44.9696	-0.618594	-1.500751E+8	-8.101051E-13	NaN
161	1.000000	0.378712	7.36662e+06	-46689.1	955.819	-29768.9	0.000000	0.000000	6.378871	0.010945	NaN	0.000000	0.001605	0.001781	28.0973	0.064265	0.001958	32.8193	108.113	-167.637	-0.086602	0.377393	-0.610612	-0.611931	0.010945	32.8193	-0.610862	-1.174822E+8	-9.315984E-11	NaN
161	1.000000	0.386726	7.36662e+06	-46689.1	955.817	-29768.9	0.000000	0.000000	6.386886	0.031384	NaN	0.000000	0.001577	0.001766	28.0976	0.040864	0.002049	19.9464	80.4099	-164.733	0.049123	0.385446	-0.602597	-0.603878	0.031384	19.9464	-0.603777	-9.385760E+7	-3.343780E-10	NaN
161	1.000000	0.394745	7.36662e+06	-46689.1	955.818	-29768.9	0.000000	0.000000	6.394905	0.036999	NaN	0.000000	0.001577	0.001766	28.097	0.132068	0.001992	66.3136	-90.4009	-161.753	-0.014563	0.393460	-0.594578	-0.595863	0.036999	66.3136	-0.594997	-7.104528E+7	-5.207780E-10	NaN
161	1.000000	0.402743	7.36662e+06	-46689.1	955.818	-29768.9	0.000000	0.000000	6.402899	-0.061560	NaN	0.000000	0.001581	0.001802	28.0985	0.072761	0.001989	36.5762	89.0875	-166.029	-0.121913	0.401470	-0.586580	-0.587854	-0.061560	36.5762	-0.585318	-5.225196E+7	1.178129E-9	NaN
161	1.000000	0.410770	7.36662e+06	-46689.1	955.818	-29768.9	0.000000	0.000000	6.410928	-0.026058	NaN	0.000000	0.001604	0.001740	28.0983	0.065318	0.002004	32.5906	141.184	-162.04	-0.012195	0.409414	-0.578553	-0.579910	-0.026058	32.5906	-0.577953	-4.135006E+7	6.301921E-10	NaN
161	1.000000	0.418740	7.36662e+06	-46689.1	955.818	-29768.9	0.000000	0.000000	6.418898	-0.020599	NaN	0.000000	0.001584	0.001767	28.0978	0.089554	0.002053	43.6234	142.747	-161.304	0.004208	0.417385	-0.570584	-0.571939	-0.020599	43.6234	-0.570229	-3.234457E+7	6.368573E-10	NaN
161	1.000000	0.426744	7.36662e+06	-46689.1	955.818	-29768.9	0.000000	0.000000	6.426901	-0.052825	NaN	0.000000	0.001583	0.001778	28.097	0.047737	0.002037	23.432	129.454	-164.95	-0.017336	0.425492	-0.562579	-0.563831	-0.052825	23.432	-0.560888	-2.402520E+7	2.198748E-9	NaN
161	1.000000	0.434761	7.36662e+06	-46689.1	955.819	-29768.9	0.000000	0.000000	6.434919	-0.004147	NaN	0.000000	0.001579	0.001793	28.0973	0.028752	0.002065	13.9234	-18.1048	-164.425	-0.037406	0.433383	-0.554562	-0.555940	-0.004147	13.9234	-0.554339	-1.950019E+7	2.126875E-10	NaN
161	1.000000	0.442771	7.36662e+06	-46689.1	955.818	-29768.9	0.000000	0.000000	6.442932	0.061614	NaN	0.000000	0.001552	0.001688	28.098	0.103921	0.001991	52.1902	145.236	-163.789	-0.022722	0.441487	-0.546552	-0.547837	0.061614	52.1902	-0.547438	-1.564796E+7	-3.937480E-9	NaN
161	1.000000	0.450747	7.36662e+06	-46689.1	955.819	-29768.9	0.000000	0.000000	6.450905	-0.009069	NaN	0.000000	0.001568	0.001687	28.0976	0.025889	0.002015	12.8509	178.526	-164.462	0.007108	0.449441	-0.538576	-0.539882	-0.009069	12.8509	-0.538047	-1.159496E+7	7.821725E-10	NaN
161	1.000000	0.458784	7.36662e+06	-46689.1	955.819	-29768.9	0.000000	0.000000	6.458941	-0.046191	NaN	0.000000	0.001607	0.001721	28.0983	0.034110	0.001949	17.5034	-83.8314	-159.387	-0.037191	0.457450	-0.530539	-0.531873	-0.046191	17.5034	-0.528560	-8.56204e+06	5.394915E-9	NaN
161	1.000000	0.466777	7.36662e+06	-46689.1	955.819	-29768.9	0.000000	0.000000	6.466939	0.087100	NaN	0.000000	0.001612	0.001726	28.0976	0.050477	0.002008	25.14	51.6198	-162.617	0.081101	0.465431	-0.522547	-0.523893	0.087100	25.14	-0.525145	-7.67589e+06	-1.134727E-8	NaN
161	1.000000	0.474761	7.36662e+06	-46689.1	955.819	-29768.9	0.000000	0.000000	6.474921	0.032007	NaN	0.000000	0.001562	0.001709	28.0986	0.066169	0.002028	32.6229	71.5975	-166.206	-0.025082	0.473498	-0.514562	-0.515825	0.032007	32.6229	-0.515298	-5.59987e+06	-5.715646E-9	NaN
161	1.000000	0.482756	7.36662e+06	-46689.1	955.818	-29768.9	0.000000	0.000000	6.482917	0.061590	NaN	0.000000	0.001595	0.001745	28.0983	0.086247	0.002089	41.2767	51.5453	-164.914	0.057601	0.481401	-0.506567	-0.507922	0.061590	41.2767	-0.507686	-4.38717e+06	-1.403874E-8	NaN
161	1.000000	0.490786	7.36662e+06	-46689.1	955.818	-29768.9	0.000000	0.000000	6.490945	0.003073	NaN	0.000000	0.001608	0.001718	28.0984	0.056360	0.002089	26.9775	1.085475	-165.131	-0.057988	0.489486	-0.498537	-0.499837	0.003073	26.9775	-0.498622	-3.27942e+06	-9.370985E-10	NaN
161	1.000000	0.498804	7.36662e+06	-46689.1	955.818	-29768.9	0.000000	0.000000	6.498965	0.071857	NaN	0.000000	0.001601	0.001752	28.0971	0.079595	0.002073	38.39	-3.741909	-160.882	0.110887	0.497480	-0.490520	-0.491844	0.071857	38.39	-0.491924	-2.64406e+06	-2.717690E-8	NaN
161	1.000000	0.506789	7.36662e+06	-46689.1	955.817	-29768.9	0.000000	0.000000	6.506950	0.045656	NaN	0.000000	0.001663	0.001728	28.0965	0.116025	0.001966	59.0063	81.6632	-164.081	0.043932	0.505509	-0.482534	-0.483815	0.045656	59.0063	-0.483115	-1.9912e+06	-2.292902E-8	NaN
161	1.000000	0.514817	7.36662e+06	-46689.1	955.818	-29768.9	0.000000	0.000000	6.514977	0.030075	NaN	0.000000	0.001620	0.001693	28.0965	0.100478	0.001973	50.9147	-132.85	-165.405	0.030092	0.513529	-0.474506	-0.475794	0.030075	50.9147	-0.474949	-1.53035e+06	-1.965255E-8	NaN
161	1.000000	0.522774	7.36662e+06	-46689.1	955.818	-29768.9	0.000000	0.000000	6.522933	0.025677	NaN	0.000000	0.001617	0.001729	28.0962	0.034299	0.001938	17.6994	90.2964	-165.04	0.030212	0.521492	-0.466550	-0.467832	0.025677	17.6994	-0.467638	-1.20857e+06	-2.124561E-8	NaN
161	1.000000	0.530774	7.36662e+06	-46689.1	955.818	-29768.9	0.000000	0.000000	6.530936	0.071316	NaN	0.000000	0.001604	0.001705	28.0976	0.036750	0.002000	18.3794	-156.165	-166.085	0.032446	0.529500	-0.458549	-0.459823	0.071316	18.3794	-0.461459	-989748	-7.205515E-8	NaN
161	1.000000	0.538781	7.36662e+06	-46689.1	955.82	-29768.9	0.000000	0.000000	6.538942	0.042104	NaN	0.000000	0.001605	0.001692	28.0962	0.056097	0.002000	28.0549	-136.984	-164.621	0.098284	0.537471	-0.450542	-0.451852	0.042104	28.0549	-0.451668	-720813	-5.841199E-8	NaN
161	1.000000	0.546798	7.36662e+06	-46689.1	955.818	-29768.9	0.000000	0.000000	6.546956	-0.013728	NaN	0.000000	0.001615	0.001688	28.097	0.083170	0.002136	38.9368	-38.7129	-166.501	0.056436	0.545512	-0.442526	-0.443811	-0.013728	38.9368	-0.442261	-531217	2.584241E-8	NaN
161	1.000000	0.554812	7.36662e+06	-46689.1	955.818	-29768.9	0.000000	0.000000	6.554969	-0.026385	NaN	0.000000	0.001663	0.001669	28.0967	0.054371	0.001972	27.5694	-157.028	-164.187	0.021148	0.553501	-0.434512	-0.435823	-0.026385	27.5694	-0.433794	-403375	6.541030E-8	NaN
161	1.000000	0.562788	7.36662e+06	-46689.1	955.819	-29768.9	0.000000	0.000000	6.562945	-0.025972	NaN	0.000000	0.001650	0.001699	28.0962	0.020516	0.002002	10.2457	134.196	-163.328	-0.033823	0.561512	-0.426536	-0.427812	-0.025972	10.2457	-0.424634	-299297	8.677728E-8	NaN
161	1.000000	0.570791	7.36662e+06	-46689.1	955.818	-29768.9	0.000000	0.000000	6.570952	0.070212	NaN	0.000000	0.001651	0.001687	28.0959	0.113225	0.002069	54.7278	-93.9211	-164.945	0.133729	0.569526	-0.418532	-0.419797	0.070212	54.7278	-0.419495	-253074	-2.774381E-7	NaN
161	1.000000	0.578790	7.36662e+06	-46689.1	955.818	-29768.9	0.000000	0.000000	6.578946	-0.070775	NaN	0.000000	0.001637	0.001692	28.0958	0.101317	0.001925	52.6299	113.73	-167.501	-0.054440	0.577459	-0.410533	-0.411864	-0.070775	52.6299	-0.409525	-182659	3.874732E-7	NaN
161	1.000000	0.586826	7.36662e+06	-46689.1	955.818	-29768.9	0.000000	0.000000	6.586985	0.012266	NaN	0.000000	0.001621	0.001674	28.0954	0.056829	0.002065	27.5166	25.0779	-165.807	0.012192	0.585540	-0.402498	-0.403783	0.012266	27.5166	-0.402832	-146679	-8.362588E-8	NaN
161	1.000000	0.594826	7.36662e+06	-46689.1	955.818	-29768.9	0.000000	0.000000	6.594985	-0.003971	NaN	0.000000	0.001621	0.001693	28.0961	0.057698	0.002108	27.3735	126.252	-166.904	-0.064113	0.593479	-0.394497	-0.395845	-0.003971	27.3735	-0.394388	-111147	3.572415E-8	NaN
161	1.000000	0.602807	7.36662e+06	-46689.1	955.819	-29768.9	0.000000	0.000000	6.602967	0.026717	NaN	0.000000	0.001644	0.001695	28.0966	0.083572	0.001955	42.7387	135.099	-161.88	-0.023221	0.601539	-0.386516	-0.387785	0.026717	42.7387	-0.386985	-87099.7	-3.067396E-7	NaN
161	1.000000	0.610820	7.36662e+06	-46689.1	955.818	-29768.9	0.000000	0.000000	6.610979	0.031276	NaN	0.000000	0.001666	0.001700	28.0961	0.068883	0.001795	38.3839	78.2264	-161.752	0.043142	0.609533	-0.378504	-0.379790	0.031276	38.3839	-0.379115	-67171.8	-4.656072E-7	NaN
161	1.000000	0.618829	7.36662e+06	-46689.1	955.818	-29768.9	0.000000	0.000000	6.618983	-0.099051	NaN	0.000000	0.001634	0.001663	28.0965	0.015654	0.001944	8.050485	-168.79	-166.383	-0.161401	0.617484	-0.370495	-0.371840	-0.099051	8.050485	-0.361267	-37166.8	2.665052E-6	NaN
161	1.000000	0.626838	7.36662e+06	-46689.1	955.818	-29768.9	0.000000	0.000000	6.626995	-0.037468	NaN	0.000000	0.001653	0.001680	28.097	0.026387	0.001986	13.2875	-121.536	-165.205	-0.022666	0.625524	-0.362485	-0.363800	-0.037468	13.2875	-0.360370	-36074.3	1.038632E-6	NaN
161	1.000000	0.634851	7.36662e+06	-46689.1	955.818	-29768.9	0.000000	0.000000	6.635008	-0.026507	NaN	0.000000	0.001635	0.001677	28.0974	0.038993	0.001917	20.3413	60.1714	-161.755	-0.031631	0.633551	-0.354473	-0.355772	-0.026507	20.3413	-0.353496	-28687.9	9.239899E-7	NaN
161	1.000000	0.642864	7.36662e+06	-46689.1	955.818	-29768.9	0.000000	0.000000	6.643025	0.061335	NaN	0.000000	0.001622	0.001693	28.0961	0.039733	0.002002	19.8504	94.0041	-165.109	0.035470	0.641512	-0.346459	-0.347811	0.061335	19.8504	-0.348776	-24504.1	-2.503047E-6	NaN
161	1.000000	0.650844	7.36662e+06	-46689.1	955.818	-29768.9	0.000000	0.000000	6.651004	0.022400	NaN	0.000000	0.001651	0.001710	28.0952	0.118750	0.001988	59.7253	-87.99	-162.099	0.033333	0.649521	-0.338479	-0.339802	0.022400	59.7253	-0.338761	-17517.9	-1.278703E-6	NaN
161	1.000000	0.658828	7.36662e+06	-46689.1	955.819	-29768.9	0.000000	0.000000	6.658990	0.079436	NaN	0.000000	0.001642	0.001713	28.0948	0.059418	0.001995	29.7853	175.293	-162.314	-0.024452	0.657535	-0.330496	-0.331788	0.079436	29.7853	-0.332496	-14190	-5.598061E-6	NaN
161	1.000000	0.666850	7.36662e+06	-46689.1	955.819	-29768.9	0.000000	0.000000	6.667009	0.010021	NaN	0.000000	0.001637	0.001699	28.0954	0.118903	0.002061	57.6792	-63.8713	-161.323	0.116867	0.665571	-0.322474	-0.323752	0.010021	57.6792	-0.322604	-10161.1	-9.862451E-7	NaN
161	1.000000	0.674848	7.36662e+06	-46689.1	955.819	-29768.9	0.000000	0.000000	6.675006	-0.022624	NaN	0.000000	0.001643	0.001705	28.0968	0.055635	0.002101	26.4767	-111.369	-167.955	0.037955	0.673544	-0.314475	-0.315779	-0.022624	26.4767	-0.313834	-7546.38	2.998023E-6	NaN
161	1.000000	0.682882	7.36662e+06	-46689.1	955.818	-29768.9	0.000000	0.000000	6.683038	-0.045671	NaN	0.000000	0.001638	0.001689	28.0963	0.078797	0.002038	38.6679	102.254	-164.604	-0.079967	0.681560	-0.306442	-0.307763	-0.045671	38.6679	-0.305556	-5691.24	8.024830E-6	NaN
161	1.000000	0.690873	7.36662e+06	-46689.1	955.818	-29768.9	0.000000	0.000000	6.691032	0.018130	NaN	0.000000	0.001637	0.001723	28.0968	0.094224	0.002004	47.0289	128.891	-163.941	0.020547	0.689516	-0.298451	-0.299808	0.018130	47.0289	-0.298740	-4506.85	-4.022838E-6	NaN
161	1.000000	0.698875	7.36662e+06	-46689.1	955.819	-29768.9	0.000000	0.000000	6.699034	0.008480	NaN	0.000000	0.001616	0.001638	28.0964	0.085050	0.002138	39.7878	46.0131	-163.773	-0.010563	0.697547	-0.290448	-0.291776	0.008480	39.7878	-0.290608	-3407.32	-2.488691E-6	NaN
161	1.000000	0.706862	7.36662e+06	-46689.1	955.819	-29768.9	0.000000	0.000000	6.707020	-0.028953	NaN	0.000000	0.001629	0.001711	28.0976	0.067163	0.001976	33.9839	-63.0365	-168.267	-0.008733	0.705593	-0.282461	-0.283731	-0.028953	33.9839	-0.281822	-2514.44	1.151475E-5	NaN
161	1.000000	0.714878	7.36662e+06	-46689.1	955.819	-29768.9	0.000000	0.000000	6.715034	-0.062637	NaN	0.000000	0.001637	0.001718	28.0978	0.084796	0.002033	41.7175	139.916	-165.702	0.008172	0.713606	-0.274446	-0.275717	-0.062637	41.7175	-0.273320	-1870.43	3.348777E-5	NaN
161	1.000000	0.722886	7.36662e+06	-46689.1	955.819	-29768.9	0.000000	0.000000	6.723044	-0.026404	NaN	0.000000	0.001613	0.001699	28.0968	0.100562	0.001978	50.8431	119.633	-166.395	0.032159	0.721555	-0.266437	-0.267768	-0.026404	50.8431	-0.266048	-1450.02	1.820935E-5	NaN
161	1.000000	0.730879	7.36662e+06	-46689.1	955.818	-29768.9	0.000000	0.000000	6.731039	0.035147	NaN	0.000000	0.001615	0.001688	28.0975	0.017423	0.001836	9.487159	122.399	-164.424	0.123331	0.729495	-0.258444	-0.259829	0.035147	9.487159	-0.261223	-1223.62	-2.872359E-5	NaN
161	1.000000	0.738858	7.36662e+06	-46689.1	955.818	-29768.9	0.000000	0.000000	6.739018	0.019962	NaN	0.000000	0.001645	0.001662	28.0962	0.105711	0.002145	49.2775	68.561	-163.051	-0.075783	0.737574	-0.250465	-0.251750	0.019962	49.2775	-0.250769	-844.995	-2.362375E-5	NaN
161	1.000000	0.746895	7.36662e+06	-46689.1	955.818	-29768.9	0.000000	0.000000	6.747053	0.001191	NaN	0.000000	0.001636	0.001668	28.0968	0.034458	0.002020	17.0602	143.86	-165.062	-0.050448	0.745569	-0.242429	-0.243755	0.001191	17.0602	-0.242481	-628.433	-1.894478E-6	NaN
161	1.000000	0.754901	7.36662e+06	-46689.1	955.818	-29768.9	0.000000	0.000000	6.755059	0.004001	NaN	0.000000	0.001633	0.001660	28.0964	0.137405	0.002032	67.6361	22.9159	-165.038	-0.020106	0.753577	-0.234423	-0.235747	0.004001	67.6361	-0.234467	-470.846	-8.497049E-6	NaN
161	1.000000	0.762906	7.36662e+06	-46689.1	955.818	-29768.9	0.000000	0.000000	6.763065	0.019066	NaN	0.000000	0.001632	0.001643	28.0957	0.085769	0.001979	43.3399	102.614	-163.055	0.030649	0.761540	-0.226418	-0.227783	0.019066	43.3399	-0.226748	-355.684	-5.360423E-5	NaN
161	1.000000	0.770916	7.36662e+06	-46689.1	955.818	-29768.9	0.000000	0.000000	6.771076	0.026825	NaN	0.000000	0.001621	0.001669	28.0972	0.130679	0.002058	63.4873	163.392	-163.208	-0.029008	0.769555	-0.218407	-0.219768	0.026825	63.4873	-0.218724	-265.017	-0.000101	NaN
161	1.000000	0.778903	7.36662e+06	-46689.1	955.818	-29768.9	0.000000	0.000000	6.779063	0.042528	NaN	0.000000	0.001664	0.001633	28.0975	0.056405	0.002017	27.9613	48.3362	-164.63	0.073975	0.777559	-0.210421	-0.211764	0.042528	27.9613	-0.211561	-203.271	-0.000209	NaN
161	1.000000	0.786890	7.36662e+06	-46689.1	955.818	-29768.9	0.000000	0.000000	6.787049	0.006521	NaN	0.000000	0.001639	0.001626	28.0973	0.114503	0.002127	53.8385	37.0208	-164.41	-0.008139	0.785644	-0.202433	-0.203679	0.006521	53.8385	-0.202524	-144.91	-4.499722E-5	NaN
161	1.000000	0.794904	7.36662e+06	-46689.1	955.819	-29768.9	0.000000	0.000000	6.795062	-0.019784	NaN	0.000000	0.001579	0.001670	28.0975	0.106339	0.002059	51.6542	-35.8286	-164.68	0.032959	0.793595	-0.194420	-0.195728	-0.019784	51.6542	-0.194132	-105.394	0.000188	NaN
161	1.000000	0.802918	7.36662e+06	-46689.1	955.819	-29768.9	0.000000	0.000000	6.803075	-0.031629	NaN	0.000000	0.001641	0.001625	28.0969	0.094436	0.002021	46.7263	48.7085	-168.293	0.030393	0.801587	-0.186406	-0.187736	-0.031629	46.7263	-0.185898	-76.7814	0.000412	NaN
161	1.000000	0.810897	7.36662e+06	-46689.1	955.819	-29768.9	0.000000	0.000000	6.811057	0.026473	NaN	0.000000	0.001610	0.001648	28.0959	0.032719	0.002076	15.7606	-135.43	-165.669	0.085715	0.809573	-0.178426	-0.179750	0.026473	15.7606	-0.179686	-60.2735	-0.000439	NaN
161	1.000000	0.818918	7.36662e+06	-46689.1	955.818	-29768.9	0.000000	0.000000	6.819074	-0.071392	NaN	0.000000	0.001617	0.001640	28.0946	0.073535	0.001965	37.4139	-105.359	-161.523	-0.086900	0.817622	-0.170406	-0.171701	-0.071392	37.4139	-0.168974	-39.4262	0.001811	NaN
161	1.000000	0.826887	7.36662e+06	-46689.1	955.818	-29768.9	0.000000	0.000000	6.827046	0.007680	NaN	0.000000	0.001608	0.001632	28.0943	0.158688	0.002031	78.1361	125.739	-166.543	-0.006093	0.825613	-0.162437	-0.163710	0.007680	78.1361	-0.162510	-30.371	-0.000253	NaN
161	1.000000	0.834902	7.36662e+06	-46689.1	955.818	-29768.9	0.000000	0.000000	6.835060	-0.009706	NaN	0.000000	0.001626	0.001619	28.0947	0.045228	0.002028	22.3068	87.4716	-165.315	-0.032444	0.833555	-0.154422	-0.155768	-0.009706	22.3068	-0.154095	-21.4922	0.000452	NaN
161	1.000000	0.842931	7.36662e+06	-46689.1	955.818	-29768.9	0.000000	0.000000	6.843092	0.053574	NaN	0.000000	0.001627	0.001640	28.0954	0.112678	0.002075	54.298	107.271	-163.557	0.076741	0.841595	-0.146392	-0.147728	0.053574	54.298	-0.147132	-16.0507	-0.003338	NaN
161	1.000000	0.850940	7.36662e+06	-46689.1	955.819	-29768.9	0.000000	0.000000	6.851097	-0.023610	NaN	0.000000	0.001647	0.001632	28.0952	0.042366	0.002045	20.7142	-129.992	-165.821	-0.025828	0.849586	-0.138384	-0.139737	-0.023610	20.7142	-0.137529	-10.626	0.002222	NaN
161	1.000000	0.858935	7.36662e+06	-46689.1	955.819	-29768.9	0.000000	0.000000	6.859094	0.003019	NaN	0.000000	0.001627	0.001626	28.0963	0.034401	0.001919	17.9244	-153.967	-167.233	0.051193	0.857594	-0.130388	-0.131729	0.003019	17.9244	-0.130515	-7.798267	-0.000387	NaN
161	1.000000	0.866930	7.36662e+06	-46689.1	955.818	-29768.9	0.000000	0.000000	6.867089	0.024623	NaN	0.000000	0.001641	0.001639	28.097	0.021192	0.001987	10.6655	53.2483	-162.118	-0.031333	0.865627	-0.122394	-0.123697	0.024623	10.6655	-0.124125	-5.843305	-0.004214	NaN
161	1.000000	0.874957	7.36662e+06	-46689.1	955.819	-29768.9	0.000000	0.000000	6.875116	0.002286	NaN	0.000000	0.001608	0.001638	28.0964	0.076237	0.001973	38.6363	-107.755	-163.906	-0.020256	0.873611	-0.114366	-0.115713	0.002286	38.6363	-0.114410	-3.714798	-0.000615	NaN
161	1.000000	0.882937	7.36662e+06	-46689.1	955.818	-29768.9	0.000000	0.000000	6.883097	0.014053	NaN	0.000000	0.001619	0.001636	28.0957	0.085878	0.001980	43.3805	-34.3154	-168.222	0.087619	0.881604	-0.106386	-0.107720	0.014053	43.3805	-0.106629	-2.548129	-0.005515	NaN
161	1.000000	0.890946	7.36662e+06	-46689.1	955.819	-29768.9	0.000000	0.000000	6.891106	0.032527	NaN	0.000000	0.001651	0.001630	28.0944	0.042389	0.001991	21.2925	-10.6886	-166.236	0.091656	0.889673	-0.098378	-0.099651	0.032527	21.2925	-0.099524	-1.783190	-0.018241	NaN
161	1.000000	0.898940	7.36662e+06	-46689.1	955.818	-29768.9	0.000000	0.000000	6.899101	0.053777	NaN	0.000000	0.001613	0.001662	28.0944	0.115985	0.002090	55.4905	20.2063	-162.534	0.056534	0.897625	-0.090384	-0.091698	0.053777	55.4905	-0.091110	-1.147588	-0.046861	NaN
161	1.000000	0.906946	7.36662e+06	-46689.1	955.819	-29768.9	0.000000	0.000000	6.907103	-0.036823	NaN	0.000000	0.001633	0.001702	28.0941	0.092848	0.001850	50.2	48.5061	-165.611	-0.013656	0.905682	-0.082378	-0.083642	-0.036823	50.2	-0.081827	-0.687232	0.053582	NaN
161	1.000000	0.914948	7.36662e+06	-46689.1	955.818	-29768.9	0.000000	0.000000	6.915106	-0.001370	NaN	0.000000	0.001623	0.001698	28.0955	0.081533	0.002037	40.0188	150.524	-158.836	0.042903	0.913620	-0.074376	-0.075704	-0.001370	40.0188	-0.074350	-0.444297	0.003084	NaN
161	1.000000	0.922975	7.36662e+06	-46689.1	955.818	-29768.9	0.000000	0.000000	6.923133	-0.031824	NaN	0.000000	0.001600	0.001652	28.0944	0.134549	0.001910	70.4275	-111.765	-163.958	0.037105	0.921634	-0.066348	-0.067689	-0.031824	70.4275	-0.066009	-0.265752	0.119752	NaN
161	1.000000	0.930973	7.36662e+06	-46689.1	955.819	-29768.9	0.000000	0.000000	6.931129	-0.059902	NaN	0.000000	0.001607	0.001621	28.0961	0.124528	0.002042	60.9801	149.221	-166.23	-0.007860	0.929648	-0.058351	-0.059676	-0.059902	60.9801	-0.057614	-0.153652	0.389853	NaN
161	1.000000	0.938989	7.36662e+06	-46689.1	955.819	-29768.9	0.000000	0.000000	6.939147	0.001960	NaN	0.000000	0.001614	0.001631	28.0969	0.124812	0.001956	63.7998	-163.205	-165.182	-0.005020	0.937578	-0.050335	-0.051746	0.001960	63.7998	-0.050358	-0.093551	-0.020952	NaN
161	1.000000	0.946982	7.36662e+06	-46689.1	955.819	-29768.9	0.000000	0.000000	6.947138	-0.060953	NaN	0.000000	0.001626	0.001631	28.0956	0.054762	0.001892	28.9446	-125.845	-165.791	-0.068656	0.945699	-0.042341	-0.043624	-0.060953	28.9446	-0.040762	-0.047700	1.277837	NaN
161	1.000000	0.954981	7.36662e+06	-46689.1	955.818	-29768.9	0.000000	0.000000	6.955141	0.023648	NaN	0.000000	0.001606	0.001635	28.0968	0.008834	0.001922	4.595677	-157.364	-168.627	0.038292	0.953637	-0.034342	-0.035687	0.023648	4.595677	-0.038202	-0.039897	-0.592721	NaN
161	1.000000	0.962975	7.36662e+06	-46689.1	955.819	-29768.9	0.000000	0.000000	6.963132	-0.041326	NaN	0.000000	0.001602	0.001666	28.0977	0.048184	0.001988	24.233	35.6992	-163.11	0.012646	0.961624	-0.026349	-0.027699	-0.041326	24.233	-0.025070	-0.016941	2.439366	NaN
161	1.000000	0.970965	7.36662e+06	-46689.1	955.818	-29768.9	0.000000	0.000000	6.971124	0.010634	NaN	0.000000	0.001687	0.001651	28.0949	0.073972	0.001958	37.7761	40.4741	-164.311	0.033760	0.969648	-0.018358	-0.019675	0.010634	37.7761	-0.018570	-0.011547	-0.920948	NaN
161	1.000000	0.978974	7.36662e+06	-46689.1	955.818	-29768.9	0.000000	0.000000	6.979133	0.019701	NaN	0.000000	0.001590	0.001630	28.0952	0.150737	0.002030	74.2714	-149.805	-165.528	-0.040609	0.977687	-0.010350	-0.011636	0.019701	74.2714	-0.010549	-0.006701	-2.940175	NaN
161	1.000000	0.987004	7.36662e+06	-46689.1	955.818	-29768.9	0.000000	0.000000	6.987161	-0.038614	NaN	0.000000	0.001605	0.001624	28.0953	0.060021	0.002106	28.5059	36.2029	-164.841	-0.036887	0.985651	-0.002320	-0.003672	-0.038614	28.5059	-0.001304	-0.000950	40.6253	NaN
161	1.000000	0.994919	7.36662e+06	-46689.1	955.819	-29768.9	0.000000	0.000000	6.995367	7.046947	NaN	0.000000	0.001603	0.001642	28.0949	6.923005	0.001791	3864.47	13.6262	-171.753	5.133877	0.993639	0.005596	0.004316	7.046947	3864.47	0.004228	0.003440	2048.67	60200.3
161	2.000000	0.998516	7.36662e+06	-46689.1	955.818	-29768.9	0.000000	0.000000	6.999111	10.615	NaN	0.000000	0.001610	0.001635	28.0956	10.415	0.001758	5923.32	6.721287	-173.273	9.642127	0.998247	0.009192	0.008924	10.615	5923.32	0.007848	0.006887	1541.41	65213.5
161	2.000000	1.000502	7.36662e+06	-46689.1	955.819	-29768.9	0.000000	0.000000	7.001212	13.4132	NaN	0.000000	0.001581	0.001647	28.0961	11.9877	0.001779	6737.98	10.5023	-176.05	13.0105	1.000206	0.011179	0.010883	13.4132	6737.98	0.009686	0.008835	1518.26	65495.1
161	2.000000	1.002493	7.36662e+06	-46689.1	955.818	-29768.9	0.000000	0.000000	7.003294	15.6267	NaN	0.000000	0.001611	0.001618	28.0947	14.2001	0.001877	7564.79	7.670046	-173.82	15.8476	1.002141	0.013169	0.012818	15.6267	7564.79	0.011620	0.011038	1415.71	65784.4
161	2.000000	1.004517	7.36662e+06	-46689.1	955.818	-29768.9	0.000000	0.000000	7.005507	20.2058	NaN	0.000000	0.001638	0.001637	28.0962	16.012	0.001762	9086.21	2.894983	-170.262	20.3735	1.004211	0.015194	0.014888	20.2058	9086.21	0.013526	0.013370	1511.3	71794.9
161	2.000000	1.006445	7.36662e+06	-46689.1	955.818	-29768.9	0.000000	0.000000	7.007520	22.293	NaN	0.000000	0.001628	0.001637	28.0954	17.1613	0.001649	10408	4.968299	-175.033	21.7522	1.006143	0.017121	0.016820	22.293	10408	0.015515	0.015978	1395.24	75228.7
161	2.000000	1.008420	7.36662e+06	-46689.1	955.818	-29768.9	0.000000	0.000000	7.009657	26.2359	NaN	0.000000	0.001630	0.001631	28.0968	19.8399	0.001803	11004.7	7.493129	-176.849	25.5102	1.008171	0.019096	0.018848	26.2359	11004.7	0.017308	0.018488	1419.1	73945.4
161	2.000000	1.010413	7.36662e+06	-46689.1	955.817	-29768.9	0.000000	0.000000	7.011853	31.1698	NaN	0.000000	0.001609	0.001636	28.0947	21.2829	0.001734	12273	0.872346	-173.824	28.7887	1.010097	0.021090	0.020773	31.1698	12273	0.019185	0.021278	1464.91	76870.7
161	2.000000	1.012467	7.36662e+06	-46689.1	955.817	-29768.9	0.000000	0.000000	7.014092	35.655	NaN	0.000000	0.001629	0.001664	28.0946	24.0228	0.001761	13639.3	9.846796	-179.919	36.7608	1.012123	0.023144	0.022799	35.655	13639.3	0.021183	0.024436	1459.12	79716.9
161	2.000000	1.014463	7.36662e+06	-46689.1	955.818	-29768.9	0.000000	0.000000	7.016328	41.5143	NaN	0.000000	0.001592	0.001611	28.0938	25.5152	0.001684	15153.9	3.148795	-175.889	41.1413	1.014123	0.025139	0.024799	41.5143	15153.9	0.023085	0.027623	1502.9	83303.7
161	2.000000	1.016453	7.36662e+06	-46689.1	955.817	-29768.9	0.000000	0.000000	7.018582	47.9267	NaN	0.000000	0.001686	0.001640	28.0941	28.0348	0.001780	15748.6	7.087638	179.995	48.1379	1.016092	0.027130	0.026768	47.9267	15748.6	0.024847	0.030739	1559.16	82067.9
161	2.000000	1.018437	7.36662e+06	-46689.1	955.818	-29768.9	0.000000	0.000000	7.020686	50.8309	NaN	0.000000	0.001675	0.001621	28.0949	30.6152	0.001782	17180.3	7.920255	177.544	51.2597	1.018150	0.029114	0.028826	50.8309	17180.3	0.026895	0.034553	1471.09	84442.2
161	2.000000	1.020321	7.36662e+06	-46689.1	955.817	-29768.9	0.000000	0.000000	7.023021	61.8083	NaN	0.000000	0.001671	0.001658	28.0953	31.6169	0.001698	18625.1	5.078120	179.592	57.24	1.020056	0.030998	0.030732	61.8083	18625.1	0.028509	0.037710	1639.04	87628.3
161	2.000000	1.022419	7.36662e+06	-46689.1	955.818	-29768.9	0.000000	0.000000	7.025357	67.6149	NaN	0.000000	0.001691	0.001608	28.0937	33.9953	0.001774	19158	4.288530	-179.149	68.3821	1.022123	0.033095	0.032800	67.6149	19158	0.030448	0.041678	1622.31	85737.2
161	2.000000	1.024407	7.36662e+06	-46689.1	955.818	-29768.9	0.000000	0.000000	7.027502	71.426	NaN	0.000000	0.001676	0.001632	28.0953	36.9402	0.001892	19522.9	6.279609	178.881	69.4006	1.024130	0.035084	0.034806	71.426	19522.9	0.032340	0.045733	1561.82	83407.2
161	2.000000	1.026382	7.36662e+06	-46689.1	955.818	-29768.9	0.000000	0.000000	7.029883	81.2861	NaN	0.000000	0.001656	0.001603	28.0931	38.0337	0.001798	21156.3	3.488321	-179.616	80.4376	1.025990	0.037059	0.036666	81.2861	21156.3	0.034177	0.049848	1630.69	86574.7
161	2.000000	1.028396	7.36662e+06	-46689.1	955.818	-29768.9	0.000000	0.000000	7.032062	85.3166	NaN	0.000000	0.001644	0.001640	28.095	40.9137	0.001842	22207.1	3.759472	-179.599	85.1445	1.028099	0.039072	0.038776	85.3166	22207.1	0.036191	0.054555	1563.86	86865.6
161	2.000000	1.030387	7.36662e+06	-46689.1	955.818	-29768.9	0.000000	0.000000	7.034391	93.5389	NaN	0.000000	0.001645	0.001628	28.0944	41.3704	0.001814	22812.2	8.147256	175.424	92.8035	1.030039	0.041064	0.040715	93.5389	22812.2	0.037989	0.058933	1587.2	85853.8
161	2.000000	1.032366	7.36662e+06	-46689.1	955.818	-29768.9	0.000000	0.000000	7.036801	104.022	NaN	0.000000	0.001663	0.001619	28.0927	43.8877	0.001683	26070.6	2.633530	-179.823	102.082	1.031994	0.043043	0.042670	104.022	26070.6	0.040050	0.064158	1621.34	94036.9
161	2.000000	1.034450	7.36662e+06	-46689.1	955.818	-29768.9	0.000000	0.000000	7.039159	110.688	NaN	0.000000	0.001647	0.001640	28.093	46.3534	0.001798	25778.1	6.123417	175.791	111.442	1.034080	0.045126	0.044756	110.688	25778.1	0.041906	0.069046	1603.11	89630.2
161	2.000000	1.036374	7.36662e+06	-46689.1	955.817	-29768.9	0.000000	0.000000	7.041391	118.173	NaN	0.000000	0.001660	0.001616	28.0918	48.484	0.001863	26027.8	5.793924	176.303	118.327	1.036041	0.047050	0.046717	118.173	26027.8	0.043645	0.073788	1601.52	87542.2
161	2.000000	1.038417	7.36662e+06	-46689.1	955.817	-29768.9	0.000000	0.000000	7.043770	126.358	NaN	0.000000	0.001622	0.001589	28.0927	50.1485	0.001915	26194	3.906851	178.697	126.132	1.038068	0.049093	0.048744	126.358	26194	0.045475	0.078943	1600.62	85176.2
161	2.000000	1.040371	7.36662e+06	-46689.1	955.818	-29768.9	0.000000	0.000000	7.046311	140.639	NaN	0.000000	0.001666	0.001614	28.0953	50.8307	0.001709	29748.4	3.451400	177.77	138.353	1.040048	0.051048	0.050725	140.639	29748.4	0.047502	0.084848	1657.55	93307.2
161	2.000000	1.042328	7.36662e+06	-46689.1	955.818	-29768.9	0.000000	0.000000	7.048772	152.896	NaN	0.000000	0.001629	0.001587	28.094	52.5444	0.001771	29664.2	3.424529	178.243	150.641	1.042037	0.053005	0.052714	152.896	29664.2	0.049139	0.089770	1703.19	90456.4
161	2.000000	1.044390	7.36662e+06	-46689.1	955.818	-29768.9	0.000000	0.000000	7.051115	159.741	NaN	0.000000	0.001587	0.001608	28.0945	56.0147	0.001790	31285.4	5.497375	175.893	159.258	1.044000	0.055066	0.054676	159.741	31285.4	0.051237	0.096274	1659.23	92121.3
161	2.000000	1.046469	7.36662e+06	-46689.1	955.818	-29768.9	0.000000	0.000000	7.053574	168.968	NaN	0.000000	0.001633	0.001573	28.0937	57.215	0.001831	31248.6	6.279648	174.501	173.858	1.046075	0.057145	0.056751	168.968	31248.6	0.053090	0.102202	1653.27	89304.7
161	2.000000	1.048405	7.36662e+06	-46689.1	955.819	-29768.9	0.000000	0.000000	7.056028	181.567	NaN	0.000000	0.001640	0.001586	28.0942	59.6998	0.001828	32666.5	7.517478	173.457	181.655	1.048026	0.059082	0.058703	181.567	32666.5	0.054913	0.108203	1678.02	90731.1
161	2.000000	1.050374	7.36662e+06	-46689.1	955.818	-29768.9	0.000000	0.000000	7.058573	195.573	NaN	0.000000	0.001640	0.001592	28.0921	60.076	0.001751	34315.5	8.315961	172.157	194.981	1.049957	0.061050	0.060634	195.573	34315.5	0.056776	0.114502	1708.03	92652.5
161	2.000000	1.052342	7.36662e+06	-46689.1	955.817	-29768.9	0.000000	0.000000	7.060852	203.15	NaN	0.000000	0.001635	0.001627	28.0923	62.7626	0.001786	35143.2	5.943393	174.096	202.26	1.052098	0.063018	0.062774	203.15	35143.2	0.058683	0.121127	1677.16	92256
161	2.000000	1.054422	7.36662e+06	-46689.1	955.817	-29768.9	0.000000	0.000000	7.063589	219.127	NaN	0.000000	0.001681	0.001607	28.0944	65.2566	0.001798	36304	9.455030	169.796	217.957	1.054068	0.065098	0.064744	219.127	36304	0.060572	0.127866	1713.73	92758
161	2.000000	1.056377	7.36662e+06	-46689.1	955.819	-29768.9	0.000000	0.000000	7.065935	228.659	NaN	0.000000	0.001616	0.001597	28.0943	65.649	0.001760	37291.8	1.666664	177.521	229.08	1.056147	0.067053	0.066823	228.659	37291.8	0.062454	0.134756	1696.83	92813.6
161	2.000000	1.058327	7.36662e+06	-46689.1	955.817	-29768.9	0.000000	0.000000	7.068452	242.407	NaN	0.000000	0.001576	0.001586	28.093	68.5197	0.001861	36823.1	5.183056	174.081	240.246	1.058085	0.069004	0.068762	242.407	36823.1	0.064067	0.140794	1721.72	89660.6
161	2.000000	1.060336	7.36662e+06	-46689.1	955.818	-29768.9	0.000000	0.000000	7.071058	256.928	NaN	0.000000	0.001594	0.001649	28.0945	69.5927	0.001796	38742.3	4.552971	173.96	255.313	1.060071	0.071013	0.070748	256.928	38742.3	0.066039	0.148350	1731.9	91899.8
161	2.000000	1.062295	7.36662e+06	-46689.1	955.818	-29768.9	0.000000	0.000000	7.073833	276.79	NaN	0.000000	0.001581	0.001612	28.0944	71.6304	0.001779	40268	4.401653	174.711	273.094	1.061974	0.072972	0.072651	276.79	40268	0.067817	0.155320	1782.06	93351.2
161	2.000000	1.064365	7.36662e+06	-46689.1	955.818	-29768.9	0.000000	0.000000	7.076329	287.147	NaN	0.000000	0.001583	0.001606	28.0946	74.1326	0.001770	41891.8	4.230118	174.401	285.999	1.064050	0.075042	0.074727	287.147	41891.8	0.069901	0.163686	1754.26	94601.2
161	2.000000	1.066294	7.36662e+06	-46689.1	955.818	-29768.9	0.000000	0.000000	7.079009	305.434	NaN	0.000000	0.001592	0.001602	28.0959	74.5159	0.001716	43413.8	4.652221	174.54	301.911	1.065937	0.076970	0.076614	305.434	43413.8	0.071694	0.171047	1785.68	95905.6
161	2.000000	1.068385	7.36662e+06	-46689.1	955.819	-29768.9	0.000000	0.000000	7.081641	318.584	NaN	0.000000	0.001580	0.001626	28.0952	78.0619	0.001778	43906.7	7.615790	171.406	317.978	1.067890	0.079062	0.078567	318.584	43906.7	0.073620	0.179123	1778.58	94782.6
161	2.000000	1.070314	7.36662e+06	-46689.1	955.819	-29768.9	0.000000	0.000000	7.083908	326.823	NaN	0.000000	0.001569	0.001624	28.0942	77.0216	0.001671	46092.9	1.257726	176.659	325.989	1.070031	0.080990	0.080708	326.823	46092.9	0.075672	0.187925	1739.12	97143.8
161	2.000000	1.072252	7.36662e+06	-46689.1	955.818	-29768.9	0.000000	0.000000	7.086542	343.748	NaN	0.000000	0.001578	0.001590	28.0938	81.1766	0.001800	45091.7	2.963827	174.959	338.341	1.071922	0.082929	0.082599	343.748	45091.7	0.077211	0.194653	1765.96	93377
161	2.000000	1.074329	7.36662e+06	-46689.1	955.82	-29768.9	0.000000	0.000000	7.089504	365.278	NaN	0.000000	0.001604	0.001592	28.0935	83.0734	0.001855	44771.7	3.428808	175.37	361.843	1.073919	0.085005	0.084595	365.278	44771.7	0.078886	0.202104	1807.38	90989.3
161	2.000000	1.076317	7.36662e+06	-46689.1	955.819	-29768.9	0.000000	0.000000	7.092003	377.704	NaN	0.000000	0.001570	0.001602	28.0932	83.1405	0.001762	47174.6	0.467250	177.41	374.29	1.076108	0.086994	0.086784	377.704	47174.6	0.080989	0.211639	1784.66	93687.9
161	2.000000	1.078272	7.36662e+06	-46689.1	955.819	-29768.9	0.000000	0.000000	7.094499	390.877	NaN	0.000000	0.001566	0.001617	28.0934	85.9241	0.001825	47075.3	1.998291	175.707	387.754	1.078095	0.088948	0.088772	390.877	47075.3	0.082721	0.219649	1779.56	91770.3
161	2.000000	1.080274	7.36662e+06	-46689.1	955.819	-29768.9	0.000000	0.000000	7.097554	416.485	NaN	0.000000	0.001561	0.001664	28.0951	86.8735	0.001626	53417.3	2.693444	173.941	411.756	1.079931	0.090950	0.090608	416.485	53417.3	0.085103	0.230892	1803.81	101567
161	2.000000	1.082380	7.36662e+06	-46689.1	955.819	-29768.9	0.000000	0.000000	7.099947	423.448	NaN	0.000000	0.001569	0.001642	28.095	89.482	0.001811	49410.1	4.724406	173.192	425.201	1.081987	0.093057	0.092664	423.448	49410.1	0.086629	0.238236	1777.43	92488
161	2.000000	1.084382	7.36662e+06	-46689.1	955.819	-29768.9	0.000000	0.000000	7.102866	445.766	NaN	0.000000	0.001584	0.001671	28.0945	90.0516	0.001701	52943.2	1.575247	175.518	444.022	1.083991	0.095059	0.094667	445.766	52943.2	0.088744	0.248585	1793.22	97016.6
161	2.000000	1.086276	7.36662e+06	-46689.1	955.819	-29768.9	0.000000	0.000000	7.105325	459.517	NaN	0.000000	0.001576	0.001657	28.0941	92.6841	0.001778	52122.2	5.528273	171.488	455.911	1.085912	0.096952	0.096589	459.517	52122.2	0.090340	0.256533	1791.26	94020.9
161	2.000000	1.088300	7.36662e+06	-46689.1	955.819	-29768.9	0.000000	0.000000	7.108000	475.341	NaN	0.000000	0.001574	0.001636	28.0926	93.401	0.001671	55880.3	-1.843747	178.313	472.79	1.087983	0.098976	0.098659	475.341	55880.3	0.092596	0.267967	1773.88	98626.1
161	2.000000	1.090306	7.36662e+06	-46689.1	955.819	-29768.9	0.000000	0.000000	7.110595	489.672	NaN	0.000000	0.001552	0.001642	28.0922	94.8279	0.001674	56632.2	1.633860	174.98	486.079	1.090065	0.100983	0.100741	489.672	56632.2	0.094498	0.277783	1762.78	98171.1
161	2.000000	1.092152	7.36662e+06	-46689.1	955.82	-29768.9	0.000000	0.000000	7.113171	507.417	NaN	0.000000	0.001619	0.001644	28.0933	99.0026	0.001816	54530.9	2.701172	173.781	500.01	1.091810	0.102829	0.102487	507.417	54530.9	0.095850	0.284866	1781.25	93346.1
161	2.000000	1.094399	7.36662e+06	-46689.1	955.819	-29768.9	0.000000	0.000000	7.116009	521.798	NaN	0.000000	0.001608	0.001626	28.0915	102.124	0.001789	57090.8	5.451710	171.532	523.299	1.094016	0.105075	0.104692	521.798	57090.8	0.098220	0.297479	1754.06	95633.6
161	2.000000	1.095177	7.36662e+06	-46689.1	955.82	-29768.9	0.000000	0.000000	7.117339	535.216	NaN	0.000000	0.001583	0.001655	28.1007	102.638	0.001799	57055.2	2.352219	174.643	526.561	1.094967	0.105854	0.105643	535.216	57055.2	0.098818	0.300702	1779.89	95060.5