File: remote_trans/data/nanoindenter/0828-1/data/Data_2025-08-06,11h17m57s/2025-07-22_16-23-58_1_1011.txt
2025-07-22, 16:23:58, 1
Index	Phase	Displacement	Time	Pos X	Pos Y	Pos Z	Rot A	Rot B	Piezo Z	Force A	Force B	Gripper	Voltage A	Voltage B	Temperature	Amplitude force	Amplitude pos	Stiffness	Phase shift	Phase excitation	Force A raw	Displacement raw	HMax	HMax raw	Real Force	Real Stiffness	Contact Depth	Area	Hardness	Reduced Mod.
[#]	[#]	[um]	[s]	[um]	[um]	[um]	[m°]	[m°]	[um]	[uN]	[uN]	[V]	[V]	[V]	[°C]	[uN]	[um]	[N/m]	[°]	[°]	[uN]	[um]	[um]	[um]	[uN]	[N/m]	[um]	[um^2]	[MPa]	[MPa]
1011	1.000000	0.002279	7.37494e+06	-50689.1	1055.82	-29754.8	0.000000	0.000000	6.002774	0.025454	NaN	0.000000	0.001628	0.001727	28.0835	0.064358	0.000948	67.8669	75.7465	-163.918	0.044744	0.001060	-1.084743	-1.085963	0.025454	67.8669	-1.085024	-3.154969E+14	-8.067928E-17	NaN
1011	1.000000	0.012357	7.37494e+06	-50689.1	1055.82	-29754.8	0.000000	0.000000	6.012853	0.076555	NaN	0.000000	0.001609	0.001702	28.0835	0.018768	0.001187	15.8123	60.1551	18.139	0.184361	0.010923	-1.074666	-1.076099	0.076555	15.8123	-1.078297	-2.562363E+14	-2.987654E-16	NaN
1011	1.000000	0.022242	7.37494e+06	-50689.1	1055.82	-29754.8	0.000000	0.000000	6.022736	0.008542	NaN	0.000000	0.001546	0.001667	28.0833	0.157790	0.001665	94.744	166.869	-169.22	0.017704	0.020999	-1.064780	-1.066023	0.008542	94.744	-1.064847	-1.690284E+14	-5.053598E-17	NaN
1011	1.000000	0.032279	7.37494e+06	-50689.1	1055.82	-29754.8	0.000000	0.000000	6.032772	-0.005400	NaN	0.000000	0.001557	0.001668	28.0831	0.114852	0.001872	61.3511	122.737	9.899021	0.073817	0.030914	-1.054743	-1.056108	-0.005400	61.3511	-1.054677	-1.233913E+14	4.376076E-17	NaN
1011	1.000000	0.042247	7.37494e+06	-50689.1	1055.82	-29754.8	0.000000	0.000000	6.042740	-0.015557	NaN	0.000000	0.001557	0.001645	28.0835	0.041471	0.001951	21.2527	167.269	-167.252	0.078283	0.040889	-1.044775	-1.046133	-0.015557	21.2527	-1.044226	-8.928772E+13	1.742319E-16	NaN
1011	1.000000	0.052270	7.37494e+06	-50689.1	1055.82	-29754.8	0.000000	0.000000	6.052766	0.057412	NaN	0.000000	0.001559	0.001659	28.0832	0.077291	0.002076	37.2281	-89.557	16.7546	-0.000559	0.050888	-1.034752	-1.036134	0.057412	37.2281	-1.035909	-6.901558E+13	-8.318763E-16	NaN
1011	1.000000	0.062270	7.37494e+06	-50689.1	1055.82	-29754.8	0.000000	0.000000	6.062765	0.041614	NaN	0.000000	0.001559	0.001685	28.0833	0.048100	0.002060	23.3442	-80.0215	-164.79	-0.004273	0.060937	-1.024752	-1.026085	0.041614	23.3442	-1.026089	-5.091841E+13	-8.172611E-16	NaN
1011	1.000000	0.072269	7.37494e+06	-50689.1	1055.82	-29754.8	0.000000	0.000000	6.072764	0.040141	NaN	0.000000	0.001598	0.001672	28.0834	0.070382	0.002036	34.5714	-160.787	12.651	0.030561	0.070857	-1.014754	-1.016165	0.040141	34.5714	-1.015624	-3.681919E+13	-1.090212E-15	NaN
1011	1.000000	0.082263	7.37494e+06	-50689.1	1055.82	-29754.8	0.000000	0.000000	6.082756	-0.018909	NaN	0.000000	0.001583	0.001632	28.0839	0.051869	0.002064	25.1296	173.095	-166.288	0.012964	0.080960	-1.004759	-1.006063	-0.018909	25.1296	-1.004195	-2.583693E+13	7.318404E-16	NaN
1011	1.000000	0.092270	7.37494e+06	-50689.1	1055.82	-29754.8	0.000000	0.000000	6.092764	0.018525	NaN	0.000000	0.001571	0.001659	28.0837	0.052793	0.001902	27.7614	50.3309	13.9254	0.026053	0.090903	-0.994752	-0.996119	0.018525	27.7614	-0.995253	-1.958174E+13	-9.460221E-16	NaN
1011	1.000000	0.102263	7.37494e+06	-50689.1	1055.82	-29754.8	0.000000	0.000000	6.102757	0.010868	NaN	0.000000	0.001527	0.001640	28.0824	0.143855	0.001877	76.6596	-101.402	-166.165	0.006435	0.101002	-0.984759	-0.986020	0.010868	76.6596	-0.984865	-1.418908E+13	-7.659313E-16	NaN
1011	1.000000	0.112257	7.37494e+06	-50689.1	1055.82	-29754.8	0.000000	0.000000	6.112750	-0.000818	NaN	0.000000	0.001539	0.001630	28.0823	0.168139	0.001972	85.2846	151.648	19.4421	0.046668	0.110932	-0.974765	-0.976091	-0.000818	85.2846	-0.974758	-1.037005E+13	7.888948E-17	NaN
1011	1.000000	0.122316	7.37494e+06	-50689.1	1055.82	-29754.8	0.000000	0.000000	6.122808	-0.024706	NaN	0.000000	0.001539	0.001671	28.0823	0.126049	0.002021	62.3636	139.894	-165.187	-0.021088	0.120972	-0.964707	-0.966051	-0.024706	62.3636	-0.964410	-7.521640E+12	3.284603E-15	NaN
1011	1.000000	0.132302	7.37494e+06	-50689.1	1055.82	-29754.8	0.000000	0.000000	6.132796	0.017725	NaN	0.000000	0.001524	0.001660	28.0822	0.014535	0.002062	7.049949	-73.2552	14.5319	-0.012573	0.130942	-0.954721	-0.956081	0.017725	7.049949	-0.956606	-5.903542E+12	-3.002514E-15	NaN
1011	1.000000	0.142289	7.37494e+06	-50689.1	1055.82	-29754.8	0.000000	0.000000	6.142782	0.002716	NaN	0.000000	0.001531	0.001641	28.0824	0.039673	0.001986	19.9723	64.2846	-166.993	-0.090642	0.140995	-0.944734	-0.946027	0.002716	19.9723	-0.944836	-4.096096E+12	-6.630407E-16	NaN
1011	1.000000	0.152263	7.37494e+06	-50689.1	1055.82	-29754.8	0.000000	0.000000	6.152756	0.006966	NaN	0.000000	0.001564	0.001672	28.0825	0.071595	0.001994	35.9045	5.998417	12.5966	-0.055037	0.150920	-0.934759	-0.936102	0.006966	35.9045	-0.934905	-3.008780E+12	-2.315146E-15	NaN
1011	1.000000	0.162319	7.37494e+06	-50689.1	1055.82	-29754.8	0.000000	0.000000	6.162812	0.006915	NaN	0.000000	0.001539	0.001656	28.0824	0.037989	0.001985	19.135	56.1379	-168.29	-0.038261	0.161051	-0.924703	-0.925971	0.006915	19.135	-0.924974	-2.209854E+12	-3.129385E-15	NaN
1011	1.000000	0.172295	7.37494e+06	-50689.1	1055.82	-29754.8	0.000000	0.000000	6.172790	0.037755	NaN	0.000000	0.001524	0.001699	28.0821	0.060806	0.001962	30.9999	-12.162	14.1892	0.022178	0.170997	-0.914727	-0.916025	0.037755	30.9999	-0.915641	-1.653259E+12	-2.283695E-14	NaN
1011	1.000000	0.182301	7.37494e+06	-50689.1	1055.82	-29754.8	0.000000	0.000000	6.182792	-0.039071	NaN	0.000000	0.001537	0.001688	28.0823	0.094547	0.002045	46.2369	83.4781	-167.602	-0.032437	0.181033	-0.904721	-0.905989	-0.039071	46.2369	-0.904088	-1.154235E+12	3.385020E-14	NaN
1011	1.000000	0.192321	7.37494e+06	-50689.1	1055.82	-29754.8	0.000000	0.000000	6.192814	-0.009033	NaN	0.000000	0.001561	0.001668	28.082	0.053470	0.001835	29.1417	138.953	12.4561	0.020910	0.190927	-0.894701	-0.896095	-0.009033	29.1417	-0.894469	-8.556931E+11	1.055679E-14	NaN
1011	1.000000	0.202345	7.37494e+06	-50689.1	1055.82	-29754.8	0.000000	0.000000	6.202839	0.015530	NaN	0.000000	0.001555	0.001675	28.0822	0.052118	0.002019	25.8179	-106.887	-166.766	-0.037258	0.201047	-0.884677	-0.885976	0.015530	25.8179	-0.885128	-6.398072E+11	-2.427263E-14	NaN
1011	1.000000	0.212329	7.37494e+06	-50689.1	1055.82	-29754.8	0.000000	0.000000	6.212823	0.007647	NaN	0.000000	0.001533	0.001661	28.0819	0.082094	0.002034	40.3597	-15.5522	11.6398	0.099432	0.210945	-0.874693	-0.876077	0.007647	40.3597	-0.874835	-4.643601E+11	-1.646787E-14	NaN
1011	1.000000	0.222290	7.37494e+06	-50689.1	1055.82	-29754.8	0.000000	0.000000	6.222783	-0.004717	NaN	0.000000	0.001561	0.001637	28.0823	0.036446	0.002100	17.3564	128.073	-164.835	-0.038801	0.221110	-0.864732	-0.865912	-0.004717	17.3564	-0.864528	-3.368248E+11	1.400312E-14	NaN
1011	1.000000	0.232321	7.37494e+06	-50689.1	1055.82	-29754.8	0.000000	0.000000	6.232812	-0.044842	NaN	0.000000	0.001546	0.001658	28.0823	0.086423	0.001961	44.0733	130.379	17.1963	-0.032684	0.231034	-0.854701	-0.855988	-0.044842	44.0733	-0.853938	-2.421373E+11	1.851909E-13	NaN
1011	1.000000	0.242374	7.37494e+06	-50689.1	1055.82	-29754.8	0.000000	0.000000	6.242865	-0.040272	NaN	0.000000	0.001579	0.001626	28.0836	0.071442	0.002002	35.6939	147.714	-167.293	-0.023510	0.241060	-0.844648	-0.845962	-0.040272	35.6939	-0.843802	-1.765221E+11	2.281430E-13	NaN
1011	1.000000	0.252328	7.37494e+06	-50689.1	1055.82	-29754.8	0.000000	0.000000	6.252821	-0.003173	NaN	0.000000	0.001574	0.001655	28.0835	0.032875	0.002217	14.8297	-166.077	10.7388	-0.011558	0.250967	-0.834694	-0.836056	-0.003173	14.8297	-0.834533	-1.321980E+11	2.400550E-14	NaN
1011	1.000000	0.262322	7.37494e+06	-50689.1	1055.82	-29754.8	0.000000	0.000000	6.262811	-0.101003	NaN	0.000000	0.001567	0.001655	28.0836	0.069616	0.001954	35.6333	-56.0333	-162.896	-0.020946	0.261021	-0.824700	-0.826002	-0.101003	35.6333	-0.822574	-9.101499E+10	1.109737E-12	NaN
1011	1.000000	0.272318	7.37494e+06	-50689.1	1055.82	-29754.8	0.000000	0.000000	6.272810	-0.037132	NaN	0.000000	0.001525	0.001655	28.083	0.146378	0.002084	70.2533	155.154	16.0266	-0.087043	0.270956	-0.814704	-0.816066	-0.037132	70.2533	-0.814308	-7.030923E+10	5.281265E-13	NaN
1011	1.000000	0.282338	7.37494e+06	-50689.1	1055.82	-29754.8	0.000000	0.000000	6.282832	0.021312	NaN	0.000000	0.001583	0.001634	28.0832	0.010098	0.001974	5.115084	35.2011	-165.106	0.002227	0.281079	-0.804684	-0.805943	0.021312	5.115084	-0.807809	-5.739152E+10	-3.713469E-13	NaN
1011	1.000000	0.292364	7.37494e+06	-50689.1	1055.82	-29754.8	0.000000	0.000000	6.292856	-0.018089	NaN	0.000000	0.001578	0.001635	28.0835	0.055353	0.002030	27.2716	53.5889	13.1118	-0.012315	0.291068	-0.794658	-0.795954	-0.018089	27.2716	-0.794161	-3.746179E+10	4.828762E-13	NaN
1011	1.000000	0.302366	7.37494e+06	-50689.1	1055.82	-29754.8	0.000000	0.000000	6.302860	0.017790	NaN	0.000000	0.001610	0.001643	28.0832	0.146505	0.001953	75.02	-102.271	-165.574	0.006451	0.301067	-0.784656	-0.785955	0.017790	75.02	-0.784834	-2.798401E+10	-6.357068E-13	NaN
1011	1.000000	0.312347	7.37494e+06	-50689.1	1055.82	-29754.8	0.000000	0.000000	6.312838	-0.057015	NaN	0.000000	0.001555	0.001633	28.0833	0.024279	0.001976	12.2883	-106.334	14.5004	-0.019443	0.311011	-0.774675	-0.776011	-0.057015	12.2883	-0.771195	-1.826235E+10	3.122022E-12	NaN
1011	1.000000	0.322361	7.37494e+06	-50689.1	1055.82	-29754.8	0.000000	0.000000	6.322855	0.026728	NaN	0.000000	0.001558	0.001673	28.0834	0.074458	0.002134	34.8879	158.101	-164.04	-0.017667	0.321052	-0.764662	-0.765970	0.026728	34.8879	-0.765236	-1.515395E+10	-1.763746E-12	NaN
1011	1.000000	0.332353	7.37494e+06	-50689.1	1055.82	-29754.8	0.000000	0.000000	6.332848	0.046286	NaN	0.000000	0.001547	0.001624	28.0836	0.033148	0.002083	15.9105	-12.7273	14.9171	-0.046028	0.331044	-0.754669	-0.755978	0.046286	15.9105	-0.756851	-1.165352E+10	-3.971885E-12	NaN
1011	1.000000	0.342360	7.37494e+06	-50689.1	1055.82	-29754.8	0.000000	0.000000	6.342852	-0.018962	NaN	0.000000	0.001570	0.001638	28.0834	0.092946	0.002032	45.7489	-110.257	-167.701	-0.020791	0.341083	-0.744662	-0.745939	-0.018962	45.7489	-0.744351	-7.876193E+9	2.407527E-12	NaN
1011	1.000000	0.352381	7.37494e+06	-50689.1	1055.82	-29754.8	0.000000	0.000000	6.352875	0.019792	NaN	0.000000	0.001556	0.001690	28.0835	0.051528	0.002059	25.0301	-49.1191	15.2769	0.046145	0.351019	-0.734641	-0.736003	0.019792	25.0301	-0.735234	-5.917474E+9	-3.344658E-12	NaN
1011	1.000000	0.362362	7.37494e+06	-50689.1	1055.82	-29754.8	0.000000	0.000000	6.362852	-0.078839	NaN	0.000000	0.001560	0.001667	28.0836	0.035480	0.002161	16.4149	-120.125	-164.98	-0.033181	0.361126	-0.724660	-0.725896	-0.078839	16.4149	-0.721058	-3.792278E+9	2.078933E-11	NaN
1011	1.000000	0.372357	7.37494e+06	-50689.1	1055.82	-29754.8	0.000000	0.000000	6.372848	-0.057314	NaN	0.000000	0.001566	0.001659	28.0831	0.084916	0.002076	40.9	50.3567	17.4681	-0.057676	0.371008	-0.714665	-0.716015	-0.057314	40.9	-0.713614	-3.001673E+9	1.909413E-11	NaN
1011	1.000000	0.382410	7.37494e+06	-50689.1	1055.82	-29754.8	0.000000	0.000000	6.382903	-0.014525	NaN	0.000000	0.001561	0.001661	28.0824	0.066453	0.001988	33.4206	174.626	-163.361	0.013334	0.381097	-0.704612	-0.705925	-0.014525	33.4206	-0.704286	-2.239006E+9	6.487248E-12	NaN
1011	1.000000	0.392384	7.37494e+06	-50689.1	1055.82	-29754.8	0.000000	0.000000	6.392874	-0.074649	NaN	0.000000	0.001583	0.001699	28.0822	0.133671	0.001887	70.8442	142.639	12.1524	-0.040549	0.391057	-0.694639	-0.695965	-0.074649	70.8442	-0.693848	-1.612517E+9	4.629351E-11	NaN
1011	1.000000	0.402403	7.37494e+06	-50689.1	1055.82	-29754.8	0.000000	0.000000	6.402899	0.059758	NaN	0.000000	0.001560	0.001659	28.0824	0.131512	0.002089	62.9561	47.6655	-166.357	0.076933	0.401076	-0.684619	-0.685946	0.059758	62.9561	-0.685331	-1.233376E+9	-4.845039E-11	NaN
1011	1.000000	0.412379	7.37494e+06	-50689.1	1055.82	-29754.8	0.000000	0.000000	6.412873	0.019455	NaN	0.000000	0.001541	0.001665	28.0824	0.060591	0.002068	29.3064	166.296	13.0432	0.114906	0.411039	-0.674643	-0.675983	0.019455	29.3064	-0.675141	-8.948371E+8	-2.174133E-11	NaN
1011	1.000000	0.422384	7.37494e+06	-50689.1	1055.82	-29754.8	0.000000	0.000000	6.422879	0.046686	NaN	0.000000	0.001505	0.001666	28.0822	0.133872	0.001977	67.7264	154.172	-167.565	0.035962	0.421168	-0.664639	-0.665854	0.046686	67.7264	-0.665156	-6.532402E+8	-7.146849E-11	NaN
1011	1.000000	0.432422	7.37494e+06	-50689.1	1055.82	-29754.8	0.000000	0.000000	6.432916	0.018155	NaN	0.000000	0.001524	0.001674	28.082	0.035729	0.002035	17.5552	102.818	13.1135	0.013524	0.431045	-0.654601	-0.655977	0.018155	17.5552	-0.655376	-4.798678E+8	-3.783385E-11	NaN
1011	1.000000	0.442443	7.37494e+06	-50689.1	1055.82	-29754.8	0.000000	0.000000	6.442938	0.037098	NaN	0.000000	0.001555	0.001653	28.0824	0.059291	0.001915	30.9648	-174.13	-164.848	-0.013601	0.441039	-0.644579	-0.645983	0.037098	30.9648	-0.645478	-3.510985E+8	-1.056632E-10	NaN
1011	1.000000	0.452413	7.37494e+06	-50689.1	1055.82	-29754.8	0.000000	0.000000	6.452906	-0.007145	NaN	0.000000	0.001536	0.001683	28.0821	0.037410	0.001979	18.9058	-42.094	16.0945	-0.106398	0.451042	-0.634609	-0.635980	-0.007145	18.9058	-0.634325	-2.468380E+8	2.894511E-11	NaN
1011	1.000000	0.462411	7.37494e+06	-50689.1	1055.82	-29754.8	0.000000	0.000000	6.462904	0.009118	NaN	0.000000	0.001576	0.001644	28.0821	0.096233	0.001959	49.1262	113.358	-164.766	-0.063172	0.461093	-0.624611	-0.625929	0.009118	49.1262	-0.624751	-1.823547E+8	-5.000026E-11	NaN
1011	1.000000	0.472403	7.37494e+06	-50689.1	1055.82	-29754.8	0.000000	0.000000	6.472897	0.019569	NaN	0.000000	0.001554	0.001659	28.0823	0.112736	0.001940	58.1068	-45.4796	16.5866	0.006909	0.471117	-0.614619	-0.615906	0.019569	58.1068	-0.614872	-1.333907E+8	-1.467008E-10	NaN
1011	1.000000	0.482405	7.37494e+06	-50689.1	1055.82	-29754.8	0.000000	0.000000	6.482898	-0.004614	NaN	0.000000	0.001522	0.001658	28.0819	0.121454	0.001948	62.3543	-19.7917	-161.608	-0.036927	0.481125	-0.604617	-0.605898	-0.004614	62.3543	-0.604562	-9.622135E+7	4.795162E-11	NaN
1011	1.000000	0.492429	7.37494e+06	-50689.1	1055.82	-29754.8	0.000000	0.000000	6.492919	-0.065239	NaN	0.000000	0.001560	0.001656	28.0824	0.035710	0.001868	19.1182	101.665	13.0072	-0.024410	0.491112	-0.594594	-0.595910	-0.065239	19.1182	-0.592034	-6.467135E+7	1.008773E-9	NaN
1011	1.000000	0.502457	7.37494e+06	-50689.1	1055.82	-29754.8	0.000000	0.000000	6.502950	-0.006328	NaN	0.000000	0.001542	0.001676	28.0822	0.135106	0.001940	69.6533	111.718	-163.738	-0.001640	0.501120	-0.584565	-0.585902	-0.006328	69.6533	-0.584497	-5.090656E+7	1.243026E-10	NaN
1011	1.000000	0.512456	7.37494e+06	-50689.1	1055.82	-29754.8	0.000000	0.000000	6.512947	-0.044185	NaN	0.000000	0.001526	0.001666	28.0838	0.084869	0.002009	42.2516	-170.822	14.6876	-0.014392	0.511143	-0.574566	-0.575880	-0.044185	42.2516	-0.573782	-3.621426E+7	1.220096E-9	NaN
1011	1.000000	0.522470	7.37494e+06	-50689.1	1055.82	-29754.8	0.000000	0.000000	6.522963	-0.001054	NaN	0.000000	0.001534	0.001662	28.0835	0.065656	0.002066	31.7783	-89.3081	-164.832	0.062284	0.521188	-0.564553	-0.565835	-0.001054	31.7783	-0.564528	-2.697729E+7	3.907339E-11	NaN
1011	1.000000	0.532426	7.37494e+06	-50689.1	1055.82	-29754.8	0.000000	0.000000	6.532920	0.029509	NaN	0.000000	0.001498	0.001646	28.0835	0.093280	0.002085	44.7326	149.002	12.0943	-0.011311	0.531108	-0.554596	-0.555915	0.029509	44.7326	-0.555091	-1.997316E+7	-1.477456E-9	NaN
1011	1.000000	0.542471	7.37494e+06	-50689.1	1055.82	-29754.8	0.000000	0.000000	6.542964	-0.013114	NaN	0.000000	0.001530	0.001658	28.0835	0.094706	0.001847	51.2763	-53.089	-168.194	0.007696	0.541137	-0.544551	-0.545885	-0.013114	51.2763	-0.544359	-1.418400E+7	9.245644E-10	NaN
1011	1.000000	0.552452	7.37494e+06	-50689.1	1055.82	-29754.8	0.000000	0.000000	6.552944	-0.010777	NaN	0.000000	0.001509	0.001695	28.0837	0.086669	0.001978	43.8249	-161.395	13.0343	-0.032286	0.551076	-0.534571	-0.535946	-0.010777	43.8249	-0.534386	-1.031506E+7	1.044777E-9	NaN
1011	1.000000	0.562461	7.37494e+06	-50689.1	1055.82	-29754.8	0.000000	0.000000	6.562952	-0.042814	NaN	0.000000	0.001527	0.001652	28.0837	0.130020	0.002000	65.0134	92.239	-162.456	-0.031657	0.561140	-0.524561	-0.525882	-0.042814	65.0134	-0.524067	-7.41562e+06	5.773452E-9	NaN
1011	1.000000	0.572467	7.37494e+06	-50689.1	1055.82	-29754.8	0.000000	0.000000	6.572962	0.039430	NaN	0.000000	0.001484	0.001636	28.0837	0.119232	0.001935	61.6309	141.626	13.3943	0.054551	0.571155	-0.514555	-0.515867	0.039430	61.6309	-0.515035	-5.55288e+06	-7.100881E-9	NaN
1011	1.000000	0.582465	7.37494e+06	-50689.1	1055.82	-29754.8	0.000000	0.000000	6.582960	0.060488	NaN	0.000000	0.001488	0.001637	28.084	0.038227	0.001991	19.2003	150.189	-169.721	0.029930	0.581175	-0.504557	-0.505848	0.060488	19.2003	-0.506920	-4.28063e+06	-1.413075E-8	NaN
1011	1.000000	0.592504	7.37494e+06	-50689.1	1055.82	-29754.8	0.000000	0.000000	6.592999	0.032863	NaN	0.000000	0.001565	0.001651	28.0838	0.082324	0.002025	40.6545	60.3481	12.6606	-0.016858	0.591148	-0.494518	-0.495874	0.032863	40.6545	-0.495124	-2.93071e+06	-1.121317E-8	NaN
1011	1.000000	0.602501	7.37494e+06	-50689.1	1055.82	-29754.8	0.000000	0.000000	6.602992	-0.045131	NaN	0.000000	0.001592	0.001679	28.0839	0.070170	0.002107	33.3073	139.992	-165.557	0.009292	0.601169	-0.484521	-0.485853	-0.045131	33.3073	-0.483505	-2.01642e+06	2.238179E-8	NaN
1011	1.000000	0.612492	7.37494e+06	-50689.1	1055.82	-29754.8	0.000000	0.000000	6.612986	0.030325	NaN	0.000000	0.001525	0.001675	28.0837	0.052842	0.002057	25.6941	-95.3437	13.2623	0.031490	0.611103	-0.474530	-0.475920	0.030325	25.6941	-0.475416	-1.55354e+06	-1.951998E-8	NaN
1011	1.000000	0.622526	7.37494e+06	-50689.1	1055.82	-29754.8	0.000000	0.000000	6.623016	-0.074699	NaN	0.000000	0.001537	0.001712	28.084	0.126629	0.001993	63.5451	-147.415	-162.694	-0.107374	0.621147	-0.464496	-0.465875	-0.074699	63.5451	-0.463615	-1.0612e+06	7.039127E-8	NaN
1011	1.000000	0.632490	7.37494e+06	-50689.1	1055.82	-29754.8	0.000000	0.000000	6.632982	-0.022772	NaN	0.000000	0.001532	0.001707	28.0837	0.031862	0.002004	15.8996	45.0171	12.0176	-0.003109	0.631186	-0.454532	-0.455836	-0.022772	15.8996	-0.453458	-763881	2.981151E-8	NaN
1011	1.000000	0.642494	7.37494e+06	-50689.1	1055.82	-29754.8	0.000000	0.000000	6.642988	0.037203	NaN	0.000000	0.001530	0.001688	28.0838	0.058427	0.002161	27.0395	129.995	-165.428	0.076188	0.641279	-0.444529	-0.445743	0.037203	27.0395	-0.445561	-591283	-6.291838E-8	NaN
1011	1.000000	0.652501	7.37494e+06	-50689.1	1055.82	-29754.8	0.000000	0.000000	6.652993	-0.035572	NaN	0.000000	0.001529	0.001679	28.0827	0.103208	0.001925	53.6248	-150.359	11.2935	0.032977	0.651118	-0.434521	-0.435904	-0.035572	53.6248	-0.434024	-406405	8.752873E-8	NaN
1011	1.000000	0.662481	7.37494e+06	-50689.1	1055.82	-29754.8	0.000000	0.000000	6.662973	-0.040795	NaN	0.000000	0.001507	0.001685	28.0826	0.152988	0.001855	82.4589	2.502163	-164.578	-0.017410	0.661183	-0.424541	-0.425840	-0.040795	82.4589	-0.424170	-294799	1.383825E-7	NaN
1011	1.000000	0.672498	7.37494e+06	-50689.1	1055.82	-29754.8	0.000000	0.000000	6.672993	0.030398	NaN	0.000000	0.001532	0.001691	28.0824	0.081624	0.001951	41.8414	42.9799	14.5546	0.026533	0.671159	-0.414524	-0.415863	0.030398	41.8414	-0.415069	-218994	-1.388070E-7	NaN
1011	1.000000	0.682508	7.37494e+06	-50689.1	1055.82	-29754.8	0.000000	0.000000	6.683005	0.109988	NaN	0.000000	0.001504	0.001689	28.0824	0.100195	0.002047	48.9567	-17.2478	-165.703	0.046308	0.681281	-0.404515	-0.405742	0.109988	48.9567	-0.406200	-163805	-6.714541E-7	NaN
1011	1.000000	0.692493	7.37494e+06	-50689.1	1055.82	-29754.8	0.000000	0.000000	6.692985	-0.028639	NaN	0.000000	0.001529	0.001676	28.0825	0.064033	0.001865	34.3401	-16.9359	11.3633	-0.032910	0.691163	-0.394529	-0.395860	-0.028639	34.3401	-0.393903	-109388	2.618064E-7	NaN
1011	1.000000	0.702510	7.37494e+06	-50689.1	1055.82	-29754.8	0.000000	0.000000	6.703002	-0.021707	NaN	0.000000	0.001553	0.001639	28.0826	0.159495	0.001999	79.7736	43.4149	-165.768	0.069030	0.701204	-0.384513	-0.385818	-0.021707	79.7736	-0.384309	-79740.5	2.722163E-7	NaN
1011	1.000000	0.712529	7.37494e+06	-50689.1	1055.82	-29754.8	0.000000	0.000000	6.713019	-0.061062	NaN	0.000000	0.001569	0.001682	28.0824	0.035702	0.002093	17.0541	80.7889	12.6605	0.035423	0.711153	-0.374494	-0.375869	-0.061062	17.0541	-0.371808	-52742.7	1.157731E-6	NaN
1011	1.000000	0.722546	7.37494e+06	-50689.1	1055.82	-29754.8	0.000000	0.000000	6.723036	-0.073527	NaN	0.000000	0.001564	0.001698	28.0828	0.094172	0.001982	47.5089	108.51	-165.046	-0.025410	0.721238	-0.364476	-0.365784	-0.073527	47.5089	-0.363315	-39786.7	1.848036E-6	NaN
1011	1.000000	0.732522	7.37494e+06	-50689.1	1055.82	-29754.8	0.000000	0.000000	6.733015	-0.001625	NaN	0.000000	0.001568	0.001645	28.0826	0.045151	0.001998	22.6014	-26.4515	15.1124	-0.015904	0.731226	-0.354500	-0.355796	-0.001625	22.6014	-0.354446	-29612.7	5.488886E-8	NaN
1011	1.000000	0.742550	7.37494e+06	-50689.1	1055.82	-29754.8	0.000000	0.000000	6.743043	0.003730	NaN	0.000000	0.001553	0.001679	28.0827	0.033604	0.001997	16.8298	-30.2768	-167.615	-0.028565	0.741213	-0.344473	-0.345809	0.003730	16.8298	-0.344639	-21335.5	-1.748442E-7	NaN
1011	1.000000	0.752512	7.37494e+06	-50689.1	1055.82	-29754.8	0.000000	0.000000	6.753006	0.017470	NaN	0.000000	0.001571	0.001675	28.0826	0.032837	0.002187	15.017	136.114	11.2181	-0.000799	0.751227	-0.334511	-0.335795	0.017470	15.017	-0.335383	-15638.1	-1.117131E-6	NaN
1011	1.000000	0.762536	7.37494e+06	-50689.1	1055.82	-29754.8	0.000000	0.000000	6.763032	0.058709	NaN	0.000000	0.001531	0.001654	28.0827	0.030670	0.002079	14.754	118.937	-165.947	0.035965	0.761277	-0.324486	-0.325746	0.058709	14.754	-0.327470	-11977.9	-4.901426E-6	NaN
1011	1.000000	0.772524	7.37494e+06	-50689.1	1055.82	-29754.8	0.000000	0.000000	6.773016	-0.017766	NaN	0.000000	0.001582	0.001654	28.0825	0.050687	0.001928	26.2939	-170.438	14.3398	-0.049384	0.771192	-0.314499	-0.315830	-0.017766	26.2939	-0.313992	-7586.92	2.341689E-6	NaN
1011	1.000000	0.782570	7.37494e+06	-50689.1	1055.82	-29754.8	0.000000	0.000000	6.783065	0.047094	NaN	0.000000	0.001537	0.001701	28.0835	0.121647	0.002016	60.3492	108.356	-165.102	-0.026321	0.781292	-0.304453	-0.305730	0.047094	60.3492	-0.305038	-5591.34	-8.422739E-6	NaN
1011	1.000000	0.792578	7.37494e+06	-50689.1	1055.82	-29754.8	0.000000	0.000000	6.793072	0.027785	NaN	0.000000	0.001526	0.001683	28.0839	0.023924	0.001907	12.5431	141.733	14.2873	0.027969	0.791209	-0.294445	-0.295813	0.027785	12.5431	-0.296106	-4117.15	-6.748702E-6	NaN
1011	1.000000	0.802578	7.37494e+06	-50689.1	1055.82	-29754.8	0.000000	0.000000	6.803073	0.045080	NaN	0.000000	0.001517	0.001678	28.0839	0.100722	0.001970	51.1165	-146.43	-169.252	0.076659	0.801305	-0.284445	-0.285718	0.045080	51.1165	-0.285106	-2817.48	-1.600006E-5	NaN
1011	1.000000	0.812576	7.37494e+06	-50689.1	1055.82	-29754.8	0.000000	0.000000	6.813068	-0.009831	NaN	0.000000	0.001554	0.001648	28.084	0.144593	0.002010	71.9326	-22.8547	12.1382	-0.023108	0.811190	-0.274447	-0.275832	-0.009831	71.9326	-0.274344	-1938.5	5.071692E-6	NaN
1011	1.000000	0.822560	7.37494e+06	-50689.1	1055.82	-29754.8	0.000000	0.000000	6.823053	0.016278	NaN	0.000000	0.001618	0.001662	28.084	0.047969	0.002120	22.6219	-65.2512	-165.088	0.001839	0.821277	-0.264463	-0.265745	0.016278	22.6219	-0.265002	-1397.73	-1.164574E-5	NaN
1011	1.000000	0.832606	7.37494e+06	-50689.1	1055.82	-29754.8	0.000000	0.000000	6.833100	0.032335	NaN	0.000000	0.001623	0.001650	28.0839	0.077362	0.001914	40.4159	-109.46	13.4941	0.041131	0.831287	-0.254417	-0.255735	0.032335	40.4159	-0.255017	-982.59	-3.290783E-5	NaN
1011	1.000000	0.842588	7.37494e+06	-50689.1	1055.82	-29754.8	0.000000	0.000000	6.843082	0.022637	NaN	0.000000	0.001598	0.001674	28.0836	0.034754	0.002115	16.4284	-109.45	-165.385	0.132081	0.841234	-0.244434	-0.245788	0.022637	16.4284	-0.245468	-699.391	-3.236622E-5	NaN
1011	1.000000	0.852612	7.37494e+06	-50689.1	1055.82	-29754.8	0.000000	0.000000	6.853105	0.001035	NaN	0.000000	0.001612	0.001650	28.0836	0.025976	0.001989	13.0583	175.871	13.4339	-0.067346	0.851203	-0.234411	-0.235819	0.001035	13.0583	-0.234470	-470.895	-2.198537E-6	NaN
1011	1.000000	0.862573	7.37494e+06	-50689.1	1055.82	-29754.8	0.000000	0.000000	6.863065	-0.021721	NaN	0.000000	0.001663	0.001659	28.0836	0.091893	0.002070	44.3878	57.1247	-163.363	0.031267	0.861297	-0.224449	-0.225725	-0.021721	44.3878	-0.224082	-322.666	6.731755E-5	NaN
1011	1.000000	0.872598	7.37494e+06	-50689.1	1055.82	-29754.8	0.000000	0.000000	6.873092	0.018450	NaN	0.000000	0.001552	0.001648	28.0838	0.009816	0.001918	5.118903	-29.0186	13.2531	0.010529	0.871266	-0.214424	-0.215756	0.018450	5.118903	-0.217128	-249.855	-7.384206E-5	NaN
1011	1.000000	0.882581	7.37494e+06	-50689.1	1055.82	-29754.8	0.000000	0.000000	6.883078	0.096346	NaN	0.000000	0.001592	0.001638	28.0838	0.033127	0.001825	18.1474	-112.382	-168.181	0.043524	0.881275	-0.204441	-0.205748	0.096346	18.1474	-0.208423	-180.822	-0.000533	NaN
1011	1.000000	0.892610	7.37494e+06	-50689.1	1055.82	-29754.8	0.000000	0.000000	6.893102	-0.014457	NaN	0.000000	0.001562	0.001646	28.0838	0.148512	0.001968	75.4651	144.058	11.2746	-0.055092	0.891272	-0.194412	-0.195750	-0.014457	75.4651	-0.194269	-105.945	0.000136	NaN
1011	1.000000	0.902595	7.37494e+06	-50689.1	1055.82	-29754.8	0.000000	0.000000	6.903089	0.018204	NaN	0.000000	0.001565	0.001639	28.0839	0.103241	0.002023	51.038	-8.180651	-165.654	0.094464	0.901248	-0.184427	-0.185774	0.018204	51.038	-0.184694	-73.2794	-0.000248	NaN
1011	1.000000	0.912613	7.37494e+06	-50689.1	1055.82	-29754.8	0.000000	0.000000	6.913106	0.006007	NaN	0.000000	0.001557	0.001654	28.0836	0.057765	0.002157	26.781	-119.963	9.183260	-0.024568	0.911251	-0.174409	-0.175772	0.006007	26.781	-0.174578	-49.2856	-0.000122	NaN
1011	1.000000	0.922634	7.37494e+06	-50689.1	1055.82	-29754.8	0.000000	0.000000	6.923128	0.000975	NaN	0.000000	0.001551	0.001656	28.0826	0.092863	0.001956	47.4749	176.47	-165.5	0.063994	0.921348	-0.164388	-0.165674	0.000975	47.4749	-0.164403	-32.7959	-2.973782E-5	NaN
1011	1.000000	0.932584	7.37494e+06	-50689.1	1055.82	-29754.8	0.000000	0.000000	6.933079	0.047361	NaN	0.000000	0.001572	0.001640	28.0834	0.083340	0.001943	42.9015	144.475	11.5654	0.020182	0.931272	-0.154438	-0.155750	0.047361	42.9015	-0.155266	-22.5615	-0.002099	NaN
1011	1.000000	0.942620	7.37494e+06	-50689.1	1055.82	-29754.8	0.000000	0.000000	6.943112	-0.041269	NaN	0.000000	0.001556	0.001695	28.0865	0.030836	0.001997	15.4396	-78.5298	-168.334	0.011036	0.941278	-0.144402	-0.145744	-0.041269	15.4396	-0.142397	-13.1169	0.003146	NaN
1011	1.000000	0.952646	7.37494e+06	-50689.1	1055.82	-29754.8	0.000000	0.000000	6.953142	0.069651	NaN	0.000000	0.001519	0.001673	28.083	0.063504	0.002020	31.4434	-94.5084	11.9913	0.029189	0.951261	-0.134376	-0.135761	0.069651	31.4434	-0.136038	-9.955594	-0.006996	NaN
1011	1.000000	0.962631	7.37494e+06	-50689.1	1055.82	-29754.8	0.000000	0.000000	6.963128	0.075687	NaN	0.000000	0.001538	0.001658	28.0826	0.088246	0.001976	44.6638	76.6241	-166.679	0.051246	0.961293	-0.124391	-0.125730	0.075687	44.6638	-0.125662	-6.267214	-0.012077	NaN
1011	1.000000	0.972662	7.37494e+06	-50689.1	1055.82	-29754.8	0.000000	0.000000	6.973155	-0.014711	NaN	0.000000	0.001542	0.001680	28.0827	0.084463	0.001992	42.4022	-103.926	10.7812	-0.092830	0.971235	-0.114360	-0.115787	-0.014711	42.4022	-0.114100	-3.660255	0.004019	NaN
1011	1.000000	0.982630	7.37494e+06	-50689.1	1055.82	-29754.8	0.000000	0.000000	6.983125	0.048835	NaN	0.000000	0.001543	0.001678	28.0828	0.069938	0.002083	33.5699	73.1505	-165.883	0.070469	0.981270	-0.104393	-0.105752	0.048835	33.5699	-0.105484	-2.407743	-0.020282	NaN
1011	1.000000	0.992607	7.37494e+06	-50689.1	1055.82	-29754.8	0.000000	0.000000	6.993102	0.046966	NaN	0.000000	0.001520	0.001672	28.0827	0.120446	0.001943	61.9818	-167.635	13.7287	-0.052959	0.991324	-0.094415	-0.095699	0.046966	61.9818	-0.094984	-1.409436	-0.033322	NaN
1011	1.000000	1.002638	7.37494e+06	-50689.1	1055.82	-29754.8	0.000000	0.000000	7.003130	-0.031070	NaN	0.000000	0.001538	0.001670	28.0824	0.152624	0.002096	72.81	-67.5976	-164.212	-0.033936	1.001367	-0.084384	-0.085656	-0.031070	72.81	-0.084064	-0.779746	0.039846	NaN
1011	1.000000	1.012651	7.37494e+06	-50689.1	1055.82	-29754.8	0.000000	0.000000	7.013145	0.018500	NaN	0.000000	0.001535	0.001649	28.0829	0.101385	0.002000	50.703	-81.6635	11.673	-0.072048	1.011326	-0.074372	-0.075697	0.018500	50.703	-0.074645	-0.452199	-0.040912	NaN
1011	1.000000	1.022653	7.37494e+06	-50689.1	1055.82	-29754.8	0.000000	0.000000	7.023148	0.063707	NaN	0.000000	0.001551	0.001654	28.0826	0.049118	0.001990	24.68	18.013	-163.428	0.021271	1.021337	-0.064370	-0.065685	0.063707	24.68	-0.066306	-0.270787	-0.235265	NaN
1011	1.000000	1.032640	7.37494e+06	-50689.1	1055.82	-29754.8	0.000000	0.000000	7.033132	-0.038701	NaN	0.000000	0.001548	0.001713	28.0826	0.034912	0.002068	16.8803	119.474	13.2979	-0.034220	1.031346	-0.054382	-0.055676	-0.038701	16.8803	-0.052663	-0.109732	0.352686	NaN
1011	1.000000	1.042654	7.37494e+06	-50689.1	1055.82	-29754.8	0.000000	0.000000	7.043144	-0.078048	NaN	0.000000	0.001517	0.001676	28.0823	0.101958	0.001941	52.5399	79.6248	-164.133	0.041513	1.041342	-0.044368	-0.045680	-0.078048	52.5399	-0.043254	-0.056833	1.373286	NaN
1011	1.000000	1.052687	7.37494e+06	-50689.1	1055.82	-29754.8	0.000000	0.000000	7.053179	-0.041552	NaN	0.000000	0.001549	0.001648	28.0825	0.023613	0.002056	11.4877	89.273	16.7182	0.073223	1.051309	-0.034335	-0.035713	-0.041552	11.4877	-0.031622	-0.025564	1.625381	NaN
1011	1.000000	1.062670	7.37494e+06	-50689.1	1055.82	-29754.8	0.000000	0.000000	7.063163	0.006732	NaN	0.000000	0.001510	0.001663	28.0837	0.072145	0.001935	37.2898	166.418	-167.996	0.060433	1.061348	-0.024353	-0.025675	0.006732	37.2898	-0.024488	-0.016360	-0.411467	NaN
1011	1.000000	1.072705	7.37494e+06	-50689.1	1055.82	-29754.8	0.000000	0.000000	7.073197	-0.029816	NaN	0.000000	0.001494	0.001665	28.0836	0.011555	0.001928	5.993244	87.3459	11.8975	0.011762	1.071328	-0.014317	-0.015694	-0.029816	5.993244	-0.010586	-0.006722	4.435556	NaN
1011	1.000000	1.082660	7.37494e+06	-50689.1	1055.82	-29754.8	0.000000	0.000000	7.083182	0.699853	NaN	0.000000	0.001529	0.001655	28.0835	0.897624	0.001853	484.434	20.5181	-167.715	0.379675	1.081366	-0.004363	-0.005656	0.699853	484.434	-0.005446	-0.003695	-189.399	NaN
1011	2.000000	1.090908	7.37494e+06	-50689.1	1055.82	-29754.8	0.000000	0.000000	7.091708	7.454824	NaN	0.000000	0.001526	0.001682	28.0835	8.257122	0.001695	4872.38	10.0221	6.226759	7.265992	1.090529	0.003886	0.003507	7.454824	4872.38	0.002738	0.002161	3450.35	95769.5
1011	2.000000	1.093360	7.37494e+06	-50689.1	1055.82	-29754.8	0.000000	0.000000	7.094323	11.4325	NaN	0.000000	0.001499	0.001669	28.0838	11.1249	0.001700	6542.35	10.8358	-176.146	11.6183	1.093072	0.006338	0.006050	11.4325	6542.35	0.005027	0.004158	2749.32	92693.4
1011	2.000000	1.095813	7.37494e+06	-50689.1	1055.82	-29754.8	0.000000	0.000000	7.096957	15.8479	NaN	0.000000	0.001519	0.001666	28.0835	14.4202	0.001736	8307.4	7.922066	2.171499	14.4846	1.095519	0.008790	0.008497	15.8479	8307.4	0.007359	0.006392	2479.4	94935.1
1011	2.000000	1.098283	7.37494e+06	-50689.1	1055.82	-29754.8	0.000000	0.000000	7.099613	20.3626	NaN	0.000000	0.001532	0.001672	28.0836	17.9422	0.001908	9401.2	8.999945	-178.298	19.5638	1.098051	0.011261	0.011028	20.3626	9401.2	0.009636	0.008780	2319.24	91666.9
1011	2.000000	1.100849	7.37494e+06	-50689.1	1055.82	-29754.8	0.000000	0.000000	7.102554	29.4763	NaN	0.000000	0.001503	0.001680	28.0839	20.6978	0.001811	11427.8	9.901102	0.174541	29.8057	1.100368	0.013827	0.013346	29.4763	11427.8	0.011892	0.011361	2594.48	97954.5
1011	2.000000	1.103295	7.37494e+06	-50689.1	1055.82	-29754.8	0.000000	0.000000	7.105247	35.4789	NaN	0.000000	0.001478	0.001666	28.0838	23.551	0.001720	13691.1	7.116236	-179.386	34.9806	1.102992	0.016273	0.015969	35.4789	13691.1	0.014329	0.014401	2463.62	104235
1011	2.000000	1.105746	7.37494e+06	-50689.1	1055.82	-29754.8	0.000000	0.000000	7.108067	44.442	NaN	0.000000	0.001439	0.001668	28.0836	26.5074	0.001722	15396.4	4.900694	-0.012341	41.4049	1.105449	0.018724	0.018427	44.442	15396.4	0.016559	0.017421	2551.05	106575
1011	2.000000	1.108250	7.37494e+06	-50689.1	1055.82	-29754.8	0.000000	0.000000	7.110923	52.9995	NaN	0.000000	0.001432	0.001671	28.0836	29.8363	0.001847	16155.4	8.487934	177.172	51.7581	1.107951	0.021228	0.020929	52.9995	16155.4	0.018767	0.020642	2567.53	102734
1011	2.000000	1.110786	7.37494e+06	-50689.1	1055.82	-29754.8	0.000000	0.000000	7.113756	60.2493	NaN	0.000000	0.001477	0.001693	28.0839	31.6381	0.001717	18423.2	8.110445	-2.860551	58.617	1.110375	0.023763	0.023353	60.2493	18423.2	0.021311	0.024644	2444.81	107222
1011	2.000000	1.113305	7.37494e+06	-50689.1	1055.82	-29754.8	0.000000	0.000000	7.116640	69.095	NaN	0.000000	0.001536	0.001685	28.0837	34.7677	0.001816	19140.1	9.172789	174.939	69.6933	1.112982	0.026283	0.025960	69.095	19140.1	0.023576	0.028475	2426.5	103630
1011	2.000000	1.115723	7.37494e+06	-50689.1	1055.82	-29754.8	0.000000	0.000000	7.119329	75.6856	NaN	0.000000	0.001537	0.001643	28.0825	36.7539	0.001827	20112	5.318463	-1.356525	74.5414	1.115465	0.028701	0.028443	75.6856	20112	0.025879	0.032634	2319.25	101717
1011	2.000000	1.118252	7.37494e+06	-50689.1	1055.82	-29754.8	0.000000	0.000000	7.122315	86.8047	NaN	0.000000	0.001529	0.001686	28.0824	40.6176	0.001831	22182.2	10.0702	172.776	85.8951	1.117966	0.031230	0.030944	86.8047	22182.2	0.028295	0.037284	2328.21	104958
1011	2.000000	1.120749	7.37494e+06	-50689.1	1055.82	-29754.8	0.000000	0.000000	7.125204	96.3451	NaN	0.000000	0.001557	0.001691	28.0826	42.0537	0.001794	23439.1	5.403040	-2.392269	94.7515	1.120449	0.033727	0.033426	96.3451	23439.1	0.030644	0.042089	2289.08	104383
1011	2.000000	1.123236	7.37494e+06	-50689.1	1055.82	-29754.8	0.000000	0.000000	7.128148	107.445	NaN	0.000000	0.001540	0.001651	28.0824	44.2414	0.001840	24038.2	4.343587	177.38	105.789	1.123001	0.036214	0.035979	107.445	24038.2	0.032862	0.046884	2291.72	101429
1011	2.000000	1.125747	7.37494e+06	-50689.1	1055.82	-29754.8	0.000000	0.000000	7.131131	118.932	NaN	0.000000	0.001500	0.001672	28.0825	47.7296	0.001770	26958.3	4.008958	-3.673777	116.985	1.125327	0.038725	0.038305	118.932	26958.3	0.035416	0.052720	2255.93	107270
1011	2.000000	1.128209	7.37494e+06	-50689.1	1055.82	-29754.8	0.000000	0.000000	7.134252	134.954	NaN	0.000000	0.001500	0.001665	28.0827	51.4373	0.001851	27794.4	7.877664	172.553	131.943	1.127908	0.041187	0.040886	134.954	27794.4	0.037545	0.057838	2333.31	105590
1011	2.000000	1.130774	7.37494e+06	-50689.1	1055.82	-29754.8	0.000000	0.000000	7.137417	149.54	NaN	0.000000	0.001527	0.001669	28.0824	51.9282	0.001826	28445	2.631412	-1.488227	146.489	1.130344	0.043752	0.043322	149.54	28445	0.039809	0.063536	2353.63	103103
1011	2.000000	1.133168	7.37494e+06	-50689.1	1055.82	-29754.8	0.000000	0.000000	7.140251	160.266	NaN	0.000000	0.001525	0.001654	28.0824	53.9554	0.001710	31560.1	3.039351	175.809	156.465	1.132931	0.046145	0.045909	160.266	31560.1	0.042337	0.070207	2282.77	108823
1011	2.000000	1.135724	7.37494e+06	-50689.1	1055.82	-29754.8	0.000000	0.000000	7.143361	173.722	NaN	0.000000	0.001551	0.001660	28.0824	58.3349	0.001903	30648.2	4.778704	-5.016802	171.572	1.135407	0.048701	0.048385	173.722	30648.2	0.044450	0.076034	2284.78	101548
1011	2.000000	1.138234	7.37494e+06	-50689.1	1055.82	-29754.8	0.000000	0.000000	7.146600	191.432	NaN	0.000000	0.001560	0.001681	28.0828	61.1549	0.001821	33584.6	7.226211	171.263	190.583	1.137981	0.051212	0.050959	191.432	33584.6	0.046937	0.083182	2301.37	106389
1011	2.000000	1.140635	7.37494e+06	-50689.1	1055.82	-29754.8	0.000000	0.000000	7.149797	210.796	NaN	0.000000	0.001559	0.001660	28.0826	62.7868	0.001867	33627.5	4.434293	-5.454207	203.872	1.140368	0.053613	0.053346	210.796	33627.5	0.048912	0.089079	2366.38	102939
1011	2.000000	1.143223	7.37494e+06	-50689.1	1055.82	-29754.8	0.000000	0.000000	7.153144	229.25	NaN	0.000000	0.001530	0.001684	28.0827	64.9588	0.001724	37672.4	6.390072	171.769	228.339	1.142999	0.056201	0.055977	229.25	37672.4	0.051637	0.097541	2350.3	110205
1011	2.000000	1.145670	7.37494e+06	-50689.1	1055.82	-29754.8	0.000000	0.000000	7.156452	250.191	NaN	0.000000	0.001539	0.001672	28.0827	68.5735	0.001729	39661.4	5.901791	-8.675022	246.797	1.145395	0.058648	0.058373	250.191	39661.4	0.053917	0.104903	2384.98	111879
1011	2.000000	1.148241	7.37494e+06	-50689.1	1055.82	-29754.8	0.000000	0.000000	7.159994	273.803	NaN	0.000000	0.001544	0.001687	28.083	71.4293	0.001879	38020.1	1.940819	176.659	272.86	1.147786	0.061219	0.060764	273.803	38020.1	0.055818	0.111240	2461.37	104149
1011	2.000000	1.150648	7.37494e+06	-50689.1	1055.82	-29754.8	0.000000	0.000000	7.163688	305.113	NaN	0.000000	0.001524	0.001638	28.0838	72.9655	0.001885	38703.3	2.880662	-4.157266	299.254	1.150230	0.063626	0.063208	305.113	38703.3	0.057713	0.117736	2591.5	103054
1011	2.000000	1.153200	7.37494e+06	-50689.1	1055.82	-29754.8	0.000000	0.000000	7.166849	319.911	NaN	0.000000	0.001541	0.001677	28.0838	75.4879	0.001797	42016.1	2.276314	174.66	318.052	1.152900	0.066178	0.065878	319.911	42016.1	0.060467	0.127489	2509.31	107511
1011	2.000000	1.155765	7.37494e+06	-50689.1	1055.82	-29754.8	0.000000	0.000000	7.170483	345.9	NaN	0.000000	0.001538	0.001648	28.0837	77.4701	0.001685	45988.9	4.200421	-7.445043	347.572	1.155397	0.068743	0.068375	345.9	45988.9	0.063102	0.137166	2521.77	113450
1011	2.000000	1.158131	7.37494e+06	-50689.1	1055.82	-29754.8	0.000000	0.000000	7.174101	376.359	NaN	0.000000	0.001554	0.001636	28.084	81.2029	0.001797	45187.5	1.382560	175.253	371.555	1.157745	0.071108	0.070722	376.359	45187.5	0.064862	0.143817	2616.93	108865
1011	2.000000	1.160653	7.37494e+06	-50689.1	1055.82	-29754.8	0.000000	0.000000	7.177256	391.753	NaN	0.000000	0.001584	0.001678	28.0838	83.0285	0.001874	44308.8	3.867509	-6.548981	384.82	1.160278	0.073631	0.073256	391.753	44308.8	0.066999	0.152097	2575.69	103802
1011	2.000000	1.163134	7.37494e+06	-50689.1	1055.82	-29754.8	0.000000	0.000000	7.180800	417.592	NaN	0.000000	0.001621	0.001648	28.0838	85.1261	0.001899	44826.6	3.065163	173.433	414.438	1.163040	0.076112	0.076018	417.592	44826.6	0.069125	0.160548	2601.04	102213
1011	2.000000	1.165662	7.37494e+06	-50689.1	1055.82	-29754.8	0.000000	0.000000	7.184547	447.252	NaN	0.000000	0.001608	0.001656	28.0839	87.2395	0.001659	52593.5	5.658403	-9.957876	443.596	1.165235	0.078639	0.078212	447.252	52593.5	0.072261	0.173409	2579.17	115390
1011	2.000000	1.168152	7.37494e+06	-50689.1	1055.82	-29754.8	0.000000	0.000000	7.187993	470.498	NaN	0.000000	0.001595	0.001653	28.0838	91.1224	0.001728	52721.9	5.868956	170.069	466.525	1.167842	0.081130	0.080820	470.498	52721.9	0.074437	0.182602	2576.63	112723
1011	2.000000	1.170742	7.37494e+06	-50689.1	1055.82	-29754.8	0.000000	0.000000	7.191707	497.83	NaN	0.000000	0.001591	0.001661	28.0837	92.8093	0.001702	54526	5.484482	-9.391738	495.866	1.170264	0.083719	0.083242	497.83	54526	0.076872	0.193159	2577.31	113349
1011	2.000000	1.173104	7.37494e+06	-50689.1	1055.82	-29754.8	0.000000	0.000000	7.195235	526.184	NaN	0.000000	0.001597	0.001666	28.0839	94.4725	0.001751	53954	4.680305	170.977	521.325	1.172863	0.086082	0.085840	526.184	53954	0.078768	0.201571	2610.41	109795
1011	2.000000	1.175624	7.37494e+06	-50689.1	1055.82	-29754.8	0.000000	0.000000	7.198956	555.391	NaN	0.000000	0.001591	0.001691	28.084	97.0873	0.001826	53161.2	2.765770	-6.646354	549.699	1.175188	0.088602	0.088165	555.391	53161.2	0.080766	0.210621	2636.92	105832
1011	2.000000	1.178125	7.37494e+06	-50689.1	1055.82	-29754.8	0.000000	0.000000	7.202296	575.796	NaN	0.000000	0.001594	0.001700	28.084	100.743	0.001873	53789.4	5.466073	170.324	571.704	1.177851	0.091103	0.090828	575.796	53789.4	0.083074	0.221302	2601.86	104467
1011	2.000000	1.180797	7.37494e+06	-50689.1	1055.82	-29754.8	0.000000	0.000000	7.205903	598.513	NaN	0.000000	0.001592	0.001671	28.0836	101.663	0.001735	58581.2	4.943495	-9.943651	598.631	1.180480	0.093775	0.093458	598.513	58581.2	0.086113	0.235738	2538.89	110234
1011	2.000000	1.183147	7.37494e+06	-50689.1	1055.82	-29754.8	0.000000	0.000000	7.209605	631.42	NaN	0.000000	0.001613	0.001669	28.0842	103.573	0.001795	57696.6	3.369252	171.953	628.563	1.182775	0.096125	0.095752	631.42	57696.6	0.087917	0.244511	2582.37	106604
1011	2.000000	1.185666	7.37494e+06	-50689.1	1055.82	-29754.8	0.000000	0.000000	7.213356	661.362	NaN	0.000000	0.001623	0.001680	28.0828	107.063	0.001814	59031.6	4.488396	-9.059772	657.643	1.185195	0.098644	0.098173	661.362	59031.6	0.090241	0.256036	2583.08	106588
1011	2.000000	1.188130	7.37495e+06	-50689.1	1055.82	-29754.8	0.000000	0.000000	7.216864	686.758	NaN	0.000000	0.001591	0.001714	28.0834	109.464	0.001797	60908.9	5.164581	169.759	683.812	1.187814	0.101107	0.100791	686.758	60908.9	0.092651	0.268247	2560.17	107445
1011	2.000000	1.188643	7.37495e+06	-50689.1	1055.82	-29754.8	0.000000	0.000000	7.217574	691.553	NaN	0.000000	0.001624	0.001716	28.0838	109.169	0.001829	59673.2	2.180179	-7.040608	687.277	1.188292	0.101621	0.101269	691.553	59673.2	0.092929	0.269672	2564.42	104987