File: remote_trans/data/nanoindenter/0828-1/data/Data_2025-08-06,11h17m57s/2025-07-22_16-23-58_1_315.txt
2025-07-22, 16:23:58, 1
Index	Phase	Displacement	Time	Pos X	Pos Y	Pos Z	Rot A	Rot B	Piezo Z	Force A	Force B	Gripper	Voltage A	Voltage B	Temperature	Amplitude force	Amplitude pos	Stiffness	Phase shift	Phase excitation	Force A raw	Displacement raw	HMax	HMax raw	Real Force	Real Stiffness	Contact Depth	Area	Hardness	Reduced Mod.
[#]	[#]	[um]	[s]	[um]	[um]	[um]	[m°]	[m°]	[um]	[uN]	[uN]	[V]	[V]	[V]	[°C]	[uN]	[um]	[N/m]	[°]	[°]	[uN]	[um]	[um]	[um]	[uN]	[N/m]	[um]	[um^2]	[MPa]	[MPa]
315	1.000000	0.002703	7.36815e+06	-54389.1	955.818	-29744	0.000000	0.000000	6.002826	-0.046569	NaN	0.000000	0.001602	0.001679	28.0799	0.084364	0.001137	74.1816	16.3199	-162.436	0.040320	0.001423	-0.746053	-0.747333	-0.046569	74.1816	-0.745582	-8.186105E+9	5.688753E-12	NaN
315	1.000000	0.010624	7.36815e+06	-54389.1	955.819	-29744	0.000000	0.000000	6.010750	0.005541	NaN	0.000000	0.001624	0.001687	28.0793	0.078433	0.000949	82.649	160.244	-159.776	-0.062357	0.009264	-0.738132	-0.739492	0.005541	82.649	-0.738182	-6.490734E+9	-8.537303E-13	NaN
315	1.000000	0.018652	7.36815e+06	-54389.1	955.818	-29744	0.000000	0.000000	6.018778	0.026582	NaN	0.000000	0.001631	0.001682	28.0794	0.053060	0.001675	31.6822	174.606	-167.225	-0.013326	0.017324	-0.730104	-0.731432	0.026582	31.6822	-0.730733	-5.138039E+9	-5.173537E-12	NaN
315	1.000000	0.026667	7.36815e+06	-54389.1	955.819	-29744	0.000000	0.000000	6.026795	0.063363	NaN	0.000000	0.001588	0.001709	28.0794	0.079908	0.001708	46.7808	-58.4959	-164.722	0.039719	0.025351	-0.722089	-0.723405	0.063363	46.7808	-0.723105	-4.044032E+9	-1.566823E-11	NaN
315	1.000000	0.034593	7.36815e+06	-54389.1	955.817	-29744	0.000000	0.000000	6.034719	0.004404	NaN	0.000000	0.001607	0.001691	28.0781	0.074081	0.001764	41.9969	-156.896	-165.618	-0.052008	0.033314	-0.714163	-0.715442	0.004404	41.9969	-0.714241	-3.061419E+9	-1.438542E-12	NaN
315	1.000000	0.042612	7.36815e+06	-54389.1	955.819	-29744	0.000000	0.000000	6.042739	0.062737	NaN	0.000000	0.001573	0.001711	28.0782	0.055318	0.002055	26.9236	-84.8607	-164.062	-0.005441	0.041335	-0.706144	-0.707421	0.062737	26.9236	-0.707892	-2.507708E+9	-2.501783E-11	NaN
315	1.000000	0.050614	7.36815e+06	-54389.1	955.82	-29744	0.000000	0.000000	6.050739	0.004138	NaN	0.000000	0.001639	0.001673	28.0781	0.071486	0.002027	35.2593	98.7272	-168.743	0.066820	0.049278	-0.698142	-0.699478	0.004138	35.2593	-0.698230	-1.850816E+9	-2.236011E-12	NaN
315	1.000000	0.058636	7.36815e+06	-54389.1	955.818	-29744	0.000000	0.000000	6.058761	0.002011	NaN	0.000000	0.001607	0.001683	28.0784	0.116784	0.002140	54.5643	105.506	-163.66	0.002012	0.057346	-0.690120	-0.691410	0.002011	54.5643	-0.690147	-1.435266E+9	-1.400828E-12	NaN
315	1.000000	0.066622	7.36815e+06	-54389.1	955.819	-29744	0.000000	0.000000	6.066750	0.061039	NaN	0.000000	0.001624	0.001725	28.0783	0.117753	0.002036	57.8216	-175.951	-163.221	-0.002978	0.065297	-0.682134	-0.683459	0.061039	57.8216	-0.682926	-1.143440E+9	-5.338163E-11	NaN
315	1.000000	0.074638	7.36815e+06	-54389.1	955.818	-29744	0.000000	0.000000	6.074763	-0.001244	NaN	0.000000	0.001594	0.001730	28.0785	0.079032	0.002062	38.3333	105.268	-169.088	-0.012838	0.073290	-0.674118	-0.675466	-0.001244	38.3333	-0.674094	-8.657928E+8	1.437103E-12	NaN
315	1.000000	0.082647	7.36815e+06	-54389.1	955.818	-29744	0.000000	0.000000	6.082772	-0.010852	NaN	0.000000	0.001611	0.001687	28.0785	0.095287	0.001997	47.7039	-74.0394	-169.157	0.021082	0.081346	-0.666109	-0.667410	-0.010852	47.7039	-0.665938	-6.695637E+8	1.620799E-11	NaN
315	1.000000	0.090628	7.36815e+06	-54389.1	955.818	-29744	0.000000	0.000000	6.090755	0.053696	NaN	0.000000	0.001601	0.001685	28.0782	0.066294	0.001924	34.4537	162.362	-168.961	0.059539	0.089308	-0.658128	-0.659448	0.053696	34.4537	-0.659297	-5.430472E+8	-9.887964E-11	NaN
315	1.000000	0.098634	7.36815e+06	-54389.1	955.819	-29744	0.000000	0.000000	6.098760	0.025594	NaN	0.000000	0.001622	0.001700	28.0785	0.046088	0.001987	23.2006	-48.0326	-163.019	0.037422	0.097344	-0.650122	-0.651412	0.025594	23.2006	-0.650950	-4.173078E+8	-6.133220E-11	NaN
315	1.000000	0.106638	7.36815e+06	-54389.1	955.819	-29744	0.000000	0.000000	6.106762	-0.041882	NaN	0.000000	0.001586	0.001698	28.0782	0.088032	0.002028	43.4056	133.873	-166.888	-0.053360	0.105333	-0.642118	-0.643423	-0.041882	43.4056	-0.641394	-3.086137E+8	1.357101E-10	NaN
315	1.000000	0.114640	7.36815e+06	-54389.1	955.818	-29744	0.000000	0.000000	6.114766	0.018965	NaN	0.000000	0.001624	0.001713	28.0782	0.046893	0.002003	23.4101	9.161436	-165.743	0.010216	0.113376	-0.634116	-0.635380	0.018965	23.4101	-0.634724	-2.499636E+8	-7.586907E-11	NaN
315	1.000000	0.122634	7.36815e+06	-54389.1	955.82	-29744	0.000000	0.000000	6.122757	-0.040172	NaN	0.000000	0.001601	0.001689	28.0785	0.037748	0.002016	18.7252	-80.395	-166.504	-0.118527	0.121352	-0.626122	-0.627404	-0.040172	18.7252	-0.624513	-1.809918E+8	2.219535E-10	NaN
315	1.000000	0.130623	7.36815e+06	-54389.1	955.819	-29744	0.000000	0.000000	6.130746	-0.038940	NaN	0.000000	0.001650	0.001666	28.0783	0.071100	0.002167	32.8091	-65.1376	-168.662	-0.039027	0.129380	-0.618133	-0.619376	-0.038940	32.8091	-0.617243	-1.437905E+8	2.708137E-10	NaN
315	1.000000	0.138648	7.36815e+06	-54389.1	955.818	-29744	0.000000	0.000000	6.138773	0.004691	NaN	0.000000	0.001635	0.001671	28.0785	0.039777	0.001915	20.7687	-4.394431	-164.289	0.005783	0.137351	-0.610108	-0.611405	0.004691	20.7687	-0.610278	-1.153285E+8	-4.067158E-11	NaN
315	1.000000	0.146658	7.36815e+06	-54389.1	955.819	-29744	0.000000	0.000000	6.146783	0.017342	NaN	0.000000	0.001602	0.001679	28.0784	0.077393	0.002012	38.4593	-36.2801	-165.619	0.040289	0.145369	-0.602098	-0.603387	0.017342	38.4593	-0.602437	-8.995254E+7	-1.927892E-10	NaN
315	1.000000	0.154694	7.36815e+06	-54389.1	955.818	-29744	0.000000	0.000000	6.154819	-0.002247	NaN	0.000000	0.001605	0.001689	28.0785	0.045596	0.002144	21.2644	135.546	-169.602	-0.010337	0.153320	-0.594062	-0.595436	-0.002247	21.2644	-0.593982	-6.879504E+7	3.266551E-11	NaN
315	1.000000	0.162666	7.36815e+06	-54389.1	955.818	-29744	0.000000	0.000000	6.162792	0.017116	NaN	0.000000	0.001604	0.001703	28.0787	0.022140	0.001851	11.9637	-153.559	-167.704	0.057983	0.161377	-0.586090	-0.587379	0.017116	11.9637	-0.587163	-5.540453E+7	-3.089319E-10	NaN
315	1.000000	0.170648	7.36815e+06	-54389.1	955.818	-29744	0.000000	0.000000	6.170774	0.018130	NaN	0.000000	0.001619	0.001680	28.0795	0.142711	0.002090	68.2933	-176.68	-164.412	0.090254	0.169341	-0.578108	-0.579415	0.018130	68.2933	-0.578307	-4.181727E+7	-4.335578E-10	NaN
315	1.000000	0.178656	7.36815e+06	-54389.1	955.818	-29744	0.000000	0.000000	6.178780	-0.012369	NaN	0.000000	0.001620	0.001724	28.0795	0.063564	0.001859	34.1938	125.678	-166.137	-0.057022	0.177336	-0.570100	-0.571420	-0.012369	34.1938	-0.569829	-3.193520E+7	3.873290E-10	NaN
315	1.000000	0.186699	7.36815e+06	-54389.1	955.819	-29744	0.000000	0.000000	6.186822	-0.040166	NaN	0.000000	0.001574	0.001695	28.0795	0.123473	0.002026	60.9466	-6.185796	-163.861	-0.005651	0.185341	-0.562057	-0.563415	-0.040166	60.9466	-0.561563	-2.454680E+7	1.636292E-9	NaN
315	1.000000	0.194662	7.36815e+06	-54389.1	955.819	-29744	0.000000	0.000000	6.194789	0.038880	NaN	0.000000	0.001591	0.001683	28.0798	0.071888	0.001956	36.7468	-70.0222	-166.698	0.117158	0.193312	-0.554094	-0.555444	0.038880	36.7468	-0.554887	-1.984380E+7	-1.959294E-9	NaN
315	1.000000	0.202687	7.36815e+06	-54389.1	955.818	-29744	0.000000	0.000000	6.202813	0.011913	NaN	0.000000	0.001584	0.001706	28.08	0.070312	0.002005	35.0666	-18.3511	-165.474	-0.027282	0.201382	-0.546069	-0.547374	0.011913	35.0666	-0.546324	-1.510161E+7	-7.888532E-10	NaN
315	1.000000	0.210670	7.36815e+06	-54389.1	955.818	-29744	0.000000	0.000000	6.210796	0.022424	NaN	0.000000	0.001568	0.001660	28.0797	0.075023	0.002063	36.3735	-99.0811	-167.227	0.067306	0.209330	-0.538086	-0.539426	0.022424	36.3735	-0.538549	-1.178227E+7	-1.903174E-9	NaN
315	1.000000	0.218698	7.36815e+06	-54389.1	955.817	-29744	0.000000	0.000000	6.218824	0.023054	NaN	0.000000	0.001570	0.001697	28.0799	0.104792	0.002029	51.656	-136.25	-164.975	-0.035733	0.217353	-0.530058	-0.531403	0.023054	51.656	-0.530393	-9.07884e+06	-2.539312E-9	NaN
315	1.000000	0.226677	7.36815e+06	-54389.1	955.819	-29744	0.000000	0.000000	6.226805	0.085268	NaN	0.000000	0.001599	0.001693	28.0796	0.060362	0.002190	27.5613	-96.582	-169.726	0.089142	0.225369	-0.522079	-0.523387	0.085268	27.5613	-0.524399	-7.49488e+06	-1.137687E-8	NaN
315	1.000000	0.234681	7.36815e+06	-54389.1	955.817	-29744	0.000000	0.000000	6.234811	0.100290	NaN	0.000000	0.001594	0.001718	28.08	0.021393	0.002066	10.3536	39.4329	-167.469	0.107120	0.233411	-0.514075	-0.515345	0.100290	10.3536	-0.521339	-6.79553e+06	-1.475825E-8	NaN
315	1.000000	0.242686	7.36815e+06	-54389.1	955.818	-29744	0.000000	0.000000	6.242811	0.002086	NaN	0.000000	0.001625	0.001674	28.0799	0.094401	0.001966	48.0076	130.726	-164.691	0.033708	0.241384	-0.506070	-0.507372	0.002086	48.0076	-0.506103	-4.16981e+06	-5.002562E-10	NaN
315	1.000000	0.250734	7.36815e+06	-54389.1	955.818	-29744	0.000000	0.000000	6.250862	0.077952	NaN	0.000000	0.001631	0.001665	28.0795	0.065920	0.001996	33.0255	-138.826	-164.288	0.122140	0.249386	-0.498022	-0.499370	0.077952	33.0255	-0.499792	-3.40501e+06	-2.289333E-8	NaN
315	1.000000	0.258714	7.36815e+06	-54389.1	955.819	-29744	0.000000	0.000000	6.258841	0.044335	NaN	0.000000	0.001590	0.001663	28.08	0.136882	0.001981	69.1035	97.1972	-164.524	-0.031050	0.257378	-0.490042	-0.491378	0.044335	69.1035	-0.490523	-2.52754e+06	-1.754063E-8	NaN
315	1.000000	0.266728	7.36815e+06	-54389.1	955.818	-29744	0.000000	0.000000	6.266853	-0.003027	NaN	0.000000	0.001596	0.001690	28.08	0.097700	0.002117	46.1511	-58.824	-166.594	-0.022861	0.265399	-0.482028	-0.483357	-0.003027	46.1511	-0.481979	-1.91964e+06	1.576780E-9	NaN
315	1.000000	0.274736	7.36815e+06	-54389.1	955.818	-29744	0.000000	0.000000	6.274861	-0.001726	NaN	0.000000	0.001598	0.001668	28.0803	0.124668	0.001974	63.143	-144.702	-165.439	-0.094282	0.273400	-0.474020	-0.475356	-0.001726	63.143	-0.474000	-1.48416e+06	1.162734E-9	NaN
315	1.000000	0.282727	7.36815e+06	-54389.1	955.818	-29744	0.000000	0.000000	6.282852	0.005818	NaN	0.000000	0.001598	0.001686	28.0798	0.080764	0.001934	41.7688	87.7487	-171.772	0.023669	0.281440	-0.466029	-0.467316	0.005818	41.7688	-0.466134	-1.15122e+06	-5.053626E-9	NaN
315	1.000000	0.290702	7.36815e+06	-54389.1	955.818	-29744	0.000000	0.000000	6.290828	0.042512	NaN	0.000000	0.001614	0.001679	28.08	0.124189	0.001904	65.2349	0.341574	-166.452	-0.002836	0.289424	-0.458054	-0.459332	0.042512	65.2349	-0.458543	-900624	-4.720291E-8	NaN
315	1.000000	0.298717	7.36815e+06	-54389.1	955.817	-29744	0.000000	0.000000	6.298845	0.067889	NaN	0.000000	0.001581	0.001684	28.08	0.042099	0.002048	20.5594	7.298223	-164.594	0.082009	0.297436	-0.450039	-0.451320	0.067889	20.5594	-0.452515	-740890	-9.163156E-8	NaN
315	1.000000	0.306717	7.36815e+06	-54389.1	955.818	-29744	0.000000	0.000000	6.306842	-0.007646	NaN	0.000000	0.001592	0.001668	28.0789	0.017896	0.001898	9.427278	19.8067	-166.649	0.041328	0.305433	-0.442039	-0.443323	-0.007646	9.427278	-0.441430	-517066	1.478734E-8	NaN
315	1.000000	0.314751	7.36815e+06	-54389.1	955.818	-29744	0.000000	0.000000	6.314877	0.019202	NaN	0.000000	0.001592	0.001714	28.0786	0.069517	0.001941	35.8234	147.827	-163.392	0.052237	0.313400	-0.434005	-0.435356	0.019202	35.8234	-0.434407	-411509	-4.666261E-8	NaN
315	1.000000	0.322761	7.36815e+06	-54389.1	955.819	-29744	0.000000	0.000000	6.322888	0.033443	NaN	0.000000	0.001587	0.001712	28.0787	0.105114	0.001965	53.5018	-64.2395	-164.752	0.003338	0.321431	-0.425995	-0.427325	0.033443	53.5018	-0.426463	-317692	-1.052689E-7	NaN
315	1.000000	0.330738	7.36815e+06	-54389.1	955.818	-29744	0.000000	0.000000	6.330861	-0.052583	NaN	0.000000	0.001617	0.001693	28.0789	0.020949	0.002049	10.2225	71.1675	-167.624	-0.010309	0.329427	-0.418018	-0.419329	-0.052583	10.2225	-0.414160	-212583	2.473523E-7	NaN
315	1.000000	0.338744	7.36815e+06	-54389.1	955.818	-29744	0.000000	0.000000	6.338869	-0.002920	NaN	0.000000	0.001600	0.001715	28.0788	0.085758	0.001861	46.0734	-82.0677	-165.836	-0.102762	0.337448	-0.410012	-0.411308	-0.002920	46.0734	-0.409965	-185310	1.575671E-8	NaN
315	1.000000	0.346758	7.36815e+06	-54389.1	955.818	-29744	0.000000	0.000000	6.346882	-0.042424	NaN	0.000000	0.001644	0.001707	28.0787	0.116972	0.001837	63.6857	125.89	-166.461	-0.028644	0.345473	-0.401998	-0.403283	-0.042424	63.6857	-0.401498	-140396	3.021750E-7	NaN
315	1.000000	0.354772	7.36815e+06	-54389.1	955.818	-29744	0.000000	0.000000	6.354899	0.044290	NaN	0.000000	0.001633	0.001694	28.0787	0.110296	0.001974	55.8808	-104.361	-167.195	0.045050	0.353393	-0.393984	-0.395363	0.044290	55.8808	-0.394578	-111844	-3.960021E-7	NaN
315	1.000000	0.362736	7.36815e+06	-54389.1	955.818	-29744	0.000000	0.000000	6.362867	0.129026	NaN	0.000000	0.001600	0.001703	28.0786	0.074431	0.002070	35.9516	-85.3369	-166.659	0.024726	0.361454	-0.386020	-0.387302	0.129026	35.9516	-0.388711	-92199.2	-1.399424E-6	NaN
315	1.000000	0.370750	7.36815e+06	-54389.1	955.817	-29744	0.000000	0.000000	6.370875	-0.004952	NaN	0.000000	0.001627	0.001718	28.0787	0.078570	0.002032	38.6711	-79.7382	-166.252	0.019525	0.369524	-0.378006	-0.379232	-0.004952	38.6711	-0.377910	-64548.5	7.671024E-8	NaN
315	1.000000	0.378746	7.36815e+06	-54389.1	955.818	-29744	0.000000	0.000000	6.378872	0.008532	NaN	0.000000	0.001597	0.001686	28.0789	0.072024	0.001923	37.456	11.0168	-167.128	0.040414	0.377471	-0.370010	-0.371285	0.008532	37.456	-0.370181	-49972.2	-1.707354E-7	NaN
315	1.000000	0.386764	7.36815e+06	-54389.1	955.819	-29744	0.000000	0.000000	6.386889	-0.022922	NaN	0.000000	0.001606	0.001694	28.0786	0.029338	0.002183	13.4379	-119.545	-165.767	0.030775	0.385459	-0.361992	-0.363297	-0.022922	13.4379	-0.360712	-36487.2	6.282215E-7	NaN
315	1.000000	0.394767	7.36815e+06	-54389.1	955.817	-29744	0.000000	0.000000	6.394890	-0.046978	NaN	0.000000	0.001609	0.001740	28.0786	0.098942	0.002219	44.5933	81.4786	-165.109	-0.081383	0.393510	-0.353989	-0.355246	-0.046978	44.5933	-0.353199	-28405.6	1.653817E-6	NaN
315	1.000000	0.402789	7.36815e+06	-54389.1	955.818	-29744	0.000000	0.000000	6.402915	0.014456	NaN	0.000000	0.001595	0.001721	28.0783	0.066353	0.001987	33.3864	-15.0953	-161.828	0.008507	0.401480	-0.345967	-0.347276	0.014456	33.3864	-0.346291	-22549.4	-6.411032E-7	NaN
315	1.000000	0.410745	7.36815e+06	-54389.1	955.819	-29744	0.000000	0.000000	6.410869	-0.040412	NaN	0.000000	0.001614	0.001720	28.0785	0.130123	0.002018	64.4875	72.7395	-163.463	-0.126283	0.409458	-0.338011	-0.339298	-0.040412	64.4875	-0.337541	-16814.6	2.403388E-6	NaN
315	1.000000	0.418734	7.36815e+06	-54389.1	955.818	-29744	0.000000	0.000000	6.418857	-0.058281	NaN	0.000000	0.001621	0.001702	28.0785	0.082845	0.001983	41.774	138.241	-165.483	-0.019270	0.417479	-0.330022	-0.331277	-0.058281	41.774	-0.328976	-12602.1	4.624713E-6	NaN
315	1.000000	0.426796	7.36815e+06	-54389.1	955.819	-29744	0.000000	0.000000	6.426927	0.145627	NaN	0.000000	0.001616	0.001742	28.0786	0.033850	0.001971	17.1735	-135.072	-164.858	-0.065220	0.425445	-0.321960	-0.323311	0.145627	17.1735	-0.328320	-12326.3	-1.181431E-5	NaN
315	1.000000	0.434786	7.36815e+06	-54389.1	955.817	-29744	0.000000	0.000000	6.434913	0.042574	NaN	0.000000	0.001633	0.001740	28.0785	0.099996	0.002079	48.0954	168.609	-164.248	0.037924	0.433467	-0.313970	-0.315289	0.042574	48.0954	-0.314634	-7754.28	-5.490383E-6	NaN
315	1.000000	0.442790	7.36815e+06	-54389.1	955.818	-29744	0.000000	0.000000	6.442915	0.015773	NaN	0.000000	0.001609	0.001727	28.0793	0.033719	0.001925	17.5137	-100.88	-163.85	0.033451	0.441501	-0.305966	-0.307255	0.015773	17.5137	-0.306642	-5906.21	-2.670523E-6	NaN
315	1.000000	0.450792	7.36815e+06	-54389.1	955.819	-29744	0.000000	0.000000	6.450915	-0.038405	NaN	0.000000	0.001602	0.001691	28.0799	0.061045	0.001993	30.6288	10.0808	-163.784	-0.038483	0.449422	-0.297964	-0.299334	-0.038405	30.6288	-0.297024	-4249.04	9.038521E-6	NaN
315	1.000000	0.458793	7.36815e+06	-54389.1	955.818	-29744	0.000000	0.000000	6.458920	0.057963	NaN	0.000000	0.001607	0.001713	28.0796	0.018377	0.001975	9.303416	64.6249	-167.025	0.053870	0.457504	-0.289963	-0.291252	0.057963	9.303416	-0.294636	-3914.24	-1.480820E-5	NaN
315	1.000000	0.466810	7.36815e+06	-54389.1	955.818	-29744	0.000000	0.000000	6.466934	-0.035555	NaN	0.000000	0.001631	0.001702	28.0797	0.062629	0.001916	32.6862	-48.3424	-166.077	-0.054641	0.465465	-0.281946	-0.283291	-0.035555	32.6862	-0.281130	-2454.76	1.448393E-5	NaN
315	1.000000	0.474808	7.36815e+06	-54389.1	955.818	-29744	0.000000	0.000000	6.474932	-0.008828	NaN	0.000000	0.001669	0.001700	28.08	0.060105	0.001799	33.4186	-107.807	-166.385	0.003101	0.473483	-0.273948	-0.275273	-0.008828	33.4186	-0.273750	-1898.76	4.649492E-6	NaN
315	1.000000	0.482793	7.36815e+06	-54389.1	955.819	-29744	0.000000	0.000000	6.482918	-0.006559	NaN	0.000000	0.001681	0.001731	28.0796	0.027466	0.001980	13.8693	-155.138	-166.277	0.000768	0.481568	-0.265963	-0.267188	-0.006559	13.8693	-0.265608	-1427.8	4.593973E-6	NaN
315	1.000000	0.490803	7.36815e+06	-54389.1	955.818	-29744	0.000000	0.000000	6.490925	-0.068933	NaN	0.000000	0.001704	0.001737	28.08	0.030207	0.002000	15.1024	79.0873	-166.441	-0.065555	0.489455	-0.257953	-0.259301	-0.068933	15.1024	-0.254530	-965.776	7.137615E-5	NaN
315	1.000000	0.498815	7.36815e+06	-54389.1	955.819	-29744	0.000000	0.000000	6.498941	0.022824	NaN	0.000000	0.001702	0.001732	28.0799	0.088496	0.001933	45.7787	146.759	-166.208	0.063500	0.497489	-0.249941	-0.251267	0.022824	45.7787	-0.250315	-831.464	-2.745061E-5	NaN
315	1.000000	0.506846	7.36815e+06	-54389.1	955.818	-29744	0.000000	0.000000	6.506969	-0.037263	NaN	0.000000	0.001662	0.001734	28.0799	0.055778	0.001957	28.5006	91.1915	-168.163	0.027857	0.505551	-0.241910	-0.243205	-0.037263	28.5006	-0.240930	-594.382	6.269155E-5	NaN
315	1.000000	0.514844	7.36815e+06	-54389.1	955.818	-29744	0.000000	0.000000	6.514966	-0.063232	NaN	0.000000	0.001610	0.001728	28.0814	0.055817	0.002086	26.7517	-135.882	-167.387	-0.052047	0.513548	-0.233912	-0.235208	-0.063232	26.7517	-0.232140	-432.777	0.000146	NaN
315	1.000000	0.522818	7.36815e+06	-54389.1	955.819	-29744	0.000000	0.000000	6.522944	0.038520	NaN	0.000000	0.001570	0.001712	28.0799	0.018916	0.002001	9.453310	170.387	-167.668	0.102397	0.521465	-0.225938	-0.227291	0.038520	9.453310	-0.228994	-386.036	-9.978272E-5	NaN
315	1.000000	0.530808	7.36815e+06	-54389.1	955.819	-29744	0.000000	0.000000	6.530934	0.018924	NaN	0.000000	0.001617	0.001731	28.0797	0.086522	0.002024	42.7536	40.0548	-166.634	0.040422	0.529486	-0.217948	-0.219270	0.018924	42.7536	-0.218280	-260.711	-7.258593E-5	NaN
315	1.000000	0.538819	7.36815e+06	-54389.1	955.818	-29744	0.000000	0.000000	6.538944	-0.016883	NaN	0.000000	0.001609	0.001727	28.0797	0.110146	0.001947	56.5826	-81.3474	-166.249	0.033626	0.537532	-0.209937	-0.211224	-0.016883	56.5826	-0.209713	-189.744	8.897729E-5	NaN
315	1.000000	0.546839	7.36815e+06	-54389.1	955.819	-29744	0.000000	0.000000	6.546965	0.017050	NaN	0.000000	0.001687	0.001747	28.0796	0.035209	0.001927	18.2702	143.061	-163.343	-0.010822	0.545515	-0.201917	-0.203241	0.017050	18.2702	-0.202616	-145.416	-0.000117	NaN
315	1.000000	0.554844	7.36815e+06	-54389.1	955.818	-29744	0.000000	0.000000	6.554968	-0.020937	NaN	0.000000	0.001676	0.001697	28.0799	0.022745	0.002047	11.114	-94.3792	-166.597	0.039461	0.553558	-0.193912	-0.195198	-0.020937	11.114	-0.192499	-99.0127	0.000211	NaN
315	1.000000	0.562867	7.36815e+06	-54389.1	955.819	-29744	0.000000	0.000000	6.562989	-0.056398	NaN	0.000000	0.001634	0.001684	28.0797	0.193963	0.002143	90.4914	68.5152	-168.904	-0.007357	0.561495	-0.185889	-0.187261	-0.056398	90.4914	-0.185422	-75.3776	0.000748	NaN
315	1.000000	0.570834	7.36815e+06	-54389.1	955.818	-29744	0.000000	0.000000	6.570956	-0.066691	NaN	0.000000	0.001660	0.001678	28.0796	0.084914	0.001930	43.9877	-23.6465	-162.54	-0.102526	0.569500	-0.177922	-0.179256	-0.066691	43.9877	-0.176785	-53.7777	0.001240	NaN
315	1.000000	0.578846	7.36815e+06	-54389.1	955.819	-29744	0.000000	0.000000	6.578974	0.072087	NaN	0.000000	0.001693	0.001668	28.0785	0.008138	0.002153	3.779381	-57.9652	-164.871	0.167515	0.577553	-0.169910	-0.171203	0.072087	3.779381	-0.184216	-71.9287	-0.001002	NaN
315	1.000000	0.586839	7.36815e+06	-54389.1	955.819	-29744	0.000000	0.000000	6.586964	-0.022988	NaN	0.000000	0.001700	0.001667	28.0783	0.065398	0.001990	32.8613	-110.821	-165.722	0.084109	0.585565	-0.161917	-0.163191	-0.022988	32.8613	-0.161392	-29.0187	0.000792	NaN
315	1.000000	0.594857	7.36815e+06	-54389.1	955.818	-29744	0.000000	0.000000	6.594980	-0.043412	NaN	0.000000	0.001686	0.001662	28.0785	0.061891	0.001876	32.9865	102.92	-167.561	-0.079725	0.593552	-0.153899	-0.155204	-0.043412	32.9865	-0.152912	-20.4597	0.002122	NaN
315	1.000000	0.602861	7.36815e+06	-54389.1	955.819	-29744	0.000000	0.000000	6.602988	0.046882	NaN	0.000000	0.001690	0.001700	28.0784	0.053053	0.001928	27.5207	-85.7987	-164.861	0.014903	0.601547	-0.145895	-0.147209	0.046882	27.5207	-0.147173	-16.0783	-0.002916	NaN
315	1.000000	0.610833	7.36815e+06	-54389.1	955.819	-29744	0.000000	0.000000	6.610960	0.044390	NaN	0.000000	0.001697	0.001698	28.0785	0.093659	0.002004	46.732	-10.5467	-163.809	0.077191	0.609544	-0.137923	-0.139212	0.044390	46.732	-0.138635	-11.1499	-0.003981	NaN
315	1.000000	0.618841	7.36815e+06	-54389.1	955.819	-29744	0.000000	0.000000	6.618968	0.062183	NaN	0.000000	0.001675	0.001725	28.0786	0.048609	0.002036	23.8692	158.944	-164.725	0.013292	0.617580	-0.129915	-0.131176	0.062183	23.8692	-0.131869	-8.283277	-0.007507	NaN
315	1.000000	0.626868	7.36815e+06	-54389.1	955.818	-29744	0.000000	0.000000	6.626997	0.086231	NaN	0.000000	0.001712	0.001721	28.0783	0.061251	0.002022	30.2879	170.837	-164.688	0.121751	0.625553	-0.121888	-0.123203	0.086231	30.2879	-0.124023	-5.816066	-0.014826	NaN
315	1.000000	0.634855	7.36815e+06	-54389.1	955.819	-29744	0.000000	0.000000	6.634982	0.044548	NaN	0.000000	0.001681	0.001695	28.0784	0.110548	0.002046	54.037	82.0835	-168.514	0.008467	0.633624	-0.113901	-0.115132	0.044548	54.037	-0.114519	-3.734073	-0.011930	NaN
315	1.000000	0.642847	7.36815e+06	-54389.1	955.818	-29744	0.000000	0.000000	6.642974	0.050128	NaN	0.000000	0.001700	0.001684	28.0784	0.131717	0.002058	63.9925	139.552	-166.078	0.010759	0.641573	-0.105909	-0.107183	0.050128	63.9925	-0.106496	-2.531499	-0.019802	NaN
315	1.000000	0.650869	7.36815e+06	-54389.1	955.819	-29744	0.000000	0.000000	6.650998	0.087822	NaN	0.000000	0.001675	0.001710	28.0785	0.055347	0.002094	26.4256	26.3097	-165.612	0.097056	0.649581	-0.097887	-0.099175	0.087822	26.4256	-0.100379	-1.862811	-0.047145	NaN
315	1.000000	0.658893	7.36815e+06	-54389.1	955.818	-29744	0.000000	0.000000	6.659017	-0.039249	NaN	0.000000	0.001687	0.001738	28.0785	0.081332	0.001857	43.7954	-23.9732	-166.197	0.042906	0.657537	-0.089863	-0.091219	-0.039249	43.7954	-0.089191	-1.034618	0.037935	NaN
315	1.000000	0.666909	7.36815e+06	-54389.1	955.819	-29744	0.000000	0.000000	6.667038	0.082264	NaN	0.000000	0.001655	0.001709	28.0784	0.043314	0.001897	22.8275	103.636	-164.09	0.140179	0.665555	-0.081847	-0.083201	0.082264	22.8275	-0.084550	-0.801238	-0.102671	NaN
315	1.000000	0.674880	7.36815e+06	-54389.1	955.819	-29744	0.000000	0.000000	6.675007	0.032565	NaN	0.000000	0.001633	0.001726	28.0787	0.136006	0.002064	65.8982	145.323	-163.657	-0.090245	0.673587	-0.073876	-0.075169	0.032565	65.8982	-0.074246	-0.441543	-0.073752	NaN
315	1.000000	0.682863	7.36815e+06	-54389.1	955.819	-29744	0.000000	0.000000	6.682987	-0.029793	NaN	0.000000	0.001636	0.001708	28.0783	0.091369	0.001941	47.0691	39.2229	-165.472	-0.060470	0.681586	-0.065893	-0.067170	-0.029793	47.0691	-0.065418	-0.255949	0.116401	NaN
315	1.000000	0.690880	7.36815e+06	-54389.1	955.818	-29744	0.000000	0.000000	6.691005	-0.014668	NaN	0.000000	0.001637	0.001678	28.0786	0.068434	0.001950	35.0888	-21.7583	-166.593	-0.002209	0.689581	-0.057876	-0.059175	-0.014668	35.0888	-0.057562	-0.153117	0.095799	NaN
315	1.000000	0.698864	7.36815e+06	-54389.1	955.818	-29744	0.000000	0.000000	6.698989	-0.014821	NaN	0.000000	0.001615	0.001751	28.0788	0.048202	0.001985	24.2892	-98.7976	-160.946	-0.068372	0.697590	-0.049892	-0.051166	-0.014821	24.2892	-0.049434	-0.087721	0.168955	NaN
315	1.000000	0.706919	7.36815e+06	-54389.1	955.819	-29744	0.000000	0.000000	6.707044	-0.019523	NaN	0.000000	0.001602	0.001754	28.0787	0.114772	0.001959	58.5859	-1.737635	-164.686	-0.061062	0.705595	-0.041837	-0.043161	-0.019523	58.5859	-0.041587	-0.050543	0.386265	NaN
315	1.000000	0.714949	7.36815e+06	-54389.1	955.819	-29744	0.000000	0.000000	6.715071	-0.070095	NaN	0.000000	0.001584	0.001761	28.0798	0.047922	0.002109	22.7265	177.577	-166.861	-0.129082	0.713585	-0.033807	-0.035171	-0.070095	22.7265	-0.031494	-0.025351	2.764925	NaN
315	1.000000	0.722913	7.36815e+06	-54389.1	955.819	-29744	0.000000	0.000000	6.723036	-0.034061	NaN	0.000000	0.001579	0.001741	28.0798	0.209610	0.002012	104.196	41.2279	-164.518	0.046386	0.721634	-0.025843	-0.027122	-0.034061	104.196	-0.025598	-0.017491	1.947380	NaN
315	1.000000	0.730899	7.36815e+06	-54389.1	955.818	-29744	0.000000	0.000000	6.731022	-0.044354	NaN	0.000000	0.001615	0.001706	28.0799	0.071848	0.001908	37.6546	15.2133	-162.073	-0.035494	0.729617	-0.017857	-0.019139	-0.044354	37.6546	-0.016974	-0.010494	4.226783	NaN
315	1.000000	0.738914	7.36815e+06	-54389.1	955.819	-29744	0.000000	0.000000	6.739040	0.005390	NaN	0.000000	0.001624	0.001736	28.0799	0.044656	0.002024	22.0646	-84.5293	-166.299	-0.009738	0.737658	-0.009842	-0.011098	0.005390	22.0646	-0.010025	-0.006402	-0.841991	NaN
315	1.000000	0.746914	7.36815e+06	-54389.1	955.818	-29744	0.000000	0.000000	6.747041	0.029920	NaN	0.000000	0.001629	0.001748	28.08	0.054242	0.002044	26.5361	125.607	-166.292	0.057518	0.745630	-0.001842	-0.003126	0.029920	26.5361	-0.002687	-0.001910	-15.6646	NaN
315	1.000000	0.754911	7.36815e+06	-54389.1	955.818	-29744	0.000000	0.000000	6.755036	0.011823	NaN	0.000000	0.001630	0.001681	28.0798	0.084543	0.002020	41.8502	63.1931	-164.328	-0.033246	0.753638	0.006155	0.004882	0.011823	41.8502	0.005943	0.005010	2.359676	540.174
315	1.000000	0.762938	7.36815e+06	-54389.1	955.818	-29744	0.000000	0.000000	6.763071	0.200694	NaN	0.000000	0.001608	0.001681	28.0798	0.219472	0.002085	105.242	4.790960	-165.411	0.136509	0.761635	0.014182	0.012879	0.200694	105.242	0.012751	0.012403	16.1817	863.391
315	1.000000	0.770954	7.36815e+06	-54389.1	955.819	-29744	0.000000	0.000000	6.771093	0.350814	NaN	0.000000	0.001611	0.001735	28.0798	0.305057	0.002050	148.817	21.4394	-164.481	0.382759	0.769589	0.022198	0.020833	0.350814	148.817	0.020430	0.023222	15.1069	892.223
315	1.000000	0.778916	7.36815e+06	-54389.1	955.819	-29744	0.000000	0.000000	6.779076	0.843189	NaN	0.000000	0.001604	0.001714	28.0797	0.535667	0.002109	253.94	21.3366	-166.458	0.851631	0.777633	0.030160	0.028877	0.843189	253.94	0.027670	0.036053	23.3876	1221.9
315	1.000000	0.786927	7.36815e+06	-54389.1	955.818	-29744	0.000000	0.000000	6.787110	1.405699	NaN	0.000000	0.001610	0.001698	28.0798	0.684959	0.001944	352.405	22.0015	-165.282	1.320749	0.785634	0.038171	0.036878	1.405699	352.405	0.035180	0.052165	26.947	1409.69
315	1.000000	0.794934	7.36815e+06	-54389.1	955.818	-29744	0.000000	0.000000	6.795136	1.871070	NaN	0.000000	0.001635	0.001705	28.0798	1.002051	0.001872	535.165	25.6903	-164.702	1.752616	0.793638	0.046178	0.044882	1.871070	535.165	0.043555	0.073539	25.4431	1803.02
315	1.000000	0.802973	7.36815e+06	-54389.1	955.818	-29744	0.000000	0.000000	6.803181	2.004413	NaN	0.000000	0.001689	0.001730	28.0799	1.030240	0.002077	496.119	24.3517	-165.433	2.075934	0.801642	0.054217	0.052886	2.004413	496.119	0.051187	0.096118	20.8537	1462.03
315	1.000000	0.810950	7.36815e+06	-54389.1	955.818	-29744	0.000000	0.000000	6.811164	2.159904	NaN	0.000000	0.001680	0.001713	28.0799	1.006804	0.002013	500.091	18.2704	-164.438	2.150035	0.809629	0.062194	0.060873	2.159904	500.091	0.058954	0.122086	17.6917	1307.65
315	1.000000	0.818956	7.36815e+06	-54389.1	955.818	-29744	0.000000	0.000000	6.819177	2.315934	NaN	0.000000	0.001683	0.001721	28.0795	1.135415	0.001927	589.083	25.5286	-163.792	2.372928	0.817661	0.070200	0.068905	2.315934	589.083	0.067252	0.153088	15.1281	1375.56
315	1.000000	0.826964	7.36815e+06	-54389.1	955.818	-29744	0.000000	0.000000	6.827186	2.353317	NaN	0.000000	0.001622	0.001734	28.0796	1.132636	0.002001	565.903	23.6247	-166.407	2.318821	0.825601	0.078208	0.076845	2.353317	565.903	0.075089	0.185402	12.693	1200.77
315	1.000000	0.834938	7.36815e+06	-54389.1	955.818	-29744	0.000000	0.000000	6.835163	2.435255	NaN	0.000000	0.001642	0.001688	28.0795	1.343947	0.002019	665.795	17.5001	-166.534	2.521067	0.833640	0.086182	0.084884	2.435255	665.795	0.083439	0.223010	10.9199	1288.11
315	1.000000	0.842950	7.36815e+06	-54389.1	955.819	-29744	0.000000	0.000000	6.843190	2.788241	NaN	0.000000	0.001659	0.001699	28.0797	1.430181	0.001927	742.093	13.9209	-161.107	2.727192	0.841614	0.094194	0.092858	2.788241	742.093	0.091376	0.261753	10.6522	1325.21
315	1.000000	0.850913	7.36815e+06	-54389.1	955.82	-29744	0.000000	0.000000	6.851174	3.290876	NaN	0.000000	0.001662	0.001703	28.0791	1.651802	0.001898	870.197	22.61	-166.896	3.185422	0.849632	0.102157	0.100876	3.290876	870.197	0.099321	0.303425	10.8458	1443.33
315	1.000000	0.858988	7.36815e+06	-54389.1	955.817	-29744	0.000000	0.000000	6.859259	3.560229	NaN	0.000000	0.001682	0.001687	28.0783	1.903836	0.002092	910.269	20.5494	-166.129	3.537190	0.857586	0.110232	0.108830	3.560229	910.269	0.107298	0.348154	10.226	1409.48
315	1.000000	0.866942	7.36815e+06	-54389.1	955.819	-29744	0.000000	0.000000	6.867233	4.034233	NaN	0.000000	0.001640	0.001651	28.0784	2.217349	0.001889	1173.94	21.0631	-166.691	3.878405	0.865624	0.118186	0.116868	4.034233	1173.94	0.115608	0.397818	10.1409	1700.5
315	1.000000	0.874987	7.36815e+06	-54389.1	955.818	-29744	0.000000	0.000000	6.875294	4.420547	NaN	0.000000	0.001617	0.001664	28.0785	2.459839	0.001888	1302.77	20.4947	-164.757	4.192217	0.873647	0.126231	0.124891	4.420547	1302.77	0.123686	0.449095	9.843240	1776.12
315	1.000000	0.882965	7.36815e+06	-54389.1	955.817	-29744	0.000000	0.000000	6.883319	5.565261	NaN	0.000000	0.001643	0.001671	28.0786	2.909315	0.001986	1464.55	14.1345	-166.1	5.432841	0.881667	0.134209	0.132911	5.565261	1464.55	0.131359	0.500554	11.1182	1891.26
315	1.000000	0.890984	7.36815e+06	-54389.1	955.818	-29744	0.000000	0.000000	6.891372	6.410459	NaN	0.000000	0.001637	0.001690	28.079	2.785700	0.002045	1362.19	16.58	-168.727	6.171777	0.889634	0.142228	0.140878	6.410459	1362.19	0.138698	0.552296	11.6069	1674.66
315	1.000000	0.898981	7.36815e+06	-54389.1	955.819	-29744	0.000000	0.000000	6.899390	6.910036	NaN	0.000000	0.001643	0.001674	28.0783	2.812067	0.001884	1492.39	19.5366	-164.672	7.089731	0.897645	0.150225	0.148889	6.910036	1492.39	0.146752	0.611930	11.2922	1743.03
315	1.000000	0.906983	7.36815e+06	-54389.1	955.818	-29744	0.000000	0.000000	6.907363	6.193363	NaN	0.000000	0.001637	0.001702	28.0786	2.955890	0.002124	1391.79	21.5771	-167.867	6.490036	0.905728	0.158227	0.156972	6.193363	1391.79	0.154890	0.675247	9.171999	1547.44
315	1.000000	0.915022	7.36815e+06	-54389.1	955.819	-29744	0.000000	0.000000	6.915373	5.498461	NaN	0.000000	0.001639	0.001731	28.0786	2.856038	0.002062	1385.41	25.1906	-168.168	5.583364	0.913665	0.166266	0.164909	5.498461	1385.41	0.163290	0.743854	7.391857	1467.6
315	1.000000	0.922979	7.36815e+06	-54389.1	955.819	-29744	0.000000	0.000000	6.923329	5.458589	NaN	0.000000	0.001637	0.001710	28.0787	2.921496	0.001961	1489.82	24.6614	-170.251	5.618107	0.921686	0.174223	0.172930	5.458589	1489.82	0.171475	0.813922	6.706529	1508.75
315	1.000000	0.930991	7.36815e+06	-54389.1	955.818	-29744	0.000000	0.000000	6.931323	5.027322	NaN	0.000000	0.001654	0.001723	28.0788	3.268734	0.001956	1670.74	22.2856	-166.849	5.009227	0.929696	0.182235	0.180940	5.027322	1670.74	0.179979	0.890103	5.648025	1617.94
315	1.000000	0.938983	7.36815e+06	-54389.1	955.819	-29744	0.000000	0.000000	6.939371	6.393886	NaN	0.000000	0.001651	0.001719	28.0785	3.661745	0.002059	1778.26	22.0085	-169.945	6.216641	0.937731	0.190227	0.188975	6.393886	1778.26	0.187530	0.960673	6.655630	1657.6
315	1.000000	0.946965	7.36815e+06	-54389.1	955.819	-29744	0.000000	0.000000	6.947416	7.944424	NaN	0.000000	0.001603	0.001690	28.0787	3.939212	0.001844	2136.08	14.9496	-162.674	7.653965	0.945687	0.198209	0.196931	7.944424	2136.08	0.195419	1.037364	7.658281	1916.13
315	2.000000	0.951615	7.36815e+06	-54389.1	955.818	-29744	0.000000	0.000000	6.952055	7.643789	NaN	0.000000	0.001634	0.001728	28.0786	4.385638	0.001818	2412.61	11.7942	-166.982	7.474957	0.951268	0.202859	0.202512	7.643789	2412.61	0.200483	1.088197	7.024269	2113.03
315	2.000000	0.953598	7.36815e+06	-54389.1	955.819	-29744	0.000000	0.000000	6.954043	7.785111	NaN	0.000000	0.001631	0.001690	28.0786	5.137075	0.001943	2643.82	16.2973	-169.513	7.982748	0.953244	0.204842	0.204488	7.785111	2643.82	0.202633	1.110162	7.012589	2292.51
315	2.000000	0.955519	7.36815e+06	-54389.1	955.819	-29744	0.000000	0.000000	6.956001	8.681456	NaN	0.000000	0.001583	0.001704	28.0787	5.354202	0.001999	2678.91	13.988	-169.802	8.057829	0.955282	0.206763	0.206526	8.681456	2678.91	0.204332	1.127678	7.698521	2304.83
315	2.000000	0.957569	7.36815e+06	-54389.1	955.818	-29744	0.000000	0.000000	6.958079	9.347701	NaN	0.000000	0.001601	0.001717	28.0788	5.633603	0.002006	2808.42	9.962496	-167.996	9.420045	0.957238	0.208813	0.208482	9.347701	2808.42	0.206317	1.148326	8.140289	2394.43
315	2.000000	0.959537	7.36815e+06	-54389.1	955.819	-29744	0.000000	0.000000	6.960090	10.3957	NaN	0.000000	0.001607	0.001693	28.0794	5.943808	0.001959	3034.77	12.3354	-170.195	10.3775	0.959253	0.210781	0.210497	10.3957	3034.77	0.208212	1.168220	8.898745	2565.29
315	2.000000	0.961543	7.36815e+06	-54389.1	955.82	-29744	0.000000	0.000000	6.962124	11.0755	NaN	0.000000	0.001627	0.001719	28.0797	6.189037	0.002003	3089.52	9.183233	-167.517	11.3141	0.961216	0.212787	0.212460	11.0755	3089.52	0.210098	1.188196	9.321234	2589.53
315	2.000000	0.963518	7.36815e+06	-54389.1	955.819	-29744	0.000000	0.000000	6.964142	12.116	NaN	0.000000	0.001609	0.001763	28.08	6.357317	0.001893	3357.6	12.0645	-171.296	12.4076	0.963241	0.214762	0.214485	12.116	3357.6	0.212056	1.209119	10.0205	2789.77
315	2.000000	0.965489	7.36815e+06	-54389.1	955.819	-29744	0.000000	0.000000	6.966158	13.2221	NaN	0.000000	0.001616	0.001728	28.0799	6.703022	0.001943	3449.25	12.7394	-172.93	13.1259	0.965250	0.216733	0.216494	13.2221	3449.25	0.213858	1.228546	10.7624	2843.16
315	2.000000	0.967478	7.36815e+06	-54389.1	955.82	-29744	0.000000	0.000000	6.968204	14.6289	NaN	0.000000	0.001610	0.001712	28.0798	7.025642	0.001866	3766.02	10.0781	-171.039	14.0196	0.967220	0.218722	0.218464	14.6289	3766.02	0.215808	1.249754	11.7054	3077.82
315	2.000000	0.969508	7.36815e+06	-54389.1	955.82	-29744	0.000000	0.000000	6.970274	15.574	NaN	0.000000	0.001602	0.001722	28.0809	7.432116	0.001865	3985.12	13.1595	-174.744	15.3525	0.969156	0.220752	0.220400	15.574	3985.12	0.217821	1.271843	12.2452	3228.48
315	2.000000	0.971471	7.36815e+06	-54389.1	955.821	-29744	0.000000	0.000000	6.972271	16.4109	NaN	0.000000	0.001578	0.001719	28.0798	7.563754	0.001919	3942.05	10.5789	-173.12	16.334	0.971165	0.222715	0.222409	16.4109	3942.05	0.219592	1.291446	12.7073	3169.25
315	2.000000	0.973528	7.36815e+06	-54389.1	955.82	-29744	0.000000	0.000000	6.974360	17.2047	NaN	0.000000	0.001611	0.001677	28.08	7.847146	0.002050	3828.5	9.361114	-170.748	17.3016	0.973213	0.224772	0.224457	17.2047	3828.5	0.221401	1.311631	13.1171	3054.19
315	2.000000	0.975503	7.36815e+06	-54389.1	955.819	-29744	0.000000	0.000000	6.976313	16.6503	NaN	0.000000	0.001610	0.001714	28.0798	7.988750	0.001980	4033.74	11.2393	-172.444	17.0072	0.975183	0.226747	0.226427	16.6503	4033.74	0.223651	1.336961	12.4538	3187.29
315	2.000000	0.977494	7.36815e+06	-54389.1	955.819	-29744	0.000000	0.000000	6.978326	17.171	NaN	0.000000	0.001601	0.001697	28.0795	8.137180	0.001991	4087.03	8.061192	-168.829	17.2005	0.977206	0.228738	0.228450	17.171	4087.03	0.225587	1.358969	12.6353	3203.15
315	2.000000	0.979488	7.36815e+06	-54389.1	955.819	-29744	0.000000	0.000000	6.980363	18.2306	NaN	0.000000	0.001571	0.001693	28.0801	8.393231	0.002038	4118.44	12.1018	-172.772	18.2885	0.979246	0.230732	0.230490	18.2306	4118.44	0.227412	1.379878	13.2118	3203.21
315	2.000000	0.981467	7.36815e+06	-54389.1	955.818	-29744	0.000000	0.000000	6.982388	19.358	NaN	0.000000	0.001600	0.001709	28.0801	8.455809	0.002078	4069.69	8.684887	-168.984	19.2733	0.981167	0.232711	0.232411	19.358	4069.69	0.229143	1.399873	13.8284	3142.61
315	2.000000	0.983428	7.36815e+06	-54389.1	955.819	-29744	0.000000	0.000000	6.984378	20.0637	NaN	0.000000	0.001591	0.001687	28.0801	8.338777	0.002025	4116.92	12.1147	-171.819	19.4881	0.983176	0.234672	0.234420	20.0637	4116.92	0.231017	1.421677	14.1127	3154.6
315	2.000000	0.985463	7.36815e+06	-54389.1	955.819	-29744	0.000000	0.000000	6.986449	20.9382	NaN	0.000000	0.001600	0.001700	28.0801	8.468359	0.001947	4350.09	7.128550	-167.504	20.6551	0.985159	0.236707	0.236403	20.9382	4350.09	0.233097	1.446099	14.4791	3305.01
315	2.000000	0.987455	7.36815e+06	-54389.1	955.82	-29744	0.000000	0.000000	6.988454	21.2407	NaN	0.000000	0.001603	0.001699	28.0799	8.726603	0.001886	4627.54	10.5867	-172.387	20.936	0.987135	0.238699	0.238379	21.2407	4627.54	0.235257	1.471687	14.4329	3485.11
315	2.000000	0.989483	7.36815e+06	-54389.1	955.819	-29744	0.000000	0.000000	6.990509	21.8908	NaN	0.000000	0.001556	0.001665	28.0801	8.900833	0.001929	4615.03	8.753022	-169.865	21.6554	0.989121	0.240727	0.240365	21.8908	4615.03	0.237170	1.494552	14.6471	3448.99
315	2.000000	0.991468	7.36815e+06	-54389.1	955.819	-29744	0.000000	0.000000	6.992513	22.3728	NaN	0.000000	0.001605	0.001704	28.0798	9.278915	0.001906	4868.13	9.026098	-171.478	22.7193	0.991146	0.242712	0.242390	22.3728	4868.13	0.239265	1.519801	14.7209	3607.8
315	2.000000	0.993475	7.36815e+06	-54389.1	955.819	-29744	0.000000	0.000000	6.994548	23.062	NaN	0.000000	0.001630	0.001704	28.0796	9.411529	0.001914	4917.39	9.275047	-171.748	23.197	0.993117	0.244719	0.244361	23.062	4917.39	0.241201	1.543336	14.9429	3616.41
315	2.000000	0.995433	7.36815e+06	-54389.1	955.819	-29744	0.000000	0.000000	6.996545	24.0041	NaN	0.000000	0.001576	0.001675	28.0786	9.872668	0.002054	4805.54	12.4026	-172.778	24.2648	0.995126	0.246677	0.246370	24.0041	4805.54	0.242930	1.564513	15.3429	3510.15
315	2.000000	0.997451	7.36815e+06	-54389.1	955.819	-29744	0.000000	0.000000	6.998572	24.2202	NaN	0.000000	0.001579	0.001663	28.0786	9.682634	0.001976	4899.01	9.706385	-171.045	24.0309	0.997156	0.248695	0.248400	24.2202	4899.01	0.244987	1.589900	15.2338	3549.74
315	2.000000	0.999462	7.36815e+06	-54389.1	955.82	-29744	0.000000	0.000000	7.000608	24.8316	NaN	0.000000	0.001582	0.001656	28.0788	9.983912	0.001869	5342.67	11.1421	-173.921	24.5324	0.999152	0.250706	0.250396	24.8316	5342.67	0.247220	1.617706	15.3499	3837.8
315	2.000000	1.001448	7.36815e+06	-54389.1	955.82	-29744	0.000000	0.000000	7.002567	24.1621	NaN	0.000000	0.001592	0.001671	28.0789	9.984157	0.001997	4999.52	9.000923	-170.164	24.3293	1.001170	0.252692	0.252414	24.1621	4999.52	0.249067	1.640900	14.7249	3565.83
315	2.000000	1.003472	7.36815e+06	-54389.1	955.82	-29744	0.000000	0.000000	7.004612	24.6797	NaN	0.000000	0.001592	0.001643	28.079	10.0495	0.002066	4865.06	9.405549	-169.982	24.696	1.003046	0.254716	0.254290	24.6797	4865.06	0.250911	1.664233	14.8295	3445.51
315	2.000000	1.005435	7.36815e+06	-54389.1	955.82	-29744	0.000000	0.000000	7.006585	24.9065	NaN	0.000000	0.001590	0.001630	28.0789	10.1191	0.001990	5085.1	9.789232	-171.361	25.1318	1.005125	0.256679	0.256369	24.9065	5085.1	0.253006	1.690943	14.7293	3572.8
315	2.000000	1.007467	7.36815e+06	-54389.1	955.821	-29744	0.000000	0.000000	7.008633	25.3045	NaN	0.000000	0.001626	0.001649	28.0788	10.4702	0.001954	5357.77	12.0882	-173.804	25.5202	1.007143	0.258711	0.258387	25.3045	5357.77	0.255168	1.718759	14.7225	3733.79
315	2.000000	1.009429	7.36815e+06	-54389.1	955.82	-29744	0.000000	0.000000	7.010627	26.0903	NaN	0.000000	0.001601	0.001594	28.0787	10.4035	0.002072	5020.44	8.862489	-169.711	25.8002	1.009143	0.260673	0.260387	26.0903	5020.44	0.256775	1.739579	14.9981	3477.71
315	2.000000	1.011435	7.36815e+06	-54389.1	955.821	-29744	0.000000	0.000000	7.012659	26.721	NaN	0.000000	0.001599	0.001677	28.0787	10.2475	0.001925	5322.66	7.452412	-169.013	26.6134	1.011096	0.262679	0.262340	26.721	5322.66	0.258913	1.767492	15.1181	3657.83
315	2.000000	1.013421	7.36815e+06	-54389.1	955.821	-29744	0.000000	0.000000	7.014637	26.5036	NaN	0.000000	0.001595	0.001623	28.0787	10.4565	0.001967	5315.24	8.802869	-171.477	26.5955	1.013150	0.264665	0.264394	26.5036	5315.24	0.260926	1.793973	14.7737	3625.67
315	2.000000	1.015433	7.36815e+06	-54389.1	955.821	-29744	0.000000	0.000000	7.016665	26.9215	NaN	0.000000	0.001598	0.001653	28.0785	10.7225	0.002007	5342.56	12.1366	-172.982	27.0978	1.015161	0.266677	0.266405	26.9215	5342.56	0.262897	1.820124	14.791	3618.03
315	2.000000	1.017457	7.36815e+06	-54389.1	955.82	-29744	0.000000	0.000000	7.018665	26.3158	NaN	0.000000	0.001620	0.001639	28.0787	10.6352	0.002011	5287.22	13.0328	-174.336	26.9442	1.017159	0.268701	0.268403	26.3158	5287.22	0.264969	1.847808	14.2416	3553.63
315	2.000000	1.019431	7.36815e+06	-54389.1	955.82	-29744	0.000000	0.000000	7.020663	26.8989	NaN	0.000000	0.001583	0.001659	28.0785	10.6399	0.001890	5630.37	13.0685	-174.47	26.828	1.019088	0.270675	0.270332	26.8989	5630.37	0.267092	1.876424	14.3352	3755.3
315	2.000000	1.021458	7.36815e+06	-54389.1	955.82	-29744	0.000000	0.000000	7.022670	26.4355	NaN	0.000000	0.001599	0.001624	28.0786	10.8104	0.001917	5639.12	12.942	-174.09	26.6359	1.021155	0.272702	0.272399	26.4355	5639.12	0.269186	1.904860	13.8779	3732.96
315	2.000000	1.023422	7.36815e+06	-54389.1	955.821	-29744	0.000000	0.000000	7.024581	25.1276	NaN	0.000000	0.001605	0.001620	28.0787	11.4563	0.002110	5430.23	16.7042	-178.204	25.2958	1.023101	0.274666	0.274345	25.1276	5430.23	0.271196	1.932375	13.0035	3568.99
315	2.000000	1.025441	7.36815e+06	-54389.1	955.82	-29744	0.000000	0.000000	7.026574	24.5028	NaN	0.000000	0.001561	0.001658	28.0783	10.9371	0.001977	5532.68	10.2749	-171.324	24.5203	1.025111	0.276685	0.276355	24.5028	5532.68	0.273363	1.962282	12.4869	3608.51
315	2.000000	1.027419	7.36815e+06	-54389.1	955.82	-29744	0.000000	0.000000	7.028571	24.9657	NaN	0.000000	0.001586	0.001654	28.0784	11.1735	0.002015	5545.49	9.379060	-170.617	25.3823	1.027118	0.278663	0.278362	24.9657	5545.49	0.275286	1.989012	12.5518	3592.48
315	2.000000	1.029411	7.36815e+06	-54389.1	955.82	-29744	0.000000	0.000000	7.030580	25.3818	NaN	0.000000	0.001585	0.001656	28.0794	11.4399	0.002065	5541.01	11.7043	-173.45	25.4882	1.029136	0.280655	0.280380	25.3818	5541.01	0.277219	2.016076	12.5897	3565.4
315	2.000000	1.031433	7.36815e+06	-54389.1	955.82	-29744	0.000000	0.000000	7.032647	26.4529	NaN	0.000000	0.001585	0.001648	28.0796	11.3566	0.001939	5856.49	10.6698	-172.34	26.5504	1.031074	0.282677	0.282318	26.4529	5856.49	0.279290	2.045284	12.9336	3741.4
315	2.000000	1.033437	7.36815e+06	-54389.1	955.82	-29744	0.000000	0.000000	7.034661	26.7264	NaN	0.000000	0.001591	0.001667	28.0792	11.4569	0.002096	5464.97	10.5575	-170.438	26.8952	1.033113	0.284681	0.284357	26.7264	5464.97	0.281013	2.069760	12.9128	3470.57
315	2.000000	1.035394	7.36815e+06	-54389.1	955.821	-29744	0.000000	0.000000	7.036610	26.5268	NaN	0.000000	0.001616	0.001635	28.0793	11.909	0.002156	5522.78	11.9863	-172.467	25.862	1.035087	0.286638	0.286331	26.5268	5522.78	0.283036	2.098684	12.6397	3483.03
315	2.000000	1.037393	7.36815e+06	-54389.1	955.821	-29744	0.000000	0.000000	7.038649	27.4948	NaN	0.000000	0.001581	0.001653	28.0795	12.1559	0.002090	5816.52	14.8638	-175.974	27.5392	1.037052	0.288637	0.288296	27.4948	5816.52	0.285091	2.128298	12.9187	3642.67
315	2.000000	1.039440	7.36815e+06	-54389.1	955.819	-29744	0.000000	0.000000	7.040719	28.0588	NaN	0.000000	0.001612	0.001635	28.0796	11.9189	0.001981	6017.05	10.0131	-170.647	28.1254	1.039125	0.290684	0.290369	28.0588	6017.05	0.287187	2.158708	12.998	3741.62
315	2.000000	1.041422	7.36815e+06	-54389.1	955.819	-29744	0.000000	0.000000	7.042713	28.3548	NaN	0.000000	0.001615	0.001655	28.0805	11.7968	0.002030	5811.6	10.761	-171.509	28.6104	1.041061	0.292666	0.292305	28.3548	5811.6	0.289007	2.185305	12.9752	3591.81
315	2.000000	1.043382	7.36815e+06	-54389.1	955.82	-29744	0.000000	0.000000	7.044701	29.0261	NaN	0.000000	0.001595	0.001662	28.0793	12.5736	0.002035	6179.67	12.3292	-173.309	29.0754	1.043113	0.294626	0.294357	29.0261	6179.67	0.291103	2.216157	13.0975	3792.61
315	2.000000	1.045392	7.36815e+06	-54389.1	955.82	-29744	0.000000	0.000000	7.046701	28.7706	NaN	0.000000	0.001638	0.001647	28.0793	12.3843	0.001935	6399.01	9.765198	-171.309	29.1362	1.045120	0.296636	0.296364	28.7706	6399.01	0.293264	2.248198	12.7972	3899.14
315	2.000000	1.047404	7.36815e+06	-54389.1	955.821	-29744	0.000000	0.000000	7.048748	29.6367	NaN	0.000000	0.001623	0.001640	28.0797	13.1555	0.001968	6685.44	13.8844	-176.043	29.701	1.047107	0.298648	0.298351	29.6367	6685.44	0.295323	2.278952	13.0045	4046.09
315	2.000000	1.048404	7.36815e+06	-54389.1	955.82	-29744	0.000000	0.000000	7.049740	29.4363	NaN	0.000000	0.001613	0.001672	28.0792	13.0305	0.002035	6404.59	12.4873	-174.324	29.481	1.048066	0.299648	0.299310	29.4363	6404.59	0.296201	2.292125	12.8424	3864.96