File: remote_trans/data/nanoindenter/0828-1/data/Data_2025-08-06,11h17m57s/2025-07-22_16-23-58_1_219.txt
2025-07-22, 16:23:58, 1
Index	Phase	Displacement	Time	Pos X	Pos Y	Pos Z	Rot A	Rot B	Piezo Z	Force A	Force B	Gripper	Voltage A	Voltage B	Temperature	Amplitude force	Amplitude pos	Stiffness	Phase shift	Phase excitation	Force A raw	Displacement raw	HMax	HMax raw	Real Force	Real Stiffness	Contact Depth	Area	Hardness	Reduced Mod.
[#]	[#]	[um]	[s]	[um]	[um]	[um]	[m°]	[m°]	[um]	[uN]	[uN]	[V]	[V]	[V]	[°C]	[uN]	[um]	[N/m]	[°]	[°]	[uN]	[um]	[um]	[um]	[uN]	[N/m]	[um]	[um^2]	[MPa]	[MPa]
219	1.000000	0.002244	7.36719e+06	-49589.1	955.818	-29758.8	0.000000	0.000000	6.002768	-0.049975	NaN	0.000000	0.001583	0.001719	28.078	0.107240	0.000945	113.445	137.542	-160.64	-0.120455	0.001033	-1.142415	-1.143626	-0.049975	113.445	-1.142085	-1.839491E+15	2.716781E-17	NaN
219	1.000000	0.012337	7.36719e+06	-49589.1	955.819	-29758.8	0.000000	0.000000	6.012862	-0.055724	NaN	0.000000	0.001613	0.001694	28.0779	0.073108	0.001263	57.8818	21.6465	19.1311	-0.097948	0.010917	-1.132322	-1.133742	-0.055724	57.8818	-1.131600	-1.330697E+15	4.187615E-17	NaN
219	1.000000	0.022258	7.36719e+06	-49589.1	955.818	-29758.8	0.000000	0.000000	6.022785	0.006104	NaN	0.000000	0.001579	0.001700	28.0781	0.122527	0.001828	67.0231	137.334	-165.862	-0.003438	0.020935	-1.122401	-1.123724	0.006104	67.0231	-1.122470	-1.003703E+15	-6.081883E-18	NaN
219	1.000000	0.032205	7.36719e+06	-49589.1	955.818	-29758.8	0.000000	0.000000	6.032733	0.017653	NaN	0.000000	0.001638	0.001690	28.078	0.087266	0.001912	45.6449	75.4481	13.3295	0.059222	0.030866	-1.112454	-1.113793	0.017653	45.6449	-1.112744	-7.432054E+14	-2.375244E-17	NaN
219	1.000000	0.042220	7.36719e+06	-49589.1	955.818	-29758.8	0.000000	0.000000	6.042745	-0.034477	NaN	0.000000	0.001589	0.001685	28.0782	0.023649	0.001991	11.8787	26.5807	-165.573	-0.034060	0.040965	-1.102439	-1.103694	-0.034477	11.8787	-1.100262	-5.053488E+14	6.822361E-17	NaN
219	1.000000	0.052240	7.36719e+06	-49589.1	955.818	-29758.8	0.000000	0.000000	6.052766	-0.016509	NaN	0.000000	0.001603	0.001674	28.078	0.017017	0.001972	8.630876	-174.835	12.3836	-0.022165	0.050833	-1.092419	-1.093826	-0.016509	8.630876	-1.090984	-3.793393E+14	4.352170E-17	NaN
219	1.000000	0.062258	7.36719e+06	-49589.1	955.818	-29758.8	0.000000	0.000000	6.062781	-0.093605	NaN	0.000000	0.001581	0.001695	28.0781	0.087570	0.001979	44.2527	-79.7189	-164.984	-0.118007	0.060909	-1.082401	-1.083750	-0.093605	44.2527	-1.080815	-2.769895E+14	3.379359E-16	NaN
219	1.000000	0.072253	7.36719e+06	-49589.1	955.817	-29758.8	0.000000	0.000000	6.072778	-0.028891	NaN	0.000000	0.001577	0.001689	28.0781	0.021653	0.001999	10.8297	4.656198	13.3571	-0.057378	0.070831	-1.072406	-1.073828	-0.028891	10.8297	-1.070405	-2.007397E+14	1.439236E-16	NaN
219	1.000000	0.082267	7.36719e+06	-49589.1	955.818	-29758.8	0.000000	0.000000	6.082792	-0.047077	NaN	0.000000	0.001604	0.001708	28.0782	0.148080	0.001965	75.3508	-93.442	-163.294	0.067517	0.080922	-1.062392	-1.063737	-0.047077	75.3508	-1.061923	-1.544074E+14	3.048868E-16	NaN
219	1.000000	0.092240	7.36719e+06	-49589.1	955.818	-29758.8	0.000000	0.000000	6.092763	-0.086497	NaN	0.000000	0.001623	0.001728	28.0784	0.064920	0.002007	32.3512	-66.7172	13.8008	-0.043195	0.090901	-1.052419	-1.053758	-0.086497	32.3512	-1.050414	-1.081376E+14	7.998799E-16	NaN
219	1.000000	0.102229	7.36719e+06	-49589.1	955.819	-29758.8	0.000000	0.000000	6.102752	-0.065785	NaN	0.000000	0.001623	0.001712	28.0794	0.018122	0.002014	8.995790	117.198	-165.395	-0.118668	0.100918	-1.042431	-1.043741	-0.065785	8.995790	-1.036946	-7.126865E+13	9.230542E-16	NaN
219	1.000000	0.112231	7.36719e+06	-49589.1	955.818	-29758.8	0.000000	0.000000	6.112757	-0.012261	NaN	0.000000	0.001604	0.001714	28.0794	0.078639	0.002035	38.6433	-13.2689	14.6833	-0.020547	0.110905	-1.032428	-1.033754	-0.012261	38.6433	-1.032190	-6.150961E+13	1.993325E-16	NaN
219	1.000000	0.122240	7.36719e+06	-49589.1	955.817	-29758.8	0.000000	0.000000	6.122764	-0.046429	NaN	0.000000	0.001605	0.001684	28.0794	0.103375	0.002033	50.8418	-167.429	-169.237	-0.159306	0.120957	-1.022419	-1.023702	-0.046429	50.8418	-1.021735	-4.449279E+13	1.043510E-15	NaN
219	1.000000	0.132285	7.36719e+06	-49589.1	955.819	-29758.8	0.000000	0.000000	6.132812	0.027952	NaN	0.000000	0.001585	0.001710	28.0795	0.088855	0.001950	45.5572	140.307	12.5184	0.020967	0.130890	-1.012374	-1.013769	0.027952	45.5572	-1.012835	-3.376999E+13	-8.277318E-16	NaN
219	1.000000	0.142256	7.36719e+06	-49589.1	955.818	-29758.8	0.000000	0.000000	6.142783	0.002343	NaN	0.000000	0.001564	0.001708	28.0792	0.066735	0.001857	35.9411	81.8665	-167.321	-0.061554	0.140967	-1.002403	-1.003692	0.002343	35.9411	-1.002452	-2.447801E+13	-9.572305E-17	NaN
219	1.000000	0.152266	7.36719e+06	-49589.1	955.818	-29758.8	0.000000	0.000000	6.152793	2.668849E-5	NaN	0.000000	0.001599	0.001737	28.0793	0.068557	0.001996	34.3448	108.122	12.4835	0.020105	0.150907	-0.992393	-0.993752	2.668849E-5	34.3448	-0.992394	-1.792043E+13	-1.489278E-18	NaN
219	1.000000	0.162304	7.36719e+06	-49589.1	955.818	-29758.8	0.000000	0.000000	6.162830	-0.031690	NaN	0.000000	0.001582	0.001741	28.0794	0.083097	0.001970	42.1714	-145.645	-168.357	-0.099282	0.160957	-0.982355	-0.983702	-0.031690	42.1714	-0.981791	-1.289853E+13	2.456906E-15	NaN
219	1.000000	0.172298	7.36719e+06	-49589.1	955.818	-29758.8	0.000000	0.000000	6.172820	-0.117607	NaN	0.000000	0.001592	0.001715	28.0795	0.054829	0.001899	28.8761	153.024	14.9368	-0.056044	0.170897	-0.972361	-0.973762	-0.117607	28.8761	-0.969306	-8.756206E+12	1.343131E-14	NaN
219	1.000000	0.182274	7.36719e+06	-49589.1	955.817	-29758.8	0.000000	0.000000	6.182798	-0.060981	NaN	0.000000	0.001575	0.001697	28.079	0.116895	0.001991	58.7124	-49.2769	-167.411	0.018432	0.181017	-0.962386	-0.963642	-0.060981	58.7124	-0.961607	-6.894899E+12	8.844332E-15	NaN
219	1.000000	0.192284	7.36719e+06	-49589.1	955.818	-29758.8	0.000000	0.000000	6.192808	-0.084653	NaN	0.000000	0.001633	0.001710	28.0793	0.064788	0.002108	30.739	40.1885	14.8239	-0.072451	0.190897	-0.952375	-0.953763	-0.084653	30.739	-0.950309	-4.855097E+12	1.743600E-14	NaN
219	1.000000	0.202317	7.36719e+06	-49589.1	955.818	-29758.8	0.000000	0.000000	6.202840	-0.078447	NaN	0.000000	0.001656	0.001701	28.0792	0.046783	0.001955	23.9325	169.051	-166.308	-0.034740	0.201021	-0.942342	-0.943638	-0.078447	23.9325	-0.939884	-3.512142E+12	2.233584E-14	NaN
219	1.000000	0.212316	7.36719e+06	-49589.1	955.818	-29758.8	0.000000	0.000000	6.212842	-0.016882	NaN	0.000000	0.001683	0.001685	28.0795	0.120269	0.001896	63.4469	36.0889	14.2392	-0.018728	0.210950	-0.932343	-0.933709	-0.016882	63.4469	-0.932144	-2.761383E+12	6.113443E-15	NaN
219	1.000000	0.222289	7.36719e+06	-49589.1	955.818	-29758.8	0.000000	0.000000	6.222813	-0.080012	NaN	0.000000	0.001659	0.001686	28.0795	0.084391	0.001892	44.5926	98.7755	-163.809	-0.083545	0.220944	-0.922370	-0.923715	-0.080012	44.5926	-0.921024	-1.954488E+12	4.093764E-14	NaN
219	1.000000	0.232311	7.36719e+06	-49589.1	955.818	-29758.8	0.000000	0.000000	6.232833	-0.107158	NaN	0.000000	0.001659	0.001682	28.078	0.024464	0.002099	11.655	-40.0741	13.7566	-0.140441	0.230945	-0.912348	-0.913714	-0.107158	11.655	-0.905452	-1.204298E+12	8.897995E-14	NaN
219	1.000000	0.242296	7.36719e+06	-49589.1	955.818	-29758.8	0.000000	0.000000	6.242816	-0.166931	NaN	0.000000	0.001697	0.001685	28.0782	0.053513	0.001990	26.8959	128.58	-166.988	-0.145819	0.241030	-0.902363	-0.903629	-0.166931	26.8959	-0.897708	-9.464410E+11	1.763774E-13	NaN
219	1.000000	0.252291	7.36719e+06	-49589.1	955.818	-29758.8	0.000000	0.000000	6.252815	-0.056686	NaN	0.000000	0.001634	0.001712	28.0784	0.031544	0.001962	16.0782	5.762655	18.2822	-0.051355	0.250896	-0.892368	-0.893763	-0.056686	16.0782	-0.889724	-7.382210E+11	7.678674E-14	NaN
219	1.000000	0.262333	7.36719e+06	-49589.1	955.818	-29758.8	0.000000	0.000000	6.262858	-0.041403	NaN	0.000000	0.001647	0.001681	28.0782	0.062004	0.002018	30.7327	-125.833	-165.024	0.029063	0.261005	-0.882326	-0.883654	-0.041403	30.7327	-0.881316	-5.682059E+11	7.286650E-14	NaN
219	1.000000	0.272312	7.36719e+06	-49589.1	955.818	-29758.8	0.000000	0.000000	6.272837	-0.041691	NaN	0.000000	0.001587	0.001646	28.0784	0.096169	0.002039	47.162	168.702	16.6358	0.028832	0.270944	-0.872347	-0.873715	-0.041691	47.162	-0.871684	-4.209422E+11	9.904114E-14	NaN
219	1.000000	0.282307	7.36719e+06	-49589.1	955.817	-29758.8	0.000000	0.000000	6.282831	-0.081246	NaN	0.000000	0.001585	0.001662	28.0784	0.048714	0.002080	23.4256	177.218	-165.756	-0.082141	0.281014	-0.862352	-0.863645	-0.081246	23.4256	-0.859751	-2.902310E+11	2.799357E-13	NaN
219	1.000000	0.292325	7.36719e+06	-49589.1	955.818	-29758.8	0.000000	0.000000	6.292850	-0.037966	NaN	0.000000	0.001574	0.001661	28.0791	0.052062	0.001873	27.796	158.795	12.309	-0.017851	0.291006	-0.852334	-0.853653	-0.037966	27.796	-0.851310	-2.230861E+11	1.701859E-13	NaN
219	1.000000	0.302334	7.36719e+06	-49589.1	955.818	-29758.8	0.000000	0.000000	6.302861	-0.004130	NaN	0.000000	0.001564	0.001659	28.0782	0.067301	0.001800	37.3803	93.9194	-170.664	0.039226	0.301063	-0.842325	-0.843597	-0.004130	37.3803	-0.842242	-1.681379E+11	2.456270E-14	NaN
219	1.000000	0.312351	7.36719e+06	-49589.1	955.818	-29758.8	0.000000	0.000000	6.312876	-0.026020	NaN	0.000000	0.001592	0.001690	28.0783	0.078392	0.001983	39.5284	115.246	14.7283	-0.051144	0.311015	-0.832309	-0.833644	-0.026020	39.5284	-0.831815	-1.214458E+11	2.142485E-13	NaN
219	1.000000	0.322366	7.36719e+06	-49589.1	955.819	-29758.8	0.000000	0.000000	6.322890	-0.056161	NaN	0.000000	0.001575	0.001661	28.0781	0.056486	0.001964	28.7596	119.638	-169.888	-0.017543	0.320993	-0.822293	-0.823666	-0.056161	28.7596	-0.820829	-8.618847E+10	6.516115E-13	NaN
219	1.000000	0.332335	7.36719e+06	-49589.1	955.818	-29758.8	0.000000	0.000000	6.332864	0.064571	NaN	0.000000	0.001613	0.001662	28.0782	0.077679	0.002008	38.6821	110.58	14.0646	0.030795	0.330950	-0.812324	-0.813709	0.064571	38.6821	-0.813576	-6.872016E+10	-9.396206E-13	NaN
219	1.000000	0.342353	7.36719e+06	-49589.1	955.818	-29758.8	0.000000	0.000000	6.342876	-0.068061	NaN	0.000000	0.001577	0.001649	28.078	0.043749	0.001984	22.0486	120.617	-168.462	-0.099560	0.341062	-0.802307	-0.803597	-0.068061	22.0486	-0.799991	-4.495164E+10	1.514091E-12	NaN
219	1.000000	0.352328	7.36719e+06	-49589.1	955.818	-29758.8	0.000000	0.000000	6.352853	-0.048564	NaN	0.000000	0.001574	0.001692	28.078	0.081281	0.001979	41.0666	-43.205	13.1205	-0.070250	0.351002	-0.792331	-0.793658	-0.048564	41.0666	-0.791444	-3.441090E+10	1.411302E-12	NaN
219	1.000000	0.362349	7.36719e+06	-49589.1	955.818	-29758.8	0.000000	0.000000	6.362878	0.050590	NaN	0.000000	0.001583	0.001680	28.0784	0.051111	0.002007	25.4623	-79.3719	-162.714	0.018671	0.361071	-0.782310	-0.783588	0.050590	25.4623	-0.783800	-2.709374E+10	-1.867231E-12	NaN
219	1.000000	0.372371	7.36719e+06	-49589.1	955.817	-29758.8	0.000000	0.000000	6.372897	-0.016973	NaN	0.000000	0.001585	0.001660	28.0793	0.079569	0.001943	40.9535	-151.965	14.0602	-0.055161	0.370968	-0.772288	-0.773692	-0.016973	40.9535	-0.771978	-1.871510E+10	9.069108E-13	NaN
219	1.000000	0.382397	7.36719e+06	-49589.1	955.818	-29758.8	0.000000	0.000000	6.382924	0.022137	NaN	0.000000	0.001602	0.001657	28.0793	0.007471	0.001897	3.939331	145.538	-164.884	-0.103313	0.381059	-0.762262	-0.763600	0.022137	3.939331	-0.766477	-1.575434E+10	-1.405164E-12	NaN
219	1.000000	0.392364	7.36719e+06	-49589.1	955.818	-29758.8	0.000000	0.000000	6.392889	-0.050784	NaN	0.000000	0.001582	0.001655	28.0791	0.086437	0.001977	43.7168	97.6579	12.5598	0.064080	0.391035	-0.752295	-0.753625	-0.050784	43.7168	-0.751424	-9.831042E+9	5.165643E-12	NaN
219	1.000000	0.402393	7.36719e+06	-49589.1	955.819	-29758.8	0.000000	0.000000	6.402919	0.003133	NaN	0.000000	0.001580	0.001661	28.0792	0.043261	0.001941	22.2899	-106.583	-167.657	-0.041036	0.401082	-0.742266	-0.743577	0.003133	22.2899	-0.742372	-7.402183E+9	-4.232516E-13	NaN
219	1.000000	0.412387	7.36719e+06	-49589.1	955.818	-29758.8	0.000000	0.000000	6.412910	-0.090043	NaN	0.000000	0.001586	0.001668	28.0789	0.082372	0.002002	41.1408	114.188	12.2853	-0.058602	0.411037	-0.732272	-0.733622	-0.090043	41.1408	-0.730630	-5.121515E+9	1.758134E-11	NaN
219	1.000000	0.422367	7.36719e+06	-49589.1	955.818	-29758.8	0.000000	0.000000	6.422893	-0.027453	NaN	0.000000	0.001592	0.001677	28.0788	0.020661	0.001935	10.6747	-114.19	-167.059	0.013455	0.421070	-0.722292	-0.723589	-0.027453	10.6747	-0.720363	-3.710436E+9	7.398852E-12	NaN
219	1.000000	0.432384	7.36719e+06	-49589.1	955.818	-29758.8	0.000000	0.000000	6.432910	0.002539	NaN	0.000000	0.001604	0.001696	28.0789	0.073152	0.002015	36.3106	-162.584	11.8938	-0.037877	0.431030	-0.712275	-0.713629	0.002539	36.3106	-0.712328	-2.882806E+9	-8.808480E-13	NaN
219	1.000000	0.442401	7.36719e+06	-49589.1	955.818	-29758.8	0.000000	0.000000	6.442925	-0.072735	NaN	0.000000	0.001585	0.001659	28.0793	0.056355	0.002060	27.3535	131.668	-164.84	-0.043466	0.441076	-0.702258	-0.703583	-0.072735	27.3535	-0.700264	-1.973019E+9	3.686477E-11	NaN
219	1.000000	0.452382	7.36719e+06	-49589.1	955.818	-29758.8	0.000000	0.000000	6.452908	-0.014913	NaN	0.000000	0.001612	0.001694	28.079	0.098999	0.002108	46.9619	19.4099	17.3653	0.081296	0.451007	-0.692277	-0.693652	-0.014913	46.9619	-0.692039	-1.523292E+9	9.790052E-12	NaN
219	1.000000	0.462392	7.36719e+06	-49589.1	955.818	-29758.8	0.000000	0.000000	6.462917	-0.033115	NaN	0.000000	0.001587	0.001664	28.0789	0.065390	0.001952	33.5049	140.944	-168.844	0.046607	0.461130	-0.682268	-0.683529	-0.033115	33.5049	-0.681526	-1.094153E+9	3.026528E-11	NaN
219	1.000000	0.472389	7.36719e+06	-49589.1	955.818	-29758.8	0.000000	0.000000	6.472911	-0.099043	NaN	0.000000	0.001605	0.001657	28.0791	0.055791	0.001962	28.4429	-77.9067	15.6271	-0.040303	0.471020	-0.672271	-0.673640	-0.099043	28.4429	-0.669659	-7.528755E+8	1.315536E-10	NaN
219	1.000000	0.482395	7.36719e+06	-49589.1	955.818	-29758.8	0.000000	0.000000	6.482920	-0.018666	NaN	0.000000	0.001605	0.001656	28.0793	0.113916	0.002095	54.3694	74.1799	-166.605	0.058688	0.481072	-0.662265	-0.663587	-0.018666	54.3694	-0.662007	-5.915052E+8	3.155622E-11	NaN
219	1.000000	0.492402	7.36719e+06	-49589.1	955.818	-29758.8	0.000000	0.000000	6.492926	-0.049981	NaN	0.000000	0.001579	0.001687	28.079	0.064305	0.001853	34.707	0.215032	15.1236	-0.100201	0.491061	-0.652257	-0.653598	-0.049981	34.707	-0.651177	-4.203147E+8	1.189133E-10	NaN
219	1.000000	0.502396	7.36719e+06	-49589.1	955.817	-29758.8	0.000000	0.000000	6.502920	-0.082214	NaN	0.000000	0.001617	0.001655	28.0789	0.103738	0.002119	48.9581	-63.0894	-165.681	-0.115148	0.501069	-0.642263	-0.643590	-0.082214	48.9581	-0.641003	-3.048284E+8	2.697058E-10	NaN
219	1.000000	0.512424	7.36719e+06	-49589.1	955.818	-29758.8	0.000000	0.000000	6.512948	-0.061053	NaN	0.000000	0.001671	0.001686	28.0779	0.116736	0.001936	60.3125	141.155	13.9062	-0.073523	0.511075	-0.632235	-0.633584	-0.061053	60.3125	-0.631476	-2.255726E+8	2.706595E-10	NaN
219	1.000000	0.522436	7.36719e+06	-49589.1	955.818	-29758.8	0.000000	0.000000	6.522961	-0.025367	NaN	0.000000	0.001680	0.001672	28.0785	0.042716	0.002079	20.549	-132.079	-165.503	0.020241	0.521154	-0.622223	-0.623506	-0.025367	20.549	-0.621297	-1.634806E+8	1.551712E-10	NaN
219	1.000000	0.532449	7.36719e+06	-49589.1	955.818	-29758.8	0.000000	0.000000	6.532973	-0.042647	NaN	0.000000	0.001649	0.001648	28.0778	0.143571	0.001963	73.1406	-140.667	11.74	-0.018509	0.531052	-0.612211	-0.613607	-0.042647	73.1406	-0.611773	-1.209232E+8	3.526820E-10	NaN
219	1.000000	0.542409	7.36719e+06	-49589.1	955.817	-29758.8	0.000000	0.000000	6.542932	-0.085204	NaN	0.000000	0.001664	0.001683	28.078	0.034240	0.002017	16.974	17.3281	-162.755	-0.004934	0.541146	-0.602250	-0.603513	-0.085204	16.974	-0.598486	-7.936011E+7	1.073639E-9	NaN
219	1.000000	0.552424	7.36719e+06	-49589.1	955.817	-29758.8	0.000000	0.000000	6.552950	-0.016520	NaN	0.000000	0.001599	0.001675	28.0778	0.057744	0.002099	27.5162	-131.167	18.2887	-0.070481	0.551141	-0.592235	-0.593519	-0.016520	27.5162	-0.591784	-6.416009E+7	2.574873E-10	NaN
219	1.000000	0.562450	7.36719e+06	-49589.1	955.818	-29758.8	0.000000	0.000000	6.562976	-0.008806	NaN	0.000000	0.001595	0.001694	28.0782	0.042212	0.001913	22.0661	-134.687	-164.613	-0.011073	0.561139	-0.582209	-0.583520	-0.008806	22.0661	-0.581910	-4.689069E+7	1.877929E-10	NaN
219	1.000000	0.572452	7.36719e+06	-49589.1	955.817	-29758.8	0.000000	0.000000	6.572977	-0.048328	NaN	0.000000	0.001580	0.001710	28.0776	0.060475	0.001956	30.9142	-119.253	13.2048	0.027707	0.571119	-0.572207	-0.573540	-0.048328	30.9142	-0.571034	-3.318352E+7	1.456384E-9	NaN
219	1.000000	0.582471	7.36719e+06	-49589.1	955.818	-29758.8	0.000000	0.000000	6.582995	-0.072571	NaN	0.000000	0.001579	0.001702	28.0779	0.033551	0.001970	17.0279	12.1618	-163.169	-0.012146	0.581154	-0.562188	-0.563505	-0.072571	17.0279	-0.558991	-2.261639E+7	3.208758E-9	NaN
219	1.000000	0.592464	7.36719e+06	-49589.1	955.817	-29758.8	0.000000	0.000000	6.592987	-0.077358	NaN	0.000000	0.001513	0.001706	28.0779	0.113138	0.001953	57.9287	-36.088	17.7295	-0.086546	0.591097	-0.552195	-0.553562	-0.077358	57.9287	-0.551194	-1.763971E+7	4.385436E-9	NaN
219	1.000000	0.602443	7.36719e+06	-49589.1	955.817	-29758.8	0.000000	0.000000	6.602968	-0.036637	NaN	0.000000	0.001571	0.001714	28.0781	0.016297	0.001994	8.175000	97.321	-164.497	0.026554	0.601173	-0.542216	-0.543486	-0.036637	8.175000	-0.538855	-1.189792E+7	3.079318E-9	NaN
219	1.000000	0.612487	7.36719e+06	-49589.1	955.818	-29758.8	0.000000	0.000000	6.613012	-0.054433	NaN	0.000000	0.001598	0.001719	28.0778	0.043822	0.002079	21.0801	134.296	14.6456	-0.000476	0.611071	-0.532172	-0.533588	-0.054433	21.0801	-0.530235	-9.03321e+06	6.025858E-9	NaN
219	1.000000	0.622507	7.36719e+06	-49589.1	955.818	-29758.8	0.000000	0.000000	6.623030	-0.088528	NaN	0.000000	0.001550	0.001712	28.0779	0.081107	0.002028	39.9998	-71.3525	-169.174	-0.053960	0.621168	-0.522152	-0.523491	-0.088528	39.9998	-0.520492	-6.61362e+06	1.338571E-8	NaN
219	1.000000	0.632465	7.36719e+06	-49589.1	955.818	-29758.8	0.000000	0.000000	6.632991	-0.003021	NaN	0.000000	0.001588	0.001701	28.0781	0.038405	0.002122	18.1005	-75.1911	13.6435	-0.020589	0.631101	-0.512194	-0.513558	-0.003021	18.1005	-0.512069	-5.04933e+06	5.983252E-10	NaN
219	1.000000	0.642470	7.36719e+06	-49589.1	955.818	-29758.8	0.000000	0.000000	6.642993	-0.087035	NaN	0.000000	0.001571	0.001645	28.0791	0.072212	0.001991	36.2741	-127.291	-163.485	-0.110889	0.641173	-0.502190	-0.503486	-0.087035	36.2741	-0.500390	-3.47103e+06	2.507462E-8	NaN
219	1.000000	0.652489	7.36719e+06	-49589.1	955.817	-29758.8	0.000000	0.000000	6.653014	-0.050038	NaN	0.000000	0.001533	0.001630	28.0791	0.108735	0.002061	52.7606	-176.22	17.9093	-0.101580	0.651137	-0.492170	-0.493522	-0.050038	52.7606	-0.491459	-2.60481e+06	1.921001E-8	NaN
219	1.000000	0.662466	7.36719e+06	-49589.1	955.819	-29758.8	0.000000	0.000000	6.662988	-0.109602	NaN	0.000000	0.001567	0.001683	28.0792	0.084380	0.001993	42.328	-40.064	-165.019	-0.138879	0.661148	-0.482193	-0.483511	-0.109602	42.328	-0.480251	-1.81571e+06	6.036327E-8	NaN
219	1.000000	0.672534	7.36719e+06	-49589.1	955.818	-29758.8	0.000000	0.000000	6.673060	-0.018660	NaN	0.000000	0.001583	0.001696	28.0794	0.050813	0.002068	24.5692	-142.903	16.1101	-0.024475	0.671132	-0.472125	-0.473527	-0.018660	24.5692	-0.471555	-1.37158e+06	1.360454E-8	NaN
219	1.000000	0.682503	7.36719e+06	-49589.1	955.818	-29758.8	0.000000	0.000000	6.683028	-0.051514	NaN	0.000000	0.001584	0.001667	28.0792	0.048645	0.001882	25.8537	-6.508948	-162.88	-0.089926	0.681155	-0.462156	-0.463504	-0.051514	25.8537	-0.460662	-964530	5.340838E-8	NaN
219	1.000000	0.692519	7.36719e+06	-49589.1	955.819	-29758.8	0.000000	0.000000	6.693044	-0.054727	NaN	0.000000	0.001592	0.001650	28.0791	0.041685	0.001951	21.3677	-16.061	16.1576	-0.103571	0.691124	-0.452140	-0.453535	-0.054727	21.3677	-0.450219	-687742	7.957560E-8	NaN
219	1.000000	0.702494	7.36719e+06	-49589.1	955.818	-29758.8	0.000000	0.000000	6.703018	-0.041742	NaN	0.000000	0.001619	0.001659	28.079	0.061597	0.001993	30.91	33.1465	-167.067	-0.036396	0.701244	-0.442166	-0.443415	-0.041742	30.91	-0.441153	-512425	8.145913E-8	NaN
219	1.000000	0.712497	7.36719e+06	-49589.1	955.818	-29758.8	0.000000	0.000000	6.713023	-0.024278	NaN	0.000000	0.001628	0.001634	28.0792	0.057427	0.002028	28.3203	-146.723	15.5846	0.023383	0.711164	-0.432162	-0.433495	-0.024278	28.3203	-0.431519	-374585	6.481380E-8	NaN
219	1.000000	0.722508	7.36719e+06	-49589.1	955.818	-29758.8	0.000000	0.000000	6.723033	-0.030075	NaN	0.000000	0.001598	0.001620	28.0791	0.040704	0.002055	19.8065	74.7298	-164.53	-0.086337	0.721229	-0.422151	-0.423430	-0.030075	19.8065	-0.421012	-265931	1.130946E-7	NaN
219	1.000000	0.732524	7.36719e+06	-49589.1	955.819	-29758.8	0.000000	0.000000	6.733048	-0.049315	NaN	0.000000	0.001619	0.001637	28.0791	0.052603	0.002142	24.5551	131.585	11.0306	-0.061181	0.731156	-0.412135	-0.413503	-0.049315	24.5551	-0.410629	-189386	2.603924E-7	NaN
219	1.000000	0.742516	7.36719e+06	-49589.1	955.819	-29758.8	0.000000	0.000000	6.743040	-0.062565	NaN	0.000000	0.001676	0.001619	28.0789	0.014852	0.002032	7.308170	-9.292196	-164.819	-0.036250	0.741198	-0.402143	-0.403461	-0.062565	7.308170	-0.395722	-116132	5.387396E-7	NaN
219	1.000000	0.752508	7.36719e+06	-49589.1	955.818	-29758.8	0.000000	0.000000	6.753034	-0.020394	NaN	0.000000	0.001688	0.001667	28.0793	0.056741	0.001836	30.8972	12.9902	12.5509	-0.046809	0.751105	-0.392151	-0.393554	-0.020394	30.8972	-0.391656	-101588	2.007522E-7	NaN
219	1.000000	0.762518	7.36719e+06	-49589.1	955.818	-29758.8	0.000000	0.000000	6.763047	0.068096	NaN	0.000000	0.001675	0.001681	28.079	0.154803	0.002083	74.3091	-1.252259	-164.475	0.016307	0.761111	-0.382141	-0.383548	0.068096	74.3091	-0.382829	-75938.7	-8.967213E-7	NaN
219	1.000000	0.772524	7.36719e+06	-49589.1	955.818	-29758.8	0.000000	0.000000	6.773047	-0.088825	NaN	0.000000	0.001665	0.001641	28.0793	0.085307	0.002045	41.7057	137.868	17.4993	-0.063222	0.771163	-0.372135	-0.373496	-0.088825	41.7057	-0.370538	-50568	1.756539E-6	NaN
219	1.000000	0.782530	7.36719e+06	-49589.1	955.818	-29758.8	0.000000	0.000000	6.783053	-0.099906	NaN	0.000000	0.001630	0.001624	28.0778	0.055431	0.001990	27.8518	-37.3642	-163.956	-0.187671	0.781212	-0.362129	-0.363447	-0.099906	27.8518	-0.359438	-34972.5	2.856701E-6	NaN
219	1.000000	0.792523	7.36719e+06	-49589.1	955.819	-29758.8	0.000000	0.000000	6.793050	0.012641	NaN	0.000000	0.001596	0.001643	28.078	0.103517	0.001942	53.3015	-4.316293	15.1949	0.017871	0.791171	-0.352136	-0.353488	0.012641	53.3015	-0.352314	-27578.8	-4.583449E-7	NaN
219	1.000000	0.802514	7.36719e+06	-49589.1	955.819	-29758.8	0.000000	0.000000	6.803038	-0.047173	NaN	0.000000	0.001577	0.001656	28.0778	0.023825	0.002103	11.3271	3.124725	-167.861	0.036224	0.801231	-0.342146	-0.343428	-0.047173	11.3271	-0.339022	-17672.4	2.669289E-6	NaN
219	1.000000	0.812536	7.36719e+06	-49589.1	955.818	-29758.8	0.000000	0.000000	6.813060	-0.082040	NaN	0.000000	0.001612	0.001671	28.0781	0.115738	0.001927	60.069	34.9788	13.3706	-0.025656	0.811139	-0.332123	-0.333520	-0.082040	60.069	-0.331098	-13537.3	6.060263E-6	NaN
219	1.000000	0.822546	7.36719e+06	-49589.1	955.818	-29758.8	0.000000	0.000000	6.823071	-0.040128	NaN	0.000000	0.001609	0.001692	28.078	0.168585	0.001944	86.7177	-162.161	-163.853	-0.067821	0.821240	-0.322114	-0.323419	-0.040128	86.7177	-0.321766	-9877.03	4.062774E-6	NaN
219	1.000000	0.832584	7.36719e+06	-49589.1	955.817	-29758.8	0.000000	0.000000	6.833109	-0.030421	NaN	0.000000	0.001592	0.001687	28.0782	0.153319	0.001963	78.1067	-61.6801	15.4254	-0.064212	0.831183	-0.312076	-0.313476	-0.030421	78.1067	-0.311783	-7037.77	4.322560E-6	NaN
219	1.000000	0.842577	7.36719e+06	-49589.1	955.818	-29758.8	0.000000	0.000000	6.843104	0.000417	NaN	0.000000	0.001596	0.001647	28.0779	0.085418	0.001976	43.2331	-100.229	-163.284	-0.010376	0.841216	-0.302082	-0.303443	0.000417	43.2331	-0.302089	-5054.9	-8.258135E-8	NaN
219	1.000000	0.852570	7.36719e+06	-49589.1	955.818	-29758.8	0.000000	0.000000	6.853095	-0.038129	NaN	0.000000	0.001580	0.001624	28.078	0.011525	0.002002	5.756663	-8.949607	16.8721	-0.140550	0.851259	-0.292089	-0.293400	-0.038129	5.756663	-0.287121	-3020.89	1.262185E-5	NaN
219	1.000000	0.862562	7.36719e+06	-49589.1	955.818	-29758.8	0.000000	0.000000	6.863088	-0.011494	NaN	0.000000	0.001605	0.001658	28.0781	0.033954	0.001927	17.6162	3.934679	-170.823	0.009562	0.861298	-0.282097	-0.283361	-0.011494	17.6162	-0.281608	-2495.8	4.605358E-6	NaN
219	1.000000	0.872578	7.36719e+06	-49589.1	955.817	-29758.8	0.000000	0.000000	6.873103	-0.036850	NaN	0.000000	0.001603	0.001672	28.0777	0.054422	0.002028	26.8313	-132.141	15.4954	-0.001493	0.871184	-0.272081	-0.273476	-0.036850	26.8313	-0.271051	-1727.91	2.132622E-5	NaN
219	1.000000	0.882587	7.36719e+06	-49589.1	955.818	-29758.8	0.000000	0.000000	6.883113	-0.024722	NaN	0.000000	0.001563	0.001686	28.0779	0.021427	0.001916	11.1816	68.0911	-161.513	-0.030806	0.881279	-0.262072	-0.263380	-0.024722	11.1816	-0.260414	-1189.2	2.078886E-5	NaN
219	1.000000	0.892578	7.36719e+06	-49589.1	955.818	-29758.8	0.000000	0.000000	6.893103	-0.033625	NaN	0.000000	0.001605	0.001697	28.078	0.025050	0.001930	12.9771	-93.3871	13.6067	-0.057251	0.891220	-0.252082	-0.253439	-0.033625	12.9771	-0.250138	-826.236	4.069648E-5	NaN
219	1.000000	0.902603	7.36719e+06	-49589.1	955.818	-29758.8	0.000000	0.000000	6.903126	-0.091740	NaN	0.000000	0.001558	0.001658	28.0781	0.064452	0.001852	34.8059	-48.1433	-165.37	-0.067077	0.901251	-0.242056	-0.243408	-0.091740	34.8059	-0.240080	-576.495	0.000159	NaN
219	1.000000	0.912592	7.36719e+06	-49589.1	955.818	-29758.8	0.000000	0.000000	6.913118	-0.012992	NaN	0.000000	0.001582	0.001674	28.0784	0.071579	0.002057	34.8055	-108.785	16.0013	-0.006093	0.911274	-0.232067	-0.233385	-0.012992	34.8055	-0.231787	-427.281	3.040684E-5	NaN
219	1.000000	0.922588	7.36719e+06	-49589.1	955.819	-29758.8	0.000000	0.000000	6.923111	-0.090443	NaN	0.000000	0.001595	0.001642	28.0793	0.145665	0.001934	75.3163	-167.37	-165.975	-0.074777	0.921300	-0.222071	-0.223359	-0.090443	75.3163	-0.221171	-289.983	0.000312	NaN
219	1.000000	0.932598	7.36719e+06	-49589.1	955.819	-29758.8	0.000000	0.000000	6.933124	-0.009174	NaN	0.000000	0.001616	0.001644	28.0793	0.020475	0.001967	10.4101	-77.8316	15.9691	0.033212	0.931226	-0.212061	-0.213433	-0.009174	10.4101	-0.211400	-202.056	4.540408E-5	NaN
219	1.000000	0.942584	7.36719e+06	-49589.1	955.817	-29758.8	0.000000	0.000000	6.943108	-0.048631	NaN	0.000000	0.001606	0.001648	28.0793	0.062571	0.001935	32.3374	131.705	-163.489	-0.080948	0.941265	-0.202075	-0.203394	-0.048631	32.3374	-0.200947	-136.54	0.000356	NaN
219	1.000000	0.952604	7.36719e+06	-49589.1	955.817	-29758.8	0.000000	0.000000	6.953124	-0.153701	NaN	0.000000	0.001632	0.001659	28.0791	0.075874	0.002016	37.6297	61.0247	16.6215	-0.089421	0.951243	-0.192055	-0.193416	-0.153701	37.6297	-0.188992	-86.5306	0.001776	NaN
219	1.000000	0.962608	7.36719e+06	-49589.1	955.818	-29758.8	0.000000	0.000000	6.963132	-0.058381	NaN	0.000000	0.001616	0.001666	28.0794	0.043616	0.001922	22.6921	-161.326	-164.262	-0.060311	0.961285	-0.182051	-0.183374	-0.058381	22.6921	-0.180122	-61.3108	0.000952	NaN
219	1.000000	0.972576	7.36719e+06	-49589.1	955.819	-29758.8	0.000000	0.000000	6.973101	-0.023541	NaN	0.000000	0.001616	0.001646	28.0795	0.049061	0.001919	25.5709	36.1511	13.5092	0.014446	0.971301	-0.172084	-0.173358	-0.023541	25.5709	-0.171393	-43.4279	0.000542	NaN
219	1.000000	0.982634	7.36719e+06	-49589.1	955.82	-29758.8	0.000000	0.000000	6.983157	-0.072368	NaN	0.000000	0.001616	0.001649	28.0792	0.115237	0.002012	57.2756	55.4809	-164.654	-0.052019	0.981289	-0.162025	-0.163370	-0.072368	57.2756	-0.161078	-28.6492	0.002526	NaN
219	1.000000	0.992622	7.36719e+06	-49589.1	955.819	-29758.8	0.000000	0.000000	6.993147	-0.041999	NaN	0.000000	0.001577	0.001668	28.0792	0.043450	0.001930	22.5179	-154.945	16.5434	-0.094740	0.991258	-0.152037	-0.153401	-0.041999	22.5179	-0.150638	-18.6051	0.002257	NaN
219	1.000000	1.002632	7.36719e+06	-49589.1	955.82	-29758.8	0.000000	0.000000	7.003156	-0.070180	NaN	0.000000	0.001619	0.001668	28.0795	0.078564	0.001951	40.2666	2.884989	-166.943	-0.003599	1.001328	-0.142027	-0.143331	-0.070180	40.2666	-0.140720	-12.2033	0.005751	NaN
219	1.000000	1.012661	7.36719e+06	-49589.1	955.82	-29758.8	0.000000	0.000000	7.013185	-0.060148	NaN	0.000000	0.001604	0.001679	28.0792	0.057960	0.001979	29.2862	98.6476	12.7945	-0.036834	1.011281	-0.131998	-0.133378	-0.060148	29.2862	-0.130457	-7.778379	0.007733	NaN
219	1.000000	1.022627	7.36719e+06	-49589.1	955.818	-29758.8	0.000000	0.000000	7.023151	-0.054366	NaN	0.000000	0.001610	0.001639	28.0793	0.051020	0.002003	25.4661	131.389	-161.413	-0.056589	1.021317	-0.122032	-0.123342	-0.054366	25.4661	-0.120431	-4.929200	0.011029	NaN
219	1.000000	1.032622	7.36719e+06	-49589.1	955.818	-29758.8	0.000000	0.000000	7.033147	-0.038185	NaN	0.000000	0.001575	0.001688	28.0792	0.054992	0.002062	26.6685	136.794	15.7414	-0.094703	1.031259	-0.112037	-0.113400	-0.038185	26.6685	-0.110963	-3.148779	0.012127	NaN
219	1.000000	1.042627	7.36719e+06	-49589.1	955.819	-29758.8	0.000000	0.000000	7.043153	-0.028047	NaN	0.000000	0.001610	0.001668	28.0795	0.036602	0.002051	17.8493	109.343	-165.796	-0.055963	1.041343	-0.102032	-0.103316	-0.028047	17.8493	-0.100853	-1.908298	0.014697	NaN
219	1.000000	1.052626	7.36719e+06	-49589.1	955.819	-29758.8	0.000000	0.000000	7.053149	-0.064469	NaN	0.000000	0.001631	0.001662	28.0779	0.069042	0.001982	34.8348	92.9927	14.9617	-0.065440	1.051251	-0.092034	-0.093409	-0.064469	34.8348	-0.090646	-1.119272	0.057599	NaN
219	1.000000	1.062624	7.36719e+06	-49589.1	955.819	-29758.8	0.000000	0.000000	7.063151	0.012354	NaN	0.000000	0.001610	0.001660	28.078	0.075750	0.001949	38.8607	15.7519	-167.65	0.008568	1.061325	-0.082035	-0.083334	0.012354	38.8607	-0.082274	-0.704886	-0.017527	NaN
219	1.000000	1.072663	7.36719e+06	-49589.1	955.819	-29758.8	0.000000	0.000000	7.073191	0.022103	NaN	0.000000	0.001617	0.001698	28.0778	0.054766	0.001952	28.0571	10.766	14.9197	0.032681	1.071308	-0.071996	-0.073351	0.022103	28.0571	-0.072587	-0.399540	-0.055321	NaN
219	1.000000	1.082609	7.36719e+06	-49589.1	955.819	-29758.8	0.000000	0.000000	7.083136	0.021016	NaN	0.000000	0.001566	0.001669	28.0781	0.006535	0.002076	3.147311	-1.365628	-165.438	-0.005802	1.081385	-0.062050	-0.063275	0.021016	3.147311	-0.067058	-0.283965	-0.074009	NaN
219	1.000000	1.092647	7.36719e+06	-49589.1	955.82	-29758.8	0.000000	0.000000	7.093170	-0.105581	NaN	0.000000	0.001595	0.001682	28.0778	0.045340	0.002052	22.0989	110.185	13.044	-0.079683	1.091315	-0.052012	-0.053344	-0.105581	22.0989	-0.048429	-0.081769	1.291223	NaN
219	1.000000	1.102643	7.36719e+06	-49589.1	955.819	-29758.8	0.000000	0.000000	7.103173	0.073033	NaN	0.000000	0.001592	0.001680	28.0781	0.053572	0.002028	26.4224	-91.8395	-162.665	-0.009658	1.101387	-0.042016	-0.043273	0.073033	26.4224	-0.044089	-0.060273	-1.211705	NaN
219	1.000000	1.112677	7.36719e+06	-49589.1	955.82	-29758.8	0.000000	0.000000	7.113200	-0.096738	NaN	0.000000	0.001644	0.001651	28.0778	0.110925	0.002122	52.2839	108.276	10.6082	0.014729	1.111316	-0.031982	-0.033343	-0.096738	52.2839	-0.030594	-0.023911	4.045826	NaN
219	1.000000	1.122632	7.36719e+06	-49589.1	955.819	-29758.8	0.000000	0.000000	7.123158	-0.001563	NaN	0.000000	0.001631	0.001638	28.0781	0.035490	0.001952	18.179	148.663	-166.621	-0.047303	1.121372	-0.022028	-0.023288	-0.001563	18.179	-0.021963	-0.014091	0.110895	NaN
219	1.000000	1.132674	7.36719e+06	-49589.1	955.819	-29758.8	0.000000	0.000000	7.133199	-0.048574	NaN	0.000000	0.001630	0.001644	28.0779	0.047217	0.001821	25.9359	-13.7283	14.5404	-0.108092	1.131302	-0.011985	-0.013357	-0.048574	25.9359	-0.010580	-0.006719	7.229752	NaN
219	1.000000	1.142663	7.36719e+06	-49589.1	955.819	-29758.8	0.000000	0.000000	7.143188	-0.043166	NaN	0.000000	0.001622	0.001649	28.0779	0.132257	0.002013	65.6931	57.687	-163.84	-0.039333	1.141368	-0.001996	-0.003291	-0.043166	65.6931	-0.001503	-0.001092	39.5429	NaN
219	2.000000	1.152446	7.36719e+06	-49589.1	955.819	-29758.8	0.000000	0.000000	7.153282	7.529138	NaN	0.000000	0.001614	0.001649	28.0779	7.018213	0.001710	4103.87	6.816631	9.037333	6.450867	1.151272	0.007787	0.006613	7.529138	4103.87	0.006411	0.005458	1379.52	50752.5
219	2.000000	1.155276	7.36719e+06	-49589.1	955.821	-29758.8	0.000000	0.000000	7.156131	7.987515	NaN	0.000000	0.001602	0.001620	28.0784	9.430620	0.001941	4857.69	6.534957	-169.65	7.645389	1.155031	0.010617	0.010372	7.987515	4857.69	0.009384	0.008505	939.205	48125.7
219	2.000000	1.157804	7.36719e+06	-49589.1	955.819	-29758.8	0.000000	0.000000	7.158780	10.9401	NaN	0.000000	0.001615	0.001628	28.0777	12.1861	0.001817	6706.21	8.481552	6.811766	10.1799	1.157446	0.013145	0.012787	10.9401	6706.21	0.011921	0.011396	959.999	57395
219	2.000000	1.160249	7.36719e+06	-49589.1	955.82	-29758.8	0.000000	0.000000	7.161488	17.3315	NaN	0.000000	0.001627	0.001640	28.078	14.9563	0.001651	9058.31	2.595097	-173.76	15.9991	1.159905	0.015590	0.015246	17.3315	9058.31	0.014155	0.014175	1222.72	69512.9
219	2.000000	1.162765	7.36719e+06	-49589.1	955.82	-29758.8	0.000000	0.000000	7.164003	17.2956	NaN	0.000000	0.001601	0.001686	28.0793	17.1274	0.001876	9130.29	7.850830	3.552833	16.3004	1.162455	0.018106	0.017796	17.2956	9130.29	0.016686	0.017599	982.752	62879.9
219	2.000000	1.165238	7.36719e+06	-49589.1	955.82	-29758.8	0.000000	0.000000	7.166681	22.2867	NaN	0.000000	0.001613	0.001696	28.0795	19.6768	0.001707	11526.6	6.966195	-179.13	22.2081	1.164911	0.020579	0.020252	22.2867	11526.6	0.019129	0.021191	1051.68	72342.4
219	2.000000	1.167778	7.36719e+06	-49589.1	955.819	-29758.8	0.000000	0.000000	7.169436	27.5115	NaN	0.000000	0.001588	0.001658	28.0793	22.3425	0.001799	12418.2	9.405803	-1.845582	26.8894	1.167417	0.023119	0.022758	27.5115	12418.2	0.021458	0.024885	1105.55	71922.7
219	2.000000	1.170201	7.36719e+06	-49589.1	955.82	-29758.8	0.000000	0.000000	7.172126	34.0093	NaN	0.000000	0.001626	0.001669	28.0792	24.32	0.001735	14018.5	3.202805	-176.204	33.6654	1.169921	0.025542	0.025262	34.0093	14018.5	0.023723	0.028733	1183.65	75559.2
219	2.000000	1.172710	7.36719e+06	-49589.1	955.818	-29758.8	0.000000	0.000000	7.174834	38.8394	NaN	0.000000	0.001623	0.001645	28.0793	27.523	0.001827	15063.1	5.151978	0.329533	37.1547	1.172447	0.028051	0.027788	38.8394	15063.1	0.026117	0.033080	1174.12	75667.1
219	2.000000	1.175193	7.36719e+06	-49589.1	955.819	-29758.8	0.000000	0.000000	7.177581	45.2841	NaN	0.000000	0.001575	0.001649	28.0793	30.2775	0.001866	16225	5.940053	-179.587	44.6908	1.174904	0.030534	0.030244	45.2841	16225	0.028440	0.037573	1205.22	76474.9
219	2.000000	1.177729	7.36719e+06	-49589.1	955.819	-29758.8	0.000000	0.000000	7.180429	52.855	NaN	0.000000	0.001578	0.001683	28.0792	32.0491	0.001782	17980.3	6.602410	-1.347184	51.8706	1.177325	0.033070	0.032666	52.855	17980.3	0.030865	0.042555	1242.03	79632.7
219	2.000000	1.180196	7.36719e+06	-49589.1	955.82	-29758.8	0.000000	0.000000	7.183232	61.0457	NaN	0.000000	0.001585	0.001673	28.0791	34.3813	0.001821	18878.3	6.155301	177.694	58.9444	1.179848	0.035536	0.035189	61.0457	18878.3	0.033111	0.047439	1286.82	79189.3
219	2.000000	1.182758	7.36719e+06	-49589.1	955.821	-29758.8	0.000000	0.000000	7.186203	70.963	NaN	0.000000	0.001584	0.001645	28.079	36.7602	0.001790	20539.2	6.733958	-1.915330	70.9225	1.182228	0.038099	0.037569	70.963	20539.2	0.035508	0.052935	1340.56	81561.4
219	2.000000	1.185175	7.36719e+06	-49589.1	955.82	-29758.8	0.000000	0.000000	7.188859	76.8039	NaN	0.000000	0.001588	0.001651	28.0789	40.0238	0.001733	23092.5	7.634044	174.251	74.78	1.184864	0.040515	0.040204	76.8039	23092.5	0.038021	0.059014	1301.46	86849.3
219	2.000000	1.187703	7.36719e+06	-49589.1	955.819	-29758.8	0.000000	0.000000	7.191793	86.6589	NaN	0.000000	0.001654	0.001675	28.0789	41.907	0.001792	23384.2	6.262715	-2.118154	84.9066	1.187318	0.043044	0.042659	86.6589	23384.2	0.040264	0.064713	1339.12	83984.2
219	2.000000	1.190180	7.36719e+06	-49589.1	955.82	-29758.8	0.000000	0.000000	7.194517	92.6768	NaN	0.000000	0.001632	0.001685	28.079	43.6686	0.001698	25713.2	0.552919	-179.401	90.9646	1.189971	0.045521	0.045312	92.6768	25713.2	0.042818	0.071513	1295.94	87849
219	2.000000	1.192754	7.36719e+06	-49589.1	955.821	-29758.8	0.000000	0.000000	7.197609	105.287	NaN	0.000000	0.001686	0.001650	28.0789	47.5854	0.001919	24798.9	5.358608	-2.620656	107.357	1.192271	0.048094	0.047612	105.287	24798.9	0.044910	0.077332	1361.48	81475
219	2.000000	1.195240	7.36719e+06	-49589.1	955.821	-29758.8	0.000000	0.000000	7.200371	111.97	NaN	0.000000	0.001707	0.001674	28.0782	49.796	0.001866	26684.2	4.768378	176.522	115.853	1.194907	0.050581	0.050248	111.97	26684.2	0.047434	0.084648	1322.78	83795.2
219	2.000000	1.197707	7.36719e+06	-49589.1	955.82	-29758.8	0.000000	0.000000	7.203411	125.898	NaN	0.000000	0.001680	0.001678	28.078	50.3053	0.001699	29610.7	3.158792	-1.929709	125.296	1.197192	0.053048	0.052533	125.898	29610.7	0.049859	0.091979	1368.76	89202.5
219	2.000000	1.200132	7.36719e+06	-49589.1	955.821	-29758.8	0.000000	0.000000	7.206347	138.338	NaN	0.000000	0.001674	0.001646	28.0775	52.0058	0.001774	29315.1	2.908046	177.142	134.851	1.199887	0.055472	0.055228	138.338	29315.1	0.051933	0.098482	1404.71	85346.5
219	2.000000	1.202616	7.36719e+06	-49589.1	955.82	-29758.8	0.000000	0.000000	7.209035	143.302	NaN	0.000000	0.001650	0.001740	28.0782	55.3064	0.001720	32161.3	4.869039	-5.797695	138.27	1.202331	0.057957	0.057671	143.302	32161.3	0.054615	0.107209	1336.66	89741
219	2.000000	1.205181	7.36719e+06	-49589.1	955.821	-29758.8	0.000000	0.000000	7.212090	155.205	NaN	0.000000	0.001683	0.001689	28.0778	58.8005	0.001822	32281	6.425710	173.115	156.376	1.204831	0.060522	0.060172	155.205	32281	0.056916	0.114983	1349.82	86977
219	2.000000	1.207603	7.36719e+06	-49589.1	955.821	-29758.8	0.000000	0.000000	7.215224	172.534	NaN	0.000000	0.001689	0.001673	28.0785	61.0775	0.001850	33020.1	6.561379	-7.141992	167.32	1.207318	0.062944	0.062659	172.534	33020.1	0.059025	0.122337	1410.32	86252.9
219	2.000000	1.210066	7.36719e+06	-49589.1	955.82	-29758.8	0.000000	0.000000	7.218237	185.907	NaN	0.000000	0.001691	0.001720	28.0776	63.104	0.001751	36037.7	6.571662	171.564	181.528	1.209828	0.065407	0.065169	185.907	36037.7	0.061538	0.131380	1415.04	90837.7
219	2.000000	1.212712	7.36719e+06	-49589.1	955.821	-29758.8	0.000000	0.000000	7.221308	196.227	NaN	0.000000	0.001658	0.001776	28.0789	66.4058	0.001771	37491.4	6.363014	-7.669394	196.469	1.212138	0.068053	0.067479	196.227	37491.4	0.064128	0.141025	1391.44	91213
219	2.000000	1.215226	7.36719e+06	-49589.1	955.821	-29758.8	0.000000	0.000000	7.224428	210.971	NaN	0.000000	0.001687	0.001685	28.0778	70.0639	0.001762	39761.9	6.989057	171.731	214.167	1.214727	0.070567	0.070068	210.971	39761.9	0.066588	0.150484	1401.95	93647.2
219	2.000000	1.217627	7.36719e+06	-49589.1	955.82	-29758.8	0.000000	0.000000	7.227584	229.359	NaN	0.000000	0.001698	0.001681	28.0782	71.9382	0.001815	39632.7	8.625005	-9.606430	223.635	1.217146	0.072967	0.072487	229.359	39632.7	0.068627	0.158548	1446.62	90938.3
219	2.000000	1.220128	7.36719e+06	-49589.1	955.819	-29758.8	0.000000	0.000000	7.230413	237.325	NaN	0.000000	0.001657	0.001686	28.0778	73.5355	0.001696	43347.3	4.756262	172.643	236.465	1.219859	0.075468	0.075199	237.325	43347.3	0.071362	0.169673	1398.72	96145.4
219	2.000000	1.222593	7.36719e+06	-49589.1	955.819	-29758.8	0.000000	0.000000	7.233689	257.051	NaN	0.000000	0.001654	0.001701	28.0786	75.4259	0.001752	43050.9	4.214743	-6.843247	252.307	1.222210	0.077934	0.077551	257.051	43050.9	0.073455	0.178427	1440.65	93116
219	2.000000	1.225098	7.36719e+06	-49589.1	955.82	-29758.8	0.000000	0.000000	7.236943	275.248	NaN	0.000000	0.001678	0.001729	28.0778	79.2555	0.001771	44744.4	4.948657	172.394	272.987	1.224788	0.080439	0.080129	275.248	44744.4	0.075825	0.188589	1459.51	94135.6
219	2.000000	1.227584	7.36719e+06	-49589.1	955.819	-29758.8	0.000000	0.000000	7.240183	293.582	NaN	0.000000	0.001676	0.001692	28.0782	80.1184	0.001863	43009.5	4.229008	-6.132922	287.746	1.227197	0.082925	0.082538	293.582	43009.5	0.077806	0.197282	1488.14	88469.6
219	2.000000	1.230198	7.36719e+06	-49589.1	955.82	-29758.8	0.000000	0.000000	7.243252	304.662	NaN	0.000000	0.001719	0.001682	28.0791	83.5873	0.001831	45656.6	7.555516	170.035	308.682	1.229882	0.085539	0.085223	304.662	45656.6	0.080534	0.209561	1453.81	91121.7
219	2.000000	1.232611	7.36719e+06	-49589.1	955.819	-29758.8	0.000000	0.000000	7.246230	318.413	NaN	0.000000	0.001743	0.001706	28.0797	86.0395	0.001823	47207	6.245829	-9.707632	315.162	1.232331	0.087952	0.087672	318.413	47207	0.082893	0.220454	1444.35	91858.7
219	2.000000	1.235220	7.36719e+06	-49589.1	955.82	-29758.8	0.000000	0.000000	7.249536	335.337	NaN	0.000000	0.001658	0.001667	28.0791	88.4347	0.001930	45830.8	5.441323	172.024	339.789	1.234739	0.090561	0.090079	335.337	45830.8	0.085074	0.230753	1453.23	87167.9
219	2.000000	1.237638	7.36719e+06	-49589.1	955.819	-29758.8	0.000000	0.000000	7.252970	360.053	NaN	0.000000	0.001710	0.001688	28.0792	88.8456	0.001726	51478.1	2.688045	-6.313849	357.216	1.237339	0.092979	0.092680	360.053	51478.1	0.087734	0.243614	1477.97	95289.4
219	2.000000	1.240130	7.36719e+06	-49589.1	955.82	-29758.8	0.000000	0.000000	7.255958	372.145	NaN	0.000000	0.001700	0.001676	28.0791	90.609	0.001668	54321.3	1.815638	173.915	373.034	1.239827	0.095471	0.095168	372.145	54321.3	0.090332	0.256494	1450.89	97995.2
219	2.000000	1.242495	7.36719e+06	-49589.1	955.82	-29758.8	0.000000	0.000000	7.259255	394.785	NaN	0.000000	0.001691	0.001653	28.0794	93.8853	0.001750	53655.1	5.437308	-9.039527	385.005	1.242155	0.097836	0.097496	394.785	53655.1	0.092318	0.266543	1481.13	94951.3
219	2.000000	1.245032	7.36719e+06	-49589.1	955.82	-29758.8	0.000000	0.000000	7.262687	416.56	NaN	0.000000	0.001679	0.001645	28.0791	97.4818	0.001845	52829.3	4.183244	171.628	410.949	1.244827	0.100373	0.100168	416.56	52829.3	0.094459	0.277582	1500.67	91611.9
219	2.000000	1.247593	7.36719e+06	-49589.1	955.82	-29758.8	0.000000	0.000000	7.266084	436.897	NaN	0.000000	0.001674	0.001626	28.0791	98.4111	0.001790	54976.1	2.574379	-6.359002	430.762	1.247256	0.102934	0.102597	436.897	54976.1	0.096973	0.290812	1502.33	93141
219	2.000000	1.250188	7.36719e+06	-49589.1	955.82	-29758.8	0.000000	0.000000	7.269357	453.388	NaN	0.000000	0.001693	0.001653	28.0793	101.491	0.001754	57848.9	3.545369	171.52	456.929	1.249887	0.105528	0.105228	453.388	57848.9	0.099650	0.305214	1485.48	95667.9
219	2.000000	1.251034	7.36719e+06	-49589.1	955.82	-29758.8	0.000000	0.000000	7.270950	471.541	NaN	0.000000	0.001695	0.001669	28.0791	102.915	0.001776	57956.4	8.318281	167.371	464.815	1.250637	0.106375	0.105978	471.541	57956.4	0.100272	0.308608	1527.96	95317.2