File: remote_trans/data/nanoindenter/0828-1/data/Data_2025-08-06,11h17m57s/2025-07-22_16-23-58_1_1109.txt
2025-07-22, 16:23:58, 1
Index	Phase	Displacement	Time	Pos X	Pos Y	Pos Z	Rot A	Rot B	Piezo Z	Force A	Force B	Gripper	Voltage A	Voltage B	Temperature	Amplitude force	Amplitude pos	Stiffness	Phase shift	Phase excitation	Force A raw	Displacement raw	HMax	HMax raw	Real Force	Real Stiffness	Contact Depth	Area	Hardness	Reduced Mod.
[#]	[#]	[um]	[s]	[um]	[um]	[um]	[m°]	[m°]	[um]	[uN]	[uN]	[V]	[V]	[V]	[°C]	[uN]	[um]	[N/m]	[°]	[°]	[uN]	[um]	[um]	[um]	[uN]	[N/m]	[um]	[um^2]	[MPa]	[MPa]
1109	1.000000	0.002284	7.37589e+06	-55589.1	1055.82	-29741.1	0.000000	0.000000	6.002798	-0.028980	NaN	0.000000	0.001519	0.001716	28.0843	0.034008	0.000901	37.7502	-136.044	-163.384	-0.051173	0.001025	-1.111234	-1.112492	-0.028980	37.7502	-1.110658	-6.968231E+14	4.158869E-17	NaN
1109	1.000000	0.012332	7.37589e+06	-55589.1	1055.82	-29741.1	0.000000	0.000000	6.012843	-0.090685	NaN	0.000000	0.001520	0.001742	28.0844	0.066451	0.001156	57.5034	44.6444	17.7782	-0.137224	0.010930	-1.101186	-1.102588	-0.090685	57.5034	-1.100003	-5.013164E+14	1.808938E-16	NaN
1109	1.000000	0.022221	7.37589e+06	-55589.1	1055.82	-29741.1	0.000000	0.000000	6.022736	-0.019738	NaN	0.000000	0.001550	0.001726	28.0846	0.126898	0.001666	76.1752	60.4793	-164.245	-0.020599	0.020929	-1.091297	-1.092588	-0.019738	76.1752	-1.091102	-3.807248E+14	5.184428E-17	NaN
1109	1.000000	0.032245	7.37589e+06	-55589.1	1055.82	-29741.1	0.000000	0.000000	6.032758	-0.057398	NaN	0.000000	0.001557	0.001754	28.0843	0.086340	0.001829	47.2133	-141.78	16.3374	0.006082	0.030861	-1.081273	-1.082656	-0.057398	47.2133	-1.080361	-2.731318E+14	2.101471E-16	NaN
1109	1.000000	0.042244	7.3759e+06	-55589.1	1055.82	-29741.1	0.000000	0.000000	6.042755	-0.103300	NaN	0.000000	0.001539	0.001743	28.0842	0.116166	0.002055	56.5372	98.7296	-163.283	-0.102857	0.040990	-1.071274	-1.072527	-0.103300	56.5372	-1.069904	-1.976509E+14	5.226370E-16	NaN
1109	1.000000	0.052243	7.3759e+06	-55589.1	1055.82	-29741.1	0.000000	0.000000	6.052757	-0.020563	NaN	0.000000	0.001532	0.001742	28.0843	0.034916	0.002001	17.4516	-131.429	17.5707	0.045843	0.050884	-1.061275	-1.062633	-0.020563	17.4516	-1.060391	-1.472584E+14	1.396363E-16	NaN
1109	1.000000	0.062252	7.3759e+06	-55589.1	1055.82	-29741.1	0.000000	0.000000	6.062767	-0.013045	NaN	0.000000	0.001558	0.001720	28.0844	0.041836	0.001980	21.1299	150.245	-165.605	-0.138931	0.060942	-1.051266	-1.052575	-0.013045	21.1299	-1.050803	-1.094482E+14	1.191899E-16	NaN
1109	1.000000	0.072250	7.3759e+06	-55589.1	1055.82	-29741.1	0.000000	0.000000	6.072765	-0.000553	NaN	0.000000	0.001562	0.001743	28.0842	0.054937	0.001982	27.7232	-20.4421	11.4458	-0.040432	0.070832	-1.041268	-1.042686	-0.000553	27.7232	-1.041253	-8.143611E+13	6.790120E-18	NaN
1109	1.000000	0.082230	7.3759e+06	-55589.1	1055.82	-29741.1	0.000000	0.000000	6.082745	0.004031	NaN	0.000000	0.001594	0.001748	28.083	0.016034	0.002025	7.918916	109.677	-163.548	0.044365	0.080993	-1.031288	-1.032524	0.004031	7.918916	-1.031670	-6.052558E+13	-6.659549E-17	NaN
1109	1.000000	0.092251	7.3759e+06	-55589.1	1055.82	-29741.1	0.000000	0.000000	6.092765	-0.037704	NaN	0.000000	0.001623	0.001735	28.0833	0.022098	0.001982	11.1516	-145.362	14.3377	-0.088775	0.090887	-1.021267	-1.022630	-0.037704	11.1516	-1.018731	-4.053937E+13	9.300673E-16	NaN
1109	1.000000	0.102268	7.3759e+06	-55589.1	1055.82	-29741.1	0.000000	0.000000	6.102782	-0.041749	NaN	0.000000	0.001583	0.001727	28.0829	0.024474	0.001985	12.3272	29.0467	-164.255	-0.011653	0.100939	-1.011250	-1.012578	-0.041749	12.3272	-1.008709	-2.971750E+13	1.404874E-15	NaN
1109	1.000000	0.112235	7.3759e+06	-55589.1	1055.82	-29741.1	0.000000	0.000000	6.112748	-0.071744	NaN	0.000000	0.001605	0.001751	28.0827	0.040592	0.002038	19.9222	-91.1733	17.2891	-0.104874	0.110916	-1.001283	-1.002602	-0.071744	19.9222	-0.998582	-2.171070E+13	3.304543E-15	NaN
1109	1.000000	0.122255	7.3759e+06	-55589.1	1055.82	-29741.1	0.000000	0.000000	6.122767	-0.073590	NaN	0.000000	0.001600	0.001686	28.083	0.031881	0.002057	15.4955	120.561	-166.169	-0.070536	0.120933	-0.991263	-0.992585	-0.073590	15.4955	-0.987701	-1.549350E+13	4.749730E-15	NaN
1109	1.000000	0.132282	7.3759e+06	-55589.1	1055.82	-29741.1	0.000000	0.000000	6.132796	-0.037388	NaN	0.000000	0.001590	0.001731	28.0831	0.019283	0.002074	9.298971	-59.9624	13.3825	-0.080499	0.130888	-0.981236	-0.982630	-0.037388	9.298971	-0.978220	-1.154596E+13	3.238230E-15	NaN
1109	1.000000	0.142268	7.3759e+06	-55589.1	1055.82	-29741.1	0.000000	0.000000	6.142783	-0.023307	NaN	0.000000	0.001633	0.001709	28.0828	0.102185	0.002111	48.406	-124.335	-164.662	-0.073708	0.141036	-0.971250	-0.972482	-0.023307	48.406	-0.970888	-9.196784E+12	2.534275E-15	NaN
1109	1.000000	0.152252	7.3759e+06	-55589.1	1055.82	-29741.1	0.000000	0.000000	6.152767	0.006085	NaN	0.000000	0.001585	0.001698	28.0829	0.060599	0.001993	30.4043	-24.1011	13.3305	0.018668	0.150881	-0.961266	-0.962636	0.006085	30.4043	-0.961416	-6.854308E+12	-8.876983E-16	NaN
1109	1.000000	0.162257	7.3759e+06	-55589.1	1055.82	-29741.1	0.000000	0.000000	6.162773	0.021518	NaN	0.000000	0.001571	0.001716	28.083	0.039480	0.001946	20.2849	12.3896	-165.728	-0.053142	0.160991	-0.951261	-0.952527	0.021518	20.2849	-0.952056	-5.125791E+12	-4.197976E-15	NaN
1109	1.000000	0.172270	7.3759e+06	-55589.1	1055.82	-29741.1	0.000000	0.000000	6.172783	-0.067454	NaN	0.000000	0.001624	0.001701	28.083	0.104766	0.002088	50.1811	105.589	13.8692	-0.100772	0.170911	-0.941247	-0.942607	-0.067454	50.1811	-0.940239	-3.551109E+12	1.899527E-14	NaN
1109	1.000000	0.182279	7.3759e+06	-55589.1	1055.82	-29741.1	0.000000	0.000000	6.182793	-0.035751	NaN	0.000000	0.001642	0.001719	28.083	0.099682	0.002052	48.5711	-76.545	-163.302	-0.002752	0.180964	-0.931238	-0.932554	-0.035751	48.5711	-0.930686	-2.639122E+12	1.354673E-14	NaN
1109	1.000000	0.192300	7.3759e+06	-55589.1	1055.82	-29741.1	0.000000	0.000000	6.192816	-0.002812	NaN	0.000000	0.001650	0.001741	28.0827	0.079502	0.002009	39.5823	-154.227	15.0901	0.066042	0.190928	-0.921218	-0.922590	-0.002812	39.5823	-0.921164	-1.963022E+12	1.432720E-15	NaN
1109	1.000000	0.202281	7.3759e+06	-55589.1	1055.82	-29741.1	0.000000	0.000000	6.202798	0.039091	NaN	0.000000	0.001636	0.001734	28.0826	0.079738	0.001958	40.7208	168.504	-161.44	-0.059311	0.201006	-0.911237	-0.912512	0.039091	40.7208	-0.911957	-1.474325E+12	-2.651482E-14	NaN
1109	1.000000	0.212278	7.3759e+06	-55589.1	1055.82	-29741.1	0.000000	0.000000	6.212790	-0.079663	NaN	0.000000	0.001660	0.001712	28.0827	0.032972	0.002013	16.3762	101.377	11.9209	-0.060131	0.210948	-0.901239	-0.902570	-0.079663	16.3762	-0.897591	-9.430047E+11	8.447807E-14	NaN
1109	1.000000	0.222287	7.3759e+06	-55589.1	1055.82	-29741.1	0.000000	0.000000	6.222804	0.033095	NaN	0.000000	0.001666	0.001719	28.0841	0.025367	0.001882	13.4815	169.358	-164.473	0.018581	0.220974	-0.891231	-0.892543	0.033095	13.4815	-0.893072	-8.192974E+11	-4.039490E-14	NaN
1109	1.000000	0.232327	7.3759e+06	-55589.1	1055.82	-29741.1	0.000000	0.000000	6.232844	0.038089	NaN	0.000000	0.001637	0.001718	28.0842	0.054597	0.001939	28.1558	-56.1188	12.7832	-0.083216	0.230928	-0.881191	-0.882590	0.038089	28.1558	-0.882205	-5.841607E+11	-6.520242E-14	NaN
1109	1.000000	0.242298	7.3759e+06	-55589.1	1055.82	-29741.1	0.000000	0.000000	6.242810	-0.082969	NaN	0.000000	0.001673	0.001716	28.0842	0.048129	0.002112	22.7859	-143.666	-167.398	-0.072488	0.241025	-0.871220	-0.872493	-0.082969	22.7859	-0.868489	-3.810681E+11	2.177266E-13	NaN
1109	1.000000	0.252316	7.3759e+06	-55589.1	1055.82	-29741.1	0.000000	0.000000	6.252830	-0.034650	NaN	0.000000	0.001698	0.001735	28.084	0.205631	0.002040	100.796	153.466	14.3619	-0.038950	0.250908	-0.861202	-0.862610	-0.034650	100.796	-0.860944	-3.012340E+11	1.150283E-13	NaN
1109	1.000000	0.262289	7.3759e+06	-55589.1	1055.82	-29741.1	0.000000	0.000000	6.262802	-0.061674	NaN	0.000000	0.001597	0.001796	28.0841	0.011942	0.001948	6.129102	149.073	-164.81	0.025126	0.260933	-0.851228	-0.852585	-0.061674	6.129102	-0.843681	-1.758583E+11	3.507048E-13	NaN
1109	1.000000	0.272335	7.3759e+06	-55589.1	1055.82	-29741.1	0.000000	0.000000	6.272848	-0.059496	NaN	0.000000	0.001643	0.001777	28.084	0.090746	0.001952	46.4862	104.211	13.4789	-0.094535	0.270960	-0.841183	-0.842558	-0.059496	46.4862	-0.840223	-1.578735E+11	3.768617E-13	NaN
1109	1.000000	0.282320	7.3759e+06	-55589.1	1055.82	-29741.1	0.000000	0.000000	6.282836	0.008393	NaN	0.000000	0.001686	0.001798	28.0842	0.053685	0.002028	26.4659	-161.029	-166.535	0.007341	0.281002	-0.831198	-0.832515	0.008393	26.4659	-0.831436	-1.200165E+11	-6.993561E-14	NaN
1109	1.000000	0.292336	7.3759e+06	-55589.1	1055.82	-29741.1	0.000000	0.000000	6.292849	-0.058207	NaN	0.000000	0.001616	0.001805	28.0842	0.053783	0.001967	27.3373	145.987	16.3736	-0.119796	0.290994	-0.821182	-0.822524	-0.058207	27.3373	-0.819585	-8.290626E+10	7.020878E-13	NaN
1109	1.000000	0.302308	7.3759e+06	-55589.1	1055.82	-29741.1	0.000000	0.000000	6.302824	-0.003612	NaN	0.000000	0.001628	0.001790	28.0842	0.016599	0.001996	8.314006	-21.8028	-165.713	0.014321	0.301004	-0.811209	-0.812514	-0.003612	8.314006	-0.810883	-6.317681E+10	5.716716E-14	NaN
1109	1.000000	0.312343	7.3759e+06	-55589.1	1055.82	-29741.1	0.000000	0.000000	6.312859	-0.001282	NaN	0.000000	0.001632	0.001745	28.0841	0.047102	0.001976	23.8397	-100.541	16.4018	-0.050730	0.311018	-0.801174	-0.802500	-0.001282	23.8397	-0.801134	-4.658615E+10	2.752220E-14	NaN
1109	1.000000	0.322327	7.3759e+06	-55589.1	1055.82	-29741.1	0.000000	0.000000	6.322844	0.033861	NaN	0.000000	0.001622	0.001782	28.0843	0.057590	0.002004	28.7439	173.128	-163.931	0.107482	0.321080	-0.791191	-0.792438	0.033861	28.7439	-0.792074	-3.509564E+10	-9.648187E-13	NaN
1109	1.000000	0.332339	7.3759e+06	-55589.1	1055.82	-29741.1	0.000000	0.000000	6.332849	-0.154285	NaN	0.000000	0.001616	0.001755	28.0837	0.103807	0.001996	52.0196	168.557	17.2758	-0.096671	0.330965	-0.781178	-0.782553	-0.154285	52.0196	-0.778954	-2.328176E+10	6.626879E-12	NaN
1109	1.000000	0.342382	7.3759e+06	-55589.1	1055.82	-29741.1	0.000000	0.000000	6.342894	-0.081487	NaN	0.000000	0.001619	0.001765	28.0839	0.175222	0.002118	82.7469	127.285	-163.952	-0.043736	0.341096	-0.771136	-0.772422	-0.081487	82.7469	-0.770397	-1.781185E+10	4.574890E-12	NaN
1109	1.000000	0.352343	7.3759e+06	-55589.1	1055.82	-29741.1	0.000000	0.000000	6.352855	-0.075932	NaN	0.000000	0.001653	0.001748	28.0839	0.049294	0.002085	23.6421	38.7194	16.1893	-0.165928	0.351023	-0.761175	-0.762494	-0.075932	23.6421	-0.758766	-1.237412E+10	6.136379E-12	NaN
1109	1.000000	0.362351	7.3759e+06	-55589.1	1055.82	-29741.1	0.000000	0.000000	6.362862	-0.106676	NaN	0.000000	0.001654	0.001724	28.0825	0.023591	0.002014	11.7122	126.96	-165.244	-0.111355	0.361095	-0.751166	-0.752423	-0.106676	11.7122	-0.744335	-7.872251E+9	1.355094E-11	NaN
1109	1.000000	0.372343	7.3759e+06	-55589.1	1055.82	-29741.1	0.000000	0.000000	6.372855	-0.063861	NaN	0.000000	0.001638	0.001708	28.0821	0.021971	0.001859	11.8168	-75.2307	15.2564	0.028648	0.370990	-0.741175	-0.742528	-0.063861	11.8168	-0.737122	-6.278476E+9	1.017135E-11	NaN
1109	1.000000	0.382383	7.3759e+06	-55589.1	1055.82	-29741.1	0.000000	0.000000	6.382896	-0.064325	NaN	0.000000	0.001630	0.001692	28.0827	0.178115	0.001990	89.4875	-155.501	-165.012	-0.083499	0.381070	-0.731135	-0.732448	-0.064325	89.4875	-0.730596	-5.115979E+9	1.257330E-11	NaN
1109	1.000000	0.392382	7.3759e+06	-55589.1	1055.82	-29741.1	0.000000	0.000000	6.392898	0.020733	NaN	0.000000	0.001626	0.001724	28.083	0.021746	0.001928	11.2779	62.0834	15.3026	0.037046	0.391028	-0.721136	-0.722490	0.020733	11.2779	-0.722515	-3.969768E+9	-5.222745E-12	NaN
1109	1.000000	0.402408	7.3759e+06	-55589.1	1055.82	-29741.1	0.000000	0.000000	6.402923	-0.010100	NaN	0.000000	0.001651	0.001726	28.0827	0.225675	0.002020	111.743	61.0034	-165.858	0.074751	0.401084	-0.711109	-0.712434	-0.010100	111.743	-0.711042	-2.768615E+9	3.647916E-12	NaN
1109	1.000000	0.412395	7.3759e+06	-55589.1	1055.82	-29741.1	0.000000	0.000000	6.412910	0.000276	NaN	0.000000	0.001615	0.001741	28.0828	0.095641	0.001887	50.6761	-7.747020	18.2399	-0.033436	0.411034	-0.701123	-0.702484	0.000276	50.6761	-0.701127	-2.027325E+9	-1.360718E-13	NaN
1109	1.000000	0.422358	7.3759e+06	-55589.1	1055.82	-29741.1	0.000000	0.000000	6.422869	-0.104172	NaN	0.000000	0.001618	0.001746	28.083	0.023454	0.001978	11.855	-32.5801	-164.65	-0.057152	0.421060	-0.691159	-0.692457	-0.104172	11.855	-0.684569	-1.204159E+9	8.651037E-11	NaN
1109	1.000000	0.432400	7.3759e+06	-55589.1	1055.82	-29741.1	0.000000	0.000000	6.432915	-0.020540	NaN	0.000000	0.001630	0.001738	28.0825	0.039712	0.002054	19.3376	155.014	15.3034	-0.038311	0.431041	-0.681118	-0.682476	-0.020540	19.3376	-0.680321	-1.053405E+9	1.949824E-11	NaN
1109	1.000000	0.442395	7.3759e+06	-55589.1	1055.82	-29741.1	0.000000	0.000000	6.442909	-0.027184	NaN	0.000000	0.001626	0.001727	28.0826	0.084038	0.001876	44.802	179.012	-164.221	0.026047	0.441073	-0.671123	-0.672445	-0.027184	44.802	-0.670668	-7.771925E+8	3.497754E-11	NaN
1109	1.000000	0.452401	7.3759e+06	-55589.1	1055.82	-29741.1	0.000000	0.000000	6.452917	0.010330	NaN	0.000000	0.001577	0.001727	28.0826	0.010723	0.001790	5.989459	-97.8747	18.0745	-0.011774	0.451023	-0.661117	-0.662495	0.010330	5.989459	-0.662410	-5.990735E+8	-1.724330E-11	NaN
1109	1.000000	0.462442	7.3759e+06	-55589.1	1055.82	-29741.1	0.000000	0.000000	6.462955	-0.064118	NaN	0.000000	0.001527	0.001754	28.0828	0.067161	0.002035	32.9996	-161.248	-160.336	-0.063163	0.461092	-0.651075	-0.652426	-0.064118	32.9996	-0.649618	-4.001308E+8	1.602426E-10	NaN
1109	1.000000	0.472402	7.3759e+06	-55589.1	1055.82	-29741.1	0.000000	0.000000	6.472918	0.004585	NaN	0.000000	0.001546	0.001767	28.0826	0.063674	0.001979	32.1778	56.1364	15.2659	0.015532	0.471003	-0.641115	-0.642515	0.004585	32.1778	-0.641222	-3.069443E+8	-1.493824E-11	NaN
1109	1.000000	0.482418	7.3759e+06	-55589.1	1055.82	-29741.1	0.000000	0.000000	6.482933	-0.027103	NaN	0.000000	0.001569	0.001752	28.0827	0.016349	0.001900	8.604880	104.931	-165.886	0.011222	0.481097	-0.631099	-0.632420	-0.027103	8.604880	-0.628737	-2.068609E+8	1.310198E-10	NaN
1109	1.000000	0.492446	7.3759e+06	-55589.1	1055.82	-29741.1	0.000000	0.000000	6.492959	-0.065767	NaN	0.000000	0.001588	0.001724	28.084	0.088042	0.001957	44.9863	113.445	18.5541	-0.019763	0.491053	-0.621072	-0.622464	-0.065767	44.9863	-0.619975	-1.567822E+8	4.194827E-10	NaN
1109	1.000000	0.502421	7.3759e+06	-55589.1	1055.82	-29741.1	0.000000	0.000000	6.502937	0.018764	NaN	0.000000	0.001568	0.001722	28.084	0.061188	0.002157	28.3622	-55.9397	-165.338	0.020881	0.501131	-0.611097	-0.612387	0.018764	28.3622	-0.611593	-1.202356E+8	-1.560596E-10	NaN
1109	1.000000	0.512417	7.3759e+06	-55589.1	1055.82	-29741.1	0.000000	0.000000	6.512928	-0.105513	NaN	0.000000	0.001554	0.001722	28.0841	0.048010	0.002036	23.5819	-19.1766	15.9734	-0.060686	0.511052	-0.601101	-0.602465	-0.105513	23.5819	-0.597745	-7.751772E+7	1.361149E-9	NaN
1109	1.000000	0.522445	7.3759e+06	-55589.1	1055.82	-29741.1	0.000000	0.000000	6.522961	0.011806	NaN	0.000000	0.001591	0.001749	28.0839	0.036517	0.001912	19.0986	-175.696	-163.564	-0.082687	0.521110	-0.591072	-0.592407	0.011806	19.0986	-0.591536	-6.365608E+7	-1.854585E-10	NaN
1109	1.000000	0.532452	7.3759e+06	-55589.1	1055.82	-29741.1	0.000000	0.000000	6.532967	-0.018063	NaN	0.000000	0.001568	0.001686	28.0844	0.099353	0.002005	49.5633	-167.045	12.3333	-0.070533	0.531102	-0.581066	-0.582416	-0.018063	49.5633	-0.580792	-4.525443E+7	3.991464E-10	NaN
1109	1.000000	0.542425	7.3759e+06	-55589.1	1055.82	-29741.1	0.000000	0.000000	6.542940	-0.014746	NaN	0.000000	0.001594	0.001738	28.0839	0.010278	0.002096	4.903532	19.5685	-166.611	-0.043011	0.541172	-0.571093	-0.572346	-0.014746	4.903532	-0.568837	-3.094318E+7	4.765366E-10	NaN
1109	1.000000	0.552435	7.3759e+06	-55589.1	1055.82	-29741.1	0.000000	0.000000	6.552950	-0.014876	NaN	0.000000	0.001611	0.001702	28.0839	0.032893	0.002089	15.7424	-139.025	12.134	0.030676	0.551083	-0.561083	-0.562435	-0.014876	15.7424	-0.560374	-2.363485E+7	6.294122E-10	NaN
1109	1.000000	0.562451	7.3759e+06	-55589.1	1055.82	-29741.1	0.000000	0.000000	6.562965	-0.034778	NaN	0.000000	0.001606	0.001692	28.0841	0.125187	0.002014	62.1699	115.683	-165.295	-0.023156	0.561111	-0.551066	-0.552407	-0.034778	62.1699	-0.550647	-1.733461E+7	2.006302E-9	NaN
1109	1.000000	0.572416	7.3759e+06	-55589.1	1055.82	-29741.1	0.000000	0.000000	6.572932	0.018368	NaN	0.000000	0.001613	0.001712	28.0843	0.051755	0.002015	25.6902	55.1916	16.5586	0.000736	0.571092	-0.541102	-0.542426	0.018368	25.6902	-0.541638	-1.300392E+7	-1.412463E-9	NaN
1109	1.000000	0.582444	7.3759e+06	-55589.1	1055.82	-29741.1	0.000000	0.000000	6.582956	-0.077221	NaN	0.000000	0.001619	0.001682	28.0839	0.089011	0.001965	45.293	-92.64	-163.3	0.025462	0.581131	-0.531074	-0.532387	-0.077221	45.293	-0.529795	-8.90691e+06	8.669747E-9	NaN
1109	1.000000	0.592456	7.3759e+06	-55589.1	1055.82	-29741.1	0.000000	0.000000	6.592971	-0.022928	NaN	0.000000	0.001595	0.001663	28.0838	0.066306	0.001862	35.6054	-0.111900	15.8926	-0.047744	0.591095	-0.521062	-0.522422	-0.022928	35.6054	-0.520579	-6.63199e+06	3.457178E-9	NaN
1109	1.000000	0.602497	7.3759e+06	-55589.1	1055.82	-29741.1	0.000000	0.000000	6.603012	-0.019277	NaN	0.000000	0.001674	0.001702	28.0842	0.118768	0.002084	56.9858	9.141222	-164.032	-0.092760	0.601194	-0.511021	-0.512324	-0.019277	56.9858	-0.510767	-4.8428e+06	3.980598E-9	NaN
1109	1.000000	0.612469	7.3759e+06	-55589.1	1055.82	-29741.1	0.000000	0.000000	6.612984	-0.011522	NaN	0.000000	0.001688	0.001741	28.0839	0.127247	0.002048	62.1197	172.414	14.6181	-0.022808	0.611155	-0.501049	-0.502363	-0.011522	62.1197	-0.500909	-3.52943e+06	3.264515E-9	NaN
1109	1.000000	0.622464	7.3759e+06	-55589.1	1055.82	-29741.1	0.000000	0.000000	6.622977	-0.043486	NaN	0.000000	0.001650	0.001707	28.0841	0.063190	0.002109	29.9554	52.8549	-164.581	-0.104436	0.621181	-0.491054	-0.492337	-0.043486	29.9554	-0.489965	-2.4826e+06	1.751618E-8	NaN
1109	1.000000	0.632488	7.3759e+06	-55589.1	1055.82	-29741.1	0.000000	0.000000	6.633002	-0.045787	NaN	0.000000	0.001655	0.001729	28.0827	0.141910	0.002073	68.4482	141.873	13.0555	-0.085957	0.631119	-0.481029	-0.482399	-0.045787	68.4482	-0.480528	-1.83195e+06	2.499339E-8	NaN
1109	1.000000	0.642490	7.3759e+06	-55589.1	1055.82	-29741.1	0.000000	0.000000	6.643001	-0.119115	NaN	0.000000	0.001639	0.001693	28.0827	0.017996	0.001832	9.822518	118.69	-166.025	-0.026297	0.641201	-0.471027	-0.472317	-0.119115	9.822518	-0.461932	-1.005e+06	1.185218E-7	NaN
1109	1.000000	0.652522	7.3759e+06	-55589.1	1055.82	-29741.1	0.000000	0.000000	6.653035	-0.063289	NaN	0.000000	0.001605	0.001716	28.0826	0.011058	0.001925	5.743180	-88.6894	16.7788	-0.105117	0.651160	-0.460996	-0.462358	-0.063289	5.743180	-0.452731	-746092	8.482756E-8	NaN
1109	1.000000	0.662506	7.3759e+06	-55589.1	1055.82	-29741.1	0.000000	0.000000	6.663023	0.046370	NaN	0.000000	0.001612	0.001693	28.0829	0.129946	0.001895	68.56	-139.805	-166.269	0.011945	0.661185	-0.451012	-0.452333	0.046370	68.56	-0.451519	-717360	-6.464023E-8	NaN
1109	1.000000	0.672510	7.3759e+06	-55589.1	1055.82	-29741.1	0.000000	0.000000	6.673020	-0.134763	NaN	0.000000	0.001600	0.001658	28.0829	0.098001	0.002052	47.7491	-69.0677	14.9294	-0.051372	0.671123	-0.441007	-0.442394	-0.134763	47.7491	-0.438891	-476107	2.830525E-7	NaN
1109	1.000000	0.682518	7.3759e+06	-55589.1	1055.82	-29741.1	0.000000	0.000000	6.683031	-0.056843	NaN	0.000000	0.001585	0.001699	28.0828	0.015120	0.002060	7.340698	-57.7774	-165.538	-0.007580	0.681207	-0.431000	-0.432311	-0.056843	7.340698	-0.425192	-304796	1.864954E-7	NaN
1109	1.000000	0.692483	7.3759e+06	-55589.1	1055.82	-29741.1	0.000000	0.000000	6.692999	0.019281	NaN	0.000000	0.001572	0.001692	28.0825	0.038051	0.001773	21.463	-56.5517	12.8515	-0.030606	0.691198	-0.421035	-0.422320	0.019281	21.463	-0.421708	-272044	-7.087343E-8	NaN
1109	1.000000	0.702498	7.3759e+06	-55589.1	1055.82	-29741.1	0.000000	0.000000	6.703012	-0.023864	NaN	0.000000	0.001572	0.001746	28.0827	0.029723	0.001959	15.1759	172.426	-165.444	-0.041280	0.701177	-0.411020	-0.412341	-0.023864	15.1759	-0.409841	-184559	1.293020E-7	NaN
1109	1.000000	0.712504	7.3759e+06	-55589.1	1055.82	-29741.1	0.000000	0.000000	6.713017	-0.058418	NaN	0.000000	0.001573	0.001710	28.0826	0.075074	0.001907	39.3632	176.899	14.0213	-0.032503	0.711128	-0.401014	-0.402390	-0.058418	39.3632	-0.399901	-133224	4.384987E-7	NaN
1109	1.000000	0.722517	7.3759e+06	-55589.1	1055.82	-29741.1	0.000000	0.000000	6.723030	-0.047730	NaN	0.000000	0.001538	0.001721	28.0827	0.045631	0.001872	24.3693	124.135	-163.313	-0.023257	0.721201	-0.391001	-0.392317	-0.047730	24.3693	-0.389532	-94727.4	5.038622E-7	NaN
1109	1.000000	0.732517	7.3759e+06	-55589.1	1055.82	-29741.1	0.000000	0.000000	6.733033	0.013721	NaN	0.000000	0.001576	0.001705	28.0825	0.059490	0.002096	28.3873	-99.3712	16.8588	-0.002075	0.731211	-0.381001	-0.382307	0.013721	28.3873	-0.381363	-72352.2	-1.896424E-7	NaN
1109	1.000000	0.742551	7.3759e+06	-55589.1	1055.82	-29741.1	0.000000	0.000000	6.743065	-0.035295	NaN	0.000000	0.001645	0.001739	28.0829	0.074970	0.002022	37.079	-133.15	-164.44	0.014778	0.741153	-0.370967	-0.372365	-0.035295	37.079	-0.370253	-50092.8	7.045928E-7	NaN
1109	1.000000	0.752545	7.3759e+06	-55589.1	1055.82	-29741.1	0.000000	0.000000	6.753058	-0.036606	NaN	0.000000	0.001657	0.001744	28.0826	0.076494	0.001996	38.3157	147.843	14.0557	-0.055301	0.751181	-0.360973	-0.362336	-0.036606	38.3157	-0.360257	-35938.1	1.018591E-6	NaN
1109	1.000000	0.762564	7.3759e+06	-55589.1	1055.82	-29741.1	0.000000	0.000000	6.763078	-0.041795	NaN	0.000000	0.001638	0.001684	28.0827	0.033481	0.002061	16.2427	169.542	-166.6	-0.087300	0.761192	-0.350954	-0.352326	-0.041795	16.2427	-0.349024	-24707.6	1.691601E-6	NaN
1109	1.000000	0.772501	7.3759e+06	-55589.1	1055.82	-29741.1	0.000000	0.000000	6.773013	-0.077596	NaN	0.000000	0.001602	0.001695	28.0838	0.059457	0.001982	30.0025	124.128	11.7258	-0.005849	0.771169	-0.341017	-0.342349	-0.077596	30.0025	-0.339077	-17705	4.382723E-6	NaN
1109	1.000000	0.782531	7.3759e+06	-55589.1	1055.82	-29741.1	0.000000	0.000000	6.783044	-0.061143	NaN	0.000000	0.001643	0.001614	28.0844	0.100996	0.001969	51.2892	142.945	-166.705	-0.076153	0.781259	-0.330987	-0.332258	-0.061143	51.2892	-0.330093	-13086.2	4.672369E-6	NaN
1109	1.000000	0.792554	7.3759e+06	-55589.1	1055.82	-29741.1	0.000000	0.000000	6.793068	-0.023148	NaN	0.000000	0.001647	0.001662	28.084	0.015803	0.001939	8.148895	162.468	13.9247	0.045536	0.791175	-0.320964	-0.322343	-0.023148	8.148895	-0.318833	-8942.55	2.588485E-6	NaN
1109	1.000000	0.802551	7.3759e+06	-55589.1	1055.82	-29741.1	0.000000	0.000000	6.803063	-0.077102	NaN	0.000000	0.001630	0.001643	28.0837	0.020562	0.002169	9.477796	167.392	-165.565	-0.102300	0.801214	-0.310967	-0.312304	-0.077102	9.477796	-0.304865	-5558.48	1.387112E-5	NaN
1109	1.000000	0.812561	7.3759e+06	-55589.1	1055.82	-29741.1	0.000000	0.000000	6.813074	-0.046149	NaN	0.000000	0.001629	0.001592	28.0842	0.048187	0.001980	24.3383	-78.6875	13.7922	-0.082853	0.811220	-0.300957	-0.302298	-0.046149	24.3383	-0.299535	-4631.41	9.964334E-6	NaN
1109	1.000000	0.822561	7.3759e+06	-55589.1	1055.82	-29741.1	0.000000	0.000000	6.823076	-0.016061	NaN	0.000000	0.001608	0.001634	28.0842	0.040941	0.002074	19.7447	25.8188	-164.977	-0.048506	0.821233	-0.290957	-0.292285	-0.016061	19.7447	-0.290347	-3376.74	4.756367E-6	NaN
1109	1.000000	0.832570	7.3759e+06	-55589.1	1055.82	-29741.1	0.000000	0.000000	6.833086	0.024714	NaN	0.000000	0.001607	0.001620	28.0839	0.047122	0.001966	23.9716	77.8894	15.5077	0.066986	0.831230	-0.280948	-0.282288	0.024714	23.9716	-0.281721	-2505.65	-9.863492E-6	NaN
1109	1.000000	0.842570	7.3759e+06	-55589.1	1055.82	-29741.1	0.000000	0.000000	6.843083	-0.073286	NaN	0.000000	0.001612	0.001617	28.0841	0.075371	0.002037	36.9941	65.4875	-165.904	-0.095996	0.841257	-0.270948	-0.272261	-0.073286	36.9941	-0.269462	-1634.42	4.483915E-5	NaN
1109	1.000000	0.852584	7.3759e+06	-55589.1	1055.82	-29741.1	0.000000	0.000000	6.853096	-0.086840	NaN	0.000000	0.001643	0.001620	28.0842	0.110712	0.002056	53.8545	46.6363	15.0845	-0.001416	0.851212	-0.260933	-0.262306	-0.086840	53.8545	-0.259724	-1160.61	7.482280E-5	NaN
1109	1.000000	0.862543	7.3759e+06	-55589.1	1055.82	-29741.1	0.000000	0.000000	6.863058	-0.004069	NaN	0.000000	0.001647	0.001633	28.0839	0.008054	0.002071	3.888260	74.0527	-165.669	0.013772	0.861256	-0.250975	-0.252262	-0.004069	3.888260	-0.250190	-827.757	4.915187E-6	NaN
1109	1.000000	0.872602	7.3759e+06	-55589.1	1055.82	-29741.1	0.000000	0.000000	6.873118	0.023223	NaN	0.000000	0.001622	0.001634	28.0839	0.070856	0.001948	36.3706	-155.607	14.9291	0.011387	0.871228	-0.240916	-0.242290	0.023223	36.3706	-0.241395	-604.401	-3.842279E-5	NaN
1109	1.000000	0.882587	7.3759e+06	-55589.1	1055.82	-29741.1	0.000000	0.000000	6.883102	0.003894	NaN	0.000000	0.001648	0.001662	28.0841	0.054980	0.002160	25.4527	-120.033	-159.263	-0.069478	0.881323	-0.230931	-0.232195	0.003894	25.4527	-0.231046	-415.931	-9.362185E-6	NaN
1109	1.000000	0.892601	7.3759e+06	-55589.1	1055.82	-29741.1	0.000000	0.000000	6.893117	0.006058	NaN	0.000000	0.001648	0.001691	28.0842	0.040015	0.002082	19.2196	-178.323	16.1102	-0.036733	0.891222	-0.220916	-0.222296	0.006058	19.2196	-0.221153	-289.791	-2.090451E-5	NaN
1109	1.000000	0.902597	7.3759e+06	-55589.1	1055.82	-29741.1	0.000000	0.000000	6.903111	-0.030917	NaN	0.000000	0.001627	0.001673	28.0827	0.011534	0.001897	6.079259	145.101	-165.859	-0.062392	0.901305	-0.210921	-0.212213	-0.030917	6.079259	-0.207107	-172.134	0.000180	NaN
1109	1.000000	0.912606	7.3759e+06	-55589.1	1055.82	-29741.1	0.000000	0.000000	6.913121	0.004890	NaN	0.000000	0.001629	0.001671	28.083	0.010481	0.001959	5.350814	-133.494	17.8129	-0.020455	0.911236	-0.200912	-0.202282	0.004890	5.350814	-0.201598	-139.934	-3.494498E-5	NaN
1109	1.000000	0.922604	7.3759e+06	-55589.1	1055.82	-29741.1	0.000000	0.000000	6.923119	-0.011827	NaN	0.000000	0.001570	0.001653	28.083	0.026251	0.001877	13.9833	-51.7646	-167.169	-0.012817	0.921238	-0.190914	-0.192280	-0.011827	13.9833	-0.190280	-90.9287	0.000130	NaN
1109	1.000000	0.932623	7.3759e+06	-55589.1	1055.82	-29741.1	0.000000	0.000000	6.933138	0.008411	NaN	0.000000	0.001606	0.001645	28.0829	0.092422	0.001992	46.3909	111.86	15.5223	-0.026579	0.931252	-0.180895	-0.182266	0.008411	46.3909	-0.181031	-63.532	-0.000132	NaN
1109	1.000000	0.942592	7.3759e+06	-55589.1	1055.82	-29741.1	0.000000	0.000000	6.943110	0.068464	NaN	0.000000	0.001589	0.001644	28.0829	0.007618	0.002030	3.752296	-0.461499	-168.388	0.048922	0.941271	-0.170926	-0.172246	0.068464	3.752296	-0.184611	-73.0408	-0.000937	NaN
1109	1.000000	0.952616	7.3759e+06	-55589.1	1055.82	-29741.1	0.000000	0.000000	6.953131	-0.016256	NaN	0.000000	0.001590	0.001649	28.083	0.056072	0.001906	29.4161	105.113	14.2769	0.012961	0.951221	-0.160902	-0.162297	-0.016256	29.4161	-0.160487	-27.9667	0.000581	NaN
1109	1.000000	0.962606	7.3759e+06	-55589.1	1055.82	-29741.1	0.000000	0.000000	6.963120	-0.023065	NaN	0.000000	0.001549	0.001641	28.0831	0.031612	0.001949	16.2191	153.027	-165.02	-0.079649	0.961317	-0.150912	-0.152201	-0.023065	16.2191	-0.149846	-17.9965	0.001282	NaN
1109	1.000000	0.972618	7.3759e+06	-55589.1	1055.82	-29741.1	0.000000	0.000000	6.973134	0.027285	NaN	0.000000	0.001578	0.001640	28.083	0.077425	0.002048	37.8015	174.851	15.348	0.028276	0.971212	-0.140900	-0.142306	0.027285	37.8015	-0.141441	-12.5887	-0.002167	NaN
1109	1.000000	0.982615	7.3759e+06	-55589.1	1055.82	-29741.1	0.000000	0.000000	6.983131	0.006900	NaN	0.000000	0.001563	0.001678	28.0829	0.067031	0.001958	34.2342	86.2855	-163.369	-0.127962	0.981313	-0.130903	-0.132205	0.006900	34.2342	-0.131054	-7.988159	-0.000864	NaN
1109	1.000000	0.992610	7.3759e+06	-55589.1	1055.82	-29741.1	0.000000	0.000000	6.993124	-0.028522	NaN	0.000000	0.001569	0.001652	28.0831	0.021597	0.002002	10.7868	174.594	13.2388	-0.068861	0.991197	-0.120908	-0.122321	-0.028522	10.7868	-0.118925	-4.595455	0.006207	NaN
1109	1.000000	1.002630	7.3759e+06	-55589.1	1055.82	-29741.1	0.000000	0.000000	7.003143	-0.061133	NaN	0.000000	0.001545	0.001646	28.0826	0.068316	0.001985	34.4196	-81.5552	-161.563	-0.021166	1.001331	-0.110887	-0.112186	-0.061133	34.4196	-0.109555	-2.940934	0.020787	NaN
1109	1.000000	1.012629	7.3759e+06	-55589.1	1055.82	-29741.1	0.000000	0.000000	7.013145	-0.006802	NaN	0.000000	0.001547	0.001643	28.0829	0.036372	0.002062	17.6415	-158.948	11.3205	0.022125	1.011338	-0.100888	-0.102180	-0.006802	17.6415	-0.100599	-1.883804	0.003611	NaN
1109	1.000000	1.022625	7.3759e+06	-55589.1	1055.82	-29741.1	0.000000	0.000000	7.023137	-0.083678	NaN	0.000000	0.001543	0.001631	28.0831	0.033223	0.001922	17.2822	43.4902	-163.531	-0.088133	1.021355	-0.090893	-0.092163	-0.083678	17.2822	-0.087262	-0.931170	0.089863	NaN
1109	1.000000	1.032620	7.3759e+06	-55589.1	1055.82	-29741.1	0.000000	0.000000	7.033133	-0.055956	NaN	0.000000	0.001593	0.001661	28.083	0.085009	0.001946	43.6806	48.1187	13.8059	-0.071426	1.031275	-0.080898	-0.082243	-0.055956	43.6806	-0.079937	-0.616768	0.090725	NaN
1109	1.000000	1.042633	7.3759e+06	-55589.1	1055.82	-29741.1	0.000000	0.000000	7.043147	-0.041142	NaN	0.000000	0.001564	0.001661	28.084	0.027506	0.001912	14.3853	168.007	-165.84	-0.004546	1.041324	-0.070885	-0.072193	-0.041142	14.3853	-0.068740	-0.315490	0.130407	NaN
1109	1.000000	1.052658	7.3759e+06	-55589.1	1055.82	-29741.1	0.000000	0.000000	7.053170	-0.091291	NaN	0.000000	0.001584	0.001630	28.0843	0.093316	0.002092	44.6167	129.736	13.1538	0.020343	1.051258	-0.060860	-0.062260	-0.091291	44.6167	-0.059325	-0.172224	0.530069	NaN
1109	1.000000	1.062666	7.3759e+06	-55589.1	1055.82	-29741.1	0.000000	0.000000	7.063181	-0.002571	NaN	0.000000	0.001553	0.001642	28.0841	0.030771	0.002134	14.4169	-117.407	-166.816	0.019499	1.061307	-0.050852	-0.052210	-0.002571	14.4169	-0.050718	-0.095924	0.026804	NaN
1109	1.000000	1.072661	7.3759e+06	-55589.1	1055.82	-29741.1	0.000000	0.000000	7.073174	-0.061935	NaN	0.000000	0.001576	0.001632	28.0842	0.037548	0.002059	18.2338	-159.176	13.7137	-0.122929	1.071251	-0.040857	-0.042267	-0.061935	18.2338	-0.038309	-0.040196	1.540842	NaN
1109	1.000000	1.082658	7.3759e+06	-55589.1	1055.82	-29741.1	0.000000	0.000000	7.083176	0.045329	NaN	0.000000	0.001536	0.001668	28.084	0.075263	0.002073	36.3105	154.504	-164.744	-0.001385	1.081339	-0.030859	-0.032178	0.045329	36.3105	-0.031796	-0.025857	-1.753060	NaN
1109	1.000000	1.092644	7.3759e+06	-55589.1	1055.82	-29741.1	0.000000	0.000000	7.093159	-0.006733	NaN	0.000000	0.001560	0.001657	28.0843	0.125453	0.002069	60.6436	160.878	16.6881	0.022637	1.091270	-0.020874	-0.022248	-0.006733	60.6436	-0.020791	-0.013156	0.511778	NaN
1109	1.000000	1.102672	7.3759e+06	-55589.1	1055.82	-29741.1	0.000000	0.000000	7.103185	-0.067630	NaN	0.000000	0.001584	0.001696	28.0843	0.024729	0.001743	14.1887	148.853	-163.433	-0.068989	1.101346	-0.010845	-0.012172	-0.067630	14.1887	-0.007271	-0.004802	14.085	NaN
1109	1.000000	1.112667	7.3759e+06	-55589.1	1055.82	-29741.1	0.000000	0.000000	7.113182	-0.027869	NaN	0.000000	0.001562	0.001678	28.0843	0.059895	0.001908	31.392	137.088	20.7529	-0.025956	1.111341	-0.000851	-0.002176	-0.027869	31.392	-0.000185	-0.000138	202.631	NaN
1109	1.000000	1.122681	7.3759e+06	-55589.1	1055.82	-29741.1	0.000000	0.000000	7.123194	-0.050986	NaN	0.000000	0.001561	0.001630	28.0839	0.058401	0.002102	27.7808	-156.214	-168.967	-0.078523	1.121367	0.009163	0.007849	-0.050986	27.7808	0.010540	0.009787	-5.209401	256.558
1109	1.000000	1.132662	7.3759e+06	-55589.1	1055.82	-29741.1	0.000000	0.000000	7.133246	1.671657	NaN	0.000000	0.001520	0.001651	28.0843	2.234898	0.001892	1181.52	18.3635	11.5003	1.281923	1.131315	0.019144	0.017797	1.671657	1181.52	0.018083	0.019619	85.2043	7706.72
1109	1.000000	1.142637	7.3759e+06	-55589.1	1055.82	-29741.1	0.000000	0.000000	7.143424	6.592503	NaN	0.000000	0.001584	0.001656	28.084	7.156849	0.001824	3923.32	16.5716	-170.206	5.824376	1.141353	0.029119	0.027835	6.592503	3923.32	0.027859	0.036423	180.998	18781.9
1109	2.000000	1.146777	7.3759e+06	-55589.1	1055.82	-29741.1	0.000000	0.000000	7.147698	9.849811	NaN	0.000000	0.001594	0.001702	28.0847	9.221253	0.001600	5764.49	4.059472	9.929953	8.931554	1.146382	0.033260	0.032865	9.849811	5764.49	0.031978	0.044943	219.161	24842.9
1109	2.000000	1.149201	7.3759e+06	-55589.1	1055.82	-29741.1	0.000000	0.000000	7.150197	11.6663	NaN	0.000000	0.001570	0.001704	28.084	11.4397	0.001843	6207.25	1.043136	-166.836	10.6357	1.148972	0.035683	0.035455	11.6663	6207.25	0.034274	0.050068	233.007	25344.9
1109	2.000000	1.151732	7.3759e+06	-55589.1	1055.82	-29741.1	0.000000	0.000000	7.152826	14.0595	NaN	0.000000	0.001597	0.001705	28.0843	13.2039	0.001768	7468.31	3.955785	9.599517	12.9855	1.151344	0.038214	0.037827	14.0595	7468.31	0.036802	0.056025	250.95	28827.3
1109	2.000000	1.154215	7.3759e+06	-55589.1	1055.82	-29741.1	0.000000	0.000000	7.155470	17.9757	NaN	0.000000	0.001612	0.001694	28.083	15.2201	0.001788	8511.39	6.796110	-174.847	17.3427	1.153837	0.040697	0.040319	17.9757	8511.39	0.039113	0.061756	291.077	31292.1
1109	2.000000	1.156669	7.3759e+06	-55589.1	1055.82	-29741.1	0.000000	0.000000	7.158001	19.8433	NaN	0.000000	0.001609	0.001706	28.083	17.2194	0.001905	9038.84	6.005091	6.554211	18.0138	1.156332	0.043151	0.042814	19.8433	9038.84	0.041505	0.067975	291.919	31674.5
1109	2.000000	1.159209	7.3759e+06	-55589.1	1055.82	-29741.1	0.000000	0.000000	7.160712	23.9937	NaN	0.000000	0.001591	0.001707	28.0826	19.148	0.001892	10118.9	8.947950	-177.305	24.12	1.158903	0.045692	0.045386	23.9937	10118.9	0.043913	0.074532	321.925	33863.8
1109	2.000000	1.161678	7.3759e+06	-55589.1	1055.82	-29741.1	0.000000	0.000000	7.163314	27.2308	NaN	0.000000	0.001542	0.001689	28.0828	20.5023	0.001859	11027.6	6.188689	4.585495	26.1485	1.161380	0.048161	0.047862	27.2308	11027.6	0.046309	0.081346	334.753	35325.4
1109	2.000000	1.164175	7.3759e+06	-55589.1	1055.82	-29741.1	0.000000	0.000000	7.166027	32.4847	NaN	0.000000	0.001594	0.001692	28.083	23.2639	0.001858	12519	11.7598	178.552	32.342	1.163805	0.050657	0.050288	32.4847	12519	0.048711	0.088470	367.183	38454.4
1109	2.000000	1.166702	7.3759e+06	-55589.1	1055.82	-29741.1	0.000000	0.000000	7.168875	40.3033	NaN	0.000000	0.001602	0.001742	28.0829	25.5776	0.001770	14448.8	4.269782	4.201087	40.1611	1.166236	0.053184	0.052718	40.3033	14448.8	0.051092	0.095819	420.621	42646.2
1109	2.000000	1.169151	7.3759e+06	-55589.1	1055.82	-29741.1	0.000000	0.000000	7.171635	47.8503	NaN	0.000000	0.001603	0.001721	28.083	29.5268	0.001788	16515.9	9.175046	176.694	46.913	1.168846	0.055633	0.055328	47.8503	16515.9	0.053461	0.103409	462.729	46924.3
1109	2.000000	1.171682	7.3759e+06	-55589.1	1055.82	-29741.1	0.000000	0.000000	7.174552	57.2376	NaN	0.000000	0.001565	0.001746	28.083	30.7445	0.001713	17950.7	4.113141	1.936752	54.7306	1.171289	0.058164	0.057771	57.2376	17950.7	0.055773	0.111087	515.248	49206.5
1109	2.000000	1.174206	7.3759e+06	-55589.1	1055.82	-29741.1	0.000000	0.000000	7.177409	65.3508	NaN	0.000000	0.001526	0.001737	28.0827	33.2458	0.001852	17949.7	5.925504	-179.007	67.6677	1.173910	0.060688	0.060392	65.3508	17949.7	0.057957	0.118585	551.087	47622.7
1109	2.000000	1.176710	7.3759e+06	-55589.1	1055.82	-29741.1	0.000000	0.000000	7.180218	72.7441	NaN	0.000000	0.001551	0.001711	28.0836	36.7136	0.001756	20913	4.964577	-0.840259	74.1226	1.176356	0.063192	0.062838	72.7441	20913	0.060583	0.127908	568.721	53424.6
1109	2.000000	1.179133	7.3759e+06	-55589.1	1055.82	-29741.1	0.000000	0.000000	7.183004	81.5616	NaN	0.000000	0.001578	0.001728	28.0832	38.6244	0.001768	21845.9	-3.514004	-172.395	79.9441	1.178870	0.065616	0.065352	81.5616	21845.9	0.062816	0.136098	599.287	54102.6
1109	2.000000	1.181678	7.3759e+06	-55589.1	1055.82	-29741.1	0.000000	0.000000	7.186045	93.6119	NaN	0.000000	0.001564	0.001695	28.083	41.5043	0.001747	23758.2	3.485175	-0.039755	92.4287	1.181302	0.068161	0.067785	93.6119	23758.2	0.065205	0.145133	645.007	56977.6
1109	2.000000	1.184129	7.3759e+06	-55589.1	1055.82	-29741.1	0.000000	0.000000	7.188831	101.788	NaN	0.000000	0.001553	0.001716	28.0828	43.8855	0.001817	24156.8	6.025088	177.215	101.594	1.183830	0.070611	0.070312	101.788	24156.8	0.067451	0.153872	661.509	56264.2
1109	2.000000	1.186649	7.3759e+06	-55589.1	1055.82	-29741.1	0.000000	0.000000	7.191679	109.73	NaN	0.000000	0.001545	0.001686	28.0849	46.7224	0.001934	24155.7	6.969285	-3.558909	110.138	1.186245	0.073132	0.072727	109.73	24155.7	0.069725	0.162970	673.316	54668.7
1109	2.000000	1.189067	7.3759e+06	-55589.1	1055.82	-29741.1	0.000000	0.000000	7.194611	122.233	NaN	0.000000	0.001520	0.001707	28.0841	49.124	0.001788	27467.7	6.623358	174.746	118.849	1.188833	0.075549	0.075315	122.233	27467.7	0.072212	0.173202	705.728	60300.3
1109	2.000000	1.191645	7.3759e+06	-55589.1	1055.82	-29741.1	0.000000	0.000000	7.197696	134.559	NaN	0.000000	0.001576	0.001687	28.0846	49.8312	0.001666	29915.1	4.541485	-2.905551	131.823	1.191272	0.078127	0.077754	134.559	29915.1	0.074754	0.183962	731.446	63723.5
1109	2.000000	1.194103	7.3759e+06	-55589.1	1055.82	-29741.1	0.000000	0.000000	7.200618	145.847	NaN	0.000000	0.001544	0.001735	28.0839	53.4299	0.001802	29647.1	10.8288	170.607	142.952	1.193782	0.080585	0.080264	145.847	29647.1	0.076895	0.193263	754.656	61614.2
1109	2.000000	1.196596	7.3759e+06	-55589.1	1055.82	-29741.1	0.000000	0.000000	7.203629	158.429	NaN	0.000000	0.001541	0.001714	28.0843	56.2822	0.001821	30907.7	6.363593	-5.684989	154.014	1.196261	0.083078	0.082743	158.429	30907.7	0.079234	0.203664	777.896	62572.5
1109	2.000000	1.199120	7.3759e+06	-55589.1	1055.82	-29741.1	0.000000	0.000000	7.206792	173.982	NaN	0.000000	0.001560	0.001739	28.0841	58.677	0.001879	31220.8	4.809299	176.436	171.628	1.198835	0.085602	0.085317	173.982	31220.8	0.081423	0.213632	814.399	61714.1
1109	2.000000	1.201664	7.3759e+06	-55589.1	1055.82	-29741.1	0.000000	0.000000	7.210117	192.952	NaN	0.000000	0.001546	0.001728	28.0843	59.8041	0.001751	34151.3	4.414559	-3.046837	190.685	1.201194	0.088146	0.087676	192.952	34151.3	0.083908	0.225222	856.718	65746.9
1109	2.000000	1.204088	7.3759e+06	-55589.1	1055.82	-29741.1	0.000000	0.000000	7.213079	206.011	NaN	0.000000	0.001570	0.001709	28.0843	62.9079	0.001729	36385.8	5.101401	174.748	202.851	1.203701	0.090571	0.090184	206.011	36385.8	0.086324	0.236759	870.13	68320.7
1109	2.000000	1.206559	7.3759e+06	-55589.1	1055.82	-29741.1	0.000000	0.000000	7.216334	225.066	NaN	0.000000	0.001583	0.001716	28.0845	65.1597	0.001839	35437.7	4.349433	-4.015582	221.751	1.206127	0.093042	0.092609	225.066	35437.7	0.088278	0.246289	913.831	65240.4
1109	2.000000	1.209137	7.3759e+06	-55589.1	1055.82	-29741.1	0.000000	0.000000	7.219479	238.858	NaN	0.000000	0.001599	0.001722	28.0841	68.2427	0.001799	37931	5.156172	174.352	240.199	1.208753	0.095619	0.095235	238.858	37931	0.090896	0.259329	921.059	68052.1
1109	2.000000	1.211591	7.3759e+06	-55589.1	1055.82	-29741.1	0.000000	0.000000	7.222640	256.036	NaN	0.000000	0.001607	0.001729	28.0845	69.5087	0.001860	37376.9	6.478500	-5.976310	251.967	1.211225	0.098074	0.097707	256.036	37376.9	0.092936	0.269708	949.307	65755.1
1109	2.000000	1.214068	7.3759e+06	-55589.1	1055.82	-29741.1	0.000000	0.000000	7.225778	272.125	NaN	0.000000	0.001635	0.001669	28.0845	71.2481	0.001777	40085.8	6.467733	172.78	271.097	1.213724	0.100550	0.100207	272.125	40085.8	0.095459	0.282808	962.226	68868.1
1109	2.000000	1.216568	7.3759e+06	-55589.1	1055.82	-29741.1	0.000000	0.000000	7.228936	288.114	NaN	0.000000	0.001578	0.001737	28.0844	73.3181	0.001720	42634	1.125630	-2.667427	285.051	1.216236	0.103051	0.102718	288.114	42634	0.097982	0.296201	972.698	71570.8
1109	2.000000	1.219078	7.3759e+06	-55589.1	1055.82	-29741.1	0.000000	0.000000	7.232083	303.599	NaN	0.000000	0.001580	0.001720	28.0842	77.3183	0.001821	42459.9	2.929354	175.952	301.775	1.218813	0.105560	0.105295	303.599	42459.9	0.100197	0.308198	985.078	69877.6
1109	2.000000	1.221594	7.3759e+06	-55589.1	1055.82	-29741.1	0.000000	0.000000	7.235214	318.549	NaN	0.000000	0.001602	0.001710	28.0832	79.6972	0.001843	43246.8	6.686490	-8.279465	313.616	1.221296	0.108076	0.107778	318.549	43246.8	0.102552	0.321192	991.771	69717.9
1109	2.000000	1.224015	7.3759e+06	-55589.1	1055.82	-29741.1	0.000000	0.000000	7.238512	339.869	NaN	0.000000	0.001569	0.001710	28.0834	81.1935	0.001826	44457.4	5.122914	173.628	335.954	1.223695	0.110498	0.110178	339.869	44457.4	0.104764	0.333630	1018.7	70320.9
1109	2.000000	1.226553	7.3759e+06	-55589.1	1055.82	-29741.1	0.000000	0.000000	7.241750	356.872	NaN	0.000000	0.001544	0.001713	28.0831	84.4202	0.001855	45507.6	9.462898	-11.3215	352.91	1.226206	0.113036	0.112689	356.872	45507.6	0.107154	0.347319	1027.5	70549.3
1109	2.000000	1.228977	7.3759e+06	-55589.1	1055.82	-29741.1	0.000000	0.000000	7.244910	374.781	NaN	0.000000	0.001568	0.001711	28.0829	84.7267	0.001750	48411.2	4.360291	173.645	368.254	1.228694	0.115459	0.115176	374.781	48411.2	0.109653	0.361906	1035.58	73522.6
1109	2.000000	1.231586	7.3759e+06	-55589.1	1055.82	-29741.1	0.000000	0.000000	7.248436	397.073	NaN	0.000000	0.001529	0.001686	28.0832	87.2055	0.001826	47746.9	4.783075	-6.963746	392.193	1.231233	0.118068	0.117715	397.073	47746.9	0.111831	0.374854	1059.27	71250.5
1109	2.000000	1.234094	7.3759e+06	-55589.1	1055.82	-29741.1	0.000000	0.000000	7.251690	415.219	NaN	0.000000	0.001596	0.001708	28.0853	89.908	0.001798	50003.5	9.020291	168.633	414.591	1.233699	0.120576	0.120181	415.219	50003.5	0.114348	0.390083	1064.44	73146.7
1109	2.000000	1.236558	7.3759e+06	-55589.1	1055.82	-29741.1	0.000000	0.000000	7.254991	435.533	NaN	0.000000	0.001619	0.001707	28.0865	91.89	0.001723	53340.7	6.360648	-9.061968	432.875	1.236170	0.123040	0.122652	435.533	53340.7	0.116916	0.405921	1072.95	76491.2
1109	2.000000	1.239124	7.3759e+06	-55589.1	1055.82	-29741.1	0.000000	0.000000	7.258360	455.084	NaN	0.000000	0.001588	0.001715	28.0838	93.8813	0.001780	52755.8	4.027482	173.346	457.399	1.238824	0.125606	0.125306	455.084	52755.8	0.119136	0.419848	1083.93	74387.1
1109	2.000000	1.241701	7.3759e+06	-55589.1	1055.82	-29741.1	0.000000	0.000000	7.261927	479.138	NaN	0.000000	0.001572	0.001689	28.0834	96.1567	0.001800	53418.1	7.543480	-9.417824	483.375	1.241041	0.128183	0.127523	479.138	53418.1	0.121456	0.434644	1102.37	74027.8
1109	2.000000	1.243021	7.3759e+06	-55589.1	1055.82	-29741.1	0.000000	0.000000	7.263498	485.23	NaN	0.000000	0.001571	0.001715	28.0832	97.2685	0.001820	53435.8	3.176463	174.08	481.68	1.242697	0.129503	0.129179	485.23	53435.8	0.122692	0.442629	1096.25	73381.3