File: remote_trans/data/nanoindenter/0828-1/data/Data_2025-08-06,11h17m57s/2025-07-22_16-23-58_1_1094.txt
2025-07-22, 16:23:58, 1
Index	Phase	Displacement	Time	Pos X	Pos Y	Pos Z	Rot A	Rot B	Piezo Z	Force A	Force B	Gripper	Voltage A	Voltage B	Temperature	Amplitude force	Amplitude pos	Stiffness	Phase shift	Phase excitation	Force A raw	Displacement raw	HMax	HMax raw	Real Force	Real Stiffness	Contact Depth	Area	Hardness	Reduced Mod.
[#]	[#]	[um]	[s]	[um]	[um]	[um]	[m°]	[m°]	[um]	[uN]	[uN]	[V]	[V]	[V]	[°C]	[uN]	[um]	[N/m]	[°]	[°]	[uN]	[um]	[um]	[um]	[uN]	[N/m]	[um]	[um^2]	[MPa]	[MPa]
1094	1.000000	0.001834	7.37575e+06	-54839.1	1055.82	-29742.8	0.000000	0.000000	6.002785	-0.006740	NaN	0.000000	0.001708	0.001741	28.0838	0.085705	0.000930	92.1612	-151.483	-162.3	0.039518	0.000591	-1.024931	-1.026175	-0.006740	92.1612	-1.024876	-4.904068E+13	1.374290E-16	NaN
1094	1.000000	0.009809	7.37575e+06	-54839.1	1055.82	-29742.8	0.000000	0.000000	6.010757	-0.062404	NaN	0.000000	0.001735	0.001734	28.0834	0.124631	0.000964	129.275	109.186	-162.526	0.008164	0.008501	-1.016957	-1.018265	-0.062404	129.275	-1.016594	-3.794278E+13	1.644698E-15	NaN
1094	1.000000	0.017815	7.37575e+06	-54839.1	1055.82	-29742.8	0.000000	0.000000	6.018766	0.020174	NaN	0.000000	0.001703	0.001733	28.0835	0.137956	0.001740	79.3041	-157.486	-161.638	0.002977	0.016526	-1.008950	-1.010239	0.020174	79.3041	-1.009141	-3.011787E+13	-6.698508E-16	NaN
1094	1.000000	0.025834	7.37575e+06	-54839.1	1055.82	-29742.8	0.000000	0.000000	6.026785	0.009869	NaN	0.000000	0.001721	0.001699	28.0834	0.065418	0.001813	36.0887	-100.695	-165.342	-0.051185	0.024452	-1.000931	-1.002313	0.009869	36.0887	-1.001136	-2.349992E+13	-4.199599E-16	NaN
1094	1.000000	0.033806	7.37575e+06	-54839.1	1055.82	-29742.8	0.000000	0.000000	6.034754	-0.052531	NaN	0.000000	0.001743	0.001699	28.0825	0.047019	0.001946	24.167	-177.98	-165.419	-0.003773	0.032533	-0.992959	-0.994232	-0.052531	24.167	-0.991329	-1.733856E+13	3.029748E-15	NaN
1094	1.000000	0.041804	7.37575e+06	-54839.1	1055.82	-29742.8	0.000000	0.000000	6.042753	-0.023662	NaN	0.000000	0.001714	0.001713	28.0823	0.068908	0.001935	35.6136	84.2938	-163.312	-0.023692	0.040459	-0.984962	-0.986306	-0.023662	35.6136	-0.984463	-1.401321E+13	1.688538E-15	NaN
1094	1.000000	0.049795	7.37575e+06	-54839.1	1055.82	-29742.8	0.000000	0.000000	6.050745	-0.010421	NaN	0.000000	0.001699	0.001732	28.0824	0.069424	0.002061	33.6785	-12.559	-163.365	0.025411	0.048503	-0.976971	-0.978263	-0.010421	33.6785	-0.976739	-1.102736E+13	9.450525E-16	NaN
1094	1.000000	0.057809	7.37575e+06	-54839.1	1055.82	-29742.8	0.000000	0.000000	6.058762	0.057191	NaN	0.000000	0.001723	0.001715	28.0823	0.099343	0.002004	49.5842	111.059	-168.532	0.092849	0.056560	-0.968956	-0.970205	0.057191	49.5842	-0.969821	-8.897251E+12	-6.427923E-15	NaN
1094	1.000000	0.065813	7.37575e+06	-54839.1	1055.82	-29742.8	0.000000	0.000000	6.066762	-0.049001	NaN	0.000000	0.001718	0.001743	28.0822	0.064948	0.002098	30.9538	-119.46	-167.011	0.014854	0.064471	-0.960952	-0.962295	-0.049001	30.9538	-0.959765	-6.511759E+12	7.525019E-15	NaN
1094	1.000000	0.073819	7.37575e+06	-54839.1	1055.82	-29742.8	0.000000	0.000000	6.074771	0.030152	NaN	0.000000	0.001733	0.001734	28.0825	0.080587	0.002023	39.8442	55.3588	-163.58	0.049168	0.072504	-0.952946	-0.954262	0.030152	39.8442	-0.953514	-5.363088E+12	-5.622177E-15	NaN
1094	1.000000	0.081823	7.37575e+06	-54839.1	1055.82	-29742.8	0.000000	0.000000	6.082774	0.000872	NaN	0.000000	0.001739	0.001735	28.0825	0.113499	0.002070	54.8265	68.3147	-160.273	0.011955	0.080477	-0.944942	-0.946288	0.000872	54.8265	-0.944954	-4.111233E+12	-2.121006E-16	NaN
1094	1.000000	0.089806	7.37575e+06	-54839.1	1055.82	-29742.8	0.000000	0.000000	6.090760	0.092503	NaN	0.000000	0.001726	0.001718	28.0826	0.028436	0.001992	14.2763	173.57	-167.428	0.041436	0.088532	-0.936959	-0.938233	0.092503	14.2763	-0.941819	-3.729738E+12	-2.480143E-14	NaN
1094	1.000000	0.097817	7.37575e+06	-54839.1	1055.82	-29742.8	0.000000	0.000000	6.098770	0.060535	NaN	0.000000	0.001747	0.001712	28.0825	0.071820	0.001951	36.8163	-41.1233	-164.193	0.045877	0.096508	-0.928949	-0.930257	0.060535	36.8163	-0.930182	-2.598081E+12	-2.329997E-14	NaN
1094	1.000000	0.105846	7.37575e+06	-54839.1	1055.82	-29742.8	0.000000	0.000000	6.106793	-0.074314	NaN	0.000000	0.001703	0.001718	28.0823	0.168885	0.001906	88.6041	-66.8029	-162.911	0.026615	0.104554	-0.920920	-0.922211	-0.074314	88.6041	-0.920291	-1.910431E+12	3.889929E-14	NaN
1094	1.000000	0.113812	7.37575e+06	-54839.1	1055.82	-29742.8	0.000000	0.000000	6.114762	-0.011792	NaN	0.000000	0.001724	0.001766	28.0822	0.091574	0.002004	45.6929	69.9388	-162.512	0.019256	0.112533	-0.912953	-0.914232	-0.011792	45.6929	-0.912760	-1.511591E+12	7.800922E-15	NaN
1094	1.000000	0.121831	7.37575e+06	-54839.1	1055.82	-29742.8	0.000000	0.000000	6.122780	-0.010223	NaN	0.000000	0.001739	0.001750	28.0821	0.068346	0.002097	32.5974	129.479	-164.704	-0.006742	0.120542	-0.904935	-0.906223	-0.010223	32.5974	-0.904700	-1.176429E+12	8.690046E-15	NaN
1094	1.000000	0.129801	7.37575e+06	-54839.1	1055.82	-29742.8	0.000000	0.000000	6.130748	-0.074168	NaN	0.000000	0.001709	0.001786	28.0821	0.085387	0.002074	41.1689	163.579	-161.728	-0.075943	0.128503	-0.896965	-0.898262	-0.074168	41.1689	-0.895614	-8.867256E+11	8.364270E-14	NaN
1094	1.000000	0.137817	7.37575e+06	-54839.1	1055.82	-29742.8	0.000000	0.000000	6.138769	0.049174	NaN	0.000000	0.001694	0.001777	28.0822	0.117208	0.001931	60.6928	-108.109	-164.884	0.016532	0.136528	-0.888949	-0.890237	0.049174	60.6928	-0.889556	-7.343718E+11	-6.696060E-14	NaN
1094	1.000000	0.145838	7.37575e+06	-54839.1	1055.82	-29742.8	0.000000	0.000000	6.146788	-0.017351	NaN	0.000000	0.001666	0.001771	28.0822	0.057735	0.002183	26.4474	-40.1913	-166.131	-0.039491	0.144533	-0.880928	-0.882233	-0.017351	26.4474	-0.880436	-5.528396E+11	3.138466E-14	NaN
1094	1.000000	0.153822	7.37575e+06	-54839.1	1055.82	-29742.8	0.000000	0.000000	6.154768	-0.089047	NaN	0.000000	0.001726	0.001728	28.0822	0.064767	0.001891	34.2434	-141.181	-163.871	-0.056100	0.152497	-0.872944	-0.874269	-0.089047	34.2434	-0.870994	-4.119889E+11	2.161392E-13	NaN
1094	1.000000	0.161852	7.37575e+06	-54839.1	1055.82	-29742.8	0.000000	0.000000	6.162802	-0.012394	NaN	0.000000	0.001669	0.001762	28.082	0.073603	0.002031	36.2419	64.1587	-165.088	0.049480	0.160551	-0.864914	-0.866214	-0.012394	36.2419	-0.864657	-3.381803E+11	3.665024E-14	NaN
1094	1.000000	0.169831	7.37575e+06	-54839.1	1055.82	-29742.8	0.000000	0.000000	6.170782	0.011964	NaN	0.000000	0.001644	0.001731	28.0834	0.162043	0.002051	78.9995	-158.469	-163.622	0.026161	0.168549	-0.856934	-0.858217	0.011964	78.9995	-0.857048	-2.667829E+11	-4.484576E-14	NaN
1094	1.000000	0.177842	7.37575e+06	-54839.1	1055.82	-29742.8	0.000000	0.000000	6.178791	-0.049543	NaN	0.000000	0.001651	0.001741	28.0834	0.079491	0.002066	38.468	-102.978	-166.512	-0.077392	0.176550	-0.848923	-0.850216	-0.049543	38.468	-0.847957	-2.009439E+11	2.465518E-13	NaN
1094	1.000000	0.185865	7.37575e+06	-54839.1	1055.82	-29742.8	0.000000	0.000000	6.186814	-0.028575	NaN	0.000000	0.001657	0.001747	28.0834	0.180628	0.002046	88.2621	-45.5128	-162.359	0.002616	0.184524	-0.840900	-0.842242	-0.028575	88.2621	-0.840658	-1.600303E+11	1.785582E-13	NaN
1094	1.000000	0.193839	7.37575e+06	-54839.1	1055.82	-29742.8	0.000000	0.000000	6.194788	-0.041671	NaN	0.000000	0.001655	0.001714	28.0836	0.097266	0.001965	49.5046	23.9552	-166.705	-0.004720	0.192586	-0.832926	-0.834180	-0.041671	49.5046	-0.832295	-1.232786E+11	3.380207E-13	NaN
1094	1.000000	0.201860	7.37575e+06	-54839.1	1055.82	-29742.8	0.000000	0.000000	6.202808	-0.080069	NaN	0.000000	0.001665	0.001772	28.0833	0.105389	0.002088	50.4694	-80.547	-162.487	-0.172920	0.200562	-0.824905	-0.826203	-0.080069	50.4694	-0.823715	-9.431627E+10	8.489415E-13	NaN
1094	1.000000	0.209872	7.37575e+06	-54839.1	1055.82	-29742.8	0.000000	0.000000	6.210824	0.033721	NaN	0.000000	0.001659	0.001737	28.0833	0.075595	0.002023	37.3649	-1.911681	-168.411	-0.001826	0.208553	-0.816893	-0.818212	0.033721	37.3649	-0.817570	-7.785022E+10	-4.331496E-13	NaN
1094	1.000000	0.217850	7.37575e+06	-54839.1	1055.82	-29742.8	0.000000	0.000000	6.218800	-0.000102	NaN	0.000000	0.001678	0.001738	28.0835	0.075124	0.001946	38.6054	-59.4628	-166.08	0.006088	0.216585	-0.808916	-0.810180	-0.000102	38.6054	-0.808914	-5.940620E+10	1.720981E-15	NaN
1094	1.000000	0.225867	7.37575e+06	-54839.1	1055.82	-29742.8	0.000000	0.000000	6.226817	-0.004852	NaN	0.000000	0.001641	0.001733	28.0835	0.084750	0.002030	41.7389	-79.7649	-164.86	0.048016	0.224600	-0.800899	-0.802166	-0.004852	41.7389	-0.800811	-4.611877E+10	1.052158E-13	NaN
1094	1.000000	0.233886	7.37575e+06	-54839.1	1055.82	-29742.8	0.000000	0.000000	6.234838	0.027195	NaN	0.000000	0.001664	0.001758	28.0835	0.066814	0.002000	33.4039	-8.962685	-164.802	-0.022051	0.232600	-0.792879	-0.794165	0.027195	33.4039	-0.793490	-3.668397E+10	-7.413379E-13	NaN
1094	1.000000	0.241888	7.37575e+06	-54839.1	1055.82	-29742.8	0.000000	0.000000	6.242839	0.018336	NaN	0.000000	0.001691	0.001736	28.0834	0.096177	0.001966	48.9085	158.88	-160.97	-0.047198	0.240535	-0.784877	-0.786230	0.018336	48.9085	-0.785158	-2.826955E+10	-6.486054E-13	NaN
1094	1.000000	0.249877	7.37575e+06	-54839.1	1055.82	-29742.8	0.000000	0.000000	6.250827	-0.015767	NaN	0.000000	0.001676	0.001752	28.0839	0.008748	0.002029	4.311790	-153.428	-163.35	-0.024325	0.248571	-0.776888	-0.778194	-0.015767	4.311790	-0.774146	-2.002940E+10	7.871969E-13	NaN
1094	1.000000	0.257902	7.37575e+06	-54839.1	1055.82	-29742.8	0.000000	0.000000	6.258853	-0.003948	NaN	0.000000	0.001680	0.001706	28.0834	0.085699	0.001986	43.1537	-144.532	-163.526	-0.035567	0.256562	-0.768863	-0.770204	-0.003948	43.1537	-0.768795	-1.694008E+10	2.330707E-13	NaN
1094	1.000000	0.265883	7.37575e+06	-54839.1	1055.82	-29742.8	0.000000	0.000000	6.266833	-0.003047	NaN	0.000000	0.001685	0.001748	28.0836	0.097804	0.002071	47.223	36.8822	-163.121	-0.014800	0.264550	-0.760882	-0.762215	-0.003047	47.223	-0.760834	-1.320221E+10	2.307970E-13	NaN
1094	1.000000	0.273887	7.37575e+06	-54839.1	1055.82	-29742.8	0.000000	0.000000	6.274836	-0.032997	NaN	0.000000	0.001688	0.001718	28.0834	0.037293	0.001994	18.7014	126.046	-166.093	-0.090305	0.272594	-0.752879	-0.754172	-0.032997	18.7014	-0.751555	-9.871648E+9	3.342621E-12	NaN
1094	1.000000	0.281882	7.37575e+06	-54839.1	1055.82	-29742.8	0.000000	0.000000	6.282831	-0.024866	NaN	0.000000	0.001692	0.001748	28.0833	0.028987	0.001953	14.8454	126.252	-165.085	-0.030627	0.280608	-0.744884	-0.746157	-0.024866	14.8454	-0.743628	-7.699490E+9	3.229535E-12	NaN
1094	1.000000	0.289908	7.37575e+06	-54839.1	1055.82	-29742.8	0.000000	0.000000	6.290859	0.017955	NaN	0.000000	0.001688	0.001763	28.0835	0.056631	0.002103	26.9239	-148.951	-161.414	-0.013551	0.288642	-0.736858	-0.738123	0.017955	26.9239	-0.737358	-6.325127E+9	-2.838619E-12	NaN
1094	1.000000	0.297891	7.37575e+06	-54839.1	1055.82	-29742.8	0.000000	0.000000	6.298841	-0.017661	NaN	0.000000	0.001645	0.001726	28.0834	0.042850	0.001971	21.7423	131.786	-165.903	0.000952	0.296607	-0.728874	-0.730159	-0.017661	21.7423	-0.728265	-4.755137E+9	3.714180E-12	NaN
1094	1.000000	0.305870	7.37575e+06	-54839.1	1055.82	-29742.8	0.000000	0.000000	6.306817	-0.074792	NaN	0.000000	0.001682	0.001743	28.0824	0.133326	0.001984	67.1925	35.3027	-168.109	-0.028453	0.304598	-0.720895	-0.722167	-0.074792	67.1925	-0.720061	-3.675360E+9	2.034964E-11	NaN
1094	1.000000	0.313887	7.37575e+06	-54839.1	1055.82	-29742.8	0.000000	0.000000	6.314837	-0.023331	NaN	0.000000	0.001662	0.001761	28.082	0.071865	0.002096	34.293	-175.416	-164.8	-0.048711	0.312628	-0.712878	-0.714138	-0.023331	34.293	-0.712368	-2.886426E+9	8.082863E-12	NaN
1094	1.000000	0.321929	7.37575e+06	-54839.1	1055.82	-29742.8	0.000000	0.000000	6.322879	-0.011500	NaN	0.000000	0.001653	0.001764	28.0822	0.098707	0.002020	48.8556	-17.7977	-165.569	0.002491	0.320576	-0.704836	-0.706190	-0.011500	48.8556	-0.704660	-2.265445E+9	5.076397E-12	NaN
1094	1.000000	0.329925	7.37575e+06	-54839.1	1055.82	-29742.8	0.000000	0.000000	6.330876	0.016920	NaN	0.000000	0.001624	0.001716	28.0824	0.072474	0.002013	36.0051	40.0732	-167.125	-0.054214	0.328548	-0.696841	-0.698218	0.016920	36.0051	-0.697193	-1.791412E+9	-9.445294E-12	NaN
1094	1.000000	0.337916	7.37575e+06	-54839.1	1055.82	-29742.8	0.000000	0.000000	6.338865	-0.033288	NaN	0.000000	0.001648	0.001741	28.0823	0.081910	0.001893	43.2742	134.413	-166.797	-0.063449	0.336644	-0.688850	-0.690121	-0.033288	43.2742	-0.688273	-1.353040E+9	2.460264E-11	NaN
1094	1.000000	0.345966	7.37575e+06	-54839.1	1055.82	-29742.8	0.000000	0.000000	6.346914	-0.051316	NaN	0.000000	0.001620	0.001767	28.0823	0.040506	0.001996	20.2892	4.122906	-164.647	-0.047386	0.344573	-0.680800	-0.682192	-0.051316	20.2892	-0.678903	-1.007387E+9	5.093954E-11	NaN
1094	1.000000	0.353924	7.37575e+06	-54839.1	1055.82	-29742.8	0.000000	0.000000	6.354874	-0.022967	NaN	0.000000	0.001654	0.001747	28.0821	0.104751	0.002006	52.2186	-110.21	-165.296	0.016609	0.352587	-0.672841	-0.674178	-0.022967	52.2186	-0.672511	-8.236771E+8	2.788365E-11	NaN
1094	1.000000	0.361913	7.37575e+06	-54839.1	1055.82	-29742.8	0.000000	0.000000	6.362863	-0.002155	NaN	0.000000	0.001664	0.001749	28.0825	0.024190	0.002002	12.0854	92.7854	-165.874	-0.058951	0.360631	-0.664853	-0.666135	-0.002155	12.0854	-0.664719	-6.443156E+8	3.345298E-12	NaN
1094	1.000000	0.369888	7.37575e+06	-54839.1	1055.82	-29742.8	0.000000	0.000000	6.370837	-0.030773	NaN	0.000000	0.001667	0.001723	28.0821	0.058258	0.001936	30.0952	125.586	-164.644	-0.018658	0.368660	-0.656877	-0.658106	-0.030773	30.0952	-0.656110	-4.911115E+8	6.265897E-11	NaN
1094	1.000000	0.377939	7.37575e+06	-54839.1	1055.82	-29742.8	0.000000	0.000000	6.378886	-0.087904	NaN	0.000000	0.001650	0.001742	28.0822	0.075935	0.002123	35.7613	73.1836	-167.496	-0.073756	0.376636	-0.648827	-0.650129	-0.087904	35.7613	-0.646983	-3.681901E+8	2.387472E-10	NaN
1094	1.000000	0.385922	7.37575e+06	-54839.1	1055.82	-29742.8	0.000000	0.000000	6.386870	-0.057198	NaN	0.000000	0.001662	0.001720	28.0825	0.067093	0.001944	34.5055	-128.632	-168.007	-0.060153	0.384691	-0.640844	-0.642074	-0.057198	34.5055	-0.639601	-2.916154E+8	1.961417E-10	NaN
1094	1.000000	0.393935	7.37576e+06	-54839.1	1055.82	-29742.8	0.000000	0.000000	6.394888	0.060223	NaN	0.000000	0.001632	0.001715	28.0823	0.019561	0.001832	10.6793	-175.103	-164.538	-0.148964	0.392638	-0.632830	-0.634127	0.060223	10.6793	-0.637060	-2.691192E+8	-2.237792E-10	NaN
1094	1.000000	0.401950	7.37576e+06	-54839.1	1055.82	-29742.8	0.000000	0.000000	6.402899	-0.036359	NaN	0.000000	0.001691	0.001741	28.0823	0.104089	0.001985	52.4344	69.8638	-167.872	0.028714	0.400717	-0.624816	-0.626049	-0.036359	52.4344	-0.624296	-1.797497E+8	2.022759E-10	NaN
1094	1.000000	0.409944	7.37576e+06	-54839.1	1055.82	-29742.8	0.000000	0.000000	6.410895	0.026191	NaN	0.000000	0.001709	0.001726	28.082	0.076252	0.001922	39.6719	-63.3675	-167.453	0.060194	0.408616	-0.616822	-0.618149	0.026191	39.6719	-0.617317	-1.441287E+8	-1.817181E-10	NaN
1094	1.000000	0.417946	7.37576e+06	-54839.1	1055.82	-29742.8	0.000000	0.000000	6.418896	-0.002064	NaN	0.000000	0.001682	0.001759	28.0821	0.032111	0.002089	15.3691	40.9341	-164.682	0.059430	0.416648	-0.608819	-0.610117	-0.002064	15.3691	-0.608719	-1.097702E+8	1.880478E-11	NaN
1094	1.000000	0.425952	7.37576e+06	-54839.1	1055.82	-29742.8	0.000000	0.000000	6.426904	0.041300	NaN	0.000000	0.001719	0.001731	28.0823	0.089878	0.002081	43.1957	-64.6706	-168.662	0.047694	0.424711	-0.600814	-0.602054	0.041300	43.1957	-0.601531	-8.740686E+7	-4.725053E-10	NaN
1094	1.000000	0.433974	7.37576e+06	-54839.1	1055.82	-29742.8	0.000000	0.000000	6.434926	0.027569	NaN	0.000000	0.001725	0.001728	28.082	0.031232	0.002083	14.9918	-139.498	-164.379	-0.012891	0.432643	-0.592791	-0.594122	0.027569	14.9918	-0.594171	-6.920751E+7	-3.983474E-10	NaN
1094	1.000000	0.441989	7.37576e+06	-54839.1	1055.82	-29742.8	0.000000	0.000000	6.442937	-0.059641	NaN	0.000000	0.001702	0.001720	28.0834	0.056456	0.002052	27.507	10.3214	-163.566	-0.063714	0.440643	-0.584776	-0.586122	-0.059641	27.507	-0.583150	-4.877472E+7	1.222775E-9	NaN
1094	1.000000	0.449970	7.37576e+06	-54839.1	1055.82	-29742.8	0.000000	0.000000	6.450921	0.006035	NaN	0.000000	0.001696	0.001753	28.0835	0.087351	0.001947	44.8702	108.455	-165.435	0.000754	0.448681	-0.576795	-0.578085	0.006035	44.8702	-0.576896	-3.998365E+7	-1.509445E-10	NaN
1094	1.000000	0.457980	7.37576e+06	-54839.1	1055.82	-29742.8	0.000000	0.000000	6.458934	0.087064	NaN	0.000000	0.001667	0.001752	28.0835	0.126580	0.002016	62.774	-171.99	-166.162	0.148562	0.456675	-0.568786	-0.570090	0.087064	62.774	-0.569826	-3.193187E+7	-2.726543E-9	NaN
1094	1.000000	0.465962	7.37576e+06	-54839.1	1055.82	-29742.8	0.000000	0.000000	6.466911	-0.037742	NaN	0.000000	0.001688	0.001740	28.0833	0.077366	0.001986	38.9599	-138.328	-161.143	-0.046168	0.464621	-0.560803	-0.562144	-0.037742	38.9599	-0.560077	-2.341191E+7	1.612091E-9	NaN
1094	1.000000	0.473964	7.37576e+06	-54839.1	1055.82	-29742.8	0.000000	0.000000	6.474912	-0.057187	NaN	0.000000	0.001683	0.001746	28.0832	0.073338	0.001897	38.6518	67.0674	-165.561	-0.171451	0.472699	-0.552801	-0.554067	-0.057187	38.6518	-0.551691	-1.792180E+7	3.190927E-9	NaN
1094	1.000000	0.482007	7.37576e+06	-54839.1	1055.82	-29742.8	0.000000	0.000000	6.482957	0.009882	NaN	0.000000	0.001657	0.001745	28.0837	0.060153	0.001986	30.2859	59.4305	-166.908	0.000134	0.480684	-0.544759	-0.546082	0.009882	30.2859	-0.545004	-1.447867E+7	-6.825510E-10	NaN
1094	1.000000	0.489989	7.37576e+06	-54839.1	1055.82	-29742.8	0.000000	0.000000	6.490939	-0.006338	NaN	0.000000	0.001667	0.001754	28.0833	0.017411	0.001871	9.306971	-43.4994	-166.446	-0.034998	0.488648	-0.536776	-0.538118	-0.006338	9.306971	-0.536265	-1.095346E+7	5.785888E-10	NaN
1094	1.000000	0.498026	7.37576e+06	-54839.1	1055.82	-29742.8	0.000000	0.000000	6.498975	-0.029202	NaN	0.000000	0.001688	0.001749	28.0839	0.078750	0.002059	38.2518	127.093	-164.564	0.055139	0.496695	-0.528739	-0.530070	-0.029202	38.2518	-0.528167	-8.45502e+06	3.453752E-9	NaN
1094	1.000000	0.506000	7.37576e+06	-54839.1	1055.82	-29742.8	0.000000	0.000000	6.506950	-0.016305	NaN	0.000000	0.001658	0.001723	28.0833	0.026984	0.001989	13.5665	117.528	-166.024	0.012882	0.504665	-0.520765	-0.522100	-0.016305	13.5665	-0.519864	-6.48196e+06	2.515429E-9	NaN
1094	1.000000	0.513987	7.37576e+06	-54839.1	1055.82	-29742.8	0.000000	0.000000	6.514938	-0.002488	NaN	0.000000	0.001673	0.001730	28.0835	0.017731	0.002096	8.457936	-4.025882	-167.238	-0.036916	0.512688	-0.512778	-0.514077	-0.002488	8.457936	-0.512557	-5.12898e+06	4.851535E-10	NaN
1094	1.000000	0.522010	7.37576e+06	-54839.1	1055.82	-29742.8	0.000000	0.000000	6.522960	-0.005638	NaN	0.000000	0.001682	0.001733	28.0834	0.111183	0.001918	57.9725	-83.0095	-165.403	0.007267	0.520731	-0.504755	-0.506034	-0.005638	57.9725	-0.504683	-3.984e+06	1.415231E-9	NaN
1094	1.000000	0.529993	7.37576e+06	-54839.1	1055.82	-29742.8	0.000000	0.000000	6.530942	-0.042547	NaN	0.000000	0.001701	0.001735	28.0832	0.086106	0.001865	46.164	-87.4266	-165.943	0.041393	0.528741	-0.496772	-0.498025	-0.042547	46.164	-0.496081	-3.02225e+06	1.407810E-8	NaN
1094	1.000000	0.538010	7.37576e+06	-54839.1	1055.82	-29742.8	0.000000	0.000000	6.538961	0.007457	NaN	0.000000	0.001669	0.001731	28.0838	0.059445	0.001974	30.1129	79.9405	-166.393	-0.025408	0.536676	-0.488755	-0.490090	0.007457	30.1129	-0.488941	-2.4021e+06	-3.104265E-9	NaN
1094	1.000000	0.545977	7.37576e+06	-54839.1	1055.82	-29742.8	0.000000	0.000000	6.546924	-0.068021	NaN	0.000000	0.001680	0.001738	28.0834	0.077408	0.002097	36.9098	100.712	-165.347	-0.105044	0.544708	-0.480789	-0.482057	-0.068021	36.9098	-0.479407	-1.76694e+06	3.849645E-8	NaN
1094	1.000000	0.554008	7.37576e+06	-54839.1	1055.82	-29742.8	0.000000	0.000000	6.554960	0.032964	NaN	0.000000	0.001702	0.001756	28.0836	0.034209	0.002024	16.9002	-31.7158	-166.39	0.013077	0.552673	-0.472757	-0.474093	0.032964	16.9002	-0.474220	-1.49475e+06	-2.205319E-8	NaN
1094	1.000000	0.562056	7.37576e+06	-54839.1	1055.82	-29742.8	0.000000	0.000000	6.563003	-0.083020	NaN	0.000000	0.001695	0.001750	28.0839	0.134643	0.002052	65.6162	89.4755	-167.086	-0.096043	0.560712	-0.464710	-0.466053	-0.083020	65.6162	-0.463761	-1.06622e+06	7.786346E-8	NaN
1094	1.000000	0.569994	7.37576e+06	-54839.1	1055.82	-29742.8	0.000000	0.000000	6.570942	-0.057521	NaN	0.000000	0.001664	0.001754	28.0834	0.065324	0.001982	32.9589	171.282	-167.887	-0.072206	0.568729	-0.456772	-0.458036	-0.057521	32.9589	-0.455463	-815130	7.056692E-8	NaN
1094	1.000000	0.578041	7.37576e+06	-54839.1	1055.82	-29742.8	0.000000	0.000000	6.578990	-0.024791	NaN	0.000000	0.001660	0.001787	28.0829	0.086589	0.001972	43.9032	54.2741	-164.108	-0.033277	0.576735	-0.448725	-0.450031	-0.024791	43.9032	-0.448301	-646268	3.836063E-8	NaN
1094	1.000000	0.586017	7.37576e+06	-54839.1	1055.82	-29742.8	0.000000	0.000000	6.586966	-0.029170	NaN	0.000000	0.001678	0.001757	28.0821	0.081781	0.001963	41.6684	-0.636994	-166.427	-0.025846	0.584637	-0.440749	-0.442129	-0.029170	41.6684	-0.440224	-497186	5.867050E-8	NaN
1094	1.000000	0.594005	7.37576e+06	-54839.1	1055.82	-29742.8	0.000000	0.000000	6.594959	0.090267	NaN	0.000000	0.001685	0.001746	28.0821	0.036489	0.002094	17.4284	-72.1784	-162.93	0.122867	0.592691	-0.432761	-0.434075	0.090267	17.4284	-0.436645	-442583	-2.039561E-7	NaN
1094	1.000000	0.602021	7.37576e+06	-54839.1	1055.82	-29742.8	0.000000	0.000000	6.602969	-0.058067	NaN	0.000000	0.001678	0.001756	28.0819	0.053924	0.001933	27.9017	-65.6493	-164.359	-0.115209	0.600687	-0.424745	-0.426078	-0.058067	27.9017	-0.423184	-285467	2.034092E-7	NaN
1094	1.000000	0.610042	7.37576e+06	-54839.1	1055.82	-29742.8	0.000000	0.000000	6.610992	0.010212	NaN	0.000000	0.001688	0.001768	28.0819	0.042991	0.001990	21.6023	10.6544	-164.148	0.031539	0.608724	-0.416724	-0.418042	0.010212	21.6023	-0.417078	-233864	-4.366609E-8	NaN
1094	1.000000	0.618042	7.37576e+06	-54839.1	1055.82	-29742.8	0.000000	0.000000	6.618991	-0.041296	NaN	0.000000	0.001666	0.001737	28.0824	0.050387	0.002006	25.1215	124.189	-164.689	-0.030443	0.616734	-0.408723	-0.410031	-0.041296	25.1215	-0.407490	-170883	2.416646E-7	NaN
1094	1.000000	0.626031	7.37576e+06	-54839.1	1055.82	-29742.8	0.000000	0.000000	6.626981	-0.016749	NaN	0.000000	0.001638	0.001762	28.0821	0.125620	0.001903	65.997	144.123	-167.654	0.008970	0.624708	-0.400734	-0.402057	-0.016749	65.997	-0.400544	-136067	1.230971E-7	NaN
1094	1.000000	0.634015	7.37576e+06	-54839.1	1055.82	-29742.8	0.000000	0.000000	6.634970	0.091474	NaN	0.000000	0.001649	0.001730	28.0821	0.063635	0.001779	35.7757	113.026	-162.099	-0.013880	0.632717	-0.392750	-0.394049	0.091474	35.7757	-0.394668	-112173	-8.154691E-7	NaN
1094	1.000000	0.642043	7.37576e+06	-54839.1	1055.82	-29742.8	0.000000	0.000000	6.642992	-0.034041	NaN	0.000000	0.001652	0.001740	28.0821	0.117850	0.001967	59.9033	-20.8344	-164.104	-0.056437	0.640734	-0.384723	-0.386031	-0.034041	59.9033	-0.384297	-79708.8	4.270640E-7	NaN
1094	1.000000	0.650077	7.37576e+06	-54839.1	1055.82	-29742.8	0.000000	0.000000	6.651022	-0.123985	NaN	0.000000	0.001648	0.001725	28.0823	0.186522	0.002023	92.1937	-165.718	-163.022	-0.096276	0.648739	-0.376689	-0.378026	-0.123985	92.1937	-0.375680	-59957.8	2.067871E-6	NaN
1094	1.000000	0.658041	7.37576e+06	-54839.1	1055.82	-29742.8	0.000000	0.000000	6.658986	-0.121830	NaN	0.000000	0.001688	0.001730	28.0823	0.055872	0.001974	28.3066	-176.372	-164.011	-0.064704	0.656703	-0.368725	-0.370062	-0.121830	28.3066	-0.365497	-42778	2.847959E-6	NaN
1094	1.000000	0.666048	7.37576e+06	-54839.1	1055.82	-29742.8	0.000000	0.000000	6.666998	-0.018219	NaN	0.000000	0.001665	0.001813	28.0824	0.055912	0.001948	28.707	-161.949	-162.712	-0.065944	0.664712	-0.360717	-0.362053	-0.018219	28.707	-0.360241	-35919.9	5.072040E-7	NaN
1094	1.000000	0.674045	7.37576e+06	-54839.1	1055.82	-29742.8	0.000000	0.000000	6.674995	-0.016424	NaN	0.000000	0.001676	0.001771	28.0821	0.020662	0.002081	9.927295	-146.559	-164.935	0.019405	0.672768	-0.352721	-0.353997	-0.016424	9.927295	-0.351480	-26821	6.123443E-7	NaN
1094	1.000000	0.682083	7.37576e+06	-54839.1	1055.82	-29742.8	0.000000	0.000000	6.683032	-0.026227	NaN	0.000000	0.001681	0.001697	28.0823	0.015487	0.001901	8.145984	112.894	-166.663	-0.005891	0.680754	-0.344683	-0.346011	-0.026227	8.145984	-0.342268	-19705.9	1.330902E-6	NaN
1094	1.000000	0.690068	7.37576e+06	-54839.1	1055.82	-29742.8	0.000000	0.000000	6.691018	-0.013977	NaN	0.000000	0.001659	0.001691	28.0823	0.156879	0.001881	83.4086	63.8821	-164.959	0.092151	0.688759	-0.336697	-0.338007	-0.013977	83.4086	-0.336572	-16275.8	8.587754E-7	NaN
1094	1.000000	0.698092	7.37576e+06	-54839.1	1055.82	-29742.8	0.000000	0.000000	6.699043	0.008330	NaN	0.000000	0.001656	0.001723	28.082	0.073843	0.001969	37.5045	52.3221	-165.204	0.084856	0.696737	-0.328674	-0.330028	0.008330	37.5045	-0.328840	-12544.7	-6.640636E-7	NaN
1094	1.000000	0.706084	7.37576e+06	-54839.1	1055.82	-29742.8	0.000000	0.000000	6.707034	0.002616	NaN	0.000000	0.001658	0.001732	28.0822	0.083339	0.001941	42.9331	-169.394	-165	-0.047253	0.704741	-0.320682	-0.322025	0.002616	42.9331	-0.320728	-9535.59	-2.743509E-7	NaN
1094	1.000000	0.714090	7.37576e+06	-54839.1	1055.82	-29742.8	0.000000	0.000000	6.715040	-0.011694	NaN	0.000000	0.001687	0.001745	28.0826	0.052192	0.002053	25.4258	146.1	-162.279	0.000384	0.712784	-0.312676	-0.313981	-0.011694	25.4258	-0.312331	-7170.15	1.630931E-6	NaN
1094	1.000000	0.722088	7.37576e+06	-54839.1	1055.82	-29742.8	0.000000	0.000000	6.723040	0.031552	NaN	0.000000	0.001657	0.001740	28.0833	0.030165	0.002048	14.7271	-127.232	-163.041	0.002662	0.720832	-0.304678	-0.305934	0.031552	14.7271	-0.306284	-5834.59	-5.407813E-6	NaN
1094	1.000000	0.730094	7.37576e+06	-54839.1	1055.82	-29742.8	0.000000	0.000000	6.731045	0.002785	NaN	0.000000	0.001618	0.001738	28.0834	0.045152	0.001963	23.0015	-73.9968	-162.271	0.041722	0.728765	-0.296671	-0.298000	0.002785	23.0015	-0.296762	-4211	-6.614588E-7	NaN
1094	1.000000	0.738084	7.37576e+06	-54839.1	1055.82	-29742.8	0.000000	0.000000	6.739029	-0.117400	NaN	0.000000	0.001724	0.001735	28.0833	0.018247	0.002031	8.985718	-149.929	-164.501	-0.028695	0.736765	-0.288682	-0.290000	-0.117400	8.985718	-0.278883	-2270.43	5.170830E-5	NaN
1094	1.000000	0.746082	7.37576e+06	-54839.1	1055.82	-29742.8	0.000000	0.000000	6.747030	-0.039809	NaN	0.000000	0.001728	0.001747	28.0835	0.070502	0.002067	34.1035	96.1198	-165.473	-0.145664	0.744745	-0.280684	-0.282020	-0.039809	34.1035	-0.279808	-2344.66	1.697852E-5	NaN
1094	1.000000	0.754087	7.37576e+06	-54839.1	1055.82	-29742.8	0.000000	0.000000	6.755036	-0.047151	NaN	0.000000	0.001704	0.001743	28.0833	0.002599	0.002018	1.287775	-8.795557	-163.575	-0.066902	0.752742	-0.272678	-0.274023	-0.047151	1.287775	-0.245218	-693.162	6.802290E-5	NaN
1094	1.000000	0.762074	7.37576e+06	-54839.1	1055.82	-29742.8	0.000000	0.000000	6.763025	0.019031	NaN	0.000000	0.001701	0.001718	28.0831	0.059397	0.002048	29.0074	-177.992	-165.291	-0.028147	0.760798	-0.264692	-0.265967	0.019031	29.0074	-0.265184	-1406.67	-1.352891E-5	NaN
1094	1.000000	0.770088	7.37576e+06	-54839.1	1055.82	-29742.8	0.000000	0.000000	6.771040	0.033502	NaN	0.000000	0.001713	0.001703	28.0834	0.114229	0.001992	57.3361	90.2402	-165.808	0.052239	0.768767	-0.256677	-0.257998	0.033502	57.3361	-0.257116	-1058.41	-3.165334E-5	NaN
1094	1.000000	0.778114	7.37576e+06	-54839.1	1055.82	-29742.8	0.000000	0.000000	6.779063	-0.026543	NaN	0.000000	0.001672	0.001718	28.0832	0.046022	0.001955	23.5386	38.8443	-165.848	-0.020245	0.776807	-0.248651	-0.249958	-0.026543	23.5386	-0.247806	-760.313	3.491095E-5	NaN
1094	1.000000	0.786120	7.37576e+06	-54839.1	1055.82	-29742.8	0.000000	0.000000	6.787071	0.011123	NaN	0.000000	0.001659	0.001702	28.0832	0.048431	0.002127	22.7697	-160.671	-162	0.053394	0.784789	-0.240646	-0.241976	0.011123	22.7697	-0.241012	-596.146	-1.865859E-5	NaN
1094	1.000000	0.794099	7.37576e+06	-54839.1	1055.82	-29742.8	0.000000	0.000000	6.795050	0.011022	NaN	0.000000	0.001712	0.001749	28.0829	0.038489	0.002098	18.3468	172.784	-164.578	-0.003984	0.792802	-0.232667	-0.233963	0.011022	18.3468	-0.233117	-448.386	-2.458220E-5	NaN
1094	1.000000	0.802113	7.37576e+06	-54839.1	1055.82	-29742.8	0.000000	0.000000	6.803063	-0.014594	NaN	0.000000	0.001720	0.001731	28.0832	0.063269	0.001896	33.3634	40.231	-166.387	0.025362	0.800776	-0.224652	-0.225989	-0.014594	33.3634	-0.224324	-325.536	4.483121E-5	NaN
1094	1.000000	0.810142	7.37576e+06	-54839.1	1055.82	-29742.8	0.000000	0.000000	6.811092	-0.014169	NaN	0.000000	0.001729	0.001780	28.0834	0.060478	0.001938	31.2076	80.5557	-163.069	0.007211	0.808813	-0.216623	-0.217953	-0.014169	31.2076	-0.216283	-242.174	5.850798E-5	NaN
1094	1.000000	0.818103	7.37576e+06	-54839.1	1055.82	-29742.8	0.000000	0.000000	6.819053	-0.007647	NaN	0.000000	0.001763	0.001790	28.083	0.052502	0.002062	25.4609	-137.342	-162.571	-0.056881	0.816821	-0.208663	-0.209944	-0.007647	25.4609	-0.208438	-180.921	4.226528E-5	NaN
1094	1.000000	0.826134	7.37576e+06	-54839.1	1055.82	-29742.8	0.000000	0.000000	6.827081	-0.066770	NaN	0.000000	0.001718	0.001767	28.0833	0.043502	0.002023	21.501	-154.186	-165.153	0.081222	0.824805	-0.200632	-0.201960	-0.066770	21.501	-0.198303	-123.529	0.000541	NaN
1094	1.000000	0.834102	7.37576e+06	-54839.1	1055.82	-29742.8	0.000000	0.000000	6.835051	-0.028829	NaN	0.000000	0.001743	0.001755	28.0831	0.083142	0.001993	41.7195	-116.797	-165.003	-0.007363	0.832842	-0.192664	-0.193924	-0.028829	41.7195	-0.192145	-97.6791	0.000295	NaN
1094	1.000000	0.842126	7.37576e+06	-54839.1	1055.82	-29742.8	0.000000	0.000000	6.843070	-0.162241	NaN	0.000000	0.001730	0.001763	28.0832	0.167705	0.001929	86.9499	13.2686	-166.549	-0.077394	0.840782	-0.184639	-0.185983	-0.162241	86.9499	-0.183240	-69.2494	0.002343	NaN
1094	1.000000	0.850114	7.37576e+06	-54839.1	1055.82	-29742.8	0.000000	0.000000	6.851063	-0.026318	NaN	0.000000	0.001734	0.001770	28.0829	0.138069	0.001990	69.3824	-102.596	-167.355	0.010689	0.848811	-0.176652	-0.177955	-0.026318	69.3824	-0.176367	-52.898	0.000498	NaN
1094	1.000000	0.858128	7.37576e+06	-54839.1	1055.82	-29742.8	0.000000	0.000000	6.859077	-0.017879	NaN	0.000000	0.001674	0.001732	28.0818	0.051106	0.001969	25.9548	35.9534	-164.868	0.070103	0.856845	-0.168638	-0.169921	-0.017879	25.9548	-0.168121	-38.0994	0.000469	NaN
1094	1.000000	0.866138	7.37576e+06	-54839.1	1055.82	-29742.8	0.000000	0.000000	6.867087	-0.032438	NaN	0.000000	0.001692	0.001756	28.0821	0.081293	0.002017	40.3032	42.0473	-166.661	0.055977	0.864786	-0.160627	-0.161979	-0.032438	40.3032	-0.160024	-27.4416	0.001182	NaN
1094	1.000000	0.874143	7.37576e+06	-54839.1	1055.82	-29742.8	0.000000	0.000000	6.875092	-0.027734	NaN	0.000000	0.001678	0.001806	28.0817	0.058120	0.002002	29.0287	-103.511	-165.312	-0.029722	0.872841	-0.152623	-0.153925	-0.027734	29.0287	-0.151906	-19.6193	0.001414	NaN
1094	1.000000	0.882130	7.37576e+06	-54839.1	1055.82	-29742.8	0.000000	0.000000	6.883081	-0.002757	NaN	0.000000	0.001688	0.001755	28.0821	0.005630	0.002086	2.699193	65.3595	-165.475	-0.006187	0.880816	-0.144635	-0.145950	-0.002757	2.699193	-0.143869	-13.9705	0.000197	NaN
1094	1.000000	0.890156	7.37576e+06	-54839.1	1055.82	-29742.8	0.000000	0.000000	6.891105	-0.040908	NaN	0.000000	0.001667	0.001784	28.082	0.089486	0.002020	44.2991	65.9428	-163.383	-0.053062	0.888841	-0.136609	-0.137924	-0.040908	44.2991	-0.135917	-9.902921	0.004131	NaN
1094	1.000000	0.898169	7.37576e+06	-54839.1	1055.82	-29742.8	0.000000	0.000000	6.899120	0.014861	NaN	0.000000	0.001651	0.001749	28.0819	0.098751	0.001947	50.724	79.7546	-164.447	-0.036570	0.896864	-0.128597	-0.129902	0.014861	50.724	-0.128817	-7.227288	-0.002056	NaN
1094	1.000000	0.906173	7.37576e+06	-54839.1	1055.82	-29742.8	0.000000	0.000000	6.907122	-0.031683	NaN	0.000000	0.001663	0.001769	28.0819	0.027964	0.002013	13.8913	138.93	-164.942	0.021783	0.904806	-0.120593	-0.121959	-0.031683	13.8913	-0.118882	-4.586389	0.006908	NaN
1094	1.000000	0.914171	7.37576e+06	-54839.1	1055.82	-29742.8	0.000000	0.000000	6.915119	-0.062665	NaN	0.000000	0.001674	0.001740	28.082	0.016796	0.001969	8.529725	-21.0977	-162.42	-0.008357	0.912818	-0.112595	-0.113948	-0.062665	8.529725	-0.107085	-2.606013	0.024046	NaN
1094	1.000000	0.922163	7.37576e+06	-54839.1	1055.82	-29742.8	0.000000	0.000000	6.923114	0.017666	NaN	0.000000	0.001608	0.001761	28.0823	0.138990	0.002059	67.4898	-69.6713	-165.971	0.010670	0.920903	-0.104602	-0.105863	0.017666	67.4898	-0.104799	-2.327153	-0.007591	NaN
1094	1.000000	0.930152	7.37576e+06	-54839.1	1055.82	-29742.8	0.000000	0.000000	6.931105	0.040735	NaN	0.000000	0.001600	0.001752	28.0821	0.125970	0.002140	58.8749	52.1624	-161.972	0.005078	0.928874	-0.096613	-0.097891	0.040735	58.8749	-0.097132	-1.576531	-0.025839	NaN
1094	1.000000	0.938163	7.37576e+06	-54839.1	1055.82	-29742.8	0.000000	0.000000	6.939113	0.002522	NaN	0.000000	0.001608	0.001734	28.0821	0.106870	0.002035	52.5164	133.541	-164.159	-0.073622	0.936822	-0.088603	-0.089943	0.002522	52.5164	-0.088639	-1.004015	-0.002512	NaN
1094	1.000000	0.946164	7.37576e+06	-54839.1	1055.82	-29742.8	0.000000	0.000000	6.947113	-0.038215	NaN	0.000000	0.001626	0.001749	28.082	0.078608	0.002016	38.986	49.8033	-162.516	0.096900	0.944854	-0.080601	-0.081911	-0.038215	38.986	-0.079866	-0.614238	0.062215	NaN
1094	1.000000	0.954164	7.37576e+06	-54839.1	1055.82	-29742.8	0.000000	0.000000	6.955117	0.045284	NaN	0.000000	0.001677	0.001686	28.082	0.037324	0.001892	19.7284	-110.956	-163.937	0.052889	0.952874	-0.072601	-0.073891	0.045284	19.7284	-0.074323	-0.443560	-0.102092	NaN
1094	1.000000	0.962193	7.37576e+06	-54839.1	1055.82	-29742.8	0.000000	0.000000	6.963142	-0.038572	NaN	0.000000	0.001592	0.001725	28.0821	0.016173	0.001955	8.273070	173.245	-164.738	-0.044468	0.960807	-0.064573	-0.065959	-0.038572	8.273070	-0.061076	-0.193311	0.199534	NaN
1094	1.000000	0.970163	7.37576e+06	-54839.1	1055.82	-29742.8	0.000000	0.000000	6.971114	-0.000235	NaN	0.000000	0.001601	0.001715	28.0819	0.020290	0.001981	10.2421	-163.58	-163.355	-0.027858	0.968879	-0.056602	-0.057887	-0.000235	10.2421	-0.056585	-0.143378	0.001638	NaN
1094	1.000000	0.978177	7.37576e+06	-54839.1	1055.82	-29742.8	0.000000	0.000000	6.979127	0.000933	NaN	0.000000	0.001639	0.001703	28.0823	0.047871	0.001997	23.9719	149.817	-164.763	0.018414	0.976899	-0.048589	-0.049866	0.000933	23.9719	-0.048618	-0.082860	-0.011259	NaN
1094	1.000000	0.986180	7.37576e+06	-54839.1	1055.82	-29742.8	0.000000	0.000000	6.987132	0.027622	NaN	0.000000	0.001655	0.001704	28.0817	0.132747	0.002157	61.5297	-178.395	-164.62	0.024792	0.984863	-0.040585	-0.041903	0.027622	61.5297	-0.040922	-0.048238	-0.572623	NaN
1094	1.000000	0.994197	7.37576e+06	-54839.1	1055.82	-29742.8	0.000000	0.000000	6.995147	-0.016752	NaN	0.000000	0.001670	0.001689	28.083	0.062149	0.002264	27.4466	123.104	-163.54	-0.000151	0.992871	-0.032568	-0.033894	-0.016752	27.4466	-0.032110	-0.026397	0.634618	NaN
1094	1.000000	1.002182	7.37576e+06	-54839.1	1055.82	-29742.8	0.000000	0.000000	7.003133	0.023980	NaN	0.000000	0.001667	0.001706	28.083	0.053503	0.002034	26.2981	-132.457	-167.662	0.041697	1.000915	-0.024584	-0.025850	0.023980	26.2981	-0.025268	-0.017145	-1.398665	NaN
1094	1.000000	1.010196	7.37576e+06	-54839.1	1055.82	-29742.8	0.000000	0.000000	7.011141	-0.129092	NaN	0.000000	0.001619	0.001733	28.0829	0.068015	0.001928	35.285	-121.664	-163.319	-0.173502	1.008885	-0.016570	-0.017881	-0.129092	35.285	-0.013826	-0.008581	15.0434	NaN
1094	1.000000	1.018181	7.37576e+06	-54839.1	1055.82	-29742.8	0.000000	0.000000	7.019128	-0.077807	NaN	0.000000	0.001652	0.001721	28.0834	0.112744	0.001975	57.0825	120.767	-163.576	-0.042113	1.016828	-0.008585	-0.009938	-0.077807	57.0825	-0.007562	-0.004974	15.6419	NaN
1094	1.000000	1.026179	7.37576e+06	-54839.1	1055.82	-29742.8	0.000000	0.000000	7.027207	1.875924	NaN	0.000000	0.001655	0.001731	28.083	2.650389	0.002023	1309.82	11.886	-168.152	0.771135	1.024807	-0.000586	-0.001959	1.875924	1309.82	-0.001661	-0.001203	-1559.92	NaN
1094	2.000000	1.032797	7.37576e+06	-54839.1	1055.82	-29742.8	0.000000	0.000000	7.034052	7.405130	NaN	0.000000	0.001675	0.001778	28.0832	8.510686	0.001673	5086.38	12.1815	-174.692	7.668678	1.032398	0.006031	0.005632	7.405130	5086.38	0.004939	0.004078	1815.92	72771.9
1094	2.000000	1.034789	7.37576e+06	-54839.1	1055.82	-29742.8	0.000000	0.000000	7.036145	9.878350	NaN	0.000000	0.001644	0.001802	28.0829	11.025	0.001762	6255.33	5.278772	-169.297	9.727004	1.034468	0.008023	0.007703	9.878350	6255.33	0.006839	0.005875	1681.46	74563.1
1094	2.000000	1.036748	7.37576e+06	-54839.1	1055.82	-29742.8	0.000000	0.000000	7.038241	13.2038	NaN	0.000000	0.001632	0.001744	28.0828	12.6453	0.001668	7581.31	6.504693	-173.379	12.0842	1.036508	0.009982	0.009743	13.2038	7581.31	0.008676	0.007747	1704.37	78695.7
1094	2.000000	1.038717	7.37576e+06	-54839.1	1055.82	-29742.8	0.000000	0.000000	7.040323	15.9366	NaN	0.000000	0.001663	0.001796	28.0832	15.4776	0.001753	8827.67	8.498074	-176.639	14.5568	1.038420	0.011951	0.011654	15.9366	8827.67	0.010598	0.009853	1617.42	81251.7
1094	2.000000	1.040756	7.37576e+06	-54839.1	1055.82	-29742.8	0.000000	0.000000	7.042493	19.1212	NaN	0.000000	0.001644	0.001737	28.0827	17.4052	0.001840	9458.64	4.411748	-173.048	18.3143	1.040464	0.013991	0.013698	19.1212	9458.64	0.012475	0.012064	1585.02	78679.7
1094	2.000000	1.042735	7.37576e+06	-54839.1	1055.82	-29742.8	0.000000	0.000000	7.044576	21.6467	NaN	0.000000	0.001641	0.001745	28.0832	19.0685	0.001777	10729.2	6.355693	-176.029	21.3332	1.042419	0.015969	0.015654	21.6467	10729.2	0.014456	0.014567	1486.03	81219.2
1094	2.000000	1.044733	7.37576e+06	-54839.1	1055.82	-29742.8	0.000000	0.000000	7.046658	23.6851	NaN	0.000000	0.001659	0.001720	28.083	21.7601	0.001906	11418.5	8.389680	-177.954	22.955	1.044469	0.017968	0.017704	23.6851	11418.5	0.016412	0.017215	1375.84	79511.4
1094	2.000000	1.046708	7.37576e+06	-54839.1	1055.82	-29742.8	0.000000	0.000000	7.048978	32.0743	NaN	0.000000	0.001643	0.001718	28.0829	22.825	0.001692	13490.6	3.790217	-175.769	31.8192	1.046407	0.019942	0.019641	32.0743	13490.6	0.018159	0.019732	1625.5	87744.3
1094	2.000000	1.048632	7.37576e+06	-54839.1	1055.82	-29742.8	0.000000	0.000000	7.051120	37.3755	NaN	0.000000	0.001680	0.001716	28.0833	24.8838	0.001767	14080.6	1.619034	-173.986	33.6205	1.048348	0.021867	0.021582	37.3755	14080.6	0.019876	0.022348	1672.46	86055.1
1094	2.000000	1.050757	7.37576e+06	-54839.1	1055.82	-29742.8	0.000000	0.000000	7.053373	40.4839	NaN	0.000000	0.001673	0.001711	28.083	27.0333	0.001877	14404.2	5.279354	-175.022	41.7017	1.050388	0.023992	0.023623	40.4839	14404.2	0.021884	0.025589	1582.08	82268.7
1094	2.000000	1.052697	7.37576e+06	-54839.1	1055.82	-29742.8	0.000000	0.000000	7.055495	44.912	NaN	0.000000	0.001649	0.001666	28.0835	29.3516	0.001706	17205.8	6.899823	179.802	44.1435	1.052336	0.025932	0.025571	44.912	17205.8	0.023974	0.029176	1539.37	92032.1
1094	2.000000	1.054674	7.37576e+06	-54839.1	1055.82	-29742.8	0.000000	0.000000	7.057801	52.8974	NaN	0.000000	0.001639	0.001753	28.0831	32.0933	0.001915	16758.3	8.005220	178.295	51.9066	1.054377	0.027909	0.027611	52.8974	16758.3	0.025541	0.032008	1652.63	85580.4
1094	2.000000	1.056708	7.37576e+06	-54839.1	1055.82	-29742.8	0.000000	0.000000	7.059852	53.3293	NaN	0.000000	0.001683	0.001713	28.0817	32.44	0.001790	18118	1.905122	-176.155	52.6515	1.056339	0.029943	0.029573	53.3293	18118	0.027735	0.036180	1474.01	87026
1094	2.000000	1.058672	7.37576e+06	-54839.1	1055.82	-29742.8	0.000000	0.000000	7.061912	55.6621	NaN	0.000000	0.001642	0.001718	28.0831	34.4501	0.001797	19166.5	6.481280	179.529	55.234	1.058357	0.031907	0.031592	55.6621	19166.5	0.029729	0.040183	1385.21	87356.3
1094	2.000000	1.060748	7.37576e+06	-54839.1	1055.82	-29742.8	0.000000	0.000000	7.064476	67.5222	NaN	0.000000	0.001641	0.001699	28.0817	36.9777	0.001805	20490.3	8.928387	176.417	70.4766	1.060404	0.033982	0.033638	67.5222	20490.3	0.031511	0.043934	1536.91	89314.7
1094	2.000000	1.062652	7.37576e+06	-54839.1	1055.82	-29742.8	0.000000	0.000000	7.066527	71.1069	NaN	0.000000	0.001625	0.001724	28.0818	38.3435	0.001886	20327.1	6.119810	179.138	70.5398	1.062399	0.035886	0.035633	71.1069	20327.1	0.033263	0.047778	1488.28	84964
1094	2.000000	1.064669	7.37576e+06	-54839.1	1055.82	-29742.8	0.000000	0.000000	7.068791	77.0892	NaN	0.000000	0.001769	0.001694	28.0817	40.1206	0.001590	25230.1	3.483689	177.616	74.8842	1.064397	0.037904	0.037631	77.0892	25230.1	0.035612	0.053181	1449.57	99957.3
1094	2.000000	1.066683	7.37576e+06	-54839.1	1055.82	-29742.8	0.000000	0.000000	7.071058	83.2449	NaN	0.000000	0.001733	0.001732	28.0819	41.5559	0.001778	23365.8	7.221580	176.839	83.1819	1.066324	0.039918	0.039558	83.2449	23365.8	0.037246	0.057105	1457.76	89334.4
1094	2.000000	1.068618	7.37576e+06	-54839.1	1055.82	-29742.8	0.000000	0.000000	7.073467	94.7748	NaN	0.000000	0.001666	0.001742	28.0829	43.9378	0.001798	24443.6	3.165357	179.557	92.074	1.068275	0.041852	0.041509	94.7748	24443.6	0.038944	0.061329	1545.35	90178.9
1094	2.000000	1.070683	7.37576e+06	-54839.1	1055.82	-29742.8	0.000000	0.000000	7.075670	98.1235	NaN	0.000000	0.001689	0.001708	28.0819	46.3582	0.001700	27270.3	7.402613	174.431	97.7602	1.070353	0.043917	0.043588	98.1235	27270.3	0.041219	0.067216	1459.82	96100.7
1094	2.000000	1.072685	7.37576e+06	-54839.1	1055.82	-29742.8	0.000000	0.000000	7.078020	106.582	NaN	0.000000	0.001690	0.001725	28.0819	47.6149	0.001711	27832.4	5.459251	176.238	107.388	1.072334	0.045920	0.045569	106.582	27832.4	0.043048	0.072141	1477.41	94674.2
1094	2.000000	1.074679	7.37576e+06	-54839.1	1055.82	-29742.8	0.000000	0.000000	7.080269	112.778	NaN	0.000000	0.001707	0.001756	28.0819	50.8249	0.001852	27447.6	6.575697	174.908	113.089	1.074373	0.047914	0.047607	112.778	27447.6	0.044832	0.077112	1462.52	90306
1094	2.000000	1.076655	7.37576e+06	-54839.1	1055.82	-29742.8	0.000000	0.000000	7.082426	117.184	NaN	0.000000	0.001706	0.001796	28.0819	50.7574	0.001699	29869.8	-0.820395	-178.582	114.78	1.076413	0.049889	0.049647	117.184	29869.8	0.046947	0.083211	1408.28	94605.3
1094	2.000000	1.078581	7.37576e+06	-54839.1	1055.82	-29742.8	0.000000	0.000000	7.085019	133.419	NaN	0.000000	0.001714	0.001769	28.0824	52.92	0.001791	29554.1	3.058453	177.881	129.276	1.078316	0.051815	0.051550	133.419	29554.1	0.048430	0.087621	1522.69	91219.5
1094	2.000000	1.080742	7.37576e+06	-54839.1	1055.82	-29742.8	0.000000	0.000000	7.087564	142.75	NaN	0.000000	0.001685	0.001737	28.0819	56.0977	0.001645	34097.2	7.047250	173.062	145.512	1.080353	0.053976	0.053588	142.75	34097.2	0.050836	0.095016	1502.38	101063
1094	2.000000	1.082652	7.37576e+06	-54839.1	1055.82	-29742.8	0.000000	0.000000	7.090073	157.292	NaN	0.000000	0.001701	0.001726	28.082	57.5775	0.001754	32817.2	8.421453	171.869	158.158	1.082289	0.055887	0.055524	157.292	32817.2	0.052292	0.099630	1578.76	94990.6
1094	2.000000	1.084608	7.37576e+06	-54839.1	1055.82	-29742.8	0.000000	0.000000	7.092361	165.379	NaN	0.000000	0.001718	0.001760	28.0819	58.9917	0.001626	36271.8	2.805875	176.366	161.771	1.084257	0.057842	0.057491	165.379	36271.8	0.054422	0.106571	1551.81	101513
1094	2.000000	1.086635	7.37576e+06	-54839.1	1055.82	-29742.8	0.000000	0.000000	7.094974	179.612	NaN	0.000000	0.001657	0.001767	28.082	60.2075	0.001708	35245.6	7.574920	172.456	178.843	1.086172	0.059870	0.059407	179.612	35245.6	0.056048	0.112019	1603.4	96212.4
1094	2.000000	1.088613	7.37576e+06	-54839.1	1055.82	-29742.8	0.000000	0.000000	7.097256	187.013	NaN	0.000000	0.001640	0.001714	28.082	64.6964	0.001848	35015.9	7.041727	172.546	185.224	1.088276	0.061848	0.061510	187.013	35015.9	0.057842	0.118184	1582.39	93059.3
1094	2.000000	1.090707	7.37576e+06	-54839.1	1055.82	-29742.8	0.000000	0.000000	7.099631	193.839	NaN	0.000000	0.001680	0.001721	28.0833	66.3349	0.001793	37005.9	5.987870	172.892	195.982	1.090316	0.063941	0.063551	193.839	37005.9	0.060013	0.125853	1540.2	95304.3
1094	2.000000	1.092581	7.37576e+06	-54839.1	1055.82	-29742.8	0.000000	0.000000	7.101968	205.097	NaN	0.000000	0.001577	0.001762	28.0831	66.8912	0.001740	38450.7	4.788536	174.309	201.183	1.092307	0.065815	0.065541	205.097	38450.7	0.061815	0.132396	1549.11	96547.1
1094	2.000000	1.094682	7.37576e+06	-54839.1	1055.82	-29742.8	0.000000	0.000000	7.104669	219.662	NaN	0.000000	0.001649	0.001782	28.0833	70.316	0.001700	41369.6	2.611119	175.47	220.034	1.094331	0.067917	0.067565	219.662	41369.6	0.063934	0.140294	1565.73	100910
1094	2.000000	1.096640	7.37576e+06	-54839.1	1055.82	-29742.8	0.000000	0.000000	7.106826	224.532	NaN	0.000000	0.001650	0.001760	28.0833	71.557	0.001722	41547.2	4.683601	172.94	222.802	1.096388	0.069874	0.069623	224.532	41547.2	0.065821	0.147505	1522.2	98835.2
1094	2.000000	1.098705	7.37576e+06	-54839.1	1055.82	-29742.8	0.000000	0.000000	7.109772	245.925	NaN	0.000000	0.001684	0.001725	28.0831	74.1968	0.001764	42068.9	6.077577	172.347	247.993	1.098311	0.071939	0.071545	245.925	42068.9	0.067555	0.154285	1593.97	97852.6
1094	2.000000	1.100647	7.37576e+06	-54839.1	1055.82	-29742.8	0.000000	0.000000	7.112146	256.439	NaN	0.000000	0.001690	0.001742	28.0833	75.0066	0.001659	45220.6	1.713838	175.725	253.365	1.100335	0.073882	0.073570	256.439	45220.6	0.069628	0.162580	1577.31	102465
1094	2.000000	1.102576	7.37576e+06	-54839.1	1055.82	-29742.8	0.000000	0.000000	7.114803	274.144	NaN	0.000000	0.001657	0.001743	28.0833	77.3773	0.001802	42934.2	5.177948	172.64	270.144	1.102238	0.075810	0.075473	274.144	42934.2	0.071021	0.168267	1629.22	95626.2
1094	2.000000	1.104621	7.37576e+06	-54839.1	1055.82	-29742.8	0.000000	0.000000	7.117163	281.787	NaN	0.000000	0.001712	0.001775	28.0833	80.1343	0.001788	44814.8	3.043882	174.172	282.394	1.104303	0.077856	0.077538	281.787	44814.8	0.073140	0.177096	1591.16	97295.2
1094	2.000000	1.106604	7.37576e+06	-54839.1	1055.82	-29742.8	0.000000	0.000000	7.119829	298.377	NaN	0.000000	0.001687	0.001779	28.0831	82.0017	0.001879	43652	5.630282	171.394	297.33	1.106336	0.079839	0.079571	298.377	43652	0.074712	0.183784	1623.52	93030.3
1094	2.000000	1.108562	7.37576e+06	-54839.1	1055.82	-29742.8	0.000000	0.000000	7.122044	304.647	NaN	0.000000	0.001674	0.001678	28.0832	83.8252	0.001895	44238.8	3.455703	173.689	301.21	1.108269	0.081796	0.081504	304.647	44238.8	0.076632	0.192105	1585.83	92216
1094	2.000000	1.110631	7.37576e+06	-54839.1	1055.82	-29742.8	0.000000	0.000000	7.125247	332.218	NaN	0.000000	0.001690	0.001720	28.0833	86.0172	0.001852	46441.4	5.832826	171.343	332.797	1.110203	0.083866	0.083438	332.218	46441.4	0.078500	0.200375	1657.98	94788.7
1094	2.000000	1.112598	7.37576e+06	-54839.1	1055.82	-29742.8	0.000000	0.000000	7.127618	342.031	NaN	0.000000	0.001702	0.001694	28.0838	85.6313	0.001753	48848.2	5.212906	172.242	341.014	1.112234	0.085832	0.085469	342.031	48848.2	0.080581	0.209772	1630.49	97442.4
1094	2.000000	1.114541	7.37576e+06	-54839.1	1055.82	-29742.8	0.000000	0.000000	7.130230	358.302	NaN	0.000000	0.001676	0.001722	28.0833	89.0473	0.001667	53432.7	6.386211	169.567	353.292	1.114167	0.087775	0.087402	358.302	53432.7	0.082746	0.219767	1630.37	104136
1094	2.000000	1.116445	7.37576e+06	-54839.1	1055.82	-29742.8	0.000000	0.000000	7.132318	362.756	NaN	0.000000	0.001706	0.001726	28.0831	89.1928	0.001788	49873.9	2.737655	173.445	353.387	1.116231	0.089680	0.089465	362.756	49873.9	0.084225	0.226717	1600.04	95698.3
1094	2.000000	1.118562	7.37576e+06	-54839.1	1055.82	-29742.8	0.000000	0.000000	7.135225	381.963	NaN	0.000000	0.001736	0.001717	28.0832	92.7638	0.001745	53157.2	6.377663	169.349	378.854	1.118162	0.091797	0.091396	381.963	53157.2	0.086408	0.237163	1610.55	99726.8
1094	2.000000	1.120660	7.37576e+06	-54839.1	1055.82	-29742.8	0.000000	0.000000	7.138102	400.906	NaN	0.000000	0.001702	0.001750	28.0833	94.653	0.001761	53755.9	7.245279	168.878	402.797	1.120321	0.093895	0.093555	400.906	53755.9	0.088301	0.246401	1627.04	98941.4
1094	2.000000	1.122617	7.37576e+06	-54839.1	1055.82	-29742.8	0.000000	0.000000	7.140515	411.996	NaN	0.000000	0.001710	0.001745	28.0833	96.1365	0.001819	52851	4.468145	171.005	410.729	1.122384	0.095851	0.095618	411.996	52851	0.090005	0.254854	1616.6	95649
1094	2.000000	1.124573	7.37576e+06	-54839.1	1055.82	-29742.8	0.000000	0.000000	7.143445	435.652	NaN	0.000000	0.001706	0.001750	28.082	99.0158	0.001778	55693.5	6.865958	168.261	431.61	1.124230	0.097808	0.097465	435.652	55693.5	0.091941	0.264622	1646.32	98915.5
1094	2.000000	1.126546	7.37576e+06	-54839.1	1055.82	-29742.8	0.000000	0.000000	7.146277	456.559	NaN	0.000000	0.001713	0.001741	28.0819	98.8393	0.001753	56393.5	5.820247	170.078	454.308	1.126182	0.099781	0.099417	456.559	56393.5	0.093709	0.273689	1668.17	98485.7
1094	2.000000	1.128591	7.37576e+06	-54839.1	1055.82	-29742.8	0.000000	0.000000	7.148883	470.211	NaN	0.000000	0.001677	0.001710	28.0818	103.533	0.001808	57270.9	4.482884	171.247	469.559	1.128253	0.101825	0.101487	470.211	57270.9	0.095667	0.283904	1656.24	98202.3
1094	2.000000	1.130705	7.37576e+06	-54839.1	1055.82	-29742.8	0.000000	0.000000	7.151445	481.08	NaN	0.000000	0.001657	0.001737	28.0821	105.81	0.001765	59934.3	4.746010	170.191	485.373	1.130276	0.103939	0.103510	481.08	59934.3	0.097919	0.295863	1626.02	100671