File: remote_trans/data/nanoindenter/0828-1/data/Data_2025-08-06,11h17m57s/2025-07-22_16-23-58_1_404.txt
2025-07-22, 16:23:58, 1
Index	Phase	Displacement	Time	Pos X	Pos Y	Pos Z	Rot A	Rot B	Piezo Z	Force A	Force B	Gripper	Voltage A	Voltage B	Temperature	Amplitude force	Amplitude pos	Stiffness	Phase shift	Phase excitation	Force A raw	Displacement raw	HMax	HMax raw	Real Force	Real Stiffness	Contact Depth	Area	Hardness	Reduced Mod.
[#]	[#]	[um]	[s]	[um]	[um]	[um]	[m°]	[m°]	[um]	[uN]	[uN]	[V]	[V]	[V]	[°C]	[uN]	[um]	[N/m]	[°]	[°]	[uN]	[um]	[um]	[um]	[uN]	[N/m]	[um]	[um^2]	[MPa]	[MPa]
404	1.000000	0.002021	7.36901e+06	-56889.1	1005.82	-29738	0.000000	0.000000	6.002816	0.026362	NaN	0.000000	0.001601	0.001680	28.0806	0.202560	0.000920	220.204	-0.069010	-162.496	0.010523	0.000770	-1.160499	-1.161750	0.026362	220.204	-1.160589	-3.256596E+15	-8.095079E-18	NaN
404	1.000000	0.012073	7.36901e+06	-56889.1	1005.82	-29738	0.000000	0.000000	6.012867	0.004055	NaN	0.000000	0.001607	0.001682	28.0805	0.065795	0.001244	52.8742	22.0166	19.9934	-0.007807	0.010679	-1.150447	-1.151842	0.004055	52.8742	-1.150505	-2.385539E+15	-1.699619E-18	NaN
404	1.000000	0.021927	7.36901e+06	-56889.1	1005.82	-29738	0.000000	0.000000	6.022721	-0.006021	NaN	0.000000	0.001640	0.001690	28.0803	0.119444	0.001609	74.2118	-81.0316	-166.044	0.014604	0.020649	-1.140593	-1.141871	-0.006021	74.2118	-1.140532	-1.753383E+15	3.433913E-18	NaN
404	1.000000	0.031964	7.36901e+06	-56889.1	1005.82	-29738	0.000000	0.000000	6.032757	-0.027029	NaN	0.000000	0.001651	0.001687	28.0802	0.058525	0.001846	31.7043	-163.675	14.7851	-0.136377	0.030586	-1.130557	-1.131934	-0.027029	31.7043	-1.129917	-1.263319E+15	2.139514E-17	NaN
404	1.000000	0.041964	7.36901e+06	-56889.1	1005.82	-29738	0.000000	0.000000	6.042759	0.012398	NaN	0.000000	0.001649	0.001704	28.0804	0.091670	0.001977	46.3724	-80.4273	-166.72	0.033340	0.040629	-1.120556	-1.121892	0.012398	46.3724	-1.120756	-9.519664E+14	-1.302375E-17	NaN
404	1.000000	0.051974	7.36901e+06	-56889.1	1005.82	-29738	0.000000	0.000000	6.052767	-0.037806	NaN	0.000000	0.001650	0.001696	28.0803	0.056174	0.001997	28.1304	128.369	11.677	0.007293	0.050614	-1.110546	-1.111907	-0.037806	28.1304	-1.109538	-6.731100E+14	5.616662E-17	NaN
404	1.000000	0.061964	7.36901e+06	-56889.1	1005.82	-29738	0.000000	0.000000	6.062753	-0.111161	NaN	0.000000	0.001637	0.001708	28.0806	0.081485	0.001942	41.9685	146.87	-165.317	-0.103700	0.060663	-1.100557	-1.101858	-0.111161	41.9685	-1.098570	-4.795931E+14	2.317827E-16	NaN
404	1.000000	0.071972	7.36901e+06	-56889.1	1005.82	-29738	0.000000	0.000000	6.072765	-0.024834	NaN	0.000000	0.001638	0.001704	28.0804	0.033781	0.002116	15.9665	-7.223944	15.8771	0.042409	0.070615	-1.090549	-1.091905	-0.024834	15.9665	-1.089382	-3.610056E+14	6.878988E-17	NaN
404	1.000000	0.081945	7.36901e+06	-56889.1	1005.82	-29738	0.000000	0.000000	6.082738	-0.043953	NaN	0.000000	0.001635	0.001677	28.0805	0.031756	0.001922	16.5205	-20.7136	-163.786	-0.039095	0.080651	-1.080575	-1.081870	-0.043953	16.5205	-1.078580	-2.584901E+14	1.700391E-16	NaN
404	1.000000	0.091947	7.36901e+06	-56889.1	1005.82	-29738	0.000000	0.000000	6.092740	-0.007686	NaN	0.000000	0.001653	0.001706	28.0813	0.027139	0.002070	13.11	-14.8012	12.1153	0.011950	0.090592	-1.070574	-1.071928	-0.007686	13.11	-1.070134	-1.990631E+14	3.861042E-17	NaN
404	1.000000	0.101976	7.36901e+06	-56889.1	1005.82	-29738	0.000000	0.000000	6.102770	-0.018043	NaN	0.000000	0.001670	0.001733	28.0814	0.017391	0.002065	8.422088	77.4204	-165.751	0.057145	0.100609	-1.060544	-1.061911	-0.018043	8.422088	-1.058937	-1.407797E+14	1.281681E-16	NaN
404	1.000000	0.111981	7.36901e+06	-56889.1	1005.82	-29738	0.000000	0.000000	6.112774	-0.038393	NaN	0.000000	0.001561	0.001733	28.0814	0.138139	0.001903	72.5953	164.816	12.7799	0.012784	0.110613	-1.050539	-1.051907	-0.038393	72.5953	-1.050143	-1.072339E+14	3.580304E-16	NaN
404	1.000000	0.122015	7.36901e+06	-56889.1	1005.82	-29738	0.000000	0.000000	6.122809	0.005936	NaN	0.000000	0.001551	0.001736	28.0816	0.093698	0.002246	41.7201	84.9854	-164.868	-0.008335	0.120689	-1.040505	-1.041832	0.005936	41.7201	-1.040612	-7.983595E+13	-7.434732E-17	NaN
404	1.000000	0.131981	7.36901e+06	-56889.1	1005.82	-29738	0.000000	0.000000	6.132774	-0.021928	NaN	0.000000	0.001592	0.001738	28.0815	0.012553	0.002104	5.966842	73.0836	17.3201	-0.024876	0.130651	-1.030539	-1.031870	-0.021928	5.966842	-1.027783	-5.366113E+13	4.086392E-16	NaN
404	1.000000	0.141986	7.36901e+06	-56889.1	1005.82	-29738	0.000000	0.000000	6.142780	0.007140	NaN	0.000000	0.001588	0.001701	28.0815	0.056863	0.001961	28.9966	75.5082	-164.907	0.041732	0.140644	-1.020534	-1.021876	0.007140	28.9966	-1.020719	-4.311494E+13	-1.656001E-16	NaN
404	1.000000	0.151988	7.36901e+06	-56889.1	1005.82	-29738	0.000000	0.000000	6.152782	0.009166	NaN	0.000000	0.001612	0.001715	28.0816	0.040913	0.001983	20.63	7.501409	15.2625	-0.011192	0.150579	-1.010533	-1.011941	0.009166	20.63	-1.010866	-3.177133E+13	-2.885107E-16	NaN
404	1.000000	0.161987	7.36901e+06	-56889.1	1005.82	-29738	0.000000	0.000000	6.162782	0.019196	NaN	0.000000	0.001604	0.001703	28.0816	0.058665	0.002047	28.6549	47.9476	-165.572	0.000679	0.160694	-1.000533	-1.001827	0.019196	28.6549	-1.001036	-2.342689E+13	-8.193867E-16	NaN
404	1.000000	0.171978	7.36901e+06	-56889.1	1005.82	-29738	0.000000	0.000000	6.172772	0.006427	NaN	0.000000	0.001598	0.001696	28.0814	0.076240	0.001960	38.8943	-174.897	12.9434	-0.059122	0.170613	-0.990542	-0.991908	0.006427	38.8943	-0.990666	-1.698582E+13	-3.783574E-16	NaN
404	1.000000	0.182004	7.36901e+06	-56889.1	1005.82	-29738	0.000000	0.000000	6.182799	0.023574	NaN	0.000000	0.001601	0.001715	28.0817	0.028059	0.001989	14.1085	-163.726	-167.715	0.011973	0.180639	-0.980516	-0.981881	0.023574	14.1085	-0.981769	-1.288986E+13	-1.828910E-15	NaN
404	1.000000	0.192016	7.36901e+06	-56889.1	1005.82	-29738	0.000000	0.000000	6.192809	-0.026422	NaN	0.000000	0.001597	0.001720	28.0815	0.022296	0.001985	11.2312	-110.418	13.9785	-0.049691	0.190666	-0.970504	-0.971855	-0.026422	11.2312	-0.968740	-8.603587E+12	3.070987E-15	NaN
404	1.000000	0.202045	7.36901e+06	-56889.1	1005.82	-29738	0.000000	0.000000	6.202839	-0.011973	NaN	0.000000	0.001562	0.001733	28.0814	0.070790	0.001967	35.9979	-60.1093	-163.504	0.044262	0.200713	-0.960475	-0.961807	-0.011973	35.9979	-0.960226	-6.605631E+12	1.812560E-15	NaN
404	1.000000	0.212023	7.36901e+06	-56889.1	1005.82	-29738	0.000000	0.000000	6.212815	-0.050051	NaN	0.000000	0.001610	0.001705	28.0813	0.051795	0.001874	27.6463	132.663	15.0074	0.060491	0.210720	-0.950498	-0.951801	-0.050051	27.6463	-0.949140	-4.681962E+12	1.069026E-14	NaN
404	1.000000	0.222041	7.36901e+06	-56889.1	1005.82	-29738	0.000000	0.000000	6.222834	-0.037614	NaN	0.000000	0.001638	0.001664	28.0804	0.041142	0.001918	21.4513	163.362	-166.798	0.016009	0.220760	-0.940479	-0.941760	-0.037614	21.4513	-0.939164	-3.434491E+12	1.095181E-14	NaN
404	1.000000	0.232032	7.36901e+06	-56889.1	1005.82	-29738	0.000000	0.000000	6.232826	-0.007504	NaN	0.000000	0.001602	0.001675	28.08	0.010805	0.002017	5.358137	-175.906	15.8609	0.032088	0.230648	-0.930488	-0.931872	-0.007504	5.358137	-0.929437	-2.538664E+12	2.955960E-15	NaN
404	1.000000	0.242042	7.36901e+06	-56889.1	1005.82	-29738	0.000000	0.000000	6.242832	-0.107829	NaN	0.000000	0.001611	0.001703	28.0802	0.032197	0.001905	16.899	42.6256	-161.967	-0.057384	0.240675	-0.920478	-0.921845	-0.107829	16.899	-0.915692	-1.655920E+12	6.511742E-14	NaN
404	1.000000	0.252053	7.36901e+06	-56889.1	1005.82	-29738	0.000000	0.000000	6.252847	-0.010941	NaN	0.000000	0.001569	0.001678	28.0801	0.112784	0.001837	61.4034	133.303	14.1512	-0.066850	0.250721	-0.910467	-0.911799	-0.010941	61.4034	-0.910334	-1.401749E+12	7.805181E-15	NaN
404	1.000000	0.262029	7.36901e+06	-56889.1	1005.82	-29738	0.000000	0.000000	6.262826	0.056759	NaN	0.000000	0.001562	0.001694	28.0811	0.099535	0.001904	52.283	-129.483	-165.578	0.070249	0.260723	-0.900491	-0.901797	0.056759	52.283	-0.901305	-1.058532E+12	-5.362072E-14	NaN
404	1.000000	0.272047	7.36901e+06	-56889.1	1005.82	-29738	0.000000	0.000000	6.272841	0.002110	NaN	0.000000	0.001611	0.001663	28.0804	0.084525	0.002132	39.6408	93.7007	16.4946	-0.030943	0.270687	-0.890474	-0.891833	0.002110	39.6408	-0.890514	-7.565843E+11	-2.788777E-15	NaN
404	1.000000	0.282043	7.36901e+06	-56889.1	1005.82	-29738	0.000000	0.000000	6.282837	-0.008646	NaN	0.000000	0.001627	0.001666	28.0802	0.044140	0.001938	22.7743	-43.9593	-164.057	-0.023987	0.280764	-0.880477	-0.881757	-0.008646	22.7743	-0.880193	-5.486748E+11	1.575721E-14	NaN
404	1.000000	0.292046	7.36901e+06	-56889.1	1005.82	-29738	0.000000	0.000000	6.292840	-0.006549	NaN	0.000000	0.001616	0.001674	28.0804	0.032655	0.001969	16.5885	175.356	16.3667	-0.020418	0.290669	-0.870474	-0.871851	-0.006549	16.5885	-0.870178	-4.016504E+11	1.630512E-14	NaN
404	1.000000	0.302063	7.36901e+06	-56889.1	1005.82	-29738	0.000000	0.000000	6.302859	0.021570	NaN	0.000000	0.001617	0.001741	28.0806	0.107094	0.001988	53.8616	28.0871	-165.535	0.051285	0.300761	-0.860457	-0.861759	0.021570	53.8616	-0.860757	-2.994814E+11	-7.202405E-14	NaN
404	1.000000	0.312060	7.36901e+06	-56889.1	1005.82	-29738	0.000000	0.000000	6.312851	-0.067657	NaN	0.000000	0.001629	0.001708	28.0804	0.097957	0.001885	51.9599	-89.5041	15.5997	-0.091575	0.310687	-0.850461	-0.851833	-0.067657	51.9599	-0.849484	-2.107428E+11	3.210409E-13	NaN
404	1.000000	0.322071	7.36901e+06	-56889.1	1005.82	-29738	0.000000	0.000000	6.322865	0.006149	NaN	0.000000	0.001601	0.001691	28.0805	0.072363	0.001977	36.6005	-86.3662	-164.967	-0.026026	0.320787	-0.840450	-0.841733	0.006149	36.6005	-0.840576	-1.596219E+11	-3.852187E-14	NaN
404	1.000000	0.332081	7.36901e+06	-56889.1	1005.82	-29738	0.000000	0.000000	6.332874	-0.031046	NaN	0.000000	0.001630	0.001683	28.0806	0.055627	0.001983	28.0465	-74.1934	17.1546	-0.044794	0.330753	-0.830439	-0.831767	-0.031046	28.0465	-0.829609	-1.133660E+11	2.738561E-13	NaN
404	1.000000	0.342094	7.36901e+06	-56889.1	1005.82	-29738	0.000000	0.000000	6.342888	-0.002444	NaN	0.000000	0.001617	0.001665	28.0806	0.048722	0.002153	22.6311	169.135	-166.166	-0.007217	0.340785	-0.820426	-0.821735	-0.002444	22.6311	-0.820345	-8.489743E+10	2.878814E-14	NaN
404	1.000000	0.352082	7.36901e+06	-56889.1	1005.82	-29738	0.000000	0.000000	6.352876	-0.003767	NaN	0.000000	0.001595	0.001688	28.0805	0.061279	0.002044	29.9739	175.135	14.2555	-0.026906	0.350767	-0.810439	-0.811753	-0.003767	29.9739	-0.810344	-6.212191E+10	6.063392E-14	NaN
404	1.000000	0.362114	7.36901e+06	-56889.1	1005.82	-29738	0.000000	0.000000	6.362907	-0.030817	NaN	0.000000	0.001598	0.001648	28.0816	0.051834	0.001850	28.0233	-87.4627	-163.68	-0.039067	0.360790	-0.800406	-0.801730	-0.030817	28.0233	-0.799582	-4.437967E+10	6.943901E-13	NaN
404	1.000000	0.372064	7.36901e+06	-56889.1	1005.82	-29738	0.000000	0.000000	6.372858	0.001573	NaN	0.000000	0.001656	0.001698	28.0813	0.029110	0.002041	14.2649	-39.2886	13.4524	-0.097958	0.370756	-0.790456	-0.791764	0.001573	14.2649	-0.790539	-3.345045E+10	-4.702742E-14	NaN
404	1.000000	0.382087	7.36901e+06	-56889.1	1005.82	-29738	0.000000	0.000000	6.382880	-0.039447	NaN	0.000000	0.001647	0.001677	28.0816	0.123315	0.001995	61.8136	142.725	-164.707	-0.003840	0.380756	-0.780433	-0.781764	-0.039447	61.8136	-0.779955	-2.402243E+10	1.642080E-12	NaN
404	1.000000	0.392090	7.36901e+06	-56889.1	1005.82	-29738	0.000000	0.000000	6.392882	-0.042556	NaN	0.000000	0.001635	0.001676	28.0817	0.024727	0.002122	11.6521	44.1208	12.8963	-0.047181	0.390798	-0.770431	-0.771722	-0.042556	11.6521	-0.767691	-1.636499E+10	2.600426E-12	NaN
404	1.000000	0.402071	7.36901e+06	-56889.1	1005.82	-29738	0.000000	0.000000	6.402865	-0.006209	NaN	0.000000	0.001604	0.001667	28.0816	0.043079	0.001997	21.5682	-179.151	-164.573	-0.059559	0.400754	-0.760449	-0.761766	-0.006209	21.5682	-0.760234	-1.295626E+10	4.792328E-13	NaN
404	1.000000	0.412103	7.36901e+06	-56889.1	1005.82	-29738	0.000000	0.000000	6.412898	0.012208	NaN	0.000000	0.001674	0.001694	28.0821	0.021653	0.001975	10.9638	-176.086	16.4958	-0.020221	0.410777	-0.750417	-0.751743	0.012208	10.9638	-0.751252	-9.778365E+9	-1.248472E-12	NaN
404	1.000000	0.422122	7.36901e+06	-56889.1	1005.82	-29738	0.000000	0.000000	6.422915	-0.050894	NaN	0.000000	0.001692	0.001745	28.0816	0.051622	0.002031	25.4159	74.8343	-167.005	-0.053248	0.420772	-0.740398	-0.741748	-0.050894	25.4159	-0.738896	-6.637709E+9	7.667437E-12	NaN
404	1.000000	0.432132	7.36901e+06	-56889.1	1005.82	-29738	0.000000	0.000000	6.432928	0.046559	NaN	0.000000	0.001621	0.001730	28.0819	0.024049	0.001943	12.3767	97.3861	14.7104	0.012790	0.430787	-0.730388	-0.731733	0.046559	12.3767	-0.733209	-5.553218E+9	-8.384062E-12	NaN
404	1.000000	0.442113	7.36901e+06	-56889.1	1005.82	-29738	0.000000	0.000000	6.442907	-0.007367	NaN	0.000000	0.001617	0.001748	28.0817	0.138680	0.002083	66.5896	-17.761	-164.222	-0.037181	0.440838	-0.720407	-0.721682	-0.007367	66.5896	-0.720324	-3.705916E+9	1.987912E-12	NaN
404	1.000000	0.452142	7.36901e+06	-56889.1	1005.82	-29738	0.000000	0.000000	6.452937	0.036382	NaN	0.000000	0.001585	0.001743	28.082	0.074445	0.001978	37.6365	97.193	18.4729	0.086511	0.450781	-0.710379	-0.711739	0.036382	37.6365	-0.711104	-2.774031E+9	-1.311515E-11	NaN
404	1.000000	0.462112	7.36901e+06	-56889.1	1005.82	-29738	0.000000	0.000000	6.462905	-0.040914	NaN	0.000000	0.001610	0.001751	28.0815	0.073067	0.002091	34.9461	2.272812	-163.051	0.005924	0.460784	-0.700408	-0.701737	-0.040914	34.9461	-0.699530	-1.928035E+9	2.122059E-11	NaN
404	1.000000	0.472137	7.36901e+06	-56889.1	1005.82	-29738	0.000000	0.000000	6.472929	-0.035882	NaN	0.000000	0.001641	0.001732	28.0818	0.113796	0.002060	55.2425	-44.1833	14.2545	-0.015878	0.470727	-0.690384	-0.691794	-0.035882	55.2425	-0.689897	-1.423981E+9	2.519807E-11	NaN
404	1.000000	0.482133	7.36901e+06	-56889.1	1005.82	-29738	0.000000	0.000000	6.482925	-0.046167	NaN	0.000000	0.001591	0.001732	28.0818	0.086175	0.001770	48.7002	-140.555	-164.565	-0.013560	0.480839	-0.680388	-0.681681	-0.046167	48.7002	-0.679677	-1.032245E+9	4.472517E-11	NaN
404	1.000000	0.492137	7.36901e+06	-56889.1	1005.82	-29738	0.000000	0.000000	6.492932	0.014411	NaN	0.000000	0.001615	0.001689	28.0815	0.006785	0.001948	3.483932	53.8526	11.9563	0.085478	0.490741	-0.670383	-0.671779	0.014411	3.483932	-0.673486	-8.493621E+8	-1.696712E-11	NaN
404	1.000000	0.502097	7.36901e+06	-56889.1	1005.82	-29738	0.000000	0.000000	6.502891	-0.000133	NaN	0.000000	0.001612	0.001714	28.0802	0.055618	0.002053	27.0861	-114.827	-166.03	-0.013594	0.500813	-0.660423	-0.661707	-0.000133	27.0861	-0.660419	-5.626180E+8	2.356749E-13	NaN
404	1.000000	0.512131	7.36901e+06	-56889.1	1005.82	-29738	0.000000	0.000000	6.512925	0.005480	NaN	0.000000	0.001638	0.001747	28.0803	0.064765	0.001979	32.7256	90.9826	14.9711	0.045843	0.510822	-0.650390	-0.651698	0.005480	32.7256	-0.650515	-4.116236E+8	-1.331259E-11	NaN
404	1.000000	0.522158	7.36901e+06	-56889.1	1005.82	-29738	0.000000	0.000000	6.522952	-0.019892	NaN	0.000000	0.001643	0.001719	28.0805	0.109595	0.001983	55.2698	20.9842	-163.898	0.029476	0.520850	-0.640362	-0.641670	-0.019892	55.2698	-0.640092	-2.961779E+8	6.716280E-11	NaN
404	1.000000	0.532126	7.36901e+06	-56889.1	1005.82	-29738	0.000000	0.000000	6.532919	-0.022831	NaN	0.000000	0.001692	0.001713	28.0805	0.048952	0.002046	23.9266	-176.161	15.5203	0.032967	0.530774	-0.630395	-0.631746	-0.022831	23.9266	-0.629679	-2.131162E+8	1.071304E-10	NaN
404	1.000000	0.542188	7.36901e+06	-56889.1	1005.82	-29738	0.000000	0.000000	6.542982	-0.006735	NaN	0.000000	0.001671	0.001745	28.0803	0.044255	0.001891	23.4045	-161.211	-164.782	-0.007295	0.540850	-0.620333	-0.621670	-0.006735	23.4045	-0.620117	-1.574844E+8	4.276439E-11	NaN
404	1.000000	0.552156	7.36901e+06	-56889.1	1005.82	-29738	0.000000	0.000000	6.552949	-0.011524	NaN	0.000000	0.001632	0.001714	28.0804	0.095406	0.001915	49.8142	161.639	13.0021	-0.026892	0.550748	-0.610365	-0.611772	-0.011524	49.8142	-0.610191	-1.150121E+8	1.002008E-10	NaN
404	1.000000	0.562174	7.36901e+06	-56889.1	1005.82	-29738	0.000000	0.000000	6.562965	-0.070865	NaN	0.000000	0.001635	0.001764	28.0805	0.060874	0.002044	29.7768	-124.617	-166.173	-0.039791	0.560869	-0.600347	-0.601652	-0.070865	29.7768	-0.598562	-7.955179E+7	8.908040E-10	NaN
404	1.000000	0.572161	7.36901e+06	-56889.1	1005.82	-29738	0.000000	0.000000	6.572954	-0.027012	NaN	0.000000	0.001634	0.001751	28.0805	0.045711	0.002002	22.8298	-102.419	16.9563	-0.023585	0.570872	-0.590359	-0.591649	-0.027012	22.8298	-0.589472	-5.961897E+7	4.530749E-10	NaN
404	1.000000	0.582182	7.36901e+06	-56889.1	1005.82	-29738	0.000000	0.000000	6.582975	-0.017153	NaN	0.000000	0.001631	0.001729	28.0802	0.038195	0.002147	17.7904	32.9699	-167.187	-0.043986	0.580863	-0.580339	-0.581657	-0.017153	17.7904	-0.579615	-4.359308E+7	3.934886E-10	NaN
404	1.000000	0.592176	7.36901e+06	-56889.1	1005.82	-29738	0.000000	0.000000	6.592975	0.116772	NaN	0.000000	0.001646	0.001728	28.0807	0.026865	0.002007	13.3838	144.774	19.3131	0.094068	0.590929	-0.570345	-0.571591	0.116772	13.3838	-0.576888	-3.997348E+7	-2.921241E-9	NaN
404	1.000000	0.602201	7.36901e+06	-56889.1	1005.82	-29738	0.000000	0.000000	6.602993	-0.046731	NaN	0.000000	0.001614	0.001719	28.0804	0.108168	0.002079	52.0239	-11.3826	-164.545	-0.061196	0.600822	-0.560320	-0.561699	-0.046731	52.0239	-0.559646	-2.309307E+7	2.023575E-9	NaN
404	1.000000	0.612192	7.36901e+06	-56889.1	1005.82	-29738	0.000000	0.000000	6.612985	-0.038999	NaN	0.000000	0.001639	0.001718	28.0807	0.019856	0.002029	9.784587	106.625	13.2745	-0.043207	0.610813	-0.550328	-0.551707	-0.038999	9.784587	-0.547339	-1.559877E+7	2.500154E-9	NaN
404	1.000000	0.622169	7.36901e+06	-56889.1	1005.82	-29738	0.000000	0.000000	6.622962	-0.036070	NaN	0.000000	0.001633	0.001689	28.0805	0.052664	0.002008	26.2315	-76.1973	-165.843	-0.095718	0.620909	-0.540351	-0.541611	-0.036070	26.2315	-0.539320	-1.207617E+7	2.986874E-9	NaN
404	1.000000	0.632217	7.36901e+06	-56889.1	1005.82	-29738	0.000000	0.000000	6.633011	-0.026452	NaN	0.000000	0.001618	0.001722	28.0821	0.076009	0.002024	37.5543	-129.016	15.222	0.012693	0.630836	-0.530303	-0.531685	-0.026452	37.5543	-0.529775	-8.9011e+06	2.971770E-9	NaN
404	1.000000	0.642202	7.36901e+06	-56889.1	1005.82	-29738	0.000000	0.000000	6.642996	0.001421	NaN	0.000000	0.001631	0.001740	28.0819	0.036991	0.001929	19.1802	-14.7643	-167.844	0.045961	0.640872	-0.520319	-0.521649	0.001421	19.1802	-0.520374	-6.58875e+06	-2.156948E-10	NaN
404	1.000000	0.652197	7.36901e+06	-56889.1	1005.82	-29738	0.000000	0.000000	6.652989	-0.047833	NaN	0.000000	0.001595	0.001708	28.0818	0.011904	0.002138	5.568064	-147.97	10.8457	-0.063908	0.650793	-0.510324	-0.511727	-0.047833	5.568064	-0.503881	-3.88275e+06	1.231927E-8	NaN
404	1.000000	0.662201	7.36901e+06	-56889.1	1005.82	-29738	0.000000	0.000000	6.662995	-0.005651	NaN	0.000000	0.001568	0.001693	28.082	0.030657	0.001942	15.7842	96.1875	-168.161	-0.015201	0.660898	-0.500319	-0.501622	-0.005651	15.7842	-0.500050	-3.43337e+06	1.646017E-9	NaN
404	1.000000	0.672216	7.36901e+06	-56889.1	1005.82	-29738	0.000000	0.000000	6.673009	-0.035822	NaN	0.000000	0.001586	0.001689	28.0818	0.077266	0.002032	38.0302	29.0188	12.9579	0.039398	0.670848	-0.490304	-0.491672	-0.035822	38.0302	-0.489598	-2.45343e+06	1.460056E-8	NaN
404	1.000000	0.682212	7.36901e+06	-56889.1	1005.82	-29738	0.000000	0.000000	6.683003	-0.073024	NaN	0.000000	0.001614	0.001696	28.0819	0.067045	0.001850	36.25	91.9043	-162.834	0.003975	0.680916	-0.480308	-0.481604	-0.073024	36.25	-0.478797	-1.73256e+06	4.214806E-8	NaN
404	1.000000	0.692230	7.36901e+06	-56889.1	1005.82	-29738	0.000000	0.000000	6.693022	-0.033031	NaN	0.000000	0.001619	0.001727	28.0818	0.079729	0.002061	38.6917	66.172	14.071	-0.010202	0.690844	-0.470291	-0.471676	-0.033031	38.6917	-0.469650	-1.28975e+06	2.561057E-8	NaN
404	1.000000	0.702241	7.36901e+06	-56889.1	1005.82	-29738	0.000000	0.000000	6.703031	-0.104630	NaN	0.000000	0.001636	0.001689	28.0824	0.049211	0.002163	22.7492	125.009	-165.709	-0.066228	0.700881	-0.460280	-0.461639	-0.104630	22.7492	-0.456830	-852039	1.227992E-7	NaN
404	1.000000	0.712225	7.36902e+06	-56889.1	1005.82	-29738	0.000000	0.000000	6.713021	0.047652	NaN	0.000000	0.001586	0.001665	28.082	0.191846	0.001942	98.7835	12.9489	13.2502	0.037013	0.710892	-0.450295	-0.451628	0.047652	98.7835	-0.450657	-697577	-6.831003E-8	NaN
404	1.000000	0.722211	7.36902e+06	-56889.1	1005.82	-29738	0.000000	0.000000	6.723004	-0.011177	NaN	0.000000	0.001587	0.001679	28.0818	0.156246	0.001951	80.0925	-3.798439	-164.875	-0.086879	0.720952	-0.440310	-0.441569	-0.011177	80.0925	-0.440205	-496887	2.249433E-8	NaN
404	1.000000	0.732224	7.36902e+06	-56889.1	1005.82	-29738	0.000000	0.000000	6.733017	-0.026490	NaN	0.000000	0.001633	0.001704	28.082	0.050326	0.002013	24.9981	64.4644	16.1844	-0.032355	0.730851	-0.430296	-0.431669	-0.026490	24.9981	-0.429501	-350758	7.552161E-8	NaN
404	1.000000	0.742244	7.36902e+06	-56889.1	1005.82	-29738	0.000000	0.000000	6.743037	-0.031748	NaN	0.000000	0.001639	0.001719	28.0819	0.057225	0.002087	27.4171	129.921	-166.841	-0.055647	0.740985	-0.420276	-0.421535	-0.031748	27.4171	-0.419407	-252354	1.258087E-7	NaN
404	1.000000	0.752261	7.36902e+06	-56889.1	1005.82	-29738	0.000000	0.000000	6.753053	-0.040101	NaN	0.000000	0.001645	0.001726	28.0819	0.048752	0.001958	24.8989	-90.5156	17.4184	0.003483	0.750922	-0.410260	-0.411598	-0.040101	24.8989	-0.409052	-179852	2.229692E-7	NaN
404	1.000000	0.762244	7.36902e+06	-56889.1	1005.82	-29738	0.000000	0.000000	6.763034	-0.101106	NaN	0.000000	0.001637	0.001688	28.0819	0.034968	0.001979	17.6703	74.3754	-166.434	-0.112766	0.760905	-0.400276	-0.401615	-0.101106	17.6703	-0.395985	-117138	8.631413E-7	NaN
404	1.000000	0.772256	7.36902e+06	-56889.1	1005.82	-29738	0.000000	0.000000	6.773051	0.013137	NaN	0.000000	0.001727	0.001680	28.0808	0.009494	0.002020	4.700138	-59.7353	14.8989	0.072684	0.770886	-0.390264	-0.391634	0.013137	4.700138	-0.392360	-103973	-1.263538E-7	NaN
404	1.000000	0.782265	7.36902e+06	-56889.1	1005.82	-29738	0.000000	0.000000	6.783057	-0.052819	NaN	0.000000	0.001702	0.001657	28.0806	0.031602	0.001936	16.3218	-77.1417	-165.816	-0.036704	0.780968	-0.380256	-0.381553	-0.052819	16.3218	-0.377829	-64374.7	8.204857E-7	NaN
404	1.000000	0.792292	7.36902e+06	-56889.1	1005.82	-29738	0.000000	0.000000	6.793089	0.055261	NaN	0.000000	0.001726	0.001710	28.0806	0.135055	0.001930	69.9663	11.5924	15.4295	0.054499	0.790928	-0.370228	-0.371592	0.055261	69.9663	-0.370820	-51043.5	-1.082629E-6	NaN
404	1.000000	0.802289	7.36902e+06	-56889.1	1005.82	-29738	0.000000	0.000000	6.803083	-0.013426	NaN	0.000000	0.001717	0.001716	28.0807	0.025004	0.001923	12.9994	176.186	-163.929	-0.003007	0.800947	-0.360231	-0.361574	-0.013426	12.9994	-0.359456	-34993.2	3.836844E-7	NaN
404	1.000000	0.812282	7.36902e+06	-56889.1	1005.82	-29738	0.000000	0.000000	6.813075	-0.028177	NaN	0.000000	0.001661	0.001709	28.0809	0.062780	0.001847	33.9909	-18.039	16.4137	-0.051776	0.810944	-0.350239	-0.351576	-0.028177	33.9909	-0.349617	-25202.4	1.118047E-6	NaN
404	1.000000	0.822268	7.36902e+06	-56889.1	1005.82	-29738	0.000000	0.000000	6.823063	0.032697	NaN	0.000000	0.001622	0.001685	28.0806	0.094482	0.001932	48.9085	-68.4336	-165.096	-0.095972	0.820948	-0.340253	-0.341572	0.032697	48.9085	-0.340754	-18730.2	-1.745697E-6	NaN
404	1.000000	0.832269	7.36902e+06	-56889.1	1005.82	-29738	0.000000	0.000000	6.833064	-0.000686	NaN	0.000000	0.001631	0.001651	28.0806	0.117877	0.001978	59.5958	-164.135	14.6789	-0.019874	0.830905	-0.330251	-0.331615	-0.000686	59.5958	-0.330242	-13152.2	5.214000E-8	NaN
404	1.000000	0.842273	7.36902e+06	-56889.1	1005.82	-29738	0.000000	0.000000	6.843066	-0.027160	NaN	0.000000	0.001648	0.001653	28.0807	0.064362	0.001864	34.528	136.708	-163.317	-0.023741	0.840914	-0.320247	-0.321606	-0.027160	34.528	-0.319657	-9195.81	2.953505E-6	NaN
404	1.000000	0.852289	7.36902e+06	-56889.1	1005.82	-29738	0.000000	0.000000	6.853083	-0.008889	NaN	0.000000	0.001635	0.001681	28.0807	0.111558	0.002011	55.4805	-99.9175	15.1054	-0.014949	0.850914	-0.310231	-0.311606	-0.008889	55.4805	-0.310111	-6648.11	1.336998E-6	NaN
404	1.000000	0.862280	7.36902e+06	-56889.1	1005.82	-29738	0.000000	0.000000	6.863075	0.002076	NaN	0.000000	0.001620	0.001685	28.0806	0.038015	0.002012	18.8959	-66.0044	-165.779	-0.044577	0.860985	-0.300240	-0.301536	0.002076	18.8959	-0.300322	-4758.09	-4.363982E-7	NaN
404	1.000000	0.872294	7.36902e+06	-56889.1	1005.82	-29738	0.000000	0.000000	6.873087	-0.026963	NaN	0.000000	0.001676	0.001672	28.0806	0.054573	0.002090	26.115	-157.326	16.3531	-0.011337	0.870943	-0.290226	-0.291577	-0.026963	26.115	-0.289452	-3274.09	8.235149E-6	NaN
404	1.000000	0.882312	7.36902e+06	-56889.1	1005.82	-29738	0.000000	0.000000	6.883108	0.026956	NaN	0.000000	0.001663	0.001682	28.0808	0.023506	0.002060	11.4085	-40.5068	-164.662	-0.024262	0.881018	-0.280208	-0.281503	0.026956	11.4085	-0.281980	-2528.27	-1.066201E-5	NaN
404	1.000000	0.892307	7.36902e+06	-56889.1	1005.82	-29738	0.000000	0.000000	6.893101	0.003089	NaN	0.000000	0.001674	0.001693	28.0807	0.088809	0.002125	41.7923	-74.7511	14.2684	0.006425	0.890907	-0.270214	-0.271614	0.003089	41.7923	-0.270269	-1681.26	-1.837588E-6	NaN
404	1.000000	0.902324	7.36902e+06	-56889.1	1005.82	-29738	0.000000	0.000000	6.903119	-0.001218	NaN	0.000000	0.001698	0.001668	28.0812	0.040232	0.001997	20.1422	30.8852	-165.012	0.012018	0.901009	-0.260196	-0.261511	-0.001218	20.1422	-0.260151	-1178.22	1.033838E-6	NaN
404	1.000000	0.912331	7.36902e+06	-56889.1	1005.82	-29738	0.000000	0.000000	6.913125	-0.003912	NaN	0.000000	0.001742	0.001718	28.0821	0.031751	0.002000	15.8774	81.5181	13.1061	0.080516	0.910986	-0.250189	-0.251534	-0.003912	15.8774	-0.250005	-822.313	4.756708E-6	NaN
404	1.000000	0.922346	7.36902e+06	-56889.1	1005.82	-29738	0.000000	0.000000	6.923139	-0.036998	NaN	0.000000	0.001681	0.001667	28.0821	0.020915	0.001979	10.5669	-92.1075	-167.477	-0.080435	0.921053	-0.240174	-0.241467	-0.036998	10.5669	-0.237548	-526.27	7.030283E-5	NaN
404	1.000000	0.932329	7.36902e+06	-56889.1	1005.82	-29738	0.000000	0.000000	6.933120	-0.069799	NaN	0.000000	0.001675	0.001698	28.0823	0.098013	0.002148	45.624	-70.8721	16.6544	-0.078371	0.930888	-0.230192	-0.231632	-0.069799	45.624	-0.229044	-386.738	0.000180	NaN
404	1.000000	0.942310	7.36902e+06	-56889.1	1005.82	-29738	0.000000	0.000000	6.943102	-0.055118	NaN	0.000000	0.001720	0.001694	28.082	0.056083	0.002014	27.8397	-137.911	-165.641	0.030251	0.941039	-0.220211	-0.221481	-0.055118	27.8397	-0.218726	-265.031	0.000208	NaN
404	1.000000	0.952331	7.36902e+06	-56889.1	1005.82	-29738	0.000000	0.000000	6.953124	-0.027032	NaN	0.000000	0.001614	0.001665	28.0823	0.029554	0.002116	13.9668	37.889	18.25	0.037051	0.951007	-0.210189	-0.211513	-0.027032	13.9668	-0.208738	-182.961	0.000148	NaN
404	1.000000	0.962331	7.36902e+06	-56889.1	1005.82	-29738	0.000000	0.000000	6.963122	-0.086770	NaN	0.000000	0.001669	0.001683	28.0821	0.070948	0.001961	36.1715	112.308	-167.748	-0.076428	0.961016	-0.200189	-0.201504	-0.086770	36.1715	-0.198390	-123.939	0.000700	NaN
404	1.000000	0.972337	7.36902e+06	-56889.1	1005.82	-29738	0.000000	0.000000	6.973131	-0.012271	NaN	0.000000	0.001648	0.001682	28.0822	0.089598	0.002061	43.4778	66.0918	13.7392	-0.037555	0.970994	-0.190183	-0.191527	-0.012271	43.4778	-0.189971	-89.8569	0.000137	NaN
404	1.000000	0.982341	7.36902e+06	-56889.1	1005.82	-29738	0.000000	0.000000	6.983133	-0.055505	NaN	0.000000	0.001617	0.001687	28.082	0.048366	0.001916	25.2402	-118.292	-164.494	-0.031177	0.981011	-0.180179	-0.181509	-0.055505	25.2402	-0.178530	-57.5994	0.000964	NaN
404	1.000000	0.992343	7.36902e+06	-56889.1	1005.82	-29738	0.000000	0.000000	6.993136	-0.046422	NaN	0.000000	0.001646	0.001633	28.0822	0.089211	0.002069	43.1109	-24.7799	13.7122	-0.011998	0.990954	-0.170177	-0.171566	-0.046422	43.1109	-0.169369	-40.0548	0.001159	NaN
404	1.000000	1.002333	7.36902e+06	-56889.1	1005.82	-29738	0.000000	0.000000	7.003126	-0.039528	NaN	0.000000	0.001643	0.001634	28.0819	0.044869	0.001964	22.842	62.4051	-164.052	-0.021218	1.001020	-0.160187	-0.161501	-0.039528	22.842	-0.158889	-26.1954	0.001509	NaN
404	1.000000	1.012331	7.36902e+06	-56889.1	1005.82	-29738	0.000000	0.000000	7.013125	0.003730	NaN	0.000000	0.001634	0.001608	28.0821	0.091947	0.001986	46.301	124.255	19.5549	0.032218	1.011002	-0.150189	-0.151518	0.003730	46.301	-0.150250	-18.3045	-0.000204	NaN
404	1.000000	1.022337	7.36902e+06	-56889.1	1005.82	-29738	0.000000	0.000000	7.023131	-0.014820	NaN	0.000000	0.001622	0.001636	28.082	0.061894	0.001912	32.3728	36.6424	-163.42	0.005090	1.021056	-0.140183	-0.141464	-0.014820	32.3728	-0.139840	-11.7478	0.001261	NaN
404	1.000000	1.032378	7.36902e+06	-56889.1	1005.82	-29738	0.000000	0.000000	7.033169	-0.075792	NaN	0.000000	0.001656	0.001611	28.082	0.067002	0.001931	34.7068	-74.0828	14.4442	-0.055561	1.030969	-0.130142	-0.131551	-0.075792	34.7068	-0.128505	-7.126645	0.010635	NaN
404	1.000000	1.042346	7.36902e+06	-56889.1	1005.82	-29738	0.000000	0.000000	7.043138	-0.066225	NaN	0.000000	0.001646	0.001607	28.0805	0.182137	0.001942	93.7918	118.43	-167.825	-0.019992	1.041041	-0.120174	-0.121479	-0.066225	93.7918	-0.119644	-4.752233	0.013935	NaN
404	1.000000	1.052335	7.36902e+06	-56889.1	1005.82	-29738	0.000000	0.000000	7.053129	-0.015833	NaN	0.000000	0.001626	0.001584	28.0812	0.069451	0.002109	32.9292	9.130022	14.4636	-0.102775	1.050949	-0.110185	-0.111571	-0.015833	32.9292	-0.109824	-2.979655	0.005314	NaN
404	1.000000	1.062382	7.36902e+06	-56889.1	1005.82	-29738	0.000000	0.000000	7.063174	-0.051669	NaN	0.000000	0.001640	0.001599	28.0806	0.028537	0.002076	13.7485	21.6314	-162.011	-0.038733	1.061044	-0.100139	-0.101476	-0.051669	13.7485	-0.097320	-1.591964	0.032456	NaN
404	1.000000	1.072389	7.36902e+06	-56889.1	1005.82	-29738	0.000000	0.000000	7.073180	-0.068027	NaN	0.000000	0.001615	0.001604	28.0805	0.044151	0.002124	20.7884	-29.6841	15.6274	-0.056728	1.071061	-0.090132	-0.091459	-0.068027	20.7884	-0.087677	-0.952652	0.071408	NaN
404	1.000000	1.082407	7.36902e+06	-56889.1	1005.82	-29738	0.000000	0.000000	7.083198	-0.075929	NaN	0.000000	0.001583	0.001697	28.0804	0.007328	0.001979	3.702383	122.535	-166.554	-0.065548	1.081081	-0.080113	-0.081439	-0.075929	3.702383	-0.064732	-0.244987	0.309930	NaN
404	1.000000	1.092386	7.36902e+06	-56889.1	1005.82	-29738	0.000000	0.000000	7.093179	-0.027476	NaN	0.000000	0.001588	0.001634	28.0806	0.086751	0.002130	40.7358	96.3677	13.8429	-0.006961	1.091010	-0.070134	-0.071510	-0.027476	40.7358	-0.069628	-0.333368	0.082420	NaN
404	1.000000	1.102369	7.36902e+06	-56889.1	1005.82	-29738	0.000000	0.000000	7.103163	0.000953	NaN	0.000000	0.001605	0.001609	28.0807	0.006825	0.002032	3.359263	-116.305	-164.828	-0.019980	1.101145	-0.060152	-0.061375	0.000953	3.359263	-0.060365	-0.184477	-0.005168	NaN
404	1.000000	1.112415	7.36902e+06	-56889.1	1005.82	-29738	0.000000	0.000000	7.113209	-0.010668	NaN	0.000000	0.001603	0.001644	28.0807	0.014034	0.002090	6.716072	160.408	16.6673	0.035323	1.110998	-0.050106	-0.051522	-0.010668	6.716072	-0.048914	-0.084594	0.126109	NaN
404	1.000000	1.122404	7.36902e+06	-56889.1	1005.82	-29738	0.000000	0.000000	7.123197	-0.044037	NaN	0.000000	0.001611	0.001667	28.0806	0.088325	0.001907	46.3215	-92.0674	-162.836	0.008750	1.121064	-0.040116	-0.041456	-0.044037	46.3215	-0.039403	-0.043374	1.015280	NaN
404	1.000000	1.132417	7.36902e+06	-56889.1	1005.82	-29738	0.000000	0.000000	7.133212	0.014502	NaN	0.000000	0.001581	0.001618	28.0807	0.089635	0.001999	44.8298	-157.338	15.9624	0.037373	1.131057	-0.030104	-0.031463	0.014502	44.8298	-0.030346	-0.023531	-0.616299	NaN
404	1.000000	1.142402	7.36902e+06	-56889.1	1005.82	-29738	0.000000	0.000000	7.143193	-0.082158	NaN	0.000000	0.001596	0.001657	28.0809	0.063966	0.002050	31.2052	-66.3237	-166.213	-0.110922	1.141085	-0.020119	-0.021436	-0.082158	31.2052	-0.018144	-0.011259	7.297176	NaN
404	1.000000	1.152401	7.36902e+06	-56889.1	1005.82	-29738	0.000000	0.000000	7.153195	0.014048	NaN	0.000000	0.001578	0.001706	28.0807	0.110228	0.001964	56.1337	26.7109	12.6246	0.014365	1.151049	-0.010120	-0.011471	0.014048	56.1337	-0.010307	-0.006563	-2.140539	NaN
404	1.000000	1.162416	7.36902e+06	-56889.1	1005.82	-29738	0.000000	0.000000	7.163226	0.397473	NaN	0.000000	0.001600	0.001656	28.0805	0.649283	0.002073	313.193	13.1127	-164.761	0.090258	1.161157	-0.000104	-0.001363	0.397473	313.193	-0.001056	-0.000774	-513.822	NaN
404	2.000000	1.170547	7.36902e+06	-56889.1	1005.82	-29738	0.000000	0.000000	7.171728	9.397482	NaN	0.000000	0.001587	0.001646	28.0807	8.676322	0.001583	5481.02	2.790822	13.0837	8.932162	1.170215	0.008027	0.007695	9.397482	5481.02	0.006741	0.005779	1626.17	65873.8
404	2.000000	1.173034	7.36902e+06	-56889.1	1005.82	-29738	0.000000	0.000000	7.174443	14.9385	NaN	0.000000	0.001611	0.001678	28.0817	11.1908	0.001505	7434.38	4.277805	-172.729	14.5236	1.172657	0.010514	0.010136	14.9385	7434.38	0.009007	0.008099	1844.53	75475.8
404	2.000000	1.175509	7.36902e+06	-56889.1	1005.82	-29738	0.000000	0.000000	7.177201	21.8258	NaN	0.000000	0.001654	0.001684	28.0816	14.6171	0.001804	8102.2	3.913211	9.128911	20.136	1.175076	0.012988	0.012556	21.8258	8102.2	0.010968	0.010277	2123.69	73019.2
404	2.000000	1.178036	7.36902e+06	-56889.1	1005.82	-29738	0.000000	0.000000	7.179970	27.6887	NaN	0.000000	0.001661	0.001713	28.0821	17.1858	0.001720	9990.76	6.744050	-177.255	27.3069	1.177665	0.015516	0.015144	27.6887	9990.76	0.013437	0.013258	2088.51	79275.4
404	2.000000	1.180520	7.36902e+06	-56889.1	1005.82	-29738	0.000000	0.000000	7.182773	35.471	NaN	0.000000	0.001661	0.001674	28.0817	19.2164	0.001676	11462.5	4.509376	5.008745	33.9581	1.180104	0.017999	0.017584	35.471	11462.5	0.015678	0.016201	2189.46	82278.3
404	2.000000	1.182972	7.36902e+06	-56889.1	1005.82	-29738	0.000000	0.000000	7.185499	42.1124	NaN	0.000000	0.001671	0.001692	28.082	21.4677	0.001682	12762.6	2.150562	-174.249	41.5802	1.182613	0.020452	0.020093	42.1124	12762.6	0.017977	0.019463	2163.77	83582.3
404	2.000000	1.185509	7.36902e+06	-56889.1	1005.82	-29738	0.000000	0.000000	7.188353	49.8105	NaN	0.000000	0.001670	0.001670	28.0818	24.2725	0.001804	13455.2	3.889689	4.634107	49.9558	1.185110	0.022989	0.022590	49.8105	13455.2	0.020213	0.022878	2177.26	81275
404	2.000000	1.187967	7.36902e+06	-56889.1	1005.82	-29738	0.000000	0.000000	7.191107	56.9961	NaN	0.000000	0.001679	0.001649	28.0819	26.8579	0.001843	14574.8	6.178078	-178.511	57.1642	1.187669	0.025447	0.025148	56.9961	14574.8	0.022514	0.026648	2138.85	81572.6
404	2.000000	1.190452	7.36902e+06	-56889.1	1005.82	-29738	0.000000	0.000000	7.193985	66.5778	NaN	0.000000	0.001701	0.001666	28.0819	29.0195	0.001725	16821.4	6.141650	-0.346366	63.4808	1.190105	0.027932	0.027584	66.5778	16821.4	0.024963	0.030949	2151.23	87360.1
404	2.000000	1.192882	7.36902e+06	-56889.1	1005.82	-29738	0.000000	0.000000	7.196709	73.7037	NaN	0.000000	0.001714	0.001686	28.0818	30.5183	0.001796	16995.4	1.662616	-175.485	72.1555	1.192617	0.030362	0.030097	73.7037	16995.4	0.027110	0.034966	2107.9	83039.5
404	2.000000	1.195420	7.36902e+06	-56889.1	1005.82	-29738	0.000000	0.000000	7.199582	81.868	NaN	0.000000	0.001720	0.001687	28.0818	33.9474	0.001847	18380.6	3.283563	2.734659	80.1882	1.195028	0.032899	0.032508	81.868	18380.6	0.029559	0.039834	2055.21	84140.2
404	2.000000	1.197930	7.36902e+06	-56889.1	1005.82	-29738	0.000000	0.000000	7.202489	91.5067	NaN	0.000000	0.001684	0.001746	28.0821	35.8803	0.001695	21168.8	3.323250	-179.014	89.6262	1.197578	0.035410	0.035058	91.5067	21168.8	0.032168	0.045357	2017.48	90812.7
404	2.000000	1.200479	7.36902e+06	-56889.1	1005.82	-29738	0.000000	0.000000	7.205432	101.089	NaN	0.000000	0.001637	0.001671	28.082	38.3222	0.001896	20207.4	5.969726	-1.123603	100.01	1.200122	0.037959	0.037602	101.089	20207.4	0.034207	0.049915	2025.22	82635.6
404	2.000000	1.202968	7.36902e+06	-56889.1	1005.82	-29738	0.000000	0.000000	7.208205	107.961	NaN	0.000000	0.001718	0.001688	28.0818	40.343	0.001801	22395.9	7.695648	175.536	108.756	1.202645	0.040448	0.040124	107.961	22395.9	0.036833	0.056099	1924.46	86389.9
404	2.000000	1.205416	7.36902e+06	-56889.1	1005.82	-29738	0.000000	0.000000	7.210980	115.924	NaN	0.000000	0.001707	0.001685	28.0811	42.8787	0.001829	23447.2	7.203924	-3.441500	115.165	1.205067	0.042896	0.042546	115.924	23447.2	0.039188	0.061946	1871.39	86071.3
404	2.000000	1.207922	7.36902e+06	-56889.1	1005.82	-29738	0.000000	0.000000	7.213996	128.322	NaN	0.000000	0.001691	0.001707	28.0811	45.0737	0.001808	24930.2	5.927848	177.521	127.532	1.207586	0.045401	0.045066	128.322	24930.2	0.041541	0.068072	1885.11	87300.3
404	2.000000	1.210433	7.36902e+06	-56889.1	1005.82	-29738	0.000000	0.000000	7.216900	137.888	NaN	0.000000	0.001711	0.001675	28.0806	46.4418	0.001736	26746.7	3.479909	-0.541942	136.707	1.210031	0.047913	0.047511	137.888	26746.7	0.044046	0.074903	1840.89	89288.4
404	2.000000	1.212967	7.36902e+06	-56889.1	1005.82	-29738	0.000000	0.000000	7.219747	145.5	NaN	0.000000	0.001693	0.001696	28.0812	49.4939	0.001767	28007.6	2.829108	179.331	149.444	1.212610	0.050446	0.050090	145.5	28007.6	0.046550	0.082049	1773.34	89333.5
404	2.000000	1.215415	7.36902e+06	-56889.1	1005.82	-29738	0.000000	0.000000	7.222976	164.458	NaN	0.000000	0.001694	0.001697	28.0805	52.1438	0.001893	27544	4.716925	-1.751248	163.034	1.214965	0.052895	0.052445	164.458	27544	0.048417	0.087582	1877.77	85034
404	2.000000	1.217910	7.36902e+06	-56889.1	1005.82	-29738	0.000000	0.000000	7.225998	177.265	NaN	0.000000	0.001654	0.001679	28.081	54.6952	0.001759	31103.1	3.892763	177.084	175.567	1.217572	0.055390	0.055051	177.265	31103.1	0.051115	0.095892	1848.59	91766.8
404	2.000000	1.220411	7.36902e+06	-56889.1	1005.82	-29738	0.000000	0.000000	7.228868	186.245	NaN	0.000000	0.001690	0.001702	28.0806	56.5276	0.001799	31422.5	5.559080	-5.013130	183.707	1.220159	0.057891	0.057639	186.245	31422.5	0.053446	0.103360	1801.9	89297.2
404	2.000000	1.222928	7.36902e+06	-56889.1	1005.82	-29738	0.000000	0.000000	7.232037	202.113	NaN	0.000000	0.001702	0.001727	28.0809	58.2044	0.001689	34464.9	4.246837	175.824	204.29	1.222598	0.060407	0.060078	202.113	34464.9	0.056009	0.111887	1806.4	94136.7
404	2.000000	1.225391	7.36902e+06	-56889.1	1005.82	-29738	0.000000	0.000000	7.235149	217.873	NaN	0.000000	0.001662	0.001684	28.0806	60.5052	0.001642	36853.1	3.595100	-4.046727	215.323	1.224963	0.062871	0.062442	217.873	36853.1	0.058437	0.120262	1811.65	97091.9
404	2.000000	1.227901	7.36902e+06	-56889.1	1005.82	-29738	0.000000	0.000000	7.238169	230.258	NaN	0.000000	0.001706	0.001638	28.0812	64.9419	0.001851	35093	7.387416	172.968	228.436	1.227589	0.065381	0.065069	230.258	35093	0.060460	0.127462	1806.48	89805.4
404	2.000000	1.230409	7.36902e+06	-56889.1	1005.82	-29738	0.000000	0.000000	7.241256	244.341	NaN	0.000000	0.001701	0.001681	28.0806	65.7841	0.001805	36438.8	4.308098	-4.673408	240.503	1.230042	0.067888	0.067522	244.341	36438.8	0.062859	0.136260	1793.2	90188.9
404	2.000000	1.232955	7.36902e+06	-56889.1	1005.82	-29738	0.000000	0.000000	7.244307	256.622	NaN	0.000000	0.001710	0.001671	28.0808	68.1564	0.001789	38096.8	5.537450	173.906	259.933	1.232653	0.070435	0.070133	256.622	38096.8	0.065383	0.145814	1759.93	91151.2
404	2.000000	1.235362	7.36902e+06	-56889.1	1005.82	-29738	0.000000	0.000000	7.247331	271.611	NaN	0.000000	0.001680	0.001682	28.0808	71.4946	0.001843	38798.3	6.523190	-7.042059	268.461	1.235023	0.072842	0.072503	271.611	38798.3	0.067592	0.154429	1758.81	90203.1
404	2.000000	1.237874	7.36902e+06	-56889.1	1005.82	-29738	0.000000	0.000000	7.250403	285.231	NaN	0.000000	0.001680	0.001669	28.0809	73.9058	0.001785	41408.6	6.693130	171.485	283.004	1.237602	0.075354	0.075082	285.231	41408.6	0.070188	0.164852	1730.22	93178.6
404	2.000000	1.240448	7.36902e+06	-56889.1	1005.82	-29738	0.000000	0.000000	7.253497	297.849	NaN	0.000000	0.001706	0.001694	28.082	75.2147	0.001846	40743	4.543439	-5.494460	296.278	1.240042	0.077928	0.077522	297.849	40743	0.072445	0.174177	1710.03	89193
404	2.000000	1.242844	7.36902e+06	-56889.1	1005.82	-29738	0.000000	0.000000	7.256665	316.632	NaN	0.000000	0.001686	0.001679	28.0821	76.7364	0.001765	43467.6	2.417728	175.85	315.298	1.242585	0.080323	0.080065	316.632	43467.6	0.074860	0.184418	1716.93	92477.8
404	2.000000	1.245318	7.36902e+06	-56889.1	1005.82	-29738	0.000000	0.000000	7.259984	337.18	NaN	0.000000	0.001688	0.001667	28.0821	78.9898	0.001766	44721.3	3.168320	-5.187697	331.893	1.244973	0.082797	0.082452	337.18	44721.3	0.077143	0.194351	1734.9	92681.7
404	2.000000	1.247844	7.36902e+06	-56889.1	1005.82	-29738	0.000000	0.000000	7.262957	348.026	NaN	0.000000	0.001717	0.001667	28.0821	82.2681	0.001801	45670.1	7.196364	170.599	345.753	1.247681	0.085324	0.085161	348.026	45670.1	0.079609	0.205356	1694.75	92077.2
404	2.000000	1.250354	7.36902e+06	-56889.1	1005.82	-29738	0.000000	0.000000	7.266503	373.197	NaN	0.000000	0.001712	0.001691	28.0819	84.382	0.001790	47148.4	8.598332	-10.2143	368.645	1.249882	0.087834	0.087362	373.197	47148.4	0.081897	0.215824	1729.17	92723.7
404	2.000000	1.252758	7.36902e+06	-56889.1	1005.82	-29738	0.000000	0.000000	7.269626	390.685	NaN	0.000000	0.001696	0.001681	28.0821	86.3617	0.001809	47730.4	7.157427	170.364	383.912	1.252565	0.090238	0.090045	390.685	47730.4	0.084099	0.226122	1727.76	91705.9
404	2.000000	1.255365	7.36902e+06	-56889.1	1005.82	-29738	0.000000	0.000000	7.272809	404.677	NaN	0.000000	0.001652	0.001731	28.0823	88.284	0.001696	52061.9	5.646070	-8.655611	401.943	1.255029	0.092845	0.092509	404.677	52061.9	0.087015	0.240108	1685.39	97071
404	2.000000	1.257899	7.36902e+06	-56889.1	1005.82	-29738	0.000000	0.000000	7.276025	421.274	NaN	0.000000	0.001690	0.001697	28.0822	92.8011	0.001921	48303.6	6.619579	171.272	425.039	1.257564	0.095378	0.095043	421.274	48303.6	0.088837	0.249047	1691.55	88432.7
404	2.000000	1.260263	7.36902e+06	-56889.1	1005.82	-29738	0.000000	0.000000	7.279429	446.539	NaN	0.000000	0.001687	0.001689	28.082	92.7733	0.001781	52083.2	5.044201	-7.085888	438.234	1.259974	0.097742	0.097454	446.539	52083.2	0.091312	0.261431	1708.06	93066.3
404	2.000000	1.262851	7.36902e+06	-56889.1	1005.82	-29738	0.000000	0.000000	7.282516	458.662	NaN	0.000000	0.001658	0.001684	28.0823	94.728	0.001803	52552	2.594497	174.12	455.736	1.262661	0.100331	0.100140	458.662	52552	0.093785	0.274084	1673.43	91710.8
404	2.000000	1.265354	7.36902e+06	-56889.1	1005.82	-29738	0.000000	0.000000	7.286088	484.642	NaN	0.000000	0.001689	0.001690	28.0822	97.938	0.001787	54811.8	4.118129	-7.716955	481.981	1.265016	0.102834	0.102496	484.642	54811.8	0.096202	0.286723	1690.28	93522.4
404	2.000000	1.267817	7.36902e+06	-56889.1	1005.82	-29738	0.000000	0.000000	7.289392	505.086	NaN	0.000000	0.001664	0.001722	28.0823	100.042	0.001794	55759.3	4.075281	172.643	501.744	1.267490	0.105297	0.104969	505.086	55759.3	0.098503	0.299000	1689.25	93165.4
404	2.000000	1.268371	7.36902e+06	-56889.1	1005.82	-29738	0.000000	0.000000	7.290005	506.524	NaN	0.000000	0.001645	0.001701	28.0821	99.5277	0.001710	58204.7	2.155124	-5.805565	505.724	1.267999	0.105850	0.105479	506.524	58204.7	0.099323	0.303438	1669.28	96537.6