File: remote_trans/data/nanoindenter/0828-1/data/Data_2025-08-06,11h17m57s/2025-07-22_16-23-58_1_296.txt
2025-07-22, 16:23:58, 1
Index	Phase	Displacement	Time	Pos X	Pos Y	Pos Z	Rot A	Rot B	Piezo Z	Force A	Force B	Gripper	Voltage A	Voltage B	Temperature	Amplitude force	Amplitude pos	Stiffness	Phase shift	Phase excitation	Force A raw	Displacement raw	HMax	HMax raw	Real Force	Real Stiffness	Contact Depth	Area	Hardness	Reduced Mod.
[#]	[#]	[um]	[s]	[um]	[um]	[um]	[m°]	[m°]	[um]	[uN]	[uN]	[V]	[V]	[V]	[°C]	[uN]	[um]	[N/m]	[°]	[°]	[uN]	[um]	[um]	[um]	[uN]	[N/m]	[um]	[um^2]	[MPa]	[MPa]
296	1.000000	0.002423	7.36795e+06	-53439.1	955.819	-29746.6	0.000000	0.000000	6.002804	-0.024111	NaN	0.000000	0.001672	0.001747	28.0788	0.043952	0.000922	47.6514	72.7541	-166.41	-0.111028	0.001177	-1.026049	-1.027295	-0.024111	47.6514	-1.025669	-5.026001E+13	4.797346E-16	NaN
296	1.000000	0.010389	7.36795e+06	-53439.1	955.818	-29746.6	0.000000	0.000000	6.010771	0.018573	NaN	0.000000	0.001666	0.001722	28.0787	0.070522	0.000969	72.7777	137.989	-163.107	0.014737	0.009018	-1.018083	-1.019453	0.018573	72.7777	-1.018274	-3.997003E+13	-4.646627E-16	NaN
296	1.000000	0.018340	7.36795e+06	-53439.1	955.819	-29746.6	0.000000	0.000000	6.018721	-0.014957	NaN	0.000000	0.001636	0.001701	28.0791	0.080649	0.001741	46.3156	115.51	-160.777	0.035968	0.017081	-1.010131	-1.011391	-0.014957	46.3156	-1.009889	-3.082418E+13	4.852328E-16	NaN
296	1.000000	0.026422	7.36795e+06	-53439.1	955.819	-29746.6	0.000000	0.000000	6.026801	-0.064151	NaN	0.000000	0.001629	0.001738	28.0788	0.208775	0.001792	116.474	167.185	-163.409	-0.007602	0.025109	-1.002049	-1.003362	-0.064151	116.474	-1.001636	-2.386710E+13	2.687845E-15	NaN
296	1.000000	0.034399	7.36796e+06	-53439.1	955.818	-29746.6	0.000000	0.000000	6.034783	0.062488	NaN	0.000000	0.001650	0.001696	28.0787	0.023529	0.001880	12.5183	137.905	-164.844	0.011552	0.033054	-0.994073	-0.995417	0.062488	12.5183	-0.997816	-2.120166E+13	-2.947307E-15	NaN
296	1.000000	0.042361	7.36796e+06	-53439.1	955.819	-29746.6	0.000000	0.000000	6.042742	-0.028804	NaN	0.000000	0.001632	0.001723	28.0788	0.079360	0.001893	41.93	-31.9021	-164.364	-0.043068	0.041070	-0.986111	-0.987402	-0.028804	41.93	-0.985595	-1.451397E+13	1.984553E-15	NaN
296	1.000000	0.050350	7.36796e+06	-53439.1	955.819	-29746.6	0.000000	0.000000	6.050731	-0.019961	NaN	0.000000	0.001655	0.001714	28.0788	0.062353	0.001830	34.0812	-54.9742	-165.764	0.022195	0.049085	-0.978122	-0.979387	-0.019961	34.0812	-0.977682	-1.135497E+13	1.757913E-15	NaN
296	1.000000	0.058350	7.36796e+06	-53439.1	955.819	-29746.6	0.000000	0.000000	6.058729	-0.060043	NaN	0.000000	0.001650	0.001697	28.0803	0.047233	0.001902	24.8359	-116.693	-162.939	-0.029984	0.057046	-0.970122	-0.971426	-0.060043	24.8359	-0.968309	-8.489223E+12	7.072895E-15	NaN
296	1.000000	0.066367	7.36796e+06	-53439.1	955.818	-29746.6	0.000000	0.000000	6.066746	-0.046687	NaN	0.000000	0.001596	0.001688	28.0801	0.147298	0.001875	78.5697	-62.2353	-162.726	-0.045033	0.065035	-0.962105	-0.963436	-0.046687	78.5697	-0.961659	-6.906188E+12	6.760190E-15	NaN
296	1.000000	0.074359	7.36796e+06	-53439.1	955.819	-29746.6	0.000000	0.000000	6.074739	-0.038983	NaN	0.000000	0.001619	0.001714	28.0801	0.098897	0.001929	51.2607	60.651	-165.379	-0.046205	0.073048	-0.954112	-0.955424	-0.038983	51.2607	-0.953542	-5.367745E+12	7.262392E-15	NaN
296	1.000000	0.082393	7.36796e+06	-53439.1	955.818	-29746.6	0.000000	0.000000	6.082772	-0.055222	NaN	0.000000	0.001629	0.001709	28.0802	0.083611	0.002018	41.4323	-72.1834	-164.394	-0.009378	0.081129	-0.946079	-0.947343	-0.055222	41.4323	-0.945080	-4.127257E+12	1.337992E-14	NaN
296	1.000000	0.090390	7.36796e+06	-53439.1	955.818	-29746.6	0.000000	0.000000	6.090775	0.083345	NaN	0.000000	0.001664	0.001722	28.0802	0.055631	0.002118	26.2625	-103.162	-166.027	0.049766	0.089043	-0.938081	-0.939429	0.083345	26.2625	-0.940461	-3.575708E+12	-2.330880E-14	NaN
296	1.000000	0.098389	7.36796e+06	-53439.1	955.819	-29746.6	0.000000	0.000000	6.098770	0.005791	NaN	0.000000	0.001681	0.001712	28.0803	0.035861	0.001881	19.0608	-14.2369	-164.629	-0.047122	0.097008	-0.930083	-0.931463	0.005791	19.0608	-0.930311	-2.608523E+12	-2.219840E-15	NaN
296	1.000000	0.106422	7.36796e+06	-53439.1	955.819	-29746.6	0.000000	0.000000	6.106801	-0.071859	NaN	0.000000	0.001678	0.001686	28.08	0.081521	0.002133	38.2175	-134.893	-163.239	-0.117723	0.105035	-0.922050	-0.923436	-0.071859	38.2175	-0.920640	-1.931260E+12	3.720812E-14	NaN
296	1.000000	0.114398	7.36796e+06	-53439.1	955.819	-29746.6	0.000000	0.000000	6.114778	-0.027253	NaN	0.000000	0.001690	0.001716	28.08	0.035429	0.002187	16.1981	-52.6327	-166.282	-0.001118	0.113088	-0.914074	-0.915384	-0.027253	16.1981	-0.912812	-1.514051E+12	1.800000E-14	NaN
296	1.000000	0.122388	7.36796e+06	-53439.1	955.819	-29746.6	0.000000	0.000000	6.122765	-0.101028	NaN	0.000000	0.001674	0.001678	28.0802	0.146477	0.002051	71.4186	-68.8982	-165.282	-0.015890	0.121093	-0.906084	-0.907379	-0.101028	71.4186	-0.905023	-1.188310E+12	8.501794E-14	NaN
296	1.000000	0.130400	7.36796e+06	-53439.1	955.817	-29746.6	0.000000	0.000000	6.130781	-0.017050	NaN	0.000000	0.001709	0.001689	28.0805	0.117489	0.002030	57.8645	176.191	-162.961	-0.020523	0.129094	-0.898071	-0.899378	-0.017050	57.8645	-0.897850	-9.506405E+11	1.793495E-14	NaN
296	1.000000	0.138396	7.36796e+06	-53439.1	955.818	-29746.6	0.000000	0.000000	6.138778	0.011177	NaN	0.000000	0.001701	0.001715	28.0801	0.078388	0.001989	39.4196	-43.7439	-162.932	0.104131	0.137052	-0.890076	-0.891419	0.011177	39.4196	-0.890289	-7.513086E+11	-1.487645E-14	NaN
296	1.000000	0.146419	7.36796e+06	-53439.1	955.818	-29746.6	0.000000	0.000000	6.146798	-0.065118	NaN	0.000000	0.001721	0.001690	28.0798	0.063308	0.001938	32.6712	9.686674	-165.719	-0.013141	0.145081	-0.882053	-0.883390	-0.065118	32.6712	-0.880558	-5.549512E+11	1.173403E-13	NaN
296	1.000000	0.154405	7.36796e+06	-53439.1	955.818	-29746.6	0.000000	0.000000	6.154784	-0.053387	NaN	0.000000	0.001679	0.001734	28.0798	0.044457	0.001989	22.3536	-86.4383	-163.458	-0.081113	0.153097	-0.874067	-0.875375	-0.053387	22.3536	-0.872276	-4.287769E+11	1.245090E-13	NaN
296	1.000000	0.162403	7.36796e+06	-53439.1	955.818	-29746.6	0.000000	0.000000	6.162782	-0.067592	NaN	0.000000	0.001692	0.001744	28.08	0.063995	0.002019	31.7016	-21.4354	-161.977	0.001077	0.161057	-0.866069	-0.867414	-0.067592	31.7016	-0.864470	-3.362112E+11	2.010390E-13	NaN
296	1.000000	0.170432	7.36796e+06	-53439.1	955.818	-29746.6	0.000000	0.000000	6.170813	0.000899	NaN	0.000000	0.001706	0.001772	28.08	0.089700	0.002073	43.2651	-157.901	-163.741	0.059145	0.169141	-0.858040	-0.859331	0.000899	43.2651	-0.858055	-2.752957E+11	-3.265027E-15	NaN
296	1.000000	0.178419	7.36796e+06	-53439.1	955.819	-29746.6	0.000000	0.000000	6.178801	0.011768	NaN	0.000000	0.001680	0.001745	28.0801	0.056166	0.001944	28.8924	118.766	-165.035	-0.051888	0.177114	-0.850053	-0.851358	0.011768	28.8924	-0.850359	-2.165674E+11	-5.434098E-14	NaN
296	1.000000	0.186414	7.36796e+06	-53439.1	955.818	-29746.6	0.000000	0.000000	6.186796	-0.008837	NaN	0.000000	0.001677	0.001778	28.0797	0.058090	0.002013	28.8601	134.576	-163.185	0.057816	0.185111	-0.842057	-0.843361	-0.008837	28.8601	-0.841828	-1.659784E+11	5.324250E-14	NaN
296	1.000000	0.194434	7.36796e+06	-53439.1	955.819	-29746.6	0.000000	0.000000	6.194816	0.002414	NaN	0.000000	0.001680	0.001744	28.0785	0.063492	0.001983	32.0161	82.61	-167.058	0.030160	0.193127	-0.834038	-0.835344	0.002414	32.0161	-0.834094	-1.303977E+11	-1.850923E-14	NaN
296	1.000000	0.202409	7.36796e+06	-53439.1	955.819	-29746.6	0.000000	0.000000	6.202791	0.006124	NaN	0.000000	0.001659	0.001762	28.0787	0.085129	0.001997	42.6336	124.863	-167.254	-0.036038	0.201134	-0.826063	-0.827338	0.006124	42.6336	-0.826170	-1.018290E+11	-6.014201E-14	NaN
296	1.000000	0.210459	7.36796e+06	-53439.1	955.818	-29746.6	0.000000	0.000000	6.210839	-0.051787	NaN	0.000000	0.001685	0.001756	28.0786	0.059834	0.002073	28.8597	98.0768	-164.341	-0.025056	0.209179	-0.818012	-0.819292	-0.051787	28.8597	-0.816666	-7.568361E+10	6.842552E-13	NaN
296	1.000000	0.218420	7.36796e+06	-53439.1	955.818	-29746.6	0.000000	0.000000	6.218802	-0.000378	NaN	0.000000	0.001639	0.001746	28.0788	0.037382	0.001933	19.3395	34.8482	-166.725	-0.040755	0.217130	-0.810051	-0.811342	-0.000378	19.3395	-0.810037	-6.152717E+10	6.149718E-15	NaN
296	1.000000	0.226433	7.36796e+06	-53439.1	955.819	-29746.6	0.000000	0.000000	6.226816	0.030829	NaN	0.000000	0.001667	0.001773	28.0787	0.061945	0.002053	30.1732	58.9587	-166.514	0.045427	0.225165	-0.802038	-0.803307	0.030829	30.1732	-0.802805	-4.908295E+10	-6.280986E-13	NaN
296	1.000000	0.234448	7.36796e+06	-53439.1	955.819	-29746.6	0.000000	0.000000	6.234830	0.015671	NaN	0.000000	0.001653	0.001733	28.0786	0.045252	0.002026	22.3364	145.804	-164.012	0.053550	0.233190	-0.794024	-0.795281	0.015671	22.3364	-0.794550	-3.792017E+10	-4.132731E-13	NaN
296	1.000000	0.242434	7.36796e+06	-53439.1	955.819	-29746.6	0.000000	0.000000	6.242813	-0.062431	NaN	0.000000	0.001661	0.001709	28.0784	0.140419	0.002079	67.5319	-172.018	-165.406	-0.121749	0.241136	-0.786038	-0.787336	-0.062431	67.5319	-0.785344	-2.843436E+10	2.195620E-12	NaN
296	1.000000	0.250464	7.36796e+06	-53439.1	955.818	-29746.6	0.000000	0.000000	6.250845	-0.019869	NaN	0.000000	0.001652	0.001683	28.0786	0.003209	0.001913	1.677694	100.885	-161.825	-0.105791	0.249110	-0.778008	-0.779362	-0.019869	1.677694	-0.769126	-1.711655E+10	1.160778E-12	NaN
296	1.000000	0.258472	7.36796e+06	-53439.1	955.819	-29746.6	0.000000	0.000000	6.258852	-0.031529	NaN	0.000000	0.001661	0.001742	28.0789	0.031877	0.002053	15.5251	134.145	-161.395	0.006080	0.257171	-0.770000	-0.771301	-0.031529	15.5251	-0.768477	-1.677240E+10	1.879817E-12	NaN
296	1.000000	0.266415	7.36796e+06	-53439.1	955.819	-29746.6	0.000000	0.000000	6.266796	-0.015791	NaN	0.000000	0.001660	0.001727	28.0787	0.061821	0.001984	31.1657	-68.5417	-167.167	-0.039647	0.265138	-0.762056	-0.763333	-0.015791	31.1657	-0.761676	-1.355519E+10	1.164923E-12	NaN
296	1.000000	0.274459	7.36796e+06	-53439.1	955.818	-29746.6	0.000000	0.000000	6.274842	0.035402	NaN	0.000000	0.001652	0.001708	28.0786	0.084122	0.002065	40.7338	148.07	-163.691	0.103306	0.273174	-0.754013	-0.755297	0.035402	40.7338	-0.754665	-1.088193E+10	-3.253298E-12	NaN
296	1.000000	0.282457	7.36796e+06	-53439.1	955.817	-29746.6	0.000000	0.000000	6.282837	-0.038312	NaN	0.000000	0.001615	0.001682	28.0788	0.062547	0.001914	32.6781	-60.8768	-163.887	-0.052933	0.281174	-0.746014	-0.747298	-0.038312	32.6781	-0.745135	-8.072104E+9	4.746270E-12	NaN
296	1.000000	0.290486	7.36796e+06	-53439.1	955.819	-29746.6	0.000000	0.000000	6.290867	-0.015797	NaN	0.000000	0.001653	0.001703	28.0788	0.038830	0.001955	19.8606	21.1688	-163.885	0.000440	0.289159	-0.737986	-0.739313	-0.015797	19.8606	-0.737389	-6.331352E+9	2.495111E-12	NaN
296	1.000000	0.298487	7.36796e+06	-53439.1	955.818	-29746.6	0.000000	0.000000	6.298870	0.032451	NaN	0.000000	0.001640	0.001664	28.079	0.111639	0.001941	57.5141	-178.359	-164.915	0.001671	0.297158	-0.729985	-0.731314	0.032451	57.5141	-0.730408	-5.085916E+9	-6.380520E-12	NaN
296	1.000000	0.306488	7.36796e+06	-53439.1	955.818	-29746.6	0.000000	0.000000	6.306872	0.050538	NaN	0.000000	0.001649	0.001656	28.0792	0.121869	0.002119	57.5145	172.29	-166.021	0.005314	0.305140	-0.721983	-0.723332	0.050538	57.5145	-0.722642	-3.985725E+9	-1.267969E-11	NaN
296	1.000000	0.314459	7.36796e+06	-53439.1	955.819	-29746.6	0.000000	0.000000	6.314838	-0.056567	NaN	0.000000	0.001652	0.001661	28.079	0.029336	0.002006	14.6234	174.108	-163.634	-0.049199	0.313155	-0.714013	-0.715317	-0.056567	14.6234	-0.711112	-2.774734E+9	2.038661E-11	NaN
296	1.000000	0.322485	7.36796e+06	-53439.1	955.818	-29746.6	0.000000	0.000000	6.322865	-0.034747	NaN	0.000000	0.001624	0.001659	28.0789	0.070104	0.002221	31.5656	119.9	-163.701	-0.069157	0.321173	-0.705987	-0.707299	-0.034747	31.5656	-0.705161	-2.301441E+9	1.509789E-11	NaN
296	1.000000	0.330510	7.36796e+06	-53439.1	955.818	-29746.6	0.000000	0.000000	6.330889	-0.069554	NaN	0.000000	0.001667	0.001692	28.0801	0.068192	0.002032	33.5667	-168.103	-165.305	-0.064981	0.329191	-0.697961	-0.699281	-0.069554	33.5667	-0.696407	-1.747675E+9	3.979805E-11	NaN
296	1.000000	0.338477	7.36796e+06	-53439.1	955.818	-29746.6	0.000000	0.000000	6.338855	-0.097542	NaN	0.000000	0.001633	0.001680	28.0801	0.051213	0.002141	23.9254	148.943	-164.159	-0.097761	0.337176	-0.689994	-0.691295	-0.097542	23.9254	-0.686937	-1.297323E+9	7.518711E-11	NaN
296	1.000000	0.346489	7.36796e+06	-53439.1	955.818	-29746.6	0.000000	0.000000	6.346870	-0.023961	NaN	0.000000	0.001616	0.001708	28.0804	0.058778	0.002040	28.8098	-129.332	-166.744	-0.039806	0.345205	-0.681983	-0.683267	-0.023961	28.8098	-0.681359	-1.088400E+9	2.201443E-11	NaN
296	1.000000	0.354477	7.36796e+06	-53439.1	955.82	-29746.6	0.000000	0.000000	6.354857	-0.034178	NaN	0.000000	0.001695	0.001689	28.0802	0.037001	0.001905	19.4184	44.6866	-161.206	0.026313	0.353206	-0.673995	-0.675265	-0.034178	19.4184	-0.672675	-8.279394E+8	4.128119E-11	NaN
296	1.000000	0.362484	7.36796e+06	-53439.1	955.819	-29746.6	0.000000	0.000000	6.362865	-0.018644	NaN	0.000000	0.001666	0.001687	28.0802	0.121244	0.002137	56.7306	58.9468	-164.214	-0.028344	0.361200	-0.665987	-0.667272	-0.018644	56.7306	-0.665741	-6.654070E+8	2.801957E-11	NaN
296	1.000000	0.370515	7.36796e+06	-53439.1	955.818	-29746.6	0.000000	0.000000	6.370895	-0.031510	NaN	0.000000	0.001679	0.001676	28.08	0.135947	0.001986	68.445	-114.667	-166.244	-0.004055	0.369213	-0.657957	-0.659259	-0.031510	68.445	-0.657612	-5.149318E+8	6.119190E-11	NaN
296	1.000000	0.378495	7.36796e+06	-53439.1	955.819	-29746.6	0.000000	0.000000	6.378876	-0.035485	NaN	0.000000	0.001673	0.001683	28.0804	0.067294	0.002045	32.9102	-176.93	-162.154	-0.078037	0.377193	-0.649976	-0.651279	-0.035485	32.9102	-0.649168	-3.944793E+8	8.995390E-11	NaN
296	1.000000	0.386533	7.36796e+06	-53439.1	955.818	-29746.6	0.000000	0.000000	6.386917	0.037690	NaN	0.000000	0.001694	0.001673	28.0802	0.067624	0.002032	33.2726	-78.648	-164.298	0.097851	0.385199	-0.641938	-0.643272	0.037690	33.2726	-0.642788	-3.225052E+8	-1.168673E-10	NaN
296	1.000000	0.394528	7.36796e+06	-53439.1	955.819	-29746.6	0.000000	0.000000	6.394908	-0.050931	NaN	0.000000	0.001671	0.001686	28.0803	0.030220	0.002015	14.9974	-3.400092	-168.313	-0.081234	0.393149	-0.633944	-0.635323	-0.050931	14.9974	-0.631397	-2.250103E+8	2.263481E-10	NaN
296	1.000000	0.402508	7.36796e+06	-53439.1	955.819	-29746.6	0.000000	0.000000	6.402886	-0.081667	NaN	0.000000	0.001676	0.001687	28.0802	0.119683	0.002008	59.6078	174.129	-164.247	-0.077447	0.401230	-0.625964	-0.627241	-0.081667	59.6078	-0.624937	-1.834314E+8	4.452180E-10	NaN
296	1.000000	0.410496	7.36796e+06	-53439.1	955.818	-29746.6	0.000000	0.000000	6.410877	-0.000514	NaN	0.000000	0.001681	0.001654	28.0802	0.148415	0.002012	73.7476	101.305	-166.233	0.016702	0.409274	-0.617976	-0.619198	-0.000514	73.7476	-0.617971	-1.471417E+8	3.494151E-12	NaN
296	1.000000	0.418531	7.36796e+06	-53439.1	955.819	-29746.6	0.000000	0.000000	6.418913	-0.002628	NaN	0.000000	0.001662	0.001687	28.0802	0.084969	0.001911	44.4693	147.567	-166.731	-0.005193	0.417199	-0.609941	-0.611273	-0.002628	44.4693	-0.609896	-1.139429E+8	2.306032E-11	NaN
296	1.000000	0.426528	7.36796e+06	-53439.1	955.818	-29746.6	0.000000	0.000000	6.426909	-0.013343	NaN	0.000000	0.001658	0.001709	28.0799	0.044610	0.002135	20.8972	-54.3621	-165.102	-0.067368	0.425254	-0.601943	-0.603217	-0.013343	20.8972	-0.601465	-8.722276E+7	1.529717E-10	NaN
296	1.000000	0.434525	7.36796e+06	-53439.1	955.819	-29746.6	0.000000	0.000000	6.434901	-0.126309	NaN	0.000000	0.001666	0.001689	28.0802	0.089632	0.001947	46.0344	-123.508	-162.825	-0.058534	0.433244	-0.593947	-0.595227	-0.126309	46.0344	-0.591889	-6.437399E+7	1.962119E-9	NaN
296	1.000000	0.442527	7.36796e+06	-53439.1	955.819	-29746.6	0.000000	0.000000	6.442905	-0.076679	NaN	0.000000	0.001665	0.001720	28.0799	0.089714	0.002056	43.6426	-46.8321	-164.147	-0.098544	0.441208	-0.585945	-0.587264	-0.076679	43.6426	-0.584627	-5.111812E+7	1.500043E-9	NaN
296	1.000000	0.450516	7.36796e+06	-53439.1	955.818	-29746.6	0.000000	0.000000	6.450896	-0.034659	NaN	0.000000	0.001679	0.001675	28.0801	0.073609	0.001998	36.8353	-148.016	-166.6	-0.076199	0.449224	-0.577955	-0.579248	-0.034659	36.8353	-0.577250	-4.043545E+7	8.571452E-10	NaN
296	1.000000	0.458529	7.36796e+06	-53439.1	955.818	-29746.6	0.000000	0.000000	6.458910	-0.004729	NaN	0.000000	0.001678	0.001667	28.0799	0.070844	0.002101	33.7248	25.903	-164.878	-0.038751	0.457204	-0.569943	-0.571268	-0.004729	33.7248	-0.569838	-3.194421E+7	1.480238E-10	NaN
296	1.000000	0.466526	7.36796e+06	-53439.1	955.818	-29746.6	0.000000	0.000000	6.466909	0.032532	NaN	0.000000	0.001682	0.001701	28.0787	0.122256	0.001960	62.3881	-26.375	-162.958	-0.055434	0.465193	-0.561946	-0.563279	0.032532	62.3881	-0.562337	-2.515922E+7	-1.293033E-9	NaN
296	1.000000	0.474517	7.36796e+06	-53439.1	955.819	-29746.6	0.000000	0.000000	6.474897	-0.051577	NaN	0.000000	0.001607	0.001738	28.0788	0.054856	0.002061	26.6151	-146.847	-165.718	0.008283	0.473232	-0.553955	-0.555240	-0.051577	26.6151	-0.552501	-1.839056E+7	2.804542E-9	NaN
296	1.000000	0.482524	7.36796e+06	-53439.1	955.818	-29746.6	0.000000	0.000000	6.482904	-0.037944	NaN	0.000000	0.001532	0.001734	28.0788	0.034378	0.001966	17.4904	-142.154	-164.854	-0.003296	0.481225	-0.545947	-0.547247	-0.037944	17.4904	-0.544320	-1.416643E+7	2.678435E-9	NaN
296	1.000000	0.490541	7.36796e+06	-53439.1	955.818	-29746.6	0.000000	0.000000	6.490920	-0.069998	NaN	0.000000	0.001581	0.001688	28.0791	0.107039	0.001981	54.0404	-172.602	-163.31	-0.075317	0.489170	-0.537931	-0.539302	-0.069998	54.0404	-0.536959	-1.119894E+7	6.250378E-9	NaN
296	1.000000	0.498564	7.36796e+06	-53439.1	955.819	-29746.6	0.000000	0.000000	6.498944	-0.027531	NaN	0.000000	0.001564	0.001672	28.0788	0.051693	0.001903	27.1614	-169.658	-164.787	-0.026183	0.497251	-0.529908	-0.531221	-0.027531	27.1614	-0.529148	-8.72442e+06	3.155649E-9	NaN
296	1.000000	0.506584	7.36796e+06	-53439.1	955.818	-29746.6	0.000000	0.000000	6.506963	-0.063113	NaN	0.000000	0.001553	0.001699	28.0788	0.126589	0.001955	64.7435	80.2863	-162.808	-0.032059	0.505277	-0.521888	-0.523195	-0.063113	64.7435	-0.521157	-6.7559e+06	9.341898E-9	NaN
296	1.000000	0.514558	7.36796e+06	-53439.1	955.819	-29746.6	0.000000	0.000000	6.514936	-0.080896	NaN	0.000000	0.001597	0.001690	28.0788	0.034950	0.002096	16.6764	-43.8043	-164.962	-0.021390	0.513299	-0.513913	-0.515172	-0.080896	16.6764	-0.510275	-4.76705e+06	1.696979E-8	NaN
296	1.000000	0.522567	7.36796e+06	-53439.1	955.818	-29746.6	0.000000	0.000000	6.522950	0.019043	NaN	0.000000	0.001595	0.001700	28.0788	0.158227	0.001948	81.2402	60.9143	-162.245	0.015284	0.521286	-0.505904	-0.507186	0.019043	81.2402	-0.506080	-4.16679e+06	-4.570090E-9	NaN
296	1.000000	0.530555	7.36796e+06	-53439.1	955.818	-29746.6	0.000000	0.000000	6.530935	-0.030111	NaN	0.000000	0.001598	0.001726	28.0788	0.036643	0.001944	18.852	0.674778	-166.689	-0.007963	0.529294	-0.497917	-0.499178	-0.030111	18.852	-0.496719	-3.08482e+06	9.760901E-9	NaN
296	1.000000	0.538566	7.36796e+06	-53439.1	955.819	-29746.6	0.000000	0.000000	6.538945	-0.064939	NaN	0.000000	0.001620	0.001687	28.0786	0.075021	0.002103	35.6705	-51.8786	-162.531	-0.002315	0.537282	-0.489905	-0.491189	-0.064939	35.6705	-0.488540	-2.37131e+06	2.738534E-8	NaN
296	1.000000	0.546525	7.36796e+06	-53439.1	955.818	-29746.6	0.000000	0.000000	6.546907	-0.006987	NaN	0.000000	0.001630	0.001697	28.0787	0.110724	0.002040	54.2699	9.534462	-165.649	-0.003043	0.545267	-0.481946	-0.483205	-0.006987	54.2699	-0.481850	-1.9117e+06	3.654720E-9	NaN
296	1.000000	0.554575	7.36796e+06	-53439.1	955.819	-29746.6	0.000000	0.000000	6.554958	0.038535	NaN	0.000000	0.001628	0.001657	28.0789	0.035076	0.001897	18.4888	-75.2216	-164.959	-0.040975	0.553249	-0.473897	-0.475222	0.038535	18.4888	-0.475460	-1.55577e+06	-2.476891E-8	NaN
296	1.000000	0.562589	7.36796e+06	-53439.1	955.818	-29746.6	0.000000	0.000000	6.562969	-0.034474	NaN	0.000000	0.001589	0.001687	28.0785	0.117653	0.001976	59.5546	-51.3678	-162.952	0.033574	0.561279	-0.465883	-0.467193	-0.034474	59.5546	-0.465449	-1.12603e+06	3.061588E-8	NaN
296	1.000000	0.570595	7.36796e+06	-53439.1	955.818	-29746.6	0.000000	0.000000	6.570976	0.005460	NaN	0.000000	0.001619	0.001689	28.079	0.067292	0.002104	31.9805	-78.2536	-166.622	-0.019208	0.569327	-0.457877	-0.459145	0.005460	31.9805	-0.458005	-885074	-6.169409E-9	NaN
296	1.000000	0.578591	7.36796e+06	-53439.1	955.819	-29746.6	0.000000	0.000000	6.578970	-0.054994	NaN	0.000000	0.001611	0.001721	28.0789	0.142909	0.002006	71.2578	2.099174	-165.29	-0.033755	0.577276	-0.449881	-0.451196	-0.054994	71.2578	-0.449302	-667593	8.237680E-8	NaN
296	1.000000	0.586591	7.36796e+06	-53439.1	955.82	-29746.6	0.000000	0.000000	6.586973	0.008292	NaN	0.000000	0.001588	0.001773	28.0786	0.120381	0.001959	61.4461	83.8381	-163.924	0.003168	0.585278	-0.441881	-0.443194	0.008292	61.4461	-0.441982	-526419	-1.575166E-8	NaN
296	1.000000	0.594595	7.36796e+06	-53439.1	955.818	-29746.6	0.000000	0.000000	6.594974	-0.056741	NaN	0.000000	0.001608	0.001714	28.0789	0.069302	0.002012	34.44	169.378	-165.041	-0.000467	0.593281	-0.433877	-0.435191	-0.056741	34.44	-0.432641	-388525	1.460428E-7	NaN
296	1.000000	0.602600	7.36796e+06	-53439.1	955.818	-29746.6	0.000000	0.000000	6.602981	-0.028255	NaN	0.000000	0.001611	0.001731	28.08	0.062725	0.002021	31.0293	110.636	-167.308	-0.085847	0.601299	-0.425871	-0.427173	-0.028255	31.0293	-0.425188	-304755	9.271461E-8	NaN
296	1.000000	0.610604	7.36796e+06	-53439.1	955.819	-29746.6	0.000000	0.000000	6.610985	0.003032	NaN	0.000000	0.001674	0.001718	28.0801	0.077467	0.001885	41.0947	-122.742	-166.6	0.051491	0.609334	-0.417868	-0.419138	0.003032	41.0947	-0.417923	-240411	-1.261191E-8	NaN
296	1.000000	0.618610	7.36796e+06	-53439.1	955.818	-29746.6	0.000000	0.000000	6.618989	-0.069106	NaN	0.000000	0.001705	0.001687	28.0798	0.127386	0.001990	64.0241	-21.9515	-165.379	-0.065163	0.617244	-0.409862	-0.411228	-0.069106	64.0241	-0.409052	-179853	3.842334E-7	NaN
296	1.000000	0.626603	7.36796e+06	-53439.1	955.818	-29746.6	0.000000	0.000000	6.626985	-0.010009	NaN	0.000000	0.001716	0.001742	28.0801	0.041119	0.001936	21.2427	84.8302	-166.472	0.025806	0.625335	-0.401868	-0.403137	-0.010009	21.2427	-0.401515	-140473	7.125270E-8	NaN
296	1.000000	0.634596	7.36796e+06	-53439.1	955.817	-29746.6	0.000000	0.000000	6.634976	-0.028439	NaN	0.000000	0.001664	0.001740	28.0798	0.022216	0.001835	12.1061	124.779	-166.412	-0.026477	0.633334	-0.393876	-0.395137	-0.028439	12.1061	-0.392114	-103133	2.757539E-7	NaN
296	1.000000	0.642619	7.36796e+06	-53439.1	955.819	-29746.6	0.000000	0.000000	6.642995	-0.121687	NaN	0.000000	0.001702	0.001716	28.0795	0.061678	0.002129	28.9726	-78.3772	-166.669	-0.135185	0.641365	-0.385853	-0.387107	-0.121687	28.9726	-0.382703	-75624.8	1.609092E-6	NaN
296	1.000000	0.650607	7.36796e+06	-53439.1	955.819	-29746.6	0.000000	0.000000	6.650988	-0.021109	NaN	0.000000	0.001625	0.001723	28.0799	0.054720	0.002153	25.4114	132.32	-165.735	-0.041075	0.649298	-0.377865	-0.379173	-0.021109	25.4114	-0.377242	-63137.4	3.343292E-7	NaN
296	1.000000	0.658622	7.36796e+06	-53439.1	955.817	-29746.6	0.000000	0.000000	6.659002	-0.042064	NaN	0.000000	0.001632	0.001702	28.0798	0.152751	0.002108	72.4691	53.0741	-165.423	-0.047991	0.657350	-0.369849	-0.371122	-0.042064	72.4691	-0.369414	-48717.7	8.634188E-7	NaN
296	1.000000	0.666596	7.36796e+06	-53439.1	955.819	-29746.6	0.000000	0.000000	6.666975	-0.049659	NaN	0.000000	0.001668	0.001659	28.0798	0.071865	0.002118	33.9372	-153.53	-166.996	-0.067328	0.665285	-0.361876	-0.363187	-0.049659	33.9372	-0.360778	-36567.6	1.357992E-6	NaN
296	1.000000	0.674627	7.36796e+06	-53439.1	955.819	-29746.6	0.000000	0.000000	6.675005	-0.082971	NaN	0.000000	0.001653	0.001661	28.0797	0.127715	0.002079	61.4255	-24.1568	-160.947	-0.049481	0.673320	-0.353845	-0.355151	-0.082971	61.4255	-0.352832	-28059.4	2.956984E-6	NaN
296	1.000000	0.682637	7.36796e+06	-53439.1	955.819	-29746.6	0.000000	0.000000	6.683020	0.012973	NaN	0.000000	0.001637	0.001674	28.0796	0.145462	0.001919	75.8002	172.542	-158.497	-0.036191	0.681287	-0.345834	-0.347185	0.012973	75.8002	-0.345963	-22302.5	-5.816648E-7	NaN
296	1.000000	0.690611	7.36796e+06	-53439.1	955.817	-29746.6	0.000000	0.000000	6.690990	-0.066989	NaN	0.000000	0.001627	0.001686	28.0798	0.047182	0.001965	24.0079	35.6502	-168.513	-0.089767	0.689346	-0.337860	-0.339125	-0.066989	24.0079	-0.335767	-15841.6	4.228659E-6	NaN
296	1.000000	0.698636	7.36796e+06	-53439.1	955.818	-29746.6	0.000000	0.000000	6.699017	-0.029261	NaN	0.000000	0.001565	0.001636	28.0797	0.101159	0.002068	48.9074	21.2346	-164.661	-0.028684	0.697358	-0.329835	-0.331114	-0.029261	48.9074	-0.329387	-12778.2	2.289907E-6	NaN
296	1.000000	0.706635	7.36796e+06	-53439.1	955.818	-29746.6	0.000000	0.000000	6.707012	-0.118566	NaN	0.000000	0.001586	0.001660	28.0798	0.057989	0.001951	29.7213	5.327615	-168.421	-0.127793	0.705358	-0.321837	-0.323114	-0.118566	29.7213	-0.318845	-8946.05	1.325342E-5	NaN
296	1.000000	0.714628	7.36796e+06	-53439.1	955.819	-29746.6	0.000000	0.000000	6.715008	-0.041177	NaN	0.000000	0.001596	0.001638	28.0798	0.025358	0.001978	12.8196	-66.9171	-162.114	-0.033038	0.713341	-0.313843	-0.315131	-0.041177	12.8196	-0.311434	-6954.65	5.920838E-6	NaN
296	1.000000	0.722655	7.36796e+06	-53439.1	955.819	-29746.6	0.000000	0.000000	6.723032	-0.093740	NaN	0.000000	0.001619	0.001673	28.0798	0.156909	0.001942	80.7902	23.8476	-162.086	0.028603	0.721392	-0.305817	-0.307080	-0.093740	80.7902	-0.304947	-5573.99	1.681741E-5	NaN
296	1.000000	0.730638	7.36796e+06	-53439.1	955.818	-29746.6	0.000000	0.000000	6.731020	0.026577	NaN	0.000000	0.001608	0.001662	28.0796	0.077245	0.001894	40.7902	-80.2648	-163.705	-0.067924	0.729369	-0.297834	-0.299103	0.026577	40.7902	-0.298323	-4442.75	-5.982021E-6	NaN
296	1.000000	0.738671	7.36796e+06	-53439.1	955.818	-29746.6	0.000000	0.000000	6.739050	-0.062926	NaN	0.000000	0.001596	0.001675	28.0785	0.058923	0.002008	29.3435	147.741	-167.148	0.000139	0.737374	-0.289800	-0.291098	-0.062926	29.3435	-0.288192	-3134.71	2.007383E-5	NaN
296	1.000000	0.746641	7.36796e+06	-53439.1	955.818	-29746.6	0.000000	0.000000	6.747020	-0.060630	NaN	0.000000	0.001596	0.001649	28.0785	0.064868	0.001988	32.6243	-123.977	-168.904	-0.049671	0.745355	-0.281831	-0.283116	-0.060630	32.6243	-0.280437	-2396.41	2.530033E-5	NaN
296	1.000000	0.754688	7.36796e+06	-53439.1	955.818	-29746.6	0.000000	0.000000	6.755066	-0.090962	NaN	0.000000	0.001611	0.001659	28.0784	0.048222	0.002038	23.663	-152.075	-165.487	-0.072267	0.753361	-0.273784	-0.275111	-0.090962	23.663	-0.270901	-1718.82	5.292135E-5	NaN
296	1.000000	0.762669	7.36796e+06	-53439.1	955.818	-29746.6	0.000000	0.000000	6.763051	0.019266	NaN	0.000000	0.001623	0.001643	28.0786	0.071883	0.002023	35.529	90.3423	-162.518	0.014777	0.761344	-0.265803	-0.267128	0.019266	35.529	-0.266210	-1458.28	-1.321119E-5	NaN
296	1.000000	0.770679	7.36796e+06	-53439.1	955.818	-29746.6	0.000000	0.000000	6.771061	0.011769	NaN	0.000000	0.001609	0.001645	28.0785	0.064438	0.002108	30.5693	-133.399	-160.925	0.048683	0.769410	-0.257793	-0.259061	0.011769	30.5693	-0.258082	-1095.19	-1.074624E-5	NaN
296	1.000000	0.778693	7.36796e+06	-53439.1	955.819	-29746.6	0.000000	0.000000	6.779073	-0.040346	NaN	0.000000	0.001570	0.001670	28.0786	0.156845	0.001968	79.6921	-173.285	-166.032	-0.149851	0.777338	-0.249778	-0.251134	-0.040346	79.6921	-0.249399	-804.752	5.013486E-5	NaN
296	1.000000	0.786671	7.36796e+06	-53439.1	955.819	-29746.6	0.000000	0.000000	6.787055	0.060220	NaN	0.000000	0.001589	0.001665	28.0784	0.125154	0.001974	63.4013	-169.031	-166.011	0.005064	0.785376	-0.241801	-0.243096	0.060220	63.4013	-0.242513	-629.153	-9.571666E-5	NaN
296	1.000000	0.794682	7.36796e+06	-53439.1	955.819	-29746.6	0.000000	0.000000	6.795063	-0.028826	NaN	0.000000	0.001583	0.001640	28.0784	0.052436	0.002071	25.3191	-143.585	-163.048	-0.063380	0.793367	-0.233789	-0.235105	-0.028826	25.3191	-0.232936	-445.445	6.471303E-5	NaN
296	1.000000	0.802703	7.36796e+06	-53439.1	955.818	-29746.6	0.000000	0.000000	6.803081	-0.097804	NaN	0.000000	0.001595	0.001677	28.0787	0.086326	0.001941	44.467	153.849	-167.37	-0.001489	0.801374	-0.225768	-0.227098	-0.097804	44.467	-0.224119	-323.097	0.000303	NaN
296	1.000000	0.810695	7.36796e+06	-53439.1	955.819	-29746.6	0.000000	0.000000	6.811076	-0.018328	NaN	0.000000	0.001593	0.001697	28.0786	0.016783	0.002036	8.243646	114.361	-164.674	-0.096949	0.809427	-0.217777	-0.219045	-0.018328	8.243646	-0.216109	-240.626	7.616635E-5	NaN
296	1.000000	0.818752	7.36796e+06	-53439.1	955.818	-29746.6	0.000000	0.000000	6.819131	-0.072626	NaN	0.000000	0.001588	0.001640	28.0784	0.037980	0.002066	18.3834	88.5279	-164.14	-0.014341	0.817371	-0.209720	-0.211101	-0.072626	18.3834	-0.206757	-169.894	0.000427	NaN
296	1.000000	0.826700	7.36796e+06	-53439.1	955.818	-29746.6	0.000000	0.000000	6.827077	-0.104527	NaN	0.000000	0.001605	0.001675	28.0786	0.077065	0.002031	37.9518	-97.4506	-164.439	-0.051721	0.825337	-0.201772	-0.203135	-0.104527	37.9518	-0.199706	-130.278	0.000802	NaN
296	1.000000	0.834698	7.36796e+06	-53439.1	955.818	-29746.6	0.000000	0.000000	6.835078	-0.036491	NaN	0.000000	0.001635	0.001689	28.0786	0.046739	0.001991	23.4779	-6.952838	-161.974	-0.032330	0.833411	-0.193774	-0.195060	-0.036491	23.4779	-0.192608	-99.427	0.000367	NaN
296	1.000000	0.842715	7.36796e+06	-53439.1	955.818	-29746.6	0.000000	0.000000	6.843095	-0.025160	NaN	0.000000	0.001619	0.001664	28.0794	0.036105	0.002043	17.6701	135.612	-165.156	-0.008734	0.841374	-0.185757	-0.187097	-0.025160	17.6701	-0.184689	-73.2639	0.000343	NaN
296	1.000000	0.850713	7.36796e+06	-53439.1	955.819	-29746.6	0.000000	0.000000	6.851094	0.003359	NaN	0.000000	0.001592	0.001684	28.0784	0.050228	0.001975	25.4379	-174.349	-166.446	0.038625	0.849349	-0.177759	-0.179123	0.003359	25.4379	-0.177858	-56.0985	-5.988203E-5	NaN
296	1.000000	0.858696	7.36796e+06	-53439.1	955.818	-29746.6	0.000000	0.000000	6.859076	-0.031825	NaN	0.000000	0.001585	0.001652	28.0789	0.027193	0.001929	14.096	-28.5089	-163.48	0.032623	0.857373	-0.169776	-0.171099	-0.031825	14.096	-0.168082	-38.0404	0.000837	NaN
296	1.000000	0.866742	7.36796e+06	-53439.1	955.819	-29746.6	0.000000	0.000000	6.867123	-0.020412	NaN	0.000000	0.001571	0.001639	28.0784	0.030738	0.002190	14.0326	-124.265	-164.86	0.035589	0.865382	-0.161730	-0.163089	-0.020412	14.0326	-0.160639	-28.1402	0.000725	NaN
296	1.000000	0.874711	7.36796e+06	-53439.1	955.819	-29746.6	0.000000	0.000000	6.875089	-0.073907	NaN	0.000000	0.001603	0.001698	28.0798	0.060929	0.002090	29.1517	48.4262	-164.534	-0.004068	0.873397	-0.153761	-0.155074	-0.073907	29.1517	-0.151860	-19.581	0.003774	NaN
296	1.000000	0.882701	7.36796e+06	-53439.1	955.817	-29746.6	0.000000	0.000000	6.883082	-0.016447	NaN	0.000000	0.001608	0.001633	28.08	0.125326	0.001888	66.3652	16.3907	-162.483	0.034605	0.881419	-0.145770	-0.147053	-0.016447	66.3652	-0.145584	-15.0304	0.001094	NaN
296	1.000000	0.890686	7.36796e+06	-53439.1	955.819	-29746.6	0.000000	0.000000	6.891067	0.005762	NaN	0.000000	0.001581	0.001665	28.0796	0.040282	0.002165	18.6095	157.115	-165.176	-0.046350	0.889423	-0.137786	-0.139049	0.005762	18.6095	-0.138018	-10.8549	-0.000531	NaN
296	1.000000	0.898757	7.36796e+06	-53439.1	955.818	-29746.6	0.000000	0.000000	6.899139	0.023017	NaN	0.000000	0.001607	0.001642	28.0799	0.023948	0.001894	12.642	-99.5278	-166.158	-0.036832	0.897386	-0.129715	-0.131086	0.023017	12.642	-0.131080	-7.997599	-0.002878	NaN
296	1.000000	0.906727	7.36796e+06	-53439.1	955.818	-29746.6	0.000000	0.000000	6.907110	0.041589	NaN	0.000000	0.001603	0.001642	28.0795	0.094087	0.001991	47.2451	64.3913	-166.404	-0.071934	0.905433	-0.121745	-0.123039	0.041589	47.2451	-0.122405	-5.399915	-0.007702	NaN
296	1.000000	0.914752	7.36796e+06	-53439.1	955.818	-29746.6	0.000000	0.000000	6.915133	-0.010004	NaN	0.000000	0.001572	0.001660	28.0797	0.026223	0.001968	13.3244	2.075107	-165.05	0.005329	0.913464	-0.113720	-0.115008	-0.010004	13.3244	-0.113157	-3.499105	0.002859	NaN
296	1.000000	0.922745	7.36796e+06	-53439.1	955.819	-29746.6	0.000000	0.000000	6.923127	0.006742	NaN	0.000000	0.001595	0.001671	28.0795	0.052215	0.002060	25.3437	80.2645	-164.115	-0.104171	0.921406	-0.105727	-0.107066	0.006742	25.3437	-0.105926	-2.461120	-0.002739	NaN
296	1.000000	0.930714	7.36796e+06	-53439.1	955.819	-29746.6	0.000000	0.000000	6.931091	-0.104987	NaN	0.000000	0.001609	0.001685	28.0796	0.124206	0.002010	61.7923	-110.315	-164.98	-0.159319	0.929498	-0.097758	-0.098974	-0.104987	61.7923	-0.096484	-1.524347	0.068873	NaN
296	1.000000	0.938749	7.36796e+06	-53439.1	955.819	-29746.6	0.000000	0.000000	6.939133	0.070301	NaN	0.000000	0.001595	0.001681	28.08	0.040407	0.002017	20.0305	60.323	-164.869	0.092240	0.937463	-0.089723	-0.091009	0.070301	20.0305	-0.092355	-1.226571	-0.057315	NaN
296	1.000000	0.946744	7.36796e+06	-53439.1	955.817	-29746.6	0.000000	0.000000	6.947126	0.015487	NaN	0.000000	0.001649	0.001658	28.0796	0.058327	0.002045	28.5283	122.243	-165.723	0.012137	0.945383	-0.081728	-0.083088	0.015487	28.5283	-0.082135	-0.699352	-0.022145	NaN
296	1.000000	0.954750	7.36796e+06	-53439.1	955.819	-29746.6	0.000000	0.000000	6.955131	-0.011904	NaN	0.000000	0.001607	0.001664	28.0797	0.044584	0.001970	22.6287	70.7133	-164.812	-0.011101	0.953460	-0.073722	-0.075011	-0.011904	22.6287	-0.073327	-0.417825	0.028490	NaN
296	1.000000	0.962733	7.36796e+06	-53439.1	955.819	-29746.6	0.000000	0.000000	6.963115	0.003214	NaN	0.000000	0.001618	0.001663	28.0796	0.052150	0.002051	25.4285	1.262554	-164.239	-0.052097	0.961464	-0.065739	-0.067007	0.003214	25.4285	-0.065834	-0.262804	-0.012230	NaN
296	1.000000	0.970735	7.36796e+06	-53439.1	955.819	-29746.6	0.000000	0.000000	6.971116	-0.026302	NaN	0.000000	0.001577	0.001668	28.0796	0.085023	0.002046	41.5504	-162.533	-165.864	-0.039946	0.969483	-0.057736	-0.058989	-0.026302	41.5504	-0.057261	-0.150058	0.175279	NaN
296	1.000000	0.978733	7.36796e+06	-53439.1	955.819	-29746.6	0.000000	0.000000	6.979115	0.009944	NaN	0.000000	0.001584	0.001676	28.0801	0.065373	0.002126	30.7492	36.348	-166.196	-0.010463	0.977446	-0.049739	-0.051026	0.009944	30.7492	-0.049981	-0.091131	-0.109116	NaN
296	1.000000	0.986758	7.36796e+06	-53439.1	955.819	-29746.6	0.000000	0.000000	6.987138	-0.025981	NaN	0.000000	0.001622	0.001694	28.0795	0.042447	0.002016	21.0531	-49.8271	-164.089	0.057863	0.985473	-0.041714	-0.042999	-0.025981	21.0531	-0.040789	-0.047789	0.543669	NaN
296	1.000000	0.994743	7.36796e+06	-53439.1	955.819	-29746.6	0.000000	0.000000	6.995123	-0.030610	NaN	0.000000	0.001591	0.001697	28.0797	0.060805	0.001970	30.8727	-6.134980	-161.633	-0.076828	0.993481	-0.033729	-0.034991	-0.030610	30.8727	-0.032985	-0.027970	1.094354	NaN
296	1.000000	1.002775	7.36796e+06	-53439.1	955.819	-29746.6	0.000000	0.000000	7.003157	0.012295	NaN	0.000000	0.001608	0.001687	28.0797	0.099720	0.001964	50.7651	-162.808	-162.246	0.036869	1.001435	-0.025696	-0.027037	0.012295	50.7651	-0.025878	-0.017790	-0.691130	NaN
296	1.000000	1.010776	7.36796e+06	-53439.1	955.82	-29746.6	0.000000	0.000000	7.011156	-0.025755	NaN	0.000000	0.001619	0.001649	28.0783	0.072536	0.001957	37.067	53.1461	-165.918	0.028678	1.009481	-0.017696	-0.018991	-0.025755	37.067	-0.017175	-0.010623	2.424585	NaN
296	1.000000	1.018789	7.36796e+06	-53439.1	955.82	-29746.6	0.000000	0.000000	7.019168	-0.068077	NaN	0.000000	0.001582	0.001661	28.0784	0.081621	0.001890	43.1958	176.179	-169.235	-0.095481	1.017421	-0.009683	-0.011051	-0.068077	43.1958	-0.008501	-0.005524	12.3244	NaN
296	1.000000	1.026774	7.36796e+06	-53439.1	955.82	-29746.6	0.000000	0.000000	7.027153	-0.048834	NaN	0.000000	0.001585	0.001677	28.0783	0.077802	0.002076	37.4799	-44.2857	-165.694	-0.018578	1.025501	-0.001698	-0.002971	-0.048834	37.4799	-0.000721	-0.000531	91.931	NaN
296	1.000000	1.034762	7.36796e+06	-53439.1	955.82	-29746.6	0.000000	0.000000	7.035348	4.971170	NaN	0.000000	0.001588	0.001683	28.0784	5.906119	0.001794	3292.38	17.5247	-174.163	4.048428	1.033416	0.006290	0.004944	4.971170	3292.38	0.005157	0.004278	1162.16	45992.4
296	2.000000	1.039377	7.36796e+06	-53439.1	955.819	-29746.6	0.000000	0.000000	7.040148	9.482397	NaN	0.000000	0.001605	0.001701	28.0784	10.3201	0.001710	6034.04	7.660722	-174.989	8.780907	1.039119	0.010905	0.010647	9.482397	6034.04	0.009726	0.008879	1067.96	58506
296	2.000000	1.041348	7.36796e+06	-53439.1	955.819	-29746.6	0.000000	0.000000	7.042278	13.3445	NaN	0.000000	0.001614	0.001675	28.0785	12.2326	0.001641	7452.36	6.727054	-174.664	13.6248	1.041017	0.012876	0.012546	13.3445	7452.36	0.011533	0.010936	1220.29	65110
296	2.000000	1.043334	7.36796e+06	-53439.1	955.819	-29746.6	0.000000	0.000000	7.044350	15.4231	NaN	0.000000	0.001604	0.001639	28.0783	14.7887	0.001814	8152.42	7.468920	-175.028	15.4647	1.043007	0.014863	0.014536	15.4231	8152.42	0.013444	0.013266	1162.62	64668.3
296	2.000000	1.045327	7.36796e+06	-53439.1	955.819	-29746.6	0.000000	0.000000	7.046449	17.9939	NaN	0.000000	0.001586	0.001663	28.0782	16.7128	0.001813	9217	7.200768	-174.541	17.2505	1.045036	0.016855	0.016564	17.9939	9217	0.015391	0.015811	1138.09	66971.4
296	2.000000	1.047296	7.36796e+06	-53439.1	955.82	-29746.6	0.000000	0.000000	7.048517	20.3931	NaN	0.000000	0.001588	0.001657	28.0783	18.5085	0.001690	10954.8	5.984906	-177.82	19.2213	1.047003	0.018825	0.018531	20.3931	10954.8	0.017428	0.018661	1092.81	73266.7
296	2.000000	1.049304	7.36796e+06	-53439.1	955.82	-29746.6	0.000000	0.000000	7.050659	23.6617	NaN	0.000000	0.001616	0.001665	28.0783	21.5511	0.002026	10636.2	8.414518	-177.608	24.5255	1.048999	0.020833	0.020528	23.6617	10636.2	0.019164	0.021246	1113.7	66668.2
296	2.000000	1.051295	7.36796e+06	-53439.1	955.82	-29746.6	0.000000	0.000000	7.052837	28.2143	NaN	0.000000	0.001600	0.001672	28.0782	22.7186	0.001886	12043.6	3.487780	-174.034	28.6653	1.051020	0.022824	0.022548	28.2143	12043.6	0.021067	0.024246	1163.66	70665.7
296	2.000000	1.053319	7.36796e+06	-53439.1	955.82	-29746.6	0.000000	0.000000	7.055020	32.0786	NaN	0.000000	0.001589	0.001665	28.0784	24.8233	0.001891	13127.2	9.051089	-179.255	34.5107	1.052954	0.024847	0.024482	32.0786	13127.2	0.023015	0.027502	1166.39	72320.2
296	2.000000	1.055322	7.36796e+06	-53439.1	955.82	-29746.6	0.000000	0.000000	7.057226	37.0088	NaN	0.000000	0.001546	0.001647	28.0781	26.669	0.001786	14934	5.312208	-177.032	38.1009	1.054964	0.026851	0.026492	37.0088	14934	0.024992	0.031001	1193.78	77492.3
296	2.000000	1.057231	7.36796e+06	-53439.1	955.82	-29746.6	0.000000	0.000000	7.059302	41.0741	NaN	0.000000	0.001602	0.001669	28.078	28.4691	0.001762	16155.2	6.701624	179.005	39.0102	1.056960	0.028760	0.028489	41.0741	16155.2	0.026853	0.034473	1191.5	79496.6
296	2.000000	1.059258	7.36796e+06	-53439.1	955.82	-29746.6	0.000000	0.000000	7.061492	45.0441	NaN	0.000000	0.001600	0.001640	28.0782	30.356	0.001793	16932.1	5.139373	179.402	43.5583	1.059036	0.030786	0.030564	45.0441	16932.1	0.028791	0.038275	1176.87	79073
296	2.000000	1.061273	7.36796e+06	-53439.1	955.819	-29746.6	0.000000	0.000000	7.063743	50.7678	NaN	0.000000	0.001610	0.001641	28.0781	32.4978	0.001792	18134.9	7.735641	176.588	50.1332	1.060930	0.032802	0.032458	50.7678	18134.9	0.030702	0.042212	1202.69	80644.1
296	2.000000	1.063238	7.36796e+06	-53439.1	955.82	-29746.6	0.000000	0.000000	7.065984	57.4884	NaN	0.000000	0.001590	0.001655	28.079	33.0396	0.001746	18923	3.276189	-178.901	56.0603	1.062917	0.034766	0.034445	57.4884	18923	0.032488	0.046058	1248.19	80558.7
296	2.000000	1.065289	7.36796e+06	-53439.1	955.819	-29746.6	0.000000	0.000000	7.068284	63.5421	NaN	0.000000	0.001593	0.001639	28.0795	35.3769	0.001796	19694.1	9.654195	177.381	64.5348	1.064914	0.036817	0.036442	63.5421	19694.1	0.034397	0.050352	1261.95	80186.2
296	2.000000	1.067225	7.36796e+06	-53439.1	955.82	-29746.6	0.000000	0.000000	7.070363	67.0078	NaN	0.000000	0.001611	0.001641	28.0793	37.1711	0.001780	20882.5	6.306077	177.023	65.4903	1.066850	0.038754	0.038379	67.0078	20882.5	0.036347	0.054929	1219.9	81405.5
296	2.000000	1.069199	7.36796e+06	-53439.1	955.819	-29746.6	0.000000	0.000000	7.072639	74.3687	NaN	0.000000	0.001593	0.001669	28.0795	39.9429	0.001770	22571.4	5.814597	176.218	71.6448	1.069007	0.040727	0.040535	74.3687	22571.4	0.038256	0.059599	1247.81	84471.7
296	2.000000	1.071304	7.36796e+06	-53439.1	955.82	-29746.6	0.000000	0.000000	7.075028	81.2614	NaN	0.000000	0.001601	0.001665	28.0798	40.7641	0.001810	22518.7	6.547811	176.412	83.2441	1.070972	0.042833	0.042501	81.2614	22518.7	0.040126	0.064355	1262.71	81101
296	2.000000	1.073243	7.36796e+06	-53439.1	955.819	-29746.6	0.000000	0.000000	7.077307	89.5263	NaN	0.000000	0.001615	0.001685	28.0807	43.5878	0.001849	23575.3	6.687447	176.184	88.145	1.072846	0.044771	0.044374	89.5263	23575.3	0.041923	0.069092	1295.75	81943.9
296	2.000000	1.075199	7.36796e+06	-53439.1	955.82	-29746.6	0.000000	0.000000	7.079588	97.4323	NaN	0.000000	0.001590	0.001681	28.0795	44.363	0.001701	26081.8	1.091073	-179.742	92.4159	1.074953	0.046727	0.046481	97.4323	26081.8	0.043925	0.074565	1306.67	87265.3
296	2.000000	1.077210	7.36796e+06	-53439.1	955.821	-29746.6	0.000000	0.000000	7.081733	100.701	NaN	0.000000	0.001577	0.001644	28.0795	46.6028	0.001788	26066.5	4.313391	176.87	98.9515	1.076870	0.048738	0.048398	100.701	26066.5	0.045841	0.079992	1258.89	84204.1
296	2.000000	1.079194	7.36796e+06	-53439.1	955.819	-29746.6	0.000000	0.000000	7.084160	111.463	NaN	0.000000	0.001632	0.001662	28.0795	48.586	0.001745	27850.8	0.983149	179.281	108.629	1.078921	0.050723	0.050449	111.463	27850.8	0.047721	0.085499	1303.67	87022.3
296	2.000000	1.081146	7.36796e+06	-53439.1	955.819	-29746.6	0.000000	0.000000	7.086433	119.274	NaN	0.000000	0.001630	0.001648	28.0796	49.3841	0.001558	31704.9	0.973880	178.172	116.804	1.080870	0.052674	0.052398	119.274	31704.9	0.049853	0.091958	1297.05	95522.3
296	2.000000	1.083217	7.36796e+06	-53439.1	955.821	-29746.6	0.000000	0.000000	7.088876	128.325	NaN	0.000000	0.001623	0.001641	28.0801	52.6865	0.001724	30563.2	4.414952	175.405	127.748	1.082916	0.054745	0.054444	128.325	30563.2	0.051596	0.097410	1317.38	89468.7
296	2.000000	1.085247	7.36796e+06	-53439.1	955.82	-29746.6	0.000000	0.000000	7.091297	137.798	NaN	0.000000	0.001566	0.001613	28.0795	55.055	0.001810	30421.1	5.524488	175.061	136.676	1.084962	0.056776	0.056491	137.798	30421.1	0.053378	0.103140	1336.02	86543.3
296	2.000000	1.087190	7.36796e+06	-53439.1	955.82	-29746.6	0.000000	0.000000	7.093644	147.632	NaN	0.000000	0.001558	0.001684	28.0795	56.997	0.001813	31438.1	3.167119	176.348	145.993	1.086881	0.058718	0.058409	147.632	31438.1	0.055196	0.109148	1352.58	86940.3
296	2.000000	1.089232	7.36796e+06	-53439.1	955.82	-29746.6	0.000000	0.000000	7.095860	151.879	NaN	0.000000	0.001593	0.001652	28.0795	60.5123	0.001722	35147.4	2.948319	175.374	151.604	1.088979	0.060760	0.060507	151.879	35147.4	0.057519	0.117062	1297.42	93855
296	2.000000	1.091273	7.36796e+06	-53439.1	955.821	-29746.6	0.000000	0.000000	7.098334	162.397	NaN	0.000000	0.001600	0.001671	28.0796	61.6629	0.001754	35161.5	5.803572	173.06	166.582	1.090972	0.062801	0.062501	162.397	35161.5	0.059337	0.123443	1315.57	91433.9
296	2.000000	1.093124	7.36796e+06	-53439.1	955.821	-29746.6	0.000000	0.000000	7.100647	173.619	NaN	0.000000	0.001608	0.001680	28.0795	64.6146	0.001809	35724.6	4.302063	174.75	169.145	1.092806	0.064652	0.064334	173.619	35724.6	0.061008	0.129446	1341.24	90718.5
296	2.000000	1.095202	7.36796e+06	-53439.1	955.82	-29746.6	0.000000	0.000000	7.103156	184.103	NaN	0.000000	0.001616	0.001656	28.0799	65.2354	0.001706	38243.9	-0.165169	178.958	181.675	1.094863	0.066730	0.066391	184.103	38243.9	0.063120	0.137233	1341.53	94320.3
296	2.000000	1.097218	7.36796e+06	-53439.1	955.82	-29746.6	0.000000	0.000000	7.105509	192.296	NaN	0.000000	0.001609	0.001636	28.0795	67.1305	0.001913	35093	3.487376	176.046	190.775	1.096809	0.068746	0.068337	192.296	35093	0.064637	0.142958	1345.12	84798.6
296	2.000000	1.099305	7.36796e+06	-53439.1	955.821	-29746.6	0.000000	0.000000	7.107964	201.236	NaN	0.000000	0.001588	0.001667	28.0785	69.3917	0.001753	39576.3	6.486098	171.981	205.529	1.098879	0.070833	0.070407	201.236	39576.3	0.067020	0.152177	1322.38	92690.2
296	2.000000	1.101229	7.36796e+06	-53439.1	955.82	-29746.6	0.000000	0.000000	7.110528	216.794	NaN	0.000000	0.001582	0.001669	28.0784	70.8682	0.001724	41097.4	3.522285	174.152	219.048	1.100862	0.072758	0.072390	216.794	41097.4	0.068801	0.159246	1361.38	94092.1
296	2.000000	1.103229	7.36796e+06	-53439.1	955.82	-29746.6	0.000000	0.000000	7.113007	228.437	NaN	0.000000	0.001576	0.001667	28.0786	72.3337	0.001827	39595.4	6.043621	173.066	229.759	1.102868	0.074758	0.074396	228.437	39595.4	0.070431	0.165844	1377.42	88831.6
296	2.000000	1.105172	7.36796e+06	-53439.1	955.82	-29746.6	0.000000	0.000000	7.115498	241.771	NaN	0.000000	0.001569	0.001689	28.0787	75.3612	0.001831	41150.2	8.108786	170.459	239.125	1.104752	0.076701	0.076280	241.771	41150.2	0.072294	0.173545	1393.13	90248.3
296	2.000000	1.107177	7.36796e+06	-53439.1	955.82	-29746.6	0.000000	0.000000	7.117768	248.221	NaN	0.000000	0.001602	0.001681	28.0786	75.8145	0.001839	41221.2	6.345054	172.716	248.138	1.106880	0.078705	0.078409	248.221	41221.2	0.074189	0.181545	1367.27	88389.7
296	2.000000	1.109127	7.36796e+06	-53439.1	955.82	-29746.6	0.000000	0.000000	7.120343	263.426	NaN	0.000000	0.001570	0.001654	28.0787	77.6798	0.001733	44819.8	1.694841	175.209	258.59	1.108898	0.080655	0.080426	263.426	44819.8	0.076247	0.190424	1383.36	93838.8
296	2.000000	1.111257	7.36796e+06	-53439.1	955.82	-29746.6	0.000000	0.000000	7.123001	276.236	NaN	0.000000	0.001587	0.001631	28.0785	79.3184	0.001731	45820.9	7.559336	169.489	278.442	1.110883	0.082786	0.082411	276.236	45820.9	0.078264	0.199320	1385.89	93769.3
296	2.000000	1.113135	7.36796e+06	-53439.1	955.82	-29746.6	0.000000	0.000000	7.125245	285.163	NaN	0.000000	0.001612	0.001724	28.0788	82.3588	0.001713	48088.7	3.941788	172.703	283.053	1.112961	0.084663	0.084489	285.163	48088.7	0.080216	0.208109	1370.26	96310.1
296	2.000000	1.115238	7.36796e+06	-53439.1	955.82	-29746.6	0.000000	0.000000	7.127939	299.5	NaN	0.000000	0.001576	0.001696	28.0787	85.0199	0.001792	47431.2	6.688558	169.968	298.957	1.114858	0.086767	0.086386	299.5	47431.2	0.082031	0.216441	1383.75	93146.8
296	2.000000	1.117199	7.36796e+06	-53439.1	955.82	-29746.6	0.000000	0.000000	7.130380	311.172	NaN	0.000000	0.001576	0.001671	28.079	86.5348	0.001724	50188.5	6.006236	170.138	310.921	1.116893	0.088728	0.088421	311.172	50188.5	0.084078	0.226021	1376.74	96450.2
296	2.000000	1.119317	7.36796e+06	-53439.1	955.821	-29746.6	0.000000	0.000000	7.132701	316.115	NaN	0.000000	0.001583	0.001682	28.0788	89.5461	0.001802	49696.8	2.785173	174.337	325.705	1.119022	0.090845	0.090550	316.115	49696.8	0.086075	0.235555	1342	93552.4
296	2.000000	1.121207	7.36796e+06	-53439.1	955.82	-29746.6	0.000000	0.000000	7.135852	346.789	NaN	0.000000	0.001584	0.001627	28.0787	90.571	0.001818	49819.7	4.983259	171.492	348.05	1.120795	0.092735	0.092324	346.789	49819.7	0.087514	0.242541	1429.81	92423.3
296	2.000000	1.123121	7.36796e+06	-53439.1	955.82	-29746.6	0.000000	0.000000	7.138004	352.563	NaN	0.000000	0.001554	0.001653	28.0789	93.2741	0.001836	50816.6	5.924008	170.09	349.316	1.122891	0.094649	0.094419	352.563	50816.6	0.089446	0.252064	1398.7	92474.7
296	2.000000	1.125207	7.36796e+06	-53439.1	955.82	-29746.6	0.000000	0.000000	7.141011	374.96	NaN	0.000000	0.001558	0.001652	28.0785	94.5156	0.001725	54791	4.939731	171.286	374.777	1.124792	0.096735	0.096320	374.96	54791	0.091603	0.262902	1426.24	97630.6
296	2.000000	1.127135	7.36796e+06	-53439.1	955.82	-29746.6	0.000000	0.000000	7.143406	386.316	NaN	0.000000	0.001607	0.001676	28.0785	95.3269	0.001805	52824.4	3.367285	172.439	382.441	1.126804	0.098664	0.098332	386.316	52824.4	0.093179	0.270955	1425.75	92716.9
296	2.000000	1.129209	7.36796e+06	-53439.1	955.821	-29746.6	0.000000	0.000000	7.145790	393.852	NaN	0.000000	0.001605	0.001667	28.0786	98.8455	0.001686	58630.3	3.264218	171.188	393.37	1.129028	0.100737	0.100556	393.852	58630.3	0.095699	0.284071	1386.46	100504
296	2.000000	1.131225	7.36796e+06	-53439.1	955.82	-29746.6	0.000000	0.000000	7.148711	415.857	NaN	0.000000	0.001602	0.001684	28.0782	99.5562	0.001734	57419	4.915570	171.361	419.495	1.130933	0.102753	0.102461	415.857	57419	0.097321	0.292666	1420.93	96971.3
296	2.000000	1.133238	7.36796e+06	-53439.1	955.821	-29746.6	0.000000	0.000000	7.151316	430.239	NaN	0.000000	0.001599	0.001692	28.0799	102.101	0.001789	57085.4	3.204035	172.305	435.195	1.132905	0.104766	0.104433	430.239	57085.4	0.099114	0.302300	1423.22	94859.1
296	2.000000	1.135119	7.36796e+06	-53439.1	955.82	-29746.6	0.000000	0.000000	7.153870	446.6	NaN	0.000000	0.001607	0.001651	28.0797	105.479	0.001938	54433.3	8.940260	167.223	442.407	1.134816	0.106648	0.106344	446.6	54433.3	0.100494	0.309822	1441.47	89347.3
296	2.000000	1.136689	7.36796e+06	-53439.1	955.82	-29746.6	0.000000	0.000000	7.155935	458.655	NaN	0.000000	0.001616	0.001684	28.0801	104.807	0.001740	60224.7	4.030508	-8.684691	457.87	1.136334	0.108217	0.107862	458.655	60224.7	0.102505	0.320933	1429.13	97127.1