File: remote_trans/data/nanoindenter/0828-1/data/Data_2025-08-06,11h17m57s/2025-07-22_16-23-58_1_100.txt
2025-07-22, 16:23:58, 1
Index	Phase	Displacement	Time	Pos X	Pos Y	Pos Z	Rot A	Rot B	Piezo Z	Force A	Force B	Gripper	Voltage A	Voltage B	Temperature	Amplitude force	Amplitude pos	Stiffness	Phase shift	Phase excitation	Force A raw	Displacement raw	HMax	HMax raw	Real Force	Real Stiffness	Contact Depth	Area	Hardness	Reduced Mod.
[#]	[#]	[um]	[s]	[um]	[um]	[um]	[m°]	[m°]	[um]	[uN]	[uN]	[V]	[V]	[V]	[°C]	[uN]	[um]	[N/m]	[°]	[°]	[uN]	[um]	[um]	[um]	[uN]	[N/m]	[um]	[um^2]	[MPa]	[MPa]
100	1.000000	0.002419	7.36602e+06	-43639.1	955.818	-29778.9	0.000000	0.000000	6.002833	-0.029603	NaN	0.000000	0.001657	0.001603	28.093	0.065779	0.000963	68.3263	-168.496	-164.463	0.030964	0.001115	-1.074832	-1.076136	-0.029603	68.3263	-1.074507	-2.278938E+14	1.298981E-16	NaN
100	1.000000	0.010357	7.36602e+06	-43639.1	955.818	-29778.9	0.000000	0.000000	6.010774	0.026956	NaN	0.000000	0.001647	0.001640	28.0919	0.063530	0.000893	71.1555	-12.7311	-160.47	-0.021773	0.009083	-1.066894	-1.068168	0.026956	71.1555	-1.067178	-1.816649E+14	-1.483847E-16	NaN
100	1.000000	0.018328	7.36602e+06	-43639.1	955.818	-29778.9	0.000000	0.000000	6.018746	0.054311	NaN	0.000000	0.001630	0.001628	28.0919	0.009367	0.001662	5.634383	70.2262	-165.108	0.044069	0.016989	-1.058923	-1.060262	0.054311	5.634383	-1.066152	-1.759909E+14	-3.086038E-16	NaN
100	1.000000	0.026371	7.36602e+06	-43639.1	955.819	-29778.9	0.000000	0.000000	6.026785	-0.010733	NaN	0.000000	0.001599	0.001616	28.0923	0.091281	0.001817	50.2499	138.374	-165.211	0.017879	0.025042	-1.050880	-1.052209	-0.010733	50.2499	-1.050720	-1.091680E+14	9.831929E-17	NaN
100	1.000000	0.034367	7.36602e+06	-43639.1	955.818	-29778.9	0.000000	0.000000	6.034783	0.012719	NaN	0.000000	0.001605	0.001634	28.0915	0.054078	0.002069	26.1425	39.0662	-162.521	0.041742	0.033021	-1.042884	-1.044230	0.012719	26.1425	-1.043249	-8.662695E+13	-1.468261E-16	NaN
100	1.000000	0.042345	7.36602e+06	-43639.1	955.819	-29778.9	0.000000	0.000000	6.042760	-0.009187	NaN	0.000000	0.001602	0.001666	28.0914	0.024891	0.001802	13.8155	151.599	-166.658	0.047780	0.041059	-1.034906	-1.036192	-0.009187	13.8155	-1.034407	-6.588080E+13	1.394489E-16	NaN
100	1.000000	0.050345	7.36602e+06	-43639.1	955.818	-29778.9	0.000000	0.000000	6.050761	0.002906	NaN	0.000000	0.001628	0.001666	28.0906	0.089472	0.001981	45.1568	115.471	-163.072	-0.078667	0.049050	-1.026906	-1.028201	0.002906	45.1568	-1.026954	-5.230070E+13	-5.556824E-17	NaN
100	1.000000	0.058382	7.36602e+06	-43639.1	955.819	-29778.9	0.000000	0.000000	6.058797	0.007278	NaN	0.000000	0.001592	0.001622	28.0936	0.012070	0.002112	5.716007	-13.4335	-163.958	-0.024955	0.057068	-1.018869	-1.020183	0.007278	5.716007	-1.019824	-4.193610E+13	-1.735593E-16	NaN
100	1.000000	0.066314	7.36602e+06	-43639.1	955.818	-29778.9	0.000000	0.000000	6.066729	0.008977	NaN	0.000000	0.001583	0.001675	28.0931	0.067251	0.001917	35.0901	128.862	-166.125	0.028802	0.065050	-1.010937	-1.012201	0.008977	35.0901	-1.011129	-3.203150E+13	-2.802622E-16	NaN
100	1.000000	0.074379	7.36602e+06	-43639.1	955.819	-29778.9	0.000000	0.000000	6.074794	-0.000784	NaN	0.000000	0.001591	0.001647	28.0934	0.090085	0.001882	47.8578	-10.2157	-168.292	0.028068	0.073078	-1.002873	-1.004173	-0.000784	47.8578	-1.002860	-2.478997E+13	3.163954E-17	NaN
100	1.000000	0.082353	7.36602e+06	-43639.1	955.818	-29778.9	0.000000	0.000000	6.082765	-0.074026	NaN	0.000000	0.001613	0.001659	28.0913	0.112381	0.002026	55.479	81.4165	-164.655	-0.050045	0.081086	-0.994898	-0.996165	-0.074026	55.479	-0.993897	-1.877578E+13	3.942632E-15	NaN
100	1.000000	0.090366	7.36602e+06	-43639.1	955.817	-29778.9	0.000000	0.000000	6.090781	0.002709	NaN	0.000000	0.001610	0.001648	28.0912	0.048091	0.001980	24.2832	-57.5832	-164.685	-0.040468	0.089073	-0.986885	-0.988178	0.002709	24.2832	-0.986969	-1.514545E+13	-1.788448E-16	NaN
100	1.000000	0.098369	7.36602e+06	-43639.1	955.819	-29778.9	0.000000	0.000000	6.098784	-0.010692	NaN	0.000000	0.001606	0.001657	28.0916	0.088778	0.002015	44.0649	-171.988	-164.27	-0.047637	0.097022	-0.978882	-0.980229	-0.010692	44.0649	-0.978700	-1.171922E+13	9.123275E-16	NaN
100	1.000000	0.106339	7.36602e+06	-43639.1	955.818	-29778.9	0.000000	0.000000	6.106756	0.038718	NaN	0.000000	0.001599	0.001725	28.0891	0.065556	0.001947	33.6627	-14.2292	-163.936	0.115353	0.105065	-0.970912	-0.972186	0.038718	33.6627	-0.971775	-9.453191E+12	-4.095771E-15	NaN
100	1.000000	0.114351	7.36602e+06	-43639.1	955.818	-29778.9	0.000000	0.000000	6.114768	0.047191	NaN	0.000000	0.001550	0.001712	28.0907	0.051223	0.001920	26.6842	-116.165	-163.944	0.077735	0.113020	-0.962900	-0.964231	0.047191	26.6842	-0.964227	-7.479090E+12	-6.309718E-15	NaN
100	1.000000	0.122398	7.36602e+06	-43639.1	955.818	-29778.9	0.000000	0.000000	6.122814	0.018931	NaN	0.000000	0.001559	0.001675	28.0902	0.088988	0.001961	45.3696	177.861	-163.389	-0.042631	0.121061	-0.954853	-0.956191	0.018931	45.3696	-0.955166	-5.645379E+12	-3.353412E-15	NaN
100	1.000000	0.130386	7.36602e+06	-43639.1	955.818	-29778.9	0.000000	0.000000	6.130802	0.020553	NaN	0.000000	0.001585	0.001684	28.0912	0.078574	0.002043	38.4668	-129.308	-164.705	-0.019036	0.129061	-0.946865	-0.948190	0.020553	38.4668	-0.947265	-4.417176E+12	-4.652932E-15	NaN
100	1.000000	0.138367	7.36602e+06	-43639.1	955.819	-29778.9	0.000000	0.000000	6.138780	-0.053884	NaN	0.000000	0.001620	0.001691	28.092	0.091657	0.002110	43.4352	27.4868	-163.921	-0.066107	0.137053	-0.938884	-0.940199	-0.053884	43.4352	-0.937953	-3.307664E+12	1.629062E-14	NaN
100	1.000000	0.146370	7.36602e+06	-43639.1	955.818	-29778.9	0.000000	0.000000	6.146786	0.016683	NaN	0.000000	0.001587	0.001675	28.091	0.063143	0.002038	30.9797	-23.4434	-164.714	0.030437	0.145008	-0.930881	-0.932243	0.016683	30.9797	-0.931285	-2.688683E+12	-6.204959E-15	NaN
100	1.000000	0.154339	7.36602e+06	-43639.1	955.818	-29778.9	0.000000	0.000000	6.154754	-0.007723	NaN	0.000000	0.001596	0.001645	28.091	0.081415	0.001927	42.2568	-21.1254	-163.681	-0.043018	0.153071	-0.922912	-0.924180	-0.007723	42.2568	-0.922775	-2.063819E+12	3.742271E-15	NaN
100	1.000000	0.162389	7.36602e+06	-43639.1	955.818	-29778.9	0.000000	0.000000	6.162804	0.011868	NaN	0.000000	0.001593	0.001653	28.0923	0.068878	0.002034	33.8636	-30.6095	-161.84	0.083048	0.161112	-0.914862	-0.916139	0.011868	33.8636	-0.915125	-1.626977E+12	-7.294355E-15	NaN
100	1.000000	0.170381	7.36602e+06	-43639.1	955.818	-29778.9	0.000000	0.000000	6.170796	-0.002030	NaN	0.000000	0.001611	0.001696	28.0911	0.087400	0.002045	42.7463	42.871	-160.935	-0.021761	0.169122	-0.906870	-0.908129	-0.002030	42.7463	-0.906834	-1.257197E+12	1.614618E-15	NaN
100	1.000000	0.178382	7.36602e+06	-43639.1	955.818	-29778.9	0.000000	0.000000	6.178796	-0.024760	NaN	0.000000	0.001591	0.001697	28.0923	0.038548	0.002002	19.2564	-65.5793	-166.696	-0.031305	0.177072	-0.898869	-0.900179	-0.024760	19.2564	-0.897905	-9.522613E+11	2.600078E-14	NaN
100	1.000000	0.186369	7.36602e+06	-43639.1	955.818	-29778.9	0.000000	0.000000	6.186783	-0.015197	NaN	0.000000	0.001618	0.001663	28.0916	0.182029	0.002032	89.5876	170.396	-166.122	0.078195	0.185126	-0.890882	-0.892125	-0.015197	89.5876	-0.890755	-7.622880E+11	1.993614E-14	NaN
100	1.000000	0.194398	7.36602e+06	-43639.1	955.818	-29778.9	0.000000	0.000000	6.194813	-0.003119	NaN	0.000000	0.001597	0.001664	28.091	0.073814	0.002017	36.5948	162.98	-164.427	0.010074	0.193124	-0.882853	-0.884127	-0.003119	36.5948	-0.882789	-5.948718E+11	5.243796E-15	NaN
100	1.000000	0.202411	7.36602e+06	-43639.1	955.818	-29778.9	0.000000	0.000000	6.202824	-0.055542	NaN	0.000000	0.001584	0.001694	28.0917	0.027606	0.002078	13.2829	55.8667	-166.8	-0.090858	0.201093	-0.874840	-0.876158	-0.055542	13.2829	-0.871704	-4.212039E+11	1.318653E-13	NaN
100	1.000000	0.210390	7.36602e+06	-43639.1	955.818	-29778.9	0.000000	0.000000	6.210806	0.027412	NaN	0.000000	0.001602	0.001656	28.0909	0.025269	0.001837	13.7582	-73.0351	-163.268	0.002356	0.209166	-0.866861	-0.868085	0.027412	13.7582	-0.868356	-3.794849E+11	-7.223559E-14	NaN
100	1.000000	0.218401	7.36602e+06	-43639.1	955.818	-29778.9	0.000000	0.000000	6.218817	0.025560	NaN	0.000000	0.001574	0.001678	28.0929	0.058755	0.002003	29.3321	-160.524	-163.943	0.008838	0.217092	-0.858850	-0.860159	0.025560	29.3321	-0.859504	-2.880102E+11	-8.874741E-14	NaN
100	1.000000	0.226426	7.36602e+06	-43639.1	955.818	-29778.9	0.000000	0.000000	6.226841	0.001101	NaN	0.000000	0.001591	0.001681	28.0932	0.089174	0.002035	43.8165	20.0625	-165.65	0.034540	0.225080	-0.850825	-0.852171	0.001101	43.8165	-0.850844	-2.198719E+11	-5.006866E-15	NaN
100	1.000000	0.234439	7.36602e+06	-43639.1	955.818	-29778.9	0.000000	0.000000	6.234856	0.038462	NaN	0.000000	0.001590	0.001651	28.0931	0.097036	0.001957	49.5712	49.1686	-165.074	-0.050734	0.233110	-0.842812	-0.844141	0.038462	49.5712	-0.843394	-1.742863E+11	-2.206840E-13	NaN
100	1.000000	0.242424	7.36602e+06	-43639.1	955.818	-29778.9	0.000000	0.000000	6.242837	-0.062708	NaN	0.000000	0.001585	0.001680	28.0943	0.039132	0.001951	20.0553	-2.886366	-165.708	-0.083229	0.241134	-0.834827	-0.836117	-0.062708	20.0553	-0.832482	-1.239990E+11	5.057104E-13	NaN
100	1.000000	0.250430	7.36602e+06	-43639.1	955.819	-29778.9	0.000000	0.000000	6.250850	0.103136	NaN	0.000000	0.001576	0.001701	28.0937	0.104464	0.002118	49.3189	164.512	-164.98	0.064002	0.249126	-0.826821	-0.828125	0.103136	49.3189	-0.828389	-1.091314E+11	-9.450636E-13	NaN
100	1.000000	0.258427	7.36602e+06	-43639.1	955.818	-29778.9	0.000000	0.000000	6.258840	-0.035437	NaN	0.000000	0.001592	0.001685	28.0926	0.014536	0.001969	7.380652	28.8064	-162.044	0.023480	0.257117	-0.818825	-0.820134	-0.035437	7.380652	-0.815224	-7.234883E+10	4.898110E-13	NaN
100	1.000000	0.266430	7.36602e+06	-43639.1	955.818	-29778.9	0.000000	0.000000	6.266845	-0.005925	NaN	0.000000	0.001586	0.001702	28.093	0.064527	0.002065	31.2414	26.5115	-163.591	-0.027840	0.265093	-0.810821	-0.812158	-0.005925	31.2414	-0.810679	-6.277383E+10	9.438120E-14	NaN
100	1.000000	0.274406	7.36602e+06	-43639.1	955.819	-29778.9	0.000000	0.000000	6.274823	0.043566	NaN	0.000000	0.001560	0.001688	28.0931	0.071174	0.001907	37.3308	111.901	-166.922	0.023602	0.273130	-0.802845	-0.804121	0.043566	37.3308	-0.803720	-5.050785E+10	-8.625606E-13	NaN
100	1.000000	0.282438	7.36602e+06	-43639.1	955.817	-29778.9	0.000000	0.000000	6.282852	-0.019522	NaN	0.000000	0.001601	0.001658	28.0924	0.071646	0.002073	34.5676	-135.842	-163.918	-0.069074	0.281096	-0.794813	-0.796155	-0.019522	34.5676	-0.794390	-3.773092E+10	5.174004E-13	NaN
100	1.000000	0.290440	7.36602e+06	-43639.1	955.818	-29778.9	0.000000	0.000000	6.290855	-0.003942	NaN	0.000000	0.001575	0.001684	28.0927	0.053805	0.002094	25.691	-87.5888	-165.266	-0.011947	0.289139	-0.786811	-0.788112	-0.003942	25.691	-0.786696	-2.966215E+10	1.328998E-13	NaN
100	1.000000	0.298429	7.36602e+06	-43639.1	955.818	-29778.9	0.000000	0.000000	6.298845	0.024062	NaN	0.000000	0.001555	0.001668	28.0933	0.062426	0.001996	31.2703	-143.699	-165.394	0.008385	0.297142	-0.778822	-0.780109	0.024062	31.2703	-0.779399	-2.360867E+10	-1.019205E-12	NaN
100	1.000000	0.306466	7.36602e+06	-43639.1	955.818	-29778.9	0.000000	0.000000	6.306880	-0.044308	NaN	0.000000	0.001591	0.001672	28.0942	0.157264	0.002038	77.1816	-131.445	-165.132	-0.027602	0.305144	-0.770785	-0.772107	-0.044308	77.1816	-0.770354	-1.778777E+10	2.490905E-12	NaN
100	1.000000	0.314427	7.36602e+06	-43639.1	955.818	-29778.9	0.000000	0.000000	6.314840	-0.040969	NaN	0.000000	0.001552	0.001669	28.0935	0.118791	0.002158	55.0534	98.291	-164.882	-0.066674	0.313164	-0.762824	-0.764087	-0.040969	55.0534	-0.762266	-1.380803E+10	2.967045E-12	NaN
100	1.000000	0.322465	7.36602e+06	-43639.1	955.818	-29778.9	0.000000	0.000000	6.322879	-0.014739	NaN	0.000000	0.001566	0.001668	28.0941	0.050739	0.002021	25.1001	107.952	-168.469	-0.058684	0.321159	-0.754786	-0.756092	-0.014739	25.1001	-0.754346	-1.077384E+10	1.368049E-12	NaN
100	1.000000	0.330490	7.36602e+06	-43639.1	955.818	-29778.9	0.000000	0.000000	6.330902	-0.072924	NaN	0.000000	0.001587	0.001688	28.0939	0.036480	0.002015	18.102	145.399	-163.542	-0.007747	0.329123	-0.746761	-0.748128	-0.072924	18.102	-0.743739	-7.726471E+9	9.438261E-12	NaN
100	1.000000	0.338471	7.36602e+06	-43639.1	955.818	-29778.9	0.000000	0.000000	6.338884	-0.047934	NaN	0.000000	0.001572	0.001667	28.0928	0.134739	0.002023	66.5914	78.0656	-168.148	-0.025526	0.337150	-0.738780	-0.740101	-0.047934	66.5914	-0.738240	-6.502612E+9	7.371531E-12	NaN
100	1.000000	0.346448	7.36602e+06	-43639.1	955.818	-29778.9	0.000000	0.000000	6.346864	0.030165	NaN	0.000000	0.001579	0.001679	28.0921	0.089684	0.002062	43.4953	-171.05	-168.031	0.046284	0.345189	-0.730803	-0.732062	0.030165	43.4953	-0.731323	-5.234120E+9	-5.763191E-12	NaN
100	1.000000	0.354459	7.36602e+06	-43639.1	955.818	-29778.9	0.000000	0.000000	6.354873	-0.022094	NaN	0.000000	0.001548	0.001662	28.092	0.052193	0.001961	26.6118	50.7732	-165.222	0.007261	0.353133	-0.722792	-0.724118	-0.022094	26.6118	-0.722169	-3.926942E+9	5.626264E-12	NaN
100	1.000000	0.362485	7.36602e+06	-43639.1	955.818	-29778.9	0.000000	0.000000	6.362900	0.007494	NaN	0.000000	0.001576	0.001667	28.0919	0.076542	0.001977	38.7246	9.927810	-159.706	0.076103	0.361098	-0.714766	-0.716153	0.007494	38.7246	-0.714911	-3.126540E+9	-2.396983E-12	NaN
100	1.000000	0.370464	7.36602e+06	-43639.1	955.819	-29778.9	0.000000	0.000000	6.370880	0.026351	NaN	0.000000	0.001563	0.001686	28.0916	0.065844	0.001891	34.8134	-37.7273	-166.907	-0.025289	0.369135	-0.706787	-0.708116	0.026351	34.8134	-0.707355	-2.465726E+9	-1.068675E-11	NaN
100	1.000000	0.378496	7.36602e+06	-43639.1	955.817	-29778.9	0.000000	0.000000	6.378909	-0.046357	NaN	0.000000	0.001565	0.001677	28.0927	0.037481	0.002037	18.4024	-2.448657	-165.41	0.009670	0.377178	-0.698755	-0.700073	-0.046357	18.4024	-0.696866	-1.773060E+9	2.614521E-11	NaN
100	1.000000	0.386459	7.36602e+06	-43639.1	955.818	-29778.9	0.000000	0.000000	6.386873	-0.017021	NaN	0.000000	0.001557	0.001665	28.0932	0.056903	0.002078	27.3792	-56.0065	-163.711	0.000264	0.385198	-0.690792	-0.692053	-0.017021	27.3792	-0.690326	-1.443356E+9	1.179290E-11	NaN
100	1.000000	0.394509	7.36602e+06	-43639.1	955.818	-29778.9	0.000000	0.000000	6.394923	-0.021914	NaN	0.000000	0.001539	0.001689	28.0936	0.048388	0.002037	23.7547	-8.143166	-162.583	0.007819	0.393159	-0.682742	-0.684092	-0.021914	23.7547	-0.682050	-1.112361E+9	1.970007E-11	NaN
100	1.000000	0.402497	7.36602e+06	-43639.1	955.818	-29778.9	0.000000	0.000000	6.402913	0.036593	NaN	0.000000	0.001529	0.001683	28.0917	0.085210	0.002132	39.9603	95.831	-166.053	0.027030	0.401192	-0.674754	-0.676059	0.036593	39.9603	-0.675441	-9.033253E+8	-4.050909E-11	NaN
100	1.000000	0.410489	7.36602e+06	-43639.1	955.819	-29778.9	0.000000	0.000000	6.410906	0.035271	NaN	0.000000	0.001588	0.001646	28.0925	0.106363	0.001962	54.2001	-172.457	-165.203	-0.014862	0.409177	-0.666762	-0.668074	0.035271	54.2001	-0.667250	-6.978236E+8	-5.054470E-11	NaN
100	1.000000	0.418474	7.36602e+06	-43639.1	955.818	-29778.9	0.000000	0.000000	6.418887	-0.052180	NaN	0.000000	0.001544	0.001695	28.0918	0.057748	0.002036	28.3617	-66.8152	-166.321	-0.068803	0.417159	-0.658777	-0.660092	-0.052180	28.3617	-0.657397	-5.114558E+8	1.020219E-10	NaN
100	1.000000	0.426518	7.36602e+06	-43639.1	955.818	-29778.9	0.000000	0.000000	6.426930	-0.067146	NaN	0.000000	0.001557	0.001683	28.0911	0.068870	0.001919	35.8841	-168.992	-162.59	-0.051095	0.425197	-0.650733	-0.652054	-0.067146	35.8841	-0.649330	-3.965020E+8	1.693455E-10	NaN
100	1.000000	0.434493	7.36602e+06	-43639.1	955.819	-29778.9	0.000000	0.000000	6.434909	0.026218	NaN	0.000000	0.001588	0.001704	28.0915	0.001760	0.001952	0.901538	79.9405	-164.794	-0.029894	0.433223	-0.642758	-0.644028	0.026218	0.901538	-0.664569	-6.412658E+8	-4.088398E-11	NaN
100	1.000000	0.442485	7.36602e+06	-43639.1	955.818	-29778.9	0.000000	0.000000	6.442902	0.043915	NaN	0.000000	0.001572	0.001689	28.0929	0.100675	0.001935	52.0174	-137.766	-165.705	-0.004613	0.441172	-0.634766	-0.636079	0.043915	52.0174	-0.635399	-2.553564E+8	-1.719764E-10	NaN
100	1.000000	0.450528	7.36602e+06	-43639.1	955.818	-29778.9	0.000000	0.000000	6.450945	0.057465	NaN	0.000000	0.001581	0.001661	28.0932	0.088946	0.002102	42.306	171.895	-165.924	-0.036264	0.449194	-0.626723	-0.628057	0.057465	42.306	-0.627742	-2.004526E+8	-2.866783E-10	NaN
100	1.000000	0.458510	7.36602e+06	-43639.1	955.818	-29778.9	0.000000	0.000000	6.458925	0.004568	NaN	0.000000	0.001570	0.001654	28.0926	0.075340	0.002069	36.4121	4.544676	-163.89	0.005065	0.457185	-0.618741	-0.620066	0.004568	36.4121	-0.618835	-1.512243E+8	-3.020580E-11	NaN
100	1.000000	0.466517	7.36602e+06	-43639.1	955.818	-29778.9	0.000000	0.000000	6.466933	0.014089	NaN	0.000000	0.001603	0.001655	28.0936	0.032378	0.002096	15.4498	-135.17	-165.924	0.034835	0.465168	-0.610734	-0.612083	0.014089	15.4498	-0.611418	-1.195692E+8	-1.178276E-10	NaN
100	1.000000	0.474526	7.36602e+06	-43639.1	955.819	-29778.9	0.000000	0.000000	6.474941	-0.014242	NaN	0.000000	0.001574	0.001666	28.0927	0.008364	0.002024	4.132211	-22.6428	-166.386	-0.016237	0.473205	-0.602725	-0.604046	-0.014242	4.132211	-0.600140	-8.363545E+7	1.702808E-10	NaN
100	1.000000	0.482537	7.36602e+06	-43639.1	955.818	-29778.9	0.000000	0.000000	6.482951	-0.033880	NaN	0.000000	0.001610	0.001665	28.0929	0.034618	0.002029	17.059	-62.4633	-167.205	0.022966	0.481244	-0.594714	-0.596008	-0.033880	17.059	-0.593224	-6.715969E+7	5.044624E-10	NaN
100	1.000000	0.490527	7.36602e+06	-43639.1	955.818	-29778.9	0.000000	0.000000	6.490942	-0.005063	NaN	0.000000	0.001566	0.001676	28.0943	0.101411	0.001965	51.6176	32.3601	-163.928	-0.013940	0.489170	-0.586724	-0.588081	-0.005063	51.6176	-0.586650	-5.451038E+7	9.288469E-11	NaN
100	1.000000	0.498511	7.36602e+06	-43639.1	955.818	-29778.9	0.000000	0.000000	6.498926	0.001470	NaN	0.000000	0.001570	0.001651	28.0925	0.212410	0.002068	102.717	-125.783	-165.618	0.092123	0.497243	-0.578740	-0.580008	0.001470	102.717	-0.578751	-4.241156E+7	-3.466114E-11	NaN
100	1.000000	0.506518	7.36602e+06	-43639.1	955.819	-29778.9	0.000000	0.000000	6.506934	0.023527	NaN	0.000000	0.001536	0.001662	28.0937	0.046131	0.001924	23.9762	114.886	-162.909	-0.000975	0.505165	-0.570733	-0.572086	0.023527	23.9762	-0.571469	-3.364594E+7	-6.992624E-10	NaN
100	1.000000	0.514558	7.36602e+06	-43639.1	955.818	-29778.9	0.000000	0.000000	6.514973	0.021115	NaN	0.000000	0.001532	0.001668	28.0935	0.158349	0.001921	82.4178	-63.0255	-162.887	-0.013788	0.513219	-0.562694	-0.564032	0.021115	82.4178	-0.562886	-2.560296E+7	-8.247035E-10	NaN
100	1.000000	0.522542	7.36602e+06	-43639.1	955.817	-29778.9	0.000000	0.000000	6.522958	0.030501	NaN	0.000000	0.001559	0.001672	28.0937	0.136663	0.001829	74.703	-114.555	-164.627	0.035072	0.521236	-0.554710	-0.556015	0.030501	74.703	-0.555016	-1.992539E+7	-1.530758E-9	NaN
100	1.000000	0.530555	7.36602e+06	-43639.1	955.818	-29778.9	0.000000	0.000000	6.530972	0.040643	NaN	0.000000	0.001526	0.001723	28.0935	0.072260	0.001919	37.6514	-76.6338	-167.409	0.026712	0.529218	-0.546696	-0.548033	0.040643	37.6514	-0.547505	-1.568185E+7	-2.591734E-9	NaN
100	1.000000	0.538543	7.36602e+06	-43639.1	955.819	-29778.9	0.000000	0.000000	6.538957	-0.030972	NaN	0.000000	0.001528	0.001674	28.0953	0.085938	0.001990	43.1821	50.8743	-163.525	-0.051940	0.537270	-0.538708	-0.539981	-0.030972	43.1821	-0.538170	-1.164060E+7	2.660649E-9	NaN
100	1.000000	0.546531	7.36602e+06	-43639.1	955.818	-29778.9	0.000000	0.000000	6.546945	-0.030091	NaN	0.000000	0.001551	0.001659	28.0952	0.042154	0.001963	21.4796	162.226	-166.811	-0.006971	0.545295	-0.530720	-0.531956	-0.030091	21.4796	-0.529670	-8.87128e+06	3.391936E-9	NaN
100	1.000000	0.554557	7.36602e+06	-43639.1	955.818	-29778.9	0.000000	0.000000	6.554972	-0.010349	NaN	0.000000	0.001541	0.001668	28.0953	0.033902	0.002016	16.8197	62.5913	-165.25	-0.010728	0.553302	-0.522694	-0.523949	-0.010349	16.8197	-0.522232	-6.9926e+06	1.480055E-9	NaN
100	1.000000	0.562570	7.36602e+06	-43639.1	955.819	-29778.9	0.000000	0.000000	6.562983	-0.032767	NaN	0.000000	0.001541	0.001643	28.0953	0.023873	0.002004	11.9139	-145.635	-166.739	-0.028969	0.561220	-0.514681	-0.516031	-0.032767	11.9139	-0.512619	-5.13907e+06	6.375965E-9	NaN
100	1.000000	0.570555	7.36602e+06	-43639.1	955.818	-29778.9	0.000000	0.000000	6.570969	-0.018161	NaN	0.000000	0.001550	0.001652	28.095	0.073449	0.002022	36.3186	-78.5651	-165.001	-0.003039	0.569222	-0.506696	-0.508030	-0.018161	36.3186	-0.506321	-4.19916e+06	4.324940E-9	NaN
100	1.000000	0.578580	7.36602e+06	-43639.1	955.817	-29778.9	0.000000	0.000000	6.578995	0.000877	NaN	0.000000	0.001570	0.001680	28.0941	0.118751	0.002009	59.1118	134.171	-164.956	0.021506	0.577285	-0.498672	-0.499966	0.000877	59.1118	-0.498683	-3.28577e+06	-2.668952E-10	NaN
100	1.000000	0.586554	7.36602e+06	-43639.1	955.818	-29778.9	0.000000	0.000000	6.586970	0.004723	NaN	0.000000	0.001577	0.001665	28.0947	0.039003	0.002023	19.2787	-163.676	-166.15	0.101224	0.585306	-0.490697	-0.491945	0.004723	19.2787	-0.490880	-2.55678e+06	-1.847210E-9	NaN
100	1.000000	0.594572	7.36602e+06	-43639.1	955.819	-29778.9	0.000000	0.000000	6.594987	0.009333	NaN	0.000000	0.001546	0.001638	28.0939	0.097647	0.001965	49.7006	-75.0393	-164.745	-0.002179	0.593235	-0.482680	-0.484016	0.009333	49.7006	-0.482820	-1.97242e+06	-4.731495E-9	NaN
100	1.000000	0.602587	7.36602e+06	-43639.1	955.818	-29778.9	0.000000	0.000000	6.603002	0.007767	NaN	0.000000	0.001559	0.001645	28.0938	0.132111	0.001972	66.9771	99.243	-167.009	0.041527	0.601295	-0.474664	-0.475956	0.007767	66.9771	-0.474751	-1.5206e+06	-5.107704E-9	NaN
100	1.000000	0.610560	7.36602e+06	-43639.1	955.818	-29778.9	0.000000	0.000000	6.610971	-0.092394	NaN	0.000000	0.001564	0.001666	28.094	0.041326	0.002040	20.2529	-6.325363	-164.978	-0.079457	0.609276	-0.466691	-0.467975	-0.092394	20.2529	-0.463269	-1.04942e+06	8.804288E-8	NaN
100	1.000000	0.618573	7.36602e+06	-43639.1	955.818	-29778.9	0.000000	0.000000	6.618988	-0.008598	NaN	0.000000	0.001549	0.001682	28.096	0.039763	0.002051	19.3919	-84.1125	-163.534	-0.001683	0.617246	-0.458678	-0.460005	-0.008598	19.3919	-0.458345	-894864	9.608398E-9	NaN
100	1.000000	0.626585	7.36602e+06	-43639.1	955.819	-29778.9	0.000000	0.000000	6.626999	-0.043550	NaN	0.000000	0.001604	0.001690	28.0941	0.107766	0.001974	54.5916	-7.364713	-167.442	-0.001587	0.625275	-0.450666	-0.451976	-0.043550	54.5916	-0.450068	-684374	6.363480E-8	NaN
100	1.000000	0.634575	7.36602e+06	-43639.1	955.819	-29778.9	0.000000	0.000000	6.634988	-0.045837	NaN	0.000000	0.001588	0.001643	28.0942	0.070471	0.001916	36.7806	36.5913	-165.078	-0.010713	0.633301	-0.442676	-0.443950	-0.045837	36.7806	-0.441741	-522319	8.775711E-8	NaN
100	1.000000	0.642579	7.36602e+06	-43639.1	955.818	-29778.9	0.000000	0.000000	6.642996	0.041386	NaN	0.000000	0.001542	0.001647	28.0941	0.011614	0.001980	5.866010	-22.8105	-166.69	-0.023447	0.641234	-0.434672	-0.436017	0.041386	5.866010	-0.439963	-492998	-8.394801E-8	NaN
100	1.000000	0.650590	7.36602e+06	-43639.1	955.818	-29778.9	0.000000	0.000000	6.651002	-0.075564	NaN	0.000000	0.001598	0.001609	28.0948	0.035460	0.002019	17.5658	86.9732	-163.444	-0.039308	0.649294	-0.426661	-0.427957	-0.075564	17.5658	-0.423435	-287809	2.625474E-7	NaN
100	1.000000	0.658581	7.36602e+06	-43639.1	955.819	-29778.9	0.000000	0.000000	6.658995	-0.028386	NaN	0.000000	0.001573	0.001660	28.0928	0.116342	0.001986	58.5691	178.748	-165.087	-0.051473	0.657266	-0.418670	-0.419985	-0.028386	58.5691	-0.418306	-243437	1.166065E-7	NaN
100	1.000000	0.666586	7.36602e+06	-43639.1	955.818	-29778.9	0.000000	0.000000	6.667001	-0.011136	NaN	0.000000	0.001592	0.001651	28.0939	0.007731	0.002063	3.747105	-157.798	-165.388	-0.004768	0.665268	-0.410665	-0.411983	-0.011136	3.747105	-0.408436	-176260	6.317686E-8	NaN
100	1.000000	0.674609	7.36602e+06	-43639.1	955.818	-29778.9	0.000000	0.000000	6.675022	-0.036353	NaN	0.000000	0.001564	0.001675	28.0936	0.033586	0.002042	16.4496	129.339	-165.951	-0.016821	0.673285	-0.402642	-0.403966	-0.036353	16.4496	-0.400985	-138051	2.633316E-7	NaN
100	1.000000	0.682599	7.36602e+06	-43639.1	955.818	-29778.9	0.000000	0.000000	6.683013	-0.020712	NaN	0.000000	0.001567	0.001662	28.0931	0.005074	0.001991	2.548809	-10.2175	-160.877	-0.069006	0.681266	-0.394652	-0.395986	-0.020712	2.548809	-0.388557	-91732.7	2.257862E-7	NaN
100	1.000000	0.690601	7.36602e+06	-43639.1	955.817	-29778.9	0.000000	0.000000	6.691015	-0.031204	NaN	0.000000	0.001554	0.001679	28.0941	0.105032	0.002102	49.9724	129.822	-166.01	-0.009428	0.689389	-0.386650	-0.387862	-0.031204	49.9724	-0.386182	-84823.6	3.678669E-7	NaN
100	1.000000	0.698608	7.36602e+06	-43639.1	955.819	-29778.9	0.000000	0.000000	6.699022	-0.034481	NaN	0.000000	0.001575	0.001666	28.0929	0.063880	0.002122	30.1076	55.2823	-165.107	-0.021620	0.697305	-0.378643	-0.379946	-0.034481	30.1076	-0.377784	-64279.7	5.364146E-7	NaN
100	1.000000	0.706628	7.36602e+06	-43639.1	955.818	-29778.9	0.000000	0.000000	6.707043	0.002211	NaN	0.000000	0.001559	0.001609	28.0934	0.131385	0.001964	66.8904	29.1395	-166.496	-0.052690	0.705250	-0.370623	-0.372001	0.002211	66.8904	-0.370648	-50752.4	-4.357358E-8	NaN
100	1.000000	0.714618	7.36602e+06	-43639.1	955.819	-29778.9	0.000000	0.000000	6.715037	0.096099	NaN	0.000000	0.001584	0.001595	28.0939	0.031738	0.002017	15.7334	-4.457658	-163.721	0.027695	0.713307	-0.362633	-0.363944	0.096099	15.7334	-0.367214	-45288.7	-2.121913E-6	NaN
100	1.000000	0.722632	7.36602e+06	-43639.1	955.818	-29778.9	0.000000	0.000000	6.723049	0.040953	NaN	0.000000	0.001563	0.001641	28.0949	0.028016	0.001982	14.1324	120.117	-162.076	0.060571	0.721308	-0.354619	-0.355943	0.040953	14.1324	-0.356793	-32022.2	-1.278903E-6	NaN
100	1.000000	0.730626	7.36602e+06	-43639.1	955.818	-29778.9	0.000000	0.000000	6.731040	-0.016903	NaN	0.000000	0.001580	0.001622	28.095	0.040391	0.001926	20.9682	-15.8973	-165.273	-0.039630	0.729275	-0.346625	-0.347976	-0.016903	20.9682	-0.346021	-22346	7.564121E-7	NaN
100	1.000000	0.738613	7.36602e+06	-43639.1	955.82	-29778.9	0.000000	0.000000	6.739027	-0.038920	NaN	0.000000	0.001558	0.001657	28.0938	0.143157	0.001964	72.8796	96.6309	-161.134	-0.078476	0.737304	-0.338638	-0.339947	-0.038920	72.8796	-0.338237	-17212.7	2.261100E-6	NaN
100	1.000000	0.746648	7.36602e+06	-43639.1	955.818	-29778.9	0.000000	0.000000	6.747065	0.038096	NaN	0.000000	0.001564	0.001702	28.094	0.026103	0.002035	12.829	-158.141	-165.855	0.021757	0.745314	-0.330603	-0.331937	0.038096	12.829	-0.332830	-14350.6	-2.654648E-6	NaN
100	1.000000	0.754628	7.36602e+06	-43639.1	955.818	-29778.9	0.000000	0.000000	6.755044	0.011292	NaN	0.000000	0.001560	0.001670	28.0944	0.045007	0.002024	22.2364	160.698	-167.304	-0.005928	0.753313	-0.322623	-0.323938	0.011292	22.2364	-0.323004	-10299.4	-1.096411E-6	NaN
100	1.000000	0.762631	7.36602e+06	-43639.1	955.819	-29778.9	0.000000	0.000000	6.763049	0.063948	NaN	0.000000	0.001568	0.001678	28.0958	0.062526	0.001897	32.9613	77.9451	-168.828	0.042509	0.761344	-0.314620	-0.315907	0.063948	32.9613	-0.316075	-8143.47	-7.852670E-6	NaN
100	1.000000	0.770622	7.36602e+06	-43639.1	955.818	-29778.9	0.000000	0.000000	6.771038	0.024043	NaN	0.000000	0.001541	0.001647	28.0945	0.092583	0.002017	45.9034	-85.6737	-166.452	-0.065241	0.769321	-0.306629	-0.307930	0.024043	45.9034	-0.307022	-5983.34	-4.018345E-6	NaN
100	1.000000	0.778670	7.36602e+06	-43639.1	955.818	-29778.9	0.000000	0.000000	6.779085	0.000342	NaN	0.000000	0.001540	0.001662	28.0961	0.073738	0.002029	36.3373	-122.486	-166.626	-0.047527	0.777379	-0.298581	-0.299872	0.000342	36.3373	-0.298588	-4483.44	-7.632330E-8	NaN
100	1.000000	0.786665	7.36602e+06	-43639.1	955.819	-29778.9	0.000000	0.000000	6.787079	-0.014886	NaN	0.000000	0.001597	0.001665	28.0954	0.050220	0.001856	27.0543	109.195	-164.528	-0.018653	0.785360	-0.290586	-0.291891	-0.014886	27.0543	-0.290173	-3356.6	4.434937E-6	NaN
100	1.000000	0.794663	7.36602e+06	-43639.1	955.818	-29778.9	0.000000	0.000000	6.795076	-0.039820	NaN	0.000000	0.001574	0.001665	28.0971	0.037177	0.002080	17.8741	48.1268	-164.669	0.010953	0.793373	-0.282589	-0.283878	-0.039820	17.8741	-0.280918	-2436.75	1.634162E-5	NaN
100	1.000000	0.802639	7.36602e+06	-43639.1	955.819	-29778.9	0.000000	0.000000	6.803055	0.021252	NaN	0.000000	0.001553	0.001682	28.0955	0.034154	0.002004	17.0467	133.505	-167.149	-0.000529	0.801312	-0.274612	-0.275939	0.021252	17.0467	-0.275547	-2021.53	-1.051305E-5	NaN
100	1.000000	0.810635	7.36602e+06	-43639.1	955.819	-29778.9	0.000000	0.000000	6.811050	-0.001522	NaN	0.000000	0.001572	0.001631	28.0958	0.087434	0.002049	42.6694	-41.0799	-167.462	0.016810	0.809313	-0.266616	-0.267938	-0.001522	42.6694	-0.266589	-1477.85	1.029948E-6	NaN
100	1.000000	0.818687	7.36602e+06	-43639.1	955.818	-29778.9	0.000000	0.000000	6.819104	0.043812	NaN	0.000000	0.001568	0.001675	28.0955	0.040326	0.002196	18.3605	-136.211	-163.053	-0.067094	0.817377	-0.258564	-0.259874	0.043812	18.3605	-0.260354	-1186.7	-3.691919E-5	NaN
100	1.000000	0.826676	7.36602e+06	-43639.1	955.819	-29778.9	0.000000	0.000000	6.827093	0.051103	NaN	0.000000	0.001575	0.001666	28.0956	0.069161	0.002048	33.7651	-178.058	-167.262	0.065534	0.825355	-0.250575	-0.251896	0.051103	33.7651	-0.251710	-873.764	-5.848612E-5	NaN
100	1.000000	0.834638	7.36602e+06	-43639.1	955.818	-29778.9	0.000000	0.000000	6.835053	-0.009080	NaN	0.000000	0.001586	0.001660	28.0956	0.017413	0.001940	8.974459	-171.271	-166.364	0.081736	0.833357	-0.242613	-0.243894	-0.009080	8.974459	-0.241854	-614.447	1.477819E-5	NaN
100	1.000000	0.842658	7.36602e+06	-43639.1	955.817	-29778.9	0.000000	0.000000	6.843073	-0.002228	NaN	0.000000	0.001598	0.001687	28.0957	0.056779	0.001967	28.8625	136.828	-161.945	0.070529	0.841385	-0.234593	-0.235866	-0.002228	28.8625	-0.234535	-472.002	4.720172E-6	NaN
100	1.000000	0.850648	7.36602e+06	-43639.1	955.818	-29778.9	0.000000	0.000000	6.851061	-0.050223	NaN	0.000000	0.001600	0.001720	28.096	0.057233	0.001925	29.7256	51.5599	-161.252	-0.058264	0.849353	-0.226603	-0.227898	-0.050223	29.7256	-0.225335	-337.802	0.000149	NaN
100	1.000000	0.858685	7.36602e+06	-43639.1	955.818	-29778.9	0.000000	0.000000	6.859100	0.005039	NaN	0.000000	0.001586	0.001693	28.097	0.017706	0.001907	9.286223	-125.451	-168.043	0.025764	0.857355	-0.218566	-0.219896	0.005039	9.286223	-0.218973	-267.455	-1.884037E-5	NaN
100	1.000000	0.866675	7.36602e+06	-43639.1	955.818	-29778.9	0.000000	0.000000	6.867092	0.054972	NaN	0.000000	0.001548	0.001648	28.0965	0.096223	0.002122	45.3459	37.2433	-164.29	0.095368	0.865331	-0.210576	-0.211920	0.054972	45.3459	-0.211485	-202.698	-0.000271	NaN
100	1.000000	0.874680	7.36602e+06	-43639.1	955.819	-29778.9	0.000000	0.000000	6.875097	0.046632	NaN	0.000000	0.001561	0.001646	28.0968	0.052339	0.002062	25.381	-170.651	-163.224	0.005388	0.873394	-0.202571	-0.203857	0.046632	25.381	-0.203949	-152.898	-0.000305	NaN
100	1.000000	0.882676	7.36602e+06	-43639.1	955.818	-29778.9	0.000000	0.000000	6.883088	-0.075155	NaN	0.000000	0.001567	0.001667	28.0967	0.010690	0.002043	5.232964	94.7467	-166.852	-0.083088	0.881375	-0.194575	-0.195876	-0.075155	5.232964	-0.183803	-70.7853	0.001062	NaN
100	1.000000	0.890677	7.36602e+06	-43639.1	955.818	-29778.9	0.000000	0.000000	6.891093	0.035056	NaN	0.000000	0.001566	0.001649	28.0972	0.087640	0.001929	45.4283	-102.788	-167.843	0.006492	0.889376	-0.186574	-0.187875	0.035056	45.4283	-0.187153	-80.603	-0.000435	NaN
100	1.000000	0.898700	7.36602e+06	-43639.1	955.818	-29778.9	0.000000	0.000000	6.899115	0.005146	NaN	0.000000	0.001567	0.001625	28.0944	0.041826	0.002116	19.7638	-10.2871	-163.635	0.055812	0.897368	-0.178551	-0.179883	0.005146	19.7638	-0.178747	-58.0923	-8.858628E-5	NaN
100	1.000000	0.906670	7.36602e+06	-43639.1	955.818	-29778.9	0.000000	0.000000	6.907083	-0.043450	NaN	0.000000	0.001589	0.001638	28.0946	0.135842	0.002093	64.9018	-162.848	-165.521	-0.018506	0.905369	-0.170581	-0.171882	-0.043450	64.9018	-0.170079	-41.2084	0.001054	NaN
100	1.000000	0.914699	7.36602e+06	-43639.1	955.818	-29778.9	0.000000	0.000000	6.915112	-0.055631	NaN	0.000000	0.001582	0.001694	28.095	0.096089	0.001897	50.6582	-179.138	-164.912	0.002856	0.913373	-0.162552	-0.163878	-0.055631	50.6582	-0.161729	-29.4197	0.001891	NaN
100	1.000000	0.922711	7.36602e+06	-43639.1	955.818	-29778.9	0.000000	0.000000	6.923128	0.028572	NaN	0.000000	0.001590	0.001711	28.0947	0.074991	0.001874	40.0183	27.3021	-161.853	-0.006561	0.921389	-0.154540	-0.155862	0.028572	40.0183	-0.155075	-22.3838	-0.001276	NaN
100	1.000000	0.930713	7.36602e+06	-43639.1	955.818	-29778.9	0.000000	0.000000	6.931129	0.012790	NaN	0.000000	0.001561	0.001665	28.0946	0.056267	0.001969	28.5745	113.193	-166.219	0.042233	0.929388	-0.146538	-0.147863	0.012790	28.5745	-0.146873	-15.8756	-0.000806	NaN
100	1.000000	0.938720	7.36602e+06	-43639.1	955.818	-29778.9	0.000000	0.000000	6.939133	-0.041978	NaN	0.000000	0.001562	0.001679	28.096	0.108141	0.001979	54.6483	4.610234	-163.463	-0.023267	0.937355	-0.138531	-0.139896	-0.041978	54.6483	-0.137955	-10.825	0.003878	NaN
100	1.000000	0.946686	7.36602e+06	-43639.1	955.819	-29778.9	0.000000	0.000000	6.947100	-0.016089	NaN	0.000000	0.001605	0.001671	28.0958	0.068372	0.002196	31.128	112.707	-165.766	0.006083	0.945402	-0.130565	-0.131849	-0.016089	31.128	-0.130178	-7.681818	0.002094	NaN
100	1.000000	0.954707	7.36602e+06	-43639.1	955.818	-29778.9	0.000000	0.000000	6.955122	0.000598	NaN	0.000000	0.001588	0.001658	28.0954	0.120297	0.002047	58.7722	-161.967	-165.316	-0.003499	0.953415	-0.122544	-0.123836	0.000598	58.7722	-0.122552	-5.436487	-0.000110	NaN
100	1.000000	0.962739	7.36602e+06	-43639.1	955.818	-29778.9	0.000000	0.000000	6.963155	0.022868	NaN	0.000000	0.001626	0.001612	28.0956	0.048141	0.001931	24.9288	-120.454	-166.697	0.084005	0.961361	-0.114512	-0.115890	0.022868	24.9288	-0.115200	-3.856782	-0.005929	NaN
100	1.000000	0.970726	7.36602e+06	-43639.1	955.818	-29778.9	0.000000	0.000000	6.971140	-0.009164	NaN	0.000000	0.001640	0.001620	28.096	0.159837	0.002022	79.0342	142.433	-160.398	-0.053165	0.969393	-0.106525	-0.107858	-0.009164	79.0342	-0.106438	-2.524270	0.003631	NaN
100	1.000000	0.978731	7.36602e+06	-43639.1	955.818	-29778.9	0.000000	0.000000	6.979147	0.036019	NaN	0.000000	0.001612	0.001597	28.0944	0.054385	0.002072	26.2497	28.9957	-162.135	-0.040180	0.977380	-0.098520	-0.099872	0.036019	26.2497	-0.099550	-1.785566	-0.020172	NaN
100	1.000000	0.986718	7.36602e+06	-43639.1	955.818	-29778.9	0.000000	0.000000	6.987133	-0.000551	NaN	0.000000	0.001623	0.001600	28.0951	0.041328	0.001863	22.1857	11.5067	-167.51	0.002024	0.985414	-0.090533	-0.091837	-0.000551	22.1857	-0.090514	-1.111381	0.000496	NaN
100	1.000000	0.994768	7.36602e+06	-43639.1	955.818	-29778.9	0.000000	0.000000	6.995183	-0.004197	NaN	0.000000	0.001631	0.001666	28.0957	0.090105	0.001977	45.5825	-19.8271	-166.027	0.030853	0.993438	-0.082483	-0.083813	-0.004197	45.5825	-0.082414	-0.710505	0.005907	NaN
100	1.000000	1.002741	7.36602e+06	-43639.1	955.818	-29778.9	0.000000	0.000000	7.003157	0.018155	NaN	0.000000	0.001615	0.001646	28.0949	0.023517	0.001979	11.8821	-98.5396	-164.521	0.012831	1.001344	-0.074510	-0.075907	0.018155	11.8821	-0.075656	-0.480242	-0.037803	NaN
100	1.000000	1.010751	7.36602e+06	-43639.1	955.818	-29778.9	0.000000	0.000000	7.011165	-0.022822	NaN	0.000000	0.001623	0.001661	28.0948	0.043436	0.002032	21.3791	84.3682	-167.577	-0.058473	1.009407	-0.066501	-0.067844	-0.022822	21.3791	-0.065700	-0.260583	0.087581	NaN
100	1.000000	1.018753	7.36602e+06	-43639.1	955.817	-29778.9	0.000000	0.000000	7.019169	0.030721	NaN	0.000000	0.001659	0.001682	28.0959	0.090311	0.002032	44.4379	82.3873	-162.498	0.009851	1.017476	-0.058498	-0.059775	0.030721	44.4379	-0.059017	-0.168735	-0.182067	NaN
100	1.000000	1.026756	7.36602e+06	-43639.1	955.818	-29778.9	0.000000	0.000000	7.027171	0.005640	NaN	0.000000	0.001591	0.001648	28.0962	0.021769	0.002040	10.6711	-178.446	-165.277	-0.010752	1.025470	-0.050495	-0.051781	0.005640	10.6711	-0.050892	-0.097085	-0.058090	NaN
100	1.000000	1.034750	7.36602e+06	-43639.1	955.818	-29778.9	0.000000	0.000000	7.035162	-0.094475	NaN	0.000000	0.001571	0.001674	28.0967	0.036704	0.001989	18.456	-106.688	-165.033	-0.041336	1.033414	-0.042501	-0.043837	-0.094475	18.456	-0.038662	-0.041192	2.293537	NaN
100	1.000000	1.042755	7.36602e+06	-43639.1	955.818	-29778.9	0.000000	0.000000	7.043170	-0.007922	NaN	0.000000	0.001599	0.001645	28.0974	0.026219	0.001978	13.2549	163.491	-164.697	-0.031401	1.041435	-0.034496	-0.035816	-0.007922	13.2549	-0.034048	-0.030031	0.263801	NaN
100	1.000000	1.050738	7.36602e+06	-43639.1	955.819	-29778.9	0.000000	0.000000	7.051153	-0.007743	NaN	0.000000	0.001576	0.001703	28.0968	0.136156	0.001885	72.2412	60.253	-167.435	0.017039	1.049426	-0.026513	-0.027825	-0.007743	72.2412	-0.026433	-0.018402	0.420757	NaN
100	1.000000	1.058768	7.36602e+06	-43639.1	955.819	-29778.9	0.000000	0.000000	7.059183	-0.020506	NaN	0.000000	0.001536	0.001659	28.096	0.061005	0.001899	32.1247	177.777	-167.79	-0.104039	1.057470	-0.018483	-0.019781	-0.020506	32.1247	-0.018004	-0.011165	1.836640	NaN
100	1.000000	1.066758	7.36602e+06	-43639.1	955.819	-29778.9	0.000000	0.000000	7.067171	-0.047308	NaN	0.000000	0.001557	0.001639	28.0961	0.066781	0.002111	31.6346	174.767	-165.904	-0.043693	1.065483	-0.010494	-0.011768	-0.047308	31.6346	-0.009372	-0.006027	7.849039	NaN
100	1.000000	1.074759	7.36602e+06	-43639.1	955.819	-29778.9	0.000000	0.000000	7.075175	0.021886	NaN	0.000000	0.001545	0.001687	28.0953	0.076756	0.002052	37.4116	118.598	-167.892	0.026026	1.073448	-0.002492	-0.003803	0.021886	37.4116	-0.002931	-0.002074	-10.5505	NaN
100	1.000000	1.082722	7.36602e+06	-43639.1	955.819	-29778.9	0.000000	0.000000	7.083317	4.390055	NaN	0.000000	0.001583	0.001677	28.0966	5.072190	0.001953	2597.63	10.4629	-168.3	2.584297	1.081428	0.005471	0.004177	4.390055	2597.63	0.004203	0.003418	1284.41	40594.5
100	2.000000	1.088296	7.36602e+06	-43639.1	955.817	-29778.9	0.000000	0.000000	7.089090	9.202957	NaN	0.000000	0.001525	0.001610	28.097	9.454017	0.001637	5775	6.695406	-173.247	8.336249	1.087991	0.011045	0.010740	9.202957	5775	0.009850	0.009015	1020.81	55569.2
100	2.000000	1.090250	7.36602e+06	-43639.1	955.818	-29778.9	0.000000	0.000000	7.091196	12.9254	NaN	0.000000	0.001575	0.001615	28.098	12.1532	0.001725	7043.51	9.348631	-176.284	12.1221	1.090018	0.012998	0.012767	12.9254	7043.51	0.011622	0.011041	1170.72	61244.5
100	2.000000	1.092314	7.36602e+06	-43639.1	955.818	-29778.9	0.000000	0.000000	7.093392	16.1306	NaN	0.000000	0.001520	0.001631	28.0973	13.7116	0.001764	7771.73	7.318282	-174.509	15.5283	1.091926	0.015063	0.014675	16.1306	7771.73	0.013506	0.013345	1208.75	61466
100	2.000000	1.094233	7.36602e+06	-43639.1	955.819	-29778.9	0.000000	0.000000	7.095398	18.2457	NaN	0.000000	0.001525	0.001683	28.0976	15.6891	0.001700	9226.41	10.1193	-179.426	16.9838	1.093998	0.016982	0.016747	18.2457	9226.41	0.015498	0.015956	1143.52	66734.1
100	2.000000	1.096227	7.36602e+06	-43639.1	955.818	-29778.9	0.000000	0.000000	7.097482	20.4339	NaN	0.000000	0.001515	0.001634	28.0977	17.6784	0.001779	9935.36	3.738352	-173.801	19.3328	1.095969	0.018976	0.018718	20.4339	9935.36	0.017433	0.018668	1094.58	66436.2
100	2.000000	1.098251	7.36602e+06	-43639.1	955.819	-29778.9	0.000000	0.000000	7.099664	24.2866	NaN	0.000000	0.001620	0.001647	28.0973	19.3826	0.001680	11534.7	4.297057	-176.008	23.4904	1.097921	0.020999	0.020670	24.2866	11534.7	0.019420	0.021640	1122.33	71640.1
100	2.000000	1.100185	7.36602e+06	-43639.1	955.818	-29778.9	0.000000	0.000000	7.101827	29.8537	NaN	0.000000	0.001566	0.001662	28.0967	22.3325	0.001766	12648.1	7.899892	-179.974	27.7642	1.099847	0.022934	0.022596	29.8537	12648.1	0.021164	0.024404	1223.3	73971.5
100	2.000000	1.102237	7.36602e+06	-43639.1	955.818	-29778.9	0.000000	0.000000	7.104207	37.8269	NaN	0.000000	0.001509	0.001663	28.0969	23.7331	0.001831	12962.7	6.018250	-176.951	37.7289	1.101939	0.024986	0.024688	37.8269	12962.7	0.022797	0.027130	1394.28	71902.7
100	2.000000	1.104231	7.36602e+06	-43639.1	955.818	-29778.9	0.000000	0.000000	7.106287	39.9165	NaN	0.000000	0.001532	0.001651	28.0971	25.5813	0.001821	14051.4	5.350636	-177.052	40.3025	1.103939	0.026980	0.026688	39.9165	14051.4	0.024850	0.030743	1298.41	73218.7
100	2.000000	1.106196	7.36602e+06	-43639.1	955.818	-29778.9	0.000000	0.000000	7.108516	46.3519	NaN	0.000000	0.001541	0.001683	28.0969	27.724	0.001702	16286.7	3.821252	-178.156	45.1956	1.105913	0.028945	0.028662	46.3519	16286.7	0.026811	0.034392	1347.74	80237.4
100	2.000000	1.108209	7.36602e+06	-43639.1	955.818	-29778.9	0.000000	0.000000	7.110724	51.0861	NaN	0.000000	0.001540	0.001693	28.0951	29.6769	0.001728	17177.6	6.974499	178.204	51.0308	1.107938	0.030958	0.030687	51.0861	17177.6	0.028728	0.038148	1339.16	80352.7
100	2.000000	1.110192	7.36602e+06	-43639.1	955.818	-29778.9	0.000000	0.000000	7.112867	54.9943	NaN	0.000000	0.001559	0.001651	28.097	31.5688	0.001751	18027.1	3.344739	-178.576	53.8904	1.109868	0.032941	0.032617	54.9943	18027.1	0.030653	0.042107	1306.05	80263.7
100	2.000000	1.112206	7.36602e+06	-43639.1	955.818	-29778.9	0.000000	0.000000	7.114955	56.7825	NaN	0.000000	0.001546	0.001661	28.0966	33.4961	0.001729	19376.3	1.400885	-177.614	54.9958	1.111969	0.034955	0.034717	56.7825	19376.3	0.032757	0.046652	1217.14	81961
100	2.000000	1.114176	7.36602e+06	-43639.1	955.818	-29778.9	0.000000	0.000000	7.117427	68.9949	NaN	0.000000	0.001545	0.001676	28.0969	35.825	0.001798	19925.6	3.437873	-179.018	68.4763	1.113900	0.036925	0.036649	68.9949	19925.6	0.034328	0.050192	1374.62	81258.2
100	2.000000	1.116147	7.36602e+06	-43639.1	955.818	-29778.9	0.000000	0.000000	7.119520	71.9635	NaN	0.000000	0.001538	0.001620	28.0967	37.759	0.001757	21489.9	2.465927	-179.518	69.8021	1.115969	0.038896	0.038718	71.9635	21489.9	0.036384	0.055019	1307.99	83705.5
100	2.000000	1.118122	7.36602e+06	-43639.1	955.818	-29778.9	0.000000	0.000000	7.121909	82.0425	NaN	0.000000	0.001523	0.001651	28.0967	38.6317	0.001732	22307.5	2.448344	-179.668	77.4795	1.117775	0.040871	0.040524	82.0425	22307.5	0.038112	0.059241	1384.89	83736.1
100	2.000000	1.120257	7.36602e+06	-43639.1	955.818	-29778.9	0.000000	0.000000	7.124208	86.0324	NaN	0.000000	0.001529	0.001658	28.0959	41.004	0.001780	23039	6.635386	177.031	88.0893	1.119847	0.043005	0.042596	86.0324	23039	0.040205	0.064559	1332.62	82843.7
100	2.000000	1.122259	7.36602e+06	-43639.1	955.818	-29778.9	0.000000	0.000000	7.126520	93.5729	NaN	0.000000	0.001563	0.001642	28.0952	42.751	0.001840	23238.2	6.239918	178.456	95.9887	1.121815	0.045008	0.044564	93.5729	23238.2	0.041988	0.069266	1350.92	80670.8
100	2.000000	1.124130	7.36602e+06	-43639.1	955.818	-29778.9	0.000000	0.000000	7.128824	104.094	NaN	0.000000	0.001538	0.001650	28.0956	44.239	0.001778	24877.5	6.648980	175.962	102.348	1.123806	0.046879	0.046555	104.094	24877.5	0.043741	0.074054	1405.66	83523.1
100	2.000000	1.126172	7.36602e+06	-43639.1	955.819	-29778.9	0.000000	0.000000	7.131057	108.752	NaN	0.000000	0.001557	0.001646	28.0962	47.5823	0.001762	27006	6.280141	174.658	107.765	1.125938	0.048921	0.048687	108.752	27006	0.045901	0.080165	1356.6	87144.7
100	2.000000	1.128130	7.36602e+06	-43639.1	955.818	-29778.9	0.000000	0.000000	7.133464	119.678	NaN	0.000000	0.001547	0.001656	28.0953	48.1047	0.001753	27441.2	7.215628	174.058	117.068	1.127881	0.050879	0.050630	119.678	27441.2	0.047608	0.085163	1405.28	85911.4
100	2.000000	1.130211	7.36602e+06	-43639.1	955.819	-29778.9	0.000000	0.000000	7.135962	129.815	NaN	0.000000	0.001546	0.001625	28.0971	50.3778	0.001730	29116.9	8.520744	172.466	131.914	1.129827	0.052960	0.052576	129.815	29116.9	0.049616	0.091230	1422.95	88074.5
100	2.000000	1.132199	7.36602e+06	-43639.1	955.819	-29778.9	0.000000	0.000000	7.138307	138.489	NaN	0.000000	0.001560	0.001676	28.0973	52.2132	0.001750	29842.9	2.515499	178.631	136.029	1.131860	0.054948	0.054609	138.489	29842.9	0.051468	0.097004	1427.67	87542.6
100	2.000000	1.134224	7.36602e+06	-43639.1	955.819	-29778.9	0.000000	0.000000	7.140511	142.854	NaN	0.000000	0.001597	0.001647	28.0983	55.2882	0.001881	29390.3	7.017196	174.537	145.161	1.133799	0.056973	0.056547	142.854	29390.3	0.053327	0.102975	1387.27	83678
100	2.000000	1.136146	7.36602e+06	-43639.1	955.819	-29778.9	0.000000	0.000000	7.142837	152.689	NaN	0.000000	0.001593	0.001676	28.0964	55.9274	0.001772	31562	-3.098582	-176.785	150.582	1.135875	0.058895	0.058624	152.689	31562	0.055267	0.109384	1395.89	87188.8
100	2.000000	1.138150	7.36602e+06	-43639.1	955.819	-29778.9	0.000000	0.000000	7.145119	159.46	NaN	0.000000	0.001577	0.001665	28.0979	58.267	0.001889	30844.4	5.409375	176.254	157.897	1.137692	0.060899	0.060441	159.46	30844.4	0.057021	0.115344	1382.47	82975.9
100	2.000000	1.140086	7.36602e+06	-43639.1	955.819	-29778.9	0.000000	0.000000	7.147557	171.663	NaN	0.000000	0.001589	0.001679	28.0962	60.5201	0.001760	34394.3	3.148991	176.169	167.738	1.139836	0.062835	0.062585	171.663	34394.3	0.059091	0.122570	1400.53	89756.7
100	2.000000	1.142184	7.36602e+06	-43639.1	955.819	-29778.9	0.000000	0.000000	7.150095	182.367	NaN	0.000000	0.001549	0.001659	28.0968	62.8623	0.001922	32702.9	6.952076	174.077	181.024	1.141778	0.064933	0.064527	182.367	32702.9	0.060750	0.128513	1419.05	83346.3
100	2.000000	1.144147	7.36602e+06	-43639.1	955.82	-29778.9	0.000000	0.000000	7.152663	197.087	NaN	0.000000	0.001587	0.001673	28.0967	64.033	0.001793	35709	3.879305	175.305	195.015	1.143782	0.066896	0.066531	197.087	35709	0.062757	0.135878	1450.47	88506.7
100	2.000000	1.146058	7.36602e+06	-43639.1	955.819	-29778.9	0.000000	0.000000	7.154772	201.919	NaN	0.000000	0.001559	0.001687	28.0974	65.6883	0.001746	37620.7	2.915778	175.503	197.465	1.145804	0.068807	0.068553	201.919	37620.7	0.064781	0.143509	1407.01	90732
100	2.000000	1.148112	7.36602e+06	-43639.1	955.819	-29778.9	0.000000	0.000000	7.157223	211.576	NaN	0.000000	0.001579	0.001677	28.0984	66.9914	0.001794	37335.3	1.713854	177.36	210.899	1.147878	0.070861	0.070627	211.576	37335.3	0.066610	0.150573	1405.13	87906.1
100	2.000000	1.150118	7.36602e+06	-43639.1	955.82	-29778.9	0.000000	0.000000	7.159888	227.594	NaN	0.000000	0.001566	0.001654	28.099	70.3286	0.001952	36028.1	8.677022	171.555	225.157	1.149683	0.072867	0.072432	227.594	36028.1	0.068129	0.156561	1453.71	83190.1
100	2.000000	1.152074	7.36602e+06	-43639.1	955.82	-29778.9	0.000000	0.000000	7.162173	235.585	NaN	0.000000	0.001610	0.001649	28.099	71.4719	0.001829	39073.7	5.885531	173.24	231.597	1.151811	0.074823	0.074560	235.585	39073.7	0.070301	0.165316	1425.05	87801
100	2.000000	1.154147	7.36602e+06	-43639.1	955.819	-29778.9	0.000000	0.000000	7.164689	246.393	NaN	0.000000	0.001621	0.001677	28.0984	72.0836	0.001791	40247.7	2.978008	175.029	245.146	1.153827	0.076896	0.076576	246.393	40247.7	0.072304	0.173588	1419.41	88258.2
100	2.000000	1.156236	7.36602e+06	-43639.1	955.818	-29778.9	0.000000	0.000000	7.167239	257.602	NaN	0.000000	0.001619	0.001667	28.0987	75.0782	0.001774	42330.9	0.688334	177.291	261.105	1.155901	0.078985	0.078650	257.602	42330.9	0.074420	0.182533	1411.26	90523.1
100	2.000000	1.158186	7.36602e+06	-43639.1	955.819	-29778.9	0.000000	0.000000	7.170053	278.633	NaN	0.000000	0.001634	0.001713	28.0996	76.5792	0.001882	40685.8	7.778403	171.331	279.566	1.157687	0.080935	0.080436	278.633	40685.8	0.075798	0.188472	1478.38	85623.5
100	2.000000	1.160180	7.36602e+06	-43639.1	955.819	-29778.9	0.000000	0.000000	7.172526	290.276	NaN	0.000000	0.001586	0.001714	28.0977	79.3506	0.001786	44434.3	6.543196	172.294	291.334	1.159701	0.082929	0.082450	290.276	44434.3	0.078030	0.198277	1463.99	91170.7
100	2.000000	1.162201	7.36602e+06	-43639.1	955.819	-29778.9	0.000000	0.000000	7.174945	299.948	NaN	0.000000	0.001574	0.001699	28.0979	81.7691	0.001786	45791.1	7.727142	170.058	301.452	1.161789	0.084950	0.084538	299.948	45791.1	0.080037	0.207298	1446.94	91887.5
100	2.000000	1.163993	7.36602e+06	-43639.1	955.818	-29778.9	0.000000	0.000000	7.177468	317.752	NaN	0.000000	0.001593	0.001709	28.0973	83.0606	0.001808	45931.8	4.788418	172.553	309.572	1.163666	0.086742	0.086415	317.752	45931.8	0.081553	0.214234	1483.2	90665.6
100	2.000000	1.166071	7.36602e+06	-43639.1	955.819	-29778.9	0.000000	0.000000	7.179908	326.543	NaN	0.000000	0.001572	0.001699	28.0975	84.7906	0.001757	48256.4	2.489267	174.077	323.153	1.165785	0.088820	0.088534	326.543	48256.4	0.083745	0.224450	1454.85	93061.1
100	2.000000	1.168096	7.36602e+06	-43639.1	955.819	-29778.9	0.000000	0.000000	7.182509	340.57	NaN	0.000000	0.001565	0.001699	28.0974	84.9086	0.001736	48902.6	-0.670496	177.358	337.849	1.167776	0.090845	0.090525	340.57	48902.6	0.085622	0.233376	1459.32	92486.2
100	2.000000	1.170057	7.36602e+06	-43639.1	955.819	-29778.9	0.000000	0.000000	7.185426	363.817	NaN	0.000000	0.001584	0.001673	28.0988	89.4204	0.001832	48802	3.303082	173.373	359.794	1.169751	0.092806	0.092499	363.817	48802	0.087214	0.241078	1509.13	90809.6
100	2.000000	1.172136	7.36602e+06	-43639.1	955.819	-29778.9	0.000000	0.000000	7.188210	380.962	NaN	0.000000	0.001562	0.001658	28.1001	91.1526	0.001812	50313.5	1.675942	175.069	379.743	1.171772	0.094885	0.094521	380.962	50313.5	0.089206	0.250876	1518.53	91775.7
100	2.000000	1.174021	7.36602e+06	-43639.1	955.819	-29778.9	0.000000	0.000000	7.190602	393.306	NaN	0.000000	0.001604	0.001637	28.0994	91.9382	0.001803	50992	4.482586	171.979	388.291	1.173807	0.096770	0.096556	393.306	50992	0.090985	0.259778	1514.01	91405.9
100	2.000000	1.176007	7.36602e+06	-43639.1	955.818	-29778.9	0.000000	0.000000	7.193017	403.763	NaN	0.000000	0.001592	0.001686	28.0987	95.6125	0.001824	52427.5	8.259065	168.612	397.116	1.175651	0.098756	0.098400	403.763	52427.5	0.092980	0.269932	1495.8	92194.6
100	2.000000	1.178056	7.36602e+06	-43639.1	955.818	-29778.9	0.000000	0.000000	7.196017	426.867	NaN	0.000000	0.001616	0.001652	28.0974	94.8617	0.001736	54645	2.960590	173.652	422.067	1.177677	0.100805	0.100426	426.867	54645	0.094946	0.280123	1523.86	94329.8
100	2.000000	1.180047	7.36602e+06	-43639.1	955.818	-29778.9	0.000000	0.000000	7.198265	433.118	NaN	0.000000	0.001615	0.001630	28.0969	97.5933	0.001754	55641.9	6.813026	168.799	430.015	1.179862	0.102796	0.102611	433.118	55641.9	0.096958	0.290731	1489.75	94282
100	2.000000	1.182067	7.36602e+06	-43639.1	955.818	-29778.9	0.000000	0.000000	7.201139	453.917	NaN	0.000000	0.001587	0.001598	28.097	98.5909	0.001796	54885	1.079860	175.293	448.715	1.181706	0.104816	0.104455	453.917	54885	0.098613	0.299593	1515.11	91613.8
100	2.000000	1.184226	7.36602e+06	-43639.1	955.818	-29778.9	0.000000	0.000000	7.203853	467.425	NaN	0.000000	0.001570	0.001600	28.097	100.781	0.001758	57326.2	2.819937	173.454	474.917	1.183740	0.106975	0.106489	467.425	57326.2	0.100859	0.311825	1499	93793.2
100	2.000000	1.186098	7.36602e+06	-43639.1	955.818	-29778.9	0.000000	0.000000	7.206237	479.854	NaN	0.000000	0.001637	0.001631	28.0973	104.614	0.001873	55845	5.704839	170.137	480.665	1.185913	0.108847	0.108662	479.854	55845	0.102403	0.320362	1497.85	90144.1