File: remote_trans/data/nanoindenter/0828-1/data/Data_2025-08-06,11h17m57s/2025-07-22_16-23-58_1_744.txt
2025-07-22, 16:23:58, 1
Index	Phase	Displacement	Time	Pos X	Pos Y	Pos Z	Rot A	Rot B	Piezo Z	Force A	Force B	Gripper	Voltage A	Voltage B	Temperature	Amplitude force	Amplitude pos	Stiffness	Phase shift	Phase excitation	Force A raw	Displacement raw	HMax	HMax raw	Real Force	Real Stiffness	Contact Depth	Area	Hardness	Reduced Mod.
[#]	[#]	[um]	[s]	[um]	[um]	[um]	[m°]	[m°]	[um]	[uN]	[uN]	[V]	[V]	[V]	[°C]	[uN]	[um]	[N/m]	[°]	[°]	[uN]	[um]	[um]	[um]	[uN]	[N/m]	[um]	[um^2]	[MPa]	[MPa]
744	1.000000	0.003378	7.37233e+06	-39889.1	1005.82	-29792.1	0.000000	0.000000	6.002811	-0.010221	NaN	0.000000	0.001585	0.001661	28.0833	0.034396	0.000913	37.6628	32.445	-156.302	0.043421	0.002102	-1.131993	-1.133268	-0.010221	37.6628	-1.131789	-1.338515E+15	7.636292E-18	NaN
744	1.000000	0.013406	7.37233e+06	-39889.1	1005.82	-29792.1	0.000000	0.000000	6.012840	0.009639	NaN	0.000000	0.001531	0.001623	28.0827	0.064075	0.001336	47.9658	179.766	15.4004	0.043725	0.012000	-1.121965	-1.123370	0.009639	47.9658	-1.122116	-9.927956E+14	-9.708807E-18	NaN
744	1.000000	0.023300	7.37233e+06	-39889.1	1005.82	-29792.1	0.000000	0.000000	6.022735	0.011987	NaN	0.000000	0.001544	0.001657	28.083	0.095177	0.001819	52.3273	64.2039	-165.867	-0.009643	0.021977	-1.112070	-1.113393	0.011987	52.3273	-1.112242	-7.317732E+14	-1.638089E-17	NaN
744	1.000000	0.033306	7.37233e+06	-39889.1	1005.82	-29792.1	0.000000	0.000000	6.032741	0.039349	NaN	0.000000	0.001583	0.001657	28.0827	0.096937	0.001837	52.7629	24.9395	12.147	0.075246	0.031988	-1.102065	-1.103382	0.039349	52.7629	-1.102624	-5.436216E+14	-7.238235E-17	NaN
744	1.000000	0.043320	7.37233e+06	-39889.1	1005.82	-29792.1	0.000000	0.000000	6.042754	0.003698	NaN	0.000000	0.001562	0.001698	28.083	0.019526	0.001863	10.4809	99.9506	-169.005	0.017649	0.042049	-1.092051	-1.093322	0.003698	10.4809	-1.092316	-3.952797E+14	-9.354727E-18	NaN
744	1.000000	0.053316	7.37233e+06	-39889.1	1005.82	-29792.1	0.000000	0.000000	6.052750	0.025319	NaN	0.000000	0.001556	0.001692	28.0827	0.090689	0.002025	44.7756	166.69	15.5225	0.020562	0.051943	-1.082055	-1.083428	0.025319	44.7756	-1.082479	-2.916196E+14	-8.682277E-17	NaN
744	1.000000	0.063321	7.37233e+06	-39889.1	1005.82	-29792.1	0.000000	0.000000	6.062755	-0.004158	NaN	0.000000	0.001594	0.001695	28.0828	0.029421	0.002039	14.4282	-57.1444	-167.08	0.027683	0.062009	-1.072049	-1.073362	-0.004158	14.4282	-1.071833	-2.098066E+14	1.981857E-17	NaN
744	1.000000	0.073319	7.37233e+06	-39889.1	1005.82	-29792.1	0.000000	0.000000	6.072751	-0.044345	NaN	0.000000	0.001586	0.001704	28.0828	0.205066	0.001996	102.718	-169.038	12.385	-0.053354	0.071944	-1.062052	-1.063427	-0.044345	102.718	-1.061728	-1.534758E+14	2.889353E-16	NaN
744	1.000000	0.083320	7.37233e+06	-39889.1	1005.82	-29792.1	0.000000	0.000000	6.082756	0.051889	NaN	0.000000	0.001620	0.001659	28.083	0.075436	0.002087	36.1464	24.417	-164.536	-0.011745	0.081998	-1.052050	-1.053373	0.051889	36.1464	-1.053127	-1.176113E+14	-4.411922E-16	NaN
744	1.000000	0.093310	7.37233e+06	-39889.1	1005.82	-29792.1	0.000000	0.000000	6.092743	-0.018614	NaN	0.000000	0.001702	0.001681	28.083	0.051277	0.001972	26.0004	-64.6426	17.5524	0.007671	0.092049	-1.042061	-1.043322	-0.018614	26.0004	-1.041524	-8.212232E+13	2.266671E-16	NaN
744	1.000000	0.103350	7.37233e+06	-39889.1	1005.82	-29792.1	0.000000	0.000000	6.102783	-0.011477	NaN	0.000000	0.001670	0.001672	28.083	0.101128	0.002108	47.9808	-71.746	-165.207	-0.000859	0.102052	-1.032021	-1.033319	-0.011477	47.9808	-1.031842	-6.084844E+13	1.886205E-16	NaN
744	1.000000	0.113340	7.37233e+06	-39889.1	1005.82	-29792.1	0.000000	0.000000	6.112774	-0.002461	NaN	0.000000	0.001637	0.001669	28.083	0.066636	0.002015	33.0617	-59.3591	13.5113	-0.014152	0.111916	-1.022031	-1.023455	-0.002461	33.0617	-1.021975	-4.482549E+13	5.490033E-17	NaN
744	1.000000	0.123343	7.37233e+06	-39889.1	1005.82	-29792.1	0.000000	0.000000	6.122776	-0.015131	NaN	0.000000	0.001645	0.001695	28.0831	0.075772	0.002046	37.0256	173.608	-163.545	-0.016895	0.122025	-1.012028	-1.013346	-0.015131	37.0256	-1.011722	-3.262530E+13	4.637791E-16	NaN
744	1.000000	0.133353	7.37233e+06	-39889.1	1005.82	-29792.1	0.000000	0.000000	6.132787	-0.000445	NaN	0.000000	0.001621	0.001658	28.0829	0.061413	0.002034	30.1943	170.225	11.8898	0.020655	0.131989	-1.002018	-1.003382	-0.000445	30.1943	-1.002007	-2.414261E+13	1.844007E-17	NaN
744	1.000000	0.143357	7.37233e+06	-39889.1	1005.82	-29792.1	0.000000	0.000000	6.142794	0.090995	NaN	0.000000	0.001646	0.001673	28.0813	0.077696	0.002031	38.2581	-101.32	-165.455	0.048305	0.142060	-0.992014	-0.993311	0.090995	38.2581	-0.993798	-1.871779E+13	-4.861397E-15	NaN
744	1.000000	0.153366	7.37233e+06	-39889.1	1005.82	-29792.1	0.000000	0.000000	6.152797	-0.053481	NaN	0.000000	0.001640	0.001692	28.0814	0.124950	0.001850	67.558	-135.628	12.7548	-0.082106	0.152001	-0.982005	-0.983370	-0.053481	67.558	-0.981411	-1.274736E+13	4.195464E-15	NaN
744	1.000000	0.163355	7.37233e+06	-39889.1	1005.82	-29792.1	0.000000	0.000000	6.162788	-0.014573	NaN	0.000000	0.001602	0.001654	28.0814	0.111389	0.001962	56.7658	99.0279	-169.128	0.063868	0.162067	-0.972015	-0.973303	-0.014573	56.7658	-0.971823	-9.467389E+12	1.539303E-15	NaN
744	1.000000	0.173375	7.37233e+06	-39889.1	1005.82	-29792.1	0.000000	0.000000	6.172809	-0.001397	NaN	0.000000	0.001673	0.001670	28.0813	0.040175	0.002156	18.6366	-138.072	12.9684	-0.022163	0.172017	-0.961996	-0.963354	-0.001397	18.6366	-0.961939	-6.966525E+12	2.004722E-16	NaN
744	1.000000	0.183360	7.37233e+06	-39889.1	1005.82	-29792.1	0.000000	0.000000	6.182792	-0.026911	NaN	0.000000	0.001681	0.001661	28.0813	0.036765	0.002059	17.8547	120.67	-166.71	0.017862	0.182045	-0.952011	-0.953326	-0.026911	17.8547	-0.950881	-4.942020E+12	5.445427E-15	NaN
744	1.000000	0.193377	7.37233e+06	-39889.1	1005.82	-29792.1	0.000000	0.000000	6.192812	0.040227	NaN	0.000000	0.001656	0.001701	28.0815	0.018927	0.002027	9.338356	-168.722	12.2227	0.033771	0.191967	-0.941994	-0.943404	0.040227	9.338356	-0.945225	-4.145906E+12	-9.702757E-15	NaN
744	1.000000	0.203357	7.37233e+06	-39889.1	1005.82	-29792.1	0.000000	0.000000	6.202789	-0.032074	NaN	0.000000	0.001657	0.001678	28.0813	0.025392	0.002096	12.1147	-133.857	-166.282	0.002367	0.202080	-0.932014	-0.933291	-0.032074	12.1147	-0.930029	-2.585724E+12	1.240443E-14	NaN
744	1.000000	0.213380	7.37233e+06	-39889.1	1005.82	-29792.1	0.000000	0.000000	6.212816	0.053794	NaN	0.000000	0.001660	0.001686	28.0814	0.086738	0.002095	41.3935	82.2492	13.2826	0.016069	0.212026	-0.921991	-0.923345	0.053794	41.3935	-0.922965	-2.076070E+12	-2.591153E-14	NaN
744	1.000000	0.223399	7.37233e+06	-39889.1	1005.82	-29792.1	0.000000	0.000000	6.222835	0.048533	NaN	0.000000	0.001679	0.001650	28.0815	0.099627	0.001959	50.8624	-27.2062	-163.649	0.081346	0.222052	-0.911972	-0.913319	0.048533	50.8624	-0.912687	-1.508202E+12	-3.217948E-14	NaN
744	1.000000	0.233377	7.37233e+06	-39889.1	1005.82	-29792.1	0.000000	0.000000	6.232813	0.063078	NaN	0.000000	0.001705	0.001639	28.0811	0.101087	0.002026	49.901	98.5051	13.3324	0.038049	0.231994	-0.901994	-0.903377	0.063078	49.901	-0.902942	-1.113829E+12	-5.663178E-14	NaN
744	1.000000	0.243389	7.37233e+06	-39889.1	1005.82	-29792.1	0.000000	0.000000	6.242821	-0.044660	NaN	0.000000	0.001684	0.001651	28.0812	0.017151	0.001844	9.300558	81.5165	-165.469	-0.083828	0.242090	-0.891982	-0.893281	-0.044660	9.300558	-0.888380	-7.079753E+11	6.308159E-14	NaN
744	1.000000	0.253418	7.37233e+06	-39889.1	1005.82	-29792.1	0.000000	0.000000	6.252853	0.017151	NaN	0.000000	0.001586	0.001653	28.0813	0.131278	0.001985	66.1439	12.743	14.099	0.010255	0.252036	-0.881952	-0.883335	0.017151	66.1439	-0.882147	-5.830948E+11	-2.941293E-14	NaN
744	1.000000	0.263398	7.37233e+06	-39889.1	1005.82	-29792.1	0.000000	0.000000	6.262832	0.023752	NaN	0.000000	0.001630	0.001686	28.0819	0.094046	0.002047	45.9462	-143.301	-166.936	-0.029206	0.262145	-0.871973	-0.873226	0.023752	45.9462	-0.872361	-4.299146E+11	-5.524923E-14	NaN
744	1.000000	0.273422	7.37233e+06	-39889.1	1005.82	-29792.1	0.000000	0.000000	6.272855	-0.018760	NaN	0.000000	0.001623	0.001658	28.0814	0.088162	0.001960	44.9864	67.9629	14.5976	0.029743	0.272055	-0.861949	-0.863316	-0.018760	44.9864	-0.861636	-3.077985E+11	6.095006E-14	NaN
744	1.000000	0.283398	7.37233e+06	-39889.1	1005.82	-29792.1	0.000000	0.000000	6.282835	0.066286	NaN	0.000000	0.001615	0.001662	28.0825	0.123860	0.002024	61.2032	-24.943	-167.014	-0.001450	0.282149	-0.851973	-0.853222	0.066286	61.2032	-0.852785	-2.335853E+11	-2.837769E-13	NaN
744	1.000000	0.293419	7.37233e+06	-39889.1	1005.82	-29792.1	0.000000	0.000000	6.292853	-0.004913	NaN	0.000000	0.001597	0.001620	28.0826	0.026695	0.001996	13.3732	-57.9309	15.045	-0.069009	0.292030	-0.841952	-0.843341	-0.004913	13.3732	-0.841676	-1.651952E+11	2.974193E-14	NaN
744	1.000000	0.303416	7.37233e+06	-39889.1	1005.82	-29792.1	0.000000	0.000000	6.302850	0.017953	NaN	0.000000	0.001606	0.001613	28.0826	0.045052	0.002022	22.2807	63.5295	-166.844	-0.049074	0.302109	-0.831955	-0.833262	0.017953	22.2807	-0.832560	-1.243009E+11	-1.444308E-13	NaN
744	1.000000	0.313412	7.37233e+06	-39889.1	1005.82	-29792.1	0.000000	0.000000	6.312844	-0.040457	NaN	0.000000	0.001565	0.001611	28.0827	0.152815	0.001998	76.4714	14.6076	11.5031	-0.049427	0.312113	-0.821959	-0.823258	-0.040457	76.4714	-0.821562	-8.818460E+10	4.587769E-13	NaN
744	1.000000	0.323447	7.37233e+06	-39889.1	1005.82	-29792.1	0.000000	0.000000	6.322882	0.048823	NaN	0.000000	0.001588	0.001639	28.0825	0.040571	0.002026	20.027	-171.037	-163.885	0.000146	0.322108	-0.811924	-0.813263	0.048823	20.027	-0.813753	-6.910005E+10	-7.065501E-13	NaN
744	1.000000	0.333426	7.37233e+06	-39889.1	1005.82	-29792.1	0.000000	0.000000	6.332858	-0.040584	NaN	0.000000	0.001608	0.001637	28.0828	0.058370	0.002154	27.0969	25.846	16.8895	-0.001416	0.332052	-0.801945	-0.803319	-0.040584	27.0969	-0.800821	-4.613294E+10	8.797098E-13	NaN
744	1.000000	0.343410	7.37233e+06	-39889.1	1005.82	-29792.1	0.000000	0.000000	6.342842	-0.046981	NaN	0.000000	0.001632	0.001659	28.0827	0.042970	0.002000	21.4886	64.6927	-167.471	0.008510	0.342141	-0.791960	-0.793230	-0.046981	21.4886	-0.790321	-3.322290E+10	1.414109E-12	NaN
744	1.000000	0.353465	7.37233e+06	-39889.1	1005.82	-29792.1	0.000000	0.000000	6.352898	-0.015286	NaN	0.000000	0.001560	0.001666	28.0828	0.050024	0.001876	26.6706	87.1365	16.12	-0.040742	0.352045	-0.781905	-0.783326	-0.015286	26.6706	-0.781476	-2.519311E+10	6.067555E-13	NaN
744	1.000000	0.363439	7.37233e+06	-39889.1	1005.82	-29792.1	0.000000	0.000000	6.362874	0.031396	NaN	0.000000	0.001589	0.001647	28.0825	0.126668	0.002101	60.2884	155.061	-163.344	-0.005661	0.362151	-0.771932	-0.773220	0.031396	60.2884	-0.772323	-1.891840E+10	-1.659558E-12	NaN
744	1.000000	0.373462	7.37233e+06	-39889.1	1005.82	-29792.1	0.000000	0.000000	6.372893	-0.045474	NaN	0.000000	0.001583	0.001646	28.0827	0.008330	0.002151	3.872980	101.341	11.5571	0.030638	0.372111	-0.761909	-0.763260	-0.045474	3.872980	-0.753103	-1.036231E+10	4.388411E-12	NaN
744	1.000000	0.383456	7.37233e+06	-39889.1	1005.82	-29792.1	0.000000	0.000000	6.382890	0.004613	NaN	0.000000	0.001610	0.001624	28.0824	0.047914	0.002120	22.6039	-60.7944	-163.543	0.019135	0.382204	-0.751915	-0.753167	0.004613	22.6039	-0.752068	-1.003150E+10	-4.598415E-13	NaN
744	1.000000	0.393492	7.37233e+06	-39889.1	1005.82	-29792.1	0.000000	0.000000	6.392924	-0.045645	NaN	0.000000	0.001601	0.001646	28.0828	0.048584	0.002002	24.2656	144.002	14.6908	-0.053040	0.392071	-0.741879	-0.743300	-0.045645	24.2656	-0.740468	-6.973110E+9	6.545868E-12	NaN
744	1.000000	0.403460	7.37233e+06	-39889.1	1005.82	-29792.1	0.000000	0.000000	6.402892	-0.049257	NaN	0.000000	0.001611	0.001617	28.0826	0.064495	0.001956	32.9763	-60.207	-163.181	-0.015254	0.402110	-0.731911	-0.733260	-0.049257	32.9763	-0.730791	-5.147329E+9	9.569454E-12	NaN
744	1.000000	0.413466	7.37233e+06	-39889.1	1005.82	-29792.1	0.000000	0.000000	6.412901	0.034538	NaN	0.000000	0.001653	0.001655	28.0816	0.047419	0.001995	23.7738	8.903972	16.269	-0.037726	0.412121	-0.721905	-0.723250	0.034538	23.7738	-0.722994	-4.029982E+9	-8.570289E-12	NaN
744	1.000000	0.423490	7.37233e+06	-39889.1	1005.82	-29792.1	0.000000	0.000000	6.422924	0.009943	NaN	0.000000	0.001623	0.001609	28.0814	0.045907	0.001965	23.3568	114.385	-164.732	0.067456	0.422092	-0.711881	-0.713279	0.009943	23.3568	-0.712200	-2.871233E+9	-3.462946E-12	NaN
744	1.000000	0.433492	7.37233e+06	-39889.1	1005.82	-29792.1	0.000000	0.000000	6.432923	-0.059836	NaN	0.000000	0.001620	0.001654	28.0811	0.110025	0.001990	55.2994	43.2656	15.5189	0.009328	0.432130	-0.701879	-0.703241	-0.059836	55.2994	-0.701068	-2.023535E+9	2.957021E-11	NaN
744	1.000000	0.443474	7.37233e+06	-39889.1	1005.82	-29792.1	0.000000	0.000000	6.442908	0.007806	NaN	0.000000	0.001578	0.001635	28.0814	0.135648	0.002052	66.0896	158.214	-164.576	0.042171	0.442169	-0.691897	-0.693202	0.007806	66.0896	-0.691985	-1.520718E+9	-5.132856E-12	NaN
744	1.000000	0.453468	7.37233e+06	-39889.1	1005.82	-29792.1	0.000000	0.000000	6.452903	0.021458	NaN	0.000000	0.001587	0.001624	28.0814	0.058917	0.002010	29.3052	156.891	14.5212	0.060882	0.452096	-0.681903	-0.683275	0.021458	29.3052	-0.682452	-1.126506E+9	-1.904809E-11	NaN
744	1.000000	0.463468	7.37233e+06	-39889.1	1005.82	-29792.1	0.000000	0.000000	6.462900	-0.028463	NaN	0.000000	0.001576	0.001630	28.0814	0.026273	0.001969	13.3401	-54.9368	-168.18	0.035412	0.462148	-0.671903	-0.673222	-0.028463	13.3401	-0.670303	-7.683094E+8	3.704587E-11	NaN
744	1.000000	0.473501	7.37233e+06	-39889.1	1005.82	-29792.1	0.000000	0.000000	6.472932	-0.061925	NaN	0.000000	0.001631	0.001661	28.0811	0.023352	0.002050	11.3925	136.006	15.4154	-0.008994	0.472082	-0.661870	-0.663289	-0.061925	11.3925	-0.657793	-5.178935E+8	1.195717E-10	NaN
744	1.000000	0.483465	7.37233e+06	-39889.1	1005.82	-29792.1	0.000000	0.000000	6.482897	-0.038595	NaN	0.000000	0.001607	0.001640	28.0812	0.137365	0.001970	69.7281	-103.362	-168.945	0.061300	0.482213	-0.651906	-0.653158	-0.038595	69.7281	-0.651491	-4.244933E+8	9.092001E-11	NaN
744	1.000000	0.493493	7.37233e+06	-39889.1	1005.82	-29792.1	0.000000	0.000000	6.492928	0.036523	NaN	0.000000	0.001614	0.001646	28.0811	0.043428	0.001953	22.2368	-80.7961	15.6752	0.028777	0.492131	-0.641877	-0.643239	0.036523	22.2368	-0.643109	-3.257958E+8	-1.121028E-10	NaN
744	1.000000	0.503505	7.37233e+06	-39889.1	1005.82	-29792.1	0.000000	0.000000	6.502936	-0.049658	NaN	0.000000	0.001648	0.001630	28.081	0.054359	0.002117	25.682	8.930143	-168.159	0.005954	0.502206	-0.631866	-0.633165	-0.049658	25.682	-0.630416	-2.181397E+8	2.276442E-10	NaN
744	1.000000	0.513528	7.37233e+06	-39889.1	1005.82	-29792.1	0.000000	0.000000	6.512962	0.021440	NaN	0.000000	0.001634	0.001635	28.0811	0.031756	0.001981	16.0337	-169.869	16.7845	0.076373	0.512135	-0.621843	-0.623236	0.021440	16.0337	-0.622846	-1.716900E+8	-1.248742E-10	NaN
744	1.000000	0.523533	7.37233e+06	-39889.1	1005.82	-29792.1	0.000000	0.000000	6.522967	-0.003392	NaN	0.000000	0.001661	0.001629	28.0812	0.118528	0.002109	56.1953	-164.862	-164.531	0.010281	0.522177	-0.611838	-0.613193	-0.003392	56.1953	-0.611792	-1.209969E+8	2.803683E-11	NaN
744	1.000000	0.533492	7.37233e+06	-39889.1	1005.82	-29792.1	0.000000	0.000000	6.532926	0.000595	NaN	0.000000	0.001653	0.001629	28.0809	0.082622	0.002027	40.7582	-105.369	11.4387	-0.109867	0.532177	-0.601879	-0.603194	0.000595	40.7582	-0.601890	-8.840595E+7	-6.726250E-12	NaN
744	1.000000	0.543514	7.37233e+06	-39889.1	1005.82	-29792.1	0.000000	0.000000	6.542947	-0.025905	NaN	0.000000	0.001644	0.001642	28.081	0.049112	0.001975	24.8691	41.6228	-164.556	-0.011615	0.542201	-0.591857	-0.593169	-0.025905	24.8691	-0.591075	-6.273249E+7	4.129463E-10	NaN
744	1.000000	0.553535	7.37233e+06	-39889.1	1005.82	-29792.1	0.000000	0.000000	6.552971	0.045884	NaN	0.000000	0.001661	0.001646	28.0821	0.048870	0.001944	25.1431	138.012	13.101	0.030232	0.552195	-0.581836	-0.583176	0.045884	25.1431	-0.583204	-4.885869E+7	-9.391131E-10	NaN
744	1.000000	0.563521	7.37233e+06	-39889.1	1005.82	-29792.1	0.000000	0.000000	6.562952	-0.060190	NaN	0.000000	0.001637	0.001637	28.0825	0.041948	0.001996	21.0162	128.611	-167.986	0.046722	0.562238	-0.571850	-0.573132	-0.060190	21.0162	-0.569702	-3.180598E+7	1.892397E-9	NaN
744	1.000000	0.573503	7.37233e+06	-39889.1	1005.82	-29792.1	0.000000	0.000000	6.572936	-0.015471	NaN	0.000000	0.001679	0.001644	28.0823	0.017412	0.002028	8.585085	-67.619	12.6521	-0.031078	0.572175	-0.561868	-0.563195	-0.015471	8.585085	-0.560517	-2.374235E+7	6.516050E-10	NaN
744	1.000000	0.583523	7.37233e+06	-39889.1	1005.82	-29792.1	0.000000	0.000000	6.582957	0.013446	NaN	0.000000	0.001602	0.001652	28.0826	0.114490	0.001976	57.954	57.5631	-161.48	-0.012028	0.582229	-0.551848	-0.553142	0.013446	57.954	-0.552022	-1.811145E+7	-7.424190E-10	NaN
744	1.000000	0.593540	7.37233e+06	-39889.1	1005.82	-29792.1	0.000000	0.000000	6.592973	-0.007793	NaN	0.000000	0.001619	0.001649	28.0824	0.117296	0.001928	60.8496	-169.547	17.2045	-0.037806	0.592213	-0.541831	-0.543158	-0.007793	60.8496	-0.541735	-1.304420E+7	5.974416E-10	NaN
744	1.000000	0.603562	7.37233e+06	-39889.1	1005.82	-29792.1	0.000000	0.000000	6.602996	0.001278	NaN	0.000000	0.001602	0.001632	28.0834	0.029376	0.002217	13.2511	-33.4931	-161.817	-0.034226	0.602229	-0.531809	-0.533142	0.001278	13.2511	-0.531881	-9.52122e+06	-1.342003E-10	NaN
744	1.000000	0.613557	7.37233e+06	-39889.1	1005.82	-29792.1	0.000000	0.000000	6.612989	-0.052658	NaN	0.000000	0.001625	0.001657	28.0823	0.039104	0.001867	20.948	-129.596	17.3784	-0.080200	0.612222	-0.521813	-0.523149	-0.052658	20.948	-0.519928	-6.49529e+06	8.107089E-9	NaN
744	1.000000	0.623567	7.37233e+06	-39889.1	1005.82	-29792.1	0.000000	0.000000	6.623001	0.012430	NaN	0.000000	0.001616	0.001650	28.0826	0.078742	0.001977	39.8202	43.8522	-163.284	-0.032722	0.622234	-0.511804	-0.513137	0.012430	39.8202	-0.512038	-5.04424e+06	-2.464099E-9	NaN
744	1.000000	0.633568	7.37233e+06	-39889.1	1005.82	-29792.1	0.000000	0.000000	6.633001	-0.014468	NaN	0.000000	0.001572	0.001630	28.0824	0.038882	0.002019	19.2576	-123.01	19.7904	0.056463	0.632239	-0.501802	-0.503131	-0.014468	19.2576	-0.501239	-3.56698e+06	4.056128E-9	NaN
744	1.000000	0.643567	7.37233e+06	-39889.1	1005.82	-29792.1	0.000000	0.000000	6.642997	-0.081293	NaN	0.000000	0.001586	0.001662	28.0832	0.084330	0.001925	43.8044	-103.011	-162.852	-0.047120	0.642242	-0.491804	-0.493129	-0.081293	43.8044	-0.490412	-2.51858e+06	3.227739E-8	NaN
744	1.000000	0.653557	7.37233e+06	-39889.1	1005.82	-29792.1	0.000000	0.000000	6.652989	-0.029195	NaN	0.000000	0.001581	0.001707	28.0826	0.030451	0.001991	15.2944	-166.468	16.559	0.007083	0.652192	-0.481814	-0.483179	-0.029195	15.2944	-0.480382	-1.8234e+06	1.601129E-8	NaN
744	1.000000	0.663548	7.37233e+06	-39889.1	1005.82	-29792.1	0.000000	0.000000	6.662980	-0.046711	NaN	0.000000	0.001580	0.001665	28.0829	0.087319	0.001921	45.4493	-19.1888	-166.847	-0.004165	0.662227	-0.471823	-0.473144	-0.046711	45.4493	-0.471052	-1.34947e+06	3.461414E-8	NaN
744	1.000000	0.673573	7.37233e+06	-39889.1	1005.82	-29792.1	0.000000	0.000000	6.673008	0.022390	NaN	0.000000	0.001546	0.001709	28.083	0.079970	0.002213	36.1415	31.4517	15.7936	-0.039269	0.672232	-0.461798	-0.463139	0.022390	36.1415	-0.462262	-1.01579e+06	-2.204240E-8	NaN
744	1.000000	0.683591	7.37233e+06	-39889.1	1005.82	-29792.1	0.000000	0.000000	6.683022	-0.077342	NaN	0.000000	0.001584	0.001711	28.0823	0.067059	0.001991	33.6788	-66.8511	-166.166	-0.087819	0.682244	-0.451780	-0.453127	-0.077342	33.6788	-0.450057	-684149	1.130480E-7	NaN
744	1.000000	0.693576	7.37233e+06	-39889.1	1005.82	-29792.1	0.000000	0.000000	6.693009	-0.021858	NaN	0.000000	0.001606	0.001716	28.0812	0.048667	0.001977	24.6207	-48.152	16.8727	-0.027182	0.692202	-0.441795	-0.443169	-0.021858	24.6207	-0.441129	-512026	4.268967E-8	NaN
744	1.000000	0.703584	7.37233e+06	-39889.1	1005.82	-29792.1	0.000000	0.000000	6.703017	-0.010603	NaN	0.000000	0.001550	0.001729	28.0816	0.043118	0.001943	22.1971	-34.2299	-164.483	0.077504	0.702265	-0.431787	-0.433106	-0.010603	22.1971	-0.431429	-373482	2.838911E-8	NaN
744	1.000000	0.713598	7.37233e+06	-39889.1	1005.82	-29792.1	0.000000	0.000000	6.713032	0.003977	NaN	0.000000	0.001588	0.001738	28.0811	0.055247	0.001973	28.0038	56.6785	15.8929	-0.013652	0.712264	-0.421773	-0.423106	0.003977	28.0038	-0.421880	-273568	-1.453746E-8	NaN
744	1.000000	0.723574	7.37233e+06	-39889.1	1005.82	-29792.1	0.000000	0.000000	6.723009	0.027375	NaN	0.000000	0.001551	0.001707	28.0811	0.055593	0.001969	28.2329	-36.6543	-166.634	0.016627	0.722257	-0.411797	-0.413114	0.027375	28.2329	-0.412524	-201504	-1.358526E-7	NaN
744	1.000000	0.733599	7.37233e+06	-39889.1	1005.82	-29792.1	0.000000	0.000000	6.733034	0.028627	NaN	0.000000	0.001609	0.001725	28.0809	0.034811	0.002006	17.355	166.702	15.967	0.087315	0.732241	-0.401772	-0.403130	0.028627	17.355	-0.403009	-147533	-1.940375E-7	NaN
744	1.000000	0.743591	7.37233e+06	-39889.1	1005.82	-29792.1	0.000000	0.000000	6.743025	0.025021	NaN	0.000000	0.001589	0.001706	28.0812	0.138513	0.001946	71.1619	40.394	-168.394	0.053158	0.742266	-0.391780	-0.393105	0.025021	71.1619	-0.392044	-102895	-2.431723E-7	NaN
744	1.000000	0.753594	7.37233e+06	-39889.1	1005.82	-29792.1	0.000000	0.000000	6.753029	0.041437	NaN	0.000000	0.001597	0.001722	28.0811	0.115234	0.002021	57.0116	88.6559	14.5427	0.078224	0.752278	-0.381777	-0.383093	0.041437	57.0116	-0.382322	-74679.7	-5.548683E-7	NaN
744	1.000000	0.763632	7.37233e+06	-39889.1	1005.82	-29792.1	0.000000	0.000000	6.763067	0.015844	NaN	0.000000	0.001581	0.001735	28.081	0.039117	0.001903	20.555	159.555	-167.236	-0.013832	0.762309	-0.371738	-0.373062	0.015844	20.555	-0.372316	-53638.3	-2.953905E-7	NaN
744	1.000000	0.773604	7.37233e+06	-39889.1	1005.82	-29792.1	0.000000	0.000000	6.773040	0.059847	NaN	0.000000	0.001608	0.001687	28.0812	0.134362	0.001960	68.5463	170.643	13.7958	-0.007305	0.772261	-0.361767	-0.363109	0.059847	68.5463	-0.362422	-38621.9	-1.549569E-6	NaN
744	1.000000	0.783612	7.37233e+06	-39889.1	1005.82	-29792.1	0.000000	0.000000	6.783048	0.061755	NaN	0.000000	0.001576	0.001730	28.0812	0.016915	0.001942	8.711041	8.797548	-162.713	0.030624	0.782301	-0.351759	-0.353069	0.061755	8.711041	-0.357076	-32326.2	-1.910372E-6	NaN
744	1.000000	0.793600	7.37233e+06	-39889.1	1005.82	-29792.1	0.000000	0.000000	6.793037	0.077609	NaN	0.000000	0.001622	0.001724	28.0812	0.046186	0.002105	21.9384	7.041738	14.5597	0.022990	0.792259	-0.341771	-0.343111	0.077609	21.9384	-0.344424	-21182.6	-3.663806E-6	NaN
744	1.000000	0.803621	7.37234e+06	-39889.1	1005.82	-29792.1	0.000000	0.000000	6.803055	0.019770	NaN	0.000000	0.001573	0.001708	28.081	0.045170	0.002020	22.3581	-165.12	-166.09	0.059684	0.802304	-0.331750	-0.333066	0.019770	22.3581	-0.332413	-14150.4	-1.397116E-6	NaN
744	1.000000	0.813640	7.37234e+06	-39889.1	1005.82	-29792.1	0.000000	0.000000	6.813077	0.070530	NaN	0.000000	0.001578	0.001721	28.0813	0.014045	0.001908	7.361764	122.836	13.569	-0.027833	0.812257	-0.321730	-0.323113	0.070530	7.361764	-0.328916	-12576.8	-5.607976E-6	NaN
744	1.000000	0.823630	7.37234e+06	-39889.1	1005.82	-29792.1	0.000000	0.000000	6.823062	-0.025304	NaN	0.000000	0.001591	0.001727	28.0827	0.117299	0.002177	53.8745	-112.753	-165.609	-0.065443	0.822352	-0.311741	-0.313019	-0.025304	53.8745	-0.311389	-6943.88	3.644057E-6	NaN
744	1.000000	0.833652	7.37234e+06	-39889.1	1005.82	-29792.1	0.000000	0.000000	6.833088	0.048719	NaN	0.000000	0.001572	0.001755	28.0828	0.066174	0.001850	35.7642	151.267	14.362	0.013093	0.832271	-0.301719	-0.303099	0.048719	35.7642	-0.302740	-5168.86	-9.425411E-6	NaN
744	1.000000	0.843666	7.37234e+06	-39889.1	1005.82	-29792.1	0.000000	0.000000	6.843102	0.056763	NaN	0.000000	0.001562	0.001741	28.0825	0.041016	0.001930	21.247	-65.4649	-167.468	0.124622	0.842339	-0.291705	-0.293031	0.056763	21.247	-0.293709	-3791.41	-1.497151E-5	NaN
744	1.000000	0.853638	7.37234e+06	-39889.1	1005.82	-29792.1	0.000000	0.000000	6.853071	-0.018149	NaN	0.000000	0.001555	0.001725	28.0829	0.116809	0.001970	59.2999	-69.1268	17.8476	-0.086683	0.852328	-0.281733	-0.283043	-0.018149	59.2999	-0.281503	-2486.78	7.298014E-6	NaN
744	1.000000	0.863646	7.37234e+06	-39889.1	1005.82	-29792.1	0.000000	0.000000	6.863081	0.032982	NaN	0.000000	0.001560	0.001799	28.0829	0.052603	0.002090	25.1645	53.7766	-165.804	0.064286	0.862363	-0.271725	-0.273008	0.032982	25.1645	-0.272708	-1830.91	-1.801414E-5	NaN
744	1.000000	0.873650	7.37234e+06	-39889.1	1005.82	-29792.1	0.000000	0.000000	6.873084	0.010787	NaN	0.000000	0.001546	0.001708	28.0827	0.069146	0.001970	35.0991	120.748	16.4893	0.087774	0.872324	-0.261721	-0.263047	0.010787	35.0991	-0.261951	-1255.45	-8.592165E-6	NaN
744	1.000000	0.883646	7.37234e+06	-39889.1	1005.82	-29792.1	0.000000	0.000000	6.883081	0.037919	NaN	0.000000	0.001582	0.001699	28.0825	0.029328	0.001988	14.7505	-2.269498	-165.849	0.003285	0.882380	-0.251725	-0.252991	0.037919	14.7505	-0.253653	-936.188	-4.050333E-5	NaN
744	1.000000	0.893701	7.37234e+06	-39889.1	1005.82	-29792.1	0.000000	0.000000	6.893136	0.047782	NaN	0.000000	0.001586	0.001712	28.0827	0.119801	0.001933	61.9904	-130.583	15.1714	0.080760	0.892306	-0.241670	-0.243065	0.047782	61.9904	-0.242248	-623.202	-7.667221E-5	NaN
744	1.000000	0.903648	7.37234e+06	-39889.1	1005.82	-29792.1	0.000000	0.000000	6.903083	0.017869	NaN	0.000000	0.001562	0.001704	28.0828	0.090942	0.001974	46.0633	-32.4036	-162.18	0.028872	0.902306	-0.231723	-0.233065	0.017869	46.0633	-0.232014	-430.801	-4.147843E-5	NaN
744	1.000000	0.913624	7.37234e+06	-39889.1	1005.82	-29792.1	0.000000	0.000000	6.913058	0.000763	NaN	0.000000	0.001572	0.001729	28.0827	0.133735	0.001952	68.5037	-109.024	14.7658	0.052063	0.912326	-0.221746	-0.223045	0.000763	68.5037	-0.221755	-296.27	-2.576842E-6	NaN
744	1.000000	0.923664	7.37234e+06	-39889.1	1005.82	-29792.1	0.000000	0.000000	6.923100	0.068298	NaN	0.000000	0.001548	0.001732	28.0826	0.010545	0.002006	5.257242	28.127	-161.398	0.043657	0.922381	-0.211707	-0.212990	0.068298	5.257242	-0.221451	-292.979	-0.000233	NaN
744	1.000000	0.933709	7.37234e+06	-39889.1	1005.82	-29792.1	0.000000	0.000000	6.933143	-0.000777	NaN	0.000000	0.001603	0.001687	28.0827	0.015258	0.001968	7.754514	82.8357	15.1806	0.044341	0.932332	-0.201662	-0.203038	-0.000777	7.754514	-0.201586	-139.874	5.556684E-6	NaN
744	1.000000	0.943692	7.37234e+06	-39889.1	1005.82	-29792.1	0.000000	0.000000	6.943126	0.009113	NaN	0.000000	0.001586	0.001655	28.0827	0.111830	0.002076	53.8679	98.6763	-166.341	-0.016798	0.942388	-0.191678	-0.192982	0.009113	53.8679	-0.191805	-96.4137	-9.451979E-5	NaN
744	1.000000	0.953671	7.37234e+06	-39889.1	1005.82	-29792.1	0.000000	0.000000	6.953106	0.041026	NaN	0.000000	0.001568	0.001705	28.0827	0.086070	0.002078	41.4163	167.909	13.9796	0.034324	0.952353	-0.181700	-0.183018	0.041026	41.4163	-0.182443	-67.1322	-0.000611	NaN
744	1.000000	0.963681	7.37234e+06	-39889.1	1005.82	-29792.1	0.000000	0.000000	6.963116	0.028321	NaN	0.000000	0.001607	0.001683	28.0813	0.046676	0.002025	23.0466	-94.8016	-162.763	4.386690E-6	0.962412	-0.171690	-0.172959	0.028321	23.0466	-0.172611	-45.5859	-0.000621	NaN
744	1.000000	0.973705	7.37234e+06	-39889.1	1005.82	-29792.1	0.000000	0.000000	6.973139	0.003901	NaN	0.000000	0.001571	0.001696	28.0815	0.029271	0.002015	14.5244	39.3258	12.3056	-0.044128	0.972364	-0.161666	-0.163007	0.003901	14.5244	-0.161867	-29.5861	-0.000132	NaN
744	1.000000	0.983695	7.37234e+06	-39889.1	1005.82	-29792.1	0.000000	0.000000	6.983131	0.074777	NaN	0.000000	0.001601	0.001714	28.0812	0.077774	0.001946	39.963	-97.7336	-165.429	0.026734	0.982356	-0.151676	-0.153014	0.074777	39.963	-0.153079	-20.6031	-0.003629	NaN
744	1.000000	0.993723	7.37234e+06	-39889.1	1005.82	-29792.1	0.000000	0.000000	6.993158	0.043863	NaN	0.000000	0.001587	0.001705	28.0813	0.030646	0.002102	14.5771	176.976	14.8927	0.078639	0.992351	-0.141648	-0.143020	0.043863	14.5771	-0.143905	-13.9918	-0.003135	NaN
744	1.000000	1.003730	7.37234e+06	-39889.1	1005.82	-29792.1	0.000000	0.000000	7.003164	0.017620	NaN	0.000000	0.001576	0.001699	28.0811	0.023153	0.001935	11.9672	143.134	-162.096	-0.007758	1.002372	-0.131641	-0.132998	0.017620	11.9672	-0.132745	-8.611500	-0.002046	NaN
744	1.000000	1.013711	7.37234e+06	-39889.1	1005.82	-29792.1	0.000000	0.000000	7.013144	-0.013574	NaN	0.000000	0.001618	0.001700	28.0814	0.110659	0.001973	56.0828	-73.5824	11.7575	0.030158	1.012395	-0.121660	-0.122975	-0.013574	56.0828	-0.121479	-5.174133	0.002623	NaN
744	1.000000	1.023700	7.37234e+06	-39889.1	1005.82	-29792.1	0.000000	0.000000	7.023133	-0.027673	NaN	0.000000	0.001591	0.001686	28.081	0.065919	0.002068	31.8772	125.555	-163.729	-0.056280	1.022407	-0.111670	-0.112964	-0.027673	31.8772	-0.111019	-3.157304	0.008765	NaN
744	1.000000	1.033742	7.37234e+06	-39889.1	1005.82	-29792.1	0.000000	0.000000	7.033178	0.056746	NaN	0.000000	0.001604	0.001713	28.0812	0.017874	0.001991	8.979604	-13.1857	14.3468	0.071406	1.032370	-0.101629	-0.103001	0.056746	8.979604	-0.106369	-2.515572	-0.022558	NaN
744	1.000000	1.043735	7.37234e+06	-39889.1	1005.82	-29792.1	0.000000	0.000000	7.043171	0.052688	NaN	0.000000	0.001606	0.001666	28.0813	0.071510	0.001832	39.0322	-45.6105	-167.234	-0.016040	1.042426	-0.091636	-0.092945	0.052688	39.0322	-0.092648	-1.245859	-0.042291	NaN
744	1.000000	1.053719	7.37234e+06	-39889.1	1005.82	-29792.1	0.000000	0.000000	7.053153	0.010795	NaN	0.000000	0.001594	0.001718	28.0812	0.131344	0.001947	67.4476	-14.1652	17.8383	-0.048010	1.052364	-0.081652	-0.083007	0.010795	67.4476	-0.081772	-0.685083	-0.015757	NaN
744	1.000000	1.063735	7.37234e+06	-39889.1	1005.82	-29792.1	0.000000	0.000000	7.063170	0.030295	NaN	0.000000	0.001607	0.001684	28.0816	0.047092	0.001873	25.136	106.54	-165.599	-0.029869	1.062397	-0.071636	-0.072974	0.030295	25.136	-0.072540	-0.398403	-0.076042	NaN
744	1.000000	1.073755	7.37234e+06	-39889.1	1005.82	-29792.1	0.000000	0.000000	7.073191	0.051179	NaN	0.000000	0.001597	0.001705	28.0811	0.036203	0.002012	17.9972	-10.1469	14.7058	0.068884	1.072340	-0.061616	-0.063031	0.051179	17.9972	-0.063748	-0.229989	-0.222528	NaN
744	1.000000	1.083718	7.37234e+06	-39889.1	1005.82	-29792.1	0.000000	0.000000	7.083149	-0.047967	NaN	0.000000	0.001594	0.001712	28.0813	0.093340	0.002044	45.6631	170.016	-166.131	-0.054841	1.082410	-0.051653	-0.052961	-0.047967	45.6631	-0.050865	-0.096910	0.494968	NaN
744	1.000000	1.093787	7.37234e+06	-39889.1	1005.82	-29792.1	0.000000	0.000000	7.093222	0.012322	NaN	0.000000	0.001605	0.001710	28.0816	0.020451	0.002058	9.935307	-54.4131	13.2903	-0.003517	1.092406	-0.041583	-0.042965	0.012322	9.935307	-0.042514	-0.053946	-0.228406	NaN
744	1.000000	1.103780	7.37234e+06	-39889.1	1005.82	-29792.1	0.000000	0.000000	7.103212	-0.025668	NaN	0.000000	0.001567	0.001678	28.0825	0.076850	0.002015	38.1314	-104.145	-162.891	0.002439	1.102467	-0.031591	-0.032904	-0.025668	38.1314	-0.031086	-0.024686	1.039766	NaN
744	1.000000	1.113741	7.37234e+06	-39889.1	1005.82	-29792.1	0.000000	0.000000	7.113175	0.023388	NaN	0.000000	0.001615	0.001698	28.0824	0.026946	0.001928	13.9785	-40.8114	15.6364	0.083244	1.112396	-0.021630	-0.022975	0.023388	13.9785	-0.022885	-0.014875	-1.572263	NaN
744	1.000000	1.123752	7.37234e+06	-39889.1	1005.82	-29792.1	0.000000	0.000000	7.123190	0.087858	NaN	0.000000	0.001629	0.001691	28.0835	0.052613	0.002049	25.674	-101.684	-159.404	0.091185	1.122465	-0.011618	-0.012905	0.087858	25.674	-0.014185	-0.008792	-9.993060	NaN
744	1.000000	1.133690	7.37234e+06	-39889.1	1005.82	-29792.1	0.000000	0.000000	7.133301	4.313248	NaN	0.000000	0.001605	0.001699	28.0825	5.126961	0.001906	2689.97	8.493704	11.8365	2.508343	1.132372	-0.001681	-0.002999	4.313248	2689.97	-0.002883	-0.002042	-2112.02	NaN
744	2.000000	1.138426	7.37234e+06	-39889.1	1005.82	-29792.1	0.000000	0.000000	7.138292	10.528	NaN	0.000000	0.001586	0.001686	28.0827	8.538777	0.001536	5560.3	5.068422	-171.571	11.3478	1.138077	0.003055	0.002706	10.528	5560.3	0.001635	0.001262	8343.02	143008
744	2.000000	1.140858	7.37234e+06	-39889.1	1005.82	-29792.1	0.000000	0.000000	7.140785	11.9928	NaN	0.000000	0.001606	0.001714	28.0826	12.2539	0.001710	7164.49	7.506351	7.515965	11.0419	1.140520	0.005488	0.005149	11.9928	7164.49	0.004232	0.003443	3482.84	111549
744	2.000000	1.143313	7.37234e+06	-39889.1	1005.82	-29792.1	0.000000	0.000000	7.143525	18.9583	NaN	0.000000	0.001591	0.001660	28.0827	16.011	0.001715	9337.99	4.226046	-174.141	17.3019	1.143045	0.007942	0.007674	18.9583	9337.99	0.006419	0.005466	3468.3	115394
744	2.000000	1.145827	7.37234e+06	-39889.1	1005.82	-29792.1	0.000000	0.000000	7.146298	25.2362	NaN	0.000000	0.001620	0.001686	28.0825	18.4026	0.001677	10973.4	3.696020	5.846847	23.2029	1.145465	0.010456	0.010094	25.2362	10973.4	0.008731	0.007805	3233.25	113481
744	2.000000	1.148312	7.37234e+06	-39889.1	1005.82	-29792.1	0.000000	0.000000	7.148847	26.7985	NaN	0.000000	0.001592	0.001681	28.083	21.8483	0.001959	11153.3	9.187182	-179.564	24.6889	1.148000	0.012941	0.012629	26.7985	11153.3	0.011139	0.010475	2558.23	99561.2
744	2.000000	1.150808	7.37234e+06	-39889.1	1005.82	-29792.1	0.000000	0.000000	7.151650	34.2624	NaN	0.000000	0.001597	0.001705	28.0826	23.7827	0.001797	13237.2	6.307535	2.191639	32.7295	1.150422	0.015437	0.015051	34.2624	13237.2	0.013496	0.013332	2569.96	104743
744	2.000000	1.153347	7.37234e+06	-39889.1	1005.82	-29792.1	0.000000	0.000000	7.154420	39.8925	NaN	0.000000	0.001569	0.001699	28.0826	26.2581	0.001835	14311.9	4.644144	-176.695	40.3808	1.152996	0.017976	0.017625	39.8925	14311.9	0.015885	0.016484	2420.06	101845
744	2.000000	1.155858	7.37234e+06	-39889.1	1005.82	-29792.1	0.000000	0.000000	7.157262	47.9481	NaN	0.000000	0.001579	0.001695	28.0827	27.5127	0.001924	14301.9	5.003402	5.026045	47.4787	1.155438	0.020487	0.020067	47.9481	14301.9	0.017973	0.019457	2464.34	93676.9
744	2.000000	1.158315	7.37234e+06	-39889.1	1005.82	-29792.1	0.000000	0.000000	7.159892	52.1517	NaN	0.000000	0.001597	0.001689	28.0827	30.0988	0.001736	17337	1.246528	-175.007	54.2281	1.158079	0.022945	0.022708	52.1517	17337	0.020689	0.023636	2206.48	103030
744	2.000000	1.160796	7.37234e+06	-39889.1	1005.82	-29792.1	0.000000	0.000000	7.162611	57.9574	NaN	0.000000	0.001587	0.001697	28.0816	33.1446	0.001941	17072.1	3.837538	3.035126	57.0473	1.160437	0.025425	0.025066	57.9574	17072.1	0.022879	0.027270	2125.35	94454.1
744	2.000000	1.163258	7.37234e+06	-39889.1	1005.82	-29792.1	0.000000	0.000000	7.165828	76.3149	NaN	0.000000	0.001584	0.001715	28.0815	35.2232	0.001731	20342.6	1.925372	-178.362	73.7502	1.162915	0.027887	0.027544	76.3149	20342.6	0.025074	0.031150	2449.94	105306
744	2.000000	1.165794	7.37234e+06	-39889.1	1005.82	-29792.1	0.000000	0.000000	7.168242	73.3517	NaN	0.000000	0.001580	0.001677	28.0813	37.0523	0.001703	21756.2	5.139614	-1.731845	71.9179	1.165522	0.030423	0.030151	73.3517	21756.2	0.027894	0.036493	2010.05	104053
744	2.000000	1.168309	7.37234e+06	-39889.1	1005.82	-29792.1	0.000000	0.000000	7.171299	86.5393	NaN	0.000000	0.001624	0.001678	28.0819	38.7152	0.001786	21679.6	8.192114	177.199	87.6715	1.167900	0.032938	0.032529	86.5393	21679.6	0.029945	0.040629	2129.99	98266.7
744	2.000000	1.170717	7.37234e+06	-39889.1	1005.82	-29792.1	0.000000	0.000000	7.173874	90.5882	NaN	0.000000	0.001597	0.001663	28.0816	40.9375	0.001771	23110.3	3.028681	-0.699564	85.7135	1.170473	0.035347	0.035102	90.5882	23110.3	0.032407	0.045880	1974.45	98574.8
744	2.000000	1.173254	7.37234e+06	-39889.1	1005.82	-29792.1	0.000000	0.000000	7.176877	101.93	NaN	0.000000	0.001568	0.001688	28.0816	43.2655	0.001779	24319.8	1.969965	-179.781	101.546	1.173081	0.037884	0.037710	101.93	24319.8	0.034740	0.051143	1993.06	98251.9
744	2.000000	1.175789	7.37234e+06	-39889.1	1005.82	-29792.1	0.000000	0.000000	7.179884	113.419	NaN	0.000000	0.001665	0.001697	28.0811	44.8966	0.001885	23819.7	6.264115	-1.330522	115.006	1.175336	0.040418	0.039965	113.419	23819.7	0.036847	0.056135	2020.49	91853.1
744	2.000000	1.178225	7.37234e+06	-39889.1	1005.82	-29792.1	0.000000	0.000000	7.182674	122.028	NaN	0.000000	0.001646	0.001665	28.0815	46.9824	0.001817	25855.4	3.225348	179.313	119.238	1.177952	0.042855	0.042581	122.028	25855.4	0.039315	0.062269	1959.68	94664.4
744	2.000000	1.180771	7.37234e+06	-39889.1	1005.82	-29792.1	0.000000	0.000000	7.185505	128.968	NaN	0.000000	0.001613	0.001647	28.0813	49.6568	0.001743	28490.9	4.423663	-2.875779	126.182	1.180456	0.045400	0.045086	128.968	28490.9	0.042005	0.069314	1860.64	98871.2
744	2.000000	1.183225	7.37234e+06	-39889.1	1005.82	-29792.1	0.000000	0.000000	7.188558	143.545	NaN	0.000000	0.001600	0.001674	28.0816	52.0258	0.001766	29464.7	4.341608	177.397	142.706	1.182944	0.047854	0.047573	143.545	29464.7	0.044201	0.075334	1905.44	98079.7
744	2.000000	1.185706	7.37234e+06	-39889.1	1005.82	-29792.1	0.000000	0.000000	7.191466	153.959	NaN	0.000000	0.001582	0.001667	28.0813	53.9112	0.001768	30493.4	4.914494	-3.658509	149.196	1.185410	0.050335	0.050040	153.959	30493.4	0.046548	0.082044	1876.55	97265.1
744	2.000000	1.188174	7.37234e+06	-39889.1	1005.82	-29792.1	0.000000	0.000000	7.194220	160.901	NaN	0.000000	0.001594	0.001673	28.0815	56.4915	0.001812	31180.6	6.435673	174.486	157.308	1.187943	0.052804	0.052573	160.901	31180.6	0.048933	0.089145	1804.95	95413.5
744	2.000000	1.190821	7.37234e+06	-39889.1	1005.82	-29792.1	0.000000	0.000000	7.197488	176.032	NaN	0.000000	0.001614	0.001649	28.0814	58.4658	0.001780	32838.9	4.521453	-3.339799	177.494	1.190317	0.055450	0.054946	176.032	32838.9	0.051429	0.096882	1816.97	96391.8
744	2.000000	1.193199	7.37234e+06	-39889.1	1005.82	-29792.1	0.000000	0.000000	7.200344	187.641	NaN	0.000000	0.001586	0.001676	28.0814	61.0733	0.001722	35465.5	3.542270	176.191	185.426	1.192911	0.057829	0.057540	187.641	35465.5	0.053861	0.104718	1791.86	100131
744	2.000000	1.195686	7.37234e+06	-39889.1	1005.82	-29792.1	0.000000	0.000000	7.203463	203.038	NaN	0.000000	0.001589	0.001717	28.0826	63.6722	0.001806	35265	6.628270	-5.522819	197.063	1.195345	0.060315	0.059974	203.038	35265	0.055997	0.111846	1815.33	96339.9
744	2.000000	1.198287	7.37234e+06	-39889.1	1005.82	-29792.1	0.000000	0.000000	7.205953	200.318	NaN	0.000000	0.001611	0.001706	28.0828	65.3774	0.001811	36092.9	4.722583	174.327	199.94	1.198096	0.062916	0.062725	200.318	36092.9	0.058754	0.121377	1650.38	94651.3
744	2.000000	1.200780	7.37234e+06	-39889.1	1005.82	-29792.1	0.000000	0.000000	7.209463	225.059	NaN	0.000000	0.001600	0.001693	28.0826	68.0403	0.001779	38255.3	3.612934	-4.151105	225.07	1.200482	0.065409	0.065112	225.059	38255.3	0.060997	0.129408	1739.14	97159.2
744	2.000000	1.203277	7.37234e+06	-39889.1	1005.82	-29792.1	0.000000	0.000000	7.212448	236.957	NaN	0.000000	0.001624	0.001687	28.0825	71.1259	0.001855	38353.2	5.868917	173.371	236.975	1.202920	0.067906	0.067549	236.957	38353.2	0.063272	0.137803	1719.53	94394.2
744	2.000000	1.205664	7.37234e+06	-39889.1	1005.82	-29792.1	0.000000	0.000000	7.215321	248.779	NaN	0.000000	0.001644	0.001692	28.0825	71.6278	0.001682	42582.7	4.580375	-5.423812	242.66	1.205381	0.070293	0.070010	248.779	42582.7	0.065911	0.147854	1682.59	101179
744	2.000000	1.208136	7.37234e+06	-39889.1	1005.82	-29792.1	0.000000	0.000000	7.218445	264.644	NaN	0.000000	0.001656	0.001668	28.0827	74.4575	0.001761	42271.6	4.596203	173.628	259.601	1.207955	0.072766	0.072584	264.644	42271.6	0.068070	0.156326	1692.9	97680.1
744	2.000000	1.210730	7.37234e+06	-39889.1	1005.82	-29792.1	0.000000	0.000000	7.221777	282.608	NaN	0.000000	0.001635	0.001682	28.0824	77.25	0.001751	44126.5	6.509290	-7.140218	281.965	1.210208	0.075359	0.074837	282.608	44126.5	0.070556	0.166357	1698.8	98844.4
744	2.000000	1.213116	7.37234e+06	-39889.1	1005.82	-29792.1	0.000000	0.000000	7.225057	304.364	NaN	0.000000	0.001616	0.001722	28.0825	80.3149	0.001767	45450.8	4.777558	173.145	297.817	1.212843	0.077745	0.077472	304.364	45450.8	0.072722	0.175338	1735.87	99169
744	2.000000	1.215686	7.37234e+06	-39889.1	1005.82	-29792.1	0.000000	0.000000	7.228133	316.665	NaN	0.000000	0.001602	0.001652	28.0822	81.3375	0.001786	45550.5	2.736595	-3.968618	311.713	1.215322	0.080315	0.079952	316.665	45550.5	0.075101	0.185455	1707.5	96637.7
744	2.000000	1.218214	7.37234e+06	-39889.1	1005.82	-29792.1	0.000000	0.000000	7.231130	328.077	NaN	0.000000	0.001645	0.001673	28.0827	84.4234	0.001819	46416.5	8.972145	169.318	326.656	1.217888	0.082843	0.082517	328.077	46416.5	0.077542	0.196114	1672.89	95761.6
744	2.000000	1.220708	7.37234e+06	-39889.1	1005.82	-29792.1	0.000000	0.000000	7.234198	342.055	NaN	0.000000	0.001636	0.001699	28.0825	86.3551	0.001862	46380.4	3.128397	-4.991950	338.488	1.220492	0.085337	0.085121	342.055	46380.4	0.079806	0.206248	1658.46	93306.8
744	2.000000	1.223185	7.37234e+06	-39889.1	1005.82	-29792.1	0.000000	0.000000	7.237615	364.916	NaN	0.000000	0.001704	0.001642	28.0826	88.3562	0.001778	49681.2	5.052227	172.675	363.659	1.222891	0.087814	0.087521	364.916	49681.2	0.082306	0.217716	1676.11	97279.3
744	2.000000	1.225646	7.37234e+06	-39889.1	1005.82	-29792.1	0.000000	0.000000	7.240900	384.968	NaN	0.000000	0.001590	0.001693	28.0827	89.9966	0.001816	49558.1	5.824422	-7.856272	377.689	1.225189	0.090275	0.089818	384.968	49558.1	0.084449	0.227782	1690.07	94869.8
744	2.000000	1.228144	7.37234e+06	-39889.1	1005.82	-29792.1	0.000000	0.000000	7.244112	402.34	NaN	0.000000	0.001591	0.001680	28.0818	91.7054	0.001796	51062	3.867457	173.911	399.559	1.227889	0.092774	0.092518	402.34	51062	0.086864	0.239374	1680.8	95352.4
744	2.000000	1.230552	7.37234e+06	-39889.1	1005.82	-29792.1	0.000000	0.000000	7.246763	408.254	NaN	0.000000	0.001577	0.001681	28.0817	94.9706	0.001827	51979.1	0.604900	-3.518056	397.434	1.230306	0.095181	0.094936	408.254	51979.1	0.089291	0.251294	1624.61	94735.2
744	2.000000	1.233129	7.37234e+06	-39889.1	1005.82	-29792.1	0.000000	0.000000	7.250438	434.997	NaN	0.000000	0.001545	0.001670	28.0812	98.272	0.001898	51774.4	5.169563	172.098	430.135	1.232934	0.097758	0.097564	434.997	51774.4	0.091457	0.262162	1659.27	92385.3
744	2.000000	1.235085	7.37234e+06	-39889.1	1005.82	-29792.1	0.000000	0.000000	7.253132	452.938	NaN	0.000000	0.001541	0.001708	28.0815	98.7195	0.001862	53028.7	5.153780	171.854	444.755	1.234802	0.099715	0.099431	452.938	53028.7	0.093309	0.271624	1667.52	92960.9