File: remote_trans/data/nanoindenter/0828-1/data/Data_2025-08-06,11h17m57s/2025-07-22_16-23-58_1_487.txt
2025-07-22, 16:23:58, 1
Index	Phase	Displacement	Time	Pos X	Pos Y	Pos Z	Rot A	Rot B	Piezo Z	Force A	Force B	Gripper	Voltage A	Voltage B	Temperature	Amplitude force	Amplitude pos	Stiffness	Phase shift	Phase excitation	Force A raw	Displacement raw	HMax	HMax raw	Real Force	Real Stiffness	Contact Depth	Area	Hardness	Reduced Mod.
[#]	[#]	[um]	[s]	[um]	[um]	[um]	[m°]	[m°]	[um]	[uN]	[uN]	[V]	[V]	[V]	[°C]	[uN]	[um]	[N/m]	[°]	[°]	[uN]	[um]	[um]	[um]	[uN]	[N/m]	[um]	[um^2]	[MPa]	[MPa]
487	1.000000	0.002292	7.36982e+06	-52739.1	1005.82	-29748.4	0.000000	0.000000	6.002771	-0.057095	NaN	0.000000	0.001572	0.001729	28.0827	0.032295	0.000950	33.9782	-103.958	-164.436	-0.021370	0.001080	-1.042025	-1.043236	-0.057095	33.9782	-1.040765	-8.021368E+13	7.117897E-16	NaN
487	1.000000	0.010294	7.36982e+06	-52739.1	1005.82	-29748.4	0.000000	0.000000	6.010776	-0.001594	NaN	0.000000	0.001540	0.001715	28.0827	0.063273	0.000965	65.5614	-69.9965	-164.074	-0.040860	0.009030	-1.034022	-1.035286	-0.001594	65.5614	-1.034004	-6.506263E+13	2.449828E-17	NaN
487	1.000000	0.018269	7.36982e+06	-52739.1	1005.82	-29748.4	0.000000	0.000000	6.018749	-0.048515	NaN	0.000000	0.001516	0.001708	28.083	0.113062	0.001729	65.3779	117.95	-164.624	-0.031380	0.016943	-1.026047	-1.027373	-0.048515	65.3779	-1.025491	-4.998301E+13	9.706203E-16	NaN
487	1.000000	0.026334	7.36982e+06	-52739.1	1005.82	-29748.4	0.000000	0.000000	6.026811	-0.132923	NaN	0.000000	0.001569	0.001709	28.0827	0.047436	0.001711	27.7267	160.601	-166.861	-0.064158	0.024936	-1.017982	-1.019381	-0.132923	27.7267	-1.014387	-3.543408E+13	3.751286E-15	NaN
487	1.000000	0.034304	7.36982e+06	-52739.1	1005.82	-29748.4	0.000000	0.000000	6.034786	0.002371	NaN	0.000000	0.001548	0.001673	28.0828	0.100351	0.001828	54.888	-47.5915	-165.025	0.026508	0.032974	-1.010013	-1.011342	0.002371	54.888	-1.010045	-3.097331E+13	-7.653831E-17	NaN
487	1.000000	0.042285	7.36982e+06	-52739.1	1005.82	-29748.4	0.000000	0.000000	6.042765	-0.054684	NaN	0.000000	0.001555	0.001698	28.0827	0.074218	0.001971	37.6564	78.0633	-164.333	-0.014872	0.040958	-1.002031	-1.003359	-0.054684	37.6564	-1.000942	-2.335896E+13	2.341008E-15	NaN
487	1.000000	0.050277	7.36982e+06	-52739.1	1005.82	-29748.4	0.000000	0.000000	6.050760	0.008238	NaN	0.000000	0.001570	0.001688	28.0825	0.092865	0.002046	45.384	90.6349	-167.91	0.040455	0.048964	-0.994039	-0.995352	0.008238	45.384	-0.994175	-1.893830E+13	-4.350157E-16	NaN
487	1.000000	0.058241	7.36982e+06	-52739.1	1005.82	-29748.4	0.000000	0.000000	6.058719	-0.119375	NaN	0.000000	0.001563	0.001710	28.083	0.061013	0.001838	33.1886	51.349	-166.123	-0.060822	0.056950	-0.986075	-0.987366	-0.119375	33.1886	-0.983377	-1.354909E+13	8.810578E-15	NaN
487	1.000000	0.066261	7.36982e+06	-52739.1	1005.82	-29748.4	0.000000	0.000000	6.066743	0.017680	NaN	0.000000	0.001567	0.001726	28.0826	0.036732	0.002017	18.2124	-38.1686	-167.778	-0.036152	0.064970	-0.978056	-0.979346	0.017680	18.2124	-0.978784	-1.174973E+13	-1.504706E-15	NaN
487	1.000000	0.074297	7.36982e+06	-52739.1	1005.82	-29748.4	0.000000	0.000000	6.074778	-0.027830	NaN	0.000000	0.001572	0.001733	28.0814	0.047388	0.002069	22.9032	-107.727	-164.279	-0.040369	0.072939	-0.970020	-0.971377	-0.027830	22.9032	-0.969109	-8.702591E+12	3.197939E-15	NaN
487	1.000000	0.082277	7.36982e+06	-52739.1	1005.82	-29748.4	0.000000	0.000000	6.082760	0.015977	NaN	0.000000	0.001559	0.001738	28.0812	0.043792	0.002033	21.54	130.481	-168.737	-0.077742	0.080979	-0.962039	-0.963338	0.015977	21.54	-0.962595	-7.109832E+12	-2.247132E-15	NaN
487	1.000000	0.090281	7.36982e+06	-52739.1	1005.82	-29748.4	0.000000	0.000000	6.090761	-0.053095	NaN	0.000000	0.001571	0.001756	28.0807	0.051243	0.002035	25.1784	-94.8078	-167.187	0.020704	0.089022	-0.954035	-0.955295	-0.053095	25.1784	-0.952454	-5.189446E+12	1.023125E-14	NaN
487	1.000000	0.098282	7.36982e+06	-52739.1	1005.82	-29748.4	0.000000	0.000000	6.098761	-0.070083	NaN	0.000000	0.001553	0.001760	28.0811	0.053881	0.002027	26.5772	152.832	-168.09	-0.074614	0.097001	-0.946034	-0.947316	-0.070083	26.5772	-0.944057	-3.998181E+12	1.752873E-14	NaN
487	1.000000	0.106296	7.36982e+06	-52739.1	1005.82	-29748.4	0.000000	0.000000	6.106777	-0.019419	NaN	0.000000	0.001567	0.001745	28.0811	0.019990	0.001953	10.2375	55.3814	-164.752	-0.019755	0.104972	-0.938021	-0.939344	-0.019419	10.2375	-0.936598	-3.171320E+12	6.123417E-15	NaN
487	1.000000	0.114293	7.36982e+06	-52739.1	1005.82	-29748.4	0.000000	0.000000	6.114776	0.019200	NaN	0.000000	0.001571	0.001727	28.0809	0.073721	0.002042	36.0969	-138.239	-167.66	-0.013511	0.113003	-0.930024	-0.931314	0.019200	36.0969	-0.930423	-2.617589E+12	-7.335022E-15	NaN
487	1.000000	0.122298	7.36982e+06	-52739.1	1005.82	-29748.4	0.000000	0.000000	6.122778	-0.032965	NaN	0.000000	0.001575	0.001754	28.0809	0.015280	0.001920	7.959698	147.2	-169.442	-0.010613	0.120972	-0.922019	-0.923344	-0.032965	7.959698	-0.918913	-1.830309E+12	1.801063E-14	NaN
487	1.000000	0.130284	7.36982e+06	-52739.1	1005.82	-29748.4	0.000000	0.000000	6.130762	-0.082113	NaN	0.000000	0.001590	0.001746	28.081	0.094743	0.001880	50.3983	140.773	-167.333	-0.115960	0.128988	-0.914033	-0.915328	-0.082113	50.3983	-0.912811	-1.514012E+12	5.423503E-14	NaN
487	1.000000	0.138309	7.36982e+06	-52739.1	1005.82	-29748.4	0.000000	0.000000	6.138789	-0.042511	NaN	0.000000	0.001594	0.001736	28.0813	0.004482	0.001904	2.353599	-108.618	-167.24	-0.030250	0.137008	-0.906008	-0.907308	-0.042511	2.353599	-0.892461	-8.038723E+11	5.288231E-14	NaN
487	1.000000	0.146317	7.36982e+06	-52739.1	1005.82	-29748.4	0.000000	0.000000	6.146797	-0.058772	NaN	0.000000	0.001585	0.001691	28.0813	0.130020	0.002003	64.9081	-147.579	-165.997	-0.070661	0.145034	-0.897999	-0.899283	-0.058772	64.9081	-0.897320	-9.350889E+11	6.285214E-14	NaN
487	1.000000	0.154277	7.36982e+06	-52739.1	1005.82	-29748.4	0.000000	0.000000	6.154758	-0.020918	NaN	0.000000	0.001551	0.001704	28.0811	0.058842	0.001819	32.355	10.0673	-167.304	-0.103407	0.153006	-0.890039	-0.891310	-0.020918	32.355	-0.889554	-7.343314E+11	2.848613E-14	NaN
487	1.000000	0.162309	7.36982e+06	-52739.1	1005.82	-29748.4	0.000000	0.000000	6.162788	-0.070121	NaN	0.000000	0.001573	0.001701	28.0812	0.041660	0.002169	19.2107	48.522	-165.496	-0.063707	0.160976	-0.882008	-0.883340	-0.070121	19.2107	-0.879270	-5.331393E+11	1.315251E-13	NaN
487	1.000000	0.170317	7.36982e+06	-52739.1	1005.82	-29748.4	0.000000	0.000000	6.170796	-0.077416	NaN	0.000000	0.001567	0.001707	28.0812	0.082890	0.002147	38.6137	179.458	-161.022	-0.033914	0.168999	-0.874000	-0.875317	-0.077416	38.6137	-0.872496	-4.317315E+11	1.793142E-13	NaN
487	1.000000	0.178305	7.36982e+06	-52739.1	1005.82	-29748.4	0.000000	0.000000	6.178785	-0.063056	NaN	0.000000	0.001575	0.001679	28.0813	0.063607	0.001943	32.7296	55.2339	-162.52	-0.072498	0.176946	-0.866011	-0.867371	-0.063056	32.7296	-0.864566	-3.372242E+11	1.869845E-13	NaN
487	1.000000	0.186333	7.36982e+06	-52739.1	1005.82	-29748.4	0.000000	0.000000	6.186812	-0.077642	NaN	0.000000	0.001576	0.001680	28.0812	0.071795	0.001878	38.2296	-10.3022	-167.465	0.011024	0.185034	-0.857983	-0.859282	-0.077642	38.2296	-0.856460	-2.619414E+11	2.964092E-13	NaN
487	1.000000	0.194346	7.36982e+06	-52739.1	1005.82	-29748.4	0.000000	0.000000	6.194823	-0.123344	NaN	0.000000	0.001614	0.001687	28.0814	0.024610	0.001998	12.3174	-40.6626	-166.608	-0.129400	0.192999	-0.849970	-0.851317	-0.123344	12.3174	-0.842460	-1.692835E+11	7.286230E-13	NaN
487	1.000000	0.202339	7.36982e+06	-52739.1	1005.82	-29748.4	0.000000	0.000000	6.202821	-0.019621	NaN	0.000000	0.001600	0.001682	28.0813	0.072383	0.002035	35.5737	-90.1676	-161.208	-0.006810	0.201046	-0.841977	-0.843270	-0.019621	35.5737	-0.841563	-1.646164E+11	1.191913E-13	NaN
487	1.000000	0.210344	7.36982e+06	-52739.1	1005.82	-29748.4	0.000000	0.000000	6.210824	-0.041136	NaN	0.000000	0.001583	0.001705	28.0827	0.043291	0.001976	21.9116	165.882	-167.552	-0.032802	0.209037	-0.833973	-0.835280	-0.041136	21.9116	-0.832565	-1.243211E+11	3.308832E-13	NaN
487	1.000000	0.218335	7.36982e+06	-52739.1	1005.82	-29748.4	0.000000	0.000000	6.218815	-0.048692	NaN	0.000000	0.001559	0.001726	28.0828	0.051610	0.001954	26.4129	85.2917	-168.337	-0.099560	0.217079	-0.825982	-0.827237	-0.048692	26.4129	-0.824599	-9.695589E+10	5.022128E-13	NaN
487	1.000000	0.226319	7.36982e+06	-52739.1	1005.82	-29748.4	0.000000	0.000000	6.226799	-0.061494	NaN	0.000000	0.001605	0.001693	28.0829	0.016811	0.002073	8.110943	38.5098	-162.474	-0.102088	0.225016	-0.817997	-0.819300	-0.061494	8.110943	-0.812311	-6.605821E+10	9.309011E-13	NaN
487	1.000000	0.234357	7.36982e+06	-52739.1	1005.82	-29748.4	0.000000	0.000000	6.234838	-0.023649	NaN	0.000000	0.001543	0.001706	28.083	0.062012	0.001929	32.1557	-33.5978	-166.812	-0.051513	0.233037	-0.809959	-0.811279	-0.023649	32.1557	-0.809408	-6.032994E+10	3.919960E-13	NaN
487	1.000000	0.242343	7.36982e+06	-52739.1	1005.82	-29748.4	0.000000	0.000000	6.242821	-0.103621	NaN	0.000000	0.001572	0.001746	28.0829	0.017099	0.002091	8.175712	-47.1612	-167.608	-0.112229	0.241024	-0.801973	-0.803292	-0.103621	8.175712	-0.792468	-3.552992E+10	2.916453E-12	NaN
487	1.000000	0.250390	7.36982e+06	-52739.1	1005.82	-29748.4	0.000000	0.000000	6.250872	0.004898	NaN	0.000000	0.001557	0.001714	28.0835	0.044164	0.001961	22.5218	-94.0565	-169.418	0.038423	0.249049	-0.793926	-0.795267	0.004898	22.5218	-0.794089	-3.737820E+10	-1.310410E-13	NaN
487	1.000000	0.258321	7.36982e+06	-52739.1	1005.82	-29748.4	0.000000	0.000000	6.258799	-0.080214	NaN	0.000000	0.001630	0.001736	28.0828	0.125519	0.002022	62.0683	-132.812	-165.207	-0.028745	0.257088	-0.785996	-0.787229	-0.080214	62.0683	-0.785027	-2.815317E+10	2.849213E-12	NaN
487	1.000000	0.266355	7.36982e+06	-52739.1	1005.82	-29748.4	0.000000	0.000000	6.266834	-0.075818	NaN	0.000000	0.001654	0.001694	28.0829	0.062379	0.002138	29.1815	-141.808	-163.79	-0.022801	0.265046	-0.777961	-0.779270	-0.075818	29.1815	-0.776013	-2.123460E+10	3.570471E-12	NaN
487	1.000000	0.274368	7.36982e+06	-52739.1	1005.82	-29748.4	0.000000	0.000000	6.274846	-0.088269	NaN	0.000000	0.001657	0.001702	28.083	0.158204	0.002057	76.8962	30.8912	-166.442	-0.035094	0.273060	-0.769949	-0.771257	-0.088269	76.8962	-0.769088	-1.709628E+10	5.163043E-12	NaN
487	1.000000	0.282364	7.36982e+06	-52739.1	1005.82	-29748.4	0.000000	0.000000	6.282845	-0.027401	NaN	0.000000	0.001668	0.001721	28.0829	0.014411	0.001964	7.338002	123.775	-166.824	-0.045447	0.281093	-0.761952	-0.763224	-0.027401	7.338002	-0.759152	-1.252455E+10	2.187783E-12	NaN
487	1.000000	0.290372	7.36982e+06	-52739.1	1005.82	-29748.4	0.000000	0.000000	6.290851	-0.066367	NaN	0.000000	0.001648	0.001710	28.083	0.029113	0.001883	15.4649	-108.462	-165.26	-0.115998	0.289032	-0.753944	-0.755285	-0.066367	15.4649	-0.750726	-9.618341E+9	6.900074E-12	NaN
487	1.000000	0.298350	7.36982e+06	-52739.1	1005.82	-29748.4	0.000000	0.000000	6.298829	-0.051937	NaN	0.000000	0.001663	0.001676	28.0827	0.116170	0.001865	62.3036	-33.5845	-165.547	-0.047210	0.297093	-0.745967	-0.747224	-0.051937	62.3036	-0.745342	-8.124612E+9	6.392538E-12	NaN
487	1.000000	0.306390	7.36982e+06	-52739.1	1005.82	-29748.4	0.000000	0.000000	6.306867	-0.115417	NaN	0.000000	0.001627	0.001713	28.0829	0.087858	0.001929	45.544	-87.9951	-166.365	-0.096216	0.305074	-0.737927	-0.739243	-0.115417	45.544	-0.736026	-6.066241E+9	1.902606E-11	NaN
487	1.000000	0.314385	7.36982e+06	-52739.1	1005.82	-29748.4	0.000000	0.000000	6.314865	-0.034931	NaN	0.000000	0.001644	0.001697	28.083	0.080546	0.001915	42.0508	8.925107	-167.624	-0.055729	0.313056	-0.729932	-0.731260	-0.034931	42.0508	-0.729309	-4.913449E+9	7.109249E-12	NaN
487	1.000000	0.322372	7.36982e+06	-52739.1	1005.82	-29748.4	0.000000	0.000000	6.322851	-0.078893	NaN	0.000000	0.001684	0.001702	28.0831	0.041189	0.002043	20.1618	176.461	-166.782	-0.089870	0.321111	-0.721945	-0.723206	-0.078893	20.1618	-0.719010	-3.556069E+9	2.218545E-11	NaN
487	1.000000	0.330387	7.36982e+06	-52739.1	1005.82	-29748.4	0.000000	0.000000	6.330870	0.031278	NaN	0.000000	0.001661	0.001678	28.083	0.174865	0.002019	86.6145	61.1656	-165.279	0.055602	0.329101	-0.713930	-0.715215	0.031278	86.6145	-0.714201	-3.057501E+9	-1.023008E-11	NaN
487	1.000000	0.338368	7.36982e+06	-52739.1	1005.82	-29748.4	0.000000	0.000000	6.338849	-0.004844	NaN	0.000000	0.001652	0.001703	28.0826	0.076785	0.002071	37.0725	165.979	-166.964	0.007964	0.337115	-0.705949	-0.707202	-0.004844	37.0725	-0.705851	-2.351903E+9	2.059508E-12	NaN
487	1.000000	0.346381	7.36982e+06	-52739.1	1005.82	-29748.4	0.000000	0.000000	6.346858	-0.112005	NaN	0.000000	0.001648	0.001719	28.0816	0.057279	0.001998	28.6621	-93.5612	-163.071	-0.126349	0.345070	-0.697935	-0.699246	-0.112005	28.6621	-0.695005	-1.672247E+9	6.697875E-11	NaN
487	1.000000	0.354383	7.36982e+06	-52739.1	1005.82	-29748.4	0.000000	0.000000	6.354861	-0.097222	NaN	0.000000	0.001629	0.001704	28.0818	0.080625	0.001887	42.7333	81.3162	-167.778	-0.148268	0.353062	-0.689934	-0.691255	-0.097222	42.7333	-0.688227	-1.351108E+9	7.195717E-11	NaN
487	1.000000	0.362375	7.36982e+06	-52739.1	1005.82	-29748.4	0.000000	0.000000	6.362857	0.006284	NaN	0.000000	0.001670	0.001728	28.0819	0.081071	0.001916	42.3033	84.9026	-167.738	0.024108	0.361119	-0.681941	-0.683197	0.006284	42.3033	-0.682053	-1.112444E+9	-5.648989E-12	NaN
487	1.000000	0.370388	7.36982e+06	-52739.1	1005.82	-29748.4	0.000000	0.000000	6.370868	-0.052145	NaN	0.000000	0.001636	0.001708	28.0818	0.081277	0.001982	41.0161	-147.568	-167.892	-0.075121	0.369137	-0.673929	-0.675180	-0.052145	41.0161	-0.672975	-8.358074E+8	6.238931E-11	NaN
487	1.000000	0.378423	7.36982e+06	-52739.1	1005.82	-29748.4	0.000000	0.000000	6.378898	-0.177361	NaN	0.000000	0.001647	0.001708	28.0816	0.099474	0.001939	51.3136	-111.095	-163.394	-0.061467	0.377040	-0.665893	-0.667277	-0.177361	51.3136	-0.663301	-6.161406E+8	2.878578E-10	NaN
487	1.000000	0.386400	7.36982e+06	-52739.1	1005.82	-29748.4	0.000000	0.000000	6.386878	-0.105772	NaN	0.000000	0.001595	0.001707	28.0815	0.062901	0.002007	31.3478	-96.5216	-163.346	-0.067675	0.385129	-0.657916	-0.659188	-0.105772	31.3478	-0.655386	-4.800103E+8	2.203527E-10	NaN
487	1.000000	0.394406	7.36982e+06	-52739.1	1005.82	-29748.4	0.000000	0.000000	6.394887	-0.022441	NaN	0.000000	0.001639	0.001706	28.0815	0.089156	0.001952	45.6757	-11.4776	-167.519	-0.013015	0.393158	-0.649910	-0.651159	-0.022441	45.6757	-0.649542	-3.991674E+8	5.621996E-11	NaN
487	1.000000	0.402414	7.36982e+06	-52739.1	1005.82	-29748.4	0.000000	0.000000	6.402894	-0.049524	NaN	0.000000	0.001572	0.001733	28.0813	0.061259	0.002044	29.9689	92.1736	-167.67	-0.038474	0.401107	-0.641903	-0.643209	-0.049524	29.9689	-0.640663	-3.015726E+8	1.642202E-10	NaN
487	1.000000	0.410411	7.36982e+06	-52739.1	1005.82	-29748.4	0.000000	0.000000	6.410892	-0.035679	NaN	0.000000	0.001595	0.001701	28.0815	0.010491	0.002122	4.943566	-140.428	-164.578	-0.106051	0.409119	-0.633905	-0.635198	-0.035679	4.943566	-0.628492	-2.052672E+8	1.738196E-10	NaN
487	1.000000	0.418427	7.36982e+06	-52739.1	1005.82	-29748.4	0.000000	0.000000	6.418907	-0.030765	NaN	0.000000	0.001583	0.001723	28.082	0.027996	0.002059	13.5954	-22.8721	-167.125	-0.022303	0.417084	-0.625890	-0.627232	-0.030765	13.5954	-0.624193	-1.791657E+8	1.717136E-10	NaN
487	1.000000	0.426421	7.36982e+06	-52739.1	1005.82	-29748.4	0.000000	0.000000	6.426904	0.008310	NaN	0.000000	0.001591	0.001695	28.0817	0.030543	0.002038	14.9836	147.278	-165.192	-0.077111	0.425157	-0.617895	-0.619160	0.008310	14.9836	-0.618311	-1.487369E+8	-5.586973E-11	NaN
487	1.000000	0.434433	7.36982e+06	-52739.1	1005.82	-29748.4	0.000000	0.000000	6.434912	-0.075221	NaN	0.000000	0.001574	0.001685	28.0814	0.086360	0.001900	45.4505	47.9716	-169.295	-0.059516	0.433136	-0.609884	-0.611180	-0.075221	45.4505	-0.608642	-1.095048E+8	6.869206E-10	NaN
487	1.000000	0.442434	7.36982e+06	-52739.1	1005.82	-29748.4	0.000000	0.000000	6.442912	-0.101093	NaN	0.000000	0.001588	0.001719	28.0816	0.098153	0.002071	47.383	6.527774	-166.638	-0.117036	0.441099	-0.601882	-0.603218	-0.101093	47.383	-0.600282	-8.401278E+7	1.203302E-9	NaN
487	1.000000	0.450436	7.36982e+06	-52739.1	1005.82	-29748.4	0.000000	0.000000	6.450914	-0.103384	NaN	0.000000	0.001606	0.001699	28.0815	0.054781	0.001906	28.7484	32.2927	-167.048	-0.082007	0.449156	-0.593880	-0.595161	-0.103384	28.7484	-0.591183	-6.294742E+7	1.642379E-9	NaN
487	1.000000	0.458420	7.36982e+06	-52739.1	1005.82	-29748.4	0.000000	0.000000	6.458900	-0.053306	NaN	0.000000	0.001594	0.001701	28.0817	0.050708	0.001925	26.346	25.8862	-165.705	-0.140904	0.457153	-0.585896	-0.587164	-0.053306	26.346	-0.584379	-5.071620E+7	1.051070E-9	NaN
487	1.000000	0.466468	7.36982e+06	-52739.1	1005.82	-29748.4	0.000000	0.000000	6.466945	-0.111458	NaN	0.000000	0.001612	0.001702	28.0818	0.028426	0.002016	14.0973	-3.266835	-165.687	-0.155365	0.465135	-0.577849	-0.579182	-0.111458	14.0973	-0.571919	-3.413043E+7	3.265659E-9	NaN
487	1.000000	0.474468	7.36982e+06	-52739.1	1005.82	-29748.4	0.000000	0.000000	6.474946	-0.087362	NaN	0.000000	0.001624	0.001704	28.0817	0.109788	0.002080	52.7933	43.264	-167.48	-0.078774	0.473083	-0.569849	-0.571233	-0.087362	52.7933	-0.568608	-3.071811E+7	2.843996E-9	NaN
487	1.000000	0.482438	7.36982e+06	-52739.1	1005.82	-29748.4	0.000000	0.000000	6.482915	-0.114271	NaN	0.000000	0.001612	0.001718	28.083	0.090283	0.002091	43.1694	-52.9832	-166.054	-0.059807	0.481137	-0.561879	-0.563180	-0.114271	43.1694	-0.559894	-2.327584E+7	4.909415E-9	NaN
487	1.000000	0.490447	7.36982e+06	-52739.1	1005.82	-29748.4	0.000000	0.000000	6.490929	-0.004733	NaN	0.000000	0.001589	0.001749	28.0828	0.053786	0.001903	28.2586	-21.1313	-167.737	0.029232	0.489166	-0.553869	-0.555151	-0.004733	28.2586	-0.553744	-1.913369E+7	2.473876E-10	NaN
487	1.000000	0.498436	7.36982e+06	-52739.1	1005.82	-29748.4	0.000000	0.000000	6.498916	-0.046942	NaN	0.000000	0.001609	0.001724	28.083	0.063639	0.001909	33.3365	88.0507	-168.06	-0.078779	0.497201	-0.545881	-0.547116	-0.046942	33.3365	-0.544825	-1.439627E+7	3.260710E-9	NaN
487	1.000000	0.506471	7.36982e+06	-52739.1	1005.82	-29748.4	0.000000	0.000000	6.506951	-0.034310	NaN	0.000000	0.001586	0.001756	28.0829	0.034820	0.002079	16.7477	55.5258	-169.105	-0.025496	0.505159	-0.537846	-0.539158	-0.034310	16.7477	-0.536309	-1.096877E+7	3.127956E-9	NaN
487	1.000000	0.514471	7.36982e+06	-52739.1	1005.82	-29748.4	0.000000	0.000000	6.514950	-0.064074	NaN	0.000000	0.001569	0.001750	28.0829	0.078731	0.002123	37.0921	179.672	-164.451	-0.092197	0.513178	-0.529845	-0.531139	-0.064074	37.0921	-0.528550	-8.55921e+06	7.486028E-9	NaN
487	1.000000	0.522495	7.36982e+06	-52739.1	1005.82	-29748.4	0.000000	0.000000	6.522975	-0.028105	NaN	0.000000	0.001560	0.001734	28.0831	0.049360	0.002163	22.8151	-137.638	-162.958	-0.021154	0.521165	-0.521822	-0.523152	-0.028105	22.8151	-0.520898	-6.70017e+06	4.194741E-9	NaN
487	1.000000	0.530489	7.36982e+06	-52739.1	1005.82	-29748.4	0.000000	0.000000	6.530967	-0.098978	NaN	0.000000	0.001592	0.001716	28.0828	0.132631	0.001978	67.0568	-167.607	-165.377	-0.231898	0.529174	-0.513828	-0.515142	-0.098978	67.0568	-0.512721	-5.15592e+06	1.919696E-8	NaN
487	1.000000	0.538466	7.36982e+06	-52739.1	1005.82	-29748.4	0.000000	0.000000	6.538945	-0.079979	NaN	0.000000	0.001578	0.001726	28.0829	0.042916	0.001915	22.4115	0.276915	-165.913	-0.071819	0.537182	-0.505850	-0.507135	-0.079979	22.4115	-0.503174	-3.79562e+06	2.107145E-8	NaN
487	1.000000	0.546493	7.36982e+06	-52739.1	1005.82	-29748.4	0.000000	0.000000	6.546976	0.026051	NaN	0.000000	0.001604	0.001699	28.0827	0.043990	0.001940	22.6772	90.9651	-164.109	-0.002012	0.545136	-0.497824	-0.499180	0.026051	22.6772	-0.498685	-3.28607e+06	-7.927583E-9	NaN
487	1.000000	0.554489	7.36982e+06	-52739.1	1005.82	-29748.4	0.000000	0.000000	6.554968	-0.078472	NaN	0.000000	0.001582	0.001724	28.0828	0.033350	0.002128	15.6705	-114.788	-167.237	-0.107065	0.553146	-0.489828	-0.491171	-0.078472	15.6705	-0.486072	-2.19019e+06	3.582897E-8	NaN
487	1.000000	0.562489	7.36982e+06	-52739.1	1005.82	-29748.4	0.000000	0.000000	6.562968	-0.074660	NaN	0.000000	0.001623	0.001681	28.0831	0.015097	0.002020	7.473364	88.7324	-166.837	-0.018327	0.561256	-0.481828	-0.483060	-0.074660	7.473364	-0.474335	-1.50032e+06	4.976267E-8	NaN
487	1.000000	0.570514	7.36982e+06	-52739.1	1005.82	-29748.4	0.000000	0.000000	6.570994	-0.033959	NaN	0.000000	0.001610	0.001673	28.0828	0.057564	0.002023	28.4506	-110.653	-164.41	-0.017663	0.569204	-0.473803	-0.475113	-0.033959	28.4506	-0.472907	-1.43276e+06	2.370179E-8	NaN
487	1.000000	0.578512	7.36982e+06	-52739.1	1005.82	-29748.4	0.000000	0.000000	6.578990	-0.100793	NaN	0.000000	0.001568	0.001713	28.0828	0.058309	0.001878	31.0524	159.109	-168.069	-0.108220	0.577217	-0.465805	-0.467100	-0.100793	31.0524	-0.463370	-1.05285e+06	9.573388E-8	NaN
487	1.000000	0.586525	7.36982e+06	-52739.1	1005.82	-29748.4	0.000000	0.000000	6.587004	-0.075715	NaN	0.000000	0.001531	0.001714	28.0827	0.127794	0.002010	63.571	94.96	-165.881	-0.095015	0.585149	-0.457792	-0.459168	-0.075715	63.571	-0.456898	-853923	8.866728E-8	NaN
487	1.000000	0.594531	7.36982e+06	-52739.1	1005.82	-29748.4	0.000000	0.000000	6.595011	-0.054533	NaN	0.000000	0.001635	0.001726	28.0827	0.045091	0.002088	21.594	122.237	-167.101	0.068835	0.593264	-0.449785	-0.451053	-0.054533	21.594	-0.447891	-637733	8.551117E-8	NaN
487	1.000000	0.602473	7.36982e+06	-52739.1	1005.82	-29748.4	0.000000	0.000000	6.602951	-0.082635	NaN	0.000000	0.001614	0.001692	28.0824	0.015143	0.002098	7.217396	134.121	-169.002	-0.087548	0.601212	-0.441844	-0.443104	-0.082635	7.217396	-0.433257	-396386	2.084710E-7	NaN
487	1.000000	0.610503	7.36982e+06	-52739.1	1005.82	-29748.4	0.000000	0.000000	6.610981	-0.101778	NaN	0.000000	0.001577	0.001706	28.083	0.076351	0.002028	37.6546	-36.1194	-166.621	0.029926	0.609171	-0.433813	-0.435146	-0.101778	37.6546	-0.431786	-377851	2.693587E-7	NaN
487	1.000000	0.618471	7.36982e+06	-52739.1	1005.82	-29748.4	0.000000	0.000000	6.618956	0.053242	NaN	0.000000	0.001574	0.001735	28.0817	0.030404	0.002099	14.4846	85.2727	-164.6	0.041715	0.617199	-0.425845	-0.427117	0.053242	14.4846	-0.428602	-340628	-1.563058E-7	NaN
487	1.000000	0.626511	7.36982e+06	-52739.1	1005.82	-29748.4	0.000000	0.000000	6.626987	-0.145796	NaN	0.000000	0.001599	0.001677	28.0817	0.110035	0.002032	54.1384	4.024132	-162.45	-0.048329	0.625191	-0.417806	-0.419126	-0.145796	54.1384	-0.415786	-224188	6.503265E-7	NaN
487	1.000000	0.634490	7.36982e+06	-52739.1	1005.82	-29748.4	0.000000	0.000000	6.634972	6.611713E-5	NaN	0.000000	0.001589	0.001718	28.0816	0.136690	0.001986	68.8186	-152.561	-165.004	-0.063683	0.633168	-0.409827	-0.411149	6.611713E-5	68.8186	-0.409827	-184478	-3.584005E-10	NaN
487	1.000000	0.642510	7.36982e+06	-52739.1	1005.82	-29748.4	0.000000	0.000000	6.642989	-0.054832	NaN	0.000000	0.001560	0.001714	28.0816	0.100740	0.002112	47.6878	-89.237	-163.58	-0.036175	0.641155	-0.401807	-0.403161	-0.054832	47.6878	-0.400945	-137868	3.977123E-7	NaN
487	1.000000	0.650519	7.36982e+06	-52739.1	1005.82	-29748.4	0.000000	0.000000	6.650998	-0.068517	NaN	0.000000	0.001572	0.001687	28.0818	0.081141	0.002012	40.3274	-95.7583	-164.8	-0.049522	0.649287	-0.393798	-0.395030	-0.068517	40.3274	-0.392523	-104532	6.554666E-7	NaN
487	1.000000	0.658502	7.36982e+06	-52739.1	1005.82	-29748.4	0.000000	0.000000	6.658982	-0.041304	NaN	0.000000	0.001593	0.001676	28.0815	0.048238	0.001963	24.5731	-146.493	-163.949	-0.073196	0.657175	-0.385815	-0.387141	-0.041304	24.5731	-0.384554	-80388.8	5.137974E-7	NaN
487	1.000000	0.666531	7.36982e+06	-52739.1	1005.82	-29748.5	0.000000	0.000000	6.667008	-0.116541	NaN	0.000000	0.001593	0.001703	28.0814	0.083778	0.001953	42.8983	-161.548	-164.18	-0.117926	0.665242	-0.377785	-0.379074	-0.116541	42.8983	-0.375748	-60092.7	1.939354E-6	NaN
487	1.000000	0.674536	7.36982e+06	-52739.1	1005.82	-29748.5	0.000000	0.000000	6.675012	-0.124501	NaN	0.000000	0.001587	0.001673	28.0816	0.020368	0.001933	10.5399	78.9235	-164.757	-0.043834	0.673212	-0.369781	-0.371105	-0.124501	10.5399	-0.360922	-36742.4	3.388471E-6	NaN
487	1.000000	0.682570	7.36982e+06	-52739.1	1005.82	-29748.5	0.000000	0.000000	6.683050	-0.044404	NaN	0.000000	0.001568	0.001704	28.0815	0.041875	0.002092	20.016	-24.6428	-167.802	-0.071270	0.681275	-0.361746	-0.363041	-0.044404	20.016	-0.360083	-35730.6	1.242735E-6	NaN
487	1.000000	0.690557	7.36982e+06	-52739.1	1005.82	-29748.5	0.000000	0.000000	6.691037	-0.066259	NaN	0.000000	0.001591	0.001712	28.0816	0.111357	0.001962	56.7589	-6.590858	-165.845	-0.038691	0.689230	-0.353759	-0.355087	-0.066259	56.7589	-0.352884	-28108	2.357306E-6	NaN
487	1.000000	0.698520	7.36982e+06	-52739.1	1005.82	-29748.5	0.000000	0.000000	6.699001	-0.024924	NaN	0.000000	0.001504	0.001726	28.0814	0.047645	0.001947	24.4773	-174.033	-169.695	-0.057095	0.697253	-0.345796	-0.347063	-0.024924	24.4773	-0.345033	-21618.7	1.152888E-6	NaN
487	1.000000	0.706548	7.36982e+06	-52739.1	1005.82	-29748.5	0.000000	0.000000	6.707028	-0.066289	NaN	0.000000	0.001542	0.001706	28.0815	0.033470	0.001956	17.1096	-60.9002	-163.793	-0.015081	0.705279	-0.337768	-0.339038	-0.066289	17.1096	-0.334862	-15366.6	4.313809E-6	NaN
487	1.000000	0.714560	7.36982e+06	-52739.1	1005.82	-29748.5	0.000000	0.000000	6.715040	-0.058323	NaN	0.000000	0.001549	0.001714	28.0814	0.072551	0.001983	36.5887	-28.4301	-168.35	-0.133375	0.713196	-0.329756	-0.331121	-0.058323	36.5887	-0.328561	-12427	4.693269E-6	NaN
487	1.000000	0.722542	7.36982e+06	-52739.1	1005.82	-29748.5	0.000000	0.000000	6.723022	-0.052883	NaN	0.000000	0.001556	0.001691	28.0813	0.111767	0.002054	54.4152	-25.6244	-167.418	-0.026398	0.721211	-0.321774	-0.323106	-0.052883	54.4152	-0.321045	-9638.76	5.486452E-6	NaN
487	1.000000	0.730566	7.36982e+06	-52739.1	1005.82	-29748.5	0.000000	0.000000	6.731046	-0.060446	NaN	0.000000	0.001564	0.001688	28.0817	0.036731	0.002094	17.5451	40.9443	-164.014	-0.044493	0.729274	-0.313750	-0.315042	-0.060446	17.5451	-0.311167	-6891.52	8.771027E-6	NaN
487	1.000000	0.738551	7.36982e+06	-52739.1	1005.82	-29748.5	0.000000	0.000000	6.739030	-0.074029	NaN	0.000000	0.001555	0.001696	28.0814	0.066942	0.002046	32.7235	21.7272	-166.966	-0.040741	0.737177	-0.305766	-0.307139	-0.074029	32.7235	-0.304069	-5409.18	1.368589E-5	NaN
487	1.000000	0.746568	7.36982e+06	-52739.1	1005.82	-29748.5	0.000000	0.000000	6.747047	-0.082119	NaN	0.000000	0.001569	0.001717	28.0817	0.080159	0.001998	40.1193	31.4118	-163.884	-0.113233	0.745263	-0.297748	-0.299054	-0.082119	40.1193	-0.296213	-4132.37	1.987215E-5	NaN
487	1.000000	0.754581	7.36982e+06	-52739.1	1005.82	-29748.5	0.000000	0.000000	6.755062	-0.016583	NaN	0.000000	0.001591	0.001691	28.0826	0.175888	0.002039	86.2629	-158.568	-167.012	-0.044260	0.753281	-0.289736	-0.291036	-0.016583	86.2629	-0.289592	-3289.92	5.040558E-6	NaN
487	1.000000	0.762586	7.36982e+06	-52739.1	1005.82	-29748.5	0.000000	0.000000	6.763067	-0.016170	NaN	0.000000	0.001572	0.001707	28.0826	0.056338	0.001845	30.5364	76.0976	-164.025	-0.034353	0.761234	-0.281731	-0.283082	-0.016170	30.5364	-0.281334	-2472.2	6.540822E-6	NaN
487	1.000000	0.770565	7.36982e+06	-52739.1	1005.82	-29748.5	0.000000	0.000000	6.771042	-0.107313	NaN	0.000000	0.001594	0.001725	28.0835	0.076158	0.001948	39.0978	-54.9399	-166.64	-0.100300	0.769276	-0.273752	-0.275040	-0.107313	39.0978	-0.271693	-1767.13	6.072706E-5	NaN
487	1.000000	0.778567	7.36982e+06	-52739.1	1005.82	-29748.5	0.000000	0.000000	6.779047	-0.032236	NaN	0.000000	0.001568	0.001728	28.0827	0.093642	0.002082	44.9827	157.463	-168.229	0.004047	0.777279	-0.265750	-0.267037	-0.032236	44.9827	-0.265212	-1408.09	2.289351E-5	NaN
487	1.000000	0.786566	7.36982e+06	-52739.1	1005.82	-29748.5	0.000000	0.000000	6.787045	-0.087139	NaN	0.000000	0.001581	0.001714	28.0829	0.081106	0.001998	40.591	46.4106	-166.697	-0.045452	0.785204	-0.257750	-0.259113	-0.087139	40.591	-0.256140	-1022.49	8.522263E-5	NaN
487	1.000000	0.794560	7.36982e+06	-52739.1	1005.82	-29748.5	0.000000	0.000000	6.795039	-0.063558	NaN	0.000000	0.001557	0.001680	28.0826	0.026706	0.002066	12.9233	161.566	-164.516	-0.029250	0.793288	-0.249757	-0.251028	-0.063558	12.9233	-0.246068	-714.568	8.894623E-5	NaN
487	1.000000	0.802577	7.36982e+06	-52739.1	1005.82	-29748.5	0.000000	0.000000	6.803056	-0.066027	NaN	0.000000	0.001605	0.001679	28.0826	0.065508	0.002060	31.8027	-174.221	-169.238	-0.083522	0.801270	-0.241739	-0.243047	-0.066027	31.8027	-0.240182	-578.628	0.000114	NaN
487	1.000000	0.810587	7.36982e+06	-52739.1	1005.82	-29748.5	0.000000	0.000000	6.811066	-0.084643	NaN	0.000000	0.001631	0.001714	28.0827	0.097868	0.001954	50.0873	87.7964	-167.798	-0.090366	0.809304	-0.233729	-0.235012	-0.084643	50.0873	-0.232462	-437.864	0.000193	NaN
487	1.000000	0.818594	7.36982e+06	-52739.1	1005.82	-29748.5	0.000000	0.000000	6.819076	-0.008024	NaN	0.000000	0.001609	0.001679	28.0825	0.067156	0.002046	32.8163	40.1243	-165.636	0.008445	0.817321	-0.225723	-0.226995	-0.008024	32.8163	-0.225539	-340.327	2.357779E-5	NaN
487	1.000000	0.826575	7.36982e+06	-52739.1	1005.82	-29748.5	0.000000	0.000000	6.827058	0.006967	NaN	0.000000	0.001605	0.001727	28.0827	0.009978	0.001927	5.177961	141.5	-168.075	-0.098061	0.825255	-0.217741	-0.219061	0.006967	5.177961	-0.218750	-265.271	-2.626359E-5	NaN
487	1.000000	0.834615	7.36982e+06	-52739.1	1005.82	-29748.5	0.000000	0.000000	6.835092	-0.119767	NaN	0.000000	0.001620	0.001711	28.0826	0.032742	0.002001	16.3642	138.015	-169.393	0.019468	0.833274	-0.209702	-0.211043	-0.119767	16.3642	-0.204213	-154.423	0.000776	NaN
487	1.000000	0.842597	7.36982e+06	-52739.1	1005.82	-29748.5	0.000000	0.000000	6.843076	-0.064193	NaN	0.000000	0.001593	0.001747	28.0828	0.112781	0.002075	54.3553	-14.1136	-167.384	-0.005842	0.841320	-0.201720	-0.202997	-0.064193	54.3553	-0.200834	-135.957	0.000472	NaN
487	1.000000	0.850622	7.36982e+06	-52739.1	1005.82	-29748.5	0.000000	0.000000	6.851098	-0.146009	NaN	0.000000	0.001613	0.001719	28.0827	0.159498	0.002213	72.081	-155.98	-168.261	-0.121504	0.849333	-0.193694	-0.194983	-0.146009	72.081	-0.192175	-97.79	0.001493	NaN
487	1.000000	0.858588	7.36982e+06	-52739.1	1005.82	-29748.5	0.000000	0.000000	6.859067	-0.072601	NaN	0.000000	0.001614	0.001725	28.0827	0.078656	0.002069	38.0243	-5.702865	-166.041	0.019929	0.857284	-0.185728	-0.187033	-0.072601	38.0243	-0.184296	-72.1545	0.001006	NaN
487	1.000000	0.866620	7.36982e+06	-52739.1	1005.82	-29748.5	0.000000	0.000000	6.867097	-0.131429	NaN	0.000000	0.001568	0.001652	28.0833	0.079179	0.002001	39.5789	110.593	-164.894	-0.077190	0.865319	-0.177696	-0.178998	-0.131429	39.5789	-0.175206	-50.5262	0.002601	NaN
487	1.000000	0.874605	7.36982e+06	-52739.1	1005.82	-29748.5	0.000000	0.000000	6.875086	-0.044000	NaN	0.000000	0.001542	0.001735	28.0828	0.068046	0.001976	34.4439	-151.311	-165.779	-0.001701	0.873318	-0.169711	-0.170999	-0.044000	34.4439	-0.168753	-39.0777	0.001126	NaN
487	1.000000	0.882623	7.36982e+06	-52739.1	1005.82	-29748.5	0.000000	0.000000	6.883103	-0.056533	NaN	0.000000	0.001543	0.001691	28.0829	0.128746	0.001938	66.4194	158.974	-166.344	-0.016178	0.881321	-0.161693	-0.162996	-0.056533	66.4194	-0.161055	-28.6224	0.001975	NaN
487	1.000000	0.890601	7.36982e+06	-52739.1	1005.82	-29748.5	0.000000	0.000000	6.891081	-0.053250	NaN	0.000000	0.001552	0.001685	28.0817	0.031273	0.002084	15.0079	-115.345	-168.362	-0.060581	0.889337	-0.153716	-0.154980	-0.053250	15.0079	-0.151055	-18.9326	0.002813	NaN
487	1.000000	0.898625	7.36982e+06	-52739.1	1005.82	-29748.5	0.000000	0.000000	6.899108	0.023925	NaN	0.000000	0.001546	0.001682	28.0816	0.073377	0.002035	36.0543	-16.2674	-165.285	-0.074995	0.897278	-0.145691	-0.147038	0.023925	36.0543	-0.146189	-15.4215	-0.001551	NaN
487	1.000000	0.906589	7.36982e+06	-52739.1	1005.82	-29748.5	0.000000	0.000000	6.907067	-0.105785	NaN	0.000000	0.001566	0.001690	28.0816	0.081138	0.001891	42.9103	-174.452	-165.156	-0.035987	0.905281	-0.137727	-0.139036	-0.105785	42.9103	-0.135878	-9.886237	0.010700	NaN
487	1.000000	0.914620	7.36982e+06	-52739.1	1005.82	-29748.5	0.000000	0.000000	6.915100	-0.052901	NaN	0.000000	0.001541	0.001720	28.0818	0.089781	0.001964	45.7119	-2.122586	-165.33	-0.035797	0.913284	-0.129696	-0.131033	-0.052901	45.7119	-0.128829	-7.231162	0.007316	NaN
487	1.000000	0.922618	7.36982e+06	-52739.1	1005.82	-29748.5	0.000000	0.000000	6.923095	-0.121399	NaN	0.000000	0.001540	0.001699	28.0819	0.051617	0.002032	25.4001	15.742	-167.847	-0.159385	0.921340	-0.121699	-0.122977	-0.121399	25.4001	-0.118114	-4.424573	0.027438	NaN
487	1.000000	0.930665	7.36982e+06	-52739.1	1005.82	-29748.5	0.000000	0.000000	6.931144	-0.071207	NaN	0.000000	0.001554	0.001734	28.0818	0.056344	0.002009	28.0416	54.6917	-161.886	-0.147360	0.929334	-0.113651	-0.114982	-0.071207	28.0416	-0.111747	-3.270079	0.021775	NaN
487	1.000000	0.938651	7.36982e+06	-52739.1	1005.82	-29748.5	0.000000	0.000000	6.939130	-0.071890	NaN	0.000000	0.001560	0.001692	28.0819	0.049438	0.001936	25.5355	128.066	-167.971	-0.079139	0.937291	-0.105665	-0.107025	-0.071890	25.5355	-0.103554	-2.186874	0.032873	NaN
487	1.000000	0.946659	7.36982e+06	-52739.1	1005.82	-29748.5	0.000000	0.000000	6.947136	-0.107737	NaN	0.000000	0.001570	0.001695	28.0817	0.021979	0.002165	10.1518	-108.912	-165.975	-0.061378	0.945359	-0.097658	-0.098957	-0.107737	10.1518	-0.089698	-1.063491	0.101305	NaN
487	1.000000	0.954657	7.36982e+06	-52739.1	1005.82	-29748.5	0.000000	0.000000	6.955138	-0.020755	NaN	0.000000	0.001577	0.001706	28.0817	0.081585	0.002082	39.1889	57.3974	-170.932	-0.036404	0.953304	-0.089659	-0.091013	-0.020755	39.1889	-0.089262	-1.038643	0.019983	NaN
487	1.000000	0.962652	7.36982e+06	-52739.1	1005.82	-29748.5	0.000000	0.000000	6.963133	-0.030382	NaN	0.000000	0.001599	0.001705	28.0819	0.133075	0.002040	65.2407	-15.7927	-167.126	-0.046776	0.961402	-0.081664	-0.082914	-0.030382	65.2407	-0.081315	-0.667466	0.045519	NaN
487	1.000000	0.970640	7.36982e+06	-52739.1	1005.82	-29748.5	0.000000	0.000000	6.971120	-0.050728	NaN	0.000000	0.001576	0.001742	28.0818	0.051266	0.001931	26.5527	130.489	-164.54	-0.049232	0.969373	-0.073677	-0.074943	-0.050728	26.5527	-0.072244	-0.391320	0.129634	NaN
487	1.000000	0.978669	7.36982e+06	-52739.1	1005.82	-29748.5	0.000000	0.000000	6.979147	-0.120425	NaN	0.000000	0.001597	0.001729	28.0819	0.101638	0.001845	55.0899	138.667	-165.571	-0.179324	0.977358	-0.065647	-0.066959	-0.120425	55.0899	-0.064008	-0.233858	0.514948	NaN
487	1.000000	0.986681	7.36982e+06	-52739.1	1005.82	-29748.5	0.000000	0.000000	6.987158	-0.105801	NaN	0.000000	0.001562	0.001761	28.0817	0.032081	0.002036	15.7605	104.806	-164.62	-0.119501	0.985393	-0.057636	-0.058923	-0.105801	15.7605	-0.052601	-0.109269	0.968263	NaN
487	1.000000	0.994665	7.36982e+06	-52739.1	1005.82	-29748.5	0.000000	0.000000	6.995145	-0.055915	NaN	0.000000	0.001595	0.001684	28.0818	0.100357	0.001975	50.8249	-21.9742	-165.782	-0.060067	0.993269	-0.049651	-0.051048	-0.055915	50.8249	-0.048826	-0.084076	0.665053	NaN
487	1.000000	1.002642	7.36982e+06	-52739.1	1005.82	-29748.5	0.000000	0.000000	7.003121	-0.078973	NaN	0.000000	0.001594	0.001714	28.0819	0.058306	0.001897	30.7287	-174.672	-170.442	-0.041175	1.001339	-0.041674	-0.042977	-0.078973	30.7287	-0.039747	-0.044429	1.777502	NaN
487	1.000000	1.010664	7.36982e+06	-52739.1	1005.82	-29748.5	0.000000	0.000000	7.011142	-0.086991	NaN	0.000000	0.001564	0.001712	28.0817	0.047256	0.002100	22.5016	149.036	-165.33	-0.075368	1.009389	-0.033653	-0.034927	-0.086991	22.5016	-0.030753	-0.024158	3.600922	NaN
487	1.000000	1.018690	7.36982e+06	-52739.1	1005.82	-29748.5	0.000000	0.000000	7.019171	-0.024319	NaN	0.000000	0.001577	0.001685	28.082	0.047096	0.001858	25.3455	-118.595	-164.103	-0.024457	1.017352	-0.025627	-0.026965	-0.024319	25.3455	-0.024907	-0.016776	1.449591	NaN
487	1.000000	1.026707	7.36982e+06	-52739.1	1005.82	-29748.5	0.000000	0.000000	7.027186	-0.068486	NaN	0.000000	0.001598	0.001686	28.0824	0.051126	0.001974	25.8934	-3.927062	-166.006	-0.093100	1.025380	-0.017610	-0.018937	-0.068486	25.8934	-0.015626	-0.009654	7.094156	NaN
487	1.000000	1.034677	7.36982e+06	-52739.1	1005.82	-29748.5	0.000000	0.000000	7.035156	-0.065923	NaN	0.000000	0.001588	0.001680	28.0829	0.018722	0.002112	8.865618	-44.4126	-164.747	-0.096763	1.033347	-0.009640	-0.010970	-0.065923	8.865618	-0.004063	-0.002820	23.379	NaN
487	1.000000	1.042694	7.36982e+06	-52739.1	1005.82	-29748.5	0.000000	0.000000	7.043172	-0.096074	NaN	0.000000	0.001603	0.001705	28.0826	0.145675	0.001936	75.2534	7.892448	-167.36	-0.082647	1.041379	-0.001622	-0.002938	-0.096074	75.2534	-0.000665	-0.000491	195.861	NaN
487	1.000000	1.050552	7.36982e+06	-52739.1	1005.82	-29748.5	0.000000	0.000000	7.051324	7.046183	NaN	0.000000	0.001608	0.001691	28.0827	7.332066	0.001778	4123.01	14.2359	-174.82	5.617841	1.049322	0.006236	0.005006	7.046183	4123.01	0.004954	0.004091	1722.24	58892.2
487	2.000000	1.053328	7.36982e+06	-52739.1	1005.82	-29748.5	0.000000	0.000000	7.054221	9.991282	NaN	0.000000	0.001565	0.001707	28.083	10.5595	0.001693	6235.77	8.290730	-176.733	9.722263	1.053043	0.009011	0.008727	9.991282	6235.77	0.007810	0.006847	1459.16	68849.9
487	2.000000	1.055329	7.36982e+06	-52739.1	1005.82	-29748.5	0.000000	0.000000	7.056338	12.8182	NaN	0.000000	0.001567	0.001709	28.0826	12.4418	0.001806	6889.32	9.405567	-174.4	13.5461	1.055005	0.011013	0.010689	12.8182	6889.32	0.009617	0.008759	1463.4	67253.8
487	2.000000	1.057273	7.36982e+06	-52739.1	1005.82	-29748.5	0.000000	0.000000	7.058348	14.417	NaN	0.000000	0.001539	0.001694	28.083	14.1674	0.001753	8082.92	8.111460	-177.575	13.5892	1.056998	0.012957	0.012682	14.417	8082.92	0.011619	0.011037	1306.26	70294.2
487	2.000000	1.059329	7.36982e+06	-52739.1	1005.82	-29748.5	0.000000	0.000000	7.060508	16.9654	NaN	0.000000	0.001535	0.001694	28.0827	16.8513	0.001765	9547.44	7.526755	-175.149	19.3042	1.058988	0.015012	0.014671	16.9654	9547.44	0.013679	0.013564	1250.74	74896.4
487	2.000000	1.061248	7.36982e+06	-52739.1	1005.82	-29748.5	0.000000	0.000000	7.062585	20.781	NaN	0.000000	0.001543	0.001737	28.0833	17.9541	0.001639	10955.3	5.022122	-176.159	20.4349	1.060956	0.016932	0.016639	20.781	10955.3	0.015509	0.015970	1301.24	79203.2
487	2.000000	1.063234	7.36982e+06	-52739.1	1005.82	-29748.5	0.000000	0.000000	7.064720	24.4212	NaN	0.000000	0.001580	0.001731	28.0828	21.3058	0.001890	11272.5	10.0548	177.84	23.1261	1.062920	0.018917	0.018603	24.4212	11272.5	0.017292	0.018465	1322.6	75792
487	2.000000	1.065302	7.36982e+06	-52739.1	1005.82	-29748.5	0.000000	0.000000	7.066935	27.9705	NaN	0.000000	0.001563	0.001747	28.0826	22.9922	0.001881	12224.2	10.4042	179.25	29.6414	1.064888	0.020986	0.020572	27.9705	12224.2	0.019270	0.021408	1306.55	76331.9
487	2.000000	1.067235	7.36982e+06	-52739.1	1005.82	-29748.5	0.000000	0.000000	7.069075	33.0004	NaN	0.000000	0.001574	0.001723	28.0832	24.5368	0.001793	13684.1	5.257791	-179.058	33.0336	1.066963	0.022919	0.022647	33.0004	13684.1	0.021110	0.024317	1357.09	80173.9
487	2.000000	1.069215	7.36982e+06	-52739.1	1005.82	-29748.5	0.000000	0.000000	7.071166	35.7316	NaN	0.000000	0.001544	0.001739	28.0827	27.1816	0.001875	14496.8	5.253745	-179.215	33.6656	1.068924	0.024898	0.024608	35.7316	14496.8	0.023049	0.027562	1296.39	79778.4
487	2.000000	1.071183	7.36982e+06	-52739.1	1005.82	-29748.5	0.000000	0.000000	7.073300	39.7669	NaN	0.000000	0.001580	0.001721	28.0834	27.9051	0.001748	15966.8	5.952504	179.403	38.5514	1.070871	0.026866	0.026554	39.7669	15966.8	0.024998	0.031013	1282.28	82836.4
487	2.000000	1.073253	7.36982e+06	-52739.1	1005.82	-29748.5	0.000000	0.000000	7.075574	44.7304	NaN	0.000000	0.001544	0.001705	28.0827	30.9752	0.001841	16827.8	6.869996	178.218	46.2542	1.072986	0.028936	0.028670	44.7304	16827.8	0.026943	0.034645	1291.11	82600.1
487	2.000000	1.075211	7.36982e+06	-52739.1	1005.82	-29748.5	0.000000	0.000000	7.077772	50.5486	NaN	0.000000	0.001550	0.001696	28.0829	32.7378	0.001827	17919.2	5.224388	178.455	48.4326	1.074972	0.030895	0.030655	50.5486	17919.2	0.028779	0.038251	1321.51	83709
487	2.000000	1.077212	7.36982e+06	-52739.1	1005.82	-29748.5	0.000000	0.000000	7.080092	58.2997	NaN	0.000000	0.001585	0.001695	28.0834	34.5156	0.001758	19630	5.423267	177.12	57.0859	1.076905	0.032895	0.032588	58.2997	19630	0.030668	0.042139	1383.5	87367.7
487	2.000000	1.079227	7.36982e+06	-52739.1	1005.82	-29748.5	0.000000	0.000000	7.082265	62.1498	NaN	0.000000	0.001596	0.001706	28.0822	36.5823	0.001820	20096.7	4.984077	178.589	62.0559	1.078898	0.034910	0.034582	62.1498	20096.7	0.032591	0.046285	1342.77	85345.2
487	2.000000	1.081206	7.36982e+06	-52739.1	1005.82	-29748.5	0.000000	0.000000	7.084584	70.4073	NaN	0.000000	0.001572	0.001719	28.0817	37.8137	0.001729	21866.5	7.885501	175.062	70.2242	1.080919	0.036890	0.036602	70.4073	21866.5	0.034475	0.050530	1393.37	88874.2
487	2.000000	1.083180	7.36982e+06	-52739.1	1005.82	-29748.5	0.000000	0.000000	7.086563	70.5406	NaN	0.000000	0.001552	0.001730	28.0817	41.1186	0.001716	23966.9	7.565892	173.559	68.536	1.082994	0.038864	0.038677	70.5406	23966.9	0.036656	0.055672	1267.06	92803.6
487	2.000000	1.085272	7.36982e+06	-52739.1	1005.82	-29748.5	0.000000	0.000000	7.089051	80.149	NaN	0.000000	0.001578	0.001725	28.0814	43.3098	0.001902	22772.4	8.108476	176	81.484	1.084846	0.040956	0.040529	80.149	22772.4	0.038316	0.059749	1341.44	85117.5
487	2.000000	1.087272	7.36982e+06	-52739.1	1005.82	-29748.5	0.000000	0.000000	7.091290	85.9729	NaN	0.000000	0.001589	0.001723	28.082	45.123	0.001824	24743.6	6.213194	175.382	89.5732	1.086914	0.042955	0.042598	85.9729	24743.6	0.040349	0.064934	1324	88715.3
487	2.000000	1.089188	7.36982e+06	-52739.1	1005.82	-29748.5	0.000000	0.000000	7.093494	92.9709	NaN	0.000000	0.001566	0.001733	28.0813	47.4443	0.001864	25446.6	4.570703	176.634	92.3395	1.088895	0.044872	0.044579	92.9709	25446.6	0.042132	0.069653	1334.77	88091.2
487	2.000000	1.091124	7.36982e+06	-52739.1	1005.82	-29748.5	0.000000	0.000000	7.095796	101.874	NaN	0.000000	0.001588	0.001725	28.0818	48.5475	0.001799	26986.3	4.214466	176.382	97.3747	1.090813	0.046808	0.046496	101.874	26986.3	0.043976	0.074708	1363.64	90205.6
487	2.000000	1.093159	7.36982e+06	-52739.1	1005.82	-29748.5	0.000000	0.000000	7.098085	108.053	NaN	0.000000	0.001503	0.001735	28.0816	50.8931	0.001854	27452.2	6.194896	174.178	106.536	1.092851	0.048843	0.048534	108.053	27452.2	0.045891	0.080136	1348.36	88600.2
487	2.000000	1.095227	7.36982e+06	-52739.1	1005.82	-29748.5	0.000000	0.000000	7.100574	118.287	NaN	0.000000	0.001561	0.001733	28.0816	52.5397	0.001793	29309.2	6.097475	174.522	120.963	1.094855	0.050911	0.050538	118.287	29309.2	0.047884	0.085985	1375.68	91320.2
487	2.000000	1.097110	7.36982e+06	-52739.1	1005.82	-29748.5	0.000000	0.000000	7.102931	129.831	NaN	0.000000	0.001602	0.001716	28.0816	52.6883	0.001729	30471.5	2.840433	177.151	125.673	1.096863	0.052793	0.052546	129.831	30471.5	0.049597	0.091173	1424.01	92200.8
487	2.000000	1.099146	7.36982e+06	-52739.1	1005.82	-29748.5	0.000000	0.000000	7.104994	130.476	NaN	0.000000	0.001582	0.001685	28.0814	56.4819	0.001779	31749.2	4.485397	174.694	128.384	1.098888	0.054829	0.054572	130.476	31749.2	0.051747	0.097889	1332.9	92712.7
487	2.000000	1.101173	7.36982e+06	-52739.1	1005.82	-29748.5	0.000000	0.000000	7.107710	147.229	NaN	0.000000	0.001575	0.001715	28.0827	56.9333	0.001693	33622.5	4.901076	173.858	144.929	1.100772	0.056856	0.056456	147.229	33622.5	0.053572	0.103773	1418.76	95359
487	2.000000	1.103205	7.36982e+06	-52739.1	1005.82	-29748.5	0.000000	0.000000	7.109885	150.701	NaN	0.000000	0.001576	0.001690	28.0814	60.5446	0.001703	35551.3	6.127767	172.28	150.832	1.102853	0.058889	0.058536	150.701	35551.3	0.055709	0.110874	1359.21	97547.2
487	2.000000	1.105218	7.36982e+06	-52739.1	1005.82	-29748.5	0.000000	0.000000	7.112179	157.525	NaN	0.000000	0.001575	0.001703	28.0815	63.234	0.001882	33590.5	5.478334	173.409	155.89	1.104906	0.060901	0.060590	157.525	33590.5	0.057384	0.116596	1351.03	89876.8
487	2.000000	1.107213	7.36982e+06	-52739.1	1005.82	-29748.5	0.000000	0.000000	7.114608	168.088	NaN	0.000000	0.001601	0.001730	28.0813	65.0045	0.001830	35525.6	5.390018	173.051	170.828	1.106820	0.062896	0.062503	168.088	35525.6	0.059348	0.123480	1361.27	92367.1
487	2.000000	1.109067	7.36982e+06	-52739.1	1005.82	-29748.5	0.000000	0.000000	7.116914	179.074	NaN	0.000000	0.001598	0.001745	28.0815	65.6618	0.001757	37372.9	1.510557	176.957	173.643	1.108820	0.064751	0.064503	179.074	37372.9	0.061157	0.129991	1377.59	94705.3
487	2.000000	1.111115	7.36982e+06	-52739.1	1005.82	-29748.5	0.000000	0.000000	7.119476	191.583	NaN	0.000000	0.001609	0.001756	28.0821	66.6764	0.001753	38033.9	2.692663	175.386	186.627	1.110814	0.066798	0.066497	191.583	38033.9	0.063020	0.136860	1399.84	93930.2
487	2.000000	1.113128	7.36982e+06	-52739.1	1005.82	-29748.5	0.000000	0.000000	7.121803	199.215	NaN	0.000000	0.001585	0.001752	28.0818	70.1334	0.001827	38389.9	4.485864	173.598	196.548	1.112751	0.068811	0.068435	199.215	38389.9	0.064920	0.144038	1383.07	92417
487	2.000000	1.115167	7.36982e+06	-52739.1	1005.82	-29748.5	0.000000	0.000000	7.124282	209.891	NaN	0.000000	0.001580	0.001705	28.0829	73.1946	0.001828	40033.8	6.918453	170.981	211.349	1.114857	0.070851	0.070540	209.891	40033.8	0.066919	0.151780	1382.86	93884.4
487	2.000000	1.117117	7.36982e+06	-52739.1	1005.82	-29748.5	0.000000	0.000000	7.126550	217.627	NaN	0.000000	0.001553	0.001691	28.0826	72.8533	0.001708	42644	1.454290	175.45	216.354	1.116836	0.072801	0.072520	217.627	42644	0.068973	0.159936	1360.71	97422.4
487	2.000000	1.119147	7.36982e+06	-52739.1	1005.82	-29748.5	0.000000	0.000000	7.129059	229.294	NaN	0.000000	0.001562	0.001717	28.0826	76.9356	0.001771	43450	6.541626	170.697	228.904	1.118891	0.074830	0.074574	229.294	43450	0.070872	0.167655	1367.66	96951.6
487	2.000000	1.121088	7.36982e+06	-52739.1	1005.82	-29748.5	0.000000	0.000000	7.131525	242.041	NaN	0.000000	0.001527	0.001705	28.0827	76.6023	0.001752	43712.3	2.613238	174.472	238.899	1.120829	0.076771	0.076513	242.041	43712.3	0.072619	0.174903	1383.86	95494.5
487	2.000000	1.123170	7.36982e+06	-52739.1	1005.82	-29748.5	0.000000	0.000000	7.134000	251.603	NaN	0.000000	0.001639	0.001726	28.0825	79.5755	0.001726	46104.9	1.119400	175.253	250.676	1.122893	0.078854	0.078576	251.603	46104.9	0.074761	0.183992	1367.47	98202.1
487	2.000000	1.125244	7.36982e+06	-52739.1	1005.82	-29748.5	0.000000	0.000000	7.136610	264.631	NaN	0.000000	0.001639	0.001717	28.0829	82.28	0.001711	48086.6	5.152330	172.159	267.512	1.124697	0.080928	0.080380	264.631	48086.6	0.076800	0.192846	1372.23	100044
487	2.000000	1.127094	7.36982e+06	-52739.1	1005.82	-29748.5	0.000000	0.000000	7.138956	276.69	NaN	0.000000	0.001551	0.001682	28.0827	83.4455	0.001763	47344.4	5.236663	171.341	273.933	1.126902	0.082778	0.082586	276.69	47344.4	0.078395	0.199903	1384.13	96746
487	2.000000	1.129225	7.36982e+06	-52739.1	1005.82	-29748.5	0.000000	0.000000	7.141323	282.447	NaN	0.000000	0.001558	0.001706	28.0828	87.1232	0.001812	48085.1	6.411739	169.766	287.923	1.128914	0.084908	0.084597	282.447	48085.1	0.080503	0.209416	1348.74	96001.7
487	2.000000	1.131203	7.36982e+06	-52739.1	1005.82	-29748.5	0.000000	0.000000	7.143748	293.313	NaN	0.000000	0.001583	0.001663	28.0827	86.8998	0.001784	48721.8	2.007397	174.02	296.508	1.131057	0.086886	0.086740	293.313	48721.8	0.082371	0.218020	1345.35	95334.2
487	2.000000	1.133207	7.36982e+06	-52739.1	1005.82	-29748.5	0.000000	0.000000	7.146182	303.751	NaN	0.000000	0.001620	0.001649	28.0827	89.3706	0.001751	51031.6	4.688943	170.95	305.775	1.132971	0.088891	0.088654	303.751	51031.6	0.084427	0.227674	1334.15	97713.8
487	2.000000	1.135114	7.36982e+06	-52739.1	1005.82	-29748.5	0.000000	0.000000	7.148828	321.717	NaN	0.000000	0.001577	0.001696	28.083	92.0126	0.001784	51563.4	4.906866	171.037	318.551	1.134920	0.090797	0.090603	321.717	51563.4	0.086118	0.235764	1364.57	97023.4
487	2.000000	1.137178	7.36982e+06	-52739.1	1005.82	-29748.5	0.000000	0.000000	7.151348	332.799	NaN	0.000000	0.001561	0.001650	28.0826	93.2891	0.001774	52589.8	4.017136	171.764	336.083	1.136827	0.092862	0.092510	332.799	52589.8	0.088115	0.245487	1355.67	96975
487	2.000000	1.139109	7.36982e+06	-52739.1	1005.82	-29748.5	0.000000	0.000000	7.153917	348.315	NaN	0.000000	0.001590	0.001701	28.0826	96.2572	0.001894	50818.8	4.654257	170.936	346.368	1.139004	0.094792	0.094687	348.315	50818.8	0.089652	0.253092	1376.24	92290.8
487	2.000000	1.141154	7.36982e+06	-52739.1	1005.82	-29748.5	0.000000	0.000000	7.156791	368.488	NaN	0.000000	0.001557	0.001650	28.0828	96.9597	0.001706	56847.2	7.680138	167.317	370.185	1.140753	0.096837	0.096436	368.488	56847.2	0.091976	0.264798	1391.58	100931
487	2.000000	1.143098	7.36982e+06	-52739.1	1005.82	-29748.5	0.000000	0.000000	7.159314	382.552	NaN	0.000000	0.001548	0.001723	28.0826	98.8019	0.001725	57285.3	4.277497	170.899	379.942	1.142870	0.098782	0.098554	382.552	57285.3	0.093773	0.274024	1396.05	99982.1
487	2.000000	1.145159	7.36982e+06	-52739.1	1005.82	-29748.5	0.000000	0.000000	7.162091	399.981	NaN	0.000000	0.001576	0.001686	28.083	101.324	0.001846	54892.3	3.733001	171.991	398.959	1.144720	0.100842	0.100403	399.981	54892.3	0.095377	0.282379	1416.47	94377.5
487	2.000000	1.147239	7.36982e+06	-52739.1	1005.82	-29748.5	0.000000	0.000000	7.164598	410.349	NaN	0.000000	0.001612	0.001631	28.0825	104.268	0.001930	54023	8.775538	166.748	416.968	1.146827	0.102922	0.102510	410.349	54023	0.097225	0.292153	1404.57	91316.1
487	2.000000	1.149068	7.36982e+06	-52739.1	1005.82	-29748.5	0.000000	0.000000	7.167155	428.064	NaN	0.000000	0.001591	0.001698	28.0815	104.684	0.001789	58520.1	4.839884	169.798	422.368	1.148811	0.104751	0.104495	428.064	58520.1	0.099265	0.303120	1412.19	97111.5
487	2.000000	1.150218	7.36982e+06	-52739.1	1005.82	-29748.5	0.000000	0.000000	7.168514	433.137	NaN	0.000000	0.001592	0.001670	28.0818	104.765	0.001757	59624.7	3.942745	171.011	438.43	1.149823	0.105902	0.105506	433.137	59624.7	0.100453	0.309597	1399.03	97904.2