File: remote_trans/data/nanoindenter/0828-1/data/Data_2025-08-06,11h17m57s/2025-07-22_16-23-58_1_575.txt
2025-07-22, 16:23:58, 1
Index	Phase	Displacement	Time	Pos X	Pos Y	Pos Z	Rot A	Rot B	Piezo Z	Force A	Force B	Gripper	Voltage A	Voltage B	Temperature	Amplitude force	Amplitude pos	Stiffness	Phase shift	Phase excitation	Force A raw	Displacement raw	HMax	HMax raw	Real Force	Real Stiffness	Contact Depth	Area	Hardness	Reduced Mod.
[#]	[#]	[um]	[s]	[um]	[um]	[um]	[m°]	[m°]	[um]	[uN]	[uN]	[V]	[V]	[V]	[°C]	[uN]	[um]	[N/m]	[°]	[°]	[uN]	[um]	[um]	[um]	[uN]	[N/m]	[um]	[um^2]	[MPa]	[MPa]
575	1.000000	0.002640	7.37067e+06	-48339.1	1005.82	-29762.6	0.000000	0.000000	6.002788	0.017684	NaN	0.000000	0.001551	0.001675	28.0827	0.049229	0.000968	50.8417	-55.9204	-157.811	0.004178	0.001352	-1.196927	-1.198215	0.017684	50.8417	-1.197188	-1.007132E+16	-1.755885E-18	NaN
575	1.000000	0.012702	7.37067e+06	-48339.1	1005.82	-29762.6	0.000000	0.000000	6.012853	0.098814	NaN	0.000000	0.001552	0.001690	28.0823	0.103779	0.001259	82.4312	66.1682	14.066	0.112608	0.011259	-1.186865	-1.188307	0.098814	82.4312	-1.187764	-7.531332E+15	-1.312040E-17	NaN
575	1.000000	0.022588	7.37067e+06	-48339.1	1005.82	-29762.6	0.000000	0.000000	6.022734	-0.054110	NaN	0.000000	0.001584	0.001677	28.0824	0.061726	0.001801	34.2697	-104.364	-167.665	-0.037815	0.021334	-1.176978	-1.178232	-0.054110	34.2697	-1.175793	-5.206120E+15	1.039358E-17	NaN
575	1.000000	0.032628	7.37067e+06	-48339.1	1005.82	-29762.6	0.000000	0.000000	6.032777	0.042273	NaN	0.000000	0.001576	0.001667	28.0825	0.009437	0.001815	5.200032	38.5483	14.7896	0.056385	0.031236	-1.166938	-1.168330	0.042273	5.200032	-1.173035	-4.781383E+15	-8.841149E-18	NaN
575	1.000000	0.042599	7.37067e+06	-48339.1	1005.82	-29762.6	0.000000	0.000000	6.042746	-0.002878	NaN	0.000000	0.001571	0.001677	28.0824	0.073865	0.001953	37.8158	145.708	-164.241	-0.048457	0.041338	-1.156967	-1.158228	-0.002878	37.8158	-1.156910	-2.907035E+15	9.898733E-19	NaN
575	1.000000	0.052611	7.37067e+06	-48339.1	1005.82	-29762.6	0.000000	0.000000	6.052762	0.101775	NaN	0.000000	0.001583	0.001698	28.0812	0.155590	0.001967	79.1196	-31.9612	10.0979	0.051103	0.051238	-1.146955	-1.148328	0.101775	79.1196	-1.147920	-2.202597E+15	-4.620661E-17	NaN
575	1.000000	0.062606	7.37067e+06	-48339.1	1005.82	-29762.6	0.000000	0.000000	6.062754	0.010238	NaN	0.000000	0.001553	0.001664	28.0813	0.148491	0.001991	74.5767	142.157	-163.727	0.051155	0.061304	-1.136960	-1.138262	0.010238	74.5767	-1.137063	-1.575248E+15	-6.499541E-18	NaN
575	1.000000	0.072579	7.37067e+06	-48339.1	1005.82	-29762.6	0.000000	0.000000	6.072729	0.052355	NaN	0.000000	0.001549	0.001681	28.0814	0.102532	0.002106	48.6969	112.988	12.6785	0.111334	0.071254	-1.126987	-1.128312	0.052355	48.6969	-1.127794	-1.183112E+15	-4.425169E-17	NaN
575	1.000000	0.082608	7.37067e+06	-48339.1	1005.82	-29762.6	0.000000	0.000000	6.082756	0.005426	NaN	0.000000	0.001566	0.001709	28.0812	0.023367	0.001999	11.6889	90.4987	-163.764	0.031499	0.081313	-1.116958	-1.118254	0.005426	11.6889	-1.117306	-8.557083E+14	-6.341470E-18	NaN
575	1.000000	0.092611	7.37067e+06	-48339.1	1005.82	-29762.6	0.000000	0.000000	6.092759	0.011071	NaN	0.000000	0.001562	0.001697	28.0813	0.048810	0.001927	25.331	98.8609	13.7149	-0.021094	0.091265	-1.106955	-1.108302	0.011071	25.331	-1.107283	-6.277971E+14	-1.763435E-17	NaN
575	1.000000	0.102607	7.37067e+06	-48339.1	1005.82	-29762.6	0.000000	0.000000	6.102755	0.016447	NaN	0.000000	0.001570	0.001683	28.0813	0.143893	0.002040	70.5405	122.288	-167.506	0.058358	0.101288	-1.096959	-1.098278	0.016447	70.5405	-1.097134	-4.587680E+14	-3.584967E-17	NaN
575	1.000000	0.112629	7.37067e+06	-48339.1	1005.82	-29762.6	0.000000	0.000000	6.112780	0.082056	NaN	0.000000	0.001572	0.001721	28.0814	0.094283	0.002143	43.9923	169.856	13.7291	-0.020653	0.111269	-1.086937	-1.088297	0.082056	43.9923	-1.088336	-3.495171E+14	-2.347701E-16	NaN
575	1.000000	0.122641	7.37067e+06	-48339.1	1005.82	-29762.6	0.000000	0.000000	6.122790	0.030511	NaN	0.000000	0.001616	0.001712	28.0815	0.059921	0.001925	31.1247	90.1613	-167.795	0.028919	0.121290	-1.076925	-1.078276	0.030511	31.1247	-1.077660	-2.512435E+14	-1.214413E-16	NaN
575	1.000000	0.132653	7.37067e+06	-48339.1	1005.82	-29762.6	0.000000	0.000000	6.132801	0.032278	NaN	0.000000	0.001677	0.001675	28.0811	0.055601	0.001837	30.2684	-62.0792	14.4573	0.092358	0.131300	-1.066913	-1.068267	0.032278	30.2684	-1.067713	-1.846995E+14	-1.747614E-16	NaN
575	1.000000	0.142605	7.37067e+06	-48339.1	1005.82	-29762.6	0.000000	0.000000	6.142752	0.001248	NaN	0.000000	0.001663	0.001718	28.0814	0.099863	0.001928	51.7875	2.270384	-168.566	-0.139747	0.141326	-1.056961	-1.058240	0.001248	51.7875	-1.056980	-1.325036E+14	-9.422012E-18	NaN
575	1.000000	0.152612	7.37067e+06	-48339.1	1005.82	-29762.6	0.000000	0.000000	6.152763	0.086684	NaN	0.000000	0.001672	0.001701	28.0808	0.105642	0.002065	51.154	-51.3774	12.2371	0.008110	0.151305	-1.046954	-1.048261	0.086684	51.154	-1.048225	-1.010527E+14	-8.578122E-16	NaN
575	1.000000	0.162620	7.37067e+06	-48339.1	1005.82	-29762.6	0.000000	0.000000	6.162770	0.055026	NaN	0.000000	0.001665	0.001710	28.0811	0.119973	0.002042	58.7608	-127.323	-167.301	0.047177	0.161306	-1.036946	-1.038261	0.055026	58.7608	-1.037648	-7.283579E+13	-7.554778E-16	NaN
575	1.000000	0.172654	7.37067e+06	-48339.1	1005.82	-29762.6	0.000000	0.000000	6.172798	-0.080550	NaN	0.000000	0.001667	0.001645	28.0812	0.064335	0.002097	30.6758	-145.527	14.3962	0.016240	0.171264	-1.026912	-1.028302	-0.080550	30.6758	-1.024943	-4.914161E+13	1.639138E-15	NaN
575	1.000000	0.182655	7.37067e+06	-48339.1	1005.82	-29762.6	0.000000	0.000000	6.182803	0.005559	NaN	0.000000	0.001677	0.001686	28.0815	0.020082	0.001952	10.2891	-13.9456	-164.102	0.018425	0.181408	-1.016911	-1.018159	0.005559	10.2891	-1.017316	-3.880058E+13	-1.432777E-16	NaN
575	1.000000	0.192652	7.37067e+06	-48339.1	1005.82	-29762.6	0.000000	0.000000	6.192798	-0.044597	NaN	0.000000	0.001663	0.001668	28.0822	0.068205	0.002003	34.053	-166.351	10.1394	0.003141	0.191306	-1.006914	-1.008260	-0.044597	34.053	-1.005932	-2.726593E+13	1.635640E-15	NaN
575	1.000000	0.202663	7.37067e+06	-48339.1	1005.82	-29762.6	0.000000	0.000000	6.202809	-0.031705	NaN	0.000000	0.001671	0.001723	28.0824	0.043708	0.001913	22.8462	38.5913	-167.184	-0.036338	0.201311	-0.996903	-0.998255	-0.031705	22.8462	-0.995862	-1.995518E+13	1.588809E-15	NaN
575	1.000000	0.212672	7.37067e+06	-48339.1	1005.82	-29762.6	0.000000	0.000000	6.212820	0.020674	NaN	0.000000	0.001637	0.001685	28.0823	0.090904	0.001904	47.7398	173.892	13.6564	0.041452	0.211320	-0.986895	-0.988246	0.020674	47.7398	-0.987219	-1.526378E+13	-1.354422E-15	NaN
575	1.000000	0.222683	7.37067e+06	-48339.1	1005.82	-29762.6	0.000000	0.000000	6.222833	0.053133	NaN	0.000000	0.001656	0.001676	28.0823	0.042636	0.001951	21.8555	-34.9369	-165.406	0.039156	0.221360	-0.976883	-0.978206	0.053133	21.8555	-0.978706	-1.172140E+13	-4.532994E-15	NaN
575	1.000000	0.232677	7.37067e+06	-48339.1	1005.82	-29762.6	0.000000	0.000000	6.232827	0.043306	NaN	0.000000	0.001662	0.001656	28.0822	0.038028	0.001976	19.2437	153.735	14.0568	0.055442	0.231301	-0.966889	-0.968265	0.043306	19.2437	-0.968577	-8.560128E+12	-5.059054E-15	NaN
575	1.000000	0.242680	7.37067e+06	-48339.1	1005.82	-29762.6	0.000000	0.000000	6.242832	0.111882	NaN	0.000000	0.001631	0.001720	28.0823	0.006100	0.001989	3.067493	1.306994	-166.454	0.115181	0.241358	-0.956886	-0.958208	0.111882	3.067493	-0.984241	-1.391711E+13	-8.039174E-15	NaN
575	1.000000	0.252725	7.37067e+06	-48339.1	1005.82	-29762.6	0.000000	0.000000	6.252872	-0.002031	NaN	0.000000	0.001635	0.001677	28.0823	0.069538	0.001981	35.0965	-7.860555	15.7915	0.000517	0.251319	-0.946842	-0.948247	-0.002031	35.0965	-0.946798	-4.353561E+12	4.664381E-16	NaN
575	1.000000	0.262667	7.37067e+06	-48339.1	1005.82	-29762.6	0.000000	0.000000	6.262817	0.050663	NaN	0.000000	0.001660	0.001643	28.0822	0.122509	0.001938	63.2299	-164.002	-163.428	0.035313	0.261366	-0.936899	-0.938201	0.050663	63.2299	-0.937500	-3.261427E+12	-1.553393E-14	NaN
575	1.000000	0.272678	7.37067e+06	-48339.1	1005.82	-29762.6	0.000000	0.000000	6.272825	0.005351	NaN	0.000000	0.001591	0.001693	28.0822	0.084327	0.001984	42.5087	-64.935	14.9734	0.032022	0.271333	-0.926889	-0.928233	0.005351	42.5087	-0.926983	-2.352211E+12	-2.274808E-15	NaN
575	1.000000	0.282680	7.37067e+06	-48339.1	1005.82	-29762.6	0.000000	0.000000	6.282827	-0.019124	NaN	0.000000	0.001626	0.001701	28.0823	0.051820	0.002012	25.7557	-146.89	-163.525	0.007706	0.281400	-0.916886	-0.918166	-0.019124	25.7557	-0.916329	-1.689053E+12	1.132227E-14	NaN
575	1.000000	0.292710	7.37067e+06	-48339.1	1005.82	-29762.6	0.000000	0.000000	6.292857	-0.002387	NaN	0.000000	0.001601	0.001661	28.0823	0.063886	0.002016	31.6948	-119.776	13.4904	-0.016590	0.291311	-0.906856	-0.908255	-0.002387	31.6948	-0.906800	-1.255841E+12	1.900847E-15	NaN
575	1.000000	0.302699	7.37067e+06	-48339.1	1005.82	-29762.6	0.000000	0.000000	6.302849	0.062564	NaN	0.000000	0.001595	0.001706	28.0822	0.078031	0.002065	37.7823	5.199459	-163.213	-0.041691	0.301364	-0.896867	-0.898202	0.062564	37.7823	-0.898109	-9.583202E+11	-6.528465E-14	NaN
575	1.000000	0.312712	7.37067e+06	-48339.1	1005.82	-29762.6	0.000000	0.000000	6.312859	0.012146	NaN	0.000000	0.001604	0.001693	28.0824	0.077821	0.002011	38.6887	23.6467	15.1789	0.099593	0.311326	-0.886855	-0.888240	0.012146	38.6887	-0.887090	-6.801076E+11	-1.785926E-14	NaN
575	1.000000	0.322703	7.37067e+06	-48339.1	1005.82	-29762.6	0.000000	0.000000	6.322851	0.023437	NaN	0.000000	0.001609	0.001697	28.0812	0.145571	0.002088	69.7016	-96.527	-164.499	-0.055651	0.321394	-0.876863	-0.878173	0.023437	69.7016	-0.877115	-4.985351E+11	-4.701227E-14	NaN
575	1.000000	0.332720	7.37067e+06	-48339.1	1005.82	-29762.6	0.000000	0.000000	6.332868	0.014397	NaN	0.000000	0.001564	0.001684	28.0811	0.060443	0.002029	29.7966	-167.65	15.8878	0.004214	0.331376	-0.866847	-0.868191	0.014397	29.7966	-0.867209	-3.661679E+11	-3.931908E-14	NaN
575	1.000000	0.342706	7.37067e+06	-48339.1	1005.82	-29762.6	0.000000	0.000000	6.342851	-0.044675	NaN	0.000000	0.001583	0.001710	28.0811	0.061436	0.001982	30.9934	-101.629	-165.197	0.045203	0.341379	-0.856860	-0.858188	-0.044675	30.9934	-0.855779	-2.564412E+11	1.742108E-13	NaN
575	1.000000	0.352727	7.37067e+06	-48339.1	1005.82	-29762.6	0.000000	0.000000	6.352874	0.002218	NaN	0.000000	0.001557	0.001702	28.0811	0.054924	0.001965	27.9491	178.75	13.3353	-0.073587	0.351372	-0.846840	-0.848194	0.002218	27.9491	-0.846899	-1.944218E+11	-1.141017E-14	NaN
575	1.000000	0.362751	7.37067e+06	-48339.1	1005.82	-29762.6	0.000000	0.000000	6.362899	0.009242	NaN	0.000000	0.001591	0.001685	28.0813	0.073802	0.002056	35.8937	63.8785	-167.841	-0.019028	0.361473	-0.836815	-0.838093	0.009242	35.8937	-0.837008	-1.428087E+11	-6.471330E-14	NaN
575	1.000000	0.372741	7.37067e+06	-48339.1	1005.82	-29762.6	0.000000	0.000000	6.372889	0.019008	NaN	0.000000	0.001630	0.001674	28.0811	0.072436	0.002027	35.7269	-38.4497	11.8819	0.156804	0.371414	-0.826826	-0.828152	0.019008	35.7269	-0.827225	-1.052359E+11	-1.806201E-13	NaN
575	1.000000	0.382754	7.37067e+06	-48339.1	1005.82	-29762.6	0.000000	0.000000	6.382902	0.010553	NaN	0.000000	0.001600	0.001657	28.0812	0.059253	0.002040	29.0433	118.682	-165.138	-0.027735	0.381431	-0.816812	-0.818135	0.010553	29.0433	-0.817084	-7.667802E+10	-1.376301E-13	NaN
575	1.000000	0.392718	7.37067e+06	-48339.1	1005.82	-29762.6	0.000000	0.000000	6.392867	0.053144	NaN	0.000000	0.001582	0.001657	28.0812	0.065748	0.001954	33.6557	-172.028	14.6803	0.026288	0.391366	-0.806849	-0.808200	0.053144	33.6557	-0.808033	-5.779397E+10	-9.195499E-13	NaN
575	1.000000	0.402752	7.37067e+06	-48339.1	1005.82	-29762.6	0.000000	0.000000	6.402899	-0.006103	NaN	0.000000	0.001574	0.001692	28.0816	0.047858	0.002160	22.1605	-76.0532	-171.244	-0.064960	0.401444	-0.796814	-0.798122	-0.006103	22.1605	-0.796608	-4.044005E+10	1.509133E-13	NaN
575	1.000000	0.412745	7.37067e+06	-48339.1	1005.82	-29762.6	0.000000	0.000000	6.412895	0.076662	NaN	0.000000	0.001607	0.001658	28.0812	0.165156	0.002097	78.7634	-123.078	9.791879	-0.016169	0.411376	-0.786822	-0.788191	0.076662	78.7634	-0.787552	-3.046695E+10	-2.516245E-12	NaN
575	1.000000	0.422756	7.37067e+06	-48339.1	1005.82	-29762.6	0.000000	0.000000	6.422904	0.004543	NaN	0.000000	0.001603	0.001680	28.0814	0.017092	0.001958	8.729973	-142.112	-168.034	-0.043710	0.421461	-0.776810	-0.778105	0.004543	8.729973	-0.777200	-2.203871E+10	-2.061167E-13	NaN
575	1.000000	0.432753	7.37067e+06	-48339.1	1005.82	-29762.6	0.000000	0.000000	6.432899	-0.040462	NaN	0.000000	0.001599	0.001655	28.0811	0.091980	0.002171	42.36	173.956	14.7333	-0.040910	0.431414	-0.766813	-0.768152	-0.040462	42.36	-0.766096	-1.556775E+10	2.599086E-12	NaN
575	1.000000	0.442766	7.37067e+06	-48339.1	1005.82	-29762.6	0.000000	0.000000	6.442916	0.082081	NaN	0.000000	0.001638	0.001712	28.0811	0.113805	0.001968	57.8332	156.319	-164.541	0.056503	0.441465	-0.756801	-0.758102	0.082081	57.8332	-0.757865	-1.202976E+10	-6.823145E-12	NaN
575	1.000000	0.452781	7.37067e+06	-48339.1	1005.82	-29762.6	0.000000	0.000000	6.452930	0.045150	NaN	0.000000	0.001589	0.001684	28.0811	0.039087	0.002108	18.5415	147.941	16.6293	-0.032713	0.451423	-0.746786	-0.748144	0.045150	18.5415	-0.748612	-9.001670E+9	-5.015738E-12	NaN
575	1.000000	0.462786	7.37067e+06	-48339.1	1005.82	-29762.6	0.000000	0.000000	6.462932	-0.029107	NaN	0.000000	0.001603	0.001699	28.0824	0.116923	0.001993	58.6597	114.739	-167.354	0.017174	0.461488	-0.736780	-0.738079	-0.029107	58.6597	-0.736408	-6.139412E+9	4.741085E-12	NaN
575	1.000000	0.472786	7.37067e+06	-48339.1	1005.82	-29762.6	0.000000	0.000000	6.472930	-0.094011	NaN	0.000000	0.001636	0.001700	28.0825	0.055986	0.002000	27.9962	93.0864	16.2343	0.040676	0.471468	-0.726780	-0.728098	-0.094011	27.9962	-0.724261	-4.193554E+9	2.241804E-11	NaN
575	1.000000	0.482804	7.37067e+06	-48339.1	1005.82	-29762.6	0.000000	0.000000	6.482955	0.069321	NaN	0.000000	0.001618	0.001682	28.0822	0.065917	0.001955	33.7231	76.963	-163.731	0.043005	0.481524	-0.716762	-0.718042	0.069321	33.7231	-0.718304	-3.478053E+9	-1.993111E-11	NaN
575	1.000000	0.492795	7.37067e+06	-48339.1	1005.82	-29762.6	0.000000	0.000000	6.492942	-0.004567	NaN	0.000000	0.001684	0.001685	28.0823	0.060429	0.001898	31.8455	-35.9453	13.785	-0.073265	0.491428	-0.706771	-0.708139	-0.004567	31.8455	-0.706664	-2.412770E+9	1.892784E-12	NaN
575	1.000000	0.502776	7.37067e+06	-48339.1	1005.82	-29762.6	0.000000	0.000000	6.502925	0.040504	NaN	0.000000	0.001676	0.001745	28.0825	0.064732	0.001890	34.2466	-166.988	-169.271	0.082736	0.501485	-0.696790	-0.698081	0.040504	34.2466	-0.697677	-1.818892E+9	-2.226852E-11	NaN
575	1.000000	0.512798	7.37067e+06	-48339.1	1005.82	-29762.6	0.000000	0.000000	6.512949	0.089885	NaN	0.000000	0.001581	0.001733	28.0824	0.090716	0.002030	44.683	-144.278	13.3537	0.084247	0.511431	-0.686768	-0.688135	0.089885	44.683	-0.688277	-1.353205E+9	-6.642401E-11	NaN
575	1.000000	0.522816	7.37067e+06	-48339.1	1005.82	-29762.6	0.000000	0.000000	6.522962	-0.023110	NaN	0.000000	0.001634	0.001707	28.0827	0.080564	0.002073	38.8728	178.341	-166.622	0.079342	0.521480	-0.676751	-0.678086	-0.023110	38.8728	-0.676305	-9.282434E+8	2.489699E-11	NaN
575	1.000000	0.532792	7.37067e+06	-48339.1	1005.82	-29762.6	0.000000	0.000000	6.532942	0.062886	NaN	0.000000	0.001652	0.001651	28.0826	0.069435	0.002019	34.3988	172.577	11.1019	0.029950	0.531437	-0.666775	-0.668129	0.062886	34.3988	-0.668146	-7.178096E+8	-8.760819E-11	NaN
575	1.000000	0.542806	7.37067e+06	-48339.1	1005.82	-29762.6	0.000000	0.000000	6.542954	0.025194	NaN	0.000000	0.001613	0.001700	28.0829	0.050137	0.001995	25.1376	66.8048	-165.446	0.034029	0.541488	-0.656760	-0.658079	0.025194	25.1376	-0.657512	-5.133187E+8	-4.908031E-11	NaN
575	1.000000	0.552829	7.37067e+06	-48339.1	1005.82	-29762.6	0.000000	0.000000	6.552976	-0.024815	NaN	0.000000	0.001645	0.001697	28.0824	0.051369	0.002054	25.0094	-36.9133	12.7677	0.076589	0.551423	-0.646737	-0.648143	-0.024815	25.0094	-0.645993	-3.568561E+8	6.953696E-11	NaN
575	1.000000	0.562802	7.37067e+06	-48339.1	1005.82	-29762.6	0.000000	0.000000	6.562950	0.010253	NaN	0.000000	0.001604	0.001702	28.0826	0.133040	0.001925	69.118	-45.653	-166.729	0.030615	0.561555	-0.636764	-0.638011	0.010253	69.118	-0.636876	-2.675569E+8	-3.832211E-11	NaN
575	1.000000	0.572833	7.37067e+06	-48339.1	1005.82	-29762.6	0.000000	0.000000	6.572978	-0.067341	NaN	0.000000	0.001678	0.001677	28.0825	0.054465	0.002015	27.0275	45.833	12.8504	-0.028624	0.571486	-0.626733	-0.628080	-0.067341	27.0275	-0.624865	-1.830138E+8	3.679579E-10	NaN
575	1.000000	0.582831	7.37067e+06	-48339.1	1005.82	-29762.6	0.000000	0.000000	6.582979	0.008316	NaN	0.000000	0.001600	0.001670	28.0828	0.043165	0.001962	22.0015	62.7728	-168.46	-0.056146	0.581504	-0.616735	-0.618062	0.008316	22.0015	-0.617019	-1.427738E+8	-5.824401E-11	NaN
575	1.000000	0.592835	7.37067e+06	-48339.1	1005.82	-29762.6	0.000000	0.000000	6.592982	-0.008955	NaN	0.000000	0.001580	0.001676	28.0825	0.052710	0.002054	25.6576	-23.2336	10.5801	-0.068651	0.591399	-0.606732	-0.608167	-0.008955	25.6576	-0.606470	-1.022202E+8	8.760464E-11	NaN
575	1.000000	0.602846	7.37067e+06	-48339.1	1005.82	-29762.6	0.000000	0.000000	6.602994	0.020087	NaN	0.000000	0.001578	0.001668	28.0814	0.025127	0.002029	12.3816	1.207716	-169.358	0.060646	0.601502	-0.596721	-0.598064	0.020087	12.3816	-0.597937	-7.799206E+7	-2.575549E-10	NaN
575	1.000000	0.612793	7.37067e+06	-48339.1	1005.82	-29762.6	0.000000	0.000000	6.612941	0.014981	NaN	0.000000	0.001587	0.001684	28.0813	0.058007	0.002052	28.2742	45.5682	12.8188	0.024603	0.611503	-0.586773	-0.588064	0.014981	28.2742	-0.587171	-5.541872E+7	-2.703255E-10	NaN
575	1.000000	0.622840	7.37067e+06	-48339.1	1005.82	-29762.6	0.000000	0.000000	6.622985	-0.043461	NaN	0.000000	0.001554	0.001669	28.0812	0.131038	0.002068	63.3611	15.6242	-165.81	-0.068126	0.621530	-0.576727	-0.578036	-0.043461	63.3611	-0.576212	-3.912346E+7	1.110870E-9	NaN
575	1.000000	0.632841	7.37067e+06	-48339.1	1005.82	-29762.6	0.000000	0.000000	6.632989	0.012422	NaN	0.000000	0.001548	0.001711	28.0812	0.104568	0.001928	54.2493	9.575450	10.1739	-0.090016	0.631480	-0.566725	-0.568086	0.012422	54.2493	-0.566897	-2.909030E+7	-4.270064E-10	NaN
575	1.000000	0.642851	7.37067e+06	-48339.1	1005.82	-29762.6	0.000000	0.000000	6.642998	-0.021305	NaN	0.000000	0.001500	0.001697	28.0812	0.022785	0.002095	10.8747	156.955	-165.935	-0.009809	0.641589	-0.556715	-0.557977	-0.021305	10.8747	-0.555246	-2.007198E+7	1.061419E-9	NaN
575	1.000000	0.652853	7.37067e+06	-48339.1	1005.82	-29762.6	0.000000	0.000000	6.652999	-0.013245	NaN	0.000000	0.001576	0.001677	28.0814	0.014206	0.002036	6.978632	-131.417	12.2165	0.010111	0.651529	-0.546714	-0.548037	-0.013245	6.978632	-0.545290	-1.461169E+7	9.064960E-10	NaN
575	1.000000	0.662857	7.37067e+06	-48339.1	1005.82	-29762.6	0.000000	0.000000	6.663004	-0.010052	NaN	0.000000	0.001583	0.001688	28.0811	0.088748	0.001996	44.4636	21.0542	-165.311	-0.007401	0.661620	-0.536710	-0.537946	-0.010052	44.4636	-0.536540	-1.104997E+7	9.096874E-10	NaN
575	1.000000	0.672860	7.37067e+06	-48339.1	1005.82	-29762.6	0.000000	0.000000	6.673010	0.067910	NaN	0.000000	0.001578	0.001710	28.0811	0.122318	0.001987	61.5661	-66.5985	13.8882	-0.040956	0.671514	-0.526707	-0.528052	0.067910	61.5661	-0.527534	-8.28551e+06	-8.196255E-9	NaN
575	1.000000	0.682871	7.37067e+06	-48339.1	1005.82	-29762.6	0.000000	0.000000	6.683017	-0.018960	NaN	0.000000	0.001533	0.001744	28.0812	0.094055	0.002043	46.0328	76.0491	-165.79	-0.002505	0.681604	-0.516696	-0.517962	-0.018960	46.0328	-0.516387	-5.79872e+06	3.269617E-9	NaN
575	1.000000	0.692892	7.37067e+06	-48339.1	1005.82	-29762.6	0.000000	0.000000	6.693038	-0.040747	NaN	0.000000	0.001550	0.001746	28.0812	0.132939	0.002112	62.9469	-166.64	14.9396	-0.071797	0.691463	-0.506674	-0.508103	-0.040747	62.9469	-0.506188	-4.18126e+06	9.745045E-9	NaN
575	1.000000	0.702862	7.37067e+06	-48339.1	1005.82	-29762.6	0.000000	0.000000	6.703007	-0.056058	NaN	0.000000	0.001506	0.001733	28.0815	0.081383	0.002001	40.6687	-94.8206	-167.133	-0.015072	0.701572	-0.496704	-0.497994	-0.056058	40.6687	-0.495671	-2.98261e+06	1.879501E-8	NaN
575	1.000000	0.712880	7.37067e+06	-48339.1	1005.82	-29762.6	0.000000	0.000000	6.713028	0.031867	NaN	0.000000	0.001562	0.001750	28.0816	0.119028	0.001967	60.5018	-150.242	15.8452	-0.026216	0.711551	-0.486687	-0.488015	0.031867	60.5018	-0.487082	-2.26257e+06	-1.408459E-8	NaN
575	1.000000	0.722846	7.37067e+06	-48339.1	1005.82	-29762.6	0.000000	0.000000	6.722993	-0.006959	NaN	0.000000	0.001522	0.001736	28.0815	0.069742	0.001935	36.0361	-159.928	-163.792	-0.009085	0.721610	-0.476721	-0.477956	-0.006959	36.0361	-0.476576	-1.61278e+06	4.315102E-9	NaN
575	1.000000	0.732876	7.37067e+06	-48339.1	1005.82	-29762.6	0.000000	0.000000	6.733024	0.014206	NaN	0.000000	0.001554	0.001733	28.0827	0.050051	0.001991	25.138	-138.091	14.3744	-0.004894	0.731545	-0.466690	-0.468021	0.014206	25.138	-0.467114	-1.18828e+06	-1.195520E-8	NaN
575	1.000000	0.742875	7.37067e+06	-48339.1	1005.82	-29762.6	0.000000	0.000000	6.743022	-0.025808	NaN	0.000000	0.001549	0.001728	28.0827	0.033608	0.001920	17.5089	77.7603	-164.417	-0.013615	0.741586	-0.456691	-0.457981	-0.025808	17.5089	-0.455585	-818377	3.153510E-8	NaN
575	1.000000	0.752874	7.37067e+06	-48339.1	1005.82	-29762.6	0.000000	0.000000	6.753019	-0.054664	NaN	0.000000	0.001516	0.001709	28.0827	0.092155	0.001950	47.2609	111.901	12.7139	-0.015999	0.751553	-0.446692	-0.448013	-0.054664	47.2609	-0.445825	-596370	9.166164E-8	NaN
575	1.000000	0.762910	7.37068e+06	-48339.1	1005.82	-29762.6	0.000000	0.000000	6.763058	0.011078	NaN	0.000000	0.001559	0.001713	28.0828	0.045449	0.002056	22.1072	116.646	-165.736	0.038584	0.761576	-0.436656	-0.437990	0.011078	22.1072	-0.437032	-448185	-2.471781E-8	NaN
575	1.000000	0.772891	7.37068e+06	-48339.1	1005.82	-29762.6	0.000000	0.000000	6.773037	-0.038177	NaN	0.000000	0.001577	0.001695	28.0829	0.036558	0.002153	16.9789	2.684022	12.8638	0.079168	0.771549	-0.426675	-0.428017	-0.038177	16.9789	-0.424989	-302779	1.260896E-7	NaN
575	1.000000	0.782903	7.37068e+06	-48339.1	1005.82	-29762.6	0.000000	0.000000	6.783052	0.035568	NaN	0.000000	0.001572	0.001718	28.0827	0.111129	0.001990	55.8314	-38.8337	-166.561	0.025753	0.781577	-0.416663	-0.417989	0.035568	55.8314	-0.417141	-234342	-1.517789E-7	NaN
575	1.000000	0.792913	7.37068e+06	-48339.1	1005.82	-29762.6	0.000000	0.000000	6.793059	-0.021346	NaN	0.000000	0.001605	0.001736	28.083	0.025707	0.001942	13.2352	-31.1508	11.3903	-0.027126	0.791552	-0.406653	-0.408014	-0.021346	13.2352	-0.405444	-159796	1.335845E-7	NaN
575	1.000000	0.802904	7.37068e+06	-48339.1	1005.82	-29762.6	0.000000	0.000000	6.803054	0.066770	NaN	0.000000	0.001602	0.001682	28.0829	0.035060	0.002084	16.8231	-158.343	-168.831	0.091672	0.801590	-0.396662	-0.397976	0.066770	16.8231	-0.399639	-132083	-5.055144E-7	NaN
575	1.000000	0.812907	7.37068e+06	-48339.1	1005.82	-29762.6	0.000000	0.000000	6.813054	-0.012357	NaN	0.000000	0.001549	0.001672	28.083	0.024224	0.002049	11.8196	-84.0635	12.9378	0.000754	0.811581	-0.386659	-0.387985	-0.012357	11.8196	-0.385875	-83970.1	1.471552E-7	NaN
575	1.000000	0.822904	7.37068e+06	-48339.1	1005.82	-29762.6	0.000000	0.000000	6.823054	0.063458	NaN	0.000000	0.001591	0.001689	28.0828	0.002916	0.001998	1.459336	-178.302	-165.928	0.045760	0.821603	-0.376662	-0.377963	0.063458	1.459336	-0.409275	-181170	-3.502655E-7	NaN
575	1.000000	0.832958	7.37068e+06	-48339.1	1005.82	-29762.6	0.000000	0.000000	6.833108	0.073020	NaN	0.000000	0.001604	0.001705	28.0832	0.071765	0.001962	36.5813	159.953	11.0441	0.093678	0.831563	-0.366609	-0.368004	0.073020	36.5813	-0.368106	-46648.6	-1.565317E-6	NaN
575	1.000000	0.842971	7.37068e+06	-48339.1	1005.82	-29762.6	0.000000	0.000000	6.843117	-0.014101	NaN	0.000000	0.001587	0.001719	28.0829	0.054517	0.002076	26.2621	-131.798	-165.018	0.065552	0.841646	-0.356596	-0.357920	-0.014101	26.2621	-0.356193	-31388.5	4.492500E-7	NaN
575	1.000000	0.852933	7.37068e+06	-48339.1	1005.82	-29762.6	0.000000	0.000000	6.853081	0.013159	NaN	0.000000	0.001589	0.001775	28.083	0.069063	0.001909	36.1794	28.8945	16.2908	-0.012554	0.851524	-0.346634	-0.348042	0.013159	36.1794	-0.346906	-23018.3	-5.716682E-7	NaN
575	1.000000	0.862948	7.37068e+06	-48339.1	1005.82	-29762.6	0.000000	0.000000	6.863099	0.077971	NaN	0.000000	0.001578	0.001721	28.0828	0.082828	0.001921	43.1082	-99.0982	-166.223	0.061563	0.861609	-0.336618	-0.337957	0.077971	43.1082	-0.337974	-17061.4	-4.570048E-6	NaN
575	1.000000	0.872938	7.37068e+06	-48339.1	1005.82	-29762.6	0.000000	0.000000	6.873086	0.008156	NaN	0.000000	0.001614	0.001734	28.0815	0.046719	0.001969	23.7262	127.004	14.3359	0.008521	0.871615	-0.326628	-0.327951	0.008156	23.7262	-0.326886	-11743.9	-6.944928E-7	NaN
575	1.000000	0.882959	7.37068e+06	-48339.1	1005.82	-29762.6	0.000000	0.000000	6.883107	0.023720	NaN	0.000000	0.001594	0.001750	28.0816	0.074137	0.002077	35.6931	144.868	-166.423	-0.055639	0.881692	-0.316607	-0.317875	0.023720	35.6931	-0.317106	-8433.5	-2.812554E-6	NaN
575	1.000000	0.892948	7.37068e+06	-48339.1	1005.82	-29762.6	0.000000	0.000000	6.893098	0.056243	NaN	0.000000	0.001586	0.001726	28.0814	0.069468	0.002002	34.6935	-143.934	11.9505	0.043113	0.891637	-0.306618	-0.307929	0.056243	34.6935	-0.307834	-6151.56	-9.142828E-6	NaN
575	1.000000	0.902934	7.37068e+06	-48339.1	1005.82	-29762.6	0.000000	0.000000	6.903081	-0.023755	NaN	0.000000	0.001552	0.001726	28.0817	0.038862	0.001862	20.8688	-103.923	-168.039	0.001448	0.901604	-0.296632	-0.297962	-0.023755	20.8688	-0.295778	-4071.06	5.835102E-6	NaN
575	1.000000	0.912950	7.37068e+06	-48339.1	1005.82	-29762.6	0.000000	0.000000	6.913099	0.054224	NaN	0.000000	0.001586	0.001719	28.0814	0.077428	0.002047	37.8288	82.0108	14	-0.008923	0.911629	-0.286617	-0.287937	0.054224	37.8288	-0.287692	-3081	-1.759936E-5	NaN
575	1.000000	0.922971	7.37068e+06	-48339.1	1005.82	-29762.6	0.000000	0.000000	6.923120	0.029707	NaN	0.000000	0.001562	0.001678	28.0816	0.063589	0.001960	32.4373	116.677	-169.976	0.092642	0.921618	-0.276595	-0.277948	0.029707	32.4373	-0.277282	-2147.45	-1.383366E-5	NaN
575	1.000000	0.932971	7.37068e+06	-48339.1	1005.82	-29762.6	0.000000	0.000000	6.933118	0.010186	NaN	0.000000	0.001553	0.001717	28.0815	0.040040	0.002021	19.814	58.5037	12.6164	-0.054010	0.931620	-0.266596	-0.267947	0.010186	19.814	-0.266981	-1498.31	-6.798529E-6	NaN
575	1.000000	0.942960	7.37068e+06	-48339.1	1005.82	-29762.6	0.000000	0.000000	6.943106	-0.023203	NaN	0.000000	0.001530	0.001686	28.0815	0.087142	0.002027	42.9876	-17.447	-166.61	0.070405	0.941704	-0.256607	-0.257862	-0.023203	42.9876	-0.256202	-1024.72	2.264310E-5	NaN
575	1.000000	0.952947	7.37068e+06	-48339.1	1005.82	-29762.6	0.000000	0.000000	6.953095	0.013155	NaN	0.000000	0.001558	0.001714	28.0814	0.128409	0.002109	60.8999	154.536	16.8778	0.050286	0.951588	-0.246619	-0.247979	0.013155	60.8999	-0.246781	-733.002	-1.794700E-5	NaN
575	1.000000	0.962982	7.37068e+06	-48339.1	1005.82	-29762.6	0.000000	0.000000	6.963130	0.031585	NaN	0.000000	0.001546	0.001699	28.0815	0.032391	0.001976	16.3889	-123.105	-167.282	0.128010	0.961701	-0.236585	-0.237865	0.031585	16.3889	-0.238030	-535.49	-5.898418E-5	NaN
575	1.000000	0.973019	7.37068e+06	-48339.1	1005.82	-29762.6	0.000000	0.000000	6.973170	0.107402	NaN	0.000000	0.001549	0.001699	28.0824	0.019746	0.001960	10.0744	72.4075	12.6242	0.123934	0.971617	-0.226548	-0.227949	0.107402	10.0744	-0.234543	-472.143	-0.000227	NaN
575	1.000000	0.983003	7.37068e+06	-48339.1	1005.82	-29762.6	0.000000	0.000000	6.983152	0.051369	NaN	0.000000	0.001574	0.001697	28.0815	0.045192	0.001951	23.159	-83.5745	-165.009	0.051712	0.981660	-0.216564	-0.217907	0.051369	23.159	-0.218227	-260.203	-0.000197	NaN
575	1.000000	0.992991	7.37068e+06	-48339.1	1005.82	-29762.6	0.000000	0.000000	6.993138	-0.010459	NaN	0.000000	0.001568	0.001687	28.0816	0.023058	0.002010	11.4731	173.226	17.4136	0.074226	0.991625	-0.206576	-0.207942	-0.010459	11.4731	-0.205892	-164.473	6.359290E-5	NaN
575	1.000000	1.003029	7.37068e+06	-48339.1	1005.82	-29762.6	0.000000	0.000000	7.003178	0.041977	NaN	0.000000	0.001594	0.001663	28.0814	0.017308	0.002090	8.279911	-87.7551	-166.737	0.109215	1.001721	-0.196537	-0.197845	0.041977	8.279911	-0.200340	-133.438	-0.000315	NaN
575	1.000000	1.012998	7.37068e+06	-48339.1	1005.82	-29762.6	0.000000	0.000000	7.013146	-0.000695	NaN	0.000000	0.001589	0.001669	28.083	0.082654	0.002055	40.2168	24.07	13.3532	0.066265	1.011592	-0.186568	-0.187974	-0.000695	40.2168	-0.186555	-78.7597	8.829443E-6	NaN
575	1.000000	1.023006	7.37068e+06	-48339.1	1005.82	-29762.6	0.000000	0.000000	7.023153	-0.012277	NaN	0.000000	0.001620	0.001684	28.0829	0.107109	0.001967	54.456	-54.6013	-167.71	0.020862	1.021699	-0.176560	-0.177867	-0.012277	54.456	-0.176391	-52.9472	0.000232	NaN
575	1.000000	1.033002	7.37068e+06	-48339.1	1005.82	-29762.6	0.000000	0.000000	7.033150	0.004235	NaN	0.000000	0.001605	0.001672	28.0829	0.030113	0.001900	15.8502	-32.1154	11.2494	-0.002065	1.031613	-0.166564	-0.167954	0.004235	15.8502	-0.166765	-36.077	-0.000117	NaN
575	1.000000	1.043001	7.37068e+06	-48339.1	1005.82	-29762.6	0.000000	0.000000	7.043153	0.106421	NaN	0.000000	0.001564	0.001690	28.0832	0.020846	0.002160	9.650436	-118.536	-166.032	0.070559	1.041707	-0.156565	-0.157859	0.106421	9.650436	-0.164836	-33.3752	-0.003189	NaN
575	1.000000	1.052991	7.37068e+06	-48339.1	1005.82	-29762.6	0.000000	0.000000	7.053137	-0.037963	NaN	0.000000	0.001563	0.001679	28.0828	0.071223	0.002018	35.2907	-145.135	14.0407	-0.071883	1.051694	-0.146575	-0.147872	-0.037963	35.2907	-0.145769	-15.1485	0.002506	NaN
575	1.000000	1.063000	7.37068e+06	-48339.1	1005.82	-29762.6	0.000000	0.000000	7.063151	0.080350	NaN	0.000000	0.001573	0.001693	28.0832	0.111102	0.001916	57.9793	121.462	-163.653	0.085331	1.061695	-0.136566	-0.137871	0.080350	57.9793	-0.137605	-10.6614	-0.007537	NaN
575	1.000000	1.073031	7.37068e+06	-48339.1	1005.82	-29762.6	0.000000	0.000000	7.073182	0.077434	NaN	0.000000	0.001596	0.001646	28.0825	0.052228	0.001885	27.7012	-78.6551	14.0874	0.023786	1.071687	-0.126535	-0.127879	0.077434	27.7012	-0.128632	-7.167431	-0.010804	NaN
575	1.000000	1.083008	7.37068e+06	-48339.1	1005.82	-29762.6	0.000000	0.000000	7.083156	0.007134	NaN	0.000000	0.001604	0.001667	28.0832	0.094680	0.001956	48.4086	95.3518	-165.963	-0.030500	1.081744	-0.116558	-0.117823	0.007134	48.4086	-0.116669	-4.134090	-0.001726	NaN
575	1.000000	1.093030	7.37068e+06	-48339.1	1005.82	-29762.6	0.000000	0.000000	7.093177	0.007200	NaN	0.000000	0.001615	0.001684	28.0828	0.029883	0.001877	15.9219	78.7707	13.4149	-0.079836	1.091655	-0.106537	-0.107911	0.007200	15.9219	-0.106876	-2.579324	-0.002792	NaN
575	1.000000	1.103037	7.37068e+06	-48339.1	1005.82	-29762.6	0.000000	0.000000	7.103186	0.035534	NaN	0.000000	0.001592	0.001677	28.0832	0.060870	0.001978	30.7743	-77.5407	-166.849	0.061329	1.101723	-0.096530	-0.097843	0.035534	30.7743	-0.097395	-1.598203	-0.022233	NaN
575	1.000000	1.113035	7.37068e+06	-48339.1	1005.82	-29762.6	0.000000	0.000000	7.113184	0.035735	NaN	0.000000	0.001587	0.001719	28.0828	0.040063	0.001995	20.0827	97.0864	12.7309	0.059908	1.111700	-0.086531	-0.087866	0.035735	20.0827	-0.087866	-0.962525	-0.037126	NaN
575	1.000000	1.123033	7.37068e+06	-48339.1	1005.82	-29762.6	0.000000	0.000000	7.123183	0.042586	NaN	0.000000	0.001582	0.001707	28.0829	0.015576	0.002081	7.486866	-55.8761	-165.407	-0.002337	1.121753	-0.076533	-0.077813	0.042586	7.486866	-0.080799	-0.648049	-0.065714	NaN
575	1.000000	1.132989	7.37068e+06	-48339.1	1005.82	-29762.6	0.000000	0.000000	7.133135	-0.039205	NaN	0.000000	0.001526	0.001706	28.0827	0.057925	0.002134	27.1476	-61.3258	16.7254	-0.011077	1.131656	-0.066577	-0.067910	-0.039205	27.1476	-0.065494	-0.257189	0.152438	NaN
575	1.000000	1.143029	7.37068e+06	-48339.1	1005.82	-29762.6	0.000000	0.000000	7.143177	0.008379	NaN	0.000000	0.001572	0.001702	28.0818	0.067503	0.001923	35.0958	4.838465	-166.176	-0.015031	1.141750	-0.056537	-0.057816	0.008379	35.0958	-0.056716	-0.144651	-0.057924	NaN
575	1.000000	1.153065	7.37068e+06	-48339.1	1005.82	-29762.6	0.000000	0.000000	7.153213	0.016077	NaN	0.000000	0.001583	0.001718	28.0817	0.030104	0.002019	14.9082	33.778	12.7472	0.078753	1.151700	-0.046501	-0.047866	0.016077	14.9082	-0.047310	-0.075601	-0.212654	NaN
575	1.000000	1.163054	7.37068e+06	-48339.1	1005.82	-29762.6	0.000000	0.000000	7.163202	0.016675	NaN	0.000000	0.001571	0.001765	28.0818	0.058507	0.001879	31.1442	-154.836	-166.875	-0.021522	1.161738	-0.036512	-0.037828	0.016675	31.1442	-0.036914	-0.036500	-0.456862	NaN
575	1.000000	1.173063	7.37068e+06	-48339.1	1005.82	-29762.6	0.000000	0.000000	7.173213	0.061002	NaN	0.000000	0.001558	0.001721	28.0818	0.090831	0.001966	46.1995	127.611	13.3743	0.002922	1.171653	-0.026503	-0.027914	0.061002	46.1995	-0.027493	-0.019646	-3.105130	NaN
575	1.000000	1.183077	7.37068e+06	-48339.1	1005.82	-29762.6	0.000000	0.000000	7.183224	-0.010076	NaN	0.000000	0.001566	0.001728	28.0817	0.026860	0.002012	13.3501	115.922	-165.926	-0.038623	1.181802	-0.016489	-0.017764	-0.010076	13.3501	-0.015923	-0.009836	1.024395	NaN
575	1.000000	1.193101	7.37068e+06	-48339.1	1005.82	-29762.6	0.000000	0.000000	7.193251	0.077924	NaN	0.000000	0.001562	0.001708	28.0815	0.091781	0.002031	45.1901	13.9161	13.6834	0.045600	1.191717	-0.006466	-0.007850	0.077924	45.1901	-0.007759	-0.005090	-15.309	NaN
575	1.000000	1.203046	7.37068e+06	-48339.1	1005.82	-29762.6	0.000000	0.000000	7.203355	3.941622	NaN	0.000000	0.001583	0.001725	28.0816	4.722050	0.001795	2630.86	12.836	-173.974	2.393499	1.201731	0.003479	0.002165	3.941622	2630.86	0.002356	0.001845	2136.83	55965.3
575	2.000000	1.208214	7.37068e+06	-48339.1	1005.82	-29762.6	0.000000	0.000000	7.208817	11.0761	NaN	0.000000	0.001557	0.001709	28.0815	10.3322	0.001652	6255.7	6.154065	7.223367	9.870064	1.207884	0.008648	0.008318	11.0761	6255.7	0.007320	0.006352	1743.59	71709.8
575	2.000000	1.210654	7.37068e+06	-48339.1	1005.82	-29762.6	0.000000	0.000000	7.211440	15.5305	NaN	0.000000	0.001555	0.001695	28.0816	12.8436	0.001475	8705.27	5.076147	-176.133	14.6323	1.210392	0.011088	0.010826	15.5305	8705.27	0.009750	0.008905	1744.06	84283.9
575	2.000000	1.213172	7.37068e+06	-48339.1	1005.82	-29762.6	0.000000	0.000000	7.214077	18.4293	NaN	0.000000	0.001558	0.001710	28.0815	15.7872	0.001681	9390.92	6.997995	2.287311	17.716	1.212806	0.013606	0.013239	18.4293	9390.92	0.012134	0.011651	1581.78	79487.7
575	2.000000	1.215626	7.37068e+06	-48339.1	1005.82	-29762.6	0.000000	0.000000	7.216729	23.2413	NaN	0.000000	0.001549	0.001676	28.0815	18.6706	0.001833	10185.3	6.323991	-177.066	21.9233	1.215350	0.016060	0.015784	23.2413	10185.3	0.014349	0.014427	1610.99	77475.4
575	2.000000	1.218147	7.37068e+06	-48339.1	1005.82	-29762.6	0.000000	0.000000	7.219499	29.2876	NaN	0.000000	0.001571	0.001709	28.0814	20.7275	0.001728	11995	5.546564	2.394932	27.7007	1.217814	0.018581	0.018248	29.2876	11995	0.016750	0.017690	1655.61	82397
575	2.000000	1.220607	7.37068e+06	-48339.1	1005.82	-29762.6	0.000000	0.000000	7.222106	32.8669	NaN	0.000000	0.001563	0.001679	28.0816	23.3412	0.001810	12898.1	5.448065	-177.869	31.5055	1.220329	0.021041	0.020762	32.8669	12898.1	0.019130	0.021194	1550.78	80945.6
575	2.000000	1.223129	7.37068e+06	-48339.1	1005.82	-29762.6	0.000000	0.000000	7.224940	40.4591	NaN	0.000000	0.001528	0.001741	28.0814	25.4793	0.001623	15701.8	3.441059	0.689770	38.0859	1.222780	0.023563	0.023213	40.4591	15701.8	0.021631	0.025170	1607.45	90423.9
575	2.000000	1.225667	7.37068e+06	-48339.1	1005.82	-29762.6	0.000000	0.000000	7.227643	44.4775	NaN	0.000000	0.001526	0.001716	28.0827	29.3906	0.001858	15818.6	7.836305	177.005	44.6	1.225405	0.026101	0.025839	44.4775	15818.6	0.023992	0.029207	1522.84	84566.6
575	2.000000	1.228161	7.37068e+06	-48339.1	1005.82	-29762.6	0.000000	0.000000	7.230569	54.9733	NaN	0.000000	0.001586	0.001703	28.0828	31.0181	0.001862	16660.1	7.483575	-1.033422	57.1666	1.227745	0.028595	0.028179	54.9733	16660.1	0.026120	0.033085	1661.57	83682.4
575	2.000000	1.230617	7.37068e+06	-48339.1	1005.82	-29762.6	0.000000	0.000000	7.233337	62.5636	NaN	0.000000	0.001569	0.001698	28.0828	33.2196	0.001827	18183.5	6.356551	178.07	62.086	1.230275	0.031051	0.030709	62.5636	18183.5	0.028470	0.037633	1662.47	85637.9
575	2.000000	1.233116	7.37068e+06	-48339.1	1005.82	-29762.6	0.000000	0.000000	7.236135	69.8564	NaN	0.000000	0.001602	0.001677	28.0827	36.5297	0.001868	19557.8	7.725251	-4.877319	68.5791	1.232770	0.033550	0.033204	69.8564	19557.8	0.030871	0.042568	1641.07	86607.2
575	2.000000	1.235568	7.37068e+06	-48339.1	1005.82	-29762.6	0.000000	0.000000	7.238945	78.5546	NaN	0.000000	0.001557	0.001742	28.0826	38.5579	0.001727	22325.5	5.425477	175.441	77.2524	1.235331	0.036002	0.035764	78.5546	22325.5	0.033363	0.048003	1636.45	93098
575	2.000000	1.238058	7.37068e+06	-48339.1	1005.82	-29762.6	0.000000	0.000000	7.241869	89.1115	NaN	0.000000	0.001577	0.001717	28.0827	39.9496	0.001749	22843	3.232727	-0.475655	86.0799	1.237714	0.038491	0.038148	89.1115	22843	0.035566	0.053071	1679.09	90593.6
575	2.000000	1.240518	7.37068e+06	-48339.1	1005.82	-29762.6	0.000000	0.000000	7.244669	97.3584	NaN	0.000000	0.001584	0.001703	28.0826	42.3665	0.001821	23261.1	6.021731	175.987	94.5316	1.240283	0.040952	0.040717	97.3584	23261.1	0.037813	0.058499	1664.28	87867.9
575	2.000000	1.243079	7.37068e+06	-48339.1	1005.82	-29762.6	0.000000	0.000000	7.247675	108.195	NaN	0.000000	0.001573	0.001700	28.0826	45.8094	0.001769	25902.7	9.367048	-7.925302	107.174	1.242656	0.043513	0.043090	108.195	25902.7	0.040380	0.065015	1664.15	92813.4
575	2.000000	1.245558	7.37068e+06	-48339.1	1005.82	-29762.6	0.000000	0.000000	7.250644	120.13	NaN	0.000000	0.001571	0.001648	28.0827	48.225	0.001742	27690.1	5.100620	175.879	119.019	1.245348	0.045992	0.045782	120.13	27690.1	0.042738	0.071296	1684.95	94747.3
575	2.000000	1.248145	7.37068e+06	-48339.1	1005.82	-29762.6	0.000000	0.000000	7.253743	132.58	NaN	0.000000	0.001578	0.001669	28.083	50.8259	0.001900	26747	6.890601	-4.429022	132.87	1.247705	0.048579	0.048139	132.58	26747	0.044861	0.077193	1717.51	87954.7
575	2.000000	1.250560	7.37068e+06	-48339.1	1005.82	-29762.6	0.000000	0.000000	7.256627	143.981	NaN	0.000000	0.001571	0.001682	28.0826	53.8225	0.001856	29005.4	4.356656	175.896	141.741	1.250213	0.050994	0.050647	143.981	29005.4	0.047271	0.084164	1710.72	91345.8
575	2.000000	1.253162	7.37068e+06	-48339.1	1005.82	-29762.6	0.000000	0.000000	7.259822	158.398	NaN	0.000000	0.001539	0.001691	28.0827	55.6218	0.001863	29864	6.662627	-5.548900	162.424	1.252619	0.053596	0.053053	158.398	29864	0.049618	0.091235	1736.15	90331.6
575	2.000000	1.255544	7.37068e+06	-48339.1	1005.82	-29762.6	0.000000	0.000000	7.262733	171.281	NaN	0.000000	0.001600	0.001707	28.0827	58.211	0.001771	32869.8	6.480494	172.555	170.026	1.255203	0.055977	0.055636	171.281	32869.8	0.052069	0.098916	1731.58	95485.3
575	2.000000	1.258014	7.37068e+06	-48339.1	1005.82	-29762.6	0.000000	0.000000	7.265922	188.747	NaN	0.000000	0.001561	0.001701	28.0826	59.1554	0.001697	34852.7	4.504089	-5.171610	184.359	1.257662	0.058448	0.058095	188.747	34852.7	0.054386	0.106451	1773.09	97596.7
575	2.000000	1.260565	7.37068e+06	-48339.1	1005.82	-29762.6	0.000000	0.000000	7.268994	201.422	NaN	0.000000	0.001579	0.001702	28.0815	61.6824	0.001804	34190.5	5.605001	173.56	200.24	1.260238	0.060999	0.060672	201.422	34190.5	0.056581	0.113833	1769.45	92585.9
575	2.000000	1.263034	7.37068e+06	-48339.1	1005.82	-29762.6	0.000000	0.000000	7.271952	213.317	NaN	0.000000	0.001569	0.001671	28.0815	64.1608	0.001542	41609.3	3.213212	-6.391425	210.226	1.262770	0.063467	0.063204	213.317	41609.3	0.059622	0.124458	1713.97	107759
575	2.000000	1.265591	7.37068e+06	-48339.1	1005.82	-29762.6	0.000000	0.000000	7.274940	223.797	NaN	0.000000	0.001540	0.001711	28.0818	70.4723	0.001866	37774.1	5.151106	172.5	223.565	1.265301	0.066025	0.065735	223.797	37774.1	0.061582	0.131541	1701.35	95156.3
575	2.000000	1.268074	7.37068e+06	-48339.1	1005.82	-29762.6	0.000000	0.000000	7.278089	240.01	NaN	0.000000	0.001548	0.001657	28.0815	71.1455	0.001845	38556.7	2.544597	-4.700231	237.495	1.267729	0.068508	0.068163	240.01	38556.7	0.063839	0.139933	1715.17	94170.1
575	2.000000	1.270558	7.37068e+06	-48339.1	1005.82	-29762.6	0.000000	0.000000	7.281379	259.593	NaN	0.000000	0.001591	0.001649	28.0815	72.8624	0.001813	40186.8	2.770054	174.611	258.961	1.270183	0.070992	0.070617	259.593	40186.8	0.066148	0.148771	1744.92	95191.4
575	2.000000	1.273056	7.37068e+06	-48339.1	1005.82	-29762.6	0.000000	0.000000	7.284510	275.003	NaN	0.000000	0.001556	0.001668	28.0816	75.8897	0.001788	42444.8	6.231485	-9.599690	273.532	1.272701	0.073490	0.073135	275.003	42444.8	0.068631	0.158562	1734.36	97386.5
575	2.000000	1.275540	7.37068e+06	-48339.1	1005.82	-29762.6	0.000000	0.000000	7.287791	294.376	NaN	0.000000	0.001581	0.001685	28.0816	77.2411	0.001854	41657.3	1.256069	176.458	293.816	1.275217	0.075974	0.075651	294.376	41657.3	0.070674	0.166840	1764.42	93178.2
575	2.000000	1.278075	7.37068e+06	-48339.1	1005.82	-29762.6	0.000000	0.000000	7.290909	308.56	NaN	0.000000	0.001514	0.001686	28.0815	79.8797	0.001710	46708.1	6.772806	-10.4838	307.21	1.277691	0.078509	0.078125	308.56	46708.1	0.073554	0.178847	1725.27	100908
575	2.000000	1.280546	7.37068e+06	-48339.1	1005.82	-29762.6	0.000000	0.000000	7.294074	325.457	NaN	0.000000	0.001537	0.001666	28.0814	81.2705	0.001820	44651.1	4.540495	171.947	324.056	1.280193	0.080980	0.080627	325.457	44651.1	0.075513	0.187234	1738.24	94278.5
575	2.000000	1.283091	7.37068e+06	-48339.1	1005.82	-29762.6	0.000000	0.000000	7.297371	343.718	NaN	0.000000	0.001528	0.001681	28.0818	83.1934	0.001815	45838.7	1.012725	-4.769598	342.669	1.282811	0.083525	0.083245	343.718	45838.7	0.077901	0.197706	1738.53	94187.9
575	2.000000	1.285485	7.37068e+06	-48339.1	1005.82	-29762.6	0.000000	0.000000	7.300656	365.397	NaN	0.000000	0.001582	0.001676	28.0815	85.3389	0.001787	47743.7	1.275473	174.802	361.364	1.285210	0.085919	0.085644	365.397	47743.7	0.080179	0.207943	1757.2	95657
575	2.000000	1.288051	7.37068e+06	-48339.1	1005.82	-29762.6	0.000000	0.000000	7.304026	384.95	NaN	0.000000	0.001571	0.001641	28.0817	88.1058	0.001693	52042.7	7.103762	-11.5808	382.591	1.287704	0.088485	0.088138	384.95	52042.7	0.082937	0.220659	1744.55	101221
575	2.000000	1.290492	7.37068e+06	-48339.1	1005.82	-29762.6	0.000000	0.000000	7.307291	405.011	NaN	0.000000	0.001542	0.001645	28.0814	90.1772	0.001828	49322	5.982999	170.315	401.202	1.290095	0.090926	0.090529	405.011	49322	0.084767	0.229291	1766.36	94106.5
575	2.000000	1.292923	7.37068e+06	-48339.1	1005.82	-29762.6	0.000000	0.000000	7.310299	419.036	NaN	0.000000	0.001539	0.001660	28.0829	91.0429	0.001636	55634.3	0.751429	-5.770078	408.693	1.292568	0.093356	0.093002	419.036	55634.3	0.087707	0.243486	1720.99	103010
575	2.000000	1.295507	7.37068e+06	-48339.1	1005.82	-29762.6	0.000000	0.000000	7.313875	443.161	NaN	0.000000	0.001554	0.001636	28.0827	96.2993	0.001806	53322.1	5.237437	170.154	440.844	1.295215	0.095941	0.095649	443.161	53322.1	0.089708	0.253369	1749.07	96784
575	2.000000	1.297984	7.37068e+06	-48339.1	1005.82	-29762.6	0.000000	0.000000	7.317558	472.494	NaN	0.000000	0.001547	0.001663	28.0828	97.0645	0.001801	53900.8	2.235956	-6.835664	466.486	1.297673	0.098418	0.098107	472.494	53900.8	0.091843	0.264124	1788.91	95821.7
575	2.000000	1.300465	7.37068e+06	-48339.1	1005.82	-29762.6	0.000000	0.000000	7.320871	492.735	NaN	0.000000	0.001530	0.001674	28.0826	99.0425	0.001717	57697.3	6.099451	168.954	488.541	1.300135	0.100899	0.100569	492.735	57697.3	0.094494	0.277762	1773.95	100021
575	2.000000	1.303042	7.37068e+06	-48339.1	1005.82	-29762.6	0.000000	0.000000	7.324061	507.636	NaN	0.000000	0.001583	0.001662	28.083	101.942	0.001808	56383.9	4.925691	-10.0057	505.552	1.302736	0.103476	0.103169	507.636	56383.9	0.096724	0.289486	1753.58	95744.6
575	2.000000	1.305037	7.37068e+06	-48339.1	1005.82	-29762.6	0.000000	0.000000	7.326950	529.391	NaN	0.000000	0.001584	0.001675	28.0827	103.473	0.001762	58718.9	3.568782	-8.041013	526.713	1.304630	0.105470	0.105064	529.391	58718.9	0.098709	0.300110	1763.99	97928.9