File: remote_trans/data/nanoindenter/0828-1/data/Data_2025-08-06,11h17m57s/2025-07-22_16-23-58_1_608.txt
2025-07-22, 16:23:58, 1
Index	Phase	Displacement	Time	Pos X	Pos Y	Pos Z	Rot A	Rot B	Piezo Z	Force A	Force B	Gripper	Voltage A	Voltage B	Temperature	Amplitude force	Amplitude pos	Stiffness	Phase shift	Phase excitation	Force A raw	Displacement raw	HMax	HMax raw	Real Force	Real Stiffness	Contact Depth	Area	Hardness	Reduced Mod.
[#]	[#]	[um]	[s]	[um]	[um]	[um]	[m°]	[m°]	[um]	[uN]	[uN]	[V]	[V]	[V]	[°C]	[uN]	[um]	[N/m]	[°]	[°]	[uN]	[um]	[um]	[um]	[uN]	[N/m]	[um]	[um^2]	[MPa]	[MPa]
608	1.000000	0.002945	7.371e+06	-46689.1	1005.82	-29768.4	0.000000	0.000000	6.002825	0.006487	NaN	0.000000	0.001593	0.001766	28.0818	0.063599	0.001023	62.1474	45.1639	-159.221	0.026117	0.001651	-1.130379	-1.131672	0.006487	62.1474	-1.130457	-1.284556E+15	-5.049881E-18	NaN
608	1.000000	0.012995	7.371e+06	-46689.1	1005.82	-29768.4	0.000000	0.000000	6.012874	-0.019486	NaN	0.000000	0.001602	0.001744	28.0816	0.102553	0.001242	82.5564	-117.565	15.045	-0.050833	0.011565	-1.120329	-1.121758	-0.019486	82.5564	-1.120152	-9.343405E+14	2.085547E-17	NaN
608	1.000000	0.022864	7.371e+06	-46689.1	1005.82	-29768.4	0.000000	0.000000	6.022743	-0.005167	NaN	0.000000	0.001519	0.001783	28.0812	0.050059	0.001761	28.4299	-18.2004	-165.563	0.021479	0.021613	-1.110460	-1.111711	-0.005167	28.4299	-1.110323	-6.896495E+14	7.491794E-18	NaN
608	1.000000	0.032875	7.371e+06	-46689.1	1005.82	-29768.4	0.000000	0.000000	6.032757	0.073179	NaN	0.000000	0.001568	0.001763	28.082	0.025134	0.001844	13.6312	-82.1783	11.8428	0.018153	0.031501	-1.100449	-1.101823	0.073179	13.6312	-1.104475	-5.756269E+14	-1.271293E-16	NaN
608	1.000000	0.042881	7.371e+06	-46689.1	1005.82	-29768.4	0.000000	0.000000	6.042762	0.029948	NaN	0.000000	0.001549	0.001760	28.0816	0.007918	0.001949	4.063344	148.505	-165.624	0.062314	0.041564	-1.090443	-1.091760	0.029948	4.063344	-1.095970	-4.425580E+14	-6.767010E-17	NaN
608	1.000000	0.052874	7.371e+06	-46689.1	1005.82	-29768.4	0.000000	0.000000	6.052755	0.011515	NaN	0.000000	0.001541	0.001737	28.0816	0.043547	0.002025	21.5032	-36.9429	11.7544	8.318433E-5	0.051462	-1.080449	-1.081862	0.011515	21.5032	-1.080851	-2.772977E+14	-4.152665E-17	NaN
608	1.000000	0.062871	7.371e+06	-46689.1	1005.82	-29768.4	0.000000	0.000000	6.062751	0.017311	NaN	0.000000	0.001546	0.001756	28.0815	0.126700	0.002006	63.1457	-71.3737	-165.727	0.031826	0.061610	-1.070453	-1.071713	0.017311	63.1457	-1.070658	-2.023178E+14	-8.556114E-17	NaN
608	1.000000	0.072862	7.371e+06	-46689.1	1005.82	-29768.4	0.000000	0.000000	6.072743	0.016586	NaN	0.000000	0.001574	0.001765	28.0816	0.053826	0.001970	27.3164	7.204807	15.7086	0.028023	0.071526	-1.060461	-1.061797	0.016586	27.3164	-1.060917	-1.496713E+14	-1.108173E-16	NaN
608	1.000000	0.082883	7.371e+06	-46689.1	1005.82	-29768.4	0.000000	0.000000	6.082764	0.030256	NaN	0.000000	0.001552	0.001753	28.0805	0.087064	0.002065	42.1587	158.253	-169.681	0.066168	0.081579	-1.050441	-1.051744	0.030256	42.1587	-1.050979	-1.100461E+14	-2.749436E-16	NaN
608	1.000000	0.092869	7.371e+06	-46689.1	1005.82	-29768.4	0.000000	0.000000	6.092749	0.011551	NaN	0.000000	0.001518	0.001786	28.0801	0.060487	0.002035	29.7205	-75.3577	16.6767	0.025236	0.091549	-1.040455	-1.041774	0.011551	29.7205	-1.040746	-8.016823E+13	-1.440860E-16	NaN
608	1.000000	0.102878	7.371e+06	-46689.1	1005.82	-29768.4	0.000000	0.000000	6.102758	0.006900	NaN	0.000000	0.001576	0.001774	28.0801	0.041835	0.002091	20.0067	178.106	-167.07	0.052199	0.101531	-1.030446	-1.031792	0.006900	20.0067	-1.030704	-5.874260E+13	-1.174609E-16	NaN
608	1.000000	0.112901	7.371e+06	-46689.1	1005.82	-29768.4	0.000000	0.000000	6.112779	-0.038695	NaN	0.000000	0.001542	0.001758	28.0801	0.023013	0.001923	11.9654	-119.492	14.6854	-0.096538	0.111565	-1.020423	-1.021758	-0.038695	11.9654	-1.017997	-3.962810E+13	9.764430E-16	NaN
608	1.000000	0.122886	7.371e+06	-46689.1	1005.82	-29768.4	0.000000	0.000000	6.122767	0.034304	NaN	0.000000	0.001547	0.001789	28.0802	0.040331	0.002168	18.5999	-173.243	-164.254	-0.004385	0.121603	-1.010438	-1.011720	0.034304	18.5999	-1.011821	-3.272592E+13	-1.048232E-15	NaN
608	1.000000	0.132891	7.371e+06	-46689.1	1005.82	-29768.4	0.000000	0.000000	6.132772	0.020150	NaN	0.000000	0.001565	0.001773	28.0802	0.191209	0.001929	99.1211	26.0072	16.6731	0.017881	0.131484	-1.000433	-1.001840	0.020150	99.1211	-1.000585	-2.310180E+13	-8.722138E-16	NaN
608	1.000000	0.142878	7.371e+06	-46689.1	1005.82	-29768.4	0.000000	0.000000	6.142758	0.002155	NaN	0.000000	0.001540	0.001805	28.0801	0.116474	0.002121	54.9156	148.172	-167.802	-0.042912	0.141577	-0.990446	-0.991747	0.002155	54.9156	-0.990475	-1.688543E+13	-1.276532E-16	NaN
608	1.000000	0.152911	7.371e+06	-46689.1	1005.82	-29768.4	0.000000	0.000000	6.152792	0.041166	NaN	0.000000	0.001548	0.001799	28.0805	0.038828	0.001930	20.1231	-28.3266	12.8603	0.026182	0.151538	-0.980413	-0.981785	0.041166	20.1231	-0.981947	-1.296109E+13	-3.176131E-15	NaN
608	1.000000	0.162931	7.371e+06	-46689.1	1005.82	-29768.4	0.000000	0.000000	6.162812	0.021508	NaN	0.000000	0.001574	0.001785	28.0801	0.064463	0.002057	31.3349	-78.7873	-168.765	0.076137	0.161602	-0.970393	-0.971722	0.021508	31.3349	-0.970907	-9.202202E+12	-2.337270E-15	NaN
608	1.000000	0.172930	7.371e+06	-46689.1	1005.82	-29768.4	0.000000	0.000000	6.172809	-0.012587	NaN	0.000000	0.001586	0.001776	28.0804	0.093097	0.002028	45.902	-150.401	12.2907	0.059418	0.171574	-0.960394	-0.961750	-0.012587	45.902	-0.960188	-6.597888E+12	1.907674E-15	NaN
608	1.000000	0.182922	7.371e+06	-46689.1	1005.82	-29768.4	0.000000	0.000000	6.182802	0.015097	NaN	0.000000	0.001562	0.001777	28.0802	0.079544	0.002067	38.484	-179.302	-164.202	0.031629	0.181639	-0.950402	-0.951684	0.015097	38.484	-0.950696	-4.913720E+12	-3.072338E-15	NaN
608	1.000000	0.192934	7.371e+06	-46689.1	1005.82	-29768.4	0.000000	0.000000	6.192813	-0.023437	NaN	0.000000	0.001526	0.001768	28.0803	0.064014	0.002008	31.8827	73.8686	13.8797	-0.018547	0.191527	-0.940390	-0.941796	-0.023437	31.8827	-0.939838	-3.507165E+12	6.682550E-15	NaN
608	1.000000	0.202915	7.371e+06	-46689.1	1005.82	-29768.4	0.000000	0.000000	6.202797	0.050815	NaN	0.000000	0.001541	0.001762	28.0799	0.023712	0.002037	11.6409	9.490294	-167.389	0.006620	0.201633	-0.930409	-0.931690	0.050815	11.6409	-0.933683	-2.896665E+12	-1.754276E-14	NaN
608	1.000000	0.212928	7.371e+06	-46689.1	1005.82	-29768.4	0.000000	0.000000	6.212810	0.063340	NaN	0.000000	0.001521	0.001785	28.0802	0.005908	0.001910	3.092851	-171.55	13.5611	0.043788	0.211566	-0.920396	-0.921757	0.063340	3.092851	-0.935755	-3.089338E+12	-2.050285E-14	NaN
608	1.000000	0.222905	7.371e+06	-46689.1	1005.82	-29768.4	0.000000	0.000000	6.222786	0.019707	NaN	0.000000	0.001548	0.001783	28.0816	0.080583	0.002061	39.0905	159.916	-163.338	0.039737	0.221650	-0.910418	-0.911674	0.019707	39.0905	-0.910796	-1.422058E+12	-1.385814E-14	NaN
608	1.000000	0.232937	7.371e+06	-46689.1	1005.82	-29768.4	0.000000	0.000000	6.232819	0.046569	NaN	0.000000	0.001556	0.001774	28.0813	0.083808	0.001902	44.0564	154.51	12.3798	0.073614	0.231542	-0.900386	-0.901782	0.046569	44.0564	-0.901179	-1.054382E+12	-4.416757E-14	NaN
608	1.000000	0.242911	7.371e+06	-46689.1	1005.82	-29768.4	0.000000	0.000000	6.242794	0.080718	NaN	0.000000	0.001576	0.001767	28.0812	0.129609	0.001949	66.4966	57.7304	-166.302	0.110877	0.241575	-0.890413	-0.891748	0.080718	66.4966	-0.891323	-7.758972E+11	-1.040313E-13	NaN
608	1.000000	0.252951	7.371e+06	-46689.1	1005.82	-29768.4	0.000000	0.000000	6.252832	0.016356	NaN	0.000000	0.001576	0.001749	28.0812	0.113306	0.001937	58.4883	-97.1019	15.4664	0.021990	0.251612	-0.880372	-0.881712	0.016356	58.4883	-0.880582	-5.553632E+11	-2.945158E-14	NaN
608	1.000000	0.262921	7.371e+06	-46689.1	1005.82	-29768.4	0.000000	0.000000	6.262802	0.037280	NaN	0.000000	0.001524	0.001768	28.0815	0.114757	0.001913	59.9836	-72.8931	-166.878	0.069471	0.261601	-0.870403	-0.871722	0.037280	59.9836	-0.870869	-4.103952E+11	-9.084032E-14	NaN
608	1.000000	0.272950	7.371e+06	-46689.1	1005.82	-29768.4	0.000000	0.000000	6.272832	0.045970	NaN	0.000000	0.001539	0.001810	28.0811	0.044562	0.001955	22.7921	-130.086	13.9942	0.010089	0.271572	-0.860373	-0.861752	0.045970	22.7921	-0.861886	-3.102032E+11	-1.481938E-13	NaN
608	1.000000	0.282945	7.371e+06	-46689.1	1005.82	-29768.4	0.000000	0.000000	6.282823	-0.036592	NaN	0.000000	0.001543	0.001792	28.0814	0.047204	0.002083	22.6607	71.5869	-168.444	-0.082482	0.281657	-0.850379	-0.851666	-0.036592	22.6607	-0.849168	-2.086744E+11	1.753522E-13	NaN
608	1.000000	0.292967	7.371e+06	-46689.1	1005.82	-29768.4	0.000000	0.000000	6.292847	-0.001220	NaN	0.000000	0.001524	0.001769	28.0814	0.045590	0.002024	22.5278	-140.334	15.6346	0.020008	0.291637	-0.840356	-0.841687	-0.001220	22.5278	-0.840315	-1.583313E+11	7.705446E-15	NaN
608	1.000000	0.302966	7.371e+06	-46689.1	1005.82	-29768.4	0.000000	0.000000	6.302846	0.009319	NaN	0.000000	0.001508	0.001797	28.0815	0.028649	0.001960	14.6169	134.827	-163.675	-0.044137	0.301711	-0.830358	-0.831612	0.009319	14.6169	-0.830836	-1.177917E+11	-7.911192E-14	NaN
608	1.000000	0.312960	7.371e+06	-46689.1	1005.82	-29768.4	0.000000	0.000000	6.312843	0.079246	NaN	0.000000	0.001537	0.001736	28.0814	0.077208	0.001943	39.7359	-129.023	15.0446	0.104159	0.311588	-0.820363	-0.821736	0.079246	39.7359	-0.821859	-8.900573E+10	-8.903514E-13	NaN
608	1.000000	0.323011	7.371e+06	-46689.1	1005.82	-29768.4	0.000000	0.000000	6.322892	0.022080	NaN	0.000000	0.001515	0.001748	28.0815	0.070182	0.002101	33.411	-48.6379	-164.208	-0.020500	0.321654	-0.810313	-0.811669	0.022080	33.411	-0.810808	-6.302832E+10	-3.503180E-13	NaN
608	1.000000	0.332992	7.371e+06	-46689.1	1005.82	-29768.4	0.000000	0.000000	6.332873	0.013149	NaN	0.000000	0.001528	0.001758	28.0817	0.073679	0.001909	38.6013	-125.158	17.0561	0.030576	0.331690	-0.800331	-0.801634	0.013149	38.6013	-0.800587	-4.579576E+10	-2.871256E-13	NaN
608	1.000000	0.342999	7.371e+06	-46689.1	1005.82	-29768.4	0.000000	0.000000	6.342881	0.056207	NaN	0.000000	0.001531	0.001761	28.0815	0.069462	0.002109	32.9414	-114.283	-166.844	0.033874	0.341689	-0.790324	-0.791634	0.056207	32.9414	-0.791604	-3.458359E+10	-1.625253E-12	NaN
608	1.000000	0.353000	7.371e+06	-46689.1	1005.82	-29768.4	0.000000	0.000000	6.352881	0.023323	NaN	0.000000	0.001514	0.001774	28.0811	0.077142	0.001962	39.3198	112.832	15.9584	0.031926	0.351565	-0.780323	-0.781759	0.023323	39.3198	-0.780768	-2.464181E+10	-9.464920E-13	NaN
608	1.000000	0.363002	7.371e+06	-46689.1	1005.82	-29768.4	0.000000	0.000000	6.362887	0.115147	NaN	0.000000	0.001481	0.001772	28.0801	0.071390	0.002097	34.0424	166.676	-167.694	0.092170	0.361633	-0.770321	-0.771690	0.115147	34.0424	-0.772858	-1.923814E+10	-5.985356E-12	NaN
608	1.000000	0.373015	7.371e+06	-46689.1	1005.82	-29768.4	0.000000	0.000000	6.372897	0.059698	NaN	0.000000	0.001493	0.001784	28.0803	0.110036	0.002013	54.6521	27.8446	11.9729	0.088396	0.371650	-0.760309	-0.761674	0.059698	54.6521	-0.761128	-1.332449E+10	-4.480316E-12	NaN
608	1.000000	0.383007	7.371e+06	-46689.1	1005.82	-29768.4	0.000000	0.000000	6.382888	0.018891	NaN	0.000000	0.001568	0.001762	28.08	0.067364	0.001978	34.0619	-84.039	-167.702	0.021413	0.381695	-0.750316	-0.751629	0.018891	34.0619	-0.750732	-9.620211E+9	-1.963679E-12	NaN
608	1.000000	0.393014	7.371e+06	-46689.1	1005.82	-29768.4	0.000000	0.000000	6.392894	0.019819	NaN	0.000000	0.001569	0.001779	28.08	0.158572	0.001990	79.6924	10.7584	13.1935	0.081609	0.391675	-0.740310	-0.741649	0.019819	79.6924	-0.740497	-6.979422E+9	-2.839609E-12	NaN
608	1.000000	0.403031	7.371e+06	-46689.1	1005.82	-29768.4	0.000000	0.000000	6.402912	0.042427	NaN	0.000000	0.001557	0.001780	28.0802	0.048224	0.001878	25.6724	178.639	-163.192	-0.002098	0.401668	-0.730293	-0.731655	0.042427	25.6724	-0.731532	-5.268574E+9	-8.052791E-12	NaN
608	1.000000	0.413016	7.371e+06	-46689.1	1005.82	-29768.4	0.000000	0.000000	6.412898	0.057504	NaN	0.000000	0.001500	0.001792	28.0801	0.101134	0.001914	52.8354	-129.547	13.7306	0.033653	0.411616	-0.720308	-0.721707	0.057504	52.8354	-0.721124	-3.800148E+9	-1.513194E-11	NaN
608	1.000000	0.423030	7.371e+06	-46689.1	1005.82	-29768.4	0.000000	0.000000	6.422910	0.000490	NaN	0.000000	0.001540	0.001731	28.08	0.018617	0.002063	9.025719	-139.381	-168.38	0.008755	0.421742	-0.710294	-0.711582	0.000490	9.025719	-0.710334	-2.707768E+9	-1.808617E-13	NaN
608	1.000000	0.433022	7.371e+06	-46689.1	1005.82	-29768.4	0.000000	0.000000	6.432901	-0.006273	NaN	0.000000	0.001547	0.001768	28.0801	0.060277	0.001962	30.723	55.3477	15.5406	0.008428	0.431683	-0.700302	-0.701641	-0.006273	30.723	-0.700149	-1.965893E+9	3.191095E-12	NaN
608	1.000000	0.443040	7.371e+06	-46689.1	1005.82	-29768.4	0.000000	0.000000	6.442921	0.032687	NaN	0.000000	0.001560	0.001773	28.0804	0.013789	0.002151	6.411161	-51.4683	-165.644	0.116345	0.441716	-0.690284	-0.691608	0.032687	6.411161	-0.694108	-1.625735E+9	-2.010619E-11	NaN
608	1.000000	0.453039	7.371e+06	-46689.1	1005.82	-29768.4	0.000000	0.000000	6.452920	0.037604	NaN	0.000000	0.001520	0.001760	28.0801	0.021995	0.001996	11.0173	2.802500	11.6981	-0.007985	0.451639	-0.680285	-0.681684	0.037604	11.0173	-0.682844	-1.140518E+9	-3.297105E-11	NaN
608	1.000000	0.463026	7.371e+06	-46689.1	1005.82	-29768.4	0.000000	0.000000	6.462906	4.725040E-5	NaN	0.000000	0.001545	0.001762	28.0802	0.041277	0.001981	20.8393	-120.59	-167.934	-0.024738	0.461708	-0.670297	-0.671616	4.725040E-5	20.8393	-0.670299	-7.682190E+8	-6.150642E-14	NaN
608	1.000000	0.473044	7.371e+06	-46689.1	1005.82	-29768.4	0.000000	0.000000	6.472926	0.068742	NaN	0.000000	0.001569	0.001778	28.0802	0.065784	0.002061	31.9111	-8.773808	15.6764	0.149306	0.471691	-0.660280	-0.661632	0.068742	31.9111	-0.661895	-5.894277E+8	-1.166243E-10	NaN
608	1.000000	0.483058	7.371e+06	-46689.1	1005.82	-29768.4	0.000000	0.000000	6.482938	0.006932	NaN	0.000000	0.001552	0.001786	28.0803	0.084338	0.001937	43.5399	27.2361	-164.609	0.025885	0.481750	-0.650265	-0.651573	0.006932	43.5399	-0.650385	-4.099323E+8	-1.691008E-11	NaN
608	1.000000	0.493069	7.371e+06	-46689.1	1005.82	-29768.4	0.000000	0.000000	6.492947	-0.026900	NaN	0.000000	0.001527	0.001773	28.0813	0.076045	0.001895	40.1282	-85.5927	15.9195	-0.004630	0.491704	-0.640255	-0.641620	-0.026900	40.1282	-0.639752	-2.930141E+8	9.180599E-11	NaN
608	1.000000	0.503045	7.371e+06	-46689.1	1005.82	-29768.4	0.000000	0.000000	6.502925	0.004489	NaN	0.000000	0.001541	0.001770	28.0814	0.132252	0.002072	63.834	-0.007098	-165.655	0.050530	0.501771	-0.630279	-0.631553	0.004489	63.834	-0.630331	-2.175571E+8	-2.063402E-11	NaN
608	1.000000	0.513075	7.371e+06	-46689.1	1005.82	-29768.4	0.000000	0.000000	6.512957	0.058978	NaN	0.000000	0.001520	0.001741	28.0813	0.080609	0.002031	39.689	84.073	11.3869	0.129991	0.511745	-0.620249	-0.621578	0.058978	39.689	-0.621363	-1.638222E+8	-3.600137E-10	NaN
608	1.000000	0.523059	7.371e+06	-46689.1	1005.82	-29768.4	0.000000	0.000000	6.522939	0.011888	NaN	0.000000	0.001500	0.001744	28.0812	0.076467	0.001925	39.7295	74.2977	-166.29	0.028642	0.521744	-0.610265	-0.611580	0.011888	39.7295	-0.610489	-1.161031E+8	-1.023932E-10	NaN
608	1.000000	0.533085	7.371e+06	-46689.1	1005.82	-29768.4	0.000000	0.000000	6.532965	0.011820	NaN	0.000000	0.001515	0.001690	28.0812	0.103893	0.002057	50.5047	124.98	14.056	-0.001963	0.531704	-0.600238	-0.601620	0.011820	50.5047	-0.600414	-8.436491E+7	-1.401098E-10	NaN
608	1.000000	0.543040	7.371e+06	-46689.1	1005.82	-29768.4	0.000000	0.000000	6.542919	-0.020666	NaN	0.000000	0.001502	0.001689	28.0812	0.059311	0.002028	29.2506	-159.437	-166.97	0.050383	0.541791	-0.590283	-0.591532	-0.020666	29.2506	-0.589754	-6.015452E+7	3.435525E-10	NaN
608	1.000000	0.553076	7.371e+06	-46689.1	1005.82	-29768.4	0.000000	0.000000	6.552956	0.016256	NaN	0.000000	0.001506	0.001742	28.0816	0.036237	0.002045	17.7219	-176.587	14.7358	0.012223	0.551724	-0.580248	-0.581600	0.016256	17.7219	-0.580936	-4.546097E+7	-3.575721E-10	NaN
608	1.000000	0.563073	7.371e+06	-46689.1	1005.82	-29768.4	0.000000	0.000000	6.562954	0.027039	NaN	0.000000	0.001527	0.001713	28.0813	0.042218	0.001923	21.9595	-154.724	-164.963	0.054029	0.561761	-0.570251	-0.571562	0.027039	21.9595	-0.571174	-3.333138E+7	-8.112167E-10	NaN
608	1.000000	0.573101	7.371e+06	-46689.1	1005.82	-29768.4	0.000000	0.000000	6.572985	0.085610	NaN	0.000000	0.001523	0.001720	28.0813	0.152698	0.002041	74.8074	-154.269	17.6992	0.087393	0.571734	-0.560222	-0.561589	0.085610	74.8074	-0.561080	-2.417262E+7	-3.541593E-9	NaN
608	1.000000	0.583108	7.371e+06	-46689.1	1005.82	-29768.4	0.000000	0.000000	6.582989	0.047458	NaN	0.000000	0.001512	0.001728	28.0812	0.143357	0.002039	70.3058	-57.4635	-162.75	0.006339	0.581756	-0.550216	-0.551568	0.047458	70.3058	-0.550722	-1.737631E+7	-2.731205E-9	NaN
608	1.000000	0.593079	7.371e+06	-46689.1	1005.82	-29768.4	0.000000	0.000000	6.592958	-0.014716	NaN	0.000000	0.001474	0.001729	28.0813	0.085267	0.001826	46.7084	127.344	14.1341	0.069898	0.591706	-0.540245	-0.541617	-0.014716	46.7084	-0.540009	-1.234460E+7	1.192084E-9	NaN
608	1.000000	0.603068	7.371e+06	-46689.1	1005.82	-29768.4	0.000000	0.000000	6.602945	-0.067533	NaN	0.000000	0.001543	0.001707	28.0812	0.025931	0.002108	12.3024	-65.9326	-166.018	0.014573	0.601802	-0.530255	-0.531521	-0.067533	12.3024	-0.526138	-7.92373e+06	8.522889E-9	NaN
608	1.000000	0.613103	7.371e+06	-46689.1	1005.82	-29768.4	0.000000	0.000000	6.612984	0.021555	NaN	0.000000	0.001511	0.001707	28.0814	0.015666	0.002111	7.420262	80.2123	13.7439	0.056821	0.611749	-0.520221	-0.521574	0.021555	7.420262	-0.522399	-7.03006e+06	-3.066139E-9	NaN
608	1.000000	0.623116	7.371e+06	-46689.1	1005.82	-29768.4	0.000000	0.000000	6.622997	0.034910	NaN	0.000000	0.001522	0.001695	28.0814	0.053976	0.001964	27.476	-120.958	-165.182	0.054255	0.621756	-0.510208	-0.511567	0.034910	27.476	-0.511160	-4.90432e+06	-7.118230E-9	NaN
608	1.000000	0.633112	7.371e+06	-46689.1	1005.82	-29768.4	0.000000	0.000000	6.632992	0.002762	NaN	0.000000	0.001547	0.001726	28.0799	0.081761	0.002016	40.5622	-142.269	11.5742	-0.032921	0.631759	-0.500211	-0.501565	0.002762	40.5622	-0.500262	-3.45681e+06	-7.990624E-10	NaN
608	1.000000	0.643119	7.371e+06	-46689.1	1005.82	-29768.4	0.000000	0.000000	6.642998	-0.021677	NaN	0.000000	0.001512	0.001712	28.0799	0.102311	0.002073	49.3529	-124.212	-162.54	-0.014362	0.641839	-0.490205	-0.491485	-0.021677	49.3529	-0.489875	-2.47542e+06	8.756740E-9	NaN
608	1.000000	0.653133	7.371e+06	-46689.1	1005.82	-29768.4	0.000000	0.000000	6.653015	0.074662	NaN	0.000000	0.001581	0.001697	28.08	0.041363	0.002060	20.0773	-3.634688	13.7847	0.054048	0.651763	-0.480191	-0.481561	0.074662	20.0773	-0.482980	-1.9826e+06	-3.765853E-8	NaN
608	1.000000	0.663138	7.371e+06	-46689.1	1005.82	-29768.4	0.000000	0.000000	6.663019	0.041004	NaN	0.000000	0.001573	0.001733	28.0804	0.067100	0.001952	34.3826	-41.8374	-165.649	-0.035861	0.661853	-0.470186	-0.471470	0.041004	34.3826	-0.471080	-1.35069e+06	-3.035809E-8	NaN
608	1.000000	0.673104	7.371e+06	-46689.1	1005.82	-29768.4	0.000000	0.000000	6.672986	0.056694	NaN	0.000000	0.001650	0.001721	28.0799	0.168462	0.002053	82.0442	-124.753	14.5875	0.028080	0.671774	-0.460220	-0.461549	0.056694	82.0442	-0.460738	-966918	-5.863386E-8	NaN
608	1.000000	0.683141	7.371e+06	-46689.1	1005.82	-29768.4	0.000000	0.000000	6.683022	0.023205	NaN	0.000000	0.001564	0.001703	28.08	0.099503	0.001880	52.9322	-143.658	-167.415	0.067418	0.681857	-0.450182	-0.451467	0.023205	52.9322	-0.450511	-694289	-3.342263E-8	NaN
608	1.000000	0.693136	7.371e+06	-46689.1	1005.82	-29768.4	0.000000	0.000000	6.693019	0.063754	NaN	0.000000	0.001530	0.001741	28.08	0.053065	0.002011	26.3882	148.95	13.0083	0.092236	0.691804	-0.440187	-0.441519	0.063754	26.3882	-0.441999	-526712	-1.210416E-7	NaN
608	1.000000	0.703135	7.371e+06	-46689.1	1005.82	-29768.4	0.000000	0.000000	6.703017	0.053769	NaN	0.000000	0.001501	0.001725	28.08	0.094183	0.002020	46.6208	68.8084	-168.053	-0.000421	0.701822	-0.430188	-0.431501	0.053769	46.6208	-0.431053	-368943	-1.457381E-7	NaN
608	1.000000	0.713161	7.371e+06	-46689.1	1005.82	-29768.4	0.000000	0.000000	6.713041	0.006384	NaN	0.000000	0.001542	0.001734	28.0801	0.122727	0.001936	63.3774	-119.065	14.0668	-0.003606	0.711768	-0.420163	-0.421555	0.006384	63.3774	-0.420238	-259294	-2.461920E-8	NaN
608	1.000000	0.723157	7.371e+06	-46689.1	1005.82	-29768.4	0.000000	0.000000	6.723037	0.005859	NaN	0.000000	0.001504	0.001715	28.0801	0.112285	0.001999	56.1786	26.9793	-165.906	0.047185	0.721808	-0.410167	-0.411516	0.005859	56.1786	-0.410245	-187019	-3.132762E-8	NaN
608	1.000000	0.733162	7.371e+06	-46689.1	1005.82	-29768.4	0.000000	0.000000	6.733042	0.015339	NaN	0.000000	0.001528	0.001715	28.0803	0.120068	0.002072	57.9448	-44.9889	14.08	0.057307	0.731853	-0.400162	-0.401471	0.015339	57.9448	-0.400360	-135248	-1.134133E-7	NaN
608	1.000000	0.743135	7.371e+06	-46689.1	1005.82	-29768.4	0.000000	0.000000	6.743018	0.059030	NaN	0.000000	0.001516	0.001733	28.0802	0.028302	0.001892	14.9615	-53.5878	-166.736	-0.014166	0.741823	-0.390188	-0.391501	0.059030	14.9615	-0.393147	-106700	-5.532356E-7	NaN
608	1.000000	0.753153	7.371e+06	-46689.1	1005.82	-29768.4	0.000000	0.000000	6.753034	0.037330	NaN	0.000000	0.001507	0.001743	28.0803	0.011093	0.002146	5.169532	78.1974	14.5473	0.078069	0.751844	-0.380171	-0.381480	0.037330	5.169532	-0.385587	-83174.3	-4.488162E-7	NaN
608	1.000000	0.763174	7.371e+06	-46689.1	1005.82	-29768.4	0.000000	0.000000	6.763055	0.038864	NaN	0.000000	0.001556	0.001754	28.0802	0.039622	0.002023	19.5893	-30.4295	-165.189	-0.073261	0.761924	-0.370150	-0.371399	0.038864	19.5893	-0.371638	-52445.4	-7.410291E-7	NaN
608	1.000000	0.773173	7.371e+06	-46689.1	1005.82	-29768.4	0.000000	0.000000	6.773052	-0.008565	NaN	0.000000	0.001519	0.001753	28.0816	0.046559	0.001970	23.6352	-79.3568	10.3658	0.025307	0.771767	-0.360151	-0.361556	-0.008565	23.6352	-0.359879	-35488.9	2.413540E-7	NaN
608	1.000000	0.783209	7.371e+06	-46689.1	1005.82	-29768.4	0.000000	0.000000	6.783086	-0.063948	NaN	0.000000	0.001521	0.001745	28.0813	0.072124	0.002042	35.3126	6.939048	-167.031	-0.050397	0.781864	-0.350114	-0.351460	-0.063948	35.3126	-0.348756	-24487.5	2.611458E-6	NaN
608	1.000000	0.793177	7.371e+06	-46689.1	1005.82	-29768.4	0.000000	0.000000	6.793058	0.023176	NaN	0.000000	0.001508	0.001768	28.0814	0.115900	0.001918	60.437	-131.96	12.3011	0.020149	0.791778	-0.340146	-0.341546	0.023176	60.437	-0.340434	-18530.1	-1.250692E-6	NaN
608	1.000000	0.803189	7.371e+06	-46689.1	1005.82	-29768.4	0.000000	0.000000	6.803071	0.046675	NaN	0.000000	0.001549	0.001742	28.0814	0.018665	0.002060	9.059668	-174.064	-164.817	-0.035197	0.801892	-0.330135	-0.331432	0.046675	9.059668	-0.333999	-14926.4	-3.127018E-6	NaN
608	1.000000	0.813195	7.371e+06	-46689.1	1005.82	-29768.4	0.000000	0.000000	6.813072	-0.078246	NaN	0.000000	0.001521	0.001712	28.0815	0.076641	0.002105	36.4096	88.2602	11.3085	0.023745	0.811845	-0.320128	-0.321478	-0.078246	36.4096	-0.318516	-8846.97	8.844368E-6	NaN
608	1.000000	0.823160	7.371e+06	-46689.1	1005.82	-29768.4	0.000000	0.000000	6.823040	-0.005709	NaN	0.000000	0.001502	0.001736	28.0816	0.037995	0.002136	17.7855	89.4014	-166.907	-0.003868	0.821923	-0.310163	-0.311401	-0.005709	17.7855	-0.309923	-6605.6	8.642776E-7	NaN
608	1.000000	0.833194	7.371e+06	-46689.1	1005.82	-29768.4	0.000000	0.000000	6.833074	0.020135	NaN	0.000000	0.001512	0.001732	28.0816	0.056223	0.001995	28.1843	-81.8202	13.1548	0.026023	0.831838	-0.300130	-0.301486	0.020135	28.1843	-0.300665	-4814.38	-4.182265E-6	NaN
608	1.000000	0.843208	7.371e+06	-46689.1	1005.82	-29768.4	0.000000	0.000000	6.843087	-0.026512	NaN	0.000000	0.001512	0.001728	28.082	0.081176	0.002148	37.7922	127.532	-169.639	-0.009471	0.841866	-0.290115	-0.291457	-0.026512	37.7922	-0.289589	-3289.64	8.059305E-6	NaN
608	1.000000	0.853209	7.371e+06	-46689.1	1005.82	-29768.4	0.000000	0.000000	6.853089	0.028804	NaN	0.000000	0.001558	0.001745	28.0814	0.076270	0.002102	36.2834	-22.4654	15.7096	-0.017827	0.851808	-0.280115	-0.281516	0.028804	36.2834	-0.280710	-2419.27	-1.190594E-5	NaN
608	1.000000	0.863197	7.371e+06	-46689.1	1005.82	-29768.4	0.000000	0.000000	6.863080	0.082132	NaN	0.000000	0.001554	0.001739	28.0818	0.069628	0.002072	33.6032	-83.5594	-167.682	0.118514	0.861863	-0.270126	-0.271460	0.082132	33.6032	-0.271959	-1783.64	-4.604738E-5	NaN
608	1.000000	0.873217	7.371e+06	-46689.1	1005.82	-29768.4	0.000000	0.000000	6.873096	-0.014587	NaN	0.000000	0.001560	0.001735	28.0816	0.025133	0.001998	12.5776	157.161	13.9072	-0.003644	0.871862	-0.260106	-0.261462	-0.014587	12.5776	-0.259237	-1140.81	1.278656E-5	NaN
608	1.000000	0.883223	7.371e+06	-46689.1	1005.82	-29768.4	0.000000	0.000000	6.883104	0.029700	NaN	0.000000	0.001587	0.001741	28.0816	0.030774	0.001899	16.2091	-89.6419	-165.946	0.013918	0.881878	-0.250100	-0.251445	0.029700	16.2091	-0.251475	-866.478	-3.427721E-5	NaN
608	1.000000	0.893188	7.371e+06	-46689.1	1005.82	-29768.4	0.000000	0.000000	6.893070	0.056551	NaN	0.000000	0.001546	0.001733	28.0815	0.053268	0.001976	26.9547	55.1107	16.4101	0.035390	0.891880	-0.240135	-0.241444	0.056551	26.9547	-0.241709	-611.251	-9.251744E-5	NaN
608	1.000000	0.903226	7.371e+06	-46689.1	1005.82	-29768.4	0.000000	0.000000	6.903107	0.033511	NaN	0.000000	0.001554	0.001712	28.0803	0.072405	0.001929	37.5405	-117.143	-163.47	-0.021030	0.901884	-0.230097	-0.231440	0.033511	37.5405	-0.230767	-411.737	-8.138972E-5	NaN
608	1.000000	0.913242	7.371e+06	-46689.1	1005.82	-29768.4	0.000000	0.000000	6.913125	0.072447	NaN	0.000000	0.001550	0.001709	28.0804	0.075623	0.001972	38.3544	-72.6457	14.4144	-0.040582	0.911893	-0.220081	-0.221431	0.072447	38.3544	-0.221498	-293.492	-0.000247	NaN
608	1.000000	0.923239	7.371e+06	-46689.1	1005.82	-29768.4	0.000000	0.000000	6.923120	0.037699	NaN	0.000000	0.001512	0.001712	28.0805	0.043843	0.002092	20.9553	-112.553	-167.048	-0.019406	0.921957	-0.210085	-0.211367	0.037699	20.9553	-0.211434	-202.311	-0.000186	NaN
608	1.000000	0.933268	7.371e+06	-46689.1	1005.82	-29768.4	0.000000	0.000000	6.933149	0.031251	NaN	0.000000	0.001555	0.001750	28.0805	0.078842	0.002002	39.3908	71.804	16.7996	0.043886	0.931911	-0.200056	-0.201412	0.031251	39.3908	-0.200651	-135.016	-0.000231	NaN
608	1.000000	0.943214	7.371e+06	-46689.1	1005.82	-29768.4	0.000000	0.000000	6.943094	-0.005721	NaN	0.000000	0.001569	0.001740	28.0802	0.104542	0.002008	52.0632	138.36	-167.888	-0.018212	0.941999	-0.190109	-0.191324	-0.005721	52.0632	-0.190027	-90.0493	6.353257E-5	NaN
608	1.000000	0.953274	7.371e+06	-46689.1	1005.82	-29768.4	0.000000	0.000000	6.953154	0.007873	NaN	0.000000	0.001536	0.001722	28.0805	0.061282	0.001977	30.9909	96.2422	13.4639	0.002041	0.951916	-0.180050	-0.181408	0.007873	30.9909	-0.180240	-61.5968	-0.000128	NaN
608	1.000000	0.963240	7.371e+06	-46689.1	1005.82	-29768.4	0.000000	0.000000	6.963120	0.010144	NaN	0.000000	0.001544	0.001751	28.0802	0.052377	0.002136	24.5184	132.292	-165.322	-0.029275	0.961954	-0.170083	-0.171369	0.010144	24.5184	-0.170394	-41.7299	-0.000243	NaN
608	1.000000	0.973208	7.371e+06	-46689.1	1005.82	-29768.4	0.000000	0.000000	6.973089	0.042302	NaN	0.000000	0.001524	0.001775	28.0802	0.067825	0.002059	32.9368	-157.218	14.2547	0.027587	0.971850	-0.160116	-0.161473	0.042302	32.9368	-0.161079	-28.6505	-0.001476	NaN
608	1.000000	0.983270	7.371e+06	-46689.1	1005.82	-29768.4	0.000000	0.000000	6.983150	0.005936	NaN	0.000000	0.001524	0.001707	28.0803	0.013916	0.002027	6.864991	-163.718	-166.461	0.054943	0.981925	-0.150054	-0.151398	0.005936	6.864991	-0.150702	-18.6551	-0.000318	NaN
608	1.000000	0.993242	7.371e+06	-46689.1	1005.82	-29768.4	0.000000	0.000000	6.993123	0.033854	NaN	0.000000	0.001537	0.001708	28.0801	0.048930	0.001954	25.0383	88.3968	16.8172	0.066956	0.991860	-0.140082	-0.141463	0.033854	25.0383	-0.141096	-12.4026	-0.002730	NaN
608	1.000000	1.003218	7.371e+06	-46689.1	1005.82	-29768.4	0.000000	0.000000	7.003098	0.009201	NaN	0.000000	0.001540	0.001730	28.0801	0.050657	0.001936	26.1631	-137.891	-166.646	0.028169	1.001928	-0.130105	-0.131395	0.009201	26.1631	-0.130369	-7.747740	-0.001188	NaN
608	1.000000	1.013237	7.371e+06	-46689.1	1005.82	-29768.4	0.000000	0.000000	7.013118	0.026312	NaN	0.000000	0.001530	0.001714	28.08	0.035266	0.001912	18.4447	104.914	8.917103	-0.058079	1.011899	-0.120086	-0.121425	0.026312	18.4447	-0.121156	-5.097531	-0.005162	NaN
608	1.000000	1.023275	7.371e+06	-46689.1	1005.82	-29768.4	0.000000	0.000000	7.023159	0.088748	NaN	0.000000	0.001542	0.001703	28.0803	0.091827	0.002012	45.6424	-143.56	-168.013	0.073463	1.022019	-0.110048	-0.111304	0.088748	45.6424	-0.111507	-3.232438	-0.027456	NaN
608	1.000000	1.033264	7.371e+06	-46689.1	1005.82	-29768.4	0.000000	0.000000	7.033144	0.003264	NaN	0.000000	0.001544	0.001743	28.08	0.065862	0.002187	30.1161	-64.3287	16.1111	0.040661	1.031938	-0.100059	-0.101385	0.003264	30.1161	-0.100141	-1.840314	-0.001774	NaN
608	1.000000	1.043270	7.371e+06	-46689.1	1005.82	-29768.4	0.000000	0.000000	7.043149	-0.012957	NaN	0.000000	0.001518	0.001747	28.0814	0.045039	0.001958	23.0032	9.138285	-164.206	0.017403	1.041948	-0.090053	-0.091376	-0.012957	23.0032	-0.089631	-1.059621	0.012228	NaN
608	1.000000	1.053264	7.371e+06	-46689.1	1005.82	-29768.4	0.000000	0.000000	7.053147	0.083707	NaN	0.000000	0.001572	0.001743	28.0811	0.081421	0.002001	40.6833	0.556291	11.8499	0.025304	1.051924	-0.080060	-0.081400	0.083707	40.6833	-0.081603	-0.678510	-0.123369	NaN
608	1.000000	1.063275	7.371e+06	-46689.1	1005.82	-29768.4	0.000000	0.000000	7.063157	0.054437	NaN	0.000000	0.001540	0.001702	28.0813	0.055764	0.001969	28.3239	119.655	-167.141	0.106307	1.061991	-0.070049	-0.071333	0.054437	28.3239	-0.071490	-0.373766	-0.145644	NaN
608	1.000000	1.073301	7.371e+06	-46689.1	1005.82	-29768.4	0.000000	0.000000	7.073181	0.019672	NaN	0.000000	0.001554	0.001733	28.0813	0.048999	0.002023	24.2218	72.8558	13.8287	0.053431	1.071905	-0.060023	-0.061419	0.019672	24.2218	-0.060632	-0.187752	-0.104776	NaN
608	1.000000	1.083309	7.371e+06	-46689.1	1005.82	-29768.4	0.000000	0.000000	7.083190	0.038418	NaN	0.000000	0.001514	0.001692	28.0813	0.046093	0.001949	23.646	50.6118	-167.152	0.036213	1.081997	-0.050015	-0.051326	0.038418	23.646	-0.051233	-0.099415	-0.386438	NaN
608	1.000000	1.093273	7.371e+06	-46689.1	1005.82	-29768.4	0.000000	0.000000	7.093154	0.037255	NaN	0.000000	0.001567	0.001709	28.0817	0.108623	0.001911	56.8417	55.2195	17.0681	-0.042156	1.091966	-0.040051	-0.041358	0.037255	56.8417	-0.040542	-0.046971	-0.793148	NaN
608	1.000000	1.103309	7.371e+06	-46689.1	1005.82	-29768.4	0.000000	0.000000	7.103188	-0.010498	NaN	0.000000	0.001554	0.001744	28.0814	0.048262	0.002037	23.6911	-89.7248	-165.16	0.071489	1.101926	-0.030015	-0.031398	-0.010498	23.6911	-0.029682	-0.022549	0.465578	NaN
608	1.000000	1.113302	7.371e+06	-46689.1	1005.82	-29768.4	0.000000	0.000000	7.113182	0.003406	NaN	0.000000	0.001548	0.001699	28.0816	0.024571	0.001932	12.7189	-8.434724	13.6391	-0.017735	1.111967	-0.020021	-0.021357	0.003406	12.7189	-0.020222	-0.012725	-0.267625	NaN
608	1.000000	1.123301	7.371e+06	-46689.1	1005.82	-29768.4	0.000000	0.000000	7.123184	0.081055	NaN	0.000000	0.001547	0.001803	28.0813	0.095627	0.002053	46.5679	161.045	-166.331	0.041540	1.121987	-0.010023	-0.011337	0.081055	46.5679	-0.011328	-0.007145	-11.3438	NaN
608	1.000000	1.133303	7.371e+06	-46689.1	1005.82	-29768.4	0.000000	0.000000	7.133184	0.025379	NaN	0.000000	0.001554	0.001758	28.0817	0.088050	0.002049	42.9799	-105.033	11.1796	0.016996	1.131967	-2.029944E-5	-0.001357	0.025379	42.9799	-0.000463	-0.000343	-73.9791	NaN
608	1.000000	1.143199	7.371e+06	-46689.1	1005.82	-29768.4	0.000000	0.000000	7.143367	7.020256	NaN	0.000000	0.001566	0.001778	28.0814	7.358338	0.001850	3978.22	14.1408	-173.373	5.741044	1.141981	0.009875	0.008658	7.020256	3978.22	0.008552	0.007616	921.798	41648.9
608	2.000000	1.146469	7.371e+06	-46689.1	1005.82	-29768.4	0.000000	0.000000	7.146820	11.4433	NaN	0.000000	0.001544	0.001782	28.0819	10.3608	0.001655	6259.91	10.0287	4.195760	11.0812	1.146022	0.013146	0.012698	11.4433	6259.91	0.011775	0.011221	1019.78	53990.7
608	2.000000	1.148910	7.371e+06	-46689.1	1005.82	-29768.4	0.000000	0.000000	7.149401	14.859	NaN	0.000000	0.001571	0.001780	28.0815	12.9083	0.001734	7446.21	6.876494	-175.425	13.5096	1.148609	0.015587	0.015285	14.859	7446.21	0.014090	0.014091	1054.5	57310.9
608	2.000000	1.151422	7.371e+06	-46689.1	1005.82	-29768.4	0.000000	0.000000	7.152062	18.4901	NaN	0.000000	0.001550	0.001779	28.0812	14.9851	0.001728	8669.99	9.691232	3.613960	18.3995	1.151063	0.018099	0.017740	18.4901	8669.99	0.016499	0.017337	1066.52	60160
608	2.000000	1.153868	7.371e+06	-46689.1	1005.82	-29768.4	0.000000	0.000000	7.154734	24.0009	NaN	0.000000	0.001530	0.001762	28.0802	17.2453	0.001663	10371.8	6.223899	-177.678	22.707	1.153590	0.020544	0.020267	24.0009	10371.8	0.018808	0.020704	1159.22	65855.9
608	2.000000	1.156341	7.371e+06	-46689.1	1005.82	-29768.4	0.000000	0.000000	7.157412	28.9723	NaN	0.000000	0.001511	0.001756	28.0803	19.5458	0.001626	12022.7	2.752835	4.180570	26.5399	1.156047	0.023018	0.022724	28.9723	12022.7	0.021210	0.024480	1183.5	70204.8
608	2.000000	1.158862	7.371e+06	-46689.1	1005.82	-29768.4	0.000000	0.000000	7.160170	34.7454	NaN	0.000000	0.001577	0.001768	28.0805	24.0735	0.001912	12592	11.2407	176.686	33.3661	1.158586	0.025538	0.025262	34.7454	12592	0.023469	0.028289	1228.23	68400.6
608	2.000000	1.161349	7.371e+06	-46689.1	1005.82	-29768.4	0.000000	0.000000	7.162849	39.4168	NaN	0.000000	0.001538	0.001771	28.0802	25.6304	0.001944	13187.7	9.488198	-0.943296	37.0456	1.161048	0.028025	0.027724	39.4168	13187.7	0.025783	0.032456	1214.46	66879.5
608	2.000000	1.163878	7.371e+06	-46689.1	1005.82	-29768.4	0.000000	0.000000	7.165736	48.1057	NaN	0.000000	0.001530	0.001779	28.0801	28.1034	0.001840	15274.4	8.229119	179.196	48.0202	1.163475	0.030555	0.030151	48.1057	15274.4	0.028193	0.037081	1297.32	72470.6
608	2.000000	1.166347	7.371e+06	-46689.1	1005.82	-29768.4	0.000000	0.000000	7.168519	55.7503	NaN	0.000000	0.001532	0.001813	28.0806	31.247	0.001884	16589.1	6.965516	-0.245591	55.1916	1.165944	0.033024	0.032621	55.7503	16589.1	0.030503	0.041793	1333.96	74138.5
608	2.000000	1.168844	7.371e+06	-46689.1	1005.82	-29768.4	0.000000	0.000000	7.171348	63.836	NaN	0.000000	0.001531	0.001809	28.0803	33.5347	0.001839	18232.3	4.682685	-179.522	63.2949	1.168595	0.035520	0.035271	63.836	18232.3	0.032895	0.046957	1359.46	76871.4
608	2.000000	1.171369	7.371e+06	-46689.1	1005.82	-29768.4	0.000000	0.000000	7.174137	70.2593	NaN	0.000000	0.001518	0.001852	28.0808	35.7725	0.001827	19576.1	7.825230	-3.703584	68.6265	1.171029	0.038045	0.037706	70.2593	19576.1	0.035353	0.052572	1336.45	78005.3
608	2.000000	1.173840	7.371e+06	-46689.1	1005.82	-29768.4	0.000000	0.000000	7.177158	83.6365	NaN	0.000000	0.001524	0.001796	28.0801	36.9026	0.001721	21439.1	1.496695	-178.817	81.6582	1.173503	0.040517	0.040180	83.6365	21439.1	0.037591	0.057950	1443.25	81367.8
608	2.000000	1.176348	7.371e+06	-46689.1	1005.82	-29768.4	0.000000	0.000000	7.180048	92.919	NaN	0.000000	0.001565	0.001812	28.0804	39.5268	0.001721	22971.3	5.265026	-2.979304	91.483	1.175985	0.043025	0.042661	92.919	22971.3	0.039991	0.064005	1451.75	82957
608	2.000000	1.178848	7.371e+06	-46689.1	1005.82	-29768.4	0.000000	0.000000	7.182778	98.5192	NaN	0.000000	0.001572	0.001817	28.0801	43.4036	0.001795	24178.3	6.141171	174.55	96.1981	1.178602	0.045524	0.045279	98.5192	24178.3	0.042468	0.070562	1396.2	83159.4
608	2.000000	1.181350	7.371e+06	-46689.1	1005.82	-29768.4	0.000000	0.000000	7.185948	114.767	NaN	0.000000	0.001562	0.001759	28.0803	44.8805	0.001908	23517.2	4.713129	-1.559766	114.121	1.180960	0.048027	0.047636	114.767	23517.2	0.044367	0.075800	1514.09	78041.6
608	2.000000	1.183853	7.371e+06	-46689.1	1005.82	-29768.4	0.000000	0.000000	7.188913	126.008	NaN	0.000000	0.001568	0.001785	28.0801	46.6208	0.001701	27401	3.101221	177.549	126.715	1.183496	0.050530	0.050173	126.008	27401	0.047081	0.083604	1507.19	86581.7
608	2.000000	1.186353	7.371e+06	-46689.1	1005.82	-29768.4	0.000000	0.000000	7.191823	135.983	NaN	0.000000	0.001531	0.001781	28.0817	51.0923	0.001846	27670.9	7.345714	-6.515317	137.783	1.186034	0.053029	0.052710	135.983	27670.9	0.049343	0.090394	1504.34	84086.7
608	2.000000	1.188753	7.371e+06	-46689.1	1005.82	-29768.4	0.000000	0.000000	7.194817	150.423	NaN	0.000000	0.001557	0.001794	28.0815	52.9119	0.001707	30988.9	5.676230	173.912	146.282	1.188452	0.055429	0.055129	150.423	30988.9	0.051789	0.098023	1534.57	90430.7
608	2.000000	1.191297	7.371e+06	-46689.1	1005.82	-29768.4	0.000000	0.000000	7.197962	165.053	NaN	0.000000	0.001560	0.001799	28.0816	54.5032	0.001862	29273.4	4.199098	-3.257394	162.62	1.190941	0.057974	0.057618	165.053	29273.4	0.053745	0.104339	1581.89	82798.5
608	2.000000	1.193834	7.371e+06	-46689.1	1005.82	-29768.4	0.000000	0.000000	7.201011	177.504	NaN	0.000000	0.001536	0.001792	28.0813	57.2272	0.001829	31289.2	5.277964	174.613	179.303	1.193513	0.060511	0.060189	177.504	31289.2	0.056256	0.112727	1574.65	85144.1
608	2.000000	1.196346	7.371e+06	-46689.1	1005.82	-29768.4	0.000000	0.000000	7.204125	192.142	NaN	0.000000	0.001533	0.001800	28.0813	60.1069	0.001693	35505.8	6.517357	-7.994045	190.767	1.195967	0.063023	0.062644	192.142	35505.8	0.058964	0.122120	1573.39	92828
608	2.000000	1.198748	7.371e+06	-46689.1	1005.82	-29768.4	0.000000	0.000000	7.207307	211.112	NaN	0.000000	0.001557	0.001788	28.0813	62.6345	0.001823	34364.2	2.062205	177.18	207.469	1.198413	0.065424	0.065090	211.112	34364.2	0.060817	0.128754	1639.66	87498.2
608	2.000000	1.201373	7.371e+06	-46689.1	1005.82	-29768.4	0.000000	0.000000	7.210369	221.758	NaN	0.000000	0.001550	0.001768	28.0813	64.5814	0.001752	36860.3	3.276492	-4.600050	221.694	1.200985	0.068049	0.067661	221.758	36860.3	0.063537	0.138796	1597.73	90394.9
608	2.000000	1.203767	7.371e+06	-46689.1	1005.82	-29768.4	0.000000	0.000000	7.213488	239.396	NaN	0.000000	0.001544	0.001794	28.0815	66.9865	0.001758	38107.2	6.944176	170.845	236.782	1.203576	0.070443	0.070252	239.396	38107.2	0.065731	0.147159	1626.79	90758.4
608	2.000000	1.206264	7.371e+06	-46689.1	1005.82	-29768.4	0.000000	0.000000	7.216541	252.91	NaN	0.000000	0.001534	0.001779	28.0813	68.5231	0.001778	38546.5	3.253591	-5.256943	249.359	1.205967	0.072941	0.072643	252.91	38546.5	0.068020	0.156126	1619.91	89129.4
608	2.000000	1.208746	7.371e+06	-46689.1	1005.82	-29768.4	0.000000	0.000000	7.219692	269.188	NaN	0.000000	0.001574	0.001768	28.0813	71.0498	0.001731	41046.2	2.611720	174.753	266.296	1.208491	0.075422	0.075168	269.188	41046.2	0.070504	0.166143	1620.22	92003.6
608	2.000000	1.211295	7.371e+06	-46689.1	1005.82	-29768.4	0.000000	0.000000	7.223174	291.865	NaN	0.000000	0.001588	0.001794	28.0813	72.8154	0.001797	40511.6	4.382210	-6.595534	288.209	1.210935	0.077972	0.077612	291.865	40511.6	0.072568	0.174692	1670.74	88555.6
608	2.000000	1.213821	7.371e+06	-46689.1	1005.82	-29768.4	0.000000	0.000000	7.226252	305.3	NaN	0.000000	0.001569	0.001764	28.0816	76.0552	0.001812	41979	9.415601	168.243	305.607	1.213366	0.080497	0.080042	305.3	41979	0.075043	0.185205	1648.45	89121
608	2.000000	1.216262	7.371e+06	-46689.1	1005.82	-29768.4	0.000000	0.000000	7.229510	325.181	NaN	0.000000	0.001569	0.001805	28.0811	77.0961	0.001771	43541.8	2.970857	-5.757931	321.698	1.215913	0.082939	0.082590	325.181	43541.8	0.077338	0.195210	1665.8	90038.6
608	2.000000	1.218819	7.371e+06	-46689.1	1005.82	-29768.4	0.000000	0.000000	7.232294	330.684	NaN	0.000000	0.001574	0.001791	28.0812	80.0906	0.001791	44730.2	2.797511	173.556	330.127	1.218643	0.085496	0.085320	330.684	44730.2	0.079951	0.206906	1598.23	89843.6
608	2.000000	1.221255	7.371e+06	-46689.1	1005.82	-29768.4	0.000000	0.000000	7.236058	362.981	NaN	0.000000	0.001549	0.001796	28.08	80.2721	0.001553	51701.1	1.139945	-5.207724	357.584	1.220877	0.087932	0.087553	362.981	51701.1	0.082666	0.219395	1654.46	100846
608	2.000000	1.223734	7.371e+06	-46689.1	1005.82	-29768.4	0.000000	0.000000	7.239306	381.709	NaN	0.000000	0.001593	0.001807	28.0802	83.6937	0.001660	50424.1	5.608300	170.446	380.41	1.223412	0.090410	0.090088	381.709	50424.1	0.084733	0.229129	1665.92	96243.5
608	2.000000	1.226220	7.371e+06	-46689.1	1005.82	-29768.4	0.000000	0.000000	7.242741	404.804	NaN	0.000000	0.001621	0.001796	28.0801	86.548	0.001766	49018.8	4.319984	-7.676149	398.051	1.225856	0.092896	0.092532	404.804	49018.8	0.086702	0.238590	1696.65	91687.5
608	2.000000	1.228781	7.371e+06	-46689.1	1005.82	-29768.4	0.000000	0.000000	7.245875	418.738	NaN	0.000000	0.001589	0.001823	28.0801	90.7947	0.001720	52799.7	8.961929	166.433	417.5	1.228578	0.095457	0.095254	418.738	52799.7	0.089509	0.252380	1659.15	96023.4
608	2.000000	1.231339	7.371e+06	-46689.1	1005.82	-29768.4	0.000000	0.000000	7.249583	446.686	NaN	0.000000	0.001522	0.001835	28.0805	91.9122	0.001768	51980.6	5.883126	-9.322292	446.989	1.230836	0.098016	0.097513	446.686	51980.6	0.091571	0.262741	1700.1	92651.1
608	2.000000	1.233774	7.371e+06	-46689.1	1005.82	-29768.4	0.000000	0.000000	7.252671	462.589	NaN	0.000000	0.001573	0.001825	28.08	93.256	0.001770	52683.5	0.439400	175.326	461.229	1.233576	0.100451	0.100252	462.589	52683.5	0.093865	0.274500	1685.2	91870.5
608	2.000000	1.236337	7.371e+06	-46689.1	1005.82	-29768.4	0.000000	0.000000	7.256303	488.585	NaN	0.000000	0.001556	0.001819	28.0802	97.4434	0.001847	52758.8	4.203491	-7.669951	491.014	1.235857	0.103014	0.102533	488.585	52758.8	0.096068	0.286016	1708.25	90130.8
608	2.000000	1.238753	7.371e+06	-46689.1	1005.82	-29768.4	0.000000	0.000000	7.259547	508.733	NaN	0.000000	0.001558	0.001812	28.0802	98.2496	0.001767	55611.7	-0.240069	175.696	508.091	1.238574	0.105430	0.105250	508.733	55611.7	0.098569	0.299356	1699.43	92863.6
608	2.000000	1.241375	7.37101e+06	-46689.1	1005.82	-29768.4	0.000000	0.000000	7.262713	521.976	NaN	0.000000	0.001540	0.001807	28.0802	100.981	0.001820	55478.1	2.533829	-6.776436	525.761	1.241153	0.108051	0.107829	521.976	55478.1	0.100995	0.312569	1669.95	90661.2
608	2.000000	1.242655	7.37101e+06	-46689.1	1005.82	-29768.4	0.000000	0.000000	7.265125	549.503	NaN	0.000000	0.001580	0.001804	28.0802	102.814	0.001862	55222.5	3.359642	172.53	543.334	1.242346	0.109332	0.109023	549.503	55222.5	0.101869	0.317395	1731.29	89554.9