File: remote_trans/data/nanoindenter/0828-1/data/Data_2025-08-06,11h17m57s/2025-07-22_16-23-58_1_670.txt
2025-07-22, 16:23:58, 1
Index	Phase	Displacement	Time	Pos X	Pos Y	Pos Z	Rot A	Rot B	Piezo Z	Force A	Force B	Gripper	Voltage A	Voltage B	Temperature	Amplitude force	Amplitude pos	Stiffness	Phase shift	Phase excitation	Force A raw	Displacement raw	HMax	HMax raw	Real Force	Real Stiffness	Contact Depth	Area	Hardness	Reduced Mod.
[#]	[#]	[um]	[s]	[um]	[um]	[um]	[m°]	[m°]	[um]	[uN]	[uN]	[V]	[V]	[V]	[°C]	[uN]	[um]	[N/m]	[°]	[°]	[uN]	[um]	[um]	[um]	[uN]	[N/m]	[um]	[um^2]	[MPa]	[MPa]
670	1.000000	0.002707	7.3716e+06	-43589.1	1005.82	-29778.5	0.000000	0.000000	6.002798	-0.012862	NaN	0.000000	0.001695	0.001735	28.0835	0.038600	0.000854	45.2128	-136.258	-167.871	-0.006801	0.001482	-1.145380	-1.146605	-0.012862	45.2128	-1.145166	-2.023075E+15	6.357871E-18	NaN
670	1.000000	0.012762	7.3716e+06	-43589.1	1005.82	-29778.5	0.000000	0.000000	6.012852	-0.033059	NaN	0.000000	0.001685	0.001756	28.083	0.089261	0.001310	68.1246	9.423815	15.7377	-0.065113	0.011392	-1.135324	-1.136694	-0.033059	68.1246	-1.134960	-1.476225E+15	2.239430E-17	NaN
670	1.000000	0.022667	7.3716e+06	-43589.1	1005.82	-29778.5	0.000000	0.000000	6.022758	-0.013281	NaN	0.000000	0.001712	0.001802	28.0831	0.109550	0.001832	59.8009	165.424	-169.141	-0.039343	0.021363	-1.125420	-1.126724	-0.013281	59.8009	-1.125253	-1.093820E+15	1.214215E-17	NaN
670	1.000000	0.032653	7.3716e+06	-43589.1	1005.82	-29778.5	0.000000	0.000000	6.032745	0.012070	NaN	0.000000	0.001643	0.001789	28.0828	0.064430	0.001895	34.0056	140.002	14.583	0.019563	0.031294	-1.115434	-1.116792	0.012070	34.0056	-1.115700	-8.142798E+14	-1.482256E-17	NaN
670	1.000000	0.042645	7.3716e+06	-43589.1	1005.82	-29778.5	0.000000	0.000000	6.042736	-0.022512	NaN	0.000000	0.001662	0.001768	28.083	0.059374	0.002005	29.6195	-79.1973	-166.472	-0.030772	0.041343	-1.105441	-1.106744	-0.022512	29.6195	-1.104871	-5.827119E+14	3.863313E-17	NaN
670	1.000000	0.052616	7.3716e+06	-43589.1	1005.82	-29778.5	0.000000	0.000000	6.052704	-0.086719	NaN	0.000000	0.001660	0.001766	28.0816	0.043930	0.001992	22.0571	-157.037	14.0827	-0.077269	0.051304	-1.095471	-1.096783	-0.086719	22.0571	-1.092522	-3.978106E+14	2.179912E-16	NaN
670	1.000000	0.062685	7.3716e+06	-43589.1	1005.82	-29778.5	0.000000	0.000000	6.062774	-0.065887	NaN	0.000000	0.001617	0.001778	28.0815	0.097520	0.002002	48.6992	40.7585	-167.489	-0.172896	0.061383	-1.085402	-1.086703	-0.065887	48.6992	-1.084387	-3.093429E+14	2.129890E-16	NaN
670	1.000000	0.072643	7.3716e+06	-43589.1	1005.82	-29778.5	0.000000	0.000000	6.072736	0.023982	NaN	0.000000	0.001645	0.001758	28.0817	0.044538	0.002083	21.3784	70.0337	16.5608	0.085234	0.071292	-1.075443	-1.076795	0.023982	21.3784	-1.076285	-2.407787E+14	-9.960272E-17	NaN
670	1.000000	0.082635	7.3716e+06	-43589.1	1005.82	-29778.5	0.000000	0.000000	6.082724	-0.051380	NaN	0.000000	0.001657	0.001748	28.0814	0.055872	0.002000	27.9354	135.15	-166.696	-0.054302	0.081373	-1.065452	-1.066714	-0.051380	27.9354	-1.064072	-1.650235E+14	3.113478E-16	NaN
670	1.000000	0.092637	7.3716e+06	-43589.1	1005.82	-29778.5	0.000000	0.000000	6.092730	0.044232	NaN	0.000000	0.001648	0.001759	28.0814	0.058513	0.002015	29.0438	-142.851	12.9681	0.015753	0.091299	-1.055450	-1.056788	0.044232	29.0438	-1.056592	-1.309232E+14	-3.378488E-16	NaN
670	1.000000	0.102668	7.3716e+06	-43589.1	1005.82	-29778.5	0.000000	0.000000	6.102758	-0.029126	NaN	0.000000	0.001654	0.001759	28.0825	0.011546	0.001854	6.227604	-116.233	-167.089	-0.047277	0.101363	-1.045418	-1.046723	-0.029126	6.227604	-1.041911	-8.311149E+13	3.504399E-16	NaN
670	1.000000	0.112645	7.3716e+06	-43589.1	1005.82	-29778.5	0.000000	0.000000	6.112737	0.009827	NaN	0.000000	0.001636	0.001713	28.0817	0.051260	0.002040	25.1213	-122.243	12.7087	-0.016692	0.111364	-1.035442	-1.036723	0.009827	25.1213	-1.035735	-6.864643E+13	-1.431547E-16	NaN
670	1.000000	0.122707	7.3716e+06	-43589.1	1005.82	-29778.5	0.000000	0.000000	6.122798	-0.024722	NaN	0.000000	0.001662	0.001721	28.0814	0.032083	0.002039	15.7355	66.8424	-167.722	-0.047984	0.121379	-1.025380	-1.026707	-0.024722	15.7355	-1.024201	-4.802586E+13	5.147717E-16	NaN
670	1.000000	0.132700	7.3716e+06	-43589.1	1005.82	-29778.5	0.000000	0.000000	6.132791	-0.011366	NaN	0.000000	0.001645	0.001752	28.0815	0.043702	0.002126	20.5521	169.906	14.8514	0.019504	0.131352	-1.015386	-1.016734	-0.011366	20.5521	-1.014972	-3.608208E+13	3.149943E-16	NaN
670	1.000000	0.142689	7.3716e+06	-43589.1	1005.82	-29778.5	0.000000	0.000000	6.142781	0.022141	NaN	0.000000	0.001645	0.001752	28.0818	0.045528	0.002108	21.5971	-166.514	-167.584	0.056073	0.141410	-1.005398	-1.006676	0.022141	21.5971	-1.006167	-2.746528E+13	-8.061496E-16	NaN
670	1.000000	0.152677	7.3716e+06	-43589.1	1005.82	-29778.5	0.000000	0.000000	6.152767	-0.051043	NaN	0.000000	0.001634	0.001746	28.0815	0.052303	0.002061	25.3789	101.635	15.8655	-0.020598	0.151336	-0.995409	-0.996750	-0.051043	25.3789	-0.993901	-1.877775E+13	2.718256E-15	NaN
670	1.000000	0.162651	7.3716e+06	-43589.1	1005.82	-29778.5	0.000000	0.000000	6.162741	-0.035659	NaN	0.000000	0.001638	0.001728	28.0816	0.068737	0.002064	33.3096	147.728	-164.867	0.044810	0.161310	-0.985436	-0.986777	-0.035659	33.3096	-0.984633	-1.408714E+13	2.531324E-15	NaN
670	1.000000	0.172683	7.3716e+06	-43589.1	1005.82	-29778.5	0.000000	0.000000	6.172773	-0.044833	NaN	0.000000	0.001622	0.001714	28.0815	0.055046	0.002030	27.1133	-123.9	11.8519	-0.091648	0.171363	-0.975404	-0.976723	-0.044833	27.1133	-0.974164	-1.018054E+13	4.403773E-15	NaN
670	1.000000	0.182706	7.3716e+06	-43589.1	1005.82	-29778.5	0.000000	0.000000	6.182795	-0.055529	NaN	0.000000	0.001636	0.001748	28.082	0.087908	0.001986	44.2693	-177.263	-168.785	-0.065136	0.181347	-0.965381	-0.966740	-0.055529	44.2693	-0.964440	-7.528725E+12	7.375578E-15	NaN
670	1.000000	0.192710	7.3716e+06	-43589.1	1005.82	-29778.5	0.000000	0.000000	6.192801	-0.017342	NaN	0.000000	0.001651	0.001724	28.0829	0.037086	0.001997	18.5668	116.029	14.7584	0.018287	0.191334	-0.955376	-0.956753	-0.017342	18.5668	-0.954676	-5.560127E+12	3.119061E-15	NaN
670	1.000000	0.202734	7.3716e+06	-43589.1	1005.82	-29778.5	0.000000	0.000000	6.202826	0.002779	NaN	0.000000	0.001607	0.001745	28.0828	0.048548	0.001904	25.4974	88.0668	-165.321	0.095640	0.201342	-0.945353	-0.946745	0.002779	25.4974	-0.945434	-4.172997E+12	-6.658578E-16	NaN
670	1.000000	0.212728	7.3716e+06	-43589.1	1005.82	-29778.5	0.000000	0.000000	6.212818	-0.041177	NaN	0.000000	0.001588	0.001727	28.0827	0.065117	0.001878	34.6803	-87.1265	13.7848	-0.012653	0.211334	-0.935359	-0.936752	-0.041177	34.6803	-0.934468	-2.968245E+12	1.387262E-14	NaN
670	1.000000	0.222706	7.3716e+06	-43589.1	1005.82	-29778.5	0.000000	0.000000	6.222799	0.041531	NaN	0.000000	0.001633	0.001776	28.083	0.054839	0.001915	28.6392	-3.462208	-164.717	0.089683	0.221458	-0.925381	-0.926628	0.041531	28.6392	-0.926469	-2.314897E+12	-1.794067E-14	NaN
670	1.000000	0.232703	7.3716e+06	-43589.1	1005.82	-29778.5	0.000000	0.000000	6.232796	0.018341	NaN	0.000000	0.001658	0.001752	28.0827	0.073663	0.001905	38.6648	-47.4791	13.5651	0.011123	0.231375	-0.915383	-0.916712	0.018341	38.6648	-0.915739	-1.658330E+12	-1.105967E-14	NaN
670	1.000000	0.242722	7.3716e+06	-43589.1	1005.82	-29778.5	0.000000	0.000000	6.242813	-0.027198	NaN	0.000000	0.001659	0.001694	28.0829	0.042168	0.002121	19.8828	-91.2324	-164.318	-0.050588	0.241432	-0.905364	-0.906655	-0.027198	19.8828	-0.904338	-1.163278E+12	2.338087E-14	NaN
670	1.000000	0.252743	7.3716e+06	-43589.1	1005.82	-29778.5	0.000000	0.000000	6.252836	0.020792	NaN	0.000000	0.001677	0.001748	28.0827	0.037694	0.001959	19.2378	-95.314	14.7515	-0.064167	0.251414	-0.895343	-0.896672	0.020792	19.2378	-0.896154	-9.017631E+11	-2.305708E-14	NaN
670	1.000000	0.262772	7.37161e+06	-43589.1	1005.82	-29778.5	0.000000	0.000000	6.262864	0.011918	NaN	0.000000	0.001679	0.001736	28.0831	0.071403	0.001930	36.9972	-54.6122	-165.478	-0.022671	0.261429	-0.885315	-0.886657	0.011918	36.9972	-0.885557	-6.484003E+11	-1.838081E-14	NaN
670	1.000000	0.272709	7.37161e+06	-43589.1	1005.82	-29778.5	0.000000	0.000000	6.272803	0.047713	NaN	0.000000	0.001687	0.001739	28.0826	0.040186	0.002000	20.0955	-110.32	16.6513	0.048332	0.271360	-0.875377	-0.876726	0.047713	20.0955	-0.877158	-4.991965E+11	-9.557862E-14	NaN
670	1.000000	0.282728	7.37161e+06	-43589.1	1005.82	-29778.5	0.000000	0.000000	6.282819	-0.008574	NaN	0.000000	0.001701	0.001757	28.0828	0.028684	0.001924	14.9073	-118.012	-167.313	-0.034628	0.281447	-0.865358	-0.866639	-0.008574	14.9073	-0.864927	-3.410380E+11	2.514104E-14	NaN
670	1.000000	0.292761	7.37161e+06	-43589.1	1005.82	-29778.5	0.000000	0.000000	6.292854	0.036755	NaN	0.000000	0.001669	0.001736	28.0827	0.058424	0.002032	28.7493	-137.69	11.2308	-0.059030	0.291423	-0.855326	-0.856663	0.036755	28.7493	-0.856285	-2.605134E+11	-1.410860E-13	NaN
670	1.000000	0.302763	7.37161e+06	-43589.1	1005.82	-29778.5	0.000000	0.000000	6.302851	-0.070842	NaN	0.000000	0.001668	0.001780	28.083	0.012499	0.002099	5.953993	-131.96	-164.282	-0.040523	0.301454	-0.845324	-0.846632	-0.070842	5.953993	-0.836400	-1.401262E+11	5.055589E-13	NaN
670	1.000000	0.312758	7.37161e+06	-43589.1	1005.82	-29778.5	0.000000	0.000000	6.312849	-0.007133	NaN	0.000000	0.001661	0.001822	28.083	0.062647	0.002068	30.2997	112.062	13.8942	-0.012080	0.311420	-0.835329	-0.836666	-0.007133	30.2997	-0.835152	-1.347759E+11	5.292244E-14	NaN
670	1.000000	0.322750	7.37161e+06	-43589.1	1005.82	-29778.5	0.000000	0.000000	6.322839	-0.058953	NaN	0.000000	0.001714	0.001779	28.082	0.041667	0.001966	21.1957	28.8827	-169.668	-0.035817	0.321500	-0.825336	-0.826587	-0.058953	21.1957	-0.823250	-9.295747E+10	6.341894E-13	NaN
670	1.000000	0.332792	7.37161e+06	-43589.1	1005.82	-29778.5	0.000000	0.000000	6.332883	-0.027192	NaN	0.000000	0.001716	0.001818	28.0818	0.090984	0.002033	44.7441	-73.1753	10.9645	-0.082416	0.331406	-0.815294	-0.816681	-0.027192	44.7441	-0.814839	-7.148427E+10	3.803965E-13	NaN
670	1.000000	0.342813	7.37161e+06	-43589.1	1005.82	-29778.5	0.000000	0.000000	6.342905	0.019288	NaN	0.000000	0.001703	0.001820	28.0819	0.045936	0.002032	22.6043	94.6022	-164.625	0.051914	0.341440	-0.805274	-0.806647	0.019288	22.6043	-0.805914	-5.409137E+10	-3.565812E-13	NaN
670	1.000000	0.352766	7.37161e+06	-43589.1	1005.82	-29778.5	0.000000	0.000000	6.352856	-0.023670	NaN	0.000000	0.001700	0.001805	28.0816	0.092025	0.002078	44.2957	-138.991	11.8817	0.031328	0.351396	-0.795321	-0.796691	-0.023670	44.2957	-0.794920	-3.836172E+10	6.170265E-13	NaN
670	1.000000	0.362795	7.37161e+06	-43589.1	1005.82	-29778.5	0.000000	0.000000	6.362886	-0.016963	NaN	0.000000	0.001741	0.001808	28.0818	0.018631	0.001951	9.547992	-92.2085	-165.559	0.062358	0.361494	-0.785291	-0.786593	-0.016963	9.547992	-0.783959	-2.722813E+10	6.230090E-13	NaN
670	1.000000	0.372795	7.37161e+06	-43589.1	1005.82	-29778.5	0.000000	0.000000	6.372888	0.012856	NaN	0.000000	0.001702	0.001819	28.0818	0.072662	0.002055	35.3644	5.426779	13.9294	-0.060995	0.371422	-0.775291	-0.776665	0.012856	35.3644	-0.775564	-2.093828E+10	-6.139870E-13	NaN
670	1.000000	0.382779	7.37161e+06	-43589.1	1005.82	-29778.5	0.000000	0.000000	6.382871	-0.010365	NaN	0.000000	0.001714	0.001805	28.0819	0.061852	0.001968	31.4274	124.895	-169.024	-0.069001	0.381494	-0.765307	-0.766593	-0.010365	31.4274	-0.765060	-1.507040E+10	6.877880E-13	NaN
670	1.000000	0.392799	7.37161e+06	-43589.1	1005.82	-29778.5	0.000000	0.000000	6.392888	-0.053934	NaN	0.000000	0.001673	0.001838	28.0815	0.078923	0.002034	38.8095	148.224	14.8247	-0.017581	0.391468	-0.755287	-0.756618	-0.053934	38.8095	-0.754245	-1.073988E+10	5.021867E-12	NaN
670	1.000000	0.402762	7.37161e+06	-43589.1	1005.82	-29778.5	0.000000	0.000000	6.402852	-0.017826	NaN	0.000000	0.001707	0.001795	28.082	0.085743	0.001989	43.1042	-77.866	-167.629	-0.045917	0.401501	-0.745325	-0.746586	-0.017826	43.1042	-0.745015	-8.041730E+9	2.216666E-12	NaN
670	1.000000	0.412805	7.37161e+06	-43589.1	1005.82	-29778.5	0.000000	0.000000	6.412896	-0.009591	NaN	0.000000	0.001693	0.001821	28.0815	0.063431	0.002006	31.6228	170.822	15.8045	-0.098458	0.411403	-0.735281	-0.736683	-0.009591	31.6228	-0.735054	-5.884046E+9	1.629979E-12	NaN
670	1.000000	0.422792	7.37161e+06	-43589.1	1005.82	-29778.5	0.000000	0.000000	6.422882	-0.031829	NaN	0.000000	0.001659	0.001823	28.0817	0.036439	0.002033	17.9235	-65.244	-166.471	-0.022884	0.421527	-0.725294	-0.726560	-0.031829	17.9235	-0.723963	-4.154395E+9	7.661439E-12	NaN
670	1.000000	0.432770	7.37161e+06	-43589.1	1005.82	-29778.5	0.000000	0.000000	6.432862	-0.013112	NaN	0.000000	0.001663	0.001848	28.0817	0.024583	0.001955	12.5739	-105.967	10.3361	-0.032148	0.431445	-0.715316	-0.716641	-0.013112	12.5739	-0.714534	-3.089685E+9	4.243917E-12	NaN
670	1.000000	0.442822	7.37161e+06	-43589.1	1005.82	-29778.5	0.000000	0.000000	6.442914	0.006619	NaN	0.000000	0.001702	0.001794	28.0819	0.052669	0.002104	25.0387	-77.9696	-164.589	0.046390	0.441540	-0.705265	-0.706547	0.006619	25.0387	-0.705463	-2.323384E+9	-2.848872E-12	NaN
670	1.000000	0.452836	7.37161e+06	-43589.1	1005.82	-29778.5	0.000000	0.000000	6.452926	-0.042780	NaN	0.000000	0.001684	0.001766	28.0819	0.054369	0.002061	26.3781	134.071	10.3947	-0.035699	0.451449	-0.695250	-0.696638	-0.042780	26.3781	-0.694034	-1.621963E+9	2.637534E-11	NaN
670	1.000000	0.462811	7.37161e+06	-43589.1	1005.82	-29778.5	0.000000	0.000000	6.462906	0.075090	NaN	0.000000	0.001653	0.001775	28.0831	0.028531	0.001890	15.0936	-117.702	-168.481	0.092318	0.461530	-0.685276	-0.686556	0.075090	15.0936	-0.689007	-1.384663E+9	-5.422950E-11	NaN
670	1.000000	0.472829	7.37161e+06	-43589.1	1005.82	-29778.5	0.000000	0.000000	6.472920	-0.003324	NaN	0.000000	0.001676	0.001767	28.0832	0.103951	0.002014	51.6037	103.086	11.6055	-0.003488	0.471488	-0.675258	-0.676599	-0.003324	51.6037	-0.675210	-8.967669E+8	3.706830E-12	NaN
670	1.000000	0.482854	7.37161e+06	-43589.1	1005.82	-29778.5	0.000000	0.000000	6.482946	0.012029	NaN	0.000000	0.001665	0.001769	28.0831	0.024089	0.002053	11.7363	-116.59	-169.394	-0.041788	0.481538	-0.665233	-0.666549	0.012029	11.7363	-0.666001	-6.708944E+8	-1.793032E-11	NaN
670	1.000000	0.492847	7.37161e+06	-43589.1	1005.82	-29778.5	0.000000	0.000000	6.492937	-0.016697	NaN	0.000000	0.001665	0.001724	28.0831	0.117598	0.002022	58.1579	-81.4999	10.9873	0.103112	0.491495	-0.655240	-0.656591	-0.016697	58.1579	-0.655025	-4.745748E+8	3.518303E-11	NaN
670	1.000000	0.502851	7.37161e+06	-43589.1	1005.82	-29778.5	0.000000	0.000000	6.502941	-0.030421	NaN	0.000000	0.001674	0.001746	28.0828	0.164780	0.002070	79.6047	-179.319	-166.116	-0.008582	0.501564	-0.645236	-0.646522	-0.030421	79.6047	-0.644949	-3.452882E+8	8.810440E-11	NaN
670	1.000000	0.512850	7.37161e+06	-43589.1	1005.82	-29778.5	0.000000	0.000000	6.512941	-0.020209	NaN	0.000000	0.001635	0.001741	28.0835	0.049710	0.001921	25.8712	142.462	12.9496	0.006736	0.511475	-0.635236	-0.636611	-0.020209	25.8712	-0.634651	-2.493878E+8	8.103315E-11	NaN
670	1.000000	0.522882	7.37161e+06	-43589.1	1005.82	-29778.5	0.000000	0.000000	6.522975	0.031539	NaN	0.000000	0.001676	0.001764	28.0829	0.041027	0.001912	21.4521	85.0929	-164.829	0.020223	0.521602	-0.625205	-0.626484	0.031539	21.4521	-0.626307	-1.915591E+8	-1.646425E-10	NaN
670	1.000000	0.532851	7.37161e+06	-43589.1	1005.82	-29778.5	0.000000	0.000000	6.532943	0.007559	NaN	0.000000	0.001666	0.001742	28.0831	0.064258	0.002015	31.8832	79.7613	15.8631	0.030854	0.531489	-0.615235	-0.616597	0.007559	31.8832	-0.615413	-1.356966E+8	-5.570557E-11	NaN
670	1.000000	0.542875	7.37161e+06	-43589.1	1005.82	-29778.5	0.000000	0.000000	6.542964	-0.063381	NaN	0.000000	0.001664	0.001770	28.0829	0.075022	0.002093	35.8424	-11.619	-166.879	-0.070774	0.541569	-0.605212	-0.606518	-0.063381	35.8424	-0.603885	-9.418059E+7	6.729696E-10	NaN
670	1.000000	0.552880	7.37161e+06	-43589.1	1005.82	-29778.5	0.000000	0.000000	6.552972	0.016666	NaN	0.000000	0.001702	0.001787	28.083	0.142590	0.001957	72.8718	-173.444	17.5465	-0.025423	0.551527	-0.595206	-0.596560	0.016666	72.8718	-0.595378	-7.190985E+7	-2.317686E-10	NaN
670	1.000000	0.562877	7.37161e+06	-43589.1	1005.82	-29778.5	0.000000	0.000000	6.562970	0.025540	NaN	0.000000	0.001697	0.001758	28.0827	0.011432	0.001876	6.094079	-119.846	-165.044	0.032512	0.561571	-0.585209	-0.586515	0.025540	6.094079	-0.588353	-5.753764E+7	-4.438895E-10	NaN
670	1.000000	0.572865	7.37161e+06	-43589.1	1005.82	-29778.5	0.000000	0.000000	6.572956	-0.010462	NaN	0.000000	0.001680	0.001738	28.0829	0.096388	0.001924	50.1098	-147.996	14.5518	0.003044	0.571518	-0.575221	-0.576568	-0.010462	50.1098	-0.575065	-3.772176E+7	2.773461E-10	NaN
670	1.000000	0.582883	7.37161e+06	-43589.1	1005.82	-29778.5	0.000000	0.000000	6.582973	-0.029103	NaN	0.000000	0.001695	0.001742	28.0829	0.065562	0.001920	34.1421	-177.124	-165.885	-0.026547	0.581575	-0.565204	-0.566512	-0.029103	34.1421	-0.564564	-2.700862E+7	1.077536E-9	NaN
670	1.000000	0.592887	7.37161e+06	-43589.1	1005.82	-29778.5	0.000000	0.000000	6.592976	-0.050509	NaN	0.000000	0.001688	0.001729	28.0828	0.008163	0.001893	4.311351	-167.526	16.8432	-0.098671	0.591481	-0.555200	-0.556605	-0.050509	4.311351	-0.546413	-1.514488E+7	3.335030E-9	NaN
670	1.000000	0.602887	7.37161e+06	-43589.1	1005.82	-29778.5	0.000000	0.000000	6.602978	-0.018639	NaN	0.000000	0.001706	0.001760	28.0817	0.035773	0.002003	17.8636	48.8097	-164.775	-0.025826	0.601547	-0.545199	-0.546540	-0.018639	17.8636	-0.544417	-1.420994E+7	1.311679E-9	NaN
670	1.000000	0.612875	7.37161e+06	-43589.1	1005.82	-29778.5	0.000000	0.000000	6.612968	0.038937	NaN	0.000000	0.001682	0.001768	28.0817	0.121835	0.002150	56.6731	166.93	14.3607	0.018264	0.611511	-0.535212	-0.536576	0.038937	56.6731	-0.535727	-1.076670E+7	-3.616430E-9	NaN
670	1.000000	0.622894	7.37161e+06	-43589.1	1005.82	-29778.5	0.000000	0.000000	6.622986	0.007203	NaN	0.000000	0.001707	0.001760	28.0816	0.074168	0.002044	36.2912	-173.502	-165.372	-0.026101	0.621619	-0.525192	-0.526467	0.007203	36.2912	-0.525341	-7.72415e+06	-9.325530E-10	NaN
670	1.000000	0.632881	7.37161e+06	-43589.1	1005.82	-29778.5	0.000000	0.000000	6.632972	-0.013677	NaN	0.000000	0.001669	0.001754	28.0815	0.079796	0.001935	41.2372	138.333	13.408	0.006093	0.631554	-0.515206	-0.516532	-0.013677	41.2372	-0.514957	-5.53906e+06	2.469134E-9	NaN
670	1.000000	0.642911	7.37161e+06	-43589.1	1005.82	-29778.5	0.000000	0.000000	6.643003	0.001438	NaN	0.000000	0.001737	0.001754	28.0815	0.025922	0.002025	12.8024	-91.3075	-168.187	-0.025120	0.641569	-0.505176	-0.506517	0.001438	12.8024	-0.505260	-4.05851e+06	-3.543372E-10	NaN
670	1.000000	0.652913	7.37161e+06	-43589.1	1005.82	-29778.5	0.000000	0.000000	6.653005	0.005929	NaN	0.000000	0.001702	0.001723	28.0819	0.046279	0.002068	22.3818	-16.4511	13.6812	0.028937	0.651532	-0.495173	-0.496554	0.005929	22.3818	-0.495372	-2.95411e+06	-2.007157E-9	NaN
670	1.000000	0.662919	7.37161e+06	-43589.1	1005.82	-29778.5	0.000000	0.000000	6.663008	-0.043726	NaN	0.000000	0.001687	0.001739	28.0816	0.119354	0.002034	58.6797	31.9838	-166.037	-0.016744	0.661643	-0.485168	-0.486444	-0.043726	58.6797	-0.484609	-2.0894e+06	2.092753E-8	NaN
670	1.000000	0.672940	7.37161e+06	-43589.1	1005.82	-29778.5	0.000000	0.000000	6.673032	-0.000462	NaN	0.000000	0.001700	0.001768	28.0816	0.101444	0.001926	52.6768	-127.024	14.9678	-0.004798	0.671597	-0.475146	-0.476489	-0.000462	52.6768	-0.475140	-1.53977e+06	3.001758E-10	NaN
670	1.000000	0.682917	7.37161e+06	-43589.1	1005.82	-29778.5	0.000000	0.000000	6.683006	-0.056445	NaN	0.000000	0.001683	0.001773	28.0818	0.082036	0.001890	43.4071	128.359	-165.205	-0.025764	0.681587	-0.465169	-0.466499	-0.056445	43.4071	-0.464194	-1.08127e+06	5.220212E-8	NaN
670	1.000000	0.692920	7.37161e+06	-43589.1	1005.82	-29778.5	0.000000	0.000000	6.693011	-0.012187	NaN	0.000000	0.001582	0.001761	28.0821	0.037485	0.002040	18.3725	168.532	12.5183	-0.043120	0.691492	-0.455166	-0.456594	-0.012187	18.3725	-0.454669	-794436	1.534062E-8	NaN
670	1.000000	0.702941	7.37161e+06	-43589.1	1005.82	-29778.5	0.000000	0.000000	6.703033	0.006229	NaN	0.000000	0.001627	0.001750	28.0818	0.062147	0.002008	30.9518	-138.498	-170.361	-0.027568	0.701603	-0.445145	-0.446484	0.006229	30.9518	-0.445296	-586225	-1.062511E-8	NaN
670	1.000000	0.712935	7.37161e+06	-43589.1	1005.82	-29778.5	0.000000	0.000000	6.713026	-0.009306	NaN	0.000000	0.001614	0.001788	28.0816	0.015530	0.001854	8.377113	-102.954	11.4474	-0.016166	0.711586	-0.435152	-0.436500	-0.009306	8.377113	-0.434319	-410321	2.267938E-8	NaN
670	1.000000	0.722907	7.37161e+06	-43589.1	1005.82	-29778.5	0.000000	0.000000	6.722996	-0.062873	NaN	0.000000	0.001633	0.001765	28.0818	0.052315	0.002056	25.4425	-168.306	-164.855	0.000158	0.721604	-0.425179	-0.426483	-0.062873	25.4425	-0.423326	-286792	2.192302E-7	NaN
670	1.000000	0.732946	7.37161e+06	-43589.1	1005.82	-29778.5	0.000000	0.000000	6.733037	-0.013195	NaN	0.000000	0.001588	0.001759	28.083	0.088077	0.001949	45.1946	10.2857	14.1268	-0.003398	0.731560	-0.415140	-0.416527	-0.013195	45.1946	-0.414921	-217941	6.054535E-8	NaN
670	1.000000	0.742949	7.37161e+06	-43589.1	1005.82	-29778.5	0.000000	0.000000	6.743040	-0.018257	NaN	0.000000	0.001638	0.001752	28.0829	0.033835	0.002020	16.7494	-151.173	-163.854	0.045518	0.741631	-0.405138	-0.406456	-0.018257	16.7494	-0.404320	-154015	1.185390E-7	NaN
670	1.000000	0.752954	7.37161e+06	-43589.1	1005.82	-29778.5	0.000000	0.000000	6.753046	-7.310433E-5	NaN	0.000000	0.001646	0.001741	28.083	0.028429	0.001938	14.6702	115.411	14.1262	0.018819	0.751541	-0.395133	-0.396545	-7.310433E-5	14.6702	-0.395129	-113887	6.419016E-10	NaN
670	1.000000	0.762941	7.37161e+06	-43589.1	1005.82	-29778.5	0.000000	0.000000	6.763034	0.046097	NaN	0.000000	0.001623	0.001770	28.0831	0.092653	0.002007	46.163	-62.613	-168.801	0.007436	0.761676	-0.385146	-0.386411	0.046097	46.163	-0.385895	-84023.5	-5.486185E-7	NaN
670	1.000000	0.772971	7.37161e+06	-43589.1	1005.82	-29778.5	0.000000	0.000000	6.773059	-0.083505	NaN	0.000000	0.001630	0.001775	28.0828	0.038726	0.001929	20.0779	45.4141	11.952	-0.051431	0.771664	-0.375116	-0.376422	-0.083505	20.0779	-0.371996	-53072.1	1.573429E-6	NaN
670	1.000000	0.782981	7.37161e+06	-43589.1	1005.82	-29778.5	0.000000	0.000000	6.783072	-0.007504	NaN	0.000000	0.001618	0.001791	28.083	0.068887	0.001888	36.4818	-169.264	-165.631	-0.034639	0.781661	-0.365106	-0.366426	-0.007504	36.4818	-0.364952	-42010.3	1.786337E-7	NaN
670	1.000000	0.792980	7.37161e+06	-43589.1	1005.82	-29778.5	0.000000	0.000000	6.793074	0.047487	NaN	0.000000	0.001632	0.001783	28.0828	0.125691	0.002091	60.1054	83.1688	16.1628	0.010559	0.791570	-0.355106	-0.356517	0.047487	60.1054	-0.355699	-30875.7	-1.538011E-6	NaN
670	1.000000	0.802954	7.37161e+06	-43589.1	1005.82	-29778.5	0.000000	0.000000	6.803043	-0.058344	NaN	0.000000	0.001638	0.001738	28.0831	0.055305	0.001999	27.6678	-80.2782	-169.012	0.022398	0.801673	-0.345132	-0.346414	-0.058344	27.6678	-0.343551	-20571.8	2.836123E-6	NaN
670	1.000000	0.812959	7.37161e+06	-43589.1	1005.82	-29778.5	0.000000	0.000000	6.813049	-0.044443	NaN	0.000000	0.001635	0.001765	28.0828	0.068509	0.001947	35.1821	-31.5081	11.5595	0.033525	0.811613	-0.335128	-0.336474	-0.044443	35.1821	-0.334180	-15017.9	2.959321E-6	NaN
670	1.000000	0.822982	7.37161e+06	-43589.1	1005.82	-29778.5	0.000000	0.000000	6.823072	-0.044658	NaN	0.000000	0.001645	0.001784	28.0831	0.137090	0.002055	66.7152	-9.346856	-165.031	-0.035682	0.821689	-0.325105	-0.326398	-0.044658	66.7152	-0.324603	-10871.9	4.107622E-6	NaN
670	1.000000	0.832986	7.37161e+06	-43589.1	1005.82	-29778.5	0.000000	0.000000	6.833077	0.000287	NaN	0.000000	0.001617	0.001725	28.083	0.103960	0.001933	53.7836	76.1531	14.1349	0.034820	0.831632	-0.315101	-0.316454	0.000287	53.7836	-0.315105	-7879.46	-3.643494E-8	NaN
670	1.000000	0.842998	7.37161e+06	-43589.1	1005.82	-29778.5	0.000000	0.000000	6.843088	-0.037676	NaN	0.000000	0.001678	0.001721	28.083	0.064629	0.002113	30.5822	149.52	-166.824	-0.002523	0.841660	-0.305089	-0.306426	-0.037676	30.5822	-0.304165	-5426.97	6.942304E-6	NaN
670	1.000000	0.852979	7.37161e+06	-43589.1	1005.82	-29778.5	0.000000	0.000000	6.853068	-0.068366	NaN	0.000000	0.001674	0.001779	28.0827	0.109445	0.002017	54.2563	-61.7291	15.5244	-0.077135	0.851643	-0.295108	-0.296444	-0.068366	54.2563	-0.294163	-3851.05	1.775264E-5	NaN
670	1.000000	0.862985	7.37161e+06	-43589.1	1005.82	-29778.5	0.000000	0.000000	6.863074	-0.057223	NaN	0.000000	0.001643	0.001767	28.0831	0.069621	0.001981	35.1414	21.8761	-166.215	-0.071821	0.861734	-0.285101	-0.286352	-0.057223	35.1414	-0.283880	-2700.38	2.119051E-5	NaN
670	1.000000	0.873006	7.37161e+06	-43589.1	1005.82	-29778.5	0.000000	0.000000	6.873099	0.032052	NaN	0.000000	0.001657	0.001748	28.0818	0.059282	0.001864	31.8025	15.6452	9.362389	0.034246	0.871594	-0.275081	-0.276492	0.032052	31.8025	-0.275837	-2042.06	-1.569583E-5	NaN
670	1.000000	0.883000	7.37161e+06	-43589.1	1005.82	-29778.5	0.000000	0.000000	6.883092	0.001296	NaN	0.000000	0.001672	0.001738	28.0819	0.023166	0.001848	12.5335	170.583	-164.206	-0.017951	0.881681	-0.265086	-0.266405	0.001296	12.5335	-0.265164	-1405.68	-9.217260E-7	NaN
670	1.000000	0.893011	7.37161e+06	-43589.1	1005.82	-29778.5	0.000000	0.000000	6.893103	0.015846	NaN	0.000000	0.001649	0.001731	28.0817	0.040872	0.002040	20.0315	139.071	13.6002	-7.668457E-6	0.891644	-0.255075	-0.256442	0.015846	20.0315	-0.255669	-1005.56	-1.575883E-5	NaN
670	1.000000	0.903019	7.37161e+06	-43589.1	1005.82	-29778.5	0.000000	0.000000	6.903110	-0.000698	NaN	0.000000	0.001637	0.001743	28.0826	0.046431	0.002096	22.1539	59.0069	-168.457	0.004497	0.901688	-0.245068	-0.246399	-0.000698	22.1539	-0.245044	-688.874	1.012527E-6	NaN
670	1.000000	0.913041	7.37161e+06	-43589.1	1005.82	-29778.5	0.000000	0.000000	6.913131	-0.029317	NaN	0.000000	0.001648	0.001784	28.0817	0.038729	0.001982	19.5371	2.925446	14.2493	0.079004	0.911640	-0.235046	-0.236447	-0.029317	19.5371	-0.233921	-461.623	6.350916E-5	NaN
670	1.000000	0.922980	7.37161e+06	-43589.1	1005.82	-29778.5	0.000000	0.000000	6.923073	0.029002	NaN	0.000000	0.001639	0.001762	28.0819	0.048758	0.001886	25.8485	166.78	-168.212	0.007120	0.921686	-0.225106	-0.226400	0.029002	25.8485	-0.225948	-345.446	-8.395411E-5	NaN
670	1.000000	0.933014	7.37161e+06	-43589.1	1005.82	-29778.5	0.000000	0.000000	6.933103	-0.050672	NaN	0.000000	0.001627	0.001768	28.0816	0.053716	0.002005	26.7868	-164.705	12.3803	-0.028791	0.931674	-0.215073	-0.216412	-0.050672	26.7868	-0.213654	-219.707	0.000231	NaN
670	1.000000	0.943050	7.37161e+06	-43589.1	1005.82	-29778.5	0.000000	0.000000	6.943141	-0.015030	NaN	0.000000	0.001661	0.001780	28.0819	0.072413	0.001913	37.8531	33.3199	-168.146	0.074214	0.941684	-0.205036	-0.206403	-0.015030	37.8531	-0.204738	-157.504	9.542544E-5	NaN
670	1.000000	0.953053	7.37161e+06	-43589.1	1005.82	-29778.5	0.000000	0.000000	6.953143	-0.039609	NaN	0.000000	0.001648	0.001801	28.0817	0.054898	0.002069	26.5348	106.664	15.7226	-0.009771	0.951649	-0.195034	-0.196438	-0.039609	26.5348	-0.193914	-104.52	0.000379	NaN
670	1.000000	0.963021	7.37161e+06	-43589.1	1005.82	-29778.5	0.000000	0.000000	6.963112	-0.018219	NaN	0.000000	0.001650	0.001811	28.0816	0.150829	0.001941	77.7263	-179.265	-167.207	0.025076	0.961725	-0.185066	-0.186361	-0.018219	77.7263	-0.184890	-73.8376	0.000247	NaN
670	1.000000	0.973059	7.37161e+06	-43589.1	1005.82	-29778.5	0.000000	0.000000	6.973151	-0.003651	NaN	0.000000	0.001628	0.001799	28.0816	0.104404	0.002027	51.518	6.115220	15.6593	0.014295	0.971683	-0.175027	-0.176404	-0.003651	51.518	-0.174974	-50.0653	7.292741E-5	NaN
670	1.000000	0.983045	7.37161e+06	-43589.1	1005.82	-29778.5	0.000000	0.000000	6.983136	-0.028371	NaN	0.000000	0.001641	0.001770	28.0819	0.066685	0.002139	31.1768	175.995	-167.771	-0.053831	0.981744	-0.165041	-0.166342	-0.028371	31.1768	-0.164359	-32.7369	0.000867	NaN
670	1.000000	0.993056	7.37161e+06	-43589.1	1005.82	-29778.5	0.000000	0.000000	6.993144	-0.077989	NaN	0.000000	0.001626	0.001773	28.0813	0.018434	0.001993	9.248040	115.18	13.8724	-0.075409	0.991701	-0.155031	-0.156385	-0.077989	9.248040	-0.148706	-17.1539	0.004546	NaN
670	1.000000	1.003083	7.37161e+06	-43589.1	1005.82	-29778.5	0.000000	0.000000	7.003173	-0.029710	NaN	0.000000	0.001633	0.001770	28.0814	0.057904	0.001935	29.9274	1.256855	-163.952	0.018897	1.001683	-0.145004	-0.146404	-0.029710	29.9274	-0.144259	-14.2053	0.002091	NaN
670	1.000000	1.013065	7.37161e+06	-43589.1	1005.82	-29778.5	0.000000	0.000000	7.013155	-0.050508	NaN	0.000000	0.001648	0.001779	28.0827	0.062408	0.001918	32.5325	41.7548	13.8357	-0.133813	1.011701	-0.135021	-0.136385	-0.050508	32.5325	-0.133857	-9.045229	0.005584	NaN
670	1.000000	1.023077	7.37161e+06	-43589.1	1005.82	-29778.5	0.000000	0.000000	7.023168	-0.021010	NaN	0.000000	0.001601	0.001753	28.0828	0.056070	0.001893	29.6263	116.399	-166.486	-0.048106	1.021775	-0.125009	-0.126312	-0.021010	29.6263	-0.124477	-5.937985	0.003538	NaN
670	1.000000	1.033053	7.37161e+06	-43589.1	1005.82	-29778.5	0.000000	0.000000	7.033141	-0.075536	NaN	0.000000	0.001591	0.001714	28.0826	0.089746	0.002037	44.058	-168.545	16.4141	-0.026909	1.031700	-0.115034	-0.116387	-0.075536	44.058	-0.113748	-3.599321	0.020986	NaN
670	1.000000	1.043052	7.37161e+06	-43589.1	1005.82	-29778.5	0.000000	0.000000	7.043144	0.018259	NaN	0.000000	0.001627	0.001732	28.0825	0.065566	0.002010	32.6191	-133.989	-169.604	-0.018681	1.041713	-0.105035	-0.106373	0.018259	32.6191	-0.105455	-2.404276	-0.007595	NaN
670	1.000000	1.053051	7.37161e+06	-43589.1	1005.82	-29778.5	0.000000	0.000000	7.053142	-0.027215	NaN	0.000000	0.001621	0.001750	28.0828	0.031237	0.001954	15.9862	-18.3754	10.9514	0.085094	1.051777	-0.095035	-0.096309	-0.027215	15.9862	-0.093758	-1.321353	0.020597	NaN
670	1.000000	1.063053	7.37161e+06	-43589.1	1005.82	-29778.5	0.000000	0.000000	7.063144	-0.018092	NaN	0.000000	0.001671	0.001732	28.0825	0.067201	0.002038	32.972	-90.5721	-165.877	-0.026651	1.061769	-0.085033	-0.086318	-0.018092	32.972	-0.084622	-0.804475	0.022489	NaN
670	1.000000	1.073086	7.37161e+06	-43589.1	1005.82	-29778.5	0.000000	0.000000	7.073177	-0.019885	NaN	0.000000	0.001650	0.001730	28.0823	0.033352	0.001904	17.5164	154.977	13.6662	-0.019020	1.071764	-0.075000	-0.076323	-0.019885	17.5164	-0.074149	-0.438969	0.045300	NaN
670	1.000000	1.083056	7.37161e+06	-43589.1	1005.82	-29778.5	0.000000	0.000000	7.083147	-0.034039	NaN	0.000000	0.001668	0.001719	28.0825	0.089087	0.002069	43.0556	154.462	-166.18	-0.078133	1.081790	-0.065030	-0.066297	-0.034039	43.0556	-0.064437	-0.240398	0.141594	NaN
670	1.000000	1.093083	7.37161e+06	-43589.1	1005.82	-29778.5	0.000000	0.000000	7.093175	0.009892	NaN	0.000000	0.001631	0.001760	28.0828	0.086473	0.002068	41.8132	12.8311	12.3825	-0.070372	1.091736	-0.055004	-0.056351	0.009892	41.8132	-0.055181	-0.130377	-0.075875	NaN
670	1.000000	1.103110	7.37161e+06	-43589.1	1005.82	-29778.5	0.000000	0.000000	7.103197	-0.101571	NaN	0.000000	0.001632	0.001755	28.0826	0.108170	0.001850	58.4753	-88.7408	-166.737	-0.019735	1.101751	-0.044977	-0.046336	-0.101571	58.4753	-0.043674	-0.058538	1.735108	NaN
670	1.000000	1.113084	7.37161e+06	-43589.1	1005.82	-29778.5	0.000000	0.000000	7.113178	0.049776	NaN	0.000000	0.001625	0.001730	28.0824	0.034649	0.001897	18.2689	58.8837	15.5484	-0.002429	1.111717	-0.035002	-0.036369	0.049776	18.2689	-0.037046	-0.036833	-1.351418	NaN
670	1.000000	1.123108	7.37161e+06	-43589.1	1005.82	-29778.5	0.000000	0.000000	7.123199	-0.013306	NaN	0.000000	0.001652	0.001763	28.0824	0.069135	0.002104	32.8617	0.187429	-165.83	0.062488	1.121754	-0.024979	-0.026333	-0.013306	32.8617	-0.024675	-0.016544	0.804276	NaN
670	1.000000	1.133092	7.37161e+06	-43589.1	1005.82	-29778.5	0.000000	0.000000	7.133184	0.011715	NaN	0.000000	0.001645	0.001779	28.0825	0.090246	0.002011	44.8832	-161.581	10.1487	0.020724	1.131762	-0.014995	-0.016324	0.011715	44.8832	-0.015191	-0.009390	-1.247648	NaN
670	1.000000	1.143088	7.37161e+06	-43589.1	1005.82	-29778.5	0.000000	0.000000	7.143183	0.088346	NaN	0.000000	0.001598	0.001755	28.0812	0.212934	0.002082	102.298	55.2679	-170.866	-0.021362	1.141788	-0.004998	-0.006299	0.088346	102.298	-0.005646	-0.003819	-23.1336	NaN
670	2.000000	1.152205	7.37161e+06	-43589.1	1005.82	-29778.5	0.000000	0.000000	7.152597	7.311450	NaN	0.000000	0.001602	0.001745	28.0816	8.131100	0.001720	4727.6	10.129	9.114812	7.524366	1.151576	0.004118	0.003490	7.311450	4727.6	0.002959	0.002345	3117.8	89194.2
670	2.000000	1.154733	7.37161e+06	-43589.1	1005.82	-29778.5	0.000000	0.000000	7.155248	10.3001	NaN	0.000000	0.001650	0.001728	28.0814	10.9515	0.001662	6590.47	5.073926	-173.402	9.826435	1.154458	0.006647	0.006372	10.3001	6590.47	0.005475	0.004571	2253.48	89062.8
670	2.000000	1.157211	7.37161e+06	-43589.1	1005.82	-29778.5	0.000000	0.000000	7.157936	15.4198	NaN	0.000000	0.001601	0.001733	28.0814	14.2414	0.001683	8463.98	7.995134	3.568951	14.2658	1.156819	0.009124	0.008732	15.4198	8463.98	0.007758	0.006795	2269.4	93813.3
670	2.000000	1.159731	7.37161e+06	-43589.1	1005.82	-29778.5	0.000000	0.000000	7.160651	20.1448	NaN	0.000000	0.001622	0.001736	28.0812	17.8211	0.001736	10263.2	7.306977	-179.557	20.2077	1.159399	0.011644	0.011312	20.1448	10263.2	0.010172	0.009374	2149.09	96850.7
670	2.000000	1.162209	7.37161e+06	-43589.1	1005.82	-29778.5	0.000000	0.000000	7.163344	25.3948	NaN	0.000000	0.001629	0.001737	28.0827	20.3292	0.001735	11717.3	8.170364	0.300609	25.6661	1.161826	0.014122	0.013740	25.3948	11717.3	0.012497	0.012091	2100.37	97359.2
670	2.000000	1.164686	7.37161e+06	-43589.1	1005.82	-29778.5	0.000000	0.000000	7.166026	30.3766	NaN	0.000000	0.001611	0.001786	28.0814	23.314	0.001812	12864.6	5.544400	-179.031	30.1898	1.164359	0.016599	0.016272	30.3766	12864.6	0.014828	0.015057	2017.45	95786
670	2.000000	1.167151	7.37161e+06	-43589.1	1005.82	-29778.5	0.000000	0.000000	7.168853	39.1828	NaN	0.000000	0.001610	0.001760	28.0822	25.5497	0.001652	15465.8	3.389598	2.248639	36.6303	1.166790	0.019064	0.018703	39.1828	15465.8	0.017164	0.018280	2143.44	104509
670	2.000000	1.169663	7.37161e+06	-43589.1	1005.82	-29778.5	0.000000	0.000000	7.171462	41.5482	NaN	0.000000	0.001619	0.001802	28.0815	28.6769	0.001866	15370.6	5.807963	179.411	41.5322	1.169447	0.021576	0.021360	41.5482	15370.6	0.019549	0.021839	1902.51	95028
670	2.000000	1.172098	7.37161e+06	-43589.1	1005.82	-29778.5	0.000000	0.000000	7.174265	50.4864	NaN	0.000000	0.001568	0.001773	28.0833	31.4282	0.001852	16968.5	3.526444	0.862819	48.7037	1.171859	0.024012	0.023773	50.4864	16968.5	0.021780	0.025417	1986.31	97241.9
670	2.000000	1.174609	7.37161e+06	-43589.1	1005.82	-29778.5	0.000000	0.000000	7.177107	58.5477	NaN	0.000000	0.001626	0.001746	28.0812	34.3995	0.001808	19030.2	6.385527	176.752	56.7138	1.174363	0.026522	0.026276	58.5477	19030.2	0.024215	0.029603	1977.77	101053
670	2.000000	1.177158	7.37161e+06	-43589.1	1005.82	-29778.5	0.000000	0.000000	7.180002	66.9548	NaN	0.000000	0.001606	0.001718	28.0826	35.5863	0.001664	21388.7	3.034519	-0.869413	65.2963	1.176818	0.029071	0.028732	66.9548	21388.7	0.026724	0.034226	1956.25	105628
670	2.000000	1.179653	7.37161e+06	-43589.1	1005.82	-29778.5	0.000000	0.000000	7.182959	78.2165	NaN	0.000000	0.001576	0.001736	28.0814	37.8931	0.001899	19953.3	4.902574	179.532	78.0289	1.179315	0.031566	0.031229	78.2165	19953.3	0.028626	0.037945	2061.34	93586.5
670	2.000000	1.182151	7.37161e+06	-43589.1	1005.82	-29778.5	0.000000	0.000000	7.185831	87.3091	NaN	0.000000	0.001602	0.001695	28.082	40.8455	0.001819	22450	4.727080	-2.026623	87.046	1.181781	0.034064	0.033695	87.3091	22450	0.031147	0.043156	2023.13	98735.1
670	2.000000	1.184552	7.37161e+06	-43589.1	1005.82	-29778.5	0.000000	0.000000	7.188711	98.9392	NaN	0.000000	0.001612	0.001718	28.0825	43.6763	0.001820	24003.6	6.634477	174.129	96.0248	1.184290	0.036466	0.036204	98.9392	24003.6	0.033374	0.048028	2060.01	100069
670	2.000000	1.187093	7.37161e+06	-43589.1	1005.82	-29778.5	0.000000	0.000000	7.191784	111.881	NaN	0.000000	0.001623	0.001736	28.0827	45.258	0.001723	26274.5	3.798228	-4.069711	107.533	1.186789	0.039007	0.038702	111.881	26274.5	0.035813	0.053657	2085.11	103632
670	2.000000	1.189608	7.37161e+06	-43589.1	1005.82	-29778.5	0.000000	0.000000	7.194605	119.346	NaN	0.000000	0.001616	0.001749	28.0828	47.1014	0.001867	25232.7	4.905136	177.561	118.74	1.189219	0.041521	0.041133	119.346	25232.7	0.037974	0.058897	2026.34	94992.3
670	2.000000	1.192193	7.37161e+06	-43589.1	1005.82	-29778.5	0.000000	0.000000	7.197539	127.846	NaN	0.000000	0.001589	0.001732	28.0833	50.41	0.001836	27457.4	7.189365	-6.279988	130.355	1.191699	0.044106	0.043612	127.846	27457.4	0.040614	0.065625	1948.13	97926.1
670	2.000000	1.194635	7.37161e+06	-43589.1	1005.82	-29778.5	0.000000	0.000000	7.200530	141.188	NaN	0.000000	0.001685	0.001724	28.0825	53.423	0.001842	28999.7	9.095404	171.272	142.062	1.194284	0.046549	0.046198	141.188	28999.7	0.042897	0.071730	1968.34	98927.6
670	2.000000	1.197145	7.37161e+06	-43589.1	1005.82	-29778.5	0.000000	0.000000	7.203511	152.64	NaN	0.000000	0.001652	0.001762	28.0828	54.0241	0.001724	31344.9	9.042879	-9.395626	150.739	1.196697	0.049059	0.048610	152.64	31344.9	0.045406	0.078745	1938.4	102053
670	2.000000	1.199559	7.37161e+06	-43589.1	1005.82	-29778.5	0.000000	0.000000	7.206418	164.655	NaN	0.000000	0.001631	0.001721	28.0828	55.1141	0.001787	30835.2	1.806218	177.581	161.295	1.199291	0.051472	0.051205	164.655	30835.2	0.047467	0.084745	1942.94	96774.6
670	2.000000	1.202003	7.37161e+06	-43589.1	1005.82	-29778.5	0.000000	0.000000	7.209234	173.677	NaN	0.000000	0.001660	0.001743	28.0829	58.7045	0.001752	33511.4	6.700426	-8.396283	167.513	1.201689	0.053917	0.053603	173.677	33511.4	0.050030	0.092506	1877.47	100666
670	2.000000	1.204601	7.37161e+06	-43589.1	1005.82	-29778.5	0.000000	0.000000	7.212400	187.503	NaN	0.000000	0.001689	0.001737	28.0826	61.4989	0.001839	33433.3	6.828894	171.657	187.617	1.204271	0.056515	0.056185	187.503	33433.3	0.052309	0.099682	1881.01	96748.5
670	2.000000	1.207081	7.37161e+06	-43589.1	1005.82	-29778.5	0.000000	0.000000	7.215514	202.941	NaN	0.000000	0.001692	0.001698	28.0827	62.2648	0.001750	35587.8	2.287653	-4.005229	198.432	1.206784	0.058995	0.058698	202.941	35587.8	0.054718	0.107551	1886.92	99144.2
670	2.000000	1.209596	7.37161e+06	-43589.1	1005.82	-29778.5	0.000000	0.000000	7.218499	214.367	NaN	0.000000	0.001700	0.001711	28.0828	64.97	0.001733	37497.4	5.843743	171.654	214.497	1.209255	0.061510	0.061169	214.367	37497.4	0.057222	0.116037	1847.4	100572
670	2.000000	1.211974	7.37161e+06	-43589.1	1005.82	-29778.5	0.000000	0.000000	7.221451	228.334	NaN	0.000000	0.001684	0.001746	28.0831	67.8648	0.001915	35444.2	1.558144	-3.649485	219.829	1.211635	0.063887	0.063548	228.334	35444.2	0.059056	0.122444	1864.8	92544.1
670	2.000000	1.214638	7.37161e+06	-43589.1	1005.82	-29778.5	0.000000	0.000000	7.224455	236.61	NaN	0.000000	0.001696	0.001722	28.0826	70.0052	0.001758	39810	1.382843	175.777	237.946	1.214354	0.066552	0.066267	236.61	39810	0.062094	0.133424	1773.37	99574.7
670	2.000000	1.217080	7.37161e+06	-43589.1	1005.82	-29778.5	0.000000	0.000000	7.227998	263.376	NaN	0.000000	0.001728	0.001741	28.083	72.2141	0.001829	39476.8	5.579162	-8.029581	261.256	1.216712	0.068994	0.068626	263.376	39476.8	0.063990	0.140504	1874.5	96221.1
670	2.000000	1.219658	7.37161e+06	-43589.1	1005.82	-29778.5	0.000000	0.000000	7.231020	274.2	NaN	0.000000	0.001630	0.001736	28.0815	74.3781	0.001811	41065.6	4.829554	172.517	279.289	1.219255	0.071571	0.071168	274.2	41065.6	0.066564	0.150391	1823.25	96747.7
670	2.000000	1.222005	7.37161e+06	-43589.1	1005.82	-29778.5	0.000000	0.000000	7.234258	295.88	NaN	0.000000	0.001622	0.001680	28.0816	77.0906	0.001759	43819.6	5.338776	-8.805937	289.639	1.221603	0.073919	0.073517	295.88	43819.6	0.068855	0.159460	1855.52	100257
670	2.000000	1.224559	7.37161e+06	-43589.1	1005.82	-29778.5	0.000000	0.000000	7.237403	310.268	NaN	0.000000	0.001608	0.001683	28.0814	79.8198	0.001747	45677.9	2.726216	173.229	308.581	1.224294	0.076472	0.076207	310.268	45677.9	0.071378	0.169737	1827.93	101296
670	2.000000	1.227068	7.37161e+06	-43589.1	1005.82	-29778.5	0.000000	0.000000	7.240724	330.004	NaN	0.000000	0.001643	0.001694	28.0819	81.0821	0.001792	45250.7	3.216663	-6.544611	328.172	1.226634	0.078981	0.078547	330.004	45250.7	0.073512	0.178667	1847.04	97808.5
670	2.000000	1.229507	7.37161e+06	-43589.1	1005.82	-29778.5	0.000000	0.000000	7.243916	348.334	NaN	0.000000	0.001645	0.001742	28.0815	82.7281	0.001797	46028.2	5.852112	170.189	344.298	1.229163	0.081421	0.081077	348.334	46028.2	0.075745	0.188239	1850.49	96926.5
670	2.000000	1.231960	7.37161e+06	-43589.1	1005.82	-29778.5	0.000000	0.000000	7.246868	360.466	NaN	0.000000	0.001555	0.001744	28.0816	85.8573	0.001880	45671.2	6.512054	-10.0694	353.788	1.231688	0.083874	0.083602	360.466	45671.2	0.077955	0.197943	1821.07	93787.6
670	2.000000	1.234525	7.37161e+06	-43589.1	1005.82	-29778.5	0.000000	0.000000	7.250299	381.556	NaN	0.000000	0.001628	0.001715	28.0816	88.0891	0.001819	48420.1	4.800739	170.88	378.501	1.234212	0.086438	0.086126	381.556	48420.1	0.080528	0.209531	1821	96643.8
670	2.000000	1.237055	7.37161e+06	-43589.1	1005.82	-29778.5	0.000000	0.000000	7.253549	399.056	NaN	0.000000	0.001618	0.001736	28.0818	90.1104	0.001835	49118.1	7.826292	-12.1709	395.14	1.236698	0.088969	0.088612	399.056	49118.1	0.082875	0.220370	1810.84	95595.7
670	2.000000	1.239599	7.37161e+06	-43589.1	1005.82	-29778.5	0.000000	0.000000	7.256853	417.538	NaN	0.000000	0.001629	0.001739	28.0815	91.2902	0.001785	51149.6	4.028995	171.798	419.984	1.239210	0.091513	0.091124	417.538	51149.6	0.085391	0.232268	1797.66	96966.3
670	2.000000	1.242014	7.37161e+06	-43589.1	1005.82	-29778.5	0.000000	0.000000	7.259997	435.28	NaN	0.000000	0.001653	0.001732	28.0816	93.6171	0.001873	49972.3	3.186946	-7.801859	430.518	1.241785	0.093928	0.093699	435.28	49972.3	0.087395	0.241959	1798.98	92817.9
670	2.000000	1.244621	7.37161e+06	-43589.1	1005.82	-29778.5	0.000000	0.000000	7.263404	454.754	NaN	0.000000	0.001652	0.001728	28.0817	97.143	0.001778	54625.5	8.929008	166.356	455.922	1.244132	0.096534	0.096045	454.754	54625.5	0.090291	0.256285	1774.41	98584
670	2.000000	1.247003	7.37161e+06	-43589.1	1005.82	-29778.5	0.000000	0.000000	7.266748	478.152	NaN	0.000000	0.001657	0.001751	28.0814	97.5566	0.001820	53597.4	3.517246	-8.155572	472.708	1.246679	0.098916	0.098592	478.152	53597.4	0.092226	0.266072	1797.08	94933.1
670	2.000000	1.249510	7.37161e+06	-43589.1	1005.82	-29778.5	0.000000	0.000000	7.269929	494.542	NaN	0.000000	0.001641	0.001710	28.0815	101.133	0.001846	54772.5	5.261784	169.393	491.932	1.249297	0.101424	0.101211	494.542	54772.5	0.094652	0.278586	1775.19	94810.5
670	2.000000	1.250602	7.37161e+06	-43589.1	1005.82	-29778.5	0.000000	0.000000	7.271442	504.781	NaN	0.000000	0.001650	0.001735	28.0813	102.079	0.001718	59432.4	6.193683	168.733	506.514	1.250176	0.102516	0.102090	504.781	59432.4	0.096146	0.286425	1762.35	101459