File: remote_trans/data/nanoindenter/0828-1/data/Data_2025-08-06,11h17m57s/2025-07-22_16-23-58_1_580.txt
2025-07-22, 16:23:58, 1
Index	Phase	Displacement	Time	Pos X	Pos Y	Pos Z	Rot A	Rot B	Piezo Z	Force A	Force B	Gripper	Voltage A	Voltage B	Temperature	Amplitude force	Amplitude pos	Stiffness	Phase shift	Phase excitation	Force A raw	Displacement raw	HMax	HMax raw	Real Force	Real Stiffness	Contact Depth	Area	Hardness	Reduced Mod.
[#]	[#]	[um]	[s]	[um]	[um]	[um]	[m°]	[m°]	[um]	[uN]	[uN]	[V]	[V]	[V]	[°C]	[uN]	[um]	[N/m]	[°]	[°]	[uN]	[um]	[um]	[um]	[uN]	[N/m]	[um]	[um^2]	[MPa]	[MPa]
580	1.000000	0.002773	7.37072e+06	-48089.1	1005.82	-29763.6	0.000000	0.000000	6.002800	0.046713	NaN	0.000000	0.001577	0.001799	28.0793	0.103965	0.000910	114.277	170.794	-171.676	0.067662	0.001521	-1.145382	-1.146635	0.046713	114.277	-1.145689	-2.055992E+15	-2.272021E-17	NaN
580	1.000000	0.012819	7.37072e+06	-48089.1	1005.82	-29763.6	0.000000	0.000000	6.012843	-0.020324	NaN	0.000000	0.001604	0.001823	28.079	0.095488	0.001261	75.7348	47.8286	17.7052	-0.028658	0.011363	-1.135336	-1.136792	-0.020324	75.7348	-1.135135	-1.484198E+15	1.369373E-17	NaN
580	1.000000	0.022717	7.37072e+06	-48089.1	1005.82	-29763.6	0.000000	0.000000	6.022744	0.039538	NaN	0.000000	0.001577	0.001795	28.0791	0.048336	0.001723	28.0507	-30.4682	-165.842	0.051146	0.021397	-1.125438	-1.126758	0.039538	28.0507	-1.126495	-1.136602E+15	-3.478596E-17	NaN
580	1.000000	0.032718	7.37072e+06	-48089.1	1005.82	-29763.6	0.000000	0.000000	6.032743	0.006344	NaN	0.000000	0.001564	0.001808	28.079	0.043251	0.001910	22.6488	33.7676	14.454	0.011032	0.031375	-1.115437	-1.116780	0.006344	22.6488	-1.115647	-8.129631E+14	-7.803528E-18	NaN
580	1.000000	0.042728	7.37072e+06	-48089.1	1005.82	-29763.6	0.000000	0.000000	6.042752	-0.036706	NaN	0.000000	0.001571	0.001774	28.079	0.060130	0.002037	29.5168	86.6366	-166.201	0.024620	0.041405	-1.105427	-1.106751	-0.036706	29.5168	-1.104494	-5.759616E+14	6.373013E-17	NaN
580	1.000000	0.052716	7.37072e+06	-48089.1	1005.82	-29763.6	0.000000	0.000000	6.052741	-0.008556	NaN	0.000000	0.001574	0.001804	28.0789	0.014062	0.001964	7.160360	-81.7406	15.7103	-0.121845	0.051365	-1.095439	-1.096790	-0.008556	7.160360	-1.094543	-4.234525E+14	2.020544E-17	NaN
580	1.000000	0.062741	7.37072e+06	-48089.1	1005.82	-29763.6	0.000000	0.000000	6.062767	0.024418	NaN	0.000000	0.001552	0.001797	28.0789	0.049860	0.001883	26.4796	-145.374	-166.572	-0.015338	0.061419	-1.085414	-1.086736	0.024418	26.4796	-1.086105	-3.262237E+14	-7.485166E-17	NaN
580	1.000000	0.072721	7.37072e+06	-48089.1	1005.82	-29763.6	0.000000	0.000000	6.072746	0.016340	NaN	0.000000	0.001547	0.001805	28.079	0.106831	0.002198	48.605	130.672	14.5223	0.002644	0.071366	-1.075434	-1.076789	0.016340	48.605	-1.075686	-2.363630E+14	-6.913255E-17	NaN
580	1.000000	0.082733	7.37072e+06	-48089.1	1005.82	-29763.6	0.000000	0.000000	6.082760	0.036238	NaN	0.000000	0.001531	0.001806	28.0795	0.030512	0.001985	15.3716	101.425	-166.848	-0.013640	0.081399	-1.065422	-1.066756	0.036238	15.3716	-1.067190	-1.817338E+14	-1.993991E-16	NaN
580	1.000000	0.092744	7.37072e+06	-48089.1	1005.82	-29763.6	0.000000	0.000000	6.092769	-0.003528	NaN	0.000000	0.001554	0.001748	28.0803	0.026805	0.001842	14.5528	-49.9534	13.9388	0.103503	0.091409	-1.055411	-1.056747	-0.003528	14.5528	-1.055229	-1.255169E+14	2.811101E-17	NaN
580	1.000000	0.102744	7.37072e+06	-48089.1	1005.82	-29763.6	0.000000	0.000000	6.102767	-0.043399	NaN	0.000000	0.001555	0.001753	28.0801	0.064418	0.002103	30.6372	-169.187	-161.149	-0.054066	0.101475	-1.045411	-1.046680	-0.043399	30.6372	-1.044349	-8.962701E+13	4.842224E-16	NaN
580	1.000000	0.112743	7.37072e+06	-48089.1	1005.82	-29763.6	0.000000	0.000000	6.112770	0.061966	NaN	0.000000	0.001561	0.001745	28.0803	0.160502	0.002010	79.852	-46.3344	15.0838	-0.010940	0.111381	-1.035413	-1.036774	0.061966	79.852	-1.035995	-6.919980E+13	-8.954582E-16	NaN
580	1.000000	0.122714	7.37072e+06	-48089.1	1005.82	-29763.6	0.000000	0.000000	6.122735	-0.092922	NaN	0.000000	0.001610	0.001750	28.0802	0.045400	0.001968	23.0719	127.355	-163.59	-0.087585	0.121457	-1.025441	-1.026698	-0.092922	23.0719	-1.022421	-4.544856E+13	2.044560E-15	NaN
580	1.000000	0.132752	7.37072e+06	-48089.1	1005.82	-29763.6	0.000000	0.000000	6.132774	-0.060875	NaN	0.000000	0.001634	0.001745	28.08	0.023632	0.001792	13.1859	-0.488401	16.0045	-0.055482	0.131420	-1.015404	-1.016735	-0.060875	13.1859	-1.011941	-3.284777E+13	1.853260E-15	NaN
580	1.000000	0.142762	7.37072e+06	-48089.1	1005.82	-29763.6	0.000000	0.000000	6.142788	0.037465	NaN	0.000000	0.001620	0.001703	28.0803	0.085818	0.001969	43.5804	-124.038	-167.46	0.050545	0.141487	-1.005393	-1.006669	0.037465	43.5804	-1.006038	-2.735622E+13	-1.369513E-15	NaN
580	1.000000	0.152781	7.37072e+06	-48089.1	1005.82	-29763.6	0.000000	0.000000	6.152805	-0.025156	NaN	0.000000	0.001598	0.001718	28.0803	0.108571	0.001976	54.9493	-22.7124	15.4981	-0.024311	0.151414	-0.995374	-0.996741	-0.025156	54.9493	-0.995031	-1.944738E+13	1.293527E-15	NaN
580	1.000000	0.162758	7.37072e+06	-48089.1	1005.82	-29763.6	0.000000	0.000000	6.162780	-0.071471	NaN	0.000000	0.001618	0.001720	28.08	0.021423	0.002015	10.6306	-174.482	-164.442	-0.053172	0.161495	-0.985397	-0.986660	-0.071471	10.6306	-0.980355	-1.233640E+13	5.793490E-15	NaN
580	1.000000	0.172774	7.37072e+06	-48089.1	1005.82	-29763.6	0.000000	0.000000	6.172799	-0.012638	NaN	0.000000	0.001659	0.001709	28.08	0.027467	0.002073	13.2496	-95.1477	14.6838	8.321728E-5	0.171342	-0.975381	-0.976813	-0.012638	13.2496	-0.974665	-1.034034E+13	1.222229E-15	NaN
580	1.000000	0.182784	7.37072e+06	-48089.1	1005.82	-29763.6	0.000000	0.000000	6.182810	0.014070	NaN	0.000000	0.001623	0.001737	28.0802	0.098428	0.002002	49.1614	109.834	-166.634	0.032580	0.181450	-0.965371	-0.966706	0.014070	49.1614	-0.965586	-7.801309E+12	-1.803491E-15	NaN
580	1.000000	0.192791	7.37072e+06	-48089.1	1005.82	-29763.6	0.000000	0.000000	6.192815	-0.029269	NaN	0.000000	0.001571	0.001678	28.0801	0.045315	0.001971	22.9944	165.274	11.6356	-0.083431	0.191415	-0.955364	-0.956740	-0.029269	22.9944	-0.954409	-5.514302E+12	5.307896E-15	NaN
580	1.000000	0.202767	7.37072e+06	-48089.1	1005.82	-29763.6	0.000000	0.000000	6.202793	0.042717	NaN	0.000000	0.001605	0.001709	28.08	0.073969	0.002022	36.5856	42.6477	-168.738	-0.019726	0.201479	-0.945389	-0.946676	0.042717	36.5856	-0.946264	-4.281946E+12	-9.976038E-15	NaN
580	1.000000	0.212790	7.37072e+06	-48089.1	1005.82	-29763.6	0.000000	0.000000	6.212812	-0.062489	NaN	0.000000	0.001576	0.001711	28.0799	0.049759	0.002066	24.0786	-17.2584	16.5963	0.016057	0.211417	-0.935366	-0.936738	-0.062489	24.0786	-0.933419	-2.873042E+12	2.175020E-14	NaN
580	1.000000	0.222812	7.37072e+06	-48089.1	1005.82	-29763.6	0.000000	0.000000	6.222834	-0.056938	NaN	0.000000	0.001584	0.001728	28.0791	0.061617	0.002038	30.2328	-107.287	-166.903	0.053043	0.221473	-0.925343	-0.926682	-0.056938	30.2328	-0.923931	-2.139316E+12	2.661509E-14	NaN
580	1.000000	0.232821	7.37072e+06	-48089.1	1005.82	-29763.6	0.000000	0.000000	6.232844	-0.030322	NaN	0.000000	0.001572	0.001740	28.0789	0.092321	0.002067	44.6568	-51.9556	15.0493	-0.064825	0.231460	-0.915335	-0.916695	-0.030322	44.6568	-0.914826	-1.611891E+12	1.881116E-14	NaN
580	1.000000	0.242821	7.37072e+06	-48089.1	1005.82	-29763.6	0.000000	0.000000	6.242842	-0.092904	NaN	0.000000	0.001570	0.001722	28.0787	0.101502	0.002094	48.4758	77.4061	-166.425	-0.103547	0.241484	-0.905334	-0.906671	-0.092904	48.4758	-0.903897	-1.147403E+12	8.096871E-14	NaN
580	1.000000	0.252824	7.37072e+06	-48089.1	1005.82	-29763.6	0.000000	0.000000	6.252847	-0.045590	NaN	0.000000	0.001643	0.001723	28.0787	0.058749	0.002004	29.3227	-84.1527	17.4855	0.009994	0.251447	-0.895331	-0.896708	-0.045590	29.3227	-0.894165	-8.476390E+11	5.378412E-14	NaN
580	1.000000	0.262802	7.37072e+06	-48089.1	1005.82	-29763.6	0.000000	0.000000	6.262823	-0.077914	NaN	0.000000	0.001604	0.001757	28.0789	0.098801	0.001962	50.3696	161.784	-169.03	-0.003483	0.261492	-0.885353	-0.886663	-0.077914	50.3696	-0.884193	-6.214575E+11	1.253725E-13	NaN
580	1.000000	0.272794	7.37072e+06	-48089.1	1005.82	-29763.6	0.000000	0.000000	6.272819	0.007906	NaN	0.000000	0.001595	0.001748	28.0788	0.086312	0.002007	43.0127	18.3077	6.875405	0.055342	0.271463	-0.875361	-0.876693	0.007906	43.0127	-0.875499	-4.740582E+11	-1.667829E-14	NaN
580	1.000000	0.282852	7.37072e+06	-48089.1	1005.82	-29763.6	0.000000	0.000000	6.282876	-0.021594	NaN	0.000000	0.001557	0.001699	28.0788	0.094907	0.002047	46.3653	-121.368	-166.314	0.008402	0.281495	-0.865303	-0.866661	-0.021594	46.3653	-0.864954	-3.413221E+11	6.326605E-14	NaN
580	1.000000	0.292802	7.37072e+06	-48089.1	1005.82	-29763.6	0.000000	0.000000	6.292825	-0.036127	NaN	0.000000	0.001614	0.001730	28.079	0.032515	0.002128	15.2773	-17.9138	16.6006	-0.085392	0.291479	-0.855354	-0.856676	-0.036127	15.2773	-0.853580	-2.394500E+11	1.508752E-13	NaN
580	1.000000	0.302833	7.37072e+06	-48089.1	1005.82	-29763.6	0.000000	0.000000	6.302855	-0.073099	NaN	0.000000	0.001631	0.001768	28.0788	0.099727	0.001999	49.8868	139.347	-167.345	-0.077344	0.301549	-0.845322	-0.846606	-0.073099	49.8868	-0.844223	-1.788534E+11	4.087072E-13	NaN
580	1.000000	0.312844	7.37072e+06	-48089.1	1005.82	-29763.6	0.000000	0.000000	6.312868	-0.005859	NaN	0.000000	0.001601	0.001797	28.0788	0.056890	0.002054	27.7019	-27.4303	15.8796	0.038318	0.311420	-0.835312	-0.836736	-0.005859	27.7019	-0.835153	-1.347779E+11	4.347439E-14	NaN
580	1.000000	0.322835	7.37072e+06	-48089.1	1005.82	-29763.6	0.000000	0.000000	6.322860	0.019317	NaN	0.000000	0.001614	0.001793	28.0788	0.061045	0.001895	32.2123	-15.2457	-164.275	0.002124	0.321571	-0.825321	-0.826584	0.019317	32.2123	-0.825770	-1.005654E+11	-1.920801E-13	NaN
580	1.000000	0.332879	7.37072e+06	-48089.1	1005.82	-29763.6	0.000000	0.000000	6.332904	0.003485	NaN	0.000000	0.001589	0.001767	28.0789	0.031605	0.001906	16.5834	64.0903	12.6172	-0.033849	0.331484	-0.815276	-0.816671	0.003485	16.5834	-0.815434	-7.282578E+10	-4.785553E-14	NaN
580	1.000000	0.342840	7.37072e+06	-48089.1	1005.82	-29763.6	0.000000	0.000000	6.342865	0.010174	NaN	0.000000	0.001560	0.001786	28.0788	0.023577	0.002029	11.6199	52.4075	-167.821	0.060510	0.341542	-0.805315	-0.806614	0.010174	11.6199	-0.805972	-5.418912E+10	-1.877570E-13	NaN
580	1.000000	0.352851	7.37072e+06	-48089.1	1005.82	-29763.6	0.000000	0.000000	6.352873	-0.050278	NaN	0.000000	0.001562	0.001745	28.0789	0.093189	0.002046	45.5491	-160.549	12.5692	0.006748	0.351447	-0.795305	-0.796708	-0.050278	45.5491	-0.794477	-3.783360E+10	1.328929E-12	NaN
580	1.000000	0.362872	7.37072e+06	-48089.1	1005.82	-29763.6	0.000000	0.000000	6.362896	0.002465	NaN	0.000000	0.001560	0.001752	28.0804	0.063527	0.002113	30.0673	-114.131	-166.859	0.049058	0.361509	-0.785284	-0.786646	0.002465	30.0673	-0.785345	-2.843525E+10	-8.667206E-14	NaN
580	1.000000	0.372848	7.37072e+06	-48089.1	1005.82	-29763.6	0.000000	0.000000	6.372873	0.015553	NaN	0.000000	0.001565	0.001785	28.0803	0.057459	0.002040	28.1724	20.407	8.682969	-0.049509	0.371517	-0.775308	-0.776638	0.015553	28.1724	-0.775722	-2.104208E+10	-7.391551E-13	NaN
580	1.000000	0.382841	7.37072e+06	-48089.1	1005.82	-29763.6	0.000000	0.000000	6.382865	-0.018536	NaN	0.000000	0.001606	0.001774	28.0801	0.050788	0.001996	25.4461	149.305	-167.725	0.034360	0.381569	-0.765314	-0.766587	-0.018536	25.4461	-0.764768	-1.493317E+10	1.241259E-12	NaN
580	1.000000	0.392873	7.37072e+06	-48089.1	1005.82	-29763.6	0.000000	0.000000	6.392893	-0.108395	NaN	0.000000	0.001584	0.001757	28.0802	0.045608	0.001973	23.1182	13.0107	10.6969	0.004861	0.391513	-0.755283	-0.756643	-0.108395	23.1182	-0.751766	-9.937148E+9	1.090801E-11	NaN
580	1.000000	0.402838	7.37072e+06	-48089.1	1005.82	-29763.6	0.000000	0.000000	6.402859	-0.082536	NaN	0.000000	0.001550	0.001792	28.0804	0.090268	0.001983	45.5192	37.5183	-163.848	-0.059272	0.401574	-0.745318	-0.746581	-0.082536	45.5192	-0.743958	-7.779605E+9	1.060925E-11	NaN
580	1.000000	0.412881	7.37072e+06	-48089.1	1005.82	-29763.6	0.000000	0.000000	6.412908	0.052405	NaN	0.000000	0.001572	0.001744	28.08	0.126831	0.001952	64.9832	88.9819	14.1139	0.034690	0.411504	-0.735274	-0.736652	0.052405	64.9832	-0.735879	-6.038308E+9	-8.678763E-12	NaN
580	1.000000	0.422915	7.37072e+06	-48089.1	1005.82	-29763.6	0.000000	0.000000	6.422944	0.092350	NaN	0.000000	0.001555	0.001791	28.0799	0.098753	0.002025	48.7774	179.921	-164.893	0.090806	0.421549	-0.725240	-0.726606	0.092350	48.7774	-0.726660	-4.521505E+9	-2.042462E-11	NaN
580	1.000000	0.432906	7.37072e+06	-48089.1	1005.82	-29763.6	0.000000	0.000000	6.432929	-0.042997	NaN	0.000000	0.001591	0.001750	28.0803	0.078185	0.001893	41.3092	71.6276	14.3163	0.121038	0.431507	-0.715250	-0.716648	-0.042997	41.3092	-0.714469	-3.083396E+9	1.394466E-11	NaN
580	1.000000	0.442891	7.37072e+06	-48089.1	1005.82	-29763.6	0.000000	0.000000	6.442914	-0.042431	NaN	0.000000	0.001546	0.001796	28.08	0.046000	0.001887	24.3723	-131.341	-167.137	-0.022302	0.441583	-0.705264	-0.706573	-0.042431	24.3723	-0.703959	-2.216070E+9	1.914694E-11	NaN
580	1.000000	0.452913	7.37072e+06	-48089.1	1005.82	-29763.6	0.000000	0.000000	6.452937	-0.036254	NaN	0.000000	0.001515	0.001774	28.0802	0.086089	0.001854	46.4313	145.849	14.1677	-0.017317	0.451567	-0.695242	-0.696588	-0.036254	46.4313	-0.694656	-1.654030E+9	2.191835E-11	NaN
580	1.000000	0.462902	7.37072e+06	-48089.1	1005.82	-29763.6	0.000000	0.000000	6.462927	-0.006185	NaN	0.000000	0.001553	0.001774	28.08	0.070928	0.001976	35.8905	-22.6018	-167.524	-0.008560	0.461611	-0.685253	-0.686545	-0.006185	35.8905	-0.685124	-1.225362E+9	5.047504E-12	NaN
580	1.000000	0.472918	7.37072e+06	-48089.1	1005.82	-29763.6	0.000000	0.000000	6.472941	-0.023966	NaN	0.000000	0.001544	0.001768	28.0803	0.064772	0.002082	31.1038	-7.029311	13.4869	-0.020793	0.471475	-0.675238	-0.676680	-0.023966	31.1038	-0.674660	-8.813700E+8	2.719206E-11	NaN
580	1.000000	0.482913	7.37072e+06	-48089.1	1005.82	-29763.6	0.000000	0.000000	6.482936	-0.041654	NaN	0.000000	0.001493	0.001805	28.08	0.096955	0.001993	48.6571	105.483	-164.904	-0.076482	0.481619	-0.665243	-0.666536	-0.041654	48.6571	-0.664601	-6.419085E+8	6.489018E-11	NaN
580	1.000000	0.492864	7.37072e+06	-48089.1	1005.82	-29763.6	0.000000	0.000000	6.492889	0.022897	NaN	0.000000	0.001545	0.001776	28.0794	0.053364	0.002051	26.0146	-125.769	14.1239	0.021748	0.491558	-0.655292	-0.656597	0.022897	26.0146	-0.655952	-4.886614E+8	-4.685639E-11	NaN
580	1.000000	0.502895	7.37072e+06	-48089.1	1005.82	-29763.6	0.000000	0.000000	6.502920	-0.008234	NaN	0.000000	0.001570	0.001776	28.0789	0.033876	0.002075	16.3242	-155.571	-167.523	-0.061354	0.501595	-0.645260	-0.646560	-0.008234	16.3242	-0.644882	-3.445506E+8	2.389861E-11	NaN
580	1.000000	0.512924	7.37072e+06	-48089.1	1005.82	-29763.6	0.000000	0.000000	6.512947	-0.034352	NaN	0.000000	0.001561	0.001721	28.079	0.065376	0.002056	31.7923	-61.0874	11.6424	-0.085313	0.511531	-0.635232	-0.636624	-0.034352	31.7923	-0.634421	-2.475861E+8	1.387469E-10	NaN
580	1.000000	0.522915	7.37072e+06	-48089.1	1005.82	-29763.6	0.000000	0.000000	6.522937	-0.070107	NaN	0.000000	0.001534	0.001756	28.0788	0.071298	0.001976	36.0821	116.687	-163.496	-0.025066	0.521608	-0.625240	-0.626548	-0.070107	36.0821	-0.623783	-1.768584E+8	3.964022E-10	NaN
580	1.000000	0.532919	7.37072e+06	-48089.1	1005.82	-29763.6	0.000000	0.000000	6.532944	0.023326	NaN	0.000000	0.001524	0.001753	28.0787	0.029176	0.001948	14.9759	140.546	19.0084	0.057018	0.531575	-0.615237	-0.616580	0.023326	14.9759	-0.616405	-1.400262E+8	-1.665856E-10	NaN
580	1.000000	0.542908	7.37072e+06	-48089.1	1005.82	-29763.6	0.000000	0.000000	6.542931	-0.054142	NaN	0.000000	0.001536	0.001758	28.0792	0.083746	0.001903	43.9963	-34.6706	-164.054	-0.039886	0.541642	-0.605247	-0.606514	-0.054142	43.9963	-0.604324	-9.549966E+7	5.669356E-10	NaN
580	1.000000	0.552913	7.37072e+06	-48089.1	1005.82	-29763.6	0.000000	0.000000	6.552935	-0.067802	NaN	0.000000	0.001573	0.001806	28.0789	0.019089	0.002143	8.906829	-114.653	15.2631	-0.053638	0.551590	-0.595243	-0.596566	-0.067802	8.906829	-0.589533	-5.973538E+7	1.135041E-9	NaN
580	1.000000	0.562927	7.37072e+06	-48089.1	1005.82	-29763.6	0.000000	0.000000	6.562953	0.020956	NaN	0.000000	0.001545	0.001786	28.0787	0.039032	0.001879	20.7693	118.47	-165.093	0.039502	0.561623	-0.585228	-0.586533	0.020956	20.7693	-0.585985	-5.337017E+7	-3.926538E-10	NaN
580	1.000000	0.572947	7.37072e+06	-48089.1	1005.82	-29763.6	0.000000	0.000000	6.572973	0.031087	NaN	0.000000	0.001558	0.001768	28.0789	0.018745	0.002063	9.084440	-51.6466	17.8563	0.037350	0.571622	-0.575208	-0.576533	0.031087	9.084440	-0.577775	-4.111575E+7	-7.560827E-10	NaN
580	1.000000	0.582969	7.37072e+06	-48089.1	1005.82	-29763.6	0.000000	0.000000	6.582992	-0.054790	NaN	0.000000	0.001573	0.001758	28.079	0.075182	0.002146	35.0309	164.378	-165.906	-0.021905	0.581676	-0.565186	-0.566479	-0.054790	35.0309	-0.564013	-2.653860E+7	2.064555E-9	NaN
580	1.000000	0.592931	7.37072e+06	-48089.1	1005.82	-29763.6	0.000000	0.000000	6.592954	-0.054035	NaN	0.000000	0.001542	0.001762	28.079	0.079791	0.002014	39.612	150.825	17.1011	-0.080348	0.591549	-0.555224	-0.556606	-0.054035	39.612	-0.554201	-1.941465E+7	2.783186E-9	NaN
580	1.000000	0.602953	7.37072e+06	-48089.1	1005.82	-29763.6	0.000000	0.000000	6.602981	0.063852	NaN	0.000000	0.001558	0.001806	28.0789	0.060749	0.001995	30.4522	-162.891	-166.037	0.031819	0.601657	-0.545202	-0.546499	0.063852	30.4522	-0.546775	-1.532049E+7	-4.167777E-9	NaN
580	1.000000	0.612957	7.37072e+06	-48089.1	1005.82	-29763.6	0.000000	0.000000	6.612981	-0.017559	NaN	0.000000	0.001554	0.001795	28.079	0.108439	0.002004	54.1133	-109.971	13.0539	-0.090932	0.611596	-0.535198	-0.536559	-0.017559	54.1133	-0.534955	-1.050429E+7	1.671598E-9	NaN
580	1.000000	0.622952	7.37072e+06	-48089.1	1005.82	-29763.6	0.000000	0.000000	6.622978	0.012394	NaN	0.000000	0.001596	0.001765	28.079	0.051483	0.001926	26.7324	22.8192	-168.789	0.009258	0.621666	-0.525203	-0.526490	0.012394	26.7324	-0.525551	-7.77614e+06	-1.593889E-9	NaN
580	1.000000	0.632965	7.37072e+06	-48089.1	1005.82	-29763.6	0.000000	0.000000	6.632988	-0.025638	NaN	0.000000	0.001556	0.001754	28.0803	0.029747	0.001984	14.991	77.537	10.7992	-0.014102	0.631584	-0.515191	-0.516572	-0.025638	14.991	-0.513908	-5.3559e+06	4.786823E-9	NaN
580	1.000000	0.642980	7.37072e+06	-48089.1	1005.82	-29763.6	0.000000	0.000000	6.643003	-0.042421	NaN	0.000000	0.001551	0.001731	28.0805	0.067057	0.001978	33.9038	-158.909	-166.275	0.007440	0.641695	-0.505175	-0.506460	-0.042421	33.9038	-0.504237	-3.92742e+06	1.080115E-8	NaN
580	1.000000	0.653002	7.37072e+06	-48089.1	1005.82	-29763.6	0.000000	0.000000	6.653024	-0.070846	NaN	0.000000	0.001637	0.001764	28.0804	0.075765	0.002006	37.7731	-175.893	10.871	0.049965	0.651576	-0.495153	-0.496579	-0.070846	37.7731	-0.493747	-2.8037e+06	2.526867E-8	NaN
580	1.000000	0.662991	7.37072e+06	-48089.1	1005.82	-29763.6	0.000000	0.000000	6.663015	-0.036767	NaN	0.000000	0.001646	0.001763	28.0803	0.118392	0.002007	58.9877	60.7556	-168.173	0.005821	0.661715	-0.485164	-0.486441	-0.036767	58.9877	-0.484696	-2.09529e+06	1.754739E-8	NaN
580	1.000000	0.672954	7.37072e+06	-48089.1	1005.82	-29763.6	0.000000	0.000000	6.672978	-0.007847	NaN	0.000000	0.001625	0.001780	28.0802	0.058386	0.001981	29.4715	117.521	10.3226	-0.033336	0.671591	-0.475202	-0.476564	-0.007847	29.4715	-0.475002	-1.53296e+06	5.118798E-9	NaN
580	1.000000	0.682949	7.37072e+06	-48089.1	1005.82	-29763.6	0.000000	0.000000	6.682976	0.061563	NaN	0.000000	0.001616	0.001783	28.0803	0.109905	0.002066	53.1866	-125.118	-167.039	0.057365	0.681646	-0.465206	-0.466509	0.061563	53.1866	-0.466074	-1.14902e+06	-5.357815E-8	NaN
580	1.000000	0.693001	7.37072e+06	-48089.1	1005.82	-29763.6	0.000000	0.000000	6.693022	-0.082686	NaN	0.000000	0.001654	0.001737	28.0801	0.123643	0.001985	62.2942	-52.8237	12.9347	-0.021312	0.691606	-0.455155	-0.456549	-0.082686	62.2942	-0.454159	-781425	1.058143E-7	NaN
580	1.000000	0.702983	7.37072e+06	-48089.1	1005.82	-29763.6	0.000000	0.000000	6.703008	-0.001098	NaN	0.000000	0.001618	0.001796	28.0802	0.082509	0.002042	40.4041	-21.6559	-167.416	0.050309	0.701687	-0.445172	-0.446468	-0.001098	40.4041	-0.445152	-583490	1.881563E-9	NaN
580	1.000000	0.712996	7.37072e+06	-48089.1	1005.82	-29763.6	0.000000	0.000000	6.713021	0.005841	NaN	0.000000	0.001644	0.001768	28.0801	0.072031	0.002038	35.3445	-51.4823	17.2211	0.004460	0.711596	-0.435160	-0.436559	0.005841	35.3445	-0.435284	-423412	-1.379559E-8	NaN
580	1.000000	0.722986	7.37072e+06	-48089.1	1005.82	-29763.6	0.000000	0.000000	6.723010	-0.029629	NaN	0.000000	0.001651	0.001800	28.0805	0.036549	0.002021	18.084	104.809	-165.176	-0.034589	0.721732	-0.425169	-0.426423	-0.029629	18.084	-0.423940	-292596	1.012637E-7	NaN
580	1.000000	0.732998	7.37072e+06	-48089.1	1005.82	-29763.6	0.000000	0.000000	6.733020	-0.053487	NaN	0.000000	0.001636	0.001800	28.0802	0.027858	0.001999	13.9335	-40.196	16.0618	-0.000829	0.731631	-0.415158	-0.416525	-0.053487	13.9335	-0.412279	-199892	2.675809E-7	NaN
580	1.000000	0.743017	7.37072e+06	-48089.1	1005.82	-29763.6	0.000000	0.000000	6.743043	0.022614	NaN	0.000000	0.001589	0.001787	28.0801	0.058895	0.001868	31.5363	-14.3568	-165.365	0.061627	0.741734	-0.405138	-0.406421	0.022614	31.5363	-0.405676	-161017	-1.404467E-7	NaN
580	1.000000	0.753020	7.37072e+06	-48089.1	1005.82	-29763.6	0.000000	0.000000	6.753042	-0.066181	NaN	0.000000	0.001574	0.001750	28.0803	0.071662	0.002091	34.2678	-67.5396	13.8422	-0.032666	0.751709	-0.395135	-0.396446	-0.066181	34.2678	-0.393687	-108612	6.093336E-7	NaN
580	1.000000	0.763011	7.37072e+06	-48089.1	1005.82	-29763.6	0.000000	0.000000	6.763035	-0.005045	NaN	0.000000	0.001571	0.001791	28.0805	0.103362	0.001895	54.5575	122.459	-168.849	0.058134	0.761780	-0.385145	-0.386376	-0.005045	54.5575	-0.385075	-81783.3	6.168947E-8	NaN
580	1.000000	0.773011	7.37072e+06	-48089.1	1005.82	-29763.6	0.000000	0.000000	6.773034	-0.042169	NaN	0.000000	0.001567	0.001770	28.0789	0.072469	0.001960	36.9777	94.257	13.0226	-0.029644	0.771713	-0.375145	-0.376443	-0.042169	36.9777	-0.374289	-57260.5	7.364455E-7	NaN
580	1.000000	0.783027	7.37072e+06	-48089.1	1005.82	-29763.6	0.000000	0.000000	6.783052	0.009681	NaN	0.000000	0.001563	0.001756	28.0789	0.011472	0.002096	5.474379	-60.8314	-163.94	0.025515	0.781720	-0.365128	-0.366435	0.009681	5.474379	-0.366454	-44160.4	-2.192325E-7	NaN
580	1.000000	0.793035	7.37072e+06	-48089.1	1005.82	-29763.6	0.000000	0.000000	6.793058	-0.038286	NaN	0.000000	0.001569	0.001767	28.0791	0.013012	0.001976	6.585736	-38.0745	15.7541	-0.058333	0.791730	-0.355120	-0.356425	-0.038286	6.585736	-0.350760	-26183.7	1.462202E-6	NaN
580	1.000000	0.803048	7.37072e+06	-48089.1	1005.82	-29763.6	0.000000	0.000000	6.803075	0.046402	NaN	0.000000	0.001606	0.001754	28.0791	0.105552	0.002003	52.6967	-141.976	-166.373	0.097941	0.801751	-0.345107	-0.346405	0.046402	52.6967	-0.345768	-22157.4	-2.094196E-6	NaN
580	1.000000	0.813035	7.37072e+06	-48089.1	1005.82	-29763.6	0.000000	0.000000	6.813058	-0.041473	NaN	0.000000	0.001561	0.001738	28.0791	0.053674	0.001892	28.3712	97.7611	13.3593	-0.058487	0.811718	-0.335120	-0.336437	-0.041473	28.3712	-0.334024	-14939.1	2.776160E-6	NaN
580	1.000000	0.823043	7.37072e+06	-48089.1	1005.82	-29763.6	0.000000	0.000000	6.823067	-0.028111	NaN	0.000000	0.001568	0.001733	28.0789	0.048057	0.002035	23.6121	105.478	-163.921	-0.082227	0.821766	-0.325112	-0.326389	-0.028111	23.6121	-0.324219	-10731.7	2.619458E-6	NaN
580	1.000000	0.833051	7.37073e+06	-48089.1	1005.82	-29763.6	0.000000	0.000000	6.833074	-0.060011	NaN	0.000000	0.001545	0.001770	28.079	0.089039	0.001983	44.8957	-170.35	14.9461	0.062273	0.831704	-0.315104	-0.316452	-0.060011	44.8957	-0.314102	-7615.27	7.880294E-6	NaN
580	1.000000	0.843052	7.37073e+06	-48089.1	1005.82	-29763.6	0.000000	0.000000	6.843075	-0.046371	NaN	0.000000	0.001549	0.001749	28.0789	0.049779	0.001929	25.8108	94.4414	-164.38	-0.025414	0.841773	-0.305103	-0.306382	-0.046371	25.8108	-0.303756	-5351.61	8.664817E-6	NaN
580	1.000000	0.853088	7.37073e+06	-48089.1	1005.82	-29763.6	0.000000	0.000000	6.853113	0.022864	NaN	0.000000	0.001552	0.001816	28.0791	0.083159	0.002014	41.2922	-175.181	11.0375	-0.010250	0.851690	-0.295068	-0.296465	0.022864	41.2922	-0.295483	-4029.94	-5.673449E-6	NaN
580	1.000000	0.863065	7.37073e+06	-48089.1	1005.82	-29763.6	0.000000	0.000000	6.863091	0.034893	NaN	0.000000	0.001556	0.001783	28.0788	0.050754	0.001956	25.9439	-67.4306	-166.525	-0.052988	0.861760	-0.285091	-0.286396	0.034893	25.9439	-0.286099	-2915.98	-1.196596E-5	NaN
580	1.000000	0.873055	7.37073e+06	-48089.1	1005.82	-29763.6	0.000000	0.000000	6.873081	0.039874	NaN	0.000000	0.001565	0.001714	28.0791	0.025856	0.002065	12.5181	-88.8301	12.549	-0.002840	0.871685	-0.275100	-0.276471	0.039874	12.5181	-0.277489	-2163.01	-1.843469E-5	NaN
580	1.000000	0.883068	7.37073e+06	-48089.1	1005.82	-29763.6	0.000000	0.000000	6.883092	-0.020915	NaN	0.000000	0.001541	0.001769	28.0791	0.105539	0.001956	53.9455	-112.055	-166.338	0.001676	0.881759	-0.265087	-0.266397	-0.020915	53.9455	-0.264797	-1387.67	1.507235E-5	NaN
580	1.000000	0.893085	7.37073e+06	-48089.1	1005.82	-29763.6	0.000000	0.000000	6.893109	-0.015480	NaN	0.000000	0.001541	0.001737	28.0791	0.067593	0.001965	34.3985	7.282455	18.781	-0.060838	0.891787	-0.255071	-0.256368	-0.015480	34.3985	-0.254733	-972.759	1.591325E-5	NaN
580	1.000000	0.903100	7.37073e+06	-48089.1	1005.82	-29763.6	0.000000	0.000000	6.903121	-0.069343	NaN	0.000000	0.001573	0.001763	28.08	0.038207	0.001952	19.5745	-47.7895	-164.458	-0.091117	0.901789	-0.245056	-0.246366	-0.069343	19.5745	-0.242399	-626.58	0.000111	NaN
580	1.000000	0.913098	7.37073e+06	-48089.1	1005.82	-29763.6	0.000000	0.000000	6.913123	0.017257	NaN	0.000000	0.001548	0.001766	28.0806	0.029885	0.001971	15.1592	-102.916	12.7787	-0.061221	0.911771	-0.235057	-0.236384	0.017257	15.1592	-0.235911	-496.077	-3.478655E-5	NaN
580	1.000000	0.923116	7.37073e+06	-48089.1	1005.82	-29763.6	0.000000	0.000000	6.923138	-0.054699	NaN	0.000000	0.001505	0.001755	28.0801	0.099201	0.001944	51.0197	142.967	-165.966	-0.025937	0.921801	-0.225040	-0.226354	-0.054699	51.0197	-0.224235	-324.479	0.000169	NaN
580	1.000000	0.933093	7.37073e+06	-48089.1	1005.82	-29763.6	0.000000	0.000000	6.933120	0.066687	NaN	0.000000	0.001555	0.001702	28.0803	0.091350	0.002059	44.3636	142.198	15.2874	-0.024321	0.931765	-0.215063	-0.216390	0.066687	44.3636	-0.216190	-241.347	-0.000276	NaN
580	1.000000	0.943119	7.37073e+06	-48089.1	1005.82	-29763.6	0.000000	0.000000	6.943143	-0.029397	NaN	0.000000	0.001551	0.001702	28.0803	0.122195	0.001940	62.978	97.1307	-173.255	0.014877	0.941770	-0.205036	-0.206386	-0.029397	62.978	-0.204686	-157.195	0.000187	NaN
580	1.000000	0.953106	7.37073e+06	-48089.1	1005.82	-29763.6	0.000000	0.000000	6.953129	-0.031218	NaN	0.000000	0.001551	0.001691	28.0804	0.036027	0.002137	16.8618	31.2315	12.6669	0.014021	0.951744	-0.195050	-0.196411	-0.031218	16.8618	-0.193661	-103.513	0.000302	NaN
580	1.000000	0.963117	7.37073e+06	-48089.1	1005.82	-29763.6	0.000000	0.000000	6.963144	0.047147	NaN	0.000000	0.001533	0.001681	28.0802	0.045830	0.002061	22.2414	154.064	-170.285	0.053713	0.961790	-0.185038	-0.186366	0.047147	22.2414	-0.186628	-78.982	-0.000597	NaN
580	1.000000	0.973127	7.37073e+06	-48089.1	1005.82	-29763.6	0.000000	0.000000	6.973151	-0.023630	NaN	0.000000	0.001550	0.001705	28.0803	0.019544	0.002068	9.451855	22.126	16.2765	-0.084839	0.971695	-0.175028	-0.176461	-0.023630	9.451855	-0.173153	-46.5781	0.000507	NaN
580	1.000000	0.983113	7.37073e+06	-48089.1	1005.82	-29763.6	0.000000	0.000000	6.983137	-0.004111	NaN	0.000000	0.001572	0.001734	28.0803	0.107971	0.002045	52.7902	-121.927	-168.364	-0.030090	0.981771	-0.165043	-0.166384	-0.004111	52.7902	-0.164984	-33.5761	0.000122	NaN
580	1.000000	0.993135	7.37073e+06	-48089.1	1005.82	-29763.6	0.000000	0.000000	6.993159	-0.014514	NaN	0.000000	0.001540	0.001714	28.0802	0.063694	0.001883	33.8334	161.349	16.9595	-0.032923	0.991760	-0.155020	-0.156395	-0.014514	33.8334	-0.154699	-22.0371	0.000659	NaN
580	1.000000	1.003117	7.37073e+06	-48089.1	1005.82	-29763.6	0.000000	0.000000	7.003141	-0.014515	NaN	0.000000	0.001560	0.001706	28.0801	0.102493	0.001921	53.3675	151.963	-165.142	-0.081355	1.001799	-0.145038	-0.146356	-0.014515	53.3675	-0.144834	-14.558	0.000997	NaN
580	1.000000	1.013115	7.37073e+06	-48089.1	1005.82	-29763.6	0.000000	0.000000	7.013140	0.014996	NaN	0.000000	0.001522	0.001707	28.0803	0.081688	0.002099	38.9146	171.019	14.1015	5.375893E-5	1.011743	-0.135041	-0.136412	0.014996	38.9146	-0.135330	-9.651235	-0.001554	NaN
580	1.000000	1.023141	7.37073e+06	-48089.1	1005.82	-29763.6	0.000000	0.000000	7.023166	0.013401	NaN	0.000000	0.001557	0.001709	28.0803	0.025397	0.002047	12.405	-47.9212	-162.596	0.005913	1.021834	-0.125014	-0.126321	0.013401	12.405	-0.125824	-6.313670	-0.002123	NaN
580	1.000000	1.033135	7.37073e+06	-48089.1	1005.82	-29763.6	0.000000	0.000000	7.033160	0.015986	NaN	0.000000	0.001530	0.001746	28.0802	0.066069	0.002167	30.4933	-98.7042	14.9107	0.051265	1.031709	-0.115020	-0.116446	0.015986	30.4933	-0.115414	-3.896033	-0.004103	NaN
580	1.000000	1.043149	7.37073e+06	-48089.1	1005.82	-29763.6	0.000000	0.000000	7.043173	-0.025713	NaN	0.000000	0.001541	0.001717	28.0789	0.005225	0.001783	2.930224	-136.941	-165.902	-0.009523	1.041841	-0.105006	-0.106315	-0.025713	2.930224	-0.098425	-1.685414	0.015256	NaN
580	1.000000	1.053139	7.37073e+06	-48089.1	1005.82	-29763.6	0.000000	0.000000	7.053165	0.036450	NaN	0.000000	0.001522	0.001728	28.0791	0.050913	0.001785	28.525	30.1516	14.9957	0.048706	1.051768	-0.095016	-0.096387	0.036450	28.525	-0.095975	-1.484445	-0.024554	NaN
580	1.000000	1.063154	7.37073e+06	-48089.1	1005.82	-29763.6	0.000000	0.000000	7.063175	-0.100643	NaN	0.000000	0.001527	0.001785	28.0789	0.103096	0.001928	53.4672	-138.466	-166.941	-0.075697	1.061811	-0.085001	-0.086344	-0.100643	53.4672	-0.083589	-0.759245	0.132557	NaN
580	1.000000	1.073130	7.37073e+06	-48089.1	1005.82	-29763.6	0.000000	0.000000	7.073154	-0.014635	NaN	0.000000	0.001549	0.001772	28.079	0.131816	0.001926	68.4436	110.888	14.3872	-0.048606	1.071762	-0.075025	-0.076393	-0.014635	68.4436	-0.074865	-0.458167	0.031943	NaN
580	1.000000	1.083149	7.37073e+06	-48089.1	1005.82	-29763.6	0.000000	0.000000	7.083176	0.055154	NaN	0.000000	0.001552	0.001737	28.0788	0.047423	0.002033	23.3211	150.523	-167.445	0.096076	1.081821	-0.065007	-0.066335	0.055154	23.3211	-0.066780	-0.279036	-0.197659	NaN
580	1.000000	1.093128	7.37073e+06	-48089.1	1005.82	-29763.6	0.000000	0.000000	7.093152	-0.010098	NaN	0.000000	0.001538	0.001804	28.0792	0.096386	0.001980	48.6724	128.451	15.3885	-0.016189	1.091814	-0.055027	-0.056341	-0.010098	48.6724	-0.054872	-0.127659	0.079103	NaN
580	1.000000	1.103166	7.37073e+06	-48089.1	1005.82	-29763.6	0.000000	0.000000	7.103191	0.002116	NaN	0.000000	0.001536	0.001745	28.0788	0.044983	0.001953	23.0313	46.6384	-164.702	0.057504	1.101859	-0.044989	-0.046297	0.002116	23.0313	-0.045058	-0.064532	-0.032791	NaN
580	1.000000	1.113167	7.37073e+06	-48089.1	1005.82	-29763.6	0.000000	0.000000	7.113189	-0.064784	NaN	0.000000	0.001551	0.001736	28.0788	0.047842	0.001972	24.2574	50.8088	12.86	-0.065075	1.111794	-0.034988	-0.036361	-0.064784	24.2574	-0.032985	-0.027971	2.316125	NaN
580	1.000000	1.123163	7.37073e+06	-48089.1	1005.82	-29763.6	0.000000	0.000000	7.123185	-0.070095	NaN	0.000000	0.001597	0.001748	28.079	0.022447	0.001986	11.3046	-145.344	-167.883	-0.033743	1.121862	-0.024993	-0.026294	-0.070095	11.3046	-0.020342	-0.012815	5.469722	NaN
580	1.000000	1.133186	7.37073e+06	-48089.1	1005.82	-29763.6	0.000000	0.000000	7.133209	-0.018884	NaN	0.000000	0.001589	0.001755	28.0789	0.001644	0.001869	0.879601	-144.609	14.5138	-0.004345	1.131809	-0.014970	-0.016346	-0.018884	0.879601	0.001132	0.000865	-21.8408	27.3306
580	1.000000	1.143143	7.37073e+06	-48089.1	1005.82	-29763.6	0.000000	0.000000	7.143188	0.500210	NaN	0.000000	0.001570	0.001740	28.079	0.832378	0.002020	412.067	11.9281	-166.443	0.027845	1.141876	-0.005012	-0.006279	0.500210	412.067	-0.005923	-0.003989	-125.399	NaN
580	2.000000	1.152161	7.37073e+06	-48089.1	1005.82	-29763.6	0.000000	0.000000	7.152590	9.835503	NaN	0.000000	0.001629	0.001710	28.0788	9.906573	0.001602	6184	9.357458	6.537191	9.108948	1.151589	0.004005	0.003433	9.835503	6184	0.002813	0.002223	4424.93	119839
580	2.000000	1.154713	7.37073e+06	-48089.1	1005.82	-29763.6	0.000000	0.000000	7.155235	12.0996	NaN	0.000000	0.001650	0.001723	28.0796	12.5532	0.001849	6790.97	8.614793	-173.935	12.1754	1.154393	0.006558	0.006238	12.0996	6790.97	0.005221	0.004336	2790.27	94219.6
580	2.000000	1.157190	7.37073e+06	-48089.1	1005.82	-29763.6	0.000000	0.000000	7.157961	18.1489	NaN	0.000000	0.001608	0.001743	28.0786	15.1808	0.001647	9218.79	4.708687	5.382976	17.1721	1.156828	0.009035	0.008673	18.1489	9218.79	0.007558	0.006592	2753.17	103738
580	2.000000	1.159616	7.37073e+06	-48089.1	1005.82	-29763.6	0.000000	0.000000	7.160579	22.8277	NaN	0.000000	0.001612	0.001713	28.0806	17.9356	0.001709	10492.3	7.264578	-178.291	21.1249	1.159308	0.011460	0.011153	22.8277	10492.3	0.009829	0.008992	2538.8	101095
580	2.000000	1.162181	7.37073e+06	-48089.1	1005.82	-29763.6	0.000000	0.000000	7.163256	25.5406	NaN	0.000000	0.001615	0.001770	28.0801	21.2857	0.001890	11262.2	11.082	-1.568838	26.3304	1.161796	0.014026	0.013641	25.5406	11262.2	0.012325	0.011881	2149.65	94398.2
580	2.000000	1.164683	7.37073e+06	-48089.1	1005.82	-29763.6	0.000000	0.000000	7.165955	30.3382	NaN	0.000000	0.001615	0.001754	28.0805	23.3983	0.001733	13504.9	5.253481	-178.376	30.8532	1.164354	0.016528	0.016198	30.3382	13504.9	0.014843	0.015076	2012.33	100489
580	2.000000	1.167180	7.37073e+06	-48089.1	1005.82	-29763.6	0.000000	0.000000	7.168786	38.457	NaN	0.000000	0.001589	0.001774	28.0798	25.0065	0.001767	14148.3	5.041681	3.284827	37.6759	1.166757	0.019024	0.018602	38.457	14148.3	0.016986	0.018025	2133.51	96280.3
580	2.000000	1.169638	7.37073e+06	-48089.1	1005.82	-29763.6	0.000000	0.000000	7.171381	41.7919	NaN	0.000000	0.001577	0.001753	28.0808	27.3029	0.001691	16144.1	7.241780	178.058	40.4466	1.169293	0.021483	0.021138	41.7919	16144.1	0.019542	0.021827	1914.68	99836.3
580	2.000000	1.172129	7.37073e+06	-48089.1	1005.82	-29763.6	0.000000	0.000000	7.174237	50.6759	NaN	0.000000	0.001547	0.001761	28.08	29.5969	0.001789	16542.3	5.140626	0.776186	48.9421	1.171746	0.023974	0.023590	50.6759	16542.3	0.021676	0.025245	2007.4	95122.9
580	2.000000	1.174582	7.37073e+06	-48089.1	1005.82	-29763.6	0.000000	0.000000	7.177100	60.6368	NaN	0.000000	0.001592	0.001721	28.0806	32.9328	0.001814	18154.3	6.388627	177.905	58.5137	1.174267	0.026427	0.026112	60.6368	18154.3	0.023922	0.029083	2084.95	97259.8
580	2.000000	1.177157	7.37073e+06	-48089.1	1005.82	-29763.6	0.000000	0.000000	7.179873	65.4542	NaN	0.000000	0.001588	0.001741	28.0798	34.991	0.001769	19784.2	6.540886	-2.353742	65.3534	1.176717	0.029002	0.028562	65.4542	19784.2	0.026520	0.033840	1934.24	98260.2
580	2.000000	1.179568	7.37073e+06	-48089.1	1005.82	-29763.6	0.000000	0.000000	7.182726	76.2054	NaN	0.000000	0.001583	0.001744	28.08	37.2948	0.001885	19787.2	6.210100	178.133	74.4668	1.179281	0.031413	0.031126	76.2054	19787.2	0.028524	0.037740	2019.2	93058
580	2.000000	1.182128	7.37073e+06	-48089.1	1005.82	-29763.6	0.000000	0.000000	7.185627	84.5063	NaN	0.000000	0.001596	0.001741	28.0802	39.3482	0.001687	23321.9	3.548881	-0.869499	82.8964	1.181749	0.033973	0.033593	84.5063	23321.9	0.031255	0.043386	1947.79	102297
580	2.000000	1.184600	7.37073e+06	-48089.1	1005.82	-29763.6	0.000000	0.000000	7.188489	93.9752	NaN	0.000000	0.001587	0.001737	28.0812	43.0376	0.001810	23778.8	3.623486	178.793	93.6633	1.184276	0.036445	0.036121	93.9752	23778.8	0.033481	0.048268	1946.94	98885.5
580	2.000000	1.187098	7.37073e+06	-48089.1	1005.82	-29763.6	0.000000	0.000000	7.191279	101.106	NaN	0.000000	0.001635	0.001728	28.0799	45.1616	0.001817	24858.2	3.637131	-2.064963	98.6252	1.186757	0.038942	0.038601	101.106	24858.2	0.035892	0.053843	1877.79	97876.3
580	2.000000	1.189508	7.37073e+06	-48089.1	1005.82	-29763.6	0.000000	0.000000	7.194281	115.472	NaN	0.000000	0.001609	0.001717	28.08	47.945	0.001842	26031.9	8.659181	171.792	111.3	1.189274	0.041353	0.041119	115.472	26031.9	0.038026	0.059027	1956.26	97893.5
580	2.000000	1.192079	7.37073e+06	-48089.1	1005.82	-29763.6	0.000000	0.000000	7.197076	120.938	NaN	0.000000	0.001622	0.001721	28.0789	50.0941	0.001896	26424	5.251378	-3.669870	119.254	1.191678	0.043924	0.043522	120.938	26424	0.040491	0.065304	1851.91	94471.6
580	2.000000	1.194521	7.37073e+06	-48089.1	1005.82	-29763.6	0.000000	0.000000	7.200036	133.54	NaN	0.000000	0.001567	0.001744	28.0792	51.3301	0.001806	28416.2	3.732171	176.911	130.536	1.194299	0.046366	0.046144	133.54	28416.2	0.042841	0.071577	1865.68	97040.2
580	2.000000	1.197094	7.37073e+06	-48089.1	1005.82	-29763.6	0.000000	0.000000	7.203068	144.685	NaN	0.000000	0.001560	0.001722	28.0785	53.0168	0.001804	29391.6	5.822161	-4.107589	143.519	1.196692	0.048939	0.048537	144.685	29391.6	0.045247	0.078290	1848.07	95971.5
580	2.000000	1.199479	7.37073e+06	-48089.1	1005.82	-29763.6	0.000000	0.000000	7.205930	156.319	NaN	0.000000	0.001566	0.001736	28.0787	54.9508	0.001783	30820.6	2.438353	177.759	150.428	1.199180	0.051323	0.051024	156.319	30820.6	0.047519	0.084900	1841.2	96640.6
580	2.000000	1.202030	7.37073e+06	-48089.1	1005.82	-29763.6	0.000000	0.000000	7.209214	174.136	NaN	0.000000	0.001595	0.001744	28.0788	58.5237	0.001780	32875.9	5.630108	-5.673662	170.67	1.201616	0.053875	0.053461	174.136	32875.9	0.049902	0.092111	1890.49	98967.8
580	2.000000	1.204607	7.37073e+06	-48089.1	1005.82	-29763.6	0.000000	0.000000	7.212188	183.784	NaN	0.000000	0.001566	0.001756	28.0786	62.3885	0.001910	32669.4	5.619477	174.147	185.778	1.204278	0.056451	0.056123	183.784	32669.4	0.052232	0.099437	1848.25	94654.2
580	2.000000	1.207026	7.37073e+06	-48089.1	1005.82	-29763.6	0.000000	0.000000	7.215208	198.398	NaN	0.000000	0.001580	0.001754	28.0786	62.5438	0.001810	34547.7	1.677795	-2.463807	192.435	1.206605	0.058871	0.058450	198.398	34547.7	0.054564	0.107040	1853.5	96476.2
580	2.000000	1.209518	7.37073e+06	-48089.1	1005.82	-29763.6	0.000000	0.000000	7.218318	213.444	NaN	0.000000	0.001601	0.001758	28.079	64.9234	0.001811	35852.8	2.531252	176.535	209.114	1.209209	0.061363	0.061054	213.444	35852.8	0.056898	0.114920	1857.33	96627.1
580	2.000000	1.212091	7.37073e+06	-48089.1	1005.82	-29763.6	0.000000	0.000000	7.221280	222.898	NaN	0.000000	0.001570	0.001760	28.0785	68.2195	0.001750	38974	6.511764	-7.681011	223.008	1.211694	0.063936	0.063539	222.898	38974	0.059646	0.124543	1789.72	100899
580	2.000000	1.214577	7.37073e+06	-48089.1	1005.82	-29763.6	0.000000	0.000000	7.224457	239.697	NaN	0.000000	0.001577	0.001762	28.0787	71.2917	0.001805	39504.9	6.558238	172.237	240.704	1.214221	0.066422	0.066066	239.697	39504.9	0.061871	0.132604	1807.62	99116.4
580	2.000000	1.217037	7.37073e+06	-48089.1	1005.82	-29763.6	0.000000	0.000000	7.227669	257.971	NaN	0.000000	0.001582	0.001755	28.0786	72.2711	0.001783	40539.4	3.333393	-4.828208	253.55	1.216586	0.068882	0.068430	257.971	40539.4	0.064110	0.140956	1830.16	98652.8
580	2.000000	1.219583	7.37073e+06	-48089.1	1005.82	-29763.6	0.000000	0.000000	7.230418	262.933	NaN	0.000000	0.001568	0.001754	28.0789	74.2553	0.001840	40356.4	1.293931	176.459	262.98	1.219378	0.071428	0.071223	262.933	40356.4	0.066541	0.150304	1749.34	95104.3
580	2.000000	1.222055	7.37073e+06	-48089.1	1005.82	-29763.6	0.000000	0.000000	7.233640	281.157	NaN	0.000000	0.001579	0.001739	28.0785	76.9449	0.001812	42466.7	5.199509	-7.783709	279.904	1.221756	0.073900	0.073600	281.157	42466.7	0.068935	0.159781	1759.64	97064.3
580	2.000000	1.224546	7.37073e+06	-48089.1	1005.82	-29763.6	0.000000	0.000000	7.236862	298.95	NaN	0.000000	0.001541	0.001760	28.0787	80.5914	0.001862	43277.5	6.343215	170.867	296.898	1.224287	0.076391	0.076132	298.95	43277.5	0.071210	0.169044	1768.48	96169
580	2.000000	1.227071	7.37073e+06	-48089.1	1005.82	-29763.6	0.000000	0.000000	7.240142	317.314	NaN	0.000000	0.001535	0.001738	28.0798	81.3028	0.001722	47223.2	4.684348	-7.633267	314.086	1.226688	0.078916	0.078532	317.314	47223.2	0.073877	0.180214	1760.76	101633
580	2.000000	1.229547	7.37073e+06	-48089.1	1005.82	-29763.6	0.000000	0.000000	7.242867	323.359	NaN	0.000000	0.001579	0.001728	28.0804	82.7625	0.001794	46129.3	0.771989	176.318	321.783	1.229401	0.081392	0.081245	323.359	46129.3	0.076135	0.189935	1702.47	96704.7
580	2.000000	1.232060	7.37073e+06	-48089.1	1005.82	-29763.6	0.000000	0.000000	7.246282	345.303	NaN	0.000000	0.001544	0.001745	28.0798	86.496	0.001851	46723.2	5.615621	-8.786235	344.533	1.231728	0.083905	0.083573	345.303	46723.2	0.078362	0.199758	1728.61	95511.1
580	2.000000	1.234520	7.37073e+06	-48089.1	1005.82	-29763.6	0.000000	0.000000	7.249799	371.024	NaN	0.000000	0.001585	0.001763	28.08	88.9095	0.001902	46744.6	6.343402	171.32	371.076	1.234158	0.086365	0.086003	371.024	46744.6	0.080412	0.209002	1775.22	93417.7
580	2.000000	1.237057	7.37073e+06	-48089.1	1005.82	-29763.6	0.000000	0.000000	7.253202	392.078	NaN	0.000000	0.001591	0.001764	28.0798	90.208	0.001725	52282.2	8.566095	-11.7512	392.503	1.236569	0.088902	0.088414	392.078	52282.2	0.083277	0.222253	1764.11	101322
580	2.000000	1.239463	7.37073e+06	-48089.1	1005.82	-29763.6	0.000000	0.000000	7.256532	414.564	NaN	0.000000	0.001585	0.001746	28.0808	91.8467	0.001834	50092.3	5.904416	171.475	410.181	1.239121	0.091308	0.090965	414.564	50092.3	0.085101	0.230883	1795.56	95246.5
580	2.000000	1.241999	7.37073e+06	-48089.1	1005.82	-29763.6	0.000000	0.000000	7.259833	433.184	NaN	0.000000	0.001611	0.001742	28.0797	94.3071	0.001762	53536	2.380293	-6.220638	429.992	1.241670	0.093843	0.093515	433.184	53536	0.087775	0.243816	1776.69	99057.8
580	2.000000	1.244583	7.37073e+06	-48089.1	1005.82	-29763.6	0.000000	0.000000	7.262969	446.593	NaN	0.000000	0.001614	0.001784	28.08	97.4256	0.001845	52807.2	3.940156	172.375	451.566	1.244313	0.096428	0.096158	446.593	52807.2	0.090085	0.255254	1749.6	95494.8
580	2.000000	1.246919	7.37073e+06	-48089.1	1005.82	-29763.6	0.000000	0.000000	7.266399	473.199	NaN	0.000000	0.001617	0.001770	28.0794	98.88	0.001794	55111.1	5.254882	-8.811736	463.625	1.246521	0.098764	0.098365	473.199	55111.1	0.092324	0.266573	1775.12	97522.3
580	2.000000	1.249519	7.37073e+06	-48089.1	1005.82	-29763.6	0.000000	0.000000	7.269778	492.144	NaN	0.000000	0.001575	0.001762	28.08	100.237	0.001759	56977.4	3.397496	172.701	489.874	1.249104	0.101363	0.100948	492.144	56977.4	0.094885	0.279804	1758.88	98412
580	2.000000	1.250467	7.37073e+06	-48089.1	1005.82	-29763.6	0.000000	0.000000	7.271166	502.851	NaN	0.000000	0.001570	0.001790	28.0796	103.512	0.001853	55861.5	4.589123	171.781	498.021	1.250154	0.102311	0.101999	502.851	55861.5	0.095560	0.283339	1774.73	95881