File: remote_trans/data/nanoindenter/0828-1/data/Data_2025-08-06,11h17m57s/2025-07-22_16-23-58_1_1160.txt
2025-07-22, 16:23:58, 1
Index	Phase	Displacement	Time	Pos X	Pos Y	Pos Z	Rot A	Rot B	Piezo Z	Force A	Force B	Gripper	Voltage A	Voltage B	Temperature	Amplitude force	Amplitude pos	Stiffness	Phase shift	Phase excitation	Force A raw	Displacement raw	HMax	HMax raw	Real Force	Real Stiffness	Contact Depth	Area	Hardness	Reduced Mod.
[#]	[#]	[um]	[s]	[um]	[um]	[um]	[m°]	[m°]	[um]	[uN]	[uN]	[V]	[V]	[V]	[°C]	[uN]	[um]	[N/m]	[°]	[°]	[uN]	[um]	[um]	[um]	[uN]	[N/m]	[um]	[um^2]	[MPa]	[MPa]
1160	1.000000	0.002699	7.3764e+06	-57589.1	1105.82	-29736.5	0.000000	0.000000	6.002767	-0.039460	NaN	0.000000	0.001615	0.001671	28.0829	0.007685	0.000916	8.386832	52.0887	-163.555	0.018565	0.001450	-1.049941	-1.051189	-0.039460	8.386832	-1.046412	-9.553795E+13	4.130311E-16	NaN
1160	1.000000	0.010690	7.3764e+06	-57589.1	1105.82	-29736.5	0.000000	0.000000	6.010756	-0.074051	NaN	0.000000	0.001648	0.001643	28.0828	0.050048	0.000906	55.258	58.2449	-164.785	-0.083457	0.009394	-1.041949	-1.043246	-0.074051	55.258	-1.040944	-8.066126E+13	9.180482E-16	NaN
1160	1.000000	0.018662	7.3764e+06	-57589.1	1105.82	-29736.5	0.000000	0.000000	6.018729	-0.050419	NaN	0.000000	0.001650	0.001686	28.0836	0.124455	0.001756	70.8822	57.825	-166.887	-0.133223	0.017384	-1.033977	-1.035255	-0.050419	70.8822	-1.033444	-6.394389E+13	7.884915E-16	NaN
1160	1.000000	0.026730	7.3764e+06	-57589.1	1105.82	-29736.5	0.000000	0.000000	6.026801	0.037995	NaN	0.000000	0.001651	0.001653	28.0836	0.129153	0.001887	68.446	166.195	-164.301	-0.052727	0.025353	-1.025910	-1.027287	0.037995	68.446	-1.026326	-5.129296E+13	-7.407444E-16	NaN
1160	1.000000	0.034684	7.3764e+06	-57589.1	1105.82	-29736.5	0.000000	0.000000	6.034755	0.038893	NaN	0.000000	0.001621	0.001699	28.0838	0.143946	0.001878	76.6372	-139.989	-165.029	-0.011580	0.033345	-1.017955	-1.019294	0.038893	76.6372	-1.018336	-4.004623E+13	-9.712020E-16	NaN
1160	1.000000	0.042662	7.3764e+06	-57589.1	1105.82	-29736.5	0.000000	0.000000	6.042731	-0.011568	NaN	0.000000	0.001638	0.001643	28.0843	0.090771	0.002015	45.0478	74.8026	-167.23	-0.027663	0.041367	-1.009977	-1.011272	-0.011568	45.0478	-1.009785	-3.072462E+13	3.765153E-16	NaN
1160	1.000000	0.050707	7.3764e+06	-57589.1	1105.82	-29736.5	0.000000	0.000000	6.050775	-0.020250	NaN	0.000000	0.001661	0.001679	28.0836	0.033245	0.001977	16.8152	-102.495	-162.89	0.052136	0.049374	-1.001933	-1.003265	-0.020250	16.8152	-1.001029	-2.342217E+13	8.645745E-16	NaN
1160	1.000000	0.058678	7.3764e+06	-57589.1	1105.82	-29736.5	0.000000	0.000000	6.058745	-0.057734	NaN	0.000000	0.001630	0.001691	28.0838	0.010891	0.002078	5.240899	-2.878612	-163.666	-0.078866	0.057387	-0.993962	-0.995253	-0.057734	5.240899	-0.985700	-1.456094E+13	3.965017E-15	NaN
1160	1.000000	0.066686	7.3764e+06	-57589.1	1105.82	-29736.5	0.000000	0.000000	6.066756	0.018908	NaN	0.000000	0.001709	0.001668	28.0834	0.082302	0.001978	41.606	-159.417	-161.602	0.038268	0.065380	-0.985954	-0.987259	0.018908	41.606	-0.986295	-1.483218E+13	-1.274765E-15	NaN
1160	1.000000	0.074680	7.3764e+06	-57589.1	1105.82	-29736.5	0.000000	0.000000	6.074749	-0.012824	NaN	0.000000	0.001726	0.001663	28.0834	0.023844	0.001902	12.5362	-45.479	-162.582	0.044677	0.073365	-0.977960	-0.979274	-0.012824	12.5362	-0.977193	-1.118369E+13	1.146643E-15	NaN
1160	1.000000	0.082677	7.3764e+06	-57589.1	1105.82	-29736.5	0.000000	0.000000	6.082744	-0.063152	NaN	0.000000	0.001690	0.001678	28.0837	0.030220	0.002052	14.7269	110.923	-165.542	-0.061281	0.081375	-0.969962	-0.971265	-0.063152	14.7269	-0.966746	-8.087359E+12	7.808763E-15	NaN
1160	1.000000	0.090714	7.3764e+06	-57589.1	1105.82	-29736.5	0.000000	0.000000	6.090780	-0.083456	NaN	0.000000	0.001742	0.001682	28.0838	0.064138	0.001951	32.8731	-1.990925	-166.571	-0.033264	0.089435	-0.961926	-0.963205	-0.083456	32.8731	-0.960022	-6.563900E+12	1.271446E-14	NaN
1160	1.000000	0.098722	7.3764e+06	-57589.1	1105.82	-29736.5	0.000000	0.000000	6.098791	-0.005554	NaN	0.000000	0.001710	0.001677	28.0841	0.058200	0.001980	29.3958	165.796	-162.456	-0.068061	0.097407	-0.953918	-0.955233	-0.005554	29.3958	-0.953776	-5.406914E+12	1.027272E-15	NaN
1160	1.000000	0.106705	7.3764e+06	-57589.1	1105.82	-29736.5	0.000000	0.000000	6.106772	-0.048066	NaN	0.000000	0.001707	0.001677	28.0838	0.065155	0.001919	33.9557	26.1773	-164.027	0.009971	0.105416	-0.945935	-0.947223	-0.048066	33.9557	-0.944873	-4.100890E+12	1.172079E-14	NaN
1160	1.000000	0.114691	7.3764e+06	-57589.1	1105.82	-29736.5	0.000000	0.000000	6.114758	-0.053700	NaN	0.000000	0.001704	0.001694	28.0838	0.024991	0.002081	12.0073	-162.228	-163.988	-0.132450	0.113434	-0.937949	-0.939205	-0.053700	12.0073	-0.934595	-2.979904E+12	1.802081E-14	NaN
1160	1.000000	0.122732	7.3764e+06	-57589.1	1105.82	-29736.5	0.000000	0.000000	6.122802	0.016714	NaN	0.000000	0.001740	0.001686	28.0838	0.040652	0.001939	20.9645	28.794	-165.904	-0.029374	0.121416	-0.929908	-0.931223	0.016714	20.9645	-0.930506	-2.624355E+12	-6.368845E-15	NaN
1160	1.000000	0.130735	7.3764e+06	-57589.1	1105.82	-29736.5	0.000000	0.000000	6.130801	-0.094480	NaN	0.000000	0.001726	0.001659	28.0837	0.056408	0.001958	28.8084	21.4809	-167.047	-0.066893	0.129452	-0.921904	-0.923188	-0.094480	28.8084	-0.919444	-1.860815E+12	5.077368E-14	NaN
1160	1.000000	0.138717	7.3764e+06	-57589.1	1105.82	-29736.5	0.000000	0.000000	6.138787	0.009892	NaN	0.000000	0.001761	0.001687	28.0841	0.101986	0.002107	48.4076	163.225	-162.931	-0.010569	0.137418	-0.913922	-0.915221	0.009892	48.4076	-0.914075	-1.574724E+12	-6.281793E-15	NaN
1160	1.000000	0.146708	7.3764e+06	-57589.1	1105.82	-29736.5	0.000000	0.000000	6.146771	-0.157537	NaN	0.000000	0.001719	0.001674	28.0834	0.075075	0.001832	40.9824	-174.799	-166.268	-0.161044	0.145409	-0.905932	-0.907230	-0.157537	40.9824	-0.903049	-1.117529E+12	1.409687E-13	NaN
1160	1.000000	0.154754	7.3764e+06	-57589.1	1105.82	-29736.5	0.000000	0.000000	6.154823	-0.021306	NaN	0.000000	0.001726	0.001662	28.0821	0.114714	0.001940	59.1339	150.914	-167.643	-0.011132	0.153451	-0.897885	-0.899188	-0.021306	59.1339	-0.897615	-9.437053E+11	2.257700E-14	NaN
1160	1.000000	0.162733	7.3764e+06	-57589.1	1105.82	-29736.5	0.000000	0.000000	6.162800	-0.059335	NaN	0.000000	0.001701	0.001677	28.0822	0.077423	0.002150	36.0186	21.3862	-167.899	-0.032605	0.161377	-0.889907	-0.891263	-0.059335	36.0186	-0.888671	-7.144159E+11	8.305375E-14	NaN
1160	1.000000	0.170759	7.3764e+06	-57589.1	1105.82	-29736.5	0.000000	0.000000	6.170828	0.009848	NaN	0.000000	0.001707	0.001670	28.0818	0.080316	0.002037	39.4254	-122.489	-162.667	0.074614	0.169445	-0.881881	-0.883194	0.009848	39.4254	-0.882068	-5.816693E+11	-1.693043E-14	NaN
1160	1.000000	0.178717	7.3764e+06	-57589.1	1105.82	-29736.5	0.000000	0.000000	6.178785	-0.050520	NaN	0.000000	0.001714	0.001644	28.0823	0.040519	0.001962	20.6498	-43.7984	-166.028	-0.024329	0.177462	-0.873922	-0.875178	-0.050520	20.6498	-0.872087	-4.262650E+11	1.185189E-13	NaN
1160	1.000000	0.186759	7.3764e+06	-57589.1	1105.82	-29736.5	0.000000	0.000000	6.186826	-0.061946	NaN	0.000000	0.001712	0.001621	28.0818	0.060073	0.001959	30.6681	-157.687	-165.773	-0.015692	0.185445	-0.865880	-0.867194	-0.061946	30.6681	-0.864365	-3.351175E+11	1.848474E-13	NaN
1160	1.000000	0.194731	7.3764e+06	-57589.1	1105.82	-29736.5	0.000000	0.000000	6.194798	-0.042932	NaN	0.000000	0.001728	0.001691	28.0821	0.041103	0.001996	20.5901	139.068	-168.033	-0.097137	0.193422	-0.857909	-0.859217	-0.042932	20.5901	-0.856345	-2.610036E+11	1.644896E-13	NaN
1160	1.000000	0.202718	7.3764e+06	-57589.1	1105.82	-29736.6	0.000000	0.000000	6.202786	-0.032227	NaN	0.000000	0.001681	0.001649	28.0819	0.071860	0.001963	36.6161	-12.6152	-166.239	-0.069012	0.201487	-0.849921	-0.851152	-0.032227	36.6161	-0.849261	-2.092829E+11	1.539860E-13	NaN
1160	1.000000	0.210737	7.3764e+06	-57589.1	1105.82	-29736.6	0.000000	0.000000	6.210804	-0.057875	NaN	0.000000	0.001703	0.001673	28.082	0.077474	0.002112	36.6828	168.12	-163.455	-0.047412	0.209435	-0.841902	-0.843204	-0.057875	36.6828	-0.840719	-1.603363E+11	3.609619E-13	NaN
1160	1.000000	0.218757	7.3764e+06	-57589.1	1105.82	-29736.6	0.000000	0.000000	6.218825	-0.018063	NaN	0.000000	0.001678	0.001652	28.0818	0.027640	0.002143	12.8987	-103.28	-165.903	-0.026897	0.217438	-0.833883	-0.835202	-0.018063	12.8987	-0.832832	-1.253638E+11	1.440810E-13	NaN
1160	1.000000	0.226719	7.3764e+06	-57589.1	1105.82	-29736.6	0.000000	0.000000	6.226787	-0.032168	NaN	0.000000	0.001681	0.001679	28.0819	0.062503	0.002033	30.7425	-68.9693	-166.241	-0.068933	0.225490	-0.825920	-0.827149	-0.032168	30.7425	-0.825136	-9.859258E+10	3.262696E-13	NaN
1160	1.000000	0.234746	7.3764e+06	-57589.1	1105.82	-29736.6	0.000000	0.000000	6.234812	-0.067227	NaN	0.000000	0.001675	0.001663	28.0821	0.121456	0.001945	62.4356	-160.639	-163.721	0.009865	0.233435	-0.817894	-0.819205	-0.067227	62.4356	-0.817086	-7.668276E+10	8.766946E-13	NaN
1160	1.000000	0.242752	7.3764e+06	-57589.1	1105.82	-29736.6	0.000000	0.000000	6.242816	-0.112643	NaN	0.000000	0.001637	0.001659	28.0818	0.057889	0.002009	28.8088	21.0466	-161.898	-0.024585	0.241380	-0.809888	-0.811259	-0.112643	28.8088	-0.806955	-5.588048E+10	2.015790E-12	NaN
1160	1.000000	0.250769	7.3764e+06	-57589.1	1105.82	-29736.6	0.000000	0.000000	6.250834	-0.106603	NaN	0.000000	0.001661	0.001656	28.0818	0.070012	0.001946	35.986	4.027696	-163.809	-0.079250	0.249474	-0.801870	-0.803166	-0.106603	35.986	-0.799649	-4.447260E+10	2.397048E-12	NaN
1160	1.000000	0.258766	7.3764e+06	-57589.1	1105.82	-29736.6	0.000000	0.000000	6.258833	-0.047003	NaN	0.000000	0.001629	0.001690	28.0819	0.081262	0.001962	41.4154	103.774	-163.645	-0.081356	0.257473	-0.793874	-0.795167	-0.047003	41.4154	-0.793023	-3.615195E+10	1.300149E-12	NaN
1160	1.000000	0.266753	7.3764e+06	-57589.1	1105.82	-29736.6	0.000000	0.000000	6.266820	-0.042920	NaN	0.000000	0.001663	0.001644	28.082	0.040878	0.002013	20.3122	-12.4224	-165.645	-0.027831	0.265481	-0.785887	-0.787159	-0.042920	20.3122	-0.784302	-2.752233E+10	1.559444E-12	NaN
1160	1.000000	0.274772	7.3764e+06	-57589.1	1105.82	-29736.6	0.000000	0.000000	6.274840	-0.040821	NaN	0.000000	0.001723	0.001640	28.082	0.039038	0.001983	19.6865	-27.1881	-165.813	-0.041284	0.273427	-0.777867	-0.779212	-0.040821	19.6865	-0.776312	-2.143456E+10	1.904455E-12	NaN
1160	1.000000	0.282777	7.3764e+06	-57589.1	1105.82	-29736.6	0.000000	0.000000	6.282845	-0.033674	NaN	0.000000	0.001703	0.001692	28.0819	0.096350	0.001986	48.5051	88.385	-158.637	-0.010590	0.281460	-0.769862	-0.771179	-0.033674	48.5051	-0.769341	-1.723253E+10	1.954085E-12	NaN
1160	1.000000	0.290786	7.3764e+06	-57589.1	1105.82	-29736.6	0.000000	0.000000	6.290853	-0.053941	NaN	0.000000	0.001691	0.001672	28.0831	0.107761	0.001966	54.8174	-166.138	-161.155	-0.072293	0.289485	-0.761854	-0.763154	-0.053941	54.8174	-0.761116	-1.331930E+10	4.049800E-12	NaN
1160	1.000000	0.298775	7.3764e+06	-57589.1	1105.82	-29736.6	0.000000	0.000000	6.298845	0.032746	NaN	0.000000	0.001731	0.001713	28.0829	0.083551	0.002015	41.4712	47.2753	-166.118	-0.044498	0.297480	-0.753865	-0.755159	0.032746	41.4712	-0.754457	-1.081141E+10	-3.028849E-12	NaN
1160	1.000000	0.306791	7.3764e+06	-57589.1	1105.82	-29736.6	0.000000	0.000000	6.306858	-0.058059	NaN	0.000000	0.001732	0.001679	28.083	0.030625	0.001857	16.4932	146.598	-164.638	-0.017409	0.305489	-0.745848	-0.747151	-0.058059	16.4932	-0.743208	-7.598785E+9	7.640572E-12	NaN
1160	1.000000	0.314789	7.3764e+06	-57589.1	1105.82	-29736.6	0.000000	0.000000	6.314856	-0.048005	NaN	0.000000	0.001757	0.001683	28.083	0.119551	0.002063	57.9555	-177.669	-164.888	-0.016282	0.313488	-0.737851	-0.739152	-0.048005	57.9555	-0.737229	-6.299642E+9	7.620268E-12	NaN
1160	1.000000	0.322775	7.3764e+06	-57589.1	1105.82	-29736.6	0.000000	0.000000	6.322841	-0.086230	NaN	0.000000	0.001691	0.001700	28.0834	0.055885	0.001955	28.5825	-54.4452	-163.422	-0.087427	0.321538	-0.729864	-0.731101	-0.086230	28.5825	-0.727602	-4.657135E+9	1.851574E-11	NaN
1160	1.000000	0.330802	7.3764e+06	-57589.1	1105.82	-29736.6	0.000000	0.000000	6.330869	-0.054193	NaN	0.000000	0.001663	0.001687	28.0834	0.122465	0.001973	62.0579	49.3054	-165.035	-0.077294	0.329543	-0.721838	-0.723096	-0.054193	62.0579	-0.721183	-3.807186E+9	1.423439E-11	NaN
1160	1.000000	0.338808	7.3764e+06	-57589.1	1105.82	-29736.6	0.000000	0.000000	6.338876	-0.030001	NaN	0.000000	0.001678	0.001647	28.083	0.112932	0.002077	54.3828	49.9633	-165.653	0.001766	0.337521	-0.713832	-0.715119	-0.030001	54.3828	-0.713418	-2.983235E+9	1.005637E-11	NaN
1160	1.000000	0.346775	7.3764e+06	-57589.1	1105.82	-29736.6	0.000000	0.000000	6.346844	-0.005660	NaN	0.000000	0.001661	0.001648	28.0832	0.084658	0.002017	41.972	70.9895	-165.184	0.065926	0.345416	-0.705865	-0.707223	-0.005660	41.972	-0.705764	-2.345462E+9	2.413319E-12	NaN
1160	1.000000	0.354824	7.3764e+06	-57589.1	1105.82	-29736.6	0.000000	0.000000	6.354889	-0.097480	NaN	0.000000	0.001689	0.001658	28.0831	0.084053	0.002007	41.8864	50.2773	-163.947	-0.172763	0.353507	-0.697816	-0.699133	-0.097480	41.8864	-0.696070	-1.729256E+9	5.637123E-11	NaN
1160	1.000000	0.362779	7.3764e+06	-57589.1	1105.82	-29736.6	0.000000	0.000000	6.362848	-0.022756	NaN	0.000000	0.001670	0.001668	28.0831	0.102872	0.002104	48.8839	29.2083	-162.481	0.008603	0.361558	-0.689860	-0.691082	-0.022756	48.8839	-0.689511	-1.406810E+9	1.617530E-11	NaN
1160	1.000000	0.370774	7.3764e+06	-57589.1	1105.82	-29736.6	0.000000	0.000000	6.370842	-0.036054	NaN	0.000000	0.001658	0.001658	28.0836	0.068882	0.001951	35.3017	105.188	-163.936	-0.069377	0.369495	-0.681865	-0.683144	-0.036054	35.3017	-0.681099	-1.079546E+9	3.339728E-11	NaN
1160	1.000000	0.378812	7.3764e+06	-57589.1	1105.82	-29736.6	0.000000	0.000000	6.378879	-0.048852	NaN	0.000000	0.001670	0.001637	28.0833	0.038807	0.002070	18.7471	-91.5033	-161.464	-0.039491	0.377510	-0.673828	-0.675130	-0.048852	18.7471	-0.671873	-8.072867E+8	6.051421E-11	NaN
1160	1.000000	0.386830	7.3764e+06	-57589.1	1105.82	-29736.6	0.000000	0.000000	6.386901	0.038190	NaN	0.000000	0.001665	0.001656	28.0836	0.158337	0.001944	81.4647	-118.688	-166.316	0.022695	0.385531	-0.665810	-0.667108	0.038190	81.4647	-0.666161	-6.742870E+8	-5.663811E-11	NaN
1160	1.000000	0.394836	7.3764e+06	-57589.1	1105.82	-29736.6	0.000000	0.000000	6.394903	-0.055071	NaN	0.000000	0.001676	0.001663	28.0833	0.056422	0.001796	31.4123	-58.9572	-162.9	-0.031548	0.393510	-0.657804	-0.659129	-0.055071	31.4123	-0.656489	-4.970112E+8	1.108051E-10	NaN
1160	1.000000	0.402834	7.3764e+06	-57589.1	1105.82	-29736.6	0.000000	0.000000	6.402906	0.045500	NaN	0.000000	0.001654	0.001681	28.0834	0.030233	0.002007	15.0602	-28.0078	-162.831	0.036394	0.401468	-0.649805	-0.651171	0.045500	15.0602	-0.652071	-4.323377E+8	-1.052413E-10	NaN
1160	1.000000	0.410840	7.3764e+06	-57589.1	1105.82	-29736.6	0.000000	0.000000	6.410908	-0.031100	NaN	0.000000	0.001690	0.001645	28.0837	0.071831	0.001997	35.9687	70.3602	-165.736	-0.012706	0.409537	-0.641799	-0.643102	-0.031100	35.9687	-0.641151	-3.062521E+8	1.015494E-10	NaN
1160	1.000000	0.418813	7.3764e+06	-57589.1	1105.82	-29736.6	0.000000	0.000000	6.418880	-0.058465	NaN	0.000000	0.001659	0.001651	28.0832	0.043403	0.001979	21.9326	141.764	-168.174	-0.072648	0.417533	-0.633826	-0.635106	-0.058465	21.9326	-0.631827	-2.280940E+8	2.563181E-10	NaN
1160	1.000000	0.426837	7.3764e+06	-57589.1	1105.82	-29736.6	0.000000	0.000000	6.426902	-0.094119	NaN	0.000000	0.001676	0.001675	28.0822	0.005181	0.001979	2.618347	-83.4616	-164.721	-0.098742	0.425547	-0.625803	-0.627093	-0.094119	2.618347	-0.598843	-8.026548E+7	1.172595E-9	NaN
1160	1.000000	0.434837	7.3764e+06	-57589.1	1105.82	-29736.6	0.000000	0.000000	6.434906	-0.006879	NaN	0.000000	0.001685	0.001691	28.082	0.032998	0.001977	16.6942	128.638	-164.62	-0.027337	0.433558	-0.617803	-0.619081	-0.006879	16.6942	-0.617494	-1.449373E+8	4.746505E-11	NaN
1160	1.000000	0.442861	7.3764e+06	-57589.1	1105.82	-29736.6	0.000000	0.000000	6.442928	-0.051322	NaN	0.000000	0.001656	0.001661	28.0822	0.116927	0.002072	56.4245	-147.707	-164.201	-0.094090	0.441530	-0.609779	-0.611110	-0.051322	56.4245	-0.609097	-1.110927E+8	4.619728E-10	NaN
1160	1.000000	0.450862	7.3764e+06	-57589.1	1105.82	-29736.6	0.000000	0.000000	6.450929	-0.052340	NaN	0.000000	0.001702	0.001705	28.0822	0.120993	0.002046	59.1299	0.253930	-162.974	-0.048465	0.449564	-0.601778	-0.603075	-0.052340	59.1299	-0.601114	-8.625761E+7	6.067839E-10	NaN
1160	1.000000	0.458863	7.3764e+06	-57589.1	1105.82	-29736.6	0.000000	0.000000	6.458930	-0.044372	NaN	0.000000	0.001649	0.001693	28.0821	0.091767	0.002129	43.1111	152.069	-167.082	-0.019903	0.457530	-0.593777	-0.595110	-0.044372	43.1111	-0.593005	-6.669396E+7	6.653102E-10	NaN
1160	1.000000	0.466821	7.3764e+06	-57589.1	1105.82	-29736.6	0.000000	0.000000	6.466889	-0.045723	NaN	0.000000	0.001640	0.001691	28.0823	0.055467	0.002022	27.436	-172.54	-162.813	-0.031148	0.465482	-0.585818	-0.587157	-0.045723	27.436	-0.584568	-5.102215E+7	8.961371E-10	NaN
1160	1.000000	0.474860	7.3764e+06	-57589.1	1105.82	-29736.6	0.000000	0.000000	6.474926	-0.079523	NaN	0.000000	0.001664	0.001707	28.0822	0.020815	0.001850	11.2481	-56.734	-162.776	-0.055809	0.473515	-0.577780	-0.579124	-0.079523	11.2481	-0.572477	-3.474232E+7	2.288945E-9	NaN
1160	1.000000	0.482860	7.3764e+06	-57589.1	1105.82	-29736.6	0.000000	0.000000	6.482926	-0.080196	NaN	0.000000	0.001651	0.001661	28.0825	0.084266	0.002076	40.5822	-138.153	-165.744	-0.082758	0.481555	-0.569779	-0.571084	-0.080196	40.5822	-0.568297	-3.041601E+7	2.636638E-9	NaN
1160	1.000000	0.490868	7.3764e+06	-57589.1	1105.82	-29736.6	0.000000	0.000000	6.490933	-0.087609	NaN	0.000000	0.001648	0.001661	28.083	0.038558	0.002059	18.7232	-124.375	-167.038	-0.026474	0.489573	-0.561772	-0.563066	-0.087609	18.7232	-0.558262	-2.209719E+7	3.964699E-9	NaN
1160	1.000000	0.498853	7.3764e+06	-57589.1	1105.82	-29736.6	0.000000	0.000000	6.498919	-0.085085	NaN	0.000000	0.001652	0.001673	28.0823	0.042147	0.001932	21.8148	-55.7977	-164.5	-0.011813	0.497558	-0.553786	-0.555082	-0.085085	21.8148	-0.550861	-1.745346E+7	4.874974E-9	NaN
1160	1.000000	0.506880	7.3764e+06	-57589.1	1105.82	-29736.6	0.000000	0.000000	6.506948	-0.009737	NaN	0.000000	0.001648	0.001700	28.0825	0.078943	0.001952	40.4362	47.079	-164.676	-0.076098	0.505563	-0.545760	-0.547076	-0.009737	40.4362	-0.545579	-1.474717E+7	6.602306E-10	NaN
1160	1.000000	0.514870	7.3764e+06	-57589.1	1105.82	-29736.6	0.000000	0.000000	6.514939	-0.026992	NaN	0.000000	0.001654	0.001663	28.0822	0.069273	0.001888	36.6977	122.693	-163.057	-0.083441	0.513566	-0.537769	-0.539073	-0.026992	36.6977	-0.537217	-1.129172E+7	2.390391E-9	NaN
1160	1.000000	0.522892	7.3764e+06	-57589.1	1105.82	-29736.6	0.000000	0.000000	6.522960	-0.025594	NaN	0.000000	0.001665	0.001630	28.0824	0.050860	0.001952	26.0496	26.5745	-166.722	-0.078218	0.521563	-0.529747	-0.531076	-0.025594	26.0496	-0.529010	-8.68623e+06	2.946533E-9	NaN
1160	1.000000	0.530879	7.3764e+06	-57589.1	1105.82	-29736.6	0.000000	0.000000	6.530946	-0.053177	NaN	0.000000	0.001604	0.001651	28.0824	0.045674	0.002061	22.1608	-158.979	-162.109	0.022962	0.529575	-0.521760	-0.523065	-0.053177	22.1608	-0.519961	-6.50206e+06	8.178454E-9	NaN
1160	1.000000	0.538898	7.3764e+06	-57589.1	1105.82	-29736.6	0.000000	0.000000	6.538965	-0.052311	NaN	0.000000	0.001611	0.001676	28.0823	0.069316	0.001894	36.606	38.199	-164.786	0.018582	0.537617	-0.513742	-0.515022	-0.052311	36.606	-0.512670	-5.1475e+06	1.016235E-8	NaN
1160	1.000000	0.546904	7.3764e+06	-57589.1	1105.82	-29736.6	0.000000	0.000000	6.546972	-0.024293	NaN	0.000000	0.001643	0.001671	28.0822	0.113880	0.002049	55.5739	103.031	-163.308	-0.050081	0.545566	-0.505735	-0.507073	-0.024293	55.5739	-0.505407	-4.07778e+06	5.957500E-9	NaN
1160	1.000000	0.554897	7.3764e+06	-57589.1	1105.82	-29736.6	0.000000	0.000000	6.554965	-0.044902	NaN	0.000000	0.001625	0.001667	28.0823	0.050904	0.002015	25.2665	72.4167	-162.46	0.029006	0.553651	-0.497742	-0.498988	-0.044902	25.2665	-0.496409	-3.0543e+06	1.470116E-8	NaN
1160	1.000000	0.562894	7.3764e+06	-57589.1	1105.82	-29736.6	0.000000	0.000000	6.562961	-0.068126	NaN	0.000000	0.001688	0.001603	28.0835	0.092767	0.002147	43.2118	-37.5453	-167.015	0.063899	0.561654	-0.489745	-0.490985	-0.068126	43.2118	-0.488563	-2.37303e+06	2.870861E-8	NaN
1160	1.000000	0.570897	7.3764e+06	-57589.1	1105.82	-29736.6	0.000000	0.000000	6.570967	0.026934	NaN	0.000000	0.001654	0.001691	28.0836	0.008752	0.002013	4.347435	122.914	-162.775	0.038215	0.569569	-0.481742	-0.483070	0.026934	4.347435	-0.486389	-2.21266e+06	-1.217265E-8	NaN
1160	1.000000	0.578922	7.3764e+06	-57589.1	1105.82	-29736.6	0.000000	0.000000	6.578991	-0.000347	NaN	0.000000	0.001664	0.001651	28.0836	0.052692	0.002037	25.8685	24.5628	-162.873	0.076212	0.577583	-0.473718	-0.475057	-0.000347	25.8685	-0.473708	-1.47025e+06	2.359812E-10	NaN
1160	1.000000	0.586878	7.3764e+06	-57589.1	1105.82	-29736.6	0.000000	0.000000	6.586945	-0.051531	NaN	0.000000	0.001651	0.001664	28.0836	0.096627	0.002042	47.3125	-158.354	-163.892	-0.079593	0.585592	-0.465762	-0.467047	-0.051531	47.3125	-0.464945	-1.10783e+06	4.651507E-8	NaN
1160	1.000000	0.594918	7.3764e+06	-57589.1	1105.82	-29736.6	0.000000	0.000000	6.594985	-0.053943	NaN	0.000000	0.001651	0.001710	28.0836	0.058681	0.001870	31.3781	115.552	-165.972	-0.087356	0.593590	-0.457721	-0.459049	-0.053943	31.3781	-0.456432	-841125	6.413209E-8	NaN
1160	1.000000	0.602920	7.3764e+06	-57589.1	1105.82	-29736.6	0.000000	0.000000	6.602987	-0.054992	NaN	0.000000	0.001651	0.001737	28.0836	0.158273	0.002078	76.164	-96.1789	-160.269	0.017752	0.601603	-0.449719	-0.451037	-0.054992	76.164	-0.449178	-664906	8.270711E-8	NaN
1160	1.000000	0.610915	7.3764e+06	-57589.1	1105.82	-29736.6	0.000000	0.000000	6.610982	-0.052793	NaN	0.000000	0.001658	0.001653	28.0837	0.087062	0.002089	41.6815	131.746	-165.664	-0.043435	0.609636	-0.441725	-0.443004	-0.052793	41.6815	-0.440775	-506168	1.042988E-7	NaN
1160	1.000000	0.618916	7.3764e+06	-57589.1	1105.82	-29736.6	0.000000	0.000000	6.618984	-0.031060	NaN	0.000000	0.001671	0.001662	28.0835	0.057535	0.001871	30.7461	99.8316	-164.069	-0.041147	0.617584	-0.433723	-0.435055	-0.031060	30.7461	-0.432966	-392647	7.910377E-8	NaN
1160	1.000000	0.626956	7.3764e+06	-57589.1	1105.82	-29736.6	0.000000	0.000000	6.627024	-0.036092	NaN	0.000000	0.001637	0.001669	28.0835	0.071170	0.001962	36.2808	-132.751	-164.329	-0.065627	0.625638	-0.425683	-0.427002	-0.036092	36.2808	-0.424937	-302268	1.194045E-7	NaN
1160	1.000000	0.634962	7.3764e+06	-57589.1	1105.82	-29736.6	0.000000	0.000000	6.635029	-0.051415	NaN	0.000000	0.001624	0.001654	28.0836	0.060327	0.002054	29.3729	128.202	-167.651	-0.057099	0.633635	-0.417678	-0.419005	-0.051415	29.3729	-0.416365	-228472	2.250372E-7	NaN
1160	1.000000	0.642975	7.3764e+06	-57589.1	1105.82	-29736.6	0.000000	0.000000	6.643042	-0.055370	NaN	0.000000	0.001671	0.001685	28.0832	0.044078	0.002058	21.4196	-111.626	-164.521	-0.124410	0.641639	-0.409664	-0.411000	-0.055370	21.4196	-0.407726	-172206	3.215342E-7	NaN
1160	1.000000	0.650937	7.3764e+06	-57589.1	1105.82	-29736.6	0.000000	0.000000	6.651005	-0.033889	NaN	0.000000	0.001604	0.001688	28.0833	0.059271	0.001937	30.6024	-127.396	-165.329	-0.075527	0.649634	-0.401702	-0.403006	-0.033889	30.6024	-0.400871	-137537	2.463964E-7	NaN
1160	1.000000	0.658966	7.3764e+06	-57589.1	1105.82	-29736.6	0.000000	0.000000	6.659033	-0.045583	NaN	0.000000	0.001664	0.001689	28.0835	0.068379	0.001881	36.3558	121.506	-166.123	-0.047033	0.657598	-0.393673	-0.395041	-0.045583	36.3558	-0.392733	-105256	4.330698E-7	NaN
1160	1.000000	0.666928	7.3764e+06	-57589.1	1105.82	-29736.6	0.000000	0.000000	6.666998	0.007645	NaN	0.000000	0.001646	0.001677	28.0836	0.064539	0.002147	30.0659	-3.433447	-163.149	0.022510	0.665645	-0.385712	-0.386994	0.007645	30.0659	-0.385902	-84044.9	-9.095890E-8	NaN
1160	1.000000	0.674938	7.3764e+06	-57589.1	1105.82	-29736.6	0.000000	0.000000	6.675003	-0.105173	NaN	0.000000	0.001698	0.001698	28.0836	0.077193	0.002046	37.7258	-148.078	-164.685	-0.116936	0.673646	-0.377701	-0.378994	-0.105173	37.7258	-0.375610	-59819.8	1.758169E-6	NaN
1160	1.000000	0.682958	7.3764e+06	-57589.1	1105.82	-29736.6	0.000000	0.000000	6.683027	-0.022825	NaN	0.000000	0.001704	0.001727	28.0836	0.033549	0.001874	17.898	150.339	-163.142	-0.079030	0.681676	-0.369681	-0.370963	-0.022825	17.898	-0.368725	-47616.2	4.793568E-7	NaN
1160	1.000000	0.690944	7.3764e+06	-57589.1	1105.82	-29736.6	0.000000	0.000000	6.691014	0.016674	NaN	0.000000	0.001722	0.001702	28.0837	0.079791	0.002079	38.373	168.509	-165.835	-0.005171	0.689626	-0.361696	-0.363014	0.016674	38.373	-0.362022	-38111.5	-4.374928E-7	NaN
1160	1.000000	0.698931	7.3764e+06	-57589.1	1105.82	-29736.6	0.000000	0.000000	6.698999	-0.026360	NaN	0.000000	0.001703	0.001699	28.0828	0.158947	0.001983	80.1387	89.747	-167.145	-0.100694	0.697632	-0.353708	-0.355007	-0.026360	80.1387	-0.353462	-28655.4	9.199057E-7	NaN
1160	1.000000	0.706971	7.3764e+06	-57589.1	1105.82	-29736.6	0.000000	0.000000	6.707038	-0.063060	NaN	0.000000	0.001785	0.001675	28.082	0.131834	0.001999	65.964	-68.0925	-160.892	-0.087762	0.705610	-0.345668	-0.347029	-0.063060	65.964	-0.344951	-21560	2.924837E-6	NaN
1160	1.000000	0.714965	7.3764e+06	-57589.1	1105.82	-29736.6	0.000000	0.000000	6.715033	-0.032801	NaN	0.000000	0.001740	0.001655	28.0823	0.133518	0.002128	62.7426	49.8034	-165.912	-0.048678	0.713586	-0.337675	-0.339053	-0.032801	62.7426	-0.337283	-16669.3	1.967742E-6	NaN
1160	1.000000	0.722967	7.3764e+06	-57589.1	1105.82	-29736.6	0.000000	0.000000	6.723034	-0.052025	NaN	0.000000	0.001737	0.001646	28.0822	0.087116	0.002166	40.2186	162.512	-165.984	-0.080667	0.721685	-0.329673	-0.330954	-0.052025	40.2186	-0.328703	-12486.6	4.166467E-6	NaN
1160	1.000000	0.730959	7.3764e+06	-57589.1	1105.82	-29736.6	0.000000	0.000000	6.731026	-0.055017	NaN	0.000000	0.001716	0.001675	28.0823	0.072995	0.001929	37.8501	-127.165	-164.499	-0.039646	0.729687	-0.321681	-0.322952	-0.055017	37.8501	-0.320591	-9491.42	5.796522E-6	NaN
1160	1.000000	0.738983	7.3764e+06	-57589.1	1105.82	-29736.6	0.000000	0.000000	6.739049	-0.063631	NaN	0.000000	0.001746	0.001660	28.082	0.094915	0.001977	48.0204	-123.521	-163.649	-0.060953	0.737648	-0.313657	-0.314991	-0.063631	48.0204	-0.312663	-7251.65	8.774664E-6	NaN
1160	1.000000	0.746977	7.3764e+06	-57589.1	1105.82	-29736.6	0.000000	0.000000	6.747047	0.012490	NaN	0.000000	0.001750	0.001694	28.0822	0.077661	0.002004	38.7592	-164.274	-168.213	-0.008031	0.745687	-0.305662	-0.306952	0.012490	38.7592	-0.305904	-5759.22	-2.168677E-6	NaN
1160	1.000000	0.754982	7.3764e+06	-57589.1	1105.82	-29736.6	0.000000	0.000000	6.755051	-0.007638	NaN	0.000000	0.001697	0.001676	28.0822	0.018583	0.001944	9.557159	-77.7104	-166.542	0.010039	0.753663	-0.297657	-0.298976	-0.007638	9.557159	-0.297058	-4253.96	1.795489E-6	NaN
1160	1.000000	0.762939	7.3764e+06	-57589.1	1105.82	-29736.6	0.000000	0.000000	6.763008	-0.018611	NaN	0.000000	0.001700	0.001652	28.0822	0.058283	0.002126	27.4178	-174.512	-162.242	-0.064011	0.761657	-0.289700	-0.290982	-0.018611	27.4178	-0.289191	-3244.71	5.735818E-6	NaN
1160	1.000000	0.770992	7.3764e+06	-57589.1	1105.82	-29736.6	0.000000	0.000000	6.771059	-0.063467	NaN	0.000000	0.001740	0.001668	28.0822	0.034048	0.001903	17.891	88.5699	-162.666	-0.092166	0.769676	-0.281647	-0.282964	-0.063467	17.891	-0.278987	-2278.67	2.785252E-5	NaN
1160	1.000000	0.778995	7.3764e+06	-57589.1	1105.82	-29736.6	0.000000	0.000000	6.779063	-0.037579	NaN	0.000000	0.001726	0.001688	28.0822	0.007654	0.001989	3.848179	166.844	-161.897	-0.017867	0.777698	-0.273644	-0.274942	-0.037579	3.848179	-0.266321	-1463.97	2.566899E-5	NaN
1160	1.000000	0.786989	7.3764e+06	-57589.1	1105.82	-29736.6	0.000000	0.000000	6.787052	-0.151313	NaN	0.000000	0.001714	0.001685	28.0823	0.036149	0.002081	17.3707	-32.2537	-165.813	-0.148479	0.785635	-0.265651	-0.267004	-0.151313	17.3707	-0.259118	-1136.03	0.000133	NaN
1160	1.000000	0.794997	7.3764e+06	-57589.1	1105.82	-29736.6	0.000000	0.000000	6.795062	-0.106742	NaN	0.000000	0.001689	0.001639	28.0822	0.050830	0.002103	24.1646	135.862	-163.226	-0.056272	0.793703	-0.257643	-0.258936	-0.106742	24.1646	-0.254330	-958.943	0.000111	NaN
1160	1.000000	0.803003	7.3764e+06	-57589.1	1105.82	-29736.6	0.000000	0.000000	6.803070	-0.049725	NaN	0.000000	0.001603	0.001651	28.082	0.024426	0.002021	12.0881	-46.4856	-165.088	-0.118064	0.801739	-0.249637	-0.250900	-0.049725	12.0881	-0.246551	-727.015	6.839546E-5	NaN
1160	1.000000	0.810989	7.3764e+06	-57589.1	1105.82	-29736.6	0.000000	0.000000	6.811057	-0.019517	NaN	0.000000	0.001653	0.001660	28.0822	0.100061	0.001999	50.0664	143.952	-165.666	-0.002650	0.809711	-0.241651	-0.242929	-0.019517	50.0664	-0.241358	-603.611	3.233361E-5	NaN
1160	1.000000	0.819001	7.3764e+06	-57589.1	1105.82	-29736.6	0.000000	0.000000	6.819070	-0.016806	NaN	0.000000	0.001671	0.001689	28.0823	0.027600	0.001952	14.1427	27.3489	-166.971	-0.018826	0.817689	-0.233639	-0.234951	-0.016806	14.1427	-0.232747	-442.416	3.798705E-5	NaN
1160	1.000000	0.827028	7.3764e+06	-57589.1	1105.82	-29736.6	0.000000	0.000000	6.827095	-0.054794	NaN	0.000000	0.001681	0.001700	28.0824	0.041812	0.002005	20.8528	-21.6339	-164.305	-0.029373	0.825664	-0.225612	-0.226975	-0.054794	20.8528	-0.223641	-317.489	0.000173	NaN
1160	1.000000	0.835019	7.3764e+06	-57589.1	1105.82	-29736.6	0.000000	0.000000	6.835086	-0.043000	NaN	0.000000	0.001640	0.001681	28.083	0.036891	0.001969	18.7392	-23.3779	-162.526	-0.047331	0.833681	-0.217621	-0.218958	-0.043000	18.7392	-0.215900	-238.77	0.000180	NaN
1160	1.000000	0.843022	7.3764e+06	-57589.1	1105.82	-29736.6	0.000000	0.000000	6.843090	-0.034633	NaN	0.000000	0.001625	0.001698	28.0837	0.061336	0.001956	31.3525	135.852	-166.9	-0.046203	0.841693	-0.209618	-0.210946	-0.034633	31.3525	-0.208789	-183.313	0.000189	NaN
1160	1.000000	0.850994	7.3764e+06	-57589.1	1105.82	-29736.6	0.000000	0.000000	6.851062	-0.038485	NaN	0.000000	0.001631	0.001680	28.0833	0.038241	0.001974	19.3757	-177.364	-166.416	-0.100549	0.849714	-0.201645	-0.202925	-0.038485	19.3757	-0.200155	-132.511	0.000290	NaN
1160	1.000000	0.859004	7.3764e+06	-57589.1	1105.82	-29736.6	0.000000	0.000000	6.859069	-0.088055	NaN	0.000000	0.001656	0.001673	28.0831	0.103218	0.002032	50.8038	85.2261	-161.946	-0.095450	0.857694	-0.193636	-0.194946	-0.088055	50.8038	-0.192336	-98.3946	0.000895	NaN
1160	1.000000	0.867008	7.3764e+06	-57589.1	1105.82	-29736.6	0.000000	0.000000	6.867079	0.042817	NaN	0.000000	0.001606	0.001700	28.083	0.056295	0.001957	28.7719	-66.0604	-165.649	0.053365	0.865758	-0.185631	-0.186882	0.042817	28.7719	-0.186747	-79.3481	-0.000540	NaN
1160	1.000000	0.875019	7.3764e+06	-57589.1	1105.82	-29736.6	0.000000	0.000000	6.875086	-0.044967	NaN	0.000000	0.001645	0.001678	28.083	0.028666	0.002014	14.2311	-32.6064	-168.171	-0.080952	0.873642	-0.177621	-0.178997	-0.044967	14.2311	-0.175251	-50.6165	0.000888	NaN
1160	1.000000	0.883053	7.3764e+06	-57589.1	1105.82	-29736.6	0.000000	0.000000	6.883126	0.068123	NaN	0.000000	0.001652	0.001703	28.0836	0.067009	0.002028	33.0447	-139.42	-165.01	0.095972	0.881718	-0.169586	-0.170922	0.068123	33.0447	-0.171132	-42.9784	-0.001585	NaN
1160	1.000000	0.891031	7.3764e+06	-57589.1	1105.82	-29736.6	0.000000	0.000000	6.891101	0.035855	NaN	0.000000	0.001619	0.001699	28.0832	0.048986	0.002032	24.111	-42.3062	-165.038	0.005767	0.889781	-0.161609	-0.162858	0.035855	24.111	-0.162724	-30.6361	-0.001170	NaN
1160	1.000000	0.899025	7.3764e+06	-57589.1	1105.82	-29736.6	0.000000	0.000000	6.899092	-0.064742	NaN	0.000000	0.001612	0.001685	28.0834	0.006684	0.002065	3.236803	60.5991	-168.091	0.061518	0.897706	-0.153614	-0.154933	-0.064742	3.236803	-0.138613	-11.1392	0.005812	NaN
1160	1.000000	0.907057	7.3764e+06	-57589.1	1105.82	-29736.6	0.000000	0.000000	6.907123	-0.077848	NaN	0.000000	0.001657	0.001628	28.0833	0.038517	0.002042	18.8631	4.939568	-161.586	0.001883	0.905726	-0.145582	-0.146914	-0.077848	18.8631	-0.142487	-13.1675	0.005912	NaN
1160	1.000000	0.915070	7.3764e+06	-57589.1	1105.82	-29736.6	0.000000	0.000000	6.915134	-0.111588	NaN	0.000000	0.001648	0.001658	28.0832	0.087701	0.001942	45.1624	34.8392	-164.149	-0.189186	0.913688	-0.137570	-0.138952	-0.111588	45.1624	-0.135717	-9.816498	0.011367	NaN
1160	1.000000	0.923059	7.3764e+06	-57589.1	1105.82	-29736.6	0.000000	0.000000	6.923128	-0.010639	NaN	0.000000	0.001641	0.001646	28.0835	0.040943	0.001969	20.791	-170.093	-162.574	-0.055923	0.921697	-0.129580	-0.130942	-0.010639	20.791	-0.129197	-7.351610	0.001447	NaN
1160	1.000000	0.931084	7.3764e+06	-57589.1	1105.82	-29736.6	0.000000	0.000000	6.931150	-0.081670	NaN	0.000000	0.001710	0.001660	28.0833	0.042988	0.002100	20.4704	138.006	-165.207	-0.110179	0.929744	-0.121556	-0.122896	-0.081670	20.4704	-0.118564	-4.518621	0.018074	NaN
1160	1.000000	0.939052	7.3764e+06	-57589.1	1105.82	-29736.6	0.000000	0.000000	6.939119	-0.039437	NaN	0.000000	0.001706	0.001665	28.0836	0.071691	0.002122	33.7924	122.618	-166.594	-0.061351	0.937722	-0.113588	-0.114917	-0.039437	33.7924	-0.112712	-3.425397	0.011513	NaN
1160	1.000000	0.947054	7.3764e+06	-57589.1	1105.82	-29736.6	0.000000	0.000000	6.947121	-0.074431	NaN	0.000000	0.001704	0.001714	28.0833	0.123391	0.001967	62.7244	56.9497	-160.801	-0.094288	0.945750	-0.105585	-0.106890	-0.074431	62.7244	-0.104695	-2.315175	0.032149	NaN
1160	1.000000	0.955050	7.3764e+06	-57589.1	1105.82	-29736.6	0.000000	0.000000	6.955117	-0.054472	NaN	0.000000	0.001719	0.001644	28.0833	0.021832	0.002037	10.7185	140.829	-165.014	-0.006830	0.953769	-0.097589	-0.098870	-0.054472	10.7185	-0.093778	-1.322702	0.041183	NaN
1160	1.000000	0.963059	7.3764e+06	-57589.1	1105.82	-29736.6	0.000000	0.000000	6.963128	-0.017455	NaN	0.000000	0.001716	0.001660	28.0835	0.127284	0.002058	61.8463	58.3856	-162.532	0.008333	0.961742	-0.089580	-0.090897	-0.017455	61.8463	-0.089369	-1.044654	0.016709	NaN
1160	1.000000	0.971073	7.3764e+06	-57589.1	1105.82	-29736.6	0.000000	0.000000	6.971139	-0.098284	NaN	0.000000	0.001719	0.001625	28.0829	0.049057	0.001973	24.8701	88.2332	-164.689	0.029295	0.969745	-0.081566	-0.082895	-0.098284	24.8701	-0.078602	-0.570908	0.172155	NaN
1160	1.000000	0.979051	7.3764e+06	-57589.1	1105.82	-29736.6	0.000000	0.000000	6.979118	-0.055504	NaN	0.000000	0.001681	0.001612	28.0824	0.106828	0.002008	53.1978	122.691	-166.157	-0.018329	0.977771	-0.073589	-0.074869	-0.055504	53.1978	-0.072806	-0.404881	0.137088	NaN
1160	1.000000	0.987042	7.3764e+06	-57589.1	1105.82	-29736.6	0.000000	0.000000	6.987107	-0.113343	NaN	0.000000	0.001671	0.001684	28.0822	0.118436	0.002054	57.6601	-103.405	-165.487	-0.199432	0.985766	-0.065598	-0.066873	-0.113343	57.6601	-0.064123	-0.235604	0.481074	NaN
1160	1.000000	0.995083	7.3764e+06	-57589.1	1105.82	-29736.6	0.000000	0.000000	6.995149	-0.081420	NaN	0.000000	0.001683	0.001679	28.0821	0.060598	0.001994	30.3913	154.169	-165.636	0.027625	0.993793	-0.057557	-0.058846	-0.081420	30.3913	-0.055547	-0.133657	0.609172	NaN
1160	1.000000	1.003083	7.3764e+06	-57589.1	1105.82	-29736.6	0.000000	0.000000	7.003149	-0.077172	NaN	0.000000	0.001651	0.001679	28.082	0.037584	0.002067	18.1821	140.051	-162.442	-0.129831	1.001748	-0.049557	-0.050891	-0.077172	18.1821	-0.046374	-0.070790	1.090163	NaN
1160	1.000000	1.011073	7.3764e+06	-57589.1	1105.82	-29736.6	0.000000	0.000000	7.011138	-0.087828	NaN	0.000000	0.001643	0.001654	28.0824	0.016664	0.002008	8.297850	67.2554	-166.031	-0.125511	1.009792	-0.041567	-0.042847	-0.087828	8.297850	-0.033628	-0.029197	3.008121	NaN
1160	1.000000	1.019051	7.3764e+06	-57589.1	1105.82	-29736.6	0.000000	0.000000	7.019121	0.006677	NaN	0.000000	0.001642	0.001634	28.0823	0.084122	0.002076	40.5265	117.502	-164.538	-0.047630	1.017754	-0.033588	-0.034885	0.006677	40.5265	-0.033712	-0.029360	-0.227420	NaN
1160	1.000000	1.027082	7.3764e+06	-57589.1	1105.82	-29736.6	0.000000	0.000000	7.027149	-0.064700	NaN	0.000000	0.001688	0.001611	28.0824	0.090834	0.001976	45.9592	157.819	-164.048	-0.037181	1.025792	-0.025558	-0.026847	-0.064700	45.9592	-0.024502	-0.016374	3.951508	NaN
1160	1.000000	1.035063	7.3764e+06	-57589.1	1105.82	-29736.6	0.000000	0.000000	7.035130	-0.057353	NaN	0.000000	0.001646	0.001636	28.0825	0.013415	0.002155	6.224000	127.979	-165.622	-0.025620	1.033798	-0.017577	-0.018842	-0.057353	6.224000	-0.010666	-0.006767	8.474842	NaN
1160	1.000000	1.043085	7.3764e+06	-57589.1	1105.82	-29736.6	0.000000	0.000000	7.043152	-0.062285	NaN	0.000000	0.001643	0.001670	28.0822	0.045084	0.002062	21.8642	-66.4301	-164.377	-0.068300	1.041821	-0.009554	-0.010819	-0.062285	21.8642	-0.007418	-0.004889	12.7406	NaN
1160	1.000000	1.051064	7.3764e+06	-57589.1	1105.82	-29736.6	0.000000	0.000000	7.051257	3.005727	NaN	0.000000	0.001667	0.001657	28.0822	3.664204	0.001897	1932.02	7.926626	-168.034	1.343224	1.049748	-0.001575	-0.002891	3.005727	1932.02	-0.002742	-0.001947	-1543.69	NaN
1160	2.000000	1.057612	7.3764e+06	-57589.1	1105.82	-29736.6	0.000000	0.000000	7.058066	9.349782	NaN	0.000000	0.001679	0.001695	28.0823	9.063935	0.001595	5680.96	7.643368	-172.04	8.679783	1.057215	0.004972	0.004576	9.349782	5680.96	0.003738	0.003010	3105.75	94597.1
1160	2.000000	1.059674	7.3764e+06	-57589.1	1105.82	-29736.6	0.000000	0.000000	7.060194	10.9628	NaN	0.000000	0.001633	0.001664	28.083	11.354	0.001647	6894.81	7.892754	-173.165	10.7219	1.059328	0.007035	0.006689	10.9628	6894.81	0.005842	0.004915	2230.44	89852.7
1160	2.000000	1.061623	7.3764e+06	-57589.1	1105.82	-29736.6	0.000000	0.000000	7.062264	13.9085	NaN	0.000000	0.001658	0.001685	28.0824	13.317	0.001714	7767.71	9.978648	-175.866	13.704	1.061310	0.008983	0.008670	13.9085	7767.71	0.007640	0.006675	2083.64	86863.7
1160	2.000000	1.063549	7.3764e+06	-57589.1	1105.82	-29736.6	0.000000	0.000000	7.064307	16.7367	NaN	0.000000	0.001631	0.001650	28.0822	15.3037	0.001606	9530.31	1.530191	-171.383	15.3203	1.063295	0.010910	0.010656	16.7367	9530.31	0.009592	0.008732	1916.68	93179.6
1160	2.000000	1.065536	7.3764e+06	-57589.1	1105.82	-29736.6	0.000000	0.000000	7.066558	23.1424	NaN	0.000000	0.001674	0.001679	28.0823	16.8568	0.001702	9903.74	-1.093425	-167.555	21.5197	1.065263	0.012897	0.012624	23.1424	9903.74	0.011144	0.010481	2207.96	88382.1
1160	2.000000	1.067533	7.3764e+06	-57589.1	1105.82	-29736.6	0.000000	0.000000	7.068644	25.3223	NaN	0.000000	0.001644	0.001650	28.0821	20.562	0.001806	11387.9	5.868136	-175.985	24.4665	1.067230	0.014893	0.014591	25.3223	11387.9	0.013226	0.012992	1949.13	91282.5
1160	2.000000	1.069608	7.3764e+06	-57589.1	1105.82	-29736.6	0.000000	0.000000	7.070907	29.9011	NaN	0.000000	0.001655	0.001687	28.0827	22.7403	0.001827	12443.6	5.883547	-175.437	30.8004	1.069247	0.016968	0.016608	29.9011	12443.6	0.015166	0.015507	1928.19	91295.5
1160	2.000000	1.071597	7.3764e+06	-57589.1	1105.82	-29736.6	0.000000	0.000000	7.073098	34.79	NaN	0.000000	0.001626	0.001641	28.0835	24.3178	0.001793	13561.8	7.413474	-177.605	35.722	1.071201	0.018957	0.018562	34.79	13561.8	0.017033	0.018093	1922.81	92115.1
1160	2.000000	1.073559	7.3764e+06	-57589.1	1105.82	-29736.6	0.000000	0.000000	7.075233	39.0085	NaN	0.000000	0.001666	0.001694	28.0837	26.4805	0.001887	14034.3	5.814103	-177.19	39.4209	1.073286	0.020920	0.020647	39.0085	14034.3	0.018835	0.020745	1880.42	89025.2
1160	2.000000	1.075517	7.3764e+06	-57589.1	1105.82	-29736.6	0.000000	0.000000	7.077449	45.2547	NaN	0.000000	0.001664	0.001677	28.0837	27.6016	0.001702	16221	6.620746	-179.204	43.6476	1.075203	0.022878	0.022564	45.2547	16221	0.020786	0.023792	1902.11	96080.5
1160	2.000000	1.077564	7.3764e+06	-57589.1	1105.82	-29736.6	0.000000	0.000000	7.079683	49.8001	NaN	0.000000	0.001633	0.001632	28.0833	30.9447	0.001926	16063.7	5.861233	-178.948	50.468	1.077205	0.024925	0.024565	49.8001	16063.7	0.022600	0.026793	1858.7	89661.7
1160	2.000000	1.079603	7.3764e+06	-57589.1	1105.82	-29736.6	0.000000	0.000000	7.081971	55.8745	NaN	0.000000	0.001653	0.001678	28.0837	32.219	0.001653	19489.7	4.325840	-179.249	58.1558	1.079323	0.026963	0.026684	55.8745	19489.7	0.024813	0.030677	1821.39	101665
1160	2.000000	1.081503	7.3764e+06	-57589.1	1105.82	-29736.6	0.000000	0.000000	7.084298	66.2306	NaN	0.000000	0.001629	0.001652	28.0834	33.409	0.001678	19915.2	4.696587	179.599	65.2388	1.081227	0.028864	0.028588	66.2306	19915.2	0.026370	0.033555	1973.82	99330.4
1160	2.000000	1.083508	7.3764e+06	-57589.1	1105.82	-29736.6	0.000000	0.000000	7.086603	73.5405	NaN	0.000000	0.001624	0.001606	28.0836	36.9424	0.001827	20217.5	6.000473	179.1	72.3804	1.083201	0.030868	0.030562	73.5405	20217.5	0.028140	0.036977	1988.82	96058.4
1160	2.000000	1.085537	7.3764e+06	-57589.1	1105.82	-29736.6	0.000000	0.000000	7.088877	79.4828	NaN	0.000000	0.001635	0.001599	28.0837	37.9508	0.001774	21391.4	5.878970	177.998	78.1875	1.085178	0.032898	0.032538	79.4828	21391.4	0.030111	0.040974	1939.85	96551.7
1160	2.000000	1.087520	7.3764e+06	-57589.1	1105.82	-29736.6	0.000000	0.000000	7.091050	84.1064	NaN	0.000000	0.001668	0.001669	28.0834	41.0231	0.001817	22581.4	7.656635	176.334	85.2196	1.087173	0.034881	0.034533	84.1064	22581.4	0.032088	0.045182	1861.51	97060.3
1160	2.000000	1.089504	7.3764e+06	-57589.1	1105.82	-29736.6	0.000000	0.000000	7.093481	94.9842	NaN	0.000000	0.001657	0.001645	28.085	42.0012	0.001789	23481	3.298284	-179.524	92.4409	1.089214	0.036865	0.036574	94.9842	23481	0.033831	0.049058	1936.15	96857.4
1160	2.000000	1.091555	7.3764e+06	-57589.1	1105.82	-29736.6	0.000000	0.000000	7.095730	99.7905	NaN	0.000000	0.001664	0.001653	28.0836	43.6066	0.001681	25940.1	4.629865	177.77	102.051	1.091208	0.038915	0.038569	99.7905	25940.1	0.036030	0.054172	1842.12	101826
1160	2.000000	1.093510	7.3764e+06	-57589.1	1105.82	-29736.6	0.000000	0.000000	7.097920	105.501	NaN	0.000000	0.001653	0.001630	28.0836	45.5464	0.001750	26024.7	5.563384	177.138	104.394	1.093178	0.040870	0.040539	105.501	26024.7	0.037830	0.058541	1802.18	98272.1
1160	2.000000	1.095562	7.3764e+06	-57589.1	1105.82	-29736.6	0.000000	0.000000	7.100293	113.314	NaN	0.000000	0.001622	0.001617	28.0839	46.4793	0.001727	26907.1	2.580158	-179.773	115.871	1.095206	0.042922	0.042566	113.314	26907.1	0.039764	0.063419	1786.75	97617.8
1160	2.000000	1.097578	7.3764e+06	-57589.1	1105.82	-29736.6	0.000000	0.000000	7.102556	119.301	NaN	0.000000	0.001623	0.001629	28.0837	50.3609	0.001761	28602.1	4.004147	178.211	123.319	1.097233	0.044938	0.044593	119.301	28602.1	0.041810	0.068790	1734.28	99634.3
1160	2.000000	1.099600	7.3764e+06	-57589.1	1105.82	-29736.6	0.000000	0.000000	7.105053	130.824	NaN	0.000000	0.001637	0.001675	28.0848	53.0232	0.001873	28308.1	9.120710	173.148	133.627	1.099126	0.046961	0.046487	130.824	28308.1	0.043495	0.073372	1783.02	95481.5
1160	2.000000	1.101540	7.3764e+06	-57589.1	1105.82	-29736.6	0.000000	0.000000	7.107189	135.61	NaN	0.000000	0.001591	0.001626	28.0837	54.3373	0.001740	31229	6.100921	175.058	136.431	1.101145	0.048900	0.048505	135.61	31229	0.045644	0.079425	1707.41	101240
1160	2.000000	1.103543	7.3764e+06	-57589.1	1105.82	-29736.6	0.000000	0.000000	7.109831	151.141	NaN	0.000000	0.001603	0.001654	28.0837	57.2188	0.001823	31387.3	4.153730	176.865	151.602	1.103114	0.050904	0.050475	151.141	31387.3	0.047292	0.084228	1794.43	98809.7
1160	2.000000	1.105529	7.3764e+06	-57589.1	1105.82	-29736.6	0.000000	0.000000	7.112254	161.768	NaN	0.000000	0.001606	0.001646	28.0824	57.8226	0.001673	34553.4	6.994754	173.236	162.841	1.105113	0.052889	0.052474	161.768	34553.4	0.049378	0.090500	1787.49	104940
1160	2.000000	1.107491	7.3764e+06	-57589.1	1105.82	-29736.6	0.000000	0.000000	7.114487	168.338	NaN	0.000000	0.001639	0.001649	28.0825	60.8381	0.001825	33337.4	4.466184	176.507	166.982	1.107117	0.054851	0.054478	168.338	33337.4	0.051064	0.095731	1758.44	98441.4
1160	2.000000	1.109567	7.3764e+06	-57589.1	1105.82	-29736.6	0.000000	0.000000	7.117125	181.998	NaN	0.000000	0.001640	0.001650	28.0828	62.7664	0.001810	34672.5	7.310170	173.955	183.155	1.109082	0.056928	0.056442	181.998	34672.5	0.052991	0.101883	1786.36	99244.8
1160	2.000000	1.111449	7.3764e+06	-57589.1	1105.82	-29736.6	0.000000	0.000000	7.119453	192.851	NaN	0.000000	0.001650	0.001663	28.0822	64.0005	0.001721	37177.3	4.903063	174.836	192.09	1.111060	0.058809	0.058421	192.851	37177.3	0.054919	0.108221	1782.02	103251
1160	2.000000	1.113509	7.3764e+06	-57589.1	1105.82	-29736.6	0.000000	0.000000	7.121794	199.662	NaN	0.000000	0.001617	0.001676	28.0824	66.3414	0.001597	41549.4	4.037814	174.164	198.75	1.113264	0.060870	0.060624	199.662	41549.4	0.057266	0.116186	1718.46	111368
1160	2.000000	1.115528	7.3764e+06	-57589.1	1105.82	-29736.6	0.000000	0.000000	7.124398	213.883	NaN	0.000000	0.001602	0.001620	28.083	67.9905	0.001738	39112.6	7.041354	172.842	215.237	1.115053	0.062889	0.062413	213.883	39112.6	0.058788	0.121497	1760.4	102520
1160	2.000000	1.117489	7.3764e+06	-57589.1	1105.82	-29736.6	0.000000	0.000000	7.126774	223.989	NaN	0.000000	0.001664	0.001626	28.0822	70.255	0.001723	40764.1	5.555186	172.786	225.654	1.117203	0.064850	0.064564	223.989	40764.1	0.060729	0.128434	1744.01	103923
1160	2.000000	1.119506	7.3764e+06	-57589.1	1105.82	-29736.6	0.000000	0.000000	7.129427	239.443	NaN	0.000000	0.001644	0.001619	28.0824	73.0429	0.001807	40422.3	7.820365	172.316	239.613	1.119087	0.066867	0.066447	239.443	40422.3	0.062424	0.134644	1778.35	100647
1160	2.000000	1.121437	7.3764e+06	-57589.1	1105.82	-29736.6	0.000000	0.000000	7.131864	251.735	NaN	0.000000	0.001640	0.001651	28.0822	74.0691	0.001776	41694.9	2.082209	176.969	248.926	1.121202	0.068797	0.068563	251.735	41694.9	0.064269	0.141561	1778.28	101248
1160	2.000000	1.123549	7.3764e+06	-57589.1	1105.82	-29736.6	0.000000	0.000000	7.134375	261.44	NaN	0.000000	0.001635	0.001649	28.0827	78.0329	0.001798	43406.4	7.588681	170.947	264.078	1.123270	0.070909	0.070631	261.44	43406.4	0.066392	0.149722	1746.17	102491
1160	2.000000	1.125496	7.3764e+06	-57589.1	1105.82	-29736.6	0.000000	0.000000	7.137039	278.874	NaN	0.000000	0.001637	0.001643	28.0825	78.0658	0.001764	44253.6	5.426720	172.772	279.58	1.125216	0.072856	0.072576	278.874	44253.6	0.068130	0.156565	1781.21	102182
1160	2.000000	1.127408	7.3764e+06	-57589.1	1105.82	-29736.6	0.000000	0.000000	7.139585	294.272	NaN	0.000000	0.001660	0.001690	28.0823	80.895	0.001858	43527.5	3.621326	175.185	291.103	1.127105	0.074769	0.074466	294.272	43527.5	0.069698	0.162862	1806.88	98543.3
1160	2.000000	1.129462	7.3764e+06	-57589.1	1105.82	-29736.6	0.000000	0.000000	7.141815	298.543	NaN	0.000000	0.001667	0.001686	28.0824	83.5361	0.001801	46383.8	8.063039	169.402	294.519	1.129165	0.076823	0.076526	298.543	46383.8	0.071996	0.172301	1732.68	102093
1160	2.000000	1.131418	7.3764e+06	-57589.1	1105.82	-29736.6	0.000000	0.000000	7.144769	322.811	NaN	0.000000	0.001627	0.001687	28.0823	83.6128	0.001770	47237.3	4.928414	173.479	320.31	1.131066	0.078779	0.078427	322.811	47237.3	0.073653	0.179265	1800.74	101932
1160	2.000000	1.133460	7.3764e+06	-57589.1	1105.82	-29736.6	0.000000	0.000000	7.147225	332.855	NaN	0.000000	0.001663	0.001680	28.0827	85.7612	0.001804	47536.1	3.543881	174.606	331.955	1.133165	0.080821	0.080525	332.855	47536.1	0.075569	0.187477	1775.45	100305
1160	2.000000	1.135398	7.3764e+06	-57589.1	1105.82	-29736.6	0.000000	0.000000	7.149600	343.481	NaN	0.000000	0.001617	0.001697	28.0824	86.9657	0.001841	47227.9	4.312403	173.272	340.669	1.135166	0.082759	0.082526	343.481	47227.9	0.077304	0.195064	1760.86	97697.3
1160	2.000000	1.137399	7.3764e+06	-57589.1	1105.82	-29736.6	0.000000	0.000000	7.152363	362.004	NaN	0.000000	0.001657	0.001706	28.0823	89.5743	0.001793	49967.3	4.709269	172.785	357.75	1.137152	0.084760	0.084512	362.004	49967.3	0.079326	0.204082	1773.82	101055
1160	2.000000	1.139336	7.3764e+06	-57589.1	1105.82	-29736.6	0.000000	0.000000	7.154642	370.317	NaN	0.000000	0.001655	0.001666	28.0835	90.9303	0.001825	49835.9	1.006026	176.956	362.05	1.139036	0.086696	0.086397	370.317	49835.9	0.081123	0.212256	1744.68	98829.4
1160	2.000000	1.141455	7.3764e+06	-57589.1	1105.82	-29736.6	0.000000	0.000000	7.157387	385.538	NaN	0.000000	0.001637	0.001641	28.0834	94.0156	0.001885	49888	4.801933	172.776	385.514	1.141116	0.088815	0.088476	385.538	49888	0.083019	0.221043	1744.18	96946.4
1160	2.000000	1.143441	7.3764e+06	-57589.1	1105.82	-29736.6	0.000000	0.000000	7.159957	399.728	NaN	0.000000	0.001621	0.001632	28.0837	96.7437	0.001835	52711.8	5.983913	171.19	397.706	1.143068	0.090801	0.090428	399.728	52711.8	0.085114	0.230945	1730.84	100214
1160	2.000000	1.145544	7.3764e+06	-57589.1	1105.82	-29736.6	0.000000	0.000000	7.162500	410.41	NaN	0.000000	0.001621	0.001672	28.0837	97.0268	0.001797	53981.7	4.310112	173.056	414.427	1.145121	0.092905	0.092482	410.41	53981.7	0.087203	0.241022	1702.79	100460
1160	2.000000	1.147393	7.3764e+06	-57589.1	1105.82	-29736.6	0.000000	0.000000	7.165141	429.681	NaN	0.000000	0.001658	0.001674	28.0838	99.2869	0.001734	57273.2	4.260711	172.78	425.996	1.147077	0.094753	0.094438	429.681	57273.2	0.089127	0.250480	1715.43	104553
1160	2.000000	1.149521	7.3764e+06	-57589.1	1105.82	-29736.6	0.000000	0.000000	7.167890	444.779	NaN	0.000000	0.001642	0.001647	28.0833	103.14	0.001798	57369.9	8.035399	168.738	447.312	1.149086	0.096881	0.096447	444.779	57369.9	0.091067	0.260189	1709.45	102757
1160	2.000000	1.151358	7.3764e+06	-57589.1	1105.82	-29736.6	0.000000	0.000000	7.170755	469.74	NaN	0.000000	0.001701	0.001650	28.0834	103.179	0.001739	59318.5	6.249708	170.277	464.097	1.151084	0.098718	0.098444	469.74	59318.5	0.092779	0.268903	1746.87	104512
1160	2.000000	1.153528	7.3764e+06	-57589.1	1105.82	-29736.6	0.000000	0.000000	7.173159	475.433	NaN	0.000000	0.001641	0.001672	28.0836	108.465	0.001909	56822.2	11.2286	166.033	478.425	1.153024	0.100889	0.100385	475.433	56822.2	0.094613	0.278385	1707.83	98394
1160	2.000000	1.155485	7.3764e+06	-57589.1	1105.82	-29736.6	0.000000	0.000000	7.175757	491.02	NaN	0.000000	0.001593	0.001693	28.0836	107.839	0.001659	64988.9	9.857295	166.478	493.951	1.154947	0.102845	0.102307	491.02	64988.9	0.097179	0.291904	1682.13	109899