File: remote_trans/data/nanoindenter/0828-1/data/Data_2025-08-06,11h17m57s/2025-07-22_16-23-58_1_415.txt
2025-07-22, 16:23:58, 1
Index	Phase	Displacement	Time	Pos X	Pos Y	Pos Z	Rot A	Rot B	Piezo Z	Force A	Force B	Gripper	Voltage A	Voltage B	Temperature	Amplitude force	Amplitude pos	Stiffness	Phase shift	Phase excitation	Force A raw	Displacement raw	HMax	HMax raw	Real Force	Real Stiffness	Contact Depth	Area	Hardness	Reduced Mod.
[#]	[#]	[um]	[s]	[um]	[um]	[um]	[m°]	[m°]	[um]	[uN]	[uN]	[V]	[V]	[V]	[°C]	[uN]	[um]	[N/m]	[°]	[°]	[uN]	[um]	[um]	[um]	[uN]	[N/m]	[um]	[um^2]	[MPa]	[MPa]
415	1.000000	0.002900	7.36912e+06	-56339.1	1005.82	-29739.4	0.000000	0.000000	6.002815	0.047283	NaN	0.000000	0.001663	0.001743	28.079	0.111611	0.001045	106.788	-63.5897	-164.017	-0.006681	0.001641	-1.109005	-1.110265	0.047283	106.788	-1.109338	-6.689557E+14	-7.068111E-17	NaN
415	1.000000	0.012948	7.36912e+06	-56339.1	1005.82	-29739.4	0.000000	0.000000	6.012862	0.011402	NaN	0.000000	0.001701	0.001663	28.0791	0.073506	0.001332	55.1897	-154.455	13.2775	0.057655	0.011529	-1.098957	-1.100376	0.011402	55.1897	-1.099112	-4.876978E+14	-2.338014E-17	NaN
415	1.000000	0.022821	7.36912e+06	-56339.1	1005.82	-29739.4	0.000000	0.000000	6.022734	0.006696	NaN	0.000000	0.001644	0.001665	28.079	0.118169	0.001750	67.5071	22.1503	-162.579	-0.009034	0.021527	-1.089084	-1.090378	0.006696	67.5071	-1.089159	-3.585224E+14	-1.867537E-17	NaN
415	1.000000	0.032801	7.36912e+06	-56339.1	1005.82	-29739.4	0.000000	0.000000	6.032716	0.043964	NaN	0.000000	0.001698	0.001669	28.0792	0.055847	0.002030	27.5155	170.061	19.4506	0.022771	0.031487	-1.079104	-1.080419	0.043964	27.5155	-1.080302	-2.726332E+14	-1.612577E-16	NaN
415	1.000000	0.042829	7.36912e+06	-56339.1	1005.82	-29739.4	0.000000	0.000000	6.042740	-0.059950	NaN	0.000000	0.001684	0.001674	28.0793	0.042349	0.001927	21.9778	178.214	-163.322	-0.051709	0.041529	-1.069077	-1.070377	-0.059950	21.9778	-1.067031	-1.808405E+14	3.315085E-16	NaN
415	1.000000	0.052843	7.36912e+06	-56339.1	1005.82	-29739.4	0.000000	0.000000	6.052758	0.054619	NaN	0.000000	0.001652	0.001629	28.0792	0.002952	0.002014	1.465900	86.6314	15.5724	-0.008313	0.051414	-1.059063	-1.060491	0.054619	1.465900	-1.087008	-3.354535E+14	-1.628225E-16	NaN
415	1.000000	0.062861	7.36912e+06	-56339.1	1005.82	-29739.4	0.000000	0.000000	6.062773	-0.029071	NaN	0.000000	0.001679	0.001651	28.0792	0.096120	0.001926	49.9143	13.0508	-166.055	0.009060	0.061527	-1.049045	-1.050378	-0.029071	49.9143	-1.048608	-1.022590E+14	2.842889E-16	NaN
415	1.000000	0.072834	7.36912e+06	-56339.1	1005.82	-29739.4	0.000000	0.000000	6.072747	0.000710	NaN	0.000000	0.001662	0.001654	28.0791	0.040570	0.002037	19.9162	60.9182	15.7002	0.076756	0.071487	-1.039072	-1.040419	0.000710	19.9162	-1.039098	-7.618031E+13	-9.319194E-18	NaN
415	1.000000	0.082844	7.36912e+06	-56339.1	1005.82	-29739.4	0.000000	0.000000	6.082755	-0.046261	NaN	0.000000	0.001605	0.001681	28.0794	0.045778	0.001976	23.1673	17.3469	-165.703	-0.051445	0.081505	-1.029061	-1.030401	-0.046261	23.1673	-1.027564	-5.329755E+13	8.679793E-16	NaN
415	1.000000	0.092867	7.36912e+06	-56339.1	1005.82	-29739.4	0.000000	0.000000	6.092782	0.028814	NaN	0.000000	0.001663	0.001654	28.0791	0.048001	0.001950	24.6099	-19.2207	15.6985	-0.039896	0.091505	-1.019038	-1.020400	0.028814	24.6099	-1.019916	-4.205540E+13	-6.851396E-16	NaN
415	1.000000	0.102843	7.36912e+06	-56339.1	1005.82	-29739.4	0.000000	0.000000	6.102756	0.008697	NaN	0.000000	0.001629	0.001670	28.0791	0.028593	0.001934	14.7839	-84.8999	-166.989	-0.050736	0.101503	-1.009062	-1.010403	0.008697	14.7839	-1.009504	-3.045795E+13	-2.855252E-16	NaN
415	1.000000	0.112869	7.36912e+06	-56339.1	1005.82	-29739.4	0.000000	0.000000	6.112783	0.020198	NaN	0.000000	0.001649	0.001644	28.0788	0.011670	0.002020	5.776594	48.7388	12.147	0.059890	0.111495	-0.999036	-1.000410	0.020198	5.776594	-1.001658	-2.388333E+13	-8.457021E-16	NaN
415	1.000000	0.122852	7.36912e+06	-56339.1	1005.82	-29739.4	0.000000	0.000000	6.122760	-0.108580	NaN	0.000000	0.001667	0.001630	28.0802	0.042659	0.001933	22.0729	-36.8818	-165.591	-0.096583	0.121585	-0.989054	-0.990321	-0.108580	22.0729	-0.985364	-1.441035E+13	7.534846E-15	NaN
415	1.000000	0.132888	7.36912e+06	-56339.1	1005.82	-29739.4	0.000000	0.000000	6.132801	-0.006985	NaN	0.000000	0.001691	0.001634	28.0801	0.036517	0.001953	18.6965	-143.671	17.9156	0.025384	0.131503	-0.979017	-0.980403	-0.006985	18.6965	-0.978737	-1.173254E+13	5.953877E-16	NaN
415	1.000000	0.142884	7.36912e+06	-56339.1	1005.82	-29739.4	0.000000	0.000000	6.142797	-0.006737	NaN	0.000000	0.001654	0.001698	28.0803	0.054565	0.002000	27.2813	-31.8879	-165.461	0.080319	0.141558	-0.969021	-0.970348	-0.006737	27.2813	-0.968836	-8.629298E+12	7.807288E-16	NaN
415	1.000000	0.152879	7.36912e+06	-56339.1	1005.82	-29739.4	0.000000	0.000000	6.152793	0.029678	NaN	0.000000	0.001665	0.001630	28.0801	0.044059	0.002065	21.3386	-16.1336	17.5016	0.014620	0.151497	-0.959027	-0.960409	0.029678	21.3386	-0.960070	-6.573689E+12	-4.514591E-15	NaN
415	1.000000	0.162890	7.36912e+06	-56339.1	1005.82	-29739.4	0.000000	0.000000	6.162802	-0.012727	NaN	0.000000	0.001639	0.001624	28.0802	0.105175	0.002071	50.7775	-171.432	-165.68	-0.020471	0.161564	-0.949016	-0.950341	-0.012727	50.7775	-0.948828	-4.636774E+12	2.744872E-15	NaN
415	1.000000	0.172894	7.36912e+06	-56339.1	1005.82	-29739.4	0.000000	0.000000	6.172804	-0.081402	NaN	0.000000	0.001658	0.001643	28.0801	0.076995	0.002034	37.8563	62.478	13.9232	0.000947	0.171515	-0.939012	-0.940391	-0.081402	37.8563	-0.937399	-3.251189E+12	2.503765E-14	NaN
415	1.000000	0.182904	7.36912e+06	-56339.1	1005.82	-29739.4	0.000000	0.000000	6.182819	0.048704	NaN	0.000000	0.001675	0.001647	28.0801	0.106052	0.001916	55.3579	178.74	-161.627	0.093006	0.181632	-0.929001	-0.930273	0.048704	55.3579	-0.929661	-2.556360E+12	-1.905196E-14	NaN
415	1.000000	0.192872	7.36912e+06	-56339.1	1005.82	-29739.4	0.000000	0.000000	6.192785	-0.003736	NaN	0.000000	0.001661	0.001647	28.0802	0.041647	0.002100	19.8302	26.0254	17.0148	-0.047210	0.191544	-0.919034	-0.920361	-0.003736	19.8302	-0.918892	-1.829149E+12	2.042714E-15	NaN
415	1.000000	0.202889	7.36912e+06	-56339.1	1005.82	-29739.4	0.000000	0.000000	6.202802	-0.014850	NaN	0.000000	0.001677	0.001647	28.0801	0.077670	0.002076	37.4139	4.614564	-167.681	-0.012060	0.201617	-0.909016	-0.910289	-0.014850	37.4139	-0.908719	-1.333078E+12	1.113961E-14	NaN
415	1.000000	0.212911	7.36912e+06	-56339.1	1005.82	-29739.4	0.000000	0.000000	6.212825	0.028355	NaN	0.000000	0.001681	0.001668	28.08	0.021156	0.001889	11.2	168.784	15.1478	0.027709	0.211579	-0.898995	-0.900327	0.028355	11.2	-0.900893	-1.045049E+12	-2.713295E-14	NaN
415	1.000000	0.222904	7.36912e+06	-56339.1	1005.82	-29739.4	0.000000	0.000000	6.222817	-0.002764	NaN	0.000000	0.001642	0.001663	28.0804	0.087916	0.002030	43.3015	70.1841	-165.889	0.043265	0.221568	-0.889001	-0.890338	-0.002764	43.3015	-0.888953	-7.207222E+11	3.834418E-15	NaN
415	1.000000	0.232905	7.36912e+06	-56339.1	1005.82	-29739.4	0.000000	0.000000	6.232820	0.050645	NaN	0.000000	0.001675	0.001650	28.0803	0.031971	0.001931	16.5559	-19.3033	14.7725	-0.015214	0.231519	-0.879000	-0.880386	0.050645	16.5559	-0.881295	-5.678254E+11	-8.919147E-14	NaN
415	1.000000	0.242955	7.36912e+06	-56339.1	1005.82	-29739.4	0.000000	0.000000	6.242868	-0.001435	NaN	0.000000	0.001702	0.001671	28.0802	0.069694	0.001981	35.1837	-163.655	-162.758	-0.019865	0.241590	-0.868950	-0.870316	-0.001435	35.1837	-0.868920	-3.862139E+11	3.715202E-15	NaN
415	1.000000	0.252917	7.36912e+06	-56339.1	1005.82	-29739.4	0.000000	0.000000	6.252829	-0.040964	NaN	0.000000	0.001656	0.001661	28.08	0.139506	0.002022	68.9955	149.151	14.8125	-0.014560	0.251509	-0.858988	-0.860397	-0.040964	68.9955	-0.858543	-2.795105E+11	1.465546E-13	NaN
415	1.000000	0.262944	7.36912e+06	-56339.1	1005.82	-29739.4	0.000000	0.000000	6.262861	0.089208	NaN	0.000000	0.001695	0.001645	28.0793	0.096294	0.001803	53.4174	-111.205	-165.209	0.052633	0.261658	-0.848961	-0.850247	0.089208	53.4174	-0.850213	-2.155890E+11	-4.137866E-13	NaN
415	1.000000	0.272936	7.36912e+06	-56339.1	1005.82	-29739.4	0.000000	0.000000	6.272847	-0.038790	NaN	0.000000	0.001694	0.001679	28.0787	0.086285	0.001994	43.2795	-162.401	16.945	-0.039565	0.271545	-0.838970	-0.840361	-0.038790	43.2795	-0.838297	-1.486705E+11	2.609095E-13	NaN
415	1.000000	0.282930	7.36912e+06	-56339.1	1005.82	-29739.4	0.000000	0.000000	6.282843	-0.024427	NaN	0.000000	0.001687	0.001664	28.0791	0.121711	0.002012	60.4892	-112.514	-164.818	-0.051876	0.281664	-0.828975	-0.830241	-0.024427	60.4892	-0.828672	-1.100992E+11	2.218603E-13	NaN
415	1.000000	0.292915	7.36912e+06	-56339.1	1005.82	-29739.4	0.000000	0.000000	6.292827	-0.018075	NaN	0.000000	0.001680	0.001644	28.0791	0.060713	0.002045	29.6823	-154.956	13.3411	-0.047277	0.291561	-0.818990	-0.820344	-0.018075	29.6823	-0.818534	-8.022810E+10	2.252895E-13	NaN
415	1.000000	0.302923	7.36912e+06	-56339.1	1005.82	-29739.4	0.000000	0.000000	6.302835	-0.023695	NaN	0.000000	0.001709	0.001676	28.0795	0.073655	0.002053	35.8767	166.324	-163.479	0.027943	0.301583	-0.808982	-0.810322	-0.023695	35.8767	-0.808487	-5.861930E+10	4.042229E-13	NaN
415	1.000000	0.312949	7.36912e+06	-56339.1	1005.82	-29739.4	0.000000	0.000000	6.312864	0.033815	NaN	0.000000	0.001670	0.001683	28.079	0.068518	0.002045	33.4975	-179.75	16.3385	0.046491	0.311583	-0.798956	-0.800322	0.033815	33.4975	-0.799713	-4.456241E+10	-7.588155E-13	NaN
415	1.000000	0.322917	7.36912e+06	-56339.1	1005.82	-29739.4	0.000000	0.000000	6.322832	0.033287	NaN	0.000000	0.001705	0.001685	28.0793	0.049779	0.002050	24.2771	137.706	-162.974	0.058829	0.321592	-0.788988	-0.790313	0.033287	24.2771	-0.790016	-3.290812E+10	-1.011500E-12	NaN
415	1.000000	0.332929	7.36912e+06	-56339.1	1005.82	-29739.4	0.000000	0.000000	6.332843	0.019400	NaN	0.000000	0.001697	0.001641	28.079	0.058291	0.001952	29.8576	-41.1112	11.855	-0.030127	0.331596	-0.778976	-0.780309	0.019400	29.8576	-0.779464	-2.365620E+10	-8.200915E-13	NaN
415	1.000000	0.342939	7.36912e+06	-56339.1	1005.82	-29739.4	0.000000	0.000000	6.342853	0.016574	NaN	0.000000	0.001655	0.001684	28.0793	0.057239	0.001999	28.6319	17.6272	-166.577	0.015507	0.341682	-0.768966	-0.770223	0.016574	28.6319	-0.769400	-1.726433E+10	-9.600310E-13	NaN
415	1.000000	0.352981	7.36912e+06	-56339.1	1005.82	-29739.4	0.000000	0.000000	6.352895	0.011849	NaN	0.000000	0.001675	0.001696	28.0789	0.092204	0.002065	44.6521	176.905	17.1595	0.037874	0.351600	-0.758924	-0.760306	0.011849	44.6521	-0.759123	-1.251324E+10	-9.468904E-13	NaN
415	1.000000	0.362945	7.36912e+06	-56339.1	1005.82	-29739.4	0.000000	0.000000	6.362856	-0.058430	NaN	0.000000	0.001664	0.001685	28.0791	0.057476	0.002048	28.0582	-52.1395	-164.804	0.051325	0.361664	-0.748960	-0.750241	-0.058430	28.0582	-0.747399	-8.665757E+9	6.742677E-12	NaN
415	1.000000	0.372984	7.36912e+06	-56339.1	1005.82	-29739.4	0.000000	0.000000	6.372900	0.069492	NaN	0.000000	0.001673	0.001694	28.0792	0.085047	0.002050	41.4902	73.5724	16.3102	0.081602	0.371608	-0.738921	-0.740297	0.069492	41.4902	-0.740177	-6.909866E+9	-1.005691E-11	NaN
415	1.000000	0.382926	7.36912e+06	-56339.1	1005.82	-29739.4	0.000000	0.000000	6.382839	-0.018517	NaN	0.000000	0.001678	0.001675	28.0791	0.006993	0.001952	3.583020	105.624	-164.073	0.050129	0.381707	-0.728979	-0.730198	-0.018517	3.583020	-0.725103	-4.305868E+9	4.300297E-12	NaN
415	1.000000	0.393015	7.36912e+06	-56339.1	1005.82	-29739.4	0.000000	0.000000	6.392928	-0.002181	NaN	0.000000	0.001661	0.001709	28.0795	0.060440	0.002124	28.4526	-106.792	12.7623	-0.011365	0.391582	-0.718890	-0.720324	-0.002181	28.4526	-0.718833	-3.536321E+9	6.167252E-13	NaN
415	1.000000	0.402989	7.36912e+06	-56339.1	1005.82	-29739.4	0.000000	0.000000	6.402901	-0.011344	NaN	0.000000	0.001653	0.001697	28.0804	0.087209	0.001979	44.0784	143.814	-166.307	-0.014110	0.401670	-0.708917	-0.710235	-0.011344	44.0784	-0.708724	-2.574132E+9	4.406979E-12	NaN
415	1.000000	0.412960	7.36912e+06	-56339.1	1005.82	-29739.4	0.000000	0.000000	6.412875	0.038708	NaN	0.000000	0.001685	0.001653	28.0804	0.023775	0.001914	12.422	116.545	19.0437	0.025264	0.411608	-0.698945	-0.700297	0.038708	12.422	-0.701282	-2.037249E+9	-1.899996E-11	NaN
415	1.000000	0.423007	7.36912e+06	-56339.1	1005.82	-29739.4	0.000000	0.000000	6.422922	0.050678	NaN	0.000000	0.001693	0.001662	28.0802	0.072184	0.001930	37.3956	-156.355	-166.237	0.046330	0.421716	-0.688899	-0.690189	0.050678	37.3956	-0.689915	-1.424814E+9	-3.556849E-11	NaN
415	1.000000	0.432987	7.36912e+06	-56339.1	1005.82	-29739.4	0.000000	0.000000	6.432903	0.062229	NaN	0.000000	0.001685	0.001632	28.0802	0.105516	0.002060	51.2185	-63.8918	18.5365	-0.062396	0.431640	-0.678919	-0.680265	0.062229	51.2185	-0.679830	-1.037236E+9	-5.999463E-11	NaN
415	1.000000	0.442991	7.36912e+06	-56339.1	1005.82	-29739.4	0.000000	0.000000	6.442905	0.014760	NaN	0.000000	0.001657	0.001662	28.0804	0.051696	0.001890	27.3486	-54.4813	-165.043	0.123020	0.441685	-0.668914	-0.670220	0.014760	27.3486	-0.669319	-7.448568E+8	-1.981522E-11	NaN
415	1.000000	0.452991	7.36912e+06	-56339.1	1005.82	-29739.4	0.000000	0.000000	6.452903	-0.025755	NaN	0.000000	0.001681	0.001698	28.0802	0.085107	0.001990	42.7741	-77.1022	15.1299	-0.044665	0.451631	-0.658914	-0.660274	-0.025755	42.7741	-0.658463	-5.289419E+8	4.869148E-11	NaN
415	1.000000	0.462999	7.36912e+06	-56339.1	1005.82	-29739.4	0.000000	0.000000	6.462912	-0.010888	NaN	0.000000	0.001655	0.001716	28.0802	0.122574	0.001873	65.4254	-62.4641	-169.89	0.003606	0.461735	-0.648906	-0.650170	-0.010888	65.4254	-0.648781	-3.896964E+8	2.793989E-11	NaN
415	1.000000	0.472999	7.36912e+06	-56339.1	1005.82	-29739.4	0.000000	0.000000	6.472914	0.050800	NaN	0.000000	0.001642	0.001704	28.0803	0.044972	0.001959	22.9593	-16.1289	14.1252	0.079586	0.471632	-0.638906	-0.640273	0.050800	22.9593	-0.640566	-3.006447E+8	-1.689715E-10	NaN
415	1.000000	0.483050	7.36912e+06	-56339.1	1005.82	-29739.4	0.000000	0.000000	6.482965	0.030436	NaN	0.000000	0.001675	0.001689	28.0804	0.018877	0.002100	8.988052	17.1189	-163.063	-0.005592	0.481659	-0.628855	-0.630246	0.030436	8.988052	-0.631395	-2.249966E+8	-1.352733E-10	NaN
415	1.000000	0.493053	7.36912e+06	-56339.1	1005.82	-29739.4	0.000000	0.000000	6.492966	-0.004465	NaN	0.000000	0.001646	0.001692	28.0803	0.162734	0.001992	81.703	25.9446	14.1431	-0.051510	0.491669	-0.618852	-0.620237	-0.004465	81.703	-0.618811	-1.511101E+8	2.954533E-11	NaN
415	1.000000	0.503015	7.36912e+06	-56339.1	1005.82	-29739.4	0.000000	0.000000	6.502929	0.017019	NaN	0.000000	0.001652	0.001701	28.0802	0.018155	0.002043	8.887830	32.8987	-165.116	0.068839	0.501734	-0.608890	-0.610171	0.017019	8.887830	-0.610326	-1.155065E+8	-1.473441E-10	NaN
415	1.000000	0.513034	7.36912e+06	-56339.1	1005.82	-29739.4	0.000000	0.000000	6.512949	0.030705	NaN	0.000000	0.001666	0.001677	28.0802	0.072300	0.002051	35.2444	-115.87	12.0782	0.011336	0.511669	-0.598871	-0.600236	0.030705	35.2444	-0.599524	-8.201776E+7	-3.743710E-10	NaN
415	1.000000	0.523041	7.36912e+06	-56339.1	1005.82	-29739.4	0.000000	0.000000	6.522956	0.046791	NaN	0.000000	0.001656	0.001691	28.0802	0.102322	0.002051	49.8991	133.13	-164.3	-0.030751	0.521708	-0.588865	-0.590197	0.046791	49.8991	-0.589568	-5.980117E+7	-7.824412E-10	NaN
415	1.000000	0.533026	7.36912e+06	-56339.1	1005.82	-29739.4	0.000000	0.000000	6.532942	0.054977	NaN	0.000000	0.001678	0.001677	28.0789	0.132504	0.002007	66.0275	-90.9258	13.2751	0.021135	0.531649	-0.578879	-0.580256	0.054977	66.0275	-0.579504	-4.343853E+7	-1.265631E-9	NaN
415	1.000000	0.543040	7.36912e+06	-56339.1	1005.82	-29739.4	0.000000	0.000000	6.542954	0.029047	NaN	0.000000	0.001679	0.001675	28.0789	0.062370	0.001997	31.2375	-91.698	-162.477	0.043927	0.541753	-0.568866	-0.570152	0.029047	31.2375	-0.569563	-3.166617E+7	-9.172935E-10	NaN
415	1.000000	0.553060	7.36912e+06	-56339.1	1005.82	-29739.4	0.000000	0.000000	6.552973	-0.023043	NaN	0.000000	0.001668	0.001698	28.0793	0.048515	0.001991	24.3696	-86.1069	12.4282	0.076550	0.551698	-0.558845	-0.560208	-0.023043	24.3696	-0.558136	-2.200831E+7	1.046993E-9	NaN
415	1.000000	0.563041	7.36912e+06	-56339.1	1005.82	-29739.4	0.000000	0.000000	6.562954	0.005595	NaN	0.000000	0.001722	0.001680	28.0792	0.019982	0.001962	10.1836	53.4724	-164.712	0.073388	0.561748	-0.548864	-0.550158	0.005595	10.1836	-0.549276	-1.659332E+7	-3.371955E-10	NaN
415	1.000000	0.573055	7.36912e+06	-56339.1	1005.82	-29739.4	0.000000	0.000000	6.572969	0.012529	NaN	0.000000	0.001671	0.001701	28.079	0.147706	0.001845	80.0729	96.7606	14.6247	-0.015338	0.571711	-0.538850	-0.540194	0.012529	80.0729	-0.538968	-1.194091E+7	-1.049209E-9	NaN
415	1.000000	0.583054	7.36912e+06	-56339.1	1005.82	-29739.4	0.000000	0.000000	6.582967	-0.004050	NaN	0.000000	0.001663	0.001714	28.079	0.141232	0.001975	71.4919	-79.5583	-166.041	-0.019789	0.581810	-0.528851	-0.530095	-0.004050	71.4919	-0.528808	-8.6303e+06	4.692789E-10	NaN
415	1.000000	0.593099	7.36912e+06	-56339.1	1005.82	-29739.4	0.000000	0.000000	6.593014	0.039961	NaN	0.000000	0.001640	0.001719	28.0793	0.037491	0.001932	19.4086	39.6432	15.3444	0.060413	0.591699	-0.518807	-0.520206	0.039961	19.4086	-0.520351	-6.58378e+06	-6.069557E-9	NaN
415	1.000000	0.603084	7.36912e+06	-56339.1	1005.82	-29739.4	0.000000	0.000000	6.602996	-0.012102	NaN	0.000000	0.001639	0.001709	28.0787	0.046844	0.002051	22.8413	-10.8839	-165.508	0.032536	0.601719	-0.508822	-0.510186	-0.012102	22.8413	-0.508424	-4.49226e+06	2.693977E-9	NaN
415	1.000000	0.613049	7.36912e+06	-56339.1	1005.82	-29739.4	0.000000	0.000000	6.612963	0.040707	NaN	0.000000	0.001722	0.001691	28.0791	0.107491	0.002010	53.483	3.098376	15.9122	0.045151	0.611705	-0.498857	-0.500200	0.040707	53.483	-0.499428	-3.36537e+06	-1.209585E-8	NaN
415	1.000000	0.623069	7.36912e+06	-56339.1	1005.82	-29739.4	0.000000	0.000000	6.622984	0.040245	NaN	0.000000	0.001666	0.001715	28.0806	0.020679	0.002050	10.0878	146.988	-170.097	0.063422	0.621766	-0.488836	-0.490139	0.040245	10.0878	-0.491828	-2.63595e+06	-1.526772E-8	NaN
415	1.000000	0.633075	7.36912e+06	-56339.1	1005.82	-29739.4	0.000000	0.000000	6.632988	0.004737	NaN	0.000000	0.001716	0.001706	28.0826	0.080295	0.002020	39.7415	28.8663	16.8699	-0.072976	0.631740	-0.478830	-0.480165	0.004737	39.7415	-0.478920	-1.73942e+06	-2.723039E-9	NaN
415	1.000000	0.643098	7.36912e+06	-56339.1	1005.82	-29739.4	0.000000	0.000000	6.643012	0.025192	NaN	0.000000	0.001722	0.001699	28.0793	0.030677	0.002022	15.1696	71.7207	-164.551	0.008900	0.641763	-0.468808	-0.470142	0.025192	15.1696	-0.470053	-1.30663e+06	-1.927990E-8	NaN
415	1.000000	0.653112	7.36912e+06	-56339.1	1005.82	-29739.4	0.000000	0.000000	6.653027	0.035836	NaN	0.000000	0.001724	0.001695	28.079	0.073198	0.002081	35.1818	118.963	11.6576	0.031078	0.651754	-0.458793	-0.460151	0.035836	35.1818	-0.459557	-930676	-3.850546E-8	NaN
415	1.000000	0.663090	7.36912e+06	-56339.1	1005.82	-29739.4	0.000000	0.000000	6.663003	-0.019574	NaN	0.000000	0.001670	0.001713	28.0787	0.073923	0.002005	36.8765	-174.446	-162.124	-0.018347	0.661762	-0.448815	-0.450143	-0.019574	36.8765	-0.448417	-648705	3.017421E-8	NaN
415	1.000000	0.673112	7.36912e+06	-56339.1	1005.82	-29739.4	0.000000	0.000000	6.673027	0.035066	NaN	0.000000	0.001700	0.001718	28.0802	0.087736	0.002020	43.4335	165.129	15.8589	0.046760	0.671716	-0.438793	-0.440189	0.035066	43.4335	-0.439398	-484030	-7.244550E-8	NaN
415	1.000000	0.683080	7.36912e+06	-56339.1	1005.82	-29739.4	0.000000	0.000000	6.682992	-0.031990	NaN	0.000000	0.001695	0.001676	28.08	0.087346	0.001908	45.7837	8.529092	-165.055	-0.022930	0.681775	-0.428826	-0.430130	-0.031990	45.7837	-0.428302	-337309	9.483978E-8	NaN
415	1.000000	0.693111	7.36912e+06	-56339.1	1005.82	-29739.4	0.000000	0.000000	6.693024	0.000870	NaN	0.000000	0.001736	0.001709	28.08	0.011671	0.002000	5.834967	-89.5899	12.6016	0.049886	0.691767	-0.418794	-0.420138	0.000870	5.834967	-0.418906	-248257	-3.505962E-9	NaN
415	1.000000	0.703103	7.36912e+06	-56339.1	1005.82	-29739.4	0.000000	0.000000	6.703021	0.111947	NaN	0.000000	0.001735	0.001666	28.0801	0.032564	0.002099	15.5158	155.446	-164.699	0.080957	0.701827	-0.408802	-0.410079	0.111947	15.5158	-0.414213	-212952	-5.256896E-7	NaN
415	1.000000	0.713130	7.36912e+06	-56339.1	1005.82	-29739.4	0.000000	0.000000	6.713044	0.036205	NaN	0.000000	0.001748	0.001685	28.0801	0.079463	0.001946	40.8423	-143.961	12.823	0.038608	0.711769	-0.398776	-0.400137	0.036205	40.8423	-0.399441	-131225	-2.758981E-7	NaN
415	1.000000	0.723103	7.36912e+06	-56339.1	1005.82	-29739.4	0.000000	0.000000	6.723017	0.023710	NaN	0.000000	0.001736	0.001675	28.0799	0.103439	0.002067	50.0461	-47.4973	-167.841	0.009631	0.721801	-0.388802	-0.390104	0.023710	50.0461	-0.389157	-93564.7	-2.534117E-7	NaN
415	1.000000	0.733111	7.36912e+06	-56339.1	1005.82	-29739.4	0.000000	0.000000	6.733027	0.077201	NaN	0.000000	0.001724	0.001706	28.0798	0.017117	0.002132	8.029143	173.792	13.0388	0.016405	0.731752	-0.378795	-0.380153	0.077201	8.029143	-0.386006	-84332.8	-9.154272E-7	NaN
415	1.000000	0.743130	7.36912e+06	-56339.1	1005.82	-29739.4	0.000000	0.000000	6.743047	0.084442	NaN	0.000000	0.001741	0.001684	28.0802	0.207514	0.001990	104.264	152.191	-165.723	0.148621	0.741825	-0.368775	-0.370080	0.084442	104.264	-0.369383	-48667.4	-1.735088E-6	NaN
415	1.000000	0.753131	7.36912e+06	-56339.1	1005.82	-29739.4	0.000000	0.000000	6.753043	-0.032086	NaN	0.000000	0.001779	0.001719	28.0799	0.117157	0.002075	56.4625	-10.1803	14.0958	0.017185	0.751813	-0.358775	-0.360092	-0.032086	56.4625	-0.358348	-33725.8	9.513703E-7	NaN
415	1.000000	0.763133	7.36912e+06	-56339.1	1005.82	-29739.4	0.000000	0.000000	6.763046	-0.007424	NaN	0.000000	0.001777	0.001679	28.08	0.141755	0.002000	70.8769	100.114	-166.324	-0.003225	0.761807	-0.348772	-0.350098	-0.007424	70.8769	-0.348694	-24436.4	3.037984E-7	NaN
415	1.000000	0.773128	7.36912e+06	-56339.1	1005.82	-29739.4	0.000000	0.000000	6.773040	-0.041493	NaN	0.000000	0.001796	0.001705	28.0799	0.067107	0.001884	35.6255	106.992	13.2868	0.005759	0.771809	-0.338777	-0.340096	-0.041493	35.6255	-0.337904	-17020.9	2.437763E-6	NaN
415	1.000000	0.783095	7.36912e+06	-56339.1	1005.82	-29739.4	0.000000	0.000000	6.783011	0.056739	NaN	0.000000	0.001746	0.001703	28.0802	0.080417	0.001831	43.9248	-150.606	-165.494	0.072131	0.781805	-0.328810	-0.330100	0.056739	43.9248	-0.329779	-12948.4	-4.381929E-6	NaN
415	1.000000	0.793165	7.36912e+06	-56339.1	1005.82	-29739.4	0.000000	0.000000	6.793079	0.016674	NaN	0.000000	0.001724	0.001709	28.0798	0.048600	0.002004	24.2511	-55.8644	15.1579	0.043039	0.791755	-0.318740	-0.320150	0.016674	24.2511	-0.319256	-9071.63	-1.838013E-6	NaN
415	1.000000	0.803162	7.36912e+06	-56339.1	1005.82	-29739.4	0.000000	0.000000	6.803077	0.042350	NaN	0.000000	0.001738	0.001701	28.0791	0.072702	0.002080	34.9531	-61.9363	-164.682	0.057803	0.801853	-0.308743	-0.310053	0.042350	34.9531	-0.309652	-6544.87	-6.470644E-6	NaN
415	1.000000	0.813155	7.36912e+06	-56339.1	1005.82	-29739.4	0.000000	0.000000	6.813069	0.020911	NaN	0.000000	0.001779	0.001691	28.0784	0.012743	0.002079	6.129392	149.778	14.7106	-0.007496	0.811800	-0.298751	-0.300105	0.020911	6.129392	-0.301309	-4921.75	-4.248710E-6	NaN
415	1.000000	0.823171	7.36912e+06	-56339.1	1005.82	-29739.4	0.000000	0.000000	6.823082	-0.050295	NaN	0.000000	0.001717	0.001652	28.0783	0.082455	0.002036	40.4908	-159.865	-165.771	-0.019649	0.821842	-0.288735	-0.290063	-0.050295	40.4908	-0.287803	-3092.88	1.626173E-5	NaN
415	1.000000	0.833166	7.36912e+06	-56339.1	1005.82	-29739.4	0.000000	0.000000	6.833081	0.063722	NaN	0.000000	0.001764	0.001694	28.0785	0.060593	0.002031	29.8356	127.618	13.6375	0.064080	0.831851	-0.278740	-0.280054	0.063722	29.8356	-0.280342	-2388.49	-2.667893E-5	NaN
415	1.000000	0.843162	7.36912e+06	-56339.1	1005.82	-29739.4	0.000000	0.000000	6.843078	0.058992	NaN	0.000000	0.001759	0.001711	28.0785	0.067606	0.001957	34.545	-101.436	-166.981	0.081983	0.841858	-0.268743	-0.270047	0.058992	34.545	-0.270024	-1666.91	-3.539015E-5	NaN
415	1.000000	0.853173	7.36912e+06	-56339.1	1005.82	-29739.4	0.000000	0.000000	6.853088	0.054158	NaN	0.000000	0.001715	0.001681	28.0787	0.084077	0.002095	40.1359	-44.3865	16.6123	-0.045640	0.851833	-0.258733	-0.260072	0.054158	40.1359	-0.259745	-1161.46	-4.662953E-5	NaN
415	1.000000	0.863161	7.36912e+06	-56339.1	1005.82	-29739.4	0.000000	0.000000	6.863075	0.021145	NaN	0.000000	0.001735	0.001669	28.0785	0.105581	0.002085	50.6289	-168.207	-167.588	-0.018211	0.861842	-0.248744	-0.250063	0.021145	50.6289	-0.249057	-795.023	-2.659687E-5	NaN
415	1.000000	0.873186	7.36912e+06	-56339.1	1005.82	-29739.4	0.000000	0.000000	6.873102	0.057088	NaN	0.000000	0.001784	0.001713	28.0783	0.146475	0.002072	70.6914	69.0874	17.377	0.059027	0.871825	-0.238719	-0.240080	0.057088	70.6914	-0.239325	-561.049	-0.000102	NaN
415	1.000000	0.883204	7.36912e+06	-56339.1	1005.82	-29739.4	0.000000	0.000000	6.883114	-0.063266	NaN	0.000000	0.001725	0.001717	28.0786	0.032047	0.001837	17.4416	-93.8319	-166.934	-0.040546	0.881855	-0.228702	-0.230050	-0.063266	17.4416	-0.225981	-345.866	0.000183	NaN
415	1.000000	0.893200	7.36912e+06	-56339.1	1005.82	-29739.4	0.000000	0.000000	6.893110	-0.070665	NaN	0.000000	0.001710	0.001715	28.0786	0.077417	0.001953	39.6324	110.729	15.3638	0.019487	0.891827	-0.218705	-0.220078	-0.070665	39.6324	-0.217368	-252.083	0.000280	NaN
415	1.000000	0.903202	7.36912e+06	-56339.1	1005.82	-29739.4	0.000000	0.000000	6.903115	-0.004901	NaN	0.000000	0.001684	0.001742	28.0785	0.040967	0.002202	18.6028	150.695	-168.832	0.051348	0.901876	-0.208703	-0.210030	-0.004901	18.6028	-0.208506	-181.382	2.702301E-5	NaN
415	1.000000	0.913217	7.36912e+06	-56339.1	1005.82	-29739.4	0.000000	0.000000	6.913128	-0.050544	NaN	0.000000	0.001718	0.001741	28.0784	0.083098	0.002058	40.3696	29.0298	13.4653	0.013998	0.911861	-0.198688	-0.200044	-0.050544	40.3696	-0.197749	-120.96	0.000418	NaN
415	1.000000	0.923185	7.36912e+06	-56339.1	1005.82	-29739.4	0.000000	0.000000	6.923099	0.014650	NaN	0.000000	0.001715	0.001751	28.0787	0.130069	0.001964	66.2311	16.2129	-165.911	-0.011417	0.921918	-0.188720	-0.189988	0.014650	66.2311	-0.188886	-86.1787	-0.000170	NaN
415	1.000000	0.933203	7.36912e+06	-56339.1	1005.82	-29739.4	0.000000	0.000000	6.933115	-0.026532	NaN	0.000000	0.001690	0.001735	28.0786	0.035535	0.001970	18.0345	49.9721	17.3259	-0.026789	0.931809	-0.178703	-0.180096	-0.026532	18.0345	-0.177599	-55.5298	0.000478	NaN
415	1.000000	0.943248	7.36912e+06	-56339.1	1005.82	-29739.4	0.000000	0.000000	6.943165	0.089844	NaN	0.000000	0.001760	0.001737	28.0799	0.139429	0.002107	66.1829	77.7199	-163.317	0.008912	0.941825	-0.168658	-0.170081	0.089844	66.1829	-0.169676	-40.549	-0.002216	NaN
415	1.000000	0.953171	7.36912e+06	-56339.1	1005.82	-29739.4	0.000000	0.000000	6.953086	0.046326	NaN	0.000000	0.001781	0.001728	28.0798	0.072280	0.001952	37.0339	0.288820	15.7767	0.029295	0.951873	-0.158734	-0.160032	0.046326	37.0339	-0.159673	-27.05	-0.001713	NaN
415	1.000000	0.963225	7.36912e+06	-56339.1	1005.82	-29739.4	0.000000	0.000000	6.963142	0.071821	NaN	0.000000	0.001754	0.001783	28.08	0.121188	0.002094	57.8746	49.5364	-164.979	0.121539	0.961994	-0.148680	-0.149911	0.071821	57.8746	-0.149611	-17.8196	-0.004030	NaN
415	1.000000	0.973237	7.36912e+06	-56339.1	1005.82	-29739.4	0.000000	0.000000	6.973154	0.075786	NaN	0.000000	0.001778	0.001737	28.0797	0.009930	0.002059	4.822471	-72.5068	15.1287	0.083801	0.971867	-0.138668	-0.140038	0.075786	4.822471	-0.150454	-18.4623	-0.004105	NaN
415	1.000000	0.983245	7.36912e+06	-56339.1	1005.82	-29739.4	0.000000	0.000000	6.983159	0.012685	NaN	0.000000	0.001780	0.001762	28.0797	0.061698	0.002021	30.5343	3.037519	-165.44	-0.008291	0.981904	-0.128660	-0.130001	0.012685	30.5343	-0.128972	-7.277755	-0.001743	NaN
415	1.000000	0.993216	7.36912e+06	-56339.1	1005.82	-29739.4	0.000000	0.000000	6.993128	-0.047889	NaN	0.000000	0.001784	0.001743	28.0796	0.039782	0.002045	19.4532	71.7668	13.6066	-0.061672	0.991836	-0.118689	-0.120069	-0.047889	19.4532	-0.116843	-4.168121	0.011489	NaN
415	1.000000	1.003236	7.36912e+06	-56339.1	1005.82	-29739.4	0.000000	0.000000	7.003151	0.043596	NaN	0.000000	0.001785	0.001767	28.0797	0.112477	0.002043	55.0618	-2.376082	-162.588	0.040156	1.001953	-0.108670	-0.109953	0.043596	55.0618	-0.109264	-2.899471	-0.015036	NaN
415	1.000000	1.013252	7.36912e+06	-56339.1	1005.82	-29739.4	0.000000	0.000000	7.013164	-0.029814	NaN	0.000000	0.001784	0.001731	28.0797	0.090002	0.002039	44.1453	141.733	16.3807	0.033861	1.011888	-0.098653	-0.100017	-0.029814	44.1453	-0.098146	-1.661412	0.017945	NaN
415	1.000000	1.023268	7.36912e+06	-56339.1	1005.82	-29739.4	0.000000	0.000000	7.023185	0.072611	NaN	0.000000	0.001784	0.001745	28.0796	0.122249	0.002024	60.4056	95.2792	-163.132	0.062955	1.021952	-0.088637	-0.089953	0.072611	60.4056	-0.089538	-1.054323	-0.068870	NaN
415	1.000000	1.033238	7.36912e+06	-56339.1	1005.82	-29739.4	0.000000	0.000000	7.033151	0.000531	NaN	0.000000	0.001782	0.001724	28.08	0.197135	0.001914	103.013	-43.2147	12.8235	-0.011917	1.031864	-0.078668	-0.080041	0.000531	103.013	-0.078672	-0.573216	-0.000926	NaN
415	1.000000	1.043234	7.36912e+06	-56339.1	1005.82	-29739.4	0.000000	0.000000	7.043148	0.022642	NaN	0.000000	0.001751	0.001752	28.0797	0.068365	0.001990	34.3623	43.2237	-166.514	-0.032515	1.041948	-0.068671	-0.069958	0.022642	34.3623	-0.069165	-0.323939	-0.069897	NaN
415	1.000000	1.053290	7.36912e+06	-56339.1	1005.82	-29739.4	0.000000	0.000000	7.053205	0.054792	NaN	0.000000	0.001778	0.001711	28.0797	0.017863	0.001835	9.733731	68.4444	15.4049	-0.010715	1.051817	-0.058615	-0.060088	0.054792	9.733731	-0.062837	-0.216837	-0.252688	NaN
415	1.000000	1.063253	7.36912e+06	-56339.1	1005.82	-29739.4	0.000000	0.000000	7.063166	0.004836	NaN	0.000000	0.001785	0.001724	28.0797	0.065959	0.002136	30.8761	-112.828	-166.776	0.039015	1.061935	-0.048652	-0.049970	0.004836	30.8761	-0.048770	-0.083744	-0.057742	NaN
415	1.000000	1.073267	7.36912e+06	-56339.1	1005.82	-29739.4	0.000000	0.000000	7.073179	-0.022344	NaN	0.000000	0.001783	0.001708	28.08	0.055189	0.002033	27.1466	-155.236	16.9184	-0.075947	1.071932	-0.038638	-0.039973	-0.022344	27.1466	-0.038021	-0.039401	0.567093	NaN
415	1.000000	1.083252	7.36912e+06	-56339.1	1005.82	-29739.4	0.000000	0.000000	7.083163	-0.063210	NaN	0.000000	0.001770	0.001741	28.0785	0.073571	0.002071	35.5278	29.7441	-167.198	-0.024949	1.081950	-0.028653	-0.029955	-0.063210	35.5278	-0.027318	-0.019434	3.252619	NaN
415	1.000000	1.093243	7.36912e+06	-56339.1	1005.82	-29739.4	0.000000	0.000000	7.093157	0.023908	NaN	0.000000	0.001748	0.001743	28.0782	0.162911	0.002083	78.2216	174.333	13.3295	-0.061857	1.091869	-0.018663	-0.020036	0.023908	78.2216	-0.018892	-0.011769	-2.031390	NaN
415	1.000000	1.103260	7.36912e+06	-56339.1	1005.82	-29739.4	0.000000	0.000000	7.103176	0.077187	NaN	0.000000	0.001787	0.001761	28.0782	0.041857	0.001947	21.5003	-63.7992	-165.911	-0.028030	1.101916	-0.008645	-0.009989	0.077187	21.5003	-0.011338	-0.007151	-10.7943	NaN
415	1.000000	1.113259	7.36912e+06	-56339.1	1005.82	-29739.4	0.000000	0.000000	7.113226	1.301160	NaN	0.000000	0.001766	0.001752	28.0782	1.892393	0.001833	1032.32	5.232321	14.6824	0.268444	1.111900	0.001353	-5.625728E-6	1.301160	1032.32	0.000408	0.000307	4232.26	53790.7
415	2.000000	1.120835	7.36912e+06	-56339.1	1005.82	-29739.4	0.000000	0.000000	7.121160	10.0166	NaN	0.000000	0.001771	0.001735	28.0786	9.889038	0.001653	5981.63	3.325232	-169.784	9.810651	1.120553	0.008930	0.008648	10.0166	5981.63	0.007674	0.006709	1492.99	66720.8
415	2.000000	1.123342	7.36912e+06	-56339.1	1005.82	-29739.4	0.000000	0.000000	7.123945	16.7755	NaN	0.000000	0.001727	0.001733	28.0784	12.5953	0.001680	7499.25	2.184341	9.275502	15.8733	1.122985	0.011436	0.011079	16.7755	7499.25	0.009759	0.008915	1881.8	72567.2
415	2.000000	1.125746	7.36912e+06	-56339.1	1005.82	-29739.4	0.000000	0.000000	7.126421	18.5107	NaN	0.000000	0.001685	0.001754	28.0784	15.766	0.001768	8916.88	6.383301	-176.315	17.4145	1.125495	0.013841	0.013590	18.5107	8916.88	0.012284	0.011832	1564.43	74895
415	2.000000	1.128250	7.36912e+06	-56339.1	1005.82	-29739.4	0.000000	0.000000	7.129051	21.5783	NaN	0.000000	0.001718	0.001729	28.0785	17.7188	0.001797	9857.59	3.881847	6.588139	20.8658	1.127837	0.016345	0.015932	21.5783	9857.59	0.014703	0.014891	1449.06	73803.7
415	2.000000	1.130763	7.36912e+06	-56339.1	1005.82	-29739.4	0.000000	0.000000	7.131586	22.1257	NaN	0.000000	0.001709	0.001736	28.0782	20.1655	0.001823	11061.5	7.390420	-177.377	21.9819	1.130480	0.018857	0.018574	22.1257	11061.5	0.017357	0.018558	1192.23	74185.3
415	2.000000	1.133258	7.36913e+06	-56339.1	1005.82	-29739.4	0.000000	0.000000	7.134521	32.7974	NaN	0.000000	0.001755	0.001749	28.0783	23.0793	0.001773	13013.4	6.278034	2.167008	31.4576	1.132816	0.021353	0.020911	32.7974	13013.4	0.019463	0.021705	1511.05	80702.2
415	2.000000	1.135702	7.36913e+06	-56339.1	1005.82	-29739.4	0.000000	0.000000	7.137182	38.0782	NaN	0.000000	0.001758	0.001732	28.0785	25.145	0.001785	14086.7	2.274059	-175.688	35.3963	1.135343	0.023796	0.023437	38.0782	14086.7	0.021769	0.025399	1499.21	80756.2
415	2.000000	1.138241	7.36913e+06	-56339.1	1005.82	-29739.4	0.000000	0.000000	7.139897	42.3838	NaN	0.000000	0.001724	0.001743	28.0786	27.6822	0.001885	14682.8	7.315573	0.450991	43.2903	1.137855	0.026335	0.025950	42.3838	14682.8	0.024170	0.029523	1435.6	78072.6
415	2.000000	1.140720	7.36913e+06	-56339.1	1005.82	-29739.4	0.000000	0.000000	7.142602	47.8521	NaN	0.000000	0.001697	0.001722	28.0784	30.3315	0.001774	17097.9	7.232110	178.137	48.2485	1.140455	0.028814	0.028550	47.8521	17097.9	0.026715	0.034210	1398.76	84457.3
415	2.000000	1.143197	7.36913e+06	-56339.1	1005.82	-29739.4	0.000000	0.000000	7.145528	58.765	NaN	0.000000	0.001665	0.001723	28.0794	32.3297	0.001727	18716.7	4.960544	-0.194158	57.2364	1.142795	0.031292	0.030889	58.765	18716.7	0.028937	0.038569	1523.62	87072.8
415	2.000000	1.145640	7.36913e+06	-56339.1	1005.82	-29739.4	0.000000	0.000000	7.148255	65.6823	NaN	0.000000	0.001684	0.001729	28.0799	34.3871	0.001796	19150.9	3.037747	-178.633	62.6614	1.145402	0.033734	0.033497	65.6823	19150.9	0.031162	0.043186	1520.9	84195.4
415	2.000000	1.148157	7.36913e+06	-56339.1	1005.82	-29739.4	0.000000	0.000000	7.150965	70.37	NaN	0.000000	0.001665	0.001739	28.0798	36.1067	0.001683	21456.6	0.846123	1.887390	65.3804	1.147845	0.036252	0.035940	70.37	21456.6	0.033792	0.048970	1437	88586.6
415	2.000000	1.150721	7.36913e+06	-56339.1	1005.82	-29739.4	0.000000	0.000000	7.153860	78.3962	NaN	0.000000	0.001684	0.001726	28.0794	39.8139	0.001738	22912.4	3.698228	179.414	79.6294	1.150400	0.038816	0.038494	78.3962	22912.4	0.036250	0.054697	1433.29	89508.6
415	2.000000	1.153142	7.36913e+06	-56339.1	1005.82	-29739.4	0.000000	0.000000	7.156759	90.0186	NaN	0.000000	0.001691	0.001732	28.0797	41.9696	0.001691	24821.5	4.704090	-2.789487	86.4182	1.152861	0.041237	0.040955	90.0186	24821.5	0.038517	0.060252	1494.05	92388.3
415	2.000000	1.155617	7.36913e+06	-56339.1	1005.82	-29739.4	0.000000	0.000000	7.159656	100.284	NaN	0.000000	0.001683	0.001729	28.0798	44.5784	0.001846	24154	3.952299	178.603	96.4329	1.155376	0.043711	0.043470	100.284	24154	0.040597	0.065582	1529.15	86172.9
415	2.000000	1.158152	7.36913e+06	-56339.1	1005.82	-29739.4	0.000000	0.000000	7.162626	110.866	NaN	0.000000	0.001641	0.001688	28.0799	47.9556	0.001833	26156	6.420119	-4.234623	109.886	1.157814	0.046247	0.045908	110.866	26156	0.043068	0.072197	1535.61	88937.7
415	2.000000	1.160709	7.36913e+06	-56339.1	1005.82	-29739.4	0.000000	0.000000	7.165658	122.409	NaN	0.000000	0.001674	0.001678	28.0796	50.8996	0.001818	27990.2	8.516678	173.482	123.866	1.160305	0.048804	0.048400	122.409	27990.2	0.045524	0.079081	1547.9	90937.7
415	2.000000	1.163177	7.36913e+06	-56339.1	1005.82	-29739.4	0.000000	0.000000	7.168498	131.445	NaN	0.000000	0.001681	0.001707	28.0797	52.1446	0.001836	28395.7	4.006491	-2.205910	127.29	1.162794	0.051272	0.050888	131.445	28395.7	0.047800	0.085734	1533.17	88603.2
415	2.000000	1.165663	7.36913e+06	-56339.1	1005.82	-29739.4	0.000000	0.000000	7.171421	142.072	NaN	0.000000	0.001662	0.001701	28.0797	54.752	0.001819	30097.3	3.065471	177.496	140.885	1.165325	0.053758	0.053419	142.072	30097.3	0.050217	0.093086	1526.24	90127.8
415	2.000000	1.168115	7.36913e+06	-56339.1	1005.82	-29739.4	0.000000	0.000000	7.174360	153.917	NaN	0.000000	0.001671	0.001692	28.0798	58.1051	0.001959	29660.7	3.245800	-2.423731	151.39	1.167945	0.056209	0.056040	153.917	29660.7	0.052317	0.099711	1543.64	85819
415	2.000000	1.170635	7.36913e+06	-56339.1	1005.82	-29739.4	0.000000	0.000000	7.177442	167.57	NaN	0.000000	0.001682	0.001719	28.0798	59.0141	0.001709	34529.5	2.983599	175.231	164.586	1.170370	0.058730	0.058465	167.57	34529.5	0.055090	0.108793	1540.26	95645
415	2.000000	1.173127	7.36913e+06	-56339.1	1005.82	-29739.4	0.000000	0.000000	7.180488	181.036	NaN	0.000000	0.001673	0.001732	28.0796	60.6762	0.001683	36046.4	4.899469	-5.632523	177.226	1.172775	0.061221	0.060870	181.036	36046.4	0.057455	0.116839	1549.45	96347.5
415	2.000000	1.175631	7.36913e+06	-56339.1	1005.82	-29739.4	0.000000	0.000000	7.183492	193.184	NaN	0.000000	0.001650	0.001731	28.0798	62.8513	0.001710	36761.8	4.549361	174.837	191.049	1.175231	0.063725	0.063326	193.184	36761.8	0.059784	0.125036	1545.03	94984.6
415	2.000000	1.178074	7.36913e+06	-56339.1	1005.82	-29739.4	0.000000	0.000000	7.186542	207.941	NaN	0.000000	0.001665	0.001696	28.0785	67.1565	0.001781	37700.7	7.425931	-8.668512	203.697	1.177743	0.066168	0.065838	207.941	37700.7	0.062032	0.133194	1561.19	94380.2
415	2.000000	1.180687	7.36913e+06	-56339.1	1005.82	-29739.4	0.000000	0.000000	7.189740	222.157	NaN	0.000000	0.001671	0.001719	28.0784	70.4451	0.001819	38725.8	8.217833	171.602	222.094	1.180264	0.068782	0.068359	222.157	38725.8	0.064479	0.142358	1560.55	93774.1
415	2.000000	1.183155	7.36913e+06	-56339.1	1005.82	-29739.4	0.000000	0.000000	7.192908	239.157	NaN	0.000000	0.001644	0.001695	28.0786	71.6545	0.001891	37890.5	6.915340	-7.215001	236.305	1.182725	0.071250	0.070820	239.157	37890.5	0.066516	0.150206	1592.2	89322.4
415	2.000000	1.185713	7.36913e+06	-56339.1	1005.82	-29739.4	0.000000	0.000000	7.195808	247.493	NaN	0.000000	0.001647	0.001714	28.0787	74.4981	0.001841	40460.5	7.627875	171.574	250.897	1.185306	0.073808	0.073400	247.493	40460.5	0.069220	0.160930	1537.89	92147.9
415	2.000000	1.188203	7.36913e+06	-56339.1	1005.82	-29739.4	0.000000	0.000000	7.198883	261.727	NaN	0.000000	0.001646	0.001680	28.0786	76.8789	0.001673	45961.2	5.581563	-7.637113	262.298	1.187688	0.076297	0.075783	261.727	45961.2	0.072026	0.172429	1517.88	101125
415	2.000000	1.190733	7.36913e+06	-56339.1	1005.82	-29739.4	0.000000	0.000000	7.201818	271.532	NaN	0.000000	0.001661	0.001741	28.0785	81.5195	0.001961	41560.5	8.144348	169.898	275.504	1.190378	0.078828	0.078473	271.532	41560.5	0.073928	0.180432	1504.9	89391.6
415	2.000000	1.193129	7.36913e+06	-56339.1	1005.82	-29739.4	0.000000	0.000000	7.205062	292.161	NaN	0.000000	0.001639	0.001750	28.0785	81.8906	0.001763	46454.3	4.929916	-7.047436	289.607	1.192860	0.081224	0.080954	292.161	46454.3	0.076507	0.191559	1525.18	96972.4
415	2.000000	1.195673	7.36913e+06	-56339.1	1005.82	-29739.4	0.000000	0.000000	7.207977	301.177	NaN	0.000000	0.001640	0.001704	28.0789	84.7667	0.001841	46050.2	4.686404	172.596	301.752	1.195420	0.083768	0.083514	301.177	46050.2	0.078863	0.201997	1490.99	93612.1
415	2.000000	1.198035	7.36913e+06	-56339.1	1005.82	-29739.4	0.000000	0.000000	7.211335	325.41	NaN	0.000000	0.001648	0.001717	28.0785	86.496	0.001805	47911.9	6.233515	-8.665481	318.214	1.197600	0.086129	0.085695	325.41	47911.9	0.081035	0.211853	1536.02	95104.2
415	2.000000	1.200634	7.36913e+06	-56339.1	1005.82	-29739.4	0.000000	0.000000	7.214627	342.247	NaN	0.000000	0.001634	0.001714	28.0785	90.0267	0.001872	48085.2	7.150522	169.693	341.576	1.200330	0.088729	0.088425	342.247	48085.2	0.083390	0.222783	1536.24	93077.3
415	2.000000	1.203164	7.36913e+06	-56339.1	1005.82	-29739.4	0.000000	0.000000	7.217660	354.478	NaN	0.000000	0.001657	0.001691	28.0785	90.9012	0.001747	52018.1	4.065955	-7.938432	350.608	1.202799	0.091258	0.090893	354.478	52018.1	0.086148	0.235906	1502.62	97849.4
415	2.000000	1.205637	7.36913e+06	-56339.1	1005.82	-29739.4	0.000000	0.000000	7.220973	374.889	NaN	0.000000	0.001608	0.001714	28.0786	93.1129	0.001814	51323.4	4.670685	171.459	375.478	1.205316	0.093732	0.093411	374.889	51323.4	0.088253	0.246165	1522.92	94509.4
415	2.000000	1.208123	7.36913e+06	-56339.1	1005.82	-29739.4	0.000000	0.000000	7.224334	396.144	NaN	0.000000	0.001590	0.001723	28.0783	95.7607	0.001773	54016.4	4.424243	-8.296418	394.986	1.207805	0.096218	0.095900	396.144	54016.4	0.090718	0.258429	1532.89	97079.7
415	2.000000	1.210610	7.36913e+06	-56339.1	1005.82	-29739.4	0.000000	0.000000	7.227488	412.354	NaN	0.000000	0.001618	0.001729	28.0788	98.8661	0.001808	54673.3	6.425299	169.44	411.771	1.210351	0.098705	0.098446	412.354	54673.3	0.093048	0.270286	1525.62	96080.8
415	2.000000	1.213116	7.36913e+06	-56339.1	1005.82	-29739.4	0.000000	0.000000	7.230719	429.979	NaN	0.000000	0.001627	0.001705	28.0799	99.6798	0.001715	58134.4	3.545542	-8.150835	425.652	1.212876	0.101211	0.100970	429.979	58134.4	0.095664	0.283886	1514.62	99686.2
415	2.000000	1.215524	7.36913e+06	-56339.1	1005.82	-29739.4	0.000000	0.000000	7.234155	454.954	NaN	0.000000	0.001652	0.001715	28.0799	101.929	0.001845	55250.9	3.686825	172.517	450.409	1.215249	0.103619	0.103343	454.954	55250.9	0.097443	0.293316	1551.07	93206.2
415	2.000000	1.218098	7.36913e+06	-56339.1	1005.82	-29739.4	0.000000	0.000000	7.237530	474.44	NaN	0.000000	0.001655	0.001746	28.0796	104.27	0.001811	57582.6	5.736151	-9.679690	470.631	1.217618	0.106192	0.105713	474.44	57582.6	0.100013	0.307189	1544.46	94920.8
415	2.000000	1.218667	7.36913e+06	-56339.1	1005.82	-29739.4	0.000000	0.000000	7.238043	473.079	NaN	0.000000	0.001633	0.001728	28.0796	105.625	0.001818	58099.7	9.366062	166.951	476.293	1.218334	0.106761	0.106429	473.079	58099.7	0.100655	0.310701	1522.62	95230.5