File: remote_trans/data/nanoindenter/0828-1/data/Data_2025-08-06,11h17m57s/2025-07-22_16-23-58_1_619.txt
2025-07-22, 16:23:58, 1
Index	Phase	Displacement	Time	Pos X	Pos Y	Pos Z	Rot A	Rot B	Piezo Z	Force A	Force B	Gripper	Voltage A	Voltage B	Temperature	Amplitude force	Amplitude pos	Stiffness	Phase shift	Phase excitation	Force A raw	Displacement raw	HMax	HMax raw	Real Force	Real Stiffness	Contact Depth	Area	Hardness	Reduced Mod.
[#]	[#]	[um]	[s]	[um]	[um]	[um]	[m°]	[m°]	[um]	[uN]	[uN]	[V]	[V]	[V]	[°C]	[uN]	[um]	[N/m]	[°]	[°]	[uN]	[um]	[um]	[um]	[uN]	[N/m]	[um]	[um^2]	[MPa]	[MPa]
619	1.000000	0.003042	7.37111e+06	-46139.1	1005.82	-29770.1	0.000000	0.000000	6.002792	0.098528	NaN	0.000000	0.001569	0.001643	28.0834	0.074993	0.000775	96.7994	-64.0504	-171.895	0.037210	0.001802	-1.059350	-1.060589	0.098528	96.7994	-1.060113	-1.459954E+14	-6.748722E-16	NaN
619	1.000000	0.011023	7.37111e+06	-46139.1	1005.82	-29770.1	0.000000	0.000000	6.010770	0.019385	NaN	0.000000	0.001565	0.001649	28.0834	0.101210	0.000900	112.517	27.9154	-163.79	0.020105	0.009682	-1.051368	-1.052709	0.019385	112.517	-1.051498	-1.118267E+14	-1.733528E-16	NaN
619	1.000000	0.019006	7.37111e+06	-46139.1	1005.82	-29770.1	0.000000	0.000000	6.018754	0.049879	NaN	0.000000	0.001563	0.001629	28.0833	0.058539	0.001687	34.7051	-116.876	-167.098	0.015076	0.017727	-1.043386	-1.044665	0.049879	34.7051	-1.044464	-8.994678E+13	-5.545379E-16	NaN
619	1.000000	0.027042	7.37111e+06	-46139.1	1005.82	-29770.1	0.000000	0.000000	6.026792	0.084138	NaN	0.000000	0.001519	0.001608	28.0832	0.097550	0.001828	53.3666	-136.445	-162.032	0.085263	0.025702	-1.035349	-1.036689	0.084138	53.3666	-1.036532	-7.036007E+13	-1.195825E-15	NaN
619	1.000000	0.035028	7.37111e+06	-46139.1	1005.82	-29770.1	0.000000	0.000000	6.034774	0.016524	NaN	0.000000	0.001512	0.001628	28.0831	0.030552	0.001952	15.6524	-41.3117	-165.346	0.022205	0.033676	-1.027364	-1.028716	0.016524	15.6524	-1.028156	-5.428389E+13	-3.043984E-16	NaN
619	1.000000	0.043024	7.37111e+06	-46139.1	1005.82	-29770.1	0.000000	0.000000	6.042771	0.043999	NaN	0.000000	0.001508	0.001660	28.0835	0.122820	0.001960	62.6718	-117.399	-163.684	0.060528	0.041680	-1.019368	-1.020712	0.043999	62.6718	-1.019894	-4.202722E+13	-1.046923E-15	NaN
619	1.000000	0.051012	7.37111e+06	-46139.1	1005.82	-29770.1	0.000000	0.000000	6.050757	-0.033220	NaN	0.000000	0.001556	0.001657	28.083	0.077531	0.001971	39.3307	-119.115	-164.068	0.046389	0.049714	-1.011379	-1.012677	-0.033220	39.3307	-1.010746	-3.165349E+13	1.049482E-15	NaN
619	1.000000	0.059004	7.37111e+06	-46139.1	1005.82	-29770.1	0.000000	0.000000	6.058750	-0.020085	NaN	0.000000	0.001567	0.001647	28.0833	0.007836	0.001859	4.215369	8.212117	-165.515	0.048079	0.057668	-1.003387	-1.004724	-0.020085	4.215369	-0.999814	-2.255581E+13	8.904444E-16	NaN
619	1.000000	0.067021	7.37111e+06	-46139.1	1005.82	-29770.1	0.000000	0.000000	6.066767	0.010624	NaN	0.000000	0.001536	0.001637	28.0829	0.095322	0.002050	46.4959	-40.1508	-164.633	0.013110	0.065657	-0.995370	-0.996735	0.010624	46.4959	-0.995542	-1.975791E+13	-5.376968E-16	NaN
619	1.000000	0.074986	7.37111e+06	-46139.1	1005.82	-29770.1	0.000000	0.000000	6.074731	-0.009969	NaN	0.000000	0.001513	0.001645	28.0828	0.089261	0.001996	44.7281	-112.693	-165.672	-0.010154	0.073729	-0.987406	-0.988662	-0.009969	44.7281	-0.987239	-1.527291E+13	6.527204E-16	NaN
619	1.000000	0.083016	7.37111e+06	-46139.1	1005.82	-29770.1	0.000000	0.000000	6.082762	0.005988	NaN	0.000000	0.001534	0.001643	28.0828	0.076900	0.002067	37.2101	-36.3023	-161.153	0.091691	0.081708	-0.979376	-0.980683	0.005988	37.2101	-0.979496	-1.201224E+13	-4.984502E-16	NaN
619	1.000000	0.091026	7.37111e+06	-46139.1	1005.82	-29770.1	0.000000	0.000000	6.090772	-0.004462	NaN	0.000000	0.001578	0.001664	28.083	0.050574	0.001991	25.3962	-86.0404	-164.579	-0.046292	0.089671	-0.971366	-0.972720	-0.004462	25.3962	-0.971234	-9.295864E+12	4.800380E-16	NaN
619	1.000000	0.099001	7.37111e+06	-46139.1	1005.82	-29770.1	0.000000	0.000000	6.098746	-0.020253	NaN	0.000000	0.001553	0.001657	28.0831	0.087752	0.001923	45.6261	-71.4489	-160.729	0.021456	0.097693	-0.963391	-0.964699	-0.020253	45.6261	-0.963058	-7.212580E+12	2.808045E-15	NaN
619	1.000000	0.107018	7.37111e+06	-46139.1	1005.82	-29770.1	0.000000	0.000000	6.106763	-0.016592	NaN	0.000000	0.001518	0.001691	28.0828	0.119051	0.002101	56.6529	-14.6546	-165.756	0.017226	0.105749	-0.955373	-0.956643	-0.016592	56.6529	-0.955154	-5.643213E+12	2.940089E-15	NaN
619	1.000000	0.115039	7.37111e+06	-46139.1	1005.82	-29770.1	0.000000	0.000000	6.114784	-0.039143	NaN	0.000000	0.001546	0.001646	28.0822	0.075362	0.002101	35.8764	-110.321	-162.482	-0.036360	0.113764	-0.947352	-0.948627	-0.039143	35.8764	-0.946534	-4.317935E+12	9.065297E-15	NaN
619	1.000000	0.123042	7.37111e+06	-46139.1	1005.82	-29770.1	0.000000	0.000000	6.122787	-0.010792	NaN	0.000000	0.001571	0.001640	28.0818	0.052480	0.002093	25.0742	-107.001	-163.602	0.011125	0.121737	-0.939350	-0.940654	-0.010792	25.0742	-0.939027	-3.419875E+12	3.155556E-15	NaN
619	1.000000	0.131063	7.37111e+06	-46139.1	1005.82	-29770.1	0.000000	0.000000	6.130808	-0.031376	NaN	0.000000	0.001570	0.001648	28.0818	0.058975	0.002007	29.3883	115.838	-163.681	-0.048380	0.129740	-0.931328	-0.932651	-0.031376	29.3883	-0.930527	-2.626118E+12	1.194772E-14	NaN
619	1.000000	0.139078	7.37111e+06	-46139.1	1005.82	-29770.2	0.000000	0.000000	6.138824	-0.013033	NaN	0.000000	0.001579	0.001638	28.0819	0.021564	0.001935	11.1433	-143.581	-161.999	-0.041780	0.137708	-0.923313	-0.924684	-0.013033	11.1433	-0.922436	-2.042190E+12	6.381814E-15	NaN
619	1.000000	0.147033	7.37111e+06	-46139.1	1005.82	-29770.2	0.000000	0.000000	6.146779	-0.011695	NaN	0.000000	0.001584	0.001638	28.0817	0.145079	0.001938	74.8505	-30.8867	-164.857	0.037751	0.145680	-0.915358	-0.916712	-0.011695	74.8505	-0.915241	-1.632846E+12	7.162121E-15	NaN
619	1.000000	0.155025	7.37111e+06	-46139.1	1005.82	-29770.2	0.000000	0.000000	6.154769	-0.038163	NaN	0.000000	0.001568	0.001683	28.0818	0.010411	0.001936	5.376209	72.3641	-164.297	-0.060230	0.153709	-0.907366	-0.908682	-0.038163	5.376209	-0.902042	-1.083087E+12	3.523518E-14	NaN
619	1.000000	0.163050	7.37111e+06	-46139.1	1005.82	-29770.2	0.000000	0.000000	6.162796	-0.006411	NaN	0.000000	0.001577	0.001657	28.082	0.158380	0.001972	80.3044	-159.668	-166.317	-0.039623	0.161754	-0.899341	-0.900638	-0.006411	80.3044	-0.899281	-9.939280E+11	6.450486E-15	NaN
619	1.000000	0.171047	7.37111e+06	-46139.1	1005.82	-29770.2	0.000000	0.000000	6.170793	0.005083	NaN	0.000000	0.001560	0.001683	28.0818	0.045280	0.001960	23.1004	114.851	-164.729	-0.059512	0.169742	-0.891344	-0.892649	0.005083	23.1004	-0.891509	-7.803949E+11	-6.513327E-15	NaN
619	1.000000	0.179066	7.37111e+06	-46139.1	1005.82	-29770.2	0.000000	0.000000	6.178811	-0.018390	NaN	0.000000	0.001552	0.001665	28.0822	0.010583	0.001923	5.503284	-90.3253	-164.227	0.024055	0.177693	-0.883325	-0.884698	-0.018390	5.503284	-0.880819	-5.594776E+11	3.287024E-14	NaN
619	1.000000	0.187039	7.37111e+06	-46139.1	1005.82	-29770.2	0.000000	0.000000	6.186784	-0.006737	NaN	0.000000	0.001554	0.001641	28.0822	0.015625	0.002047	7.632593	107.98	-169.079	-0.001251	0.185784	-0.875353	-0.876608	-0.006737	7.632593	-0.874691	-4.622750E+11	1.457464E-14	NaN
619	1.000000	0.195059	7.37111e+06	-46139.1	1005.82	-29770.2	0.000000	0.000000	6.194806	0.030041	NaN	0.000000	0.001577	0.001662	28.0822	0.007778	0.001985	3.917593	-24.1666	-167.073	-0.039483	0.193790	-0.867332	-0.868602	0.030041	3.917593	-0.873084	-4.397042E+11	-6.832172E-14	NaN
619	1.000000	0.203022	7.37111e+06	-46139.1	1005.82	-29770.2	0.000000	0.000000	6.202765	-0.082242	NaN	0.000000	0.001556	0.001671	28.0817	0.013122	0.002072	6.331517	123.898	-163.585	-0.073488	0.201814	-0.859369	-0.860578	-0.082242	6.331517	-0.849627	-2.116852E+11	3.885111E-13	NaN
619	1.000000	0.211050	7.37111e+06	-46139.1	1005.82	-29770.2	0.000000	0.000000	6.210797	0.041228	NaN	0.000000	0.001574	0.001637	28.0818	0.046205	0.002002	23.0845	136.865	-165.221	-0.026162	0.209783	-0.851342	-0.852609	0.041228	23.0845	-0.852681	-2.328313E+11	-1.770743E-13	NaN
619	1.000000	0.219058	7.37111e+06	-46139.1	1005.82	-29770.2	0.000000	0.000000	6.218804	-0.002217	NaN	0.000000	0.001560	0.001638	28.0818	0.090593	0.001880	48.1833	-22.0578	-163.468	0.042586	0.217751	-0.843333	-0.844641	-0.002217	48.1833	-0.843299	-1.737718E+11	1.275719E-14	NaN
619	1.000000	0.227101	7.37111e+06	-46139.1	1005.82	-29770.2	0.000000	0.000000	6.226847	0.000753	NaN	0.000000	0.001545	0.001632	28.0816	0.046909	0.002065	22.7192	-95.8181	-165.485	-0.074993	0.225717	-0.835290	-0.836674	0.000753	22.7192	-0.835315	-1.354624E+11	-5.558153E-15	NaN
619	1.000000	0.235072	7.37111e+06	-46139.1	1005.82	-29770.2	0.000000	0.000000	6.234818	0.012733	NaN	0.000000	0.001535	0.001624	28.0819	0.022890	0.002079	11.0112	162.1	-167.156	0.062563	0.233759	-0.827320	-0.828632	0.012733	11.0112	-0.828187	-1.084445E+11	-1.174122E-13	NaN
619	1.000000	0.243093	7.37111e+06	-46139.1	1005.82	-29770.2	0.000000	0.000000	6.242840	0.013027	NaN	0.000000	0.001518	0.001645	28.0819	0.146874	0.001971	74.5348	92.9482	-166.769	-0.000506	0.241716	-0.819298	-0.820675	0.013027	74.5348	-0.819429	-8.250362E+10	-1.578987E-13	NaN
619	1.000000	0.251074	7.37111e+06	-46139.1	1005.82	-29770.2	0.000000	0.000000	6.250822	0.066601	NaN	0.000000	0.001497	0.001676	28.0821	0.092934	0.002110	44.0505	108.099	-166.782	0.090034	0.249791	-0.811318	-0.812600	0.066601	44.0505	-0.812452	-6.634893E+10	-1.003799E-12	NaN
619	1.000000	0.259083	7.37111e+06	-46139.1	1005.82	-29770.2	0.000000	0.000000	6.258828	-0.006832	NaN	0.000000	0.001565	0.001655	28.083	0.092538	0.001909	48.4807	-67.9862	-165.873	-0.043410	0.257785	-0.803309	-0.804607	-0.006832	48.4807	-0.803203	-4.969784E+10	1.374730E-13	NaN
619	1.000000	0.267118	7.37111e+06	-46139.1	1005.82	-29770.2	0.000000	0.000000	6.266862	-0.049633	NaN	0.000000	0.001527	0.001653	28.0829	0.069859	0.002050	34.081	-179.494	-163.248	-0.007345	0.265822	-0.795274	-0.796569	-0.049633	34.081	-0.794181	-3.748592E+10	1.324046E-12	NaN
619	1.000000	0.275095	7.37111e+06	-46139.1	1005.82	-29770.2	0.000000	0.000000	6.274843	0.038605	NaN	0.000000	0.001528	0.001622	28.0828	0.012056	0.001999	6.031974	112.738	-164.939	0.004803	0.273769	-0.787296	-0.788622	0.038605	6.031974	-0.792096	-3.511974E+10	-1.099235E-12	NaN
619	1.000000	0.283095	7.37111e+06	-46139.1	1005.82	-29770.2	0.000000	0.000000	6.282841	-0.000109	NaN	0.000000	0.001589	0.001587	28.0829	0.052944	0.001931	27.4236	-149.792	-163.995	0.018121	0.281783	-0.779296	-0.780609	-0.000109	27.4236	-0.779293	-2.353016E+10	4.635727E-15	NaN
619	1.000000	0.291072	7.37111e+06	-46139.1	1005.82	-29770.2	0.000000	0.000000	6.290818	-0.001269	NaN	0.000000	0.001587	0.001642	28.0829	0.032532	0.002049	15.8759	77.5872	-163.812	-0.013828	0.289833	-0.771320	-0.772558	-0.001269	15.8759	-0.771260	-1.829918E+10	6.937405E-14	NaN
619	1.000000	0.299074	7.37111e+06	-46139.1	1005.82	-29770.2	0.000000	0.000000	6.298819	-0.011845	NaN	0.000000	0.001600	0.001611	28.0826	0.074579	0.002051	36.3665	17.6422	-160.904	-0.066492	0.297801	-0.763317	-0.764591	-0.011845	36.3665	-0.763073	-1.416141E+10	8.364370E-13	NaN
619	1.000000	0.307104	7.37111e+06	-46139.1	1005.82	-29770.2	0.000000	0.000000	6.306849	-0.029686	NaN	0.000000	0.001556	0.001662	28.083	0.140434	0.002026	69.3326	171.465	-165.89	0.035123	0.305876	-0.755287	-0.756515	-0.029686	69.3326	-0.754966	-1.098522E+10	2.702315E-12	NaN
619	1.000000	0.315103	7.37111e+06	-46139.1	1005.82	-29770.2	0.000000	0.000000	6.314848	-0.041199	NaN	0.000000	0.001575	0.001643	28.0829	0.037985	0.001978	19.2037	78.7291	-162.091	-0.030730	0.313791	-0.747288	-0.748600	-0.041199	19.2037	-0.745679	-8.210976E+9	5.017580E-12	NaN
619	1.000000	0.323104	7.37111e+06	-46139.1	1005.82	-29770.2	0.000000	0.000000	6.322852	0.035493	NaN	0.000000	0.001516	0.001642	28.0829	0.131626	0.002013	65.3966	66.7806	-161.86	-0.022699	0.321828	-0.739287	-0.740564	0.035493	65.3966	-0.739694	-6.805982E+9	-5.214916E-12	NaN
619	1.000000	0.331110	7.37111e+06	-46139.1	1005.82	-29770.2	0.000000	0.000000	6.330857	0.035689	NaN	0.000000	0.001528	0.001661	28.0828	0.117109	0.001964	59.6291	157.084	-166.774	0.071038	0.329827	-0.731281	-0.732564	0.035689	59.6291	-0.731730	-5.301374E+9	-6.732081E-12	NaN
619	1.000000	0.339152	7.37111e+06	-46139.1	1005.82	-29770.2	0.000000	0.000000	6.338896	-0.045071	NaN	0.000000	0.001522	0.001640	28.0828	0.073391	0.002040	35.9798	34.1155	-166.84	-0.005009	0.337863	-0.723239	-0.724529	-0.045071	35.9798	-0.722300	-3.943082E+9	1.143048E-11	NaN
619	1.000000	0.347139	7.37111e+06	-46139.1	1005.82	-29770.2	0.000000	0.000000	6.346885	-0.000316	NaN	0.000000	0.001571	0.001639	28.0829	0.039479	0.001914	20.6304	-8.412568	-164.127	-0.005005	0.345819	-0.715253	-0.716573	-0.000316	20.6304	-0.715241	-3.159092E+9	1.000695E-13	NaN
619	1.000000	0.355119	7.37111e+06	-46139.1	1005.82	-29770.2	0.000000	0.000000	6.354864	-0.033748	NaN	0.000000	0.001553	0.001704	28.0829	0.043241	0.002014	21.4668	-121.216	-162.483	-0.024239	0.353768	-0.707272	-0.708624	-0.033748	21.4668	-0.706093	-2.369878E+9	1.424052E-11	NaN
619	1.000000	0.363136	7.37111e+06	-46139.1	1005.82	-29770.2	0.000000	0.000000	6.362882	-0.003468	NaN	0.000000	0.001513	0.001719	28.0831	0.051319	0.001976	25.9684	-21.0503	-169.583	0.033511	0.361773	-0.699255	-0.700619	-0.003468	25.9684	-0.699155	-1.905438E+9	1.820234E-12	NaN
619	1.000000	0.371144	7.37111e+06	-46139.1	1005.82	-29770.2	0.000000	0.000000	6.370887	-0.058504	NaN	0.000000	0.001540	0.001736	28.0827	0.098087	0.001914	51.2599	-33.7605	-165.44	-0.079823	0.369800	-0.691248	-0.692591	-0.058504	51.2599	-0.690392	-1.446346E+9	4.044965E-11	NaN
619	1.000000	0.379146	7.37111e+06	-46139.1	1005.82	-29770.2	0.000000	0.000000	6.378894	0.056644	NaN	0.000000	0.001524	0.001739	28.083	0.110355	0.002032	54.3079	103.889	-165.787	-0.006367	0.377877	-0.683245	-0.684515	0.056644	54.3079	-0.684027	-1.183801E+9	-4.784926E-11	NaN
619	1.000000	0.387128	7.37111e+06	-46139.1	1005.82	-29770.2	0.000000	0.000000	6.386875	0.024929	NaN	0.000000	0.001480	0.001700	28.0826	0.020503	0.002040	10.0516	114.931	-163.667	-0.010002	0.385792	-0.675263	-0.676599	0.024929	10.0516	-0.677123	-9.524896E+8	-2.617243E-11	NaN
619	1.000000	0.395151	7.37111e+06	-46139.1	1005.82	-29770.2	0.000000	0.000000	6.394895	-0.056367	NaN	0.000000	0.001484	0.001687	28.0818	0.015800	0.002012	7.851174	179.128	-163.411	-0.019677	0.393839	-0.667240	-0.668552	-0.056367	7.851174	-0.661856	-5.886882E+8	9.575003E-11	NaN
619	1.000000	0.403184	7.37111e+06	-46139.1	1005.82	-29770.2	0.000000	0.000000	6.402928	-0.057213	NaN	0.000000	0.001472	0.001708	28.0819	0.088484	0.002063	42.8955	-99.5953	-164.029	-0.040795	0.401859	-0.659207	-0.660533	-0.057213	42.8955	-0.658207	-5.246910E+8	1.090416E-10	NaN
619	1.000000	0.411147	7.37111e+06	-46139.1	1005.82	-29770.2	0.000000	0.000000	6.410892	-0.019993	NaN	0.000000	0.001467	0.001705	28.0816	0.127159	0.001969	64.5664	114.26	-163.184	0.022573	0.409838	-0.651245	-0.652553	-0.019993	64.5664	-0.651012	-4.181330E+8	4.781383E-11	NaN
619	1.000000	0.419133	7.37111e+06	-46139.1	1005.82	-29770.2	0.000000	0.000000	6.418879	0.001477	NaN	0.000000	0.001452	0.001720	28.0817	0.061096	0.001889	32.3405	-165.467	-162.31	-0.040747	0.417797	-0.643259	-0.644594	0.001477	32.3405	-0.643293	-3.276914E+8	-4.508567E-12	NaN
619	1.000000	0.427154	7.37111e+06	-46139.1	1005.82	-29770.2	0.000000	0.000000	6.426900	0.001646	NaN	0.000000	0.001518	0.001720	28.0817	0.031194	0.002055	15.1827	29.6234	-165.529	-0.013095	0.425812	-0.635237	-0.636579	0.001646	15.1827	-0.635319	-2.547095E+8	-6.461218E-12	NaN
619	1.000000	0.435132	7.37111e+06	-46139.1	1005.82	-29770.2	0.000000	0.000000	6.434878	0.005397	NaN	0.000000	0.001490	0.001699	28.0817	0.095751	0.002098	45.6317	-115.829	-165.178	-0.068188	0.433823	-0.627259	-0.628569	0.005397	45.6317	-0.627348	-1.979704E+8	-2.725918E-11	NaN
619	1.000000	0.443188	7.37111e+06	-46139.1	1005.82	-29770.2	0.000000	0.000000	6.442934	0.003832	NaN	0.000000	0.001476	0.001711	28.0815	0.049915	0.002064	24.1882	-56.1557	-165.799	-0.028701	0.441888	-0.619203	-0.620503	0.003832	24.1882	-0.619322	-1.535735E+8	-2.495053E-11	NaN
619	1.000000	0.451179	7.37111e+06	-46139.1	1005.82	-29770.2	0.000000	0.000000	6.450924	-0.018596	NaN	0.000000	0.001481	0.001699	28.0816	0.068544	0.002065	33.1981	-158.296	-166.348	0.000342	0.449831	-0.611212	-0.612561	-0.018596	33.1981	-0.610792	-1.172233E+8	1.586386E-10	NaN
619	1.000000	0.459171	7.37111e+06	-46139.1	1005.82	-29770.2	0.000000	0.000000	6.458916	-0.013906	NaN	0.000000	0.001513	0.001730	28.0817	0.109837	0.002019	54.3954	-130.512	-168.851	-0.014606	0.457824	-0.603221	-0.604567	-0.013906	54.3954	-0.603029	-9.165778E+7	1.517174E-10	NaN
619	1.000000	0.467160	7.37111e+06	-46139.1	1005.82	-29770.2	0.000000	0.000000	6.466906	0.010542	NaN	0.000000	0.001495	0.001742	28.0816	0.103490	0.002033	50.8999	-172.783	-163.554	-0.131005	0.465836	-0.595232	-0.596555	0.010542	50.8999	-0.595387	-7.193064E+7	-1.465553E-10	NaN
619	1.000000	0.475170	7.37111e+06	-46139.1	1005.82	-29770.2	0.000000	0.000000	6.474912	-0.087464	NaN	0.000000	0.001509	0.001702	28.0814	0.068051	0.002099	32.4228	-119.283	-163.784	0.021786	0.473898	-0.587222	-0.588493	-0.087464	32.4228	-0.585198	-5.205376E+7	1.680255E-9	NaN
619	1.000000	0.483220	7.37111e+06	-46139.1	1005.82	-29770.2	0.000000	0.000000	6.482965	-0.024887	NaN	0.000000	0.001523	0.001723	28.0814	0.042974	0.002065	20.809	-60.9202	-164.965	-0.076871	0.481828	-0.579171	-0.580564	-0.024887	20.809	-0.578275	-4.177429E+7	5.957428E-10	NaN
619	1.000000	0.491182	7.37111e+06	-46139.1	1005.82	-29770.2	0.000000	0.000000	6.490929	0.013804	NaN	0.000000	0.001543	0.001698	28.0818	0.048753	0.001805	27.0127	127.52	-166.001	-0.038991	0.489884	-0.571209	-0.572508	0.013804	27.0127	-0.571593	-3.377816E+7	-4.086544E-10	NaN
619	1.000000	0.499204	7.37111e+06	-46139.1	1005.82	-29770.2	0.000000	0.000000	6.498952	0.036349	NaN	0.000000	0.001528	0.001686	28.0816	0.144266	0.001886	76.503	178.965	-164.977	-0.004649	0.497835	-0.563187	-0.564556	0.036349	76.503	-0.563544	-2.614502E+7	-1.390280E-9	NaN
619	1.000000	0.507173	7.37111e+06	-46139.1	1005.82	-29770.2	0.000000	0.000000	6.506919	0.018727	NaN	0.000000	0.001518	0.001701	28.0816	0.056944	0.002015	28.2589	-130.654	-165.082	-0.055157	0.505889	-0.555219	-0.556502	0.018727	28.2589	-0.555716	-2.037490E+7	-9.191114E-10	NaN
619	1.000000	0.515200	7.37111e+06	-46139.1	1005.82	-29770.2	0.000000	0.000000	6.514943	-0.058148	NaN	0.000000	0.001506	0.001694	28.0817	0.113899	0.001975	57.6643	152.032	-167.007	0.009995	0.513871	-0.547192	-0.548521	-0.058148	57.6643	-0.546435	-1.515554E+7	3.836731E-9	NaN
619	1.000000	0.523195	7.37111e+06	-46139.1	1005.82	-29770.2	0.000000	0.000000	6.522941	-0.008992	NaN	0.000000	0.001476	0.001748	28.0815	0.028522	0.002004	14.2308	-54.6579	-164.041	0.000241	0.521890	-0.539196	-0.540501	-0.008992	14.2308	-0.538722	-1.184778E+7	7.589399E-10	NaN
619	1.000000	0.531228	7.37111e+06	-46139.1	1005.82	-29770.2	0.000000	0.000000	6.530975	0.026594	NaN	0.000000	0.001502	0.001738	28.0826	0.184118	0.001970	93.4703	168.323	-163.327	-0.003300	0.529871	-0.531163	-0.532521	0.026594	93.4703	-0.531377	-9.36893e+06	-2.838569E-9	NaN
619	1.000000	0.539220	7.37111e+06	-46139.1	1005.82	-29770.2	0.000000	0.000000	6.538965	-0.036342	NaN	0.000000	0.001525	0.001718	28.0826	0.050500	0.001923	26.2659	103.932	-162.391	0.015242	0.537856	-0.523171	-0.524536	-0.036342	26.2659	-0.522133	-6.97052e+06	5.213649E-9	NaN
619	1.000000	0.547209	7.37111e+06	-46139.1	1005.82	-29770.2	0.000000	0.000000	6.546956	0.036209	NaN	0.000000	0.001505	0.001731	28.0826	0.011876	0.002066	5.748217	2.205088	-164.664	0.021425	0.545886	-0.515183	-0.516506	0.036209	5.748217	-0.519907	-6.49091e+06	-5.578382E-9	NaN
619	1.000000	0.555227	7.37111e+06	-46139.1	1005.82	-29770.2	0.000000	0.000000	6.554971	-0.050114	NaN	0.000000	0.001511	0.001744	28.0828	0.123248	0.002060	59.8362	-120.74	-164.492	-0.057194	0.553885	-0.507164	-0.508506	-0.050114	59.8362	-0.506536	-4.2282e+06	1.185237E-8	NaN
619	1.000000	0.563231	7.37111e+06	-46139.1	1005.82	-29770.2	0.000000	0.000000	6.562978	0.018157	NaN	0.000000	0.001483	0.001716	28.0828	0.076108	0.001958	38.8754	1.073199	-166.645	-0.016727	0.561943	-0.499160	-0.500448	0.018157	38.8754	-0.499510	-3.37432e+06	-5.380819E-9	NaN
619	1.000000	0.571193	7.37111e+06	-46139.1	1005.82	-29770.2	0.000000	0.000000	6.570941	0.055727	NaN	0.000000	0.001477	0.001741	28.083	0.092695	0.001964	47.1995	-154.137	-165.83	0.088545	0.569931	-0.491198	-0.492460	0.055727	47.1995	-0.492084	-2.6577e+06	-2.096809E-8	NaN
619	1.000000	0.579208	7.37111e+06	-46139.1	1005.82	-29770.2	0.000000	0.000000	6.578953	-0.006583	NaN	0.000000	0.001447	0.001747	28.0831	0.114112	0.002019	56.5303	31.2269	-165.373	-0.040978	0.577947	-0.483184	-0.484444	-0.006583	56.5303	-0.483096	-1.99004e+06	3.308030E-9	NaN
619	1.000000	0.587239	7.37111e+06	-46139.1	1005.82	-29770.2	0.000000	0.000000	6.586987	0.057576	NaN	0.000000	0.001486	0.001776	28.0829	0.058872	0.002075	28.3711	10.6209	-159.991	0.035669	0.585921	-0.475153	-0.476471	0.057576	28.3711	-0.476675	-1.61794e+06	-3.558576E-8	NaN
619	1.000000	0.595198	7.37111e+06	-46139.1	1005.82	-29770.2	0.000000	0.000000	6.594943	-0.003709	NaN	0.000000	0.001495	0.001730	28.0828	0.054732	0.002149	25.4717	-45.698	-164.408	0.037093	0.593904	-0.467194	-0.468487	-0.003709	25.4717	-0.467085	-1.18715e+06	3.124339E-9	NaN
619	1.000000	0.603214	7.37111e+06	-46139.1	1005.82	-29770.2	0.000000	0.000000	6.602959	-0.000148	NaN	0.000000	0.001512	0.001746	28.0827	0.034474	0.001925	17.9091	17.1319	-165.526	0.003035	0.601964	-0.459178	-0.460428	-0.000148	17.9091	-0.459172	-919129	1.608619E-10	NaN
619	1.000000	0.611220	7.37111e+06	-46139.1	1005.82	-29770.2	0.000000	0.000000	6.610967	0.033334	NaN	0.000000	0.001498	0.001704	28.083	0.037302	0.001942	19.2069	-153.739	-165.036	-0.004601	0.609970	-0.451171	-0.452421	0.033334	19.2069	-0.452473	-739879	-4.505390E-8	NaN
619	1.000000	0.619243	7.37111e+06	-46139.1	1005.82	-29770.2	0.000000	0.000000	6.618987	-0.063703	NaN	0.000000	0.001524	0.001740	28.0828	0.049883	0.002014	24.7684	119.658	-162.827	-0.067213	0.617945	-0.443148	-0.444446	-0.063703	24.7684	-0.441219	-513532	1.240486E-7	NaN
619	1.000000	0.627216	7.37111e+06	-46139.1	1005.82	-29770.2	0.000000	0.000000	6.626963	0.029297	NaN	0.000000	0.001531	0.001733	28.083	0.012650	0.001960	6.452321	26.0577	-166.062	-0.022691	0.625883	-0.435175	-0.436509	0.029297	6.452321	-0.438581	-471333	-6.215875E-8	NaN
619	1.000000	0.635239	7.37111e+06	-46139.1	1005.82	-29770.2	0.000000	0.000000	6.634984	-0.022340	NaN	0.000000	0.001540	0.001746	28.0826	0.049568	0.002033	24.3779	179.6	-169.411	-0.037868	0.633935	-0.427153	-0.428456	-0.022340	24.3779	-0.426465	-317711	7.031614E-8	NaN
619	1.000000	0.643283	7.37111e+06	-46139.1	1005.82	-29770.2	0.000000	0.000000	6.643026	-0.056382	NaN	0.000000	0.001552	0.001747	28.0828	0.034218	0.001993	17.1723	-128.652	-165.019	-0.039627	0.641933	-0.419109	-0.420458	-0.056382	17.1723	-0.416646	-230583	2.445188E-7	NaN
619	1.000000	0.651269	7.37111e+06	-46139.1	1005.82	-29770.2	0.000000	0.000000	6.651014	-0.008682	NaN	0.000000	0.001552	0.001748	28.0825	0.066694	0.001912	34.8755	-96.2244	-163.582	0.026115	0.649948	-0.411122	-0.412443	-0.008682	34.8755	-0.410936	-191296	4.538747E-8	NaN
619	1.000000	0.659241	7.37111e+06	-46139.1	1005.82	-29770.2	0.000000	0.000000	6.658986	-0.017128	NaN	0.000000	0.001580	0.001742	28.0824	0.044486	0.001984	22.4268	-107.012	-163.607	-0.047975	0.657944	-0.403150	-0.404447	-0.017128	22.4268	-0.402578	-145459	1.177501E-7	NaN
619	1.000000	0.667243	7.37111e+06	-46139.1	1005.82	-29770.2	0.000000	0.000000	6.666991	0.055609	NaN	0.000000	0.001550	0.001750	28.0816	0.084685	0.001893	44.726	171.948	-161.88	-0.008475	0.665862	-0.395149	-0.396529	0.055609	44.726	-0.396081	-117510	-4.732256E-7	NaN
619	1.000000	0.675273	7.37111e+06	-46139.1	1005.82	-29770.2	0.000000	0.000000	6.675015	-0.105441	NaN	0.000000	0.001584	0.001793	28.0814	0.087513	0.001966	44.504	-32.8231	-158.389	-0.044070	0.673998	-0.387118	-0.388393	-0.105441	44.504	-0.385341	-82504	1.278012E-6	NaN
619	1.000000	0.683255	7.37111e+06	-46139.1	1005.82	-29770.2	0.000000	0.000000	6.683000	-0.027743	NaN	0.000000	0.001533	0.001734	28.0819	0.095433	0.001947	49.0273	148.813	-166.189	-0.113915	0.681908	-0.379136	-0.380483	-0.027743	49.0273	-0.378712	-66281.9	4.185664E-7	NaN
619	1.000000	0.691229	7.37111e+06	-46139.1	1005.82	-29770.2	0.000000	0.000000	6.690974	-0.005218	NaN	0.000000	0.001602	0.001720	28.0813	0.076925	0.002015	38.1685	-149.051	-165.019	-0.014971	0.689947	-0.371163	-0.372444	-0.005218	38.1685	-0.371060	-51450.8	1.014183E-7	NaN
619	1.000000	0.699252	7.37111e+06	-46139.1	1005.82	-29770.2	0.000000	0.000000	6.698995	-0.052234	NaN	0.000000	0.001555	0.001715	28.0814	0.033440	0.002041	16.3819	-11.7169	-162.406	-0.070830	0.697944	-0.363140	-0.364448	-0.052234	16.3819	-0.360748	-36531.1	1.429839E-6	NaN
619	1.000000	0.707313	7.37111e+06	-46139.1	1005.82	-29770.2	0.000000	0.000000	6.707057	-0.036621	NaN	0.000000	0.001599	0.001675	28.0814	0.088289	0.002079	42.471	-66.8914	-163.139	-0.067497	0.705990	-0.355079	-0.356402	-0.036621	42.471	-0.354432	-29598.4	1.237278E-6	NaN
619	1.000000	0.715286	7.37111e+06	-46139.1	1005.82	-29770.2	0.000000	0.000000	6.715031	-0.041639	NaN	0.000000	0.001538	0.001715	28.0813	0.109571	0.002167	50.556	145.475	-166.697	-0.023360	0.713949	-0.347105	-0.348443	-0.041639	50.556	-0.346487	-22697.8	1.834487E-6	NaN
619	1.000000	0.723267	7.37111e+06	-46139.1	1005.82	-29770.2	0.000000	0.000000	6.723014	0.035175	NaN	0.000000	0.001537	0.001718	28.0811	0.048953	0.001933	25.321	20.2482	-164.389	0.010764	0.722004	-0.339125	-0.340388	0.035175	25.321	-0.340166	-18364.5	-1.915369E-6	NaN
619	1.000000	0.731274	7.37111e+06	-46139.1	1005.82	-29770.2	0.000000	0.000000	6.731020	-0.007051	NaN	0.000000	0.001558	0.001757	28.0812	0.041710	0.001981	21.0593	-65.0408	-163.85	0.006921	0.729959	-0.331117	-0.332432	-0.007051	21.0593	-0.330866	-13431.6	5.249757E-7	NaN
619	1.000000	0.739298	7.37111e+06	-46139.1	1005.82	-29770.2	0.000000	0.000000	6.739042	-0.040935	NaN	0.000000	0.001573	0.001733	28.0827	0.170692	0.001957	87.2337	-121.831	-160.213	-0.021226	0.737936	-0.323093	-0.324455	-0.040935	87.2337	-0.322741	-10208.4	4.009962E-6	NaN
619	1.000000	0.747287	7.37111e+06	-46139.1	1005.82	-29770.2	0.000000	0.000000	6.747034	0.022606	NaN	0.000000	0.001546	0.001760	28.0813	0.053077	0.002054	25.8449	63.3303	-166.716	0.057778	0.745986	-0.315104	-0.316406	0.022606	25.8449	-0.315760	-8056.84	-2.805867E-6	NaN
619	1.000000	0.755302	7.37111e+06	-46139.1	1005.82	-29770.2	0.000000	0.000000	6.755048	-0.009634	NaN	0.000000	0.001605	0.001731	28.0812	0.079814	0.001965	40.6253	11.5533	-163.628	-0.015440	0.754017	-0.307089	-0.308375	-0.009634	40.6253	-0.306911	-5960.83	1.616234E-6	NaN
619	1.000000	0.763306	7.37111e+06	-46139.1	1005.82	-29770.2	0.000000	0.000000	6.763052	-0.005016	NaN	0.000000	0.001577	0.001719	28.0814	0.030889	0.002079	14.8602	141.474	-168.901	-0.014961	0.761999	-0.299085	-0.300392	-0.005016	14.8602	-0.298832	-4521.11	1.109370E-6	NaN
619	1.000000	0.771288	7.37111e+06	-46139.1	1005.82	-29770.2	0.000000	0.000000	6.771033	-0.000113	NaN	0.000000	0.001496	0.001724	28.0812	0.029766	0.002002	14.8711	-80.2332	-159.784	0.042698	0.770002	-0.291104	-0.292389	-0.000113	14.8711	-0.291098	-3465.36	3.269969E-8	NaN
619	1.000000	0.779283	7.37111e+06	-46139.1	1005.82	-29770.2	0.000000	0.000000	6.779029	-0.000418	NaN	0.000000	0.001549	0.001724	28.0818	0.123464	0.002079	59.3871	-77.9628	-159.282	0.054926	0.777979	-0.283108	-0.284412	-0.000418	59.3871	-0.283103	-2628.62	1.589606E-7	NaN
619	1.000000	0.787304	7.37111e+06	-46139.1	1005.82	-29770.2	0.000000	0.000000	6.787050	0.004609	NaN	0.000000	0.001563	0.001733	28.0812	0.129462	0.002029	63.804	16.0322	-167.916	-0.022586	0.785998	-0.275088	-0.276394	0.004609	63.804	-0.275142	-1993.18	-2.312262E-6	NaN
619	1.000000	0.795338	7.37111e+06	-46139.1	1005.82	-29770.2	0.000000	0.000000	6.795084	0.011715	NaN	0.000000	0.001554	0.001739	28.0812	0.078001	0.002005	38.9006	-138.15	-164.36	0.038320	0.793986	-0.267053	-0.268406	0.011715	38.9006	-0.267279	-1514.06	-7.737588E-6	NaN
619	1.000000	0.803309	7.37111e+06	-46139.1	1005.82	-29770.2	0.000000	0.000000	6.803052	-0.059868	NaN	0.000000	0.001552	0.001765	28.0826	0.089287	0.002010	44.4146	-28.9066	-167.64	-0.001930	0.802092	-0.259083	-0.260300	-0.059868	44.4146	-0.258072	-1094.81	5.468332E-5	NaN
619	1.000000	0.811324	7.37111e+06	-46139.1	1005.82	-29770.2	0.000000	0.000000	6.811068	-0.048364	NaN	0.000000	0.001548	0.001760	28.0825	0.084844	0.001978	42.9015	-80.8287	-166.987	-0.027658	0.810039	-0.251068	-0.252353	-0.048364	42.9015	-0.250222	-828.713	5.836027E-5	NaN
619	1.000000	0.819302	7.37111e+06	-46139.1	1005.82	-29770.2	0.000000	0.000000	6.819047	-0.016382	NaN	0.000000	0.001497	0.001761	28.0826	0.058145	0.001826	31.8501	151.554	-165.36	0.063166	0.818004	-0.243089	-0.244387	-0.016382	31.8501	-0.242704	-633.465	2.586153E-5	NaN
619	1.000000	0.827332	7.37111e+06	-46139.1	1005.82	-29770.2	0.000000	0.000000	6.827077	-0.011841	NaN	0.000000	0.001534	0.001734	28.0826	0.040761	0.002128	19.1505	-81.2084	-164.912	0.018481	0.826044	-0.235060	-0.236347	-0.011841	19.1505	-0.234596	-473.043	2.503176E-5	NaN
619	1.000000	0.835324	7.37111e+06	-46139.1	1005.82	-29770.2	0.000000	0.000000	6.835068	-0.060252	NaN	0.000000	0.001566	0.001740	28.0826	0.051461	0.002085	24.6834	101.091	-166.97	0.032035	0.834024	-0.227067	-0.228367	-0.060252	24.6834	-0.225236	-336.582	0.000179	NaN
619	1.000000	0.843312	7.37111e+06	-46139.1	1005.82	-29770.2	0.000000	0.000000	6.843058	0.002505	NaN	0.000000	0.001533	0.001748	28.0827	0.083477	0.001946	42.8996	-11.9284	-165.365	0.045775	0.842024	-0.219080	-0.220367	0.002505	42.8996	-0.219124	-268.945	-9.315090E-6	NaN
619	1.000000	0.851339	7.37111e+06	-46139.1	1005.82	-29770.2	0.000000	0.000000	6.851086	0.011623	NaN	0.000000	0.001520	0.001744	28.0826	0.046672	0.002024	23.0609	-85.0845	-163.707	0.044278	0.850014	-0.211052	-0.212377	0.011623	23.0609	-0.211430	-202.282	-5.745843E-5	NaN
619	1.000000	0.859326	7.37111e+06	-46139.1	1005.82	-29770.2	0.000000	0.000000	6.859072	0.003104	NaN	0.000000	0.001501	0.001742	28.0825	0.015137	0.001988	7.613019	11.7325	-163.259	-0.053718	0.858042	-0.203065	-0.204349	0.003104	7.613019	-0.203371	-149.608	-2.075034E-5	NaN
619	1.000000	0.867347	7.37111e+06	-46139.1	1005.82	-29770.2	0.000000	0.000000	6.867091	-0.036017	NaN	0.000000	0.001538	0.001748	28.0825	0.114965	0.002050	56.093	-171.4	-167.495	-0.007072	0.866002	-0.195045	-0.196390	-0.036017	56.093	-0.194563	-107.143	0.000336	NaN
619	1.000000	0.875366	7.37111e+06	-46139.1	1005.82	-29770.2	0.000000	0.000000	6.875110	-0.045019	NaN	0.000000	0.001511	0.001718	28.0825	0.052471	0.001868	28.0881	50.8885	-162.679	-0.020169	0.874041	-0.187025	-0.188350	-0.045019	28.0881	-0.185823	-76.5594	0.000588	NaN
619	1.000000	0.883354	7.37111e+06	-46139.1	1005.82	-29770.2	0.000000	0.000000	6.883099	-0.022080	NaN	0.000000	0.001551	0.001728	28.0826	0.046864	0.002054	22.8193	-157.587	-161.721	-0.026538	0.882104	-0.179037	-0.180288	-0.022080	22.8193	-0.178312	-57.1079	0.000387	NaN
619	1.000000	0.891371	7.37111e+06	-46139.1	1005.82	-29770.2	0.000000	0.000000	6.891117	0.010190	NaN	0.000000	0.001546	0.001739	28.0827	0.030903	0.002079	14.8658	150.744	-166.184	-0.021543	0.890025	-0.171021	-0.172366	0.010190	14.8658	-0.171535	-43.6738	-0.000233	NaN
619	1.000000	0.899339	7.37111e+06	-46139.1	1005.82	-29770.2	0.000000	0.000000	6.899084	-0.014413	NaN	0.000000	0.001511	0.001732	28.0825	0.051074	0.001923	26.5606	164.536	-165.124	-0.071488	0.898063	-0.163052	-0.164328	-0.014413	26.5606	-0.162645	-30.5382	0.000472	NaN
619	1.000000	0.907339	7.37111e+06	-46139.1	1005.82	-29770.2	0.000000	0.000000	6.907083	-0.048257	NaN	0.000000	0.001525	0.001715	28.0829	0.053522	0.001943	27.5528	147.894	-164.199	-0.009809	0.906055	-0.155052	-0.156337	-0.048257	27.5528	-0.153739	-21.1761	0.002279	NaN
619	1.000000	0.915380	7.37111e+06	-46139.1	1005.82	-29770.2	0.000000	0.000000	6.915126	0.023584	NaN	0.000000	0.001596	0.001699	28.0829	0.012223	0.001972	6.198148	-134.221	-166.482	-0.050153	0.914034	-0.147012	-0.148357	0.023584	6.198148	-0.149866	-18.0117	-0.001309	NaN
619	1.000000	0.923344	7.37111e+06	-46139.1	1005.82	-29770.2	0.000000	0.000000	6.923089	-0.022114	NaN	0.000000	0.001565	0.001735	28.0826	0.173517	0.002019	85.9245	-119.137	-168.319	-0.013158	0.922122	-0.139047	-0.140269	-0.022114	85.9245	-0.138854	-11.2564	0.001965	NaN
619	1.000000	0.931366	7.37111e+06	-46139.1	1005.82	-29770.2	0.000000	0.000000	6.931113	0.026382	NaN	0.000000	0.001526	0.001736	28.0828	0.099879	0.001954	51.1186	-53.7309	-163.543	-0.012939	0.930079	-0.131025	-0.132313	0.026382	51.1186	-0.131412	-8.116593	-0.003250	NaN
619	1.000000	0.939379	7.37111e+06	-46139.1	1005.82	-29770.2	0.000000	0.000000	6.939124	-0.016980	NaN	0.000000	0.001552	0.001730	28.0812	0.096918	0.002111	45.9043	149.901	-161.965	-0.128730	0.938068	-0.123013	-0.124324	-0.016980	45.9043	-0.122735	-5.482593	0.003097	NaN
619	1.000000	0.947385	7.37111e+06	-46139.1	1005.82	-29770.2	0.000000	0.000000	6.947130	-0.023046	NaN	0.000000	0.001557	0.001713	28.0817	0.070984	0.001998	35.5198	76.8463	-166.936	0.064474	0.946060	-0.115006	-0.116332	-0.023046	35.5198	-0.114519	-3.734107	0.006172	NaN
619	1.000000	0.955382	7.37111e+06	-46139.1	1005.82	-29770.2	0.000000	0.000000	6.955125	-0.072878	NaN	0.000000	0.001525	0.001710	28.0815	0.184045	0.001944	94.6968	-120.583	-163.029	-0.085604	0.954018	-0.107010	-0.108373	-0.072878	94.6968	-0.106433	-2.523535	0.028879	NaN
619	1.000000	0.963373	7.37111e+06	-46139.1	1005.82	-29770.2	0.000000	0.000000	6.963118	-0.018895	NaN	0.000000	0.001531	0.001758	28.0816	0.117146	0.001997	58.6546	-176.066	-165.202	-0.045564	0.962039	-0.099018	-0.100353	-0.018895	58.6546	-0.098777	-1.716203	0.011010	NaN
619	1.000000	0.971399	7.37111e+06	-46139.1	1005.82	-29770.2	0.000000	0.000000	6.971144	-0.031989	NaN	0.000000	0.001509	0.001703	28.0814	0.099203	0.002024	49.0142	23.4408	-165.527	0.019754	0.969998	-0.090992	-0.092394	-0.031989	49.0142	-0.090503	-1.110702	0.028801	NaN
619	1.000000	0.979355	7.37111e+06	-46139.1	1005.82	-29770.2	0.000000	0.000000	6.979101	-0.002066	NaN	0.000000	0.001545	0.001723	28.0818	0.098135	0.002055	47.7554	1.514798	-165.076	-0.051686	0.978104	-0.083036	-0.084287	-0.002066	47.7554	-0.083004	-0.734604	0.002812	NaN
619	1.000000	0.987380	7.37111e+06	-46139.1	1005.82	-29770.2	0.000000	0.000000	6.987128	0.054701	NaN	0.000000	0.001573	0.001730	28.0817	0.079256	0.002219	35.7158	-55.2677	-165.14	0.017824	0.986060	-0.075012	-0.076331	0.054701	35.7158	-0.076160	-0.494786	-0.110554	NaN
619	1.000000	0.995387	7.37111e+06	-46139.1	1005.82	-29770.2	0.000000	0.000000	6.995129	-0.093866	NaN	0.000000	0.001503	0.001719	28.0814	0.020284	0.001970	10.2986	3.138449	-162.779	-0.053507	0.994105	-0.067005	-0.068287	-0.093866	10.2986	-0.060169	-0.182114	0.515423	NaN
619	1.000000	1.003405	7.37111e+06	-46139.1	1005.82	-29770.2	0.000000	0.000000	7.003149	-0.032033	NaN	0.000000	0.001529	0.001723	28.0815	0.070197	0.001971	35.6215	169.613	-165.271	-0.053906	1.002084	-0.058987	-0.060307	-0.032033	35.6215	-0.058312	-0.160999	0.198962	NaN
619	1.000000	1.011399	7.37111e+06	-46139.1	1005.82	-29770.2	0.000000	0.000000	7.011142	-0.054969	NaN	0.000000	0.001534	0.001710	28.0815	0.116594	0.001910	61.0517	149.05	-164.076	-0.016447	1.010049	-0.050993	-0.052343	-0.054969	61.0517	-0.050317	-0.093288	0.589239	NaN
619	1.000000	1.019402	7.37111e+06	-46139.1	1005.82	-29770.2	0.000000	0.000000	7.019145	-0.074011	NaN	0.000000	0.001511	0.001726	28.0814	0.201613	0.001897	106.257	-134.097	-168.362	-0.123190	1.018095	-0.042989	-0.044296	-0.074011	106.257	-0.042467	-0.053770	1.376444	NaN
619	1.000000	1.027443	7.37111e+06	-46139.1	1005.82	-29770.2	0.000000	0.000000	7.027189	0.001783	NaN	0.000000	0.001517	0.001755	28.0814	0.134122	0.002032	66.0024	-106.155	-164.357	0.031103	1.026121	-0.034948	-0.036270	0.001783	66.0024	-0.034969	-0.031957	-0.055780	NaN
619	1.000000	1.035381	7.37111e+06	-46139.1	1005.82	-29770.2	0.000000	0.000000	7.035127	-0.007298	NaN	0.000000	0.001532	0.001768	28.0813	0.093184	0.002071	44.9875	-105.644	-163.68	-0.010175	1.034067	-0.027010	-0.028325	-0.007298	44.9875	-0.026889	-0.018925	0.385611	NaN
619	1.000000	1.043386	7.37111e+06	-46139.1	1005.82	-29770.2	0.000000	0.000000	7.043133	0.006144	NaN	0.000000	0.001491	0.001736	28.0815	0.041765	0.002021	20.6622	-169.086	-165.744	-0.064804	1.042096	-0.019005	-0.020296	0.006144	20.6622	-0.019228	-0.012005	-0.511829	NaN
619	1.000000	1.051420	7.37111e+06	-46139.1	1005.82	-29770.2	0.000000	0.000000	7.051165	-0.031820	NaN	0.000000	0.001488	0.001737	28.0815	0.048234	0.002024	23.8275	-60.9379	-167.082	-0.051033	1.050060	-0.010971	-0.012332	-0.031820	23.8275	-0.009970	-0.006370	4.995266	NaN
619	1.000000	1.059419	7.37111e+06	-46139.1	1005.82	-29770.2	0.000000	0.000000	7.059170	0.110285	NaN	0.000000	0.001483	0.001733	28.0815	0.290931	0.002024	143.738	26.7302	-162.12	0.025360	1.058141	-0.002972	-0.004251	0.110285	143.738	-0.003547	-0.002484	-44.4055	NaN
619	1.000000	1.067381	7.37111e+06	-46139.1	1005.82	-29770.2	0.000000	0.000000	7.067399	6.631701	NaN	0.000000	0.001559	0.001702	28.0813	7.473022	0.001668	4481.4	15.0074	-172.449	5.889352	1.066100	0.004989	0.003708	6.631701	4481.4	0.003879	0.003133	2116.48	73144.5
619	2.000000	1.070959	7.37111e+06	-46139.1	1005.82	-29770.2	0.000000	0.000000	7.071150	10.8253	NaN	0.000000	0.001510	0.001738	28.0825	10.843	0.001565	6927.58	5.023581	-172.878	9.908140	1.070703	0.008568	0.008312	10.8253	6927.58	0.007396	0.006428	1684.07	78943
619	2.000000	1.072949	7.37111e+06	-46139.1	1005.82	-29770.2	0.000000	0.000000	7.073222	12.8097	NaN	0.000000	0.001531	0.001737	28.0825	12.9317	0.001774	7291.13	2.025105	-167.471	12.8382	1.072646	0.010558	0.010255	12.8097	7291.13	0.009240	0.008349	1534.19	72901.8
619	2.000000	1.074891	7.37111e+06	-46139.1	1005.82	-29770.2	0.000000	0.000000	7.075280	15.6521	NaN	0.000000	0.001506	0.001705	28.083	14.7523	0.001699	8681.51	6.659909	-175.169	14.0123	1.074585	0.012499	0.012193	15.6521	8681.51	0.011147	0.010485	1492.88	77463
619	2.000000	1.076931	7.37111e+06	-46139.1	1005.82	-29770.2	0.000000	0.000000	7.077383	17.1637	NaN	0.000000	0.001494	0.001725	28.0826	17.4041	0.001794	9699.36	8.641410	-174.431	17.5544	1.076563	0.014540	0.014171	17.1637	9699.36	0.013213	0.012975	1322.78	77795.6
619	2.000000	1.078914	7.37111e+06	-46139.1	1005.82	-29770.2	0.000000	0.000000	7.079518	20.8779	NaN	0.000000	0.001488	0.001697	28.0829	19.668	0.001834	10726	3.080749	-172.856	20.4173	1.078594	0.016522	0.016202	20.8779	10726	0.015063	0.015369	1358.46	79047.9
619	2.000000	1.080897	7.37111e+06	-46139.1	1005.82	-29770.2	0.000000	0.000000	7.081594	23.1255	NaN	0.000000	0.001501	0.001700	28.0827	21.1499	0.001755	12053.9	3.587062	-173.7	22.3701	1.080556	0.018506	0.018165	23.1255	12053.9	0.017067	0.018141	1274.74	81764.5
619	2.000000	1.082859	7.37111e+06	-46139.1	1005.82	-29770.2	0.000000	0.000000	7.083719	27.0915	NaN	0.000000	0.001500	0.001703	28.0829	24.2859	0.001793	13548.4	5.698342	-178.185	25.5825	1.082566	0.020467	0.020175	27.0915	13548.4	0.018968	0.020946	1293.38	85528.1
619	2.000000	1.084864	7.37111e+06	-46139.1	1005.82	-29770.2	0.000000	0.000000	7.085957	32.7804	NaN	0.000000	0.001507	0.001737	28.0828	25.0851	0.001771	14165.8	7.386175	-177.53	33.7895	1.084578	0.022473	0.022186	32.7804	14165.8	0.020737	0.023714	1382.35	84045.7
619	2.000000	1.086872	7.37111e+06	-46139.1	1005.82	-29770.2	0.000000	0.000000	7.088034	34.436	NaN	0.000000	0.001516	0.001714	28.083	28.2231	0.001800	15680.3	5.668232	-179.288	34.0309	1.086539	0.024481	0.024147	34.436	15680.3	0.022834	0.027192	1266.4	86877.5
619	2.000000	1.088848	7.37111e+06	-46139.1	1005.82	-29770.2	0.000000	0.000000	7.090367	43.1244	NaN	0.000000	0.001496	0.001744	28.0831	29.9146	0.001762	16979	6.480335	-179.579	41.2525	1.088519	0.026457	0.026128	43.1244	16979	0.024552	0.030205	1427.72	89257.4
619	2.000000	1.090791	7.37111e+06	-46139.1	1005.82	-29770.2	0.000000	0.000000	7.092522	48.2858	NaN	0.000000	0.001503	0.001729	28.0828	31.4755	0.001734	18156.2	6.118103	179.142	45.2104	1.090540	0.028400	0.028149	48.2858	18156.2	0.026405	0.033622	1436.12	90466.1
619	2.000000	1.092869	7.37111e+06	-46139.1	1005.82	-29770.2	0.000000	0.000000	7.094653	49.5703	NaN	0.000000	0.001540	0.001737	28.0827	34.5034	0.001882	18336.5	7.719085	177.797	48.7053	1.092568	0.030478	0.030177	49.5703	18336.5	0.028450	0.037593	1318.61	86404.9
619	2.000000	1.094881	7.37111e+06	-46139.1	1005.82	-29770.2	0.000000	0.000000	7.097030	58.4441	NaN	0.000000	0.001558	0.001711	28.0824	35.6409	0.001678	21240.6	5.371203	179.211	60.8758	1.094541	0.032490	0.032150	58.4441	21240.6	0.030426	0.041632	1403.83	95110.2
619	2.000000	1.096765	7.37111e+06	-46139.1	1005.82	-29770.2	0.000000	0.000000	7.099130	63.7238	NaN	0.000000	0.001522	0.001728	28.0832	37.5966	0.001807	20810	3.138482	-178.879	59.9179	1.096542	0.034373	0.034151	63.7238	20810	0.032077	0.045158	1411.13	89469.9
619	2.000000	1.098851	7.37111e+06	-46139.1	1005.82	-29770.2	0.000000	0.000000	7.101310	65.9954	NaN	0.000000	0.001570	0.001714	28.0829	40.1858	0.001860	21604.4	5.895888	177.962	63.0461	1.098516	0.036460	0.036124	65.9954	21604.4	0.034169	0.049829	1324.44	88425.2
619	2.000000	1.100857	7.37111e+06	-46139.1	1005.82	-29770.2	0.000000	0.000000	7.103774	77.1432	NaN	0.000000	0.001561	0.001727	28.083	40.9379	0.001668	24546.4	4.549846	178.171	77.8946	1.100537	0.038465	0.038145	77.1432	24546.4	0.036108	0.054358	1419.16	96189.8
619	2.000000	1.102888	7.37111e+06	-46139.1	1005.82	-29770.2	0.000000	0.000000	7.105931	80.189	NaN	0.000000	0.001558	0.001742	28.0828	44.2484	0.001745	25362.1	6.815475	176.191	80.6866	1.102511	0.040497	0.040120	80.189	25362.1	0.038125	0.059274	1352.86	95176.1
619	2.000000	1.104836	7.37111e+06	-46139.1	1005.82	-29770.2	0.000000	0.000000	7.108069	84.8226	NaN	0.000000	0.001572	0.001738	28.0817	45.5401	0.001848	24642.8	4.683163	178.349	83.315	1.104543	0.042444	0.042152	84.8226	24642.8	0.039863	0.063674	1332.14	89224.4
619	2.000000	1.106743	7.37111e+06	-46139.1	1005.82	-29770.2	0.000000	0.000000	7.110457	96.5182	NaN	0.000000	0.001566	0.001736	28.0818	46.746	0.001779	26274.7	2.269010	-179.941	92.3547	1.106476	0.044352	0.044085	96.5182	26274.7	0.041596	0.068219	1414.82	91908.9
619	2.000000	1.108858	7.37111e+06	-46139.1	1005.82	-29770.2	0.000000	0.000000	7.112749	100.81	NaN	0.000000	0.001560	0.001675	28.0826	49.1056	0.001749	28083.2	4.422917	177.293	99.2458	1.108655	0.046467	0.046263	100.81	28083.2	0.043775	0.074147	1359.6	94226.4
619	2.000000	1.110825	7.37111e+06	-46139.1	1005.82	-29770.2	0.000000	0.000000	7.115212	112.908	NaN	0.000000	0.001580	0.001701	28.0818	50.8341	0.001821	27914.4	6.856102	175.694	111.859	1.110492	0.048433	0.048101	112.908	27914.4	0.045400	0.078726	1434.18	90895.4
619	2.000000	1.112792	7.37111e+06	-46139.1	1005.82	-29770.2	0.000000	0.000000	7.117745	126.662	NaN	0.000000	0.001538	0.001703	28.081	53.6724	0.001835	29242	7.738229	173.403	124.535	1.112455	0.050401	0.050063	126.662	29242	0.047152	0.083815	1511.21	92282.4
619	2.000000	1.114878	7.37111e+06	-46139.1	1005.82	-29770.2	0.000000	0.000000	7.120144	134.287	NaN	0.000000	0.001555	0.001697	28.0816	53.5002	0.001851	28905.2	5.834515	177.047	135.966	1.114434	0.052487	0.052043	134.287	28905.2	0.049002	0.089354	1502.86	88347
619	2.000000	1.116801	7.37111e+06	-46139.1	1005.82	-29770.2	0.000000	0.000000	7.122273	139.284	NaN	0.000000	0.001596	0.001686	28.0812	56.9886	0.001707	33379.6	3.826158	176.8	137.288	1.116464	0.054410	0.054073	139.284	33379.6	0.051280	0.096411	1444.69	98218.1
619	2.000000	1.118822	7.37111e+06	-46139.1	1005.82	-29770.2	0.000000	0.000000	7.124784	151.216	NaN	0.000000	0.001577	0.001682	28.082	58.7403	0.001763	33310.4	4.163909	177.318	149.113	1.118426	0.056431	0.056035	151.216	33310.4	0.053026	0.101995	1482.58	95293.4
619	2.000000	1.120795	7.37111e+06	-46139.1	1005.82	-29770.2	0.000000	0.000000	7.126890	154.432	NaN	0.000000	0.001586	0.001704	28.0815	61.4001	0.001850	33191.3	6.935359	173.669	151.236	1.120362	0.058404	0.057971	154.432	33191.3	0.054914	0.108205	1427.21	92187.5
619	2.000000	1.122872	7.37111e+06	-46139.1	1005.82	-29770.2	0.000000	0.000000	7.129500	167.407	NaN	0.000000	0.001619	0.001712	28.0813	62.9815	0.001742	36157.6	3.583736	176.202	169.211	1.122567	0.060481	0.060176	167.407	36157.6	0.057008	0.115299	1451.94	97288.1
619	2.000000	1.124813	7.37111e+06	-46139.1	1005.82	-29770.2	0.000000	0.000000	7.131706	173.86	NaN	0.000000	0.001548	0.001711	28.0817	65.474	0.001813	36117	9.445840	169.852	174.238	1.124518	0.062421	0.062127	173.86	36117	0.058811	0.121580	1430.01	94635.6
619	2.000000	1.126807	7.37111e+06	-46139.1	1005.82	-29770.2	0.000000	0.000000	7.134418	191.33	NaN	0.000000	0.001533	0.001722	28.0814	65.8212	0.001747	37684.2	5.249894	174.132	189.677	1.126515	0.064415	0.064124	191.33	37684.2	0.060607	0.127996	1494.81	96235.4
619	2.000000	1.128935	7.37111e+06	-46139.1	1005.82	-29770.2	0.000000	0.000000	7.136754	196.387	NaN	0.000000	0.001559	0.001717	28.0816	68.5513	0.001880	36463.1	6.064439	175.609	201.128	1.128417	0.066543	0.066026	196.387	36463.1	0.062504	0.134940	1455.36	90689.2
619	2.000000	1.130821	7.37111e+06	-46139.1	1005.82	-29770.2	0.000000	0.000000	7.139330	213.169	NaN	0.000000	0.001526	0.001722	28.0812	69.578	0.001792	38825.1	3.711223	176.289	212.365	1.130414	0.068430	0.068022	213.169	38825.1	0.064312	0.141723	1504.12	94224.8
619	2.000000	1.132763	7.37111e+06	-46139.1	1005.82	-29770.2	0.000000	0.000000	7.141540	219.694	NaN	0.000000	0.001562	0.001714	28.0814	72.2791	0.001767	40900.1	4.903143	174.152	217.015	1.132466	0.070372	0.070074	219.694	40900.1	0.066343	0.149531	1469.23	96634.4
619	2.000000	1.134872	7.37111e+06	-46139.1	1005.82	-29770.2	0.000000	0.000000	7.144170	232.36	NaN	0.000000	0.001524	0.001717	28.0816	73.6803	0.001920	38375.3	7.529057	172.4	235.209	1.134438	0.072480	0.072046	232.36	38375.3	0.067939	0.155805	1491.35	88824.6
619	2.000000	1.136808	7.37111e+06	-46139.1	1005.82	-29770.2	0.000000	0.000000	7.146314	237.405	NaN	0.000000	0.001579	0.001693	28.0814	76.3365	0.001875	40715.6	3.547310	175.45	237.199	1.136584	0.074417	0.074192	237.405	40715.6	0.070044	0.164266	1445.25	91782.7
619	2.000000	1.138803	7.37111e+06	-46139.1	1005.82	-29770.2	0.000000	0.000000	7.149372	263.258	NaN	0.000000	0.001544	0.001701	28.0828	77.8309	0.001716	45363.9	6.196281	172.354	260.724	1.138466	0.076412	0.076074	263.258	45363.9	0.072060	0.172567	1525.54	99771.1
619	2.000000	1.140784	7.37111e+06	-46139.1	1005.82	-29770.2	0.000000	0.000000	7.151892	276.377	NaN	0.000000	0.001538	0.001683	28.0826	80.2227	0.001785	44950.7	7.511858	170.796	274.678	1.140376	0.078393	0.077984	276.377	44950.7	0.073781	0.179810	1537.05	96850.8
619	2.000000	1.142813	7.37111e+06	-46139.1	1005.82	-29770.2	0.000000	0.000000	7.154082	280.299	NaN	0.000000	0.001524	0.001727	28.0827	82.2397	0.001820	45192	1.585393	176.194	278.909	1.142648	0.080421	0.080256	280.299	45192	0.075770	0.188347	1488.2	95138.4
619	2.000000	1.144758	7.37111e+06	-46139.1	1005.82	-29770.2	0.000000	0.000000	7.157180	308.346	NaN	0.000000	0.001519	0.001751	28.0824	82.9989	0.001688	49157.8	6.832375	171.598	305.167	1.144347	0.082367	0.081956	308.346	49157.8	0.077663	0.196648	1568.01	101279
619	2.000000	1.146724	7.37111e+06	-46139.1	1005.82	-29770.2	0.000000	0.000000	7.159743	322.857	NaN	0.000000	0.001531	0.001707	28.0828	85.3637	0.001820	46897.2	3.881134	174.206	317.975	1.146322	0.084333	0.083931	322.857	46897.2	0.079170	0.203376	1587.49	95010.2
619	2.000000	1.148790	7.37111e+06	-46139.1	1005.82	-29770.2	0.000000	0.000000	7.162281	334.362	NaN	0.000000	0.001543	0.001731	28.0826	88.4056	0.001741	50780.7	7.709556	169.952	332.594	1.148446	0.086399	0.086055	334.362	50780.7	0.081461	0.213807	1563.85	100337
619	2.000000	1.150786	7.37111e+06	-46139.1	1005.82	-29770.2	0.000000	0.000000	7.164559	341.214	NaN	0.000000	0.001500	0.001745	28.0826	88.4491	0.001664	53161.8	2.818531	174.167	341.383	1.150475	0.088394	0.088083	341.214	53161.8	0.083581	0.223677	1525.47	102698
619	2.000000	1.152702	7.37111e+06	-46139.1	1005.82	-29770.2	0.000000	0.000000	7.166354	338.268	NaN	0.000000	0.001539	0.001715	28.0829	92.8023	0.001858	49950.6	1.024414	175.996	333.695	1.152596	0.090311	0.090204	338.268	49950.6	0.085232	0.231508	1461.15	94848.5
619	2.000000	1.154797	7.37111e+06	-46139.1	1005.82	-29770.2	0.000000	0.000000	7.169928	374.251	NaN	0.000000	0.001542	0.001715	28.0824	94.5747	0.001919	49275.4	5.417481	172.518	373.4	1.154433	0.092405	0.092042	374.251	49275.4	0.086709	0.238621	1568.39	92161.3
619	2.000000	1.156935	7.37111e+06	-46139.1	1005.82	-29770.2	0.000000	0.000000	7.172623	387.8	NaN	0.000000	0.001509	0.001719	28.0824	96.4406	0.001795	53740.5	6.363145	171.978	395.248	1.156381	0.094544	0.093990	387.8	53740.5	0.089132	0.250506	1548.07	98099.3
619	2.000000	1.158760	7.37111e+06	-46139.1	1005.82	-29770.2	0.000000	0.000000	7.175263	407.608	NaN	0.000000	0.001533	0.001734	28.0824	99.158	0.001823	54384.1	6.584602	171.757	403.836	1.158237	0.096369	0.095845	407.608	54384.1	0.090748	0.258580	1576.33	97711.8
619	2.000000	1.160715	7.37111e+06	-46139.1	1005.82	-29770.2	0.000000	0.000000	7.178008	426.835	NaN	0.000000	0.001534	0.001747	28.0826	101.222	0.001886	53671.5	5.007631	172.783	425.222	1.160298	0.098324	0.097906	426.835	53671.5	0.092359	0.266755	1600.1	94942.4
619	2.000000	1.162724	7.37111e+06	-46139.1	1005.82	-29770.2	0.000000	0.000000	7.180858	447.29	NaN	0.000000	0.001581	0.001727	28.0829	103.65	0.001881	55090.3	9.196115	168.471	444.157	1.162327	0.100333	0.099936	447.29	55090.3	0.094243	0.276459	1617.92	95726.6
619	2.000000	1.164671	7.37111e+06	-46139.1	1005.82	-29770.2	0.000000	0.000000	7.183376	461.201	NaN	0.000000	0.001541	0.001761	28.0826	103.53	0.001777	58266.2	4.985966	171.983	455.703	1.164326	0.102279	0.101934	461.201	58266.2	0.096343	0.287466	1604.37	99288.1
619	2.000000	1.166743	7.37111e+06	-46139.1	1005.82	-29770.2	0.000000	0.000000	7.185970	473.889	NaN	0.000000	0.001533	0.001714	28.0826	106.222	0.001890	56208.1	5.470529	171.668	471.12	1.166413	0.104352	0.104022	473.889	56208.1	0.098028	0.296449	1598.55	94318.5
619	2.000000	1.167653	7.37111e+06	-46139.1	1005.82	-29770.2	0.000000	0.000000	7.187337	485.002	NaN	0.000000	0.001563	0.001714	28.0828	106.81	0.001821	58649	7.903739	168.496	478.924	1.167415	0.105262	0.105023	485.002	58649	0.099060	0.302008	1605.92	97504.4