File: remote_trans/data/nanoindenter/0828-1/data/Data_2025-08-06,11h17m57s/2025-07-22_16-23-58_1_277.txt
2025-07-22, 16:23:58, 1
Index	Phase	Displacement	Time	Pos X	Pos Y	Pos Z	Rot A	Rot B	Piezo Z	Force A	Force B	Gripper	Voltage A	Voltage B	Temperature	Amplitude force	Amplitude pos	Stiffness	Phase shift	Phase excitation	Force A raw	Displacement raw	HMax	HMax raw	Real Force	Real Stiffness	Contact Depth	Area	Hardness	Reduced Mod.
[#]	[#]	[um]	[s]	[um]	[um]	[um]	[m°]	[m°]	[um]	[uN]	[uN]	[V]	[V]	[V]	[°C]	[uN]	[um]	[N/m]	[°]	[°]	[uN]	[um]	[um]	[um]	[uN]	[N/m]	[um]	[um^2]	[MPa]	[MPa]
277	1.000000	0.003194	7.36776e+06	-52489.1	955.819	-29749.4	0.000000	0.000000	6.002740	0.003977	NaN	0.000000	0.001589	0.001738	28.0789	0.061181	0.000933	65.547	-79.8989	171.925	0.044188	0.001951	-1.038089	-1.039332	0.003977	65.547	-1.038134	-7.393971E+13	-5.378071E-17	NaN
277	1.000000	0.011139	7.36776e+06	-52489.1	955.817	-29749.4	0.000000	0.000000	6.010681	-0.065686	NaN	0.000000	0.001596	0.001750	28.0788	0.022116	0.001033	21.4037	-173.714	176.261	-0.030290	0.009870	-1.030145	-1.031413	-0.065686	21.4037	-1.027843	-5.376073E+13	1.221817E-15	NaN
277	1.000000	0.019131	7.36776e+06	-52489.1	955.819	-29749.4	0.000000	0.000000	6.018673	-0.075041	NaN	0.000000	0.001621	0.001765	28.0788	0.109963	0.001879	58.5082	114.664	177.49	-0.100865	0.017864	-1.022153	-1.023419	-0.075041	58.5082	-1.021191	-4.374936E+13	1.715253E-15	NaN
277	1.000000	0.027168	7.36776e+06	-52489.1	955.819	-29749.4	0.000000	0.000000	6.026710	-0.061152	NaN	0.000000	0.001572	0.001739	28.0788	0.063394	0.001860	34.0894	164.996	176.078	-0.090989	0.025796	-1.014115	-1.015487	-0.061152	34.0894	-1.012770	-3.370249E+13	1.814474E-15	NaN
277	1.000000	0.035148	7.36776e+06	-52489.1	955.819	-29749.4	0.000000	0.000000	6.034691	-0.040623	NaN	0.000000	0.001600	0.001759	28.0789	0.091666	0.001989	46.0814	168.903	176.795	-0.050723	0.033819	-1.006135	-1.007464	-0.040623	46.0814	-1.005474	-2.688215E+13	1.511167E-15	NaN
277	1.000000	0.043143	7.36776e+06	-52489.1	955.818	-29749.4	0.000000	0.000000	6.042689	0.025409	NaN	0.000000	0.001604	0.001733	28.0785	0.042717	0.001979	21.587	87.5863	175.756	0.014842	0.041811	-0.998140	-0.999472	0.025409	21.587	-0.999023	-2.200967E+13	-1.154442E-15	NaN
277	1.000000	0.051172	7.36776e+06	-52489.1	955.819	-29749.4	0.000000	0.000000	6.050714	-0.070939	NaN	0.000000	0.001614	0.001742	28.0788	0.064041	0.001933	33.1314	101.772	176.414	-0.037416	0.049810	-0.990112	-0.991473	-0.070939	33.1314	-0.988506	-1.588497E+13	4.465819E-15	NaN
277	1.000000	0.059116	7.36776e+06	-52489.1	955.818	-29749.4	0.000000	0.000000	6.058659	-0.057724	NaN	0.000000	0.001599	0.001750	28.0786	0.065409	0.001907	34.2987	-52.418	172.775	-0.028084	0.057900	-0.982167	-0.983383	-0.057724	34.2987	-0.980905	-1.254864E+13	4.600034E-15	NaN
277	1.000000	0.067160	7.36776e+06	-52489.1	955.819	-29749.4	0.000000	0.000000	6.066702	-0.096023	NaN	0.000000	0.001615	0.001732	28.0789	0.052608	0.001990	26.4314	-67.9995	176.495	-0.070526	0.065837	-0.974123	-0.975446	-0.096023	26.4314	-0.971398	-9.343368E+12	1.027714E-14	NaN
277	1.000000	0.075165	7.36776e+06	-52489.1	955.818	-29749.4	0.000000	0.000000	6.074705	-0.105447	NaN	0.000000	0.001661	0.001738	28.0788	0.104146	0.002092	49.7762	179.39	175.465	-0.076725	0.073852	-0.966119	-0.967431	-0.105447	49.7762	-0.964530	-7.549774E+12	1.396689E-14	NaN
277	1.000000	0.083141	7.36776e+06	-52489.1	955.819	-29749.4	0.000000	0.000000	6.082686	-0.010198	NaN	0.000000	0.001625	0.001725	28.0786	0.049845	0.002072	24.0572	19.9836	176.969	0.061099	0.081841	-0.958142	-0.959442	-0.010198	24.0572	-0.957824	-6.131051E+12	1.663330E-15	NaN
277	1.000000	0.091155	7.36776e+06	-52489.1	955.818	-29749.4	0.000000	0.000000	6.090703	0.069337	NaN	0.000000	0.001606	0.001718	28.0788	0.066420	0.002021	32.8668	-72.9177	175.623	-0.000604	0.089824	-0.950128	-0.951459	0.069337	32.8668	-0.951710	-5.070943E+12	-1.367343E-14	NaN
277	1.000000	0.099161	7.36776e+06	-52489.1	955.818	-29749.4	0.000000	0.000000	6.098705	-0.046159	NaN	0.000000	0.001630	0.001753	28.0786	0.111547	0.002160	51.6436	132.638	174.569	-0.121525	0.097815	-0.942122	-0.943468	-0.046159	51.6436	-0.941451	-3.687381E+12	1.251817E-14	NaN
277	1.000000	0.107150	7.36776e+06	-52489.1	955.819	-29749.4	0.000000	0.000000	6.106695	-0.020723	NaN	0.000000	0.001630	0.001747	28.0786	0.047845	0.001976	24.2081	-140.454	177.197	-0.048472	0.105813	-0.934133	-0.935470	-0.020723	24.2081	-0.933491	-2.879431E+12	7.197066E-15	NaN
277	1.000000	0.115179	7.36776e+06	-52489.1	955.818	-29749.4	0.000000	0.000000	6.114721	-0.073367	NaN	0.000000	0.001637	0.001767	28.0775	0.036869	0.001975	18.6668	59.2692	175.253	-0.059037	0.113875	-0.926104	-0.927409	-0.073367	18.6668	-0.923156	-2.088429E+12	3.513027E-14	NaN
277	1.000000	0.123152	7.36776e+06	-52489.1	955.818	-29749.4	0.000000	0.000000	6.122693	-0.095214	NaN	0.000000	0.001604	0.001730	28.0772	0.091195	0.001974	46.198	-33.6895	174.72	-0.116538	0.121851	-0.918132	-0.919432	-0.095214	46.198	-0.916586	-1.702571E+12	5.592346E-14	NaN
277	1.000000	0.131172	7.36776e+06	-52489.1	955.818	-29749.4	0.000000	0.000000	6.130716	-0.026523	NaN	0.000000	0.001627	0.001745	28.0777	0.044028	0.001968	22.371	25.1629	175.421	-0.019103	0.129864	-0.910111	-0.911419	-0.026523	22.371	-0.909222	-1.354122E+12	1.958653E-14	NaN
277	1.000000	0.139170	7.36776e+06	-52489.1	955.818	-29749.4	0.000000	0.000000	6.138714	-0.022145	NaN	0.000000	0.001586	0.001705	28.0773	0.107227	0.001806	59.3603	-89.2236	174.895	0.034777	0.137871	-0.902113	-0.903412	-0.022145	59.3603	-0.901833	-1.076063E+12	2.057941E-14	NaN
277	1.000000	0.147189	7.36776e+06	-52489.1	955.817	-29749.4	0.000000	0.000000	6.146734	-0.000608	NaN	0.000000	0.001594	0.001717	28.0776	0.131746	0.002020	65.2155	-133.853	175.556	-0.033852	0.145903	-0.894094	-0.895380	-0.000608	65.2155	-0.894087	-8.455886E+11	7.192453E-16	NaN
277	1.000000	0.155175	7.36776e+06	-52489.1	955.819	-29749.4	0.000000	0.000000	6.154718	-0.053060	NaN	0.000000	0.001588	0.001733	28.0774	0.099683	0.002068	48.1921	-122.611	178.464	-0.036205	0.153863	-0.886108	-0.887420	-0.053060	48.1921	-0.885283	-6.428973E+11	8.253239E-14	NaN
277	1.000000	0.163194	7.36776e+06	-52489.1	955.818	-29749.4	0.000000	0.000000	6.162735	-0.099424	NaN	0.000000	0.001596	0.001721	28.0775	0.104811	0.001885	55.5913	-108.667	175.63	-0.033635	0.161883	-0.878089	-0.879400	-0.099424	55.5913	-0.876748	-4.928592E+11	2.017289E-13	NaN
277	1.000000	0.171202	7.36776e+06	-52489.1	955.818	-29749.4	0.000000	0.000000	6.170745	-0.049550	NaN	0.000000	0.001600	0.001724	28.0779	0.031842	0.002089	15.245	-172.906	177.771	0.013801	0.169852	-0.870081	-0.871431	-0.049550	15.245	-0.867644	-3.711608E+11	1.334997E-13	NaN
277	1.000000	0.179198	7.36777e+06	-52489.1	955.819	-29749.4	0.000000	0.000000	6.178741	-0.055331	NaN	0.000000	0.001578	0.001718	28.0775	0.045199	0.002042	22.1323	-174.42	175.266	-0.066093	0.177875	-0.862085	-0.863408	-0.055331	22.1323	-0.860210	-2.944167E+11	1.879349E-13	NaN
277	1.000000	0.187189	7.36777e+06	-52489.1	955.819	-29749.4	0.000000	0.000000	6.186731	-0.072334	NaN	0.000000	0.001573	0.001750	28.0774	0.093408	0.001983	47.0984	-89.511	176.863	-0.004328	0.185910	-0.854094	-0.855373	-0.072334	47.0984	-0.852942	-2.347338E+11	3.081541E-13	NaN
277	1.000000	0.195222	7.36777e+06	-52489.1	955.819	-29749.4	0.000000	0.000000	6.194767	-0.013829	NaN	0.000000	0.001576	0.001723	28.0772	0.039603	0.002003	19.7759	-42.671	176.569	-0.072650	0.193864	-0.846061	-0.847419	-0.013829	19.7759	-0.845537	-1.863341E+11	7.421470E-14	NaN
277	1.000000	0.203178	7.36777e+06	-52489.1	955.819	-29749.4	0.000000	0.000000	6.202723	-0.012506	NaN	0.000000	0.001545	0.001707	28.0773	0.177160	0.002081	85.1333	153.302	177.015	-0.039800	0.201881	-0.838105	-0.839402	-0.012506	85.1333	-0.837995	-1.472740E+11	8.491551E-14	NaN
277	1.000000	0.211212	7.36777e+06	-52489.1	955.819	-29749.4	0.000000	0.000000	6.210757	-0.002406	NaN	0.000000	0.001565	0.001718	28.0776	0.040804	0.001973	20.6811	165.644	174.346	0.111625	0.209856	-0.830071	-0.831428	-0.002406	20.6811	-0.829984	-1.147003E+11	2.097607E-14	NaN
277	1.000000	0.219241	7.36777e+06	-52489.1	955.819	-29749.4	0.000000	0.000000	6.218787	0.011639	NaN	0.000000	0.001593	0.001714	28.0774	0.040969	0.001987	20.6172	34.6135	176.774	0.029368	0.217936	-0.822042	-0.823347	0.011639	20.6172	-0.822466	-9.070754E+10	-1.283184E-13	NaN
277	1.000000	0.227203	7.36777e+06	-52489.1	955.818	-29749.4	0.000000	0.000000	6.226747	-0.034123	NaN	0.000000	0.001612	0.001710	28.0776	0.054450	0.002020	26.9586	16.6377	176.636	-0.052761	0.225892	-0.814080	-0.815391	-0.034123	26.9586	-0.813131	-6.777129E+10	5.034988E-13	NaN
277	1.000000	0.235196	7.36777e+06	-52489.1	955.817	-29749.4	0.000000	0.000000	6.234739	-0.044809	NaN	0.000000	0.001590	0.001736	28.0773	0.113676	0.002011	56.5355	84.9732	175.499	0.019237	0.233920	-0.806088	-0.807363	-0.044809	56.5355	-0.805493	-5.338476E+10	8.393608E-13	NaN
277	1.000000	0.243223	7.36777e+06	-52489.1	955.818	-29749.4	0.000000	0.000000	6.242767	-0.022144	NaN	0.000000	0.001543	0.001739	28.0774	0.002982	0.001986	1.501133	-134.307	174.036	-0.095491	0.241887	-0.798060	-0.799396	-0.022144	1.501133	-0.786997	-2.994257E+10	7.395562E-13	NaN
277	1.000000	0.251202	7.36777e+06	-52489.1	955.818	-29749.4	0.000000	0.000000	6.250745	-0.055472	NaN	0.000000	0.001576	0.001737	28.0785	0.102490	0.001893	54.1333	127.962	176.015	0.032991	0.249941	-0.790081	-0.791343	-0.055472	54.1333	-0.789312	-3.219144E+10	1.723201E-12	NaN
277	1.000000	0.259248	7.36777e+06	-52489.1	955.819	-29749.4	0.000000	0.000000	6.258792	-0.021292	NaN	0.000000	0.001592	0.001749	28.0786	0.141870	0.002007	70.6789	172.134	176.485	0.022992	0.257950	-0.782035	-0.783333	-0.021292	70.6789	-0.781809	-2.545743E+10	8.363701E-13	NaN
277	1.000000	0.267229	7.36777e+06	-52489.1	955.818	-29749.4	0.000000	0.000000	6.266776	0.028823	NaN	0.000000	0.001596	0.001731	28.0787	0.096461	0.001891	51.0123	132.326	174.63	-0.074847	0.265871	-0.774054	-0.775412	0.028823	51.0123	-0.774477	-2.023836E+10	-1.424158E-12	NaN
277	1.000000	0.275252	7.36777e+06	-52489.1	955.818	-29749.4	0.000000	0.000000	6.274793	-0.101813	NaN	0.000000	0.001583	0.001758	28.0784	0.030164	0.002003	15.0564	-23.2036	176.858	-0.146464	0.273887	-0.766031	-0.767396	-0.101813	15.0564	-0.760959	-1.325414E+10	7.681635E-12	NaN
277	1.000000	0.283235	7.36777e+06	-52489.1	955.818	-29749.4	0.000000	0.000000	6.282778	-0.049461	NaN	0.000000	0.001578	0.001753	28.0785	0.073853	0.001900	38.8723	-80.9966	174.795	0.020069	0.281877	-0.758049	-0.759406	-0.049461	38.8723	-0.757094	-1.174273E+10	4.212031E-12	NaN
277	1.000000	0.291241	7.36777e+06	-52489.1	955.818	-29749.4	0.000000	0.000000	6.290785	-0.038632	NaN	0.000000	0.001577	0.001766	28.0785	0.087615	0.001962	44.6512	-160.452	177.085	-0.092206	0.289920	-0.750042	-0.751363	-0.038632	44.6512	-0.749393	-9.224859E+9	4.187828E-12	NaN
277	1.000000	0.299222	7.36777e+06	-52489.1	955.819	-29749.4	0.000000	0.000000	6.298771	0.072250	NaN	0.000000	0.001595	0.001808	28.0792	0.093188	0.001963	47.4771	168.357	174.234	0.036524	0.297913	-0.742061	-0.743370	0.072250	47.4771	-0.743202	-7.597389E+9	-9.509791E-12	NaN
277	1.000000	0.307239	7.36777e+06	-52489.1	955.819	-29749.4	0.000000	0.000000	6.306784	0.002468	NaN	0.000000	0.001597	0.001748	28.0787	0.091872	0.002045	44.9202	-73.4316	178.905	-0.064293	0.305941	-0.734044	-0.735342	0.002468	44.9202	-0.734085	-5.707979E+9	-4.323766E-13	NaN
277	1.000000	0.315272	7.36777e+06	-52489.1	955.818	-29749.4	0.000000	0.000000	6.314816	-0.023255	NaN	0.000000	0.001622	0.001748	28.0785	0.048669	0.002007	24.2482	87.0447	175.102	-0.039428	0.313939	-0.726011	-0.727344	-0.023255	24.2482	-0.725292	-4.331434E+9	5.368993E-12	NaN
277	1.000000	0.323234	7.36777e+06	-52489.1	955.818	-29749.4	0.000000	0.000000	6.322777	-0.039779	NaN	0.000000	0.001604	0.001745	28.0788	0.057669	0.002096	27.5194	-108.718	177.257	0.003370	0.321917	-0.718049	-0.719367	-0.039779	27.5194	-0.716965	-3.334883E+9	1.192817E-11	NaN
277	1.000000	0.331268	7.36777e+06	-52489.1	955.818	-29749.4	0.000000	0.000000	6.330809	-0.115984	NaN	0.000000	0.001582	0.001767	28.0783	0.051483	0.001973	26.0987	33.0747	173.837	-0.057216	0.329946	-0.710015	-0.711337	-0.115984	26.0987	-0.706682	-2.414140E+9	4.804348E-11	NaN
277	1.000000	0.339260	7.36777e+06	-52489.1	955.818	-29749.4	0.000000	0.000000	6.338804	-0.031054	NaN	0.000000	0.001571	0.001752	28.0784	0.055743	0.001973	28.2528	-91.4621	174.922	0.004690	0.337951	-0.702023	-0.703332	-0.031054	28.2528	-0.701199	-2.031901E+9	1.528342E-11	NaN
277	1.000000	0.347248	7.36777e+06	-52489.1	955.818	-29749.4	0.000000	0.000000	6.346790	-0.097154	NaN	0.000000	0.001575	0.001731	28.0784	0.061570	0.002173	28.3294	157.383	174.645	-0.083256	0.345913	-0.694035	-0.695371	-0.097154	28.3294	-0.691463	-1.495911E+9	6.494651E-11	NaN
277	1.000000	0.355288	7.36777e+06	-52489.1	955.819	-29749.4	0.000000	0.000000	6.354829	-0.093927	NaN	0.000000	0.001577	0.001753	28.0782	0.059369	0.002069	28.692	129.608	173.644	-0.146705	0.353969	-0.685996	-0.687314	-0.093927	28.692	-0.683540	-1.165786E+9	8.056936E-11	NaN
277	1.000000	0.363283	7.36777e+06	-52489.1	955.818	-29749.4	0.000000	0.000000	6.362828	-0.005370	NaN	0.000000	0.001574	0.001721	28.0785	0.067318	0.002072	32.4951	174.203	177.09	-0.085684	0.361954	-0.678001	-0.679329	-0.005370	32.4951	-0.677877	-9.753555E+8	5.505766E-12	NaN
277	1.000000	0.371285	7.36777e+06	-52489.1	955.819	-29749.4	0.000000	0.000000	6.370827	-0.077381	NaN	0.000000	0.001577	0.001744	28.0783	0.028686	0.002123	13.5127	-173.666	179.132	-0.097299	0.369950	-0.669998	-0.671333	-0.077381	13.5127	-0.665703	-6.646161E+8	1.164298E-10	NaN
277	1.000000	0.379284	7.36777e+06	-52489.1	955.819	-29749.4	0.000000	0.000000	6.378825	-0.115127	NaN	0.000000	0.001550	0.001738	28.0783	0.097197	0.002051	47.3937	-39.6433	174.789	-0.119781	0.378000	-0.661999	-0.663283	-0.115127	47.3937	-0.660177	-5.583343E+8	2.061977E-10	NaN
277	1.000000	0.387265	7.36777e+06	-52489.1	955.818	-29749.4	0.000000	0.000000	6.386807	-0.080873	NaN	0.000000	0.001561	0.001706	28.0772	0.082571	0.001934	42.6853	-79.4358	174.91	-0.041563	0.385987	-0.654018	-0.655296	-0.080873	42.6853	-0.652597	-4.395806E+8	1.839766E-10	NaN
277	1.000000	0.395284	7.36777e+06	-52489.1	955.819	-29749.4	0.000000	0.000000	6.394827	-0.060777	NaN	0.000000	0.001562	0.001751	28.0772	0.125067	0.001967	63.5673	93.1768	174.445	0.046700	0.393967	-0.645999	-0.647316	-0.060777	63.5673	-0.645282	-3.489377E+8	1.741759E-10	NaN
277	1.000000	0.403305	7.36777e+06	-52489.1	955.819	-29749.4	0.000000	0.000000	6.402846	-0.090990	NaN	0.000000	0.001569	0.001720	28.0774	0.075496	0.001815	41.5919	177.469	176.872	-0.053210	0.401959	-0.637978	-0.639325	-0.090990	41.5919	-0.636338	-2.630458E+8	3.459096E-10	NaN
277	1.000000	0.411285	7.36777e+06	-52489.1	955.817	-29749.4	0.000000	0.000000	6.410831	0.016104	NaN	0.000000	0.001550	0.001763	28.0771	0.025552	0.002052	12.4511	-152.967	174.491	-0.087603	0.409976	-0.629998	-0.631307	0.016104	12.4511	-0.630968	-2.219796E+8	-7.254755E-11	NaN
277	1.000000	0.419288	7.36777e+06	-52489.1	955.818	-29749.4	0.000000	0.000000	6.418830	-0.080104	NaN	0.000000	0.001578	0.001731	28.0772	0.051434	0.002073	24.8165	-154.816	170.505	-0.048112	0.417965	-0.621995	-0.623318	-0.080104	24.8165	-0.619574	-1.548018E+8	5.174626E-10	NaN
277	1.000000	0.427286	7.36777e+06	-52489.1	955.818	-29749.4	0.000000	0.000000	6.426828	-0.080804	NaN	0.000000	0.001607	0.001735	28.077	0.045335	0.002008	22.5744	17.0701	174.77	0.033285	0.425960	-0.613997	-0.615323	-0.080804	22.5744	-0.611313	-1.191714E+8	6.780471E-10	NaN
277	1.000000	0.435310	7.36777e+06	-52489.1	955.819	-29749.4	0.000000	0.000000	6.434851	-0.118083	NaN	0.000000	0.001557	0.001718	28.0769	0.074059	0.002048	36.1587	-76.8534	177.729	-0.049619	0.434018	-0.605973	-0.607265	-0.118083	36.1587	-0.603523	-9.310585E+7	1.268267E-9	NaN
277	1.000000	0.443285	7.36777e+06	-52489.1	955.819	-29749.4	0.000000	0.000000	6.442830	-0.006318	NaN	0.000000	0.001580	0.001717	28.0772	0.115169	0.002007	57.3975	-166.936	177.999	-0.010451	0.441997	-0.597998	-0.599286	-0.006318	57.3975	-0.597916	-7.793885E+7	8.106167E-11	NaN
277	1.000000	0.451310	7.36777e+06	-52489.1	955.818	-29749.4	0.000000	0.000000	6.450855	-0.009576	NaN	0.000000	0.001607	0.001738	28.078	0.104804	0.001843	56.8769	23.5182	172.693	0.025892	0.449949	-0.589973	-0.591334	-0.009576	56.8769	-0.589847	-6.033246E+7	1.587268E-10	NaN
277	1.000000	0.459301	7.36777e+06	-52489.1	955.818	-29749.4	0.000000	0.000000	6.458844	-0.055581	NaN	0.000000	0.001590	0.001736	28.077	0.098327	0.002244	43.8086	168.812	175.992	-0.010886	0.457929	-0.581982	-0.583354	-0.055581	43.8086	-0.581030	-4.559818E+7	1.218936E-9	NaN
277	1.000000	0.467282	7.36777e+06	-52489.1	955.818	-29749.4	0.000000	0.000000	6.466827	0.014969	NaN	0.000000	0.001545	0.001729	28.0773	0.018889	0.002051	9.208874	-40.3597	177.626	0.064082	0.466041	-0.574001	-0.575242	0.014969	9.208874	-0.575221	-3.790915E+7	-3.948592E-10	NaN
277	1.000000	0.475368	7.36777e+06	-52489.1	955.818	-29749.4	0.000000	0.000000	6.474912	-0.048264	NaN	0.000000	0.001570	0.001726	28.0771	0.045367	0.001870	24.26	83.724	173.597	-0.000711	0.473958	-0.565915	-0.567325	-0.048264	24.26	-0.564423	-2.688706E+7	1.795060E-9	NaN
277	1.000000	0.483323	7.36777e+06	-52489.1	955.819	-29749.4	0.000000	0.000000	6.482863	-0.128999	NaN	0.000000	0.001569	0.001735	28.0772	0.196779	0.002035	96.7091	-7.615250	177.785	-0.054769	0.482033	-0.557960	-0.559251	-0.128999	96.7091	-0.556959	-2.119852E+7	6.085284E-9	NaN
277	1.000000	0.491324	7.36777e+06	-52489.1	955.818	-29749.4	0.000000	0.000000	6.490868	-0.028232	NaN	0.000000	0.001566	0.001708	28.0771	0.055117	0.001951	28.2518	63.6625	173.712	-0.044940	0.489998	-0.549959	-0.551285	-0.028232	28.2518	-0.549210	-1.655820E+7	1.704997E-9	NaN
277	1.000000	0.499341	7.36777e+06	-52489.1	955.818	-29749.4	0.000000	0.000000	6.498883	-0.066626	NaN	0.000000	0.001578	0.001742	28.0772	0.061107	0.001853	32.9797	38.8666	176.099	-0.009292	0.498028	-0.541942	-0.543255	-0.066626	32.9797	-0.540427	-1.251077E+7	5.325482E-9	NaN
277	1.000000	0.507341	7.36777e+06	-52489.1	955.818	-29749.4	0.000000	0.000000	6.506884	-0.047683	NaN	0.000000	0.001574	0.001688	28.0772	0.058311	0.001911	30.5059	143.456	176.692	-0.093839	0.505952	-0.533942	-0.535331	-0.047683	30.5059	-0.532770	-9.7957e+06	4.867744E-9	NaN
277	1.000000	0.515357	7.36777e+06	-52489.1	955.818	-29749.4	0.000000	0.000000	6.514901	-0.028989	NaN	0.000000	0.001583	0.001744	28.0771	0.090398	0.001937	46.6636	-162.91	176.293	-0.022740	0.514032	-0.525926	-0.527251	-0.028989	46.6636	-0.525460	-7.75373e+06	3.738759E-9	NaN
277	1.000000	0.523369	7.36777e+06	-52489.1	955.818	-29749.4	0.000000	0.000000	6.522911	-0.069687	NaN	0.000000	0.001585	0.001724	28.0785	0.024437	0.002036	12.0025	83.2674	175.495	-0.106692	0.522014	-0.517914	-0.519269	-0.069687	12.0025	-0.513559	-5.29641e+06	1.315748E-8	NaN
277	1.000000	0.531353	7.36777e+06	-52489.1	955.819	-29749.4	0.000000	0.000000	6.530899	0.002217	NaN	0.000000	0.001565	0.001722	28.0784	0.020869	0.001901	10.9776	155.851	178.409	-0.000679	0.530045	-0.509930	-0.511238	0.002217	10.9776	-0.510081	-4.73746e+06	-4.680771E-10	NaN
277	1.000000	0.539328	7.36777e+06	-52489.1	955.818	-29749.4	0.000000	0.000000	6.538876	0.062784	NaN	0.000000	0.001552	0.001740	28.0782	0.045766	0.002043	22.4026	145.014	175.014	0.029186	0.538047	-0.501955	-0.503236	0.062784	22.4026	-0.504057	-3.90477e+06	-1.607886E-8	NaN
277	1.000000	0.547342	7.36777e+06	-52489.1	955.818	-29749.4	0.000000	0.000000	6.546887	-0.021800	NaN	0.000000	0.001557	0.001760	28.0784	0.069266	0.002015	34.3768	-17.5165	177.512	-0.069970	0.546060	-0.493941	-0.495223	-0.021800	34.3768	-0.493465	-2.77845e+06	7.846019E-9	NaN
277	1.000000	0.555366	7.36777e+06	-52489.1	955.818	-29749.4	0.000000	0.000000	6.554908	-0.070095	NaN	0.000000	0.001556	0.001745	28.0784	0.097909	0.002005	48.8243	-143.096	178.832	-0.058514	0.554043	-0.485917	-0.487240	-0.070095	48.8243	-0.484841	-2.10505e+06	3.329838E-8	NaN
277	1.000000	0.563342	7.36777e+06	-52489.1	955.818	-29749.4	0.000000	0.000000	6.562885	-0.044418	NaN	0.000000	0.001537	0.001743	28.0785	0.114258	0.002020	56.5624	-37.6378	176.393	-0.005339	0.562044	-0.477942	-0.479239	-0.044418	56.5624	-0.477353	-1.6537e+06	2.685954E-8	NaN
277	1.000000	0.571407	7.36777e+06	-52489.1	955.819	-29749.4	0.000000	0.000000	6.570953	0.016667	NaN	0.000000	0.001553	0.001745	28.0783	0.103630	0.001878	55.1799	51.528	173.551	-0.010119	0.570035	-0.469876	-0.471248	0.016667	55.1799	-0.470102	-1.30871e+06	-1.273577E-8	NaN
277	1.000000	0.579374	7.36777e+06	-52489.1	955.817	-29749.4	0.000000	0.000000	6.578916	-0.091199	NaN	0.000000	0.001562	0.001707	28.0783	0.021739	0.002167	10.0335	147.069	172.553	-0.061523	0.578088	-0.461909	-0.463195	-0.091199	10.0335	-0.455092	-805395	1.132348E-7	NaN
277	1.000000	0.587362	7.36777e+06	-52489.1	955.818	-29749.4	0.000000	0.000000	6.586906	-0.030150	NaN	0.000000	0.001533	0.001720	28.0783	0.099396	0.002051	48.4706	171.193	173.88	-0.069491	0.586063	-0.453921	-0.455220	-0.030150	48.4706	-0.453455	-763795	3.947423E-8	NaN
277	1.000000	0.595366	7.36777e+06	-52489.1	955.818	-29749.4	0.000000	0.000000	6.594909	-0.060483	NaN	0.000000	0.001538	0.001739	28.0782	0.089700	0.001988	45.1141	159.15	177.404	-0.002317	0.594015	-0.445917	-0.447268	-0.060483	45.1141	-0.444912	-578958	1.044689E-7	NaN
277	1.000000	0.603375	7.36777e+06	-52489.1	955.819	-29749.4	0.000000	0.000000	6.602919	-0.027956	NaN	0.000000	0.001514	0.001731	28.0787	0.107583	0.002035	52.8721	-146.683	176.978	-0.027743	0.602069	-0.437908	-0.439214	-0.027956	52.8721	-0.437511	-455228	6.141062E-8	NaN
277	1.000000	0.611353	7.36777e+06	-52489.1	955.818	-29749.4	0.000000	0.000000	6.610897	-0.023968	NaN	0.000000	0.001528	0.001766	28.0784	0.035762	0.002012	17.7729	-138.778	175.853	-0.054756	0.610076	-0.429930	-0.431207	-0.023968	17.7729	-0.428919	-344165	6.964181E-8	NaN
277	1.000000	0.619381	7.36777e+06	-52489.1	955.818	-29749.4	0.000000	0.000000	6.618924	-0.044108	NaN	0.000000	0.001560	0.001735	28.0784	0.057311	0.001943	29.4986	51.4248	174.739	-0.015638	0.618129	-0.421903	-0.423154	-0.044108	29.4986	-0.420781	-263932	1.671198E-7	NaN
277	1.000000	0.627408	7.36777e+06	-52489.1	955.819	-29749.4	0.000000	0.000000	6.626951	-0.047521	NaN	0.000000	0.001593	0.001752	28.0784	0.044548	0.001941	22.9547	71.9939	176.231	-0.050533	0.626096	-0.413875	-0.415187	-0.047521	22.9547	-0.412322	-200177	2.373940E-7	NaN
277	1.000000	0.635395	7.36777e+06	-52489.1	955.819	-29749.4	0.000000	0.000000	6.634938	-0.032973	NaN	0.000000	0.001571	0.001731	28.0781	0.053960	0.001953	27.6262	14.002	175.745	-0.100486	0.634074	-0.405889	-0.407209	-0.032973	27.6262	-0.404993	-157454	2.094146E-7	NaN
277	1.000000	0.643380	7.36777e+06	-52489.1	955.819	-29749.4	0.000000	0.000000	6.642924	-0.043473	NaN	0.000000	0.001584	0.001769	28.0785	0.109576	0.002143	51.1307	0.520434	176.518	0.019309	0.642042	-0.397903	-0.399241	-0.043473	51.1307	-0.397265	-122173	3.558313E-7	NaN
277	1.000000	0.651391	7.36777e+06	-52489.1	955.819	-29749.4	0.000000	0.000000	6.650935	-0.022379	NaN	0.000000	0.001592	0.001741	28.0782	0.051832	0.002078	24.9441	107.484	176.525	-0.046749	0.650067	-0.389892	-0.391216	-0.022379	24.9441	-0.389219	-93754.8	2.387013E-7	NaN
277	1.000000	0.659375	7.36777e+06	-52489.1	955.818	-29749.4	0.000000	0.000000	6.658918	-0.062596	NaN	0.000000	0.001570	0.001728	28.0772	0.159261	0.002058	77.3839	6.597673	174.628	-0.092010	0.658099	-0.381908	-0.383184	-0.062596	77.3839	-0.381302	-72204.4	8.669266E-7	NaN
277	1.000000	0.667388	7.36777e+06	-52489.1	955.818	-29749.4	0.000000	0.000000	6.666932	-0.039182	NaN	0.000000	0.001571	0.001705	28.0772	0.054609	0.002034	26.8483	-37.6181	173.446	-0.050435	0.666073	-0.373895	-0.375211	-0.039182	26.8483	-0.372800	-54504.8	7.188786E-7	NaN
277	1.000000	0.675403	7.36777e+06	-52489.1	955.818	-29749.4	0.000000	0.000000	6.674945	-0.066707	NaN	0.000000	0.001587	0.001715	28.0771	0.047617	0.002074	22.9601	111.363	174.302	-0.059059	0.674091	-0.365880	-0.367193	-0.066707	22.9601	-0.363701	-40300.4	1.655249E-6	NaN
277	1.000000	0.683437	7.36777e+06	-52489.1	955.819	-29749.4	0.000000	0.000000	6.682980	-0.048432	NaN	0.000000	0.001561	0.001751	28.0772	0.019640	0.001910	10.284	109.404	173.182	-0.026221	0.682060	-0.357846	-0.359223	-0.048432	10.284	-0.354314	-29482.1	1.642758E-6	NaN
277	1.000000	0.691413	7.36777e+06	-52489.1	955.818	-29749.4	0.000000	0.000000	6.690958	-0.009340	NaN	0.000000	0.001562	0.001726	28.0771	0.008583	0.001987	4.318511	-93.2878	176.861	-0.048271	0.690107	-0.349870	-0.351176	-0.009340	4.318511	-0.348248	-24074.8	3.879504E-7	NaN
277	1.000000	0.699401	7.36777e+06	-52489.1	955.818	-29749.4	0.000000	0.000000	6.698943	-0.086158	NaN	0.000000	0.001561	0.001715	28.0773	0.097595	0.001956	49.9052	84.4433	175.948	-0.067509	0.698072	-0.341882	-0.343211	-0.086158	49.9052	-0.340587	-18625.6	4.625799E-6	NaN
277	1.000000	0.707426	7.36777e+06	-52489.1	955.819	-29749.4	0.000000	0.000000	6.706971	0.005832	NaN	0.000000	0.001569	0.001695	28.0771	0.163703	0.002019	81.0959	69.2146	175.599	-0.006957	0.706107	-0.333858	-0.335177	0.005832	81.0959	-0.333911	-14882.6	-3.918807E-7	NaN
277	1.000000	0.715400	7.36777e+06	-52489.1	955.818	-29749.4	0.000000	0.000000	6.714946	0.014499	NaN	0.000000	0.001566	0.001722	28.077	0.056751	0.001880	30.1916	-47.3515	174.644	0.010958	0.714109	-0.325883	-0.327174	0.014499	30.1916	-0.326243	-11491.6	-1.261750E-6	NaN
277	1.000000	0.723407	7.36777e+06	-52489.1	955.818	-29749.4	0.000000	0.000000	6.722950	-0.055951	NaN	0.000000	0.001567	0.001722	28.0772	0.061442	0.001916	32.0743	140.532	174.712	-0.028370	0.722080	-0.317876	-0.319203	-0.055951	32.0743	-0.316568	-8280.91	6.756670E-6	NaN
277	1.000000	0.731419	7.36777e+06	-52489.1	955.819	-29749.4	0.000000	0.000000	6.730962	-0.040066	NaN	0.000000	0.001588	0.001747	28.077	0.091980	0.002048	44.9121	-53.2261	173.468	0.068931	0.730100	-0.309864	-0.311183	-0.040066	44.9121	-0.309195	-6443.84	6.217735E-6	NaN
277	1.000000	0.739427	7.36777e+06	-52489.1	955.818	-29749.4	0.000000	0.000000	6.738971	-0.024151	NaN	0.000000	0.001583	0.001708	28.0771	0.042626	0.001964	21.7077	-153.812	175.131	0.004507	0.738082	-0.301856	-0.303201	-0.024151	21.7077	-0.301021	-4873.45	4.955565E-6	NaN
277	1.000000	0.747418	7.36777e+06	-52489.1	955.819	-29749.4	0.000000	0.000000	6.746963	0.010792	NaN	0.000000	0.001599	0.001725	28.0771	0.017845	0.001927	9.261291	43.4433	176.761	-0.010697	0.746129	-0.293865	-0.295154	0.010792	9.261291	-0.294739	-3928.21	-2.747409E-6	NaN
277	1.000000	0.755448	7.36777e+06	-52489.1	955.818	-29749.4	0.000000	0.000000	6.754994	0.031080	NaN	0.000000	0.001556	0.001691	28.077	0.013216	0.002134	6.194169	130.639	172.502	0.060917	0.754155	-0.285836	-0.287129	0.031080	6.194169	-0.289599	-3290.72	-9.444765E-6	NaN
277	1.000000	0.763420	7.36777e+06	-52489.1	955.818	-29749.4	0.000000	0.000000	6.762962	-0.069558	NaN	0.000000	0.001563	0.001689	28.0772	0.036714	0.002074	17.7017	-83.3669	172.976	-0.065226	0.762143	-0.277863	-0.279140	-0.069558	17.7017	-0.274916	-1977.55	3.517357E-5	NaN
277	1.000000	0.771453	7.36777e+06	-52489.1	955.818	-29749.4	0.000000	0.000000	6.770994	-0.102940	NaN	0.000000	0.001568	0.001690	28.077	0.095470	0.001983	48.1517	90.0885	176.612	-0.070537	0.770126	-0.269830	-0.271157	-0.102940	48.1517	-0.268227	-1565.21	6.576720E-5	NaN
277	1.000000	0.779427	7.36777e+06	-52489.1	955.818	-29749.4	0.000000	0.000000	6.778971	-0.036491	NaN	0.000000	0.001553	0.001705	28.077	0.076067	0.002008	37.8832	118.61	175.818	0.000543	0.778126	-0.261856	-0.263157	-0.036491	37.8832	-0.261133	-1219.77	2.991626E-5	NaN
277	1.000000	0.787433	7.36777e+06	-52489.1	955.819	-29749.4	0.000000	0.000000	6.786977	-0.009164	NaN	0.000000	0.001543	0.001686	28.0771	0.045805	0.002070	22.126	83.7456	175.83	-0.004647	0.786179	-0.253851	-0.255104	-0.009164	22.126	-0.253540	-932.445	9.828190E-6	NaN
277	1.000000	0.795472	7.36777e+06	-52489.1	955.818	-29749.4	0.000000	0.000000	6.795013	-0.090176	NaN	0.000000	0.001551	0.001713	28.0784	0.094157	0.002005	46.9566	-129.322	176.483	-0.068047	0.794130	-0.245811	-0.247154	-0.090176	46.9566	-0.244371	-672.472	0.000134	NaN
277	1.000000	0.803437	7.36777e+06	-52489.1	955.818	-29749.4	0.000000	0.000000	6.802982	-0.001174	NaN	0.000000	0.001577	0.001688	28.0783	0.073232	0.001972	37.1311	98.4689	174.1	0.010891	0.802143	-0.237846	-0.239140	-0.001174	37.1311	-0.237822	-531.493	2.208298E-6	NaN
277	1.000000	0.811441	7.36777e+06	-52489.1	955.819	-29749.4	0.000000	0.000000	6.810984	-0.053917	NaN	0.000000	0.001600	0.001712	28.0783	0.087394	0.002122	41.1904	-47.8797	173.199	-0.036474	0.810111	-0.229842	-0.231172	-0.053917	41.1904	-0.228861	-384.162	0.000140	NaN
277	1.000000	0.819480	7.36777e+06	-52489.1	955.819	-29749.4	0.000000	0.000000	6.819025	-0.004941	NaN	0.000000	0.001638	0.001723	28.0785	0.076130	0.001980	38.4453	-26.0733	174.691	-0.023580	0.818194	-0.221803	-0.223089	-0.004941	38.4453	-0.221707	-295.75	1.670742E-5	NaN
277	1.000000	0.827480	7.36777e+06	-52489.1	955.819	-29749.4	0.000000	0.000000	6.827024	-0.015502	NaN	0.000000	0.001582	0.001726	28.0784	0.035983	0.002047	17.5781	120.459	175.089	0.002643	0.826163	-0.213803	-0.215120	-0.015502	17.5781	-0.213142	-215.571	7.191131E-5	NaN
277	1.000000	0.835475	7.36777e+06	-52489.1	955.818	-29749.4	0.000000	0.000000	6.835018	-0.038264	NaN	0.000000	0.001613	0.001676	28.0787	0.047412	0.002071	22.8978	-66.6067	176.47	-0.066156	0.834204	-0.205808	-0.207079	-0.038264	22.8978	-0.204555	-156.423	0.000245	NaN
277	1.000000	0.843481	7.36777e+06	-52489.1	955.819	-29749.4	0.000000	0.000000	6.843027	0.022152	NaN	0.000000	0.001593	0.001737	28.0783	0.027513	0.001860	14.7893	141.943	171.112	0.023695	0.842114	-0.197803	-0.199169	0.022152	14.7893	-0.198926	-126.483	-0.000175	NaN
277	1.000000	0.851474	7.36777e+06	-52489.1	955.817	-29749.4	0.000000	0.000000	6.851016	-0.082628	NaN	0.000000	0.001580	0.001717	28.0783	0.137461	0.002204	62.3674	101.704	174.304	-0.033563	0.850140	-0.189809	-0.191143	-0.082628	62.3674	-0.188815	-85.9445	0.000961	NaN
277	1.000000	0.859482	7.36777e+06	-52489.1	955.819	-29749.4	0.000000	0.000000	6.859022	-0.137855	NaN	0.000000	0.001580	0.001732	28.0783	0.018599	0.002052	9.063062	11.8985	173.497	-0.121794	0.858172	-0.181801	-0.183111	-0.137855	9.063062	-0.170393	-41.7287	0.003304	NaN
277	1.000000	0.867478	7.36777e+06	-52489.1	955.819	-29749.4	0.000000	0.000000	6.867021	-0.053654	NaN	0.000000	0.001563	0.001728	28.0783	0.087336	0.002015	43.3373	-102.34	175.265	-0.019265	0.866176	-0.173805	-0.175107	-0.053654	43.3373	-0.172877	-46.0694	0.001165	NaN
277	1.000000	0.875465	7.36777e+06	-52489.1	955.818	-29749.4	0.000000	0.000000	6.875008	-0.051803	NaN	0.000000	0.001590	0.001741	28.0785	0.056178	0.001981	28.3643	-144.629	177.541	-0.029211	0.874176	-0.165818	-0.167107	-0.051803	28.3643	-0.164449	-32.8562	0.001577	NaN
277	1.000000	0.883502	7.36777e+06	-52489.1	955.818	-29749.4	0.000000	0.000000	6.883047	-0.017650	NaN	0.000000	0.001580	0.001751	28.0782	0.126952	0.001979	64.1415	-15.4374	174.007	0.006919	0.882158	-0.157781	-0.159125	-0.017650	64.1415	-0.157574	-24.8173	0.000711	NaN
277	1.000000	0.891477	7.36777e+06	-52489.1	955.818	-29749.4	0.000000	0.000000	6.891023	0.012795	NaN	0.000000	0.001574	0.001729	28.0784	0.104801	0.001962	53.4097	-132.622	175.619	0.027149	0.890188	-0.149806	-0.151095	0.012795	53.4097	-0.149985	-18.1025	-0.000707	NaN
277	1.000000	0.899495	7.36777e+06	-52489.1	955.818	-29749.4	0.000000	0.000000	6.899038	-0.041377	NaN	0.000000	0.001583	0.001716	28.0783	0.143060	0.001908	74.9813	-66.183	174.953	-0.041720	0.898169	-0.141788	-0.143114	-0.041377	74.9813	-0.141375	-12.5526	0.003296	NaN
277	1.000000	0.907537	7.36777e+06	-52489.1	955.818	-29749.4	0.000000	0.000000	6.907080	-0.058062	NaN	0.000000	0.001560	0.001749	28.0783	0.057081	0.001928	29.6088	95.8433	175.753	-0.030215	0.906193	-0.133746	-0.135090	-0.058062	29.6088	-0.132276	-8.434061	0.006884	NaN
277	1.000000	0.915529	7.36777e+06	-52489.1	955.819	-29749.4	0.000000	0.000000	6.915073	-0.023087	NaN	0.000000	0.001547	0.001762	28.0785	0.024552	0.002010	12.2142	-82.903	172.679	-0.123262	0.914158	-0.125754	-0.127125	-0.023087	12.2142	-0.124336	-5.899939	0.003913	NaN
277	1.000000	0.923475	7.36777e+06	-52489.1	955.818	-29749.4	0.000000	0.000000	6.923020	-0.005704	NaN	0.000000	0.001562	0.001737	28.0785	0.129432	0.001968	65.7612	-159.092	176.299	-0.072496	0.922239	-0.117808	-0.119044	-0.005704	65.7612	-0.117743	-4.348262	0.001312	NaN
277	1.000000	0.931502	7.36777e+06	-52489.1	955.818	-29749.4	0.000000	0.000000	6.931046	-0.039925	NaN	0.000000	0.001589	0.001722	28.0773	0.159475	0.001973	80.8351	-121.393	175.518	-0.012002	0.930118	-0.109781	-0.111166	-0.039925	80.8351	-0.109410	-2.920254	0.013672	NaN
277	1.000000	0.939519	7.36777e+06	-52489.1	955.82	-29749.4	0.000000	0.000000	6.939066	0.041359	NaN	0.000000	0.001600	0.001748	28.0773	0.091117	0.002027	44.9574	72.3951	175.633	0.051413	0.938212	-0.101764	-0.103071	0.041359	44.9574	-0.102454	-2.069305	-0.019987	NaN
277	1.000000	0.947519	7.36777e+06	-52489.1	955.819	-29749.4	0.000000	0.000000	6.947061	-0.069623	NaN	0.000000	0.001579	0.001717	28.0771	0.027993	0.001976	14.1695	-94.8501	176.107	-0.012105	0.946205	-0.093764	-0.095078	-0.069623	14.1695	-0.090079	-1.085597	0.064134	NaN
277	1.000000	0.955514	7.36777e+06	-52489.1	955.818	-29749.4	0.000000	0.000000	6.955060	0.011164	NaN	0.000000	0.001582	0.001718	28.0777	0.046915	0.002026	23.1534	-11.6404	174.855	0.032199	0.954189	-0.085769	-0.087094	0.011164	23.1534	-0.086131	-0.874882	-0.012761	NaN
277	1.000000	0.963512	7.36777e+06	-52489.1	955.817	-29749.4	0.000000	0.000000	6.963057	-0.016578	NaN	0.000000	0.001562	0.001735	28.0772	0.116998	0.002000	58.5091	150.171	173.981	-0.004086	0.962181	-0.077771	-0.079102	-0.016578	58.5091	-0.077558	-0.537192	0.030860	NaN
277	1.000000	0.971526	7.36777e+06	-52489.1	955.817	-29749.4	0.000000	0.000000	6.971068	-0.073202	NaN	0.000000	0.001551	0.001771	28.0772	0.083755	0.001939	43.2002	44.6348	173.826	-0.141285	0.970183	-0.069757	-0.071100	-0.073202	43.2002	-0.068486	-0.310548	0.235718	NaN
277	1.000000	0.979530	7.36777e+06	-52489.1	955.816	-29749.4	0.000000	0.000000	6.979071	-0.096249	NaN	0.000000	0.001582	0.001752	28.0772	0.068883	0.001951	35.3148	-58.8859	175.179	-0.102190	0.978251	-0.061753	-0.063032	-0.096249	35.3148	-0.059709	-0.176661	0.544822	NaN
277	1.000000	0.987561	7.36777e+06	-52489.1	955.816	-29749.4	0.000000	0.000000	6.987105	-0.031835	NaN	0.000000	0.001561	0.001714	28.0771	0.056328	0.002041	27.5995	-12.0881	172.097	-0.124753	0.986273	-0.053722	-0.055010	-0.031835	27.5995	-0.052857	-0.111208	0.286264	NaN
277	1.000000	0.995568	7.36777e+06	-52489.1	955.818	-29749.4	0.000000	0.000000	6.995112	-0.023574	NaN	0.000000	0.001579	0.001733	28.0771	0.097102	0.002145	45.2759	-157.761	174.396	0.011004	0.994197	-0.045715	-0.047086	-0.023574	45.2759	-0.045325	-0.065755	0.358511	NaN
277	1.000000	1.003538	7.36777e+06	-52489.1	955.819	-29749.4	0.000000	0.000000	7.003081	-0.050035	NaN	0.000000	0.001571	0.001726	28.0771	0.093285	0.002002	46.591	71.2439	176.137	-0.034292	1.002209	-0.037745	-0.039074	-0.050035	46.591	-0.036939	-0.036564	1.368443	NaN
277	1.000000	1.011536	7.36777e+06	-52489.1	955.818	-29749.4	0.000000	0.000000	7.011079	-0.050243	NaN	0.000000	0.001597	0.001700	28.0774	0.056644	0.001960	28.8971	33.2119	176.695	-0.032172	1.010259	-0.029747	-0.031024	-0.050243	28.8971	-0.028443	-0.020847	2.410132	NaN
277	1.000000	1.019544	7.36777e+06	-52489.1	955.817	-29749.4	0.000000	0.000000	7.019089	0.009039	NaN	0.000000	0.001553	0.001724	28.0769	0.070430	0.002107	33.4276	53.4459	174.006	-0.103750	1.018240	-0.021739	-0.023043	0.009039	33.4276	-0.021942	-0.014073	-0.642290	NaN
277	1.000000	1.027563	7.36777e+06	-52489.1	955.817	-29749.4	0.000000	0.000000	7.027108	-0.011389	NaN	0.000000	0.001561	0.001745	28.0768	0.146523	0.002006	73.049	54.2323	177.623	-0.003363	1.026218	-0.013720	-0.015065	-0.011389	73.049	-0.013603	-0.008451	1.347531	NaN
277	1.000000	1.035552	7.36777e+06	-52489.1	955.819	-29749.4	0.000000	0.000000	7.035096	-0.032586	NaN	0.000000	0.001569	0.001718	28.077	0.074383	0.001963	37.8887	93.2896	177.492	-0.028616	1.034197	-0.005731	-0.007086	-0.032586	37.8887	-0.005086	-0.003471	9.388805	NaN
277	1.000000	1.043542	7.36777e+06	-52489.1	955.816	-29749.4	0.000000	0.000000	7.043121	0.820276	NaN	0.000000	0.001626	0.001730	28.0769	1.328025	0.001950	681.115	5.720199	179.317	0.140050	1.042224	0.002259	0.000941	0.820276	681.115	0.001356	0.001040	788.404	19292.5
277	2.000000	1.050988	7.36777e+06	-52489.1	955.818	-29749.4	0.000000	0.000000	7.050906	9.043166	NaN	0.000000	0.001599	0.001704	28.0774	8.976969	0.001471	6102.65	5.922016	170.073	8.432216	1.050220	0.009705	0.008937	9.043166	6102.65	0.008594	0.007660	1180.51	63704
277	2.000000	1.053110	7.36777e+06	-52489.1	955.817	-29749.4	0.000000	0.000000	7.053147	11.9695	NaN	0.000000	0.001607	0.001744	28.0769	12.0394	0.001755	6861.28	9.055603	163.999	11.6227	1.052832	0.011827	0.011549	11.9695	6861.28	0.010518	0.009763	1226.01	63443.4
277	2.000000	1.055175	7.36777e+06	-52489.1	955.817	-29749.4	0.000000	0.000000	7.055345	15.1711	NaN	0.000000	0.001596	0.001757	28.0783	13.7622	0.001669	8247.41	8.083507	166.161	16.8423	1.054862	0.013892	0.013579	15.1711	8247.41	0.012513	0.012110	1252.77	68472.9
277	2.000000	1.057139	7.36777e+06	-52489.1	955.817	-29749.4	0.000000	0.000000	7.057413	17.7194	NaN	0.000000	0.001603	0.001762	28.0783	15.6223	0.001670	9356.7	3.446443	169.108	18.6816	1.056786	0.015855	0.015503	17.7194	9356.7	0.014435	0.014540	1218.71	70895.8
277	2.000000	1.059097	7.36777e+06	-52489.1	955.818	-29749.4	0.000000	0.000000	7.059514	21.2039	NaN	0.000000	0.001610	0.001745	28.0783	18.8134	0.001835	10254.7	6.157277	163.154	19.9628	1.058828	0.017814	0.017545	21.2039	10254.7	0.016263	0.017007	1246.77	71842.4
277	2.000000	1.061046	7.36777e+06	-52489.1	955.817	-29749.4	0.000000	0.000000	7.061684	26.5641	NaN	0.000000	0.001623	0.001758	28.0793	20.5024	0.001778	11531.4	8.048444	160.813	26.003	1.060755	0.019763	0.019472	26.5641	11531.4	0.018035	0.019549	1358.87	75352
277	2.000000	1.063085	7.36777e+06	-52489.1	955.818	-29749.4	0.000000	0.000000	7.063883	30.4743	NaN	0.000000	0.001589	0.001752	28.0783	22.2849	0.001594	13979.8	2.281691	164.52	30.7961	1.062765	0.021802	0.021482	30.4743	13979.8	0.020167	0.022805	1336.31	84578.4
277	2.000000	1.065131	7.36777e+06	-52489.1	955.816	-29749.4	0.000000	0.000000	7.066150	35.8333	NaN	0.000000	0.001600	0.001750	28.0783	24.857	0.001798	13822.9	4.332452	164.855	37.1194	1.064744	0.023848	0.023461	35.8333	13822.9	0.021904	0.025623	1398.49	78896.4
277	2.000000	1.067043	7.36777e+06	-52489.1	955.817	-29749.4	0.000000	0.000000	7.068289	41.3446	NaN	0.000000	0.001586	0.001710	28.0783	26.9123	0.001803	14928.9	2.573535	164.658	40.2682	1.066726	0.025760	0.025443	41.3446	14928.9	0.023683	0.028664	1442.4	80562.9
277	2.000000	1.069075	7.36777e+06	-52489.1	955.817	-29749.4	0.000000	0.000000	7.070547	46.8569	NaN	0.000000	0.001590	0.001710	28.0785	29.7489	0.001924	15464.4	6.624491	160.317	46.9854	1.068800	0.027792	0.027517	46.8569	15464.4	0.025519	0.031967	1465.79	79023.4
277	2.000000	1.071067	7.36777e+06	-52489.1	955.817	-29749.4	0.000000	0.000000	7.072769	52.4506	NaN	0.000000	0.001573	0.001710	28.0795	30.1763	0.001845	16353.1	3.753920	163.956	53.2424	1.070745	0.029784	0.029461	52.4506	16353.1	0.027378	0.035484	1478.13	79314.7
277	2.000000	1.073059	7.36777e+06	-52489.1	955.817	-29749.4	0.000000	0.000000	7.074991	58.051	NaN	0.000000	0.001616	0.001706	28.0783	32.3728	0.001830	17689.9	7.461207	159.327	58.3127	1.072691	0.031775	0.031408	58.051	17689.9	0.029314	0.039334	1475.84	81491.4
277	2.000000	1.075018	7.36777e+06	-52489.1	955.818	-29749.4	0.000000	0.000000	7.077250	65.3477	NaN	0.000000	0.001607	0.001658	28.0782	34.6145	0.001760	19663	6.178346	159.124	62.8591	1.074683	0.033734	0.033400	65.3477	19663	0.031242	0.043357	1507.19	86276.3
277	2.000000	1.077023	7.36777e+06	-52489.1	955.817	-29749.4	0.000000	0.000000	7.079383	68.4366	NaN	0.000000	0.001623	0.001676	28.0786	36.4681	0.001862	19581.8	4.939836	159.758	68.6776	1.076714	0.035740	0.035431	68.4366	19581.8	0.033119	0.047457	1442.07	82125.2
277	2.000000	1.079045	7.36777e+06	-52489.1	955.818	-29749.4	0.000000	0.000000	7.081760	77.0625	NaN	0.000000	0.001612	0.001715	28.0783	37.7346	0.001818	20750.8	2.404419	162.235	75.5434	1.078684	0.037762	0.037401	77.0625	20750.8	0.034977	0.051691	1490.82	83386.9
277	2.000000	1.080970	7.36777e+06	-52489.1	955.817	-29749.4	0.000000	0.000000	7.083935	83.1544	NaN	0.000000	0.001621	0.001688	28.0785	38.4076	0.001768	21719.8	3.428937	159.714	80.0422	1.080792	0.039687	0.039509	83.1544	21719.8	0.036816	0.056058	1483.37	83812.8
277	2.000000	1.083030	7.36777e+06	-52489.1	955.817	-29749.4	0.000000	0.000000	7.086410	93.234	NaN	0.000000	0.001637	0.001701	28.0783	40.1725	0.001737	23131.5	4.418284	159.07	92.6108	1.082705	0.041747	0.041422	93.234	23131.5	0.038724	0.060772	1534.16	85728.6
277	2.000000	1.085072	7.36777e+06	-52489.1	955.818	-29749.4	0.000000	0.000000	7.088848	102.869	NaN	0.000000	0.001630	0.001703	28.0787	42.3489	0.001823	23225.5	4.171280	159.745	102.99	1.084701	0.043789	0.043418	102.869	23225.5	0.040467	0.065242	1576.73	83075.8
277	2.000000	1.086986	7.36777e+06	-52489.1	955.818	-29749.4	0.000000	0.000000	7.091081	110.638	NaN	0.000000	0.001600	0.001730	28.0787	44.4819	0.001732	25678.5	7.868398	154.95	108.62	1.086659	0.045703	0.045376	110.638	25678.5	0.042471	0.070571	1567.75	88314
277	2.000000	1.088936	7.36777e+06	-52489.1	955.818	-29749.4	0.000000	0.000000	7.093352	118.414	NaN	0.000000	0.001576	0.001715	28.0769	46.8284	0.001814	25811.1	-0.960274	163.629	113.639	1.088619	0.047653	0.047336	118.414	25811.1	0.044213	0.075368	1571.15	85898.7
277	2.000000	1.090973	7.36777e+06	-52489.1	955.817	-29749.4	0.000000	0.000000	7.095582	123.13	NaN	0.000000	0.001618	0.001720	28.0777	48.6088	0.001698	28628.9	2.866620	159.085	120.284	1.090681	0.049690	0.049398	123.13	28628.9	0.046464	0.081798	1505.3	91454.6
277	2.000000	1.092985	7.36777e+06	-52489.1	955.817	-29749.4	0.000000	0.000000	7.097859	129.559	NaN	0.000000	0.001626	0.001724	28.0772	51.1063	0.001783	28657.5	3.921158	157.455	126.949	1.092783	0.051702	0.051500	129.559	28657.5	0.048312	0.087266	1484.64	88631.6
277	2.000000	1.095011	7.36777e+06	-52489.1	955.818	-29749.4	0.000000	0.000000	7.100348	140.833	NaN	0.000000	0.001596	0.001735	28.0774	53.3811	0.001789	29839.9	7.653684	154.198	139.843	1.094626	0.053728	0.053343	140.833	29839.9	0.050188	0.092996	1514.41	89400.3
277	2.000000	1.097071	7.36777e+06	-52489.1	955.817	-29749.4	0.000000	0.000000	7.102642	146.525	NaN	0.000000	0.001594	0.001740	28.0774	54.5492	0.001899	28719.3	3.620324	158.389	148.878	1.096767	0.055788	0.055484	146.525	28719.3	0.051961	0.098572	1486.48	83573.7
277	2.000000	1.098931	7.36777e+06	-52489.1	955.818	-29749.4	0.000000	0.000000	7.104905	156.31	NaN	0.000000	0.001618	0.001709	28.0771	55.9783	0.001783	31395.6	5.333909	155.688	151.986	1.098684	0.057648	0.057400	156.31	31395.6	0.053914	0.104895	1490.16	88565.7
277	2.000000	1.101027	7.36777e+06	-52489.1	955.819	-29749.4	0.000000	0.000000	7.107427	166.665	NaN	0.000000	0.001625	0.001784	28.0772	57.1394	0.001800	31735.6	7.840963	153.9	167.614	1.100585	0.059744	0.059301	166.665	31735.6	0.055805	0.111198	1498.82	86950.6
277	2.000000	1.102905	7.36777e+06	-52489.1	955.817	-29749.4	0.000000	0.000000	7.109723	176.824	NaN	0.000000	0.001653	0.001716	28.0773	60.1755	0.001848	32562.3	5.465258	155.547	172.369	1.102624	0.061622	0.061340	176.824	32562.3	0.057549	0.117168	1509.16	86912.9
277	2.000000	1.105093	7.36777e+06	-52489.1	955.819	-29749.4	0.000000	0.000000	7.112317	186.707	NaN	0.000000	0.001605	0.001714	28.0776	62.2832	0.001816	34300.8	6.417266	154.071	186.983	1.104705	0.063810	0.063422	186.707	34300.8	0.059728	0.124834	1495.64	88697.5
277	2.000000	1.107054	7.36777e+06	-52489.1	955.818	-29749.4	0.000000	0.000000	7.114639	195.484	NaN	0.000000	0.001614	0.001712	28.0771	63.6491	0.001770	35961.3	8.200548	152.81	196.647	1.106570	0.065770	0.065287	195.484	35961.3	0.061694	0.131951	1481.49	90448.6
277	2.000000	1.109011	7.36777e+06	-52489.1	955.818	-29749.4	0.000000	0.000000	7.116934	203.71	NaN	0.000000	0.001581	0.001721	28.0771	65.6935	0.001888	34802.6	3.283745	156.798	203.483	1.108785	0.067728	0.067502	203.71	34802.6	0.063338	0.138048	1475.64	85579.4
277	2.000000	1.111016	7.36777e+06	-52489.1	955.819	-29749.4	0.000000	0.000000	7.119469	216.602	NaN	0.000000	0.001530	0.001702	28.0771	66.9682	0.001841	36378.4	5.097485	155.142	216.483	1.110679	0.069732	0.069395	216.602	36378.4	0.065267	0.145369	1490.02	87172.9
277	2.000000	1.112995	7.36777e+06	-52489.1	955.818	-29749.4	0.000000	0.000000	7.121442	216.439	NaN	0.000000	0.001501	0.001699	28.0771	68.2871	0.001836	37189.6	1.145876	158.022	215.303	1.112845	0.071712	0.071562	216.439	37189.6	0.067347	0.153462	1410.37	86734.9
277	2.000000	1.115028	7.36777e+06	-52489.1	955.818	-29749.4	0.000000	0.000000	7.124300	236.522	NaN	0.000000	0.001513	0.001699	28.0775	70.1192	0.001858	37748.1	2.537548	157.734	237.74	1.114582	0.073744	0.073299	236.522	37748.1	0.069045	0.160225	1476.18	86159.5
277	2.000000	1.116938	7.36777e+06	-52489.1	955.819	-29749.4	0.000000	0.000000	7.126524	244.138	NaN	0.000000	0.001507	0.001710	28.0771	70.461	0.001861	37854.9	0.536597	158.96	241.699	1.116770	0.075655	0.075487	244.138	37854.9	0.070818	0.167432	1458.13	84523.1
277	2.000000	1.118893	7.36777e+06	-52489.1	955.817	-29749.4	0.000000	0.000000	7.129334	264.915	NaN	0.000000	0.001539	0.001695	28.0773	72.6649	0.001657	43857.4	2.355046	156.416	260.115	1.118589	0.077610	0.077305	264.915	43857.4	0.073080	0.176842	1498.04	95284.9
277	2.000000	1.120998	7.36777e+06	-52489.1	955.818	-29749.4	0.000000	0.000000	7.131908	276.333	NaN	0.000000	0.001527	0.001728	28.0772	74.138	0.001777	41719.7	4.380564	154.913	278.082	1.120581	0.079715	0.079298	276.333	41719.7	0.074747	0.183934	1502.35	88875.7
277	2.000000	1.122941	7.36777e+06	-52489.1	955.818	-29749.4	0.000000	0.000000	7.134177	284.255	NaN	0.000000	0.001510	0.001704	28.0784	76.8995	0.001705	45106	4.710616	153.602	279.852	1.122719	0.081657	0.081436	284.255	45106	0.076931	0.193420	1469.63	93703.8
277	2.000000	1.125053	7.36777e+06	-52489.1	955.818	-29749.4	0.000000	0.000000	7.137104	304.092	NaN	0.000000	0.001523	0.001707	28.0787	78.8179	0.001795	43900.2	5.915781	154.123	303.937	1.124513	0.083769	0.083230	304.092	43900.2	0.078574	0.200705	1515.12	89528.3
277	2.000000	1.126959	7.36777e+06	-52489.1	955.819	-29749.4	0.000000	0.000000	7.139274	310.491	NaN	0.000000	0.001519	0.001708	28.0782	80.7968	0.001747	46253.5	3.574035	154.787	312.194	1.126691	0.085676	0.085408	310.491	46253.5	0.080641	0.210047	1478.2	92206.1
277	2.000000	1.128951	7.36777e+06	-52489.1	955.819	-29749.4	0.000000	0.000000	7.141754	322.357	NaN	0.000000	0.001524	0.001706	28.0782	83.8326	0.001743	48094.4	6.814110	150.788	319.554	1.128630	0.087667	0.087347	322.357	48094.4	0.082640	0.219275	1470.11	93836.9
277	2.000000	1.130913	7.36777e+06	-52489.1	955.819	-29749.4	0.000000	0.000000	7.144048	330.431	NaN	0.000000	0.001518	0.001680	28.0782	83.8836	0.001715	48918.7	2.260984	155.161	326.704	1.130630	0.089630	0.089347	330.431	48918.7	0.084564	0.228325	1447.19	93534.4
277	2.000000	1.132946	7.36777e+06	-52489.1	955.819	-29749.4	0.000000	0.000000	7.146452	339.449	NaN	0.000000	0.001521	0.001728	28.0782	85.8246	0.001773	48418.5	2.014976	155.67	335.46	1.132619	0.091662	0.091335	339.449	48418.5	0.086404	0.237147	1431.39	90839.8
277	2.000000	1.134964	7.36777e+06	-52489.1	955.818	-29749.4	0.000000	0.000000	7.149430	362.789	NaN	0.000000	0.001547	0.001773	28.0785	88.9963	0.001780	49994.1	5.191506	152.513	362.362	1.134569	0.093681	0.093286	362.789	49994.1	0.088238	0.246092	1474.2	92075.3
277	2.000000	1.137128	7.36777e+06	-52489.1	955.818	-29749.4	0.000000	0.000000	7.151769	367.057	NaN	0.000000	0.001507	0.001748	28.078	90.4894	0.001812	49926.7	7.343357	150.529	377.95	1.136671	0.095845	0.095388	367.057	49926.7	0.090331	0.256486	1431.1	90068.9
277	2.000000	1.138960	7.36777e+06	-52489.1	955.819	-29749.4	0.000000	0.000000	7.154533	389.706	NaN	0.000000	0.001605	0.001718	28.0784	92.4855	0.001870	49463.1	6.714107	152.191	388.775	1.138531	0.097677	0.097248	389.706	49463.1	0.091768	0.263743	1477.6	87996.2
277	2.000000	1.140919	7.36777e+06	-52489.1	955.818	-29749.4	0.000000	0.000000	7.156943	400.667	NaN	0.000000	0.001544	0.001722	28.0786	92.2528	0.001811	50938.7	2.867992	154.538	398.038	1.140692	0.099636	0.099409	400.667	50938.7	0.093737	0.273834	1463.17	88935.9
277	2.000000	1.142960	7.36777e+06	-52489.1	955.819	-29749.4	0.000000	0.000000	7.159331	409.095	NaN	0.000000	0.001610	0.001730	28.0781	95.6219	0.001700	56233.9	7.993648	148.348	408.823	1.142753	0.101677	0.101470	409.095	56233.9	0.096221	0.286823	1426.3	95932.3
277	2.000000	1.145038	7.36777e+06	-52489.1	955.819	-29749.4	0.000000	0.000000	7.162113	426.24	NaN	0.000000	0.001559	0.001718	28.0782	97.9254	0.001859	52687.7	6.914285	150.749	428.707	1.144678	0.103755	0.103395	426.24	52687.7	0.097687	0.294620	1446.74	88685.2
277	2.000000	1.146905	7.36777e+06	-52489.1	955.82	-29749.4	0.000000	0.000000	7.164716	444.136	NaN	0.000000	0.001589	0.001673	28.0781	99.2573	0.001747	56800.4	5.801689	150.673	440.334	1.146593	0.105622	0.105310	444.136	56800.4	0.099757	0.305795	1452.4	93844.5
277	2.000000	1.148937	7.36777e+06	-52489.1	955.818	-29749.4	0.000000	0.000000	7.167419	460.437	NaN	0.000000	0.001545	0.001695	28.0789	101.679	0.001799	56515.1	4.144971	153.235	459.72	1.148521	0.107654	0.107238	460.437	56515.1	0.101544	0.315598	1458.93	91911.6
277	2.000000	1.149455	7.36777e+06	-52489.1	955.819	-29749.4	0.000000	0.000000	7.167966	461.125	NaN	0.000000	0.001555	0.001701	28.0788	102.074	0.001843	55373.1	4.562526	-27.2681	459.768	1.149084	0.108172	0.107801	461.125	55373.1	0.101927	0.317717	1451.37	89753.7