File: remote_trans/data/nanoindenter/0828-1/data/Data_2025-08-06,11h17m57s/2025-07-22_16-23-58_1_1096.txt
2025-07-22, 16:23:58, 1
Index	Phase	Displacement	Time	Pos X	Pos Y	Pos Z	Rot A	Rot B	Piezo Z	Force A	Force B	Gripper	Voltage A	Voltage B	Temperature	Amplitude force	Amplitude pos	Stiffness	Phase shift	Phase excitation	Force A raw	Displacement raw	HMax	HMax raw	Real Force	Real Stiffness	Contact Depth	Area	Hardness	Reduced Mod.
[#]	[#]	[um]	[s]	[um]	[um]	[um]	[m°]	[m°]	[um]	[uN]	[uN]	[V]	[V]	[V]	[°C]	[uN]	[um]	[N/m]	[°]	[°]	[uN]	[um]	[um]	[um]	[uN]	[N/m]	[um]	[um^2]	[MPa]	[MPa]
1096	1.000000	0.002421	7.37578e+06	-54939.1	1055.82	-29742.4	0.000000	0.000000	6.002821	-0.079283	NaN	0.000000	0.001601	0.001643	28.0825	0.136383	0.000947	143.994	111.875	-170.476	0.005713	0.001137	-1.146250	-1.147535	-0.079283	143.994	-1.145838	-2.065441E+15	3.838560E-17	NaN
1096	1.000000	0.012417	7.37578e+06	-54939.1	1055.82	-29742.4	0.000000	0.000000	6.012818	-0.065804	NaN	0.000000	0.001621	0.001682	28.0824	0.048267	0.001138	42.4279	108.391	18.6238	-0.059593	0.011043	-1.136255	-1.137628	-0.065804	42.4279	-1.135092	-1.482218E+15	4.439592E-17	NaN
1096	1.000000	0.022333	7.37578e+06	-54939.1	1055.82	-29742.4	0.000000	0.000000	6.022736	-0.026155	NaN	0.000000	0.001615	0.001693	28.0826	0.119397	0.001582	75.4765	-49.3511	-165.799	-0.075889	0.021039	-1.126338	-1.127632	-0.026155	75.4765	-1.126078	-1.122056E+15	2.331026E-17	NaN
1096	1.000000	0.032336	7.37578e+06	-54939.1	1055.82	-29742.4	0.000000	0.000000	6.032740	0.008644	NaN	0.000000	0.001572	0.001672	28.0825	0.094124	0.001944	48.4179	79.241	13.3188	0.002915	0.030968	-1.116335	-1.117704	0.008644	48.4179	-1.116469	-8.338719E+14	-1.036554E-17	NaN
1096	1.000000	0.042340	7.37578e+06	-54939.1	1055.82	-29742.4	0.000000	0.000000	6.042742	-0.048597	NaN	0.000000	0.001651	0.001665	28.0828	0.054962	0.001972	27.8685	7.668685	-166.611	-0.111028	0.041039	-1.106331	-1.107633	-0.048597	27.8685	-1.105023	-5.854518E+14	8.300816E-17	NaN
1096	1.000000	0.052333	7.37578e+06	-54939.1	1055.82	-29742.4	0.000000	0.000000	6.052738	0.039084	NaN	0.000000	0.001620	0.001663	28.0825	0.071798	0.001969	36.4616	144.615	15.2696	0.029814	0.050958	-1.096339	-1.097713	0.039084	36.4616	-1.097143	-4.588912E+14	-8.517012E-17	NaN
1096	1.000000	0.062345	7.37578e+06	-54939.1	1055.82	-29742.4	0.000000	0.000000	6.062747	-0.047378	NaN	0.000000	0.001590	0.001655	28.0826	0.011646	0.001878	6.202002	179.322	-164.675	-0.036861	0.061088	-1.086326	-1.087583	-0.047378	6.202002	-1.080597	-2.751279E+14	1.722048E-16	NaN
1096	1.000000	0.072335	7.37578e+06	-54939.1	1055.82	-29742.4	0.000000	0.000000	6.072737	-0.051516	NaN	0.000000	0.001578	0.001656	28.0823	0.015174	0.002077	7.305885	-91.5863	17.3657	-0.074277	0.071014	-1.076336	-1.077658	-0.051516	7.305885	-1.071048	-2.047700E+14	2.515822E-16	NaN
1096	1.000000	0.082350	7.37578e+06	-54939.1	1055.82	-29742.4	0.000000	0.000000	6.082755	0.030494	NaN	0.000000	0.001585	0.001672	28.083	0.076924	0.001981	38.8276	68.9366	-163.427	0.066721	0.081072	-1.066321	-1.067599	0.030494	38.8276	-1.066910	-1.801667E+14	-1.692557E-16	NaN
1096	1.000000	0.092375	7.37578e+06	-54939.1	1055.82	-29742.4	0.000000	0.000000	6.092778	-0.025231	NaN	0.000000	0.001573	0.001684	28.0824	0.029689	0.001984	14.9678	-107.375	13.2299	0.111112	0.091009	-1.056297	-1.057663	-0.025231	14.9678	-1.055032	-1.247543E+14	2.022493E-16	NaN
1096	1.000000	0.102402	7.37578e+06	-54939.1	1055.82	-29742.4	0.000000	0.000000	6.102809	0.087484	NaN	0.000000	0.001591	0.001635	28.0828	0.099055	0.002198	45.0729	99.3848	-166.589	-0.016233	0.101082	-1.046269	-1.047589	0.087484	45.0729	-1.047725	-9.950226E+13	-8.792182E-16	NaN
1096	1.000000	0.112365	7.37578e+06	-54939.1	1055.82	-29742.4	0.000000	0.000000	6.112765	-0.101564	NaN	0.000000	0.001586	0.001638	28.0827	0.096728	0.002095	46.1658	165.585	14.668	-0.141852	0.111049	-1.036307	-1.037622	-0.101564	46.1658	-1.034657	-6.639107E+13	1.529784E-15	NaN
1096	1.000000	0.122370	7.37578e+06	-54939.1	1055.82	-29742.4	0.000000	0.000000	6.122771	-0.080556	NaN	0.000000	0.001582	0.001676	28.0842	0.093619	0.001931	48.4737	23.9614	-162.018	-0.062317	0.121049	-1.026301	-1.027622	-0.080556	48.4737	-1.025055	-4.931226E+13	1.633591E-15	NaN
1096	1.000000	0.132373	7.37578e+06	-54939.1	1055.82	-29742.4	0.000000	0.000000	6.132775	-0.056127	NaN	0.000000	0.001620	0.001674	28.0835	0.083748	0.001946	43.0348	38.1435	19.3134	-0.055679	0.131037	-1.016298	-1.017634	-0.056127	43.0348	-1.015320	-3.647369E+13	1.538845E-15	NaN
1096	1.000000	0.142340	7.37578e+06	-54939.1	1055.82	-29742.4	0.000000	0.000000	6.142744	0.007343	NaN	0.000000	0.001576	0.001652	28.0841	0.061515	0.001944	31.6446	-1.228470	-165.386	0.044321	0.141054	-1.006331	-1.007617	0.007343	31.6446	-1.006505	-2.775520E+13	-2.645545E-16	NaN
1096	1.000000	0.152372	7.37578e+06	-54939.1	1055.82	-29742.5	0.000000	0.000000	6.152775	-0.024508	NaN	0.000000	0.001582	0.001661	28.0839	0.037351	0.001974	18.9216	-169.368	14.8978	0.038956	0.151014	-0.996299	-0.997657	-0.024508	18.9216	-0.995328	-1.962743E+13	1.248655E-15	NaN
1096	1.000000	0.162359	7.37578e+06	-54939.1	1055.82	-29742.5	0.000000	0.000000	6.162760	-0.071660	NaN	0.000000	0.001612	0.001669	28.084	0.118605	0.002091	56.7176	-160.821	-163.523	-0.056485	0.161085	-0.986312	-0.987586	-0.071660	56.7176	-0.985365	-1.441055E+13	4.972771E-15	NaN
1096	1.000000	0.172388	7.37578e+06	-54939.1	1055.82	-29742.5	0.000000	0.000000	6.172788	-0.096648	NaN	0.000000	0.001579	0.001672	28.0843	0.024910	0.001956	12.7366	122.788	14.1934	-0.081179	0.171023	-0.976283	-0.977648	-0.096648	12.7366	-0.970592	-9.112568E+12	1.060599E-14	NaN
1096	1.000000	0.182411	7.37578e+06	-54939.1	1055.82	-29742.5	0.000000	0.000000	6.182816	0.046381	NaN	0.000000	0.001576	0.001685	28.084	0.099455	0.002030	48.9988	-161.787	-164.46	0.121598	0.181074	-0.966261	-0.967597	0.046381	48.9988	-0.966971	-8.143939E+12	-5.695153E-15	NaN
1096	1.000000	0.192392	7.37578e+06	-54939.1	1055.82	-29742.5	0.000000	0.000000	6.192795	-0.023173	NaN	0.000000	0.001587	0.001665	28.0841	0.136976	0.001936	70.7652	-93.9528	15.0849	0.003880	0.191021	-0.956279	-0.957651	-0.023173	70.7652	-0.956034	-5.799548E+12	3.995692E-15	NaN
1096	1.000000	0.202421	7.37578e+06	-54939.1	1055.82	-29742.5	0.000000	0.000000	6.202826	0.008643	NaN	0.000000	0.001593	0.001659	28.084	0.116839	0.001961	59.5723	-45.0521	-162.62	-0.006000	0.201117	-0.946250	-0.947554	0.008643	59.5723	-0.946359	-4.294548E+12	-2.012559E-15	NaN
1096	1.000000	0.212386	7.37578e+06	-54939.1	1055.82	-29742.5	0.000000	0.000000	6.212788	-0.051278	NaN	0.000000	0.001594	0.001687	28.0835	0.054232	0.001953	27.7749	98.5523	16.6337	-0.003566	0.211003	-0.936285	-0.937668	-0.051278	27.7749	-0.934901	-3.008385E+12	1.704495E-14	NaN
1096	1.000000	0.222408	7.37578e+06	-54939.1	1055.82	-29742.5	0.000000	0.000000	6.222811	-0.007767	NaN	0.000000	0.001615	0.001678	28.0838	0.138739	0.001980	70.0855	168.559	-164.861	-0.055744	0.221117	-0.926264	-0.927554	-0.007767	70.0855	-0.926181	-2.294266E+12	3.385364E-15	NaN
1096	1.000000	0.232438	7.37578e+06	-54939.1	1055.82	-29742.5	0.000000	0.000000	6.232842	0.009954	NaN	0.000000	0.001648	0.001681	28.0838	0.030563	0.002128	14.3624	-126.64	16.0201	0.060709	0.231017	-0.916233	-0.917654	0.009954	14.3624	-0.916753	-1.711447E+12	-5.816416E-15	NaN
1096	1.000000	0.242417	7.37578e+06	-54939.1	1055.82	-29742.5	0.000000	0.000000	6.242819	-0.041678	NaN	0.000000	0.001669	0.001645	28.0836	0.087752	0.002021	43.4235	1.142373	-164.358	0.031913	0.241071	-0.906254	-0.907601	-0.041678	43.4235	-0.905534	-1.207374E+12	3.451967E-14	NaN
1096	1.000000	0.252404	7.37578e+06	-54939.1	1055.82	-29742.5	0.000000	0.000000	6.252808	0.013798	NaN	0.000000	0.001649	0.001692	28.0828	0.037397	0.002028	18.4402	-125.01	14.5521	0.018031	0.251118	-0.896267	-0.897553	0.013798	18.4402	-0.896829	-9.208964E+11	-1.498310E-14	NaN
1096	1.000000	0.262410	7.37578e+06	-54939.1	1055.82	-29742.5	0.000000	0.000000	6.262813	-0.036934	NaN	0.000000	0.001692	0.001644	28.083	0.079590	0.001984	40.1099	-139.988	-162.957	-0.013859	0.261157	-0.886261	-0.887514	-0.036934	40.1099	-0.885570	-6.486810E+11	5.693750E-14	NaN
1096	1.000000	0.272455	7.37578e+06	-54939.1	1055.82	-29742.5	0.000000	0.000000	6.272859	-0.005990	NaN	0.000000	0.001640	0.001671	28.0827	0.073793	0.002032	36.3097	32.3732	16.3278	-0.074594	0.271092	-0.876216	-0.877580	-0.005990	36.3097	-0.876093	-4.829064E+11	1.240365E-14	NaN
1096	1.000000	0.282444	7.37578e+06	-54939.1	1055.82	-29742.5	0.000000	0.000000	6.282847	-0.015688	NaN	0.000000	0.001659	0.001640	28.0824	0.090007	0.002079	43.3022	-4.137988	-166.352	-0.024749	0.281105	-0.866228	-0.867567	-0.015688	43.3022	-0.865956	-3.521499E+11	4.454957E-14	NaN
1096	1.000000	0.292449	7.37578e+06	-54939.1	1055.82	-29742.5	0.000000	0.000000	6.292853	0.018281	NaN	0.000000	0.001656	0.001677	28.0827	0.094400	0.001953	48.3303	132.505	15.2376	0.055821	0.291070	-0.856223	-0.857601	0.018281	48.3303	-0.856506	-2.623178E+11	-6.968955E-14	NaN
1096	1.000000	0.302455	7.37578e+06	-54939.1	1055.82	-29742.5	0.000000	0.000000	6.302858	-0.023467	NaN	0.000000	0.001643	0.001700	28.0827	0.071069	0.002093	33.9622	-26.9001	-164.905	-0.015131	0.301092	-0.846216	-0.847579	-0.023467	33.9622	-0.845698	-1.872732E+11	1.253074E-13	NaN
1096	1.000000	0.312469	7.37578e+06	-54939.1	1055.82	-29742.5	0.000000	0.000000	6.312872	-0.003632	NaN	0.000000	0.001643	0.001748	28.0825	0.025447	0.002011	12.6518	142.946	16.6392	-0.085745	0.311104	-0.836203	-0.837567	-0.003632	12.6518	-0.835987	-1.383335E+11	2.625536E-14	NaN
1096	1.000000	0.322442	7.37578e+06	-54939.1	1055.82	-29742.5	0.000000	0.000000	6.322842	-0.090911	NaN	0.000000	0.001569	0.001744	28.0825	0.023871	0.002147	11.1189	103.718	-166.422	-0.046820	0.321117	-0.826229	-0.827554	-0.090911	11.1189	-0.820097	-8.424213E+10	1.079163E-12	NaN
1096	1.000000	0.332466	7.37578e+06	-54939.1	1055.82	-29742.5	0.000000	0.000000	6.332871	0.032343	NaN	0.000000	0.001604	0.001709	28.0827	0.073788	0.001964	37.5641	-104.651	18.3828	0.051546	0.331116	-0.816205	-0.817555	0.032343	37.5641	-0.816851	-7.612121E+10	-4.248824E-13	NaN
1096	1.000000	0.342467	7.37578e+06	-54939.1	1055.82	-29742.5	0.000000	0.000000	6.342870	-0.017547	NaN	0.000000	0.001595	0.001665	28.0828	0.052247	0.002044	25.5611	-91.2232	-161.804	-0.000541	0.341152	-0.806205	-0.807519	-0.017547	25.5611	-0.805690	-5.371394E+10	3.266770E-13	NaN
1096	1.000000	0.352453	7.37578e+06	-54939.1	1055.82	-29742.5	0.000000	0.000000	6.352856	-0.015031	NaN	0.000000	0.001574	0.001684	28.0824	0.064581	0.001935	33.3779	-84.8954	17.9066	-0.113062	0.351144	-0.796218	-0.797528	-0.015031	33.3779	-0.795881	-3.953117E+10	3.802331E-13	NaN
1096	1.000000	0.362506	7.37578e+06	-54939.1	1055.82	-29742.5	0.000000	0.000000	6.362911	0.036281	NaN	0.000000	0.001619	0.001713	28.0825	0.110759	0.002008	55.146	-29.7973	-165.591	0.011067	0.361187	-0.786166	-0.787484	0.036281	55.146	-0.786659	-2.962813E+10	-1.224542E-12	NaN
1096	1.000000	0.372475	7.37578e+06	-54939.1	1055.82	-29742.5	0.000000	0.000000	6.372875	-0.090866	NaN	0.000000	0.001597	0.001708	28.0828	0.051780	0.002048	25.2829	-179.441	14.0679	-0.033400	0.371105	-0.776197	-0.777566	-0.090866	25.2829	-0.773501	-1.962922E+10	4.629104E-12	NaN
1096	1.000000	0.382484	7.37578e+06	-54939.1	1055.82	-29742.5	0.000000	0.000000	6.382886	-0.027409	NaN	0.000000	0.001574	0.001728	28.0826	0.097455	0.002118	46.0156	73.6192	-163.305	-0.059697	0.381192	-0.766188	-0.767479	-0.027409	46.0156	-0.765741	-1.539538E+10	1.780338E-12	NaN
1096	1.000000	0.392504	7.37578e+06	-54939.1	1055.82	-29742.5	0.000000	0.000000	6.392907	-0.020037	NaN	0.000000	0.001590	0.001715	28.084	0.036547	0.001990	18.3657	-60.7087	14.1223	0.035524	0.391104	-0.756167	-0.757567	-0.020037	18.3657	-0.755349	-1.111790E+10	1.802261E-12	NaN
1096	1.000000	0.402479	7.37578e+06	-54939.1	1055.82	-29742.5	0.000000	0.000000	6.402879	-0.101376	NaN	0.000000	0.001560	0.001726	28.0838	0.048783	0.001979	24.6486	59.5686	-165.32	-0.078919	0.401195	-0.746192	-0.747477	-0.101376	24.6486	-0.743107	-7.574886E+9	1.338319E-11	NaN
1096	1.000000	0.412500	7.37578e+06	-54939.1	1055.82	-29742.5	0.000000	0.000000	6.412903	-0.016401	NaN	0.000000	0.001557	0.001761	28.0842	0.105726	0.001955	54.0683	90.345	13.9439	-0.012461	0.411141	-0.736171	-0.737531	-0.016401	54.0683	-0.735944	-6.050652E+9	2.710576E-12	NaN
1096	1.000000	0.422518	7.37578e+06	-54939.1	1055.82	-29742.5	0.000000	0.000000	6.422924	0.045961	NaN	0.000000	0.001577	0.001749	28.0836	0.082519	0.002010	41.0573	-4.615860	-163.892	0.060109	0.421203	-0.726154	-0.727468	0.045961	41.0573	-0.726993	-4.569018E+9	-1.005932E-11	NaN
1096	1.000000	0.432539	7.37578e+06	-54939.1	1055.82	-29742.5	0.000000	0.000000	6.432942	-0.003090	NaN	0.000000	0.001580	0.001747	28.0839	0.033641	0.001966	17.1085	-50.3848	13.5805	0.057755	0.431188	-0.716133	-0.717483	-0.003090	17.1085	-0.715997	-3.235011E+9	9.552980E-13	NaN
1096	1.000000	0.442483	7.37578e+06	-54939.1	1055.82	-29742.5	0.000000	0.000000	6.442884	-0.075322	NaN	0.000000	0.001550	0.001703	28.0839	0.040753	0.001799	22.6473	-104.341	-161.633	0.012136	0.441184	-0.706189	-0.707487	-0.075322	22.6473	-0.703694	-2.197733E+9	3.427259E-11	NaN
1096	1.000000	0.452520	7.37578e+06	-54939.1	1055.82	-29742.5	0.000000	0.000000	6.452923	-0.038808	NaN	0.000000	0.001541	0.001680	28.0839	0.082710	0.001935	42.7464	-175.115	15.6444	-0.016804	0.451160	-0.696151	-0.697511	-0.038808	42.7464	-0.695470	-1.696907E+9	2.286982E-11	NaN
1096	1.000000	0.462495	7.37578e+06	-54939.1	1055.82	-29742.5	0.000000	0.000000	6.462898	-0.029688	NaN	0.000000	0.001554	0.001693	28.0836	0.062909	0.001961	32.0805	175.445	-165.644	-0.031004	0.461190	-0.686176	-0.687481	-0.029688	32.0805	-0.685482	-1.239256E+9	2.395618E-11	NaN
1096	1.000000	0.472514	7.37578e+06	-54939.1	1055.82	-29742.5	0.000000	0.000000	6.472916	-0.050610	NaN	0.000000	0.001594	0.001726	28.0839	0.051511	0.002046	25.1814	-134.153	19.1505	-0.079360	0.471179	-0.676157	-0.677493	-0.050610	25.1814	-0.674650	-8.810884E+8	5.744020E-11	NaN
1096	1.000000	0.482514	7.37578e+06	-54939.1	1055.82	-29742.5	0.000000	0.000000	6.482918	0.014687	NaN	0.000000	0.001564	0.001726	28.0839	0.081644	0.001914	42.6541	146.278	-166.478	-0.012857	0.481183	-0.666158	-0.667488	0.014687	42.6541	-0.666416	-6.797199E+8	-2.160719E-11	NaN
1096	1.000000	0.492524	7.37578e+06	-54939.1	1055.82	-29742.5	0.000000	0.000000	6.492926	-0.054798	NaN	0.000000	0.001613	0.001676	28.0837	0.013532	0.001899	7.127875	-95.3359	13.4798	-0.023651	0.491124	-0.656147	-0.657548	-0.054798	7.127875	-0.650382	-4.098897E+8	1.336904E-10	NaN
1096	1.000000	0.502505	7.37578e+06	-54939.1	1055.82	-29742.5	0.000000	0.000000	6.502907	-0.042466	NaN	0.000000	0.001621	0.001703	28.0835	0.039612	0.002012	19.6854	-173.927	-164.474	0.027804	0.501233	-0.646167	-0.647438	-0.042466	19.6854	-0.644549	-3.409501E+8	1.245519E-10	NaN
1096	1.000000	0.512525	7.37578e+06	-54939.1	1055.82	-29742.5	0.000000	0.000000	6.512930	0.027365	NaN	0.000000	0.001571	0.001713	28.0835	0.061214	0.002027	30.1988	-99.6347	18.5805	0.015998	0.511161	-0.636147	-0.637510	0.027365	30.1988	-0.636826	-2.671410E+8	-1.024375E-10	NaN
1096	1.000000	0.522548	7.37578e+06	-54939.1	1055.82	-29742.5	0.000000	0.000000	6.522950	-0.046519	NaN	0.000000	0.001558	0.001685	28.0834	0.115784	0.001911	60.5839	165.045	-165.025	-0.093836	0.521222	-0.626123	-0.627449	-0.046519	60.5839	-0.625547	-1.870099E+8	2.487501E-10	NaN
1096	1.000000	0.532544	7.37578e+06	-54939.1	1055.82	-29742.5	0.000000	0.000000	6.532946	-0.032114	NaN	0.000000	0.001565	0.001720	28.0822	0.074951	0.001988	37.7029	60.2963	10.9739	-0.074356	0.531131	-0.616128	-0.617540	-0.032114	37.7029	-0.615489	-1.360238E+8	2.360919E-10	NaN
1096	1.000000	0.542535	7.37578e+06	-54939.1	1055.82	-29742.5	0.000000	0.000000	6.542936	-0.060658	NaN	0.000000	0.001577	0.001710	28.0826	0.089393	0.001967	45.4466	151.186	-162.857	-0.057026	0.541254	-0.606137	-0.607417	-0.060658	45.4466	-0.605136	-9.798790E+7	6.190381E-10	NaN
1096	1.000000	0.552560	7.37578e+06	-54939.1	1055.82	-29742.5	0.000000	0.000000	6.552965	0.020991	NaN	0.000000	0.001549	0.001746	28.0825	0.055319	0.001920	28.8102	65.2813	12.7929	0.014393	0.551227	-0.596112	-0.597444	0.020991	28.8102	-0.596658	-7.489037E+7	-2.802869E-10	NaN
1096	1.000000	0.562574	7.37578e+06	-54939.1	1055.82	-29742.5	0.000000	0.000000	6.562982	0.098852	NaN	0.000000	0.001557	0.001692	28.0822	0.052114	0.002005	25.9916	-132.191	-165.941	0.089596	0.561259	-0.586097	-0.587412	0.098852	25.9916	-0.588949	-5.863842E+7	-1.685797E-9	NaN
1096	1.000000	0.572546	7.37578e+06	-54939.1	1055.82	-29742.5	0.000000	0.000000	6.572949	-0.013070	NaN	0.000000	0.001583	0.001732	28.0822	0.088879	0.002095	42.4311	-130.565	14.0728	-0.058155	0.571234	-0.576126	-0.577437	-0.013070	42.4311	-0.575895	-3.873041E+7	3.374514E-10	NaN
1096	1.000000	0.582576	7.37578e+06	-54939.1	1055.82	-29742.5	0.000000	0.000000	6.582978	-0.042347	NaN	0.000000	0.001587	0.001720	28.0826	0.112087	0.002043	54.8611	52.8667	-164.898	0.040171	0.581242	-0.566096	-0.567429	-0.042347	54.8611	-0.565517	-2.783997E+7	1.521070E-9	NaN
1096	1.000000	0.592587	7.37578e+06	-54939.1	1055.82	-29742.5	0.000000	0.000000	6.592993	0.047050	NaN	0.000000	0.001554	0.001693	28.0825	0.103054	0.001924	53.558	-158.086	16.7773	-0.008250	0.591206	-0.556084	-0.557466	0.047050	53.558	-0.556743	-2.105282E+7	-2.234833E-9	NaN
1096	1.000000	0.602581	7.37578e+06	-54939.1	1055.82	-29742.5	0.000000	0.000000	6.602985	0.002122	NaN	0.000000	0.001565	0.001689	28.0824	0.102054	0.002163	47.1882	32.5647	-167.692	-0.063151	0.601316	-0.546090	-0.547355	0.002122	47.1882	-0.546124	-1.500580E+7	-1.414362E-10	NaN
1096	1.000000	0.612569	7.37578e+06	-54939.1	1055.82	-29742.5	0.000000	0.000000	6.612973	0.006797	NaN	0.000000	0.001562	0.001695	28.0823	0.027600	0.002038	13.5395	-9.869187	13.288	0.036163	0.611254	-0.536102	-0.537417	0.006797	13.5395	-0.536479	-1.102837E+7	-6.163351E-10	NaN
1096	1.000000	0.622614	7.37578e+06	-54939.1	1055.82	-29742.5	0.000000	0.000000	6.623018	0.011858	NaN	0.000000	0.001591	0.001678	28.0827	0.113099	0.001868	60.5455	177.787	-166.916	0.043727	0.621312	-0.526058	-0.527359	0.011858	60.5455	-0.526205	-7.94054e+06	-1.493398E-9	NaN
1096	1.000000	0.632584	7.37578e+06	-54939.1	1055.82	-29742.5	0.000000	0.000000	6.632988	0.012439	NaN	0.000000	0.001565	0.001709	28.0825	0.056717	0.002027	27.9769	107.425	11.2772	-0.046478	0.631247	-0.516088	-0.517424	0.012439	27.9769	-0.516421	-5.80513e+06	-2.142702E-9	NaN
1096	1.000000	0.642566	7.37578e+06	-54939.1	1055.82	-29742.5	0.000000	0.000000	6.642969	-0.011485	NaN	0.000000	0.001544	0.001752	28.0825	0.060413	0.002027	29.8036	56.9083	-164.892	-0.077773	0.641267	-0.506106	-0.507404	-0.011485	29.8036	-0.505817	-4.13167e+06	2.779770E-9	NaN
1096	1.000000	0.652597	7.37578e+06	-54939.1	1055.82	-29742.5	0.000000	0.000000	6.653001	-0.013224	NaN	0.000000	0.001554	0.001736	28.0823	0.071179	0.002025	35.1445	-98.5747	10.6407	-0.066931	0.651287	-0.496074	-0.497385	-0.013224	35.1445	-0.495792	-2.99426e+06	4.416295E-9	NaN
1096	1.000000	0.662601	7.37578e+06	-54939.1	1055.82	-29742.5	0.000000	0.000000	6.663004	-0.025347	NaN	0.000000	0.001539	0.001733	28.0841	0.127835	0.002143	59.6621	92.7878	-166.88	-0.052049	0.661335	-0.486070	-0.487337	-0.025347	59.6621	-0.485751	-2.16769e+06	1.169286E-8	NaN
1096	1.000000	0.672584	7.37578e+06	-54939.1	1055.82	-29742.5	0.000000	0.000000	6.672989	0.031562	NaN	0.000000	0.001560	0.001706	28.0838	0.031235	0.002023	15.4427	-133.891	13.5501	-0.010996	0.671233	-0.476088	-0.477438	0.031562	15.4427	-0.477620	-1.66804e+06	-1.892152E-8	NaN
1096	1.000000	0.682623	7.37578e+06	-54939.1	1055.82	-29742.5	0.000000	0.000000	6.683026	-0.030994	NaN	0.000000	0.001619	0.001709	28.0839	0.068585	0.002096	32.7172	-177.864	-165.235	0.034084	0.681296	-0.466048	-0.467375	-0.030994	32.7172	-0.465337	-1.12198e+06	2.762484E-8	NaN
1096	1.000000	0.692609	7.37578e+06	-54939.1	1055.82	-29742.5	0.000000	0.000000	6.693011	-0.049370	NaN	0.000000	0.001668	0.001716	28.0838	0.053140	0.002010	26.4427	38.1373	14.5769	-0.030071	0.691240	-0.456063	-0.457431	-0.049370	26.4427	-0.454662	-794269	6.215732E-8	NaN
1096	1.000000	0.702617	7.37578e+06	-54939.1	1055.82	-29742.5	0.000000	0.000000	6.703020	-0.019668	NaN	0.000000	0.001612	0.001740	28.0841	0.036833	0.001977	18.6331	109.351	-167.833	0.052937	0.701321	-0.446054	-0.447350	-0.019668	18.6331	-0.445262	-585588	3.358716E-8	NaN
1096	1.000000	0.712633	7.37578e+06	-54939.1	1055.82	-29742.5	0.000000	0.000000	6.713035	-0.046904	NaN	0.000000	0.001580	0.001717	28.0836	0.052874	0.002090	25.2954	-158.172	12.1841	-0.080523	0.711224	-0.436038	-0.437448	-0.046904	25.2954	-0.434647	-414733	1.130937E-7	NaN
1096	1.000000	0.722649	7.37578e+06	-54939.1	1055.82	-29742.5	0.000000	0.000000	6.723053	-0.009247	NaN	0.000000	0.001550	0.001725	28.0839	0.161104	0.001966	81.9485	-48.5716	-167.624	-0.061981	0.721274	-0.426022	-0.427398	-0.009247	81.9485	-0.425937	-312289	2.960950E-8	NaN
1096	1.000000	0.732599	7.37578e+06	-54939.1	1055.82	-29742.5	0.000000	0.000000	6.733003	0.005689	NaN	0.000000	0.001600	0.001764	28.0839	0.006714	0.001944	3.453263	-49.5981	12.0903	-0.023227	0.731259	-0.416072	-0.417412	0.005689	3.453263	-0.417308	-235625	-2.414597E-8	NaN
1096	1.000000	0.742625	7.37578e+06	-54939.1	1055.82	-29742.5	0.000000	0.000000	6.743028	-0.008827	NaN	0.000000	0.001592	0.001746	28.084	0.041228	0.001990	20.7206	-91.9483	-164.659	0.085092	0.741331	-0.406047	-0.407341	-0.008827	20.7206	-0.405727	-161288	5.472889E-8	NaN
1096	1.000000	0.752622	7.37578e+06	-54939.1	1055.82	-29742.5	0.000000	0.000000	6.753025	-0.008270	NaN	0.000000	0.001632	0.001742	28.0836	0.056055	0.001987	28.208	108.188	15.9253	0.011346	0.751297	-0.396050	-0.397374	-0.008270	28.208	-0.395830	-116543	7.095920E-8	NaN
1096	1.000000	0.762623	7.37578e+06	-54939.1	1055.82	-29742.5	0.000000	0.000000	6.763026	-0.014681	NaN	0.000000	0.001612	0.001760	28.0837	0.085025	0.001947	43.6774	-174.316	-169.467	-0.010553	0.761367	-0.386048	-0.387304	-0.014681	43.6774	-0.385796	-83751.9	1.752942E-7	NaN
1096	1.000000	0.772642	7.37578e+06	-54939.1	1055.82	-29742.5	0.000000	0.000000	6.773044	-0.044247	NaN	0.000000	0.001618	0.001779	28.0838	0.115332	0.002150	53.6493	88.5939	12.9052	-0.022541	0.771280	-0.376029	-0.377391	-0.044247	53.6493	-0.375411	-59425.9	7.445665E-7	NaN
1096	1.000000	0.782665	7.37578e+06	-54939.1	1055.82	-29742.5	0.000000	0.000000	6.783064	-0.108719	NaN	0.000000	0.001604	0.001782	28.0836	0.038142	0.002068	18.4473	165.233	-165.604	-0.020600	0.781327	-0.366007	-0.367344	-0.108719	18.4473	-0.361587	-37564.3	2.894208E-6	NaN
1096	1.000000	0.792703	7.37578e+06	-54939.1	1055.82	-29742.5	0.000000	0.000000	6.793107	-0.017985	NaN	0.000000	0.001592	0.001767	28.0836	0.014372	0.002023	7.105492	4.423335	14.2448	0.012723	0.791235	-0.355968	-0.357437	-0.017985	7.105492	-0.354070	-29242.7	6.150254E-7	NaN
1096	1.000000	0.802659	7.37578e+06	-54939.1	1055.82	-29742.5	0.000000	0.000000	6.803060	-0.060319	NaN	0.000000	0.001602	0.001760	28.0824	0.061399	0.002030	30.2468	-116.215	-166.433	-0.056356	0.801316	-0.346012	-0.347355	-0.060319	30.2468	-0.344517	-21248.4	2.838752E-6	NaN
1096	1.000000	0.812648	7.37578e+06	-54939.1	1055.82	-29742.5	0.000000	0.000000	6.813051	-0.027314	NaN	0.000000	0.001642	0.001769	28.0826	0.033007	0.001890	17.4653	-50.441	15.9116	-0.034206	0.811283	-0.336023	-0.337388	-0.027314	17.4653	-0.334850	-15360.3	1.778208E-6	NaN
1096	1.000000	0.822694	7.37578e+06	-54939.1	1055.82	-29742.5	0.000000	0.000000	6.823098	0.004929	NaN	0.000000	0.001622	0.001748	28.0825	0.154323	0.001979	77.9979	-5.952197	-164.906	-0.013833	0.821312	-0.325977	-0.327360	0.004929	77.9979	-0.326024	-11407.1	-4.320960E-7	NaN
1096	1.000000	0.832660	7.37578e+06	-54939.1	1055.82	-29742.5	0.000000	0.000000	6.833063	-0.038700	NaN	0.000000	0.001621	0.001766	28.0828	0.053477	0.002095	25.5234	19.9889	13.0007	-0.039076	0.831239	-0.316011	-0.317432	-0.038700	25.5234	-0.314874	-7817.82	4.950291E-6	NaN
1096	1.000000	0.842685	7.37578e+06	-54939.1	1055.82	-29742.5	0.000000	0.000000	6.843089	0.005952	NaN	0.000000	0.001608	0.001787	28.0827	0.018375	0.002192	8.380996	-82.0831	-166.145	-0.055154	0.841371	-0.305986	-0.307301	0.005952	8.380996	-0.306519	-5881.54	-1.012037E-6	NaN
1096	1.000000	0.852673	7.37578e+06	-54939.1	1055.82	-29742.5	0.000000	0.000000	6.853075	-0.043683	NaN	0.000000	0.001553	0.001773	28.0827	0.086613	0.002002	43.2586	116.983	16.0159	-0.042616	0.851327	-0.295999	-0.297344	-0.043683	43.2586	-0.295241	-3996.61	1.092997E-5	NaN
1096	1.000000	0.862701	7.37578e+06	-54939.1	1055.82	-29742.5	0.000000	0.000000	6.863101	-0.111152	NaN	0.000000	0.001583	0.001771	28.0825	0.149053	0.002002	74.4499	31.9599	-166.389	-0.108266	0.861336	-0.285970	-0.287335	-0.111152	74.4499	-0.284850	-2792.64	3.980175E-5	NaN
1096	1.000000	0.872676	7.37578e+06	-54939.1	1055.82	-29742.5	0.000000	0.000000	6.873080	0.004092	NaN	0.000000	0.001588	0.001784	28.0832	0.048318	0.001984	24.357	-85.2203	14.8781	0.037579	0.871340	-0.275995	-0.277332	0.004092	24.357	-0.276121	-2062.38	-1.984226E-6	NaN
1096	1.000000	0.882677	7.37578e+06	-54939.1	1055.82	-29742.5	0.000000	0.000000	6.883077	-0.089069	NaN	0.000000	0.001591	0.001764	28.0827	0.042450	0.001978	21.4581	55.9082	-166.296	-0.098909	0.881440	-0.265994	-0.267232	-0.089069	21.4581	-0.262881	-1297.25	6.865956E-5	NaN
1096	1.000000	0.892690	7.37578e+06	-54939.1	1055.82	-29742.5	0.000000	0.000000	6.893093	-0.023673	NaN	0.000000	0.001579	0.001734	28.0827	0.065707	0.002024	32.4639	168.792	13.0944	-0.080879	0.891341	-0.255982	-0.257330	-0.023673	32.4639	-0.255435	-997.257	2.373803E-5	NaN
1096	1.000000	0.902703	7.37578e+06	-54939.1	1055.82	-29742.5	0.000000	0.000000	6.903107	-0.008027	NaN	0.000000	0.001635	0.001729	28.0824	0.053605	0.001904	28.15	27.0958	-166.207	-0.024522	0.901383	-0.245968	-0.247289	-0.008027	28.15	-0.245755	-706.599	1.135983E-5	NaN
1096	1.000000	0.912683	7.37578e+06	-54939.1	1055.82	-29742.5	0.000000	0.000000	6.913089	0.064077	NaN	0.000000	0.001608	0.001736	28.0827	0.025626	0.002103	12.1844	0.887474	15.6775	-0.003013	0.911284	-0.235989	-0.237387	0.064077	12.1844	-0.239933	-573.464	-0.000112	NaN
1096	1.000000	0.922737	7.37578e+06	-54939.1	1055.82	-29742.5	0.000000	0.000000	6.923139	-0.044947	NaN	0.000000	0.001596	0.001748	28.0827	0.129656	0.001921	67.4948	-166.16	-168.031	-0.104877	0.921361	-0.225934	-0.227310	-0.044947	67.4948	-0.225435	-339.027	0.000133	NaN
1096	1.000000	0.932749	7.37578e+06	-54939.1	1055.82	-29742.5	0.000000	0.000000	6.933149	-0.096217	NaN	0.000000	0.001621	0.001679	28.083	0.076848	0.002018	38.0835	-56.0479	14.4634	-0.087773	0.931384	-0.215922	-0.217288	-0.096217	38.0835	-0.214028	-222.773	0.000432	NaN
1096	1.000000	0.942727	7.37578e+06	-54939.1	1055.82	-29742.5	0.000000	0.000000	6.943134	0.067647	NaN	0.000000	0.001629	0.001709	28.0842	0.109231	0.001973	55.3713	-142.026	-168.7	0.016123	0.941480	-0.205944	-0.207191	0.067647	55.3713	-0.206861	-170.556	-0.000397	NaN
1096	1.000000	0.952742	7.37578e+06	-54939.1	1055.82	-29742.5	0.000000	0.000000	6.953143	-0.061260	NaN	0.000000	0.001648	0.001736	28.0841	0.047662	0.001955	24.3792	-6.524889	12.915	-0.117248	0.951405	-0.195930	-0.197266	-0.061260	24.3792	-0.194045	-105.043	0.000583	NaN
1096	1.000000	0.962731	7.37578e+06	-54939.1	1055.82	-29742.5	0.000000	0.000000	6.963132	-0.088501	NaN	0.000000	0.001634	0.001744	28.0837	0.069309	0.002067	33.5247	178.427	-164.134	-0.061441	0.961413	-0.185940	-0.187258	-0.088501	33.5247	-0.183960	-71.218	0.001243	NaN
1096	1.000000	0.972731	7.37578e+06	-54939.1	1055.82	-29742.5	0.000000	0.000000	6.973134	-0.010652	NaN	0.000000	0.001574	0.001715	28.0839	0.059481	0.002080	28.5903	88.6334	15.2202	-0.086604	0.971382	-0.175941	-0.177289	-0.010652	28.5903	-0.175661	-51.4439	0.000207	NaN
1096	1.000000	0.982735	7.37578e+06	-54939.1	1055.82	-29742.5	0.000000	0.000000	6.983136	-0.063670	NaN	0.000000	0.001591	0.001755	28.0839	0.144235	0.002154	66.9502	69.6166	-166.338	-0.053734	0.981430	-0.165937	-0.167241	-0.063670	66.9502	-0.165223	-33.9021	0.001878	NaN
1096	1.000000	0.992717	7.37578e+06	-54939.1	1055.82	-29742.5	0.000000	0.000000	6.993119	-0.038869	NaN	0.000000	0.001602	0.001738	28.084	0.027795	0.001941	14.3204	-71.0008	15.0981	-0.015909	0.991365	-0.155955	-0.157306	-0.038869	14.3204	-0.153919	-21.3355	0.001822	NaN
1096	1.000000	1.002751	7.37578e+06	-54939.1	1055.82	-29742.5	0.000000	0.000000	7.003154	-0.014435	NaN	0.000000	0.001599	0.001802	28.0838	0.062514	0.001985	31.4872	-168.229	-168.6	0.004101	1.001444	-0.145921	-0.147227	-0.014435	31.4872	-0.145577	-15.0255	0.000961	NaN
1096	1.000000	1.012726	7.37578e+06	-54939.1	1055.82	-29742.5	0.000000	0.000000	7.013127	-0.081749	NaN	0.000000	0.001640	0.001738	28.084	0.064436	0.001972	32.6747	131.766	11.936	-0.062346	1.011369	-0.135945	-0.137302	-0.081749	32.6747	-0.134068	-9.130135	0.008954	NaN
1096	1.000000	1.022727	7.37578e+06	-54939.1	1055.82	-29742.5	0.000000	0.000000	7.023129	-0.037344	NaN	0.000000	0.001675	0.001792	28.0836	0.065330	0.002012	32.4625	44.823	-169.046	-0.041482	1.021484	-0.125945	-0.127188	-0.037344	32.4625	-0.125082	-6.103950	0.006118	NaN
1096	1.000000	1.032756	7.37578e+06	-54939.1	1055.82	-29742.5	0.000000	0.000000	7.033158	-0.048868	NaN	0.000000	0.001676	0.001755	28.084	0.102716	0.002021	50.8257	-122.947	13.1713	-0.052820	1.031399	-0.115915	-0.117272	-0.048868	50.8257	-0.115194	-3.855740	0.012674	NaN
1096	1.000000	1.042751	7.37578e+06	-54939.1	1055.82	-29742.5	0.000000	0.000000	7.043154	-0.003281	NaN	0.000000	0.001669	0.001789	28.0836	0.057558	0.002103	27.3738	100.425	-168.927	0.033591	1.041445	-0.105921	-0.107226	-0.003281	27.3738	-0.105831	-2.449543	0.001339	NaN
1096	1.000000	1.052771	7.37578e+06	-54939.1	1055.82	-29742.5	0.000000	0.000000	7.053174	-0.033574	NaN	0.000000	0.001649	0.001731	28.0838	0.120985	0.001988	60.8549	110.628	10.8843	0.006570	1.051369	-0.095900	-0.097302	-0.033574	60.8549	-0.095486	-1.447030	0.023202	NaN
1096	1.000000	1.062771	7.37578e+06	-54939.1	1055.82	-29742.5	0.000000	0.000000	7.063173	-0.064854	NaN	0.000000	0.001651	0.001725	28.0837	0.034423	0.002025	16.9966	-177.559	-168.133	-0.072492	1.061459	-0.085900	-0.087212	-0.064854	16.9966	-0.083038	-0.736034	0.088112	NaN
1096	1.000000	1.072758	7.37578e+06	-54939.1	1055.82	-29742.5	0.000000	0.000000	7.073161	-0.020282	NaN	0.000000	0.001614	0.001748	28.0828	0.054837	0.001965	27.9069	-82.4928	14.4634	-0.018086	1.071414	-0.075913	-0.077257	-0.020282	27.9069	-0.075368	-0.472090	0.042963	NaN
1096	1.000000	1.082793	7.37578e+06	-54939.1	1055.82	-29742.5	0.000000	0.000000	7.083201	0.091455	NaN	0.000000	0.001626	0.001722	28.0825	0.106077	0.001898	55.88	-11.0545	-166.353	0.142423	1.081413	-0.065878	-0.067259	0.091455	55.88	-0.067105	-0.284810	-0.321109	NaN
1096	1.000000	1.092760	7.37578e+06	-54939.1	1055.82	-29742.5	0.000000	0.000000	7.093171	0.179609	NaN	0.000000	0.001630	0.001764	28.0825	0.113218	0.001913	59.1874	37.8323	12.0931	0.152301	1.091473	-0.055911	-0.057198	0.179609	59.1874	-0.058187	-0.159661	-1.124940	NaN
1096	1.000000	1.102791	7.37578e+06	-54939.1	1055.82	-29742.5	0.000000	0.000000	7.103212	0.413732	NaN	0.000000	0.001640	0.001751	28.0827	0.400655	0.001994	200.911	24.781	-171.425	0.335911	1.101454	-0.045880	-0.047217	0.413732	200.911	-0.047425	-0.076213	-5.428597	NaN
1096	1.000000	1.112822	7.37578e+06	-54939.1	1055.82	-29742.5	0.000000	0.000000	7.113290	1.546585	NaN	0.000000	0.001627	0.001770	28.0824	0.687355	0.002002	343.417	16.547	12.0821	1.466565	1.111399	-0.035849	-0.037272	1.546585	343.417	-0.039227	-0.042844	-36.0978	NaN
1096	1.000000	1.122762	7.37578e+06	-54939.1	1055.82	-29742.5	0.000000	0.000000	7.123259	2.254207	NaN	0.000000	0.001622	0.001745	28.0825	0.916586	0.001909	480.2	15.2848	-167.825	2.092550	1.121482	-0.025909	-0.027190	2.254207	480.2	-0.029430	-0.022190	-101.588	NaN
1096	1.000000	1.132799	7.37578e+06	-54939.1	1055.82	-29742.5	0.000000	0.000000	7.133354	3.669362	NaN	0.000000	0.001628	0.001723	28.0824	1.311947	0.001855	707.111	5.716876	14.0464	3.398548	1.131479	-0.015872	-0.017192	3.669362	707.111	-0.019764	-0.012389	-296.186	NaN
1096	1.000000	1.142819	7.37578e+06	-54939.1	1055.82	-29742.5	0.000000	0.000000	7.143442	5.315647	NaN	0.000000	0.001596	0.001755	28.0828	1.713079	0.001992	859.963	12.6053	-169.45	5.251230	1.141473	-0.005852	-0.007199	5.315647	859.963	-0.010488	-0.006666	-797.412	NaN
1096	1.000000	1.152766	7.37578e+06	-54939.1	1055.82	-29742.5	0.000000	0.000000	7.153510	8.272757	NaN	0.000000	0.001565	0.001771	28.0824	3.848259	0.001973	1950.48	8.577239	12.1048	7.271916	1.151464	0.004094	0.002793	8.272757	1950.48	0.000913	0.000695	11904.8	67600.6
1096	2.000000	1.156401	7.37578e+06	-54939.1	1055.82	-29742.5	0.000000	0.000000	7.157284	11.6387	NaN	0.000000	0.001597	0.001772	28.0824	7.772370	0.001958	3969.58	8.792923	-172.39	11.5397	1.156040	0.007730	0.007369	11.6387	3969.58	0.005531	0.004623	2517.53	53340.1
1096	2.000000	1.158864	7.37578e+06	-54939.1	1055.82	-29742.5	0.000000	0.000000	7.159827	13.5743	NaN	0.000000	0.001585	0.001765	28.0827	9.774011	0.001845	5297.55	11.5724	6.182266	13.119	1.158468	0.010193	0.009797	13.5743	5297.55	0.008271	0.007323	1853.74	56560.6
1096	2.000000	1.161324	7.37578e+06	-54939.1	1055.82	-29742.5	0.000000	0.000000	7.162445	17.4441	NaN	0.000000	0.001604	0.001699	28.0826	12.4418	0.001696	7335.7	8.750591	-175.264	17.3453	1.161027	0.012652	0.012356	17.4441	7335.7	0.010869	0.010163	1716.4	66481.3
1096	2.000000	1.163844	7.37578e+06	-54939.1	1055.82	-29742.5	0.000000	0.000000	7.165149	21.885	NaN	0.000000	0.001647	0.001757	28.0824	15.8341	0.001842	8595	6.897438	3.879043	21.5702	1.163491	0.015173	0.014820	21.885	8595	0.013263	0.013039	1678.45	68770.2
1096	2.000000	1.166366	7.37578e+06	-54939.1	1055.82	-29742.5	0.000000	0.000000	7.167870	26.7483	NaN	0.000000	0.001581	0.001743	28.0833	18.5847	0.001786	10404	8.724263	-178.638	27.8435	1.166009	0.017694	0.017338	26.7483	10404	0.015766	0.016321	1638.93	74405.4
1096	2.000000	1.168827	7.37578e+06	-54939.1	1055.82	-29742.5	0.000000	0.000000	7.170575	32.6803	NaN	0.000000	0.001618	0.001738	28.084	20.5083	0.001839	11151.7	7.226337	2.243489	31.5886	1.168442	0.020156	0.019771	32.6803	11151.7	0.017958	0.019434	1681.58	73085.4
1096	2.000000	1.171269	7.37578e+06	-54939.1	1055.82	-29742.5	0.000000	0.000000	7.173190	36.8861	NaN	0.000000	0.001583	0.001782	28.084	22.7065	0.001683	13490.6	6.761100	179.805	36.0384	1.171027	0.022598	0.022356	36.8861	13490.6	0.020547	0.023409	1575.69	80557.9
1096	2.000000	1.173790	7.37578e+06	-54939.1	1055.82	-29742.5	0.000000	0.000000	7.176098	46.2885	NaN	0.000000	0.001640	0.001749	28.084	25.2758	0.001728	14629.6	3.281926	3.198029	45.3634	1.173435	0.025119	0.024763	46.2885	14629.6	0.022746	0.027041	1711.76	81281.4
1096	2.000000	1.176291	7.37578e+06	-54939.1	1055.82	-29742.5	0.000000	0.000000	7.178807	51.3279	NaN	0.000000	0.001620	0.001758	28.0854	28.9425	0.001808	16010.3	7.161469	178.883	51.3219	1.176014	0.027620	0.027343	51.3279	16010.3	0.025216	0.031409	1634.17	82536.2
1096	2.000000	1.178790	7.37578e+06	-54939.1	1055.82	-29742.5	0.000000	0.000000	7.181725	61.5252	NaN	0.000000	0.001591	0.001752	28.0842	31.6642	0.001856	17057.9	8.219637	-2.765607	60.0031	1.178400	0.030118	0.029729	61.5252	17057.9	0.027413	0.035553	1730.54	82653.8
1096	2.000000	1.181254	7.37578e+06	-54939.1	1055.82	-29742.5	0.000000	0.000000	7.184564	70.6428	NaN	0.000000	0.001647	0.001738	28.0855	33.4648	0.001810	18488.7	6.847438	177.381	69.0972	1.180960	0.032583	0.032289	70.6428	18488.7	0.029717	0.040160	1759.02	84291
1096	2.000000	1.183794	7.37578e+06	-54939.1	1055.82	-29742.5	0.000000	0.000000	7.187275	74.7869	NaN	0.000000	0.001692	0.001749	28.0841	35.8243	0.001738	20609.3	5.422284	-3.024435	73.5736	1.183523	0.035123	0.034852	74.7869	20609.3	0.032401	0.045868	1630.47	87918.6
1096	2.000000	1.186264	7.37578e+06	-54939.1	1055.82	-29742.5	0.000000	0.000000	7.190166	85.0504	NaN	0.000000	0.001661	0.001707	28.0848	39.1168	0.001824	21443.8	4.425573	178.043	83.9237	1.185925	0.037592	0.037254	85.0504	21443.8	0.034618	0.050860	1672.26	86873.6
1096	2.000000	1.188720	7.37578e+06	-54939.1	1055.82	-29742.5	0.000000	0.000000	7.193088	96.3658	NaN	0.000000	0.001665	0.001731	28.084	40.1134	0.001708	23483.3	2.716463	0.183352	92.223	1.188353	0.040049	0.039681	96.3658	23483.3	0.036971	0.056436	1707.53	90314.1
1096	2.000000	1.191267	7.37578e+06	-54939.1	1055.82	-29742.5	0.000000	0.000000	7.195898	102.752	NaN	0.000000	0.001645	0.001698	28.0853	42.7367	0.001663	25706	1.100396	179.946	103.784	1.190933	0.042596	0.042262	102.752	25706	0.039598	0.062993	1631.15	93575.1
1096	2.000000	1.193706	7.37578e+06	-54939.1	1055.82	-29742.5	0.000000	0.000000	7.198885	116.094	NaN	0.000000	0.001685	0.001710	28.0839	45.7601	0.001659	27584.9	2.870344	-2.450906	112.454	1.193387	0.045034	0.044716	116.094	27584.9	0.041878	0.068972	1683.21	95964.2
1096	2.000000	1.196269	7.37578e+06	-54939.1	1055.82	-29742.5	0.000000	0.000000	7.201814	124.96	NaN	0.000000	0.001671	0.001724	28.0856	51.0156	0.001979	25776.1	8.388081	173.388	126.714	1.195945	0.047598	0.047273	124.96	25776.1	0.043962	0.074668	1673.54	86183.4
1096	2.000000	1.198771	7.37578e+06	-54939.1	1055.82	-29742.5	0.000000	0.000000	7.204957	140.554	NaN	0.000000	0.001642	0.001745	28.0841	52.4563	0.001857	28241.1	6.304652	-5.675794	140.286	1.198394	0.050100	0.049723	140.554	28241.1	0.046367	0.081515	1724.27	90372.6
1096	2.000000	1.201252	7.37578e+06	-54939.1	1055.82	-29742.5	0.000000	0.000000	7.207818	149.801	NaN	0.000000	0.001651	0.001700	28.0842	55.2457	0.001804	30617.2	7.086717	172.155	150.312	1.200916	0.052580	0.052245	149.801	30617.2	0.048911	0.089077	1681.72	93725.3
1096	2.000000	1.203745	7.37578e+06	-54939.1	1055.82	-29742.5	0.000000	0.000000	7.210795	161.554	NaN	0.000000	0.001665	0.001645	28.0827	56.964	0.001719	33145.9	2.605565	-3.897590	159.499	1.203410	0.055074	0.054738	161.554	33145.9	0.051418	0.096848	1668.13	97310.1
1096	2.000000	1.206231	7.37578e+06	-54939.1	1055.82	-29742.5	0.000000	0.000000	7.213777	173.624	NaN	0.000000	0.001683	0.001714	28.0834	61.1734	0.001804	33908.5	5.251746	173.16	171.718	1.205980	0.057559	0.057308	173.624	33908.5	0.053719	0.104254	1665.39	95947.8
1096	2.000000	1.208773	7.37578e+06	-54939.1	1055.82	-29742.5	0.000000	0.000000	7.216943	188.777	NaN	0.000000	0.001585	0.001709	28.0828	62.6011	0.001854	33762.7	8.157954	-8.324261	187.247	1.208287	0.060102	0.059615	188.777	33762.7	0.055909	0.111547	1692.35	92359.3
1096	2.000000	1.211212	7.37578e+06	-54939.1	1055.82	-29742.5	0.000000	0.000000	7.219946	202.503	NaN	0.000000	0.001566	0.001667	28.0836	63.944	0.001839	34773.6	6.392456	173.328	202.21	1.210859	0.062540	0.062188	202.503	34773.6	0.058173	0.119337	1696.9	91967.6
1096	2.000000	1.213730	7.37578e+06	-54939.1	1055.82	-29742.5	0.000000	0.000000	7.223073	217.3	NaN	0.000000	0.001581	0.001641	28.0831	67.3673	0.001816	37106.6	3.731910	-5.496952	215.149	1.213311	0.065059	0.064640	217.3	37106.6	0.060667	0.128211	1694.86	94680.7
1096	2.000000	1.216250	7.37578e+06	-54939.1	1055.82	-29742.5	0.000000	0.000000	7.226209	232.264	NaN	0.000000	0.001632	0.001654	28.0834	69.9178	0.001909	36631.6	2.744409	176.104	232.977	1.215847	0.067579	0.067176	232.264	36631.6	0.062824	0.136128	1706.21	90710
1096	2.000000	1.218767	7.37578e+06	-54939.1	1055.82	-29742.5	0.000000	0.000000	7.229315	246.589	NaN	0.000000	0.001609	0.001669	28.0831	71.4016	0.001905	37481.7	5.372979	-6.591225	244.061	1.218339	0.070096	0.069667	246.589	37481.7	0.065162	0.144965	1701.03	89941.7
1096	2.000000	1.221228	7.37578e+06	-54939.1	1055.82	-29742.5	0.000000	0.000000	7.232244	257.973	NaN	0.000000	0.001596	0.001683	28.0839	75.2766	0.001710	44012.4	9.942125	166.28	258.207	1.220899	0.072557	0.072228	257.973	44012.4	0.068161	0.156686	1646.43	101586
1096	2.000000	1.223815	7.37578e+06	-54939.1	1055.82	-29742.5	0.000000	0.000000	7.235450	273.025	NaN	0.000000	0.001577	0.001653	28.0867	76.209	0.001826	41727.2	5.103884	-7.953009	275.277	1.223436	0.075143	0.074765	273.025	41727.2	0.070236	0.165049	1654.2	93839.5
1096	2.000000	1.226179	7.37578e+06	-54939.1	1055.82	-29742.5	0.000000	0.000000	7.238556	291.063	NaN	0.000000	0.001608	0.001657	28.0842	78.3802	0.001698	46151.5	5.498994	170.761	289.501	1.225858	0.077508	0.077187	291.063	46151.5	0.072778	0.175572	1657.8	100631
1096	2.000000	1.228767	7.37578e+06	-54939.1	1055.82	-29742.5	0.000000	0.000000	7.241921	309.952	NaN	0.000000	0.001579	0.001686	28.0829	78.8547	0.001586	49721.4	0.073907	-4.142744	309.246	1.228460	0.080095	0.079789	309.952	49721.4	0.075420	0.186832	1658.98	105097
1096	2.000000	1.231206	7.37578e+06	-54939.1	1055.82	-29742.5	0.000000	0.000000	7.245073	327.287	NaN	0.000000	0.001598	0.001678	28.0831	82.6908	0.001843	44859.6	6.429301	170.376	326.112	1.230856	0.082534	0.082184	327.287	44859.6	0.077062	0.193997	1687.07	93053.1
1096	2.000000	1.233594	7.37578e+06	-54939.1	1055.82	-29742.5	0.000000	0.000000	7.248157	344.2	NaN	0.000000	0.001630	0.001622	28.0829	84.878	0.001747	48590.7	4.317887	-7.943145	335.924	1.233182	0.084923	0.084511	344.2	48590.7	0.079610	0.205362	1676.07	97964
1096	2.000000	1.236224	7.37578e+06	-54939.1	1055.82	-29742.5	0.000000	0.000000	7.251608	364.158	NaN	0.000000	0.001626	0.001638	28.0843	88.7848	0.001714	51805	8.126798	168.556	363.859	1.235794	0.087553	0.087122	364.158	51805	0.082281	0.217602	1673.5	101464
1096	2.000000	1.238628	7.37578e+06	-54939.1	1055.82	-29742.5	0.000000	0.000000	7.254914	386.083	NaN	0.000000	0.001651	0.001649	28.084	88.9403	0.001761	50506.6	4.887368	-8.702041	378.531	1.238293	0.089957	0.089622	386.083	50506.6	0.084224	0.226712	1702.96	96913.5
1096	2.000000	1.241243	7.37578e+06	-54939.1	1055.82	-29742.5	0.000000	0.000000	7.258201	402.438	NaN	0.000000	0.001668	0.001694	28.0843	92.2038	0.001809	50971.1	5.172241	170.839	403.982	1.240848	0.092571	0.092176	402.438	50971.1	0.086650	0.238334	1688.55	95390.3
1096	2.000000	1.243808	7.37578e+06	-54939.1	1055.82	-29742.5	0.000000	0.000000	7.261498	420.221	NaN	0.000000	0.001669	0.001698	28.0842	94.9567	0.001785	53205.1	5.184771	-8.999868	423.035	1.243241	0.095137	0.094570	420.221	53205.1	0.089213	0.250910	1674.79	97043.7
1096	2.000000	1.246163	7.37578e+06	-54939.1	1055.82	-29742.5	0.000000	0.000000	7.264706	440.953	NaN	0.000000	0.001668	0.001696	28.0838	98.5676	0.001790	55073.4	6.046002	169.051	437.691	1.245890	0.097492	0.097219	440.953	55073.4	0.091487	0.262317	1681	98243.1
1096	2.000000	1.248752	7.37578e+06	-54939.1	1055.82	-29742.5	0.000000	0.000000	7.268175	462.346	NaN	0.000000	0.001588	0.001670	28.084	101.491	0.001883	53903.8	6.143809	-10.0773	461.576	1.248356	0.100080	0.099684	462.346	53903.8	0.093647	0.273373	1691.26	94192.2
1096	2.000000	1.251182	7.37578e+06	-54939.1	1055.82	-29742.5	0.000000	0.000000	7.271345	480.335	NaN	0.000000	0.001574	0.001704	28.085	103.362	0.001734	59611.2	4.890582	169.756	481.184	1.251028	0.102511	0.102357	480.335	59611.2	0.096467	0.288127	1667.1	101463
1096	2.000000	1.252693	7.37578e+06	-54939.1	1055.82	-29742.5	0.000000	0.000000	7.273518	496.427	NaN	0.000000	0.001623	0.001678	28.0842	106.608	0.001891	56376.8	4.841446	-9.317842	492.167	1.252300	0.104021	0.103629	496.427	56376.8	0.097417	0.293178	1693.27	95128