File: remote_trans/data/nanoindenter/0828-1/data/Data_2025-08-06,11h17m57s/2025-07-22_16-23-58_1_447.txt
2025-07-22, 16:23:58, 1
Index	Phase	Displacement	Time	Pos X	Pos Y	Pos Z	Rot A	Rot B	Piezo Z	Force A	Force B	Gripper	Voltage A	Voltage B	Temperature	Amplitude force	Amplitude pos	Stiffness	Phase shift	Phase excitation	Force A raw	Displacement raw	HMax	HMax raw	Real Force	Real Stiffness	Contact Depth	Area	Hardness	Reduced Mod.
[#]	[#]	[um]	[s]	[um]	[um]	[um]	[m°]	[m°]	[um]	[uN]	[uN]	[V]	[V]	[V]	[°C]	[uN]	[um]	[N/m]	[°]	[°]	[uN]	[um]	[um]	[um]	[uN]	[N/m]	[um]	[um^2]	[MPa]	[MPa]
447	1.000000	0.002421	7.36943e+06	-54739.1	1005.82	-29743.1	0.000000	0.000000	6.002791	-0.010559	NaN	0.000000	0.001542	0.001769	28.0802	0.106357	0.000984	108.087	22.4938	-161.484	-0.051385	0.001195	-1.031057	-1.032284	-0.010559	108.087	-1.030983	-5.925274E+13	1.782025E-16	NaN
447	1.000000	0.010403	7.36943e+06	-54739.1	1005.82	-29743.1	0.000000	0.000000	6.010772	-0.017937	NaN	0.000000	0.001546	0.001733	28.0799	0.064784	0.000954	67.8973	-1.361229	-160.306	-0.045843	0.009084	-1.023075	-1.024395	-0.017937	67.8973	-1.022877	-4.609613E+13	3.891201E-16	NaN
447	1.000000	0.018391	7.36943e+06	-54739.1	1005.82	-29743.1	0.000000	0.000000	6.018767	0.116326	NaN	0.000000	0.001546	0.001766	28.0799	0.030050	0.001560	19.2615	104.432	-161.211	0.067830	0.017057	-1.015087	-1.016421	0.116326	19.2615	-1.019616	-4.166667E+13	-2.791829E-15	NaN
447	1.000000	0.026409	7.36943e+06	-54739.1	1005.82	-29743.1	0.000000	0.000000	6.026781	0.041618	NaN	0.000000	0.001567	0.001768	28.0801	0.062787	0.001840	34.1293	-75.8356	-164.979	0.077800	0.025070	-1.007070	-1.008408	0.041618	34.1293	-1.007984	-2.905700E+13	-1.432301E-15	NaN
447	1.000000	0.034357	7.36943e+06	-54739.1	1005.82	-29743.1	0.000000	0.000000	6.034727	0.003398	NaN	0.000000	0.001536	0.001748	28.0801	0.059306	0.001905	31.1301	-136.977	-165.984	0.062831	0.033151	-0.999121	-1.000327	0.003398	31.1301	-0.999203	-2.213300E+13	-1.535448E-16	NaN
447	1.000000	0.042396	7.36943e+06	-54739.1	1005.82	-29743.1	0.000000	0.000000	6.042767	-0.001020	NaN	0.000000	0.001533	0.001729	28.0802	0.104924	0.001919	54.6819	0.852374	-168.728	0.007504	0.041078	-0.991082	-0.992400	-0.001020	54.6819	-0.991068	-1.719862E+13	5.932801E-17	NaN
447	1.000000	0.050405	7.36943e+06	-54739.1	1005.82	-29743.1	0.000000	0.000000	6.050773	-0.046732	NaN	0.000000	0.001537	0.001710	28.0799	0.040525	0.002025	20.0117	92.8547	-164.952	-0.032171	0.049068	-0.983073	-0.984410	-0.046732	20.0117	-0.981322	-1.271212E+13	3.676158E-15	NaN
447	1.000000	0.058389	7.36943e+06	-54739.1	1005.82	-29743.1	0.000000	0.000000	6.058761	0.036267	NaN	0.000000	0.001526	0.001769	28.0787	0.048870	0.001966	24.8518	-156.021	-161.751	0.024064	0.057084	-0.975089	-0.976394	0.036267	24.8518	-0.976184	-1.083902E+13	-3.345948E-15	NaN
447	1.000000	0.066397	7.36943e+06	-54739.1	1005.82	-29743.1	0.000000	0.000000	6.066769	0.029889	NaN	0.000000	0.001540	0.001726	28.079	0.011440	0.002072	5.521707	78.1947	-163.104	0.049566	0.065087	-0.967081	-0.968392	0.029889	5.521707	-0.971141	-9.269015E+12	-3.224659E-15	NaN
447	1.000000	0.074360	7.36943e+06	-54739.1	1005.82	-29743.1	0.000000	0.000000	6.074728	-0.056775	NaN	0.000000	0.001565	0.001744	28.0788	0.008786	0.002133	4.119870	92.2187	-164.021	0.000924	0.073064	-0.959119	-0.960414	-0.056775	4.119870	-0.948783	-4.630332E+12	1.226164E-14	NaN
447	1.000000	0.082394	7.36943e+06	-54739.1	1005.82	-29743.1	0.000000	0.000000	6.082765	0.010878	NaN	0.000000	0.001553	0.001706	28.079	0.142664	0.002058	69.3134	132.374	-164.39	-0.016043	0.081046	-0.951084	-0.952432	0.010878	69.3134	-0.951201	-4.991486E+12	-2.179240E-15	NaN
447	1.000000	0.090401	7.36943e+06	-54739.1	1005.82	-29743.1	0.000000	0.000000	6.090774	0.041257	NaN	0.000000	0.001544	0.001730	28.0787	0.123413	0.002067	59.6934	-22.8689	-163.792	-0.037267	0.089053	-0.943077	-0.944425	0.041257	59.6934	-0.943595	-3.941274E+12	-1.046792E-14	NaN
447	1.000000	0.098407	7.36943e+06	-54739.1	1005.82	-29743.1	0.000000	0.000000	6.098782	0.092993	NaN	0.000000	0.001551	0.001724	28.0788	0.083957	0.002052	40.9238	84.6057	-163.519	0.114758	0.097098	-0.935071	-0.936380	0.092993	40.9238	-0.936775	-3.188774E+12	-2.916247E-14	NaN
447	1.000000	0.106398	7.36943e+06	-54739.1	1005.82	-29743.1	0.000000	0.000000	6.106768	0.002856	NaN	0.000000	0.001551	0.001741	28.0789	0.029764	0.002043	14.5671	-161.515	-160.792	0.066106	0.105057	-0.927080	-0.928421	0.002856	14.5671	-0.927227	-2.370151E+12	-1.205067E-15	NaN
447	1.000000	0.114379	7.36943e+06	-54739.1	1005.82	-29743.1	0.000000	0.000000	6.114749	-0.001539	NaN	0.000000	0.001578	0.001713	28.0787	0.114812	0.002057	55.8053	144.887	-165.956	-0.014190	0.113129	-0.919099	-0.920349	-0.001539	55.8053	-0.919078	-1.839766E+12	8.364026E-16	NaN
447	1.000000	0.122396	7.36943e+06	-54739.1	1005.82	-29743.1	0.000000	0.000000	6.122768	0.047009	NaN	0.000000	0.001561	0.001750	28.0788	0.066410	0.001944	34.1624	-89.0481	-162.462	0.042653	0.121087	-0.911082	-0.912391	0.047009	34.1624	-0.912114	-1.481559E+12	-3.172916E-14	NaN
447	1.000000	0.130402	7.36943e+06	-54739.1	1005.82	-29743.1	0.000000	0.000000	6.130773	0.015399	NaN	0.000000	0.001569	0.001731	28.0789	0.110748	0.002078	53.2911	-122.914	-164.44	0.040159	0.129069	-0.903077	-0.904409	0.015399	53.2911	-0.903293	-1.126064E+12	-1.367496E-14	NaN
447	1.000000	0.138402	7.36943e+06	-54739.1	1005.82	-29743.1	0.000000	0.000000	6.138773	0.012474	NaN	0.000000	0.001551	0.001706	28.0788	0.037711	0.002115	17.8324	-34.0533	-165.359	-0.013259	0.137064	-0.895077	-0.896414	0.012474	17.8324	-0.895601	-8.863847E+11	-1.407322E-14	NaN
447	1.000000	0.146405	7.36943e+06	-54739.1	1005.82	-29743.1	0.000000	0.000000	6.146779	0.094752	NaN	0.000000	0.001575	0.001748	28.0784	0.048380	0.002002	24.162	-59.1297	-163.261	0.026352	0.145067	-0.887073	-0.888411	0.094752	24.162	-0.890015	-7.449229E+11	-1.271970E-13	NaN
447	1.000000	0.154427	7.36943e+06	-54739.1	1005.82	-29743.1	0.000000	0.000000	6.154799	0.037769	NaN	0.000000	0.001576	0.001727	28.0782	0.100963	0.002090	48.3064	-78.2127	-165.615	0.079491	0.153065	-0.879051	-0.880413	0.037769	48.3064	-0.879637	-5.392695E+11	-7.003771E-14	NaN
447	1.000000	0.162409	7.36943e+06	-54739.1	1005.82	-29743.1	0.000000	0.000000	6.162780	0.007488	NaN	0.000000	0.001550	0.001736	28.0784	0.084763	0.001872	45.2889	115.309	-164.599	-0.003748	0.161106	-0.871069	-0.872372	0.007488	45.2889	-0.871193	-4.145593E+11	-1.806175E-14	NaN
447	1.000000	0.170427	7.36943e+06	-54739.1	1005.82	-29743.1	0.000000	0.000000	6.170799	0.033974	NaN	0.000000	0.001559	0.001745	28.0782	0.089571	0.001947	45.9938	-102.614	-163.644	-0.013819	0.169077	-0.863051	-0.864401	0.033974	45.9938	-0.863605	-3.272743E+11	-1.038083E-13	NaN
447	1.000000	0.178429	7.36943e+06	-54739.1	1005.82	-29743.1	0.000000	0.000000	6.178800	0.015921	NaN	0.000000	0.001586	0.001734	28.0782	0.031829	0.002028	15.6985	120.572	-166.282	0.030945	0.177126	-0.855050	-0.856352	0.015921	15.6985	-0.855810	-2.566886E+11	-6.202620E-14	NaN
447	1.000000	0.186403	7.36943e+06	-54739.1	1005.82	-29743.1	0.000000	0.000000	6.186773	0.004699	NaN	0.000000	0.001538	0.001739	28.0786	0.145649	0.001939	75.1325	148.456	-162.589	-0.053287	0.185092	-0.847076	-0.848387	0.004699	75.1325	-0.847122	-1.957806E+11	-2.399996E-14	NaN
447	1.000000	0.194439	7.36943e+06	-54739.1	1005.82	-29743.1	0.000000	0.000000	6.194813	0.073217	NaN	0.000000	0.001575	0.001767	28.0798	0.028461	0.001935	14.7122	130.759	-165.513	0.031869	0.193078	-0.839039	-0.840400	0.073217	14.7122	-0.842772	-1.709381E+11	-4.283247E-13	NaN
447	1.000000	0.202446	7.36943e+06	-54739.1	1005.82	-29743.1	0.000000	0.000000	6.202819	0.048439	NaN	0.000000	0.001562	0.001740	28.0797	0.062402	0.001993	31.3132	130.676	-167.028	0.007101	0.201108	-0.831032	-0.832370	0.048439	31.3132	-0.832192	-1.228841E+11	-3.941879E-13	NaN
447	1.000000	0.210429	7.36943e+06	-54739.1	1005.82	-29743.1	0.000000	0.000000	6.210798	-0.013949	NaN	0.000000	0.001590	0.001760	28.0798	0.041272	0.002106	19.5949	-0.309679	-164.8	-0.015678	0.209137	-0.823050	-0.824341	-0.013949	19.5949	-0.822516	-9.084973E+10	1.535351E-13	NaN
447	1.000000	0.218473	7.36943e+06	-54739.1	1005.82	-29743.1	0.000000	0.000000	6.218843	-0.010073	NaN	0.000000	0.001546	0.001755	28.08	0.091526	0.001905	48.0419	0.699344	-164.589	-0.069810	0.217156	-0.815005	-0.816322	-0.010073	48.0419	-0.814848	-7.150518E+10	1.408694E-13	NaN
447	1.000000	0.226441	7.36943e+06	-54739.1	1005.82	-29743.1	0.000000	0.000000	6.226811	-0.001163	NaN	0.000000	0.001586	0.001754	28.0799	0.069471	0.002009	34.5735	169.147	-162.864	-0.009360	0.225129	-0.807037	-0.808349	-0.001163	34.5735	-0.807012	-5.597955E+10	2.076962E-14	NaN
447	1.000000	0.234442	7.36943e+06	-54739.1	1005.82	-29743.1	0.000000	0.000000	6.234811	-0.033419	NaN	0.000000	0.001582	0.001783	28.0799	0.040155	0.001964	20.4404	123.51	-163.267	0.023275	0.233224	-0.799036	-0.800254	-0.033419	20.4404	-0.797810	-4.198832E+10	7.959039E-13	NaN
447	1.000000	0.242488	7.36943e+06	-54739.1	1005.82	-29743.1	0.000000	0.000000	6.242857	-0.031983	NaN	0.000000	0.001611	0.001765	28.0797	0.101013	0.002023	49.9402	40.676	-163.532	-0.000231	0.241159	-0.790991	-0.792319	-0.031983	49.9402	-0.790510	-3.342049E+10	9.569893E-13	NaN
447	1.000000	0.250473	7.36943e+06	-54739.1	1005.82	-29743.1	0.000000	0.000000	6.250846	0.040824	NaN	0.000000	0.001612	0.001759	28.0799	0.043896	0.002056	21.3518	-150.556	-165.675	0.052067	0.249150	-0.783005	-0.784328	0.040824	21.3518	-0.784439	-2.764019E+10	-1.476991E-12	NaN
447	1.000000	0.258435	7.36943e+06	-54739.1	1005.82	-29743.1	0.000000	0.000000	6.258807	0.045733	NaN	0.000000	0.001600	0.001770	28.0799	0.049766	0.001933	25.7447	-88.4043	-167.906	-0.023661	0.257151	-0.775044	-0.776327	0.045733	25.7447	-0.776376	-2.147727E+10	-2.129359E-12	NaN
447	1.000000	0.266492	7.36943e+06	-54739.1	1005.82	-29743.1	0.000000	0.000000	6.266865	0.063158	NaN	0.000000	0.001590	0.001740	28.0797	0.085239	0.001943	43.8762	-110.148	-168.454	0.041335	0.265188	-0.766986	-0.768290	0.063158	43.8762	-0.768066	-1.655795E+10	-3.814361E-12	NaN
447	1.000000	0.274491	7.36943e+06	-54739.1	1005.82	-29743.1	0.000000	0.000000	6.274863	0.042857	NaN	0.000000	0.001568	0.001748	28.0799	0.038987	0.002019	19.3052	-67.7325	-160.886	0.056844	0.273161	-0.758987	-0.760317	0.042857	19.3052	-0.760652	-1.312725E+10	-3.264746E-12	NaN
447	1.000000	0.282472	7.36943e+06	-54739.1	1005.82	-29743.1	0.000000	0.000000	6.282842	-0.001735	NaN	0.000000	0.001622	0.001712	28.0797	0.060667	0.001953	31.0665	155.78	-162.598	-0.063783	0.281113	-0.751006	-0.752365	-0.001735	31.0665	-0.750964	-9.690529E+9	1.790025E-13	NaN
447	1.000000	0.290494	7.36943e+06	-54739.1	1005.82	-29743.1	0.000000	0.000000	6.290866	0.035863	NaN	0.000000	0.001631	0.001745	28.0799	0.069830	0.002055	33.9874	-147.666	-166.243	-0.006773	0.289180	-0.742984	-0.744298	0.035863	33.9874	-0.743775	-7.735241E+9	-4.636348E-12	NaN
447	1.000000	0.298442	7.36943e+06	-54739.1	1005.82	-29743.1	0.000000	0.000000	6.298814	0.050628	NaN	0.000000	0.001655	0.001747	28.0796	0.101867	0.002104	48.417	-69.2475	-165.009	0.065432	0.297143	-0.735036	-0.736336	0.050628	48.417	-0.735821	-6.027298E+9	-8.399786E-12	NaN
447	1.000000	0.306484	7.36943e+06	-54739.1	1005.82	-29743.1	0.000000	0.000000	6.306854	-0.024899	NaN	0.000000	0.001626	0.001752	28.0794	0.077080	0.002055	37.5135	95.5079	-165.314	0.010699	0.305147	-0.726994	-0.728331	-0.024899	37.5135	-0.726496	-4.498311E+9	5.535186E-12	NaN
447	1.000000	0.314471	7.36943e+06	-54739.1	1005.82	-29743.1	0.000000	0.000000	6.314841	-0.018855	NaN	0.000000	0.001672	0.001750	28.0797	0.075376	0.001949	38.679	-133.595	-166.586	-0.032899	0.313183	-0.719007	-0.720295	-0.018855	38.679	-0.718642	-3.515165E+9	5.363765E-12	NaN
447	1.000000	0.322490	7.36943e+06	-54739.1	1005.82	-29743.1	0.000000	0.000000	6.322861	-0.002394	NaN	0.000000	0.001619	0.001742	28.0796	0.146510	0.002012	72.8025	-75.7277	-163.171	0.058078	0.321177	-0.710988	-0.712301	-0.002394	72.8025	-0.710963	-2.761805E+9	8.668585E-13	NaN
447	1.000000	0.330512	7.36943e+06	-54739.1	1005.82	-29743.1	0.000000	0.000000	6.330881	-0.031221	NaN	0.000000	0.001558	0.001756	28.0784	0.079639	0.002038	39.0747	-142.192	-162.649	-0.100038	0.329196	-0.702966	-0.704282	-0.031221	39.0747	-0.702367	-2.107925E+9	1.481136E-11	NaN
447	1.000000	0.338503	7.36943e+06	-54739.1	1005.82	-29743.1	0.000000	0.000000	6.338877	0.068728	NaN	0.000000	0.001600	0.001790	28.0783	0.073435	0.001966	37.3514	-14.5985	-167.017	0.012409	0.337214	-0.694975	-0.696264	0.068728	37.3514	-0.696355	-1.744791E+9	-3.939027E-11	NaN
447	1.000000	0.346520	7.36943e+06	-54739.1	1005.82	-29743.1	0.000000	0.000000	6.346893	0.052302	NaN	0.000000	0.001603	0.001792	28.0783	0.059038	0.001976	29.8711	-101.231	-165.717	0.022315	0.345172	-0.686958	-0.688306	0.052302	29.8711	-0.688271	-1.352987E+9	-3.865693E-11	NaN
447	1.000000	0.354501	7.36943e+06	-54739.1	1005.82	-29743.1	0.000000	0.000000	6.354869	-0.059108	NaN	0.000000	0.001585	0.001761	28.0784	0.081180	0.002066	39.3006	-121.078	-163.142	-0.022085	0.353177	-0.678977	-0.680302	-0.059108	39.3006	-0.677849	-9.745007E+8	6.065444E-11	NaN
447	1.000000	0.362498	7.36943e+06	-54739.1	1005.82	-29743.1	0.000000	0.000000	6.362872	0.074393	NaN	0.000000	0.001547	0.001772	28.0786	0.075584	0.001969	38.3934	-171.977	-167.199	0.041283	0.361226	-0.670980	-0.672252	0.074393	38.3934	-0.672433	-8.216490E+8	-9.054090E-11	NaN
447	1.000000	0.370524	7.36943e+06	-54739.1	1005.82	-29743.1	0.000000	0.000000	6.370894	-0.013307	NaN	0.000000	0.001576	0.001770	28.0787	0.015953	0.002013	7.924304	173.712	-164.841	-0.008386	0.369242	-0.662954	-0.664236	-0.013307	7.924304	-0.661695	-5.857101E+8	2.271945E-11	NaN
447	1.000000	0.378510	7.36943e+06	-54739.1	1005.82	-29743.1	0.000000	0.000000	6.378881	0.031759	NaN	0.000000	0.001550	0.001768	28.0785	0.033780	0.001961	17.225	106.976	-166.285	-0.083805	0.377210	-0.654968	-0.656268	0.031759	17.225	-0.656351	-4.948597E+8	-6.417689E-11	NaN
447	1.000000	0.386499	7.36943e+06	-54739.1	1005.82	-29743.1	0.000000	0.000000	6.386868	-0.042811	NaN	0.000000	0.001587	0.001756	28.0785	0.075163	0.001953	38.4922	171.439	-163.244	-0.007706	0.385203	-0.646979	-0.648275	-0.042811	38.4922	-0.646145	-3.585703E+8	1.193940E-10	NaN
447	1.000000	0.394542	7.36943e+06	-54739.1	1005.82	-29743.1	0.000000	0.000000	6.394913	-0.005838	NaN	0.000000	0.001601	0.001768	28.0782	0.049612	0.002154	23.0288	69.5032	-163.646	0.015112	0.393176	-0.638936	-0.640303	-0.005838	23.0288	-0.638746	-2.838432E+8	2.056666E-11	NaN
447	1.000000	0.402521	7.36943e+06	-54739.1	1005.82	-29743.1	0.000000	0.000000	6.402894	0.054899	NaN	0.000000	0.001588	0.001755	28.0787	0.042687	0.002048	20.8426	-45.3245	-165.349	-0.018832	0.401187	-0.630957	-0.632291	0.054899	20.8426	-0.632933	-2.362056E+8	-2.324216E-10	NaN
447	1.000000	0.410558	7.36943e+06	-54739.1	1005.82	-29743.1	0.000000	0.000000	6.410928	-0.015505	NaN	0.000000	0.001598	0.001759	28.0784	0.121973	0.002083	58.5673	-130.999	-165.329	0.080590	0.409252	-0.622920	-0.624227	-0.015505	58.5673	-0.622722	-1.710170E+8	9.066293E-11	NaN
447	1.000000	0.418536	7.36943e+06	-54739.1	1005.82	-29743.1	0.000000	0.000000	6.418907	0.008257	NaN	0.000000	0.001638	0.001749	28.0786	0.053000	0.002071	25.5853	-169.645	-159.606	0.080524	0.417196	-0.614942	-0.616283	0.008257	25.5853	-0.615184	-1.347169E+8	-6.128822E-11	NaN
447	1.000000	0.426547	7.36943e+06	-54739.1	1005.82	-29743.1	0.000000	0.000000	6.426918	0.012668	NaN	0.000000	0.001617	0.001770	28.0786	0.032071	0.002037	15.7428	-122.481	-163.511	0.030695	0.425200	-0.606931	-0.608278	0.012668	15.7428	-0.607534	-1.057269E+8	-1.198222E-10	NaN
447	1.000000	0.434530	7.36943e+06	-54739.1	1005.82	-29743.1	0.000000	0.000000	6.434897	-0.094530	NaN	0.000000	0.001622	0.001778	28.0784	0.085884	0.001906	45.057	159.43	-167.31	-0.061258	0.433233	-0.598948	-0.600245	-0.094530	45.057	-0.597374	-7.661117E+7	1.233889E-9	NaN
447	1.000000	0.442539	7.36943e+06	-54739.1	1005.82	-29743.1	0.000000	0.000000	6.442909	-0.020109	NaN	0.000000	0.001640	0.001803	28.0785	0.082420	0.002094	39.3598	120.022	-163.597	0.003987	0.441230	-0.590939	-0.592248	-0.020109	39.3598	-0.590556	-6.170621E+7	3.258842E-10	NaN
447	1.000000	0.450517	7.36943e+06	-54739.1	1005.82	-29743.1	0.000000	0.000000	6.450889	0.026424	NaN	0.000000	0.001612	0.001777	28.0784	0.073756	0.002008	36.7328	138.785	-165.268	0.037693	0.449229	-0.582961	-0.584249	0.026424	36.7328	-0.583501	-4.932097E+7	-5.357624E-10	NaN
447	1.000000	0.458545	7.36943e+06	-54739.1	1005.82	-29743.1	0.000000	0.000000	6.458916	0.008151	NaN	0.000000	0.001644	0.001781	28.0786	0.092843	0.002080	44.6329	-99.7799	-162.057	-0.019582	0.457246	-0.574933	-0.576232	0.008151	44.6329	-0.575070	-3.772781E+7	-2.160552E-10	NaN
447	1.000000	0.466537	7.36943e+06	-54739.1	1005.82	-29743.1	0.000000	0.000000	6.466908	0.013587	NaN	0.000000	0.001624	0.001740	28.0794	0.076629	0.002027	37.8002	167.424	-167.732	-0.011398	0.465325	-0.566941	-0.568153	0.013587	37.8002	-0.567211	-2.938211E+7	-4.624236E-10	NaN
447	1.000000	0.474546	7.36943e+06	-54739.1	1005.82	-29743.1	0.000000	0.000000	6.474917	0.028070	NaN	0.000000	0.001644	0.001756	28.0795	0.024488	0.001976	12.3905	141.088	-166.921	0.029107	0.473266	-0.558932	-0.560212	0.028070	12.3905	-0.560632	-2.382945E+7	-1.177973E-9	NaN
447	1.000000	0.482550	7.36943e+06	-54739.1	1005.82	-29743.1	0.000000	0.000000	6.482922	0.041029	NaN	0.000000	0.001638	0.001734	28.0796	0.083961	0.002001	41.962	27.8742	-164.672	-0.001589	0.481273	-0.550929	-0.552205	0.041029	41.962	-0.551662	-1.790494E+7	-2.291516E-9	NaN
447	1.000000	0.490557	7.36943e+06	-54739.1	1005.82	-29743.1	0.000000	0.000000	6.490927	-0.018039	NaN	0.000000	0.001628	0.001699	28.0795	0.135690	0.002051	66.1653	76.5277	-168.052	-0.053736	0.489231	-0.542921	-0.544247	-0.018039	66.1653	-0.542717	-1.345950E+7	1.340261E-9	NaN
447	1.000000	0.498556	7.36943e+06	-54739.1	1005.82	-29743.1	0.000000	0.000000	6.498926	-0.011576	NaN	0.000000	0.001621	0.001717	28.0797	0.063504	0.002001	31.7407	-41.7553	-163.565	0.008789	0.497259	-0.534923	-0.536219	-0.011576	31.7407	-0.534649	-1.040207E+7	1.112811E-9	NaN
447	1.000000	0.506562	7.36943e+06	-54739.1	1005.82	-29743.1	0.000000	0.000000	6.506933	0.019597	NaN	0.000000	0.001587	0.001773	28.0796	0.050440	0.001979	25.4851	175.851	-162.339	-0.015829	0.505237	-0.526916	-0.528241	0.019597	25.4851	-0.527493	-8.27475e+06	-2.368336E-9	NaN
447	1.000000	0.514582	7.36943e+06	-54739.1	1005.82	-29743.1	0.000000	0.000000	6.514956	0.080618	NaN	0.000000	0.001583	0.001738	28.0798	0.133503	0.001917	69.6582	-138.388	-163.908	0.070008	0.513281	-0.518896	-0.520197	0.080618	69.6582	-0.519764	-6.46126e+06	-1.247708E-8	NaN
447	1.000000	0.522605	7.36943e+06	-54739.1	1005.82	-29743.1	0.000000	0.000000	6.522969	-0.148723	NaN	0.000000	0.001620	0.001715	28.0797	0.054706	0.001996	27.4121	-77.544	-166.315	-0.120103	0.521293	-0.510874	-0.512185	-0.148723	27.4121	-0.506804	-4.26475e+06	3.487268E-8	NaN
447	1.000000	0.530598	7.36943e+06	-54739.1	1005.82	-29743.1	0.000000	0.000000	6.530971	0.051603	NaN	0.000000	0.001634	0.001705	28.0794	0.065857	0.001982	33.2326	158.304	-165.01	0.026050	0.529232	-0.502880	-0.504246	0.051603	33.2326	-0.504045	-3.90324e+06	-1.322060E-8	NaN
447	1.000000	0.538590	7.36943e+06	-54739.1	1005.82	-29743.1	0.000000	0.000000	6.538959	-0.037893	NaN	0.000000	0.001664	0.001718	28.0797	0.099706	0.001922	51.8678	154.037	-166.811	0.045124	0.537261	-0.494888	-0.496217	-0.037893	51.8678	-0.494340	-2.85771e+06	1.325992E-8	NaN
447	1.000000	0.546609	7.36943e+06	-54739.1	1005.82	-29743.1	0.000000	0.000000	6.546980	0.027920	NaN	0.000000	0.001655	0.001741	28.0794	0.027897	0.001908	14.6173	-125.715	-163.969	0.012803	0.545264	-0.486870	-0.488214	0.027920	14.6173	-0.488302	-2.35322e+06	-1.186461E-8	NaN
447	1.000000	0.554621	7.36943e+06	-54739.1	1005.82	-29743.1	0.000000	0.000000	6.554991	-0.007010	NaN	0.000000	0.001663	0.001745	28.0795	0.140131	0.002041	68.6504	122.987	-165.148	-0.033388	0.553283	-0.478858	-0.480196	-0.007010	68.6504	-0.478781	-1.73165e+06	4.047885E-9	NaN
447	1.000000	0.562580	7.36943e+06	-54739.1	1005.82	-29743.1	0.000000	0.000000	6.562948	-0.039175	NaN	0.000000	0.001576	0.001757	28.0795	0.136982	0.002002	68.416	-127.355	-167.505	0.038496	0.561299	-0.470899	-0.472179	-0.039175	68.416	-0.470469	-1.3243e+06	2.958176E-8	NaN
447	1.000000	0.570594	7.36943e+06	-54739.1	1005.82	-29743.1	0.000000	0.000000	6.570964	-0.009606	NaN	0.000000	0.001571	0.001717	28.0793	0.065715	0.001972	33.3259	-98.1156	-161.515	-0.008881	0.569257	-0.462884	-0.464222	-0.009606	33.3259	-0.462668	-1.02921e+06	9.333007E-9	NaN
447	1.000000	0.578603	7.36943e+06	-54739.1	1005.82	-29743.1	0.000000	0.000000	6.578975	0.033484	NaN	0.000000	0.001545	0.001728	28.0797	0.092592	0.001919	48.2404	32.5756	-163.361	-0.063390	0.577305	-0.454875	-0.456173	0.033484	48.2404	-0.455395	-813350	-4.116751E-8	NaN
447	1.000000	0.586617	7.36943e+06	-54739.1	1005.82	-29743.1	0.000000	0.000000	6.586989	0.034975	NaN	0.000000	0.001570	0.001704	28.0795	0.033325	0.001998	16.6814	-141.403	-162.352	-0.008860	0.585296	-0.446861	-0.448182	0.034975	16.6814	-0.448433	-649050	-5.388625E-8	NaN
447	1.000000	0.594600	7.36943e+06	-54739.1	1005.82	-29743.1	0.000000	0.000000	6.594968	-0.038635	NaN	0.000000	0.001554	0.001700	28.0797	0.080920	0.002071	39.0655	95.1317	-165.515	-0.132706	0.593315	-0.438879	-0.440163	-0.038635	39.0655	-0.438137	-464581	8.316104E-8	NaN
447	1.000000	0.602618	7.36943e+06	-54739.1	1005.82	-29743.1	0.000000	0.000000	6.602986	-0.058161	NaN	0.000000	0.001573	0.001735	28.0783	0.070685	0.002039	34.6724	-36.4397	-165.413	-0.092878	0.601292	-0.430860	-0.432186	-0.058161	34.6724	-0.429602	-351907	1.652745E-7	NaN
447	1.000000	0.610659	7.36943e+06	-54739.1	1005.82	-29743.1	0.000000	0.000000	6.611029	-0.000130	NaN	0.000000	0.001588	0.001722	28.0783	0.063869	0.002028	31.4961	-30.1962	-164.573	0.059729	0.609300	-0.422819	-0.424178	-0.000130	31.4961	-0.422816	-282062	4.624394E-10	NaN
447	1.000000	0.618631	7.36943e+06	-54739.1	1005.82	-29743.1	0.000000	0.000000	6.619001	0.000894	NaN	0.000000	0.001558	0.001684	28.0784	0.070372	0.001926	36.5353	-63.0338	-163.086	-0.027371	0.617317	-0.414848	-0.416161	0.000894	36.5353	-0.414866	-217546	-4.109762E-9	NaN
447	1.000000	0.626612	7.36943e+06	-54739.1	1005.82	-29743.1	0.000000	0.000000	6.626980	-0.054147	NaN	0.000000	0.001537	0.001732	28.078	0.014339	0.001866	7.685858	76.917	-163.552	0.019872	0.625303	-0.406866	-0.408175	-0.054147	7.685858	-0.401582	-140783	3.846138E-7	NaN
447	1.000000	0.634631	7.36943e+06	-54739.1	1005.82	-29743.1	0.000000	0.000000	6.635000	-0.030001	NaN	0.000000	0.001559	0.001760	28.0786	0.020405	0.001809	11.2765	33.5982	-162.637	0.025648	0.633312	-0.398848	-0.400167	-0.030001	11.2765	-0.396852	-120527	2.489166E-7	NaN
447	1.000000	0.642607	7.36943e+06	-54739.1	1005.82	-29743.1	0.000000	0.000000	6.642979	0.038631	NaN	0.000000	0.001551	0.001764	28.0782	0.050286	0.002079	24.1881	-139.786	-163.852	0.044496	0.641381	-0.390871	-0.392097	0.038631	24.1881	-0.392069	-102980	-3.751280E-7	NaN
447	1.000000	0.650644	7.36943e+06	-54739.1	1005.82	-29743.1	0.000000	0.000000	6.651017	0.066657	NaN	0.000000	0.001558	0.001757	28.0786	0.064001	0.002080	30.773	-36.0454	-161.506	0.007480	0.649299	-0.382834	-0.384179	0.066657	30.773	-0.384458	-80135.7	-8.317971E-7	NaN
447	1.000000	0.658623	7.36943e+06	-54739.1	1005.82	-29743.1	0.000000	0.000000	6.658992	-0.031877	NaN	0.000000	0.001550	0.001730	28.0783	0.076630	0.001972	38.8521	-156.446	-167.175	0.006913	0.657327	-0.374855	-0.376152	-0.031877	38.8521	-0.374240	-57166.2	5.576213E-7	NaN
447	1.000000	0.666651	7.36943e+06	-54739.1	1005.82	-29743.1	0.000000	0.000000	6.667023	0.052908	NaN	0.000000	0.001578	0.001759	28.0782	0.076779	0.001982	38.7466	111.913	-165.864	0.009191	0.665376	-0.366828	-0.368102	0.052908	38.7466	-0.367852	-46257	-1.143791E-6	NaN
447	1.000000	0.674650	7.36943e+06	-54739.1	1005.82	-29743.1	0.000000	0.000000	6.675022	0.050645	NaN	0.000000	0.001565	0.001744	28.0786	0.085163	0.001945	43.7745	113.175	-163.666	0.009735	0.673342	-0.358829	-0.360136	0.050645	43.7745	-0.359696	-35273.9	-1.435763E-6	NaN
447	1.000000	0.682658	7.36943e+06	-54739.1	1005.82	-29743.1	0.000000	0.000000	6.683029	0.013332	NaN	0.000000	0.001556	0.001720	28.0784	0.029579	0.001968	15.0271	112.798	-164.906	-0.034779	0.681347	-0.350820	-0.352131	0.013332	15.0271	-0.351485	-26825.7	-4.969986E-7	NaN
447	1.000000	0.690642	7.36943e+06	-54739.1	1005.82	-29743.1	0.000000	0.000000	6.691015	0.071670	NaN	0.000000	0.001580	0.001693	28.0786	0.119504	0.001891	63.2	37.9168	-164.248	0.080004	0.689322	-0.342836	-0.344156	0.071670	63.2	-0.343687	-20665.7	-3.468069E-6	NaN
447	1.000000	0.698635	7.36943e+06	-54739.1	1005.82	-29743.1	0.000000	0.000000	6.699007	0.022194	NaN	0.000000	0.001576	0.001744	28.0784	0.066595	0.002028	32.8302	22.3328	-168.291	0.007996	0.697316	-0.334843	-0.336162	0.022194	32.8302	-0.335350	-15620.6	-1.420804E-6	NaN
447	1.000000	0.706650	7.36943e+06	-54739.1	1005.82	-29743.1	0.000000	0.000000	6.707020	-0.026765	NaN	0.000000	0.001582	0.001714	28.0784	0.115346	0.002127	54.241	-101.499	-166.453	0.061316	0.705370	-0.326828	-0.328108	-0.026765	54.241	-0.326458	-11575.2	2.312299E-6	NaN
447	1.000000	0.714651	7.36943e+06	-54739.1	1005.82	-29743.1	0.000000	0.000000	6.715021	-0.006138	NaN	0.000000	0.001581	0.001706	28.0783	0.033031	0.001903	17.3602	142.36	-163.291	0.071729	0.713324	-0.318827	-0.320155	-0.006138	17.3602	-0.318562	-8860.67	6.927084E-7	NaN
447	1.000000	0.722670	7.36943e+06	-54739.1	1005.82	-29743.1	0.000000	0.000000	6.723040	0.002672	NaN	0.000000	0.001573	0.001747	28.0782	0.064378	0.001989	32.3609	-2.031887	-166.231	0.040252	0.721347	-0.310808	-0.312131	0.002672	32.3609	-0.310870	-6822.34	-3.917033E-7	NaN
447	1.000000	0.730689	7.36943e+06	-54739.1	1005.82	-29743.1	0.000000	0.000000	6.731060	0.023523	NaN	0.000000	0.001561	0.001755	28.0784	0.075312	0.001971	38.207	-9.783521	-165.905	-0.083916	0.729369	-0.302789	-0.304109	0.023523	38.207	-0.303251	-5259.98	-4.471990E-6	NaN
447	1.000000	0.738684	7.36943e+06	-54739.1	1005.82	-29743.1	0.000000	0.000000	6.739053	-0.033000	NaN	0.000000	0.001586	0.001749	28.0793	0.049200	0.002038	24.1471	-69.4335	-165.314	-0.049620	0.737392	-0.294794	-0.296087	-0.033000	24.1471	-0.293769	-3799.25	8.685990E-6	NaN
447	1.000000	0.746685	7.36943e+06	-54739.1	1005.82	-29743.1	0.000000	0.000000	6.747057	0.037092	NaN	0.000000	0.001586	0.001756	28.0796	0.052202	0.001976	26.42	-155.979	-164.989	0.074206	0.745337	-0.286793	-0.288141	0.037092	26.42	-0.287846	-3097.51	-1.197485E-5	NaN
447	1.000000	0.754670	7.36943e+06	-54739.1	1005.82	-29743.1	0.000000	0.000000	6.755040	-0.007457	NaN	0.000000	0.001575	0.001733	28.0795	0.018393	0.001999	9.200583	95.8616	-165.79	-0.063354	0.753351	-0.278809	-0.280127	-0.007457	9.200583	-0.278201	-2217.21	3.363415E-6	NaN
447	1.000000	0.762680	7.36943e+06	-54739.1	1005.82	-29743.1	0.000000	0.000000	6.763052	0.033785	NaN	0.000000	0.001554	0.001767	28.0797	0.018476	0.002036	9.076703	-69.0655	-163.961	0.101886	0.761387	-0.270798	-0.272091	0.033785	9.076703	-0.273590	-1888.16	-1.789329E-5	NaN
447	1.000000	0.770678	7.36943e+06	-54739.1	1005.82	-29743.1	0.000000	0.000000	6.771048	-0.009627	NaN	0.000000	0.001546	0.001769	28.0797	0.030947	0.002007	15.4227	-99.7788	-164.146	-0.047249	0.769368	-0.262800	-0.264110	-0.009627	15.4227	-0.262332	-1272.41	7.565914E-6	NaN
447	1.000000	0.778678	7.36943e+06	-54739.1	1005.82	-29743.1	0.000000	0.000000	6.779050	0.028113	NaN	0.000000	0.001568	0.001732	28.0796	0.078265	0.002117	36.9682	-175.683	-168.191	-0.011145	0.777366	-0.254800	-0.256112	0.028113	36.9682	-0.255370	-994.983	-2.825490E-5	NaN
447	1.000000	0.786697	7.36943e+06	-54739.1	1005.82	-29743.1	0.000000	0.000000	6.787069	0.048341	NaN	0.000000	0.001560	0.001728	28.0798	0.055144	0.001934	28.5156	61.0307	-166.03	0.047364	0.785297	-0.246782	-0.248181	0.048341	28.5156	-0.248053	-767.056	-6.302118E-5	NaN
447	1.000000	0.794701	7.36943e+06	-54739.1	1005.82	-29743.1	0.000000	0.000000	6.795069	-0.067882	NaN	0.000000	0.001545	0.001704	28.0796	0.062619	0.001975	31.7103	-93.0719	-168.08	-0.013977	0.793400	-0.238777	-0.240078	-0.067882	31.7103	-0.237172	-519.168	0.000131	NaN
447	1.000000	0.802694	7.36943e+06	-54739.1	1005.82	-29743.1	0.000000	0.000000	6.803068	0.074861	NaN	0.000000	0.001541	0.001718	28.0797	0.071088	0.001966	36.157	129.174	-163.678	0.086337	0.801380	-0.230784	-0.232098	0.074861	36.157	-0.232337	-435.879	-0.000172	NaN
447	1.000000	0.810665	7.36943e+06	-54739.1	1005.82	-29743.1	0.000000	0.000000	6.811037	0.050274	NaN	0.000000	0.001526	0.001735	28.0796	0.032729	0.002138	15.306	82.3771	-167.614	0.005374	0.809380	-0.222813	-0.224098	0.050274	15.306	-0.225277	-337.077	-0.000149	NaN
447	1.000000	0.818682	7.36943e+06	-54739.1	1005.82	-29743.1	0.000000	0.000000	6.819054	0.038170	NaN	0.000000	0.001550	0.001750	28.0794	0.016905	0.002006	8.429064	68.7039	-164.171	0.074709	0.817380	-0.214796	-0.216098	0.038170	8.429064	-0.218193	-259.873	-0.000147	NaN
447	1.000000	0.826671	7.36943e+06	-54739.1	1005.82	-29743.1	0.000000	0.000000	6.827040	-0.032777	NaN	0.000000	0.001585	0.001693	28.0796	0.036365	0.001952	18.6251	-146.311	-163.443	-0.019496	0.825383	-0.206807	-0.208095	-0.032777	18.6251	-0.205487	-161.996	0.000202	NaN
447	1.000000	0.834681	7.36943e+06	-54739.1	1005.82	-29743.1	0.000000	0.000000	6.835052	0.017303	NaN	0.000000	0.001525	0.001694	28.0794	0.163399	0.001868	87.4853	-107.106	-164.755	0.014234	0.833422	-0.198797	-0.200056	0.017303	87.4853	-0.198946	-126.578	-0.000137	NaN
447	1.000000	0.842708	7.36943e+06	-54739.1	1005.82	-29743.1	0.000000	0.000000	6.843078	-0.026776	NaN	0.000000	0.001584	0.001721	28.0798	0.010922	0.002055	5.314463	179.869	-167.464	0.028512	0.841391	-0.190770	-0.192087	-0.026776	5.314463	-0.186991	-80.1001	0.000334	NaN
447	1.000000	0.850735	7.36943e+06	-54739.1	1005.82	-29743.1	0.000000	0.000000	6.851108	0.055512	NaN	0.000000	0.001581	0.001723	28.0795	0.029026	0.002036	14.2531	31.4857	-164.628	0.025295	0.849408	-0.182743	-0.184070	0.055512	14.2531	-0.185664	-76.088	-0.000730	NaN
447	1.000000	0.858729	7.36943e+06	-54739.1	1005.82	-29743.1	0.000000	0.000000	6.859099	-0.013780	NaN	0.000000	0.001581	0.001726	28.0795	0.101340	0.002065	49.082	149.147	-164.083	-0.059579	0.857458	-0.174749	-0.176020	-0.013780	49.082	-0.174538	-49.2091	0.000280	NaN
447	1.000000	0.866692	7.36943e+06	-54739.1	1005.82	-29743.1	0.000000	0.000000	6.867062	-0.013710	NaN	0.000000	0.001564	0.001759	28.0795	0.031685	0.001940	16.3306	104.059	-165.748	-0.058481	0.865369	-0.166786	-0.168109	-0.013710	16.3306	-0.166156	-35.2035	0.000389	NaN
447	1.000000	0.874712	7.36943e+06	-54739.1	1005.82	-29743.1	0.000000	0.000000	6.875083	0.011627	NaN	0.000000	0.001555	0.001732	28.0781	0.053930	0.001901	28.3637	-24.5374	-167.08	0.004237	0.873410	-0.158766	-0.160068	0.011627	28.3637	-0.159074	-26.3941	-0.000441	NaN
447	1.000000	0.882730	7.36943e+06	-54739.1	1005.82	-29743.1	0.000000	0.000000	6.883102	0.019866	NaN	0.000000	0.001558	0.001708	28.0783	0.041113	0.001940	21.1939	-90.7953	-167.616	0.004742	0.881422	-0.150748	-0.152056	0.019866	21.1939	-0.151451	-19.2492	-0.001032	NaN
447	1.000000	0.890730	7.36943e+06	-54739.1	1005.82	-29743.1	0.000000	0.000000	6.891101	-0.001306	NaN	0.000000	0.001581	0.001712	28.0781	0.049418	0.001924	25.6874	-37.3419	-165.702	0.011565	0.889404	-0.142748	-0.144074	-0.001306	25.6874	-0.142710	-13.2939	9.823643E-5	NaN
447	1.000000	0.898726	7.36943e+06	-54739.1	1005.82	-29743.1	0.000000	0.000000	6.899094	-0.064842	NaN	0.000000	0.001553	0.001709	28.0784	0.110799	0.002166	51.143	-7.690557	-163.927	-0.002842	0.897422	-0.134752	-0.136057	-0.064842	51.143	-0.133801	-9.023235	0.007186	NaN
447	1.000000	0.906740	7.36943e+06	-54739.1	1005.82	-29743.1	0.000000	0.000000	6.907112	0.020025	NaN	0.000000	0.001548	0.001720	28.0782	0.030644	0.001991	15.3951	-25.9847	-165.413	-0.032138	0.905453	-0.126738	-0.128025	0.020025	15.3951	-0.127713	-6.877155	-0.002912	NaN
447	1.000000	0.914755	7.36943e+06	-54739.1	1005.82	-29743.1	0.000000	0.000000	6.915126	0.002826	NaN	0.000000	0.001550	0.001716	28.0782	0.087054	0.002035	42.7692	106.37	-167.866	-0.013787	0.913472	-0.118723	-0.120006	0.002826	42.7692	-0.118772	-4.562892	-0.000619	NaN
447	1.000000	0.922732	7.36943e+06	-54739.1	1005.82	-29743.1	0.000000	0.000000	6.923104	0.042100	NaN	0.000000	0.001577	0.001740	28.0786	0.042019	0.001990	21.1189	-85.7512	-163.87	0.030000	0.921455	-0.110746	-0.112023	0.042100	21.1189	-0.112241	-3.348745	-0.012572	NaN
447	1.000000	0.930710	7.36943e+06	-54739.1	1005.82	-29743.1	0.000000	0.000000	6.931078	-0.046256	NaN	0.000000	0.001570	0.001694	28.0783	0.024307	0.002089	11.6379	-13.1659	-164.737	-0.104229	0.929483	-0.102769	-0.103996	-0.046256	11.6379	-0.099788	-1.807434	0.025592	NaN
447	1.000000	0.938767	7.36943e+06	-54739.1	1005.82	-29743.1	0.000000	0.000000	6.939139	0.037231	NaN	0.000000	0.001566	0.001750	28.0782	0.087922	0.001968	44.6777	95.6347	-164.767	0.019311	0.937427	-0.094711	-0.096051	0.037231	44.6777	-0.095336	-1.435689	-0.025933	NaN
447	1.000000	0.946750	7.36943e+06	-54739.1	1005.82	-29743.1	0.000000	0.000000	6.947121	0.004842	NaN	0.000000	0.001532	0.001703	28.0782	0.059561	0.001918	31.0616	-6.358337	-163.317	-0.019337	0.945436	-0.086728	-0.088042	0.004842	31.0616	-0.086845	-0.910070	-0.005320	NaN
447	1.000000	0.954757	7.36943e+06	-54739.1	1005.82	-29743.1	0.000000	0.000000	6.955128	0.014395	NaN	0.000000	0.001562	0.001761	28.0782	0.025193	0.002046	12.3156	-126.072	-161.574	-0.020787	0.953438	-0.078721	-0.080040	0.014395	12.3156	-0.079598	-0.604808	-0.023800	NaN
447	1.000000	0.962778	7.36943e+06	-54739.1	1005.82	-29743.1	0.000000	0.000000	6.963147	-0.040787	NaN	0.000000	0.001572	0.001739	28.0784	0.100688	0.002014	49.99	-15.0397	-162.889	-0.006688	0.961430	-0.070700	-0.072048	-0.040787	49.99	-0.070088	-0.342973	0.118921	NaN
447	1.000000	0.970747	7.36943e+06	-54739.1	1005.82	-29743.1	0.000000	0.000000	6.971118	0.006897	NaN	0.000000	0.001532	0.001722	28.0782	0.041801	0.001930	21.6622	136.328	-165.632	0.031003	0.969449	-0.062731	-0.064029	0.006897	21.6622	-0.062970	-0.218711	-0.031535	NaN
447	1.000000	0.978764	7.36943e+06	-54739.1	1005.82	-29743.1	0.000000	0.000000	6.979135	-0.005396	NaN	0.000000	0.001533	0.001686	28.0782	0.095698	0.001949	49.0946	-105.699	-165.454	0.016454	0.977437	-0.054714	-0.056041	-0.005396	49.0946	-0.054631	-0.125585	0.042966	NaN
447	1.000000	0.986782	7.36944e+06	-54739.1	1005.82	-29743.1	0.000000	0.000000	6.987156	0.068405	NaN	0.000000	0.001532	0.001731	28.0783	0.010869	0.002023	5.373406	-152.242	-169.231	0.115230	0.985379	-0.046696	-0.048099	0.068405	5.373406	-0.056244	-0.140111	-0.488222	NaN
447	1.000000	0.994775	7.36944e+06	-54739.1	1005.82	-29743.1	0.000000	0.000000	6.995146	-0.003858	NaN	0.000000	0.001557	0.001708	28.0785	0.041359	0.002109	19.6109	27.5007	-161.467	-0.022501	0.993488	-0.038703	-0.039990	-0.003858	19.6109	-0.038555	-0.040889	0.094345	NaN
447	1.000000	1.002793	7.36944e+06	-54739.1	1005.82	-29743.1	0.000000	0.000000	7.003162	-0.018662	NaN	0.000000	0.001591	0.001692	28.0782	0.136322	0.002065	66.0019	-89.7685	-163.347	-0.026130	1.001453	-0.030685	-0.032025	-0.018662	66.0019	-0.030473	-0.023725	0.786610	NaN
447	1.000000	1.010777	7.36944e+06	-54739.1	1005.82	-29743.1	0.000000	0.000000	7.011148	0.013477	NaN	0.000000	0.001588	0.001736	28.0794	0.084461	0.002146	39.3622	179.364	-168.015	-0.065970	1.009515	-0.022701	-0.023963	0.013477	39.3622	-0.022957	-0.014939	-0.902166	NaN
447	1.000000	1.018816	7.36944e+06	-54739.1	1005.82	-29743.1	0.000000	0.000000	7.019186	-0.010596	NaN	0.000000	0.001606	0.001745	28.0797	0.044414	0.001893	23.4599	118.164	-168.326	0.086209	1.017430	-0.014662	-0.016048	-0.010596	23.4599	-0.014324	-0.008873	1.194174	NaN
447	1.000000	1.026767	7.36944e+06	-54739.1	1005.82	-29743.1	0.000000	0.000000	7.027137	-0.024153	NaN	0.000000	0.001604	0.001727	28.0794	0.072559	0.001929	37.6105	-138.104	-165.553	-0.144322	1.025499	-0.006711	-0.007979	-0.024153	37.6105	-0.006229	-0.004176	5.783762	NaN
447	1.000000	1.034802	7.36944e+06	-54739.1	1005.82	-29743.1	0.000000	0.000000	7.035175	0.063958	NaN	0.000000	0.001594	0.001745	28.0796	0.158574	0.002003	79.1639	32.9881	-167.175	0.010045	1.033445	0.001324	-3.329681E-5	0.063958	79.1639	0.000718	0.000544	117.523	3100.37
447	1.000000	1.042736	7.36944e+06	-54739.1	1005.82	-29743.1	0.000000	0.000000	7.043330	5.445458	NaN	0.000000	0.001599	0.001738	28.0792	5.994529	0.001794	3341.39	16.9469	-173.38	4.282422	1.041442	0.009258	0.007963	5.445458	3341.39	0.008035	0.007079	769.275	36284.7
447	2.000000	1.047323	7.36944e+06	-54739.1	1005.82	-29743.1	0.000000	0.000000	7.048120	10.3541	NaN	0.000000	0.001622	0.001700	28.0795	10.1324	0.001444	7016.9	0.013563	-169.723	9.335776	1.047044	0.013845	0.013566	10.3541	7016.9	0.012738	0.012387	835.911	57602.7
447	2.000000	1.049318	7.36944e+06	-54739.1	1005.82	-29743.1	0.000000	0.000000	7.050260	13.8923	NaN	0.000000	0.001614	0.001716	28.0796	12.6349	0.001667	7581.35	7.789517	-175.885	13.6168	1.048992	0.015840	0.015513	13.8923	7581.35	0.014466	0.014579	952.879	57365.6
447	2.000000	1.051362	7.36944e+06	-54739.1	1005.82	-29743.1	0.000000	0.000000	7.052505	18.7961	NaN	0.000000	0.001591	0.001743	28.0796	15.1109	0.001705	8862.6	2.629572	-170.432	19.5858	1.050967	0.017883	0.017489	18.7961	8862.6	0.016293	0.017048	1102.52	62014.7
447	2.000000	1.053283	7.36944e+06	-54739.1	1005.82	-29743.1	0.000000	0.000000	7.054499	20.5535	NaN	0.000000	0.001583	0.001715	28.0798	17.1667	0.001731	9918.89	6.613042	-177.272	20.0392	1.052968	0.019804	0.019490	20.5535	9918.89	0.018250	0.019867	1034.55	64293.7
447	2.000000	1.055273	7.36944e+06	-54739.1	1005.82	-29743.1	0.000000	0.000000	7.056651	24.4871	NaN	0.000000	0.001577	0.001757	28.0794	19.8196	0.001778	11147.3	6.073843	-177.8	24.6773	1.055003	0.021795	0.021524	24.4871	11147.3	0.020147	0.022774	1075.22	67487.4
447	2.000000	1.057297	7.36944e+06	-54739.1	1005.82	-29743.1	0.000000	0.000000	7.058843	28.5835	NaN	0.000000	0.001565	0.001766	28.0802	20.5085	0.001596	12850	3.065201	-176.92	28.4068	1.056964	0.023819	0.023485	28.5835	12850	0.022151	0.026035	1097.88	72760.5
447	2.000000	1.059251	7.36944e+06	-54739.1	1005.82	-29743.1	0.000000	0.000000	7.060931	31.852	NaN	0.000000	0.001578	0.001770	28.0795	22.9443	0.001746	13138.6	4.962879	-177.931	31.6584	1.058987	0.025773	0.025509	31.852	13138.6	0.023954	0.029141	1093.04	70319.1
447	2.000000	1.061278	7.36944e+06	-54739.1	1005.82	-29743.1	0.000000	0.000000	7.063205	37.8425	NaN	0.000000	0.001585	0.001750	28.0793	24.8144	0.001696	14631.3	3.469806	-177.228	38.0164	1.060929	0.027800	0.027450	37.8425	14631.3	0.025860	0.032599	1160.84	74037.6
447	2.000000	1.063190	7.36944e+06	-54739.1	1005.82	-29743.1	0.000000	0.000000	7.065358	43.7152	NaN	0.000000	0.001566	0.001738	28.0796	26.939	0.001759	15314.9	5.025001	-179.732	42.0878	1.062915	0.029711	0.029437	43.7152	15314.9	0.027571	0.035859	1219.09	73890.6
447	2.000000	1.065264	7.36944e+06	-54739.1	1005.82	-29743.1	0.000000	0.000000	7.067513	45.6864	NaN	0.000000	0.001578	0.001751	28.0792	30.6766	0.001956	15687.2	10.3242	175.624	46.4942	1.064922	0.031785	0.031444	45.6864	15687.2	0.029601	0.039921	1144.41	71732.9
447	2.000000	1.067195	7.36944e+06	-54739.1	1005.82	-29743.1	0.000000	0.000000	7.069770	53.5863	NaN	0.000000	0.001573	0.001769	28.0799	31.2652	0.001801	17360.3	6.432116	177.782	51.978	1.066891	0.033717	0.033413	53.5863	17360.3	0.031402	0.043700	1226.23	75873.4
447	2.000000	1.069225	7.36944e+06	-54739.1	1005.82	-29743.1	0.000000	0.000000	7.072086	60.5419	NaN	0.000000	0.001595	0.001780	28.0794	33.0905	0.001848	17906.1	3.920789	-178.711	60.0231	1.068900	0.035747	0.035422	60.5419	17906.1	0.033211	0.047663	1270.22	74935.1
447	2.000000	1.071225	7.36944e+06	-54739.1	1005.82	-29743.1	0.000000	0.000000	7.074364	67.3032	NaN	0.000000	0.001591	0.001758	28.0782	34.8231	0.001828	19051.1	3.632857	179.566	65.4275	1.070866	0.037747	0.037388	67.3032	19051.1	0.035097	0.051973	1294.97	76349.3
447	2.000000	1.073213	7.36944e+06	-54739.1	1005.82	-29743.1	0.000000	0.000000	7.076710	75.9984	NaN	0.000000	0.001560	0.001807	28.0781	36.715	0.001806	20330	5.636992	177.905	76.2681	1.072908	0.039735	0.039430	75.9984	20330	0.036932	0.056339	1348.94	78253.8
447	2.000000	1.075187	7.36944e+06	-54739.1	1005.82	-29743.1	0.000000	0.000000	7.078930	81.9673	NaN	0.000000	0.001565	0.001762	28.0782	39.7241	0.001918	20708.7	4.671336	178.037	80.7623	1.074928	0.041709	0.041450	81.9673	20708.7	0.038741	0.060814	1347.83	76722.8
447	2.000000	1.077202	7.36944e+06	-54739.1	1005.82	-29743.1	0.000000	0.000000	7.081370	92.3213	NaN	0.000000	0.001574	0.001779	28.0789	40.0179	0.001723	23229.5	2.684631	179.84	90.6498	1.076902	0.043724	0.043424	92.3213	23229.5	0.040743	0.065964	1399.58	82634.6
447	2.000000	1.079230	7.36944e+06	-54739.1	1005.82	-29743.1	0.000000	0.000000	7.083572	96.5527	NaN	0.000000	0.001587	0.001745	28.0781	42.3505	0.001811	23390.9	2.354839	178.663	97.5771	1.078864	0.045751	0.045385	96.5527	23390.9	0.042656	0.071071	1358.54	80162.9
447	2.000000	1.081241	7.36944e+06	-54739.1	1005.82	-29743.1	0.000000	0.000000	7.086059	108.11	NaN	0.000000	0.001588	0.001753	28.0783	45.2002	0.001851	24415.4	7.605087	174.328	107.342	1.080851	0.047763	0.047373	108.11	24415.4	0.044442	0.076012	1422.29	80908.9
447	2.000000	1.083226	7.36944e+06	-54739.1	1005.82	-29743.1	0.000000	0.000000	7.088336	115.23	NaN	0.000000	0.001600	0.001732	28.0783	45.951	0.001804	25469.4	2.657395	178.311	115.201	1.082868	0.049748	0.049390	115.23	25469.4	0.046355	0.081479	1414.22	81520.9
447	2.000000	1.085211	7.36944e+06	-54739.1	1005.82	-29743.1	0.000000	0.000000	7.090809	127.089	NaN	0.000000	0.001588	0.001730	28.0781	48.5493	0.001943	24981.7	4.421867	176.718	125.949	1.084912	0.051733	0.051434	127.089	24981.7	0.047917	0.086084	1476.33	77791.6
447	2.000000	1.087162	7.36944e+06	-54739.1	1005.82	-29743.1	0.000000	0.000000	7.093045	133.993	NaN	0.000000	0.001582	0.001727	28.0795	48.548	0.001649	29444.4	4.056870	175.65	134.117	1.086981	0.053684	0.053503	133.993	29444.4	0.050271	0.093253	1436.88	88093.6
447	2.000000	1.089202	7.36944e+06	-54739.1	1005.82	-29743.1	0.000000	0.000000	7.095532	144.874	NaN	0.000000	0.001594	0.001773	28.0781	51.4554	0.001747	29460.3	4.520230	175.207	143.795	1.088939	0.055724	0.055461	144.874	29460.3	0.052036	0.098810	1466.18	85626.7
447	2.000000	1.091217	7.36944e+06	-54739.1	1005.82	-29743.1	0.000000	0.000000	7.097979	155.385	NaN	0.000000	0.001599	0.001756	28.0781	54.0115	0.001885	28653.8	6.474318	173.904	153.775	1.090883	0.057739	0.057404	155.385	28653.8	0.053672	0.104099	1492.67	81139.4
447	2.000000	1.093185	7.36944e+06	-54739.1	1005.82	-29743.1	0.000000	0.000000	7.100247	162.672	NaN	0.000000	0.001580	0.001743	28.0781	55.0991	0.001762	31270	4.692521	174.476	160.774	1.092842	0.059706	0.059364	162.672	31270	0.055805	0.111196	1462.92	85675.3
447	2.000000	1.095146	7.36944e+06	-54739.1	1005.82	-29743.1	0.000000	0.000000	7.102542	170.792	NaN	0.000000	0.001584	0.001757	28.078	56.8315	0.001860	30560.7	1.186627	178.048	169.295	1.094961	0.061667	0.061483	170.792	30560.7	0.057476	0.116913	1460.85	81659.1
447	2.000000	1.097161	7.36944e+06	-54739.1	1005.82	-29743.1	0.000000	0.000000	7.105185	186.053	NaN	0.000000	0.001541	0.001745	28.0785	57.6094	0.001723	33439.3	4.596929	174.505	184.753	1.096817	0.063683	0.063339	186.053	33439.3	0.059510	0.124058	1499.72	86739.5
447	2.000000	1.099172	7.36944e+06	-54739.1	1005.82	-29743.1	0.000000	0.000000	7.107582	195.434	NaN	0.000000	0.001602	0.001756	28.078	59.7522	0.001914	31219.9	3.581607	175.954	193.743	1.098818	0.065694	0.065340	195.434	31219.9	0.060999	0.129415	1510.13	79288.9
447	2.000000	1.101227	7.36944e+06	-54739.1	1005.82	-29743.1	0.000000	0.000000	7.110152	207.963	NaN	0.000000	0.001600	0.001765	28.0782	61.8837	0.001834	33733.8	9.474124	169.88	209.461	1.100855	0.067749	0.067377	207.963	33733.8	0.063126	0.137254	1515.16	83190.9
447	2.000000	1.103183	7.36944e+06	-54739.1	1005.82	-29743.1	0.000000	0.000000	7.112508	217.685	NaN	0.000000	0.001628	0.001758	28.0782	62.5553	0.001706	36666.5	6.200851	172.003	218.15	1.102864	0.069704	0.069386	217.685	36666.5	0.065252	0.145311	1498.06	87880.7
447	2.000000	1.105165	7.36944e+06	-54739.1	1005.82	-29743.1	0.000000	0.000000	7.114962	229.157	NaN	0.000000	0.001604	0.001739	28.0791	64.9633	0.001781	36483.8	2.458298	175.514	227.617	1.104877	0.071687	0.071399	229.157	36483.8	0.066976	0.152004	1507.57	85495.9
447	2.000000	1.107116	7.36944e+06	-54739.1	1005.82	-29743.1	0.000000	0.000000	7.117459	242.437	NaN	0.000000	0.001601	0.001750	28.0795	65.996	0.001836	35946.2	3.968777	174.512	239.794	1.106835	0.073638	0.073357	242.437	35946.2	0.068580	0.158358	1530.95	82529.1
447	2.000000	1.109163	7.36944e+06	-54739.1	1005.82	-29743.1	0.000000	0.000000	7.119828	250.25	NaN	0.000000	0.001547	0.001768	28.0791	68.0653	0.001802	37778.8	0.456873	177.259	249.984	1.108817	0.075685	0.075339	250.25	37778.8	0.070717	0.167016	1498.36	84458.3
447	2.000000	1.111226	7.36944e+06	-54739.1	1005.82	-29743.1	0.000000	0.000000	7.122343	261.264	NaN	0.000000	0.001592	0.001801	28.0796	70.1875	0.001858	37785.7	-0.490257	178.101	260.761	1.110914	0.077747	0.077436	261.264	37785.7	0.072562	0.174664	1495.81	82603.4
447	2.000000	1.113177	7.36944e+06	-54739.1	1005.82	-29743.1	0.000000	0.000000	7.124915	276.329	NaN	0.000000	0.001589	0.001771	28.0794	72.2685	0.001802	40100.9	3.727753	173.265	276.621	1.112931	0.079699	0.079453	276.329	40100.9	0.074531	0.183006	1509.95	85643.5
447	2.000000	1.115104	7.36944e+06	-54739.1	1005.82	-29743.1	0.000000	0.000000	7.127393	289.745	NaN	0.000000	0.001553	0.001782	28.0794	74.3537	0.001873	39694.9	2.936231	174.206	284.952	1.114835	0.081626	0.081356	289.745	39694.9	0.076152	0.190008	1524.91	83199.7
447	2.000000	1.117100	7.36944e+06	-54739.1	1005.82	-29743.1	0.000000	0.000000	7.130020	305.091	NaN	0.000000	0.001554	0.001736	28.0794	76.0863	0.001809	42059.3	7.580226	169.515	301.464	1.116873	0.083621	0.083395	305.091	42059.3	0.078181	0.198951	1533.5	86151.4
447	2.000000	1.119047	7.36944e+06	-54739.1	1005.82	-29743.1	0.000000	0.000000	7.132503	318.108	NaN	0.000000	0.001550	0.001707	28.0794	77.6323	0.001751	44328.6	4.592954	171.519	312.613	1.118786	0.085569	0.085307	318.108	44328.6	0.080187	0.207979	1529.52	88807.1
447	2.000000	1.121160	7.36944e+06	-54739.1	1005.82	-29743.1	0.000000	0.000000	7.135135	330.715	NaN	0.000000	0.001585	0.001723	28.0798	79.9731	0.001861	42979	3.902033	172.691	328.771	1.120849	0.087682	0.087371	330.715	42979	0.081911	0.215888	1531.88	84511.5
447	2.000000	1.123091	7.36944e+06	-54739.1	1005.82	-29743.1	0.000000	0.000000	7.137791	348.369	NaN	0.000000	0.001588	0.001684	28.0792	80.3615	0.001772	45342	0.953009	175.576	344.191	1.122761	0.089613	0.089283	348.369	45342	0.083850	0.224947	1548.67	87344.1
447	2.000000	1.125166	7.36944e+06	-54739.1	1005.82	-29743.1	0.000000	0.000000	7.140421	361.862	NaN	0.000000	0.001580	0.001699	28.0795	84.8463	0.001856	45711.7	6.796049	169.165	361.539	1.124808	0.091687	0.091330	361.862	45711.7	0.085750	0.233994	1546.46	86337.3
447	2.000000	1.127041	7.36944e+06	-54739.1	1005.82	-29743.1	0.000000	0.000000	7.143044	380.016	NaN	0.000000	0.001571	0.001688	28.0792	84.3685	0.001803	46788.7	2.461621	173.616	374.44	1.126830	0.093563	0.093352	380.016	46788.7	0.087471	0.242332	1568.17	86837.8
447	2.000000	1.129087	7.36944e+06	-54739.1	1005.82	-29743.1	0.000000	0.000000	7.145800	397.285	NaN	0.000000	0.001618	0.001690	28.0793	88.2564	0.001879	46957.7	6.071700	170.088	393.939	1.128724	0.095609	0.095246	397.285	46957.7	0.089263	0.251159	1581.81	85606.3
447	2.000000	1.131133	7.36944e+06	-54739.1	1005.82	-29743.1	0.000000	0.000000	7.148316	408.722	NaN	0.000000	0.001585	0.001698	28.0797	89.4357	0.001788	50023.7	6.868897	168.854	405.786	1.130739	0.097655	0.097261	408.722	50023.7	0.091527	0.262517	1556.93	89201.1
447	2.000000	1.133102	7.36944e+06	-54739.1	1005.82	-29743.1	0.000000	0.000000	7.150955	424.993	NaN	0.000000	0.001574	0.001713	28.0793	90.7659	0.001867	48607.7	5.234080	171.035	422.512	1.132687	0.099624	0.099208	424.993	48607.7	0.093066	0.270378	1571.85	85406.8
447	2.000000	1.135123	7.36944e+06	-54739.1	1005.82	-29743.1	0.000000	0.000000	7.153457	436.688	NaN	0.000000	0.001594	0.001726	28.0793	92.9035	0.001742	53328.3	4.434308	170.469	435.132	1.134933	0.101645	0.101455	436.688	53328.3	0.095503	0.283042	1542.84	91581
447	2.000000	1.137090	7.36944e+06	-54739.1	1005.82	-29743.1	0.000000	0.000000	7.156150	454.354	NaN	0.000000	0.001582	0.001684	28.0792	93.0339	0.001729	53793.6	3.675422	171.307	450.566	1.136849	0.103612	0.103370	454.354	53793.6	0.097277	0.292428	1553.73	90885.4
447	2.000000	1.139125	7.36944e+06	-54739.1	1005.82	-29743.1	0.000000	0.000000	7.158971	473.454	NaN	0.000000	0.001599	0.001695	28.0785	94.8635	0.001718	55229.1	-0.413031	175.267	471.311	1.138811	0.105647	0.105333	473.454	55229.1	0.099217	0.302861	1563.27	91689.4
447	2.000000	1.141164	7.36944e+06	-54739.1	1005.82	-29743.1	0.000000	0.000000	7.161748	491.389	NaN	0.000000	0.001600	0.001709	28.0784	98.8832	0.001754	56383.1	8.336798	167.008	489.334	1.140731	0.107686	0.107253	491.389	56383.1	0.101149	0.313422	1567.82	92014.8
447	2.000000	1.143168	7.36944e+06	-54739.1	1005.82	-29743.1	0.000000	0.000000	7.164353	505.998	NaN	0.000000	0.001597	0.001689	28.0782	101.058	0.001831	55195.4	8.575726	166.504	510.465	1.142752	0.109690	0.109274	505.998	55195.4	0.102815	0.322658	1568.22	88777.9
447	2.000000	1.144592	7.36944e+06	-54739.1	1005.82	-29743.1	0.000000	0.000000	7.166370	520.411	NaN	0.000000	0.001570	0.001710	28.0782	101.887	0.001778	57293.8	4.579387	-9.932724	515.544	1.144307	0.111114	0.110829	520.411	57293.8	0.104301	0.331011	1572.19	90982.8