File: remote_trans/data/nanoindenter/0828-1/data/Data_2025-08-06,11h17m57s/2025-07-22_16-23-58_1_477.txt
2025-07-22, 16:23:58, 1
Index	Phase	Displacement	Time	Pos X	Pos Y	Pos Z	Rot A	Rot B	Piezo Z	Force A	Force B	Gripper	Voltage A	Voltage B	Temperature	Amplitude force	Amplitude pos	Stiffness	Phase shift	Phase excitation	Force A raw	Displacement raw	HMax	HMax raw	Real Force	Real Stiffness	Contact Depth	Area	Hardness	Reduced Mod.
[#]	[#]	[um]	[s]	[um]	[um]	[um]	[m°]	[m°]	[um]	[uN]	[uN]	[V]	[V]	[V]	[°C]	[uN]	[um]	[N/m]	[°]	[°]	[uN]	[um]	[um]	[um]	[uN]	[N/m]	[um]	[um^2]	[MPa]	[MPa]
477	1.000000	0.002430	7.36972e+06	-53239.1	1005.82	-29746.9	0.000000	0.000000	6.002823	0.009233	NaN	0.000000	0.001557	0.001804	28.0831	0.043957	0.001064	41.3094	-49.9034	-164.192	0.117759	0.001104	-1.076583	-1.077910	0.009233	41.3094	-1.076751	-2.442754E+14	-3.779642E-17	NaN
477	1.000000	0.010369	7.36972e+06	-53239.1	1005.82	-29746.9	0.000000	0.000000	6.010761	-0.027890	NaN	0.000000	0.001574	0.001771	28.083	0.036223	0.001036	34.9506	-158.328	-169.456	-0.063554	0.009066	-1.068645	-1.069948	-0.027890	34.9506	-1.068046	-1.866110E+14	1.494553E-16	NaN
477	1.000000	0.018370	7.36972e+06	-53239.1	1005.82	-29746.9	0.000000	0.000000	6.018762	-0.014940	NaN	0.000000	0.001592	0.001804	28.0833	0.010785	0.001690	6.381748	-99.7359	-166.427	0.031996	0.017081	-1.060644	-1.061932	-0.014940	6.381748	-1.058888	-1.405643E+14	1.062863E-16	NaN
477	1.000000	0.026422	7.36972e+06	-53239.1	1005.82	-29746.9	0.000000	0.000000	6.026816	0.022062	NaN	0.000000	0.001539	0.001806	28.0827	0.036141	0.001967	18.3769	150.419	-168.322	0.080218	0.025054	-1.052591	-1.053960	0.022062	18.3769	-1.053492	-1.189461E+14	-1.854828E-16	NaN
477	1.000000	0.034351	7.36972e+06	-53239.1	1005.82	-29746.9	0.000000	0.000000	6.034745	0.039989	NaN	0.000000	0.001613	0.001792	28.0829	0.077743	0.001845	42.1436	-54.6236	-169.535	0.044589	0.033031	-1.044663	-1.045983	0.039989	42.1436	-1.045374	-9.251835E+13	-4.322264E-16	NaN
477	1.000000	0.042382	7.36972e+06	-53239.1	1005.82	-29746.9	0.000000	0.000000	6.042776	0.037085	NaN	0.000000	0.001564	0.001796	28.0829	0.059617	0.002019	29.5273	114.877	-166.677	-0.000963	0.041048	-1.036632	-1.037965	0.037085	29.5273	-1.037574	-7.266735E+13	-5.103461E-16	NaN
477	1.000000	0.050353	7.36972e+06	-53239.1	1005.82	-29746.9	0.000000	0.000000	6.050746	-0.008561	NaN	0.000000	0.001565	0.001764	28.0818	0.053888	0.002119	25.4362	148.438	-167.791	0.041451	0.049066	-1.028660	-1.029947	-0.008561	25.4362	-1.028408	-5.470977E+13	1.564838E-16	NaN
477	1.000000	0.058353	7.36972e+06	-53239.1	1005.82	-29746.9	0.000000	0.000000	6.058749	0.061114	NaN	0.000000	0.001539	0.001790	28.0819	0.073145	0.002073	35.2869	73.1595	-165.582	0.048167	0.057056	-1.020660	-1.021958	0.061114	35.2869	-1.021959	-4.480381E+13	-1.364044E-15	NaN
477	1.000000	0.066350	7.36972e+06	-53239.1	1005.82	-29746.9	0.000000	0.000000	6.066743	0.018486	NaN	0.000000	0.001621	0.001825	28.0819	0.026100	0.001972	13.2341	-150.567	-158.55	0.075969	0.065047	-1.012664	-1.013966	0.018486	13.2341	-1.013711	-3.470010E+13	-5.327233E-16	NaN
477	1.000000	0.074339	7.36972e+06	-53239.1	1005.82	-29746.9	0.000000	0.000000	6.074733	0.031180	NaN	0.000000	0.001583	0.001830	28.0818	0.092545	0.001801	51.3711	34.4339	-166.938	0.038842	0.073085	-1.004675	-1.005929	0.031180	51.3711	-1.005130	-2.659686E+13	-1.172324E-15	NaN
477	1.000000	0.082363	7.36972e+06	-53239.1	1005.82	-29746.9	0.000000	0.000000	6.082757	0.017277	NaN	0.000000	0.001573	0.001796	28.0818	0.069490	0.002056	33.7985	-147.395	-166.399	0.009762	0.081069	-0.996650	-0.997945	0.017277	33.7985	-0.997034	-2.069340E+13	-8.349175E-16	NaN
477	1.000000	0.090347	7.36972e+06	-53239.1	1005.82	-29746.9	0.000000	0.000000	6.090741	0.032781	NaN	0.000000	0.001574	0.001798	28.0819	0.028932	0.002102	13.763	-79.5196	-163.947	0.068046	0.089056	-0.988667	-0.989958	0.032781	13.763	-0.990453	-1.687396E+13	-1.942714E-15	NaN
477	1.000000	0.098395	7.36972e+06	-53239.1	1005.82	-29746.9	0.000000	0.000000	6.098787	-0.014107	NaN	0.000000	0.001593	0.001766	28.082	0.127015	0.002160	58.7959	-35.1974	-167.984	0.063427	0.097084	-0.980619	-0.981929	-0.014107	58.7959	-0.980439	-1.236870E+13	1.140578E-15	NaN
477	1.000000	0.106374	7.36972e+06	-53239.1	1005.82	-29746.9	0.000000	0.000000	6.106772	0.115553	NaN	0.000000	0.001603	0.001793	28.0818	0.099365	0.001917	51.8339	20.417	-167.585	0.038010	0.105102	-0.972640	-0.973911	0.115553	51.8339	-0.974312	-1.022742E+13	-1.129831E-14	NaN
477	1.000000	0.114390	7.36972e+06	-53239.1	1005.82	-29746.9	0.000000	0.000000	6.114782	-0.009065	NaN	0.000000	0.001629	0.001792	28.0819	0.030320	0.001897	15.9856	29.2218	-163.664	-0.064266	0.113064	-0.964624	-0.965950	-0.009065	15.9856	-0.964198	-7.472508E+12	1.213124E-15	NaN
477	1.000000	0.122364	7.36972e+06	-53239.1	1005.82	-29746.9	0.000000	0.000000	6.122757	0.009608	NaN	0.000000	0.001622	0.001817	28.0817	0.060976	0.001825	33.4135	-179.296	-164.539	0.061429	0.121108	-0.956650	-0.957906	0.009608	33.4135	-0.956866	-5.951303E+12	-1.614459E-15	NaN
477	1.000000	0.130422	7.36972e+06	-53239.1	1005.82	-29746.9	0.000000	0.000000	6.130814	-0.024361	NaN	0.000000	0.001577	0.001800	28.0819	0.068019	0.002002	33.9803	-75.4955	-165.819	-0.012704	0.129093	-0.948592	-0.949921	-0.024361	33.9803	-0.948054	-4.526732E+12	5.381521E-15	NaN
477	1.000000	0.138403	7.36972e+06	-53239.1	1005.82	-29746.9	0.000000	0.000000	6.138796	0.024213	NaN	0.000000	0.001602	0.001794	28.0818	0.018891	0.001961	9.632469	92.8469	-167.185	0.083656	0.137070	-0.940611	-0.941944	0.024213	9.632469	-0.942496	-3.809043E+12	-6.356665E-15	NaN
477	1.000000	0.146383	7.36972e+06	-53239.1	1005.82	-29746.9	0.000000	0.000000	6.146777	0.041988	NaN	0.000000	0.001603	0.001852	28.0819	0.043982	0.002039	21.5709	80.2578	-166.548	0.095785	0.145113	-0.932631	-0.933900	0.041988	21.5709	-0.934091	-2.933605E+12	-1.431287E-14	NaN
477	1.000000	0.154392	7.36972e+06	-53239.1	1005.82	-29746.9	0.000000	0.000000	6.154785	0.006985	NaN	0.000000	0.001634	0.001804	28.0818	0.097888	0.001991	49.1686	64.0966	-164.142	-0.049416	0.153052	-0.924621	-0.925962	0.006985	49.1686	-0.924728	-2.192974E+12	-3.185021E-15	NaN
477	1.000000	0.162405	7.36972e+06	-53239.1	1005.82	-29746.9	0.000000	0.000000	6.162797	-0.021379	NaN	0.000000	0.001618	0.001820	28.0817	0.073495	0.001871	39.2784	-130.801	-169.282	-0.048501	0.161106	-0.916609	-0.917908	-0.021379	39.2784	-0.916200	-1.682289E+12	1.270844E-14	NaN
477	1.000000	0.170412	7.36972e+06	-53239.1	1005.82	-29746.9	0.000000	0.000000	6.170806	0.033425	NaN	0.000000	0.001571	0.001802	28.0818	0.017919	0.001853	9.669508	-31.5536	-164.37	0.006687	0.169063	-0.908602	-0.909950	0.033425	9.669508	-0.911194	-1.439772E+12	-2.321571E-14	NaN
477	1.000000	0.178374	7.36972e+06	-53239.1	1005.82	-29746.9	0.000000	0.000000	6.178768	0.021374	NaN	0.000000	0.001586	0.001818	28.0816	0.008042	0.002095	3.837707	53.7401	-165.473	-0.018952	0.177074	-0.900639	-0.901940	0.021374	3.837707	-0.904816	-1.180706E+12	-1.810282E-14	NaN
477	1.000000	0.186429	7.36972e+06	-53239.1	1005.82	-29746.9	0.000000	0.000000	6.186820	-0.055224	NaN	0.000000	0.001571	0.001788	28.083	0.168288	0.002047	82.1946	-7.676604	-169.118	0.002002	0.185136	-0.892584	-0.893878	-0.055224	82.1946	-0.892080	-7.943937E+11	6.951687E-14	NaN
477	1.000000	0.194405	7.36972e+06	-53239.1	1005.82	-29746.9	0.000000	0.000000	6.194793	-0.095711	NaN	0.000000	0.001581	0.001782	28.0828	0.067203	0.001931	34.8043	148.253	-164.843	-0.129854	0.193080	-0.884609	-0.885934	-0.095711	34.8043	-0.882547	-5.903982E+11	1.621130E-13	NaN
477	1.000000	0.202413	7.36972e+06	-53239.1	1005.82	-29746.9	0.000000	0.000000	6.202804	-0.052395	NaN	0.000000	0.001561	0.001797	28.0827	0.048502	0.001896	25.5773	-15.722	-165.749	-0.011978	0.201041	-0.876600	-0.877973	-0.052395	25.5773	-0.875064	-4.676789E+11	1.120310E-13	NaN
477	1.000000	0.210427	7.36972e+06	-53239.1	1005.82	-29746.9	0.000000	0.000000	6.210823	0.069727	NaN	0.000000	0.001543	0.001801	28.0831	0.093202	0.002119	43.9916	-27.2222	-167.918	-0.028797	0.209118	-0.868586	-0.869896	0.069727	43.9916	-0.869775	-3.966457E+11	-1.757922E-13	NaN
477	1.000000	0.218441	7.36972e+06	-53239.1	1005.82	-29746.9	0.000000	0.000000	6.218831	-0.071416	NaN	0.000000	0.001559	0.001777	28.0829	0.045372	0.001969	23.0436	135.592	-166.433	-0.122249	0.217163	-0.860573	-0.861851	-0.071416	23.0436	-0.858249	-2.769579E+11	2.578590E-13	NaN
477	1.000000	0.226424	7.36972e+06	-53239.1	1005.82	-29746.9	0.000000	0.000000	6.226819	0.046262	NaN	0.000000	0.001582	0.001774	28.0828	0.031284	0.001978	15.8199	-147.464	-165.798	-0.004818	0.225062	-0.852590	-0.853951	0.046262	15.8199	-0.854783	-2.485970E+11	-1.860935E-13	NaN
477	1.000000	0.234435	7.36972e+06	-53239.1	1005.82	-29746.9	0.000000	0.000000	6.234827	-0.010065	NaN	0.000000	0.001577	0.001839	28.0828	0.067014	0.002091	32.0532	-33.3623	-163.121	-0.069109	0.233160	-0.844579	-0.845853	-0.010065	32.0532	-0.844343	-1.795248E+11	5.606247E-14	NaN
477	1.000000	0.242439	7.36972e+06	-53239.1	1005.82	-29746.9	0.000000	0.000000	6.242832	-0.000489	NaN	0.000000	0.001583	0.001772	28.0828	0.019142	0.001952	9.805707	-118.683	-164.948	-0.072706	0.241115	-0.836574	-0.837898	-0.000489	9.805707	-0.836537	-1.407256E+11	3.472535E-15	NaN
477	1.000000	0.250436	7.36972e+06	-53239.1	1005.82	-29746.9	0.000000	0.000000	6.250830	0.032566	NaN	0.000000	0.001560	0.001772	28.0827	0.037356	0.002013	18.5588	-16.9552	-164.663	0.033059	0.249143	-0.828578	-0.829871	0.032566	18.5588	-0.829894	-1.143784E+11	-2.847190E-13	NaN
477	1.000000	0.258426	7.36972e+06	-53239.1	1005.82	-29746.9	0.000000	0.000000	6.258818	-0.008379	NaN	0.000000	0.001593	0.001757	28.0829	0.042725	0.001891	22.5899	44.6017	-164.839	-0.010861	0.257173	-0.820588	-0.821841	-0.008379	22.5899	-0.820310	-8.480283E+10	9.880046E-14	NaN
477	1.000000	0.266483	7.36972e+06	-53239.1	1005.82	-29746.9	0.000000	0.000000	6.266876	-0.014366	NaN	0.000000	0.001578	0.001809	28.0828	0.138416	0.001899	72.8701	-107.232	-166.81	0.015394	0.265170	-0.812530	-0.813844	-0.014366	72.8701	-0.812382	-6.620517E+10	2.169946E-13	NaN
477	1.000000	0.274451	7.36972e+06	-53239.1	1005.82	-29746.9	0.000000	0.000000	6.274844	-0.005657	NaN	0.000000	0.001560	0.001810	28.0828	0.020523	0.002013	10.194	-27.8965	-167.82	-0.029121	0.273111	-0.804562	-0.805903	-0.005657	10.194	-0.804146	-5.118422E+10	1.105151E-13	NaN
477	1.000000	0.282455	7.36972e+06	-53239.1	1005.82	-29746.9	0.000000	0.000000	6.282849	0.031368	NaN	0.000000	0.001536	0.001781	28.083	0.052505	0.001925	27.2764	36.955	-167.749	0.006362	0.281138	-0.796559	-0.797876	0.031368	27.2764	-0.797421	-4.148140E+10	-7.561881E-13	NaN
477	1.000000	0.290441	7.36972e+06	-53239.1	1005.82	-29746.9	0.000000	0.000000	6.290831	-0.050274	NaN	0.000000	0.001581	0.001797	28.0828	0.102550	0.002100	48.8276	46.5687	-167.841	-0.026276	0.289184	-0.788573	-0.789830	-0.050274	48.8276	-0.787801	-3.070537E+10	1.637311E-12	NaN
477	1.000000	0.298462	7.36972e+06	-53239.1	1005.82	-29746.9	0.000000	0.000000	6.298857	0.036231	NaN	0.000000	0.001594	0.001796	28.0829	0.067342	0.002025	33.2548	77.4321	-165.334	0.061895	0.297146	-0.780551	-0.781868	0.036231	33.2548	-0.781368	-2.510882E+10	-1.442951E-12	NaN
477	1.000000	0.306455	7.36972e+06	-53239.1	1005.82	-29746.9	0.000000	0.000000	6.306846	-0.034317	NaN	0.000000	0.001549	0.001785	28.0827	0.125590	0.002087	60.182	141.395	-166.363	-0.132274	0.305131	-0.772559	-0.773883	-0.034317	60.182	-0.772131	-1.880529E+10	1.824846E-12	NaN
477	1.000000	0.314458	7.36972e+06	-53239.1	1005.82	-29746.9	0.000000	0.000000	6.314847	-0.081184	NaN	0.000000	0.001546	0.001808	28.0829	0.100992	0.002197	45.9628	-8.349204	-167.851	-0.017652	0.313157	-0.764556	-0.765856	-0.081184	45.9628	-0.763231	-1.423179E+10	5.704415E-12	NaN
477	1.000000	0.322473	7.36972e+06	-53239.1	1005.82	-29746.9	0.000000	0.000000	6.322867	0.030493	NaN	0.000000	0.001559	0.001804	28.0818	0.052396	0.001991	26.3198	121.043	-165.305	-0.005519	0.321142	-0.756541	-0.757871	0.030493	26.3198	-0.757410	-1.185943E+10	-2.571192E-12	NaN
477	1.000000	0.330460	7.36972e+06	-53239.1	1005.82	-29746.9	0.000000	0.000000	6.330852	-0.024856	NaN	0.000000	0.001541	0.001787	28.0815	0.059628	0.002070	28.8089	104.581	-167.419	0.008928	0.329190	-0.748554	-0.749824	-0.024856	28.8089	-0.747907	-8.804847E+9	2.822986E-12	NaN
477	1.000000	0.338505	7.36972e+06	-53239.1	1005.82	-29746.9	0.000000	0.000000	6.338895	-0.065990	NaN	0.000000	0.001528	0.001810	28.0816	0.128724	0.002030	63.4113	158.164	-167.295	-0.071915	0.337147	-0.740509	-0.741866	-0.065990	63.4113	-0.739728	-6.813272E+9	9.685438E-12	NaN
477	1.000000	0.346446	7.36972e+06	-53239.1	1005.82	-29746.9	0.000000	0.000000	6.346836	-0.065254	NaN	0.000000	0.001549	0.001816	28.0814	0.051215	0.002011	25.4645	27.4433	-165.598	0.024240	0.345180	-0.732568	-0.733834	-0.065254	25.4645	-0.730646	-5.124054E+9	1.273477E-11	NaN
477	1.000000	0.354480	7.36972e+06	-53239.1	1005.82	-29746.9	0.000000	0.000000	6.354874	0.037926	NaN	0.000000	0.001559	0.001779	28.0817	0.075544	0.001957	38.6096	-95.5999	-166.401	0.018335	0.353172	-0.724534	-0.725842	0.037926	38.6096	-0.725270	-4.328502E+9	-8.761872E-12	NaN
477	1.000000	0.362500	7.36972e+06	-53239.1	1005.82	-29746.9	0.000000	0.000000	6.362891	-0.051317	NaN	0.000000	0.001564	0.001790	28.0815	0.099410	0.001902	52.2649	-175.843	-168.633	0.014864	0.361148	-0.716513	-0.717866	-0.051317	52.2649	-0.715777	-3.212718E+9	1.597298E-11	NaN
477	1.000000	0.370476	7.36972e+06	-53239.1	1005.82	-29746.9	0.000000	0.000000	6.370868	-0.014856	NaN	0.000000	0.001585	0.001784	28.0816	0.029345	0.001936	15.154	-99.185	-169.653	-0.048867	0.369232	-0.708538	-0.709782	-0.014856	15.154	-0.707802	-2.500668E+9	5.940735E-12	NaN
477	1.000000	0.378475	7.36972e+06	-53239.1	1005.82	-29746.9	0.000000	0.000000	6.378869	0.025777	NaN	0.000000	0.001599	0.001796	28.0818	0.074336	0.002034	36.5545	60.8839	-166.269	0.079413	0.377158	-0.700538	-0.701856	0.025777	36.5545	-0.701067	-2.023506E+9	-1.273885E-11	NaN
477	1.000000	0.386471	7.36972e+06	-53239.1	1005.82	-29746.9	0.000000	0.000000	6.386865	0.044477	NaN	0.000000	0.001602	0.001808	28.0814	0.070321	0.001963	35.8297	143.046	-168.713	0.028778	0.385218	-0.692543	-0.693795	0.044477	35.8297	-0.693474	-1.593631E+9	-2.790944E-11	NaN
477	1.000000	0.394511	7.36972e+06	-53239.1	1005.82	-29746.9	0.000000	0.000000	6.394908	0.093211	NaN	0.000000	0.001593	0.001819	28.0828	0.062239	0.001892	32.8926	-161.266	-166.09	-0.031229	0.393183	-0.684503	-0.685831	0.093211	32.8926	-0.686628	-1.284785E+9	-7.255020E-11	NaN
477	1.000000	0.402483	7.36972e+06	-53239.1	1005.82	-29746.9	0.000000	0.000000	6.402876	0.015213	NaN	0.000000	0.001582	0.001809	28.0815	0.050122	0.002001	25.044	-170.724	-166.205	-0.017323	0.401234	-0.676531	-0.677780	0.015213	25.044	-0.676987	-9.483958E+8	-1.604130E-11	NaN
477	1.000000	0.410529	7.36972e+06	-53239.1	1005.82	-29746.9	0.000000	0.000000	6.410920	-0.036052	NaN	0.000000	0.001603	0.001783	28.0815	0.024561	0.002001	12.2718	-20.4407	-166.913	0.001272	0.409207	-0.668484	-0.669807	-0.036052	12.2718	-0.666281	-6.768368E+8	5.326547E-11	NaN
477	1.000000	0.418521	7.36972e+06	-53239.1	1005.82	-29746.9	0.000000	0.000000	6.418913	-0.035012	NaN	0.000000	0.001579	0.001805	28.0817	0.051803	0.001946	26.6159	-26.1479	-169.9	-0.029477	0.417163	-0.660492	-0.661851	-0.035012	26.6159	-0.659506	-5.466370E+8	6.405039E-11	NaN
477	1.000000	0.426529	7.36972e+06	-53239.1	1005.82	-29746.9	0.000000	0.000000	6.426924	0.055712	NaN	0.000000	0.001548	0.001828	28.0815	0.082697	0.001949	42.4209	26.6291	-166.388	-0.030160	0.425189	-0.652484	-0.653825	0.055712	42.4209	-0.653469	-4.518457E+8	-1.232978E-10	NaN
477	1.000000	0.434531	7.36972e+06	-53239.1	1005.82	-29746.9	0.000000	0.000000	6.434925	0.028122	NaN	0.000000	0.001596	0.001771	28.0816	0.045083	0.002051	21.9766	-155.418	-163.853	-0.008878	0.433200	-0.644483	-0.645813	0.028122	21.9766	-0.645442	-3.507071E+8	-8.018760E-11	NaN
477	1.000000	0.442519	7.36972e+06	-53239.1	1005.82	-29746.9	0.000000	0.000000	6.442913	0.030517	NaN	0.000000	0.001566	0.001736	28.0815	0.047884	0.001897	25.2371	-134.489	-165.382	0.063972	0.441185	-0.636495	-0.637829	0.030517	25.2371	-0.637402	-2.720414E+8	-1.121779E-10	NaN
477	1.000000	0.450510	7.36972e+06	-53239.1	1005.82	-29746.9	0.000000	0.000000	6.450902	-0.017375	NaN	0.000000	0.001571	0.001840	28.0817	0.041211	0.002074	19.8721	154.698	-163.689	0.017182	0.449213	-0.628504	-0.629801	-0.017375	19.8721	-0.627848	-2.011266E+8	8.638741E-11	NaN
477	1.000000	0.458531	7.36972e+06	-53239.1	1005.82	-29746.9	0.000000	0.000000	6.458925	0.030190	NaN	0.000000	0.001574	0.001793	28.0827	0.023272	0.001962	11.8612	-134.096	-167.509	0.084329	0.457217	-0.620482	-0.621796	0.030190	11.8612	-0.622391	-1.692390E+8	-1.783845E-10	NaN
477	1.000000	0.466541	7.36972e+06	-53239.1	1005.82	-29746.9	0.000000	0.000000	6.466933	-0.031252	NaN	0.000000	0.001588	0.001768	28.0828	0.145806	0.001970	74.0268	170.35	-163.434	-0.056723	0.465237	-0.612472	-0.613777	-0.031252	74.0268	-0.612156	-1.223966E+8	2.553350E-10	NaN
477	1.000000	0.474547	7.36972e+06	-53239.1	1005.82	-29746.9	0.000000	0.000000	6.474941	0.028817	NaN	0.000000	0.001602	0.001784	28.083	0.076778	0.001950	39.3817	-5.971405	-163.571	0.028986	0.473223	-0.604466	-0.605790	0.028817	39.3817	-0.605015	-9.761406E+7	-2.952121E-10	NaN
477	1.000000	0.482550	7.36972e+06	-53239.1	1005.82	-29746.9	0.000000	0.000000	6.482941	-0.041421	NaN	0.000000	0.001568	0.001801	28.0824	0.160203	0.002055	77.9739	-78.2691	-165.794	-0.023980	0.481231	-0.596463	-0.597783	-0.041421	77.9739	-0.596065	-7.349463E+7	5.635969E-10	NaN
477	1.000000	0.490531	7.36972e+06	-53239.1	1005.82	-29746.9	0.000000	0.000000	6.490923	-0.018481	NaN	0.000000	0.001563	0.001791	28.083	0.012138	0.001944	6.244675	-127.678	-167.204	0.021555	0.489255	-0.588482	-0.589759	-0.018481	6.244675	-0.586263	-5.384334E+7	3.432410E-10	NaN
477	1.000000	0.498538	7.36972e+06	-53239.1	1005.82	-29746.9	0.000000	0.000000	6.498930	-0.026598	NaN	0.000000	0.001579	0.001843	28.0825	0.120322	0.001967	61.1722	-156.81	-169.846	-0.066375	0.497242	-0.580475	-0.581772	-0.026598	61.1722	-0.580149	-4.433915E+7	5.998722E-10	NaN
477	1.000000	0.506548	7.36972e+06	-53239.1	1005.82	-29746.9	0.000000	0.000000	6.506939	-0.045900	NaN	0.000000	0.001566	0.001801	28.0828	0.064985	0.002027	32.0603	22.2396	-168.254	-0.012489	0.505215	-0.572465	-0.573799	-0.045900	32.0603	-0.571392	-3.356296E+7	1.367592E-9	NaN
477	1.000000	0.514552	7.36972e+06	-53239.1	1005.82	-29746.9	0.000000	0.000000	6.514946	0.022258	NaN	0.000000	0.001578	0.001844	28.0828	0.075379	0.001965	38.3665	-73.2188	-160.504	0.079631	0.513241	-0.564462	-0.565772	0.022258	38.3665	-0.564897	-2.729603E+7	-8.154199E-10	NaN
477	1.000000	0.522560	7.36972e+06	-53239.1	1005.82	-29746.9	0.000000	0.000000	6.522952	0.002266	NaN	0.000000	0.001545	0.001810	28.0827	0.116311	0.002025	57.4495	80.6318	-164.821	0.010622	0.521238	-0.556454	-0.557776	0.002266	57.4495	-0.556484	-2.087973E+7	-1.085228E-10	NaN
477	1.000000	0.530542	7.36972e+06	-53239.1	1005.82	-29746.9	0.000000	0.000000	6.530935	0.011393	NaN	0.000000	0.001570	0.001862	28.0831	0.043496	0.002115	20.5672	138.734	-165.326	0.004047	0.529304	-0.548471	-0.549709	0.011393	20.5672	-0.548887	-1.638845E+7	-6.951595E-10	NaN
477	1.000000	0.538584	7.36972e+06	-53239.1	1005.82	-29746.9	0.000000	0.000000	6.538980	0.069784	NaN	0.000000	0.001565	0.001827	28.0826	0.068386	0.001950	35.0739	35.7048	-167.802	0.069434	0.537270	-0.540429	-0.541744	0.069784	35.0739	-0.541921	-1.312207E+7	-5.318081E-9	NaN
477	1.000000	0.546568	7.36972e+06	-53239.1	1005.82	-29746.9	0.000000	0.000000	6.546963	0.049438	NaN	0.000000	0.001560	0.001812	28.0832	0.028343	0.002025	13.9997	136.081	-167.107	0.108714	0.545240	-0.532446	-0.533774	0.049438	13.9997	-0.535094	-1.055109E+7	-4.685584E-9	NaN
477	1.000000	0.554574	7.36972e+06	-53239.1	1005.82	-29746.9	0.000000	0.000000	6.554967	0.011811	NaN	0.000000	0.001505	0.001814	28.083	0.082461	0.002089	39.469	57.5614	-164.05	-0.006938	0.553243	-0.524439	-0.525771	0.011811	39.469	-0.524664	-7.55857e+06	-1.562545E-9	NaN
477	1.000000	0.562534	7.36972e+06	-53239.1	1005.82	-29746.9	0.000000	0.000000	6.562924	-0.068388	NaN	0.000000	0.001556	0.001834	28.083	0.070381	0.001907	36.9014	76.1263	-167.495	-0.068192	0.561248	-0.516479	-0.517766	-0.068388	36.9014	-0.515089	-5.5626e+06	1.229428E-8	NaN
477	1.000000	0.570557	7.36972e+06	-53239.1	1005.82	-29746.9	0.000000	0.000000	6.570948	-0.030325	NaN	0.000000	0.001550	0.001812	28.0831	0.072359	0.002040	35.4731	-172.187	-164.868	-0.026673	0.569213	-0.508457	-0.509801	-0.030325	35.4731	-0.507816	-4.40543e+06	6.883576E-9	NaN
477	1.000000	0.578559	7.36972e+06	-53239.1	1005.82	-29746.9	0.000000	0.000000	6.578952	0.015341	NaN	0.000000	0.001586	0.001804	28.0829	0.024617	0.001972	12.4808	100.242	-164.844	0.111673	0.577259	-0.500455	-0.501755	0.015341	12.4808	-0.501377	-3.58282e+06	-4.281929E-9	NaN
477	1.000000	0.586571	7.36972e+06	-53239.1	1005.82	-29746.9	0.000000	0.000000	6.586966	0.056809	NaN	0.000000	0.001536	0.001806	28.0833	0.028348	0.002106	13.4602	132.061	-166.259	0.044459	0.585282	-0.492443	-0.493732	0.056809	13.4602	-0.495608	-2.97663e+06	-1.908517E-8	NaN
477	1.000000	0.594548	7.36972e+06	-53239.1	1005.82	-29746.9	0.000000	0.000000	6.594941	0.015182	NaN	0.000000	0.001546	0.001786	28.082	0.007196	0.001965	3.661589	-121.182	-166.308	-0.026238	0.593277	-0.484466	-0.485737	0.015182	3.661589	-0.487575	-2.29881e+06	-6.604288E-9	NaN
477	1.000000	0.602581	7.36972e+06	-53239.1	1005.82	-29746.9	0.000000	0.000000	6.602974	-0.002718	NaN	0.000000	0.001516	0.001798	28.0822	0.042206	0.002098	20.1139	169.537	-163.907	0.056801	0.601276	-0.476433	-0.477738	-0.002718	20.1139	-0.476331	-1.60012e+06	1.698883E-9	NaN
477	1.000000	0.610557	7.36972e+06	-53239.1	1005.82	-29746.9	0.000000	0.000000	6.610947	-0.077061	NaN	0.000000	0.001481	0.001802	28.0819	0.020999	0.002023	10.3819	82.2355	-166.529	-0.029520	0.609248	-0.468457	-0.469765	-0.077061	10.3819	-0.462890	-1.03661e+06	7.433996E-8	NaN
477	1.000000	0.618581	7.36972e+06	-53239.1	1005.82	-29746.9	0.000000	0.000000	6.618974	-0.001306	NaN	0.000000	0.001490	0.001778	28.0816	0.049394	0.001911	25.85	143.677	-166.101	-0.014322	0.617264	-0.460433	-0.461750	-0.001306	25.85	-0.460395	-956237	1.365507E-9	NaN
477	1.000000	0.626619	7.36972e+06	-53239.1	1005.82	-29746.9	0.000000	0.000000	6.627008	-0.086015	NaN	0.000000	0.001535	0.001773	28.0819	0.115475	0.002012	57.3956	-170.615	-166.924	0.007974	0.625330	-0.452394	-0.453684	-0.086015	57.3956	-0.451270	-711592	1.208772E-7	NaN
477	1.000000	0.634594	7.36972e+06	-53239.1	1005.82	-29746.9	0.000000	0.000000	6.634985	-0.047423	NaN	0.000000	0.001558	0.001777	28.0818	0.045452	0.001956	23.2324	162.11	-165.577	0.019768	0.633296	-0.444420	-0.445718	-0.047423	23.2324	-0.442889	-542153	8.747155E-8	NaN
477	1.000000	0.642589	7.36972e+06	-53239.1	1005.82	-29746.9	0.000000	0.000000	6.642983	0.020850	NaN	0.000000	0.001550	0.001806	28.082	0.070383	0.001917	36.723	-177.64	-167.999	-0.042899	0.641300	-0.436424	-0.437714	0.020850	36.723	-0.436850	-445543	-4.679623E-8	NaN
477	1.000000	0.650619	7.36972e+06	-53239.1	1005.82	-29746.9	0.000000	0.000000	6.651010	-0.038570	NaN	0.000000	0.001510	0.001817	28.0816	0.037236	0.002046	18.2018	-159.338	-163.135	-0.042772	0.649291	-0.428395	-0.429722	-0.038570	18.2018	-0.426806	-321260	1.200593E-7	NaN
477	1.000000	0.658631	7.36972e+06	-53239.1	1005.82	-29746.9	0.000000	0.000000	6.659022	-0.046392	NaN	0.000000	0.001513	0.001813	28.0818	0.042347	0.002053	20.6303	125.24	-163.13	0.008843	0.657314	-0.420383	-0.421699	-0.046392	20.6303	-0.418696	-246559	1.881573E-7	NaN
477	1.000000	0.666617	7.36972e+06	-53239.1	1005.82	-29746.9	0.000000	0.000000	6.667013	0.070789	NaN	0.000000	0.001538	0.001809	28.0819	0.095419	0.002006	47.566	-27.5181	-170.353	0.031835	0.665305	-0.412396	-0.413708	0.070789	47.566	-0.413513	-208127	-3.401223E-7	NaN
477	1.000000	0.674610	7.36972e+06	-53239.1	1005.82	-29746.9	0.000000	0.000000	6.675001	-0.034085	NaN	0.000000	0.001560	0.001802	28.0817	0.037250	0.001841	20.2316	-44.0403	-165.921	-0.076223	0.673252	-0.404404	-0.405762	-0.034085	20.2316	-0.403140	-148169	2.300390E-7	NaN
477	1.000000	0.682585	7.36972e+06	-53239.1	1005.82	-29746.9	0.000000	0.000000	6.682980	0.037880	NaN	0.000000	0.001549	0.001795	28.0821	0.062443	0.002148	29.0673	88.9457	-164.946	0.013366	0.681308	-0.396428	-0.397706	0.037880	29.0673	-0.397406	-122739	-3.086230E-7	NaN
477	1.000000	0.690635	7.36972e+06	-53239.1	1005.82	-29746.9	0.000000	0.000000	6.691029	0.033255	NaN	0.000000	0.001546	0.001780	28.0818	0.084037	0.001991	42.1989	90.4279	-168.886	0.011078	0.689314	-0.388379	-0.389699	0.033255	42.1989	-0.388970	-92987.5	-3.576326E-7	NaN
477	1.000000	0.698657	7.36972e+06	-53239.1	1005.82	-29746.9	0.000000	0.000000	6.699049	-0.011392	NaN	0.000000	0.001527	0.001782	28.082	0.034884	0.001891	18.444	44.2854	-163.147	-0.072228	0.697280	-0.380357	-0.381733	-0.011392	18.444	-0.379894	-68923.3	1.652852E-7	NaN
477	1.000000	0.706661	7.36972e+06	-53239.1	1005.82	-29746.9	0.000000	0.000000	6.707053	-0.019901	NaN	0.000000	0.001504	0.001778	28.0818	0.014780	0.002169	6.813483	150.252	-167.489	0.036609	0.705323	-0.372353	-0.373691	-0.019901	6.813483	-0.370162	-49942	3.984822E-7	NaN
477	1.000000	0.714634	7.36972e+06	-53239.1	1005.82	-29746.9	0.000000	0.000000	6.715026	-0.012102	NaN	0.000000	0.001527	0.001781	28.0818	0.010832	0.002022	5.356141	34.6462	-166.5	0.039901	0.713320	-0.364380	-0.365694	-0.012102	5.356141	-0.362685	-38962.2	3.106011E-7	NaN
477	1.000000	0.722625	7.36972e+06	-53239.1	1005.82	-29746.9	0.000000	0.000000	6.723016	-0.040254	NaN	0.000000	0.001528	0.001807	28.0819	0.154254	0.002086	73.9567	154.857	-166.958	-0.016249	0.721300	-0.356389	-0.357713	-0.040254	73.9567	-0.355980	-31166.8	1.291567E-6	NaN
477	1.000000	0.730638	7.36972e+06	-53239.1	1005.82	-29746.9	0.000000	0.000000	6.731030	-0.004140	NaN	0.000000	0.001560	0.001820	28.0824	0.111934	0.001984	56.4096	108.878	-164.091	-0.042136	0.729290	-0.348376	-0.349724	-0.004140	56.4096	-0.348321	-24133.7	1.715525E-7	NaN
477	1.000000	0.738649	7.36972e+06	-53239.1	1005.82	-29746.9	0.000000	0.000000	6.739036	-0.133742	NaN	0.000000	0.001563	0.001806	28.0833	0.010022	0.002153	4.654311	102.569	-163.84	-0.084429	0.737337	-0.340365	-0.341677	-0.133742	4.654311	-0.318814	-8936.62	1.496562E-5	NaN
477	1.000000	0.746664	7.36972e+06	-53239.1	1005.82	-29746.9	0.000000	0.000000	6.747055	-0.037469	NaN	0.000000	0.001511	0.001821	28.0829	0.110499	0.001908	57.9106	32.0027	-165.813	-0.032831	0.745327	-0.332350	-0.333687	-0.037469	57.9106	-0.331864	-13891.3	2.697329E-6	NaN
477	1.000000	0.754663	7.36972e+06	-53239.1	1005.82	-29746.9	0.000000	0.000000	6.755057	0.039612	NaN	0.000000	0.001543	0.001772	28.083	0.050416	0.001992	25.3044	139.971	-166.455	0.030612	0.753373	-0.324351	-0.325640	0.039612	25.3044	-0.325525	-11216.1	-3.531719E-6	NaN
477	1.000000	0.762650	7.36972e+06	-53239.1	1005.82	-29746.9	0.000000	0.000000	6.763044	0.031098	NaN	0.000000	0.001520	0.001793	28.0829	0.164799	0.001996	82.5582	30.4071	-168.443	0.050479	0.761325	-0.316364	-0.317689	0.031098	82.5582	-0.316646	-8302.88	-3.745483E-6	NaN
477	1.000000	0.770670	7.36972e+06	-53239.1	1005.82	-29746.9	0.000000	0.000000	6.771062	-0.036129	NaN	0.000000	0.001579	0.001792	28.0828	0.110900	0.001888	58.7442	-121.156	-168.764	-0.034057	0.769416	-0.308343	-0.309598	-0.036129	58.7442	-0.307882	-6161.61	5.863503E-6	NaN
477	1.000000	0.778662	7.36972e+06	-53239.1	1005.82	-29746.9	0.000000	0.000000	6.779053	-0.024215	NaN	0.000000	0.001564	0.001735	28.0832	0.038598	0.002047	18.853	112.937	-165.659	0.022601	0.777363	-0.300352	-0.301651	-0.024215	18.853	-0.299389	-4608.22	5.254812E-6	NaN
477	1.000000	0.786636	7.36972e+06	-53239.1	1005.82	-29746.9	0.000000	0.000000	6.787027	-0.053195	NaN	0.000000	0.001543	0.001739	28.083	0.016256	0.001986	8.185629	156.142	-162.254	0.014749	0.785362	-0.292377	-0.293652	-0.053195	8.185629	-0.287504	-3061.05	1.737794E-5	NaN
477	1.000000	0.794667	7.36972e+06	-53239.1	1005.82	-29746.9	0.000000	0.000000	6.795061	0.030967	NaN	0.000000	0.001540	0.001747	28.0831	0.040849	0.001961	20.8294	71.9394	-164.511	0.007832	0.793304	-0.284347	-0.285710	0.030967	20.8294	-0.285462	-2852.41	-1.085651E-5	NaN
477	1.000000	0.802695	7.36972e+06	-53239.1	1005.82	-29746.9	0.000000	0.000000	6.803087	-0.026228	NaN	0.000000	0.001552	0.001761	28.0827	0.046653	0.001950	23.9243	22.0564	-164.613	-0.048290	0.801370	-0.276318	-0.277644	-0.026228	23.9243	-0.275496	-2017.95	1.299748E-5	NaN
477	1.000000	0.810681	7.36972e+06	-53239.1	1005.82	-29746.9	0.000000	0.000000	6.811074	0.023031	NaN	0.000000	0.001550	0.001747	28.0844	0.066768	0.002045	32.6559	139.175	-164.124	0.049119	0.809348	-0.268333	-0.269666	0.023031	32.6559	-0.268862	-1600.43	-1.439026E-5	NaN
477	1.000000	0.818675	7.36972e+06	-53239.1	1005.82	-29746.9	0.000000	0.000000	6.819070	0.052654	NaN	0.000000	0.001544	0.001723	28.0852	0.072883	0.001982	36.7794	-106.198	-163.403	0.025271	0.817359	-0.260339	-0.261655	0.052654	36.7794	-0.261412	-1231.83	-4.274439E-5	NaN
477	1.000000	0.826690	7.36972e+06	-53239.1	1005.82	-29746.9	0.000000	0.000000	6.827084	0.011796	NaN	0.000000	0.001530	0.001752	28.0845	0.098068	0.002031	48.2854	113.228	-166.228	0.005681	0.825433	-0.252323	-0.253581	0.011796	48.2854	-0.252507	-898.852	-1.312389E-5	NaN
477	1.000000	0.834671	7.36972e+06	-53239.1	1005.82	-29746.9	0.000000	0.000000	6.835065	0.053834	NaN	0.000000	0.001563	0.001763	28.0839	0.093960	0.002083	45.1038	-115.736	-165.217	-0.025793	0.833361	-0.244343	-0.245653	0.053834	45.1038	-0.245238	-693.674	-7.760651E-5	NaN
477	1.000000	0.842684	7.36972e+06	-53239.1	1005.82	-29746.9	0.000000	0.000000	6.843075	-0.041011	NaN	0.000000	0.001548	0.001774	28.083	0.033814	0.001940	17.4284	-100.22	-164.969	-0.044197	0.841385	-0.236330	-0.237629	-0.041011	17.4284	-0.234565	-472.51	8.679468E-5	NaN
477	1.000000	0.850714	7.36972e+06	-53239.1	1005.82	-29746.9	0.000000	0.000000	6.851106	-0.008348	NaN	0.000000	0.001553	0.001728	28.0831	0.075350	0.001944	38.7535	88.1896	-165.009	0.008242	0.849351	-0.228300	-0.229663	-0.008348	38.7535	-0.228138	-374.186	2.230947E-5	NaN
477	1.000000	0.858703	7.36972e+06	-53239.1	1005.82	-29746.9	0.000000	0.000000	6.859094	-0.033953	NaN	0.000000	0.001547	0.001813	28.0833	0.046910	0.001920	24.4332	52.5764	-164.8	-0.056533	0.857364	-0.220311	-0.221649	-0.033953	24.4332	-0.219269	-270.386	0.000126	NaN
477	1.000000	0.866676	7.36972e+06	-53239.1	1005.82	-29746.9	0.000000	0.000000	6.867067	-0.029095	NaN	0.000000	0.001589	0.001753	28.0823	0.058443	0.002149	27.1908	-4.607847	-162.838	0.050231	0.865425	-0.212338	-0.213589	-0.029095	27.1908	-0.211535	-203.075	0.000143	NaN
477	1.000000	0.874724	7.36972e+06	-53239.1	1005.82	-29746.9	0.000000	0.000000	6.875116	-0.014261	NaN	0.000000	0.001551	0.001736	28.0817	0.099564	0.001979	50.3172	-45.4164	-169.827	-0.058025	0.873381	-0.204289	-0.205633	-0.014261	50.3172	-0.204077	-153.635	9.282117E-5	NaN
477	1.000000	0.882711	7.36972e+06	-53239.1	1005.82	-29746.9	0.000000	0.000000	6.883104	0.006929	NaN	0.000000	0.001599	0.001754	28.0816	0.129334	0.002050	63.0957	136.59	-164.176	0.070307	0.881402	-0.196303	-0.197611	0.006929	63.0957	-0.196385	-114.847	-6.032981E-5	NaN
477	1.000000	0.890730	7.36972e+06	-53239.1	1005.82	-29746.9	0.000000	0.000000	6.891122	-0.037971	NaN	0.000000	0.001553	0.001742	28.0818	0.062745	0.002212	28.3666	-70.4427	-165.603	0.026521	0.889372	-0.188283	-0.189642	-0.037971	28.3666	-0.187279	-80.9975	0.000469	NaN
477	1.000000	0.898696	7.36972e+06	-53239.1	1005.82	-29746.9	0.000000	0.000000	6.899088	-0.018623	NaN	0.000000	0.001545	0.001763	28.0818	0.098212	0.002279	43.0968	-87.7502	-167.181	0.008209	0.897327	-0.180318	-0.181687	-0.018623	43.0968	-0.179994	-61.004	0.000305	NaN
477	1.000000	0.906688	7.36972e+06	-53239.1	1005.82	-29746.9	0.000000	0.000000	6.907081	-0.004854	NaN	0.000000	0.001571	0.001743	28.0817	0.065215	0.001906	34.2178	-76.4983	-165.05	0.012987	0.905395	-0.172326	-0.173619	-0.004854	34.2178	-0.172219	-44.8808	0.000108	NaN
477	1.000000	0.914719	7.36972e+06	-53239.1	1005.82	-29746.9	0.000000	0.000000	6.915111	-0.008071	NaN	0.000000	0.001574	0.001764	28.0819	0.044872	0.001973	22.7402	46.9203	-161.433	-0.009065	0.913391	-0.164295	-0.165623	-0.008071	22.7402	-0.164028	-32.3017	0.000250	NaN
477	1.000000	0.922702	7.36972e+06	-53239.1	1005.82	-29746.9	0.000000	0.000000	6.923095	0.011788	NaN	0.000000	0.001587	0.001700	28.0817	0.047977	0.001909	25.1304	-66.5146	-167.204	0.001685	0.921386	-0.156312	-0.157627	0.011788	25.1304	-0.156663	-23.9028	-0.000493	NaN
477	1.000000	0.930721	7.36972e+06	-53239.1	1005.82	-29746.9	0.000000	0.000000	6.931115	0.027950	NaN	0.000000	0.001615	0.001766	28.0816	0.054440	0.001906	28.5654	5.855180	-162.482	0.072742	0.929392	-0.148292	-0.149622	0.027950	28.5654	-0.149026	-17.3867	-0.001608	NaN
477	1.000000	0.938732	7.36972e+06	-53239.1	1005.82	-29746.9	0.000000	0.000000	6.939124	-0.023533	NaN	0.000000	0.001605	0.001745	28.0818	0.041137	0.001958	21.0114	-64.9087	-168.057	-0.166024	0.937429	-0.140281	-0.141585	-0.023533	21.0114	-0.139441	-11.5469	0.002038	NaN
477	1.000000	0.946735	7.36972e+06	-53239.1	1005.82	-29746.9	0.000000	0.000000	6.947129	0.032942	NaN	0.000000	0.001570	0.001724	28.0817	0.056151	0.002026	27.716	-106.155	-165.798	-0.014305	0.945446	-0.132279	-0.133568	0.032942	27.716	-0.133170	-8.774962	-0.003754	NaN
477	1.000000	0.954711	7.36972e+06	-53239.1	1005.82	-29746.9	0.000000	0.000000	6.955102	-0.033828	NaN	0.000000	0.001530	0.001736	28.0821	0.062912	0.002085	30.1678	-144.872	-166.532	-0.001254	0.953450	-0.124303	-0.125564	-0.033828	30.1678	-0.123462	-5.668525	0.005968	NaN
477	1.000000	0.962734	7.36972e+06	-53239.1	1005.82	-29746.9	0.000000	0.000000	6.963124	-0.063270	NaN	0.000000	0.001561	0.001753	28.0818	0.022736	0.002025	11.2273	-11.7608	-163.766	-0.124286	0.961489	-0.116280	-0.117524	-0.063270	11.2273	-0.112053	-3.318675	0.019065	NaN
477	1.000000	0.970707	7.36972e+06	-53239.1	1005.82	-29746.9	0.000000	0.000000	6.971099	-0.017262	NaN	0.000000	0.001516	0.001741	28.0818	0.032699	0.002114	15.4706	-176.559	-164.448	0.005206	0.969442	-0.108306	-0.109572	-0.017262	15.4706	-0.107470	-2.655799	0.006500	NaN
477	1.000000	0.978768	7.36972e+06	-53239.1	1005.82	-29746.9	0.000000	0.000000	6.979160	-0.030629	NaN	0.000000	0.001560	0.001740	28.0818	0.024418	0.001930	12.652	-72.5652	-167.567	-0.066293	0.977479	-0.100246	-0.101534	-0.030629	12.652	-0.098430	-1.685859	0.018168	NaN
477	1.000000	0.986719	7.36972e+06	-53239.1	1005.82	-29746.9	0.000000	0.000000	6.987111	-0.035384	NaN	0.000000	0.001598	0.001734	28.0818	0.052885	0.002003	26.4057	-88.3098	-166.029	-0.061269	0.985456	-0.092294	-0.093558	-0.035384	26.4057	-0.091289	-1.158643	0.030539	NaN
477	1.000000	0.994740	7.36972e+06	-53239.1	1005.82	-29746.9	0.000000	0.000000	6.995134	0.038119	NaN	0.000000	0.001558	0.001750	28.0821	0.073523	0.002006	36.6524	104.933	-166.915	0.021587	0.993440	-0.084274	-0.085574	0.038119	36.6524	-0.085054	-0.824110	-0.046254	NaN
477	1.000000	1.002753	7.36972e+06	-53239.1	1005.82	-29746.9	0.000000	0.000000	7.003146	0.020130	NaN	0.000000	0.001591	0.001741	28.082	0.042520	0.001958	21.7147	144.704	-164.903	-0.083568	1.001420	-0.076261	-0.077594	0.020130	21.7147	-0.076956	-0.518546	-0.038819	NaN
477	1.000000	1.010732	7.36972e+06	-53239.1	1005.82	-29746.9	0.000000	0.000000	7.011126	0.031114	NaN	0.000000	0.001570	0.001745	28.0832	0.072289	0.001950	37.0626	137.859	-163.009	-0.048550	1.009443	-0.068281	-0.069571	0.031114	37.0626	-0.068911	-0.318863	-0.097579	NaN
477	1.000000	1.018767	7.36972e+06	-53239.1	1005.82	-29746.9	0.000000	0.000000	7.019162	0.066780	NaN	0.000000	0.001622	0.001764	28.0829	0.070799	0.002097	33.7563	-168.459	-165.095	0.094057	1.017416	-0.060247	-0.061597	0.066780	33.7563	-0.061731	-0.201772	-0.330970	NaN
477	1.000000	1.026751	7.36972e+06	-53239.1	1005.82	-29746.9	0.000000	0.000000	7.027144	-0.001525	NaN	0.000000	0.001589	0.001750	28.0833	0.151101	0.001889	80.0033	165.233	-165.09	0.047210	1.025469	-0.052263	-0.053545	-0.001525	80.0033	-0.052248	-0.106644	0.014304	NaN
477	1.000000	1.034752	7.36972e+06	-53239.1	1005.82	-29746.9	0.000000	0.000000	7.035146	0.034236	NaN	0.000000	0.001612	0.001756	28.0831	0.037169	0.001894	19.6248	-153.578	-167.71	-0.002350	1.033394	-0.044262	-0.045620	0.034236	19.6248	-0.045570	-0.066901	-0.511746	NaN
477	1.000000	1.042747	7.36972e+06	-53239.1	1005.82	-29746.9	0.000000	0.000000	7.043142	0.050867	NaN	0.000000	0.001605	0.001715	28.083	0.108592	0.001901	57.1298	16.9053	-162.553	0.008652	1.041491	-0.036266	-0.037523	0.050867	57.1298	-0.036934	-0.036550	-1.391706	NaN
477	1.000000	1.050771	7.36972e+06	-53239.1	1005.82	-29746.9	0.000000	0.000000	7.051167	0.074111	NaN	0.000000	0.001577	0.001752	28.0831	0.049522	0.001981	25	-78.9569	-169.212	0.125491	1.049470	-0.028243	-0.029543	0.074111	25	-0.030466	-0.023713	-3.125293	NaN
477	1.000000	1.058775	7.36972e+06	-53239.1	1005.82	-29746.9	0.000000	0.000000	7.059167	-0.015355	NaN	0.000000	0.001572	0.001755	28.0829	0.012451	0.002144	5.808095	108.071	-165.534	0.097258	1.057440	-0.020239	-0.021574	-0.015355	5.808095	-0.018256	-0.011334	1.354745	NaN
477	1.000000	1.066786	7.36972e+06	-53239.1	1005.82	-29746.9	0.000000	0.000000	7.067178	-0.011503	NaN	0.000000	0.001598	0.001751	28.0832	0.085818	0.001967	43.6303	-19.8018	-164.831	-0.009639	1.065465	-0.012228	-0.013549	-0.011503	43.6303	-0.012030	-0.007546	1.524453	NaN
477	1.000000	1.074791	7.36972e+06	-53239.1	1005.82	-29746.9	0.000000	0.000000	7.075185	0.028573	NaN	0.000000	0.001592	0.001750	28.0831	0.080955	0.001801	44.9514	-30.0805	-164.171	-0.061707	1.073365	-0.004223	-0.005648	0.028573	44.9514	-0.004700	-0.003227	-8.853872	NaN
477	1.000000	1.082750	7.36972e+06	-53239.1	1005.82	-29746.9	0.000000	0.000000	7.083388	5.952378	NaN	0.000000	0.001576	0.001795	28.0828	6.311055	0.001653	3818.21	9.148637	-169.432	4.364533	1.081407	0.003736	0.002393	5.952378	3818.21	0.002567	0.002019	2948.49	77640.5
477	2.000000	1.086361	7.36972e+06	-53239.1	1005.82	-29746.9	0.000000	0.000000	7.087157	9.793977	NaN	0.000000	0.001568	0.001801	28.083	9.589967	0.001670	5742.47	9.258330	-174.687	9.530786	1.086030	0.007347	0.007016	9.793977	5742.47	0.006068	0.005129	1909.38	73255.3
477	2.000000	1.088372	7.36972e+06	-53239.1	1005.82	-29746.9	0.000000	0.000000	7.089325	13.6105	NaN	0.000000	0.001577	0.001780	28.0831	12.3576	0.001787	6916.69	6.972745	-174.782	12.9791	1.088051	0.009359	0.009038	13.6105	6916.69	0.007883	0.006922	1966.21	75954
477	2.000000	1.090371	7.36972e+06	-53239.1	1005.82	-29746.9	0.000000	0.000000	7.091493	17.7172	NaN	0.000000	0.001595	0.001819	28.0841	14.4933	0.001729	8384.7	6.988085	-175.843	16.9962	1.090084	0.011358	0.011071	17.7172	8384.7	0.009773	0.008930	1984	81065.2
477	2.000000	1.092282	7.36972e+06	-53239.1	1005.82	-29746.9	0.000000	0.000000	7.093615	22.8745	NaN	0.000000	0.001599	0.001788	28.0832	16.6976	0.001798	9286.73	7.155639	-176.333	21.5417	1.091948	0.013268	0.012935	22.8745	9286.73	0.011421	0.010803	2117.33	81630.9
477	2.000000	1.094295	7.36972e+06	-53239.1	1005.82	-29746.9	0.000000	0.000000	7.095752	25.877	NaN	0.000000	0.001591	0.001769	28.0831	19.4601	0.001820	10689.5	8.414562	-179.089	24.9722	1.093994	0.015281	0.014981	25.877	10689.5	0.013465	0.013293	1946.63	84706.5
477	2.000000	1.096323	7.36972e+06	-53239.1	1005.82	-29746.9	0.000000	0.000000	7.098001	31.2261	NaN	0.000000	0.001573	0.001737	28.0831	20.4781	0.001801	11371.2	5.655997	-175.239	31.925	1.095977	0.017310	0.016963	31.2261	11371.2	0.015250	0.015621	1999.04	83124.8
477	2.000000	1.098252	7.36972e+06	-53239.1	1005.82	-29746.9	0.000000	0.000000	7.100228	38.5013	NaN	0.000000	0.001571	0.001777	28.0829	23.3316	0.001835	12717.2	6.411200	-177.972	36.6055	1.097895	0.019238	0.018881	38.5013	12717.2	0.016968	0.018000	2139.01	86603.3
477	2.000000	1.100250	7.36972e+06	-53239.1	1005.82	-29746.9	0.000000	0.000000	7.102440	43.6979	NaN	0.000000	0.001585	0.001791	28.0827	24.8914	0.001855	13419.8	4.084608	-176.31	41.5675	1.099973	0.021236	0.020959	43.6979	13419.8	0.018794	0.020683	2112.78	85254.3
477	2.000000	1.102292	7.36972e+06	-53239.1	1005.82	-29746.9	0.000000	0.000000	7.104762	50.5178	NaN	0.000000	0.001584	0.001781	28.0818	26.251	0.001585	16562.7	6.372992	-179.984	50.0237	1.101881	0.023278	0.022867	50.5178	16562.7	0.020991	0.024123	2094.19	97429.5
477	2.000000	1.104247	7.36972e+06	-53239.1	1005.82	-29746.9	0.000000	0.000000	7.106888	54.6604	NaN	0.000000	0.001621	0.001769	28.082	30.0466	0.001859	16166.8	5.087281	-179.407	53.1069	1.103920	0.025234	0.024906	54.6604	16166.8	0.022698	0.026960	2027.46	89957.5
477	2.000000	1.106303	7.36972e+06	-53239.1	1005.82	-29746.9	0.000000	0.000000	7.109285	62.9489	NaN	0.000000	0.001578	0.001782	28.082	30.8656	0.001755	17590.1	5.844190	179.798	63.1172	1.105901	0.027290	0.026887	62.9489	17590.1	0.024606	0.030302	2077.36	92321.8
477	2.000000	1.108282	7.36972e+06	-53239.1	1005.82	-29746.9	0.000000	0.000000	7.111403	66.3332	NaN	0.000000	0.001603	0.001753	28.0818	33.7441	0.001936	17430.1	5.039882	-179.356	66.6979	1.107940	0.029268	0.028926	66.3332	17430.1	0.026414	0.033638	1971.99	86828.1
477	2.000000	1.110306	7.36972e+06	-53239.1	1005.82	-29746.9	0.000000	0.000000	7.113793	75.2327	NaN	0.000000	0.001581	0.001805	28.0832	35.2098	0.001829	19249	3.572632	-178.477	76.0106	1.109905	0.031292	0.030891	75.2327	19249	0.028361	0.037414	2010.81	90921
477	2.000000	1.112241	7.36972e+06	-53239.1	1005.82	-29746.9	0.000000	0.000000	7.116116	84.6568	NaN	0.000000	0.001602	0.001777	28.0818	36.0318	0.001811	19896.1	3.084011	-177.756	82.218	1.111889	0.033227	0.032875	84.6568	19896.1	0.030036	0.040818	2074	89973.4
477	2.000000	1.114282	7.36972e+06	-53239.1	1005.82	-29746.9	0.000000	0.000000	7.118328	88.7989	NaN	0.000000	0.001589	0.001771	28.0821	39.3193	0.001956	20104.5	8.406498	176.426	88.9547	1.113915	0.035269	0.034901	88.7989	20104.5	0.031956	0.044896	1977.89	86689
477	2.000000	1.116271	7.36972e+06	-53239.1	1005.82	-29746.9	0.000000	0.000000	7.120654	97.0122	NaN	0.000000	0.001582	0.001792	28.082	39.2232	0.001791	21896.6	1.331583	-177.606	96.6548	1.115933	0.037258	0.036920	97.0122	21896.6	0.033935	0.049295	1968.01	90105.1
477	2.000000	1.118229	7.36972e+06	-53239.1	1005.82	-29746.9	0.000000	0.000000	7.122948	105.199	NaN	0.000000	0.001555	0.001765	28.0819	42.0655	0.001859	22629.5	5.821820	177.252	104.395	1.117905	0.039215	0.038891	105.199	22629.5	0.035728	0.053456	1967.97	89423.3
477	2.000000	1.120238	7.36972e+06	-53239.1	1005.82	-29746.9	0.000000	0.000000	7.125227	111.744	NaN	0.000000	0.001599	0.001775	28.0822	43.4189	0.001787	24292.1	5.002877	177.499	110.212	1.119984	0.041224	0.040971	111.744	24292.1	0.037774	0.058403	1913.32	91837.5
477	2.000000	1.122218	7.36972e+06	-53239.1	1005.82	-29746.9	0.000000	0.000000	7.127637	122.203	NaN	0.000000	0.001565	0.001741	28.0818	44.8173	0.001750	25616.2	6.756298	176.392	120.96	1.121879	0.043204	0.042865	122.203	25616.2	0.039626	0.063066	1937.69	93194.2
477	2.000000	1.124240	7.36972e+06	-53239.1	1005.82	-29746.9	0.000000	0.000000	7.129941	129.06	NaN	0.000000	0.001568	0.001771	28.0824	48.0749	0.001858	25877.7	3.110666	178.974	128.387	1.123941	0.045227	0.044928	129.06	25877.7	0.041486	0.067926	1900.01	90715.4
477	2.000000	1.126222	7.36972e+06	-53239.1	1005.82	-29746.9	0.000000	0.000000	7.132223	136.359	NaN	0.000000	0.001611	0.001729	28.0821	47.8887	0.001632	29337.7	0.058066	-179.594	134.999	1.126027	0.047208	0.047013	136.359	29337.7	0.043722	0.074001	1842.66	98532.5
477	2.000000	1.128203	7.36972e+06	-53239.1	1005.82	-29746.9	0.000000	0.000000	7.134624	146.562	NaN	0.000000	0.001584	0.001764	28.0821	50.2789	0.001718	29257.7	-1.170623	-178.378	143.307	1.127917	0.049189	0.048903	146.562	29257.7	0.045432	0.078819	1859.48	95213.5
477	2.000000	1.130250	7.36972e+06	-53239.1	1005.82	-29746.9	0.000000	0.000000	7.137014	154.9	NaN	0.000000	0.001590	0.001758	28.0822	53.7381	0.001812	29655.1	5.159121	175.481	153.614	1.130060	0.051236	0.051047	154.9	29655.1	0.047318	0.084305	1837.37	93313.6
477	2.000000	1.132179	7.36972e+06	-53239.1	1005.82	-29746.9	0.000000	0.000000	7.139381	165.558	NaN	0.000000	0.001605	0.001774	28.082	55.7732	0.001904	29293	8.150406	173.09	161.246	1.131896	0.053165	0.052882	165.558	29293	0.048926	0.089123	1857.64	89648.3
477	2.000000	1.134248	7.36972e+06	-53239.1	1005.82	-29746.9	0.000000	0.000000	7.141849	175.268	NaN	0.000000	0.001585	0.001815	28.084	56.7118	0.001806	31400.5	3.628712	177.118	174.773	1.133937	0.055234	0.054924	175.268	31400.5	0.051048	0.095679	1831.83	92747.6
477	2.000000	1.136259	7.36972e+06	-53239.1	1005.82	-29746.9	0.000000	0.000000	7.144274	185.307	NaN	0.000000	0.001592	0.001762	28.0834	57.9295	0.001845	31399.8	2.153248	178.313	185.64	1.135939	0.057246	0.056926	185.307	31399.8	0.052819	0.101327	1828.81	90123.5
477	2.000000	1.138208	7.36972e+06	-53239.1	1005.82	-29746.9	0.000000	0.000000	7.146887	201.453	NaN	0.000000	0.001566	0.001809	28.0833	60.2168	0.001814	33200.8	2.738351	177.112	198.679	1.137909	0.059195	0.058895	201.453	33200.8	0.054644	0.107306	1877.37	92599.8
477	2.000000	1.140258	7.36972e+06	-53239.1	1005.82	-29746.9	0.000000	0.000000	7.149264	209.412	NaN	0.000000	0.001584	0.001781	28.0833	61.7333	0.001774	34795.7	4.156905	176.242	209.304	1.139775	0.061244	0.060762	209.412	34795.7	0.056730	0.114346	1831.39	94013.2
477	2.000000	1.142149	7.36972e+06	-53239.1	1005.82	-29746.9	0.000000	0.000000	7.151749	223.874	NaN	0.000000	0.001639	0.001756	28.0833	63.2027	0.001801	35094.4	7.247291	172.749	220.289	1.141816	0.063135	0.062803	223.874	35094.4	0.058350	0.119960	1866.24	92574.9
477	2.000000	1.144223	7.36972e+06	-53239.1	1005.82	-29746.9	0.000000	0.000000	7.154302	235.501	NaN	0.000000	0.001588	0.001776	28.0836	65.4999	0.001790	36593.2	3.251988	176.307	234.404	1.143847	0.065210	0.064834	235.501	36593.2	0.060383	0.127184	1851.65	93746.8
477	2.000000	1.146281	7.36972e+06	-53239.1	1005.82	-29746.9	0.000000	0.000000	7.156794	246.061	NaN	0.000000	0.001591	0.001743	28.0834	66.3234	0.001761	37666.1	4.041075	175.254	247.382	1.145890	0.067267	0.066877	246.061	37666.1	0.062368	0.134435	1830.33	93857.1
477	2.000000	1.148176	7.36972e+06	-53239.1	1005.82	-29746.9	0.000000	0.000000	7.159109	256.254	NaN	0.000000	0.001641	0.001784	28.0832	69.0545	0.001734	39818.6	3.929902	174.911	253.629	1.147903	0.069163	0.068889	256.254	39818.6	0.064336	0.141814	1806.98	96605.2
477	2.000000	1.150235	7.36972e+06	-53239.1	1005.82	-29746.9	0.000000	0.000000	7.161804	271.743	NaN	0.000000	0.001591	0.001766	28.0832	72.1064	0.001828	39452.3	7.417314	172.617	270.006	1.149763	0.071221	0.070749	271.743	39452.3	0.066055	0.148412	1831	93564.4
477	2.000000	1.152170	7.36972e+06	-53239.1	1005.82	-29746.9	0.000000	0.000000	7.164267	284.575	NaN	0.000000	0.001603	0.001804	28.0831	73.4736	0.001882	39046.6	5.656525	173.554	282.987	1.151818	0.073156	0.072804	284.575	39046.6	0.067690	0.154819	1838.12	90666.1
477	2.000000	1.154232	7.36973e+06	-53239.1	1005.82	-29746.9	0.000000	0.000000	7.166757	294.982	NaN	0.000000	0.001612	0.001761	28.0831	75.1886	0.001871	40192.9	3.613354	175.338	296.706	1.153910	0.075218	0.074896	294.982	40192.9	0.069714	0.162925	1810.54	90976.4
477	2.000000	1.156219	7.36973e+06	-53239.1	1005.82	-29746.9	0.000000	0.000000	7.169166	305.216	NaN	0.000000	0.001615	0.001765	28.0832	76.0273	0.001823	41701.8	3.843363	174.169	303.53	1.155950	0.077206	0.076937	305.216	41701.8	0.071716	0.171140	1783.43	92098.5
477	2.000000	1.158123	7.36973e+06	-53239.1	1005.82	-29746.9	0.000000	0.000000	7.171903	325.469	NaN	0.000000	0.001580	0.001765	28.0836	79.6855	0.001840	43305.6	8.238207	170.023	321.511	1.157873	0.079110	0.078860	325.469	43305.6	0.073473	0.178502	1823.34	93647.5
477	2.000000	1.160290	7.36973e+06	-53239.1	1005.82	-29746.9	0.000000	0.000000	7.174891	345.437	NaN	0.000000	0.001623	0.001746	28.0832	81.5534	0.001875	43494.5	6.607360	172.805	348.584	1.159790	0.081276	0.080776	345.437	43494.5	0.075320	0.186399	1853.21	92041.9
477	2.000000	1.162167	7.36973e+06	-53239.1	1005.82	-29746.9	0.000000	0.000000	7.177481	362.762	NaN	0.000000	0.001576	0.001723	28.0834	83.3098	0.001872	44503	5.451400	172.853	360.25	1.161784	0.083154	0.082770	362.762	44503	0.077040	0.193899	1870.88	92336.7
477	2.000000	1.164220	7.36973e+06	-53239.1	1005.82	-29746.9	0.000000	0.000000	7.180126	377.172	NaN	0.000000	0.001560	0.001767	28.0833	85.7648	0.001851	46325.5	5.836971	172.588	375.587	1.163813	0.085206	0.084800	377.172	46325.5	0.079100	0.203061	1857.43	93924.6
477	2.000000	1.166158	7.36973e+06	-53239.1	1005.82	-29746.9	0.000000	0.000000	7.182738	393.558	NaN	0.000000	0.001558	0.001805	28.0832	86.1884	0.001811	47592	4.126953	173.558	392.004	1.165866	0.087145	0.086852	393.558	47592	0.080943	0.211427	1861.44	94564.2
477	2.000000	1.168118	7.36973e+06	-53239.1	1005.82	-29746.9	0.000000	0.000000	7.184961	399.96	NaN	0.000000	0.001563	0.001800	28.0824	89.8085	0.001811	49577.6	4.852217	172.162	395.033	1.167905	0.089104	0.088892	399.96	49577.6	0.083054	0.221204	1808.11	96308.1
477	2.000000	1.170163	7.36973e+06	-53239.1	1005.82	-29746.9	0.000000	0.000000	7.188073	425.906	NaN	0.000000	0.001588	0.001822	28.082	91.2645	0.001721	53022.7	4.953608	171.904	420.957	1.169749	0.091149	0.090736	425.906	53022.7	0.085125	0.230997	1843.78	100793
477	2.000000	1.172179	7.36973e+06	-53239.1	1005.82	-29746.9	0.000000	0.000000	7.190403	433.54	NaN	0.000000	0.001580	0.001806	28.0822	93.7454	0.001788	52431.2	5.473568	171.554	431.555	1.171995	0.093165	0.092982	433.54	52431.2	0.086964	0.239859	1807.48	97810.5
477	2.000000	1.174021	7.36973e+06	-53239.1	1005.82	-29746.9	0.000000	0.000000	7.193309	459.395	NaN	0.000000	0.001607	0.001811	28.082	95.4464	0.001793	53233.6	3.968590	173.448	450.475	1.173713	0.095007	0.094700	459.395	53233.6	0.088535	0.247553	1855.74	97751.9
477	2.000000	1.176155	7.36973e+06	-53239.1	1005.82	-29746.9	0.000000	0.000000	7.195908	470.703	NaN	0.000000	0.001666	0.001808	28.082	97.7674	0.001865	52423.8	8.309248	168.649	468.641	1.175713	0.097142	0.096699	470.703	52423.8	0.090408	0.256872	1832.44	94502.6
477	2.000000	1.178100	7.36973e+06	-53239.1	1005.82	-29746.9	0.000000	0.000000	7.198600	488.869	NaN	0.000000	0.001657	0.001796	28.0829	99.3589	0.001864	53316.4	5.149635	171.833	483.323	1.177808	0.099086	0.098795	488.869	53316.4	0.092209	0.265987	1837.95	94450.5
477	2.000000	1.180269	7.36973e+06	-53239.1	1005.82	-29746.9	0.000000	0.000000	7.201586	508.717	NaN	0.000000	0.001618	0.001804	28.0822	100.881	0.001915	52673.6	5.753357	172.78	508.964	1.179653	0.101256	0.100640	508.717	52673.6	0.094012	0.275260	1848.13	91726.4
477	2.000000	1.182129	7.36973e+06	-53239.1	1005.82	-29746.9	0.000000	0.000000	7.204042	523.221	NaN	0.000000	0.001636	0.001802	28.0823	101.743	0.001694	60059.6	3.081203	172.863	523.268	1.181786	0.103115	0.102773	523.221	60059.6	0.096582	0.288731	1812.14	102120
477	2.000000	1.183284	7.36973e+06	-53239.1	1005.82	-29746.9	0.000000	0.000000	7.205380	527.652	NaN	0.000000	0.001662	0.001842	28.0821	103.153	0.001798	57382.6	4.746729	172.315	535.661	1.182861	0.104271	0.103847	527.652	57382.6	0.097374	0.292948	1801.18	96863.1