File: remote_trans/data/nanoindenter/0828-1/data/Data_2025-08-06,11h17m57s/2025-07-22_16-23-58_1_1206.txt
2025-07-22, 16:23:58, 1
Index	Phase	Displacement	Time	Pos X	Pos Y	Pos Z	Rot A	Rot B	Piezo Z	Force A	Force B	Gripper	Voltage A	Voltage B	Temperature	Amplitude force	Amplitude pos	Stiffness	Phase shift	Phase excitation	Force A raw	Displacement raw	HMax	HMax raw	Real Force	Real Stiffness	Contact Depth	Area	Hardness	Reduced Mod.
[#]	[#]	[um]	[s]	[um]	[um]	[um]	[m°]	[m°]	[um]	[uN]	[uN]	[V]	[V]	[V]	[°C]	[uN]	[um]	[N/m]	[°]	[°]	[uN]	[um]	[um]	[um]	[uN]	[N/m]	[um]	[um^2]	[MPa]	[MPa]
1206	1.000000	0.002863	7.37683e+06	-55289.1	1105.82	-29737.6	0.000000	0.000000	6.002765	-0.014865	NaN	0.000000	0.001551	0.001671	28.0811	0.023201	0.000846	27.4273	38.2308	-160.465	0.025391	0.001624	-1.293326	-1.294566	-0.014865	27.4273	-1.292920	-1.922112E+17	7.733768E-20	NaN
1206	1.000000	0.012964	7.37683e+06	-55289.1	1105.82	-29737.6	0.000000	0.000000	6.012868	0.036947	NaN	0.000000	0.001515	0.001640	28.0809	0.082497	0.001200	68.7425	105.432	13.8574	0.069238	0.011498	-1.283225	-1.284691	0.036947	68.7425	-1.283628	-1.444062E+17	-2.558529E-19	NaN
1206	1.000000	0.022856	7.37683e+06	-55289.1	1105.82	-29737.6	0.000000	0.000000	6.022758	0.006514	NaN	0.000000	0.001558	0.001643	28.0812	0.165260	0.001656	99.7859	-125.304	-163.303	0.009042	0.021555	-1.273334	-1.274635	0.006514	99.7859	-1.273383	-1.053469E+17	-6.183463E-20	NaN
1206	1.000000	0.032851	7.37683e+06	-55289.1	1105.82	-29737.6	0.000000	0.000000	6.032757	0.077432	NaN	0.000000	0.001553	0.001630	28.0809	0.231269	0.001923	120.274	-78.7898	14.3497	-0.036137	0.031433	-1.263338	-1.264756	0.077432	120.274	-1.263821	-7.848134E+16	-9.866324E-19	NaN
1206	1.000000	0.042845	7.37683e+06	-55289.1	1105.82	-29737.6	0.000000	0.000000	6.042746	-0.040030	NaN	0.000000	0.001546	0.001635	28.081	0.043915	0.001985	22.1207	133.538	-162.626	0.020649	0.041563	-1.253344	-1.254626	-0.040030	22.1207	-1.251987	-5.451273E+16	7.343309E-19	NaN
1206	1.000000	0.052851	7.37683e+06	-55289.1	1105.82	-29737.6	0.000000	0.000000	6.052755	0.030622	NaN	0.000000	0.001529	0.001673	28.081	0.087531	0.001966	44.5173	4.355885	13.5564	0.114084	0.051459	-1.243338	-1.244731	0.030622	44.5173	-1.243854	-4.243325E+16	-7.216487E-19	NaN
1206	1.000000	0.062823	7.37683e+06	-55289.1	1105.82	-29737.6	0.000000	0.000000	6.062725	0.014162	NaN	0.000000	0.001588	0.001673	28.0811	0.068566	0.002243	30.575	-20.6023	-167.961	0.020302	0.061505	-1.233367	-1.234684	0.014162	30.575	-1.233714	-3.104830E+16	-4.561240E-19	NaN
1206	1.000000	0.072858	7.37683e+06	-55289.1	1105.82	-29737.6	0.000000	0.000000	6.072762	0.053889	NaN	0.000000	0.001635	0.001638	28.081	0.130167	0.001959	66.4484	99.8921	15.0992	0.068578	0.071455	-1.223332	-1.224734	0.053889	66.4484	-1.223940	-2.297407E+16	-2.345640E-18	NaN
1206	1.000000	0.082855	7.37683e+06	-55289.1	1105.82	-29737.6	0.000000	0.000000	6.082759	0.061733	NaN	0.000000	0.001616	0.001717	28.0809	0.037223	0.002077	17.9216	30.2565	-169.59	0.036220	0.081498	-1.213335	-1.214691	0.061733	17.9216	-1.215918	-1.794188E+16	-3.440735E-18	NaN
1206	1.000000	0.092864	7.37683e+06	-55289.1	1105.82	-29737.6	0.000000	0.000000	6.092764	-0.030057	NaN	0.000000	0.001629	0.001717	28.0818	0.136134	0.002030	67.0465	-7.970374	14.167	-0.019705	0.091521	-1.203326	-1.204668	-0.030057	67.0465	-1.202990	-1.204427E+16	2.495540E-18	NaN
1206	1.000000	0.102857	7.37683e+06	-55289.1	1105.82	-29737.6	0.000000	0.000000	6.102761	0.043871	NaN	0.000000	0.001584	0.001679	28.0821	0.096820	0.002078	46.5937	-31.8022	-164.242	-0.015083	0.101570	-1.193332	-1.194619	0.043871	46.5937	-1.194038	-9.139281E+15	-4.800258E-18	NaN
1206	1.000000	0.112834	7.37683e+06	-55289.1	1105.82	-29737.6	0.000000	0.000000	6.112736	-0.001186	NaN	0.000000	0.001628	0.001692	28.0824	0.076590	0.001918	39.9367	139.056	13.7411	-0.016813	0.111500	-1.183355	-1.184690	-0.001186	39.9367	-1.183333	-6.569367E+15	1.805111E-19	NaN
1206	1.000000	0.122856	7.37683e+06	-55289.1	1105.82	-29737.6	0.000000	0.000000	6.122757	-0.011395	NaN	0.000000	0.001631	0.001697	28.0824	0.049393	0.001949	25.3486	-165.4	-162.652	-0.005763	0.121590	-1.173334	-1.174600	-0.011395	25.3486	-1.172996	-4.775703E+15	2.386139E-18	NaN
1206	1.000000	0.132882	7.37683e+06	-55289.1	1105.82	-29737.6	0.000000	0.000000	6.132785	0.022622	NaN	0.000000	0.001615	0.001654	28.0823	0.016010	0.001959	8.173701	-138.104	14.0434	0.050676	0.131547	-1.163307	-1.164642	0.022622	8.173701	-1.165383	-3.775871E+15	-5.991152E-18	NaN
1206	1.000000	0.142860	7.37683e+06	-55289.1	1105.82	-29737.6	0.000000	0.000000	6.142764	0.065758	NaN	0.000000	0.001597	0.001658	28.0823	0.125484	0.002067	60.6993	-36.5464	-166.384	0.034343	0.141555	-1.153330	-1.154634	0.065758	60.6993	-1.154142	-2.669019E+15	-2.463742E-17	NaN
1206	1.000000	0.152889	7.37683e+06	-55289.1	1105.82	-29737.6	0.000000	0.000000	6.152791	-0.006741	NaN	0.000000	0.001580	0.001671	28.0826	0.065352	0.001975	33.0881	-75.1056	14.5101	-0.042165	0.151521	-1.143300	-1.144669	-0.006741	33.0881	-1.143148	-1.900840E+15	3.546098E-18	NaN
1206	1.000000	0.162877	7.37683e+06	-55289.1	1105.82	-29737.6	0.000000	0.000000	6.162780	0.015471	NaN	0.000000	0.001584	0.001672	28.0824	0.048975	0.002086	23.4757	44.9012	-165.222	0.059867	0.161587	-1.133312	-1.134603	0.015471	23.4757	-1.133806	-1.424544E+15	-1.086057E-17	NaN
1206	1.000000	0.172898	7.37683e+06	-55289.1	1105.82	-29737.6	0.000000	0.000000	6.172800	-0.004286	NaN	0.000000	0.001584	0.001690	28.0823	0.054895	0.002045	26.8377	-33.0759	19.0992	0.034258	0.171534	-1.123291	-1.124655	-0.004286	26.8377	-1.123172	-1.025704E+15	4.179019E-18	NaN
1206	1.000000	0.182874	7.37683e+06	-55289.1	1105.82	-29737.6	0.000000	0.000000	6.182776	-0.012346	NaN	0.000000	0.001598	0.001681	28.0826	0.025822	0.002030	12.7214	-102.065	-162.625	-0.041428	0.181561	-1.113315	-1.114629	-0.012346	12.7214	-1.112588	-7.396283E+14	1.669151E-17	NaN
1206	1.000000	0.192883	7.37683e+06	-55289.1	1105.82	-29737.6	0.000000	0.000000	6.192784	-0.012545	NaN	0.000000	0.001588	0.001703	28.0824	0.141944	0.001915	74.1385	12.4927	14.5622	-0.031455	0.191530	-1.103307	-1.104660	-0.012545	74.1385	-1.103180	-5.530324E+14	2.268483E-17	NaN
1206	1.000000	0.202904	7.37683e+06	-55289.1	1105.82	-29737.6	0.000000	0.000000	6.202806	0.017200	NaN	0.000000	0.001595	0.001684	28.0827	0.049725	0.001979	25.1205	170.045	-165.521	0.045051	0.201640	-1.093286	-1.094549	0.017200	25.1205	-1.093799	-4.138327E+14	-4.156334E-17	NaN
1206	1.000000	0.212877	7.37683e+06	-55289.1	1105.82	-29737.6	0.000000	0.000000	6.212780	0.026309	NaN	0.000000	0.001588	0.001676	28.0825	0.031193	0.002013	15.4964	-89.9935	15.1439	0.017766	0.211557	-1.083312	-1.084633	0.026309	15.4964	-1.084586	-3.112465E+14	-8.452648E-17	NaN
1206	1.000000	0.222884	7.37683e+06	-55289.1	1105.82	-29737.6	0.000000	0.000000	6.222789	0.075920	NaN	0.000000	0.001611	0.001676	28.0816	0.101970	0.001944	52.4554	140.033	-163.508	0.011810	0.221613	-1.073306	-1.074577	0.075920	52.4554	-1.074391	-2.270809E+14	-3.343287E-16	NaN
1206	1.000000	0.232908	7.37683e+06	-55289.1	1105.82	-29737.6	0.000000	0.000000	6.232812	0.035397	NaN	0.000000	0.001582	0.001694	28.0814	0.026939	0.001981	13.6017	3.600830	19.1112	0.037559	0.231609	-1.063282	-1.064581	0.035397	13.6017	-1.065233	-1.710586E+14	-2.069302E-16	NaN
1206	1.000000	0.242914	7.37683e+06	-55289.1	1105.82	-29737.6	0.000000	0.000000	6.242816	-0.009975	NaN	0.000000	0.001605	0.001674	28.0813	0.051221	0.002049	24.9924	97.5137	-164.531	-0.061525	0.241615	-1.053275	-1.054575	-0.009975	24.9924	-1.052976	-1.170630E+14	8.521119E-17	NaN
1206	1.000000	0.252933	7.37683e+06	-55289.1	1105.82	-29737.6	0.000000	0.000000	6.252834	-0.041530	NaN	0.000000	0.001613	0.001694	28.0809	0.071334	0.002092	34.1032	-75.6439	15.2068	0.015429	0.251563	-1.043256	-1.044626	-0.041530	34.1032	-1.042343	-8.423092E+13	4.930487E-16	NaN
1206	1.000000	0.262910	7.37683e+06	-55289.1	1105.82	-29737.6	0.000000	0.000000	6.262813	0.006955	NaN	0.000000	0.001634	0.001684	28.0816	0.028151	0.002181	12.9074	6.736448	-164.427	-0.040560	0.261584	-1.033279	-1.034606	0.006955	12.9074	-1.033683	-6.442002E+13	-1.079587E-16	NaN
1206	1.000000	0.272928	7.37683e+06	-55289.1	1105.82	-29737.6	0.000000	0.000000	6.272828	-0.033141	NaN	0.000000	0.001591	0.001652	28.0814	0.088380	0.001988	44.4499	-6.167774	14.9723	0.024848	0.271541	-1.023262	-1.024648	-0.033141	44.4499	-1.022703	-4.584757E+13	7.228504E-16	NaN
1206	1.000000	0.282936	7.37683e+06	-55289.1	1105.82	-29737.6	0.000000	0.000000	6.282839	0.012375	NaN	0.000000	0.001585	0.001681	28.0813	0.081014	0.002063	39.2773	-51.7551	-163.842	-0.017437	0.281583	-1.013253	-1.014606	0.012375	39.2773	-1.013489	-3.446223E+13	-3.591032E-16	NaN
1206	1.000000	0.292956	7.37683e+06	-55289.1	1105.82	-29737.6	0.000000	0.000000	6.292860	0.044884	NaN	0.000000	0.001553	0.001690	28.0809	0.107518	0.001978	54.3482	16.4763	18.2021	0.020348	0.291634	-1.003234	-1.004556	0.044884	54.3482	-1.003853	-2.556492E+13	-1.755692E-15	NaN
1206	1.000000	0.302946	7.37683e+06	-55289.1	1105.82	-29737.6	0.000000	0.000000	6.302848	-0.000862	NaN	0.000000	0.001567	0.001697	28.0814	0.079454	0.001987	39.9867	106.018	-164.846	0.067760	0.301659	-0.993244	-0.994531	-0.000862	39.9867	-0.993228	-1.838993E+13	4.686661E-17	NaN
1206	1.000000	0.312992	7.37684e+06	-55289.1	1105.82	-29737.6	0.000000	0.000000	6.312893	-0.018591	NaN	0.000000	0.001558	0.001683	28.0812	0.017381	0.001966	8.843094	-14.7273	14.2399	-0.068770	0.311616	-0.983198	-0.984574	-0.018591	8.843094	-0.981621	-1.283061E+13	1.448920E-15	NaN
1206	1.000000	0.322939	7.37684e+06	-55289.1	1105.82	-29737.6	0.000000	0.000000	6.322843	0.048439	NaN	0.000000	0.001560	0.001666	28.0813	0.116558	0.001946	59.9002	-171.928	-166.356	0.042055	0.321668	-0.973251	-0.974522	0.048439	59.9002	-0.973857	-1.008425E+13	-4.803434E-15	NaN
1206	1.000000	0.332968	7.37684e+06	-55289.1	1105.82	-29737.6	0.000000	0.000000	6.332868	-0.029732	NaN	0.000000	0.001555	0.001678	28.0812	0.113235	0.001929	58.6904	-0.554599	18.615	-0.042651	0.331650	-0.963222	-0.964539	-0.029732	58.6904	-0.962842	-7.164437E+12	4.149963E-15	NaN
1206	1.000000	0.342981	7.37684e+06	-55289.1	1105.82	-29737.6	0.000000	0.000000	6.342882	-0.024477	NaN	0.000000	0.001572	0.001681	28.0816	0.080131	0.002060	38.9072	122.892	-167.368	0.059045	0.341633	-0.953209	-0.954557	-0.024477	38.9072	-0.952737	-5.235289E+12	4.675391E-15	NaN
1206	1.000000	0.352973	7.37684e+06	-55289.1	1105.82	-29737.6	0.000000	0.000000	6.352876	0.024987	NaN	0.000000	0.001563	0.001629	28.0814	0.080883	0.001878	43.0768	-50.9785	13.9853	-0.044469	0.351590	-0.943216	-0.944600	0.024987	43.0768	-0.943651	-3.948186E+12	-6.328657E-15	NaN
1206	1.000000	0.362952	7.37684e+06	-55289.1	1105.82	-29737.6	0.000000	0.000000	6.362857	0.060572	NaN	0.000000	0.001563	0.001646	28.0826	0.065552	0.002060	31.8181	146.826	-168.103	0.082676	0.361699	-0.933237	-0.934490	0.060572	31.8181	-0.934665	-2.986458E+12	-2.028209E-14	NaN
1206	1.000000	0.372976	7.37684e+06	-55289.1	1105.82	-29737.6	0.000000	0.000000	6.372879	0.019646	NaN	0.000000	0.001545	0.001624	28.0828	0.006469	0.002045	3.163356	-32.4554	15.6398	-0.033507	0.371618	-0.923213	-0.924571	0.019646	3.163356	-0.927871	-2.418021E+12	-8.124644E-15	NaN
1206	1.000000	0.382988	7.37684e+06	-55289.1	1105.82	-29737.6	0.000000	0.000000	6.382891	0.034360	NaN	0.000000	0.001550	0.001661	28.0828	0.110514	0.002015	54.8384	154.537	-166.367	0.078789	0.381702	-0.913202	-0.914488	0.034360	54.8384	-0.913672	-1.555081E+12	-2.209513E-14	NaN
1206	1.000000	0.392980	7.37684e+06	-55289.1	1105.82	-29737.6	0.000000	0.000000	6.392879	-0.055531	NaN	0.000000	0.001550	0.001637	28.0828	0.104043	0.002002	51.9808	97.4552	19.3178	-0.027179	0.391650	-0.903210	-0.904540	-0.055531	51.9808	-0.902409	-1.095500E+12	5.068990E-14	NaN
1206	1.000000	0.402985	7.37684e+06	-55289.1	1105.82	-29737.6	0.000000	0.000000	6.402888	0.030311	NaN	0.000000	0.001547	0.001618	28.0828	0.052117	0.002047	25.4617	-159.343	-166.013	-0.014576	0.401737	-0.893205	-0.894453	0.030311	25.4617	-0.894097	-8.458599E+11	-3.583404E-14	NaN
1206	1.000000	0.412988	7.37684e+06	-55289.1	1105.82	-29737.6	0.000000	0.000000	6.412892	0.052723	NaN	0.000000	0.001535	0.001670	28.083	0.138328	0.001950	70.9409	162.062	18.9094	0.052079	0.411670	-0.883202	-0.884519	0.052723	70.9409	-0.883759	-6.131100E+11	-8.599279E-14	NaN
1206	1.000000	0.422993	7.37684e+06	-55289.1	1105.82	-29737.6	0.000000	0.000000	6.422893	-0.055954	NaN	0.000000	0.001552	0.001653	28.0829	0.085012	0.001924	44.1809	-76.2313	-166.299	-0.045459	0.421653	-0.873196	-0.874537	-0.055954	44.1809	-0.872247	-4.283881E+11	1.306156E-13	NaN
1206	1.000000	0.433013	7.37684e+06	-55289.1	1105.82	-29737.6	0.000000	0.000000	6.432914	-0.022726	NaN	0.000000	0.001564	0.001678	28.083	0.030189	0.001997	15.1138	-131.475	12.9998	-0.098179	0.431684	-0.863177	-0.864506	-0.022726	15.1138	-0.862049	-3.117835E+11	7.288891E-14	NaN
1206	1.000000	0.442987	7.37684e+06	-55289.1	1105.82	-29737.6	0.000000	0.000000	6.442890	0.019972	NaN	0.000000	0.001544	0.001694	28.0827	0.111706	0.001970	56.6891	175.641	-163.678	-0.029703	0.441680	-0.853202	-0.854510	0.019972	56.6891	-0.853467	-2.386035E+11	-8.370311E-14	NaN
1206	1.000000	0.453009	7.37684e+06	-55289.1	1105.82	-29737.6	0.000000	0.000000	6.452913	0.047549	NaN	0.000000	0.001578	0.001653	28.0832	0.042418	0.002090	20.2929	81.1493	12.7373	-0.010573	0.451635	-0.843181	-0.844554	0.047549	20.2929	-0.844938	-1.828865E+11	-2.599920E-13	NaN
1206	1.000000	0.463022	7.37684e+06	-55289.1	1105.82	-29737.6	0.000000	0.000000	6.462924	-0.001646	NaN	0.000000	0.001527	0.001659	28.0827	0.087630	0.002039	42.9796	110.516	-168.359	0.006121	0.461703	-0.833167	-0.834486	-0.001646	42.9796	-0.833138	-1.265666E+11	1.300437E-14	NaN
1206	1.000000	0.473000	7.37684e+06	-55289.1	1105.82	-29737.6	0.000000	0.000000	6.472902	0.018784	NaN	0.000000	0.001514	0.001668	28.0829	0.064081	0.002108	30.4005	85.4128	13.6738	-0.039016	0.471690	-0.823190	-0.824499	0.018784	30.4005	-0.823653	-9.413462E+10	-1.995489E-13	NaN
1206	1.000000	0.483014	7.37684e+06	-55289.1	1105.82	-29737.6	0.000000	0.000000	6.482917	0.031851	NaN	0.000000	0.001523	0.001677	28.0829	0.014542	0.001951	7.454765	95.981	-165.531	-0.030005	0.481703	-0.813176	-0.814486	0.031851	7.454765	-0.816380	-7.501052E+10	-4.246253E-13	NaN
1206	1.000000	0.493019	7.37684e+06	-55289.1	1105.82	-29737.6	0.000000	0.000000	6.492924	0.072933	NaN	0.000000	0.001555	0.001648	28.0828	0.049752	0.001969	25.2722	-48.7543	16.9225	0.034823	0.491671	-0.803171	-0.804519	0.072933	25.2722	-0.805335	-5.312179E+10	-1.372933E-12	NaN
1206	1.000000	0.503054	7.37684e+06	-55289.1	1105.82	-29737.6	0.000000	0.000000	6.502954	-0.048495	NaN	0.000000	0.001558	0.001665	28.0815	0.010318	0.001930	5.346485	-95.0882	-164.102	-0.026312	0.501721	-0.793136	-0.794468	-0.048495	5.346485	-0.786333	-2.932755E+10	1.653581E-12	NaN
1206	1.000000	0.513018	7.37684e+06	-55289.1	1105.82	-29737.6	0.000000	0.000000	6.512921	0.039241	NaN	0.000000	0.001507	0.001650	28.0815	0.056585	0.002092	27.0453	95.5139	14.2757	-0.065051	0.511653	-0.783172	-0.784537	0.039241	27.0453	-0.784260	-2.748618E+10	-1.427655E-12	NaN
1206	1.000000	0.523035	7.37684e+06	-55289.1	1105.82	-29737.6	0.000000	0.000000	6.522936	-0.018607	NaN	0.000000	0.001514	0.001649	28.0816	0.078321	0.001890	41.4341	-109.322	-166.302	-0.092535	0.521774	-0.773155	-0.774416	-0.018607	41.4341	-0.772818	-1.921385E+10	9.683967E-13	NaN
1206	1.000000	0.533037	7.37684e+06	-55289.1	1105.82	-29737.6	0.000000	0.000000	6.532939	-0.009776	NaN	0.000000	0.001519	0.001667	28.0816	0.162852	0.002002	81.357	-85.343	15.9913	-0.064816	0.531679	-0.763152	-0.764511	-0.009776	81.357	-0.763062	-1.415643E+10	6.905384E-13	NaN
1206	1.000000	0.543060	7.37684e+06	-55289.1	1105.82	-29737.6	0.000000	0.000000	6.542963	0.013516	NaN	0.000000	0.001549	0.001679	28.0816	0.145377	0.002123	68.4696	101.459	-161.815	0.070986	0.541726	-0.753129	-0.754464	0.013516	68.4696	-0.753277	-1.041903E+10	-1.297210E-12	NaN
1206	1.000000	0.553049	7.37684e+06	-55289.1	1105.82	-29737.6	0.000000	0.000000	6.552951	0.009435	NaN	0.000000	0.001539	0.001658	28.0817	0.043644	0.001891	23.0747	-102.314	11.4474	0.057858	0.551711	-0.743141	-0.744478	0.009435	23.0747	-0.743447	-7.656080E+9	-1.232348E-12	NaN
1206	1.000000	0.563037	7.37684e+06	-55289.1	1105.82	-29737.6	0.000000	0.000000	6.562941	0.048207	NaN	0.000000	0.001577	0.001626	28.0818	0.121720	0.002052	59.3297	-56.6952	-166.991	-0.056639	0.561746	-0.733153	-0.734443	0.048207	59.3297	-0.733762	-5.650357E+9	-8.531710E-12	NaN
1206	1.000000	0.573055	7.37684e+06	-55289.1	1105.82	-29737.6	0.000000	0.000000	6.572958	0.012364	NaN	0.000000	0.001526	0.001639	28.0817	0.060706	0.001981	30.638	125.1	11.7409	-0.035850	0.571674	-0.723134	-0.724516	0.012364	30.638	-0.723437	-4.086408E+9	-3.025528E-12	NaN
1206	1.000000	0.583074	7.37684e+06	-55289.1	1105.82	-29737.6	0.000000	0.000000	6.582977	0.013933	NaN	0.000000	0.001533	0.001648	28.0816	0.047508	0.002117	22.4444	-133.505	-164.127	-0.046559	0.581736	-0.713115	-0.714454	0.013933	22.4444	-0.713581	-2.998554E+9	-4.646685E-12	NaN
1206	1.000000	0.593060	7.37684e+06	-55289.1	1105.82	-29737.6	0.000000	0.000000	6.592965	0.057983	NaN	0.000000	0.001574	0.001686	28.0817	0.034410	0.001973	17.4393	27.0233	14.5837	0.014797	0.591654	-0.703129	-0.704536	0.057983	17.4393	-0.705623	-2.335100E+9	-2.483125E-11	NaN
1206	1.000000	0.603050	7.37684e+06	-55289.1	1105.82	-29737.6	0.000000	0.000000	6.602952	0.019528	NaN	0.000000	0.001551	0.001674	28.0819	0.048044	0.002107	22.7983	173.612	-168.25	0.001271	0.601752	-0.693140	-0.694437	0.019528	22.7983	-0.693782	-1.609168E+9	-1.213539E-11	NaN
1206	1.000000	0.613070	7.37684e+06	-55289.1	1105.82	-29737.6	0.000000	0.000000	6.612976	0.083288	NaN	0.000000	0.001525	0.001637	28.0817	0.072260	0.001920	37.6425	165.669	12.8218	0.052245	0.611732	-0.683119	-0.684458	0.083288	37.6425	-0.684778	-1.212120E+9	-6.871274E-11	NaN
1206	1.000000	0.623075	7.37684e+06	-55289.1	1105.82	-29737.6	0.000000	0.000000	6.622979	0.060661	NaN	0.000000	0.001556	0.001699	28.0816	0.083014	0.002022	41.0503	-92.7899	-165.341	-0.007057	0.621769	-0.673115	-0.674421	0.060661	41.0503	-0.674223	-8.693188E+8	-6.977974E-11	NaN
1206	1.000000	0.633082	7.37684e+06	-55289.1	1105.82	-29737.6	0.000000	0.000000	6.632984	0.012748	NaN	0.000000	0.001534	0.001636	28.083	0.073996	0.001945	38.0432	-114.463	14.7892	-0.033934	0.631742	-0.663108	-0.664448	0.012748	38.0432	-0.663359	-6.172677E+8	-2.065169E-11	NaN
1206	1.000000	0.643110	7.37684e+06	-55289.1	1105.82	-29737.6	0.000000	0.000000	6.643012	-0.001309	NaN	0.000000	0.001519	0.001625	28.083	0.033873	0.002012	16.8383	-57.9374	-165.605	-0.042848	0.641744	-0.653079	-0.654445	-0.001309	16.8383	-0.653021	-4.454972E+8	2.937609E-12	NaN
1206	1.000000	0.653074	7.37684e+06	-55289.1	1105.82	-29737.6	0.000000	0.000000	6.652976	0.002102	NaN	0.000000	0.001564	0.001655	28.0832	0.018428	0.002070	8.903446	-130.708	12.1861	0.018594	0.651761	-0.643116	-0.644428	0.002102	8.903446	-0.643293	-3.276881E+8	-6.413466E-12	NaN
1206	1.000000	0.663094	7.37684e+06	-55289.1	1105.82	-29737.6	0.000000	0.000000	6.662996	0.004587	NaN	0.000000	0.001540	0.001672	28.083	0.049767	0.002060	24.1586	-75.4741	-161.997	-0.017413	0.661762	-0.633095	-0.634427	0.004587	24.1586	-0.633238	-2.384951E+8	-1.923356E-11	NaN
1206	1.000000	0.673109	7.37684e+06	-55289.1	1105.82	-29737.6	0.000000	0.000000	6.673013	0.046237	NaN	0.000000	0.001533	0.001688	28.0832	0.065874	0.002051	32.1215	-73.2331	11.0566	-0.004656	0.671755	-0.623081	-0.624435	0.046237	32.1215	-0.624160	-1.789807E+8	-2.583360E-10	NaN
1206	1.000000	0.683135	7.37684e+06	-55289.1	1105.82	-29737.6	0.000000	0.000000	6.683036	-0.023567	NaN	0.000000	0.001542	0.001655	28.0828	0.086441	0.002076	41.6435	-166.256	-163.756	-0.054951	0.681806	-0.613054	-0.614384	-0.023567	41.6435	-0.612630	-1.242490E+8	1.896755E-10	NaN
1206	1.000000	0.693113	7.37684e+06	-55289.1	1105.82	-29737.6	0.000000	0.000000	6.693015	-0.022129	NaN	0.000000	0.001496	0.001668	28.0826	0.079987	0.001955	40.9241	52.7168	11.5064	-0.045077	0.691804	-0.603076	-0.604385	-0.022129	40.9241	-0.602671	-9.062229E+7	2.441879E-10	NaN
1206	1.000000	0.703114	7.37684e+06	-55289.1	1105.82	-29737.6	0.000000	0.000000	6.703014	-0.046265	NaN	0.000000	0.001477	0.001655	28.0828	0.095186	0.001973	48.2478	38.9647	-166.141	-0.077573	0.701768	-0.593076	-0.594421	-0.046265	48.2478	-0.592356	-6.533566E+7	7.081156E-10	NaN
1206	1.000000	0.713119	7.37684e+06	-55289.1	1105.82	-29737.6	0.000000	0.000000	6.713017	-0.085715	NaN	0.000000	0.001494	0.001679	28.0832	0.046239	0.001999	23.1255	-88.9582	15.4969	0.023362	0.711732	-0.583071	-0.584457	-0.085715	23.1255	-0.580291	-4.453893E+7	1.924493E-9	NaN
1206	1.000000	0.723138	7.37684e+06	-55289.1	1105.82	-29737.6	0.000000	0.000000	6.723039	-0.036580	NaN	0.000000	0.001523	0.001678	28.0829	0.096046	0.002009	47.7988	-32.4289	-166.562	-0.005341	0.721832	-0.573051	-0.574358	-0.036580	47.7988	-0.572477	-3.474211E+7	1.052898E-9	NaN
1206	1.000000	0.733132	7.37684e+06	-55289.1	1105.82	-29737.6	0.000000	0.000000	6.733033	-0.028654	NaN	0.000000	0.001498	0.001657	28.0826	0.019895	0.001997	9.964179	121.33	14.7348	-0.009417	0.731728	-0.563058	-0.564461	-0.028654	9.964179	-0.560901	-2.403489E+7	1.192184E-9	NaN
1206	1.000000	0.743130	7.37684e+06	-55289.1	1105.82	-29737.6	0.000000	0.000000	6.743033	0.026887	NaN	0.000000	0.001543	0.001654	28.083	0.102871	0.001986	51.7934	87.0445	-163.962	-0.035169	0.741821	-0.553059	-0.554369	0.026887	51.7934	-0.553449	-1.895450E+7	-1.418503E-9	NaN
1206	1.000000	0.753110	7.37684e+06	-55289.1	1105.82	-29737.6	0.000000	0.000000	6.753013	0.020531	NaN	0.000000	0.001567	0.001638	28.0827	0.097114	0.002092	46.4156	-135.305	13.3129	0.035824	0.751784	-0.543080	-0.544406	0.020531	46.4156	-0.543412	-1.376137E+7	-1.491904E-9	NaN
1206	1.000000	0.763125	7.37684e+06	-55289.1	1105.82	-29737.6	0.000000	0.000000	6.763027	-0.000305	NaN	0.000000	0.001554	0.001618	28.0826	0.045676	0.001952	23.4028	164.505	-166.728	-0.033111	0.761845	-0.533065	-0.534344	-0.000305	23.4028	-0.533055	-9.88537e+06	3.082741E-11	NaN
1206	1.000000	0.773179	7.37684e+06	-55289.1	1105.82	-29737.6	0.000000	0.000000	6.773083	0.036115	NaN	0.000000	0.001574	0.001642	28.0812	0.131958	0.001923	68.6031	165.265	13.3113	0.109214	0.771724	-0.523010	-0.524466	0.036115	68.6031	-0.523405	-7.26007e+06	-4.974462E-9	NaN
1206	1.000000	0.783139	7.37684e+06	-55289.1	1105.82	-29737.6	0.000000	0.000000	6.783043	0.028416	NaN	0.000000	0.001567	0.001653	28.0816	0.017614	0.001999	8.813494	176.915	-160.708	-0.005058	0.781870	-0.513050	-0.514320	0.028416	8.813494	-0.515468	-5.63055e+06	-5.046786E-9	NaN
1206	1.000000	0.793159	7.37684e+06	-55289.1	1105.82	-29737.6	0.000000	0.000000	6.793060	-0.021381	NaN	0.000000	0.001580	0.001687	28.0811	0.055870	0.001942	28.7694	62.5648	13.563	-0.026748	0.791800	-0.503030	-0.504390	-0.021381	28.7694	-0.502473	-3.71116e+06	5.761189E-9	NaN
1206	1.000000	0.803146	7.37684e+06	-55289.1	1105.82	-29737.6	0.000000	0.000000	6.803049	0.007997	NaN	0.000000	0.001576	0.001668	28.0812	0.055638	0.002041	27.2597	83.5799	-164.827	0.035009	0.801853	-0.493043	-0.494337	0.007997	27.2597	-0.493263	-2.76045e+06	-2.896834E-9	NaN
1206	1.000000	0.813164	7.37684e+06	-55289.1	1105.82	-29737.6	0.000000	0.000000	6.813069	0.073535	NaN	0.000000	0.001572	0.001724	28.0812	0.099908	0.001974	50.6075	-150.208	14.2645	0.015233	0.811749	-0.483025	-0.484440	0.073535	50.6075	-0.484115	-2.05642e+06	-3.575882E-8	NaN
1206	1.000000	0.823149	7.37684e+06	-55289.1	1105.82	-29737.6	0.000000	0.000000	6.823052	0.027005	NaN	0.000000	0.001539	0.001720	28.0822	0.088400	0.001895	46.6608	31.3784	-164.212	-0.013921	0.821858	-0.473040	-0.474331	0.027005	46.6608	-0.473474	-1.45922e+06	-1.850653E-8	NaN
1206	1.000000	0.833157	7.37684e+06	-55289.1	1105.82	-29737.6	0.000000	0.000000	6.833059	-0.006882	NaN	0.000000	0.001542	0.001687	28.081	0.043503	0.001980	21.9747	-83.4348	12.2896	-0.096638	0.831815	-0.463033	-0.464374	-0.006882	21.9747	-0.462798	-1.03353e+06	6.658357E-9	NaN
1206	1.000000	0.843161	7.37684e+06	-55289.1	1105.82	-29737.6	0.000000	0.000000	6.843064	0.027633	NaN	0.000000	0.001601	0.001726	28.0812	0.042122	0.002059	20.4541	-88.8092	-165.877	0.017781	0.841895	-0.453028	-0.454294	0.027633	20.4541	-0.454042	-778458	-3.549717E-8	NaN
1206	1.000000	0.853159	7.37684e+06	-55289.1	1105.82	-29737.6	0.000000	0.000000	6.853063	0.031228	NaN	0.000000	0.001576	0.001694	28.0812	0.130577	0.002020	64.6521	-46.108	12.0027	-0.071301	0.851821	-0.443030	-0.444368	0.031228	64.6521	-0.443393	-551095	-5.666450E-8	NaN
1206	1.000000	0.863183	7.37684e+06	-55289.1	1105.82	-29737.6	0.000000	0.000000	6.863087	0.053595	NaN	0.000000	0.001583	0.001687	28.0813	0.041133	0.001916	21.463	-24.6582	-166.857	0.034092	0.861864	-0.433006	-0.434325	0.053595	21.463	-0.434879	-417877	-1.282555E-7	NaN
1206	1.000000	0.873174	7.37684e+06	-55289.1	1105.82	-29737.6	0.000000	0.000000	6.873076	4.166547E-5	NaN	0.000000	0.001535	0.001678	28.0812	0.068346	0.001957	34.9279	-150.697	17.3431	-0.009280	0.871838	-0.423016	-0.424351	4.166547E-5	34.9279	-0.423017	-283913	-1.467542E-10	NaN
1206	1.000000	0.883199	7.37684e+06	-55289.1	1105.82	-29737.6	0.000000	0.000000	6.883102	0.017543	NaN	0.000000	0.001590	0.001673	28.0813	0.105262	0.001898	55.4705	8.731061	-162.896	0.060257	0.881869	-0.412991	-0.414320	0.017543	55.4705	-0.413228	-206196	-8.508020E-8	NaN
1206	1.000000	0.893188	7.37684e+06	-55289.1	1105.82	-29737.6	0.000000	0.000000	6.893090	0.019335	NaN	0.000000	0.001549	0.001677	28.0815	0.017610	0.002054	8.573925	-83.8442	14.4998	-0.016556	0.891806	-0.403002	-0.404384	0.019335	8.573925	-0.404693	-155912	-1.240115E-7	NaN
1206	1.000000	0.903199	7.37684e+06	-55289.1	1105.82	-29737.6	0.000000	0.000000	6.903101	0.003874	NaN	0.000000	0.001570	0.001704	28.0815	0.057359	0.002006	28.6006	133.77	-160.979	-0.067394	0.901865	-0.392991	-0.394324	0.003874	28.6006	-0.393092	-106507	-3.637734E-8	NaN
1206	1.000000	0.913197	7.37684e+06	-55289.1	1105.82	-29737.6	0.000000	0.000000	6.913100	0.019242	NaN	0.000000	0.001536	0.001692	28.0825	0.023292	0.001972	11.8107	-84.2989	17.6219	0.035125	0.911836	-0.382992	-0.384353	0.019242	11.8107	-0.384214	-79491.7	-2.420569E-7	NaN
1206	1.000000	0.923192	7.37684e+06	-55289.1	1105.82	-29737.6	0.000000	0.000000	6.923096	0.035934	NaN	0.000000	0.001546	0.001664	28.0824	0.022934	0.001999	11.4747	-110.979	-163.675	0.022033	0.921911	-0.372997	-0.374278	0.035934	11.4747	-0.375346	-59298.7	-6.059860E-7	NaN
1206	1.000000	0.933196	7.37684e+06	-55289.1	1105.82	-29737.6	0.000000	0.000000	6.933098	0.008139	NaN	0.000000	0.001533	0.001695	28.0828	0.070062	0.002074	33.7735	160.741	15.7177	-0.008693	0.931861	-0.362993	-0.364328	0.008139	33.7735	-0.363174	-39600.6	-2.055197E-7	NaN
1206	1.000000	0.943233	7.37684e+06	-55289.1	1105.82	-29737.6	0.000000	0.000000	6.943135	0.014365	NaN	0.000000	0.001575	0.001690	28.0825	0.152881	0.001953	78.2654	-46.3602	-164.042	0.076112	0.941876	-0.352957	-0.354314	0.014365	78.2654	-0.353094	-28306.4	-5.074856E-7	NaN
1206	1.000000	0.953217	7.37684e+06	-55289.1	1105.82	-29737.6	0.000000	0.000000	6.953120	0.015779	NaN	0.000000	0.001535	0.001675	28.0826	0.128011	0.002121	60.3542	-155.023	15.3582	0.053159	0.951850	-0.342972	-0.344340	0.015779	60.3542	-0.343168	-20309.8	-7.769338E-7	NaN
1206	1.000000	0.963230	7.37684e+06	-55289.1	1105.82	-29737.6	0.000000	0.000000	6.963131	-0.020749	NaN	0.000000	0.001526	0.001710	28.0829	0.159711	0.001981	80.6104	-74.4545	-165.257	0.071023	0.961962	-0.332960	-0.334227	-0.020749	80.6104	-0.332767	-14320	1.448980E-6	NaN
1206	1.000000	0.973237	7.37684e+06	-55289.1	1105.82	-29737.6	0.000000	0.000000	6.973140	0.020757	NaN	0.000000	0.001570	0.001652	28.0827	0.085414	0.001925	44.3797	-22.8684	14.2609	0.048222	0.971885	-0.322952	-0.324304	0.020757	44.3797	-0.323303	-10404.2	-1.995042E-6	NaN
1206	1.000000	0.983219	7.37684e+06	-55289.1	1105.82	-29737.6	0.000000	0.000000	6.983121	-0.006250	NaN	0.000000	0.001566	0.001681	28.0828	0.049795	0.002018	24.6714	-99.1427	-163.386	0.027382	0.981982	-0.312971	-0.314207	-0.006250	24.6714	-0.312781	-7280.72	8.584587E-7	NaN
1206	1.000000	0.993230	7.37684e+06	-55289.1	1105.82	-29737.6	0.000000	0.000000	6.993133	0.004941	NaN	0.000000	0.001565	0.001713	28.0827	0.124624	0.001923	64.8101	-45.4044	15.3721	-0.045781	0.991880	-0.302959	-0.304310	0.004941	64.8101	-0.303016	-5217.89	-9.470286E-7	NaN
1206	1.000000	1.003204	7.37684e+06	-55289.1	1105.82	-29737.6	0.000000	0.000000	7.003109	0.078957	NaN	0.000000	0.001527	0.001653	28.0825	0.050094	0.001986	25.2226	-36.1396	-162.184	0.051991	1.001925	-0.292986	-0.294264	0.078957	25.2226	-0.295333	-4009.27	-1.969357E-5	NaN
1206	1.000000	1.013209	7.37684e+06	-55289.1	1105.82	-29737.6	0.000000	0.000000	7.013111	0.009044	NaN	0.000000	0.001537	0.001679	28.0826	0.156924	0.001956	80.2471	150.592	17.1424	0.074127	1.011869	-0.282981	-0.284321	0.009044	80.2471	-0.283065	-2625.19	-3.444947E-6	NaN
1206	1.000000	1.023228	7.37684e+06	-55289.1	1105.82	-29737.6	0.000000	0.000000	7.023131	0.032412	NaN	0.000000	0.001545	0.001658	28.0825	0.029524	0.002074	14.2365	144.202	-163.192	0.079897	1.021954	-0.272962	-0.274235	0.032412	14.2365	-0.274669	-1960.61	-1.653153E-5	NaN
1206	1.000000	1.033228	7.37684e+06	-55289.1	1105.82	-29737.6	0.000000	0.000000	7.033129	-0.004886	NaN	0.000000	0.001516	0.001655	28.0829	0.048265	0.002050	23.5398	69.3667	11.7892	0.038926	1.031884	-0.262962	-0.264305	-0.004886	23.5398	-0.262806	-1293.83	3.776310E-6	NaN
1206	1.000000	1.043245	7.37684e+06	-55289.1	1105.82	-29737.6	0.000000	0.000000	7.043147	0.000245	NaN	0.000000	0.001547	0.001650	28.0812	0.039490	0.002043	19.3337	54.5296	-165.508	-0.022059	1.041966	-0.252944	-0.254223	0.000245	19.3337	-0.252954	-913.235	-2.677670E-7	NaN
1206	1.000000	1.053240	7.37684e+06	-55289.1	1105.82	-29737.6	0.000000	0.000000	7.053145	0.062982	NaN	0.000000	0.001539	0.001727	28.0813	0.133077	0.002017	65.9793	25.5832	15.4831	0.013723	1.051926	-0.242949	-0.244264	0.062982	65.9793	-0.243665	-655.68	-9.605631E-5	NaN
1206	1.000000	1.063266	7.37684e+06	-55289.1	1105.82	-29737.6	0.000000	0.000000	7.063170	0.055749	NaN	0.000000	0.001526	0.001740	28.0813	0.052661	0.001950	27.0002	15.6163	-164.503	0.016775	1.062005	-0.232924	-0.234185	0.055749	27.0002	-0.234472	-470.935	-0.000118	NaN
1206	1.000000	1.073246	7.37684e+06	-55289.1	1105.82	-29737.6	0.000000	0.000000	7.073151	0.064391	NaN	0.000000	0.001532	0.001744	28.0813	0.135681	0.001932	70.232	-40.2111	14.0191	0.108158	1.071898	-0.222943	-0.224291	0.064391	70.232	-0.223631	-317.373	-0.000203	NaN
1206	1.000000	1.083274	7.37684e+06	-55289.1	1105.82	-29737.6	0.000000	0.000000	7.083177	0.007450	NaN	0.000000	0.001550	0.001739	28.0811	0.074595	0.001943	38.4012	91.412	-165.71	-0.012825	1.081977	-0.212915	-0.214212	0.007450	38.4012	-0.213061	-214.923	-3.466468E-5	NaN
1206	1.000000	1.093271	7.37684e+06	-55289.1	1105.82	-29737.6	0.000000	0.000000	7.093179	0.125593	NaN	0.000000	0.001512	0.001738	28.0811	0.020870	0.001958	10.6595	-3.931028	16.8905	0.143465	1.091960	-0.202918	-0.204230	0.125593	10.6595	-0.211755	-204.74	-0.000613	NaN
1206	1.000000	1.103262	7.37684e+06	-55289.1	1105.82	-29737.6	0.000000	0.000000	7.103165	0.032254	NaN	0.000000	0.001554	0.001749	28.0817	0.061244	0.002005	30.5519	47.6038	-165.753	0.145257	1.101927	-0.192927	-0.194263	0.032254	30.5519	-0.193719	-103.744	-0.000311	NaN
1206	1.000000	1.113274	7.37684e+06	-55289.1	1105.82	-29737.6	0.000000	0.000000	7.113182	0.142417	NaN	0.000000	0.001540	0.001759	28.0812	0.027744	0.002117	13.1074	-26.8662	12.4939	0.097675	1.111940	-0.182916	-0.184249	0.142417	13.1074	-0.191065	-93.7123	-0.001520	NaN
1206	1.000000	1.123271	7.37684e+06	-55289.1	1105.82	-29737.6	0.000000	0.000000	7.123177	0.104849	NaN	0.000000	0.001558	0.001758	28.0813	0.075456	0.001835	41.1144	6.721500	-165.923	0.150392	1.121921	-0.172919	-0.174269	0.104849	41.1144	-0.174831	-49.783	-0.002106	NaN
1206	1.000000	1.133306	7.37684e+06	-55289.1	1105.82	-29737.6	0.000000	0.000000	7.133214	0.138034	NaN	0.000000	0.001526	0.001751	28.0815	0.058836	0.002051	28.6934	-164.983	16.2605	0.120317	1.131923	-0.162884	-0.164266	0.138034	28.6934	-0.166492	-35.6823	-0.003868	NaN
1206	1.000000	1.143258	7.37684e+06	-55289.1	1105.82	-29737.6	0.000000	0.000000	7.143163	0.074691	NaN	0.000000	0.001547	0.001806	28.0816	0.138074	0.001931	71.4939	109.551	-166.782	0.021556	1.141977	-0.152931	-0.154213	0.074691	71.4939	-0.153715	-21.1552	-0.003531	NaN
1206	1.000000	1.153307	7.37684e+06	-55289.1	1105.82	-29737.6	0.000000	0.000000	7.153211	0.060712	NaN	0.000000	0.001553	0.001770	28.0815	0.089030	0.002143	41.5461	-6.770544	16.8999	0.107877	1.151910	-0.142883	-0.144279	0.060712	41.5461	-0.143979	-14.0362	-0.004325	NaN
1206	1.000000	1.163304	7.37684e+06	-55289.1	1105.82	-29737.6	0.000000	0.000000	7.163207	0.031419	NaN	0.000000	0.001554	0.001744	28.0816	0.026887	0.002085	12.8965	2.209625	-165.375	0.013871	1.161976	-0.132885	-0.134214	0.031419	12.8965	-0.134713	-9.392923	-0.003345	NaN
1206	1.000000	1.173295	7.37684e+06	-55289.1	1105.82	-29737.6	0.000000	0.000000	7.173197	-0.000924	NaN	0.000000	0.001518	0.001765	28.0816	0.159866	0.002027	78.8532	78.8318	19.4871	0.039696	1.171943	-0.122895	-0.124247	-0.000924	78.8532	-0.122886	-5.520647	0.000167	NaN
1206	1.000000	1.183323	7.37684e+06	-55289.1	1105.82	-29737.6	0.000000	0.000000	7.183228	0.079803	NaN	0.000000	0.001514	0.001766	28.083	0.129255	0.001947	66.3741	-16.6403	-164.581	0.049298	1.182065	-0.112867	-0.114124	0.079803	66.3741	-0.113768	-3.602865	-0.022150	NaN
1206	1.000000	1.193302	7.37684e+06	-55289.1	1105.82	-29737.6	0.000000	0.000000	7.193211	0.164110	NaN	0.000000	0.001540	0.001770	28.0828	0.168424	0.002001	84.151	13.0101	17.3528	0.171470	1.191896	-0.102887	-0.104293	0.164110	84.151	-0.104350	-2.275671	-0.072115	NaN
1206	1.000000	1.203341	7.37684e+06	-55289.1	1105.82	-29737.6	0.000000	0.000000	7.203262	0.457727	NaN	0.000000	0.001524	0.001773	28.0827	0.332349	0.002045	162.548	27.0059	-165.779	0.443262	1.201993	-0.092848	-0.094196	0.457727	162.548	-0.094960	-1.407695	-0.325161	NaN
1206	1.000000	1.213324	7.37684e+06	-55289.1	1105.82	-29737.6	0.000000	0.000000	7.213255	0.705342	NaN	0.000000	0.001510	0.001754	28.083	0.562056	0.002009	279.7	50.2031	13.5578	0.600871	1.211995	-0.082865	-0.084195	0.705342	279.7	-0.084757	-0.810554	-0.870198	NaN
1206	1.000000	1.223324	7.37684e+06	-55289.1	1105.82	-29737.6	0.000000	0.000000	7.223265	0.949095	NaN	0.000000	0.001516	0.001714	28.0828	0.615541	0.002021	304.608	34.5423	-165.851	0.918746	1.222072	-0.072865	-0.074117	0.949095	304.608	-0.075202	-0.467457	-2.030338	NaN
1206	1.000000	1.233349	7.37684e+06	-55289.1	1105.82	-29737.6	0.000000	0.000000	7.233298	1.129781	NaN	0.000000	0.001526	0.001756	28.0829	0.643857	0.002103	306.165	39.0591	11.9739	1.109531	1.231950	-0.062840	-0.064239	1.129781	306.165	-0.065608	-0.259062	-4.361037	NaN
1206	1.000000	1.243318	7.37684e+06	-55289.1	1105.82	-29737.6	0.000000	0.000000	7.243272	1.246379	NaN	0.000000	0.001481	0.001761	28.0825	0.710798	0.001928	368.67	22.774	-166.271	1.135098	1.242064	-0.052871	-0.054125	1.246379	368.67	-0.055407	-0.132389	-9.414489	NaN
1206	1.000000	1.253348	7.37684e+06	-55289.1	1105.82	-29737.6	0.000000	0.000000	7.253313	1.518072	NaN	0.000000	0.001466	0.001765	28.083	0.829816	0.001932	429.412	27.9636	11.6906	1.480358	1.252008	-0.042841	-0.044181	1.518072	429.412	-0.045493	-0.066537	-22.8154	NaN
1206	1.000000	1.263365	7.37684e+06	-55289.1	1105.82	-29737.6	0.000000	0.000000	7.263335	1.647379	NaN	0.000000	0.001546	0.001747	28.0826	0.859673	0.001960	438.659	21.5086	-165.298	1.629082	1.262065	-0.032824	-0.034125	1.647379	438.659	-0.035641	-0.033451	-49.2474	NaN
1206	1.000000	1.273339	7.37684e+06	-55289.1	1105.82	-29737.6	0.000000	0.000000	7.273317	1.840378	NaN	0.000000	0.001563	0.001752	28.0829	0.868298	0.001845	470.662	18.6124	14.0851	1.776864	1.271879	-0.022850	-0.024310	1.840378	470.662	-0.025783	-0.017687	-104.05	NaN
1206	1.000000	1.283343	7.37684e+06	-55289.1	1105.82	-29737.6	0.000000	0.000000	7.283333	2.148181	NaN	0.000000	0.001569	0.001752	28.0828	0.941171	0.002104	447.241	25.8585	-166.697	2.086029	1.282058	-0.012846	-0.014131	2.148181	447.241	-0.016449	-0.010162	-211.395	NaN
1206	1.000000	1.293349	7.37684e+06	-55289.1	1105.82	-29737.6	0.000000	0.000000	7.293359	2.607884	NaN	0.000000	0.001563	0.001711	28.0829	1.131670	0.002024	559.013	22.1746	14.6056	2.515375	1.291981	-0.002840	-0.004208	2.607884	559.013	-0.006339	-0.004243	-614.68	NaN
1206	1.000000	1.303359	7.37684e+06	-55289.1	1105.82	-29737.6	0.000000	0.000000	7.303392	3.191376	NaN	0.000000	0.001558	0.001779	28.0827	1.220843	0.002003	609.357	22.3052	-165.451	3.090036	1.302084	0.007169	0.005895	3.191376	609.357	0.003241	0.002584	1235.11	10952.4
1206	1.000000	1.313363	7.37684e+06	-55289.1	1105.82	-29737.6	0.000000	0.000000	7.313412	3.570868	NaN	0.000000	0.001538	0.001756	28.0825	1.206006	0.001953	617.42	16.093	17.5084	3.446571	1.312058	0.017174	0.015869	3.570868	617.42	0.012836	0.012507	285.51	5044.03
1206	1.000000	1.323370	7.37684e+06	-55289.1	1105.82	-29737.6	0.000000	0.000000	7.323448	4.284361	NaN	0.000000	0.001537	0.001728	28.0817	1.331384	0.002069	643.413	14.6426	-160.519	4.203745	1.322032	0.027180	0.025843	4.284361	643.413	0.022186	0.026095	164.186	3639.05
1206	1.000000	1.333371	7.37684e+06	-55289.1	1105.82	-29737.6	0.000000	0.000000	7.333477	4.963781	NaN	0.000000	0.001552	0.001752	28.0815	1.496221	0.001974	757.972	15.8215	13.3807	4.855686	1.332051	0.037181	0.035862	4.963781	757.972	0.032269	0.045579	108.905	3243.73
1206	1.000000	1.343398	7.37684e+06	-55289.1	1105.82	-29737.6	0.000000	0.000000	7.343537	5.744997	NaN	0.000000	0.001528	0.001760	28.0814	1.560252	0.002040	764.901	19.7157	-166.52	5.632359	1.342026	0.047209	0.045836	5.744997	764.901	0.041576	0.068164	84.2821	2676.71
1206	1.000000	1.353381	7.37684e+06	-55289.1	1105.82	-29737.6	0.000000	0.000000	7.353547	6.430064	NaN	0.000000	0.001565	0.001736	28.081	1.718359	0.001999	859.712	18.6639	10.9291	6.219494	1.352050	0.057191	0.055860	6.430064	859.712	0.051582	0.097365	66.0407	2517.24
1206	1.000000	1.363374	7.37684e+06	-55289.1	1105.82	-29737.6	0.000000	0.000000	7.363569	7.110531	NaN	0.000000	0.001506	0.001754	28.0815	1.899139	0.001983	957.723	18.724	-167.033	7.032948	1.362085	0.067185	0.065895	7.110531	957.723	0.061616	0.131668	54.0035	2411.42
1206	1.000000	1.373418	7.37684e+06	-55289.1	1105.82	-29737.6	0.000000	0.000000	7.373641	7.804138	NaN	0.000000	0.001527	0.001735	28.0814	2.215943	0.002108	1051.4	19.5511	13.4476	7.648560	1.372003	0.077229	0.075813	7.804138	1051.4	0.071662	0.170913	45.6614	2323.56
1206	1.000000	1.383277	7.37684e+06	-55289.1	1105.82	-29737.6	0.000000	0.000000	7.383550	9.022830	NaN	0.000000	0.001531	0.001761	28.0814	2.479210	0.002042	1214.35	19.0085	-168.948	9.010259	1.382068	0.087088	0.085879	9.022830	1214.35	0.081515	0.214058	42.1513	2398.02
1206	2.000000	1.386491	7.37684e+06	-55289.1	1105.82	-29737.6	0.000000	0.000000	7.386729	8.152339	NaN	0.000000	0.001576	0.001773	28.0814	2.421522	0.001849	1309.96	16.9017	10.7161	8.121183	1.386102	0.090302	0.089912	8.152339	1309.96	0.085634	0.233437	34.9231	2477.13
1206	2.000000	1.388951	7.37684e+06	-55289.1	1105.82	-29737.6	0.000000	0.000000	7.389186	8.101634	NaN	0.000000	0.001571	0.001729	28.0816	2.527284	0.001948	1297.5	13.149	-164.476	8.091732	1.388605	0.092761	0.092416	8.101634	1297.5	0.088078	0.245306	33.0267	2393.46
1206	2.000000	1.391450	7.37684e+06	-55289.1	1105.82	-29737.6	0.000000	0.000000	7.391697	8.374686	NaN	0.000000	0.001596	0.001726	28.0815	2.693544	0.002004	1343.8	15.5051	12.9366	8.293261	1.391051	0.095261	0.094862	8.374686	1343.8	0.090587	0.257771	32.4888	2418.2
1206	2.000000	1.393927	7.37684e+06	-55289.1	1105.82	-29737.6	0.000000	0.000000	7.394187	8.706620	NaN	0.000000	0.001522	0.001771	28.0818	2.674644	0.001949	1372.17	10.5132	-164.478	8.668465	1.393625	0.097738	0.097436	8.706620	1372.17	0.092979	0.269928	32.2554	2412.99
1206	2.000000	1.396408	7.37684e+06	-55289.1	1105.82	-29737.6	0.000000	0.000000	7.396679	8.958845	NaN	0.000000	0.001536	0.001766	28.0815	2.886384	0.002016	1431.98	13.7117	12.6146	8.763235	1.396074	0.100218	0.099884	8.958845	1431.98	0.095526	0.283162	31.6386	2458.63
1206	2.000000	1.398926	7.37684e+06	-55289.1	1105.82	-29737.6	0.000000	0.000000	7.399212	9.333649	NaN	0.000000	0.001576	0.001736	28.0817	2.815860	0.002093	1345.56	16.3254	-168.971	9.304868	1.398591	0.102737	0.102401	9.333649	1345.56	0.097534	0.293803	31.7684	2268.02
1206	2.000000	1.401397	7.37684e+06	-55289.1	1105.82	-29737.6	0.000000	0.000000	7.401691	9.531623	NaN	0.000000	0.001543	0.001752	28.0825	3.055073	0.002035	1501.13	17.1973	9.407015	9.481744	1.401035	0.105207	0.104846	9.531623	1501.13	0.100445	0.309553	30.7916	2465.04
1206	2.000000	1.403885	7.37684e+06	-55289.1	1105.82	-29737.6	0.000000	0.000000	7.404191	9.815818	NaN	0.000000	0.001574	0.001735	28.0828	3.037312	0.002044	1485.94	13.6359	-166.717	9.747601	1.403619	0.107695	0.107429	9.815818	1485.94	0.102741	0.322247	30.4605	2391.55
1206	2.000000	1.406373	7.37684e+06	-55289.1	1105.82	-29737.6	0.000000	0.000000	7.406691	10.1038	NaN	0.000000	0.001610	0.001746	28.0828	3.090364	0.001915	1613.36	11.9478	13.9677	9.962012	1.406060	0.110183	0.109870	10.1038	1613.36	0.105486	0.337741	29.9158	2536.37
1206	2.000000	1.408887	7.37684e+06	-55289.1	1105.82	-29737.6	0.000000	0.000000	7.409224	10.5831	NaN	0.000000	0.001593	0.001749	28.083	3.299636	0.001989	1659.07	10.8182	-165.718	10.4795	1.408551	0.112697	0.112361	10.5831	1659.07	0.107913	0.351719	30.0896	2555.87
1206	2.000000	1.411382	7.37684e+06	-55289.1	1105.82	-29737.6	0.000000	0.000000	7.411736	10.9804	NaN	0.000000	0.001559	0.001722	28.0825	3.418110	0.001880	1818.45	15.2543	10.4388	10.9279	1.410990	0.115192	0.114800	10.9804	1818.45	0.110664	0.367890	29.847	2739.14
1206	2.000000	1.413874	7.37684e+06	-55289.1	1105.82	-29737.6	0.000000	0.000000	7.414234	11.1174	NaN	0.000000	0.001590	0.001757	28.0831	3.536962	0.002019	1752.16	14.91	-166.882	11.2367	1.413610	0.117685	0.117421	11.1174	1752.16	0.112926	0.381447	29.1454	2591.97
1206	2.000000	1.416363	7.37684e+06	-55289.1	1105.82	-29737.6	0.000000	0.000000	7.416740	11.5498	NaN	0.000000	0.001623	0.001683	28.0829	3.555739	0.001866	1905.81	12.8259	10.698	11.3522	1.416025	0.120173	0.119835	11.5498	1905.81	0.115628	0.397939	29.0241	2760.22
1206	2.000000	1.418891	7.37684e+06	-55289.1	1105.82	-29737.6	0.000000	0.000000	7.419283	11.912	NaN	0.000000	0.001645	0.001681	28.083	3.760366	0.002037	1846.37	14.4612	-169.478	12.1345	1.418577	0.122701	0.122388	11.912	1846.37	0.117862	0.411829	28.9246	2628.66
1206	2.000000	1.421345	7.37684e+06	-55289.1	1105.82	-29737.6	0.000000	0.000000	7.421755	12.3453	NaN	0.000000	0.001580	0.001666	28.0829	4.067210	0.002017	2016.25	16.2726	8.233173	12.1312	1.420978	0.125156	0.124789	12.3453	2016.25	0.120563	0.428922	28.7821	2812.73
1206	2.000000	1.423888	7.37684e+06	-55289.1	1105.82	-29737.6	0.000000	0.000000	7.424313	12.7221	NaN	0.000000	0.001536	0.001720	28.0829	4.054417	0.001913	2119.7	14.7038	-169.543	12.7644	1.423582	0.127698	0.127392	12.7221	2119.7	0.123197	0.445908	28.5307	2900.18
1206	2.000000	1.426380	7.37684e+06	-55289.1	1105.82	-29737.6	0.000000	0.000000	7.426829	13.2868	NaN	0.000000	0.001552	0.001700	28.083	4.185874	0.002072	2019.91	17.3553	10.2137	13.3207	1.426036	0.130191	0.129847	13.2868	2019.91	0.125257	0.459417	28.921	2722.71
1206	2.000000	1.428855	7.37684e+06	-55289.1	1105.82	-29737.6	0.000000	0.000000	7.429325	13.8159	NaN	0.000000	0.001561	0.001728	28.0829	4.221684	0.002033	2076.27	13.923	-166.935	13.7407	1.428531	0.132665	0.132342	13.8159	2076.27	0.127674	0.475510	29.0549	2750.91
1206	2.000000	1.431372	7.37684e+06	-55289.1	1105.82	-29737.6	0.000000	0.000000	7.431860	14.2502	NaN	0.000000	0.001565	0.001758	28.0826	4.445364	0.001968	2258.56	11.9439	12.9882	14.3068	1.431022	0.135182	0.134832	14.2502	2258.56	0.130450	0.494321	28.8279	2934.95
1206	2.000000	1.433849	7.37684e+06	-55289.1	1105.82	-29737.6	0.000000	0.000000	7.434356	14.7183	NaN	0.000000	0.001541	0.001737	28.0829	4.397492	0.001823	2412.59	10.6231	-168.093	14.7444	1.433550	0.137659	0.137360	14.7183	2412.59	0.133084	0.512492	28.7191	3079.03
1206	2.000000	1.436357	7.37684e+06	-55289.1	1105.82	-29737.6	0.000000	0.000000	7.436875	14.968	NaN	0.000000	0.001500	0.001706	28.0817	4.785495	0.001921	2490.91	13.1534	10.0124	15.0062	1.436032	0.140168	0.139842	14.968	2490.91	0.135661	0.530586	28.2103	3124.31
1206	2.000000	1.438874	7.37684e+06	-55289.1	1105.82	-29737.6	0.000000	0.000000	7.439410	15.4083	NaN	0.000000	0.001585	0.001738	28.0816	4.875208	0.002011	2423.76	13.1746	-167.954	15.4416	1.438543	0.142685	0.142353	15.4083	2423.76	0.137917	0.546671	28.1857	2995.02
1206	2.000000	1.441307	7.37684e+06	-55289.1	1105.82	-29737.6	0.000000	0.000000	7.441865	15.9486	NaN	0.000000	0.001558	0.001756	28.0816	4.990370	0.001918	2601.49	16.544	6.980806	15.7393	1.441008	0.145118	0.144819	15.9486	2601.49	0.140520	0.565522	28.2016	3160.61
1206	2.000000	1.443820	7.37684e+06	-55289.1	1105.82	-29737.6	0.000000	0.000000	7.444399	16.4477	NaN	0.000000	0.001528	0.001753	28.0816	5.146211	0.002129	2417.22	16.5051	-171.784	16.3003	1.443521	0.147631	0.147331	16.4477	2417.22	0.142527	0.580276	28.3446	2899.16
1206	2.000000	1.446384	7.37684e+06	-55289.1	1105.82	-29737.6	0.000000	0.000000	7.446983	16.9443	NaN	0.000000	0.001569	0.001745	28.0818	5.241629	0.002021	2593.65	12.4705	11.6397	17.0592	1.445994	0.150195	0.149805	16.9443	2593.65	0.145295	0.600919	28.1973	3056.87
1206	2.000000	1.448842	7.37684e+06	-55289.1	1105.82	-29737.6	0.000000	0.000000	7.449468	17.5949	NaN	0.000000	0.001547	0.001749	28.0816	5.266495	0.001887	2790.36	14.1663	-170.588	17.6726	1.448563	0.152653	0.152373	17.5949	2790.36	0.147923	0.620855	28.3397	3235.48
1206	2.000000	1.451323	7.37684e+06	-55289.1	1105.82	-29737.6	0.000000	0.000000	7.451971	18.1421	NaN	0.000000	0.001542	0.001726	28.0816	5.484436	0.001897	2890.53	14.8038	9.643557	17.9577	1.450971	0.155133	0.154781	18.1421	2890.53	0.150426	0.640135	28.341	3300.77
1206	2.000000	1.453846	7.37684e+06	-55289.1	1105.82	-29737.6	0.000000	0.000000	7.454515	18.6434	NaN	0.000000	0.001570	0.001737	28.0819	5.551712	0.001944	2855.26	13.6905	-169.965	18.7275	1.453577	0.157657	0.157388	18.6434	2855.26	0.152760	0.658375	28.3173	3215.01
1206	2.000000	1.456314	7.37684e+06	-55289.1	1105.82	-29737.6	0.000000	0.000000	7.457002	19.1021	NaN	0.000000	0.001534	0.001714	28.0818	5.919091	0.001906	3105.97	13.5642	8.754591	18.8309	1.455989	0.160125	0.159799	19.1021	3105.97	0.155512	0.680217	28.0824	3440.7
1206	2.000000	1.458802	7.37684e+06	-55289.1	1105.82	-29737.6	0.000000	0.000000	7.459515	19.7125	NaN	0.000000	0.001514	0.001773	28.0818	6.039635	0.002086	2894.97	11.3595	-167.242	19.6205	1.458503	0.162613	0.162313	19.7125	2894.97	0.157506	0.696259	28.312	3169.8
1206	2.000000	1.461346	7.37684e+06	-55289.1	1105.82	-29737.6	0.000000	0.000000	7.462081	20.2539	NaN	0.000000	0.001534	0.001753	28.0818	6.186169	0.001947	3177.94	14.2112	7.639141	20.1382	1.460949	0.165156	0.164760	20.2539	3177.94	0.160377	0.719684	28.1427	3422.54
1206	2.000000	1.463828	7.37684e+06	-55289.1	1105.82	-29737.6	0.000000	0.000000	7.464578	20.6124	NaN	0.000000	0.001533	0.001763	28.0821	6.148888	0.002066	2976.01	12.6829	-170.107	20.8482	1.463527	0.167638	0.167338	20.6124	2976.01	0.162444	0.736794	27.9759	3167.62
1206	2.000000	1.466311	7.37684e+06	-55289.1	1105.82	-29737.6	0.000000	0.000000	7.467093	21.3947	NaN	0.000000	0.001570	0.001719	28.0819	6.044636	0.001844	3277.18	13.0336	8.303646	21.1422	1.465961	0.170122	0.169771	21.3947	3277.18	0.165225	0.760138	28.1459	3434.22
1206	2.000000	1.468826	7.37684e+06	-55289.1	1105.82	-29737.6	0.000000	0.000000	7.469627	21.8589	NaN	0.000000	0.001525	0.001671	28.0824	6.455330	0.001986	3249.85	14.5256	-172.62	21.6614	1.468499	0.172637	0.172309	21.8589	3249.85	0.167592	0.780285	28.014	3361.32
1206	2.000000	1.471342	7.37684e+06	-55289.1	1105.82	-29737.6	0.000000	0.000000	7.472171	22.5367	NaN	0.000000	0.001540	0.001713	28.0832	6.785126	0.002159	3142.34	15.4698	7.743271	22.4654	1.470958	0.175152	0.174768	22.5367	3142.34	0.169774	0.799094	28.2028	3211.64
1206	2.000000	1.473808	7.37684e+06	-55289.1	1105.82	-29737.6	0.000000	0.000000	7.474654	22.949	NaN	0.000000	0.001543	0.001729	28.0832	6.884550	0.002175	3164.62	12.0076	-168.767	22.8132	1.473470	0.177618	0.177280	22.949	3164.62	0.172180	0.820103	27.9831	3192.72
1206	2.000000	1.476297	7.37684e+06	-55289.1	1105.82	-29737.6	0.000000	0.000000	7.477164	23.4444	NaN	0.000000	0.001520	0.001725	28.0832	6.582002	0.001997	3295.59	10.187	12.102	23.2338	1.475973	0.180108	0.179784	23.4444	3295.59	0.174772	0.843049	27.8091	3279.29
1206	2.000000	1.478786	7.37684e+06	-55289.1	1105.82	-29737.6	0.000000	0.000000	7.479681	24.1288	NaN	0.000000	0.001531	0.001733	28.083	6.679230	0.002066	3233.31	10.0786	-167.568	23.9939	1.478453	0.182597	0.182263	24.1288	3233.31	0.177000	0.863021	27.9585	3179.87
1206	2.000000	1.481273	7.37684e+06	-55289.1	1105.82	-29737.6	0.000000	0.000000	7.482160	23.9455	NaN	0.000000	0.001560	0.001715	28.0831	6.898859	0.002138	3227.05	13.2542	10.4466	23.8117	1.480960	0.185083	0.184771	23.9455	3227.05	0.179518	0.885885	27.03	3132.49
1206	2.000000	1.482318	7.37684e+06	-55289.1	1105.82	-29737.6	0.000000	0.000000	7.483206	23.9706	NaN	0.000000	0.001573	0.001736	28.0829	6.774798	0.002079	3258.06	11.4547	11.7432	23.9307	1.481978	0.186129	0.185788	23.9706	3258.06	0.180611	0.895904	26.7558	3144.86