File: remote_trans/data/nanoindenter/0828-1/data/Data_2025-08-06,11h17m57s/2025-07-22_16-23-58_1_418.txt
2025-07-22, 16:23:58, 1
Index	Phase	Displacement	Time	Pos X	Pos Y	Pos Z	Rot A	Rot B	Piezo Z	Force A	Force B	Gripper	Voltage A	Voltage B	Temperature	Amplitude force	Amplitude pos	Stiffness	Phase shift	Phase excitation	Force A raw	Displacement raw	HMax	HMax raw	Real Force	Real Stiffness	Contact Depth	Area	Hardness	Reduced Mod.
[#]	[#]	[um]	[s]	[um]	[um]	[um]	[m°]	[m°]	[um]	[uN]	[uN]	[V]	[V]	[V]	[°C]	[uN]	[um]	[N/m]	[°]	[°]	[uN]	[um]	[um]	[um]	[uN]	[N/m]	[um]	[um^2]	[MPa]	[MPa]
418	1.000000	0.002599	7.36915e+06	-56189.1	1005.82	-29739.7	0.000000	0.000000	6.002805	0.052876	NaN	0.000000	0.001700	0.001642	28.0815	0.042043	0.001065	39.4786	-12.5564	-172.633	0.070737	0.001357	-1.119794	-1.121037	0.052876	39.4786	-1.120799	-9.532095E+14	-5.547140E-17	NaN
418	1.000000	0.012636	7.36915e+06	-56189.1	1005.82	-29739.7	0.000000	0.000000	6.012840	0.022178	NaN	0.000000	0.001716	0.001664	28.081	0.075763	0.001270	59.6408	41.174	16.9699	0.045309	0.011254	-1.109758	-1.111140	0.022178	59.6408	-1.110037	-6.835681E+14	-3.244386E-17	NaN
418	1.000000	0.022556	7.36915e+06	-56189.1	1005.82	-29739.7	0.000000	0.000000	6.022762	0.056723	NaN	0.000000	0.001697	0.001621	28.0811	0.092663	0.001796	51.5894	141.638	-165.549	0.086796	0.021227	-1.099837	-1.101166	0.056723	51.5894	-1.100662	-5.116239E+14	-1.108681E-16	NaN
418	1.000000	0.032563	7.36915e+06	-56189.1	1005.82	-29739.7	0.000000	0.000000	6.032769	0.050804	NaN	0.000000	0.001701	0.001638	28.0809	0.032618	0.002055	15.8761	-149.921	13.9087	-0.069221	0.031155	-1.089830	-1.091239	0.050804	15.8761	-1.092230	-3.942355E+14	-1.288677E-16	NaN
418	1.000000	0.042530	7.36915e+06	-56189.1	1005.82	-29739.7	0.000000	0.000000	6.042737	0.096619	NaN	0.000000	0.001745	0.001658	28.08	0.108983	0.001900	57.3458	-36.1256	-163.528	0.150254	0.041199	-1.079864	-1.081194	0.096619	57.3458	-1.081127	-2.796789E+14	-3.454648E-16	NaN
418	1.000000	0.052507	7.36915e+06	-56189.1	1005.82	-29739.7	0.000000	0.000000	6.052711	0.028883	NaN	0.000000	0.001745	0.001645	28.0797	0.024627	0.001903	12.9393	-103.581	13.6368	0.049918	0.051186	-1.069887	-1.071207	0.028883	12.9393	-1.071561	-2.080467E+14	-1.388282E-16	NaN
418	1.000000	0.062565	7.36915e+06	-56189.1	1005.82	-29739.7	0.000000	0.000000	6.062769	0.018757	NaN	0.000000	0.001729	0.001675	28.08	0.132714	0.001955	67.8945	-177.751	-166.265	0.002914	0.061263	-1.059829	-1.061130	0.018757	67.8945	-1.060036	-1.456486E+14	-1.287828E-16	NaN
418	1.000000	0.072553	7.36915e+06	-56189.1	1005.82	-29739.7	0.000000	0.000000	6.072760	0.102025	NaN	0.000000	0.001687	0.001625	28.0799	0.054222	0.002081	26.0563	-116.094	12.8998	0.149229	0.071253	-1.049841	-1.051140	0.102025	26.0563	-1.052777	-1.163446E+14	-8.769201E-16	NaN
418	1.000000	0.082539	7.36915e+06	-56189.1	1005.82	-29739.7	0.000000	0.000000	6.082747	0.100704	NaN	0.000000	0.001698	0.001652	28.0799	0.048533	0.002005	24.2094	-2.227382	-168.527	0.101929	0.081225	-1.039854	-1.041169	0.100704	24.2094	-1.042974	-8.589263E+13	-1.172438E-15	NaN
418	1.000000	0.092555	7.36915e+06	-56189.1	1005.82	-29739.7	0.000000	0.000000	6.092764	0.131349	NaN	0.000000	0.001706	0.001652	28.0799	0.038075	0.002008	18.9587	-165.18	14.2288	0.169244	0.091178	-1.029838	-1.031215	0.131349	18.9587	-1.035034	-6.717248E+13	-1.955406E-15	NaN
418	1.000000	0.102570	7.36915e+06	-56189.1	1005.82	-29739.7	0.000000	0.000000	6.102777	0.077385	NaN	0.000000	0.001755	0.001658	28.08	0.084993	0.001929	44.055	-152.441	-165.876	0.060848	0.101194	-1.019823	-1.021199	0.077385	44.055	-1.021141	-4.368182E+13	-1.771563E-15	NaN
418	1.000000	0.112571	7.36915e+06	-56189.1	1005.82	-29739.7	0.000000	0.000000	6.112775	0.030644	NaN	0.000000	0.001715	0.001613	28.0802	0.061557	0.001963	31.3582	47.6359	13.7263	0.029779	0.111211	-1.009823	-1.011183	0.030644	31.3582	-1.010556	-3.146745E+13	-9.738272E-16	NaN
418	1.000000	0.122577	7.36915e+06	-56189.1	1005.82	-29739.7	0.000000	0.000000	6.122782	0.037318	NaN	0.000000	0.001740	0.001663	28.0802	0.025362	0.002066	12.2747	55.1976	-165.016	-0.005142	0.121242	-0.999816	-1.001151	0.037318	12.2747	-1.002097	-2.421000E+13	-1.541430E-15	NaN
418	1.000000	0.132568	7.36915e+06	-56189.1	1005.82	-29739.7	0.000000	0.000000	6.132774	0.077643	NaN	0.000000	0.001726	0.001658	28.0802	0.040217	0.001992	20.1928	154.053	11.6804	-0.003417	0.131259	-0.989826	-0.991134	0.077643	20.1928	-0.992710	-1.809698E+13	-4.290375E-15	NaN
418	1.000000	0.142579	7.36915e+06	-56189.1	1005.82	-29739.7	0.000000	0.000000	6.142784	0.054299	NaN	0.000000	0.001700	0.001637	28.0804	0.070483	0.002119	33.2678	-49.323	-169.783	0.059291	0.141226	-0.979815	-0.981167	0.054299	33.2678	-0.981039	-1.260103E+13	-4.309122E-15	NaN
418	1.000000	0.152605	7.36915e+06	-56189.1	1005.82	-29739.7	0.000000	0.000000	6.152810	0.055212	NaN	0.000000	0.001716	0.001618	28.0802	0.057223	0.001818	31.4727	-100.03	15.6466	-0.022624	0.151241	-0.969789	-0.971153	0.055212	31.4727	-0.971104	-9.258619E+12	-5.963346E-15	NaN
418	1.000000	0.162568	7.36915e+06	-56189.1	1005.82	-29739.7	0.000000	0.000000	6.162772	0.025690	NaN	0.000000	0.001734	0.001626	28.0805	0.146378	0.002032	72.0198	-15.5282	-164.576	-0.036250	0.161307	-0.959826	-0.961086	0.025690	72.0198	-0.960093	-6.578464E+12	-3.905158E-15	NaN
418	1.000000	0.172576	7.36915e+06	-56189.1	1005.82	-29739.7	0.000000	0.000000	6.172781	0.031154	NaN	0.000000	0.001685	0.001625	28.0803	0.039432	0.001974	19.9794	-129.017	10.3244	0.060996	0.171232	-0.949817	-0.951161	0.031154	19.9794	-0.950987	-4.958302E+12	-6.283293E-15	NaN
418	1.000000	0.182615	7.36915e+06	-56189.1	1005.82	-29739.7	0.000000	0.000000	6.182820	0.045782	NaN	0.000000	0.001725	0.001641	28.0816	0.048753	0.002005	24.3132	4.407051	-169.1	0.026468	0.181255	-0.939779	-0.941139	0.045782	24.3132	-0.941191	-3.657700E+12	-1.251668E-14	NaN
418	1.000000	0.192598	7.36915e+06	-56189.1	1005.82	-29739.7	0.000000	0.000000	6.192804	0.075112	NaN	0.000000	0.001702	0.001650	28.0814	0.106005	0.001889	56.128	19.8935	10.9851	0.056436	0.191237	-0.929796	-0.931157	0.075112	56.128	-0.930799	-2.648398E+12	-2.836119E-14	NaN
418	1.000000	0.202600	7.36915e+06	-56189.1	1005.82	-29739.7	0.000000	0.000000	6.202804	0.007891	NaN	0.000000	0.001698	0.001652	28.0812	0.067186	0.002073	32.4062	-117.153	-166.41	0.056036	0.201296	-0.919793	-0.921097	0.007891	32.4062	-0.919976	-1.891828E+12	-4.171360E-15	NaN
418	1.000000	0.212599	7.36915e+06	-56189.1	1005.82	-29739.7	0.000000	0.000000	6.212802	0.006073	NaN	0.000000	0.001684	0.001635	28.0817	0.024933	0.002051	12.1559	100.022	10.9286	0.012569	0.211260	-0.909795	-0.911133	0.006073	12.1559	-0.910169	-1.394596E+12	-4.354513E-15	NaN
418	1.000000	0.222624	7.36915e+06	-56189.1	1005.82	-29739.7	0.000000	0.000000	6.222829	0.057030	NaN	0.000000	0.001677	0.001698	28.0817	0.058906	0.001888	31.2047	112.867	-164.753	0.117904	0.221299	-0.899770	-0.901094	0.057030	31.2047	-0.901141	-1.053120E+12	-5.415330E-14	NaN
418	1.000000	0.232627	7.36915e+06	-56189.1	1005.82	-29739.7	0.000000	0.000000	6.232833	0.066132	NaN	0.000000	0.001688	0.001699	28.0814	0.036575	0.001871	19.5467	136.951	13.0191	0.053947	0.231260	-0.889767	-0.891134	0.066132	19.5467	-0.892304	-7.999461E+11	-8.267031E-14	NaN
418	1.000000	0.242629	7.36915e+06	-56189.1	1005.82	-29739.7	0.000000	0.000000	6.242835	0.067681	NaN	0.000000	0.001727	0.001680	28.0813	0.005662	0.001951	2.902975	-174.617	-166.265	0.112449	0.241301	-0.879765	-0.881093	0.067681	2.902975	-0.897251	-9.330660E+11	-7.253604E-14	NaN
418	1.000000	0.252634	7.36915e+06	-56189.1	1005.82	-29739.7	0.000000	0.000000	6.252840	0.066016	NaN	0.000000	0.001668	0.001646	28.0816	0.074494	0.002061	36.1522	168.008	12.3455	-0.023364	0.251319	-0.869759	-0.871075	0.066016	36.1522	-0.871129	-4.137281E+11	-1.595645E-13	NaN
418	1.000000	0.262640	7.36915e+06	-56189.1	1005.82	-29739.7	0.000000	0.000000	6.262848	0.113708	NaN	0.000000	0.001719	0.001653	28.0815	0.062081	0.002034	30.5258	170.486	-169.025	0.058256	0.261280	-0.859753	-0.861114	0.113708	30.5258	-0.862547	-3.166579E+11	-3.590876E-13	NaN
418	1.000000	0.272614	7.36915e+06	-56189.1	1005.82	-29739.7	0.000000	0.000000	6.272817	-0.018487	NaN	0.000000	0.001710	0.001666	28.0818	0.075093	0.002138	35.1296	-152.959	11.9054	0.049312	0.271254	-0.849779	-0.851139	-0.018487	35.1296	-0.849385	-2.100893E+11	8.799358E-14	NaN
418	1.000000	0.282634	7.36915e+06	-56189.1	1005.82	-29739.7	0.000000	0.000000	6.282839	0.033787	NaN	0.000000	0.001713	0.001639	28.0814	0.049669	0.002003	24.803	-109.955	-171.208	0.053483	0.281281	-0.839759	-0.841112	0.033787	24.803	-0.840781	-1.606470E+11	-2.103210E-13	NaN
418	1.000000	0.292646	7.36915e+06	-56189.1	1005.82	-29739.7	0.000000	0.000000	6.292851	0.058700	NaN	0.000000	0.001700	0.001616	28.0817	0.076740	0.001913	40.1053	-49.5867	12.5368	0.075326	0.291302	-0.829748	-0.831092	0.058700	40.1053	-0.830845	-1.178265E+11	-4.981903E-13	NaN
418	1.000000	0.302657	7.36915e+06	-56189.1	1005.82	-29739.7	0.000000	0.000000	6.302862	0.052324	NaN	0.000000	0.001732	0.001653	28.0815	0.048829	0.002041	23.9225	50.7892	-166.851	0.093296	0.301353	-0.819736	-0.821041	0.052324	23.9225	-0.821377	-8.767618E+10	-5.967894E-13	NaN
418	1.000000	0.312607	7.36915e+06	-56189.1	1005.82	-29739.7	0.000000	0.000000	6.312814	0.101969	NaN	0.000000	0.001716	0.001675	28.0802	0.080364	0.002118	37.941	127.817	14.8041	0.009946	0.311296	-0.809787	-0.811098	0.101969	37.941	-0.811802	-6.501654E+10	-1.568359E-12	NaN
418	1.000000	0.322642	7.36915e+06	-56189.1	1005.82	-29739.7	0.000000	0.000000	6.322846	0.014845	NaN	0.000000	0.001737	0.001652	28.0801	0.054341	0.001965	27.6519	63.8217	-164.616	0.044057	0.321296	-0.799752	-0.801098	0.014845	27.6519	-0.800154	-4.518096E+10	-3.285720E-13	NaN
418	1.000000	0.332659	7.36915e+06	-56189.1	1005.82	-29739.7	0.000000	0.000000	6.332863	0.031798	NaN	0.000000	0.001745	0.001683	28.0804	0.096339	0.001886	51.0761	-101.475	11.079	0.099529	0.331293	-0.789735	-0.791101	0.031798	51.0761	-0.790202	-3.309950E+10	-9.606675E-13	NaN
418	1.000000	0.342666	7.36915e+06	-56189.1	1005.82	-29739.7	0.000000	0.000000	6.342870	0.033470	NaN	0.000000	0.001790	0.001652	28.0805	0.007876	0.001856	4.244237	60.0904	-166.354	0.088453	0.341342	-0.779728	-0.781052	0.033470	4.244237	-0.785642	-2.870079E+10	-1.166175E-12	NaN
418	1.000000	0.352654	7.36915e+06	-56189.1	1005.82	-29739.7	0.000000	0.000000	6.352859	0.030640	NaN	0.000000	0.001792	0.001637	28.0802	0.100356	0.002036	49.2897	-14.5027	12.3143	0.053579	0.351209	-0.769739	-0.771185	0.030640	49.2897	-0.770205	-1.770510E+10	-1.730575E-12	NaN
418	1.000000	0.362680	7.36915e+06	-56189.1	1005.82	-29739.7	0.000000	0.000000	6.362887	0.105782	NaN	0.000000	0.001776	0.001660	28.0801	0.059773	0.001898	31.4982	44.6934	-165.958	0.126092	0.361346	-0.759714	-0.761048	0.105782	31.4982	-0.762233	-1.379347E+10	-7.668978E-12	NaN
418	1.000000	0.372716	7.36915e+06	-56189.1	1005.82	-29739.7	0.000000	0.000000	6.372921	0.042884	NaN	0.000000	0.001718	0.001643	28.0805	0.088955	0.002044	43.5145	179.348	15.1462	0.059154	0.371290	-0.749677	-0.751104	0.042884	43.5145	-0.750416	-9.525448E+9	-4.502046E-12	NaN
418	1.000000	0.382674	7.36915e+06	-56189.1	1005.82	-29739.7	0.000000	0.000000	6.382881	0.080398	NaN	0.000000	0.001770	0.001660	28.0804	0.031203	0.002024	15.4205	97.7217	-167.813	0.049125	0.381370	-0.739719	-0.741023	0.080398	15.4205	-0.743630	-7.699984E+9	-1.044130E-11	NaN
418	1.000000	0.392664	7.36915e+06	-56189.1	1005.82	-29739.7	0.000000	0.000000	6.392870	0.060636	NaN	0.000000	0.001773	0.001639	28.0804	0.101916	0.001979	51.5046	-92.0135	14.1799	0.097758	0.391389	-0.729729	-0.731004	0.060636	51.5046	-0.730612	-5.118572E+9	-1.184625E-11	NaN
418	1.000000	0.402678	7.36915e+06	-56189.1	1005.82	-29739.7	0.000000	0.000000	6.402881	0.009029	NaN	0.000000	0.001775	0.001621	28.0803	0.135569	0.001983	68.3818	9.084366	-168.973	0.025912	0.401406	-0.719716	-0.720987	0.009029	68.3818	-0.719815	-3.647094E+9	-2.475619E-12	NaN
418	1.000000	0.412685	7.36915e+06	-56189.1	1005.82	-29739.7	0.000000	0.000000	6.412891	0.078895	NaN	0.000000	0.001769	0.001634	28.0804	0.120238	0.002086	57.6536	-57.6001	11.566	0.034003	0.411309	-0.709709	-0.711085	0.078895	57.6536	-0.710735	-2.742071E+9	-2.877214E-11	NaN
418	1.000000	0.422721	7.36915e+06	-56189.1	1005.82	-29739.7	0.000000	0.000000	6.422926	0.044921	NaN	0.000000	0.001779	0.001644	28.0803	0.060138	0.001934	31.0917	118.95	-164.937	0.062678	0.421383	-0.699672	-0.701011	0.044921	31.0917	-0.700756	-2.003792E+9	-2.241806E-11	NaN
418	1.000000	0.432687	7.36915e+06	-56189.1	1005.82	-29739.7	0.000000	0.000000	6.432892	0.058525	NaN	0.000000	0.001736	0.001635	28.0804	0.019080	0.001960	9.734596	-170.355	13.4432	0.102005	0.431364	-0.689707	-0.691030	0.058525	9.734596	-0.694216	-1.631264E+9	-3.587695E-11	NaN
418	1.000000	0.442734	7.36915e+06	-56189.1	1005.82	-29739.7	0.000000	0.000000	6.442941	0.094641	NaN	0.000000	0.001694	0.001653	28.0805	0.085474	0.001969	43.4124	110.707	-166.365	0.066643	0.441409	-0.679659	-0.680985	0.094641	43.4124	-0.681294	-1.086190E+9	-8.713096E-11	NaN
418	1.000000	0.452717	7.36915e+06	-56189.1	1005.82	-29739.7	0.000000	0.000000	6.452923	0.065305	NaN	0.000000	0.001707	0.001644	28.0815	0.086339	0.002099	41.1271	107.611	13.0511	0.053123	0.451336	-0.669677	-0.671058	0.065305	41.1271	-0.670868	-7.821025E+8	-8.349900E-11	NaN
418	1.000000	0.462723	7.36915e+06	-56189.1	1005.82	-29739.7	0.000000	0.000000	6.462929	0.073303	NaN	0.000000	0.001703	0.001661	28.0817	0.064178	0.001911	33.5887	-142.343	-162.928	0.166468	0.461404	-0.659670	-0.660989	0.073303	33.5887	-0.661307	-5.785948E+8	-1.266921E-10	NaN
418	1.000000	0.472682	7.36915e+06	-56189.1	1005.82	-29739.7	0.000000	0.000000	6.472887	0.042562	NaN	0.000000	0.001690	0.001664	28.0814	0.069335	0.001883	36.8248	99.6995	10.9893	0.056367	0.471360	-0.649712	-0.651034	0.042562	36.8248	-0.650578	-4.124449E+8	-1.031951E-10	NaN
418	1.000000	0.482713	7.36915e+06	-56189.1	1005.82	-29739.7	0.000000	0.000000	6.482919	0.073083	NaN	0.000000	0.001708	0.001688	28.0817	0.098870	0.001954	50.5969	-139.33	-166.39	0.072259	0.481427	-0.639681	-0.640966	0.073083	50.5969	-0.640764	-3.025328E+8	-2.415702E-10	NaN
418	1.000000	0.492695	7.36915e+06	-56189.1	1005.82	-29739.7	0.000000	0.000000	6.492898	3.753760E-5	NaN	0.000000	0.001715	0.001629	28.0816	0.017740	0.001940	9.146006	-80.3276	16.2688	-0.027568	0.491346	-0.629699	-0.631048	3.753760E-5	9.146006	-0.629702	-2.132681E+8	-1.760113E-13	NaN
418	1.000000	0.502727	7.36915e+06	-56189.1	1005.82	-29739.7	0.000000	0.000000	6.502933	0.069348	NaN	0.000000	0.001676	0.001619	28.0816	0.051996	0.002021	25.7306	60.9724	-165.43	0.050119	0.501394	-0.619667	-0.620999	0.069348	25.7306	-0.621688	-1.655138E+8	-4.189859E-10	NaN
418	1.000000	0.512770	7.36915e+06	-56189.1	1005.82	-29739.7	0.000000	0.000000	6.512975	0.040062	NaN	0.000000	0.001673	0.001620	28.0815	0.092305	0.001950	47.346	32.2727	13.7739	0.089974	0.511381	-0.609623	-0.611013	0.040062	47.346	-0.610258	-1.152554E+8	-3.475926E-10	NaN
418	1.000000	0.522727	7.36915e+06	-56189.1	1005.82	-29739.7	0.000000	0.000000	6.522932	0.045475	NaN	0.000000	0.001682	0.001631	28.0818	0.053884	0.002135	25.2333	80.1001	-166.492	0.058441	0.521447	-0.599667	-0.600946	0.045475	25.2333	-0.601018	-8.599730E+7	-5.288000E-10	NaN
418	1.000000	0.532736	7.36915e+06	-56189.1	1005.82	-29739.7	0.000000	0.000000	6.532941	0.044688	NaN	0.000000	0.001732	0.001625	28.0815	0.103590	0.002043	50.7076	48.8949	18.5977	0.055065	0.531367	-0.589658	-0.591026	0.044688	50.7076	-0.590319	-6.124326E+7	-7.296867E-10	NaN
418	1.000000	0.542761	7.36915e+06	-56189.1	1005.82	-29739.7	0.000000	0.000000	6.542967	0.065905	NaN	0.000000	0.001692	0.001646	28.0816	0.065224	0.002024	32.2216	56.4582	-166.836	0.034874	0.541470	-0.579632	-0.580923	0.065905	32.2216	-0.581166	-4.579552E+7	-1.439107E-9	NaN
418	1.000000	0.552747	7.36915e+06	-56189.1	1005.82	-29739.7	0.000000	0.000000	6.552949	-0.021913	NaN	0.000000	0.001702	0.001635	28.0816	0.053039	0.001844	28.7595	155.952	13.4957	0.007997	0.551399	-0.569647	-0.570995	-0.021913	28.7595	-0.569075	-3.117838E+7	7.028278E-10	NaN
418	1.000000	0.562762	7.36915e+06	-56189.1	1005.82	-29739.7	0.000000	0.000000	6.562964	-0.017230	NaN	0.000000	0.001695	0.001625	28.0816	0.096217	0.002066	46.5622	116.547	-166.174	-0.039710	0.561442	-0.559632	-0.560951	-0.017230	46.5622	-0.559354	-2.287933E+7	7.530676E-10	NaN
418	1.000000	0.572762	7.36915e+06	-56189.1	1005.82	-29739.7	0.000000	0.000000	6.572967	0.032142	NaN	0.000000	0.001658	0.001647	28.0814	0.039099	0.002036	19.2076	-44.1436	12.8963	-0.034481	0.571376	-0.549631	-0.551018	0.032142	19.2076	-0.550886	-1.746744E+7	-1.840113E-9	NaN
418	1.000000	0.582758	7.36915e+06	-56189.1	1005.82	-29739.7	0.000000	0.000000	6.582962	0.010737	NaN	0.000000	0.001657	0.001658	28.0814	0.078475	0.002015	38.9404	146.881	-168.54	0.035853	0.581456	-0.539635	-0.540937	0.010737	38.9404	-0.539842	-1.227913E+7	-8.744256E-10	NaN
418	1.000000	0.592809	7.36915e+06	-56189.1	1005.82	-29739.7	0.000000	0.000000	6.593015	0.053229	NaN	0.000000	0.001668	0.001648	28.0804	0.150876	0.002041	73.9391	-13.5609	12.3206	0.023915	0.591429	-0.529584	-0.530965	0.053229	73.9391	-0.530124	-9.00115e+06	-5.913622E-9	NaN
418	1.000000	0.602786	7.36915e+06	-56189.1	1005.82	-29739.7	0.000000	0.000000	6.602991	0.044349	NaN	0.000000	0.001673	0.001667	28.0803	0.038413	0.002089	18.3913	-89.4792	-167.951	0.049282	0.601448	-0.519608	-0.520946	0.044349	18.3913	-0.521416	-6.81227e+06	-6.510096E-9	NaN
418	1.000000	0.612740	7.36915e+06	-56189.1	1005.82	-29739.7	0.000000	0.000000	6.612944	0.005794	NaN	0.000000	0.001632	0.001664	28.0804	0.052930	0.001997	26.5101	74.2237	13.1342	0.002730	0.611378	-0.509653	-0.511016	0.005794	26.5101	-0.509817	-4.69752e+06	-1.233422E-9	NaN
418	1.000000	0.622793	7.36915e+06	-56189.1	1005.82	-29739.7	0.000000	0.000000	6.622998	0.034567	NaN	0.000000	0.001632	0.001640	28.0805	0.048615	0.002006	24.2388	92.8006	-165.366	0.057550	0.621499	-0.499600	-0.500895	0.034567	24.2388	-0.500670	-3.50237e+06	-9.869562E-9	NaN
418	1.000000	0.632798	7.36915e+06	-56189.1	1005.82	-29739.7	0.000000	0.000000	6.633001	0.016612	NaN	0.000000	0.001639	0.001641	28.0805	0.061093	0.001918	31.8586	161.85	13.9348	-0.065138	0.631468	-0.489596	-0.490926	0.016612	31.8586	-0.489987	-2.48434e+06	-6.686543E-9	NaN
418	1.000000	0.642787	7.36915e+06	-56189.1	1005.82	-29739.7	0.000000	0.000000	6.642991	0.017805	NaN	0.000000	0.001686	0.001637	28.0804	0.066480	0.001946	34.1569	65.0701	-167.767	0.054915	0.641505	-0.479606	-0.480889	0.017805	34.1569	-0.479997	-1.8009e+06	-9.886735E-9	NaN
418	1.000000	0.652788	7.36915e+06	-56189.1	1005.82	-29739.7	0.000000	0.000000	6.652993	0.043047	NaN	0.000000	0.001674	0.001681	28.0802	0.089693	0.001874	47.8576	-163.377	16.0339	0.084177	0.651438	-0.469606	-0.470956	0.043047	47.8576	-0.470280	-1.31625e+06	-3.270425E-8	NaN
418	1.000000	0.662821	7.36915e+06	-56189.1	1005.82	-29739.7	0.000000	0.000000	6.663026	0.046313	NaN	0.000000	0.001680	0.001666	28.0805	0.101828	0.001979	51.4443	127.181	-169.111	-0.037398	0.661432	-0.459573	-0.460961	0.046313	51.4443	-0.460248	-951701	-4.866337E-8	NaN
418	1.000000	0.672790	7.36915e+06	-56189.1	1005.82	-29739.7	0.000000	0.000000	6.672994	0.032886	NaN	0.000000	0.001681	0.001646	28.0805	0.134619	0.001889	71.2629	165.669	15.8658	0.081801	0.671504	-0.449604	-0.450889	0.032886	71.2629	-0.449950	-681771	-4.823626E-8	NaN
418	1.000000	0.682834	7.36915e+06	-56189.1	1005.82	-29739.7	0.000000	0.000000	6.683039	0.030929	NaN	0.000000	0.001684	0.001715	28.0803	0.068670	0.001997	34.3783	-165.07	-167.132	0.027459	0.681458	-0.439559	-0.440936	0.030929	34.3783	-0.440234	-497352	-6.218772E-8	NaN
418	1.000000	0.692821	7.36915e+06	-56189.1	1005.82	-29739.7	0.000000	0.000000	6.693024	-0.000964	NaN	0.000000	0.001668	0.001696	28.0803	0.010898	0.002081	5.237193	28.5923	15.2144	0.022133	0.691396	-0.429572	-0.430998	-0.000964	5.237193	-0.429434	-349993	2.754538E-9	NaN
418	1.000000	0.702850	7.36915e+06	-56189.1	1005.82	-29739.7	0.000000	0.000000	6.703055	0.057833	NaN	0.000000	0.001688	0.001680	28.0803	0.110095	0.002105	52.3041	179.28	-168.384	0.087150	0.701518	-0.419544	-0.420875	0.057833	52.3041	-0.420373	-260437	-2.220620E-7	NaN
418	1.000000	0.712829	7.36915e+06	-56189.1	1005.82	-29739.7	0.000000	0.000000	6.713036	0.086183	NaN	0.000000	0.001646	0.001684	28.0803	0.097971	0.002034	48.1663	-164.988	11.407	0.062359	0.711485	-0.409565	-0.410908	0.086183	48.1663	-0.410907	-191114	-4.509534E-7	NaN
418	1.000000	0.722819	7.36915e+06	-56189.1	1005.82	-29739.7	0.000000	0.000000	6.723023	0.031255	NaN	0.000000	0.001687	0.001684	28.0817	0.047598	0.001944	24.4826	53.2431	-165.926	0.028916	0.721526	-0.399575	-0.400868	0.031255	24.4826	-0.400532	-136015	-2.297930E-7	NaN
418	1.000000	0.732825	7.36915e+06	-56189.1	1005.82	-29739.7	0.000000	0.000000	6.733030	0.043044	NaN	0.000000	0.001625	0.001694	28.0816	0.022620	0.001983	11.4072	112.099	16.0508	0.157160	0.731443	-0.389568	-0.390950	0.043044	11.4072	-0.392398	-104102	-4.134816E-7	NaN
418	1.000000	0.742804	7.36915e+06	-56189.1	1005.82	-29739.7	0.000000	0.000000	6.743010	0.068782	NaN	0.000000	0.001647	0.001699	28.0815	0.063937	0.001969	32.4796	87.4335	-169.821	0.008037	0.741539	-0.379590	-0.380855	0.068782	32.4796	-0.381178	-71910.6	-9.564886E-7	NaN
418	1.000000	0.752843	7.36915e+06	-56189.1	1005.82	-29739.7	0.000000	0.000000	6.753049	0.074199	NaN	0.000000	0.001648	0.001694	28.0813	0.035587	0.002087	17.0481	-171.617	15.2736	0.011928	0.751560	-0.369551	-0.370834	0.074199	17.0481	-0.372815	-54531.6	-1.360655E-6	NaN
418	1.000000	0.762833	7.36915e+06	-56189.1	1005.82	-29739.7	0.000000	0.000000	6.763035	-0.038612	NaN	0.000000	0.001662	0.001665	28.0815	0.089923	0.001822	49.3657	-94.9994	-169.387	-0.051365	0.761551	-0.359560	-0.360843	-0.038612	49.3657	-0.358974	-34435.6	1.121288E-6	NaN
418	1.000000	0.772836	7.36915e+06	-56189.1	1005.82	-29739.7	0.000000	0.000000	6.773037	-0.061447	NaN	0.000000	0.001627	0.001690	28.0815	0.122162	0.001937	63.0713	19.161	18.7346	-0.039621	0.771509	-0.349557	-0.350885	-0.061447	63.0713	-0.348826	-24545.1	2.503440E-6	NaN
418	1.000000	0.782869	7.36915e+06	-56189.1	1005.82	-29739.7	0.000000	0.000000	6.783074	0.042060	NaN	0.000000	0.001653	0.001696	28.0816	0.118552	0.001894	62.596	-58.9124	-163.14	-0.046400	0.781537	-0.339524	-0.340857	0.042060	62.596	-0.340028	-18279.5	-2.300946E-6	NaN
418	1.000000	0.792846	7.36915e+06	-56189.1	1005.82	-29739.7	0.000000	0.000000	6.793049	-0.005540	NaN	0.000000	0.001694	0.001680	28.0815	0.100453	0.001958	51.3092	67.9357	10.3171	0.022238	0.791499	-0.329548	-0.330895	-0.005540	51.3092	-0.329467	-12812.6	4.323605E-7	NaN
418	1.000000	0.802876	7.36915e+06	-56189.1	1005.82	-29739.7	0.000000	0.000000	6.803083	0.075708	NaN	0.000000	0.001724	0.001686	28.0816	0.033392	0.002097	15.9207	141.928	-164.361	0.000904	0.801530	-0.319517	-0.320864	0.075708	15.9207	-0.323084	-10327.3	-7.330810E-6	NaN
418	1.000000	0.812867	7.36915e+06	-56189.1	1005.82	-29739.7	0.000000	0.000000	6.813069	-0.020876	NaN	0.000000	0.001715	0.001663	28.0816	0.056703	0.001828	31.0194	-38.5439	12.6962	-0.011264	0.811456	-0.309527	-0.310937	-0.020876	31.0194	-0.309022	-6405.87	3.258895E-6	NaN
418	1.000000	0.822874	7.36915e+06	-56189.1	1005.82	-29739.7	0.000000	0.000000	6.823079	0.038505	NaN	0.000000	0.001721	0.001645	28.0815	0.044943	0.002121	21.1881	95.3555	-168.318	0.045775	0.821577	-0.299519	-0.300816	0.038505	21.1881	-0.300882	-4850.25	-7.938659E-6	NaN
418	1.000000	0.832867	7.36915e+06	-56189.1	1005.82	-29739.7	0.000000	0.000000	6.833071	0.021117	NaN	0.000000	0.001723	0.001696	28.0815	0.061056	0.001905	32.0435	141.736	15.4239	0.041983	0.831504	-0.289526	-0.290889	0.021117	32.0435	-0.290021	-3338.96	-6.324545E-6	NaN
418	1.000000	0.842895	7.36915e+06	-56189.1	1005.82	-29739.7	0.000000	0.000000	6.843100	0.047992	NaN	0.000000	0.001694	0.001691	28.0817	0.024535	0.001985	12.3578	116.567	-166.755	0.040236	0.841559	-0.279499	-0.280834	0.047992	12.3578	-0.282411	-2566.35	-1.870029E-5	NaN
418	1.000000	0.852864	7.36915e+06	-56189.1	1005.82	-29739.7	0.000000	0.000000	6.853068	0.028762	NaN	0.000000	0.001716	0.001685	28.0817	0.044011	0.002009	21.9077	-59.2392	10.5156	0.065657	0.851460	-0.269530	-0.270933	0.028762	21.9077	-0.270515	-1695.77	-1.696121E-5	NaN
418	1.000000	0.862912	7.36915e+06	-56189.1	1005.82	-29739.7	0.000000	0.000000	6.863117	0.038990	NaN	0.000000	0.001684	0.001737	28.0802	0.151282	0.002063	73.3149	-132.029	-166.993	0.148616	0.861548	-0.259482	-0.260846	0.038990	73.3149	-0.259880	-1167.03	-3.340934E-5	NaN
418	1.000000	0.872890	7.36915e+06	-56189.1	1005.82	-29739.7	0.000000	0.000000	6.873096	0.070349	NaN	0.000000	0.001731	0.001641	28.0801	0.032999	0.001986	16.6192	-26.9381	14.2544	0.084288	0.871497	-0.249503	-0.250897	0.070349	16.6192	-0.252678	-904.339	-7.779047E-5	NaN
418	1.000000	0.882877	7.36915e+06	-56189.1	1005.82	-29739.7	0.000000	0.000000	6.883083	0.081334	NaN	0.000000	0.001717	0.001676	28.0803	0.112724	0.002000	56.3534	-68.3745	-161.839	0.036351	0.881530	-0.239517	-0.240863	0.081334	56.3534	-0.240599	-587.369	-0.000138	NaN
418	1.000000	0.892868	7.36915e+06	-56189.1	1005.82	-29739.7	0.000000	0.000000	6.893071	-0.000194	NaN	0.000000	0.001701	0.001645	28.0804	0.091592	0.001915	47.8263	-17.1869	13.6432	0.021873	0.891539	-0.229526	-0.230854	-0.000194	47.8263	-0.229523	-393.532	4.920117E-7	NaN
418	1.000000	0.902901	7.36915e+06	-56189.1	1005.82	-29739.7	0.000000	0.000000	6.903108	0.094520	NaN	0.000000	0.001700	0.001662	28.0803	0.119039	0.002055	57.9212	120.069	-164.408	0.038406	0.901616	-0.219493	-0.220778	0.094520	57.9212	-0.220717	-285.182	-0.000331	NaN
418	1.000000	0.912887	7.36915e+06	-56189.1	1005.82	-29739.7	0.000000	0.000000	6.913092	0.043610	NaN	0.000000	0.001687	0.001667	28.0801	0.077082	0.001859	41.4725	-81.7004	14.8957	-0.051236	0.911548	-0.209507	-0.210846	0.043610	41.4725	-0.210295	-193.91	-0.000225	NaN
418	1.000000	0.922898	7.36915e+06	-56189.1	1005.82	-29739.7	0.000000	0.000000	6.923100	-0.011041	NaN	0.000000	0.001738	0.001658	28.0804	0.082779	0.002090	39.6004	-170.129	-164.841	0.054083	0.921520	-0.199496	-0.200874	-0.011041	39.6004	-0.199287	-128.224	8.610614E-5	NaN
418	1.000000	0.932925	7.36915e+06	-56189.1	1005.82	-29739.7	0.000000	0.000000	6.933131	0.083889	NaN	0.000000	0.001692	0.001625	28.0802	0.085427	0.002107	40.5384	135.09	17.751	0.119563	0.931579	-0.189469	-0.190814	0.083889	40.5384	-0.191021	-93.5544	-0.000897	NaN
418	1.000000	0.942907	7.36915e+06	-56189.1	1005.82	-29739.7	0.000000	0.000000	6.943111	0.030555	NaN	0.000000	0.001707	0.001644	28.0803	0.060731	0.001993	30.4683	-171.23	-167.66	0.066092	0.941625	-0.179487	-0.180769	0.030555	30.4683	-0.180239	-61.5928	-0.000496	NaN
418	1.000000	0.952918	7.36915e+06	-56189.1	1005.82	-29739.7	0.000000	0.000000	6.953120	-0.017600	NaN	0.000000	0.001697	0.001648	28.0806	0.039911	0.002046	19.5085	-154.981	13.358	0.042480	0.951611	-0.169476	-0.170783	-0.017600	19.5085	-0.168799	-39.1501	0.000450	NaN
418	1.000000	0.962918	7.36915e+06	-56189.1	1005.82	-29739.7	0.000000	0.000000	6.963125	0.083724	NaN	0.000000	0.001674	0.001655	28.0805	0.083210	0.001982	41.9773	-24.1045	-166.609	0.101337	0.961632	-0.159475	-0.160761	0.083724	41.9773	-0.160971	-28.525	-0.002935	NaN
418	1.000000	0.972942	7.36915e+06	-56189.1	1005.82	-29739.7	0.000000	0.000000	6.973146	0.009085	NaN	0.000000	0.001666	0.001631	28.0801	0.081070	0.002111	38.4048	-160.9	16.9147	0.016707	0.971600	-0.149451	-0.150793	0.009085	38.4048	-0.149629	-17.8331	-0.000509	NaN
418	1.000000	0.982928	7.36915e+06	-56189.1	1005.82	-29739.7	0.000000	0.000000	6.983136	0.115128	NaN	0.000000	0.001697	0.001662	28.0798	0.044618	0.002065	21.612	-133.682	-164.688	0.189175	0.981608	-0.139466	-0.140786	0.115128	21.612	-0.143461	-13.7288	-0.008386	NaN
418	1.000000	0.992931	7.36915e+06	-56189.1	1005.82	-29739.7	0.000000	0.000000	6.993140	0.142686	NaN	0.000000	0.001655	0.001679	28.0801	0.020954	0.001815	11.5441	26.1846	11.9586	0.035332	0.991619	-0.129463	-0.130775	0.142686	11.5441	-0.138733	-11.1974	-0.012743	NaN
418	1.000000	1.002961	7.36915e+06	-56189.1	1005.82	-29739.7	0.000000	0.000000	7.003164	0.006356	NaN	0.000000	0.001710	0.001663	28.0818	0.036560	0.002017	18.1227	166.877	-163.706	-0.028409	1.001631	-0.119433	-0.120763	0.006356	18.1227	-0.119696	-4.763660	-0.001334	NaN
418	1.000000	1.012942	7.36915e+06	-56189.1	1005.82	-29739.7	0.000000	0.000000	7.013147	0.037591	NaN	0.000000	0.001692	0.001661	28.0815	0.048905	0.002051	23.8501	119.062	15.2464	0.013394	1.011618	-0.109451	-0.110776	0.037591	23.8501	-0.110634	-3.098935	-0.012130	NaN
418	1.000000	1.022942	7.36915e+06	-56189.1	1005.82	-29739.7	0.000000	0.000000	7.023145	-0.011031	NaN	0.000000	0.001711	0.001639	28.0815	0.084239	0.001952	43.1531	140.394	-164.448	0.002140	1.021641	-0.099451	-0.100753	-0.011031	43.1531	-0.099259	-1.759231	0.006270	NaN
418	1.000000	1.032929	7.36915e+06	-56189.1	1005.82	-29739.7	0.000000	0.000000	7.033133	0.033135	NaN	0.000000	0.001694	0.001636	28.0815	0.021666	0.002008	10.7871	133.508	13.538	0.011141	1.031618	-0.089465	-0.090776	0.033135	10.7871	-0.091768	-1.188754	-0.027874	NaN
418	1.000000	1.042943	7.36915e+06	-56189.1	1005.82	-29739.7	0.000000	0.000000	7.043150	0.088405	NaN	0.000000	0.001683	0.001653	28.0816	0.033267	0.001905	17.4662	-50.0685	-163.039	0.024506	1.041658	-0.079450	-0.080735	0.088405	17.4662	-0.083246	-0.744723	-0.118708	NaN
418	1.000000	1.052966	7.36915e+06	-56189.1	1005.82	-29739.7	0.000000	0.000000	7.053171	0.025169	NaN	0.000000	0.001717	0.001615	28.0814	0.029424	0.002049	14.3597	75.4094	12.3039	-0.050354	1.051592	-0.069427	-0.070802	0.025169	14.3597	-0.070742	-0.357031	-0.070494	NaN
418	1.000000	1.062941	7.36915e+06	-56189.1	1005.82	-29739.7	0.000000	0.000000	7.063148	0.109771	NaN	0.000000	0.001707	0.001613	28.0815	0.086367	0.002016	42.8438	-72.7527	-167.569	0.105632	1.061627	-0.059453	-0.060767	0.109771	42.8438	-0.061375	-0.197130	-0.556847	NaN
418	1.000000	1.072965	7.36915e+06	-56189.1	1005.82	-29739.7	0.000000	0.000000	7.073171	0.058554	NaN	0.000000	0.001673	0.001619	28.0817	0.060847	0.002042	29.7923	84.6394	13.6301	0.105193	1.071634	-0.049428	-0.050760	0.058554	29.7923	-0.050902	-0.097157	-0.602669	NaN
418	1.000000	1.082960	7.36915e+06	-56189.1	1005.82	-29739.7	0.000000	0.000000	7.083166	0.058650	NaN	0.000000	0.001673	0.001622	28.0815	0.148892	0.002043	72.8876	-116.644	-163.423	0.073630	1.081626	-0.039433	-0.040767	0.058650	72.8876	-0.040037	-0.045339	-1.293600	NaN
418	1.000000	1.092963	7.36915e+06	-56189.1	1005.82	-29739.7	0.000000	0.000000	7.093168	0.037334	NaN	0.000000	0.001669	0.001641	28.0814	0.088595	0.001941	45.6332	-96.4579	13.7778	0.122776	1.091615	-0.029430	-0.030779	0.037334	45.6332	-0.030044	-0.023078	-1.617758	NaN
418	1.000000	1.102998	7.36915e+06	-56189.1	1005.82	-29739.7	0.000000	0.000000	7.103203	0.044209	NaN	0.000000	0.001677	0.001670	28.0815	0.095209	0.001972	48.2907	-153.512	-162.3	0.021659	1.101675	-0.019396	-0.020719	0.044209	48.2907	-0.020083	-0.012622	-3.502593	NaN
418	1.000000	1.112991	7.36915e+06	-56189.1	1005.82	-29739.7	0.000000	0.000000	7.113198	0.081709	NaN	0.000000	0.001687	0.001665	28.0814	0.091900	0.002024	45.4156	138.523	15.3915	0.051728	1.111599	-0.009402	-0.010795	0.081709	45.4156	-0.010752	-0.006816	-11.987	NaN
418	1.000000	1.122995	7.36915e+06	-56189.1	1005.82	-29739.7	0.000000	0.000000	7.123207	0.209128	NaN	0.000000	0.001715	0.001666	28.0816	0.254256	0.002051	123.981	5.143259	-167.948	0.041079	1.121686	0.000601	-0.000708	0.209128	123.981	-0.000664	-0.000490	-426.995	NaN
418	1.000000	1.132954	7.36915e+06	-56189.1	1005.82	-29739.7	0.000000	0.000000	7.133430	6.629746	NaN	0.000000	0.001683	0.001639	28.0801	7.221914	0.001648	4381.79	10.0047	8.325451	4.820993	1.131579	0.010561	0.009185	6.629746	4381.79	0.009426	0.008550	775.372	43294.4
418	2.000000	1.136590	7.36915e+06	-56189.1	1005.82	-29739.7	0.000000	0.000000	7.137331	13.0537	NaN	0.000000	0.001708	0.001603	28.0805	11.7916	0.001584	7442.77	4.641884	-173.918	11.9637	1.136338	0.014197	0.013944	13.0537	7442.77	0.012882	0.012563	1039.04	60667.8
418	2.000000	1.139094	7.36915e+06	-56189.1	1005.82	-29739.7	0.000000	0.000000	7.140024	17.6676	NaN	0.000000	0.001670	0.001651	28.0804	15.5484	0.001540	10095.3	5.797146	1.963101	16.7761	1.138760	0.016700	0.016367	17.6676	10095.3	0.015388	0.015806	1117.78	73363.6
418	2.000000	1.141577	7.36915e+06	-56189.1	1005.82	-29739.7	0.000000	0.000000	7.142732	23.1292	NaN	0.000000	0.001700	0.001649	28.0803	19.4007	0.001789	10843.4	4.723679	-175.884	22.4652	1.141277	0.019184	0.018884	23.1292	10843.4	0.017584	0.018887	1224.61	72087.1
418	2.000000	1.144079	7.36915e+06	-56189.1	1005.82	-29739.7	0.000000	0.000000	7.145426	27.807	NaN	0.000000	0.001710	0.001675	28.0803	21.1004	0.001675	12595.7	3.653970	3.904087	27.2029	1.143773	0.021685	0.021379	27.807	12595.7	0.020029	0.022589	1231.02	76568.3
418	2.000000	1.146544	7.36915e+06	-56189.1	1005.82	-29739.7	0.000000	0.000000	7.148050	31.6508	NaN	0.000000	0.001664	0.001685	28.0806	23.8832	0.001821	13118.9	4.162157	-176.981	31.1251	1.146267	0.024151	0.023873	31.6508	13118.9	0.022341	0.026356	1200.9	73830
418	2.000000	1.149035	7.36915e+06	-56189.1	1005.82	-29739.7	0.000000	0.000000	7.150704	35.6291	NaN	0.000000	0.001665	0.001679	28.0803	26.0887	0.001790	14572.4	5.472585	-0.479418	33.2221	1.148721	0.026641	0.026328	35.6291	14572.4	0.024808	0.030667	1161.82	76027.2
418	2.000000	1.151534	7.36915e+06	-56189.1	1005.82	-29739.7	0.000000	0.000000	7.153506	42.9861	NaN	0.000000	0.001655	0.001665	28.0805	28.7055	0.001819	15780.5	6.280925	-179.893	43.7932	1.151199	0.029141	0.028806	42.9861	15780.5	0.027098	0.034943	1230.18	77128.6
418	2.000000	1.154008	7.36915e+06	-56189.1	1005.82	-29739.7	0.000000	0.000000	7.156373	52.5367	NaN	0.000000	0.001777	0.001663	28.0804	31.1207	0.001771	17573.1	10.0213	-6.633923	48.9449	1.153632	0.031615	0.031239	52.5367	17573.1	0.029372	0.039453	1331.63	80831.7
418	2.000000	1.156502	7.36915e+06	-56189.1	1005.82	-29739.7	0.000000	0.000000	7.158996	55.6683	NaN	0.000000	0.001751	0.001685	28.0806	32.9893	0.001773	18602.7	3.911186	179.105	52.0488	1.156202	0.034109	0.033808	55.6683	18602.7	0.031864	0.044697	1245.46	80391.5
418	2.000000	1.158990	7.36915e+06	-56189.1	1005.82	-29739.7	0.000000	0.000000	7.161881	65.3504	NaN	0.000000	0.001720	0.001667	28.0804	35.1011	0.001814	19348.7	1.287299	1.949352	62.0564	1.158635	0.036596	0.036241	65.3504	19348.7	0.034063	0.049587	1317.9	79385.8
418	2.000000	1.161492	7.36915e+06	-56189.1	1005.82	-29739.7	0.000000	0.000000	7.164603	70.6896	NaN	0.000000	0.001670	0.001662	28.0802	38.7193	0.001828	21177.5	6.834362	175.511	70.0299	1.161241	0.039098	0.038848	70.6896	21177.5	0.036595	0.055525	1273.12	82111.8
418	2.000000	1.164016	7.36915e+06	-56189.1	1005.82	-29739.7	0.000000	0.000000	7.167543	80.7833	NaN	0.000000	0.001683	0.001648	28.0804	39.6255	0.001796	22057.9	4.516042	-1.737019	80.5664	1.163622	0.041623	0.041228	80.7833	22057.9	0.038876	0.061156	1320.94	81492.6
418	2.000000	1.166494	7.36915e+06	-56189.1	1005.82	-29739.7	0.000000	0.000000	7.170288	87.2829	NaN	0.000000	0.001729	0.001655	28.0802	41.5854	0.001719	24189.7	5.541957	176.373	85.9094	1.166219	0.044100	0.043826	87.2829	24189.7	0.041394	0.067680	1289.64	84951.8
418	2.000000	1.168936	7.36915e+06	-56189.1	1005.82	-29739.7	0.000000	0.000000	7.173099	96.269	NaN	0.000000	0.001743	0.001653	28.0813	44.3261	0.001831	24214.6	5.821448	-4.549352	91.5221	1.168611	0.046542	0.046217	96.269	24214.6	0.043560	0.073553	1308.84	81573.8
418	2.000000	1.171496	7.36915e+06	-56189.1	1005.82	-29739.7	0.000000	0.000000	7.176001	104.569	NaN	0.000000	0.001733	0.001668	28.0813	46.9135	0.001773	26465.8	6.067075	174.867	104.07	1.171177	0.049102	0.048784	104.569	26465.8	0.046139	0.080854	1293.32	85037.1
418	2.000000	1.174066	7.36915e+06	-56189.1	1005.82	-29739.7	0.000000	0.000000	7.178946	113.672	NaN	0.000000	0.001757	0.001653	28.0815	48.1183	0.001681	28622.4	4.610659	-3.952319	114.645	1.173609	0.051673	0.051216	113.672	28622.4	0.048694	0.088420	1285.59	87943.5
418	2.000000	1.176513	7.36915e+06	-56189.1	1005.82	-29739.7	0.000000	0.000000	7.181999	128.41	NaN	0.000000	0.001769	0.001632	28.0813	50.7723	0.001684	30145.5	4.185558	175.546	130.09	1.176140	0.054120	0.053747	128.41	30145.5	0.050925	0.095294	1347.51	89220.2
418	2.000000	1.178957	7.36915e+06	-56189.1	1005.82	-29739.7	0.000000	0.000000	7.184689	134.399	NaN	0.000000	0.001746	0.001646	28.0814	54.7499	0.001873	29225	4.439584	-4.854385	131.89	1.178622	0.056563	0.056229	134.399	29225	0.053114	0.102281	1314.01	83488.9
418	2.000000	1.181464	7.36915e+06	-56189.1	1005.82	-29739.7	0.000000	0.000000	7.187486	141.447	NaN	0.000000	0.001755	0.001624	28.0813	56.5674	0.001747	32385.5	2.587265	175.834	140.012	1.181286	0.059070	0.058892	141.447	32385.5	0.055795	0.111162	1272.44	88745.4
418	2.000000	1.184065	7.36915e+06	-56189.1	1005.82	-29739.7	0.000000	0.000000	7.190920	161.688	NaN	0.000000	0.001798	0.001633	28.0814	58.1274	0.001804	32219.3	3.718652	-3.771224	163.52	1.183630	0.061671	0.061236	161.688	32219.3	0.057907	0.118411	1365.48	85544.5
418	2.000000	1.186506	7.36915e+06	-56189.1	1005.82	-29739.7	0.000000	0.000000	7.193789	172.081	NaN	0.000000	0.001773	0.001641	28.0814	60.5558	0.001723	35136.9	3.333985	175.062	173.357	1.186198	0.064113	0.063805	172.081	35136.9	0.060440	0.127390	1350.82	89943.4
418	2.000000	1.188961	7.36915e+06	-56189.1	1005.82	-29739.7	0.000000	0.000000	7.196841	186.604	NaN	0.000000	0.001753	0.001648	28.0813	63.1067	0.001722	36655	3.166790	-4.779645	183.755	1.188562	0.066567	0.066169	186.604	36655	0.062749	0.135850	1373.6	90861
418	2.000000	1.191416	7.36915e+06	-56189.1	1005.82	-29739.7	0.000000	0.000000	7.199853	200.153	NaN	0.000000	0.001750	0.001661	28.0814	65.5459	0.001723	38033.3	-0.529687	178.723	196.659	1.191022	0.069022	0.068628	200.153	38033.3	0.065075	0.144634	1383.87	91369.8
418	2.000000	1.194016	7.36915e+06	-56189.1	1005.82	-29739.7	0.000000	0.000000	7.203124	216.442	NaN	0.000000	0.001739	0.001660	28.0816	68.0678	0.001783	38175.3	1.938815	-3.700364	214.963	1.193532	0.071622	0.071139	216.442	38175.3	0.067370	0.153555	1409.54	89007.1
418	2.000000	1.196414	7.36915e+06	-56189.1	1005.82	-29739.7	0.000000	0.000000	7.205947	226.793	NaN	0.000000	0.001772	0.001673	28.0813	69.9756	0.001743	40154.4	5.905682	171.322	222.622	1.196114	0.074020	0.073720	226.793	40154.4	0.069784	0.163211	1389.57	90809.6
418	2.000000	1.198970	7.36915e+06	-56189.1	1005.82	-29739.7	0.000000	0.000000	7.209059	240.285	NaN	0.000000	0.001761	0.001693	28.0812	72.7328	0.001730	42051.8	3.802207	-6.631504	236.526	1.198512	0.076577	0.076119	240.285	42051.8	0.072291	0.173533	1384.66	92228.8
418	2.000000	1.201463	7.36915e+06	-56189.1	1005.82	-29739.7	0.000000	0.000000	7.212347	259.626	NaN	0.000000	0.001753	0.001658	28.0808	76.2214	0.001755	43422.4	6.307031	170.582	256.832	1.201064	0.079069	0.078671	259.626	43422.4	0.074585	0.183237	1416.89	92678.8
418	2.000000	1.203992	7.36915e+06	-56189.1	1005.82	-29739.7	0.000000	0.000000	7.215437	273.243	NaN	0.000000	0.001731	0.001691	28.0802	77.8399	0.001884	41318.8	7.689472	-9.258888	270.333	1.203626	0.081599	0.081232	273.243	41318.8	0.076639	0.192138	1422.12	86122.2
418	2.000000	1.206430	7.36915e+06	-56189.1	1005.82	-29739.7	0.000000	0.000000	7.218621	291.392	NaN	0.000000	0.001750	0.001686	28.08	80.4744	0.001790	44947.6	5.334350	171.37	288.086	1.206133	0.084036	0.083739	291.392	44947.6	0.079174	0.203397	1432.63	91055.8
418	2.000000	1.208939	7.36915e+06	-56189.1	1005.82	-29739.7	0.000000	0.000000	7.221739	306.202	NaN	0.000000	0.001755	0.001642	28.08	83.8726	0.001880	44618.5	7.062504	-9.539702	303.772	1.208446	0.086545	0.086052	306.202	44618.5	0.081398	0.213520	1434.07	88220.5
418	2.000000	1.211434	7.36915e+06	-56189.1	1005.82	-29739.7	0.000000	0.000000	7.224653	316.367	NaN	0.000000	0.001776	0.001640	28.0802	86.6297	0.001826	47430.3	4.117504	172.016	314.488	1.211167	0.089041	0.088774	316.367	47430.3	0.084038	0.225835	1400.87	91187.1
418	2.000000	1.213907	7.36915e+06	-56189.1	1005.82	-29739.7	0.000000	0.000000	7.228221	342.99	NaN	0.000000	0.001780	0.001674	28.0801	88.6239	0.001760	50361.6	7.716329	-11.4424	338.135	1.213578	0.091514	0.091185	342.99	50361.6	0.086406	0.237153	1446.28	94484
418	2.000000	1.216412	7.36915e+06	-56189.1	1005.82	-29739.7	0.000000	0.000000	7.231547	362.967	NaN	0.000000	0.001739	0.001698	28.08	90.5212	0.001784	50750.8	4.531029	171.722	362.995	1.216125	0.094018	0.093731	362.967	50750.8	0.088654	0.248141	1462.74	93082.2
418	2.000000	1.218948	7.36915e+06	-56189.1	1005.82	-29739.7	0.000000	0.000000	7.234662	377.022	NaN	0.000000	0.001747	0.001654	28.0799	93.5952	0.001835	51017	4.978638	-9.273859	374.329	1.218580	0.096555	0.096187	377.022	51017	0.091012	0.259914	1450.57	91426.8
418	2.000000	1.221421	7.36915e+06	-56189.1	1005.82	-29739.7	0.000000	0.000000	7.237986	397.717	NaN	0.000000	0.001739	0.001673	28.0802	96.0081	0.001752	54789.7	3.134951	172.031	396.715	1.221096	0.099028	0.098703	397.717	54789.7	0.093583	0.273041	1456.62	95798.2
418	2.000000	1.223848	7.36916e+06	-56189.1	1005.82	-29739.7	0.000000	0.000000	7.241105	414.552	NaN	0.000000	0.001767	0.001638	28.08	97.196	0.001722	56442.7	6.037131	-11.2111	408.189	1.223623	0.101454	0.101230	414.552	56442.7	0.095946	0.285368	1452.69	96533.4
418	2.000000	1.226478	7.36916e+06	-56189.1	1005.82	-29739.7	0.000000	0.000000	7.244761	439.464	NaN	0.000000	0.001813	0.001665	28.0801	98.7234	0.001773	55680.2	6.329317	169.603	441.565	1.226016	0.104084	0.103622	439.464	55680.2	0.098165	0.297182	1478.77	93317.4
418	2.000000	1.228896	7.36916e+06	-56189.1	1005.82	-29739.7	0.000000	0.000000	7.248009	459.656	NaN	0.000000	0.001727	0.001652	28.0804	101.264	0.001778	56954.2	5.913115	-10.4619	454.968	1.228579	0.106502	0.106186	459.656	56954.2	0.100449	0.309575	1484.8	93522.6
418	2.000000	1.231484	7.36916e+06	-56189.1	1005.82	-29739.7	0.000000	0.000000	7.251096	471.752	NaN	0.000000	0.001690	0.001642	28.0806	104.474	0.001819	57437.8	2.706921	172.174	472.803	1.231324	0.109091	0.108931	471.752	57437.8	0.102931	0.323308	1459.14	92291.8
418	2.000000	1.233036	7.36916e+06	-56189.1	1005.82	-29739.7	0.000000	0.000000	7.253340	488.592	NaN	0.000000	0.001680	0.001627	28.0801	104.669	0.001652	63346.5	4.645739	-10.4694	491.397	1.232766	0.110642	0.110373	488.592	63346.5	0.104858	0.334162	1462.14	100119