File: remote_trans/data/nanoindenter/0828-1/data/Data_2025-08-06,11h17m57s/2025-07-22_16-23-58_1_128.txt
2025-07-22, 16:23:58, 1
Index	Phase	Displacement	Time	Pos X	Pos Y	Pos Z	Rot A	Rot B	Piezo Z	Force A	Force B	Gripper	Voltage A	Voltage B	Temperature	Amplitude force	Amplitude pos	Stiffness	Phase shift	Phase excitation	Force A raw	Displacement raw	HMax	HMax raw	Real Force	Real Stiffness	Contact Depth	Area	Hardness	Reduced Mod.
[#]	[#]	[um]	[s]	[um]	[um]	[um]	[m°]	[m°]	[um]	[uN]	[uN]	[V]	[V]	[V]	[°C]	[uN]	[um]	[N/m]	[°]	[°]	[uN]	[um]	[um]	[um]	[uN]	[N/m]	[um]	[um^2]	[MPa]	[MPa]
128	1.000000	0.002290	7.36629e+06	-45039.1	955.819	-29774.4	0.000000	0.000000	6.002726	-0.016142	NaN	0.000000	0.001602	0.001846	28.1111	0.105849	0.001029	102.863	48.0726	178.649	-0.054558	0.001033	-1.015208	-1.016465	-0.016142	102.863	-1.015090	-3.621502E+13	4.457302E-16	NaN
128	1.000000	0.010306	7.36629e+06	-45039.1	955.818	-29774.4	0.000000	0.000000	6.010745	0.031122	NaN	0.000000	0.001590	0.001841	28.109	0.039114	0.001073	36.4604	147.435	174.495	0.037329	0.008947	-1.007192	-1.008551	0.031122	36.4604	-1.007832	-2.892017E+13	-1.076130E-15	NaN
128	1.000000	0.018262	7.36629e+06	-45039.1	955.818	-29774.4	0.000000	0.000000	6.018700	0.010064	NaN	0.000000	0.001624	0.001830	28.1099	0.074050	0.001705	43.4254	-22.5428	174.599	0.043448	0.016952	-0.999236	-1.000546	0.010064	43.4254	-0.999410	-2.227513E+13	-4.518130E-16	NaN
128	1.000000	0.026300	7.36629e+06	-45039.1	955.818	-29774.4	0.000000	0.000000	6.026738	0.031139	NaN	0.000000	0.001633	0.001810	28.1099	0.108291	0.001859	58.2443	111.464	176.55	-0.000698	0.024954	-0.991198	-0.992544	0.031139	58.2443	-0.991599	-1.748422E+13	-1.780958E-15	NaN
128	1.000000	0.034239	7.36629e+06	-45039.1	955.818	-29774.4	0.000000	0.000000	6.034676	-0.010308	NaN	0.000000	0.001626	0.001823	28.1094	0.080400	0.001895	42.432	150.579	179.501	-0.023231	0.032925	-0.983259	-0.984573	-0.010308	42.432	-0.983077	-1.342327E+13	7.679460E-16	NaN
128	1.000000	0.042257	7.36629e+06	-45039.1	955.818	-29774.4	0.000000	0.000000	6.042693	-0.034811	NaN	0.000000	0.001626	0.001816	28.1118	0.034549	0.001997	17.2981	71.1321	176.038	0.007966	0.040940	-0.975240	-0.976558	-0.034811	17.2981	-0.973731	-1.004487E+13	3.465519E-15	NaN
128	1.000000	0.050267	7.36629e+06	-45039.1	955.818	-29774.4	0.000000	0.000000	6.050704	0.007823	NaN	0.000000	0.001626	0.001824	28.1113	0.116854	0.001965	59.4793	-165.399	173.891	-0.014800	0.048969	-0.967231	-0.968529	0.007823	59.4793	-0.967330	-8.235251E+12	-9.499690E-16	NaN
128	1.000000	0.058235	7.36629e+06	-45039.1	955.819	-29774.4	0.000000	0.000000	6.058674	0.031558	NaN	0.000000	0.001588	0.001805	28.1124	0.103610	0.002006	51.6402	-38.4299	176.101	0.075754	0.056926	-0.959262	-0.960572	0.031558	51.6402	-0.959721	-6.502850E+12	-4.853000E-15	NaN
128	1.000000	0.066277	7.36629e+06	-45039.1	955.818	-29774.4	0.000000	0.000000	6.066715	0.022649	NaN	0.000000	0.001626	0.001787	28.1121	0.021864	0.001997	10.9461	-10.401	177.939	0.031652	0.064928	-0.951221	-0.952570	0.022649	10.9461	-0.952773	-5.241095E+12	-4.321378E-15	NaN
128	1.000000	0.074253	7.36629e+06	-45039.1	955.819	-29774.4	0.000000	0.000000	6.074691	0.021063	NaN	0.000000	0.001578	0.001771	28.1121	0.198315	0.002072	95.6934	178.09	173.322	0.004752	0.072934	-0.943245	-0.944563	0.021063	95.6934	-0.943410	-3.918676E+12	-5.375034E-15	NaN
128	1.000000	0.082244	7.36629e+06	-45039.1	955.818	-29774.4	0.000000	0.000000	6.082686	0.098095	NaN	0.000000	0.001594	0.001782	28.1116	0.032204	0.001963	16.4095	-33.3361	175.526	0.029303	0.080896	-0.935253	-0.936602	0.098095	16.4095	-0.939737	-3.496120E+12	-2.805833E-14	NaN
128	1.000000	0.090258	7.36629e+06	-45039.1	955.818	-29774.4	0.000000	0.000000	6.090696	0.022729	NaN	0.000000	0.001606	0.001770	28.1117	0.065698	0.002006	32.7477	81.6323	171.736	0.062056	0.088931	-0.927240	-0.928567	0.022729	32.7477	-0.927760	-2.409732E+12	-9.431985E-15	NaN
128	1.000000	0.098276	7.36629e+06	-45039.1	955.818	-29774.4	0.000000	0.000000	6.098712	-0.017738	NaN	0.000000	0.001582	0.001789	28.1117	0.052449	0.001901	27.5917	14.087	173.549	0.067112	0.096950	-0.919222	-0.920547	-0.017738	27.5917	-0.918740	-1.820504E+12	9.743628E-15	NaN
128	1.000000	0.106264	7.36629e+06	-45039.1	955.819	-29774.4	0.000000	0.000000	6.106704	0.065483	NaN	0.000000	0.001621	0.001793	28.1108	0.103170	0.002086	49.4586	46.3417	173.974	0.043523	0.105011	-0.911234	-0.912487	0.065483	49.4586	-0.912227	-1.486743E+12	-4.404487E-14	NaN
128	1.000000	0.114259	7.36629e+06	-45039.1	955.818	-29774.4	0.000000	0.000000	6.114694	-0.057857	NaN	0.000000	0.001612	0.001791	28.1112	0.058519	0.002044	28.6268	141.641	172.609	-0.033878	0.112969	-0.903238	-0.904529	-0.057857	28.6268	-0.901723	-1.072363E+12	5.395298E-14	NaN
128	1.000000	0.122273	7.36629e+06	-45039.1	955.818	-29774.4	0.000000	0.000000	6.122712	0.027591	NaN	0.000000	0.001643	0.001785	28.1129	0.135946	0.001940	70.0625	-6.389223	174.285	-0.002190	0.120957	-0.895224	-0.896541	0.027591	70.0625	-0.895520	-8.841448E+11	-3.120658E-14	NaN
128	1.000000	0.130300	7.36629e+06	-45039.1	955.818	-29774.4	0.000000	0.000000	6.130739	0.030175	NaN	0.000000	0.001616	0.001774	28.1131	0.019981	0.001985	10.0647	73.1629	176.363	0.122173	0.128951	-0.887197	-0.888547	0.030175	10.0647	-0.889446	-7.318552E+11	-4.123050E-14	NaN
128	1.000000	0.138297	7.36629e+06	-45039.1	955.819	-29774.4	0.000000	0.000000	6.138736	0.044552	NaN	0.000000	0.001603	0.001793	28.1126	0.024848	0.002013	12.3431	-74.5297	177.477	0.029317	0.136974	-0.879201	-0.880524	0.044552	12.3431	-0.881908	-5.787757E+11	-7.697567E-14	NaN
128	1.000000	0.146296	7.36629e+06	-45039.1	955.818	-29774.4	0.000000	0.000000	6.146733	-0.017623	NaN	0.000000	0.001631	0.001794	28.1132	0.153252	0.001970	77.8022	82.4078	178.886	-0.029089	0.145001	-0.871202	-0.872497	-0.017623	77.8022	-0.871032	-4.124805E+11	4.272463E-14	NaN
128	1.000000	0.154296	7.36629e+06	-45039.1	955.819	-29774.4	0.000000	0.000000	6.154733	-0.017812	NaN	0.000000	0.001608	0.001792	28.1122	0.085478	0.001985	43.0609	91.4844	177.823	0.045291	0.152958	-0.863202	-0.864539	-0.017812	43.0609	-0.862892	-3.200790E+11	5.564749E-14	NaN
128	1.000000	0.162275	7.36629e+06	-45039.1	955.818	-29774.4	0.000000	0.000000	6.162714	0.038480	NaN	0.000000	0.001600	0.001777	28.1119	0.052926	0.001965	26.9372	-122.899	179.295	-0.048936	0.161016	-0.855222	-0.856481	0.038480	26.9372	-0.856294	-2.605865E+11	-1.476661E-13	NaN
128	1.000000	0.170307	7.36629e+06	-45039.1	955.819	-29774.4	0.000000	0.000000	6.170746	0.043028	NaN	0.000000	0.001525	0.001788	28.1112	0.141011	0.002087	67.5651	-125.453	178.125	0.048541	0.168979	-0.847190	-0.848518	0.043028	67.5651	-0.847668	-1.991401E+11	-2.160712E-13	NaN
128	1.000000	0.178315	7.36629e+06	-45039.1	955.818	-29774.4	0.000000	0.000000	6.178753	0.018696	NaN	0.000000	0.001620	0.001816	28.1122	0.024110	0.002086	11.556	-54.0208	174.205	0.119136	0.176979	-0.839183	-0.840518	0.018696	11.556	-0.840396	-1.587316E+11	-1.177831E-13	NaN
128	1.000000	0.186288	7.36629e+06	-45039.1	955.818	-29774.4	0.000000	0.000000	6.186725	-0.015467	NaN	0.000000	0.001616	0.001810	28.1122	0.057369	0.002067	27.7544	-4.879934	176.46	0.014162	0.184929	-0.831210	-0.832569	-0.015467	27.7544	-0.830792	-1.176291E+11	1.314866E-13	NaN
128	1.000000	0.194325	7.36629e+06	-45039.1	955.818	-29774.4	0.000000	0.000000	6.194763	0.021892	NaN	0.000000	0.001611	0.001804	28.1107	0.118411	0.002033	58.2387	108.355	177.786	0.015777	0.192968	-0.823173	-0.824529	0.021892	58.2387	-0.823455	-9.355261E+10	-2.340078E-13	NaN
128	1.000000	0.202331	7.36629e+06	-45039.1	955.818	-29774.4	0.000000	0.000000	6.202772	0.094897	NaN	0.000000	0.001627	0.001816	28.1119	0.046892	0.001932	24.2752	-56.2923	172.384	0.053599	0.201029	-0.815167	-0.816469	0.094897	24.2752	-0.818099	-7.914639E+10	-1.199006E-12	NaN
128	1.000000	0.210292	7.36629e+06	-45039.1	955.818	-29774.4	0.000000	0.000000	6.210728	-0.036524	NaN	0.000000	0.001623	0.001795	28.1116	0.065466	0.001995	32.8166	-108.756	172.656	0.004927	0.208966	-0.807206	-0.808531	-0.036524	32.8166	-0.806371	-5.486930E+10	6.656496E-13	NaN
128	1.000000	0.218334	7.36629e+06	-45039.1	955.818	-29774.4	0.000000	0.000000	6.218772	0.014065	NaN	0.000000	0.001603	0.001819	28.1121	0.058361	0.002050	28.4621	-102.498	176.581	0.045738	0.216944	-0.799164	-0.800553	0.014065	28.4621	-0.799534	-4.431423E+10	-3.173902E-13	NaN
128	1.000000	0.226307	7.36629e+06	-45039.1	955.819	-29774.4	0.000000	0.000000	6.226743	-0.023336	NaN	0.000000	0.001648	0.001812	28.1119	0.031272	0.001986	15.7459	-49.5884	176.194	-0.008888	0.224970	-0.791191	-0.792528	-0.023336	15.7459	-0.790079	-3.297336E+10	7.077203E-13	NaN
128	1.000000	0.234352	7.36629e+06	-45039.1	955.818	-29774.4	0.000000	0.000000	6.234789	-0.016330	NaN	0.000000	0.001536	0.001836	28.1118	0.092605	0.002007	46.1511	-113.831	178.904	-0.024493	0.232991	-0.783146	-0.784507	-0.016330	46.1511	-0.782881	-2.632520E+10	6.203260E-13	NaN
128	1.000000	0.242326	7.36629e+06	-45039.1	955.818	-29774.4	0.000000	0.000000	6.242763	-0.001665	NaN	0.000000	0.001541	0.001807	28.1109	0.122222	0.002016	60.612	173.909	175.685	0.019133	0.241029	-0.775172	-0.776469	-0.001665	60.612	-0.775151	-2.066952E+10	8.056519E-14	NaN
128	1.000000	0.250329	7.36629e+06	-45039.1	955.818	-29774.4	0.000000	0.000000	6.250767	0.037016	NaN	0.000000	0.001570	0.001795	28.111	0.066257	0.001963	33.7507	69.4668	175.055	-0.006708	0.249086	-0.767169	-0.768412	0.037016	33.7507	-0.767992	-1.651960E+10	-2.240744E-12	NaN
128	1.000000	0.258341	7.36629e+06	-45039.1	955.818	-29774.4	0.000000	0.000000	6.258778	0.001809	NaN	0.000000	0.001597	0.001816	28.1113	0.023672	0.001979	11.9604	69.7811	177.674	0.072768	0.257016	-0.759157	-0.760482	0.001809	11.9604	-0.759271	-1.257128E+10	-1.439036E-13	NaN
128	1.000000	0.266365	7.36629e+06	-45039.1	955.818	-29774.4	0.000000	0.000000	6.266804	0.042911	NaN	0.000000	0.001648	0.001789	28.1116	0.055186	0.001960	28.1535	151.499	175.122	0.019561	0.264983	-0.751133	-0.752515	0.042911	28.1535	-0.752276	-1.009716E+10	-4.249834E-12	NaN
128	1.000000	0.274311	7.36629e+06	-45039.1	955.819	-29774.4	0.000000	0.000000	6.274749	0.027382	NaN	0.000000	0.001635	0.001796	28.1105	0.078271	0.002132	36.7117	172.126	175.204	-0.065896	0.273059	-0.743187	-0.744439	0.027382	36.7117	-0.743746	-7.728149E+9	-3.543136E-12	NaN
128	1.000000	0.282341	7.36629e+06	-45039.1	955.818	-29774.4	0.000000	0.000000	6.282780	0.041557	NaN	0.000000	0.001587	0.001774	28.1115	0.062329	0.002007	31.0534	83.2071	178.034	-0.054873	0.281055	-0.735157	-0.736442	0.041557	31.0534	-0.736161	-6.091984E+9	-6.821606E-12	NaN
128	1.000000	0.290359	7.36629e+06	-45039.1	955.818	-29774.4	0.000000	0.000000	6.290796	-0.013001	NaN	0.000000	0.001616	0.001763	28.1124	0.005915	0.001867	3.167812	-99.5189	173.783	-0.026894	0.288951	-0.727139	-0.728547	-0.013001	3.167812	-0.724061	-4.167197E+9	3.119786E-12	NaN
128	1.000000	0.298347	7.36629e+06	-45039.1	955.818	-29774.4	0.000000	0.000000	6.298784	0.010350	NaN	0.000000	0.001569	0.001777	28.1121	0.075691	0.001972	38.3835	-167.702	176.659	0.062615	0.297009	-0.719151	-0.720489	0.010350	38.3835	-0.719353	-3.594640E+9	-2.879412E-12	NaN
128	1.000000	0.306373	7.36629e+06	-45039.1	955.818	-29774.4	0.000000	0.000000	6.306812	0.040113	NaN	0.000000	0.001557	0.001808	28.1121	0.089374	0.002112	42.3147	84.781	175.109	0.042761	0.305085	-0.711125	-0.712413	0.040113	42.3147	-0.711836	-2.838580E+9	-1.413129E-11	NaN
128	1.000000	0.314363	7.36629e+06	-45039.1	955.818	-29774.4	0.000000	0.000000	6.314801	0.014966	NaN	0.000000	0.001615	0.001766	28.1115	0.072320	0.001943	37.2264	134.226	173.925	-0.019509	0.313088	-0.703134	-0.704410	0.014966	37.2264	-0.703436	-2.179963E+9	-6.865329E-12	NaN
128	1.000000	0.322361	7.36629e+06	-45039.1	955.818	-29774.4	0.000000	0.000000	6.322799	0.027820	NaN	0.000000	0.001613	0.001775	28.1112	0.048892	0.001904	25.6831	43.1672	172.184	0.043961	0.321011	-0.695137	-0.696487	0.027820	25.6831	-0.695950	-1.722703E+9	-1.614927E-11	NaN
128	1.000000	0.330370	7.36629e+06	-45039.1	955.818	-29774.4	0.000000	0.000000	6.330809	0.029151	NaN	0.000000	0.001596	0.001752	28.1134	0.052770	0.001981	26.642	-125.946	173.786	-0.014150	0.329020	-0.687128	-0.688477	0.029151	26.642	-0.687948	-1.339302E+9	-2.176613E-11	NaN
128	1.000000	0.338374	7.36629e+06	-45039.1	955.818	-29774.4	0.000000	0.000000	6.338812	0.016845	NaN	0.000000	0.001582	0.001753	28.1121	0.142615	0.002033	70.1617	179.893	177.041	0.012405	0.337027	-0.679124	-0.680471	0.016845	70.1617	-0.679304	-1.020202E+9	-1.651151E-11	NaN
128	1.000000	0.346364	7.36629e+06	-45039.1	955.818	-29774.4	0.000000	0.000000	6.346802	0.024343	NaN	0.000000	0.001596	0.001761	28.1125	0.131794	0.001950	67.5863	18.4449	179.392	-7.001958E-5	0.345018	-0.671134	-0.672480	0.024343	67.5863	-0.671404	-7.954461E+8	-3.060246E-11	NaN
128	1.000000	0.354381	7.36629e+06	-45039.1	955.818	-29774.4	0.000000	0.000000	6.354814	-0.112986	NaN	0.000000	0.001554	0.001808	28.1127	0.060686	0.001996	30.3963	42.0017	178.329	-0.040230	0.353078	-0.663116	-0.664419	-0.112986	30.3963	-0.660329	-5.610088E+8	2.013979E-10	NaN
128	1.000000	0.362391	7.36629e+06	-45039.1	955.818	-29774.4	0.000000	0.000000	6.362829	0.011958	NaN	0.000000	0.001589	0.001763	28.1132	0.134217	0.002051	65.4323	117.699	170.955	-0.010709	0.361074	-0.655107	-0.656424	0.011958	65.4323	-0.655244	-4.778705E+8	-2.502385E-11	NaN
128	1.000000	0.370350	7.36629e+06	-45039.1	955.818	-29774.4	0.000000	0.000000	6.370789	0.048331	NaN	0.000000	0.001589	0.001774	28.1135	0.074029	0.002085	35.5038	88.8347	174.568	0.081983	0.369056	-0.647148	-0.648442	0.048331	35.5038	-0.648169	-3.822350E+8	-1.264435E-10	NaN
128	1.000000	0.378364	7.36629e+06	-45039.1	955.818	-29774.4	0.000000	0.000000	6.378799	-0.066329	NaN	0.000000	0.001590	0.001792	28.1132	0.025362	0.002043	12.4143	40.5445	178.806	-0.009987	0.377054	-0.639133	-0.640444	-0.066329	12.4143	-0.635126	-2.531646E+8	2.620005E-10	NaN
128	1.000000	0.386406	7.36629e+06	-45039.1	955.819	-29774.4	0.000000	0.000000	6.386845	0.035426	NaN	0.000000	0.001580	0.001781	28.1135	0.020790	0.002041	10.1873	36.7513	177.882	-0.026315	0.385089	-0.631092	-0.632409	0.035426	10.1873	-0.633700	-2.420066E+8	-1.463846E-10	NaN
128	1.000000	0.394374	7.36629e+06	-45039.1	955.818	-29774.4	0.000000	0.000000	6.394813	0.042664	NaN	0.000000	0.001573	0.001766	28.1138	0.070195	0.002011	34.9067	6.278274	172.879	-0.044338	0.393095	-0.623124	-0.624402	0.042664	34.9067	-0.624040	-1.783027E+8	-2.392760E-10	NaN
128	1.000000	0.402381	7.36629e+06	-45039.1	955.819	-29774.4	0.000000	0.000000	6.402818	-0.005971	NaN	0.000000	0.001591	0.001766	28.1127	0.057982	0.001879	30.8621	-12.6982	175.638	-0.047588	0.401055	-0.615117	-0.616443	-0.005971	30.8621	-0.614972	-1.338132E+8	4.462018E-11	NaN
128	1.000000	0.410429	7.36629e+06	-45039.1	955.818	-29774.4	0.000000	0.000000	6.410865	-0.038209	NaN	0.000000	0.001601	0.001798	28.1125	0.037922	0.002029	18.6944	-42.8786	174.821	0.066937	0.409076	-0.607069	-0.608422	-0.038209	18.6944	-0.605536	-9.923867E+7	3.850172E-10	NaN
128	1.000000	0.418398	7.36629e+06	-45039.1	955.818	-29774.4	0.000000	0.000000	6.418838	0.051396	NaN	0.000000	0.001588	0.001745	28.1124	0.035567	0.001940	18.338	50.8485	173.771	-0.001963	0.417061	-0.599100	-0.600437	0.051396	18.338	-0.601202	-8.649875E+7	-5.941868E-10	NaN
128	1.000000	0.426394	7.36629e+06	-45039.1	955.818	-29774.4	0.000000	0.000000	6.426831	0.011375	NaN	0.000000	0.001619	0.001758	28.1127	0.085655	0.001914	44.7429	-53.1114	173.336	-0.026790	0.425060	-0.591104	-0.592438	0.011375	44.7429	-0.591295	-6.317080E+7	-1.800656E-10	NaN
128	1.000000	0.434363	7.36629e+06	-45039.1	955.818	-29774.4	0.000000	0.000000	6.434799	-0.039320	NaN	0.000000	0.001603	0.001803	28.1133	0.016463	0.002029	8.115683	137.152	174.045	-0.065700	0.433076	-0.583135	-0.584421	-0.039320	8.115683	-0.579501	-4.343487E+7	9.052654E-10	NaN
128	1.000000	0.442403	7.36629e+06	-45039.1	955.818	-29774.4	0.000000	0.000000	6.442841	0.007719	NaN	0.000000	0.001621	0.001799	28.1137	0.101028	0.002009	50.2981	-1.109218	175.397	0.024187	0.441111	-0.575095	-0.576387	0.007719	50.2981	-0.575210	-3.789602E+7	-2.036889E-10	NaN
128	1.000000	0.450416	7.36629e+06	-45039.1	955.819	-29774.4	0.000000	0.000000	6.450852	-0.010659	NaN	0.000000	0.001533	0.001777	28.1139	0.115621	0.002077	55.657	-97.6296	174.561	0.100107	0.449099	-0.567082	-0.568399	-0.010659	55.657	-0.566939	-2.912897E+7	3.659171E-10	NaN
128	1.000000	0.458409	7.36629e+06	-45039.1	955.818	-29774.4	0.000000	0.000000	6.458847	-0.002700	NaN	0.000000	0.001523	0.001754	28.114	0.051439	0.001911	26.9144	123.953	177.437	-0.068435	0.457101	-0.559088	-0.560397	-0.002700	26.9144	-0.559013	-2.263212E+7	1.193215E-10	NaN
128	1.000000	0.466404	7.36629e+06	-45039.1	955.819	-29774.4	0.000000	0.000000	6.466840	-0.018345	NaN	0.000000	0.001539	0.001748	28.1129	0.057597	0.001950	29.5336	-144.164	177.198	-0.080768	0.465125	-0.551094	-0.552372	-0.018345	29.5336	-0.550628	-1.732438E+7	1.058928E-9	NaN
128	1.000000	0.474418	7.36629e+06	-45039.1	955.819	-29774.4	0.000000	0.000000	6.474856	0.021525	NaN	0.000000	0.001555	0.001768	28.1128	0.051215	0.001927	26.5719	-101.404	176.588	0.014580	0.473090	-0.543080	-0.544408	0.021525	26.5719	-0.543688	-1.388315E+7	-1.550424E-9	NaN
128	1.000000	0.482427	7.36629e+06	-45039.1	955.819	-29774.4	0.000000	0.000000	6.482867	0.058313	NaN	0.000000	0.001535	0.001732	28.1119	0.034536	0.002019	17.105	9.390948	174.351	-0.056535	0.481133	-0.535071	-0.536365	0.058313	17.105	-0.537628	-1.144063E+7	-5.097007E-9	NaN
128	1.000000	0.490438	7.36629e+06	-45039.1	955.819	-29774.4	0.000000	0.000000	6.490876	0.019803	NaN	0.000000	0.001530	0.001754	28.1118	0.091855	0.002065	44.4781	-164.502	175.167	-0.011090	0.489160	-0.527060	-0.528338	0.019803	44.4781	-0.527394	-8.24855e+06	-2.400827E-9	NaN
128	1.000000	0.498441	7.36629e+06	-45039.1	955.819	-29774.4	0.000000	0.000000	6.498882	0.066183	NaN	0.000000	0.001579	0.001769	28.1123	0.070159	0.002083	33.6853	-123.94	176.343	0.083179	0.497125	-0.519056	-0.520373	0.066183	33.6853	-0.520530	-6.62166e+06	-9.994977E-9	NaN
128	1.000000	0.506432	7.36629e+06	-45039.1	955.818	-29774.4	0.000000	0.000000	6.506870	0.039241	NaN	0.000000	0.001533	0.001798	28.1121	0.029208	0.002001	14.5933	103.556	176.075	0.017683	0.505113	-0.511066	-0.512384	0.039241	14.5933	-0.513083	-5.21612e+06	-7.522932E-9	NaN
128	1.000000	0.514414	7.36629e+06	-45039.1	955.819	-29774.4	0.000000	0.000000	6.514852	0.014892	NaN	0.000000	0.001530	0.001776	28.1127	0.018144	0.001869	9.706651	-84.0196	175.793	-0.039229	0.513167	-0.503084	-0.504331	0.014892	9.706651	-0.504235	-3.92713e+06	-3.792085E-9	NaN
128	1.000000	0.522441	7.36629e+06	-45039.1	955.819	-29774.4	0.000000	0.000000	6.522879	0.015300	NaN	0.000000	0.001576	0.001775	28.1133	0.037863	0.002104	17.9932	-109.296	176.319	-0.056139	0.521135	-0.495057	-0.496363	0.015300	17.9932	-0.495695	-2.98493e+06	-5.125680E-9	NaN
128	1.000000	0.530455	7.36629e+06	-45039.1	955.818	-29774.4	0.000000	0.000000	6.530893	0.012313	NaN	0.000000	0.001572	0.001783	28.1139	0.019715	0.002067	9.535917	76.0836	174.623	0.010347	0.529142	-0.487043	-0.488356	0.012313	9.535917	-0.488011	-2.3313e+06	-5.281563E-9	NaN
128	1.000000	0.538432	7.36629e+06	-45039.1	955.818	-29774.4	0.000000	0.000000	6.538868	-0.027678	NaN	0.000000	0.001612	0.001749	28.1136	0.094645	0.002016	46.9441	-22.4596	174.103	0.035251	0.537156	-0.479066	-0.480342	-0.027678	46.9441	-0.478624	-1.72291e+06	1.606445E-8	NaN
128	1.000000	0.546450	7.36629e+06	-45039.1	955.818	-29774.4	0.000000	0.000000	6.546890	0.071350	NaN	0.000000	0.001557	0.001744	28.1137	0.110686	0.002054	53.8756	153.97	177.218	0.060341	0.545143	-0.471048	-0.472355	0.071350	53.8756	-0.472041	-1.39325e+06	-5.121101E-8	NaN
128	1.000000	0.554474	7.36629e+06	-45039.1	955.818	-29774.4	0.000000	0.000000	6.554912	0.021868	NaN	0.000000	0.001588	0.001752	28.1138	0.089765	0.001990	45.1192	-81.5949	179.868	0.016123	0.553171	-0.463024	-0.464327	0.021868	45.1192	-0.463388	-1.05343e+06	-2.075869E-8	NaN
128	1.000000	0.562471	7.36629e+06	-45039.1	955.818	-29774.4	0.000000	0.000000	6.562910	0.028743	NaN	0.000000	0.001550	0.001782	28.113	0.058867	0.002103	27.995	-175.721	177.435	0.127250	0.561131	-0.455026	-0.456367	0.028743	27.995	-0.455796	-823987	-3.488303E-8	NaN
128	1.000000	0.570450	7.36629e+06	-45039.1	955.818	-29774.4	0.000000	0.000000	6.570889	0.052009	NaN	0.000000	0.001524	0.001748	28.1129	0.004705	0.002033	2.313941	-48.8872	172.109	0.081615	0.569173	-0.447048	-0.448325	0.052009	2.313941	-0.463905	-1.0712e+06	-4.855142E-8	NaN
128	1.000000	0.578443	7.36629e+06	-45039.1	955.819	-29774.4	0.000000	0.000000	6.578880	-0.009029	NaN	0.000000	0.001518	0.001748	28.1126	0.037377	0.002014	18.5546	-134.135	179.345	-0.080220	0.577174	-0.439055	-0.440323	-0.009029	18.5546	-0.438690	-473012	1.908802E-8	NaN
128	1.000000	0.586453	7.36629e+06	-45039.1	955.819	-29774.4	0.000000	0.000000	6.586891	0.006623	NaN	0.000000	0.001501	0.001743	28.1129	0.052037	0.002080	25.0117	-162.089	175.637	-0.003726	0.585129	-0.431045	-0.432369	0.006623	25.0117	-0.431243	-371236	-1.784055E-8	NaN
128	1.000000	0.594459	7.36629e+06	-45039.1	955.818	-29774.4	0.000000	0.000000	6.594897	0.013512	NaN	0.000000	0.001575	0.001777	28.113	0.089317	0.001930	46.278	-38.7531	178.657	-0.057946	0.593108	-0.423038	-0.424389	0.013512	46.278	-0.423257	-286151	-4.722065E-8	NaN
128	1.000000	0.602503	7.36629e+06	-45039.1	955.818	-29774.4	0.000000	0.000000	6.602941	0.030085	NaN	0.000000	0.001565	0.001770	28.1152	0.057226	0.002023	28.2926	-122.68	176.476	-0.018059	0.601213	-0.414995	-0.416284	0.030085	28.2926	-0.415793	-224238	-1.341659E-7	NaN
128	1.000000	0.610478	7.36629e+06	-45039.1	955.818	-29774.4	0.000000	0.000000	6.610916	0.018838	NaN	0.000000	0.001551	0.001732	28.115	0.056659	0.002002	28.2971	117.546	177.422	0.069482	0.609204	-0.407020	-0.408294	0.018838	28.2971	-0.407520	-171047	-1.101322E-7	NaN
128	1.000000	0.618511	7.36629e+06	-45039.1	955.819	-29774.4	0.000000	0.000000	6.618951	0.066355	NaN	0.000000	0.001529	0.001727	28.1151	0.054239	0.002039	26.6014	-40.903	174.053	0.011767	0.617174	-0.398987	-0.400324	0.066355	26.6014	-0.400858	-137475	-4.826724E-7	NaN
128	1.000000	0.626508	7.36629e+06	-45039.1	955.818	-29774.4	0.000000	0.000000	6.626947	0.037562	NaN	0.000000	0.001540	0.001750	28.1147	0.019178	0.002029	9.449804	-47.4244	176.769	0.048875	0.625140	-0.390990	-0.392357	0.037562	9.449804	-0.393971	-109631	-3.426183E-7	NaN
128	1.000000	0.634492	7.36629e+06	-45039.1	955.818	-29774.4	0.000000	0.000000	6.634927	-0.046786	NaN	0.000000	0.001511	0.001738	28.1151	0.046691	0.002014	23.1848	157.479	177.037	-0.033650	0.633170	-0.383006	-0.384328	-0.046786	23.1848	-0.381492	-72660.8	6.439013E-7	NaN
128	1.000000	0.642498	7.36629e+06	-45039.1	955.818	-29774.4	0.000000	0.000000	6.642929	-0.151641	NaN	0.000000	0.001503	0.001727	28.114	0.059218	0.001951	30.3566	-77.0975	175.067	-0.031853	0.641176	-0.375000	-0.376322	-0.151641	30.3566	-0.371253	-51781.4	2.928485E-6	NaN
128	1.000000	0.650495	7.36629e+06	-45039.1	955.818	-29774.4	0.000000	0.000000	6.650933	-0.004388	NaN	0.000000	0.001566	0.001734	28.1144	0.088663	0.001886	47.0009	115.339	173.437	0.059007	0.649201	-0.367002	-0.368297	-0.004388	47.0009	-0.366932	-44866.7	9.779085E-8	NaN
128	1.000000	0.658488	7.36629e+06	-45039.1	955.818	-29774.4	0.000000	0.000000	6.658928	0.073241	NaN	0.000000	0.001557	0.001749	28.1144	0.070000	0.002026	34.5489	137.064	175.367	-0.042377	0.657163	-0.359010	-0.360335	0.073241	34.5489	-0.360600	-36351.3	-2.014805E-6	NaN
128	1.000000	0.666531	7.36629e+06	-45039.1	955.818	-29774.4	0.000000	0.000000	6.666969	0.002709	NaN	0.000000	0.001574	0.001754	28.1145	0.054834	0.002067	26.5301	-82.8882	176.687	0.020512	0.665238	-0.350967	-0.352260	0.002709	26.5301	-0.351043	-26432.6	-1.024786E-7	NaN
128	1.000000	0.674521	7.36629e+06	-45039.1	955.818	-29774.4	0.000000	0.000000	6.674959	0.010517	NaN	0.000000	0.001546	0.001774	28.1144	0.060722	0.001879	32.3187	-143.354	175.919	-0.008187	0.673215	-0.342977	-0.344283	0.010517	32.3187	-0.343221	-20345.7	-5.169285E-7	NaN
128	1.000000	0.682512	7.36629e+06	-45039.1	955.818	-29774.4	0.000000	0.000000	6.682950	0.012427	NaN	0.000000	0.001549	0.001770	28.1154	0.106526	0.002101	50.6951	-157.106	174.358	-0.005283	0.681218	-0.334986	-0.336280	0.012427	50.6951	-0.335170	-15526.2	-8.003918E-7	NaN
128	1.000000	0.690509	7.36629e+06	-45039.1	955.819	-29774.4	0.000000	0.000000	6.690950	0.077699	NaN	0.000000	0.001568	0.001744	28.1151	0.015848	0.002048	7.736655	59.9951	177.447	0.113207	0.689197	-0.326989	-0.328301	0.077699	7.736655	-0.334521	-15191.1	-5.114783E-6	NaN
128	1.000000	0.698510	7.36629e+06	-45039.1	955.819	-29774.4	0.000000	0.000000	6.698947	-0.010026	NaN	0.000000	0.001549	0.001730	28.1155	0.043988	0.002026	21.7067	155.035	174.837	-0.043553	0.697226	-0.318987	-0.320271	-0.010026	21.7067	-0.318641	-8884.41	1.128533E-6	NaN
128	1.000000	0.706514	7.36629e+06	-45039.1	955.818	-29774.4	0.000000	0.000000	6.706950	-0.033075	NaN	0.000000	0.001552	0.001722	28.1156	0.122994	0.002018	60.9534	-120.688	175.728	-0.009713	0.705208	-0.310983	-0.312290	-0.033075	60.9534	-0.310576	-6754.36	4.896867E-6	NaN
128	1.000000	0.714539	7.36629e+06	-45039.1	955.818	-29774.4	0.000000	0.000000	6.714978	0.017597	NaN	0.000000	0.001546	0.001750	28.1155	0.034930	0.002070	16.8786	-110.567	176.238	0.022864	0.713285	-0.302958	-0.304213	0.017597	16.8786	-0.303740	-5348.74	-3.289916E-6	NaN
128	1.000000	0.722505	7.36629e+06	-45039.1	955.818	-29774.4	0.000000	0.000000	6.722944	0.038559	NaN	0.000000	0.001534	0.001771	28.1144	0.025806	0.001822	14.1651	15.4115	176.16	-0.003969	0.721222	-0.294993	-0.296276	0.038559	14.1651	-0.297034	-4250.54	-9.071645E-6	NaN
128	1.000000	0.730540	7.36629e+06	-45039.1	955.819	-29774.4	0.000000	0.000000	6.730978	0.011168	NaN	0.000000	0.001546	0.001736	28.1146	0.040933	0.002031	20.1547	113.13	177.191	0.077659	0.729230	-0.286958	-0.288268	0.011168	20.1547	-0.287373	-3047.29	-3.664956E-6	NaN
128	1.000000	0.738537	7.36629e+06	-45039.1	955.818	-29774.4	0.000000	0.000000	6.738976	0.042357	NaN	0.000000	0.001514	0.001725	28.1136	0.185141	0.001944	95.2307	-105.732	177.906	0.034800	0.737186	-0.278961	-0.280311	0.042357	95.2307	-0.279295	-2303.19	-1.839038E-5	NaN
128	1.000000	0.746533	7.36629e+06	-45039.1	955.819	-29774.4	0.000000	0.000000	6.746972	0.037339	NaN	0.000000	0.001552	0.001764	28.1133	0.072563	0.002047	35.4501	8.801513	175.575	0.018381	0.745201	-0.270964	-0.272297	0.037339	35.4501	-0.271754	-1770.89	-2.108459E-5	NaN
128	1.000000	0.754548	7.36629e+06	-45039.1	955.818	-29774.4	0.000000	0.000000	6.754985	-0.015705	NaN	0.000000	0.001559	0.001753	28.1133	0.126419	0.002024	62.4554	-94.5616	171.947	-0.019372	0.753202	-0.262950	-0.264296	-0.015705	62.4554	-0.262761	-1291.78	1.215805E-5	NaN
128	1.000000	0.762525	7.36629e+06	-45039.1	955.818	-29774.4	0.000000	0.000000	6.762964	0.055752	NaN	0.000000	0.001545	0.001770	28.1157	0.032964	0.001988	16.5836	124.493	173.977	0.029640	0.761228	-0.254973	-0.256270	0.055752	16.5836	-0.257495	-1072.69	-5.197357E-5	NaN
128	1.000000	0.770560	7.36629e+06	-45039.1	955.819	-29774.4	0.000000	0.000000	6.770998	0.008871	NaN	0.000000	0.001552	0.001750	28.1141	0.087705	0.002059	42.6019	125.251	177.885	0.090610	0.769233	-0.246938	-0.248265	0.008871	42.6019	-0.247094	-741.236	-1.196782E-5	NaN
128	1.000000	0.778552	7.36629e+06	-45039.1	955.818	-29774.4	0.000000	0.000000	6.778991	0.025435	NaN	0.000000	0.001521	0.001759	28.1146	0.051356	0.001952	26.3037	-67.2	174.846	0.021213	0.777238	-0.238945	-0.240260	0.025435	26.3037	-0.239671	-568.076	-4.477446E-5	NaN
128	1.000000	0.786553	7.36629e+06	-45039.1	955.818	-29774.4	0.000000	0.000000	6.786991	0.013129	NaN	0.000000	0.001555	0.001739	28.1144	0.071009	0.001946	36.4969	103.719	176.08	-0.003032	0.785276	-0.230945	-0.232222	0.013129	36.4969	-0.231214	-418.485	-3.137198E-5	NaN
128	1.000000	0.794584	7.36629e+06	-45039.1	955.818	-29774.4	0.000000	0.000000	6.795022	0.007737	NaN	0.000000	0.001572	0.001709	28.1149	0.023594	0.002001	11.7904	73.2451	175.299	0.065357	0.793265	-0.222914	-0.224233	0.007737	11.7904	-0.223406	-314.766	-2.457933E-5	NaN
128	1.000000	0.802585	7.36629e+06	-45039.1	955.818	-29774.4	0.000000	0.000000	6.803023	0.025537	NaN	0.000000	0.001550	0.001751	28.1142	0.013808	0.001981	6.970403	32.7423	177.545	0.066935	0.801269	-0.214913	-0.216229	0.025537	6.970403	-0.217660	-254.82	-0.000100	NaN
128	1.000000	0.810582	7.36629e+06	-45039.1	955.818	-29774.4	0.000000	0.000000	6.811018	-0.020645	NaN	0.000000	0.001553	0.001752	28.1136	0.033361	0.002006	16.6332	-20.0438	175.731	0.041687	0.809207	-0.206916	-0.208291	-0.020645	16.6332	-0.205985	-165.051	0.000125	NaN
128	1.000000	0.818578	7.36629e+06	-45039.1	955.818	-29774.4	0.000000	0.000000	6.819018	0.069906	NaN	0.000000	0.001543	0.001744	28.1134	0.107349	0.001958	54.8198	-170.375	175.348	0.068927	0.817237	-0.198920	-0.200260	0.069906	54.8198	-0.199876	-131.118	-0.000533	NaN
128	1.000000	0.826580	7.36629e+06	-45039.1	955.818	-29774.4	0.000000	0.000000	6.827018	0.010001	NaN	0.000000	0.001591	0.001702	28.114	0.069044	0.002047	33.7273	110.128	174.836	-0.075378	0.825244	-0.190917	-0.192254	0.010001	33.7273	-0.191140	-93.9831	-0.000106	NaN
128	1.000000	0.834565	7.36629e+06	-45039.1	955.818	-29774.4	0.000000	0.000000	6.835002	-0.021039	NaN	0.000000	0.001570	0.001720	28.1141	0.042911	0.002025	21.193	122.046	173.843	-0.011092	0.833294	-0.182932	-0.184203	-0.021039	21.193	-0.182188	-66.4678	0.000317	NaN
128	1.000000	0.842579	7.36629e+06	-45039.1	955.817	-29774.4	0.000000	0.000000	6.843016	-0.002401	NaN	0.000000	0.001548	0.001750	28.1154	0.087847	0.002080	42.234	29.5806	174.296	-0.022243	0.841228	-0.174919	-0.176270	-0.002401	42.234	-0.174876	-49.872	4.814068E-5	NaN
128	1.000000	0.850587	7.36629e+06	-45039.1	955.819	-29774.4	0.000000	0.000000	6.851026	0.036897	NaN	0.000000	0.001569	0.001730	28.1154	0.028058	0.002122	13.2207	-70.109	177.362	0.049835	0.849235	-0.166911	-0.168263	0.036897	13.2207	-0.169004	-39.4732	-0.000935	NaN
128	1.000000	0.858561	7.36629e+06	-45039.1	955.818	-29774.4	0.000000	0.000000	6.859001	0.058595	NaN	0.000000	0.001566	0.001759	28.1158	0.054882	0.001945	28.2233	2.770523	176.542	0.018023	0.857257	-0.158937	-0.160241	0.058595	28.2233	-0.160494	-27.9743	-0.002095	NaN
128	1.000000	0.866567	7.36629e+06	-45039.1	955.818	-29774.4	0.000000	0.000000	6.867006	0.046332	NaN	0.000000	0.001557	0.001723	28.1156	0.060505	0.002013	30.061	-130.078	178.356	0.057487	0.865292	-0.150931	-0.152205	0.046332	30.061	-0.152087	-19.768	-0.002344	NaN
128	1.000000	0.874568	7.36629e+06	-45039.1	955.818	-29774.4	0.000000	0.000000	6.875005	-0.002835	NaN	0.000000	0.001541	0.001741	28.1166	0.043818	0.002027	21.6134	-128.757	178.091	0.009133	0.873295	-0.142930	-0.144202	-0.002835	21.6134	-0.142832	-13.3637	0.000212	NaN
128	1.000000	0.882588	7.36629e+06	-45039.1	955.818	-29774.4	0.000000	0.000000	6.883026	0.015385	NaN	0.000000	0.001580	0.001740	28.1154	0.128205	0.002084	61.5052	-96.63	169.865	-0.041309	0.881332	-0.134909	-0.136166	0.015385	61.5052	-0.135097	-9.553044	-0.001610	NaN
128	1.000000	0.890597	7.36629e+06	-45039.1	955.818	-29774.4	0.000000	0.000000	6.891035	0.015387	NaN	0.000000	0.001548	0.001718	28.1158	0.033227	0.001995	16.6585	-155.148	179.69	-0.002202	0.889260	-0.126901	-0.128238	0.015387	16.6585	-0.127594	-6.840166	-0.002249	NaN
128	1.000000	0.898595	7.36629e+06	-45039.1	955.818	-29774.4	0.000000	0.000000	6.899033	0.003904	NaN	0.000000	0.001571	0.001679	28.1153	0.065484	0.001960	33.4081	-1.866722	171.318	-0.012033	0.897304	-0.118903	-0.120194	0.003904	33.4081	-0.118990	-4.609565	-0.000847	NaN
128	1.000000	0.906616	7.36629e+06	-45039.1	955.818	-29774.4	0.000000	0.000000	6.907054	0.021687	NaN	0.000000	0.001568	0.001698	28.116	0.120444	0.002139	56.3028	101.135	175.823	0.004158	0.905223	-0.110882	-0.112275	0.021687	56.3028	-0.111171	-3.180486	-0.006819	NaN
128	1.000000	0.914646	7.36629e+06	-45039.1	955.817	-29774.4	0.000000	0.000000	6.915086	0.059530	NaN	0.000000	0.001562	0.001678	28.1159	0.068672	0.002047	33.5467	-16.4884	173.991	0.050175	0.913275	-0.102852	-0.104223	0.059530	33.5467	-0.104183	-2.256774	-0.026378	NaN
128	1.000000	0.922632	7.36629e+06	-45039.1	955.819	-29774.4	0.000000	0.000000	6.923073	0.093326	NaN	0.000000	0.001581	0.001681	28.1167	0.051281	0.002100	24.4186	-94.6772	172.497	0.086923	0.921305	-0.094866	-0.096192	0.093326	24.4186	-0.097732	-1.626297	-0.057385	NaN
128	1.000000	0.930626	7.36629e+06	-45039.1	955.818	-29774.4	0.000000	0.000000	6.931062	-0.017480	NaN	0.000000	0.001542	0.001727	28.1176	0.052130	0.001936	26.9295	42.1266	174.233	-0.094191	0.929271	-0.086872	-0.088227	-0.017480	26.9295	-0.086385	-0.887282	0.019700	NaN
128	1.000000	0.938608	7.36629e+06	-45039.1	955.818	-29774.4	0.000000	0.000000	6.939044	-0.034377	NaN	0.000000	0.001518	0.001701	28.1168	0.018299	0.002012	9.092636	-0.399881	175.97	0.080185	0.937288	-0.078890	-0.080209	-0.034377	9.092636	-0.076055	-0.491706	0.069913	NaN
128	1.000000	0.946612	7.36629e+06	-45039.1	955.818	-29774.4	0.000000	0.000000	6.947049	-0.017235	NaN	0.000000	0.001607	0.001707	28.1171	0.120315	0.001890	63.6515	120.615	177.88	0.044346	0.945341	-0.070886	-0.072156	-0.017235	63.6515	-0.070683	-0.355744	0.048448	NaN
128	1.000000	0.954639	7.36629e+06	-45039.1	955.818	-29774.4	0.000000	0.000000	6.955076	-0.003678	NaN	0.000000	0.001603	0.001722	28.1169	0.020887	0.001969	10.6102	89.0316	178.997	0.009652	0.953273	-0.062859	-0.064224	-0.003678	10.6102	-0.062599	-0.213510	0.017227	NaN
128	1.000000	0.962609	7.36629e+06	-45039.1	955.818	-29774.4	0.000000	0.000000	6.963047	0.014587	NaN	0.000000	0.001603	0.001702	28.1153	0.025773	0.001961	13.1414	49.1065	173.725	-0.012985	0.961331	-0.054889	-0.056167	0.014587	13.1414	-0.055721	-0.135245	-0.107855	NaN
128	1.000000	0.970630	7.36629e+06	-45039.1	955.818	-29774.4	0.000000	0.000000	6.971070	0.047932	NaN	0.000000	0.001649	0.001720	28.1164	0.074609	0.001993	37.4376	-56.5774	177.492	0.044818	0.969332	-0.046867	-0.048166	0.047932	37.4376	-0.047828	-0.078399	-0.611383	NaN
128	1.000000	0.978653	7.36629e+06	-45039.1	955.817	-29774.4	0.000000	0.000000	6.979096	0.130010	NaN	0.000000	0.001578	0.001711	28.1164	0.056860	0.002029	28.0294	-10.1174	174.051	0.086845	0.977300	-0.038844	-0.040198	0.130010	28.0294	-0.042323	-0.053228	-2.442506	NaN
128	1.000000	0.986623	7.36629e+06	-45039.1	955.819	-29774.4	0.000000	0.000000	6.987061	0.015408	NaN	0.000000	0.001576	0.001716	28.1164	0.092218	0.001964	46.9433	177.08	176.509	0.010224	0.985300	-0.030875	-0.032198	0.015408	46.9433	-0.031121	-0.024741	-0.622764	NaN
128	1.000000	0.994637	7.36629e+06	-45039.1	955.819	-29774.4	0.000000	0.000000	6.995075	0.013790	NaN	0.000000	0.001558	0.001737	28.116	0.021481	0.002046	10.4992	-73.3129	177.698	0.006360	0.993287	-0.022861	-0.024211	0.013790	10.4992	-0.023846	-0.015746	-0.875819	NaN
128	1.000000	1.002664	7.36629e+06	-45039.1	955.818	-29774.4	0.000000	0.000000	7.003101	-0.015141	NaN	0.000000	0.001547	0.001743	28.1172	0.035004	0.001802	19.4245	16.0337	175.662	0.006272	1.001320	-0.014834	-0.016178	-0.015141	19.4245	-0.014249	-0.008829	1.714802	NaN
128	1.000000	1.010634	7.36629e+06	-45039.1	955.818	-29774.4	0.000000	0.000000	7.011072	0.013572	NaN	0.000000	0.001545	0.001692	28.1163	0.065411	0.002021	32.3669	164.722	173.411	-0.030369	1.009360	-0.006864	-0.008138	0.013572	32.3669	-0.007178	-0.004747	-2.859385	NaN
128	1.000000	1.018644	7.36629e+06	-45039.1	955.818	-29774.4	0.000000	0.000000	7.019086	0.122895	NaN	0.000000	0.001571	0.001724	28.1159	0.294170	0.001982	148.405	18.3326	175.079	0.058060	1.017329	0.001146	-0.000169	0.122895	148.405	0.000525	0.000396	310.005	6809.88
128	1.000000	1.026626	7.36629e+06	-45039.1	955.819	-29774.4	0.000000	0.000000	7.027339	6.722777	NaN	0.000000	0.001568	0.001659	28.116	7.038492	0.001791	3930.52	15.1389	166.653	5.196322	1.025346	0.009128	0.007848	6.722777	3930.52	0.007845	0.006884	976.636	43282.7
128	2.000000	1.030272	7.36629e+06	-45039.1	955.819	-29774.4	0.000000	0.000000	7.031164	11.0662	NaN	0.000000	0.001577	0.001736	28.1157	11.0575	0.001641	6739.08	8.539035	164.596	11.3075	1.029911	0.012774	0.012413	11.0662	6739.08	0.011542	0.010946	1010.95	58849
128	2.000000	1.032201	7.36629e+06	-45039.1	955.818	-29774.4	0.000000	0.000000	7.033262	15.1874	NaN	0.000000	0.001629	0.001728	28.1153	14.1262	0.001762	8016.16	5.545096	167.422	14.0071	1.031945	0.014703	0.014447	15.1874	8016.16	0.013282	0.013062	1162.71	64081.7
128	2.000000	1.034206	7.36629e+06	-45039.1	955.819	-29774.4	0.000000	0.000000	7.035478	20.3032	NaN	0.000000	0.001616	0.001687	28.1153	15.9986	0.001567	10212.9	3.029149	167.242	20.2957	1.033901	0.016709	0.016403	20.3032	10212.9	0.015218	0.015577	1303.45	74763
128	2.000000	1.036177	7.36629e+06	-45039.1	955.819	-29774.4	0.000000	0.000000	7.037646	25.0908	NaN	0.000000	0.001580	0.001711	28.115	19.7714	0.001761	11228.3	9.513162	161.201	24.7197	1.035932	0.018679	0.018434	25.0908	11228.3	0.017003	0.018050	1390.08	76357
128	2.000000	1.038246	7.36629e+06	-45039.1	955.818	-29774.4	0.000000	0.000000	7.039966	31.2072	NaN	0.000000	0.001536	0.001712	28.1159	21.503	0.001807	11901.3	2.320477	168.766	31.7895	1.037862	0.020748	0.020364	31.2072	11901.3	0.018782	0.020664	1510.24	75641.9
128	2.000000	1.040175	7.36629e+06	-45039.1	955.818	-29774.4	0.000000	0.000000	7.042118	36.6278	NaN	0.000000	0.001590	0.001748	28.1154	23.4188	0.001757	13331.8	2.900021	166.245	36.3877	1.039863	0.022677	0.022365	36.6278	13331.8	0.020616	0.023520	1557.3	79422.1
128	2.000000	1.042122	7.36629e+06	-45039.1	955.818	-29774.4	0.000000	0.000000	7.044297	42.2786	NaN	0.000000	0.001561	0.001754	28.1162	26.5742	0.001770	15013.2	1.731398	165.945	40.9045	1.041853	0.024624	0.024355	42.2786	15013.2	0.022512	0.026644	1586.79	84032.2
128	2.000000	1.044161	7.36629e+06	-45039.1	955.818	-29774.4	0.000000	0.000000	7.046567	47.8715	NaN	0.000000	0.001582	0.001756	28.1163	27.7874	0.001655	16792	6.232436	160.784	47.3687	1.043835	0.026664	0.026337	47.8715	16792	0.024525	0.030158	1587.35	88343.5
128	2.000000	1.046160	7.36629e+06	-45039.1	955.818	-29774.4	0.000000	0.000000	7.048837	54.4714	NaN	0.000000	0.001583	0.001742	28.1163	30.7098	0.001762	17432.8	7.964018	159.912	54.7229	1.045766	0.028662	0.028268	54.4714	17432.8	0.026319	0.033459	1628.02	87073.6
128	2.000000	1.048206	7.36629e+06	-45039.1	955.818	-29774.4	0.000000	0.000000	7.051109	59.9709	NaN	0.000000	0.001570	0.001719	28.1165	32.2171	0.001830	17602	4.662842	163.126	59.5842	1.047734	0.030708	0.030236	59.9709	17602	0.028153	0.037002	1620.72	83602.5
128	2.000000	1.050129	7.36629e+06	-45039.1	955.817	-29774.4	0.000000	0.000000	7.053178	63.541	NaN	0.000000	0.001583	0.001717	28.1166	33.9842	0.001742	19509.1	0.564008	163.967	61.6179	1.049831	0.032631	0.032334	63.541	19509.1	0.030188	0.041135	1544.7	87883.2
128	2.000000	1.052238	7.36629e+06	-45039.1	955.818	-29774.4	0.000000	0.000000	7.055435	67.1181	NaN	0.000000	0.001552	0.001713	28.1159	36.8161	0.001755	20976.8	8.665425	155.832	70.5362	1.051900	0.034741	0.034403	67.1181	20976.8	0.032341	0.045736	1467.52	89616
128	2.000000	1.054146	7.36629e+06	-45039.1	955.817	-29774.4	0.000000	0.000000	7.057554	72.2699	NaN	0.000000	0.001528	0.001729	28.1159	37.0497	0.001799	20598	3.146821	162.034	71.6654	1.053870	0.036648	0.036372	72.2699	20598	0.034016	0.049481	1460.57	84602
128	2.000000	1.056068	7.36629e+06	-45039.1	955.817	-29774.4	0.000000	0.000000	7.059816	80.5308	NaN	0.000000	0.001572	0.001747	28.1153	40.1921	0.001834	21914.3	4.915040	159.604	77.7458	1.055850	0.038571	0.038352	80.5308	21914.3	0.035815	0.053660	1500.77	86432.7
128	2.000000	1.058141	7.36629e+06	-45039.1	955.817	-29774.4	0.000000	0.000000	7.062148	86.8492	NaN	0.000000	0.001553	0.001695	28.1165	41.3675	0.001791	23099.7	4.274137	159.775	86.1218	1.057826	0.040643	0.040328	86.8492	23099.7	0.037823	0.058524	1483.98	87239
128	2.000000	1.060117	7.36629e+06	-45039.1	955.818	-29774.4	0.000000	0.000000	7.064422	94.0901	NaN	0.000000	0.001566	0.001717	28.1168	43.2063	0.001853	23317.1	4.163916	159.969	92.1256	1.059765	0.042619	0.042267	94.0901	23317.1	0.039593	0.062980	1493.97	84888
128	2.000000	1.062096	7.36629e+06	-45039.1	955.818	-29774.4	0.000000	0.000000	7.066669	100.598	NaN	0.000000	0.001546	0.001743	28.1182	45.1937	0.001838	24593.5	2.037319	160.924	98.4097	1.061833	0.044599	0.044335	100.598	24593.5	0.041531	0.068044	1478.42	86138.6
128	2.000000	1.064050	7.36629e+06	-45039.1	955.817	-29774.4	0.000000	0.000000	7.069031	110.537	NaN	0.000000	0.001561	0.001744	28.1182	46.2801	0.001736	26656.9	4.970760	157.924	106.169	1.063694	0.046553	0.046197	110.537	26656.9	0.043443	0.073227	1509.51	90000.7
128	2.000000	1.066135	7.36629e+06	-45039.1	955.817	-29774.4	0.000000	0.000000	7.071513	120.185	NaN	0.000000	0.001543	0.001730	28.1177	48.6294	0.001775	27390.2	4.781607	158.027	120.013	1.065697	0.048637	0.048199	120.185	27390.2	0.045346	0.078573	1529.6	89275.5
128	2.000000	1.068116	7.36629e+06	-45039.1	955.817	-29774.4	0.000000	0.000000	7.073677	124.641	NaN	0.000000	0.001530	0.001729	28.118	50.789	0.001802	28180	6.450780	156.736	123.315	1.067798	0.050618	0.050300	124.641	28180	0.047301	0.084254	1479.35	88699.1
128	2.000000	1.070035	7.36629e+06	-45039.1	955.817	-29774.4	0.000000	0.000000	7.076033	135.288	NaN	0.000000	0.001531	0.001740	28.1182	51.2384	0.001810	28308.2	1.212173	160.745	131.513	1.069684	0.052537	0.052187	135.288	28308.2	0.048952	0.089203	1516.64	86595.6
128	2.000000	1.072037	7.36629e+06	-45039.1	955.818	-29774.4	0.000000	0.000000	7.078096	136.77	NaN	0.000000	0.001562	0.001721	28.1175	54.9194	0.001804	30446.3	5.847082	155.03	132.701	1.071840	0.054539	0.054342	136.77	30446.3	0.051170	0.096064	1423.73	89748.6
128	2.000000	1.074096	7.36629e+06	-45039.1	955.817	-29774.4	0.000000	0.000000	7.080789	152.187	NaN	0.000000	0.001561	0.001758	28.1175	55.6134	0.001918	28993.9	8.768162	154.052	151.163	1.073742	0.056598	0.056244	152.187	28993.9	0.052661	0.100816	1509.56	83428.7
128	2.000000	1.076176	7.36629e+06	-45039.1	955.817	-29774.4	0.000000	0.000000	7.082887	152.619	NaN	0.000000	0.001538	0.001730	28.1169	58.4507	0.001879	31104.1	5.769490	155.79	154.887	1.075884	0.058678	0.058386	152.619	31104.1	0.054998	0.108485	1406.83	86279.1
128	2.000000	1.078033	7.36629e+06	-45039.1	955.817	-29774.4	0.000000	0.000000	7.085315	166.531	NaN	0.000000	0.001546	0.001741	28.117	59.3506	0.001818	32646.1	5.092852	155.648	162.882	1.077799	0.060535	0.060301	166.531	32646.1	0.056709	0.114272	1457.32	88233.8
128	2.000000	1.080053	7.36629e+06	-45039.1	955.817	-29774.4	0.000000	0.000000	7.087689	175.138	NaN	0.000000	0.001522	0.001737	28.1169	60.8505	0.001859	32739.4	6.888696	154.083	174.726	1.079700	0.062555	0.062202	175.138	32739.4	0.058543	0.120634	1451.81	86120.9
128	2.000000	1.082113	7.36629e+06	-45039.1	955.817	-29774.4	0.000000	0.000000	7.090111	183.935	NaN	0.000000	0.001538	0.001728	28.118	62.7439	0.001712	36639.3	4.953684	155.198	181.662	1.081830	0.064615	0.064332	183.935	36639.3	0.060850	0.128874	1427.25	93247.7
128	2.000000	1.084087	7.36629e+06	-45039.1	955.817	-29774.4	0.000000	0.000000	7.092380	191.123	NaN	0.000000	0.001530	0.001747	28.1187	63.512	0.001719	36949.6	5.001092	154.785	188.785	1.083854	0.066589	0.066356	191.123	36949.6	0.062709	0.135703	1408.39	91640.6
128	2.000000	1.086131	7.36629e+06	-45039.1	955.818	-29774.4	0.000000	0.000000	7.094778	199.713	NaN	0.000000	0.001509	0.001745	28.1185	66.4574	0.001658	40077.3	6.619965	152.224	200.464	1.085757	0.068634	0.068259	199.713	40077.3	0.064896	0.143948	1387.39	96509
128	2.000000	1.088162	7.36629e+06	-45039.1	955.817	-29774.4	0.000000	0.000000	7.097326	212.279	NaN	0.000000	0.001509	0.001718	28.1184	69.639	0.001787	38975.5	5.897280	154.321	214.808	1.087734	0.070665	0.070236	212.279	38975.5	0.066580	0.150453	1410.93	91804.4
128	2.000000	1.090055	7.36629e+06	-45039.1	955.817	-29774.4	0.000000	0.000000	7.099821	226.93	NaN	0.000000	0.001542	0.001728	28.118	70.3312	0.001812	38806.9	2.168371	157.499	226.274	1.089794	0.072557	0.072296	226.93	38806.9	0.068172	0.156730	1447.9	89558.3
128	2.000000	1.092037	7.36629e+06	-45039.1	955.817	-29774.4	0.000000	0.000000	7.102351	240.273	NaN	0.000000	0.001560	0.001721	28.1165	72.4835	0.001703	42557.6	4.045228	154.837	237.485	1.091760	0.074539	0.074262	240.273	42557.6	0.070305	0.165329	1453.3	95626.1
128	2.000000	1.094038	7.36629e+06	-45039.1	955.817	-29774.4	0.000000	0.000000	7.104764	250.302	NaN	0.000000	0.001555	0.001719	28.1165	73.6025	0.001823	40384.5	9.193552	150.591	246.32	1.093659	0.076540	0.076161	250.302	40384.5	0.071892	0.171868	1456.36	89000.1
128	2.000000	1.096051	7.36629e+06	-45039.1	955.818	-29774.4	0.000000	0.000000	7.107190	260.326	NaN	0.000000	0.001538	0.001725	28.116	75.5061	0.001766	42765.9	1.865676	156.827	258.142	1.095799	0.078554	0.078301	260.326	42765.9	0.073988	0.180689	1440.74	91919
128	2.000000	1.098098	7.36629e+06	-45039.1	955.818	-29774.4	0.000000	0.000000	7.109819	274.506	NaN	0.000000	0.001544	0.001705	28.1161	78.5137	0.001945	40371.5	5.570187	154.611	273.676	1.097668	0.080600	0.080170	274.506	40371.5	0.075500	0.187179	1466.54	85254.9
128	2.000000	1.100100	7.36629e+06	-45039.1	955.818	-29774.4	0.000000	0.000000	7.112256	285.078	NaN	0.000000	0.001598	0.001715	28.1163	80.0362	0.001745	45865.5	4.692334	153.655	287.219	1.099836	0.082602	0.082338	285.078	45865.5	0.077941	0.197881	1440.65	94201.2
128	2.000000	1.102032	7.36629e+06	-45039.1	955.818	-29774.4	0.000000	0.000000	7.114891	302.183	NaN	0.000000	0.001569	0.001700	28.1173	83.8882	0.001754	47826.3	6.308976	151.492	300.279	1.101798	0.084534	0.084300	302.183	47826.3	0.079796	0.206202	1465.47	96226.2
128	2.000000	1.104010	7.36629e+06	-45039.1	955.818	-29774.4	0.000000	0.000000	7.117578	319.408	NaN	0.000000	0.001564	0.001745	28.1176	84.2932	0.001848	45620.5	2.615499	156.109	314.869	1.103684	0.086513	0.086186	319.408	45620.5	0.081262	0.212892	1500.33	90334.5
128	2.000000	1.106017	7.36629e+06	-45039.1	955.818	-29774.4	0.000000	0.000000	7.120386	338.913	NaN	0.000000	0.001568	0.001723	28.117	86.8709	0.001875	46328.2	5.780109	153.049	336.746	1.105656	0.088519	0.088158	338.913	46328.2	0.083033	0.221107	1532.8	90015.6
128	2.000000	1.108079	7.36629e+06	-45039.1	955.817	-29774.4	0.000000	0.000000	7.123019	352.823	NaN	0.000000	0.001563	0.001724	28.1172	87.877	0.001753	50140.2	2.778614	155.651	351.176	1.107717	0.090581	0.090220	352.823	50140.2	0.085303	0.231851	1521.77	95138.2
128	2.000000	1.110044	7.36629e+06	-45039.1	955.818	-29774.4	0.000000	0.000000	7.125863	374.183	NaN	0.000000	0.001569	0.001734	28.1185	89.5232	0.001800	49744.9	5.608609	152.904	372.661	1.109633	0.092546	0.092135	374.183	49744.9	0.086905	0.239572	1561.88	92854.6
128	2.000000	1.111978	7.36629e+06	-45039.1	955.818	-29774.4	0.000000	0.000000	7.128438	389.8	NaN	0.000000	0.001560	0.001764	28.1168	92.3892	0.001840	50223.2	3.702842	154.281	385.132	1.111809	0.094480	0.094311	389.8	50223.2	0.088659	0.248164	1570.74	92110.3
128	2.000000	1.114065	7.36629e+06	-45039.1	955.818	-29774.4	0.000000	0.000000	7.131545	414.595	NaN	0.000000	0.001590	0.001716	28.1164	92.7138	0.001811	51186.5	2.751986	155.473	414.387	1.113649	0.096567	0.096152	414.595	51186.5	0.090493	0.257298	1611.34	92195.6
128	2.000000	1.115968	7.36629e+06	-45039.1	955.817	-29774.4	0.000000	0.000000	7.134273	434.658	NaN	0.000000	0.001602	0.001770	28.117	94.2904	0.001632	57772.8	2.660540	154.204	429.567	1.115735	0.098471	0.098237	434.658	57772.8	0.092828	0.269154	1614.9	101741
128	2.000000	1.118007	7.36629e+06	-45039.1	955.817	-29774.4	0.000000	0.000000	7.137017	451.824	NaN	0.000000	0.001604	0.001784	28.1165	97.4539	0.001793	54366.2	4.750909	153.513	446.478	1.117602	0.100509	0.100104	451.824	54366.2	0.094276	0.276631	1633.31	94439.2
128	2.000000	1.119973	7.36629e+06	-45039.1	955.818	-29774.4	0.000000	0.000000	7.139564	465.944	NaN	0.000000	0.001595	0.001781	28.1167	98.7433	0.001792	55109	0.711228	156.859	460.484	1.119738	0.102475	0.102241	465.944	55109	0.096134	0.286363	1627.11	94088.5
128	2.000000	1.122099	7.36629e+06	-45039.1	955.819	-29774.4	0.000000	0.000000	7.142498	485.604	NaN	0.000000	0.001588	0.001771	28.1176	103.908	0.001944	53460.4	7.804063	149.876	486.47	1.121689	0.104602	0.104191	485.604	53460.4	0.097789	0.295166	1645.19	89902.6
128	2.000000	1.124111	7.36629e+06	-45039.1	955.817	-29774.4	0.000000	0.000000	7.145214	502.735	NaN	0.000000	0.001561	0.001750	28.1177	104.226	0.001902	54801.3	7.800145	149.049	505.364	1.123852	0.106613	0.106354	502.735	54801.3	0.099733	0.305663	1644.73	90561.2
128	2.000000	1.126066	7.36629e+06	-45039.1	955.818	-29774.4	0.000000	0.000000	7.148617	537.96	NaN	0.000000	0.001531	0.001742	28.1177	104.987	0.001831	57325.8	4.195565	153.251	537.445	1.125606	0.108568	0.108108	537.96	57325.8	0.101530	0.315522	1704.98	93241.4
128	2.000000	1.126999	7.36629e+06	-45039.1	955.818	-29774.4	0.000000	0.000000	7.149855	545.402	NaN	0.000000	0.001526	0.001779	28.0845	105.227	0.001870	56282	1.516324	155.786	541.671	1.126719	0.109501	0.109222	545.402	56282	0.102233	0.319418	1707.49	90983.7