File: remote_trans/data/nanoindenter/0828-1/data/Data_2025-08-06,11h17m57s/2025-07-22_16-23-58_1_168.txt
2025-07-22, 16:23:58, 1
Index	Phase	Displacement	Time	Pos X	Pos Y	Pos Z	Rot A	Rot B	Piezo Z	Force A	Force B	Gripper	Voltage A	Voltage B	Temperature	Amplitude force	Amplitude pos	Stiffness	Phase shift	Phase excitation	Force A raw	Displacement raw	HMax	HMax raw	Real Force	Real Stiffness	Contact Depth	Area	Hardness	Reduced Mod.
[#]	[#]	[um]	[s]	[um]	[um]	[um]	[m°]	[m°]	[um]	[uN]	[uN]	[V]	[V]	[V]	[°C]	[uN]	[um]	[N/m]	[°]	[°]	[uN]	[um]	[um]	[um]	[uN]	[N/m]	[um]	[um^2]	[MPa]	[MPa]
168	1.000000	0.002442	7.36668e+06	-47039.1	955.819	-29767.7	0.000000	0.000000	6.002742	-0.064061	NaN	0.000000	0.001620	0.001670	28.1208	0.059636	0.000953	62.6048	168.019	-179.8	-0.036422	0.001221	-1.096851	-1.098072	-0.064061	62.6048	-1.096084	-4.441134E+14	1.442448E-16	NaN
168	1.000000	0.012463	7.36668e+06	-47039.1	955.818	-29767.7	0.000000	0.000000	6.012769	0.050813	NaN	0.000000	0.001607	0.001726	28.1238	0.066357	0.001168	56.8002	-71.3307	-5.817783	-0.008929	0.011052	-1.086829	-1.088241	0.050813	56.8002	-1.087500	-3.406023E+14	-1.491870E-16	NaN
168	1.000000	0.022390	7.36668e+06	-47039.1	955.818	-29767.7	0.000000	0.000000	6.022691	-0.067003	NaN	0.000000	0.001621	0.001692	28.0858	0.056816	0.001676	33.9012	-93.2711	174.659	-0.158726	0.021105	-1.076903	-1.078187	-0.067003	33.9012	-1.075420	-2.344259E+14	2.858158E-16	NaN
168	1.000000	0.032362	7.36668e+06	-47039.1	955.819	-29767.7	0.000000	0.000000	6.032662	-0.080713	NaN	0.000000	0.001612	0.001656	28.0834	0.076288	0.001915	39.8307	174.754	-4.140893	-0.023733	0.031019	-1.066931	-1.068273	-0.080713	39.8307	-1.065411	-1.720007E+14	4.692573E-16	NaN
168	1.000000	0.042366	7.36668e+06	-47039.1	955.819	-29767.7	0.000000	0.000000	6.042667	-0.060561	NaN	0.000000	0.001632	0.001693	28.1219	0.074761	0.001936	38.6116	142.934	176.413	-0.018451	0.041080	-1.056927	-1.058213	-0.060561	38.6116	-1.055751	-1.275589E+14	4.747704E-16	NaN
168	1.000000	0.052383	7.36668e+06	-47039.1	955.819	-29767.7	0.000000	0.000000	6.052685	-0.044144	NaN	0.000000	0.001588	0.001684	28.1209	0.039460	0.001858	21.2372	64.8578	-1.634098	-0.075923	0.051044	-1.046909	-1.048249	-0.044144	21.2372	-1.045350	-9.245000E+13	4.774933E-16	NaN
168	1.000000	0.062402	7.36668e+06	-47039.1	955.818	-29767.7	0.000000	0.000000	6.062703	-0.069891	NaN	0.000000	0.001606	0.001693	28.0824	0.034471	0.001971	17.4875	-106.222	176.682	-0.040171	0.061071	-1.036891	-1.038222	-0.069891	17.4875	-1.033893	-6.483978E+13	1.077904E-15	NaN
168	1.000000	0.072394	7.36668e+06	-47039.1	955.82	-29767.7	0.000000	0.000000	6.072694	-0.073495	NaN	0.000000	0.001618	0.001686	28.083	0.039399	0.001995	19.7463	29.8014	-6.815352	-0.101286	0.071025	-1.026899	-1.028267	-0.073495	19.7463	-1.024108	-4.788682E+13	1.534761E-15	NaN
168	1.000000	0.082423	7.36668e+06	-47039.1	955.817	-29767.7	0.000000	0.000000	6.082725	-0.030722	NaN	0.000000	0.001633	0.001660	28.1189	0.075627	0.001967	38.4525	-105.312	-179.938	-0.009339	0.081055	-1.016870	-1.018238	-0.030722	38.4525	-1.016271	-3.756417E+13	8.178591E-16	NaN
168	1.000000	0.092393	7.36668e+06	-47039.1	955.818	-29767.7	0.000000	0.000000	6.092696	-0.017895	NaN	0.000000	0.001628	0.001674	28.1219	0.116212	0.001880	61.821	142.629	-3.362265	-0.099485	0.091037	-1.006900	-1.008256	-0.017895	61.821	-1.006683	-2.790821E+13	6.412230E-16	NaN
168	1.000000	0.102402	7.36668e+06	-47039.1	955.818	-29767.7	0.000000	0.000000	6.102707	0.023116	NaN	0.000000	0.001598	0.001670	28.084	0.118111	0.001995	59.1937	162.087	177.35	0.014131	0.101030	-0.996890	-0.998263	0.023116	59.1937	-0.997183	-2.078951E+13	-1.111911E-15	NaN
168	1.000000	0.112408	7.36668e+06	-47039.1	955.818	-29767.7	0.000000	0.000000	6.112707	-0.106497	NaN	0.000000	0.001598	0.001682	28.0843	0.048842	0.001867	26.1608	-102.787	-5.999050	-0.073269	0.111070	-0.986885	-0.988223	-0.106497	26.1608	-0.983831	-1.374122E+13	7.750204E-15	NaN
168	1.000000	0.122384	7.36668e+06	-47039.1	955.819	-29767.7	0.000000	0.000000	6.122685	-0.061082	NaN	0.000000	0.001626	0.001660	28.1199	0.050236	0.002044	24.5743	-7.967016	176.144	0.027919	0.121160	-0.976908	-0.978133	-0.061082	24.5743	-0.975044	-1.046259E+13	5.838168E-15	NaN
168	1.000000	0.132420	7.36668e+06	-47039.1	955.819	-29767.7	0.000000	0.000000	6.132726	0.041746	NaN	0.000000	0.001645	0.001663	28.121	0.045722	0.002025	22.5751	-67.2682	-4.314462	0.005892	0.131082	-0.966872	-0.968210	0.041746	22.5751	-0.968259	-8.476238E+12	-4.925025E-15	NaN
168	1.000000	0.142421	7.36668e+06	-47039.1	955.818	-29767.7	0.000000	0.000000	6.142721	-0.084255	NaN	0.000000	0.001595	0.001686	28.0845	0.022186	0.001964	11.2946	135.036	177.261	0.020430	0.141107	-0.956871	-0.958185	-0.084255	11.2946	-0.951276	-5.003142E+12	1.684036E-14	NaN
168	1.000000	0.152413	7.36668e+06	-47039.1	955.818	-29767.7	0.000000	0.000000	6.152714	-0.042658	NaN	0.000000	0.001688	0.001680	28.082	0.153458	0.002014	76.2133	-95.2767	-3.946031	-0.042442	0.151057	-0.946880	-0.948236	-0.042658	76.2133	-0.946460	-4.308099E+12	9.901759E-15	NaN
168	1.000000	0.162447	7.36668e+06	-47039.1	955.819	-29767.7	0.000000	0.000000	6.162752	0.046686	NaN	0.000000	0.001612	0.001705	28.119	0.083744	0.002127	39.3705	155.559	172.591	-0.023118	0.161116	-0.936846	-0.938176	0.046686	39.3705	-0.937735	-3.285356E+12	-1.421030E-14	NaN
168	1.000000	0.172438	7.36668e+06	-47039.1	955.819	-29767.7	0.000000	0.000000	6.172743	0.021867	NaN	0.000000	0.001618	0.001694	28.1225	0.098228	0.001977	49.6864	98.273	-2.746460	-0.050903	0.171070	-0.926855	-0.928223	0.021867	49.6864	-0.927185	-2.366991E+12	-9.238178E-15	NaN
168	1.000000	0.182439	7.36668e+06	-47039.1	955.817	-29767.7	0.000000	0.000000	6.182740	-0.057194	NaN	0.000000	0.001602	0.001670	28.0843	0.079290	0.001962	40.4206	-164.113	177.108	-0.182304	0.181107	-0.916854	-0.918186	-0.057194	40.4206	-0.915793	-1.661095E+12	3.443128E-14	NaN
168	1.000000	0.192451	7.36668e+06	-47039.1	955.819	-29767.7	0.000000	0.000000	6.192756	0.026504	NaN	0.000000	0.001617	0.001702	28.0853	0.119670	0.002021	59.2253	105.363	-3.742512	0.020827	0.191090	-0.906841	-0.908203	0.026504	59.2253	-0.907177	-1.270663E+12	-2.085839E-14	NaN
168	1.000000	0.202438	7.36668e+06	-47039.1	955.819	-29767.7	0.000000	0.000000	6.202741	-0.023447	NaN	0.000000	0.001633	0.001685	28.1206	0.028169	0.001895	14.8627	61.5916	176.592	-0.065991	0.201123	-0.896855	-0.898170	-0.023447	14.8627	-0.895671	-8.883231E+11	2.639496E-14	NaN
168	1.000000	0.212440	7.36668e+06	-47039.1	955.818	-29767.7	0.000000	0.000000	6.212740	-0.089954	NaN	0.000000	0.001634	0.001695	28.123	0.043208	0.001895	22.8029	164.04	-6.359179	-0.110236	0.211118	-0.886852	-0.888174	-0.089954	22.8029	-0.883894	-6.156875E+11	1.461041E-13	NaN
168	1.000000	0.222451	7.36668e+06	-47039.1	955.819	-29767.7	0.000000	0.000000	6.222753	-0.043209	NaN	0.000000	0.001625	0.001698	28.0844	0.031520	0.001942	16.2338	-49.6918	175.108	-0.016586	0.221124	-0.876841	-0.878169	-0.043209	16.2338	-0.874845	-4.645023E+11	9.302115E-14	NaN
168	1.000000	0.232434	7.36668e+06	-47039.1	955.818	-29767.7	0.000000	0.000000	6.232738	0.008726	NaN	0.000000	0.001624	0.001707	28.0835	0.077210	0.002020	38.2194	104.676	-5.849155	-0.006632	0.231113	-0.866858	-0.868179	0.008726	38.2194	-0.867030	-3.641284E+11	-2.396483E-14	NaN
168	1.000000	0.242474	7.36668e+06	-47039.1	955.819	-29767.7	0.000000	0.000000	6.242773	-0.113034	NaN	0.000000	0.001597	0.001686	28.1189	0.031739	0.002007	15.8183	-46.3513	177.259	-0.171488	0.241161	-0.856819	-0.858131	-0.113034	15.8183	-0.851459	-2.241303E+11	5.043221E-13	NaN
168	1.000000	0.252460	7.36668e+06	-47039.1	955.818	-29767.7	0.000000	0.000000	6.252759	-0.102636	NaN	0.000000	0.001608	0.001703	28.1239	0.096762	0.002018	47.9475	159.779	-3.056779	-0.136917	0.251062	-0.846833	-0.848231	-0.102636	47.9475	-0.845227	-1.845446E+11	5.561599E-13	NaN
168	1.000000	0.262465	7.36668e+06	-47039.1	955.819	-29767.7	0.000000	0.000000	6.262766	-0.052135	NaN	0.000000	0.001637	0.001694	28.0861	0.076942	0.001871	41.1173	-77.8461	178.146	-0.041138	0.261157	-0.836828	-0.838136	-0.052135	41.1173	-0.835877	-1.378569E+11	3.781824E-13	NaN
168	1.000000	0.272475	7.36668e+06	-47039.1	955.818	-29767.7	0.000000	0.000000	6.272778	-0.010567	NaN	0.000000	0.001639	0.001697	28.0842	0.042504	0.001932	21.9973	-158.305	-4.441678	0.007051	0.271091	-0.826817	-0.828202	-0.010567	21.9973	-0.826457	-1.027446E+11	1.028502E-13	NaN
168	1.000000	0.282483	7.36668e+06	-47039.1	955.819	-29767.7	0.000000	0.000000	6.282783	-0.083192	NaN	0.000000	0.001656	0.001706	28.1203	0.022908	0.001992	11.4972	-4.679101	177.89	-0.054797	0.281143	-0.816810	-0.818150	-0.083192	11.4972	-0.811383	-6.417089E+10	1.296409E-12	NaN
168	1.000000	0.292495	7.36668e+06	-47039.1	955.818	-29767.7	0.000000	0.000000	6.292794	-0.095187	NaN	0.000000	0.001634	0.001696	28.1235	0.052989	0.002024	26.1814	-113.745	-4.249051	-0.087559	0.291086	-0.806798	-0.808207	-0.095187	26.1814	-0.804071	-5.106456E+10	1.864053E-12	NaN
168	1.000000	0.302491	7.36668e+06	-47039.1	955.819	-29767.7	0.000000	0.000000	6.302792	-0.048401	NaN	0.000000	0.001641	0.001678	28.0845	0.095952	0.002038	47.0868	130.154	172.506	-0.003389	0.301158	-0.796802	-0.798135	-0.048401	47.0868	-0.796031	-3.971717E+10	1.218632E-12	NaN
168	1.000000	0.312484	7.36668e+06	-47039.1	955.819	-29767.7	0.000000	0.000000	6.312787	-0.008405	NaN	0.000000	0.001612	0.001703	28.0832	0.067703	0.002105	32.1641	-131.667	-6.925490	-0.053194	0.311108	-0.786809	-0.788185	-0.008405	32.1641	-0.786613	-2.958540E+10	2.840936E-13	NaN
168	1.000000	0.322452	7.36668e+06	-47039.1	955.818	-29767.7	0.000000	0.000000	6.322754	-0.031342	NaN	0.000000	0.001672	0.001680	28.1175	0.096965	0.001975	49.094	165.166	175.431	-0.127449	0.321092	-0.776841	-0.778201	-0.031342	49.094	-0.776362	-2.146814E+10	1.459933E-12	NaN
168	1.000000	0.332483	7.36668e+06	-47039.1	955.818	-29767.7	0.000000	0.000000	6.332783	-0.087710	NaN	0.000000	0.001685	0.001680	28.1231	0.049941	0.001972	25.3221	85.5254	-4.811068	-0.002140	0.331217	-0.766810	-0.768075	-0.087710	25.3221	-0.764212	-1.467577E+10	5.976487E-12	NaN
168	1.000000	0.342529	7.36668e+06	-47039.1	955.819	-29767.7	0.000000	0.000000	6.342827	-0.148721	NaN	0.000000	0.001701	0.001688	28.0842	0.065412	0.002026	32.2808	174.328	177.354	-0.105481	0.341227	-0.756764	-0.758065	-0.148721	32.2808	-0.753308	-1.042914E+10	1.426010E-11	NaN
168	1.000000	0.352483	7.36668e+06	-47039.1	955.819	-29767.7	0.000000	0.000000	6.352782	-0.097700	NaN	0.000000	0.001698	0.001668	28.0822	0.062377	0.001875	33.2735	-132.231	-3.067963	-0.119366	0.351121	-0.746810	-0.748172	-0.097700	33.2735	-0.744608	-7.939820E+9	1.230509E-11	NaN
168	1.000000	0.362510	7.36668e+06	-47039.1	955.819	-29767.7	0.000000	0.000000	6.362810	-0.066391	NaN	0.000000	0.001634	0.001693	28.1191	0.058394	0.001987	29.3895	-171.327	176.858	-0.037786	0.361216	-0.736783	-0.738077	-0.066391	29.3895	-0.735089	-5.890533E+9	1.127081E-11	NaN
168	1.000000	0.372512	7.36668e+06	-47039.1	955.819	-29767.7	0.000000	0.000000	6.372816	0.002766	NaN	0.000000	0.001628	0.001679	28.1223	0.053786	0.001963	27.4026	48.4897	-3.591491	-0.026508	0.371168	-0.726781	-0.728125	0.002766	27.4026	-0.726856	-4.549441E+9	-6.078821E-13	NaN
168	1.000000	0.382500	7.36668e+06	-47039.1	955.819	-29767.7	0.000000	0.000000	6.382800	-0.062748	NaN	0.000000	0.001621	0.001699	28.0842	0.131947	0.001958	67.3871	28.7702	172.66	-0.053149	0.381225	-0.716793	-0.718067	-0.062748	67.3871	-0.716095	-3.244951E+9	1.933701E-11	NaN
168	1.000000	0.392520	7.36668e+06	-47039.1	955.818	-29767.7	0.000000	0.000000	6.392820	-0.073073	NaN	0.000000	0.001622	0.001699	28.0812	0.058891	0.002042	28.846	-153.058	-7.455494	-0.127692	0.391192	-0.706773	-0.708101	-0.073073	28.846	-0.704873	-2.280689E+9	3.203988E-11	NaN
168	1.000000	0.402519	7.36668e+06	-47039.1	955.818	-29767.7	0.000000	0.000000	6.402821	-0.033209	NaN	0.000000	0.001618	0.001670	28.1171	0.077636	0.001828	42.4656	-104.147	174.868	-0.117553	0.401214	-0.696773	-0.698079	-0.033209	42.4656	-0.696187	-1.735603E+9	1.913425E-11	NaN
168	1.000000	0.412542	7.36668e+06	-47039.1	955.818	-29767.7	0.000000	0.000000	6.412842	-0.085478	NaN	0.000000	0.001634	0.001719	28.1241	0.036576	0.002056	17.7864	-6.774383	-6.442963	-0.095288	0.411178	-0.686751	-0.688114	-0.085478	17.7864	-0.683147	-1.151431E+9	7.423610E-11	NaN
168	1.000000	0.422520	7.36668e+06	-47039.1	955.818	-29767.7	0.000000	0.000000	6.422823	-0.014705	NaN	0.000000	0.001604	0.001705	28.0842	0.024342	0.002039	11.9378	-15.3954	172.636	-0.044194	0.421210	-0.676773	-0.678082	-0.014705	11.9378	-0.675849	-9.150125E+8	1.607040E-11	NaN
168	1.000000	0.432519	7.36668e+06	-47039.1	955.819	-29767.7	0.000000	0.000000	6.432821	-0.040293	NaN	0.000000	0.001630	0.001703	28.0832	0.181435	0.002032	89.2776	-104.816	-8.326709	-0.060982	0.431167	-0.666774	-0.668126	-0.040293	89.2776	-0.666435	-6.801342E+8	5.924342E-11	NaN
168	1.000000	0.442528	7.36668e+06	-47039.1	955.819	-29767.7	0.000000	0.000000	6.442830	-0.036202	NaN	0.000000	0.001629	0.001675	28.1184	0.065717	0.002003	32.8048	-73.8935	179.256	-0.014415	0.441212	-0.656765	-0.658081	-0.036202	32.8048	-0.655937	-4.884344E+8	7.411873E-11	NaN
168	1.000000	0.452575	7.36668e+06	-47039.1	955.818	-29767.7	0.000000	0.000000	6.452880	0.025249	NaN	0.000000	0.001626	0.001722	28.1226	0.033923	0.002082	16.2968	-166.232	-4.077292	-0.045798	0.451163	-0.646718	-0.648129	0.025249	16.2968	-0.647880	-3.787606E+8	-6.666281E-11	NaN
168	1.000000	0.462542	7.36668e+06	-47039.1	955.819	-29767.7	0.000000	0.000000	6.462844	-0.023486	NaN	0.000000	0.001609	0.001730	28.0864	0.113737	0.001952	58.2626	32.8287	175.448	-0.040011	0.461226	-0.636751	-0.638067	-0.023486	58.2626	-0.636449	-2.639701E+8	8.897141E-11	NaN
168	1.000000	0.472557	7.36668e+06	-47039.1	955.818	-29767.7	0.000000	0.000000	6.472857	-0.077303	NaN	0.000000	0.001609	0.001723	28.0824	0.020107	0.002018	9.962572	3.922739	-2.325868	-0.068575	0.471240	-0.626736	-0.628052	-0.077303	9.962572	-0.620916	-1.615198E+8	4.786006E-10	NaN
168	1.000000	0.482548	7.36668e+06	-47039.1	955.818	-29767.7	0.000000	0.000000	6.482850	-0.038217	NaN	0.000000	0.001609	0.001701	28.1185	0.042019	0.002066	20.3396	57.9658	175.567	-0.001112	0.481234	-0.616745	-0.618059	-0.038217	20.3396	-0.615336	-1.353656E+8	2.823257E-10	NaN
168	1.000000	0.492566	7.36668e+06	-47039.1	955.818	-29767.7	0.000000	0.000000	6.492866	-0.088018	NaN	0.000000	0.001631	0.001697	28.125	0.065920	0.002007	32.8508	-58.5916	-4.772503	-0.084129	0.491187	-0.606726	-0.608105	-0.088018	32.8508	-0.604717	-9.669529E+7	9.102653E-10	NaN
168	1.000000	0.502561	7.36668e+06	-47039.1	955.818	-29767.7	0.000000	0.000000	6.502862	-0.047279	NaN	0.000000	0.001629	0.001699	28.0853	0.043745	0.001952	22.4069	89.6383	175.276	-0.112772	0.501278	-0.596732	-0.598015	-0.047279	22.4069	-0.595149	-7.139030E+7	6.622607E-10	NaN
168	1.000000	0.512603	7.36668e+06	-47039.1	955.819	-29767.7	0.000000	0.000000	6.512902	-0.105444	NaN	0.000000	0.001626	0.001703	28.0845	0.039363	0.001958	20.1036	7.619945	-5.642200	-0.096346	0.511193	-0.586690	-0.588099	-0.105444	20.1036	-0.582756	-4.816773E+7	2.189107E-9	NaN
168	1.000000	0.522566	7.36668e+06	-47039.1	955.818	-29767.7	0.000000	0.000000	6.522868	-0.038367	NaN	0.000000	0.001632	0.001681	28.1187	0.004676	0.002007	2.330155	121.91	176.417	0.001788	0.521257	-0.576727	-0.578035	-0.038367	2.330155	-0.564378	-2.684889E+7	1.428982E-9	NaN
168	1.000000	0.532554	7.36668e+06	-47039.1	955.818	-29767.7	0.000000	0.000000	6.532854	-0.093271	NaN	0.000000	0.001624	0.001684	28.1241	0.069480	0.002041	34.0371	82.9509	-3.384795	-0.098904	0.531284	-0.566738	-0.568009	-0.093271	34.0371	-0.564683	-2.711105E+7	3.440328E-9	NaN
168	1.000000	0.542574	7.36668e+06	-47039.1	955.818	-29767.7	0.000000	0.000000	6.542876	-0.041610	NaN	0.000000	0.001632	0.001701	28.085	0.042579	0.002065	20.6231	-98.8973	175.398	-0.143811	0.541284	-0.556719	-0.558009	-0.041610	20.6231	-0.555205	-2.004613E+7	2.075721E-9	NaN
168	1.000000	0.552575	7.36668e+06	-47039.1	955.818	-29767.7	0.000000	0.000000	6.552878	-0.017432	NaN	0.000000	0.001628	0.001669	28.0806	0.086874	0.002042	42.5424	112.111	-5.328006	0.058629	0.551218	-0.546718	-0.548074	-0.017432	42.5424	-0.546410	-1.514337E+7	1.151114E-9	NaN
168	1.000000	0.562586	7.36668e+06	-47039.1	955.818	-29767.7	0.000000	0.000000	6.562886	-0.106248	NaN	0.000000	0.001634	0.001684	28.1174	0.121513	0.002074	58.5848	-10.4596	174.399	-0.052817	0.561288	-0.536706	-0.538005	-0.106248	58.5848	-0.535346	-1.063638E+7	9.989077E-9	NaN
168	1.000000	0.572608	7.36668e+06	-47039.1	955.818	-29767.7	0.000000	0.000000	6.572908	-0.081612	NaN	0.000000	0.001656	0.001651	28.1255	0.100110	0.002096	47.7623	-2.536809	-0.134223	-0.025602	0.571255	-0.526685	-0.528038	-0.081612	47.7623	-0.525403	-7.73954e+06	1.054476E-8	NaN
168	1.000000	0.582598	7.36668e+06	-47039.1	955.819	-29767.7	0.000000	0.000000	6.582900	-0.019899	NaN	0.000000	0.001628	0.001662	28.0855	0.066601	0.001978	33.6734	-177.693	175.205	0.050767	0.581244	-0.516695	-0.518048	-0.019899	33.6734	-0.516252	-5.77369e+06	3.446473E-9	NaN
168	1.000000	0.592637	7.36668e+06	-47039.1	955.819	-29767.7	0.000000	0.000000	6.592938	-0.052936	NaN	0.000000	0.001635	0.001682	28.0828	0.107897	0.002057	52.4639	-158.004	-2.584172	0.005308	0.591256	-0.506656	-0.508037	-0.052936	52.4639	-0.505899	-4.14262e+06	1.277837E-8	NaN
168	1.000000	0.602616	7.36668e+06	-47039.1	955.818	-29767.7	0.000000	0.000000	6.602916	-0.088104	NaN	0.000000	0.001614	0.001707	28.1172	0.055793	0.001993	28.0007	-78.162	174.58	-0.079650	0.601296	-0.496677	-0.497996	-0.088104	28.0007	-0.494317	-2.85562e+06	3.085277E-8	NaN
168	1.000000	0.612667	7.36668e+06	-47039.1	955.818	-29767.7	0.000000	0.000000	6.612970	0.002613	NaN	0.000000	0.001617	0.001685	28.1233	0.091537	0.002041	44.8531	-143	-4.608897	-0.046381	0.611267	-0.486626	-0.488026	0.002613	44.8531	-0.486670	-2.23275e+06	-1.170414E-9	NaN
168	1.000000	0.622644	7.36668e+06	-47039.1	955.818	-29767.7	0.000000	0.000000	6.622945	-0.051159	NaN	0.000000	0.001633	0.001665	28.0838	0.036367	0.002019	18.0132	149.616	177.121	-0.053608	0.621284	-0.476649	-0.478008	-0.051159	18.0132	-0.474519	-1.50924e+06	3.389701E-8	NaN
168	1.000000	0.632638	7.36668e+06	-47039.1	955.82	-29767.7	0.000000	0.000000	6.632939	-0.045816	NaN	0.000000	0.001590	0.001684	28.081	0.041897	0.001952	21.4608	63.7905	-5.944937	0.002082	0.631297	-0.466655	-0.467996	-0.045816	21.4608	-0.465054	-1.11174e+06	4.121090E-8	NaN
168	1.000000	0.642629	7.36668e+06	-47039.1	955.818	-29767.7	0.000000	0.000000	6.642931	-0.018507	NaN	0.000000	0.001626	0.001707	28.1157	0.041691	0.001998	20.8651	-111.783	178.844	-0.066355	0.641339	-0.456664	-0.457953	-0.018507	20.8651	-0.455999	-829408	2.231302E-8	NaN
168	1.000000	0.652621	7.36668e+06	-47039.1	955.819	-29767.7	0.000000	0.000000	6.652920	-0.098013	NaN	0.000000	0.001592	0.001705	28.1243	0.138147	0.001951	70.7958	-50.5692	-2.763179	-0.027878	0.651248	-0.446672	-0.448045	-0.098013	70.7958	-0.445634	-592688	1.653705E-7	NaN
168	1.000000	0.662636	7.36668e+06	-47039.1	955.818	-29767.7	0.000000	0.000000	6.662938	-0.050483	NaN	0.000000	0.001616	0.001745	28.0836	0.043172	0.001954	22.0955	-58.6533	175.224	0.041793	0.661282	-0.436656	-0.438011	-0.050483	22.0955	-0.434943	-418741	1.205586E-7	NaN
168	1.000000	0.672636	7.36668e+06	-47039.1	955.818	-29767.7	0.000000	0.000000	6.672938	-0.033197	NaN	0.000000	0.001663	0.001722	28.0824	0.050891	0.001976	25.7541	87.6945	-6.980893	-0.103012	0.671291	-0.426657	-0.428002	-0.033197	25.7541	-0.425690	-309782	1.071619E-7	NaN
168	1.000000	0.682668	7.36668e+06	-47039.1	955.819	-29767.7	0.000000	0.000000	6.682969	-0.056006	NaN	0.000000	0.001628	0.001688	28.1163	0.081315	0.001962	41.4482	127.434	179.534	-0.040325	0.681321	-0.416625	-0.417971	-0.056006	41.4482	-0.415612	-222916	2.512445E-7	NaN
168	1.000000	0.692633	7.36668e+06	-47039.1	955.818	-29767.7	0.000000	0.000000	6.692934	-0.059897	NaN	0.000000	0.001619	0.001689	28.1237	0.050545	0.001931	26.1765	137.565	-3.028957	-0.043800	0.691286	-0.406660	-0.408006	-0.059897	26.1765	-0.404944	-157198	3.810307E-7	NaN
168	1.000000	0.702680	7.36668e+06	-47039.1	955.819	-29767.7	0.000000	0.000000	6.702980	-0.085806	NaN	0.000000	0.001631	0.001741	28.0837	0.045749	0.001972	23.1956	125.116	173.426	-0.031558	0.701363	-0.396613	-0.397929	-0.085806	23.1956	-0.393838	-109155	7.860953E-7	NaN
168	1.000000	0.712658	7.36668e+06	-47039.1	955.819	-29767.7	0.000000	0.000000	6.712959	-0.062883	NaN	0.000000	0.001644	0.001700	28.0819	0.096236	0.002182	44.1101	-139.359	-4.099907	-0.065622	0.711275	-0.386635	-0.388018	-0.062883	44.1101	-0.385565	-83116.4	7.565653E-7	NaN
168	1.000000	0.722672	7.36668e+06	-47039.1	955.818	-29767.7	0.000000	0.000000	6.722969	-0.148863	NaN	0.000000	0.001648	0.001696	28.115	0.120983	0.001947	62.1533	150.86	176.929	-0.103266	0.721338	-0.376621	-0.377955	-0.148863	62.1533	-0.374825	-58284.6	2.554067E-6	NaN
168	1.000000	0.732700	7.36668e+06	-47039.1	955.819	-29767.7	0.000000	0.000000	6.733000	-0.071845	NaN	0.000000	0.001647	0.001704	28.1257	0.136051	0.002057	66.1244	-32.3414	-5.305056	-0.104246	0.731316	-0.366593	-0.367977	-0.071845	66.1244	-0.365778	-43179.8	1.663846E-6	NaN
168	1.000000	0.742699	7.36668e+06	-47039.1	955.82	-29767.7	0.000000	0.000000	6.742999	-0.080745	NaN	0.000000	0.001628	0.001717	28.0871	0.035653	0.001977	18.0373	22.6317	175.79	-0.086384	0.741377	-0.356594	-0.357915	-0.080745	18.0373	-0.353237	-28441.2	2.839003E-6	NaN
168	1.000000	0.752675	7.36668e+06	-47039.1	955.818	-29767.7	0.000000	0.000000	6.752978	-0.015792	NaN	0.000000	0.001698	0.001716	28.0836	0.020538	0.001868	10.994	102.838	-2.434754	-0.058547	0.751333	-0.346617	-0.347959	-0.015792	10.994	-0.345540	-21989.2	7.181721E-7	NaN
168	1.000000	0.762683	7.36668e+06	-47039.1	955.818	-29767.7	0.000000	0.000000	6.762985	-0.030090	NaN	0.000000	0.001667	0.001687	28.1178	0.074175	0.002021	36.71	-96.9248	179.871	0.018524	0.761354	-0.336610	-0.337939	-0.030090	36.71	-0.335995	-15963.4	1.884934E-6	NaN
168	1.000000	0.772696	7.36668e+06	-47039.1	955.818	-29767.7	0.000000	0.000000	6.772996	-0.075746	NaN	0.000000	0.001630	0.001709	28.1248	0.052649	0.002058	25.586	142.458	-2.973917	-0.068724	0.771312	-0.326597	-0.327981	-0.075746	25.586	-0.324377	-10789.1	7.020614E-6	NaN
168	1.000000	0.782718	7.36668e+06	-47039.1	955.818	-29767.7	0.000000	0.000000	6.783018	-0.090474	NaN	0.000000	0.001636	0.001719	28.0851	0.118917	0.002134	55.7176	170.066	172.019	-0.023402	0.781399	-0.316574	-0.317893	-0.090474	55.7176	-0.315357	-7947.13	1.138444E-5	NaN
168	1.000000	0.792703	7.36668e+06	-47039.1	955.818	-29767.7	0.000000	0.000000	6.793002	-0.104739	NaN	0.000000	0.001657	0.001694	28.0813	0.045635	0.001996	22.86	-140.798	-2.770137	-0.058366	0.791330	-0.306590	-0.307963	-0.104739	22.86	-0.303154	-5242.49	1.997893E-5	NaN
168	1.000000	0.802692	7.36668e+06	-47039.1	955.818	-29767.7	0.000000	0.000000	6.802993	-0.061359	NaN	0.000000	0.001632	0.001705	28.1153	0.045789	0.001940	23.5977	77.0855	176.234	-0.018153	0.801398	-0.296601	-0.297895	-0.061359	23.5977	-0.294651	-3916.26	1.566766E-5	NaN
168	1.000000	0.812701	7.36668e+06	-47039.1	955.818	-29767.7	0.000000	0.000000	6.812999	-0.135675	NaN	0.000000	0.001681	0.001693	28.1257	0.016967	0.001996	8.501855	-150.167	-4.614392	-0.055527	0.811401	-0.286592	-0.287892	-0.135675	8.501855	-0.274623	-1957.45	6.931201E-5	NaN
168	1.000000	0.822707	7.36668e+06	-47039.1	955.818	-29767.7	0.000000	0.000000	6.823009	-0.035948	NaN	0.000000	0.001649	0.001702	28.0859	0.042790	0.002024	21.1437	19.4595	176.373	-0.091212	0.821404	-0.276586	-0.277889	-0.035948	21.1437	-0.275311	-2004.96	1.792941E-5	NaN
168	1.000000	0.832687	7.36668e+06	-47039.1	955.818	-29767.7	0.000000	0.000000	6.832987	-0.077253	NaN	0.000000	0.001638	0.001699	28.0821	0.007522	0.002104	3.575012	-91.5816	-2.050446	-0.043775	0.831330	-0.266606	-0.267963	-0.077253	3.575012	-0.250399	-833.946	9.263530E-5	NaN
168	1.000000	0.842724	7.36668e+06	-47039.1	955.818	-29767.7	0.000000	0.000000	6.843024	-0.086644	NaN	0.000000	0.001617	0.001673	28.1167	0.041002	0.002072	19.7886	-131.987	179.651	-0.032578	0.841399	-0.256569	-0.257893	-0.086644	19.7886	-0.253285	-924.046	9.376618E-5	NaN
168	1.000000	0.852715	7.36668e+06	-47039.1	955.819	-29767.7	0.000000	0.000000	6.853016	-0.038181	NaN	0.000000	0.001610	0.001664	28.1255	0.056684	0.002005	28.2755	65.8584	-4.815507	-0.072249	0.851414	-0.246578	-0.247879	-0.038181	28.2755	-0.245565	-701.839	5.440068E-5	NaN
168	1.000000	0.862743	7.36668e+06	-47039.1	955.817	-29767.7	0.000000	0.000000	6.863045	-0.036000	NaN	0.000000	0.001652	0.001695	28.0848	0.090682	0.001991	45.5424	104.549	178.529	-0.002825	0.861380	-0.236549	-0.237913	-0.036000	45.5424	-0.235957	-496.89	7.245056E-5	NaN
168	1.000000	0.872725	7.36668e+06	-47039.1	955.818	-29767.7	0.000000	0.000000	6.873026	-0.055789	NaN	0.000000	0.001713	0.001677	28.0796	0.064375	0.002208	29.1568	6.242684	-6.492017	-0.092385	0.871343	-0.226568	-0.227950	-0.055789	29.1568	-0.225133	-335.31	0.000166	NaN
168	1.000000	0.882691	7.36668e+06	-47039.1	955.819	-29767.7	0.000000	0.000000	6.882992	-0.071271	NaN	0.000000	0.001707	0.001674	28.1138	0.092185	0.002009	45.8833	-92.5756	178.259	-0.085575	0.881410	-0.216601	-0.217883	-0.071271	45.8833	-0.215436	-234.709	0.000304	NaN
168	1.000000	0.892776	7.36668e+06	-47039.1	955.819	-29767.7	0.000000	0.000000	6.893077	-0.065806	NaN	0.000000	0.001678	0.001644	28.125	0.013342	0.001962	6.801229	26.1492	-6.870731	-0.097876	0.891401	-0.206517	-0.207892	-0.065806	6.801229	-0.199260	-128.096	0.000514	NaN
168	1.000000	0.902759	7.36668e+06	-47039.1	955.819	-29767.7	0.000000	0.000000	6.903062	-0.016419	NaN	0.000000	0.001686	0.001705	28.0844	0.022916	0.002053	11.164	32.4741	177.285	-0.071605	0.901398	-0.196533	-0.197894	-0.016419	11.164	-0.195430	-110.746	0.000148	NaN
168	1.000000	0.912721	7.36668e+06	-47039.1	955.82	-29767.7	0.000000	0.000000	6.913020	-0.096411	NaN	0.000000	0.001661	0.001695	28.0817	0.059809	0.002008	29.7866	177.624	0.634765	-0.049229	0.911386	-0.186572	-0.187907	-0.096411	29.7866	-0.184144	-71.7302	0.001344	NaN
168	1.000000	0.922730	7.36668e+06	-47039.1	955.818	-29767.7	0.000000	0.000000	6.923035	0.032022	NaN	0.000000	0.001660	0.001680	28.1149	0.111882	0.002058	54.3743	-91.2357	175.116	-0.046649	0.921408	-0.176563	-0.177885	0.032022	54.3743	-0.177004	-54.244	-0.000590	NaN
168	1.000000	0.932762	7.36668e+06	-47039.1	955.817	-29767.7	0.000000	0.000000	6.933064	-0.043257	NaN	0.000000	0.001687	0.001664	28.1241	0.049128	0.002084	23.5715	-63.7525	-6.513102	-0.064178	0.931375	-0.166531	-0.167918	-0.043257	23.5715	-0.165155	-33.808	0.001279	NaN
168	1.000000	0.942766	7.36669e+06	-47039.1	955.818	-29767.7	0.000000	0.000000	6.943068	-0.039567	NaN	0.000000	0.001682	0.001664	28.0824	0.064327	0.001987	32.3718	24.2121	171.404	-0.007167	0.941470	-0.156527	-0.157823	-0.039567	32.3718	-0.155610	-22.8852	0.001729	NaN
168	1.000000	0.952789	7.36669e+06	-47039.1	955.818	-29767.7	0.000000	0.000000	6.953092	-0.007504	NaN	0.000000	0.001637	0.001681	28.0793	0.023219	0.002027	11.4565	141.654	-2.928403	0.025192	0.951400	-0.146504	-0.147892	-0.007504	11.4565	-0.146012	-15.3062	0.000490	NaN
168	1.000000	0.962792	7.36669e+06	-47039.1	955.818	-29767.7	0.000000	0.000000	6.963092	-0.086804	NaN	0.000000	0.001692	0.001704	28.1139	0.049951	0.001912	26.1204	-138.756	177.821	-0.071549	0.961454	-0.136501	-0.137839	-0.086804	26.1204	-0.134009	-9.106064	0.009533	NaN
168	1.000000	0.972774	7.36669e+06	-47039.1	955.819	-29767.7	0.000000	0.000000	6.973071	-0.170324	NaN	0.000000	0.001668	0.001716	28.125	0.035319	0.001970	17.9279	136.723	-6.072049	-0.112683	0.971378	-0.126519	-0.127914	-0.170324	17.9279	-0.119393	-4.696993	0.036262	NaN
168	1.000000	0.982772	7.36669e+06	-47039.1	955.819	-29767.7	0.000000	0.000000	6.983071	-0.094835	NaN	0.000000	0.001696	0.001664	28.0851	0.059523	0.001879	31.6819	-57.3898	176.868	-0.113926	0.981459	-0.116521	-0.117834	-0.094835	31.6819	-0.114276	-3.691133	0.025693	NaN
168	1.000000	0.992758	7.36669e+06	-47039.1	955.819	-29767.7	0.000000	0.000000	6.993059	-0.042471	NaN	0.000000	0.001654	0.001702	28.0812	0.112670	0.002062	54.6497	-141.583	-6.993524	-0.011027	0.991399	-0.106535	-0.107894	-0.042471	54.6497	-0.105952	-2.464307	0.017234	NaN
168	1.000000	1.002775	7.36669e+06	-47039.1	955.819	-29767.7	0.000000	0.000000	7.003076	-0.067613	NaN	0.000000	0.001668	0.001662	28.1148	0.068520	0.001992	34.391	70.9638	174.194	-0.058127	1.001490	-0.096518	-0.097803	-0.067613	34.391	-0.095043	-1.413836	0.047822	NaN
168	1.000000	1.012778	7.36669e+06	-47039.1	955.82	-29767.7	0.000000	0.000000	7.013079	-0.057279	NaN	0.000000	0.001664	0.001701	28.1256	0.074297	0.001928	38.5441	-173.194	-5.843455	-0.083556	1.011491	-0.086514	-0.087802	-0.057279	38.5441	-0.085400	-0.840129	0.068178	NaN
168	1.000000	1.022791	7.36669e+06	-47039.1	955.818	-29767.7	0.000000	0.000000	7.023090	-0.116127	NaN	0.000000	0.001589	0.001652	28.0843	0.125981	0.002144	58.7635	-96.9057	172.319	-0.200804	1.021450	-0.076502	-0.077843	-0.116127	58.7635	-0.075019	-0.462407	0.251135	NaN
168	1.000000	1.032807	7.36669e+06	-47039.1	955.819	-29767.7	0.000000	0.000000	7.033109	-0.032567	NaN	0.000000	0.001599	0.001653	28.082	0.088733	0.001871	47.4215	49.0131	-2.613111	-0.036583	1.031464	-0.066486	-0.067829	-0.032567	47.4215	-0.065971	-0.265104	0.122847	NaN
168	1.000000	1.042794	7.36669e+06	-47039.1	955.82	-29767.7	0.000000	0.000000	7.043092	-0.135351	NaN	0.000000	0.001557	0.001711	28.1144	0.030713	0.002238	13.7246	3.372422	176.408	-0.062511	1.041414	-0.056498	-0.057878	-0.135351	13.7246	-0.049102	-0.085711	1.579165	NaN
168	1.000000	1.052788	7.36669e+06	-47039.1	955.819	-29767.7	0.000000	0.000000	7.053088	-0.086096	NaN	0.000000	0.001572	0.001665	28.1265	0.099686	0.002068	48.2052	-40.2335	-4.737929	-0.070999	1.051384	-0.046505	-0.047909	-0.086096	48.2052	-0.045166	-0.065022	1.324107	NaN
168	1.000000	1.062840	7.36669e+06	-47039.1	955.819	-29767.7	0.000000	0.000000	7.063142	-0.049489	NaN	0.000000	0.001531	0.001672	28.086	0.064183	0.001918	33.4587	168.725	173.943	-0.145084	1.061489	-0.036452	-0.037804	-0.049489	33.4587	-0.035343	-0.032779	1.509772	NaN
168	1.000000	1.072827	7.36669e+06	-47039.1	955.82	-29767.7	0.000000	0.000000	7.073130	-0.019913	NaN	0.000000	0.001557	0.001716	28.0816	0.152825	0.002114	72.3066	12.197	-4.929368	-0.015656	1.071465	-0.026466	-0.027827	-0.019913	72.3066	-0.026259	-0.018208	1.093638	NaN
168	1.000000	1.082806	7.36669e+06	-47039.1	955.819	-29767.7	0.000000	0.000000	7.083106	-0.085527	NaN	0.000000	0.001638	0.001665	28.1158	0.103326	0.001894	54.5521	84.176	173.315	-0.138381	1.081487	-0.016486	-0.017806	-0.085527	54.5521	-0.015311	-0.009462	9.038682	NaN
168	1.000000	1.092801	7.36669e+06	-47039.1	955.819	-29767.7	0.000000	0.000000	7.093098	-0.156439	NaN	0.000000	0.001667	0.001700	28.1253	0.139643	0.001999	69.8675	-150.628	-2.112640	-0.197550	1.091415	-0.006492	-0.007878	-0.156439	69.8675	-0.004812	-0.003299	47.4271	NaN
168	1.000000	1.102787	7.36669e+06	-47039.1	955.819	-29767.7	0.000000	0.000000	7.103179	2.165623	NaN	0.000000	0.001634	0.001698	28.086	3.206230	0.001791	1790.45	10.9504	171.791	0.961374	1.101500	0.003494	0.002207	2.165623	1790.45	0.002587	0.002035	1064.27	36263.5
168	2.000000	1.109871	7.36669e+06	-47039.1	955.82	-29767.7	0.000000	0.000000	7.110684	12.4076	NaN	0.000000	0.001590	0.001684	28.0809	10.9246	0.001668	6548.07	6.227110	-11.5213	11.371	1.109502	0.010578	0.010209	12.4076	6548.07	0.009157	0.008260	1502.22	65827.8
168	2.000000	1.112346	7.36669e+06	-47039.1	955.82	-29767.7	0.000000	0.000000	7.113237	14.2775	NaN	0.000000	0.001612	0.001667	28.1139	13.3877	0.001611	8310.9	1.173801	171.051	14.1881	1.112048	0.013054	0.012755	14.2775	8310.9	0.011765	0.011210	1273.62	71715.9
168	2.000000	1.114877	7.36669e+06	-47039.1	955.82	-29767.7	0.000000	0.000000	7.116082	21.9374	NaN	0.000000	0.001621	0.001661	28.1266	16.327	0.001602	10190.9	4.628142	-12.8857	21.2437	1.114476	0.015584	0.015183	21.9374	10190.9	0.013970	0.013936	1574.17	78871.5
168	2.000000	1.117302	7.36669e+06	-47039.1	955.82	-29767.7	0.000000	0.000000	7.118602	24.2392	NaN	0.000000	0.001592	0.001639	28.0858	18.6716	0.001634	11429.8	5.981355	164.295	24.2683	1.116958	0.018009	0.017665	24.2392	11429.8	0.016418	0.017224	1407.33	79570.6
168	2.000000	1.119784	7.36669e+06	-47039.1	955.819	-29767.7	0.000000	0.000000	7.121286	29.152	NaN	0.000000	0.001582	0.001655	28.0809	21.5036	0.001755	12253.9	4.403714	-15.1765	27.6097	1.119495	0.020492	0.020202	29.152	12253.9	0.018707	0.020552	1418.46	78094.8
168	2.000000	1.122339	7.36669e+06	-47039.1	955.819	-29767.7	0.000000	0.000000	7.124071	34.7655	NaN	0.000000	0.001604	0.001663	28.1137	24.1559	0.001808	13363.6	3.509444	166.197	35.2398	1.121947	0.023046	0.022654	34.7655	13363.6	0.021095	0.024292	1431.16	78337.2
168	2.000000	1.124766	7.36669e+06	-47039.1	955.82	-29767.7	0.000000	0.000000	7.126763	41.1926	NaN	0.000000	0.001591	0.001658	28.1248	26.0749	0.001779	14653.5	6.455981	-16.4603	39.671	1.124403	0.025473	0.025110	41.1926	14653.5	0.023365	0.028108	1465.51	79854.3
168	2.000000	1.127268	7.36669e+06	-47039.1	955.819	-29767.7	0.000000	0.000000	7.129507	47.0756	NaN	0.000000	0.001575	0.001664	28.0839	29.2792	0.001686	17367.1	9.518360	157.359	46.4386	1.126894	0.027976	0.027601	47.0756	17367.1	0.025943	0.032753	1437.3	87675
168	2.000000	1.129706	7.36669e+06	-47039.1	955.82	-29767.7	0.000000	0.000000	7.132316	56.0911	NaN	0.000000	0.001603	0.001708	28.0785	32.9999	0.001826	18076.4	11.1234	-24.9763	52.8017	1.129336	0.030414	0.030044	56.0911	18076.4	0.028086	0.036871	1521.29	86009.1
168	2.000000	1.132200	7.36669e+06	-47039.1	955.82	-29767.7	0.000000	0.000000	7.135137	64.0709	NaN	0.000000	0.001593	0.001686	28.1121	34.4933	0.001794	19227.6	3.319984	162.26	61.7544	1.131965	0.032907	0.032672	64.0709	19227.6	0.030408	0.041593	1540.43	86137
168	2.000000	1.134713	7.36669e+06	-47039.1	955.819	-29767.7	0.000000	0.000000	7.138000	72.5644	NaN	0.000000	0.001594	0.001670	28.1262	37.1114	0.001873	19811.7	4.667731	-19.2734	68.4619	1.134331	0.035420	0.035039	72.5644	19811.7	0.032673	0.046466	1561.65	83970.3
168	2.000000	1.137232	7.36669e+06	-47039.1	955.82	-29767.7	0.000000	0.000000	7.140869	81.0844	NaN	0.000000	0.001629	0.001678	28.0854	38.9192	0.001865	20864.7	6.378052	158.598	78.9071	1.136902	0.037940	0.037610	81.0844	20864.7	0.035025	0.051804	1565.21	83753.4
168	2.000000	1.139733	7.36669e+06	-47039.1	955.819	-29767.7	0.000000	0.000000	7.143674	88.4673	NaN	0.000000	0.001587	0.001668	28.0812	41.0138	0.001826	22455.7	4.898360	-21.2047	87.4098	1.139486	0.040441	0.040193	88.4673	22455.7	0.037486	0.057693	1533.42	85416.1
168	2.000000	1.142291	7.36669e+06	-47039.1	955.82	-29767.7	0.000000	0.000000	7.146598	97.3907	NaN	0.000000	0.001609	0.001685	28.1135	44.5041	0.001815	24520.3	5.768310	157.818	99.4069	1.141932	0.042998	0.042639	97.3907	24520.3	0.040019	0.064079	1519.86	88499.8
168	2.000000	1.144741	7.36669e+06	-47039.1	955.82	-29767.7	0.000000	0.000000	7.149513	108.678	NaN	0.000000	0.001598	0.001682	28.125	45.7873	0.001715	26697.4	7.128371	-24.6357	107.486	1.144452	0.045449	0.045159	108.678	26697.4	0.042396	0.070366	1544.48	91952.2
168	2.000000	1.147219	7.36669e+06	-47039.1	955.82	-29767.7	0.000000	0.000000	7.152583	123.099	NaN	0.000000	0.001610	0.001693	28.0846	47.7059	0.001755	27186.7	5.088565	157.142	122.938	1.146893	0.047926	0.047601	123.099	27186.7	0.044530	0.076259	1614.23	89946.6
168	2.000000	1.149760	7.36669e+06	-47039.1	955.821	-29767.7	0.000000	0.000000	7.155472	131.556	NaN	0.000000	0.001635	0.001697	28.0791	51.1718	0.001799	28449.2	5.690483	-23.1991	132.443	1.149297	0.050468	0.050004	131.556	28449.2	0.047000	0.083365	1578.07	90022.6
168	2.000000	1.152230	7.36669e+06	-47039.1	955.819	-29767.7	0.000000	0.000000	7.158323	140.824	NaN	0.000000	0.001623	0.001726	28.112	52.5143	0.001717	30592.3	-0.810986	162.132	140.495	1.151914	0.052937	0.052621	140.824	30592.3	0.049484	0.090826	1550.48	92742.6
168	2.000000	1.154682	7.36669e+06	-47039.1	955.82	-29767.7	0.000000	0.000000	7.161436	156.898	NaN	0.000000	0.001629	0.001675	28.1274	55.2074	0.001820	30335	5.304983	-24.1031	153.264	1.154343	0.055390	0.055051	156.898	30335	0.051511	0.097139	1615.19	88924.1
168	2.000000	1.157195	7.36669e+06	-47039.1	955.82	-29767.7	0.000000	0.000000	7.164663	174.265	NaN	0.000000	0.001605	0.001772	28.0863	56.5492	0.001685	33551.6	2.894407	157.863	171.796	1.156883	0.057902	0.057590	174.265	33551.6	0.054007	0.105199	1656.52	94510.5
168	2.000000	1.159688	7.36669e+06	-47039.1	955.821	-29767.7	0.000000	0.000000	7.167317	178.186	NaN	0.000000	0.001602	0.001741	28.0832	59.4974	0.001806	32952.1	1.962198	-21.4004	174.148	1.159337	0.060395	0.060044	178.186	32952.1	0.056340	0.113011	1576.72	89556.4
168	2.000000	1.162191	7.36669e+06	-47039.1	955.821	-29767.7	0.000000	0.000000	7.170234	188.264	NaN	0.000000	0.001587	0.001734	28.1141	63.2134	0.001813	34861	3.854151	156.861	186.634	1.161951	0.062898	0.062658	188.264	34861	0.058848	0.121709	1546.85	91296.1
168	2.000000	1.164685	7.36669e+06	-47039.1	955.821	-29767.7	0.000000	0.000000	7.173367	203.799	NaN	0.000000	0.001610	0.001723	28.1267	64.5267	0.001790	36052.5	3.563874	-23.0665	199.787	1.164381	0.065393	0.065089	203.799	36052.5	0.061153	0.129975	1567.98	91364.7
168	2.000000	1.167164	7.36669e+06	-47039.1	955.821	-29767.7	0.000000	0.000000	7.176473	219.031	NaN	0.000000	0.001589	0.001707	28.0859	66.4679	0.001769	37567.2	1.781855	157.804	216.468	1.166885	0.067872	0.067592	219.031	37567.2	0.063499	0.138653	1579.71	92176.1
168	2.000000	1.169677	7.36669e+06	-47039.1	955.82	-29767.7	0.000000	0.000000	7.179557	232.92	NaN	0.000000	0.001618	0.001724	28.082	69.4121	0.001786	38862.8	2.473265	-23.0183	229.53	1.169351	0.070385	0.070058	232.92	38862.8	0.065890	0.147770	1576.23	92366.3
168	2.000000	1.172156	7.36669e+06	-47039.1	955.821	-29767.7	0.000000	0.000000	7.182512	244.519	NaN	0.000000	0.001557	0.001678	28.1122	72.8017	0.001969	36982.2	5.768930	154.348	241.841	1.172001	0.072864	0.072708	244.519	36982.2	0.067905	0.155669	1570.76	85637.6
168	2.000000	1.174686	7.36669e+06	-47039.1	955.821	-29767.7	0.000000	0.000000	7.185788	262.653	NaN	0.000000	0.001589	0.001689	28.1276	73.982	0.001854	39895.5	6.489643	-26.8309	257.845	1.174265	0.075393	0.074972	262.653	39895.5	0.070456	0.165946	1582.76	89477.4
168	2.000000	1.177073	7.36669e+06	-47039.1	955.821	-29767.7	0.000000	0.000000	7.188944	281.351	NaN	0.000000	0.001603	0.001743	28.0873	75.353	0.001726	43670	3.508083	155.869	275.26	1.176857	0.077781	0.077565	281.351	43670	0.072949	0.176289	1595.97	95026.4
168	2.000000	1.179652	7.36669e+06	-47039.1	955.821	-29767.7	0.000000	0.000000	7.192179	297.323	NaN	0.000000	0.001597	0.001758	28.0816	78.8953	0.001862	42374	6.792551	-27.0901	294.067	1.179313	0.080360	0.080020	297.323	42374	0.075097	0.185438	1603.35	89902.7
168	2.000000	1.182095	7.36669e+06	-47039.1	955.821	-29767.7	0.000000	0.000000	7.195443	317.301	NaN	0.000000	0.001627	0.001725	28.1142	80.2603	0.001772	45296	1.660902	157.486	311.711	1.181847	0.082802	0.082555	317.301	45296	0.077549	0.196143	1617.71	93443
168	2.000000	1.184758	7.36669e+06	-47039.1	955.82	-29767.7	0.000000	0.000000	7.198456	325.814	NaN	0.000000	0.001617	0.001722	28.1264	82.0615	0.001767	46437.9	0.722004	-21.9488	326.565	1.184515	0.085465	0.085222	325.814	46437.9	0.080203	0.208050	1566.04	93016.8
168	2.000000	1.187147	7.36669e+06	-47039.1	955.82	-29767.7	0.000000	0.000000	7.201783	348.619	NaN	0.000000	0.001591	0.001760	28.0851	84.5828	0.001743	48535.4	4.135835	153.919	347.038	1.186876	0.087855	0.087583	348.619	48535.4	0.082468	0.218469	1595.74	94871.8
168	2.000000	1.189777	7.36669e+06	-47039.1	955.822	-29767.7	0.000000	0.000000	7.205124	365.903	NaN	0.000000	0.001586	0.001745	28.0789	87.6422	0.001815	48281.9	5.878715	-26.8209	369.67	1.189202	0.090485	0.089910	365.903	48281.9	0.084801	0.229452	1594.68	92089.7
168	2.000000	1.192143	7.36669e+06	-47039.1	955.821	-29767.7	0.000000	0.000000	7.208025	378.923	NaN	0.000000	0.001599	0.001757	28.1112	89.839	0.001791	50149.6	2.592688	155.443	374.535	1.191905	0.092850	0.092613	378.923	50149.6	0.087184	0.240928	1572.76	93346.3
168	2.000000	1.194647	7.36669e+06	-47039.1	955.821	-29767.7	0.000000	0.000000	7.211417	400.541	NaN	0.000000	0.001616	0.001733	28.1266	90.8602	0.001790	50762.9	1.164346	-23.4251	395.324	1.194335	0.095354	0.095043	400.541	50762.9	0.089436	0.252017	1589.34	92385.6
168	2.000000	1.197120	7.36669e+06	-47039.1	955.821	-29767.7	0.000000	0.000000	7.214741	421.218	NaN	0.000000	0.001590	0.001776	28.086	93.6504	0.001839	50919.2	2.427748	155.559	418.055	1.196793	0.097827	0.097500	421.218	50919.2	0.091623	0.263006	1601.55	90713.5
168	2.000000	1.199681	7.36669e+06	-47039.1	955.821	-29767.7	0.000000	0.000000	7.217932	436.555	NaN	0.000000	0.001637	0.001795	28.0801	97.7708	0.001837	53216.8	7.060129	-29.6844	434.419	1.199378	0.100388	0.100085	436.555	53216.8	0.094236	0.276420	1579.32	92477.8
168	2.000000	1.202124	7.36669e+06	-47039.1	955.822	-29767.7	0.000000	0.000000	7.221505	464.034	NaN	0.000000	0.001598	0.001749	28.1121	99.6952	0.001809	55106.7	4.457642	153.03	462.359	1.201809	0.102831	0.102517	464.034	55106.7	0.096516	0.288382	1609.09	93754.8
168	2.000000	1.204649	7.36669e+06	-47039.1	955.821	-29767.7	0.000000	0.000000	7.224701	480.355	NaN	0.000000	0.001594	0.001737	28.1257	101.969	0.001822	55973.7	5.713172	-28.5163	477.881	1.204335	0.105357	0.105042	480.355	55973.7	0.098920	0.301254	1594.52	93173.2
168	2.000000	1.207272	7.36669e+06	-47039.1	955.821	-29767.7	0.000000	0.000000	7.228113	499.548	NaN	0.000000	0.001632	0.001705	28.0857	102.767	0.001767	58161.9	1.520786	155.759	503.412	1.206882	0.107980	0.107589	499.548	58161.9	0.101538	0.315565	1583.03	94594.8