File: remote_trans/data/nanoindenter/0828-1/data/Data_2025-08-06,11h17m57s/2025-07-22_16-23-58_1_201.txt
2025-07-22, 16:23:58, 1
Index	Phase	Displacement	Time	Pos X	Pos Y	Pos Z	Rot A	Rot B	Piezo Z	Force A	Force B	Gripper	Voltage A	Voltage B	Temperature	Amplitude force	Amplitude pos	Stiffness	Phase shift	Phase excitation	Force A raw	Displacement raw	HMax	HMax raw	Real Force	Real Stiffness	Contact Depth	Area	Hardness	Reduced Mod.
[#]	[#]	[um]	[s]	[um]	[um]	[um]	[m°]	[m°]	[um]	[uN]	[uN]	[V]	[V]	[V]	[°C]	[uN]	[um]	[N/m]	[°]	[°]	[uN]	[um]	[um]	[um]	[uN]	[N/m]	[um]	[um^2]	[MPa]	[MPa]
201	1.000000	0.002682	7.36701e+06	-48689.1	955.819	-29761.7	0.000000	0.000000	6.002797	0.029718	NaN	0.000000	0.001592	0.001682	28.0801	0.067418	0.000855	78.8482	-36.5605	-167.093	0.020117	0.001445	-1.203190	-1.204427	0.029718	78.8482	-1.203473	-1.222513E+16	-2.430904E-18	NaN
201	1.000000	0.012738	7.36701e+06	-48689.1	955.818	-29761.7	0.000000	0.000000	6.012852	0.009217	NaN	0.000000	0.001621	0.001696	28.0798	0.015987	0.001351	11.8339	-116.316	14.3936	0.024459	0.011329	-1.193134	-1.194543	0.009217	11.8339	-1.193718	-9.049395E+15	-1.018482E-18	NaN
201	1.000000	0.022623	7.36701e+06	-48689.1	955.819	-29761.7	0.000000	0.000000	6.022735	-0.060208	NaN	0.000000	0.001597	0.001735	28.0798	0.079623	0.001640	48.5636	-113.251	-168.657	-0.036346	0.021306	-1.183249	-1.184566	-0.060208	48.5636	-1.182319	-6.367044E+15	9.456148E-18	NaN
201	1.000000	0.032658	7.36701e+06	-48689.1	955.818	-29761.7	0.000000	0.000000	6.032769	-0.052561	NaN	0.000000	0.001587	0.001734	28.0801	0.069639	0.002184	31.89	114.508	13.6835	-0.026727	0.031288	-1.173214	-1.174583	-0.052561	31.89	-1.171978	-4.628009E+15	1.135721E-17	NaN
201	1.000000	0.042646	7.36701e+06	-48689.1	955.818	-29761.7	0.000000	0.000000	6.042756	-0.074046	NaN	0.000000	0.001569	0.001721	28.0799	0.087463	0.001990	43.9552	-71.1591	-166.214	-0.040033	0.041310	-1.163226	-1.164562	-0.074046	43.9552	-1.161963	-3.397643E+15	2.179335E-17	NaN
201	1.000000	0.052645	7.36701e+06	-48689.1	955.818	-29761.7	0.000000	0.000000	6.052762	0.065639	NaN	0.000000	0.001580	0.001679	28.0797	0.080744	0.001854	43.5613	84.8227	17.0478	0.028168	0.051298	-1.153227	-1.154574	0.065639	43.5613	-1.154357	-2.686740E+15	-2.443056E-17	NaN
201	1.000000	0.062641	7.36701e+06	-48689.1	955.819	-29761.7	0.000000	0.000000	6.062755	-0.001985	NaN	0.000000	0.001574	0.001672	28.0793	0.095910	0.001872	51.2445	-176.854	-164.058	0.001051	0.061311	-1.143231	-1.144561	-0.001985	51.2445	-1.143202	-1.904015E+15	1.042448E-18	NaN
201	1.000000	0.072660	7.36701e+06	-48689.1	955.818	-29761.7	0.000000	0.000000	6.072773	-0.026128	NaN	0.000000	0.001602	0.001663	28.0797	0.042933	0.002099	20.4551	-135.679	10.349	-0.101082	0.071220	-1.133212	-1.134652	-0.026128	20.4551	-1.132254	-1.357861E+15	1.924239E-17	NaN
201	1.000000	0.082621	7.36701e+06	-48689.1	955.818	-29761.7	0.000000	0.000000	6.082735	-0.019195	NaN	0.000000	0.001585	0.001701	28.0781	0.056318	0.001931	29.1718	-159.361	-166.607	-0.026617	0.081306	-1.123250	-1.124566	-0.019195	29.1718	-1.122757	-1.012652E+15	1.895525E-17	NaN
201	1.000000	0.092648	7.36701e+06	-48689.1	955.818	-29761.7	0.000000	0.000000	6.092761	-0.026146	NaN	0.000000	0.001588	0.001688	28.0781	0.063442	0.002053	30.9003	86.3891	12.8108	-0.026249	0.091303	-1.113224	-1.114569	-0.026146	30.9003	-1.112590	-7.396742E+14	3.534737E-17	NaN
201	1.000000	0.102652	7.36701e+06	-48689.1	955.819	-29761.7	0.000000	0.000000	6.102766	-0.000554	NaN	0.000000	0.001603	0.001664	28.0781	0.076105	0.001987	38.2934	-150.152	-166.723	-0.036543	0.101340	-1.103220	-1.104532	-0.000554	38.2934	-1.103209	-5.535320E+14	1.001185E-18	NaN
201	1.000000	0.112649	7.36701e+06	-48689.1	955.819	-29761.7	0.000000	0.000000	6.112763	-0.002801	NaN	0.000000	0.001609	0.001691	28.0783	0.079431	0.001918	41.413	-141.919	16.6417	0.022173	0.111336	-1.093223	-1.094536	-0.002801	41.413	-1.093172	-4.058879E+14	6.900979E-18	NaN
201	1.000000	0.122653	7.36701e+06	-48689.1	955.819	-29761.7	0.000000	0.000000	6.122769	0.043918	NaN	0.000000	0.001593	0.001686	28.0784	0.120654	0.002035	59.2786	86.2523	-165.96	0.021949	0.121379	-1.083219	-1.084492	0.043918	59.2786	-1.083774	-3.035351E+14	-1.446894E-16	NaN
201	1.000000	0.132636	7.36701e+06	-48689.1	955.818	-29761.7	0.000000	0.000000	6.132749	-0.024097	NaN	0.000000	0.001608	0.001695	28.0783	0.113127	0.002114	53.5242	-135.96	13.2917	-0.046052	0.131302	-1.073236	-1.074570	-0.024097	53.5242	-1.072898	-2.168332E+14	1.111319E-16	NaN
201	1.000000	0.142688	7.36701e+06	-48689.1	955.819	-29761.7	0.000000	0.000000	6.142802	0.018195	NaN	0.000000	0.001552	0.001693	28.0787	0.035322	0.002033	17.3738	65.4036	-165.876	0.020208	0.141434	-1.063184	-1.064438	0.018195	17.3738	-1.063970	-1.644995E+14	-1.106071E-16	NaN
201	1.000000	0.152663	7.36701e+06	-48689.1	955.818	-29761.8	0.000000	0.000000	6.152777	-0.008933	NaN	0.000000	0.001568	0.001689	28.0786	0.061627	0.001907	32.3158	-41.6791	15.2914	-0.001819	0.151322	-1.053209	-1.054550	-0.008933	32.3158	-1.053002	-1.171549E+14	7.624717E-17	NaN
201	1.000000	0.162679	7.36701e+06	-48689.1	955.819	-29761.8	0.000000	0.000000	6.162792	-0.023871	NaN	0.000000	0.001537	0.001705	28.0786	0.060570	0.001964	30.8374	-114.186	-165.293	0.016970	0.161346	-1.043193	-1.044525	-0.023871	30.8374	-1.042612	-8.493614E+13	2.810507E-16	NaN
201	1.000000	0.172694	7.36701e+06	-48689.1	955.818	-29761.8	0.000000	0.000000	6.172804	-0.084645	NaN	0.000000	0.001569	0.001710	28.0784	0.073065	0.001972	37.0566	136.084	13.3555	-0.101447	0.171259	-1.033178	-1.034613	-0.084645	37.0566	-1.031465	-6.014289E+13	1.407406E-15	NaN
201	1.000000	0.182701	7.36701e+06	-48689.1	955.818	-29761.8	0.000000	0.000000	6.182815	-0.017564	NaN	0.000000	0.001590	0.001700	28.0787	0.051513	0.001909	26.991	137.23	-173.097	-0.075767	0.181403	-1.023170	-1.024469	-0.017564	26.991	-1.022682	-4.581866E+13	3.833453E-16	NaN
201	1.000000	0.192698	7.36701e+06	-48689.1	955.818	-29761.8	0.000000	0.000000	6.192812	0.000284	NaN	0.000000	0.001564	0.001688	28.0787	0.097041	0.001974	49.159	-133.148	11.6858	-0.033310	0.191350	-1.013174	-1.014521	0.000284	49.159	-1.013178	-3.413144E+13	-8.309229E-18	NaN
201	1.000000	0.202686	7.36701e+06	-48689.1	955.819	-29761.8	0.000000	0.000000	6.202802	0.037484	NaN	0.000000	0.001592	0.001713	28.0785	0.032508	0.001899	17.1161	-101.7	-165.586	0.033126	0.201398	-1.003186	-1.004474	0.037484	17.1161	-1.004828	-2.634940E+13	-1.422590E-15	NaN
201	1.000000	0.212676	7.36701e+06	-48689.1	955.818	-29761.8	0.000000	0.000000	6.212790	-0.010387	NaN	0.000000	0.001585	0.001695	28.0788	0.047750	0.001889	25.274	28.0772	15.8097	-0.064516	0.211314	-0.993196	-0.994558	-0.010387	25.274	-0.992888	-1.819698E+13	5.708017E-16	NaN
201	1.000000	0.222689	7.36701e+06	-48689.1	955.82	-29761.8	0.000000	0.000000	6.222806	0.052768	NaN	0.000000	0.001589	0.001653	28.0801	0.086422	0.002006	43.0767	163.215	-166.763	0.035864	0.221411	-0.983182	-0.984461	0.052768	43.0767	-0.984101	-1.385669E+13	-3.808158E-15	NaN
201	1.000000	0.232698	7.36701e+06	-48689.1	955.819	-29761.8	0.000000	0.000000	6.232813	0.018787	NaN	0.000000	0.001599	0.001709	28.0796	0.028507	0.002116	13.4705	40.6823	12.7748	0.007674	0.231324	-0.973174	-0.974548	0.018787	13.4705	-0.974220	-1.019826E+13	-1.842216E-15	NaN
201	1.000000	0.242685	7.36701e+06	-48689.1	955.819	-29761.8	0.000000	0.000000	6.242799	0.004062	NaN	0.000000	0.001589	0.001681	28.08	0.011224	0.001902	5.900779	-8.598816	-170.906	0.012332	0.241385	-0.963187	-0.964487	0.004062	5.900779	-0.963704	-7.358638E+12	-5.519388E-16	NaN
201	1.000000	0.252726	7.36701e+06	-48689.1	955.819	-29761.8	0.000000	0.000000	6.252840	-0.002445	NaN	0.000000	0.001594	0.001687	28.0799	0.021762	0.002010	10.8282	46.8414	17.8362	-0.028415	0.251355	-0.953146	-0.954517	-0.002445	10.8282	-0.952977	-5.274388E+12	4.635003E-16	NaN
201	1.000000	0.262737	7.36701e+06	-48689.1	955.819	-29761.8	0.000000	0.000000	6.262853	0.044389	NaN	0.000000	0.001615	0.001697	28.0801	0.088623	0.001925	46.0329	-78.5711	-166.538	0.069328	0.261367	-0.943135	-0.944505	0.044389	46.0329	-0.943858	-3.973605E+12	-1.117085E-14	NaN
201	1.000000	0.272743	7.36701e+06	-48689.1	955.819	-29761.8	0.000000	0.000000	6.272857	0.002057	NaN	0.000000	0.001615	0.001716	28.0797	0.113380	0.001916	59.1812	-54.4162	10.1368	0.052803	0.271373	-0.933129	-0.934499	0.002057	59.1812	-0.933155	-2.849545E+12	-7.217345E-16	NaN
201	1.000000	0.282715	7.36701e+06	-48689.1	955.819	-29761.8	0.000000	0.000000	6.282832	0.069958	NaN	0.000000	0.001615	0.001694	28.0798	0.074354	0.002001	37.1544	-19.8775	-166.093	0.013852	0.281406	-0.923157	-0.924466	0.069958	37.1544	-0.924569	-2.182159E+12	-3.205907E-14	NaN
201	1.000000	0.292755	7.36701e+06	-48689.1	955.819	-29761.8	0.000000	0.000000	6.292866	-0.066293	NaN	0.000000	0.001613	0.001699	28.0798	0.051843	0.001968	26.3469	-87.1091	16.6231	-0.055128	0.291400	-0.913117	-0.914472	-0.066293	26.3469	-0.911230	-1.441384E+12	4.599240E-14	NaN
201	1.000000	0.302730	7.36701e+06	-48689.1	955.819	-29761.8	0.000000	0.000000	6.302844	0.005907	NaN	0.000000	0.001603	0.001680	28.0802	0.091545	0.001888	48.4767	-124.822	-169.157	-0.033647	0.301398	-0.903142	-0.904474	0.005907	48.4767	-0.903234	-1.123973E+12	-5.255506E-15	NaN
201	1.000000	0.312716	7.36701e+06	-48689.1	955.819	-29761.8	0.000000	0.000000	6.312829	-0.027915	NaN	0.000000	0.001583	0.001671	28.0798	0.057931	0.002164	26.7649	87.8787	11.1416	0.008446	0.311356	-0.893156	-0.894516	-0.027915	26.7649	-0.892373	-8.016745E+11	3.482083E-14	NaN
201	1.000000	0.322747	7.36701e+06	-48689.1	955.819	-29761.8	0.000000	0.000000	6.322860	-0.024568	NaN	0.000000	0.001628	0.001705	28.0802	0.147695	0.001925	76.7123	-48.1557	-165.009	-0.011001	0.321421	-0.883125	-0.884451	-0.024568	76.7123	-0.882885	-5.966456E+11	4.117649E-14	NaN
201	1.000000	0.332741	7.36701e+06	-48689.1	955.819	-29761.8	0.000000	0.000000	6.332853	-0.053535	NaN	0.000000	0.001621	0.001674	28.0802	0.080354	0.001927	41.7092	-49.2085	12.5273	-0.073937	0.331396	-0.873131	-0.874476	-0.053535	41.7092	-0.872168	-4.273417E+11	1.252751E-13	NaN
201	1.000000	0.342769	7.36701e+06	-48689.1	955.818	-29761.8	0.000000	0.000000	6.342884	0.020403	NaN	0.000000	0.001655	0.001717	28.0798	0.058545	0.002040	28.6985	-143.49	-163.88	0.026245	0.341436	-0.863103	-0.864436	0.020403	28.6985	-0.863636	-3.275880E+11	-6.228205E-14	NaN
201	1.000000	0.352742	7.36701e+06	-48689.1	955.82	-29761.8	0.000000	0.000000	6.352857	0.010053	NaN	0.000000	0.001614	0.001699	28.0787	0.119962	0.001986	60.4124	156.224	16.174	-0.008186	0.351388	-0.853130	-0.854484	0.010053	60.4124	-0.853255	-2.370311E+11	-4.241226E-14	NaN
201	1.000000	0.362755	7.36701e+06	-48689.1	955.818	-29761.8	0.000000	0.000000	6.362868	-0.007999	NaN	0.000000	0.001619	0.001703	28.0784	0.064765	0.002074	31.2292	-69.2288	-167.706	0.006577	0.361452	-0.843117	-0.844420	-0.007999	31.2292	-0.842925	-1.717581E+11	4.657328E-14	NaN
201	1.000000	0.372761	7.36701e+06	-48689.1	955.818	-29761.8	0.000000	0.000000	6.372875	-0.006385	NaN	0.000000	0.001624	0.001676	28.0789	0.101478	0.002034	49.8794	158.733	11.5265	0.042220	0.371424	-0.833111	-0.834448	-0.006385	49.8794	-0.833015	-1.260801E+11	5.064194E-14	NaN
201	1.000000	0.382770	7.36701e+06	-48689.1	955.819	-29761.8	0.000000	0.000000	6.382881	-0.081899	NaN	0.000000	0.001586	0.001675	28.0785	0.128054	0.002010	63.7181	107.718	-165.413	-0.024983	0.381416	-0.823101	-0.824456	-0.081899	63.7181	-0.822137	-8.978313E+10	9.121823E-13	NaN
201	1.000000	0.392750	7.36701e+06	-48689.1	955.819	-29761.8	0.000000	0.000000	6.392864	-0.000369	NaN	0.000000	0.001584	0.001683	28.0786	0.020619	0.001860	11.0847	153.312	14.1721	0.088704	0.391394	-0.813122	-0.814478	-0.000369	11.0847	-0.813097	-6.770041E+10	5.450407E-15	NaN
201	1.000000	0.402821	7.36701e+06	-48689.1	955.819	-29761.8	0.000000	0.000000	6.402934	-0.011096	NaN	0.000000	0.001568	0.001691	28.0783	0.101916	0.002038	50.0176	-3.366601	-164.695	0.029666	0.401487	-0.803051	-0.804385	-0.011096	50.0176	-0.802885	-4.920623E+10	2.254941E-13	NaN
201	1.000000	0.412798	7.36701e+06	-48689.1	955.819	-29761.8	0.000000	0.000000	6.412915	0.075673	NaN	0.000000	0.001604	0.001691	28.0786	0.067165	0.002069	32.4634	-157.786	16.1521	0.141865	0.411379	-0.793074	-0.794493	0.075673	32.4634	-0.794823	-3.824479E+10	-1.978654E-12	NaN
201	1.000000	0.422772	7.36701e+06	-48689.1	955.82	-29761.8	0.000000	0.000000	6.422886	0.002009	NaN	0.000000	0.001593	0.001706	28.0782	0.062723	0.002108	29.7562	-107.657	-167.982	-0.024691	0.421513	-0.783100	-0.784359	0.002009	29.7562	-0.783151	-2.654875E+10	-7.566253E-14	NaN
201	1.000000	0.432772	7.36701e+06	-48689.1	955.819	-29761.8	0.000000	0.000000	6.432885	-0.018995	NaN	0.000000	0.001605	0.001699	28.0784	0.080705	0.002031	39.7319	-157.594	16.4908	-0.006927	0.431434	-0.773100	-0.774438	-0.018995	39.7319	-0.772741	-1.916777E+10	9.909989E-13	NaN
201	1.000000	0.442787	7.36701e+06	-48689.1	955.818	-29761.8	0.000000	0.000000	6.442898	-0.075929	NaN	0.000000	0.001615	0.001663	28.0783	0.113774	0.001949	58.3809	90.8326	-166.451	-0.037113	0.441500	-0.763085	-0.764372	-0.075929	58.3809	-0.762109	-1.374036E+10	5.525973E-12	NaN
201	1.000000	0.452783	7.36701e+06	-48689.1	955.818	-29761.8	0.000000	0.000000	6.452896	-0.029588	NaN	0.000000	0.001608	0.001662	28.0785	0.068353	0.001957	34.9278	-146.435	15.1604	-0.035242	0.451471	-0.753088	-0.754401	-0.029588	34.9278	-0.752453	-1.015336E+10	2.914092E-12	NaN
201	1.000000	0.462789	7.36701e+06	-48689.1	955.818	-29761.8	0.000000	0.000000	6.462903	0.015039	NaN	0.000000	0.001519	0.001675	28.0782	0.026150	0.001985	13.1754	80.7548	-169.005	-0.040895	0.461511	-0.743083	-0.744360	0.015039	13.1754	-0.743939	-7.775114E+9	-1.934285E-12	NaN
201	1.000000	0.472792	7.36701e+06	-48689.1	955.819	-29761.8	0.000000	0.000000	6.472905	-0.035718	NaN	0.000000	0.001599	0.001642	28.0783	0.126697	0.002184	58.0027	-160.843	13.5114	0.036231	0.471503	-0.733080	-0.734369	-0.035718	58.0027	-0.732618	-5.451072E+9	6.552451E-12	NaN
201	1.000000	0.482791	7.36701e+06	-48689.1	955.818	-29761.8	0.000000	0.000000	6.482903	-0.044368	NaN	0.000000	0.001604	0.001706	28.0782	0.060639	0.001940	31.2576	43.8236	-167.264	0.013342	0.481498	-0.723081	-0.724374	-0.044368	31.2576	-0.722017	-3.908184E+9	1.135250E-11	NaN
201	1.000000	0.492839	7.36701e+06	-48689.1	955.819	-29761.8	0.000000	0.000000	6.492949	-0.084452	NaN	0.000000	0.001614	0.001699	28.0795	0.069888	0.002013	34.7145	-72.7404	12.7331	-0.066049	0.491465	-0.713033	-0.714407	-0.084452	34.7145	-0.711208	-2.783170E+9	3.034399E-11	NaN
201	1.000000	0.502823	7.36701e+06	-48689.1	955.819	-29761.8	0.000000	0.000000	6.502935	-0.039339	NaN	0.000000	0.001562	0.001676	28.0792	0.047311	0.001954	24.2097	-117.38	-164.231	-0.050885	0.501493	-0.703049	-0.704379	-0.039339	24.2097	-0.701830	-2.072638E+9	1.898018E-11	NaN
201	1.000000	0.512840	7.36701e+06	-48689.1	955.818	-29761.8	0.000000	0.000000	6.512951	-0.058291	NaN	0.000000	0.001568	0.001726	28.0795	0.098829	0.001948	50.7417	-34.6509	12.7579	-0.041075	0.511468	-0.693032	-0.694404	-0.058291	50.7417	-0.692170	-1.529596E+9	3.810887E-11	NaN
201	1.000000	0.522795	7.36701e+06	-48689.1	955.819	-29761.8	0.000000	0.000000	6.522910	0.046687	NaN	0.000000	0.001590	0.001680	28.0797	0.106051	0.002030	52.2355	-104.461	-168.365	0.067654	0.521543	-0.683077	-0.684329	0.046687	52.2355	-0.683748	-1.173417E+9	-3.978692E-11	NaN
201	1.000000	0.532816	7.36701e+06	-48689.1	955.818	-29761.8	0.000000	0.000000	6.532932	0.039026	NaN	0.000000	0.001612	0.001679	28.0795	0.041336	0.001977	20.9067	87.6333	14.6249	-0.043365	0.531486	-0.673056	-0.674386	0.039026	20.9067	-0.674456	-8.757191E+8	-4.456445E-11	NaN
201	1.000000	0.542850	7.36701e+06	-48689.1	955.818	-29761.8	0.000000	0.000000	6.542964	0.005551	NaN	0.000000	0.001616	0.001659	28.0792	0.023682	0.002008	11.7951	-142.538	-166.429	0.006188	0.541515	-0.663022	-0.664357	0.005551	11.7951	-0.663375	-6.175809E+8	-8.987581E-12	NaN
201	1.000000	0.552824	7.36701e+06	-48689.1	955.819	-29761.8	0.000000	0.000000	6.552938	-0.014016	NaN	0.000000	0.001594	0.001702	28.0794	0.088917	0.002096	42.4198	-134.401	13.9243	0.015659	0.551487	-0.653048	-0.654385	-0.014016	42.4198	-0.652800	-4.423988E+8	3.168214E-11	NaN
201	1.000000	0.562875	7.36701e+06	-48689.1	955.818	-29761.8	0.000000	0.000000	6.562989	-0.017344	NaN	0.000000	0.001628	0.001682	28.0795	0.063418	0.001935	32.7724	103.15	-167.072	-0.024381	0.561551	-0.642996	-0.644321	-0.017344	32.7724	-0.642600	-3.205922E+8	5.410041E-11	NaN
201	1.000000	0.572842	7.36701e+06	-48689.1	955.818	-29761.8	0.000000	0.000000	6.572953	-0.062582	NaN	0.000000	0.001585	0.001717	28.0793	0.048468	0.001906	25.4357	82.7487	13.5795	-0.058567	0.571506	-0.633030	-0.634366	-0.062582	25.4357	-0.631184	-2.235059E+8	2.800030E-10	NaN
201	1.000000	0.582832	7.36701e+06	-48689.1	955.819	-29761.8	0.000000	0.000000	6.582945	-0.007420	NaN	0.000000	0.001587	0.001714	28.0794	0.127147	0.002024	62.8196	73.4315	-166.536	0.030400	0.581544	-0.623040	-0.624328	-0.007420	62.8196	-0.622952	-1.722657E+8	4.307465E-11	NaN
201	1.000000	0.592897	7.36701e+06	-48689.1	955.819	-29761.8	0.000000	0.000000	6.593010	-0.015293	NaN	0.000000	0.001606	0.001671	28.0794	0.049959	0.001915	26.0861	85.8622	10.2477	0.007736	0.591552	-0.612975	-0.614320	-0.015293	26.0861	-0.612535	-1.238768E+8	1.234556E-10	NaN
201	1.000000	0.602868	7.36701e+06	-48689.1	955.818	-29761.8	0.000000	0.000000	6.602981	-0.028314	NaN	0.000000	0.001589	0.001743	28.0798	0.092071	0.002003	45.9774	-43.3131	-168.758	-0.018684	0.601562	-0.603004	-0.604310	-0.028314	45.9774	-0.602542	-9.025389E+7	3.137139E-10	NaN
201	1.000000	0.612864	7.36701e+06	-48689.1	955.818	-29761.8	0.000000	0.000000	6.612978	0.005917	NaN	0.000000	0.001585	0.001737	28.0796	0.064882	0.002156	30.0984	-170.947	13.1955	0.018477	0.611509	-0.593008	-0.594363	0.005917	30.0984	-0.593155	-6.701279E+7	-8.829967E-11	NaN
201	1.000000	0.622867	7.36701e+06	-48689.1	955.82	-29761.8	0.000000	0.000000	6.622978	-0.083770	NaN	0.000000	0.001620	0.001708	28.0802	0.040399	0.002106	19.1855	-95.2414	-167.977	-0.043569	0.621572	-0.583005	-0.584300	-0.083770	19.1855	-0.579730	-4.375218E+7	1.914655E-9	NaN
201	1.000000	0.632901	7.36701e+06	-48689.1	955.819	-29761.8	0.000000	0.000000	6.633013	-0.043934	NaN	0.000000	0.001683	0.001685	28.0783	0.026281	0.001997	13.1599	94.0175	12.2656	0.027340	0.631538	-0.572971	-0.574333	-0.043934	13.1599	-0.570467	-3.259016E+7	1.348076E-9	NaN
201	1.000000	0.642882	7.36701e+06	-48689.1	955.818	-29761.8	0.000000	0.000000	6.642995	-0.014478	NaN	0.000000	0.001689	0.001681	28.0784	0.070546	0.001939	36.3904	163.524	-164.266	0.004405	0.641584	-0.562990	-0.564288	-0.014478	36.3904	-0.562692	-2.544528E+7	5.690008E-10	NaN
201	1.000000	0.652911	7.36701e+06	-48689.1	955.819	-29761.8	0.000000	0.000000	6.653024	-0.017140	NaN	0.000000	0.001680	0.001685	28.0781	0.025710	0.001883	13.6543	-60.2634	9.669947	-0.046084	0.651544	-0.552961	-0.554328	-0.017140	13.6543	-0.552019	-1.811009E+7	9.464517E-10	NaN
201	1.000000	0.662873	7.36701e+06	-48689.1	955.818	-29761.8	0.000000	0.000000	6.662983	-0.115626	NaN	0.000000	0.001658	0.001668	28.0784	0.100606	0.001939	51.8966	67.689	-166.841	-0.103333	0.661602	-0.542998	-0.544270	-0.115626	51.8966	-0.541327	-1.287558E+7	8.980234E-9	NaN
201	1.000000	0.672900	7.36701e+06	-48689.1	955.82	-29761.8	0.000000	0.000000	6.673019	0.109475	NaN	0.000000	0.001690	0.001707	28.0785	0.055476	0.001905	29.1246	-43.903	11.2733	0.092595	0.671570	-0.532972	-0.534302	0.109475	29.1246	-0.535791	-1.078854E+7	-1.014735E-8	NaN
201	1.000000	0.682921	7.36701e+06	-48689.1	955.819	-29761.8	0.000000	0.000000	6.683036	0.013672	NaN	0.000000	0.001680	0.001654	28.0783	0.016962	0.002050	8.274816	167.877	-168.144	-0.007667	0.681596	-0.522951	-0.524276	0.013672	8.274816	-0.524190	-7.44476e+06	-1.836508E-9	NaN
201	1.000000	0.692899	7.36701e+06	-48689.1	955.82	-29761.8	0.000000	0.000000	6.693015	0.032488	NaN	0.000000	0.001717	0.001692	28.0785	0.114313	0.002070	55.2245	-101.571	13.659	0.030314	0.691485	-0.512973	-0.514387	0.032488	55.2245	-0.513414	-5.27173e+06	-6.162723E-9	NaN
201	1.000000	0.702900	7.36701e+06	-48689.1	955.818	-29761.8	0.000000	0.000000	6.703013	-0.030240	NaN	0.000000	0.001693	0.001691	28.0787	0.100832	0.002097	48.0811	-72.2997	-164.966	-0.038062	0.701549	-0.502972	-0.504323	-0.030240	48.0811	-0.502500	-3.71444e+06	8.141218E-9	NaN
201	1.000000	0.712921	7.36701e+06	-48689.1	955.819	-29761.8	0.000000	0.000000	6.713033	-0.033038	NaN	0.000000	0.001666	0.001687	28.0785	0.121914	0.001957	62.303	-160.544	12.8349	-0.107835	0.711540	-0.492951	-0.494332	-0.033038	62.303	-0.492553	-2.69816e+06	1.224477E-8	NaN
201	1.000000	0.722918	7.36701e+06	-48689.1	955.819	-29761.8	0.000000	0.000000	6.723030	-0.048030	NaN	0.000000	0.001682	0.001691	28.0787	0.027920	0.001947	14.3425	-156.417	-171.924	0.003334	0.721621	-0.482954	-0.484251	-0.048030	14.3425	-0.480442	-1.82691e+06	2.628998E-8	NaN
201	1.000000	0.732950	7.36701e+06	-48689.1	955.819	-29761.8	0.000000	0.000000	6.733062	-0.033962	NaN	0.000000	0.001649	0.001671	28.0784	0.078792	0.001963	40.1327	125.43	13.3921	0.040941	0.731584	-0.472922	-0.474288	-0.033962	40.1327	-0.472288	-1.40438e+06	2.418270E-8	NaN
201	1.000000	0.742905	7.36701e+06	-48689.1	955.82	-29761.8	0.000000	0.000000	6.743017	-0.024710	NaN	0.000000	0.001703	0.001700	28.0788	0.120783	0.001913	63.1261	-175.375	-168.218	-0.008159	0.741647	-0.462967	-0.464225	-0.024710	63.1261	-0.462674	-1.0294e+06	2.400407E-8	NaN
201	1.000000	0.752933	7.36701e+06	-48689.1	955.818	-29761.8	0.000000	0.000000	6.753048	0.012421	NaN	0.000000	0.001674	0.001676	28.0784	0.021197	0.001907	11.1132	-166.927	15.8926	-0.049317	0.751534	-0.452938	-0.454337	0.012421	11.1132	-0.453777	-771803	-1.609346E-8	NaN
201	1.000000	0.762944	7.36701e+06	-48689.1	955.819	-29761.8	0.000000	0.000000	6.763056	-0.057238	NaN	0.000000	0.001656	0.001624	28.0797	0.039484	0.002057	19.191	118.149	-168.728	0.024076	0.761674	-0.442928	-0.444198	-0.057238	19.191	-0.440691	-504796	1.133889E-7	NaN
201	1.000000	0.772935	7.36701e+06	-48689.1	955.818	-29761.8	0.000000	0.000000	6.773048	-0.015735	NaN	0.000000	0.001680	0.001652	28.0798	0.026268	0.002043	12.8558	-110.321	14.7954	-0.075375	0.771585	-0.432937	-0.434287	-0.015735	12.8558	-0.432019	-380735	4.132818E-8	NaN
201	1.000000	0.782977	7.36701e+06	-48689.1	955.819	-29761.8	0.000000	0.000000	6.783090	-0.043064	NaN	0.000000	0.001658	0.001676	28.0798	0.147150	0.002011	73.1743	-160.978	-166.186	0.035106	0.781615	-0.422895	-0.424257	-0.043064	73.1743	-0.422453	-278738	1.544972E-7	NaN
201	1.000000	0.792909	7.36701e+06	-48689.1	955.819	-29761.8	0.000000	0.000000	6.793022	-0.044328	NaN	0.000000	0.001669	0.001696	28.08	0.051710	0.002141	24.15	-59.5519	13.314	-0.065167	0.791614	-0.412963	-0.414258	-0.044328	24.15	-0.411586	-195411	2.268434E-7	NaN
201	1.000000	0.802972	7.36701e+06	-48689.1	955.819	-29761.8	0.000000	0.000000	6.803085	7.043284E-5	NaN	0.000000	0.001694	0.001667	28.0802	0.030778	0.002003	15.3623	-179.875	-167.855	-0.083798	0.801708	-0.402900	-0.404164	7.043284E-5	15.3623	-0.402904	-147024	-4.790562E-10	NaN
201	1.000000	0.812951	7.36701e+06	-48689.1	955.818	-29761.8	0.000000	0.000000	6.813064	-0.027832	NaN	0.000000	0.001658	0.001658	28.0797	0.048742	0.002037	23.9323	-150.359	14.1207	0.026699	0.811569	-0.392921	-0.394303	-0.027832	23.9323	-0.392049	-102911	2.704459E-7	NaN
201	1.000000	0.822959	7.36701e+06	-48689.1	955.819	-29761.8	0.000000	0.000000	6.823074	0.038663	NaN	0.000000	0.001670	0.001643	28.08	0.030650	0.001913	16.0192	-80.9501	-165.013	-0.048648	0.821674	-0.382913	-0.384198	0.038663	16.0192	-0.384723	-80838.7	-4.782740E-7	NaN
201	1.000000	0.832974	7.36701e+06	-48689.1	955.819	-29761.8	0.000000	0.000000	6.833087	-0.024030	NaN	0.000000	0.001640	0.001676	28.0799	0.045979	0.001850	24.856	113.88	11.2977	0.046555	0.831641	-0.372898	-0.374231	-0.024030	24.856	-0.372173	-53383.5	4.501412E-7	NaN
201	1.000000	0.842984	7.36701e+06	-48689.1	955.819	-29761.8	0.000000	0.000000	6.843096	-0.041747	NaN	0.000000	0.001698	0.001661	28.0796	0.138467	0.001989	69.6058	-61.2623	-163.559	-0.079639	0.841676	-0.362888	-0.364196	-0.041747	69.6058	-0.362438	-38643.1	1.080334E-6	NaN
201	1.000000	0.852987	7.36701e+06	-48689.1	955.819	-29761.8	0.000000	0.000000	6.853099	-0.050313	NaN	0.000000	0.001694	0.001642	28.0797	0.045475	0.002043	22.2576	-45.3587	11.6448	-0.017589	0.851611	-0.352885	-0.354261	-0.050313	22.2576	-0.351189	-26561.9	1.894178E-6	NaN
201	1.000000	0.862960	7.36701e+06	-48689.1	955.819	-29761.8	0.000000	0.000000	6.863073	-0.032419	NaN	0.000000	0.001661	0.001673	28.0799	0.117687	0.002141	54.9765	66.2933	-167.285	-0.027028	0.861658	-0.342912	-0.344214	-0.032419	54.9765	-0.342469	-19839.4	1.634058E-6	NaN
201	1.000000	0.873003	7.36701e+06	-48689.1	955.818	-29761.8	0.000000	0.000000	6.873115	-0.030749	NaN	0.000000	0.001685	0.001633	28.0798	0.065309	0.002096	31.1592	65.9967	16.6218	0.017928	0.871657	-0.332869	-0.334215	-0.030749	31.1592	-0.332129	-14015.8	2.193889E-6	NaN
201	1.000000	0.883015	7.36701e+06	-48689.1	955.819	-29761.8	0.000000	0.000000	6.883128	-0.021929	NaN	0.000000	0.001670	0.001671	28.0796	0.079604	0.001863	42.7393	133.962	-164.206	-0.005464	0.881649	-0.322857	-0.324223	-0.021929	42.7393	-0.322473	-10116	2.167750E-6	NaN
201	1.000000	0.892986	7.36701e+06	-48689.1	955.818	-29761.8	0.000000	0.000000	6.893101	0.009271	NaN	0.000000	0.001659	0.001647	28.08	0.018532	0.001997	9.279991	134.096	11.2191	0.040760	0.891632	-0.312886	-0.314240	0.009271	9.279991	-0.313635	-7495.38	-1.236874E-6	NaN
201	1.000000	0.902997	7.36701e+06	-48689.1	955.819	-29761.8	0.000000	0.000000	6.903109	-0.055470	NaN	0.000000	0.001682	0.001670	28.0785	0.083613	0.001874	44.6208	101.053	-163.806	-0.010318	0.901665	-0.302875	-0.304207	-0.055470	44.6208	-0.301942	-5029.6	1.102868E-5	NaN
201	1.000000	0.912984	7.36701e+06	-48689.1	955.819	-29761.8	0.000000	0.000000	6.913098	-0.010333	NaN	0.000000	0.001665	0.001618	28.0786	0.092597	0.002053	45.1022	-72.8163	13.4373	0.009821	0.911682	-0.292888	-0.294190	-0.010333	45.1022	-0.292716	-3664.02	2.820089E-6	NaN
201	1.000000	0.922983	7.36701e+06	-48689.1	955.819	-29761.8	0.000000	0.000000	6.923096	-0.011918	NaN	0.000000	0.001652	0.001659	28.0787	0.045434	0.001896	23.9647	4.235145	-165.715	-0.005676	0.921694	-0.282889	-0.284178	-0.011918	23.9647	-0.282516	-2575.72	4.627206E-6	NaN
201	1.000000	0.933003	7.36701e+06	-48689.1	955.819	-29761.8	0.000000	0.000000	6.933121	0.086771	NaN	0.000000	0.001623	0.001666	28.0787	0.018987	0.001974	9.621009	-84.8388	14.64	0.068446	0.931614	-0.272869	-0.274258	0.086771	9.621009	-0.279633	-2330.41	-3.723432E-5	NaN
201	1.000000	0.942987	7.36701e+06	-48689.1	955.818	-29761.8	0.000000	0.000000	6.943101	-0.004326	NaN	0.000000	0.001592	0.001672	28.0784	0.069366	0.001950	35.5729	-177.972	-164.323	0.065711	0.941682	-0.262885	-0.264190	-0.004326	35.5729	-0.262793	-1293.25	3.344693E-6	NaN
201	1.000000	0.953032	7.36701e+06	-48689.1	955.818	-29761.8	0.000000	0.000000	6.953143	-0.073288	NaN	0.000000	0.001587	0.001715	28.0784	0.050387	0.001932	26.0775	147.715	12.2802	0.033710	0.951665	-0.252840	-0.254207	-0.073288	26.0775	-0.250732	-843.898	8.684470E-5	NaN
201	1.000000	0.963025	7.36701e+06	-48689.1	955.819	-29761.8	0.000000	0.000000	6.963138	-0.007597	NaN	0.000000	0.001619	0.001681	28.0784	0.077616	0.002011	38.5867	166.64	-166.907	0.032038	0.961716	-0.242847	-0.244156	-0.007597	38.5867	-0.242700	-633.377	1.199509E-5	NaN
201	1.000000	0.973018	7.36701e+06	-48689.1	955.819	-29761.8	0.000000	0.000000	6.973131	-0.022077	NaN	0.000000	0.001628	0.001653	28.0782	0.079077	0.002120	37.3004	59.9997	10.8016	0.074757	0.971637	-0.232854	-0.234235	-0.022077	37.3004	-0.232410	-437.036	5.051488E-5	NaN
201	1.000000	0.983048	7.36701e+06	-48689.1	955.819	-29761.8	0.000000	0.000000	6.983163	0.012652	NaN	0.000000	0.001617	0.001688	28.0782	0.029950	0.001978	15.1426	43.7211	-160.938	0.012995	0.981709	-0.222824	-0.224163	0.012652	15.1426	-0.223450	-315.28	-4.012806E-5	NaN
201	1.000000	0.993026	7.36701e+06	-48689.1	955.819	-29761.8	0.000000	0.000000	6.993138	-0.038314	NaN	0.000000	0.001629	0.001666	28.0781	0.048048	0.002030	23.6725	64.3741	14.9385	0.033668	0.991669	-0.212846	-0.214203	-0.038314	23.6725	-0.211632	-203.806	0.000188	NaN
201	1.000000	1.003026	7.36701e+06	-48689.1	955.82	-29761.8	0.000000	0.000000	7.003137	-0.076841	NaN	0.000000	0.001605	0.001671	28.0782	0.043868	0.002113	20.7595	174.688	-166.813	0.007937	1.001737	-0.202846	-0.204135	-0.076841	20.7595	-0.200069	-132.081	0.000582	NaN
201	1.000000	1.013015	7.36701e+06	-48689.1	955.819	-29761.8	0.000000	0.000000	7.013128	-0.023857	NaN	0.000000	0.001630	0.001682	28.078	0.046431	0.002018	23.0038	107.391	15.3266	-0.025842	1.011680	-0.192857	-0.194192	-0.023857	23.0038	-0.192079	-97.4302	0.000245	NaN
201	1.000000	1.023020	7.36701e+06	-48689.1	955.819	-29761.8	0.000000	0.000000	7.023133	-0.033625	NaN	0.000000	0.001652	0.001679	28.0781	0.064604	0.001982	32.6028	171.823	-166.119	-0.005805	1.021743	-0.182852	-0.184129	-0.033625	32.6028	-0.182078	-66.1841	0.000508	NaN
201	1.000000	1.033064	7.36701e+06	-48689.1	955.82	-29761.8	0.000000	0.000000	7.033177	-0.020545	NaN	0.000000	0.001656	0.001721	28.0783	0.038235	0.001831	20.8865	73.328	14.8216	-0.071146	1.031715	-0.172808	-0.174157	-0.020545	20.8865	-0.172070	-44.6147	0.000460	NaN
201	1.000000	1.043055	7.36701e+06	-48689.1	955.819	-29761.8	0.000000	0.000000	7.043167	-0.033635	NaN	0.000000	0.001604	0.001695	28.0796	0.083051	0.002044	40.6406	-105.474	-167.35	-0.018639	1.041726	-0.162817	-0.164146	-0.033635	40.6406	-0.162196	-29.9857	0.001122	NaN
201	1.000000	1.053062	7.36701e+06	-48689.1	955.82	-29761.8	0.000000	0.000000	7.053174	-0.025874	NaN	0.000000	0.001642	0.001729	28.0794	0.104287	0.002076	50.2444	-122.997	12.6105	-0.044472	1.051713	-0.152810	-0.154159	-0.025874	50.2444	-0.152424	-20.048	0.001291	NaN
201	1.000000	1.063058	7.36701e+06	-48689.1	955.82	-29761.8	0.000000	0.000000	7.063172	-0.004076	NaN	0.000000	0.001637	0.001664	28.0794	0.135190	0.002062	65.5567	95.7965	-164.563	-0.047140	1.061759	-0.142814	-0.144113	-0.004076	65.5567	-0.142767	-13.3266	0.000306	NaN
201	1.000000	1.073078	7.36701e+06	-48689.1	955.82	-29761.8	0.000000	0.000000	7.073188	-0.093665	NaN	0.000000	0.001626	0.001673	28.0794	0.072623	0.001938	37.4683	125.806	12.4865	-0.026040	1.071749	-0.132794	-0.134123	-0.093665	37.4683	-0.130919	-7.940245	0.011796	NaN
201	1.000000	1.083089	7.36701e+06	-48689.1	955.821	-29761.8	0.000000	0.000000	7.083199	-0.084940	NaN	0.000000	0.001622	0.001685	28.0796	0.058324	0.002088	27.9344	75.799	-165.083	-0.074892	1.081754	-0.122783	-0.124118	-0.084940	27.9344	-0.120502	-4.945539	0.017175	NaN
201	1.000000	1.093069	7.36701e+06	-48689.1	955.82	-29761.8	0.000000	0.000000	7.093182	-0.024762	NaN	0.000000	0.001636	0.001726	28.0795	0.062059	0.001996	31.0974	-11.8146	12.8043	-0.001643	1.091740	-0.112803	-0.114132	-0.024762	31.0974	-0.112206	-3.343073	0.007407	NaN
201	1.000000	1.103079	7.36701e+06	-48689.1	955.82	-29761.8	0.000000	0.000000	7.103192	-0.032693	NaN	0.000000	0.001621	0.001703	28.0796	0.057969	0.001968	29.4528	68.9623	-165.999	0.088952	1.101728	-0.102793	-0.104144	-0.032693	29.4528	-0.101960	-2.018382	0.016197	NaN
201	1.000000	1.113103	7.36701e+06	-48689.1	955.82	-29761.8	0.000000	0.000000	7.113217	-0.020099	NaN	0.000000	0.001635	0.001690	28.0796	0.062884	0.001994	31.5359	44.3149	12.7932	-0.126537	1.111730	-0.092768	-0.094142	-0.020099	31.5359	-0.092290	-1.222338	0.016443	NaN
201	1.000000	1.123091	7.36701e+06	-48689.1	955.821	-29761.8	0.000000	0.000000	7.123205	-0.001466	NaN	0.000000	0.001633	0.001680	28.08	0.073031	0.001999	36.537	0.309195	-167.357	-0.009406	1.121742	-0.082781	-0.084130	-0.001466	36.537	-0.082751	-0.724196	0.002025	NaN
201	1.000000	1.133071	7.36701e+06	-48689.1	955.82	-29761.8	0.000000	0.000000	7.133186	0.008365	NaN	0.000000	0.001591	0.001715	28.0794	0.039178	0.001932	20.281	176.792	15.2296	-0.085593	1.131717	-0.072801	-0.074155	0.008365	20.281	-0.073110	-0.412386	-0.020283	NaN
201	1.000000	1.143111	7.36701e+06	-48689.1	955.82	-29761.8	0.000000	0.000000	7.143226	0.015333	NaN	0.000000	0.001629	0.001739	28.0799	0.072844	0.002231	32.6469	-120.107	-166.524	-0.014985	1.141782	-0.062761	-0.064089	0.015333	32.6469	-0.063113	-0.220744	-0.069463	NaN
201	1.000000	1.153093	7.36701e+06	-48689.1	955.821	-29761.8	0.000000	0.000000	7.153205	-0.030317	NaN	0.000000	0.001600	0.001729	28.0798	0.026635	0.002082	12.7902	4.277577	9.949475	-0.056570	1.151777	-0.052779	-0.054095	-0.030317	12.7902	-0.051002	-0.097830	0.309892	NaN
201	1.000000	1.163095	7.36701e+06	-48689.1	955.82	-29761.8	0.000000	0.000000	7.163209	-0.010594	NaN	0.000000	0.001583	0.001729	28.0798	0.076943	0.002062	37.3093	74.3553	-169.843	-0.005261	1.161772	-0.042777	-0.044100	-0.010594	37.3093	-0.042564	-0.054137	0.195684	NaN
201	1.000000	1.173102	7.36701e+06	-48689.1	955.82	-29761.8	0.000000	0.000000	7.173215	-0.035110	NaN	0.000000	0.001572	0.001760	28.0785	0.139061	0.002034	68.3715	5.588831	12.8917	-0.111596	1.171686	-0.032770	-0.034186	-0.035110	68.3715	-0.032385	-0.026879	1.306194	NaN
201	1.000000	1.183097	7.36701e+06	-48689.1	955.82	-29761.8	0.000000	0.000000	7.183211	0.011659	NaN	0.000000	0.001593	0.001695	28.0785	0.080230	0.001971	40.6959	-74.0164	-162.678	-0.029525	1.181788	-0.022775	-0.024084	0.011659	40.6959	-0.022990	-0.014967	-0.778953	NaN
201	1.000000	1.193098	7.36701e+06	-48689.1	955.82	-29761.8	0.000000	0.000000	7.193211	-0.011291	NaN	0.000000	0.001595	0.001728	28.0788	0.016379	0.001945	8.421770	153.06	13.6018	0.042005	1.191742	-0.012774	-0.014130	-0.011291	8.421770	-0.011768	-0.007396	1.526630	NaN
201	1.000000	1.203107	7.36701e+06	-48689.1	955.821	-29761.8	0.000000	0.000000	7.203219	-0.050774	NaN	0.000000	0.001581	0.001720	28.0783	0.094739	0.002096	45.2048	172.74	-166.768	-0.041566	1.201794	-0.002765	-0.004078	-0.050774	45.2048	-0.001922	-0.001385	36.6491	NaN
201	1.000000	1.213118	7.36701e+06	-48689.1	955.82	-29761.8	0.000000	0.000000	7.213462	5.594640	NaN	0.000000	0.001571	0.001704	28.0783	6.114105	0.001723	3548.86	13.0606	3.915926	3.912213	1.211713	0.007246	0.005841	5.594640	3548.86	0.006064	0.005125	1091.54	45289.4
201	2.000000	1.217735	7.36701e+06	-48689.1	955.82	-29761.8	0.000000	0.000000	7.218290	10.7279	NaN	0.000000	0.001583	0.001718	28.0787	10.0819	0.001538	6554.06	9.180537	-176.77	11.0183	1.217395	0.011863	0.011523	10.7279	6554.06	0.010635	0.009896	1084.08	60194.5
201	2.000000	1.220137	7.36701e+06	-48689.1	955.82	-29761.8	0.000000	0.000000	7.220868	15.0289	NaN	0.000000	0.001573	0.001717	28.0785	13.4881	0.001751	7703.49	5.412582	5.241774	13.7	1.219810	0.014265	0.013938	15.0289	7703.49	0.012801	0.012464	1205.76	63041.7
201	2.000000	1.222638	7.36701e+06	-48689.1	955.82	-29761.8	0.000000	0.000000	7.223511	18.4649	NaN	0.000000	0.001599	0.001721	28.0784	16.4092	0.001883	8715.12	4.465158	-174.961	17.2584	1.222380	0.016766	0.016508	18.4649	8715.12	0.015177	0.015522	1189.59	63910.4
201	2.000000	1.225163	7.36701e+06	-48689.1	955.82	-29761.8	0.000000	0.000000	7.226285	24.5208	NaN	0.000000	0.001600	0.001715	28.0783	18.3537	0.001721	10666.5	4.643639	4.083979	22.3881	1.224786	0.019291	0.018914	24.5208	10666.5	0.017567	0.018863	1299.97	70957
201	2.000000	1.227626	7.36701e+06	-48689.1	955.82	-29761.8	0.000000	0.000000	7.228957	29.5859	NaN	0.000000	0.001581	0.001701	28.0789	21.57	0.001752	12311	4.880997	-178.138	28.4907	1.227318	0.021754	0.021446	29.5859	12311	0.019952	0.022467	1316.88	75040.5
201	2.000000	1.230151	7.36701e+06	-48689.1	955.82	-29761.8	0.000000	0.000000	7.231701	34.9187	NaN	0.000000	0.001592	0.001732	28.0785	24.7093	0.001837	13448.6	6.693665	-0.845659	34.2939	1.229770	0.024279	0.023898	34.9187	13448.6	0.022332	0.026340	1325.69	75708.1
201	2.000000	1.232617	7.36701e+06	-48689.1	955.82	-29761.8	0.000000	0.000000	7.234414	40.9321	NaN	0.000000	0.001601	0.001700	28.0785	27.3256	0.001842	14837.4	6.299721	179.457	40.6872	1.232371	0.026746	0.026499	40.9321	14837.4	0.024677	0.030430	1345.13	77710.7
201	2.000000	1.235153	7.36701e+06	-48689.1	955.82	-29761.8	0.000000	0.000000	7.237227	47.6778	NaN	0.000000	0.001606	0.001710	28.0784	29.133	0.001750	16652	5.224417	-0.214972	46.2123	1.234808	0.029281	0.028936	47.6778	16652	0.027133	0.035011	1361.79	81308.4
201	2.000000	1.237594	7.36701e+06	-48689.1	955.82	-29761.8	0.000000	0.000000	7.239914	53.6531	NaN	0.000000	0.001625	0.001722	28.0786	31.4065	0.001687	18615.3	4.362014	179.029	53.5528	1.237320	0.031722	0.031448	53.6531	18615.3	0.029560	0.039837	1346.82	85211.9
201	2.000000	1.240127	7.36701e+06	-48689.1	955.82	-29761.8	0.000000	0.000000	7.242826	62.8767	NaN	0.000000	0.001610	0.001701	28.0797	34.0987	0.001699	20066.8	2.611205	0.190725	61.5317	1.239783	0.034255	0.033911	62.8767	20066.8	0.031905	0.044784	1403.99	86633.7
201	2.000000	1.242587	7.36701e+06	-48689.1	955.819	-29761.8	0.000000	0.000000	7.245589	70.2552	NaN	0.000000	0.001561	0.001745	28.0801	37.286	0.001719	21685.7	1.916832	179.869	67.7125	1.242289	0.036715	0.036417	70.2552	21685.7	0.034285	0.050095	1402.45	88522.2
201	2.000000	1.245115	7.36701e+06	-48689.1	955.82	-29761.8	0.000000	0.000000	7.248610	82.2246	NaN	0.000000	0.001623	0.001721	28.0799	39.544	0.001771	22330.6	5.495022	-3.391509	80.0401	1.244651	0.039243	0.038780	82.2246	22330.6	0.036481	0.055252	1488.18	86796.3
201	2.000000	1.247663	7.36701e+06	-48689.1	955.82	-29761.8	0.000000	0.000000	7.251486	90.2058	NaN	0.000000	0.001597	0.001712	28.0801	42.023	0.001764	23828.2	5.960084	175.387	93.7161	1.247365	0.041791	0.041494	90.2058	23828.2	0.038952	0.061348	1470.4	87894.9
201	2.000000	1.250081	7.36701e+06	-48689.1	955.82	-29761.8	0.000000	0.000000	7.254439	103.211	NaN	0.000000	0.001583	0.001713	28.0797	45.5331	0.001817	25060.1	7.010052	-6.023204	101.03	1.249732	0.044209	0.043860	103.211	25060.1	0.041120	0.066955	1541.49	88483.6
201	2.000000	1.252581	7.36701e+06	-48689.1	955.819	-29761.8	0.000000	0.000000	7.257007	104.877	NaN	0.000000	0.001599	0.001734	28.0797	47.8384	0.001874	25533.6	3.253349	177.438	103.611	1.252361	0.046709	0.046490	104.877	25533.6	0.043629	0.073742	1422.21	85906.6
201	2.000000	1.255142	7.36701e+06	-48689.1	955.821	-29761.8	0.000000	0.000000	7.260226	120.895	NaN	0.000000	0.001565	0.001709	28.0796	50.0499	0.001781	28106.4	6.758239	-6.300693	121.143	1.254647	0.049270	0.048775	120.895	28106.4	0.046044	0.080578	1500.34	90462.9
201	2.000000	1.257550	7.36701e+06	-48689.1	955.82	-29761.8	0.000000	0.000000	7.263027	130.439	NaN	0.000000	0.001560	0.001703	28.08	51.9764	0.001802	28841.9	4.013490	175.444	127.532	1.257247	0.051678	0.051375	130.439	28841.9	0.048287	0.087191	1496.02	89240.5
201	2.000000	1.260035	7.36701e+06	-48689.1	955.819	-29761.8	0.000000	0.000000	7.265950	141.078	NaN	0.000000	0.001566	0.001675	28.0796	54.719	0.001796	30459.2	5.456746	-6.091188	137.705	1.259734	0.054163	0.053862	141.078	30459.2	0.050690	0.094557	1491.99	90499.4
201	2.000000	1.262611	7.36701e+06	-48689.1	955.819	-29761.8	0.000000	0.000000	7.268936	151.047	NaN	0.000000	0.001585	0.001685	28.0798	57.5941	0.001938	29715.9	0.984503	179.114	151.33	1.262251	0.056740	0.056379	151.047	29715.9	0.052927	0.101676	1485.58	85144
201	2.000000	1.265045	7.36701e+06	-48689.1	955.82	-29761.8	0.000000	0.000000	7.271976	165.798	NaN	0.000000	0.001579	0.001705	28.0796	58.8306	0.001773	33183.8	1.623932	-2.903170	161.304	1.264743	0.059173	0.058872	165.798	33183.8	0.055426	0.109918	1508.37	91446
201	2.000000	1.267495	7.36701e+06	-48689.1	955.817	-29761.8	0.000000	0.000000	7.274620	170.505	NaN	0.000000	0.001610	0.001650	28.0797	61.3978	0.001726	35568.1	5.823274	171.796	166.681	1.267226	0.061623	0.061354	170.505	35568.1	0.058028	0.118831	1434.85	94268.9
201	2.000000	1.270136	7.36702e+06	-48689.1	955.819	-29761.8	0.000000	0.000000	7.277960	187.513	NaN	0.000000	0.001583	0.001680	28.0795	64.2556	0.001767	36366.5	1.814631	-3.405499	190.646	1.269816	0.064264	0.063944	187.513	36366.5	0.060397	0.127236	1473.74	93147.1
201	2.000000	1.272501	7.36702e+06	-48689.1	955.82	-29761.8	0.000000	0.000000	7.281116	206.758	NaN	0.000000	0.001609	0.001717	28.0793	66.9207	0.001709	39159.1	7.012866	170.06	203.463	1.272248	0.066629	0.066376	206.758	39159.1	0.062669	0.135554	1525.28	97174
201	2.000000	1.275013	7.36702e+06	-48689.1	955.82	-29761.8	0.000000	0.000000	7.284274	222.46	NaN	0.000000	0.001556	0.001742	28.0784	68.42	0.001771	38624.5	4.611021	-6.090391	217.448	1.274653	0.069141	0.068781	222.46	38624.5	0.064822	0.143664	1548.47	93102.6
201	2.000000	1.277488	7.36702e+06	-48689.1	955.821	-29761.8	0.000000	0.000000	7.287192	233.231	NaN	0.000000	0.001569	0.001715	28.0783	70.6611	0.001800	39248.8	1.659696	176.037	228.355	1.277177	0.071616	0.071305	233.231	39248.8	0.067159	0.152725	1527.13	91758.1
201	2.000000	1.280020	7.36702e+06	-48689.1	955.82	-29761.8	0.000000	0.000000	7.290298	247.195	NaN	0.000000	0.001628	0.001709	28.0784	74.5343	0.001801	41384.5	3.704322	-6.350987	244.553	1.279585	0.074148	0.073714	247.195	41384.5	0.069668	0.162741	1518.94	93726.5
201	2.000000	1.282526	7.36702e+06	-48689.1	955.82	-29761.8	0.000000	0.000000	7.293586	266.226	NaN	0.000000	0.001623	0.001702	28.0782	77.3135	0.001835	42141.4	3.351010	173.882	266.324	1.282232	0.076654	0.076360	266.226	42141.4	0.071916	0.171969	1548.1	92844.5
201	2.000000	1.285066	7.36702e+06	-48689.1	955.819	-29761.8	0.000000	0.000000	7.296761	281.669	NaN	0.000000	0.001613	0.001743	28.0784	78.9547	0.001703	46355.9	6.193172	-9.934126	280.325	1.284778	0.079194	0.078906	281.669	46355.9	0.074637	0.183460	1535.31	98879.6
201	2.000000	1.287506	7.36702e+06	-48689.1	955.819	-29761.8	0.000000	0.000000	7.299973	300.449	NaN	0.000000	0.001595	0.001716	28.0783	81.0866	0.001807	44876	5.545523	171.016	297.651	1.287185	0.081634	0.081313	300.449	44876	0.076612	0.192022	1564.66	93564.7
201	2.000000	1.290032	7.36702e+06	-48689.1	955.819	-29761.8	0.000000	0.000000	7.303237	318.375	NaN	0.000000	0.001602	0.001715	28.0785	84.6112	0.001786	47373.4	8.540582	-12.4619	314.201	1.289546	0.084160	0.083674	318.375	47373.4	0.079120	0.203153	1567.17	96027.5
201	2.000000	1.292565	7.36702e+06	-48689.1	955.82	-29761.8	0.000000	0.000000	7.306077	325.847	NaN	0.000000	0.001601	0.001688	28.0785	87.021	0.001877	46363.2	4.309505	171.616	324.906	1.292365	0.086693	0.086493	325.847	46363.2	0.081422	0.213631	1525.28	91646.2
201	2.000000	1.295017	7.36702e+06	-48689.1	955.819	-29761.8	0.000000	0.000000	7.309698	354.289	NaN	0.000000	0.001635	0.001732	28.0785	87.3583	0.001731	50454.8	2.070134	-6.629189	350.603	1.294745	0.089145	0.088873	354.289	50454.8	0.083879	0.225082	1574.04	97164
201	2.000000	1.297576	7.36702e+06	-48689.1	955.82	-29761.8	0.000000	0.000000	7.312835	368.34	NaN	0.000000	0.001602	0.001678	28.0782	90.9872	0.001780	51111	7.475438	168.406	369.991	1.297186	0.091704	0.091314	368.34	51111	0.086299	0.236639	1556.55	95994.2
201	2.000000	1.299982	7.36702e+06	-48689.1	955.821	-29761.8	0.000000	0.000000	7.315881	383.899	NaN	0.000000	0.001577	0.001682	28.0785	94.2597	0.001976	47712.6	6.175167	-10.5458	380.791	1.299713	0.094110	0.093841	383.899	47712.6	0.088076	0.245292	1565.07	88016.5
201	2.000000	1.302576	7.36702e+06	-48689.1	955.82	-29761.8	0.000000	0.000000	7.319375	405.79	NaN	0.000000	0.001553	0.001665	28.0781	95.1569	0.001809	52595.2	5.890337	169.285	409.306	1.302194	0.096704	0.096322	405.79	52595.2	0.090918	0.259437	1564.12	94341.5
201	2.000000	1.304944	7.36702e+06	-48689.1	955.821	-29761.8	0.000000	0.000000	7.322807	431.674	NaN	0.000000	0.001562	0.001689	28.0787	95.209	0.001652	57617	4.373791	-9.460751	424.32	1.304632	0.099072	0.098760	431.674	57617	0.093453	0.272370	1584.88	100866
201	2.000000	1.307509	7.36702e+06	-48689.1	955.82	-29761.8	0.000000	0.000000	7.326185	451.459	NaN	0.000000	0.001526	0.001661	28.0795	98.0592	0.001776	55210.1	6.119911	169.384	450.482	1.307122	0.101637	0.101250	451.459	55210.1	0.095504	0.283045	1595.01	94812.1
201	2.000000	1.309934	7.36702e+06	-48689.1	955.82	-29761.8	0.000000	0.000000	7.329851	481.628	NaN	0.000000	0.001528	0.001648	28.0797	100.133	0.001801	55586	4.298048	-8.101180	474.469	1.309525	0.104062	0.103653	481.628	55586	0.097563	0.293958	1638.42	93669
201	2.000000	1.312564	7.36702e+06	-48689.1	955.82	-29761.8	0.000000	0.000000	7.332989	493.992	NaN	0.000000	0.001547	0.001687	28.0796	104.661	0.001781	58768.8	10.1852	165.005	495.591	1.312128	0.106693	0.106256	493.992	58768.8	0.100388	0.309241	1597.43	96554.2
201	2.000000	1.314469	7.36702e+06	-48689.1	955.82	-29761.8	0.000000	0.000000	7.335792	515.854	NaN	0.000000	0.001599	0.001701	28.0794	104.218	0.001748	59621.6	3.204243	171.757	512.257	1.314175	0.108597	0.108303	515.854	59621.6	0.102108	0.318720	1618.52	96487.7