File: remote_trans/data/nanoindenter/0828-1/data/Data_2025-08-06,11h17m57s/2025-07-22_16-23-58_1_15.txt
2025-07-22, 16:23:58, 1
Index	Phase	Displacement	Time	Pos X	Pos Y	Pos Z	Rot A	Rot B	Piezo Z	Force A	Force B	Gripper	Voltage A	Voltage B	Temperature	Amplitude force	Amplitude pos	Stiffness	Phase shift	Phase excitation	Force A raw	Displacement raw	HMax	HMax raw	Real Force	Real Stiffness	Contact Depth	Area	Hardness	Reduced Mod.
[#]	[#]	[um]	[s]	[um]	[um]	[um]	[m°]	[m°]	[um]	[uN]	[uN]	[V]	[V]	[V]	[°C]	[uN]	[um]	[N/m]	[°]	[°]	[uN]	[um]	[um]	[um]	[uN]	[N/m]	[um]	[um^2]	[MPa]	[MPa]
15	1.000000	0.002572	7.36519e+06	-39389.1	955.818	-29794.7	0.000000	0.000000	6.002807	-0.049188	NaN	0.000000	0.001604	0.001746	28.115	0.123168	0.000909	135.453	-115.66	-166.514	0.010754	0.001284	-1.080593	-1.081881	-0.049188	135.453	-1.080321	-2.727875E+14	1.803172E-16	NaN
15	1.000000	0.010555	7.36519e+06	-39389.1	955.818	-29794.7	0.000000	0.000000	6.010789	-0.059346	NaN	0.000000	0.001585	0.001743	28.1151	0.074984	0.001047	71.5835	29.2592	-166.203	-0.070933	0.009249	-1.072610	-1.073916	-0.059346	71.5835	-1.071989	-2.108167E+14	2.815067E-16	NaN
15	1.000000	0.018539	7.36519e+06	-39389.1	955.819	-29794.7	0.000000	0.000000	6.018773	-0.068312	NaN	0.000000	0.001597	0.001747	28.1148	0.066997	0.001696	39.5013	-124.162	-169.124	-0.082875	0.017247	-1.064626	-1.065918	-0.068312	39.5013	-1.063329	-1.612706E+14	4.235873E-16	NaN
15	1.000000	0.026571	7.36519e+06	-39389.1	955.818	-29794.7	0.000000	0.000000	6.026803	-0.111402	NaN	0.000000	0.001574	0.001725	28.116	0.040012	0.001736	23.0514	-48.9699	-166.506	-0.005224	0.025214	-1.056594	-1.057951	-0.111402	23.0514	-1.052969	-1.170382E+14	9.518431E-16	NaN
15	1.000000	0.034529	7.36519e+06	-39389.1	955.817	-29794.7	0.000000	0.000000	6.034763	-0.057117	NaN	0.000000	0.001583	0.001721	28.1158	0.064681	0.001909	33.8794	155.62	-167.973	-0.018955	0.033227	-1.048636	-1.049938	-0.057117	33.8794	-1.047372	-9.842017E+13	5.803339E-16	NaN
15	1.000000	0.042536	7.36519e+06	-39389.1	955.818	-29794.7	0.000000	0.000000	6.042772	-0.017528	NaN	0.000000	0.001543	0.001767	28.1164	0.074116	0.001913	38.7382	-57.14	-166.586	-0.037064	0.041238	-1.040629	-1.041927	-0.017528	38.7382	-1.040290	-7.904333E+13	2.217506E-16	NaN
15	1.000000	0.050540	7.36519e+06	-39389.1	955.818	-29794.7	0.000000	0.000000	6.050775	-0.043536	NaN	0.000000	0.001549	0.001760	28.117	0.086981	0.001871	46.4791	124.091	-164.595	-0.100745	0.049209	-1.032625	-1.033956	-0.043536	46.4791	-1.031923	-6.100162E+13	7.136824E-16	NaN
15	1.000000	0.058525	7.36519e+06	-39389.1	955.817	-29794.7	0.000000	0.000000	6.058757	-0.094155	NaN	0.000000	0.001587	0.001768	28.1159	0.059106	0.002032	29.0896	31.4336	-164.643	-0.118900	0.057238	-1.024640	-1.025927	-0.094155	29.0896	-1.022213	-4.515712E+13	2.085051E-15	NaN
15	1.000000	0.066551	7.36519e+06	-39389.1	955.818	-29794.7	0.000000	0.000000	6.066782	-0.128358	NaN	0.000000	0.001584	0.001730	28.1151	0.045100	0.002020	22.3262	-120.765	-168.619	-0.162789	0.065242	-1.016615	-1.017923	-0.128358	22.3262	-1.012303	-3.321799E+13	3.864118E-15	NaN
15	1.000000	0.074538	7.36519e+06	-39389.1	955.817	-29794.7	0.000000	0.000000	6.074770	-0.103940	NaN	0.000000	0.001598	0.001721	28.1155	0.069903	0.001978	35.3438	20.6943	-166.847	-0.053089	0.073246	-1.008627	-1.009919	-0.103940	35.3438	-1.006422	-2.768319E+13	3.754625E-15	NaN
15	1.000000	0.082534	7.36519e+06	-39389.1	955.818	-29794.7	0.000000	0.000000	6.082769	-0.030315	NaN	0.000000	0.001600	0.001727	28.1155	0.030502	0.001891	16.1319	112.251	-166.108	-0.006897	0.081221	-1.000632	-1.001944	-0.030315	16.1319	-0.999222	-2.214610E+13	1.368850E-15	NaN
15	1.000000	0.090555	7.36519e+06	-39389.1	955.817	-29794.7	0.000000	0.000000	6.090790	-0.052010	NaN	0.000000	0.001595	0.001744	28.1155	0.121073	0.002095	57.7903	-67.7398	-166.369	-0.136121	0.089234	-0.992610	-0.993931	-0.052010	57.7903	-0.991935	-1.766731E+13	2.943837E-15	NaN
15	1.000000	0.098538	7.36519e+06	-39389.1	955.817	-29794.7	0.000000	0.000000	6.098772	-0.057185	NaN	0.000000	0.001615	0.001761	28.1149	0.092353	0.001963	47.0465	170.364	-165.102	-0.098571	0.097231	-0.984627	-0.985934	-0.057185	47.0465	-0.983716	-1.369200E+13	4.176547E-15	NaN
15	1.000000	0.106543	7.36519e+06	-39389.1	955.817	-29794.7	0.000000	0.000000	6.106778	-0.050214	NaN	0.000000	0.001567	0.001742	28.1163	0.026221	0.002053	12.7691	-173.075	-166.16	-0.013095	0.105205	-0.976622	-0.977960	-0.050214	12.7691	-0.973673	-1.002666E+13	5.008069E-15	NaN
15	1.000000	0.114546	7.36519e+06	-39389.1	955.817	-29794.7	0.000000	0.000000	6.114779	-0.090839	NaN	0.000000	0.001581	0.001744	28.1175	0.071538	0.001982	36.0914	-116.869	-166.551	-0.059125	0.113254	-0.968619	-0.969911	-0.090839	36.0914	-0.966731	-8.083668E+12	1.123735E-14	NaN
15	1.000000	0.122539	7.36519e+06	-39389.1	955.818	-29794.7	0.000000	0.000000	6.122774	-0.027140	NaN	0.000000	0.001578	0.001751	28.1177	0.033480	0.002039	16.4216	-44.1148	-168.177	-0.078687	0.121257	-0.960627	-0.961908	-0.027140	16.4216	-0.959387	-6.435831E+12	4.217026E-15	NaN
15	1.000000	0.130543	7.36519e+06	-39389.1	955.818	-29794.7	0.000000	0.000000	6.130775	-0.097054	NaN	0.000000	0.001553	0.001748	28.1184	0.035819	0.002183	16.4107	-167.592	-166.494	-0.089179	0.129269	-0.952622	-0.953896	-0.097054	16.4107	-0.948187	-4.545423E+12	2.135203E-14	NaN
15	1.000000	0.138537	7.36519e+06	-39389.1	955.818	-29794.7	0.000000	0.000000	6.138772	-0.052054	NaN	0.000000	0.001581	0.001775	28.1179	0.065754	0.002018	32.5819	-80.5042	-163.149	-0.078699	0.137240	-0.944628	-0.945925	-0.052054	32.5819	-0.943430	-3.921076E+12	1.327548E-14	NaN
15	1.000000	0.146552	7.36519e+06	-39389.1	955.817	-29794.7	0.000000	0.000000	6.146786	-0.063427	NaN	0.000000	0.001588	0.001762	28.1166	0.067498	0.001855	36.3785	9.301801	-168.048	-0.075715	0.145271	-0.936613	-0.937894	-0.063427	36.3785	-0.935306	-3.046484E+12	2.081966E-14	NaN
15	1.000000	0.154568	7.36519e+06	-39389.1	955.818	-29794.7	0.000000	0.000000	6.154804	-0.028265	NaN	0.000000	0.001600	0.001764	28.1169	0.108849	0.002001	54.4075	-27.2073	-164.892	-0.031307	0.153291	-0.928597	-0.929874	-0.028265	54.4075	-0.928207	-2.443438E+12	1.156768E-14	NaN
15	1.000000	0.162581	7.36519e+06	-39389.1	955.819	-29794.7	0.000000	0.000000	6.162813	-0.110350	NaN	0.000000	0.001608	0.001774	28.1175	0.163060	0.001958	83.2795	140.248	-165.74	-0.084794	0.161240	-0.920584	-0.921925	-0.110350	83.2795	-0.919591	-1.869293E+12	5.903297E-14	NaN
15	1.000000	0.170573	7.36519e+06	-39389.1	955.818	-29794.7	0.000000	0.000000	6.170807	-0.067342	NaN	0.000000	0.001611	0.001777	28.1169	0.071848	0.001920	37.4149	104.776	-166.435	-0.019880	0.169229	-0.912592	-0.913937	-0.067342	37.4149	-0.911242	-1.441903E+12	4.670335E-14	NaN
15	1.000000	0.178590	7.36519e+06	-39389.1	955.818	-29794.7	0.000000	0.000000	6.178824	-0.057525	NaN	0.000000	0.001667	0.001743	28.1174	0.053070	0.002084	25.4595	59.0169	-164.117	-0.127842	0.177274	-0.904575	-0.905891	-0.057525	25.4595	-0.902881	-1.111707E+12	5.174440E-14	NaN
15	1.000000	0.186548	7.36519e+06	-39389.1	955.818	-29794.7	0.000000	0.000000	6.186783	-0.025830	NaN	0.000000	0.001636	0.001740	28.1184	0.044929	0.002028	22.1538	-28.9337	-165.608	-0.082259	0.185253	-0.896617	-0.897912	-0.025830	22.1538	-0.895743	-8.903062E+11	2.901211E-14	NaN
15	1.000000	0.194553	7.36519e+06	-39389.1	955.818	-29794.7	0.000000	0.000000	6.194789	-0.033780	NaN	0.000000	0.001652	0.001729	28.1179	0.093290	0.001872	49.8445	-78.1572	-168.764	-0.008711	0.193256	-0.888612	-0.889909	-0.033780	49.8445	-0.888104	-7.019060E+11	4.812644E-14	NaN
15	1.000000	0.202593	7.36519e+06	-39389.1	955.818	-29794.7	0.000000	0.000000	6.202828	-0.047105	NaN	0.000000	0.001630	0.001761	28.1173	0.057918	0.002001	28.9442	90.7875	-166.374	0.005636	0.201266	-0.880572	-0.881899	-0.047105	28.9442	-0.879351	-5.344838E+11	8.813105E-14	NaN
15	1.000000	0.210601	7.36519e+06	-39389.1	955.819	-29794.7	0.000000	0.000000	6.210834	-0.084539	NaN	0.000000	0.001651	0.001759	28.1181	0.110374	0.002100	52.5496	19.7525	-166.523	-0.075276	0.209215	-0.872564	-0.873950	-0.084539	52.5496	-0.871358	-4.166866E+11	2.028839E-13	NaN
15	1.000000	0.218577	7.36519e+06	-39389.1	955.819	-29794.7	0.000000	0.000000	6.218809	-0.103203	NaN	0.000000	0.001617	0.001722	28.1184	0.024094	0.001898	12.6958	-157.601	-168.384	-0.146809	0.217265	-0.864588	-0.865900	-0.103203	12.6958	-0.858492	-2.790656E+11	3.698159E-13	NaN
15	1.000000	0.226578	7.36519e+06	-39389.1	955.818	-29794.7	0.000000	0.000000	6.226813	-0.036719	NaN	0.000000	0.001625	0.001701	28.1169	0.040081	0.001919	20.8818	-122.83	-166.678	-0.036687	0.225273	-0.856587	-0.857892	-0.036719	20.8818	-0.855268	-2.523859E+11	1.454863E-13	NaN
15	1.000000	0.234596	7.36519e+06	-39389.1	955.819	-29794.7	0.000000	0.000000	6.234830	-0.052704	NaN	0.000000	0.001598	0.001742	28.1169	0.057856	0.002041	28.3531	-170.818	-169.708	-0.051117	0.233316	-0.848569	-0.849849	-0.052704	28.3531	-0.847175	-1.961020E+11	2.687581E-13	NaN
15	1.000000	0.242613	7.36519e+06	-39389.1	955.819	-29794.7	0.000000	0.000000	6.242844	-0.123997	NaN	0.000000	0.001624	0.001721	28.1164	0.043267	0.001952	22.163	-174.375	-164.296	-0.123714	0.241254	-0.840553	-0.841912	-0.123997	22.163	-0.836357	-1.399358E+11	8.860962E-13	NaN
15	1.000000	0.250622	7.36519e+06	-39389.1	955.819	-29794.7	0.000000	0.000000	6.250855	-0.084943	NaN	0.000000	0.001602	0.001728	28.1162	0.044662	0.001870	23.884	-147.245	-166.957	-0.056444	0.249292	-0.832543	-0.833873	-0.084943	23.884	-0.829876	-1.143143E+11	7.430611E-13	NaN
15	1.000000	0.258633	7.36519e+06	-39389.1	955.818	-29794.7	0.000000	0.000000	6.258868	-0.042647	NaN	0.000000	0.001594	0.001737	28.1159	0.083875	0.002070	40.5287	83.9743	-170.091	-0.057517	0.257323	-0.824532	-0.825842	-0.042647	40.5287	-0.823743	-9.439804E+10	4.517749E-13	NaN
15	1.000000	0.266622	7.36519e+06	-39389.1	955.818	-29794.7	0.000000	0.000000	6.266856	-0.052416	NaN	0.000000	0.001614	0.001768	28.1169	0.083924	0.002067	40.6111	148.42	-167.647	-0.050230	0.265305	-0.816543	-0.817860	-0.052416	40.6111	-0.815575	-7.314844E+10	7.165761E-13	NaN
15	1.000000	0.274607	7.36519e+06	-39389.1	955.818	-29794.7	0.000000	0.000000	6.274842	-0.056875	NaN	0.000000	0.001597	0.001775	28.1175	0.057796	0.002046	28.2432	-115.534	-166.018	-0.003189	0.273294	-0.808558	-0.809871	-0.056875	28.2432	-0.807047	-5.604153E+10	1.014864E-12	NaN
15	1.000000	0.282640	7.36519e+06	-39389.1	955.818	-29794.7	0.000000	0.000000	6.282874	-0.066784	NaN	0.000000	0.001539	0.001774	28.116	0.092389	0.002002	46.147	109.65	-170.016	-0.029194	0.281338	-0.800525	-0.801827	-0.066784	46.147	-0.799440	-4.418341E+10	1.511519E-12	NaN
15	1.000000	0.290595	7.36519e+06	-39389.1	955.818	-29794.7	0.000000	0.000000	6.290829	-0.043907	NaN	0.000000	0.001563	0.001772	28.1172	0.077354	0.002071	37.3466	-47.9	-166.524	-0.053528	0.289290	-0.792571	-0.793875	-0.043907	37.3466	-0.791689	-3.467531E+10	1.266233E-12	NaN
15	1.000000	0.298636	7.36519e+06	-39389.1	955.818	-29794.7	0.000000	0.000000	6.298869	-0.093059	NaN	0.000000	0.001583	0.001716	28.1173	0.051827	0.001983	26.1341	-122.592	-164.774	-0.084350	0.297261	-0.784529	-0.785904	-0.093059	26.1341	-0.781858	-2.549668E+10	3.649849E-12	NaN
15	1.000000	0.306624	7.36519e+06	-39389.1	955.817	-29794.7	0.000000	0.000000	6.306859	-0.041570	NaN	0.000000	0.001575	0.001722	28.1168	0.117461	0.002030	57.8632	-178.653	-165.335	-0.012762	0.305291	-0.776541	-0.777874	-0.041570	57.8632	-0.776002	-2.122752E+10	1.958321E-12	NaN
15	1.000000	0.314635	7.36519e+06	-39389.1	955.819	-29794.7	0.000000	0.000000	6.314870	-0.045308	NaN	0.000000	0.001605	0.001712	28.1162	0.132237	0.002002	66.0377	-18.7483	-166.112	-0.061187	0.313392	-0.768530	-0.769773	-0.045308	66.0377	-0.768016	-1.653196E+10	2.740621E-12	NaN
15	1.000000	0.322650	7.36519e+06	-39389.1	955.817	-29794.7	0.000000	0.000000	6.322884	-0.070415	NaN	0.000000	0.001611	0.001719	28.116	0.039724	0.002090	19.0033	-176.799	-166.064	-0.084446	0.321283	-0.760515	-0.761883	-0.070415	19.0033	-0.757736	-1.198127E+10	5.877124E-12	NaN
15	1.000000	0.330662	7.36519e+06	-39389.1	955.819	-29794.7	0.000000	0.000000	6.330897	-0.038634	NaN	0.000000	0.001618	0.001745	28.1161	0.024864	0.002106	11.8053	174.702	-167.377	-0.053703	0.329313	-0.752503	-0.753852	-0.038634	11.8053	-0.750048	-9.416227E+9	4.102960E-12	NaN
15	1.000000	0.338628	7.36519e+06	-39389.1	955.818	-29794.7	0.000000	0.000000	6.338863	-0.045813	NaN	0.000000	0.001623	0.001736	28.1162	0.079312	0.002040	38.8764	67.5018	-165.097	-0.151313	0.337343	-0.744537	-0.745822	-0.045813	38.8764	-0.743653	-7.705633E+9	5.945386E-12	NaN
15	1.000000	0.346635	7.36519e+06	-39389.1	955.818	-29794.7	0.000000	0.000000	6.346869	-0.063308	NaN	0.000000	0.001588	0.001757	28.1168	0.062450	0.001917	32.5766	-84.2181	-166.777	-0.030324	0.345294	-0.736530	-0.737871	-0.063308	32.5766	-0.735072	-5.887483E+9	1.075299E-11	NaN
15	1.000000	0.354664	7.36519e+06	-39389.1	955.818	-29794.7	0.000000	0.000000	6.354900	-0.024798	NaN	0.000000	0.001626	0.001737	28.1166	0.046710	0.001917	24.3663	-171.344	-164.587	-0.026121	0.353300	-0.728501	-0.729865	-0.024798	24.3663	-0.727738	-4.677073E+9	5.302062E-12	NaN
15	1.000000	0.362661	7.36519e+06	-39389.1	955.818	-29794.7	0.000000	0.000000	6.362897	-0.012649	NaN	0.000000	0.001627	0.001741	28.1171	0.033944	0.002155	15.7489	-62.4322	-164.942	-0.003780	0.361320	-0.720504	-0.721845	-0.012649	15.7489	-0.719902	-3.657081E+9	3.458799E-12	NaN
15	1.000000	0.370623	7.36519e+06	-39389.1	955.819	-29794.7	0.000000	0.000000	6.370856	-0.093702	NaN	0.000000	0.001598	0.001742	28.1163	0.076159	0.001932	39.4273	-141.361	-165.499	-0.063745	0.369330	-0.712542	-0.713835	-0.093702	39.4273	-0.710760	-2.744196E+9	3.414552E-11	NaN
15	1.000000	0.378669	7.36519e+06	-39389.1	955.818	-29794.7	0.000000	0.000000	6.378904	-0.042261	NaN	0.000000	0.001629	0.001764	28.1166	0.109934	0.001880	58.4703	13.0833	-168.166	-0.128456	0.377309	-0.704496	-0.705856	-0.042261	58.4703	-0.703954	-2.215771E+9	1.907302E-11	NaN
15	1.000000	0.386665	7.36519e+06	-39389.1	955.818	-29794.7	0.000000	0.000000	6.386897	-0.114524	NaN	0.000000	0.001613	0.001758	28.1169	0.119390	0.001919	62.2125	-113.567	-162.109	-0.088430	0.385328	-0.696501	-0.697837	-0.114524	62.2125	-0.695120	-1.678322E+9	6.823702E-11	NaN
15	1.000000	0.394676	7.36519e+06	-39389.1	955.818	-29794.7	0.000000	0.000000	6.394911	-0.031765	NaN	0.000000	0.001613	0.001770	28.1169	0.036914	0.001876	19.6814	166.104	-167.66	-0.068973	0.393392	-0.688489	-0.689773	-0.031765	19.6814	-0.687279	-1.311366E+9	2.422283E-11	NaN
15	1.000000	0.402691	7.36519e+06	-39389.1	955.819	-29794.7	0.000000	0.000000	6.402924	-0.092928	NaN	0.000000	0.001595	0.001719	28.1171	0.045194	0.002100	21.5176	-118.241	-169.313	-0.016474	0.401388	-0.680474	-0.681778	-0.092928	21.5176	-0.677235	-9.558426E+8	9.722086E-11	NaN
15	1.000000	0.410669	7.36519e+06	-39389.1	955.817	-29794.7	0.000000	0.000000	6.410902	-0.083462	NaN	0.000000	0.001599	0.001734	28.1167	0.052032	0.002030	25.6306	53.5129	-165.204	-0.078393	0.409340	-0.672496	-0.673825	-0.083462	25.6306	-0.670054	-7.622972E+8	1.094879E-10	NaN
15	1.000000	0.418681	7.36519e+06	-39389.1	955.818	-29794.7	0.000000	0.000000	6.418916	-0.059379	NaN	0.000000	0.001598	0.001737	28.117	0.069745	0.002037	34.2316	-179.055	-167.196	-0.091076	0.417384	-0.664484	-0.665782	-0.059379	34.2316	-0.663183	-6.138454E+8	9.673212E-11	NaN
15	1.000000	0.426677	7.36519e+06	-39389.1	955.818	-29794.7	0.000000	0.000000	6.426909	-0.108192	NaN	0.000000	0.001588	0.001735	28.1186	0.069453	0.002051	33.8686	10.4737	-164.911	-0.122542	0.425349	-0.656488	-0.657816	-0.108192	33.8686	-0.654092	-4.608189E+8	2.347829E-10	NaN
15	1.000000	0.434698	7.36519e+06	-39389.1	955.818	-29794.7	0.000000	0.000000	6.434933	-0.041321	NaN	0.000000	0.001589	0.001723	28.1182	0.027368	0.002011	13.6073	75.9193	-170.462	-0.003847	0.433374	-0.648467	-0.649791	-0.041321	13.6073	-0.646190	-3.590845E+8	1.150745E-10	NaN
15	1.000000	0.442675	7.36519e+06	-39389.1	955.818	-29794.7	0.000000	0.000000	6.442911	-0.026294	NaN	0.000000	0.001615	0.001747	28.1185	0.062793	0.002020	31.0896	-38.9882	-167.946	0.018272	0.441348	-0.640490	-0.641817	-0.026294	31.0896	-0.639856	-2.939739E+8	8.944402E-11	NaN
15	1.000000	0.450682	7.36519e+06	-39389.1	955.819	-29794.7	0.000000	0.000000	6.450918	-0.012729	NaN	0.000000	0.001613	0.001753	28.1186	0.118283	0.001958	60.4173	-5.852531	-163.357	-0.118382	0.449401	-0.632483	-0.633764	-0.012729	60.4173	-0.632325	-2.317131E+8	5.493375E-11	NaN
15	1.000000	0.458706	7.36519e+06	-39389.1	955.818	-29794.7	0.000000	0.000000	6.458941	-0.038392	NaN	0.000000	0.001640	0.001762	28.1183	0.148985	0.002063	72.2159	64.5316	-167.642	-0.022546	0.457371	-0.624459	-0.625794	-0.038392	72.2159	-0.624060	-1.784146E+8	2.151833E-10	NaN
15	1.000000	0.466685	7.36519e+06	-39389.1	955.819	-29794.7	0.000000	0.000000	6.466917	-0.116589	NaN	0.000000	0.001627	0.001777	28.1169	0.028119	0.001950	14.4228	15.6543	-168.049	-0.166117	0.465443	-0.616480	-0.617722	-0.116589	14.4228	-0.610417	-1.158379E+8	1.006487E-9	NaN
15	1.000000	0.474721	7.36519e+06	-39389.1	955.818	-29794.7	0.000000	0.000000	6.474956	-0.028415	NaN	0.000000	0.001607	0.001777	28.1171	0.071375	0.001912	37.3228	125.114	-165.033	-0.126129	0.473349	-0.608444	-0.609816	-0.028415	37.3228	-0.607873	-1.068694E+8	2.658818E-10	NaN
15	1.000000	0.482714	7.36519e+06	-39389.1	955.818	-29794.7	0.000000	0.000000	6.482948	-0.045762	NaN	0.000000	0.001574	0.001776	28.1173	0.066199	0.002036	32.5154	128.214	-166.17	-0.033431	0.481423	-0.600451	-0.601742	-0.045762	32.5154	-0.599396	-8.168471E+7	5.602261E-10	NaN
15	1.000000	0.490705	7.36519e+06	-39389.1	955.818	-29794.7	0.000000	0.000000	6.490940	-0.024635	NaN	0.000000	0.001597	0.001775	28.1178	0.090824	0.002187	41.5296	-93.4642	-168.421	-0.078039	0.489453	-0.592460	-0.593712	-0.024635	41.5296	-0.592016	-6.463247E+7	3.811488E-10	NaN
15	1.000000	0.498710	7.36519e+06	-39389.1	955.818	-29794.7	0.000000	0.000000	6.498947	0.020071	NaN	0.000000	0.001586	0.001754	28.1177	0.045202	0.002050	22.0486	-101.809	-166.947	-0.005948	0.497424	-0.584455	-0.585742	0.020071	22.0486	-0.585138	-5.195394E+7	-3.863265E-10	NaN
15	1.000000	0.506697	7.36519e+06	-39389.1	955.819	-29794.7	0.000000	0.000000	6.506933	-0.006362	NaN	0.000000	0.001597	0.001770	28.1184	0.075579	0.002003	37.7414	-140.917	-166.076	-0.006251	0.505438	-0.576468	-0.577727	-0.006362	37.7414	-0.576342	-3.928500E+7	1.619486E-10	NaN
15	1.000000	0.514706	7.36519e+06	-39389.1	955.818	-29794.7	0.000000	0.000000	6.514942	-0.020759	NaN	0.000000	0.001611	0.001765	28.1183	0.157563	0.002063	76.3897	-88.2397	-167.616	-0.089557	0.513422	-0.568459	-0.569744	-0.020759	76.3897	-0.568255	-3.037525E+7	6.834167E-10	NaN
15	1.000000	0.522708	7.36519e+06	-39389.1	955.819	-29794.7	0.000000	0.000000	6.522943	-0.022392	NaN	0.000000	0.001594	0.001710	28.1173	0.082478	0.001873	44.0424	114.695	-166.438	-0.045258	0.521385	-0.560457	-0.561780	-0.022392	44.0424	-0.560076	-2.341158E+7	9.564399E-10	NaN
15	1.000000	0.530721	7.36519e+06	-39389.1	955.817	-29794.7	0.000000	0.000000	6.530955	-0.065081	NaN	0.000000	0.001594	0.001754	28.1172	0.061541	0.001812	33.9566	-48.8214	-167.375	-0.142833	0.529403	-0.552444	-0.553762	-0.065081	33.9566	-0.551007	-1.753470E+7	3.711562E-9	NaN
15	1.000000	0.538741	7.36519e+06	-39389.1	955.818	-29794.7	0.000000	0.000000	6.538974	-0.085704	NaN	0.000000	0.001628	0.001741	28.1176	0.083035	0.002069	40.1256	-72.5301	-162.643	-0.062068	0.537431	-0.544424	-0.545734	-0.085704	40.1256	-0.542822	-1.350496E+7	6.346096E-9	NaN
15	1.000000	0.546758	7.36519e+06	-39389.1	955.818	-29794.7	0.000000	0.000000	6.546991	-0.077845	NaN	0.000000	0.001596	0.001717	28.1172	0.120568	0.001963	61.4313	35.5973	-165.882	-0.058293	0.545410	-0.536407	-0.537755	-0.077845	61.4313	-0.535457	-1.067411E+7	7.292836E-9	NaN
15	1.000000	0.554776	7.36519e+06	-39389.1	955.818	-29794.7	0.000000	0.000000	6.555008	-0.127613	NaN	0.000000	0.001602	0.001791	28.1162	0.072078	0.001910	37.738	-89.9345	-167.277	-0.124340	0.553413	-0.528389	-0.529752	-0.127613	37.738	-0.525853	-7.85162e+06	1.625311E-8	NaN
15	1.000000	0.562766	7.36519e+06	-39389.1	955.818	-29794.7	0.000000	0.000000	6.563002	-0.000989	NaN	0.000000	0.001583	0.001766	28.1166	0.086224	0.002032	42.4418	3.135269	-166.347	0.021492	0.561421	-0.520399	-0.521744	-0.000989	42.4418	-0.520382	-6.59037e+06	1.500640E-10	NaN
15	1.000000	0.570750	7.36519e+06	-39389.1	955.818	-29794.7	0.000000	0.000000	6.570984	-0.069726	NaN	0.000000	0.001591	0.001745	28.1165	0.143335	0.002035	70.4452	168.429	-169.349	-0.050180	0.569461	-0.512415	-0.513704	-0.069726	70.4452	-0.511673	-4.98554e+06	1.398561E-8	NaN
15	1.000000	0.578743	7.36519e+06	-39389.1	955.817	-29794.7	0.000000	0.000000	6.578977	-0.046324	NaN	0.000000	0.001601	0.001757	28.1168	0.035698	0.002061	17.3191	65.5202	-167.589	-0.024087	0.577464	-0.504423	-0.505701	-0.046324	17.3191	-0.502416	-3.70445e+06	1.250499E-8	NaN
15	1.000000	0.586746	7.36519e+06	-39389.1	955.818	-29794.7	0.000000	0.000000	6.586982	-0.018758	NaN	0.000000	0.001588	0.001729	28.1176	0.094135	0.002120	44.3931	118.097	-168.872	0.006986	0.585421	-0.496419	-0.497744	-0.018758	44.3931	-0.496102	-3.02431e+06	6.202503E-9	NaN
15	1.000000	0.594764	7.36519e+06	-39389.1	955.818	-29794.7	0.000000	0.000000	6.594999	-0.029682	NaN	0.000000	0.001589	0.001769	28.1176	0.055903	0.001964	28.4667	164.287	-164.24	-0.037591	0.593435	-0.488401	-0.489730	-0.029682	28.4667	-0.487619	-2.30206e+06	1.289365E-8	NaN
15	1.000000	0.602766	7.36519e+06	-39389.1	955.818	-29794.7	0.000000	0.000000	6.602998	-0.099530	NaN	0.000000	0.001613	0.001761	28.1177	0.042618	0.001912	22.288	146.898	-164.539	-0.042695	0.601442	-0.480399	-0.481724	-0.099530	22.288	-0.477050	-1.63765e+06	6.077608E-8	NaN
15	1.000000	0.610814	7.36519e+06	-39389.1	955.818	-29794.7	0.000000	0.000000	6.611048	-0.076757	NaN	0.000000	0.001614	0.001782	28.118	0.091301	0.001856	49.1969	22.911	-166.149	-0.094212	0.609498	-0.472351	-0.473667	-0.076757	49.1969	-0.471181	-1.35508e+06	5.664378E-8	NaN
15	1.000000	0.618751	7.36519e+06	-39389.1	955.818	-29794.7	0.000000	0.000000	6.618984	-0.084400	NaN	0.000000	0.001607	0.001782	28.117	0.049323	0.002077	23.7487	-101.774	-169.09	-0.049917	0.617450	-0.464415	-0.465715	-0.084400	23.7487	-0.461749	-999065	8.447918E-8	NaN
15	1.000000	0.626774	7.36519e+06	-39389.1	955.818	-29794.7	0.000000	0.000000	6.627007	-0.085702	NaN	0.000000	0.001615	0.001766	28.1168	0.039620	0.002008	19.7318	-66.0091	-168.283	-0.067327	0.625490	-0.456391	-0.457675	-0.085702	19.7318	-0.453133	-755880	1.133806E-7	NaN
15	1.000000	0.634760	7.36519e+06	-39389.1	955.818	-29794.7	0.000000	0.000000	6.634995	-0.040760	NaN	0.000000	0.001595	0.001752	28.1167	0.046536	0.001925	24.1717	70.9682	-166.4	-0.076903	0.633398	-0.448405	-0.449767	-0.040760	24.1717	-0.447141	-622393	6.548936E-8	NaN
15	1.000000	0.642752	7.36519e+06	-39389.1	955.818	-29794.7	0.000000	0.000000	6.642986	-0.062186	NaN	0.000000	0.001582	0.001782	28.1169	0.079158	0.002194	36.0845	-117.465	-165.958	-0.102135	0.641485	-0.440414	-0.441680	-0.062186	36.0845	-0.439121	-479685	1.296390E-7	NaN
15	1.000000	0.650767	7.36519e+06	-39389.1	955.819	-29794.7	0.000000	0.000000	6.651004	0.004185	NaN	0.000000	0.001609	0.001785	28.1166	0.028627	0.002030	14.1008	-33.3494	-165.202	-0.102198	0.649456	-0.432398	-0.433710	0.004185	14.1008	-0.432620	-388259	-1.077998E-8	NaN
15	1.000000	0.658767	7.36519e+06	-39389.1	955.818	-29794.7	0.000000	0.000000	6.658998	-0.128781	NaN	0.000000	0.001626	0.001792	28.1173	0.039801	0.001969	20.2181	5.036286	-167.873	-0.041274	0.657483	-0.424398	-0.425682	-0.128781	20.2181	-0.419621	-254120	5.067729E-7	NaN
15	1.000000	0.666794	7.36519e+06	-39389.1	955.818	-29794.7	0.000000	0.000000	6.667029	-0.047454	NaN	0.000000	0.001616	0.001746	28.1192	0.077286	0.001876	41.192	-21.838	-165.427	-0.035185	0.665497	-0.416371	-0.417669	-0.047454	41.192	-0.415507	-222156	2.136056E-7	NaN
15	1.000000	0.674782	7.36519e+06	-39389.1	955.817	-29794.7	0.000000	0.000000	6.675017	-0.038048	NaN	0.000000	0.001601	0.001721	28.1192	0.102327	0.001986	51.5119	112.429	-168.245	-0.078340	0.673468	-0.408383	-0.409697	-0.038048	51.5119	-0.407829	-172789	2.201967E-7	NaN
15	1.000000	0.682829	7.36519e+06	-39389.1	955.817	-29794.7	0.000000	0.000000	6.683062	-0.093302	NaN	0.000000	0.001601	0.001726	28.1186	0.088485	0.002049	43.1895	41.2861	-168.918	-0.052443	0.681451	-0.400336	-0.401714	-0.093302	43.1895	-0.398715	-128136	7.281441E-7	NaN
15	1.000000	0.690805	7.36519e+06	-39389.1	955.82	-29794.7	0.000000	0.000000	6.691043	0.027652	NaN	0.000000	0.001616	0.001753	28.1195	0.037874	0.001874	20.2117	-53.3652	-168.388	-0.013763	0.689481	-0.392360	-0.393684	0.027652	20.2117	-0.393386	-107543	-2.571273E-7	NaN
15	1.000000	0.698801	7.36519e+06	-39389.1	955.818	-29794.7	0.000000	0.000000	6.699034	-0.068541	NaN	0.000000	0.001600	0.001764	28.1201	0.052476	0.001910	27.4695	146.081	-167.061	-0.049046	0.697542	-0.384365	-0.385623	-0.068541	27.4695	-0.382493	-75102.8	9.126272E-7	NaN
15	1.000000	0.706823	7.36519e+06	-39389.1	955.819	-29794.7	0.000000	0.000000	6.707057	-0.070462	NaN	0.000000	0.001584	0.001766	28.1184	0.081794	0.002001	40.8679	-151.43	-167.426	-0.107221	0.705526	-0.376342	-0.377639	-0.070462	40.8679	-0.375049	-58718.9	1.199991E-6	NaN
15	1.000000	0.714801	7.36519e+06	-39389.1	955.818	-29794.7	0.000000	0.000000	6.715035	-0.072906	NaN	0.000000	0.001654	0.001772	28.1179	0.109771	0.002063	53.2088	87.5163	-163.965	-0.036635	0.713475	-0.368364	-0.369690	-0.072906	53.2088	-0.367336	-45472.2	1.603311E-6	NaN
15	1.000000	0.722788	7.36519e+06	-39389.1	955.819	-29794.7	0.000000	0.000000	6.723023	-0.056290	NaN	0.000000	0.001682	0.001783	28.1182	0.044159	0.001923	22.9674	-54.4084	-165.89	-0.080253	0.721469	-0.360377	-0.361696	-0.056290	22.9674	-0.358539	-33940.3	1.658509E-6	NaN
15	1.000000	0.730802	7.36519e+06	-39389.1	955.819	-29794.7	0.000000	0.000000	6.731036	-0.064035	NaN	0.000000	0.001658	0.001755	28.1188	0.109993	0.001975	55.6935	30.7286	-164.684	-0.086760	0.729463	-0.352363	-0.353702	-0.064035	55.6935	-0.351501	-26839.7	2.385852E-6	NaN
15	1.000000	0.738810	7.36519e+06	-39389.1	955.818	-29794.7	0.000000	0.000000	6.739044	-0.050000	NaN	0.000000	0.001694	0.001799	28.1188	0.148609	0.001902	78.151	-83.105	-166.974	-0.042716	0.737494	-0.344356	-0.345671	-0.050000	78.151	-0.343876	-20797	2.404198E-6	NaN
15	1.000000	0.746814	7.36519e+06	-39389.1	955.817	-29794.7	0.000000	0.000000	6.747049	-0.046199	NaN	0.000000	0.001666	0.001768	28.1193	0.002665	0.002143	1.243755	96.2061	-166.119	-0.034500	0.745480	-0.336351	-0.337685	-0.046199	1.243755	-0.308492	-6291.21	7.343469E-6	NaN
15	1.000000	0.754808	7.36519e+06	-39389.1	955.818	-29794.7	0.000000	0.000000	6.755039	-0.143194	NaN	0.000000	0.001667	0.001755	28.1199	0.027831	0.002112	13.1803	154.705	-167.319	-0.077696	0.753494	-0.328357	-0.329671	-0.143194	13.1803	-0.320209	-9369.36	1.528325E-5	NaN
15	1.000000	0.762812	7.36519e+06	-39389.1	955.819	-29794.7	0.000000	0.000000	6.763045	-0.082485	NaN	0.000000	0.001681	0.001760	28.1198	0.041420	0.001891	21.9073	-54.3379	-170.587	-0.076300	0.761474	-0.320353	-0.321691	-0.082485	21.9073	-0.317529	-8555.51	9.641133E-6	NaN
15	1.000000	0.770833	7.36519e+06	-39389.1	955.818	-29794.7	0.000000	0.000000	6.771067	-0.073091	NaN	0.000000	0.001643	0.001753	28.1197	0.095060	0.001956	48.5875	-166.308	-166.927	-0.083863	0.769518	-0.312332	-0.313647	-0.073091	48.5875	-0.311204	-6900.31	1.059237E-5	NaN
15	1.000000	0.778816	7.36519e+06	-39389.1	955.818	-29794.7	0.000000	0.000000	6.779051	-0.036007	NaN	0.000000	0.001625	0.001737	28.1197	0.022412	0.002009	11.1567	-57.5026	-165.978	0.026229	0.777531	-0.304349	-0.305634	-0.036007	11.1567	-0.301928	-5027.2	7.162519E-6	NaN
15	1.000000	0.786817	7.36519e+06	-39389.1	955.819	-29794.7	0.000000	0.000000	6.787050	-0.092442	NaN	0.000000	0.001603	0.001725	28.1182	0.038815	0.001978	19.6225	-38.8118	-165.576	-0.142850	0.785549	-0.296348	-0.297616	-0.092442	19.6225	-0.292815	-3676.49	2.514417E-5	NaN
15	1.000000	0.794849	7.36519e+06	-39389.1	955.818	-29794.7	0.000000	0.000000	6.795081	-0.122325	NaN	0.000000	0.001609	0.001768	28.1178	0.107991	0.002134	50.6048	128.757	-169.218	-0.053431	0.793509	-0.288316	-0.289656	-0.122325	50.6048	-0.286503	-2956.98	4.136825E-5	NaN
15	1.000000	0.802846	7.36519e+06	-39389.1	955.819	-29794.7	0.000000	0.000000	6.803081	-0.051338	NaN	0.000000	0.001605	0.001751	28.1176	0.098426	0.001955	50.3462	-141.867	-166.775	-0.112184	0.801490	-0.280319	-0.281676	-0.051338	50.3462	-0.279554	-2324.04	2.208975E-5	NaN
15	1.000000	0.810834	7.36519e+06	-39389.1	955.818	-29794.7	0.000000	0.000000	6.811064	-0.145347	NaN	0.000000	0.001580	0.001749	28.1175	0.089471	0.001933	46.2762	-12.0263	-164.362	-0.064926	0.809485	-0.272332	-0.273680	-0.145347	46.2762	-0.269976	-1664.09	8.734302E-5	NaN
15	1.000000	0.818847	7.36519e+06	-39389.1	955.818	-29794.7	0.000000	0.000000	6.819080	-0.085443	NaN	0.000000	0.001616	0.001742	28.1178	0.089695	0.001916	46.8053	-64.5854	-162.846	-0.130243	0.817585	-0.264318	-0.265580	-0.085443	46.8053	-0.262949	-1300.36	6.570702E-5	NaN
15	1.000000	0.826849	7.36519e+06	-39389.1	955.818	-29794.7	0.000000	0.000000	6.827083	-0.056076	NaN	0.000000	0.001622	0.001746	28.1186	0.047429	0.002085	22.7469	-58.9472	-164.953	-0.005913	0.825552	-0.256316	-0.257613	-0.056076	22.7469	-0.254467	-963.64	5.819227E-5	NaN
15	1.000000	0.834843	7.36519e+06	-39389.1	955.819	-29794.7	0.000000	0.000000	6.835078	-0.037861	NaN	0.000000	0.001636	0.001764	28.1193	0.094161	0.001932	48.7302	13.4863	-164.824	-0.126917	0.833527	-0.248322	-0.249638	-0.037861	48.7302	-0.247740	-758.527	4.991383E-5	NaN
15	1.000000	0.842862	7.36519e+06	-39389.1	955.819	-29794.7	0.000000	0.000000	6.843094	-0.100034	NaN	0.000000	0.001633	0.001773	28.1189	0.066335	0.002033	32.6227	-160.247	-168.52	-0.050055	0.841527	-0.240303	-0.241638	-0.100034	32.6227	-0.238003	-534.977	0.000187	NaN
15	1.000000	0.850872	7.36519e+06	-39389.1	955.818	-29794.7	0.000000	0.000000	6.851105	-0.088090	NaN	0.000000	0.001619	0.001746	28.1186	0.056574	0.002025	27.9342	-106.216	-165.218	-0.046821	0.849533	-0.232293	-0.233632	-0.088090	27.9342	-0.229928	-399.376	0.000221	NaN
15	1.000000	0.858862	7.36519e+06	-39389.1	955.818	-29794.7	0.000000	0.000000	6.859095	-0.088312	NaN	0.000000	0.001608	0.001749	28.1187	0.062594	0.002022	30.9634	118.448	-168.292	0.008860	0.857571	-0.224303	-0.225594	-0.088312	30.9634	-0.222164	-300.759	0.000294	NaN
15	1.000000	0.866878	7.36519e+06	-39389.1	955.817	-29794.7	0.000000	0.000000	6.867109	-0.147393	NaN	0.000000	0.001620	0.001750	28.118	0.034602	0.001923	17.9932	-20.7856	-167.385	-0.098116	0.865598	-0.216287	-0.217567	-0.147393	17.9932	-0.210143	-192.814	0.000764	NaN
15	1.000000	0.874883	7.36519e+06	-39389.1	955.818	-29794.7	0.000000	0.000000	6.875115	-0.109507	NaN	0.000000	0.001639	0.001736	28.118	0.050089	0.002065	24.2582	22.8083	-165.906	-0.103270	0.873564	-0.208282	-0.209601	-0.109507	24.2582	-0.204897	-158.443	0.000691	NaN
15	1.000000	0.882887	7.36519e+06	-39389.1	955.817	-29794.7	0.000000	0.000000	6.883120	-0.087785	NaN	0.000000	0.001637	0.001748	28.1181	0.054240	0.001963	27.6339	-145.606	-164.054	-0.068803	0.881528	-0.200278	-0.201637	-0.087785	27.6339	-0.197896	-121.634	0.000722	NaN
15	1.000000	0.890878	7.36519e+06	-39389.1	955.818	-29794.7	0.000000	0.000000	6.891109	-0.126567	NaN	0.000000	0.001654	0.001755	28.1177	0.122537	0.001894	64.7005	68.2251	-166.09	-0.096367	0.889536	-0.192287	-0.193629	-0.126567	64.7005	-0.190820	-92.837	0.001363	NaN
15	1.000000	0.898880	7.36519e+06	-39389.1	955.817	-29794.7	0.000000	0.000000	6.899112	-0.134231	NaN	0.000000	0.001659	0.001754	28.1177	0.109567	0.002046	53.5501	-98.2739	-169.657	-0.100147	0.897569	-0.184285	-0.185596	-0.134231	53.5501	-0.182405	-67.0327	0.002002	NaN
15	1.000000	0.906878	7.36519e+06	-39389.1	955.819	-29794.7	0.000000	0.000000	6.907111	-0.068135	NaN	0.000000	0.001615	0.001747	28.1193	0.022507	0.001970	11.4225	148.048	-164.547	-0.119290	0.905524	-0.176288	-0.177641	-0.068135	11.4225	-0.171814	-44.1621	0.001543	NaN
15	1.000000	0.914890	7.36519e+06	-39389.1	955.819	-29794.7	0.000000	0.000000	6.915125	-0.042487	NaN	0.000000	0.001636	0.001731	28.1196	0.014072	0.001993	7.061907	138.301	-166.833	-0.114252	0.913549	-0.168275	-0.169616	-0.042487	7.061907	-0.163763	-31.956	0.001330	NaN
15	1.000000	0.922887	7.36519e+06	-39389.1	955.818	-29794.7	0.000000	0.000000	6.923120	-0.090958	NaN	0.000000	0.001629	0.001735	28.1195	0.092258	0.001924	47.9522	-157.236	-163.309	-0.189168	0.921551	-0.160278	-0.161614	-0.090958	47.9522	-0.158855	-26.1589	0.003477	NaN
15	1.000000	0.930878	7.36519e+06	-39389.1	955.818	-29794.7	0.000000	0.000000	6.931114	-0.024261	NaN	0.000000	0.001636	0.001754	28.1197	0.084888	0.002007	42.294	34.8193	-166.651	0.010251	0.929589	-0.152287	-0.153576	-0.024261	42.294	-0.151857	-19.5784	0.001239	NaN
15	1.000000	0.938890	7.36519e+06	-39389.1	955.818	-29794.7	0.000000	0.000000	6.939127	0.005348	NaN	0.000000	0.001617	0.001749	28.1206	0.043333	0.001913	22.6507	-150.483	-167.369	-0.014173	0.937554	-0.144275	-0.145612	0.005348	22.6507	-0.144452	-14.3224	-0.000373	NaN
15	1.000000	0.946906	7.36519e+06	-39389.1	955.819	-29794.7	0.000000	0.000000	6.947142	-0.002948	NaN	0.000000	0.001611	0.001745	28.1196	0.037854	0.001929	19.6235	22.1599	-165.519	0.015708	0.945573	-0.136259	-0.137592	-0.002948	19.6235	-0.136147	-10.0033	0.000295	NaN
15	1.000000	0.954882	7.36519e+06	-39389.1	955.818	-29794.7	0.000000	0.000000	6.955115	-0.087866	NaN	0.000000	0.001598	0.001756	28.1196	0.081494	0.001958	41.6167	-163.686	-169.428	-0.046853	0.953617	-0.128283	-0.129548	-0.087866	41.6167	-0.126700	-6.569374	0.013375	NaN
15	1.000000	0.962905	7.36519e+06	-39389.1	955.818	-29794.7	0.000000	0.000000	6.963138	-0.088353	NaN	0.000000	0.001623	0.001750	28.1201	0.054974	0.002027	27.1202	-164.098	-162.143	0.002713	0.961598	-0.120260	-0.121567	-0.088353	27.1202	-0.117817	-4.363362	0.020249	NaN
15	1.000000	0.970918	7.36519e+06	-39389.1	955.819	-29794.7	0.000000	0.000000	6.971151	-0.085351	NaN	0.000000	0.001593	0.001772	28.1201	0.066551	0.002113	31.4948	-144.961	-167.457	-0.094189	0.969572	-0.112248	-0.113593	-0.085351	31.4948	-0.110215	-3.036730	0.028106	NaN
15	1.000000	0.978901	7.36519e+06	-39389.1	955.819	-29794.7	0.000000	0.000000	6.979134	-0.082650	NaN	0.000000	0.001610	0.001777	28.1199	0.092828	0.002076	44.7063	-132.317	-166.913	-0.050219	0.977585	-0.104264	-0.105580	-0.082650	44.7063	-0.102878	-2.113912	0.039098	NaN
15	1.000000	0.986920	7.36519e+06	-39389.1	955.821	-29794.7	0.000000	0.000000	6.987155	-0.041125	NaN	0.000000	0.001578	0.001761	28.1208	0.113049	0.001967	57.4707	57.9395	-164.299	-0.015847	0.985635	-0.096245	-0.097530	-0.041125	57.4707	-0.095708	-1.463925	0.028092	NaN
15	1.000000	0.994927	7.36519e+06	-39389.1	955.821	-29794.7	0.000000	0.000000	6.995162	-0.044718	NaN	0.000000	0.001549	0.001804	28.121	0.012695	0.002036	6.235036	-73.5517	-163.458	-0.044997	0.993579	-0.088238	-0.089587	-0.044718	6.235036	-0.082859	-0.728616	0.061374	NaN
15	1.000000	1.002919	7.36519e+06	-39389.1	955.82	-29794.7	0.000000	0.000000	7.003154	-0.049461	NaN	0.000000	0.001564	0.001765	28.1204	0.045362	0.001982	22.89	-49.6331	-169.287	-0.002691	1.001616	-0.080246	-0.081549	-0.049461	22.89	-0.078626	-0.571686	0.086518	NaN
15	1.000000	1.010924	7.36519e+06	-39389.1	955.82	-29794.7	0.000000	0.000000	7.011158	-0.064817	NaN	0.000000	0.001612	0.001749	28.121	0.140789	0.002045	68.8445	140.625	-167.731	-0.137403	1.009619	-0.072241	-0.073546	-0.064817	68.8445	-0.071535	-0.374784	0.172944	NaN
15	1.000000	1.018941	7.36519e+06	-39389.1	955.819	-29794.7	0.000000	0.000000	7.019173	-0.108306	NaN	0.000000	0.001648	0.001777	28.1212	0.037441	0.001917	19.5299	146.772	-167.192	-0.112600	1.017545	-0.064224	-0.065620	-0.108306	19.5299	-0.060065	-0.180870	0.598808	NaN
15	1.000000	1.026939	7.36519e+06	-39389.1	955.82	-29794.7	0.000000	0.000000	7.027171	-0.105974	NaN	0.000000	0.001639	0.001786	28.1202	0.048239	0.002096	23.0124	-115.578	-166.605	-0.176682	1.025632	-0.056227	-0.057533	-0.105974	23.0124	-0.052773	-0.110568	0.958447	NaN
15	1.000000	1.034912	7.36519e+06	-39389.1	955.821	-29794.7	0.000000	0.000000	7.035148	-0.008426	NaN	0.000000	0.001584	0.001791	28.1198	0.033127	0.002035	16.2789	-151.259	-168.826	-0.022992	1.033635	-0.048253	-0.049530	-0.008426	16.2789	-0.047865	-0.078603	0.107200	NaN
15	1.000000	1.042949	7.36519e+06	-39389.1	955.819	-29794.7	0.000000	0.000000	7.043184	-0.058288	NaN	0.000000	0.001571	0.001749	28.1214	0.063281	0.002000	31.6336	139.642	-166.825	-0.066651	1.041598	-0.040216	-0.041567	-0.058288	31.6336	-0.038834	-0.041689	1.398174	NaN
15	1.000000	1.050931	7.36519e+06	-39389.1	955.82	-29794.7	0.000000	0.000000	7.051165	-0.066021	NaN	0.000000	0.001577	0.001715	28.1199	0.076849	0.001922	39.9936	178.633	-165.26	-0.056614	1.049604	-0.032234	-0.033561	-0.066021	39.9936	-0.030996	-0.024542	2.690150	NaN
15	1.000000	1.058960	7.36519e+06	-39389.1	955.819	-29794.7	0.000000	0.000000	7.059195	-0.051511	NaN	0.000000	0.001567	0.001727	28.1202	0.037474	0.001953	19.189	-106.639	-166.513	-0.095582	1.057577	-0.024205	-0.025589	-0.051511	19.189	-0.022192	-0.014281	3.607018	NaN
15	1.000000	1.066927	7.36519e+06	-39389.1	955.82	-29794.7	0.000000	0.000000	7.067161	-0.056364	NaN	0.000000	0.001597	0.001732	28.1204	0.084656	0.001955	43.2916	152.409	-164.897	-0.132974	1.065623	-0.016238	-0.017543	-0.056364	43.2916	-0.015262	-0.009433	5.975348	NaN
15	1.000000	1.074953	7.36519e+06	-39389.1	955.821	-29794.7	0.000000	0.000000	7.075211	0.522024	NaN	0.000000	0.001623	0.001737	28.1201	0.611498	0.002018	303.048	8.101196	-165.996	0.260535	1.073614	-0.008213	-0.009551	0.522024	303.048	-0.009505	-0.006103	-85.5289	NaN
15	1.000000	1.082933	7.36519e+06	-39389.1	955.821	-29794.7	0.000000	0.000000	7.083252	2.003896	NaN	0.000000	0.001567	0.001749	28.1202	1.210810	0.002049	590.901	17.7818	-168.047	1.700891	1.081623	-0.000233	-0.001542	2.003896	590.901	-0.002776	-0.001970	-1017.23	NaN
15	1.000000	1.090804	7.36519e+06	-39389.1	955.82	-29794.7	0.000000	0.000000	7.091392	8.549853	NaN	0.000000	0.001569	0.001758	28.1197	6.068608	0.001675	3623.9	6.519774	-171.397	6.337159	1.089617	0.007639	0.006452	8.549853	3623.9	0.005869	0.004941	1730.54	47104.4
15	2.000000	1.093463	7.36519e+06	-39389.1	955.821	-29794.7	0.000000	0.000000	7.094173	11.5167	NaN	0.000000	0.001582	0.001777	28.1204	8.580572	0.001794	4782.96	4.869513	-171.923	10.6676	1.093170	0.010298	0.010004	11.5167	4782.96	0.008492	0.007553	1524.8	50282.1
15	2.000000	1.095496	7.36519e+06	-39389.1	955.819	-29794.7	0.000000	0.000000	7.096302	13.8707	NaN	0.000000	0.001546	0.001731	28.1189	10.5523	0.001739	6066.56	5.134736	-173.594	13.1768	1.095170	0.012331	0.012005	13.8707	6066.56	0.010616	0.009874	1404.77	55778.8
15	2.000000	1.097429	7.36519e+06	-39389.1	955.819	-29794.7	0.000000	0.000000	7.098367	17.0686	NaN	0.000000	0.001576	0.001771	28.1191	12.2188	0.001682	7263.21	4.178907	-172.523	16.2539	1.097170	0.014264	0.014004	17.0686	7263.21	0.012502	0.012097	1411.03	60335.3
15	2.000000	1.099409	7.36519e+06	-39389.1	955.82	-29794.7	0.000000	0.000000	7.100705	25.785	NaN	0.000000	0.001562	0.001751	28.1194	15.6316	0.001681	9296.36	7.655525	179.271	24.3323	1.099074	0.016244	0.015908	25.785	9296.36	0.014164	0.014186	1817.63	71310.7
15	2.000000	1.101434	7.36519e+06	-39389.1	955.82	-29794.7	0.000000	0.000000	7.102797	27.4133	NaN	0.000000	0.001560	0.001768	28.1194	16.1216	0.001753	9194.1	1.720335	-172.479	26.5244	1.101186	0.018269	0.018021	27.4133	9194.1	0.016033	0.016687	1642.77	65026.4
15	2.000000	1.103409	7.36519e+06	-39389.1	955.82	-29794.7	0.000000	0.000000	7.105150	36.5956	NaN	0.000000	0.001566	0.001747	28.1194	19.5012	0.001809	10778.8	6.010164	-179.975	35.2803	1.103103	0.020244	0.019938	36.5956	10778.8	0.017698	0.019053	1920.71	71344.1
15	2.000000	1.105420	7.36519e+06	-39389.1	955.82	-29794.7	0.000000	0.000000	7.107404	42.5375	NaN	0.000000	0.001570	0.001730	28.1201	20.7371	0.001849	11213.1	2.224443	-175.359	41.2414	1.105121	0.022254	0.021955	42.5375	11213.1	0.019409	0.021622	1967.29	69670.4
15	2.000000	1.107372	7.36519e+06	-39389.1	955.821	-29794.7	0.000000	0.000000	7.109782	52.9026	NaN	0.000000	0.001586	0.001776	28.1207	22.1378	0.001694	13065.6	3.850878	-178.644	51.3657	1.107103	0.024206	0.023938	52.9026	13065.6	0.021170	0.024414	2166.93	76398.7
15	2.000000	1.109392	7.36519e+06	-39389.1	955.82	-29794.7	0.000000	0.000000	7.111996	57.5947	NaN	0.000000	0.001539	0.001773	28.1214	23.7002	0.001622	14607.3	2.625693	-178.299	56.0091	1.109034	0.026227	0.025869	57.5947	14607.3	0.023270	0.027943	2061.13	79837
15	2.000000	1.111391	7.36519e+06	-39389.1	955.821	-29794.7	0.000000	0.000000	7.114288	64.7424	NaN	0.000000	0.001543	0.001815	28.1207	25.4729	0.001730	14721.8	5.224878	179.482	63.9509	1.111061	0.028226	0.027895	64.7424	14721.8	0.024927	0.030884	2096.34	76536.9
15	2.000000	1.113352	7.36519e+06	-39389.1	955.821	-29794.7	0.000000	0.000000	7.116622	73.813	NaN	0.000000	0.001582	0.001817	28.1199	27.3707	0.001905	14369.1	2.824268	-177.453	71.6574	1.113067	0.030187	0.029902	73.813	14369.1	0.026335	0.033488	2204.13	71739.3
15	2.000000	1.115403	7.36519e+06	-39389.1	955.821	-29794.7	0.000000	0.000000	7.118945	80.4308	NaN	0.000000	0.001582	0.001817	28.1195	29.9293	0.001867	16028.1	7.304373	176.603	80.1353	1.115118	0.032238	0.031953	80.4308	16028.1	0.028475	0.037641	2136.77	75478.2
15	2.000000	1.117353	7.36519e+06	-39389.1	955.82	-29794.7	0.000000	0.000000	7.121324	90.873	NaN	0.000000	0.001591	0.001814	28.1196	31.2769	0.001864	16776.4	6.777135	177.405	88.7562	1.117035	0.034188	0.033870	90.873	16776.4	0.030125	0.041003	2216.24	75694.1
15	2.000000	1.119395	7.36519e+06	-39389.1	955.82	-29794.7	0.000000	0.000000	7.123790	101.205	NaN	0.000000	0.001586	0.001734	28.1201	31.9877	0.001856	17232.1	2.533478	-177.796	100.283	1.119024	0.036230	0.035859	101.205	17232.1	0.031825	0.044611	2268.59	74539.9
15	2.000000	1.121386	7.36519e+06	-39389.1	955.821	-29794.7	0.000000	0.000000	7.126175	110.794	NaN	0.000000	0.001561	0.001791	28.1211	32.3799	0.001678	19300.3	0.549255	-178.045	110.19	1.121098	0.038221	0.037933	110.794	19300.3	0.033915	0.049250	2249.6	79457.1
15	2.000000	1.123412	7.36519e+06	-39389.1	955.821	-29794.7	0.000000	0.000000	7.128683	122.509	NaN	0.000000	0.001565	0.001805	28.1203	34.8354	0.001728	20162.9	4.431690	179.569	123.593	1.122989	0.040247	0.039824	122.509	20162.9	0.035690	0.053364	2295.72	79744.7
15	2.000000	1.125373	7.36519e+06	-39389.1	955.82	-29794.7	0.000000	0.000000	7.130900	128.76	NaN	0.000000	0.001572	0.001783	28.1217	37.1501	0.001829	20306.4	3.903679	178.81	127.488	1.125068	0.042208	0.041902	128.76	20306.4	0.037452	0.057609	2235.07	77296.7
15	2.000000	1.127302	7.36519e+06	-39389.1	955.821	-29794.7	0.000000	0.000000	7.133365	141.784	NaN	0.000000	0.001567	0.001808	28.1223	38.565	0.001940	19877.1	4.770860	178.108	137.8	1.126993	0.044137	0.043827	141.784	19877.1	0.038787	0.060931	2326.94	73571
15	2.000000	1.129385	7.36519e+06	-39389.1	955.82	-29794.7	0.000000	0.000000	7.135853	151.636	NaN	0.000000	0.001573	0.001772	28.1224	40.8075	0.001805	22613.3	3.800678	177.867	150.573	1.128955	0.046220	0.045790	151.636	22613.3	0.041190	0.067141	2258.48	79734
15	2.000000	1.131290	7.36519e+06	-39389.1	955.821	-29794.7	0.000000	0.000000	7.138239	163.351	NaN	0.000000	0.001544	0.001816	28.1224	41.5236	0.001759	23611.3	5.756272	175.266	159.668	1.130977	0.048125	0.047811	163.351	23611.3	0.042936	0.071837	2273.92	80485.8
15	2.000000	1.133321	7.36519e+06	-39389.1	955.821	-29794.7	0.000000	0.000000	7.140674	173.177	NaN	0.000000	0.001543	0.001822	28.1219	44.7977	0.001894	23653.1	7.124653	174.584	170.665	1.132998	0.050155	0.049833	173.177	23653.1	0.044664	0.076637	2259.7	78062.4
15	2.000000	1.135378	7.36519e+06	-39389.1	955.82	-29794.7	0.000000	0.000000	7.143251	185.816	NaN	0.000000	0.001595	0.001773	28.1211	45.3562	0.001777	25524.2	1.191858	-179.668	185.281	1.135006	0.052213	0.051841	185.816	25524.2	0.046753	0.082643	2248.43	81119
15	2.000000	1.137312	7.36519e+06	-39389.1	955.821	-29794.7	0.000000	0.000000	7.145466	192.671	NaN	0.000000	0.001561	0.001766	28.121	47.0453	0.001766	26642.4	8.687180	171.089	189.479	1.137011	0.054147	0.053846	192.671	26642.4	0.048723	0.088506	2176.92	81820.1
15	2.000000	1.139285	7.36519e+06	-39389.1	955.822	-29794.7	0.000000	0.000000	7.147755	200.382	NaN	0.000000	0.001582	0.001760	28.1211	49.2481	0.001818	27091.8	2.644360	177.074	197.112	1.139057	0.056119	0.055892	200.382	27091.8	0.050572	0.094190	2127.43	80651.1
15	2.000000	1.141344	7.36519e+06	-39389.1	955.821	-29794.7	0.000000	0.000000	7.150355	213.518	NaN	0.000000	0.001545	0.001757	28.1211	50.5083	0.001749	28875.1	5.307857	174.206	212.734	1.141088	0.058179	0.057923	213.518	28875.1	0.052633	0.100726	2119.79	83123.8
15	2.000000	1.143316	7.36519e+06	-39389.1	955.821	-29794.7	0.000000	0.000000	7.152937	228.371	NaN	0.000000	0.001525	0.001768	28.1211	53.0027	0.001756	30191.1	1.984254	177.373	226.019	1.142936	0.060151	0.059771	228.371	30191.1	0.054478	0.106754	2139.22	84422.9
15	2.000000	1.145403	7.36519e+06	-39389.1	955.82	-29794.7	0.000000	0.000000	7.155307	235.252	NaN	0.000000	0.001499	0.001772	28.1223	55.9584	0.001853	30200.5	6.170520	173.631	236.24	1.145076	0.062238	0.061911	235.252	30200.5	0.056396	0.113202	2078.17	82008.9
15	2.000000	1.147267	7.36519e+06	-39389.1	955.821	-29794.7	0.000000	0.000000	7.157907	253.161	NaN	0.000000	0.001496	0.001764	28.1221	56.5754	0.001768	31997.2	5.076343	174.061	248.006	1.146894	0.064102	0.063729	253.161	31997.2	0.058168	0.119321	2121.68	84630.4
15	2.000000	1.149371	7.36519e+06	-39389.1	955.821	-29794.7	0.000000	0.000000	7.160309	260.434	NaN	0.000000	0.001533	0.001769	28.1223	59.5793	0.001755	33944.4	3.462651	174.865	261.711	1.148960	0.066205	0.065794	260.434	33944.4	0.060451	0.127431	2043.73	86876.8
15	2.000000	1.151283	7.36519e+06	-39389.1	955.819	-29794.7	0.000000	0.000000	7.162988	279.068	NaN	0.000000	0.001542	0.001809	28.1225	60.5304	0.001942	31169.9	4.692056	174.673	274.758	1.150923	0.068118	0.067758	279.068	31169.9	0.061403	0.130889	2132.1	78715
15	2.000000	1.153348	7.36519e+06	-39389.1	955.822	-29794.7	0.000000	0.000000	7.165706	294.966	NaN	0.000000	0.001553	0.001796	28.1218	63.857	0.001884	33893	6.610712	172.224	295.007	1.152903	0.070183	0.069738	294.966	33893	0.063656	0.139242	2118.37	82984.6
15	2.000000	1.155322	7.36519e+06	-39389.1	955.821	-29794.7	0.000000	0.000000	7.168012	303.056	NaN	0.000000	0.001570	0.001779	28.1202	65.2892	0.001801	36246.3	6.855263	171.231	301.794	1.154990	0.072157	0.071825	303.056	36246.3	0.065886	0.147757	2051.04	86151.5
15	2.000000	1.157277	7.36519e+06	-39389.1	955.822	-29794.7	0.000000	0.000000	7.170586	318.126	NaN	0.000000	0.001552	0.001756	28.1203	66.2383	0.001833	36129.3	4.618022	173.522	314.154	1.156983	0.074112	0.073818	318.126	36129.3	0.067508	0.154098	2064.43	84087.9
15	2.000000	1.159331	7.36519e+06	-39389.1	955.821	-29794.7	0.000000	0.000000	7.173304	334.282	NaN	0.000000	0.001598	0.001798	28.1201	67.3532	0.001864	36135.5	2.070511	175.682	334.586	1.159002	0.076166	0.075837	334.282	36135.5	0.069228	0.160961	2076.79	82290.1
15	2.000000	1.161232	7.36519e+06	-39389.1	955.821	-29794.7	0.000000	0.000000	7.176098	356.02	NaN	0.000000	0.001589	0.001801	28.1202	68.3075	0.001894	36071.5	2.038985	176.579	351.567	1.160940	0.078066	0.077775	356.02	36071.5	0.070664	0.166800	2134.42	80693.7
15	2.000000	1.163333	7.36519e+06	-39389.1	955.823	-29794.7	0.000000	0.000000	7.178727	368.851	NaN	0.000000	0.001595	0.001760	28.1203	71.1514	0.001886	37716.9	4.309338	173.854	369.256	1.162941	0.080168	0.079776	368.851	37716.9	0.072833	0.175804	2098.09	82185.4
15	2.000000	1.165315	7.36519e+06	-39389.1	955.823	-29794.7	0.000000	0.000000	7.181406	385.808	NaN	0.000000	0.001621	0.001774	28.1223	73.4268	0.001944	37764.5	7.144421	171.095	383.396	1.164800	0.082150	0.081635	385.808	37764.5	0.074488	0.182821	2110.31	80694.6
15	2.000000	1.167194	7.36519e+06	-39389.1	955.823	-29794.7	0.000000	0.000000	7.183816	398.735	NaN	0.000000	0.001594	0.001760	28.1215	73.2796	0.001808	40521.8	3.040016	174.372	392.52	1.166866	0.084029	0.083701	398.735	40521.8	0.076649	0.192182	2074.78	84451.1
15	2.000000	1.169265	7.36519e+06	-39389.1	955.823	-29794.7	0.000000	0.000000	7.186482	413.215	NaN	0.000000	0.001598	0.001754	28.1214	75.9998	0.001822	41716.2	1.605683	175.229	409.2	1.168994	0.086100	0.085829	413.215	41716.2	0.078671	0.201136	2054.4	84983.1
15	2.000000	1.171288	7.36519e+06	-39389.1	955.822	-29794.7	0.000000	0.000000	7.189152	428.977	NaN	0.000000	0.001546	0.001797	28.1218	77.0773	0.001745	44175.8	4.496353	171.856	426.259	1.170960	0.088122	0.087795	428.977	44175.8	0.080839	0.210955	2033.5	87874.6
15	2.000000	1.173292	7.36519e+06	-39389.1	955.823	-29794.7	0.000000	0.000000	7.191830	445.357	NaN	0.000000	0.001567	0.001811	28.1219	79.2874	0.001746	45423.8	4.888709	170.948	443.577	1.173035	0.090127	0.089870	445.357	45423.8	0.082774	0.219897	2025.3	88500.9
15	2.000000	1.175325	7.36519e+06	-39389.1	955.822	-29794.7	0.000000	0.000000	7.194652	464.567	NaN	0.000000	0.001551	0.001746	28.1205	80.6807	0.001681	48003.7	2.429460	174.271	464.813	1.174986	0.092160	0.091820	464.567	48003.7	0.084902	0.229933	2020.44	91463.4
15	2.000000	1.177250	7.36519e+06	-39389.1	955.821	-29794.7	0.000000	0.000000	7.197412	484.905	NaN	0.000000	0.001560	0.001773	28.1205	82.522	0.001745	47295.5	4.449554	171.372	481.859	1.176922	0.094084	0.093757	484.905	47295.5	0.086395	0.237101	2045.14	88741.5
15	2.000000	1.179187	7.36519e+06	-39389.1	955.822	-29794.7	0.000000	0.000000	7.199807	496.012	NaN	0.000000	0.001570	0.001808	28.1211	85.0097	0.001854	45851.5	5.859104	170.383	489.64	1.178984	0.096022	0.095819	496.012	45851.5	0.087909	0.244473	2028.9	84724.9
15	2.000000	1.181316	7.36519e+06	-39389.1	955.821	-29794.7	0.000000	0.000000	7.202617	512.618	NaN	0.000000	0.001540	0.001798	28.1211	86.4777	0.001681	51454.7	8.341465	166.346	513.205	1.181000	0.098150	0.097835	512.618	51454.7	0.090679	0.258233	1985.1	92510.8
15	2.000000	1.183249	7.36519e+06	-39389.1	955.822	-29794.7	0.000000	0.000000	7.205368	532.515	NaN	0.000000	0.001541	0.001804	28.1208	87.6818	0.001819	48208.5	5.728260	170.194	527.831	1.182857	0.100084	0.099692	532.515	48208.5	0.091799	0.263901	2017.86	85738.6
15	2.000000	1.185340	7.36519e+06	-39389.1	955.823	-29794.7	0.000000	0.000000	7.208161	549.589	NaN	0.000000	0.001509	0.001804	28.1218	90.7493	0.001870	48535.5	8.162050	168.136	550.147	1.184904	0.102175	0.101739	549.589	48535.5	0.093682	0.273553	2009.08	84783.6
15	2.000000	1.187226	7.36519e+06	-39389.1	955.821	-29794.7	0.000000	0.000000	7.210914	570.707	NaN	0.000000	0.001567	0.001795	28.1219	90.2552	0.001606	56210.6	3.372556	172.428	567.972	1.186883	0.104060	0.103718	570.707	56210.6	0.096446	0.288011	1981.55	95694.5
15	2.000000	1.189232	7.36519e+06	-39389.1	955.822	-29794.7	0.000000	0.000000	7.213383	581.963	NaN	0.000000	0.001544	0.001770	28.1234	96.1787	0.001895	50741.9	5.835247	169.775	577.571	1.188961	0.106066	0.105796	581.963	50741.9	0.097465	0.293430	1983.31	85583
15	2.000000	1.190249	7.36519e+06	-39389.1	955.822	-29794.7	0.000000	0.000000	7.215058	597.962	NaN	0.000000	0.001544	0.001788	28.083	94.8348	0.001777	53378	1.333504	174.244	594.699	1.189847	0.107084	0.106682	597.962	53378	0.098682	0.299968	1993.42	89042.7