File: remote_trans/data/nanoindenter/0828-1/data/Data_2025-08-06,11h17m57s/2025-07-22_16-23-58_1_196.txt
2025-07-22, 16:23:58, 1
Index	Phase	Displacement	Time	Pos X	Pos Y	Pos Z	Rot A	Rot B	Piezo Z	Force A	Force B	Gripper	Voltage A	Voltage B	Temperature	Amplitude force	Amplitude pos	Stiffness	Phase shift	Phase excitation	Force A raw	Displacement raw	HMax	HMax raw	Real Force	Real Stiffness	Contact Depth	Area	Hardness	Reduced Mod.
[#]	[#]	[um]	[s]	[um]	[um]	[um]	[m°]	[m°]	[um]	[uN]	[uN]	[V]	[V]	[V]	[°C]	[uN]	[um]	[N/m]	[°]	[°]	[uN]	[um]	[um]	[um]	[uN]	[N/m]	[um]	[um^2]	[MPa]	[MPa]
196	1.000000	0.002951	7.36696e+06	-48439.1	955.817	-29762.9	0.000000	0.000000	6.002821	0.049135	NaN	0.000000	0.001516	0.001814	28.08	0.038236	0.000988	38.6979	-173.518	-165.72	0.015337	0.001728	-1.040308	-1.041531	0.049135	38.6979	-1.041260	-8.145424E+13	-6.032177E-16	NaN
196	1.000000	0.010912	7.36696e+06	-48439.1	955.819	-29762.9	0.000000	0.000000	6.010783	0.048652	NaN	0.000000	0.001571	0.001785	28.0793	0.108108	0.000983	109.967	100.401	-158.355	0.068091	0.009580	-1.032347	-1.033678	0.048652	109.967	-1.032678	-6.244632E+13	-7.790970E-16	NaN
196	1.000000	0.018913	7.36696e+06	-48439.1	955.819	-29762.9	0.000000	0.000000	6.018782	0.020216	NaN	0.000000	0.001531	0.001796	28.0793	0.117067	0.001744	67.1106	122.9	-164.284	0.019500	0.017616	-1.024346	-1.025642	0.020216	67.1106	-1.024572	-4.858037E+13	-4.161390E-16	NaN
196	1.000000	0.026923	7.36696e+06	-48439.1	955.819	-29762.9	0.000000	0.000000	6.026791	-0.007330	NaN	0.000000	0.001551	0.001866	28.0794	0.041169	0.001815	22.6815	-48.7801	-165.399	0.010104	0.025611	-1.016336	-1.017648	-0.007330	22.6815	-1.016093	-3.735803E+13	1.962163E-16	NaN
196	1.000000	0.034925	7.36696e+06	-48439.1	955.818	-29762.9	0.000000	0.000000	6.034796	0.064744	NaN	0.000000	0.001560	0.001826	28.0792	0.087755	0.002032	43.1878	79.1477	-167.045	0.023707	0.033545	-1.008333	-1.009713	0.064744	43.1878	-1.009458	-3.041473E+13	-2.128708E-15	NaN
196	1.000000	0.042898	7.36696e+06	-48439.1	955.819	-29762.9	0.000000	0.000000	6.042767	0.015312	NaN	0.000000	0.001572	0.001771	28.0794	0.098124	0.001879	52.2248	-125.256	-165.546	0.037546	0.041647	-1.000361	-1.001612	0.015312	52.2248	-1.000581	-2.309872E+13	-6.629124E-16	NaN
196	1.000000	0.050894	7.36696e+06	-48439.1	955.819	-29762.9	0.000000	0.000000	6.050764	0.034017	NaN	0.000000	0.001677	0.001783	28.0795	0.117102	0.001952	59.9936	116.043	-162.359	0.007491	0.049578	-0.992365	-0.993681	0.034017	59.9936	-0.992790	-1.814208E+13	-1.875038E-15	NaN
196	1.000000	0.058900	7.36696e+06	-48439.1	955.818	-29762.9	0.000000	0.000000	6.058769	0.003397	NaN	0.000000	0.001689	0.001812	28.0794	0.077387	0.001971	39.2639	117.996	-164.998	-0.060878	0.057576	-0.984358	-0.985683	0.003397	39.2639	-0.984423	-1.399570E+13	-2.427448E-16	NaN
196	1.000000	0.066888	7.36696e+06	-48439.1	955.818	-29762.9	0.000000	0.000000	6.066757	0.002119	NaN	0.000000	0.001674	0.001815	28.0791	0.013430	0.001903	7.056749	-135.561	-163.541	0.038114	0.065597	-0.976370	-0.977662	0.002119	7.056749	-0.976596	-1.097846E+13	-1.929739E-16	NaN
196	1.000000	0.074894	7.36696e+06	-48439.1	955.819	-29762.9	0.000000	0.000000	6.074763	0.031172	NaN	0.000000	0.001658	0.001837	28.0781	0.038618	0.002098	18.4053	58.0975	-161.448	-0.003922	0.073581	-0.968365	-0.969677	0.031172	18.4053	-0.969635	-8.846035E+12	-3.523887E-15	NaN
196	1.000000	0.082901	7.36696e+06	-48439.1	955.818	-29762.9	0.000000	0.000000	6.082771	0.029440	NaN	0.000000	0.001687	0.001803	28.0784	0.117595	0.001953	60.2099	-18.0805	-165.755	-0.043437	0.081626	-0.960358	-0.961633	0.029440	60.2099	-0.960725	-6.708684E+12	-4.388280E-15	NaN
196	1.000000	0.090935	7.36696e+06	-48439.1	955.818	-29762.9	0.000000	0.000000	6.090802	-0.050062	NaN	0.000000	0.001663	0.001795	28.0781	0.049133	0.001998	24.5921	-167.915	-165.044	-0.004730	0.089605	-0.952323	-0.953653	-0.050062	24.5921	-0.950797	-4.929140E+12	1.015628E-14	NaN
196	1.000000	0.098871	7.36696e+06	-48439.1	955.818	-29762.9	0.000000	0.000000	6.098739	-0.004098	NaN	0.000000	0.001651	0.001779	28.0782	0.116733	0.001902	61.382	-82.8032	-164.986	-0.003977	0.097561	-0.944388	-0.945697	-0.004098	61.382	-0.944338	-4.033229E+12	1.016151E-15	NaN
196	1.000000	0.106922	7.36696e+06	-48439.1	955.818	-29762.9	0.000000	0.000000	6.106791	0.004860	NaN	0.000000	0.001590	0.001819	28.0779	0.054273	0.002024	26.8148	-149.818	-165.603	-0.056025	0.105590	-0.936336	-0.937668	0.004860	26.8148	-0.936472	-3.158913E+12	-1.538594E-15	NaN
196	1.000000	0.114896	7.36696e+06	-48439.1	955.819	-29762.9	0.000000	0.000000	6.114766	0.021264	NaN	0.000000	0.001586	0.001803	28.0781	0.051066	0.002080	24.5516	-127.577	-161.923	-0.000991	0.113619	-0.928362	-0.929639	0.021264	24.5516	-0.929012	-2.505296E+12	-8.487480E-15	NaN
196	1.000000	0.122897	7.36696e+06	-48439.1	955.818	-29762.9	0.000000	0.000000	6.122766	0.006915	NaN	0.000000	0.001609	0.001788	28.0783	0.066015	0.001875	35.2164	179.526	-164	0.061444	0.121568	-0.920361	-0.921691	0.006915	35.2164	-0.920509	-1.923413E+12	-3.594966E-15	NaN
196	1.000000	0.130908	7.36696e+06	-48439.1	955.819	-29762.9	0.000000	0.000000	6.130775	-0.018165	NaN	0.000000	0.001653	0.001783	28.0782	0.104701	0.002064	50.731	-88.817	-168.075	-0.004827	0.129635	-0.912351	-0.913624	-0.018165	50.731	-0.912082	-1.480094E+12	1.227289E-14	NaN
196	1.000000	0.138929	7.36696e+06	-48439.1	955.818	-29762.9	0.000000	0.000000	6.138799	0.032951	NaN	0.000000	0.001582	0.001747	28.0782	0.034616	0.002067	16.7484	-5.114507	-165.915	0.078515	0.137605	-0.904329	-0.905653	0.032951	16.7484	-0.905805	-1.217572E+12	-2.706259E-14	NaN
196	1.000000	0.146914	7.36696e+06	-48439.1	955.819	-29762.9	0.000000	0.000000	6.146783	0.020812	NaN	0.000000	0.001599	0.001769	28.078	0.024735	0.002124	11.6466	-39.2805	-166.855	-0.005683	0.145609	-0.896345	-0.897649	0.020812	11.6466	-0.897685	-9.457761E+11	-2.200565E-14	NaN
196	1.000000	0.154962	7.36696e+06	-48439.1	955.819	-29762.9	0.000000	0.000000	6.154829	-0.035542	NaN	0.000000	0.001583	0.001813	28.078	0.030943	0.001968	15.7219	-128.914	-168.821	0.049576	0.153611	-0.888296	-0.889647	-0.035542	15.7219	-0.886601	-6.698291E+11	5.306082E-14	NaN
196	1.000000	0.162929	7.36696e+06	-48439.1	955.819	-29762.9	0.000000	0.000000	6.162798	0.006084	NaN	0.000000	0.001628	0.001772	28.0781	0.082897	0.001977	41.941	12.4478	-164.955	-0.045072	0.161623	-0.880330	-0.881635	0.006084	41.941	-0.880439	-5.528907E+11	-1.100327E-14	NaN
196	1.000000	0.170930	7.36696e+06	-48439.1	955.819	-29762.9	0.000000	0.000000	6.170799	0.021396	NaN	0.000000	0.001631	0.001794	28.0781	0.054625	0.001998	27.3405	161.499	-164.482	0.051807	0.169634	-0.872329	-0.873624	0.021396	27.3405	-0.872916	-4.374119E+11	-4.891409E-14	NaN
196	1.000000	0.178935	7.36696e+06	-48439.1	955.819	-29762.9	0.000000	0.000000	6.178803	-0.012885	NaN	0.000000	0.001631	0.001784	28.0781	0.015356	0.002102	7.306419	86.907	-163.049	0.035349	0.177634	-0.864324	-0.865625	-0.012885	7.306419	-0.863001	-3.211710E+11	4.011861E-14	NaN
196	1.000000	0.186935	7.36696e+06	-48439.1	955.819	-29762.9	0.000000	0.000000	6.186803	-0.018258	NaN	0.000000	0.001614	0.001760	28.0783	0.026786	0.001981	13.5246	-5.716891	-167.387	-0.017231	0.185629	-0.856324	-0.857629	-0.018258	13.5246	-0.855311	-2.527265E+11	7.224238E-14	NaN
196	1.000000	0.194936	7.36696e+06	-48439.1	955.819	-29762.9	0.000000	0.000000	6.194807	0.041804	NaN	0.000000	0.001642	0.001794	28.0781	0.027825	0.002033	13.6877	161.781	-163.545	0.038344	0.193611	-0.848322	-0.849647	0.041804	13.6877	-0.850613	-2.182926E+11	-1.915054E-13	NaN
196	1.000000	0.202944	7.36696e+06	-48439.1	955.818	-29762.9	0.000000	0.000000	6.202815	0.067410	NaN	0.000000	0.001640	0.001781	28.0782	0.032411	0.002058	15.7454	-45.6681	-163.948	0.042894	0.201596	-0.840315	-0.841663	0.067410	15.7454	-0.843526	-1.750054E+11	-3.851870E-13	NaN
196	1.000000	0.210959	7.36696e+06	-48439.1	955.818	-29762.9	0.000000	0.000000	6.210826	-0.057729	NaN	0.000000	0.001663	0.001746	28.0793	0.056212	0.001970	28.5319	-56.4144	-165.22	-0.172727	0.209646	-0.832299	-0.833612	-0.057729	28.5319	-0.830782	-1.175927E+11	4.909264E-13	NaN
196	1.000000	0.218953	7.36696e+06	-48439.1	955.817	-29762.9	0.000000	0.000000	6.218822	0.016116	NaN	0.000000	0.001664	0.001724	28.0794	0.096430	0.002064	46.7115	-145.161	-166.553	-0.049001	0.217689	-0.824306	-0.825569	0.016116	46.7115	-0.824565	-9.685052E+10	-1.664059E-13	NaN
196	1.000000	0.226942	7.36696e+06	-48439.1	955.819	-29762.9	0.000000	0.000000	6.226812	0.017072	NaN	0.000000	0.001673	0.001724	28.0794	0.177830	0.001876	94.7942	93.0795	-164.551	-0.059410	0.225637	-0.816316	-0.817621	0.017072	94.7942	-0.816451	-7.517689E+10	-2.270913E-13	NaN
196	1.000000	0.234975	7.36696e+06	-48439.1	955.819	-29762.9	0.000000	0.000000	6.234844	0.003820	NaN	0.000000	0.001635	0.001760	28.0793	0.181649	0.001855	97.9308	-125.577	-167.9	-0.005528	0.233677	-0.808284	-0.809582	0.003820	97.9308	-0.808313	-5.830189E+10	-6.552449E-14	NaN
196	1.000000	0.242960	7.36696e+06	-48439.1	955.819	-29762.9	0.000000	0.000000	6.242825	-0.076193	NaN	0.000000	0.001660	0.001776	28.0793	0.124068	0.001869	66.3647	160.781	-167.24	-0.001356	0.241669	-0.800299	-0.801589	-0.076193	66.3647	-0.799438	-4.418070E+10	1.724583E-12	NaN
196	1.000000	0.250946	7.36696e+06	-48439.1	955.818	-29762.9	0.000000	0.000000	6.250817	0.052925	NaN	0.000000	0.001682	0.001755	28.0791	0.100951	0.001964	51.3977	-67.577	-164.824	0.030466	0.249676	-0.792312	-0.793583	0.052925	51.3977	-0.793084	-3.622193E+10	-1.461137E-12	NaN
196	1.000000	0.258989	7.36696e+06	-48439.1	955.819	-29762.9	0.000000	0.000000	6.258855	-0.065029	NaN	0.000000	0.001679	0.001746	28.0793	0.088513	0.002005	44.1569	-132.329	-168.565	-0.063796	0.257632	-0.784269	-0.785626	-0.065029	44.1569	-0.783165	-2.656042E+10	2.448354E-12	NaN
196	1.000000	0.266990	7.36696e+06	-48439.1	955.819	-29762.9	0.000000	0.000000	6.266860	0.038687	NaN	0.000000	0.001679	0.001765	28.0792	0.089421	0.002020	44.2611	81.6876	-165.291	0.000410	0.265695	-0.776269	-0.777564	0.038687	44.2611	-0.776924	-2.184906E+10	-1.770642E-12	NaN
196	1.000000	0.274971	7.36696e+06	-48439.1	955.819	-29762.9	0.000000	0.000000	6.274838	-0.029576	NaN	0.000000	0.001668	0.001761	28.0795	0.057202	0.002003	28.558	-56.401	-165.451	0.019659	0.273684	-0.768288	-0.769575	-0.029576	28.558	-0.767511	-1.627292E+10	1.817471E-12	NaN
196	1.000000	0.282962	7.36696e+06	-48439.1	955.818	-29762.9	0.000000	0.000000	6.282832	0.037888	NaN	0.000000	0.001669	0.001770	28.0796	0.048594	0.001951	24.9013	-167.465	-164.495	0.011829	0.281662	-0.760296	-0.761596	0.037888	24.9013	-0.761438	-1.345424E+10	-2.816098E-12	NaN
196	1.000000	0.290995	7.36696e+06	-48439.1	955.819	-29762.9	0.000000	0.000000	6.290864	0.011748	NaN	0.000000	0.001651	0.001749	28.0794	0.077532	0.001899	40.8224	119.568	-162.759	0.131515	0.289709	-0.752264	-0.753550	0.011748	40.8224	-0.752480	-1.016187E+10	-1.156075E-12	NaN
196	1.000000	0.298957	7.36696e+06	-48439.1	955.817	-29762.9	0.000000	0.000000	6.298824	-0.037686	NaN	0.000000	0.001639	0.001765	28.0793	0.135085	0.002067	65.3401	41.5518	-165.26	-0.016985	0.297711	-0.744302	-0.745547	-0.037686	65.3401	-0.743869	-7.757976E+9	4.857728E-12	NaN
196	1.000000	0.306990	7.36696e+06	-48439.1	955.818	-29762.9	0.000000	0.000000	6.306861	0.052828	NaN	0.000000	0.001655	0.001763	28.0794	0.078654	0.002042	38.5181	-123.335	-165.63	0.123120	0.305663	-0.736269	-0.737595	0.052828	38.5181	-0.737297	-6.313054E+9	-8.368125E-12	NaN
196	1.000000	0.314981	7.36696e+06	-48439.1	955.819	-29762.9	0.000000	0.000000	6.314848	-0.041025	NaN	0.000000	0.001653	0.001806	28.0795	0.141848	0.001894	74.8983	-100.087	-164.36	-0.132199	0.313635	-0.728278	-0.729623	-0.041025	74.8983	-0.727867	-4.696093E+9	8.736030E-12	NaN
196	1.000000	0.323024	7.36696e+06	-48439.1	955.819	-29762.9	0.000000	0.000000	6.322891	-0.048725	NaN	0.000000	0.001650	0.001761	28.0794	0.053659	0.002137	25.1085	31.0432	-164.829	0.028726	0.321675	-0.720235	-0.721584	-0.048725	25.1085	-0.718779	-3.530380E+9	1.380175E-11	NaN
196	1.000000	0.331004	7.36696e+06	-48439.1	955.818	-29762.9	0.000000	0.000000	6.330874	0.039353	NaN	0.000000	0.001664	0.001798	28.0794	0.007128	0.002008	3.549136	-155.288	-163.743	-0.012728	0.329709	-0.712255	-0.713550	0.039353	3.549136	-0.720571	-3.734704E+9	-1.053710E-11	NaN
196	1.000000	0.338992	7.36696e+06	-48439.1	955.818	-29762.9	0.000000	0.000000	6.338861	0.016692	NaN	0.000000	0.001666	0.001819	28.079	0.024091	0.002076	11.6047	-40.3165	-165.671	-0.095204	0.337690	-0.704267	-0.705568	0.016692	11.6047	-0.705346	-2.314849E+9	-7.211050E-12	NaN
196	1.000000	0.346990	7.36696e+06	-48439.1	955.818	-29762.9	0.000000	0.000000	6.346859	0.007627	NaN	0.000000	0.001606	0.001808	28.078	0.113436	0.001989	57.0389	119.077	-163.761	-0.069069	0.345682	-0.696268	-0.697576	0.007627	57.0389	-0.696368	-1.745546E+9	-4.369547E-12	NaN
196	1.000000	0.355018	7.36696e+06	-48439.1	955.818	-29762.9	0.000000	0.000000	6.354886	-0.016115	NaN	0.000000	0.001595	0.001825	28.0781	0.099951	0.002060	48.5085	-134.274	-166.659	-0.044063	0.353643	-0.688241	-0.689616	-0.016115	48.5085	-0.687992	-1.341132E+9	1.201617E-11	NaN
196	1.000000	0.363034	7.36696e+06	-48439.1	955.818	-29762.9	0.000000	0.000000	6.362904	0.014399	NaN	0.000000	0.001591	0.001793	28.078	0.166951	0.001826	91.4056	17.699	-167.454	-0.005691	0.361743	-0.680224	-0.681515	0.014399	91.4056	-0.680342	-1.054115E+9	-1.365944E-11	NaN
196	1.000000	0.371009	7.36696e+06	-48439.1	955.818	-29762.9	0.000000	0.000000	6.370881	0.074558	NaN	0.000000	0.001610	0.001783	28.0782	0.071976	0.001918	37.5299	20.4309	-165.354	0.080125	0.369760	-0.672249	-0.673498	0.074558	37.5299	-0.673739	-8.561716E+8	-8.708262E-11	NaN
196	1.000000	0.379014	7.36696e+06	-48439.1	955.817	-29762.9	0.000000	0.000000	6.378882	-0.001661	NaN	0.000000	0.001605	0.001753	28.0785	0.078520	0.002030	38.6834	-106.552	-162.033	-0.009557	0.377738	-0.664245	-0.665521	-0.001661	38.6834	-0.664213	-6.341044E+8	2.619035E-12	NaN
196	1.000000	0.387033	7.36696e+06	-48439.1	955.818	-29762.9	0.000000	0.000000	6.386901	-0.004729	NaN	0.000000	0.001574	0.001779	28.078	0.034022	0.001950	17.4484	-67.3465	-164.774	0.032024	0.385747	-0.656226	-0.657512	-0.004729	17.4484	-0.656023	-4.897548E+8	9.654976E-12	NaN
196	1.000000	0.395048	7.36696e+06	-48439.1	955.817	-29762.9	0.000000	0.000000	6.394919	0.053201	NaN	0.000000	0.001574	0.001770	28.078	0.070080	0.001962	35.7115	179.266	-162.993	0.018191	0.393705	-0.648210	-0.649553	0.053201	35.7115	-0.649328	-3.964791E+8	-1.341833E-10	NaN
196	1.000000	0.403015	7.36696e+06	-48439.1	955.818	-29762.9	0.000000	0.000000	6.402885	0.024161	NaN	0.000000	0.001573	0.001800	28.0781	0.099458	0.001949	51.0234	139.045	-165.209	-0.070764	0.401779	-0.640244	-0.641480	0.024161	51.0234	-0.640599	-3.009578E+8	-8.028097E-11	NaN
196	1.000000	0.411041	7.36696e+06	-48439.1	955.819	-29762.9	0.000000	0.000000	6.410907	-0.055168	NaN	0.000000	0.001590	0.001740	28.0783	0.074061	0.002041	36.2908	-125.354	-163.341	0.035043	0.409740	-0.632218	-0.633518	-0.055168	36.2908	-0.631078	-2.227526E+8	2.476640E-10	NaN
196	1.000000	0.419025	7.36696e+06	-48439.1	955.818	-29762.9	0.000000	0.000000	6.418896	0.047601	NaN	0.000000	0.001640	0.001701	28.0797	0.083382	0.001949	42.7818	-167.446	-167.037	-0.024205	0.417697	-0.624233	-0.625562	0.047601	42.7818	-0.625068	-1.841939E+8	-2.584275E-10	NaN
196	1.000000	0.427051	7.36696e+06	-48439.1	955.819	-29762.9	0.000000	0.000000	6.426920	0.010081	NaN	0.000000	0.001596	0.001670	28.082	0.081743	0.002034	40.1926	167.347	-163.125	-0.021018	0.425684	-0.616208	-0.617575	0.010081	40.1926	-0.616396	-1.399857E+8	-7.201715E-11	NaN
196	1.000000	0.435017	7.36696e+06	-48439.1	955.818	-29762.9	0.000000	0.000000	6.434884	-0.039639	NaN	0.000000	0.001593	0.001696	28.0789	0.050383	0.001991	25.3067	-73.4756	-165.171	-0.035651	0.433733	-0.608241	-0.609526	-0.039639	25.3067	-0.607067	-1.041713E+8	3.805144E-10	NaN
196	1.000000	0.443065	7.36696e+06	-48439.1	955.818	-29762.9	0.000000	0.000000	6.442933	-0.011425	NaN	0.000000	0.001545	0.001725	28.0786	0.057186	0.002099	27.2506	-125.139	-163.584	0.033377	0.441773	-0.600194	-0.601486	-0.011425	27.2506	-0.599879	-8.294610E+7	1.377366E-10	NaN
196	1.000000	0.451030	7.36696e+06	-48439.1	955.818	-29762.9	0.000000	0.000000	6.450898	-0.026503	NaN	0.000000	0.001584	0.001699	28.0782	0.084744	0.002097	40.4173	-168.741	-162.231	0.016723	0.449740	-0.592228	-0.593518	-0.026503	40.4173	-0.591737	-6.406276E+7	4.136972E-10	NaN
196	1.000000	0.459086	7.36696e+06	-48439.1	955.818	-29762.9	0.000000	0.000000	6.458958	0.075003	NaN	0.000000	0.001589	0.001727	28.0781	0.088595	0.002056	43.0968	97.1642	-167.334	0.048197	0.457792	-0.584172	-0.585466	0.075003	43.0968	-0.585478	-5.251753E+7	-1.428160E-9	NaN
196	1.000000	0.467086	7.36696e+06	-48439.1	955.819	-29762.9	0.000000	0.000000	6.466955	0.026844	NaN	0.000000	0.001614	0.001709	28.0779	0.018203	0.002068	8.802959	173.377	-163.901	0.028028	0.465762	-0.576173	-0.577496	0.026844	8.802959	-0.578460	-4.202122E+7	-6.388101E-10	NaN
196	1.000000	0.475041	7.36696e+06	-48439.1	955.819	-29762.9	0.000000	0.000000	6.474909	-0.003876	NaN	0.000000	0.001592	0.001707	28.0784	0.047503	0.001991	23.864	25.3245	-161.941	-0.034106	0.473732	-0.568218	-0.569527	-0.003876	23.864	-0.568096	-3.022187E+7	1.282584E-10	NaN
196	1.000000	0.483067	7.36696e+06	-48439.1	955.818	-29762.9	0.000000	0.000000	6.482938	0.061469	NaN	0.000000	0.001612	0.001688	28.0792	0.061293	0.002016	30.4094	-97.1183	-164.46	0.106081	0.481727	-0.560191	-0.561531	0.061469	30.4094	-0.561708	-2.466021E+7	-2.492624E-9	NaN
196	1.000000	0.491072	7.36696e+06	-48439.1	955.818	-29762.9	0.000000	0.000000	6.490943	0.056439	NaN	0.000000	0.001594	0.001739	28.0794	0.031507	0.001973	15.9729	53.9514	-163.181	-0.006689	0.489779	-0.552187	-0.553480	0.056439	15.9729	-0.554837	-1.981197E+7	-2.848748E-9	NaN
196	1.000000	0.499093	7.36696e+06	-48439.1	955.818	-29762.9	0.000000	0.000000	6.498962	0.028167	NaN	0.000000	0.001602	0.001698	28.0803	0.079395	0.001841	43.1253	-16.2867	-166.851	0.020527	0.497769	-0.544166	-0.545490	0.028167	43.1253	-0.544656	-1.431886E+7	-1.967111E-9	NaN
196	1.000000	0.507122	7.36696e+06	-48439.1	955.818	-29762.9	0.000000	0.000000	6.506993	0.060388	NaN	0.000000	0.001604	0.001688	28.0794	0.051266	0.001971	26.0153	-163.019	-164.82	0.050497	0.505757	-0.536136	-0.537501	0.060388	26.0153	-0.537877	-1.153227E+7	-5.236450E-9	NaN
196	1.000000	0.515082	7.36696e+06	-48439.1	955.819	-29762.9	0.000000	0.000000	6.514952	0.035313	NaN	0.000000	0.001606	0.001744	28.0799	0.091816	0.002066	44.4383	-18.7519	-165.45	0.076853	0.513768	-0.528177	-0.529491	0.035313	44.4383	-0.528773	-8.62039e+06	-4.096483E-9	NaN
196	1.000000	0.523094	7.36696e+06	-48439.1	955.818	-29762.9	0.000000	0.000000	6.522962	-0.026811	NaN	0.000000	0.001582	0.001744	28.0793	0.106123	0.002030	52.2817	-87.737	-165.461	-0.067468	0.521791	-0.520164	-0.521467	-0.026811	52.2817	-0.519780	-6.46449e+06	4.147396E-9	NaN
196	1.000000	0.531119	7.36696e+06	-48439.1	955.818	-29762.9	0.000000	0.000000	6.530985	-0.070382	NaN	0.000000	0.001585	0.001706	28.0795	0.113561	0.002010	56.5074	-93.5269	-165.388	-0.018236	0.529759	-0.512140	-0.513499	-0.070382	56.5074	-0.511205	-4.91139e+06	1.433034E-8	NaN
196	1.000000	0.539084	7.36696e+06	-48439.1	955.819	-29762.9	0.000000	0.000000	6.538953	0.011912	NaN	0.000000	0.001611	0.001731	28.0792	0.015566	0.002013	7.733215	-102.925	-165.553	0.005781	0.537771	-0.504175	-0.505487	0.011912	7.733215	-0.505330	-4.06766e+06	-2.928415E-9	NaN
196	1.000000	0.547111	7.36696e+06	-48439.1	955.818	-29762.9	0.000000	0.000000	6.546978	-0.052559	NaN	0.000000	0.001685	0.001664	28.0794	0.008340	0.002140	3.897838	-58.4673	-160.907	-0.008337	0.545757	-0.496147	-0.497501	-0.052559	3.897838	-0.486034	-2.18753e+06	2.402660E-8	NaN
196	1.000000	0.555079	7.36696e+06	-48439.1	955.818	-29762.9	0.000000	0.000000	6.554949	0.018795	NaN	0.000000	0.001725	0.001709	28.0794	0.045270	0.002057	22.0074	-121.617	-165.657	0.010918	0.553788	-0.488179	-0.489471	0.018795	22.0074	-0.488820	-2.39276e+06	-7.855142E-9	NaN
196	1.000000	0.563103	7.36696e+06	-48439.1	955.818	-29762.9	0.000000	0.000000	6.562974	0.040053	NaN	0.000000	0.001671	0.001678	28.0792	0.068542	0.002035	33.6826	-135.664	-163.507	0.009540	0.561800	-0.480155	-0.481459	0.040053	33.6826	-0.481047	-1.86287e+06	-2.150084E-8	NaN
196	1.000000	0.571108	7.36696e+06	-48439.1	955.818	-29762.9	0.000000	0.000000	6.570975	-0.043350	NaN	0.000000	0.001693	0.001706	28.0795	0.037802	0.001907	19.8219	-172.723	-165.046	-0.045917	0.569769	-0.472151	-0.473489	-0.043350	19.8219	-0.470511	-1.32608e+06	3.269040E-8	NaN
196	1.000000	0.579116	7.36696e+06	-48439.1	955.819	-29762.9	0.000000	0.000000	6.578990	0.142335	NaN	0.000000	0.001662	0.001724	28.0793	0.054365	0.002077	26.1793	50.5658	-163.286	0.088530	0.577799	-0.464143	-0.465459	0.142335	26.1793	-0.468221	-1.23154e+06	-1.155753E-7	NaN
196	1.000000	0.587104	7.36696e+06	-48439.1	955.818	-29762.9	0.000000	0.000000	6.586971	-0.031200	NaN	0.000000	0.001654	0.001717	28.0795	0.018199	0.001957	9.298857	0.313541	-167.068	-0.099265	0.585831	-0.456155	-0.457428	-0.031200	9.298857	-0.453638	-768347	4.060665E-8	NaN
196	1.000000	0.595113	7.36696e+06	-48439.1	955.818	-29762.9	0.000000	0.000000	6.594981	0.008236	NaN	0.000000	0.001669	0.001704	28.0793	0.010246	0.001925	5.321284	-65.0548	-160.204	-0.004135	0.593831	-0.448146	-0.449427	0.008236	5.321284	-0.449307	-667699	-1.233424E-8	NaN
196	1.000000	0.603125	7.36696e+06	-48439.1	955.818	-29762.9	0.000000	0.000000	6.602993	-0.032234	NaN	0.000000	0.001646	0.001745	28.0793	0.101345	0.002117	47.873	-138.204	-162.775	-0.043435	0.601830	-0.440133	-0.441429	-0.032234	47.873	-0.439628	-487658	6.609935E-8	NaN
196	1.000000	0.611128	7.36696e+06	-48439.1	955.818	-29762.9	0.000000	0.000000	6.610997	0.017107	NaN	0.000000	0.001660	0.001733	28.0796	0.045199	0.002025	22.3258	0.688083	-166.602	-0.031289	0.609856	-0.432131	-0.433402	0.017107	22.3258	-0.432705	-389335	-4.393946E-8	NaN
196	1.000000	0.619118	7.36696e+06	-48439.1	955.818	-29762.9	0.000000	0.000000	6.618988	0.033437	NaN	0.000000	0.001664	0.001696	28.0783	0.071027	0.002014	35.2601	-96.1038	-166.804	0.057168	0.617786	-0.424141	-0.425473	0.033437	35.2601	-0.424852	-301429	-1.109290E-7	NaN
196	1.000000	0.627130	7.36696e+06	-48439.1	955.818	-29762.9	0.000000	0.000000	6.627001	0.043744	NaN	0.000000	0.001638	0.001753	28.0785	0.081894	0.001958	41.8258	3.668855	-162.99	0.025204	0.625805	-0.416128	-0.417454	0.043744	41.8258	-0.416913	-232602	-1.880654E-7	NaN
196	1.000000	0.635137	7.36696e+06	-48439.1	955.818	-29762.9	0.000000	0.000000	6.635007	0.048634	NaN	0.000000	0.001676	0.001715	28.0782	0.074775	0.001953	38.2928	85.0613	-166.3	-0.017217	0.633810	-0.408122	-0.409449	0.048634	38.2928	-0.409074	-179985	-2.702122E-7	NaN
196	1.000000	0.643146	7.36696e+06	-48439.1	955.818	-29762.9	0.000000	0.000000	6.643017	0.041356	NaN	0.000000	0.001669	0.001758	28.0783	0.065678	0.001956	33.575	-167.437	-166.686	0.030612	0.641848	-0.400112	-0.401410	0.041356	33.575	-0.401036	-138283	-2.990692E-7	NaN
196	1.000000	0.651131	7.36696e+06	-48439.1	955.818	-29762.9	0.000000	0.000000	6.651000	0.010173	NaN	0.000000	0.001662	0.001775	28.0783	0.042033	0.002017	20.8442	126.261	-161.313	0.079484	0.649853	-0.392128	-0.393405	0.010173	20.8442	-0.392494	-104431	-9.741138E-8	NaN
196	1.000000	0.659157	7.36696e+06	-48439.1	955.819	-29762.9	0.000000	0.000000	6.659027	0.046686	NaN	0.000000	0.001684	0.001734	28.0781	0.183334	0.002067	88.7138	167.905	-160.156	-0.003138	0.657784	-0.384102	-0.385475	0.046686	88.7138	-0.384497	-80237.2	-5.818497E-7	NaN
196	1.000000	0.667138	7.36696e+06	-48439.1	955.818	-29762.9	0.000000	0.000000	6.667008	0.042132	NaN	0.000000	0.001691	0.001720	28.0786	0.055633	0.001964	28.3258	-152.699	-164.238	0.057065	0.665868	-0.376121	-0.377390	0.042132	28.3258	-0.377236	-63125.8	-6.674243E-7	NaN
196	1.000000	0.675157	7.36696e+06	-48439.1	955.819	-29762.9	0.000000	0.000000	6.675023	-0.064750	NaN	0.000000	0.001678	0.001745	28.0782	0.061984	0.002023	30.6462	104.103	-162.998	-0.051076	0.673835	-0.368102	-0.369423	-0.064750	30.6462	-0.366517	-44252.7	1.463188E-6	NaN
196	1.000000	0.683150	7.36696e+06	-48439.1	955.819	-29762.9	0.000000	0.000000	6.683018	-0.000704	NaN	0.000000	0.001684	0.001764	28.0783	0.062771	0.002175	28.8576	-61.6335	-161.727	0.005219	0.681880	-0.360109	-0.361379	-0.000704	28.8576	-0.360091	-35740.2	1.971150E-8	NaN
196	1.000000	0.691153	7.36696e+06	-48439.1	955.818	-29762.9	0.000000	0.000000	6.691024	0.064055	NaN	0.000000	0.001674	0.001745	28.0783	0.017770	0.002049	8.672510	-151.044	-167.493	0.027385	0.689852	-0.352106	-0.353407	0.064055	8.672510	-0.357645	-32945	-1.944293E-6	NaN
196	1.000000	0.699158	7.36696e+06	-48439.1	955.818	-29762.9	0.000000	0.000000	6.699028	0.051027	NaN	0.000000	0.001655	0.001764	28.0781	0.041549	0.001985	20.9265	35.0072	-166.671	0.059508	0.697854	-0.344101	-0.345404	0.051027	20.9265	-0.345930	-22278	-2.290492E-6	NaN
196	1.000000	0.707152	7.36696e+06	-48439.1	955.819	-29762.9	0.000000	0.000000	6.707021	0.020683	NaN	0.000000	0.001669	0.001723	28.0782	0.103599	0.002036	50.8727	41.42	-165.364	0.059568	0.705858	-0.336107	-0.337401	0.020683	50.8727	-0.336412	-16188.6	-1.277615E-6	NaN
196	1.000000	0.715182	7.36696e+06	-48439.1	955.819	-29762.9	0.000000	0.000000	6.715048	-0.048047	NaN	0.000000	0.001663	0.001738	28.078	0.087371	0.001847	47.3135	128.646	-164.154	-0.079134	0.713829	-0.328077	-0.329430	-0.048047	47.3135	-0.327315	-11915.4	4.032320E-6	NaN
196	1.000000	0.723204	7.36696e+06	-48439.1	955.819	-29762.9	0.000000	0.000000	6.723074	0.049513	NaN	0.000000	0.001683	0.001749	28.0785	0.194253	0.001982	97.992	76.9802	-162.154	0.041579	0.721867	-0.320055	-0.321392	0.049513	97.992	-0.320434	-9441.08	-5.244374E-6	NaN
196	1.000000	0.731138	7.36696e+06	-48439.1	955.819	-29762.9	0.000000	0.000000	6.731007	-0.001274	NaN	0.000000	0.001630	0.001741	28.0781	0.178753	0.002089	85.5592	166.657	-163.039	-0.046331	0.729890	-0.312121	-0.313368	-0.001274	85.5592	-0.312109	-7116.29	1.790014E-7	NaN
196	1.000000	0.739174	7.36696e+06	-48439.1	955.819	-29762.9	0.000000	0.000000	6.739040	-0.046362	NaN	0.000000	0.001607	0.001763	28.0782	0.031872	0.002048	15.5616	133.05	-165.165	-0.005666	0.737887	-0.304085	-0.305372	-0.046362	15.5616	-0.301851	-5013.81	9.246954E-6	NaN
196	1.000000	0.747167	7.36696e+06	-48439.1	955.818	-29762.9	0.000000	0.000000	6.747035	0.004137	NaN	0.000000	0.001576	0.001743	28.0781	0.088329	0.002010	43.9395	28.7404	-163.984	-0.001727	0.745802	-0.296092	-0.297456	0.004137	43.9395	-0.296163	-4125.17	-1.002801E-6	NaN
196	1.000000	0.755193	7.36696e+06	-48439.1	955.817	-29762.9	0.000000	0.000000	6.755063	0.029007	NaN	0.000000	0.001569	0.001736	28.079	0.176504	0.001974	89.4245	51.8705	-166.888	-0.013615	0.753922	-0.288066	-0.289337	0.029007	89.4245	-0.288309	-3147.41	-9.216087E-6	NaN
196	1.000000	0.763206	7.36696e+06	-48439.1	955.818	-29762.9	0.000000	0.000000	6.763074	-0.022256	NaN	0.000000	0.001582	0.001752	28.0795	0.065928	0.002040	32.3222	133.109	-164.596	0.077014	0.761847	-0.280052	-0.281412	-0.022256	32.3222	-0.279536	-2322.57	9.582681E-6	NaN
196	1.000000	0.771175	7.36696e+06	-48439.1	955.818	-29762.9	0.000000	0.000000	6.771042	-0.044366	NaN	0.000000	0.001618	0.001739	28.0792	0.032153	0.002041	15.756	111.811	-164.948	-0.058544	0.769834	-0.272084	-0.273425	-0.044366	15.756	-0.269972	-1663.86	2.666446E-5	NaN
196	1.000000	0.779223	7.36696e+06	-48439.1	955.819	-29762.9	0.000000	0.000000	6.779094	0.047479	NaN	0.000000	0.001606	0.001735	28.0794	0.077988	0.002037	38.2904	143.595	-164.725	0.057554	0.777864	-0.264036	-0.265394	0.047479	38.2904	-0.264966	-1395.93	-3.401278E-5	NaN
196	1.000000	0.787185	7.36696e+06	-48439.1	955.818	-29762.9	0.000000	0.000000	6.787056	0.057719	NaN	0.000000	0.001593	0.001727	28.0792	0.116116	0.001991	58.3132	-146.69	-163.793	0.028821	0.785864	-0.256074	-0.257394	0.057719	58.3132	-0.256816	-1047.26	-5.511382E-5	NaN
196	1.000000	0.795225	7.36696e+06	-48439.1	955.818	-29762.9	0.000000	0.000000	6.795092	-0.016617	NaN	0.000000	0.001590	0.001745	28.0791	0.069325	0.001980	35.0162	-20.7917	-159.383	0.001605	0.793866	-0.248034	-0.249393	-0.016617	35.0162	-0.247678	-756.865	2.195533E-5	NaN
196	1.000000	0.803199	7.36696e+06	-48439.1	955.818	-29762.9	0.000000	0.000000	6.803068	-0.000256	NaN	0.000000	0.001628	0.001756	28.0792	0.092202	0.002010	45.8615	-99.2904	-164.341	0.014597	0.801905	-0.240059	-0.241353	-0.000256	45.8615	-0.240055	-575.989	4.444056E-7	NaN
196	1.000000	0.811168	7.36696e+06	-48439.1	955.819	-29762.9	0.000000	0.000000	6.811037	0.023871	NaN	0.000000	0.001607	0.001750	28.0792	0.065491	0.002011	32.5686	-8.757945	-165.569	-0.011909	0.809875	-0.232091	-0.233384	0.023871	32.5686	-0.232641	-440.711	-5.416411E-5	NaN
196	1.000000	0.819202	7.36696e+06	-48439.1	955.818	-29762.9	0.000000	0.000000	6.819072	0.022782	NaN	0.000000	0.001561	0.001714	28.0792	0.057910	0.001942	29.8171	168.399	-164.582	0.073340	0.817931	-0.224056	-0.225328	0.022782	29.8171	-0.224630	-329.192	-6.920439E-5	NaN
196	1.000000	0.827206	7.36696e+06	-48439.1	955.819	-29762.9	0.000000	0.000000	6.827074	-0.022356	NaN	0.000000	0.001599	0.001719	28.0792	0.047122	0.002054	22.9455	39.7394	-165.799	-0.060462	0.825887	-0.216053	-0.217372	-0.022356	22.9455	-0.215322	-233.718	9.565409E-5	NaN
196	1.000000	0.835209	7.36696e+06	-48439.1	955.818	-29762.9	0.000000	0.000000	6.835080	0.071885	NaN	0.000000	0.001620	0.001727	28.0792	0.037153	0.001944	19.1098	-115.899	-165.564	0.002277	0.833936	-0.208050	-0.209323	0.071885	19.1098	-0.210871	-198.115	-0.000363	NaN
196	1.000000	0.843225	7.36696e+06	-48439.1	955.818	-29762.9	0.000000	0.000000	6.843094	0.006373	NaN	0.000000	0.001546	0.001713	28.0792	0.020980	0.002062	10.1731	-90.9568	-164.363	-0.037777	0.841909	-0.200033	-0.201349	0.006373	10.1731	-0.200503	-134.265	-4.746747E-5	NaN
196	1.000000	0.851227	7.36696e+06	-48439.1	955.818	-29762.9	0.000000	0.000000	6.851097	0.049195	NaN	0.000000	0.001572	0.001717	28.0791	0.148356	0.001953	75.9823	177.466	-163.58	0.035739	0.849899	-0.192032	-0.193359	0.049195	75.9823	-0.192517	-99.0817	-0.000497	NaN
196	1.000000	0.859213	7.36696e+06	-48439.1	955.818	-29762.9	0.000000	0.000000	6.859080	-0.027528	NaN	0.000000	0.001563	0.001709	28.0795	0.054160	0.002046	26.4716	-108.892	-162.07	-0.018740	0.857952	-0.184046	-0.185307	-0.027528	26.4716	-0.183266	-69.3207	0.000397	NaN
196	1.000000	0.867230	7.36696e+06	-48439.1	955.818	-29762.9	0.000000	0.000000	6.867098	-0.012004	NaN	0.000000	0.001559	0.001766	28.0794	0.050494	0.001896	26.636	159.673	-167.148	-0.012662	0.865852	-0.176028	-0.177407	-0.012004	26.636	-0.175690	-51.5031	0.000233	NaN
196	1.000000	0.875231	7.36696e+06	-48439.1	955.818	-29762.9	0.000000	0.000000	6.875097	-0.057604	NaN	0.000000	0.001587	0.001729	28.0796	0.099693	0.002024	49.2597	133.78	-166.001	-0.137995	0.873918	-0.168028	-0.169341	-0.057604	49.2597	-0.167151	-36.6421	0.001572	NaN
196	1.000000	0.883226	7.36696e+06	-48439.1	955.819	-29762.9	0.000000	0.000000	6.883094	-0.020020	NaN	0.000000	0.001591	0.001720	28.0793	0.080315	0.001894	42.4016	-55.038	-162.291	0.001395	0.881901	-0.160033	-0.161357	-0.020020	42.4016	-0.159678	-27.0563	0.000740	NaN
196	1.000000	0.891218	7.36696e+06	-48439.1	955.817	-29762.9	0.000000	0.000000	6.891090	0.064651	NaN	0.000000	0.001568	0.001821	28.0779	0.115231	0.001955	58.9519	40.6905	-167.836	-0.020214	0.889930	-0.152040	-0.153328	0.064651	58.9519	-0.152863	-20.418	-0.003166	NaN
196	1.000000	0.899248	7.36696e+06	-48439.1	955.818	-29762.9	0.000000	0.000000	6.899118	0.041053	NaN	0.000000	0.001570	0.001739	28.0782	0.041440	0.001962	21.1186	68.375	-166.419	0.009609	0.897943	-0.144011	-0.145316	0.041053	21.1186	-0.145468	-14.9564	-0.002745	NaN
196	1.000000	0.907251	7.36696e+06	-48439.1	955.818	-29762.9	0.000000	0.000000	6.907121	0.034176	NaN	0.000000	0.001607	0.001737	28.0782	0.069595	0.001970	35.3346	93.0984	-164.914	0.023124	0.905981	-0.136007	-0.137278	0.034176	35.3346	-0.136733	-10.263	-0.003330	NaN
196	1.000000	0.915250	7.36696e+06	-48439.1	955.819	-29762.9	0.000000	0.000000	6.915119	0.010412	NaN	0.000000	0.001579	0.001758	28.0783	0.113278	0.002076	54.5652	-87.9295	-167.27	-0.012291	0.913977	-0.128009	-0.129282	0.010412	54.5652	-0.128152	-7.014419	-0.001484	NaN
196	1.000000	0.923274	7.36696e+06	-48439.1	955.818	-29762.9	0.000000	0.000000	6.923142	-0.016160	NaN	0.000000	0.001600	0.001706	28.0782	0.063971	0.001979	32.3234	102.73	-165.296	0.032923	0.921950	-0.119985	-0.121309	-0.016160	32.3234	-0.119610	-4.744670	0.003406	NaN
196	1.000000	0.931229	7.36696e+06	-48439.1	955.818	-29762.9	0.000000	0.000000	6.931098	0.011220	NaN	0.000000	0.001602	0.001743	28.0782	0.075530	0.001924	39.2475	38.0166	-164.194	0.066281	0.929919	-0.112030	-0.113339	0.011220	39.2475	-0.112244	-3.349304	-0.003350	NaN
196	1.000000	0.939269	7.36696e+06	-48439.1	955.818	-29762.9	0.000000	0.000000	6.939136	-0.022823	NaN	0.000000	0.001598	0.001762	28.0782	0.046511	0.002017	23.0613	101.271	-164.655	-0.011346	0.937928	-0.103990	-0.105331	-0.022823	23.0613	-0.103248	-2.153540	0.010598	NaN
196	1.000000	0.947251	7.36696e+06	-48439.1	955.818	-29762.9	0.000000	0.000000	6.947119	-0.016460	NaN	0.000000	0.001557	0.001713	28.0781	0.018054	0.001954	9.239265	130.069	-165.471	-0.003288	0.945927	-0.096008	-0.097332	-0.016460	9.239265	-0.094672	-1.386518	0.011872	NaN
196	1.000000	0.955256	7.36696e+06	-48439.1	955.819	-29762.9	0.000000	0.000000	6.955124	-0.015460	NaN	0.000000	0.001565	0.001729	28.078	0.028892	0.001979	14.5967	-88.9411	-167.292	-0.004990	0.953944	-0.088003	-0.089314	-0.015460	14.5967	-0.087208	-0.928436	0.016652	NaN
196	1.000000	0.963268	7.36696e+06	-48439.1	955.818	-29762.9	0.000000	0.000000	6.963139	0.073820	NaN	0.000000	0.001585	0.001720	28.078	0.109376	0.001928	56.7266	-46.1934	-166.939	0.088789	0.961914	-0.079991	-0.081344	0.073820	56.7266	-0.080967	-0.654320	-0.112819	NaN
196	1.000000	0.971261	7.36696e+06	-48439.1	955.819	-29762.9	0.000000	0.000000	6.971129	-0.033319	NaN	0.000000	0.001589	0.001718	28.0783	0.095818	0.001892	50.6544	46.3843	-165.039	-0.018289	0.969952	-0.071997	-0.073307	-0.033319	50.6544	-0.071504	-0.374085	0.089068	NaN
196	1.000000	0.979262	7.36697e+06	-48439.1	955.82	-29762.9	0.000000	0.000000	6.979133	0.050520	NaN	0.000000	0.001591	0.001746	28.0782	0.047411	0.001910	24.8257	127.907	-162.67	0.060000	0.977944	-0.063996	-0.065315	0.050520	24.8257	-0.065523	-0.257661	-0.196070	NaN
196	1.000000	0.987287	7.36697e+06	-48439.1	955.819	-29762.9	0.000000	0.000000	6.987156	0.016711	NaN	0.000000	0.001540	0.001713	28.078	0.110382	0.002100	52.5598	42.6956	-163.787	-0.004688	0.985950	-0.055971	-0.057309	0.016711	52.5598	-0.056210	-0.139792	-0.119540	NaN
196	1.000000	0.995288	7.36697e+06	-48439.1	955.819	-29762.9	0.000000	0.000000	6.995156	-0.018375	NaN	0.000000	0.001583	0.001730	28.0782	0.048430	0.002067	23.4333	-52.5313	-159.52	-0.001383	0.993967	-0.047971	-0.049292	-0.018375	23.4333	-0.047383	-0.075991	0.241803	NaN
196	1.000000	1.003256	7.36697e+06	-48439.1	955.819	-29762.9	0.000000	0.000000	7.003125	-0.006406	NaN	0.000000	0.001635	0.001732	28.0781	0.080770	0.001951	41.4047	68.0878	-164.449	-0.023235	1.002018	-0.040002	-0.041241	-0.006406	41.4047	-0.039886	-0.044864	0.142782	NaN
196	1.000000	1.011270	7.36697e+06	-48439.1	955.819	-29762.9	0.000000	0.000000	7.011137	-0.043425	NaN	0.000000	0.001616	0.001752	28.0783	0.201086	0.002058	97.7175	108.458	-162.544	0.006369	1.009955	-0.031989	-0.033304	-0.043425	97.7175	-0.031655	-0.025620	1.694959	NaN
196	1.000000	1.019308	7.36697e+06	-48439.1	955.819	-29762.9	0.000000	0.000000	7.019179	0.058519	NaN	0.000000	0.001612	0.001786	28.0783	0.087891	0.002046	42.9485	-4.204154	-163.379	0.116383	1.018013	-0.023951	-0.025246	0.058519	42.9485	-0.024972	-0.016842	-3.474506	NaN
196	1.000000	1.027244	7.36697e+06	-48439.1	955.82	-29762.9	0.000000	0.000000	7.027109	-0.102556	NaN	0.000000	0.001610	0.001772	28.0796	0.043390	0.001912	22.6978	129.701	-163.326	-0.003873	1.025946	-0.016014	-0.017313	-0.102556	22.6978	-0.012625	-0.007887	13.0035	NaN
196	1.000000	1.035274	7.36697e+06	-48439.1	955.82	-29762.9	0.000000	0.000000	7.035141	-0.026401	NaN	0.000000	0.001625	0.001710	28.0794	0.124528	0.002018	61.6952	-172.21	-162.752	-0.035474	1.033986	-0.007985	-0.009273	-0.026401	61.6952	-0.007664	-0.005034	5.244201	NaN
196	1.000000	1.043309	7.36697e+06	-48439.1	955.82	-29762.9	0.000000	0.000000	7.043181	0.074192	NaN	0.000000	0.001583	0.001714	28.0791	0.149985	0.001953	76.8017	14.3112	-166.638	-0.048081	1.041964	5.026877E-5	-0.001295	0.074192	76.8017	-0.000674	-0.000497	-149.161	NaN
196	1.000000	1.051236	7.36697e+06	-48439.1	955.819	-29762.9	0.000000	0.000000	7.051384	6.795500	NaN	0.000000	0.001613	0.001706	28.0792	6.884962	0.001801	3822.6	14.2399	-173.561	5.169910	1.049952	0.007977	0.006694	6.795500	3822.6	0.006644	0.005685	1195.43	46321.7
196	2.000000	1.054840	7.36697e+06	-48439.1	955.82	-29762.9	0.000000	0.000000	7.055142	10.5611	NaN	0.000000	0.001615	0.001742	28.0791	10.1645	0.001748	5815.22	12.6393	-176.747	10.8081	1.054541	0.011581	0.011282	10.5611	5815.22	0.010219	0.009426	1120.46	54724.6
196	2.000000	1.056843	7.36697e+06	-48439.1	955.82	-29762.9	0.000000	0.000000	7.057245	12.9867	NaN	0.000000	0.001601	0.001712	28.0791	12.0135	0.001671	7191.53	5.751155	-172.696	12.273	1.056516	0.013584	0.013257	12.9867	7191.53	0.012230	0.011766	1103.71	60572.1
196	2.000000	1.058782	7.36697e+06	-48439.1	955.82	-29762.9	0.000000	0.000000	7.059315	16.1559	NaN	0.000000	0.001578	0.001720	28.0796	13.6614	0.001628	8391.03	7.343545	-173.783	15.6218	1.058487	0.015523	0.015228	16.1559	8391.03	0.014079	0.014077	1147.67	64614.7
196	2.000000	1.060807	7.36697e+06	-48439.1	955.82	-29762.9	0.000000	0.000000	7.061355	16.5323	NaN	0.000000	0.001602	0.001712	28.0793	16.3401	0.001751	9331.16	7.899555	-176.95	16.8324	1.060460	0.017548	0.017202	16.5323	9331.16	0.016219	0.016946	975.607	65490.8
196	2.000000	1.062738	7.36697e+06	-48439.1	955.819	-29762.9	0.000000	0.000000	7.063568	23.379	NaN	0.000000	0.001618	0.001726	28.0791	17.8423	0.001705	10463.4	5.743226	-176.058	21.0503	1.062446	0.019480	0.019187	23.379	10463.4	0.017804	0.019208	1217.14	68976.7
196	2.000000	1.064781	7.36697e+06	-48439.1	955.82	-29762.9	0.000000	0.000000	7.065671	24.8432	NaN	0.000000	0.001578	0.001752	28.0793	19.8148	0.001735	11421.5	5.921825	-176.002	24.9514	1.064433	0.021522	0.021174	24.8432	11421.5	0.019891	0.022371	1110.53	69768.3
196	2.000000	1.066827	7.36697e+06	-48439.1	955.82	-29762.9	0.000000	0.000000	7.067908	29.4934	NaN	0.000000	0.001575	0.001723	28.0792	21.9143	0.001993	10995.9	9.254869	-175.29	30.9848	1.066464	0.023568	0.023206	29.4934	10995.9	0.021557	0.025048	1177.48	63477.6
196	2.000000	1.068771	7.36697e+06	-48439.1	955.819	-29762.9	0.000000	0.000000	7.070026	33.7034	NaN	0.000000	0.001582	0.001738	28.0798	23.8589	0.001782	13391.2	5.187140	-177.412	33.7554	1.068380	0.025513	0.025121	33.7034	13391.2	0.023625	0.028562	1180.01	72393.5
196	2.000000	1.070727	7.36697e+06	-48439.1	955.819	-29762.9	0.000000	0.000000	7.072207	39.1992	NaN	0.000000	0.001582	0.001647	28.0794	26.2186	0.001791	14639.2	6.668729	-179.141	38.7112	1.070405	0.027468	0.027147	39.1992	14639.2	0.025460	0.031857	1230.46	74935.3
196	2.000000	1.072712	7.36697e+06	-48439.1	955.819	-29762.9	0.000000	0.000000	7.074438	45.1673	NaN	0.000000	0.001589	0.001688	28.0791	26.4407	0.001714	15423.8	3.251802	-176.05	43.3039	1.072398	0.029453	0.029139	45.1673	15423.8	0.027257	0.035250	1281.35	75055.9
196	2.000000	1.074705	7.36697e+06	-48439.1	955.82	-29762.9	0.000000	0.000000	7.076626	49.9243	NaN	0.000000	0.001578	0.001685	28.0793	30.0548	0.001847	16268.2	9.763693	177.314	48.5582	1.074369	0.031446	0.031110	49.9243	16268.2	0.029145	0.038990	1280.45	75272.8
196	2.000000	1.076727	7.36697e+06	-48439.1	955.819	-29762.9	0.000000	0.000000	7.078896	55.9678	NaN	0.000000	0.001548	0.001706	28.079	31.1811	0.001804	17280.6	4.156470	-178.561	53.8144	1.076392	0.033468	0.033133	55.9678	17280.6	0.031039	0.042924	1303.87	76204.4
196	2.000000	1.078711	7.36697e+06	-48439.1	955.819	-29762.9	0.000000	0.000000	7.081210	63.968	NaN	0.000000	0.001559	0.001748	28.0808	32.6031	0.001645	19813.7	1.945710	-177.388	61.4335	1.078324	0.035453	0.035065	63.968	19813.7	0.033031	0.047261	1353.5	83269.8
196	2.000000	1.080693	7.36697e+06	-48439.1	955.819	-29762.9	0.000000	0.000000	7.083365	68.1691	NaN	0.000000	0.001593	0.001708	28.0783	35.1648	0.001748	20120	2.426105	-178.316	66.2227	1.080412	0.037435	0.037153	68.1691	20120	0.034894	0.051499	1323.7	81003.3
196	2.000000	1.082706	7.36697e+06	-48439.1	955.82	-29762.9	0.000000	0.000000	7.085649	74.764	NaN	0.000000	0.001581	0.001714	28.078	36.1229	0.001616	22349	2.519295	-179.35	72.8893	1.082394	0.039448	0.039136	74.764	22349	0.036939	0.056356	1326.63	86012.2
196	2.000000	1.084675	7.36697e+06	-48439.1	955.82	-29762.9	0.000000	0.000000	7.087848	80.3795	NaN	0.000000	0.001596	0.001718	28.0778	39.1704	0.001749	22401.5	6.451465	176.951	78.6371	1.084437	0.041416	0.041178	80.3795	22401.5	0.038725	0.060775	1322.58	83021.1
196	2.000000	1.086747	7.36697e+06	-48439.1	955.82	-29762.9	0.000000	0.000000	7.090388	91.7583	NaN	0.000000	0.001565	0.001692	28.0777	41.3774	0.001789	23134.8	5.840304	177.949	90.5846	1.086346	0.043488	0.043087	91.7583	23134.8	0.040514	0.065362	1403.84	82675
196	2.000000	1.088759	7.36697e+06	-48439.1	955.82	-29762.9	0.000000	0.000000	7.092507	94.352	NaN	0.000000	0.001534	0.001743	28.0791	42.7493	0.001859	22992.1	4.111373	179.816	96.7286	1.088459	0.045500	0.045201	94.352	22992.1	0.042422	0.070439	1339.49	79149.1
196	2.000000	1.090693	7.36697e+06	-48439.1	955.82	-29762.9	0.000000	0.000000	7.094936	106.383	NaN	0.000000	0.001573	0.001679	28.078	44.8234	0.001780	25179.7	3.468831	179.121	104.139	1.090321	0.047435	0.047063	106.383	25179.7	0.044266	0.075517	1408.73	83714.6
196	2.000000	1.092665	7.36697e+06	-48439.1	955.82	-29762.9	0.000000	0.000000	7.097296	115.813	NaN	0.000000	0.001567	0.001693	28.0778	45.2867	0.001755	25806.2	5.836557	176.345	113.498	1.092374	0.049407	0.049115	115.813	25806.2	0.046041	0.080570	1437.43	83063.8
196	2.000000	1.094582	7.36697e+06	-48439.1	955.82	-29762.9	0.000000	0.000000	7.099519	123.277	NaN	0.000000	0.001587	0.001690	28.0779	48.5568	0.001747	27795.4	3.494562	178.356	118.211	1.094317	0.051323	0.051058	123.277	27795.4	0.047997	0.086323	1428.1	86433.7
196	2.000000	1.096712	7.36697e+06	-48439.1	955.821	-29762.9	0.000000	0.000000	7.102012	132.096	NaN	0.000000	0.001560	0.001700	28.0779	51.5575	0.001858	27742.5	6.597031	175.358	129.827	1.096374	0.053454	0.053116	132.096	27742.5	0.049882	0.092050	1435.04	83542.4
196	2.000000	1.098679	7.36697e+06	-48439.1	955.82	-29762.9	0.000000	0.000000	7.104398	142.283	NaN	0.000000	0.001569	0.001702	28.0788	53.435	0.001885	28343	3.288347	178.471	141.584	1.098345	0.055421	0.055087	142.283	28343	0.051656	0.097599	1457.82	82888.8
196	2.000000	1.100778	7.36697e+06	-48439.1	955.82	-29762.9	0.000000	0.000000	7.106706	147.375	NaN	0.000000	0.001554	0.001702	28.078	54.9656	0.001777	30930.4	3.837367	176.88	150.237	1.100467	0.057520	0.057209	147.375	30930.4	0.053946	0.105000	1403.57	87209.5
196	2.000000	1.102659	7.36697e+06	-48439.1	955.82	-29762.9	0.000000	0.000000	7.109164	161.406	NaN	0.000000	0.001606	0.001716	28.0779	56.1587	0.001664	33753.9	5.651771	174.036	158.454	1.102469	0.059401	0.059211	161.406	33753.9	0.055814	0.111228	1451.12	92467.6
196	2.000000	1.104701	7.36697e+06	-48439.1	955.82	-29762.9	0.000000	0.000000	7.111737	174.325	NaN	0.000000	0.001625	0.001702	28.0779	59.2266	0.001917	30895	7.678291	173.685	175.853	1.104337	0.061443	0.061078	174.325	30895	0.057211	0.115996	1502.85	82877.8
196	2.000000	1.106707	7.36697e+06	-48439.1	955.82	-29762.9	0.000000	0.000000	7.114158	184.423	NaN	0.000000	0.001615	0.001738	28.0779	60.5621	0.001877	32272.2	4.262832	177.046	183.621	1.106306	0.063448	0.063047	184.423	32272.2	0.059162	0.122821	1501.56	84132.8
196	2.000000	1.108637	7.36697e+06	-48439.1	955.82	-29762.9	0.000000	0.000000	7.116419	192.462	NaN	0.000000	0.001642	0.001734	28.0784	60.1915	0.001650	36475.4	0.533154	179.174	190.129	1.108355	0.065378	0.065097	192.462	36475.4	0.061421	0.130953	1469.7	92090.7
196	2.000000	1.110646	7.36697e+06	-48439.1	955.82	-29762.9	0.000000	0.000000	7.118636	197.526	NaN	0.000000	0.001618	0.001743	28.0779	63.685	0.001697	37530.9	5.371679	173.401	195.548	1.110446	0.067387	0.067187	197.526	37530.9	0.063440	0.138432	1426.88	92160.4
196	2.000000	1.112617	7.36697e+06	-48439.1	955.821	-29762.9	0.000000	0.000000	7.121471	218.546	NaN	0.000000	0.001555	0.001744	28.0778	65.0272	0.001763	36890.7	9.210101	169.887	213.834	1.112312	0.069358	0.069054	218.546	36890.7	0.064915	0.144020	1517.47	88813.3
196	2.000000	1.114727	7.36697e+06	-48439.1	955.82	-29762.9	0.000000	0.000000	7.123879	225.801	NaN	0.000000	0.001555	0.001705	28.0792	67.8328	0.001833	37008	5.566708	174.188	227.271	1.114359	0.071468	0.071100	225.801	37008	0.066892	0.151676	1488.71	86818.2
196	2.000000	1.116662	7.36697e+06	-48439.1	955.82	-29762.9	0.000000	0.000000	7.126265	236.761	NaN	0.000000	0.001575	0.001757	28.0793	68.207	0.001775	38427.6	2.769198	176.716	234.257	1.116433	0.073403	0.073175	236.761	38427.6	0.068782	0.159169	1487.48	88000.9
196	2.000000	1.118661	7.36697e+06	-48439.1	955.82	-29762.9	0.000000	0.000000	7.128835	250.639	NaN	0.000000	0.001538	0.001741	28.0795	69.8389	0.001792	38967.3	4.640629	174.603	247.377	1.118296	0.075402	0.075037	250.639	38967.3	0.070578	0.166449	1505.8	87263.6
196	2.000000	1.120648	7.36697e+06	-48439.1	955.82	-29762.9	0.000000	0.000000	7.131007	255.146	NaN	0.000000	0.001601	0.001729	28.0806	73.1164	0.001788	40889.8	4.381181	174.128	251.829	1.120393	0.077389	0.077134	255.146	40889.8	0.072709	0.175283	1455.62	89231.3
196	2.000000	1.122557	7.36697e+06	-48439.1	955.82	-29762.9	0.000000	0.000000	7.133731	274.972	NaN	0.000000	0.001562	0.001723	28.0792	72.3713	0.001718	42125.4	0.537332	178.622	270.033	1.122294	0.079298	0.079036	274.972	42125.4	0.074402	0.182456	1507.06	90102.8
196	2.000000	1.124597	7.36697e+06	-48439.1	955.82	-29762.9	0.000000	0.000000	7.136317	288.256	NaN	0.000000	0.001557	0.001736	28.0794	76.0774	0.001829	41598.7	2.164876	177.448	285.004	1.124252	0.081338	0.080994	288.256	41598.7	0.076141	0.189962	1517.44	87200.7
196	2.000000	1.126601	7.36697e+06	-48439.1	955.82	-29762.9	0.000000	0.000000	7.138802	299.934	NaN	0.000000	0.001567	0.001753	28.079	78.3524	0.001730	45286.5	7.411519	170.964	295.057	1.126313	0.083342	0.083054	299.934	45286.5	0.078375	0.199815	1501.06	92560.9
196	2.000000	1.128592	7.36697e+06	-48439.1	955.82	-29762.9	0.000000	0.000000	7.141236	310.708	NaN	0.000000	0.001543	0.001751	28.0791	79.5883	0.001777	44778.9	4.647830	173.768	305.938	1.128238	0.085333	0.084979	310.708	44778.9	0.080129	0.207716	1495.83	89765.9
196	2.000000	1.130612	7.36697e+06	-48439.1	955.82	-29762.9	0.000000	0.000000	7.143781	323.475	NaN	0.000000	0.001576	0.001727	28.0792	82.9338	0.001830	45317.8	2.665361	175.494	320.364	1.130318	0.087354	0.087060	323.475	45317.8	0.082000	0.216300	1495.49	89025.3
196	2.000000	1.132614	7.36697e+06	-48439.1	955.82	-29762.9	0.000000	0.000000	7.146620	343.841	NaN	0.000000	0.001567	0.001730	28.0794	83.5269	0.001753	47636.5	4.165396	173.565	339.42	1.132294	0.089355	0.089035	343.841	47636.5	0.083942	0.225379	1525.62	91676.1
196	2.000000	1.134622	7.36697e+06	-48439.1	955.82	-29762.9	0.000000	0.000000	7.148937	351.379	NaN	0.000000	0.001570	0.001712	28.0794	85.1609	0.001667	51100.7	2.565573	175.078	351.11	1.134284	0.091363	0.091025	351.379	51100.7	0.086206	0.236188	1487.71	96066.2
196	2.000000	1.136720	7.36697e+06	-48439.1	955.82	-29762.9	0.000000	0.000000	7.151626	365.741	NaN	0.000000	0.001549	0.001733	28.0792	88.9105	0.001808	49178.1	4.919364	172.606	364.236	1.136416	0.093461	0.093157	365.741	49178.1	0.087883	0.244347	1496.81	90895.3
196	2.000000	1.138575	7.36697e+06	-48439.1	955.821	-29762.9	0.000000	0.000000	7.154308	385.868	NaN	0.000000	0.001544	0.001725	28.0791	90.2538	0.001761	51239.1	6.566846	170.645	382.166	1.138327	0.095316	0.095069	385.868	51239.1	0.089668	0.253172	1524.14	93039.4
196	2.000000	1.140650	7.36697e+06	-48439.1	955.822	-29762.9	0.000000	0.000000	7.156639	392.08	NaN	0.000000	0.001540	0.001710	28.0792	93.1656	0.001801	51725	3.648886	173.649	391.957	1.140422	0.097391	0.097163	392.08	51725	0.091706	0.263428	1488.37	92075.2
196	2.000000	1.142608	7.36697e+06	-48439.1	955.82	-29762.9	0.000000	0.000000	7.159610	416.71	NaN	0.000000	0.001569	0.001709	28.0794	93.0368	0.001821	51103.1	3.592405	173.91	413.979	1.142284	0.099350	0.099025	416.71	51103.1	0.093234	0.271240	1536.32	89648.7
196	2.000000	1.144576	7.36697e+06	-48439.1	955.821	-29762.9	0.000000	0.000000	7.162083	428.994	NaN	0.000000	0.001565	0.001719	28.0793	95.776	0.001699	56358	4.854489	171.503	423.159	1.144270	0.101318	0.101012	428.994	56358	0.095609	0.283596	1512.7	96689.4
196	2.000000	1.146756	7.36697e+06	-48439.1	955.821	-29762.9	0.000000	0.000000	7.165029	447.632	NaN	0.000000	0.001535	0.001745	28.0792	98.8372	0.001805	54757.6	6.847581	170.489	450.337	1.146291	0.103497	0.103033	447.632	54757.6	0.097366	0.292905	1528.25	92438.8
196	2.000000	1.148540	7.36697e+06	-48439.1	955.821	-29762.9	0.000000	0.000000	7.167484	463.95	NaN	0.000000	0.001577	0.001697	28.0781	100.31	0.001841	54499.1	6.664489	170.745	458.556	1.148175	0.105281	0.104916	463.95	54499.1	0.098897	0.301126	1540.72	90737.8
196	2.000000	1.150770	7.36697e+06	-48439.1	955.82	-29762.9	0.000000	0.000000	7.170013	471.225	NaN	0.000000	0.001579	0.001710	28.078	102.132	0.001678	60871.7	6.181577	170.18	477.533	1.150302	0.107511	0.107043	471.225	60871.7	0.101706	0.316492	1488.9	98857
196	2.000000	1.151476	7.36697e+06	-48439.1	955.821	-29762.9	0.000000	0.000000	7.171182	482.493	NaN	0.000000	0.001546	0.001741	28.0782	101.825	0.001816	56060.9	3.942403	172.889	473.999	1.151210	0.108217	0.107951	482.493	56060.9	0.101762	0.316806	1522.99	90999.1