File: remote_trans/data/nanoindenter/0828-1/data/Data_2025-08-06,11h17m57s/2025-07-22_16-23-58_1_255.txt
2025-07-22, 16:23:58, 1
Index	Phase	Displacement	Time	Pos X	Pos Y	Pos Z	Rot A	Rot B	Piezo Z	Force A	Force B	Gripper	Voltage A	Voltage B	Temperature	Amplitude force	Amplitude pos	Stiffness	Phase shift	Phase excitation	Force A raw	Displacement raw	HMax	HMax raw	Real Force	Real Stiffness	Contact Depth	Area	Hardness	Reduced Mod.
[#]	[#]	[um]	[s]	[um]	[um]	[um]	[m°]	[m°]	[um]	[uN]	[uN]	[V]	[V]	[V]	[°C]	[uN]	[um]	[N/m]	[°]	[°]	[uN]	[um]	[um]	[um]	[uN]	[N/m]	[um]	[um^2]	[MPa]	[MPa]
255	1.000000	0.001756	7.36755e+06	-51389.1	955.818	-29752.8	0.000000	0.000000	6.002766	0.089848	NaN	0.000000	0.001709	0.001684	28.0802	0.025564	0.000944	27.0944	-37.9909	-170.905	0.046475	0.000557	-1.088837	-1.090037	0.089848	27.0944	-1.091324	-3.833495E+14	-2.343759E-16	NaN
255	1.000000	0.009749	7.36755e+06	-51389.1	955.819	-29752.8	0.000000	0.000000	6.010756	0.010697	NaN	0.000000	0.001681	0.001660	28.0787	0.063300	0.000848	74.6376	105.976	-166.573	0.042949	0.008422	-1.080845	-1.082172	0.010697	74.6376	-1.080952	-2.781693E+14	-3.845639E-17	NaN
255	1.000000	0.017735	7.36755e+06	-51389.1	955.819	-29752.8	0.000000	0.000000	6.018744	0.078243	NaN	0.000000	0.001686	0.001687	28.0788	0.055962	0.001845	30.3289	162.577	-165.85	0.082203	0.016473	-1.072859	-1.074121	0.078243	30.3289	-1.074794	-2.299252E+14	-3.402955E-16	NaN
255	1.000000	0.025789	7.36755e+06	-51389.1	955.818	-29752.8	0.000000	0.000000	6.026796	0.024476	NaN	0.000000	0.001718	0.001718	28.0787	0.047689	0.001719	27.7367	-81.5186	-163.236	0.046049	0.024435	-1.064805	-1.066158	0.024476	27.7367	-1.065467	-1.722983E+14	-1.420584E-16	NaN
255	1.000000	0.033762	7.36755e+06	-51389.1	955.818	-29752.8	0.000000	0.000000	6.034770	0.049650	NaN	0.000000	0.001693	0.001659	28.0785	0.050172	0.001767	28.3987	121.452	-165.954	-0.081141	0.032412	-1.056832	-1.058181	0.049650	28.3987	-1.058143	-1.373609E+14	-3.614560E-16	NaN
255	1.000000	0.041737	7.36755e+06	-51389.1	955.819	-29752.8	0.000000	0.000000	6.042746	0.059089	NaN	0.000000	0.001696	0.001695	28.0783	0.069272	0.002095	33.066	-168.364	-164.29	0.002639	0.040474	-1.048857	-1.050120	0.059089	33.066	-1.050197	-1.074143E+14	-5.501012E-16	NaN
255	1.000000	0.049727	7.36755e+06	-51389.1	955.818	-29752.8	0.000000	0.000000	6.050735	0.036192	NaN	0.000000	0.001695	0.001759	28.0783	0.136510	0.002064	66.1296	92.1229	-165.317	-0.001404	0.048446	-1.040867	-1.042148	0.036192	66.1296	-1.041277	-8.149667E+13	-4.440971E-16	NaN
255	1.000000	0.057740	7.36755e+06	-51389.1	955.819	-29752.8	0.000000	0.000000	6.058748	0.045536	NaN	0.000000	0.001689	0.001785	28.0786	0.129006	0.001947	66.2481	89.4014	-166.37	0.017056	0.056417	-1.032853	-1.034177	0.045536	66.2481	-1.033369	-6.379590E+13	-7.137839E-16	NaN
255	1.000000	0.065770	7.36755e+06	-51389.1	955.818	-29752.8	0.000000	0.000000	6.066779	0.062278	NaN	0.000000	0.001696	0.001763	28.0782	0.031760	0.002057	15.4406	22.3133	-166.062	0.074351	0.064476	-1.024824	-1.026118	0.062278	15.4406	-1.027849	-5.377085E+13	-1.158204E-15	NaN
255	1.000000	0.073752	7.36755e+06	-51389.1	955.818	-29752.8	0.000000	0.000000	6.074760	0.041394	NaN	0.000000	0.001727	0.001739	28.0781	0.077032	0.001962	39.2598	131.652	-167.957	-0.049974	0.072450	-1.016842	-1.018144	0.041394	39.2598	-1.017632	-3.918270E+13	-1.056437E-15	NaN
255	1.000000	0.081733	7.36755e+06	-51389.1	955.818	-29752.8	0.000000	0.000000	6.082740	0.022834	NaN	0.000000	0.001716	0.001737	28.0783	0.053783	0.002120	25.3751	35.1522	-167.27	-0.007110	0.080463	-1.008861	-1.010131	0.022834	25.3751	-1.009536	-3.048819E+13	-7.489427E-16	NaN
255	1.000000	0.089770	7.36755e+06	-51389.1	955.819	-29752.8	0.000000	0.000000	6.090778	0.046313	NaN	0.000000	0.001755	0.001764	28.0783	0.073045	0.002192	33.326	120.106	-164.809	0.080188	0.088439	-1.000823	-1.002155	0.046313	33.326	-1.001866	-2.403732E+13	-1.926692E-15	NaN
255	1.000000	0.097754	7.36755e+06	-51389.1	955.818	-29752.8	0.000000	0.000000	6.098763	0.087813	NaN	0.000000	0.001734	0.001704	28.0786	0.010698	0.001895	5.644259	134.917	-166.944	0.069303	0.096418	-0.992840	-0.994176	0.087813	5.644259	-1.004509	-2.608948E+13	-3.365834E-15	NaN
255	1.000000	0.105761	7.36755e+06	-51389.1	955.818	-29752.8	0.000000	0.000000	6.106767	-0.011279	NaN	0.000000	0.001736	0.001709	28.0784	0.003840	0.001945	1.974582	-27.5712	-165.418	-0.003098	0.104465	-0.984832	-0.986128	-0.011279	1.974582	-0.980548	-1.241072E+13	9.088383E-16	NaN
255	1.000000	0.113737	7.36755e+06	-51389.1	955.818	-29752.8	0.000000	0.000000	6.114745	0.039993	NaN	0.000000	0.001772	0.001683	28.0784	0.052854	0.001971	26.8156	-124.288	-166.011	0.030255	0.112506	-0.976856	-0.978088	0.039993	26.8156	-0.977975	-1.145851E+13	-3.490286E-15	NaN
255	1.000000	0.121795	7.36755e+06	-51389.1	955.818	-29752.8	0.000000	0.000000	6.122803	0.057412	NaN	0.000000	0.001749	0.001672	28.0782	0.030684	0.001946	15.7695	179.418	-167.08	0.048154	0.120446	-0.968799	-0.970148	0.057412	15.7695	-0.971530	-9.381622E+12	-6.119597E-15	NaN
255	1.000000	0.129795	7.36755e+06	-51389.1	955.818	-29752.8	0.000000	0.000000	6.130800	-0.026539	NaN	0.000000	0.001777	0.001676	28.0781	0.143388	0.002116	67.7567	-143.964	-167.841	-0.059998	0.128473	-0.960799	-0.962121	-0.026539	67.7567	-0.960505	-6.663188E+12	3.982881E-15	NaN
255	1.000000	0.137765	7.36755e+06	-51389.1	955.819	-29752.8	0.000000	0.000000	6.138774	0.063527	NaN	0.000000	0.001775	0.001707	28.0783	0.082045	0.002075	39.5381	-113.509	-166.499	0.043700	0.136495	-0.952829	-0.954099	0.063527	39.5381	-0.954034	-5.450327E+12	-1.165563E-14	NaN
255	1.000000	0.145804	7.36755e+06	-51389.1	955.818	-29752.8	0.000000	0.000000	6.146814	0.111833	NaN	0.000000	0.001744	0.001731	28.0793	0.037670	0.002004	18.7947	135.333	-165.385	-0.000423	0.144507	-0.944790	-0.946087	0.111833	18.7947	-0.949253	-4.698401E+12	-2.380225E-14	NaN
255	1.000000	0.153792	7.36755e+06	-51389.1	955.818	-29752.8	0.000000	0.000000	6.154802	0.100511	NaN	0.000000	0.001776	0.001754	28.0798	0.035776	0.001983	18.0401	-100.526	-164.044	0.054736	0.152486	-0.936802	-0.938108	0.100511	18.0401	-0.940980	-3.633821E+12	-2.765982E-14	NaN
255	1.000000	0.161785	7.36755e+06	-51389.1	955.818	-29752.8	0.000000	0.000000	6.162793	0.045309	NaN	0.000000	0.001753	0.001725	28.0795	0.087382	0.001963	44.5168	45.8137	-165.785	0.057571	0.160454	-0.928809	-0.930140	0.045309	44.5168	-0.929572	-2.549291E+12	-1.777318E-14	NaN
255	1.000000	0.169811	7.36755e+06	-51389.1	955.819	-29752.8	0.000000	0.000000	6.170821	0.104718	NaN	0.000000	0.001754	0.001707	28.0793	0.025368	0.001907	13.3011	-87.3458	-164.122	0.041316	0.168429	-0.920783	-0.922164	0.104718	13.3011	-0.926688	-2.330734E+12	-4.492912E-14	NaN
255	1.000000	0.177785	7.36755e+06	-51389.1	955.819	-29752.8	0.000000	0.000000	6.178792	0.024718	NaN	0.000000	0.001773	0.001719	28.0793	0.095401	0.002042	46.7214	-110.543	-166.696	0.063055	0.176454	-0.912809	-0.914140	0.024718	46.7214	-0.913205	-1.532692E+12	-1.612705E-14	NaN
255	1.000000	0.185804	7.36755e+06	-51389.1	955.818	-29752.8	0.000000	0.000000	6.186812	0.031034	NaN	0.000000	0.001699	0.001747	28.0792	0.059320	0.001990	29.8117	-153.651	-163.574	0.021521	0.184473	-0.904789	-0.906120	0.031034	29.8117	-0.905570	-1.208715E+12	-2.567556E-14	NaN
255	1.000000	0.193786	7.36755e+06	-51389.1	955.818	-29752.8	0.000000	0.000000	6.194792	0.005273	NaN	0.000000	0.001672	0.001759	28.0796	0.047611	0.001991	23.9145	-82.2649	-167.739	-0.017132	0.192522	-0.896808	-0.898072	0.005273	23.9145	-0.896973	-9.250512E+11	-5.700709E-15	NaN
255	1.000000	0.201829	7.36755e+06	-51389.1	955.818	-29752.8	0.000000	0.000000	6.202838	0.074255	NaN	0.000000	0.001691	0.001759	28.0794	0.144335	0.001947	74.1136	117.357	-164.18	0.116963	0.200543	-0.888765	-0.890051	0.074255	74.1136	-0.889516	-7.334578E+11	-1.012390E-13	NaN
255	1.000000	0.209813	7.36755e+06	-51389.1	955.818	-29752.8	0.000000	0.000000	6.210821	0.041328	NaN	0.000000	0.001762	0.001721	28.0795	0.067733	0.001989	34.0492	-104.041	-166.322	0.002605	0.208484	-0.880781	-0.882110	0.041328	34.0492	-0.881691	-5.748825E+11	-7.189012E-14	NaN
255	1.000000	0.217786	7.36755e+06	-51389.1	955.818	-29752.8	0.000000	0.000000	6.218792	-0.006043	NaN	0.000000	0.001776	0.001688	28.0793	0.051141	0.002021	25.3023	-97.1798	-163.987	0.008534	0.216512	-0.872808	-0.874082	-0.006043	25.3023	-0.872629	-4.335197E+11	1.393925E-14	NaN
255	1.000000	0.225801	7.36755e+06	-51389.1	955.818	-29752.8	0.000000	0.000000	6.226808	0.026691	NaN	0.000000	0.001763	0.001721	28.0793	0.110633	0.002001	55.2805	57.6578	-165.954	0.032205	0.224517	-0.864793	-0.866077	0.026691	55.2805	-0.865155	-3.434657E+11	-7.771188E-14	NaN
255	1.000000	0.233835	7.36755e+06	-51389.1	955.819	-29752.8	0.000000	0.000000	6.234842	0.012719	NaN	0.000000	0.001781	0.001709	28.0795	0.096707	0.002103	45.983	-40.374	-165.199	0.023418	0.232548	-0.856758	-0.858046	0.012719	45.983	-0.856966	-2.661025E+11	-4.779815E-14	NaN
255	1.000000	0.241864	7.36755e+06	-51389.1	955.818	-29752.8	0.000000	0.000000	6.242873	0.072947	NaN	0.000000	0.001668	0.001741	28.0794	0.031220	0.001907	16.3755	-28.6004	-161.503	0.016896	0.240469	-0.848729	-0.850125	0.072947	16.3755	-0.852070	-2.284407E+11	-3.193265E-13	NaN
255	1.000000	0.249811	7.36755e+06	-51389.1	955.818	-29752.8	0.000000	0.000000	6.250820	0.083532	NaN	0.000000	0.001677	0.001730	28.0796	0.146739	0.001968	74.5649	175.034	-166.37	0.013032	0.248560	-0.840783	-0.842034	0.083532	74.5649	-0.841623	-1.649248E+11	-5.064837E-13	NaN
255	1.000000	0.257847	7.36755e+06	-51389.1	955.818	-29752.8	0.000000	0.000000	6.258853	0.008170	NaN	0.000000	0.001693	0.001741	28.0795	0.060557	0.002106	28.7499	-92.1696	-165.659	-0.037738	0.256507	-0.832747	-0.834087	0.008170	28.7499	-0.832960	-1.258647E+11	-6.490959E-14	NaN
255	1.000000	0.265832	7.36755e+06	-51389.1	955.819	-29752.8	0.000000	0.000000	6.266842	0.091360	NaN	0.000000	0.001688	0.001743	28.0797	0.046749	0.001972	23.7052	-15.3441	-164.772	0.068409	0.264486	-0.824762	-0.826108	0.091360	23.7052	-0.827652	-1.066497E+11	-8.566385E-13	NaN
255	1.000000	0.273855	7.36755e+06	-51389.1	955.819	-29752.8	0.000000	0.000000	6.274863	0.048110	NaN	0.000000	0.001707	0.001739	28.0796	0.106598	0.001990	53.5583	140.173	-163.85	0.005946	0.272482	-0.816739	-0.818111	0.048110	53.5583	-0.817413	-7.746847E+10	-6.210288E-13	NaN
255	1.000000	0.281847	7.36755e+06	-51389.1	955.818	-29752.8	0.000000	0.000000	6.282855	0.035814	NaN	0.000000	0.001687	0.001761	28.0784	0.055701	0.001933	28.8201	-112.749	-165.256	0.039911	0.280556	-0.808747	-0.810038	0.035814	28.8201	-0.809679	-6.084337E+10	-5.886237E-13	NaN
255	1.000000	0.289842	7.36755e+06	-51389.1	955.818	-29752.8	0.000000	0.000000	6.290850	0.041428	NaN	0.000000	0.001679	0.001712	28.0786	0.062642	0.002076	30.1794	-36.904	-168.136	0.102155	0.288513	-0.800752	-0.802081	0.041428	30.1794	-0.801781	-4.753773E+10	-8.714758E-13	NaN
255	1.000000	0.297876	7.36755e+06	-51389.1	955.818	-29752.8	0.000000	0.000000	6.298886	0.090270	NaN	0.000000	0.001645	0.001723	28.0788	0.085445	0.001934	44.1755	-93.9145	-168.105	0.077089	0.296547	-0.792718	-0.794047	0.090270	44.1755	-0.794250	-3.756677E+10	-2.402911E-12	NaN
255	1.000000	0.305859	7.36755e+06	-51389.1	955.818	-29752.8	0.000000	0.000000	6.306868	0.058388	NaN	0.000000	0.001652	0.001739	28.0796	0.053311	0.001986	26.8392	-175.96	-162.91	-0.025515	0.304530	-0.784735	-0.786063	0.058388	26.8392	-0.786366	-2.935808E+10	-1.988809E-12	NaN
255	1.000000	0.313860	7.36755e+06	-51389.1	955.818	-29752.8	0.000000	0.000000	6.314871	0.114639	NaN	0.000000	0.001736	0.001753	28.0785	0.015124	0.002148	7.041300	79.6062	-165.744	0.138373	0.312538	-0.776734	-0.778056	0.114639	7.041300	-0.788945	-3.182363E+10	-3.602314E-12	NaN
255	1.000000	0.321854	7.36755e+06	-51389.1	955.818	-29752.8	0.000000	0.000000	6.322860	-0.004767	NaN	0.000000	0.001676	0.001700	28.0784	0.007335	0.002060	3.560092	-56.0541	-165.262	-0.038333	0.320599	-0.768739	-0.769995	-0.004767	3.560092	-0.767735	-1.638747E+10	2.908707E-13	NaN
255	1.000000	0.329855	7.36755e+06	-51389.1	955.819	-29752.8	0.000000	0.000000	6.330865	0.090706	NaN	0.000000	0.001713	0.001728	28.0782	0.096016	0.002052	46.7906	-142.663	-161.979	0.024255	0.328545	-0.760738	-0.762049	0.090706	46.7906	-0.762192	-1.377609E+10	-6.584276E-12	NaN
255	1.000000	0.337877	7.36755e+06	-51389.1	955.818	-29752.8	0.000000	0.000000	6.338883	0.008971	NaN	0.000000	0.001700	0.001707	28.0784	0.106662	0.001951	54.6674	169.431	-164.694	-0.028678	0.336514	-0.752717	-0.754080	0.008971	54.6674	-0.752840	-1.027723E+10	-8.729099E-13	NaN
255	1.000000	0.345884	7.36755e+06	-51389.1	955.818	-29752.8	0.000000	0.000000	6.346895	0.104862	NaN	0.000000	0.001698	0.001729	28.0787	0.152302	0.002050	74.3115	-144.312	-165.77	0.120018	0.344583	-0.744710	-0.746010	0.104862	74.3115	-0.745768	-8.233905E+9	-1.273543E-11	NaN
255	1.000000	0.353884	7.36755e+06	-51389.1	955.818	-29752.8	0.000000	0.000000	6.354890	0.003804	NaN	0.000000	0.001715	0.001716	28.0785	0.042900	0.001958	21.9085	-11.1152	-166.817	-0.099688	0.352540	-0.736710	-0.738054	0.003804	21.9085	-0.736840	-6.223179E+9	-6.113199E-13	NaN
255	1.000000	0.361867	7.36755e+06	-51389.1	955.819	-29752.8	0.000000	0.000000	6.362877	0.088967	NaN	0.000000	0.001722	0.001715	28.0785	0.071964	0.002119	33.9685	55.0004	-168.584	0.010063	0.360580	-0.728727	-0.730013	0.088967	33.9685	-0.730691	-5.131294E+9	-1.733810E-11	NaN
255	1.000000	0.369899	7.36755e+06	-51389.1	955.818	-29752.8	0.000000	0.000000	6.370908	0.055051	NaN	0.000000	0.001709	0.001715	28.0784	0.027643	0.002088	13.2366	66.436	-167.442	0.002863	0.368538	-0.720694	-0.722056	0.055051	13.2366	-0.723814	-4.135027E+9	-1.331341E-11	NaN
255	1.000000	0.377871	7.36755e+06	-51389.1	955.819	-29752.8	0.000000	0.000000	6.378877	-0.016103	NaN	0.000000	0.001666	0.001754	28.0784	0.075394	0.001828	41.2461	82.9382	-166.32	-0.031166	0.376543	-0.712722	-0.714051	-0.016103	41.2461	-0.712430	-2.892029E+9	5.568060E-12	NaN
255	1.000000	0.385887	7.36755e+06	-51389.1	955.819	-29752.8	0.000000	0.000000	6.386894	0.022338	NaN	0.000000	0.001687	0.001711	28.0787	0.072461	0.001956	37.0545	19.9101	-165.224	-0.057153	0.384579	-0.704707	-0.706015	0.022338	37.0545	-0.705159	-2.301285E+9	-9.706703E-12	NaN
255	1.000000	0.393889	7.36755e+06	-51389.1	955.819	-29752.8	0.000000	0.000000	6.394900	0.104528	NaN	0.000000	0.001661	0.001697	28.0782	0.028154	0.002005	14.042	-146.072	-163.014	0.077536	0.392572	-0.696705	-0.698022	0.104528	14.042	-0.702288	-2.102659E+9	-4.971228E-11	NaN
255	1.000000	0.401879	7.36755e+06	-51389.1	955.818	-29752.8	0.000000	0.000000	6.402886	0.022935	NaN	0.000000	0.001693	0.001711	28.0788	0.103248	0.002050	50.3709	0.799518	-166.968	0.091418	0.400550	-0.688715	-0.690044	0.022935	50.3709	-0.689056	-1.386811E+9	-1.653759E-11	NaN
255	1.000000	0.409888	7.36755e+06	-51389.1	955.818	-29752.8	0.000000	0.000000	6.410895	0.018629	NaN	0.000000	0.001661	0.001687	28.0784	0.017719	0.001986	8.920625	-34.0649	-164.611	-0.053181	0.408540	-0.680705	-0.682054	0.018629	8.920625	-0.682272	-1.120133E+9	-1.663138E-11	NaN
255	1.000000	0.417905	7.36755e+06	-51389.1	955.817	-29752.8	0.000000	0.000000	6.418911	0.006793	NaN	0.000000	0.001694	0.001679	28.0795	0.052928	0.001971	26.8477	21.7922	-165.308	0.023582	0.416603	-0.672689	-0.673991	0.006793	26.8477	-0.672879	-8.332724E+8	-8.152450E-12	NaN
255	1.000000	0.425927	7.36755e+06	-51389.1	955.819	-29752.8	0.000000	0.000000	6.426934	0.032885	NaN	0.000000	0.001657	0.001723	28.0799	0.112658	0.002096	53.7499	141.377	-162.819	0.021590	0.424586	-0.664667	-0.666008	0.032885	53.7499	-0.665126	-6.526263E+8	-5.038848E-11	NaN
255	1.000000	0.433940	7.36755e+06	-51389.1	955.818	-29752.8	0.000000	0.000000	6.434950	0.103601	NaN	0.000000	0.001651	0.001673	28.0797	0.080377	0.001967	40.8693	175.636	-166.706	0.024067	0.432583	-0.656654	-0.658011	0.103601	40.8693	-0.658555	-5.304896E+8	-1.952931E-10	NaN
255	1.000000	0.441887	7.36755e+06	-51389.1	955.817	-29752.8	0.000000	0.000000	6.442892	-0.014417	NaN	0.000000	0.001603	0.001709	28.0799	0.063777	0.002041	31.2456	63.3401	-168.074	-0.007705	0.440600	-0.648707	-0.649994	-0.014417	31.2456	-0.648361	-3.845605E+8	3.748969E-11	NaN
255	1.000000	0.449914	7.36755e+06	-51389.1	955.818	-29752.8	0.000000	0.000000	6.450921	0.003837	NaN	0.000000	0.001600	0.001690	28.0794	0.072509	0.002002	36.2152	-113.634	-166.933	0.066079	0.448598	-0.640679	-0.641996	0.003837	36.2152	-0.640759	-3.024835E+8	-1.268498E-11	NaN
255	1.000000	0.457901	7.36755e+06	-51389.1	955.817	-29752.8	0.000000	0.000000	6.458909	0.031938	NaN	0.000000	0.001600	0.001651	28.0796	0.118972	0.002095	56.7938	111.359	-169.757	0.060468	0.456616	-0.632693	-0.633978	0.031938	56.7938	-0.633114	-2.375674E+8	-1.344383E-10	NaN
255	1.000000	0.465895	7.36755e+06	-51389.1	955.818	-29752.8	0.000000	0.000000	6.466903	0.038547	NaN	0.000000	0.001569	0.001707	28.0796	0.079398	0.001806	43.9589	139.461	-166.522	0.037966	0.464595	-0.624698	-0.625998	0.038547	43.9589	-0.625356	-1.858814E+8	-2.073750E-10	NaN
255	1.000000	0.473935	7.36755e+06	-51389.1	955.819	-29752.8	0.000000	0.000000	6.474944	0.060122	NaN	0.000000	0.001595	0.001700	28.0792	0.104691	0.001969	53.1748	-152.319	-165.632	0.054419	0.472574	-0.616659	-0.618019	0.060122	53.1748	-0.617507	-1.449965E+8	-4.146438E-10	NaN
255	1.000000	0.481891	7.36755e+06	-51389.1	955.819	-29752.8	0.000000	0.000000	6.482900	0.083547	NaN	0.000000	0.001600	0.001648	28.0795	0.088134	0.001971	44.7143	135.953	-167.02	0.034593	0.480617	-0.608703	-0.609976	0.083547	44.7143	-0.610104	-1.146968E+8	-7.284163E-10	NaN
255	1.000000	0.489918	7.36755e+06	-51389.1	955.817	-29752.8	0.000000	0.000000	6.490924	-0.003115	NaN	0.000000	0.001562	0.001686	28.0796	0.173655	0.002174	79.8693	106.844	-162.498	0.045144	0.488646	-0.600676	-0.601948	-0.003115	79.8693	-0.600647	-8.498970E+7	3.665358E-11	NaN
255	1.000000	0.497937	7.36755e+06	-51389.1	955.818	-29752.8	0.000000	0.000000	6.498944	0.014975	NaN	0.000000	0.001556	0.001684	28.0799	0.065998	0.001945	33.9395	-162.205	-162.779	-0.029802	0.496650	-0.592657	-0.593943	0.014975	33.9395	-0.592988	-6.665776E+7	-2.246480E-10	NaN
255	1.000000	0.505951	7.36755e+06	-51389.1	955.818	-29752.8	0.000000	0.000000	6.506956	-0.017857	NaN	0.000000	0.001550	0.001674	28.0799	0.119063	0.001820	65.4194	-52.4512	-162.154	-0.021933	0.504606	-0.584643	-0.585988	-0.017857	65.4194	-0.584438	-5.081211E+7	3.514367E-10	NaN
255	1.000000	0.513936	7.36755e+06	-51389.1	955.817	-29752.8	0.000000	0.000000	6.514945	0.063766	NaN	0.000000	0.001587	0.001669	28.0795	0.060807	0.001926	31.5664	66.4452	-168.682	0.083681	0.512639	-0.576657	-0.577954	0.063766	31.5664	-0.578172	-4.163890E+7	-1.531405E-9	NaN
255	1.000000	0.521926	7.36755e+06	-51389.1	955.819	-29752.8	0.000000	0.000000	6.522933	0.029661	NaN	0.000000	0.001592	0.001656	28.0794	0.031315	0.002052	15.2584	-75.0347	-164.812	0.068435	0.520603	-0.568668	-0.569990	0.029661	15.2584	-0.570126	-3.223798E+7	-9.200664E-10	NaN
255	1.000000	0.529937	7.36755e+06	-51389.1	955.818	-29752.8	0.000000	0.000000	6.530943	-0.002742	NaN	0.000000	0.001572	0.001653	28.0796	0.124133	0.001953	63.5505	-58.3369	-172.064	0.031162	0.528652	-0.560657	-0.561941	-0.002742	63.5505	-0.560624	-2.382405E+7	1.150790E-10	NaN
255	1.000000	0.537930	7.36755e+06	-51389.1	955.818	-29752.8	0.000000	0.000000	6.538937	0.027222	NaN	0.000000	0.001584	0.001657	28.0799	0.181472	0.002050	88.5194	-8.718865	-166.776	0.034105	0.536603	-0.552664	-0.553990	0.027222	88.5194	-0.552895	-1.862271E+7	-1.461784E-9	NaN
255	1.000000	0.545951	7.36755e+06	-51389.1	955.819	-29752.8	0.000000	0.000000	6.546958	0.025319	NaN	0.000000	0.001583	0.001700	28.0795	0.075374	0.001917	39.3187	-73.4072	-164.306	0.111793	0.544640	-0.544642	-0.545954	0.025319	39.3187	-0.545125	-1.453510E+7	-1.741923E-9	NaN
255	1.000000	0.553937	7.36755e+06	-51389.1	955.819	-29752.8	0.000000	0.000000	6.554945	0.041009	NaN	0.000000	0.001577	0.001671	28.0792	0.041741	0.001929	21.6392	-177.17	-166.782	0.005703	0.552696	-0.536657	-0.537898	0.041009	21.6392	-0.538078	-1.160642E+7	-3.533303E-9	NaN
255	1.000000	0.561988	7.36755e+06	-51389.1	955.818	-29752.8	0.000000	0.000000	6.562997	0.080564	NaN	0.000000	0.001548	0.001648	28.0784	0.180965	0.002042	88.606	44.3254	-165.216	0.093400	0.560667	-0.528606	-0.529926	0.080564	88.606	-0.529288	-8.76364e+06	-9.193024E-9	NaN
255	1.000000	0.569954	7.36755e+06	-51389.1	955.818	-29752.8	0.000000	0.000000	6.570963	0.074256	NaN	0.000000	0.001595	0.001672	28.0787	0.035762	0.001991	17.9585	-81.9506	-167.774	0.022785	0.568656	-0.520640	-0.521938	0.074256	17.9585	-0.523741	-7.3385e+06	-1.011863E-8	NaN
255	1.000000	0.577967	7.36755e+06	-51389.1	955.818	-29752.8	0.000000	0.000000	6.578973	-0.005874	NaN	0.000000	0.001549	0.001660	28.0786	0.101474	0.002083	48.7136	-167.428	-165.699	0.038283	0.576637	-0.512627	-0.513957	-0.005874	48.7136	-0.512536	-5.12549e+06	1.145957E-9	NaN
255	1.000000	0.585946	7.36755e+06	-51389.1	955.819	-29752.8	0.000000	0.000000	6.586953	0.025243	NaN	0.000000	0.001575	0.001676	28.0786	0.063533	0.001927	32.9703	-176.404	-166.158	0.070273	0.584678	-0.504648	-0.505916	0.025243	32.9703	-0.505222	-4.05362e+06	-6.227222E-9	NaN
255	1.000000	0.593969	7.36755e+06	-51389.1	955.818	-29752.8	0.000000	0.000000	6.594977	0.047697	NaN	0.000000	0.001573	0.001616	28.079	0.035031	0.001968	17.8033	7.646065	-165.997	0.048642	0.592647	-0.496625	-0.497947	0.047697	17.8033	-0.498634	-3.28063e+06	-1.453903E-8	NaN
255	1.000000	0.601982	7.36755e+06	-51389.1	955.817	-29752.8	0.000000	0.000000	6.602989	0.019624	NaN	0.000000	0.001631	0.001606	28.0785	0.068607	0.001951	35.1693	39.7227	-165.965	0.018102	0.600681	-0.488612	-0.489913	0.019624	35.1693	-0.489031	-2.40904e+06	-8.146037E-9	NaN
255	1.000000	0.609962	7.36755e+06	-51389.1	955.819	-29752.8	0.000000	0.000000	6.610968	0.006506	NaN	0.000000	0.001622	0.001623	28.0786	0.069155	0.001932	35.7971	13.6783	-167.121	0.113996	0.608649	-0.480632	-0.481945	0.006506	35.7971	-0.480768	-1.84621e+06	-3.524000E-9	NaN
255	1.000000	0.617966	7.36755e+06	-51389.1	955.818	-29752.8	0.000000	0.000000	6.618974	0.051343	NaN	0.000000	0.001631	0.001632	28.0784	0.058729	0.002048	28.674	-105.257	-162.566	-0.001085	0.616691	-0.472628	-0.473903	0.051343	28.674	-0.473971	-1.48279e+06	-3.462627E-8	NaN
255	1.000000	0.626008	7.36755e+06	-51389.1	955.818	-29752.8	0.000000	0.000000	6.627018	0.096136	NaN	0.000000	0.001591	0.001586	28.0786	0.088964	0.001894	46.9784	80.345	-165.035	0.092835	0.624642	-0.464586	-0.465952	0.096136	46.9784	-0.466120	-1.15073e+06	-8.354336E-8	NaN
255	1.000000	0.633978	7.36755e+06	-51389.1	955.817	-29752.8	0.000000	0.000000	6.634984	0.010271	NaN	0.000000	0.001663	0.001612	28.0788	0.072332	0.002045	35.3631	-130.708	-165.156	0.036338	0.632697	-0.456616	-0.457896	0.010271	35.3631	-0.456834	-852138	-1.205348E-8	NaN
255	1.000000	0.642007	7.36755e+06	-51389.1	955.818	-29752.8	0.000000	0.000000	6.643015	0.042201	NaN	0.000000	0.001663	0.001599	28.0783	0.149329	0.001935	77.1656	140.291	-166.46	-0.073302	0.640686	-0.448587	-0.449908	0.042201	77.1656	-0.448997	-661022	-6.384149E-8	NaN
255	1.000000	0.650014	7.36755e+06	-51389.1	955.818	-29752.8	0.000000	0.000000	6.651020	-0.002012	NaN	0.000000	0.001658	0.001633	28.0798	0.093843	0.001925	48.7435	-162.844	-165.235	0.039975	0.648623	-0.440580	-0.441971	-0.002012	48.7435	-0.440549	-502469	4.003850E-9	NaN
255	1.000000	0.658015	7.36755e+06	-51389.1	955.818	-29752.8	0.000000	0.000000	6.659027	0.143628	NaN	0.000000	0.001694	0.001646	28.0784	0.049573	0.002004	24.7431	-62.0216	-165.556	0.176546	0.656684	-0.432579	-0.433910	0.143628	24.7431	-0.436932	-446739	-3.215038E-7	NaN
255	1.000000	0.666018	7.36755e+06	-51389.1	955.82	-29752.8	0.000000	0.000000	6.667023	-0.034475	NaN	0.000000	0.001675	0.001607	28.0783	0.115775	0.002123	54.5418	61.0802	-164.869	0.033237	0.664743	-0.424575	-0.425850	-0.034475	54.5418	-0.424101	-294138	1.172082E-7	NaN
255	1.000000	0.674023	7.36755e+06	-51389.1	955.819	-29752.8	0.000000	0.000000	6.675032	0.064878	NaN	0.000000	0.001672	0.001607	28.0787	0.119578	0.002090	57.217	-81.4796	-165.221	0.055510	0.672709	-0.416571	-0.417885	0.064878	57.217	-0.417421	-236499	-2.743272E-7	NaN
255	1.000000	0.682040	7.36755e+06	-51389.1	955.818	-29752.8	0.000000	0.000000	6.683048	0.052917	NaN	0.000000	0.001618	0.001602	28.0784	0.090495	0.002043	44.2922	-26.9429	-165.235	0.066850	0.680694	-0.408554	-0.409900	0.052917	44.2922	-0.409450	-182212	-2.904153E-7	NaN
255	1.000000	0.690023	7.36755e+06	-51389.1	955.818	-29752.8	0.000000	0.000000	6.691031	0.024848	NaN	0.000000	0.001635	0.001602	28.0787	0.083842	0.001889	44.3767	177.533	-163.926	0.071230	0.688696	-0.400570	-0.401898	0.024848	44.3767	-0.400990	-138075	-1.799593E-7	NaN
255	1.000000	0.698021	7.36755e+06	-51389.1	955.818	-29752.8	0.000000	0.000000	6.699027	0.005326	NaN	0.000000	0.001606	0.001584	28.0795	0.097224	0.001956	49.7075	-18.9689	-164.574	0.084648	0.696704	-0.392573	-0.393890	0.005326	49.7075	-0.392653	-104980	-5.073714E-8	NaN
255	1.000000	0.706030	7.36755e+06	-51389.1	955.818	-29752.8	0.000000	0.000000	6.707039	0.076904	NaN	0.000000	0.001639	0.001593	28.0798	0.054296	0.001967	27.6076	47.7075	-165.687	0.058577	0.704690	-0.384564	-0.385904	0.076904	27.6076	-0.386653	-86151.8	-8.926585E-7	NaN
255	1.000000	0.714008	7.36755e+06	-51389.1	955.817	-29752.8	0.000000	0.000000	6.715017	0.068164	NaN	0.000000	0.001610	0.001565	28.0797	0.089657	0.001982	45.2291	8.819126	-162.093	0.056324	0.712680	-0.376585	-0.377914	0.068164	45.2291	-0.377716	-64134.7	-1.062825E-6	NaN
255	1.000000	0.722030	7.36755e+06	-51389.1	955.818	-29752.8	0.000000	0.000000	6.723037	0.025311	NaN	0.000000	0.001609	0.001595	28.0795	0.014859	0.002107	7.053781	-57.8256	-164.634	-0.042358	0.720713	-0.368564	-0.369881	0.025311	7.053781	-0.371255	-51783.8	-4.887859E-7	NaN
255	1.000000	0.730006	7.36755e+06	-51389.1	955.818	-29752.8	0.000000	0.000000	6.731013	0.022397	NaN	0.000000	0.001619	0.001618	28.0795	0.183465	0.001987	92.3384	155.883	-168.151	-0.049731	0.728747	-0.360588	-0.361847	0.022397	92.3384	-0.360770	-36556.9	-6.126517E-7	NaN
255	1.000000	0.738056	7.36755e+06	-51389.1	955.818	-29752.8	0.000000	0.000000	6.739066	0.081658	NaN	0.000000	0.001556	0.001601	28.0794	0.018831	0.001983	9.498295	77.0501	-163.697	0.071722	0.736726	-0.352538	-0.353868	0.081658	9.498295	-0.358986	-34449.1	-2.370397E-6	NaN
255	1.000000	0.746027	7.36755e+06	-51389.1	955.818	-29752.8	0.000000	0.000000	6.747037	0.112354	NaN	0.000000	0.001648	0.001583	28.0797	0.020588	0.002117	9.726712	-51.4263	-165.223	0.108813	0.744749	-0.344567	-0.345845	0.112354	9.726712	-0.353231	-28435.3	-3.951204E-6	NaN
255	1.000000	0.754019	7.36755e+06	-51389.1	955.818	-29752.8	0.000000	0.000000	6.755028	0.063927	NaN	0.000000	0.001659	0.001586	28.0794	0.032797	0.001913	17.1415	90.1835	-164.739	0.090589	0.752738	-0.336575	-0.337856	0.063927	17.1415	-0.339372	-17881	-3.575114E-6	NaN
255	1.000000	0.762052	7.36755e+06	-51389.1	955.818	-29752.8	0.000000	0.000000	6.763059	0.010015	NaN	0.000000	0.001669	0.001613	28.0792	0.073213	0.002059	35.5548	130.606	-166.058	-0.016158	0.760687	-0.328541	-0.329907	0.010015	35.5548	-0.328753	-12507.7	-8.006876E-7	NaN
255	1.000000	0.770063	7.36755e+06	-51389.1	955.819	-29752.8	0.000000	0.000000	6.771068	-0.008357	NaN	0.000000	0.001656	0.001619	28.0796	0.034780	0.002057	16.9056	76.3665	-165.803	0.049230	0.768742	-0.320531	-0.321852	-0.008357	16.9056	-0.320160	-9354.01	8.934029E-7	NaN
255	1.000000	0.778008	7.36755e+06	-51389.1	955.819	-29752.8	0.000000	0.000000	6.779015	0.016959	NaN	0.000000	0.001626	0.001620	28.0795	0.078914	0.002120	37.2182	-139.048	-169.516	0.030169	0.776764	-0.312586	-0.313830	0.016959	37.2182	-0.312927	-7317.14	-2.317759E-6	NaN
255	1.000000	0.786042	7.36755e+06	-51389.1	955.818	-29752.8	0.000000	0.000000	6.787050	0.030694	NaN	0.000000	0.001708	0.001643	28.0795	0.081457	0.001981	41.1252	135.465	-165.179	-0.009338	0.784818	-0.304551	-0.305775	0.030694	41.1252	-0.305111	-5605.36	-5.475868E-6	NaN
255	1.000000	0.794041	7.36755e+06	-51389.1	955.817	-29752.8	0.000000	0.000000	6.795048	0.019697	NaN	0.000000	0.001717	0.001612	28.0794	0.007134	0.001938	3.680813	38.5475	-167.179	0.095882	0.792712	-0.296553	-0.297882	0.019697	3.680813	-0.300566	-4798.06	-4.105196E-6	NaN
255	1.000000	0.802072	7.36755e+06	-51389.1	955.818	-29752.8	0.000000	0.000000	6.803078	0.001948	NaN	0.000000	0.001692	0.001616	28.0796	0.105790	0.002076	50.9504	-17.4103	-169.886	0.024766	0.800743	-0.288522	-0.289851	0.001948	50.9504	-0.288551	-3173.81	-6.137351E-7	NaN
255	1.000000	0.810049	7.36755e+06	-51389.1	955.819	-29752.8	0.000000	0.000000	6.811056	0.020140	NaN	0.000000	0.001686	0.001651	28.0795	0.134032	0.002016	66.488	66.2883	-164.903	0.040577	0.808719	-0.280545	-0.281874	0.020140	66.488	-0.280772	-2424.46	-8.306852E-6	NaN
255	1.000000	0.818056	7.36755e+06	-51389.1	955.818	-29752.8	0.000000	0.000000	6.819063	0.025313	NaN	0.000000	0.001664	0.001659	28.0795	0.007736	0.002066	3.743971	-1.816717	-164.266	0.025585	0.816784	-0.272538	-0.273810	0.025313	3.743971	-0.277608	-2172	-1.165406E-5	NaN
255	1.000000	0.826059	7.36755e+06	-51389.1	955.818	-29752.8	0.000000	0.000000	6.827071	0.149055	NaN	0.000000	0.001738	0.001594	28.0793	0.083073	0.002032	40.8794	-80.0737	-166.087	0.090935	0.824749	-0.264535	-0.265845	0.149055	40.8794	-0.267270	-1513.55	-9.848024E-5	NaN
255	1.000000	0.834102	7.36755e+06	-51389.1	955.818	-29752.8	0.000000	0.000000	6.835111	0.085386	NaN	0.000000	0.001691	0.001622	28.0781	0.110410	0.001954	56.4988	69.4054	-167.539	0.071740	0.832786	-0.256492	-0.257808	0.085386	56.4988	-0.257626	-1077.67	-7.923146E-5	NaN
255	1.000000	0.842076	7.36755e+06	-51389.1	955.817	-29752.8	0.000000	0.000000	6.843087	0.108795	NaN	0.000000	0.001690	0.001606	28.0783	0.011085	0.001954	5.674062	149.935	-166.217	0.093191	0.840781	-0.248517	-0.249813	0.108795	5.674062	-0.262898	-1298.01	-8.381669E-5	NaN
255	1.000000	0.850092	7.36755e+06	-51389.1	955.819	-29752.8	0.000000	0.000000	6.851100	0.045469	NaN	0.000000	0.001679	0.001605	28.0781	0.029147	0.001925	15.139	-40.4456	-168.611	-0.025472	0.848792	-0.240502	-0.241802	0.045469	15.139	-0.242754	-634.619	-7.164696E-5	NaN
255	1.000000	0.858095	7.36755e+06	-51389.1	955.818	-29752.8	0.000000	0.000000	6.859100	-0.037371	NaN	0.000000	0.001729	0.001605	28.0781	0.012459	0.001881	6.623777	-23.1258	-168.526	0.015568	0.856783	-0.232498	-0.233810	-0.037371	6.623777	-0.228267	-375.943	9.940741E-5	NaN
255	1.000000	0.866129	7.36755e+06	-51389.1	955.819	-29752.8	0.000000	0.000000	6.867135	-0.008019	NaN	0.000000	0.001648	0.001588	28.0784	0.044920	0.001947	23.0739	80.6021	-163.177	0.163696	0.864733	-0.224465	-0.225861	-0.008019	23.0739	-0.224204	-324.107	2.474059E-5	NaN
255	1.000000	0.874074	7.36755e+06	-51389.1	955.818	-29752.8	0.000000	0.000000	6.875082	0.063077	NaN	0.000000	0.001656	0.001615	28.0782	0.057724	0.002111	27.3449	-154.555	-167.83	0.009194	0.872787	-0.216520	-0.217807	0.063077	27.3449	-0.218250	-260.425	-0.000242	NaN
255	1.000000	0.882090	7.36755e+06	-51389.1	955.818	-29752.8	0.000000	0.000000	6.883100	0.089953	NaN	0.000000	0.001682	0.001594	28.0787	0.160555	0.002099	76.4966	-106.241	-166.002	0.059211	0.880818	-0.208504	-0.209776	0.089953	76.4966	-0.209386	-187.444	-0.000480	NaN
255	1.000000	0.890097	7.36755e+06	-51389.1	955.818	-29752.8	0.000000	0.000000	6.891105	0.053111	NaN	0.000000	0.001669	0.001611	28.0784	0.135764	0.002149	63.1864	-145.331	-165.304	0.144720	0.888792	-0.200497	-0.201802	0.053111	63.1864	-0.201127	-137.469	-0.000386	NaN
255	1.000000	0.898116	7.36755e+06	-51389.1	955.818	-29752.8	0.000000	0.000000	6.899126	0.093879	NaN	0.000000	0.001652	0.001632	28.0784	0.086003	0.002024	42.489	-166.846	-170.294	0.050031	0.896773	-0.192478	-0.193821	0.093879	42.489	-0.194135	-105.407	-0.000891	NaN
255	1.000000	0.906099	7.36755e+06	-51389.1	955.818	-29752.8	0.000000	0.000000	6.907107	0.026042	NaN	0.000000	0.001654	0.001622	28.0787	0.069987	0.001935	36.1723	-172.892	-169.13	0.056112	0.904816	-0.184494	-0.185778	0.026042	36.1723	-0.185034	-74.2522	-0.000351	NaN
255	1.000000	0.914088	7.36755e+06	-51389.1	955.818	-29752.8	0.000000	0.000000	6.915096	0.042656	NaN	0.000000	0.001668	0.001624	28.0782	0.022987	0.001979	11.6143	-148.533	-163.225	0.042935	0.912769	-0.176506	-0.177825	0.042656	11.6143	-0.179260	-59.2756	-0.000720	NaN
255	1.000000	0.922125	7.36755e+06	-51389.1	955.817	-29752.8	0.000000	0.000000	6.923130	-0.029238	NaN	0.000000	0.001673	0.001576	28.0788	0.028206	0.002031	13.8875	130.195	-167.305	0.039880	0.920799	-0.168469	-0.169795	-0.029238	13.8875	-0.166890	-36.2595	0.000806	NaN
255	1.000000	0.930106	7.36755e+06	-51389.1	955.819	-29752.8	0.000000	0.000000	6.931118	0.125412	NaN	0.000000	0.001638	0.001598	28.0782	0.017700	0.002031	8.716643	-39.9208	-168.108	0.089131	0.928795	-0.160487	-0.161798	0.125412	8.716643	-0.171278	-43.2292	-0.002901	NaN
255	1.000000	0.938114	7.36755e+06	-51389.1	955.819	-29752.8	0.000000	0.000000	6.939122	0.059113	NaN	0.000000	0.001650	0.001605	28.0786	0.107752	0.002065	52.1915	-136.217	-165.674	0.063633	0.936831	-0.152480	-0.153763	0.059113	52.1915	-0.153330	-20.8188	-0.002839	NaN
255	1.000000	0.946099	7.36755e+06	-51389.1	955.818	-29752.8	0.000000	0.000000	6.947109	0.092833	NaN	0.000000	0.001691	0.001539	28.0784	0.064030	0.001970	32.4998	173.938	-163.711	0.114038	0.944845	-0.144495	-0.145749	0.092833	32.4998	-0.146637	-15.7174	-0.005906	NaN
255	1.000000	0.954115	7.36755e+06	-51389.1	955.818	-29752.8	0.000000	0.000000	6.955119	-0.060351	NaN	0.000000	0.001651	0.001588	28.078	0.087376	0.002018	43.2908	3.763379	-164.798	-0.013884	0.952780	-0.136479	-0.137814	-0.060351	43.2908	-0.135433	-9.695095	0.006225	NaN
255	1.000000	0.962142	7.36755e+06	-51389.1	955.818	-29752.8	0.000000	0.000000	6.963151	0.076220	NaN	0.000000	0.001624	0.001601	28.079	0.117872	0.001818	64.8364	167.671	-167.475	0.059152	0.960758	-0.128452	-0.129836	0.076220	64.8364	-0.129333	-7.396809	-0.010304	NaN
255	1.000000	0.970113	7.36755e+06	-51389.1	955.818	-29752.8	0.000000	0.000000	6.971121	0.043250	NaN	0.000000	0.001597	0.001592	28.0797	0.144688	0.002126	68.0625	126.951	-166.688	0.030071	0.968809	-0.120481	-0.121784	0.043250	68.0625	-0.120958	-5.050912	-0.008563	NaN
255	1.000000	0.978138	7.36755e+06	-51389.1	955.818	-29752.8	0.000000	0.000000	6.979143	-0.021397	NaN	0.000000	0.001625	0.001627	28.0799	0.038464	0.002034	18.9082	-13.5593	-166.948	-0.010409	0.976853	-0.112456	-0.113740	-0.021397	18.9082	-0.111607	-3.248122	0.006587	NaN
255	1.000000	0.986118	7.36755e+06	-51389.1	955.817	-29752.8	0.000000	0.000000	6.987128	0.097224	NaN	0.000000	0.001625	0.001597	28.0798	0.008971	0.002007	4.470284	162.925	-167.074	-0.030190	0.984824	-0.104476	-0.105770	0.097224	4.470284	-0.120788	-5.011417	-0.019401	NaN
255	1.000000	0.994157	7.36755e+06	-51389.1	955.817	-29752.8	0.000000	0.000000	6.995165	0.052056	NaN	0.000000	0.001639	0.001604	28.0798	0.004920	0.001981	2.483417	21.8483	-165.159	0.061788	0.992814	-0.096437	-0.097779	0.052056	2.483417	-0.112158	-3.335422	-0.015607	NaN
255	1.000000	1.002157	7.36755e+06	-51389.1	955.818	-29752.8	0.000000	0.000000	7.003165	0.044129	NaN	0.000000	0.001637	0.001603	28.0799	0.068071	0.001915	35.5533	52.744	-165.38	0.034975	1.000818	-0.088437	-0.089775	0.044129	35.5533	-0.089368	-1.044615	-0.042244	NaN
255	1.000000	1.010123	7.36755e+06	-51389.1	955.817	-29752.8	0.000000	0.000000	7.011130	0.024844	NaN	0.000000	0.001592	0.001609	28.0796	0.061307	0.001971	31.0987	44.5385	-165.396	0.002504	1.008927	-0.080471	-0.081666	0.024844	31.0987	-0.081070	-0.658186	-0.037746	NaN
255	1.000000	1.018133	7.36755e+06	-51389.1	955.818	-29752.8	0.000000	0.000000	7.019142	0.086106	NaN	0.000000	0.001599	0.001575	28.0798	0.069324	0.002095	33.0976	-46.2812	-162.212	0.151604	1.016840	-0.072461	-0.073754	0.086106	33.0976	-0.074412	-0.445953	-0.193083	NaN
255	1.000000	1.026127	7.36755e+06	-51389.1	955.819	-29752.8	0.000000	0.000000	7.027136	0.057395	NaN	0.000000	0.001626	0.001587	28.0798	0.091709	0.002048	44.7867	115.036	-164.649	0.151012	1.024832	-0.064467	-0.065762	0.057395	44.7867	-0.065428	-0.256108	-0.224103	NaN
255	1.000000	1.034160	7.36755e+06	-51389.1	955.818	-29752.8	0.000000	0.000000	7.035169	0.075609	NaN	0.000000	0.001643	0.001596	28.0799	0.029677	0.001960	15.1431	-175.789	-162.773	0.017208	1.032829	-0.056434	-0.057765	0.075609	15.1431	-0.060179	-0.182230	-0.414912	NaN
255	1.000000	1.042143	7.36755e+06	-51389.1	955.818	-29752.8	0.000000	0.000000	7.043152	0.052910	NaN	0.000000	0.001643	0.001615	28.0797	0.012392	0.002084	5.947717	-94.1666	-166.629	0.067358	1.040843	-0.048451	-0.049751	0.052910	5.947717	-0.055122	-0.129855	-0.407454	NaN
255	1.000000	1.050185	7.36755e+06	-51389.1	955.818	-29752.8	0.000000	0.000000	7.051191	0.008341	NaN	0.000000	0.001607	0.001622	28.0796	0.025837	0.001858	13.9055	-99.8083	-164.012	0.040858	1.048843	-0.040409	-0.041751	0.008341	13.9055	-0.040859	-0.048026	-0.173674	NaN
255	1.000000	1.058154	7.36755e+06	-51389.1	955.818	-29752.8	0.000000	0.000000	7.059237	1.871443	NaN	0.000000	0.001639	0.001637	28.0798	1.567726	0.002062	760.338	12.6492	-170.244	1.340685	1.056816	-0.032439	-0.033778	1.871443	760.338	-0.034285	-0.030514	-61.3301	NaN
255	1.000000	1.066129	7.36755e+06	-51389.1	955.818	-29752.8	0.000000	0.000000	7.067363	5.545540	NaN	0.000000	0.001613	0.001609	28.0797	2.230225	0.001873	1190.68	15.4033	-166.968	4.937307	1.064807	-0.024465	-0.025786	5.545540	1190.68	-0.027958	-0.020222	-274.232	NaN
255	2.000000	1.072766	7.36755e+06	-51389.1	955.819	-29752.8	0.000000	0.000000	7.074067	7.188989	NaN	0.000000	0.001654	0.001597	28.0797	4.615025	0.001786	2584.01	19.3651	-172.675	8.196560	1.072431	-0.017828	-0.018163	7.188989	2584.01	-0.019915	-0.012498	-575.194	NaN
255	2.000000	1.074770	7.36755e+06	-51389.1	955.818	-29752.8	0.000000	0.000000	7.076050	6.659238	NaN	0.000000	0.001647	0.001617	28.0796	5.789462	0.001923	3010.57	14.2119	-172.349	6.856246	1.074480	-0.015824	-0.016114	6.659238	3010.57	-0.017482	-0.010822	-615.356	NaN
255	2.000000	1.076755	7.36755e+06	-51389.1	955.819	-29752.8	0.000000	0.000000	7.078103	8.300379	NaN	0.000000	0.001624	0.001585	28.0797	7.850983	0.001794	4376.31	11.2281	-173.401	8.088001	1.076419	-0.013839	-0.014175	8.300379	4376.31	-0.015261	-0.009432	-879.986	NaN
255	2.000000	1.078698	7.36755e+06	-51389.1	955.819	-29752.8	0.000000	0.000000	7.080167	11.2565	NaN	0.000000	0.001656	0.001598	28.0798	10.2162	0.001744	5856.24	10.8472	-175.036	10.9476	1.078407	-0.011895	-0.012187	11.2565	5856.24	-0.013337	-0.008297	-1356.67	NaN
255	2.000000	1.080709	7.36755e+06	-51389.1	955.819	-29752.8	0.000000	0.000000	7.082352	15.4909	NaN	0.000000	0.001633	0.001549	28.079	12.4299	0.001599	7772.22	4.216264	-170.191	14.7016	1.080404	-0.009885	-0.010190	15.4909	7772.22	-0.011380	-0.007175	-2159.12	NaN
255	2.000000	1.082691	7.36755e+06	-51389.1	955.819	-29752.8	0.000000	0.000000	7.084582	21.5326	NaN	0.000000	0.001659	0.001570	28.0794	14.3969	0.001610	8943.52	2.653418	-171.127	20.4544	1.082351	-0.007903	-0.008243	21.5326	8943.52	-0.009709	-0.006221	-3461.52	NaN
255	2.000000	1.084640	7.36755e+06	-51389.1	955.819	-29752.8	0.000000	0.000000	7.086804	28.1626	NaN	0.000000	0.001681	0.001622	28.0785	17.2648	0.001794	9624.35	3.938202	-172.837	27.5246	1.084409	-0.005954	-0.006185	28.1626	9624.35	-0.008149	-0.005319	-5295.06	NaN
255	2.000000	1.086642	7.36755e+06	-51389.1	955.818	-29752.8	0.000000	0.000000	7.089190	37.4888	NaN	0.000000	0.001688	0.001611	28.0786	18.948	0.001777	10661.3	8.880669	-179.426	35.615	1.086388	-0.003952	-0.004206	37.4888	10661.3	-0.006589	-0.004394	-8532.29	NaN
255	2.000000	1.088669	7.36755e+06	-51389.1	955.818	-29752.8	0.000000	0.000000	7.091581	46.351	NaN	0.000000	0.001696	0.001594	28.0785	21.7693	0.001852	11751.6	3.614799	-174.902	45.1129	1.088296	-0.001925	-0.002298	46.351	11751.6	-0.004883	-0.003343	-13865.5	NaN
255	2.000000	1.090722	7.36755e+06	-51389.1	955.819	-29752.8	0.000000	0.000000	7.094060	56.6991	NaN	0.000000	0.001670	0.001608	28.0785	23.5099	0.001866	12597.6	8.407964	179.761	56.4552	1.090339	0.000128	-0.000255	56.6991	12597.6	-0.003248	-0.002286	-24807.1	NaN
255	2.000000	1.092621	7.36755e+06	-51389.1	955.818	-29752.8	0.000000	0.000000	7.096388	67.14	NaN	0.000000	0.001620	0.001600	28.079	24.9469	0.001901	13125.2	8.762358	179.001	65.5395	1.092357	0.002027	0.001763	67.14	13125.2	-0.001810	-0.001307	-51370.1	NaN
255	2.000000	1.094652	7.36755e+06	-51389.1	955.818	-29752.8	0.000000	0.000000	7.098942	79.8617	NaN	0.000000	0.001602	0.001596	28.0784	26.4839	0.001821	14544.9	4.355158	-177.567	78.9566	1.094267	0.004058	0.003673	79.8617	14544.9	-5.971146E-5	-4.457146E-5	-1.79177e+06	NaN
255	2.000000	1.096591	7.36755e+06	-51389.1	955.818	-29752.8	0.000000	0.000000	7.101337	90.9592	NaN	0.000000	0.001628	0.001626	28.0788	28.4487	0.001783	15952	4.863731	-178.79	88.931	1.096306	0.005997	0.005712	90.9592	15952	0.001720	0.001330	68401.1	399665
255	2.000000	1.098588	7.36755e+06	-51389.1	955.818	-29752.8	0.000000	0.000000	7.103874	104.058	NaN	0.000000	0.001625	0.001660	28.0784	30.5704	0.001768	17289.1	7.540191	177.047	101.246	1.098259	0.007995	0.007665	104.058	17289.1	0.003481	0.002788	37317.2	299132
255	2.000000	1.100688	7.36755e+06	-51389.1	955.818	-29752.8	0.000000	0.000000	7.106543	117.894	NaN	0.000000	0.001681	0.001621	28.0783	32.123	0.001705	18839	2.520146	-178.635	116.498	1.100300	0.010094	0.009707	117.894	18839	0.005401	0.004502	26186.1	256519
255	2.000000	1.102601	7.36755e+06	-51389.1	955.817	-29752.8	0.000000	0.000000	7.109131	134.316	NaN	0.000000	0.001734	0.001594	28.0788	33.4863	0.001776	18860	3.411294	-178.462	131.575	1.102302	0.012008	0.011708	134.316	18860	0.006666	0.005706	23539.3	228112
255	2.000000	1.104694	7.36755e+06	-51389.1	955.818	-29752.8	0.000000	0.000000	7.111552	142.296	NaN	0.000000	0.001735	0.001611	28.0783	36.1346	0.001856	19465.3	3.707180	-179.518	145.511	1.104344	0.014100	0.013750	142.296	19465.3	0.008617	0.007685	18516	202867
255	2.000000	1.106575	7.36755e+06	-51389.1	955.819	-29752.8	0.000000	0.000000	7.114169	160.183	NaN	0.000000	0.001699	0.001590	28.0797	36.1493	0.001736	20829.1	2.479516	-179.202	156.939	1.106227	0.015982	0.015633	160.183	20829.1	0.010214	0.009420	17004.5	196073
255	2.000000	1.108600	7.36755e+06	-51389.1	955.819	-29752.8	0.000000	0.000000	7.116709	172.705	NaN	0.000000	0.001690	0.001605	28.0783	39.0679	0.001820	21462	-1.042360	-175.717	171.437	1.108329	0.018007	0.017735	172.705	21462	0.011971	0.011456	15075.7	183202
255	2.000000	1.110563	7.36755e+06	-51389.1	955.819	-29752.8	0.000000	0.000000	7.119274	187.368	NaN	0.000000	0.001709	0.001627	28.0784	40.5399	0.001840	22029.2	-0.430061	-176.308	182.633	1.110247	0.019969	0.019653	187.368	22029.2	0.013590	0.013451	13930.2	173541
255	2.000000	1.112581	7.36755e+06	-51389.1	955.819	-29752.8	0.000000	0.000000	7.121989	204.323	NaN	0.000000	0.001698	0.001606	28.0787	42.6308	0.001773	24040.5	5.090930	177.597	203.83	1.112348	0.021987	0.021754	204.323	24040.5	0.015613	0.016111	12682.3	173045
255	2.000000	1.114513	7.36755e+06	-51389.1	955.818	-29752.8	0.000000	0.000000	7.124514	218.726	NaN	0.000000	0.001686	0.001602	28.0797	44.938	0.001834	24502.3	0.316886	-178.267	213.421	1.114362	0.023919	0.023768	218.726	24502.3	0.017224	0.018367	11908.8	165183
255	2.000000	1.116576	7.36755e+06	-51389.1	955.818	-29752.8	0.000000	0.000000	7.127251	235.094	NaN	0.000000	0.001686	0.001611	28.0797	46.2785	0.001810	25567.9	3.777620	177.73	231.375	1.116164	0.025983	0.025570	235.094	25567.9	0.019087	0.021127	11127.5	160711
255	2.000000	1.118571	7.36755e+06	-51389.1	955.818	-29752.8	0.000000	0.000000	7.129878	250.483	NaN	0.000000	0.001701	0.001601	28.0797	48.52	0.001828	26542	3.860219	177.607	248.318	1.118302	0.027977	0.027708	250.483	26542	0.020899	0.023975	10447.8	156614
255	2.000000	1.120643	7.36755e+06	-51389.1	955.818	-29752.8	0.000000	0.000000	7.132755	270.053	NaN	0.000000	0.001690	0.001635	28.0797	49.7376	0.001681	29593.8	0.627515	-179.893	267.545	1.120266	0.030049	0.029672	270.053	29593.8	0.023205	0.027831	9703.39	162073
255	2.000000	1.122564	7.36755e+06	-51389.1	955.818	-29752.8	0.000000	0.000000	7.135402	287.71	NaN	0.000000	0.001695	0.001643	28.0796	51.901	0.001792	28958.6	5.110127	175.861	284.025	1.122294	0.031970	0.031701	287.71	28958.6	0.024519	0.030146	9543.84	152383
255	2.000000	1.124517	7.36755e+06	-51389.1	955.818	-29752.8	0.000000	0.000000	7.138189	307.985	NaN	0.000000	0.001709	0.001600	28.0795	53.8836	0.001678	32119.5	2.687545	176.712	303.007	1.124260	0.033923	0.033667	307.985	32119.5	0.026731	0.034241	8994.64	158588
255	2.000000	1.126524	7.36755e+06	-51389.1	955.819	-29752.8	0.000000	0.000000	7.140986	327.216	NaN	0.000000	0.001665	0.001629	28.08	55.2178	0.001847	29891.1	3.361954	177.295	322.265	1.126248	0.035930	0.035654	327.216	29891.1	0.027720	0.036150	9051.62	143635
255	2.000000	1.128526	7.36755e+06	-51389.1	955.818	-29752.8	0.000000	0.000000	7.143866	348.546	NaN	0.000000	0.001678	0.001579	28.0794	56.8637	0.001585	35886	1.342172	177.36	345.594	1.128307	0.037932	0.037714	348.546	35886	0.030648	0.042097	8279.62	159799
255	2.000000	1.130571	7.36755e+06	-51389.1	955.82	-29752.8	0.000000	0.000000	7.146989	374.78	NaN	0.000000	0.001703	0.001642	28.0801	59.6702	0.001761	33877.7	2.214329	177.883	371.68	1.130258	0.039977	0.039664	374.78	33877.7	0.031680	0.044297	8460.56	147061
255	2.000000	1.132548	7.36755e+06	-51389.1	955.82	-29752.8	0.000000	0.000000	7.149765	394.185	NaN	0.000000	0.001697	0.001609	28.0795	61.9842	0.001793	34561.2	1.929037	177.314	391.298	1.132187	0.041955	0.041593	394.185	34561.2	0.033400	0.048087	8197.31	143995
255	2.000000	1.134608	7.36755e+06	-51389.1	955.821	-29752.8	0.000000	0.000000	7.152761	416.953	NaN	0.000000	0.001724	0.001613	28.0795	64.19	0.001757	36538.7	6.400736	173.202	416.069	1.134242	0.044014	0.043649	416.953	36538.7	0.035455	0.052811	7895.11	145266
255	2.000000	1.136635	7.36755e+06	-51389.1	955.818	-29752.8	0.000000	0.000000	7.155454	433.138	NaN	0.000000	0.001709	0.001579	28.0799	64.8418	0.001760	36841.6	7.229907	173.71	434.351	1.136113	0.046041	0.045519	433.138	36841.6	0.037224	0.057050	7592.22	140923
255	2.000000	1.138397	7.36755e+06	-51389.1	955.819	-29752.8	0.000000	0.000000	7.157787	447.029	NaN	0.000000	0.001652	0.001613	28.0797	68.2208	0.001877	36352.5	2.044132	177.208	437.616	1.138208	0.047803	0.047614	447.029	36352.5	0.038580	0.060411	7399.81	135129
255	2.000000	1.140624	7.36755e+06	-51389.1	955.82	-29752.8	0.000000	0.000000	7.161161	474.92	NaN	0.000000	0.001683	0.001619	28.08	70.0708	0.001835	38175.6	1.861766	177.085	475.598	1.140302	0.050030	0.049709	474.92	38175.6	0.040700	0.065850	7212.17	135919
255	2.000000	1.142493	7.36755e+06	-51389.1	955.82	-29752.8	0.000000	0.000000	7.163721	491.709	NaN	0.000000	0.001696	0.001573	28.0798	71.3482	0.001770	40306.1	3.587387	174.415	486.254	1.142219	0.051900	0.051625	491.709	40306.1	0.042750	0.071328	6893.59	137884
255	2.000000	1.144617	7.36755e+06	-51389.1	955.82	-29752.8	0.000000	0.000000	7.166848	516.125	NaN	0.000000	0.001670	0.001571	28.0796	73.8498	0.001886	39151.6	2.777723	175.862	516.661	1.144433	0.054023	0.053839	516.125	39151.6	0.044136	0.075153	6867.68	130482
255	2.000000	1.146623	7.36755e+06	-51389.1	955.821	-29752.8	0.000000	0.000000	7.170280	550.778	NaN	0.000000	0.001678	0.001584	28.0798	75.2741	0.001832	41089.3	5.051526	173.476	551.07	1.146168	0.056029	0.055574	550.778	41089.3	0.045976	0.080383	6851.95	132410
255	2.000000	1.148518	7.36755e+06	-51389.1	955.82	-29752.8	0.000000	0.000000	7.173109	573.491	NaN	0.000000	0.001599	0.001578	28.0784	77.1124	0.001747	44141.5	5.003899	172.692	569.036	1.148141	0.057924	0.057547	573.491	44141.5	0.048180	0.086872	6601.58	136830
255	2.000000	1.150854	7.36755e+06	-51389.1	955.82	-29752.8	0.000000	0.000000	7.176424	597.299	NaN	0.000000	0.001621	0.001597	28.0789	80.2923	0.001959	40979	13.2937	167.081	607.73	1.150220	0.060260	0.059626	597.299	40979	0.049328	0.090349	6611.04	124559
255	2.000000	1.152421	7.36755e+06	-51389.1	955.82	-29752.8	0.000000	0.000000	7.178698	614.496	NaN	0.000000	0.001600	0.001584	28.0785	79.6275	0.001742	45705.6	-2.797655	-179.794	606.433	1.152059	0.061827	0.061465	614.496	45705.6	0.051743	0.097878	6278.2	133475
255	2.000000	1.154472	7.36755e+06	-51389.1	955.82	-29752.8	0.000000	0.000000	7.182449	655.846	NaN	0.000000	0.001595	0.001638	28.0784	83.9326	0.001743	48162.5	2.905809	174.1	650.453	1.154227	0.063878	0.063633	655.846	48162.5	0.053665	0.104077	6301.53	136397
255	2.000000	1.156628	7.36755e+06	-51389.1	955.82	-29752.8	0.000000	0.000000	7.185868	686.549	NaN	0.000000	0.001640	0.001656	28.0785	85.0583	0.001812	46937.5	4.878528	172.378	689.015	1.156220	0.066034	0.065626	686.549	46937.5	0.055064	0.108706	6315.64	130067
255	2.000000	1.158448	7.36755e+06	-51389.1	955.819	-29752.8	0.000000	0.000000	7.189274	725.107	NaN	0.000000	0.001602	0.001681	28.0785	86.889	0.001786	48655	4.711213	172.894	718.293	1.158154	0.067854	0.067561	725.107	48655	0.056677	0.114162	6351.56	131565
255	2.000000	1.160398	7.36755e+06	-51389.1	955.82	-29752.8	0.000000	0.000000	7.191349	728.158	NaN	0.000000	0.001611	0.001602	28.0802	89.3839	0.001844	48475.4	1.070427	176.237	716.041	1.160037	0.069804	0.069443	728.158	48475.4	0.058538	0.120619	6036.84	127522
255	2.000000	1.162529	7.36755e+06	-51389.1	955.818	-29752.8	0.000000	0.000000	7.195519	777.737	NaN	0.000000	0.001608	0.001602	28.0786	91.7739	0.001831	50125.4	4.843663	172.623	775.305	1.162169	0.071935	0.071576	777.737	50125.4	0.060298	0.126880	6129.69	128568
255	2.000000	1.164455	7.36755e+06	-51389.1	955.819	-29752.8	0.000000	0.000000	7.198491	803.161	NaN	0.000000	0.001601	0.001591	28.0783	93.0901	0.001799	51736.5	4.211489	171.88	797.054	1.164135	0.073861	0.073541	803.161	51736.5	0.062218	0.133883	5998.99	129184
255	2.000000	1.166581	7.36755e+06	-51389.1	955.819	-29752.8	0.000000	0.000000	7.201468	823.86	NaN	0.000000	0.001579	0.001579	28.0782	93.6273	0.001736	53939.4	4.600642	171.404	821.786	1.166318	0.075988	0.075725	823.86	53939.4	0.064532	0.142560	5779.03	130521
255	2.000000	1.168476	7.36755e+06	-51389.1	955.819	-29752.8	0.000000	0.000000	7.205063	865.195	NaN	0.000000	0.001612	0.001573	28.0784	96.2146	0.001871	51418.9	5.342606	171.836	860.843	1.168193	0.077882	0.077599	865.195	51418.9	0.065262	0.145351	5952.45	123222
255	2.000000	1.170413	7.36755e+06	-51389.1	955.819	-29752.8	0.000000	0.000000	7.207510	877.613	NaN	0.000000	0.001620	0.001590	28.0786	97.4774	0.001763	55295.3	1.744977	174.342	866.83	1.170064	0.079819	0.079471	877.613	55295.3	0.067916	0.155712	5636.13	128027
255	2.000000	1.170829	7.36755e+06	-51389.1	955.818	-29752.8	0.000000	0.000000	7.208567	893.179	NaN	0.000000	0.001615	0.001601	28.0783	98.6194	0.001769	55762.6	4.045802	-8.446386	881.734	1.170612	0.080236	0.080018	893.179	55762.6	0.068222	0.156932	5691.5	128606