File: remote_trans/data/nanoindenter/0828-1/data/Data_2025-08-06,11h17m57s/2025-07-22_16-23-58_1_1055.txt
2025-07-22, 16:23:58, 1
Index	Phase	Displacement	Time	Pos X	Pos Y	Pos Z	Rot A	Rot B	Piezo Z	Force A	Force B	Gripper	Voltage A	Voltage B	Temperature	Amplitude force	Amplitude pos	Stiffness	Phase shift	Phase excitation	Force A raw	Displacement raw	HMax	HMax raw	Real Force	Real Stiffness	Contact Depth	Area	Hardness	Reduced Mod.
[#]	[#]	[um]	[s]	[um]	[um]	[um]	[m°]	[m°]	[um]	[uN]	[uN]	[V]	[V]	[V]	[°C]	[uN]	[um]	[N/m]	[°]	[°]	[uN]	[um]	[um]	[um]	[uN]	[N/m]	[um]	[um^2]	[MPa]	[MPa]
1055	1.000000	0.002526	7.37536e+06	-52889.1	1055.82	-29747.9	0.000000	0.000000	6.002807	-0.005226	NaN	0.000000	0.001587	0.001703	28.0818	0.050812	0.000956	53.14	-153.529	-165.893	-0.002914	0.001244	-1.143036	-1.144317	-0.005226	53.14	-1.142962	-1.889962E+15	2.765075E-18	NaN
1055	1.000000	0.012580	7.37536e+06	-52889.1	1055.82	-29747.9	0.000000	0.000000	6.012862	-0.000563	NaN	0.000000	0.001658	0.001747	28.0812	0.098306	0.001182	83.1854	46.8982	13.3139	-0.042728	0.011128	-1.132981	-1.134433	-0.000563	83.1854	-1.132976	-1.388477E+15	4.056392E-19	NaN
1055	1.000000	0.022453	7.37536e+06	-52889.1	1055.82	-29747.9	0.000000	0.000000	6.022735	0.015196	NaN	0.000000	0.001661	0.001737	28.0812	0.101181	0.001855	54.5387	-123.93	-165.485	-0.045896	0.021197	-1.123108	-1.124365	0.015196	54.5387	-1.123317	-1.030334E+15	-1.474835E-17	NaN
1055	1.000000	0.032484	7.37536e+06	-52889.1	1055.82	-29747.9	0.000000	0.000000	6.032768	0.052642	NaN	0.000000	0.001627	0.001732	28.0809	0.071332	0.001957	36.4571	-58.5928	12.4219	-0.022396	0.031085	-1.113077	-1.114476	0.052642	36.4571	-1.114160	-7.764498E+14	-6.779841E-17	NaN
1055	1.000000	0.042451	7.37536e+06	-52889.1	1055.82	-29747.9	0.000000	0.000000	6.042734	0.045896	NaN	0.000000	0.001652	0.001715	28.0811	0.123399	0.001880	65.6403	53.997	-167.661	0.135242	0.041144	-1.103110	-1.104417	0.045896	65.6403	-1.103635	-5.608655E+14	-8.183108E-17	NaN
1055	1.000000	0.052499	7.37536e+06	-52889.1	1055.82	-29747.9	0.000000	0.000000	6.052779	-0.041172	NaN	0.000000	0.001635	0.001733	28.0813	0.059104	0.002041	28.9584	-33.1283	14.2226	0.043206	0.051104	-1.093062	-1.094457	-0.041172	28.9584	-1.091996	-3.913930E+14	1.051939E-16	NaN
1055	1.000000	0.062493	7.37536e+06	-52889.1	1055.82	-29747.9	0.000000	0.000000	6.062777	0.072449	NaN	0.000000	0.001640	0.001714	28.0828	0.098747	0.002096	47.1163	-169.41	-166.734	0.037589	0.061173	-1.083068	-1.084388	0.072449	47.1163	-1.084222	-3.077635E+14	-2.354035E-16	NaN
1055	1.000000	0.072490	7.37536e+06	-52889.1	1055.82	-29747.9	0.000000	0.000000	6.072771	-0.010361	NaN	0.000000	0.001643	0.001750	28.0828	0.127914	0.001986	64.4086	33.7487	13.8027	0.087699	0.071161	-1.073072	-1.074400	-0.010361	64.4086	-1.072951	-2.171872E+14	4.770399E-17	NaN
1055	1.000000	0.082452	7.37536e+06	-52889.1	1055.82	-29747.9	0.000000	0.000000	6.082735	0.033732	NaN	0.000000	0.001636	0.001747	28.0827	0.116074	0.002113	54.9427	24.7802	-166.007	0.102016	0.081168	-1.063109	-1.064393	0.033732	54.9427	-1.063569	-1.624753E+14	-2.076113E-16	NaN
1055	1.000000	0.092462	7.37536e+06	-52889.1	1055.82	-29747.9	0.000000	0.000000	6.092743	-0.022661	NaN	0.000000	0.001582	0.001728	28.0827	0.004745	0.001930	2.458791	-63.1935	13.1937	0.060379	0.091119	-1.053099	-1.054443	-0.022661	2.458791	-1.046187	-9.487522E+13	2.388514E-16	NaN
1055	1.000000	0.102467	7.37536e+06	-52889.1	1055.82	-29747.9	0.000000	0.000000	6.102752	0.091596	NaN	0.000000	0.001542	0.001700	28.0829	0.036446	0.001935	18.8311	-140.087	-165.818	0.069878	0.101132	-1.043095	-1.044430	0.091596	18.8311	-1.046743	-9.652133E+13	-9.489668E-16	NaN
1055	1.000000	0.112516	7.37536e+06	-52889.1	1055.82	-29747.9	0.000000	0.000000	6.112799	0.043186	NaN	0.000000	0.001570	0.001753	28.0862	0.071000	0.001889	37.5792	15.5288	12.0246	-0.033842	0.111179	-1.033045	-1.034382	0.043186	37.5792	-1.033907	-6.486762E+13	-6.657528E-16	NaN
1055	1.000000	0.122508	7.37536e+06	-52889.1	1055.82	-29747.9	0.000000	0.000000	6.122789	-0.011498	NaN	0.000000	0.001578	0.001714	28.0837	0.114538	0.002020	56.7059	-107.295	-168.463	0.023197	0.121198	-1.023053	-1.024363	-0.011498	56.7059	-1.022901	-4.613052E+13	2.492558E-16	NaN
1055	1.000000	0.132504	7.37536e+06	-52889.1	1055.82	-29747.9	0.000000	0.000000	6.132784	-0.027958	NaN	0.000000	0.001589	0.001714	28.0831	0.023029	0.002050	11.2323	124.337	11.2086	-0.096724	0.131137	-1.013057	-1.014424	-0.027958	11.2323	-1.011190	-3.209254E+13	8.711722E-16	NaN
1055	1.000000	0.142526	7.37536e+06	-52889.1	1055.82	-29747.9	0.000000	0.000000	6.142812	0.096819	NaN	0.000000	0.001584	0.001748	28.083	0.038511	0.002027	18.9981	-89.8246	-168.154	0.047484	0.141163	-1.003035	-1.004399	0.096819	18.9981	-1.006857	-2.805965E+13	-3.450457E-15	NaN
1055	1.000000	0.152493	7.37536e+06	-52889.1	1055.82	-29747.9	0.000000	0.000000	6.152776	0.044794	NaN	0.000000	0.001587	0.001727	28.0828	0.102922	0.001996	51.5672	106.55	12.6814	0.030783	0.151108	-0.993068	-0.994454	0.044794	51.5672	-0.993720	-1.867267E+13	-2.398915E-15	NaN
1055	1.000000	0.162539	7.37536e+06	-52889.1	1055.82	-29747.9	0.000000	0.000000	6.162826	0.128561	NaN	0.000000	0.001609	0.001735	28.0826	0.029939	0.002028	14.7625	90.5571	-165.979	0.128253	0.161150	-0.983022	-0.984411	0.128561	14.7625	-0.989554	-1.640981E+13	-7.834377E-15	NaN
1055	1.000000	0.172528	7.37536e+06	-52889.1	1055.82	-29747.9	0.000000	0.000000	6.172810	0.041190	NaN	0.000000	0.001585	0.001743	28.0826	0.020350	0.002053	9.913970	129.465	13.2441	0.072519	0.171175	-0.973034	-0.974386	0.041190	9.913970	-0.976150	-1.082774E+13	-3.804103E-15	NaN
1055	1.000000	0.182511	7.37536e+06	-52889.1	1055.82	-29747.9	0.000000	0.000000	6.182794	0.044637	NaN	0.000000	0.001588	0.001727	28.0827	0.110378	0.001942	56.8497	-161.337	-168.614	0.011416	0.181241	-0.963051	-0.964320	0.044637	56.8497	-0.963640	-7.344045E+12	-6.078010E-15	NaN
1055	1.000000	0.192510	7.37536e+06	-52889.1	1055.82	-29747.9	0.000000	0.000000	6.192793	0.026631	NaN	0.000000	0.001595	0.001717	28.0829	0.044659	0.001961	22.7741	-65.4089	10.7904	0.012837	0.191160	-0.953051	-0.954401	0.026631	22.7741	-0.953928	-5.432499E+12	-4.902200E-15	NaN
1055	1.000000	0.202518	7.37536e+06	-52889.1	1055.82	-29747.9	0.000000	0.000000	6.202802	0.049792	NaN	0.000000	0.001592	0.001721	28.0818	0.127974	0.002096	61.0505	-107.365	-167.896	0.018733	0.201208	-0.943043	-0.944353	0.049792	61.0505	-0.943655	-3.948599E+12	-1.260993E-14	NaN
1055	1.000000	0.212512	7.37536e+06	-52889.1	1055.82	-29747.9	0.000000	0.000000	6.212794	0.010987	NaN	0.000000	0.001589	0.001720	28.0815	0.092193	0.001903	48.4374	31.8279	11.7925	-0.000886	0.211132	-0.933049	-0.934430	0.010987	48.4374	-0.933219	-2.855247E+12	-3.848052E-15	NaN
1055	1.000000	0.222543	7.37536e+06	-52889.1	1055.82	-29747.9	0.000000	0.000000	6.222825	0.004702	NaN	0.000000	0.001554	0.001753	28.0817	0.018346	0.002001	9.168498	67.8658	-168.518	-0.038642	0.221207	-0.923018	-0.924354	0.004702	9.168498	-0.923403	-2.104492E+12	-2.234360E-15	NaN
1055	1.000000	0.232552	7.37536e+06	-52889.1	1055.82	-29747.9	0.000000	0.000000	6.232835	0.038014	NaN	0.000000	0.001578	0.001721	28.0819	0.042325	0.002174	19.4709	143.716	13.7394	-0.043617	0.231083	-0.913009	-0.914478	0.038014	19.4709	-0.914474	-1.594350E+12	-2.384325E-14	NaN
1055	1.000000	0.242535	7.37536e+06	-52889.1	1055.82	-29747.9	0.000000	0.000000	6.242819	0.076593	NaN	0.000000	0.001592	0.001724	28.0815	0.072144	0.001958	36.8498	-144.88	-166.453	0.090298	0.241216	-0.903027	-0.904345	0.076593	36.8498	-0.904586	-1.172257E+12	-6.533771E-14	NaN
1055	1.000000	0.252522	7.37536e+06	-52889.1	1055.82	-29747.9	0.000000	0.000000	6.252807	0.080745	NaN	0.000000	0.001561	0.001732	28.0812	0.041402	0.001837	22.5397	94.4514	14.3427	0.072450	0.251202	-0.893039	-0.894359	0.080745	22.5397	-0.895726	-8.898394E+11	-9.074065E-14	NaN
1055	1.000000	0.262550	7.37536e+06	-52889.1	1055.82	-29747.9	0.000000	0.000000	6.262833	0.035616	NaN	0.000000	0.001570	0.001693	28.0814	0.016190	0.001963	8.247431	71.3491	-163.074	0.000341	0.261259	-0.883011	-0.884303	0.035616	8.247431	-0.886250	-6.625537E+11	-5.375606E-14	NaN
1055	1.000000	0.272555	7.37536e+06	-52889.1	1055.82	-29747.9	0.000000	0.000000	6.272839	0.051073	NaN	0.000000	0.001540	0.001711	28.0813	0.206933	0.002022	102.356	91.9771	15.9696	-0.006314	0.271194	-0.873006	-0.874367	0.051073	102.356	-0.873380	-4.437870E+11	-1.150836E-13	NaN
1055	1.000000	0.282555	7.37536e+06	-52889.1	1055.82	-29747.9	0.000000	0.000000	6.282836	-0.003646	NaN	0.000000	0.001543	0.001735	28.0812	0.068560	0.001967	34.8622	121.061	-165.023	-0.043017	0.281278	-0.863007	-0.864283	-0.003646	34.8622	-0.862928	-3.204453E+11	1.137904E-14	NaN
1055	1.000000	0.292574	7.37536e+06	-52889.1	1055.82	-29747.9	0.000000	0.000000	6.292856	0.014276	NaN	0.000000	0.001595	0.001716	28.0813	0.034350	0.001938	17.7241	143.808	14.8264	0.013553	0.291240	-0.852987	-0.854322	0.014276	17.7241	-0.853591	-2.395310E+11	-5.959823E-14	NaN
1055	1.000000	0.302564	7.37536e+06	-52889.1	1055.82	-29747.9	0.000000	0.000000	6.302846	0.008253	NaN	0.000000	0.001633	0.001726	28.0812	0.146661	0.002033	72.1395	165.896	-167.648	-0.000302	0.301266	-0.842998	-0.844295	0.008253	72.1395	-0.843083	-1.726083E+11	-4.781300E-14	NaN
1055	1.000000	0.312590	7.37536e+06	-52889.1	1055.82	-29747.9	0.000000	0.000000	6.312872	0.015203	NaN	0.000000	0.001644	0.001706	28.0812	0.071265	0.002060	34.5958	60.4831	11.8208	-0.031534	0.311217	-0.832972	-0.834344	0.015203	34.5958	-0.833301	-1.272114E+11	-1.195058E-13	NaN
1055	1.000000	0.322599	7.37536e+06	-52889.1	1055.82	-29747.9	0.000000	0.000000	6.322882	0.039894	NaN	0.000000	0.001657	0.001691	28.0813	0.076507	0.001976	38.7247	-33.7607	-165.381	0.050991	0.321292	-0.822962	-0.824269	0.039894	38.7247	-0.823735	-9.437414E+10	-4.227211E-13	NaN
1055	1.000000	0.332603	7.37536e+06	-52889.1	1055.82	-29747.9	0.000000	0.000000	6.332887	0.069456	NaN	0.000000	0.001598	0.001704	28.0823	0.033956	0.001913	17.7542	-105.765	14.2076	0.115363	0.331243	-0.812958	-0.814318	0.069456	17.7542	-0.815893	-7.387640E+10	-9.401597E-13	NaN
1055	1.000000	0.342584	7.37536e+06	-52889.1	1055.82	-29747.9	0.000000	0.000000	6.342864	-0.019716	NaN	0.000000	0.001555	0.001709	28.0829	0.084149	0.001982	42.4653	136.028	-163.911	0.020486	0.341200	-0.802978	-0.804362	-0.019716	42.4653	-0.802629	-4.881505E+10	4.039006E-13	NaN
1055	1.000000	0.352597	7.37536e+06	-52889.1	1055.82	-29747.9	0.000000	0.000000	6.352880	0.048521	NaN	0.000000	0.001583	0.001736	28.0825	0.086438	0.001978	43.6921	-57.7563	14.0074	0.033636	0.351263	-0.792964	-0.794299	0.048521	43.6921	-0.793797	-3.703838E+10	-1.310014E-12	NaN
1055	1.000000	0.362595	7.37536e+06	-52889.1	1055.82	-29747.9	0.000000	0.000000	6.362876	0.011396	NaN	0.000000	0.001556	0.001708	28.0827	0.053198	0.002002	26.5783	-71.2432	-167.833	0.071388	0.361293	-0.782967	-0.784269	0.011396	26.5783	-0.783289	-2.666336E+10	-4.274070E-13	NaN
1055	1.000000	0.372591	7.37536e+06	-52889.1	1055.82	-29747.9	0.000000	0.000000	6.372871	-0.025866	NaN	0.000000	0.001617	0.001710	28.0826	0.044547	0.002013	22.1346	58.4012	14.1814	0.010644	0.371249	-0.772970	-0.774312	-0.025866	22.1346	-0.772094	-1.878346E+10	1.377043E-12	NaN
1055	1.000000	0.382626	7.37536e+06	-52889.1	1055.82	-29747.9	0.000000	0.000000	6.382908	0.019178	NaN	0.000000	0.001604	0.001721	28.083	0.056026	0.001908	29.3664	68.7714	-167.494	0.046918	0.381277	-0.762936	-0.764285	0.019178	29.3664	-0.763426	-1.431863E+10	-1.339349E-12	NaN
1055	1.000000	0.392592	7.37536e+06	-52889.1	1055.82	-29747.9	0.000000	0.000000	6.392878	0.105623	NaN	0.000000	0.001605	0.001704	28.0827	0.042969	0.002024	21.2283	-63.5434	14.1106	0.066074	0.391254	-0.752969	-0.754308	0.105623	21.2283	-0.756701	-1.159885E+10	-9.106326E-12	NaN
1055	1.000000	0.402632	7.37536e+06	-52889.1	1055.82	-29747.9	0.000000	0.000000	6.402915	0.047410	NaN	0.000000	0.001589	0.001699	28.083	0.128961	0.002082	61.9506	157.993	-165.953	0.031067	0.401338	-0.742930	-0.744224	0.047410	61.9506	-0.743504	-7.669662E+9	-6.181476E-12	NaN
1055	1.000000	0.412624	7.37536e+06	-52889.1	1055.82	-29747.9	0.000000	0.000000	6.412907	0.030129	NaN	0.000000	0.001590	0.001714	28.0829	0.055946	0.001928	29.0161	-122.142	14.7621	0.013366	0.411264	-0.732937	-0.734297	0.030129	29.0161	-0.733716	-5.642193E+9	-5.339957E-12	NaN
1055	1.000000	0.422615	7.37536e+06	-52889.1	1055.82	-29747.9	0.000000	0.000000	6.422898	0.037016	NaN	0.000000	0.001608	0.001734	28.0828	0.126344	0.002196	57.538	-4.613063	-165.71	0.023055	0.421299	-0.722946	-0.724262	0.037016	57.538	-0.723429	-4.085317E+9	-9.060782E-12	NaN
1055	1.000000	0.432617	7.37536e+06	-52889.1	1055.82	-29747.9	0.000000	0.000000	6.432901	0.048542	NaN	0.000000	0.001615	0.001711	28.0828	0.106106	0.001945	54.5654	-72.8011	14.8404	0.026810	0.431266	-0.712944	-0.714295	0.048542	54.5654	-0.713611	-3.001404E+9	-1.617309E-11	NaN
1055	1.000000	0.442613	7.37536e+06	-52889.1	1055.82	-29747.9	0.000000	0.000000	6.442894	0.009937	NaN	0.000000	0.001557	0.001704	28.0827	0.070869	0.001952	36.3016	170.183	-167.199	0.101685	0.441353	-0.702949	-0.704208	0.009937	36.3016	-0.703154	-2.160717E+9	-4.598916E-12	NaN
1055	1.000000	0.452633	7.37536e+06	-52889.1	1055.82	-29747.9	0.000000	0.000000	6.452916	0.053889	NaN	0.000000	0.001605	0.001762	28.0827	0.018322	0.001862	9.838804	-125.414	11.2358	0.035915	0.451291	-0.692929	-0.694271	0.053889	9.838804	-0.697036	-1.782603E+9	-3.023026E-11	NaN
1055	1.000000	0.462618	7.37536e+06	-52889.1	1055.82	-29747.9	0.000000	0.000000	6.462901	0.044133	NaN	0.000000	0.001590	0.001696	28.0826	0.045321	0.001837	24.6723	-119.961	-165.254	0.051655	0.461374	-0.682944	-0.684187	0.044133	24.6723	-0.684285	-1.193453E+9	-3.697899E-11	NaN
1055	1.000000	0.472649	7.37536e+06	-52889.1	1055.82	-29747.9	0.000000	0.000000	6.472932	0.026869	NaN	0.000000	0.001606	0.001708	28.0814	0.003354	0.001892	1.772178	-124.033	10.4635	-0.033887	0.471275	-0.672912	-0.674287	0.026869	1.772178	-0.684283	-1.193363E+9	-2.251507E-11	NaN
1055	1.000000	0.482671	7.37536e+06	-52889.1	1055.82	-29747.9	0.000000	0.000000	6.482952	-0.008766	NaN	0.000000	0.001575	0.001705	28.0813	0.040677	0.002146	18.9588	-32.847	-168.884	0.011797	0.481367	-0.662890	-0.664194	-0.008766	18.9588	-0.662544	-6.015966E+8	1.457177E-11	NaN
1055	1.000000	0.492636	7.37536e+06	-52889.1	1055.82	-29747.9	0.000000	0.000000	6.492919	0.048485	NaN	0.000000	0.001586	0.001704	28.0815	0.088703	0.001959	45.2839	169.938	12.1046	0.021032	0.491328	-0.652925	-0.654233	0.048485	45.2839	-0.653728	-4.555559E+8	-1.064305E-10	NaN
1055	1.000000	0.502656	7.37536e+06	-52889.1	1055.82	-29747.9	0.000000	0.000000	6.502937	0.005353	NaN	0.000000	0.001604	0.001680	28.0814	0.101781	0.002063	49.3453	-35.1629	-168.368	-0.060867	0.501351	-0.642906	-0.644210	0.005353	49.3453	-0.642987	-3.245423E+8	-1.649259E-11	NaN
1055	1.000000	0.512677	7.37536e+06	-52889.1	1055.82	-29747.9	0.000000	0.000000	6.512959	0.016865	NaN	0.000000	0.001563	0.001749	28.0815	0.058391	0.001996	29.2516	-118.89	13.3371	-0.010581	0.511221	-0.632885	-0.634341	0.016865	29.2516	-0.633317	-2.390938E+8	-7.053554E-11	NaN
1055	1.000000	0.522677	7.37536e+06	-52889.1	1055.82	-29747.9	0.000000	0.000000	6.522957	-0.020885	NaN	0.000000	0.001555	0.001726	28.0816	0.109236	0.002069	52.8078	46.3008	-164.617	-0.014129	0.521365	-0.622884	-0.624196	-0.020885	52.8078	-0.622588	-1.702939E+8	1.226387E-10	NaN
1055	1.000000	0.532663	7.37536e+06	-52889.1	1055.82	-29747.9	0.000000	0.000000	6.532947	0.059570	NaN	0.000000	0.001574	0.001754	28.0817	0.089282	0.002093	42.6559	-133.859	10.8313	0.000149	0.531308	-0.612898	-0.614254	0.059570	42.6559	-0.613945	-1.295353E+8	-4.598771E-10	NaN
1055	1.000000	0.542673	7.37536e+06	-52889.1	1055.82	-29747.9	0.000000	0.000000	6.542959	0.127042	NaN	0.000000	0.001574	0.001754	28.0815	0.062846	0.001903	33.026	60.0572	-164.907	0.025025	0.541383	-0.602889	-0.604178	0.127042	33.026	-0.605774	-9.998940E+7	-1.270551E-9	NaN
1055	1.000000	0.552664	7.37536e+06	-52889.1	1055.82	-29747.9	0.000000	0.000000	6.552947	0.039745	NaN	0.000000	0.001577	0.001730	28.0817	0.067780	0.002078	32.6254	11.1967	14.6798	-0.011844	0.551337	-0.592897	-0.594224	0.039745	32.6254	-0.593811	-6.842205E+7	-5.808786E-10	NaN
1055	1.000000	0.562679	7.37536e+06	-52889.1	1055.82	-29747.9	0.000000	0.000000	6.562961	0.024499	NaN	0.000000	0.001618	0.001720	28.0817	0.032810	0.001846	17.7771	-179.888	-169.851	-0.003333	0.561341	-0.582883	-0.584220	0.024499	17.7771	-0.583916	-4.997613E+7	-4.902120E-10	NaN
1055	1.000000	0.572698	7.37536e+06	-52889.1	1055.82	-29747.9	0.000000	0.000000	6.572981	0.025138	NaN	0.000000	0.001668	0.001738	28.0816	0.007877	0.001807	4.359075	52.0684	12.7471	0.095799	0.571278	-0.572863	-0.574283	0.025138	4.359075	-0.577188	-4.035660E+7	-6.229051E-10	NaN
1055	1.000000	0.582688	7.37536e+06	-52889.1	1055.82	-29747.9	0.000000	0.000000	6.582972	0.080512	NaN	0.000000	0.001635	0.001818	28.0815	0.038331	0.001887	20.3165	-38.5186	-170.101	0.026000	0.581340	-0.562874	-0.564221	0.080512	20.3165	-0.565846	-2.813322E+7	-2.861799E-9	NaN
1055	1.000000	0.592729	7.37536e+06	-52889.1	1055.82	-29747.9	0.000000	0.000000	6.593009	-0.046498	NaN	0.000000	0.001610	0.001820	28.0816	0.084834	0.002014	42.1301	-116.152	13.8999	-0.000217	0.591297	-0.552832	-0.554264	-0.046498	42.1301	-0.552004	-1.810151E+7	2.568727E-9	NaN
1055	1.000000	0.602717	7.37536e+06	-52889.1	1055.82	-29747.9	0.000000	0.000000	6.603001	0.051326	NaN	0.000000	0.001636	0.001801	28.0815	0.031295	0.002076	15.073	-11.2934	-171.239	0.058404	0.601411	-0.542844	-0.544150	0.051326	15.073	-0.545398	-1.466206E+7	-3.500608E-9	NaN
1055	1.000000	0.612697	7.37536e+06	-52889.1	1055.82	-29747.9	0.000000	0.000000	6.612978	-0.011355	NaN	0.000000	0.001626	0.001813	28.0827	0.047046	0.002002	23.4978	-122.344	16.2438	0.008470	0.611405	-0.532864	-0.534156	-0.011355	23.4978	-0.532502	-9.71206e+06	1.169149E-9	NaN
1055	1.000000	0.622692	7.37536e+06	-52889.1	1055.82	-29747.9	0.000000	0.000000	6.622974	0.025384	NaN	0.000000	0.001604	0.001785	28.0828	0.007668	0.001919	3.996706	134.773	-162.669	0.072338	0.621436	-0.522870	-0.524126	0.025384	3.996706	-0.527633	-8.31191e+06	-3.053985E-9	NaN
1055	1.000000	0.632687	7.37536e+06	-52889.1	1055.82	-29747.9	0.000000	0.000000	6.632966	-0.051060	NaN	0.000000	0.001606	0.001807	28.0829	0.066939	0.002026	33.0465	-161.481	12.3127	0.006776	0.631340	-0.512874	-0.514222	-0.051060	33.0465	-0.511715	-4.99238e+06	1.022754E-8	NaN
1055	1.000000	0.642729	7.37536e+06	-52889.1	1055.82	-29747.9	0.000000	0.000000	6.643010	-0.002096	NaN	0.000000	0.001645	0.001780	28.0828	0.043720	0.002045	21.3746	-108.523	-164.796	-0.094325	0.641425	-0.502833	-0.504137	-0.002096	21.3746	-0.502759	-3.74546e+06	5.595009E-10	NaN
1055	1.000000	0.652718	7.37537e+06	-52889.1	1055.82	-29747.9	0.000000	0.000000	6.652997	-0.040583	NaN	0.000000	0.001656	0.001771	28.0828	0.061757	0.001980	31.1847	55.019	12.1914	0.015920	0.651379	-0.492844	-0.494182	-0.040583	31.1847	-0.491868	-2.63932e+06	1.537619E-8	NaN
1055	1.000000	0.662748	7.37537e+06	-52889.1	1055.82	-29747.9	0.000000	0.000000	6.663030	0.025437	NaN	0.000000	0.001637	0.001800	28.0827	0.059149	0.002008	29.4578	-162.336	-169.788	0.043116	0.661405	-0.482814	-0.484156	0.025437	29.4578	-0.483461	-2.01357e+06	-1.263264E-8	NaN
1055	1.000000	0.672738	7.37537e+06	-52889.1	1055.82	-29747.9	0.000000	0.000000	6.673018	-0.034187	NaN	0.000000	0.001627	0.001822	28.083	0.049611	0.001957	25.3566	46.9289	13.9863	0.046305	0.671416	-0.472823	-0.474146	-0.034187	25.3566	-0.471812	-1.383e+06	2.471979E-8	NaN
1055	1.000000	0.682701	7.37537e+06	-52889.1	1055.82	-29747.9	0.000000	0.000000	6.682981	-0.017304	NaN	0.000000	0.001663	0.001809	28.0828	0.057708	0.002019	28.58	-168.302	-164.317	-0.022234	0.681439	-0.462861	-0.464122	-0.017304	28.58	-0.462406	-1.02053e+06	1.695585E-8	NaN
1055	1.000000	0.692721	7.37537e+06	-52889.1	1055.82	-29747.9	0.000000	0.000000	6.693005	0.065317	NaN	0.000000	0.001638	0.001832	28.0825	0.037346	0.001919	19.4587	109.748	11.6108	0.028906	0.691374	-0.452840	-0.454188	0.065317	19.4587	-0.455358	-812368	-8.040348E-8	NaN
1055	1.000000	0.702714	7.37537e+06	-52889.1	1055.82	-29747.9	0.000000	0.000000	6.702998	0.064002	NaN	0.000000	0.001621	0.001781	28.0828	0.025650	0.002091	12.2692	103.437	-166.264	-0.009027	0.701357	-0.442848	-0.444204	0.064002	12.2692	-0.446760	-614755	-1.041098E-7	NaN
1055	1.000000	0.712723	7.37537e+06	-52889.1	1055.82	-29747.9	0.000000	0.000000	6.713004	-0.011343	NaN	0.000000	0.001623	0.001812	28.083	0.058628	0.002023	28.9867	110.992	12.9583	0.071016	0.711387	-0.432838	-0.434174	-0.011343	28.9867	-0.432545	-387301	2.928663E-8	NaN
1055	1.000000	0.722729	7.37537e+06	-52889.1	1055.82	-29747.9	0.000000	0.000000	6.723011	0.016174	NaN	0.000000	0.001599	0.001773	28.0828	0.076354	0.002036	37.503	-89.8005	-164.647	-0.003584	0.721453	-0.422832	-0.424108	0.016174	37.503	-0.423156	-285203	-5.670915E-8	NaN
1055	1.000000	0.732732	7.37537e+06	-52889.1	1055.82	-29747.9	0.000000	0.000000	6.733013	0.008332	NaN	0.000000	0.001600	0.001715	28.0826	0.088413	0.002005	44.1005	-26.4727	13.5227	0.025326	0.731374	-0.412830	-0.414188	0.008332	44.1005	-0.412971	-204475	-4.074934E-8	NaN
1055	1.000000	0.742758	7.37537e+06	-52889.1	1055.82	-29747.9	0.000000	0.000000	6.743040	0.032985	NaN	0.000000	0.001593	0.001739	28.0818	0.052227	0.002016	25.9093	167.897	-165.559	0.057478	0.741441	-0.402804	-0.404120	0.032985	25.9093	-0.403758	-151205	-2.181501E-7	NaN
1055	1.000000	0.752734	7.37537e+06	-52889.1	1055.82	-29747.9	0.000000	0.000000	6.753015	-0.003629	NaN	0.000000	0.001624	0.001754	28.0815	0.061702	0.002000	30.8462	-56.5406	15.8702	-0.063052	0.751443	-0.392828	-0.394118	-0.003629	30.8462	-0.392740	-105279	3.446821E-8	NaN
1055	1.000000	0.762760	7.37537e+06	-52889.1	1055.82	-29747.9	0.000000	0.000000	6.763040	-0.029260	NaN	0.000000	0.001648	0.001764	28.0812	0.039424	0.001912	20.6235	95.5862	-165.792	-0.081610	0.761471	-0.382801	-0.384091	-0.029260	20.6235	-0.381737	-73251.1	3.994430E-7	NaN
1055	1.000000	0.772803	7.37537e+06	-52889.1	1055.82	-29747.9	0.000000	0.000000	6.773087	0.043858	NaN	0.000000	0.001636	0.001759	28.0812	0.016242	0.002086	7.784591	-19.2932	13.7784	0.044505	0.771385	-0.372758	-0.374177	0.043858	7.784591	-0.376983	-62600	-7.006009E-7	NaN
1055	1.000000	0.782802	7.37537e+06	-52889.1	1055.82	-29747.9	0.000000	0.000000	6.783086	0.059942	NaN	0.000000	0.001634	0.001751	28.0815	0.026537	0.002066	12.8423	179.065	-165.51	0.042652	0.781427	-0.362759	-0.364134	0.059942	12.8423	-0.366260	-43876.1	-1.366163E-6	NaN
1055	1.000000	0.792784	7.37537e+06	-52889.1	1055.82	-29747.9	0.000000	0.000000	6.793069	0.098001	NaN	0.000000	0.001625	0.001740	28.0811	0.057036	0.001987	28.7054	51.4557	9.828723	-0.017709	0.791455	-0.352778	-0.354107	0.098001	28.7054	-0.355338	-30506.6	-3.212443E-6	NaN
1055	1.000000	0.802739	7.37537e+06	-52889.1	1055.82	-29747.9	0.000000	0.000000	6.803021	0.013458	NaN	0.000000	0.001605	0.001752	28.0817	0.095729	0.001955	48.9786	127.633	-171.161	-0.044178	0.801475	-0.342822	-0.344087	0.013458	48.9786	-0.343029	-20214.9	-6.657589E-7	NaN
1055	1.000000	0.812791	7.37537e+06	-52889.1	1055.82	-29747.9	0.000000	0.000000	6.813070	-0.059353	NaN	0.000000	0.001610	0.001722	28.0813	0.020552	0.002078	9.892087	83.5532	12.6248	-0.065176	0.811427	-0.332770	-0.334134	-0.059353	9.892087	-0.328270	-12305.6	4.823222E-6	NaN
1055	1.000000	0.822795	7.37537e+06	-52889.1	1055.82	-29747.9	0.000000	0.000000	6.823076	-0.010649	NaN	0.000000	0.001662	0.001766	28.0818	0.117076	0.001993	58.7472	151.586	-166.849	-0.099755	0.821554	-0.322767	-0.324008	-0.010649	58.7472	-0.322631	-10170.3	1.047060E-6	NaN
1055	1.000000	0.832810	7.37537e+06	-52889.1	1055.82	-29747.9	0.000000	0.000000	6.833092	0.039873	NaN	0.000000	0.001668	0.001732	28.0811	0.076542	0.001991	38.4399	123.525	14.9124	0.051825	0.831399	-0.312752	-0.314162	0.039873	38.4399	-0.313530	-7468.64	-5.338679E-6	NaN
1055	1.000000	0.842784	7.37537e+06	-52889.1	1055.82	-29747.9	0.000000	0.000000	6.843067	0.039472	NaN	0.000000	0.001645	0.001735	28.0814	0.112312	0.002034	55.216	178.724	-165.728	-0.006910	0.841484	-0.302777	-0.304077	0.039472	55.216	-0.303313	-5271.19	-7.488300E-6	NaN
1055	1.000000	0.852792	7.37537e+06	-52889.1	1055.82	-29747.9	0.000000	0.000000	6.853073	-0.011403	NaN	0.000000	0.001665	0.001721	28.0811	0.110671	0.001952	56.7089	-163.098	13.7266	0.057160	0.851459	-0.292769	-0.294103	-0.011403	56.7089	-0.292619	-3651.73	3.122580E-6	NaN
1055	1.000000	0.862799	7.37537e+06	-52889.1	1055.82	-29747.9	0.000000	0.000000	6.863079	-0.028157	NaN	0.000000	0.001571	0.001717	28.0815	0.038098	0.002015	18.9066	128.125	-165.18	-0.000902	0.861472	-0.282763	-0.284089	-0.028157	18.9066	-0.281646	-2499.08	1.126706E-5	NaN
1055	1.000000	0.872777	7.37537e+06	-52889.1	1055.82	-29747.9	0.000000	0.000000	6.873061	0.077155	NaN	0.000000	0.001583	0.001732	28.081	0.155561	0.001965	79.1603	174.067	12.5056	0.013922	0.871419	-0.272785	-0.274142	0.077155	79.1603	-0.273516	-1883.28	-4.096846E-5	NaN
1055	1.000000	0.882837	7.37537e+06	-52889.1	1055.82	-29747.9	0.000000	0.000000	6.883118	-0.004431	NaN	0.000000	0.001571	0.001737	28.0825	0.055054	0.001875	29.3562	-146.743	-171.066	-0.018838	0.881448	-0.262724	-0.264113	-0.004431	29.3562	-0.262611	-1284.96	3.448689E-6	NaN
1055	1.000000	0.892845	7.37537e+06	-52889.1	1055.82	-29747.9	0.000000	0.000000	6.893126	0.007311	NaN	0.000000	0.001591	0.001749	28.0824	0.069362	0.002042	33.9616	47.7798	8.953386	0.055260	0.891465	-0.252717	-0.254096	0.007311	33.9616	-0.252878	-910.798	-8.026721E-6	NaN
1055	1.000000	0.902809	7.37537e+06	-52889.1	1055.82	-29747.9	0.000000	0.000000	6.903090	0.005001	NaN	0.000000	0.001578	0.001765	28.0826	0.087999	0.002006	43.8693	121.341	-165.545	-0.007291	0.901514	-0.242753	-0.244047	0.005001	43.8693	-0.242838	-636.531	-7.856840E-6	NaN
1055	1.000000	0.912832	7.37537e+06	-52889.1	1055.82	-29747.9	0.000000	0.000000	6.913115	0.056617	NaN	0.000000	0.001556	0.001741	28.0823	0.036481	0.002034	17.9323	-2.389490	15.1175	0.133177	0.911454	-0.232730	-0.234107	0.056617	17.9323	-0.235098	-481.704	-0.000118	NaN
1055	1.000000	0.922815	7.37537e+06	-52889.1	1055.82	-29747.9	0.000000	0.000000	6.923098	0.037759	NaN	0.000000	0.001588	0.001775	28.0826	0.068760	0.001939	35.4636	-99.952	-164.18	-0.005717	0.921495	-0.222746	-0.224066	0.037759	35.4636	-0.223545	-316.377	-0.000119	NaN
1055	1.000000	0.932828	7.37537e+06	-52889.1	1055.82	-29747.9	0.000000	0.000000	6.933112	0.061108	NaN	0.000000	0.001589	0.001752	28.0825	0.047536	0.001985	23.9448	-39.7172	13.2765	0.043942	0.931482	-0.212733	-0.214080	0.061108	23.9448	-0.214647	-227.951	-0.000268	NaN
1055	1.000000	0.942839	7.37537e+06	-52889.1	1055.82	-29747.9	0.000000	0.000000	6.943119	-0.020639	NaN	0.000000	0.001560	0.001738	28.0824	0.047765	0.001997	23.9223	-77.778	-166.236	0.019496	0.941513	-0.202723	-0.204049	-0.020639	23.9223	-0.202076	-142.48	0.000145	NaN
1055	1.000000	0.952830	7.37537e+06	-52889.1	1055.82	-29747.9	0.000000	0.000000	6.953111	0.016122	NaN	0.000000	0.001583	0.001751	28.0824	0.038822	0.001871	20.7495	-13.4999	13.5009	0.075384	0.951479	-0.192732	-0.194082	0.016122	20.7495	-0.193315	-102.151	-0.000158	NaN
1055	1.000000	0.962848	7.37537e+06	-52889.1	1055.82	-29747.9	0.000000	0.000000	6.963130	0.027393	NaN	0.000000	0.001603	0.001762	28.0825	0.068733	0.001948	35.2865	-59.6258	-164.204	-0.027105	0.961470	-0.182714	-0.184091	0.027393	35.2865	-0.183296	-69.4013	-0.000395	NaN
1055	1.000000	0.972832	7.37537e+06	-52889.1	1055.82	-29747.9	0.000000	0.000000	6.973112	-0.028838	NaN	0.000000	0.001580	0.001743	28.0827	0.063539	0.002015	31.5367	-0.340383	13.9515	-0.052983	0.971490	-0.172729	-0.174071	-0.028838	31.5367	-0.172043	-44.5674	0.000647	NaN
1055	1.000000	0.982855	7.37537e+06	-52889.1	1055.82	-29747.9	0.000000	0.000000	6.983137	0.004499	NaN	0.000000	0.001579	0.001785	28.0827	0.045945	0.001874	24.5228	125.06	-166.653	-0.049050	0.981540	-0.162706	-0.164021	0.004499	24.5228	-0.162844	-30.7857	-0.000146	NaN
1055	1.000000	0.992855	7.37537e+06	-52889.1	1055.82	-29747.9	0.000000	0.000000	6.993136	0.001083	NaN	0.000000	0.001602	0.001731	28.0826	0.040183	0.002049	19.61	171.873	15.7097	0.002233	0.991469	-0.152707	-0.154093	0.001083	19.61	-0.152748	-20.3208	-5.329118E-5	NaN
1055	1.000000	1.002844	7.37537e+06	-52889.1	1055.82	-29747.9	0.000000	0.000000	7.003127	0.031954	NaN	0.000000	0.001613	0.001730	28.0827	0.035439	0.001991	17.796	-61.6953	-170.134	0.012364	1.001565	-0.142717	-0.143997	0.031954	17.796	-0.144064	-14.0873	-0.002268	NaN
1055	1.000000	1.012848	7.37537e+06	-52889.1	1055.82	-29747.9	0.000000	0.000000	7.013128	-0.030123	NaN	0.000000	0.001580	0.001734	28.0824	0.109088	0.001869	58.3702	-113.3	14.0299	0.027638	1.011477	-0.132714	-0.134085	-0.030123	58.3702	-0.132327	-8.453205	0.003563	NaN
1055	1.000000	1.022870	7.37537e+06	-52889.1	1055.82	-29747.9	0.000000	0.000000	7.023149	-0.045263	NaN	0.000000	0.001586	0.001701	28.0812	0.042400	0.001892	22.4067	71.2756	-164.352	-0.060773	1.021480	-0.122691	-0.124081	-0.045263	22.4067	-0.121176	-5.102336	0.008871	NaN
1055	1.000000	1.032864	7.37537e+06	-52889.1	1055.82	-29747.9	0.000000	0.000000	7.033148	0.063254	NaN	0.000000	0.001597	0.001727	28.0812	0.102272	0.001924	53.1573	11.7057	12.687	0.059049	1.031539	-0.112697	-0.114023	0.063254	53.1573	-0.113590	-3.572228	-0.017707	NaN
1055	1.000000	1.042872	7.37537e+06	-52889.1	1055.82	-29747.9	0.000000	0.000000	7.043154	0.028682	NaN	0.000000	0.001602	0.001738	28.0815	0.028431	0.002090	13.6028	38.4048	-165.425	-0.060324	1.041617	-0.102689	-0.103944	0.028682	13.6028	-0.104271	-2.266699	-0.012654	NaN
1055	1.000000	1.052884	7.37537e+06	-52889.1	1055.82	-29747.9	0.000000	0.000000	7.053164	-0.021785	NaN	0.000000	0.001605	0.001732	28.0811	0.048377	0.002091	23.1363	102.605	14.7054	-0.061891	1.051507	-0.092678	-0.094054	-0.021785	23.1363	-0.091972	-1.201724	0.018128	NaN
1055	1.000000	1.062894	7.37537e+06	-52889.1	1055.82	-29747.9	0.000000	0.000000	7.063178	0.051652	NaN	0.000000	0.001622	0.001716	28.0813	0.130531	0.001899	68.7498	59.7169	-161.994	0.033932	1.061607	-0.082667	-0.083954	0.051652	68.7498	-0.083231	-0.744065	-0.069418	NaN
1055	1.000000	1.072881	7.37537e+06	-52889.1	1055.82	-29747.9	0.000000	0.000000	7.073162	-0.015682	NaN	0.000000	0.001623	0.001763	28.0815	0.072087	0.001910	37.738	-23.0131	16.2681	-0.002422	1.071558	-0.072680	-0.074003	-0.015682	37.738	-0.072368	-0.394289	0.039774	NaN
1055	1.000000	1.082872	7.37537e+06	-52889.1	1055.82	-29747.9	0.000000	0.000000	7.083153	-0.007115	NaN	0.000000	0.001667	0.001740	28.0815	0.032690	0.002005	16.3049	21.956	-167.878	-0.051275	1.081623	-0.062689	-0.063938	-0.007115	16.3049	-0.062362	-0.210246	0.033840	NaN
1055	1.000000	1.092884	7.37537e+06	-52889.1	1055.82	-29747.9	0.000000	0.000000	7.093167	0.037597	NaN	0.000000	0.001564	0.001731	28.0814	0.020791	0.002052	10.1333	-169.675	15.4846	0.064371	1.091554	-0.052677	-0.054007	0.037597	10.1333	-0.055460	-0.132869	-0.282960	NaN
1055	1.000000	1.102895	7.37537e+06	-52889.1	1055.82	-29747.9	0.000000	0.000000	7.103176	0.003889	NaN	0.000000	0.001563	0.001747	28.0813	0.057467	0.002010	28.5965	-84.6727	-166.82	-0.017666	1.101611	-0.042666	-0.043951	0.003889	28.5965	-0.042768	-0.054922	-0.070801	NaN
1055	1.000000	1.112924	7.37537e+06	-52889.1	1055.82	-29747.9	0.000000	0.000000	7.113209	0.081843	NaN	0.000000	0.001531	0.001711	28.0818	0.144018	0.001953	73.7239	87.0101	9.967469	0.078390	1.111539	-0.032637	-0.034022	0.081843	73.7239	-0.033470	-0.028889	-2.833010	NaN
1055	1.000000	1.122935	7.37537e+06	-52889.1	1055.82	-29747.9	0.000000	0.000000	7.123216	-0.013601	NaN	0.000000	0.001573	0.001744	28.0814	0.020432	0.001977	10.3335	116.616	-168.79	-0.013651	1.121581	-0.022627	-0.023980	-0.013601	10.3335	-0.021639	-0.013826	0.983759	NaN
1055	1.000000	1.132846	7.37537e+06	-52889.1	1055.82	-29747.9	0.000000	0.000000	7.133154	0.649324	NaN	0.000000	0.001619	0.001772	28.0817	0.695786	0.002143	324.637	16.1281	15.5435	0.383550	1.131517	-0.012715	-0.014044	0.649324	324.637	-0.014215	-0.008810	-73.7064	NaN
1055	1.000000	1.142907	7.37537e+06	-52889.1	1055.82	-29747.9	0.000000	0.000000	7.143223	0.838329	NaN	0.000000	0.001648	0.001708	28.0815	0.898794	0.002069	434.447	19.5171	-167.348	0.734403	1.141633	-0.002654	-0.003928	0.838329	434.447	-0.004101	-0.002844	-294.724	NaN
1055	2.000000	1.151053	7.37537e+06	-52889.1	1055.82	-29747.9	0.000000	0.000000	7.151658	7.871876	NaN	0.000000	0.001649	0.001716	28.0833	8.477387	0.001703	4978.67	6.807045	8.103799	6.946557	1.150639	0.005491	0.005078	7.871876	4978.67	0.004305	0.003508	2243.83	76796.7
1055	2.000000	1.153552	7.37537e+06	-52889.1	1055.82	-29747.9	0.000000	0.000000	7.154262	10.4343	NaN	0.000000	0.001664	0.001669	28.0825	11.4328	0.001762	6489.31	5.534057	-172.979	10.5954	1.153237	0.007990	0.007675	10.4343	6489.31	0.006784	0.005822	1792.35	77705.5
1055	2.000000	1.156061	7.37537e+06	-52889.1	1055.82	-29747.9	0.000000	0.000000	7.156906	13.6997	NaN	0.000000	0.001661	0.001700	28.0833	13.9643	0.001740	8023.22	6.000980	4.983836	12.8191	1.155691	0.010500	0.010130	13.6997	8023.22	0.009219	0.008327	1645.31	80332.3
1055	2.000000	1.158526	7.37537e+06	-52889.1	1055.82	-29747.9	0.000000	0.000000	7.159583	18.8775	NaN	0.000000	0.001651	0.001749	28.0825	16.7445	0.001694	9884.51	3.523367	-174.584	18.1274	1.158185	0.012964	0.012623	18.8775	9884.51	0.011532	0.010934	1726.49	86365.1
1055	2.000000	1.160956	7.37537e+06	-52889.1	1055.82	-29747.9	0.000000	0.000000	7.162226	24.0298	NaN	0.000000	0.001670	0.001712	28.0834	19.4202	0.001583	12267.8	5.103269	1.157135	22.6686	1.160677	0.015395	0.015116	24.0298	12267.8	0.013926	0.013879	1731.33	95137.9
1055	2.000000	1.163538	7.37537e+06	-52889.1	1055.82	-29747.9	0.000000	0.000000	7.165067	30.3421	NaN	0.000000	0.001653	0.001725	28.0824	23.1587	0.001795	12901.8	6.123446	-178.489	30.7868	1.163206	0.017976	0.017645	30.3421	12901.8	0.016213	0.016936	1791.53	90575.9
1055	2.000000	1.165970	7.37537e+06	-52889.1	1055.82	-29747.9	0.000000	0.000000	7.167861	39.1208	NaN	0.000000	0.001624	0.001756	28.0829	25.455	0.001826	13940.1	6.390228	1.094824	36.6955	1.165618	0.020409	0.020056	39.1208	13940.1	0.018304	0.019947	1961.2	90177.4
1055	2.000000	1.168466	7.37537e+06	-52889.1	1055.82	-29747.9	0.000000	0.000000	7.170552	43.8806	NaN	0.000000	0.001662	0.001708	28.0826	27.8783	0.001830	15233.9	9.157022	177.848	43.2352	1.168032	0.022905	0.022470	43.8806	15233.9	0.020744	0.023726	1849.51	90360
1055	2.000000	1.170943	7.37537e+06	-52889.1	1055.82	-29747.9	0.000000	0.000000	7.173447	54.0568	NaN	0.000000	0.001652	0.001717	28.0828	30.5881	0.001793	17059.6	8.843486	-3.394945	52.2691	1.170487	0.025381	0.024926	54.0568	17059.6	0.023005	0.027486	1966.72	94012.9
1055	2.000000	1.173453	7.37537e+06	-52889.1	1055.82	-29747.9	0.000000	0.000000	7.176057	56.4712	NaN	0.000000	0.001664	0.001750	28.0825	33.0945	0.001982	16699.4	2.983775	-177.75	55.5489	1.173192	0.027891	0.027630	56.4712	16699.4	0.025355	0.031665	1783.4	85740.1
1055	2.000000	1.175903	7.37537e+06	-52889.1	1055.82	-29747.9	0.000000	0.000000	7.178922	66.5687	NaN	0.000000	0.001672	0.001737	28.0826	35.8216	0.001921	18650.4	8.560072	-4.708304	63.3906	1.175546	0.030342	0.029985	66.5687	18650.4	0.027665	0.036042	1846.96	89754
1055	2.000000	1.178429	7.37537e+06	-52889.1	1055.82	-29747.9	0.000000	0.000000	7.181721	73.2046	NaN	0.000000	0.001668	0.001735	28.0825	37.2953	0.001782	20928.7	7.031301	175.069	71.3914	1.178098	0.032868	0.032537	73.2046	20928.7	0.030244	0.041251	1774.6	94144.8
1055	2.000000	1.180986	7.37537e+06	-52889.1	1055.82	-29747.9	0.000000	0.000000	7.184639	81.9895	NaN	0.000000	0.001674	0.001683	28.0825	39.5206	0.001864	21201.9	7.733299	-4.160997	83.6198	1.180529	0.035424	0.034967	81.9895	21201.9	0.032524	0.046138	1777.07	90182.3
1055	2.000000	1.183424	7.37537e+06	-52889.1	1055.82	-29747.9	0.000000	0.000000	7.187543	93.2942	NaN	0.000000	0.001655	0.001689	28.0823	41.2908	0.001605	25733.5	3.335985	176.937	91.1929	1.183143	0.037863	0.037581	93.2942	25733.5	0.035144	0.052082	1791.31	103022
1055	2.000000	1.185944	7.37537e+06	-52889.1	1055.82	-29747.9	0.000000	0.000000	7.190520	104.421	NaN	0.000000	0.001641	0.001727	28.0812	43.5883	0.001821	23942.6	7.163496	-4.320175	99.8088	1.185413	0.040383	0.039851	104.421	23942.6	0.037112	0.056777	1839.16	91803.6
1055	2.000000	1.188294	7.37537e+06	-52889.1	1055.82	-29747.9	0.000000	0.000000	7.193421	117.82	NaN	0.000000	0.001637	0.001718	28.0814	45.3461	0.001712	26488.4	3.413804	177.16	112.005	1.188047	0.042732	0.042486	117.82	26488.4	0.039396	0.062478	1885.78	96820.3
1055	2.000000	1.190935	7.37537e+06	-52889.1	1055.82	-29747.9	0.000000	0.000000	7.196453	127.321	NaN	0.000000	0.001653	0.001760	28.0812	48.8389	0.001880	25972.2	6.191046	-4.756513	126.455	1.190420	0.045374	0.044859	127.321	25972.2	0.041697	0.068487	1859.04	90672.7
1055	2.000000	1.193475	7.37537e+06	-52889.1	1055.82	-29747.9	0.000000	0.000000	7.199392	137.045	NaN	0.000000	0.001654	0.001746	28.0812	51.5175	0.001883	27352.9	7.420904	173.562	139.716	1.193154	0.047913	0.047592	137.045	27352.9	0.044156	0.075208	1822.21	91126.5
1055	2.000000	1.195933	7.37537e+06	-52889.1	1055.82	-29747.9	0.000000	0.000000	7.202530	153.556	NaN	0.000000	0.001664	0.001748	28.0812	53.4194	0.001793	29790.1	11.1226	-11.843	150.702	1.195503	0.050372	0.049941	153.556	29790.1	0.046506	0.081920	1874.46	95093.5
1055	2.000000	1.198417	7.37537e+06	-52889.1	1055.82	-29747.9	0.000000	0.000000	7.205753	171.527	NaN	0.000000	0.001673	0.001743	28.0815	55.4287	0.001777	31186.9	3.908943	174.772	170.272	1.198049	0.052856	0.052488	171.527	31186.9	0.048731	0.088531	1937.48	95763
1055	2.000000	1.200952	7.37537e+06	-52889.1	1055.82	-29747.9	0.000000	0.000000	7.208717	181.972	NaN	0.000000	0.001658	0.001743	28.0813	58.359	0.001855	31452.7	6.988835	-7.519273	181.062	1.200493	0.055390	0.054932	181.972	31452.7	0.051051	0.095689	1901.7	92896.7
1055	2.000000	1.203403	7.37537e+06	-52889.1	1055.82	-29747.9	0.000000	0.000000	7.211537	190.917	NaN	0.000000	0.001638	0.001732	28.0813	60.465	0.001836	32940.7	4.702725	173.463	189.991	1.203183	0.057842	0.057621	190.917	32940.7	0.053495	0.103522	1844.23	93538.5
1055	2.000000	1.205947	7.37537e+06	-52889.1	1055.82	-29747.9	0.000000	0.000000	7.215133	216.504	NaN	0.000000	0.001649	0.001720	28.0814	61.2708	0.001703	35983.6	3.587491	-5.172644	213.498	1.205451	0.060386	0.059890	216.504	35983.6	0.055873	0.111428	1942.99	98487.3
1055	2.000000	1.208430	7.37537e+06	-52889.1	1055.82	-29747.9	0.000000	0.000000	7.217993	225.666	NaN	0.000000	0.001656	0.001731	28.0815	62.193	0.001627	38227.7	-0.939862	178.157	225.822	1.208162	0.062869	0.062601	225.666	38227.7	0.058441	0.120278	1876.2	100707
1055	2.000000	1.210921	7.37537e+06	-52889.1	1055.82	-29747.9	0.000000	0.000000	7.221308	245.721	NaN	0.000000	0.001707	0.001759	28.0814	66.102	0.001886	35058	3.405197	-5.219860	245.302	1.210565	0.065359	0.065003	245.721	35058	0.060103	0.126177	1947.44	90171.8
1055	2.000000	1.213409	7.37537e+06	-52889.1	1055.82	-29747.9	0.000000	0.000000	7.224622	265.797	NaN	0.000000	0.001692	0.001735	28.0815	67.5596	0.001777	38018	0.142273	177.529	265.314	1.213050	0.067848	0.067489	265.797	38018	0.062604	0.135312	1964.33	94426.6
1055	2.000000	1.215860	7.37537e+06	-52889.1	1055.82	-29747.9	0.000000	0.000000	7.227985	287.964	NaN	0.000000	0.001677	0.001728	28.0816	69.543	0.001766	39384.8	2.883436	-5.122857	283.198	1.215568	0.070298	0.070006	287.964	39384.8	0.064815	0.143637	2004.8	94944.4
1055	2.000000	1.218377	7.37537e+06	-52889.1	1055.82	-29747.9	0.000000	0.000000	7.231558	313.619	NaN	0.000000	0.001650	0.001709	28.0816	73.1339	0.001759	41572.4	6.808319	169.888	310.444	1.217976	0.072816	0.072415	313.619	41572.4	0.067158	0.152719	2053.56	97192.2
1055	2.000000	1.220818	7.37537e+06	-52889.1	1055.82	-29747.9	0.000000	0.000000	7.234526	326.447	NaN	0.000000	0.001639	0.001692	28.0828	76.7281	0.001828	41969.6	6.049763	-9.505679	321.132	1.220557	0.075257	0.074996	326.447	41969.6	0.069423	0.161749	2018.23	95342.6
1055	2.000000	1.223438	7.37537e+06	-52889.1	1055.82	-29747.9	0.000000	0.000000	7.238192	351.878	NaN	0.000000	0.001657	0.001734	28.0827	79.8663	0.001908	41856.3	7.790364	168.654	351.197	1.223005	0.077877	0.077444	351.878	41856.3	0.071571	0.170539	2063.33	92602.4
1055	2.000000	1.225900	7.37537e+06	-52889.1	1055.82	-29747.9	0.000000	0.000000	7.241710	377.562	NaN	0.000000	0.001669	0.001736	28.0829	80.5678	0.001800	44754.8	3.309491	-6.560999	373.326	1.225450	0.080338	0.079888	377.562	44754.8	0.074011	0.180786	2088.44	96167.8
1055	2.000000	1.228402	7.37537e+06	-52889.1	1055.82	-29747.9	0.000000	0.000000	7.245143	400.199	NaN	0.000000	0.001677	0.001729	28.0827	82.5559	0.001836	44955.2	4.965601	171.424	401.079	1.228002	0.082841	0.082440	400.199	44955.2	0.076164	0.190062	2105.62	94211.8
1055	2.000000	1.230831	7.37537e+06	-52889.1	1055.82	-29747.9	0.000000	0.000000	7.248608	425.386	NaN	0.000000	0.001675	0.001754	28.0827	86.2728	0.001850	46646.4	6.118195	-10.358	419.937	1.230395	0.085269	0.084834	425.386	46646.4	0.078430	0.200059	2126.31	95282.3
1055	2.000000	1.233332	7.37537e+06	-52889.1	1055.82	-29747.9	0.000000	0.000000	7.251924	445.211	NaN	0.000000	0.001677	0.001748	28.0828	88.2477	0.001859	47463.5	4.717802	171.548	443.58	1.233115	0.087771	0.087554	445.211	47463.5	0.080735	0.210479	2115.23	94521
1055	2.000000	1.235912	7.37537e+06	-52889.1	1055.82	-29747.9	0.000000	0.000000	7.255659	473.289	NaN	0.000000	0.001664	0.001753	28.0827	89.7988	0.001907	47098.4	5.477441	-8.397829	472.356	1.235458	0.090350	0.089897	473.289	47098.4	0.082813	0.220082	2150.52	91725
1055	2.000000	1.238308	7.37537e+06	-52889.1	1055.82	-29747.9	0.000000	0.000000	7.259038	497.196	NaN	0.000000	0.001654	0.001797	28.0827	92.671	0.001788	51816	4.801731	170.897	494.949	1.237891	0.092746	0.092330	497.196	51816	0.085550	0.233031	2133.6	98068.7
1055	2.000000	1.240821	7.37537e+06	-52889.1	1055.82	-29747.9	0.000000	0.000000	7.262668	524.352	NaN	0.000000	0.001660	0.001751	28.0827	94.6773	0.001849	51194.3	5.254355	-9.572143	519.462	1.240326	0.095259	0.094764	524.352	51194.3	0.087577	0.242850	2159.16	94913.1
1055	2.000000	1.243321	7.37537e+06	-52889.1	1055.82	-29747.9	0.000000	0.000000	7.265793	539.546	NaN	0.000000	0.001665	0.001699	28.083	96.5571	0.001766	54672.5	5.108814	169.603	537.559	1.243027	0.097760	0.097466	539.546	54672.5	0.090358	0.256622	2102.49	98604
1055	2.000000	1.245863	7.37537e+06	-52889.1	1055.82	-29747.9	0.000000	0.000000	7.269469	567.113	NaN	0.000000	0.001657	0.001761	28.0827	98.5016	0.001792	54973.1	5.604310	-10.6855	563.699	1.245540	0.100301	0.099978	567.113	54973.1	0.092564	0.267801	2117.66	97054.8
1055	2.000000	1.248403	7.37537e+06	-52889.1	1055.82	-29747.9	0.000000	0.000000	7.272819	586.795	NaN	0.000000	0.001638	0.001744	28.0828	98.9129	0.001726	57320.7	1.693380	172.872	587.866	1.248121	0.102842	0.102560	586.795	57320.7	0.095164	0.281263	2086.29	98748.1
1055	2.000000	1.248752	7.37537e+06	-52889.1	1055.82	-29747.9	0.000000	0.000000	7.273493	594.694	NaN	0.000000	0.001656	0.001742	28.0831	98.5657	0.001753	56211.8	0.112141	-5.014825	586.39	1.248503	0.103191	0.102941	594.694	56211.8	0.095256	0.281745	2110.75	96754.8