File: remote_trans/data/nanoindenter/0828-1/data/Data_2025-08-06,11h17m57s/2025-07-22_16-23-58_1_32.txt
2025-07-22, 16:23:58, 1
Index	Phase	Displacement	Time	Pos X	Pos Y	Pos Z	Rot A	Rot B	Piezo Z	Force A	Force B	Gripper	Voltage A	Voltage B	Temperature	Amplitude force	Amplitude pos	Stiffness	Phase shift	Phase excitation	Force A raw	Displacement raw	HMax	HMax raw	Real Force	Real Stiffness	Contact Depth	Area	Hardness	Reduced Mod.
[#]	[#]	[um]	[s]	[um]	[um]	[um]	[m°]	[m°]	[um]	[uN]	[uN]	[V]	[V]	[V]	[°C]	[uN]	[um]	[N/m]	[°]	[°]	[uN]	[um]	[um]	[um]	[uN]	[N/m]	[um]	[um^2]	[MPa]	[MPa]
32	1.000000	0.002433	7.36535e+06	-40239.1	955.817	-29791.4	0.000000	0.000000	6.002737	0.002779	NaN	0.000000	0.001659	0.001628	28.1103	0.032385	0.001030	31.4385	-55.6294	-178.743	0.026488	0.001196	-1.026115	-1.027353	0.002779	31.4385	-1.026181	-5.106356E+13	-5.441762E-17	NaN
32	1.000000	0.010390	7.36535e+06	-40239.1	955.819	-29791.4	0.000000	0.000000	6.010695	0.041944	NaN	0.000000	0.001670	0.001635	28.1096	0.009492	0.000981	9.673940	-112.664	177.873	0.018262	0.009077	-1.018158	-1.019471	0.041944	9.673940	-1.021410	-4.404748E+13	-9.522439E-16	NaN
32	1.000000	0.018382	7.36535e+06	-40239.1	955.818	-29791.4	0.000000	0.000000	6.018689	0.064455	NaN	0.000000	0.001642	0.001605	28.1097	0.040199	0.001800	22.3275	-31.7524	-177.801	0.053341	0.017018	-1.010166	-1.011530	0.064455	22.3275	-1.012331	-3.324709E+13	-1.938670E-15	NaN
32	1.000000	0.026432	7.36535e+06	-40239.1	955.818	-29791.4	0.000000	0.000000	6.026737	0.030167	NaN	0.000000	0.001668	0.001590	28.1092	0.021782	0.001722	12.6467	79.2215	173.099	-0.056116	0.025061	-1.002116	-1.003488	0.030167	12.6467	-1.003905	-2.560612E+13	-1.178109E-15	NaN
32	1.000000	0.034421	7.36535e+06	-40239.1	955.818	-29791.4	0.000000	0.000000	6.034725	0.014396	NaN	0.000000	0.001662	0.001615	28.1099	0.079981	0.001892	42.2685	-0.121000	179.741	0.019829	0.033050	-0.994127	-0.995498	0.014396	42.2685	-0.994383	-1.906038E+13	-7.553024E-16	NaN
32	1.000000	0.042381	7.36535e+06	-40239.1	955.818	-29791.4	0.000000	0.000000	6.042688	0.088142	NaN	0.000000	0.001671	0.001628	28.1101	0.042568	0.001926	22.1043	171.713	177.005	0.048029	0.041065	-0.986167	-0.987483	0.088142	22.1043	-0.989158	-1.620949E+13	-5.437650E-15	NaN
32	1.000000	0.050395	7.36535e+06	-40239.1	955.818	-29791.4	0.000000	0.000000	6.050701	0.047701	NaN	0.000000	0.001670	0.001637	28.1102	0.039803	0.002006	19.8466	-14.7825	177.566	0.039875	0.049069	-0.978153	-0.979480	0.047701	19.8466	-0.979956	-1.218461E+13	-3.914897E-15	NaN
32	1.000000	0.058389	7.36535e+06	-40239.1	955.818	-29791.4	0.000000	0.000000	6.058692	-0.027534	NaN	0.000000	0.001680	0.001642	28.1092	0.028665	0.001876	15.2826	160.977	174.223	-0.099307	0.056998	-0.970159	-0.971551	-0.027534	15.2826	-0.968808	-8.621767E+12	3.193602E-15	NaN
32	1.000000	0.066404	7.36535e+06	-40239.1	955.818	-29791.4	0.000000	0.000000	6.066709	0.036067	NaN	0.000000	0.001699	0.001656	28.1094	0.125628	0.001919	65.4715	46.0485	177.446	0.047349	0.065085	-0.962144	-0.963463	0.036067	65.4715	-0.962557	-7.101368E+12	-5.078886E-15	NaN
32	1.000000	0.074399	7.36535e+06	-40239.1	955.818	-29791.4	0.000000	0.000000	6.074706	0.092535	NaN	0.000000	0.001671	0.001648	28.1103	0.052262	0.002052	25.4631	-148.096	178.477	0.081225	0.073064	-0.954150	-0.955484	0.092535	25.4631	-0.956875	-5.953054E+12	-1.554407E-14	NaN
32	1.000000	0.082418	7.36535e+06	-40239.1	955.818	-29791.4	0.000000	0.000000	6.082724	0.056624	NaN	0.000000	0.001668	0.001641	28.1096	0.067296	0.001903	35.3638	-119.079	-179.855	0.065436	0.081085	-0.946130	-0.947464	0.056624	35.3638	-0.947331	-4.426193E+12	-1.279289E-14	NaN
32	1.000000	0.090387	7.36535e+06	-40239.1	955.818	-29791.4	0.000000	0.000000	6.090695	0.104160	NaN	0.000000	0.001674	0.001624	28.109	0.080637	0.002026	39.7992	70.7535	178.476	0.067694	0.089059	-0.938161	-0.939489	0.104160	39.7992	-0.940124	-3.538447E+12	-2.943669E-14	NaN
32	1.000000	0.098422	7.36535e+06	-40239.1	955.819	-29791.4	0.000000	0.000000	6.098730	0.089002	NaN	0.000000	0.001675	0.001611	28.1091	0.085939	0.002062	41.6792	-72.7121	175.113	0.063667	0.097093	-0.930126	-0.931455	0.089002	41.6792	-0.931727	-2.725903E+12	-3.265048E-14	NaN
32	1.000000	0.106416	7.36535e+06	-40239.1	955.818	-29791.4	0.000000	0.000000	6.106721	0.051716	NaN	0.000000	0.001654	0.001623	28.1086	0.172869	0.001969	87.7972	-9.625185	173.362	0.015811	0.105122	-0.922133	-0.923427	0.051716	87.7972	-0.922574	-2.050987E+12	-2.521516E-14	NaN
32	1.000000	0.114365	7.36535e+06	-40239.1	955.818	-29791.4	0.000000	0.000000	6.114671	0.036573	NaN	0.000000	0.001643	0.001643	28.1092	0.044775	0.002053	21.8071	-40.5121	175.343	0.025701	0.113117	-0.914183	-0.915431	0.036573	21.8071	-0.915441	-1.643011E+12	-2.225949E-14	NaN
32	1.000000	0.122422	7.36535e+06	-40239.1	955.818	-29791.4	0.000000	0.000000	6.122729	0.079961	NaN	0.000000	0.001639	0.001600	28.1088	0.094164	0.001976	47.6443	36.9255	177.581	0.102383	0.121093	-0.906126	-0.907455	0.079961	47.6443	-0.907385	-1.278894E+12	-6.252322E-14	NaN
32	1.000000	0.130388	7.36535e+06	-40239.1	955.818	-29791.4	0.000000	0.000000	6.130693	0.039220	NaN	0.000000	0.001632	0.001637	28.1092	0.037452	0.001943	19.278	36.6979	174.67	0.046292	0.129092	-0.898161	-0.899456	0.039220	19.278	-0.899686	-1.006537E+12	-3.896524E-14	NaN
32	1.000000	0.138437	7.36535e+06	-40239.1	955.818	-29791.4	0.000000	0.000000	6.138745	0.095204	NaN	0.000000	0.001655	0.001672	28.1101	0.041397	0.002047	20.2268	-61.3831	177.698	0.109209	0.137134	-0.890111	-0.891414	0.095204	20.2268	-0.893641	-8.339356E+11	-1.141624E-13	NaN
32	1.000000	0.146406	7.36535e+06	-40239.1	955.818	-29791.4	0.000000	0.000000	6.146710	0.003253	NaN	0.000000	0.001725	0.001675	28.1099	0.078675	0.001999	39.3651	-61.2948	178.137	0.046414	0.145127	-0.882142	-0.883421	0.003253	39.3651	-0.882204	-5.841360E+11	-5.568171E-15	NaN
32	1.000000	0.154430	7.36535e+06	-40239.1	955.819	-29791.4	0.000000	0.000000	6.154737	0.080468	NaN	0.000000	0.001715	0.001641	28.1098	0.093552	0.002092	44.7228	159.571	174.312	-0.002330	0.153125	-0.874118	-0.875423	0.080468	44.7228	-0.875468	-4.735985E+11	-1.699070E-13	NaN
32	1.000000	0.162443	7.36535e+06	-40239.1	955.819	-29791.4	0.000000	0.000000	6.162748	0.037444	NaN	0.000000	0.001713	0.001608	28.1105	0.101577	0.001975	51.4296	177.125	175.28	0.077015	0.161109	-0.866106	-0.867440	0.037444	51.4296	-0.866652	-3.598644E+11	-1.040493E-13	NaN
32	1.000000	0.170406	7.36535e+06	-40239.1	955.818	-29791.4	0.000000	0.000000	6.170713	0.074057	NaN	0.000000	0.001697	0.001617	28.1091	0.050154	0.002011	24.9457	-111.759	177.779	-0.022073	0.169141	-0.858142	-0.859407	0.074057	24.9457	-0.860369	-2.958754E+11	-2.502988E-13	NaN
32	1.000000	0.178441	7.36535e+06	-40239.1	955.819	-29791.4	0.000000	0.000000	6.178746	0.032545	NaN	0.000000	0.001710	0.001631	28.1095	0.051569	0.001922	26.8333	168.996	178.526	0.024878	0.177136	-0.850108	-0.851412	0.032545	26.8333	-0.851017	-2.210605E+11	-1.472239E-13	NaN
32	1.000000	0.186458	7.36535e+06	-40239.1	955.818	-29791.4	0.000000	0.000000	6.186764	0.055974	NaN	0.000000	0.001611	0.001589	28.1105	0.091487	0.001954	46.8301	1.149331	-179.34	-0.014487	0.185120	-0.842090	-0.843428	0.055974	46.8301	-0.842986	-1.720868E+11	-3.252680E-13	NaN
32	1.000000	0.194438	7.36535e+06	-40239.1	955.818	-29791.4	0.000000	0.000000	6.194743	0.017847	NaN	0.000000	0.001671	0.001617	28.1106	0.101949	0.001984	51.3935	28.628	179.226	0.017521	0.193160	-0.834110	-0.835389	0.017847	51.3935	-0.834370	-1.315266E+11	-1.356939E-13	NaN
32	1.000000	0.202464	7.36535e+06	-40239.1	955.817	-29791.4	0.000000	0.000000	6.202769	0.026651	NaN	0.000000	0.001666	0.001675	28.1105	0.063775	0.002070	30.8132	-27.2924	176.21	-0.021928	0.201079	-0.826084	-0.827469	0.026651	30.8132	-0.826733	-1.036325E+11	-2.571700E-13	NaN
32	1.000000	0.210453	7.36535e+06	-40239.1	955.818	-29791.4	0.000000	0.000000	6.210755	-0.021445	NaN	0.000000	0.001649	0.001644	28.1126	0.029767	0.002049	14.53	92.3259	177.267	0.012575	0.209113	-0.818096	-0.819435	-0.021445	14.53	-0.816989	-7.644936E+10	2.805182E-13	NaN
32	1.000000	0.218448	7.36535e+06	-40239.1	955.818	-29791.4	0.000000	0.000000	6.218754	0.045099	NaN	0.000000	0.001659	0.001645	28.1119	0.040895	0.002181	18.7492	46.959	-178.74	0.060539	0.217153	-0.810100	-0.811395	0.045099	18.7492	-0.811904	-6.522289E+10	-6.914578E-13	NaN
32	1.000000	0.226422	7.36535e+06	-40239.1	955.818	-29791.4	0.000000	0.000000	6.226730	0.105823	NaN	0.000000	0.001662	0.001616	28.1118	0.080614	0.001977	40.7688	74.2322	-177.282	0.016541	0.225151	-0.802126	-0.803398	0.105823	40.7688	-0.804073	-5.106708E+10	-2.072242E-12	NaN
32	1.000000	0.234495	7.36535e+06	-40239.1	955.818	-29791.4	0.000000	0.000000	6.234799	0.001693	NaN	0.000000	0.001645	0.001625	28.1119	0.105520	0.001924	54.8373	-115.818	177.664	0.026165	0.233121	-0.794053	-0.795427	0.001693	54.8373	-0.794076	-3.736271E+10	-4.531019E-14	NaN
32	1.000000	0.242456	7.36535e+06	-40239.1	955.818	-29791.4	0.000000	0.000000	6.242765	0.112239	NaN	0.000000	0.001663	0.001624	28.1122	0.106592	0.001892	56.3373	120.371	176.769	0.050349	0.241129	-0.786092	-0.787419	0.112239	56.3373	-0.787586	-3.049974E+10	-3.680004E-12	NaN
32	1.000000	0.250466	7.36535e+06	-40239.1	955.818	-29791.4	0.000000	0.000000	6.250771	0.029637	NaN	0.000000	0.001646	0.001600	28.1111	0.111248	0.002017	55.1552	65.6478	175.818	-0.058290	0.249157	-0.778082	-0.779391	0.029637	55.1552	-0.778485	-2.294292E+10	-1.291780E-12	NaN
32	1.000000	0.258463	7.36535e+06	-40239.1	955.819	-29791.4	0.000000	0.000000	6.258771	0.109699	NaN	0.000000	0.001639	0.001632	28.1104	0.165346	0.002058	80.3558	-132.609	177.558	0.069742	0.257158	-0.770085	-0.771390	0.109699	80.3558	-0.771109	-1.821329E+10	-6.023002E-12	NaN
32	1.000000	0.266460	7.36535e+06	-40239.1	955.818	-29791.4	0.000000	0.000000	6.266761	-0.074708	NaN	0.000000	0.001684	0.001614	28.1107	0.032972	0.001952	16.89	-88.7538	-178.623	-0.094540	0.265180	-0.762088	-0.763369	-0.074708	16.89	-0.758771	-1.237595E+10	6.036566E-12	NaN
32	1.000000	0.274451	7.36535e+06	-40239.1	955.818	-29791.4	0.000000	0.000000	6.274756	0.049390	NaN	0.000000	0.001637	0.001623	28.1109	0.059973	0.001934	31.0094	159.346	-179.133	0.060808	0.273166	-0.754098	-0.755382	0.049390	31.0094	-0.755292	-1.109802E+10	-4.450323E-12	NaN
32	1.000000	0.282487	7.36535e+06	-40239.1	955.819	-29791.4	0.000000	0.000000	6.282791	0.020852	NaN	0.000000	0.001666	0.001624	28.1113	0.125212	0.001997	62.7044	-166.836	177.545	-0.025328	0.281140	-0.746062	-0.747408	0.020852	62.7044	-0.746311	-8.375308E+9	-2.489705E-12	NaN
32	1.000000	0.290471	7.36535e+06	-40239.1	955.819	-29791.4	0.000000	0.000000	6.290776	0.035687	NaN	0.000000	0.001640	0.001635	28.1116	0.151205	0.001957	77.251	79.0504	178.42	0.096976	0.289162	-0.738077	-0.739386	0.035687	77.251	-0.738423	-6.540041E+9	-5.456634E-12	NaN
32	1.000000	0.298503	7.36535e+06	-40239.1	955.819	-29791.4	0.000000	0.000000	6.298811	0.096285	NaN	0.000000	0.001645	0.001609	28.1119	0.099001	0.002013	49.1924	100.714	178.185	0.038363	0.297201	-0.730045	-0.731347	0.096285	49.1924	-0.731513	-5.265376E+9	-1.828642E-11	NaN
32	1.000000	0.306463	7.36535e+06	-40239.1	955.818	-29791.4	0.000000	0.000000	6.306769	0.049226	NaN	0.000000	0.001680	0.001575	28.112	0.024537	0.002037	12.0477	-111.543	177.214	-0.011326	0.305179	-0.722085	-0.723369	0.049226	12.0477	-0.725150	-4.312145E+9	-1.141575E-11	NaN
32	1.000000	0.314500	7.36535e+06	-40239.1	955.819	-29791.4	0.000000	0.000000	6.314804	0.000176	NaN	0.000000	0.001669	0.001627	28.1126	0.086488	0.001992	43.4225	83.706	174.32	0.001989	0.313180	-0.714048	-0.715368	0.000176	43.4225	-0.714051	-3.043183E+9	-5.782796E-14	NaN
32	1.000000	0.322501	7.36535e+06	-40239.1	955.818	-29791.4	0.000000	0.000000	6.322806	0.045859	NaN	0.000000	0.001627	0.001611	28.1114	0.058740	0.001961	29.949	112.386	-179.734	0.099631	0.321226	-0.706048	-0.707322	0.045859	29.949	-0.707196	-2.453468E+9	-1.869151E-11	NaN
32	1.000000	0.330503	7.36535e+06	-40239.1	955.818	-29791.4	0.000000	0.000000	6.330809	0.077308	NaN	0.000000	0.001626	0.001632	28.1096	0.110220	0.002071	53.2174	103.9	176.916	0.117248	0.329200	-0.698046	-0.699348	0.077308	53.2174	-0.699135	-1.904226E+9	-4.059817E-11	NaN
32	1.000000	0.338520	7.36535e+06	-40239.1	955.818	-29791.4	0.000000	0.000000	6.338828	0.094400	NaN	0.000000	0.001644	0.001622	28.1101	0.081214	0.002067	39.2884	-108.466	175.835	0.061197	0.337212	-0.690028	-0.691336	0.094400	39.2884	-0.691830	-1.513301E+9	-6.238033E-11	NaN
32	1.000000	0.346507	7.36535e+06	-40239.1	955.819	-29791.4	0.000000	0.000000	6.346811	0.012971	NaN	0.000000	0.001622	0.001622	28.1098	0.093870	0.001970	47.6582	-154.72	177.823	-0.026518	0.345163	-0.682041	-0.683386	0.012971	47.6582	-0.682245	-1.119197E+9	-1.158932E-11	NaN
32	1.000000	0.354545	7.36535e+06	-40239.1	955.818	-29791.4	0.000000	0.000000	6.354853	0.100107	NaN	0.000000	0.001662	0.001629	28.1103	0.085857	0.001989	43.1738	-13.8632	175.861	0.050573	0.353244	-0.674003	-0.675305	0.100107	43.1738	-0.675742	-9.119299E+8	-1.097746E-10	NaN
32	1.000000	0.362525	7.36535e+06	-40239.1	955.818	-29791.4	0.000000	0.000000	6.362830	0.055544	NaN	0.000000	0.001643	0.001617	28.1097	0.038409	0.001929	19.9085	177.091	178.865	0.045069	0.361208	-0.666024	-0.667340	0.055544	19.9085	-0.668116	-7.171392E+8	-7.745209E-11	NaN
32	1.000000	0.370501	7.36535e+06	-40239.1	955.819	-29791.4	0.000000	0.000000	6.370805	0.008943	NaN	0.000000	0.001640	0.001586	28.1108	0.042808	0.002120	20.1912	-87.4631	177.406	0.103833	0.369236	-0.658047	-0.659312	0.008943	20.1912	-0.658379	-5.275579E+8	-1.695097E-11	NaN
32	1.000000	0.378505	7.36535e+06	-40239.1	955.819	-29791.4	0.000000	0.000000	6.378811	0.067069	NaN	0.000000	0.001658	0.001568	28.1125	0.043386	0.002000	21.696	154.77	176.08	0.050951	0.377131	-0.650044	-0.651418	0.067069	21.696	-0.652362	-4.363296E+8	-1.537115E-10	NaN
32	1.000000	0.386534	7.36535e+06	-40239.1	955.818	-29791.4	0.000000	0.000000	6.386838	0.017808	NaN	0.000000	0.001616	0.001583	28.111	0.059130	0.002062	28.6817	172.832	175.817	0.069619	0.385170	-0.642014	-0.643378	0.017808	28.6817	-0.642480	-3.193820E+8	-5.575721E-11	NaN
32	1.000000	0.394548	7.36535e+06	-40239.1	955.819	-29791.4	0.000000	0.000000	6.394853	0.037828	NaN	0.000000	0.001624	0.001629	28.1122	0.027980	0.002012	13.9039	-23.7397	173.068	0.030556	0.393219	-0.634000	-0.635330	0.037828	13.9039	-0.636041	-2.605900E+8	-1.451632E-10	NaN
32	1.000000	0.402537	7.36535e+06	-40239.1	955.818	-29791.4	0.000000	0.000000	6.402842	0.053165	NaN	0.000000	0.001673	0.001640	28.1109	0.114202	0.001989	57.4297	113.598	176.695	0.074194	0.401230	-0.626012	-0.627319	0.053165	57.4297	-0.626706	-1.939908E+8	-2.740612E-10	NaN
32	1.000000	0.410529	7.36535e+06	-40239.1	955.818	-29791.4	0.000000	0.000000	6.410835	0.052733	NaN	0.000000	0.001670	0.001612	28.1099	0.092801	0.001945	47.7111	-176.24	175.921	-0.004827	0.409198	-0.618019	-0.619351	0.052733	47.7111	-0.618848	-1.512864E+8	-3.485659E-10	NaN
32	1.000000	0.418521	7.36535e+06	-40239.1	955.818	-29791.4	0.000000	0.000000	6.418827	0.070183	NaN	0.000000	0.001675	0.001637	28.1106	0.157681	0.001918	82.2002	44.3288	177.519	-0.020515	0.417229	-0.610028	-0.611320	0.070183	82.2002	-0.610668	-1.167631E+8	-6.010750E-10	NaN
32	1.000000	0.426576	7.36535e+06	-40239.1	955.818	-29791.4	0.000000	0.000000	6.426882	0.052237	NaN	0.000000	0.001648	0.001630	28.1106	0.034289	0.001991	17.2221	120.787	174.878	-0.043727	0.425220	-0.601972	-0.603329	0.052237	17.2221	-0.604247	-9.526514E+7	-5.483320E-10	NaN
32	1.000000	0.434550	7.36535e+06	-40239.1	955.818	-29791.4	0.000000	0.000000	6.434855	0.034870	NaN	0.000000	0.001655	0.001615	28.1104	0.027615	0.001968	14.0301	-133.134	175.164	0.041039	0.433254	-0.593999	-0.595294	0.034870	14.0301	-0.595863	-7.302414E+7	-4.775070E-10	NaN
32	1.000000	0.442560	7.36535e+06	-40239.1	955.818	-29791.4	0.000000	0.000000	6.442866	0.058978	NaN	0.000000	0.001649	0.001618	28.1101	0.165443	0.001962	84.3331	-155.517	176.55	0.074495	0.441197	-0.585988	-0.587351	0.058978	84.3331	-0.586513	-5.427291E+7	-1.086684E-9	NaN
32	1.000000	0.450552	7.36535e+06	-40239.1	955.818	-29791.4	0.000000	0.000000	6.450859	0.096798	NaN	0.000000	0.001665	0.001653	28.1119	0.101179	0.001997	50.6576	-57.4366	177.598	0.100567	0.449275	-0.577997	-0.579273	0.096798	50.6576	-0.579430	-4.333673E+7	-2.233630E-9	NaN
32	1.000000	0.458567	7.36535e+06	-40239.1	955.818	-29791.4	0.000000	0.000000	6.458870	-0.018558	NaN	0.000000	0.001670	0.001628	28.1129	0.136244	0.002099	64.9166	-60.1121	179.029	0.020851	0.457217	-0.569981	-0.571331	-0.018558	64.9166	-0.569767	-3.187220E+7	5.822723E-10	NaN
32	1.000000	0.466573	7.36535e+06	-40239.1	955.818	-29791.4	0.000000	0.000000	6.466880	0.070202	NaN	0.000000	0.001667	0.001654	28.1129	0.037241	0.001978	18.8301	-80.0481	179.135	0.055501	0.465250	-0.561975	-0.563298	0.070202	18.8301	-0.564771	-2.718701E+7	-2.582172E-9	NaN
32	1.000000	0.474572	7.36535e+06	-40239.1	955.819	-29791.4	0.000000	0.000000	6.474878	0.056809	NaN	0.000000	0.001678	0.001646	28.1136	0.018605	0.002045	9.098748	-60.0286	179.32	-0.046545	0.473224	-0.553976	-0.555324	0.056809	9.098748	-0.558659	-2.237831E+7	-2.538570E-9	NaN
32	1.000000	0.482541	7.36535e+06	-40239.1	955.818	-29791.4	0.000000	0.000000	6.482846	0.036322	NaN	0.000000	0.001728	0.001669	28.1125	0.050853	0.001854	27.4328	166.443	172.686	0.079362	0.481237	-0.546007	-0.547311	0.036322	27.4328	-0.547000	-1.543101E+7	-2.353852E-9	NaN
32	1.000000	0.490570	7.36535e+06	-40239.1	955.819	-29791.4	0.000000	0.000000	6.490877	0.066816	NaN	0.000000	0.001739	0.001658	28.112	0.094198	0.001981	47.5452	-144.865	177.521	0.092682	0.489212	-0.537978	-0.539336	0.066816	47.5452	-0.539032	-1.196551E+7	-5.584011E-9	NaN
32	1.000000	0.498581	7.36535e+06	-40239.1	955.818	-29791.4	0.000000	0.000000	6.498887	0.067455	NaN	0.000000	0.001729	0.001670	28.1125	0.012911	0.001960	6.586043	-8.126825	-179.712	0.111526	0.497309	-0.529968	-0.531239	0.067455	6.586043	-0.537649	-1.144857E+7	-5.891997E-9	NaN
32	1.000000	0.506590	7.36535e+06	-40239.1	955.819	-29791.4	0.000000	0.000000	6.506894	0.012546	NaN	0.000000	0.001710	0.001604	28.1118	0.073591	0.001910	38.5271	60.9146	178.174	0.061220	0.505243	-0.521959	-0.523305	0.012546	38.5271	-0.522203	-6.98599e+06	-1.795932E-9	NaN
32	1.000000	0.514609	7.36535e+06	-40239.1	955.819	-29791.4	0.000000	0.000000	6.514914	0.040956	NaN	0.000000	0.001747	0.001623	28.1122	0.022524	0.002004	11.241	-131.967	177.378	0.045989	0.513270	-0.513939	-0.515278	0.040956	11.241	-0.516672	-5.85195e+06	-6.998717E-9	NaN
32	1.000000	0.522561	7.36535e+06	-40239.1	955.819	-29791.4	0.000000	0.000000	6.522866	0.028477	NaN	0.000000	0.001746	0.001641	28.1124	0.025700	0.001924	13.3589	169.016	-179.983	0.042611	0.521287	-0.505987	-0.507261	0.028477	13.3589	-0.507586	-4.37303e+06	-6.511951E-9	NaN
32	1.000000	0.530568	7.36535e+06	-40239.1	955.818	-29791.4	0.000000	0.000000	6.530875	0.085664	NaN	0.000000	0.001730	0.001600	28.1122	0.070907	0.002042	34.7212	-18.0345	176.034	0.069046	0.529221	-0.497981	-0.499327	0.085664	34.7212	-0.499831	-3.40927e+06	-2.512688E-8	NaN
32	1.000000	0.538585	7.36535e+06	-40239.1	955.818	-29791.4	0.000000	0.000000	6.538887	-0.016129	NaN	0.000000	0.001714	0.001646	28.1138	0.023030	0.002050	11.233	104.131	173.803	0.032971	0.537300	-0.489964	-0.491249	-0.016129	11.233	-0.488887	-2.39792e+06	6.726285E-9	NaN
32	1.000000	0.546621	7.36535e+06	-40239.1	955.818	-29791.4	0.000000	0.000000	6.546925	0.023615	NaN	0.000000	0.001758	0.001608	28.1131	0.106389	0.001946	54.6776	-142.123	177.962	-0.023099	0.545297	-0.481928	-0.483251	0.023615	54.6776	-0.482251	-1.9366e+06	-1.219389E-8	NaN
32	1.000000	0.554570	7.36535e+06	-40239.1	955.818	-29791.4	0.000000	0.000000	6.554877	0.079627	NaN	0.000000	0.001730	0.001639	28.1129	0.009744	0.001979	4.922533	-179.454	175.286	0.042077	0.553258	-0.473979	-0.475290	0.079627	4.922533	-0.486110	-2.19291e+06	-3.631089E-8	NaN
32	1.000000	0.562591	7.36535e+06	-40239.1	955.818	-29791.4	0.000000	0.000000	6.562895	0.003939	NaN	0.000000	0.001721	0.001629	28.1135	0.058997	0.001867	31.5925	167.354	177.583	0.061308	0.561290	-0.465957	-0.467258	0.003939	31.5925	-0.466051	-1.14815e+06	-3.430583E-9	NaN
32	1.000000	0.570595	7.36535e+06	-40239.1	955.819	-29791.4	0.000000	0.000000	6.570899	0.016837	NaN	0.000000	0.001713	0.001619	28.1125	0.046936	0.002070	22.6743	85.3983	177.56	-0.006478	0.569276	-0.457953	-0.459272	0.016837	22.6743	-0.458510	-899660	-1.871458E-8	NaN
32	1.000000	0.578613	7.36535e+06	-40239.1	955.818	-29791.4	0.000000	0.000000	6.578922	0.147132	NaN	0.000000	0.001756	0.001590	28.1125	0.050998	0.002019	25.2548	89.5077	178.027	0.123590	0.577300	-0.449936	-0.451249	0.147132	25.2548	-0.454305	-785128	-1.873989E-7	NaN
32	1.000000	0.586585	7.36535e+06	-40239.1	955.818	-29791.4	0.000000	0.000000	6.586891	0.045660	NaN	0.000000	0.001737	0.001627	28.1127	0.088140	0.001945	45.3185	-112.775	176.987	0.030084	0.585249	-0.441963	-0.443299	0.045660	45.3185	-0.442719	-539166	-8.468603E-8	NaN
32	1.000000	0.594609	7.36535e+06	-40239.1	955.818	-29791.4	0.000000	0.000000	6.594915	0.063927	NaN	0.000000	0.001670	0.001629	28.111	0.059552	0.002071	28.7531	-146.336	179.495	0.090166	0.593313	-0.433939	-0.435235	0.063927	28.7531	-0.435606	-427880	-1.494049E-7	NaN
32	1.000000	0.602627	7.36535e+06	-40239.1	955.819	-29791.4	0.000000	0.000000	6.602931	0.022381	NaN	0.000000	0.001653	0.001594	28.1108	0.084865	0.002046	41.4686	93.2747	178.382	0.047114	0.601301	-0.425921	-0.427247	0.022381	41.4686	-0.426326	-316273	-7.076321E-8	NaN
32	1.000000	0.610603	7.36535e+06	-40239.1	955.818	-29791.4	0.000000	0.000000	6.610908	0.034317	NaN	0.000000	0.001678	0.001632	28.1131	0.040345	0.002045	19.7286	142.272	178.558	0.100729	0.609284	-0.417946	-0.419264	0.034317	19.7286	-0.419250	-251061	-1.366893E-7	NaN
32	1.000000	0.618637	7.36535e+06	-40239.1	955.818	-29791.4	0.000000	0.000000	6.618941	0.005869	NaN	0.000000	0.001667	0.001597	28.1123	0.075255	0.001943	38.7252	-64.5971	177.825	0.005252	0.617318	-0.409911	-0.411230	0.005869	38.7252	-0.410025	-185675	-3.161036E-8	NaN
32	1.000000	0.626606	7.36535e+06	-40239.1	955.818	-29791.4	0.000000	0.000000	6.626912	0.057080	NaN	0.000000	0.001709	0.001624	28.1126	0.009595	0.001844	5.203480	51.4517	-178.195	0.037196	0.625329	-0.401943	-0.403219	0.057080	5.203480	-0.410170	-186558	-3.059636E-7	NaN
32	1.000000	0.634649	7.36535e+06	-40239.1	955.818	-29791.4	0.000000	0.000000	6.634954	0.023169	NaN	0.000000	0.001727	0.001611	28.1125	0.031354	0.001847	16.9712	84.1381	174.587	0.083196	0.633330	-0.393899	-0.395219	0.023169	16.9712	-0.394923	-113119	-2.048218E-7	NaN
32	1.000000	0.642658	7.36535e+06	-40239.1	955.819	-29791.4	0.000000	0.000000	6.642961	-0.013906	NaN	0.000000	0.001694	0.001631	28.1119	0.045044	0.001941	23.2031	63.1246	179.592	0.025978	0.641297	-0.385890	-0.387251	-0.013906	23.2031	-0.385441	-82774.8	1.679939E-7	NaN
32	1.000000	0.650617	7.36535e+06	-40239.1	955.818	-29791.4	0.000000	0.000000	6.650926	0.120644	NaN	0.000000	0.001730	0.001644	28.1118	0.058178	0.001990	29.2319	134.356	177.972	0.073319	0.649323	-0.377931	-0.379225	0.120644	29.2319	-0.381026	-71551.3	-1.686120E-6	NaN
32	1.000000	0.658645	7.36535e+06	-40239.1	955.818	-29791.4	0.000000	0.000000	6.658951	0.069312	NaN	0.000000	0.001712	0.001610	28.1117	0.081299	0.002089	38.9106	136.295	177	0.090715	0.657343	-0.369903	-0.371205	0.069312	38.9106	-0.371239	-51757.2	-1.339168E-6	NaN
32	1.000000	0.666666	7.36535e+06	-40239.1	955.818	-29791.4	0.000000	0.000000	6.666969	-0.012293	NaN	0.000000	0.001757	0.001608	28.1115	0.108300	0.001915	56.5524	84.9407	174.825	0.049972	0.665347	-0.361882	-0.363201	-0.012293	56.5524	-0.361719	-37729.9	3.258228E-7	NaN
32	1.000000	0.674669	7.36535e+06	-40239.1	955.818	-29791.4	0.000000	0.000000	6.674974	0.032458	NaN	0.000000	0.001716	0.001596	28.1125	0.037706	0.002051	18.3871	-75.1736	177.425	-0.003413	0.673330	-0.353879	-0.355218	0.032458	18.3871	-0.355203	-30369.8	-1.068756E-6	NaN
32	1.000000	0.682653	7.36535e+06	-40239.1	955.818	-29791.4	0.000000	0.000000	6.682956	-0.008352	NaN	0.000000	0.001684	0.001643	28.1115	0.092863	0.002193	42.3488	-8.957426	176.733	0.087136	0.681379	-0.345895	-0.347169	-0.008352	42.3488	-0.345747	-22142.3	3.772078E-7	NaN
32	1.000000	0.690631	7.36535e+06	-40239.1	955.818	-29791.4	0.000000	0.000000	6.690933	-0.035551	NaN	0.000000	0.001657	0.001638	28.1131	0.019864	0.002057	9.658769	105.903	178.278	0.014225	0.689294	-0.337917	-0.339254	-0.035551	9.658769	-0.335156	-15519.3	2.290735E-6	NaN
32	1.000000	0.698658	7.36535e+06	-40239.1	955.818	-29791.4	0.000000	0.000000	6.698966	0.087784	NaN	0.000000	0.001667	0.001621	28.1137	0.119266	0.001949	61.1803	133.898	179.745	0.068898	0.697349	-0.329890	-0.331199	0.087784	61.1803	-0.330966	-13477	-6.513639E-6	NaN
32	1.000000	0.706661	7.36535e+06	-40239.1	955.819	-29791.4	0.000000	0.000000	6.706966	0.030730	NaN	0.000000	0.001689	0.001603	28.113	0.029073	0.002083	13.9587	174.062	177.509	0.009083	0.705369	-0.321887	-0.323180	0.030730	13.9587	-0.323538	-10487.4	-2.930231E-6	NaN
32	1.000000	0.714666	7.36535e+06	-40239.1	955.818	-29791.4	0.000000	0.000000	6.714969	-0.012320	NaN	0.000000	0.001704	0.001584	28.113	0.049250	0.002018	24.4113	24.3452	179.137	-0.012623	0.713346	-0.313882	-0.315202	-0.012320	24.4113	-0.313504	-7462.09	1.650951E-6	NaN
32	1.000000	0.722671	7.36535e+06	-40239.1	955.818	-29791.4	0.000000	0.000000	6.722976	0.037960	NaN	0.000000	0.001655	0.001604	28.1137	0.116589	0.002058	56.6566	-35.2739	178.51	0.072677	0.721344	-0.305877	-0.307204	0.037960	56.6566	-0.306379	-5853.54	-6.484944E-6	NaN
32	1.000000	0.730679	7.36535e+06	-40239.1	955.818	-29791.4	0.000000	0.000000	6.730984	0.039774	NaN	0.000000	0.001683	0.001595	28.113	0.116711	0.002057	56.7315	-130.583	175.059	0.105979	0.729382	-0.297869	-0.299166	0.039774	56.7315	-0.298395	-4453.84	-8.930329E-6	NaN
32	1.000000	0.738678	7.36535e+06	-40239.1	955.818	-29791.4	0.000000	0.000000	6.738982	0.027526	NaN	0.000000	0.001663	0.001620	28.1135	0.047310	0.001982	23.8681	-155.514	175.282	0.013932	0.737380	-0.289871	-0.291168	0.027526	23.8681	-0.290736	-3422.31	-8.042992E-6	NaN
32	1.000000	0.746694	7.36535e+06	-40239.1	955.82	-29791.4	0.000000	0.000000	6.746997	-0.034938	NaN	0.000000	0.001675	0.001579	28.1136	0.050505	0.002043	24.7256	-118.329	-179.582	-0.004360	0.745382	-0.281854	-0.283166	-0.034938	24.7256	-0.280794	-2426.31	1.439946E-5	NaN
32	1.000000	0.754681	7.36535e+06	-40239.1	955.818	-29791.4	0.000000	0.000000	6.754986	0.041382	NaN	0.000000	0.001662	0.001610	28.1132	0.028604	0.001958	14.6073	114.513	176.581	0.053201	0.753389	-0.273868	-0.275159	0.041382	14.6073	-0.275992	-2053.15	-2.015532E-5	NaN
32	1.000000	0.762713	7.36535e+06	-40239.1	955.817	-29791.4	0.000000	0.000000	6.763018	0.038430	NaN	0.000000	0.001685	0.001607	28.1139	0.042540	0.002065	20.5987	-11.0307	177.609	0.078914	0.761396	-0.265835	-0.267152	0.038430	20.5987	-0.267234	-1511.67	-2.542244E-5	NaN
32	1.000000	0.770691	7.36535e+06	-40239.1	955.818	-29791.4	0.000000	0.000000	6.770996	0.049978	NaN	0.000000	0.001669	0.001645	28.1151	0.075058	0.001909	39.3264	175.968	175.477	0.093928	0.769362	-0.257858	-0.259187	0.049978	39.3264	-0.258811	-1123.78	-4.447329E-5	NaN
32	1.000000	0.778732	7.36535e+06	-40239.1	955.819	-29791.4	0.000000	0.000000	6.779037	0.055141	NaN	0.000000	0.001623	0.001596	28.115	0.076311	0.001958	38.9716	134.909	-179.585	0.107655	0.777363	-0.249817	-0.251185	0.055141	38.9716	-0.250878	-848.277	-6.500404E-5	NaN
32	1.000000	0.786723	7.36535e+06	-40239.1	955.819	-29791.4	0.000000	0.000000	6.787029	0.043770	NaN	0.000000	0.001668	0.001586	28.1153	0.069155	0.002010	34.4024	-37.9211	176.017	0.017783	0.785354	-0.241825	-0.243195	0.043770	34.4024	-0.242779	-635.183	-6.890992E-5	NaN
32	1.000000	0.794695	7.36535e+06	-40239.1	955.818	-29791.4	0.000000	0.000000	6.795002	0.083285	NaN	0.000000	0.001668	0.001597	28.1146	0.072290	0.002087	34.6415	83.202	179.745	0.134133	0.793398	-0.233853	-0.235150	0.083285	34.6415	-0.235656	-491.531	-0.000169	NaN
32	1.000000	0.802696	7.36535e+06	-40239.1	955.818	-29791.4	0.000000	0.000000	6.803001	0.029785	NaN	0.000000	0.001678	0.001618	28.1147	0.068458	0.002039	33.567	-90.5352	178.965	0.051049	0.801375	-0.225852	-0.227173	0.029785	33.567	-0.226518	-352.715	-8.444643E-5	NaN
32	1.000000	0.810697	7.36535e+06	-40239.1	955.818	-29791.4	0.000000	0.000000	6.811002	0.035940	NaN	0.000000	0.001658	0.001590	28.114	0.198066	0.002014	98.3508	71.7836	175.979	0.095133	0.809352	-0.217851	-0.219196	0.035940	98.3508	-0.218125	-259.225	-0.000139	NaN
32	1.000000	0.818696	7.36535e+06	-40239.1	955.818	-29791.4	0.000000	0.000000	6.819002	0.052943	NaN	0.000000	0.001652	0.001583	28.1142	0.034098	0.001911	17.8465	81.747	176.72	0.009681	0.817363	-0.209852	-0.211185	0.052943	17.8465	-0.212077	-207.206	-0.000256	NaN
32	1.000000	0.826716	7.36535e+06	-40239.1	955.818	-29791.4	0.000000	0.000000	6.827021	0.054982	NaN	0.000000	0.001654	0.001618	28.1141	0.043151	0.002023	21.3321	28.163	174.291	0.058303	0.825384	-0.201833	-0.203164	0.054982	21.3321	-0.203766	-151.847	-0.000362	NaN
32	1.000000	0.834707	7.36535e+06	-40239.1	955.818	-29791.4	0.000000	0.000000	6.835012	0.020033	NaN	0.000000	0.001654	0.001605	28.1143	0.067717	0.002022	33.4879	137.099	174.928	0.060975	0.833409	-0.193841	-0.195140	0.020033	33.4879	-0.194290	-106.03	-0.000189	NaN
32	1.000000	0.842727	7.36535e+06	-40239.1	955.819	-29791.4	0.000000	0.000000	6.843035	0.108292	NaN	0.000000	0.001666	0.001622	28.114	0.037711	0.002127	17.7314	134.195	179.849	0.079211	0.841445	-0.185821	-0.187103	0.108292	17.7314	-0.190401	-91.3549	-0.001185	NaN
32	1.000000	0.850700	7.36535e+06	-40239.1	955.818	-29791.4	0.000000	0.000000	6.851007	0.074911	NaN	0.000000	0.001654	0.001603	28.1149	0.124045	0.001943	63.8344	9.867952	176.965	0.042948	0.849394	-0.177848	-0.179154	0.074911	63.8344	-0.178728	-58.0506	-0.001290	NaN
32	1.000000	0.858734	7.36535e+06	-40239.1	955.818	-29791.4	0.000000	0.000000	6.859041	0.070568	NaN	0.000000	0.001664	0.001574	28.1154	0.035640	0.002040	17.4707	-28.9336	178.895	0.097720	0.857411	-0.169814	-0.171137	0.070568	17.4707	-0.172843	-46.0087	-0.001534	NaN
32	1.000000	0.866732	7.36535e+06	-40239.1	955.818	-29791.4	0.000000	0.000000	6.867039	0.080731	NaN	0.000000	0.001656	0.001603	28.1139	0.022939	0.001993	11.5093	95.7864	176.499	0.148735	0.865366	-0.161816	-0.163182	0.080731	11.5093	-0.167077	-36.5331	-0.002210	NaN
32	1.000000	0.874739	7.36535e+06	-40239.1	955.818	-29791.4	0.000000	0.000000	6.875045	0.054718	NaN	0.000000	0.001646	0.001641	28.1144	0.088704	0.001961	45.23	29.9404	175.974	-0.009276	0.873397	-0.153809	-0.155151	0.054718	45.23	-0.154716	-22.0534	-0.002481	NaN
32	1.000000	0.882695	7.36535e+06	-40239.1	955.819	-29791.4	0.000000	0.000000	6.882998	-0.002689	NaN	0.000000	0.001664	0.001592	28.1143	0.099320	0.001872	53.0451	-166.977	-179.273	0.017107	0.881423	-0.145853	-0.147125	-0.002689	53.0451	-0.145815	-15.1787	0.000177	NaN
32	1.000000	0.890712	7.36535e+06	-40239.1	955.818	-29791.4	0.000000	0.000000	6.891018	0.055419	NaN	0.000000	0.001677	0.001628	28.1131	0.054214	0.002031	26.6935	-91.3895	173.737	0.045645	0.889445	-0.137836	-0.139103	0.055419	26.6935	-0.139393	-11.5227	-0.004810	NaN
32	1.000000	0.898749	7.36536e+06	-40239.1	955.819	-29791.4	0.000000	0.000000	6.899052	-0.026391	NaN	0.000000	0.001632	0.001584	28.1134	0.096517	0.002114	45.6545	172.538	178.736	-0.051215	0.897420	-0.129799	-0.131128	-0.026391	45.6545	-0.129366	-7.407557	0.003563	NaN
32	1.000000	0.906728	7.36536e+06	-40239.1	955.818	-29791.4	0.000000	0.000000	6.907032	0.006643	NaN	0.000000	0.001628	0.001660	28.1129	0.093552	0.001925	48.5979	-107.63	178.335	-0.039744	0.905411	-0.121820	-0.123137	0.006643	48.5979	-0.121923	-5.281290	-0.001258	NaN
32	1.000000	0.914769	7.36536e+06	-40239.1	955.818	-29791.4	0.000000	0.000000	6.915075	0.057121	NaN	0.000000	0.001649	0.001625	28.1134	0.072493	0.001866	38.8523	-119.339	173.236	0.061835	0.913373	-0.113779	-0.115175	0.057121	38.8523	-0.114882	-3.799014	-0.015036	NaN
32	1.000000	0.922756	7.36536e+06	-40239.1	955.818	-29791.4	0.000000	0.000000	6.923059	-0.005568	NaN	0.000000	0.001657	0.001627	28.1143	0.047964	0.001981	24.2175	-50.9639	176.634	0.147776	0.921489	-0.105792	-0.107059	-0.005568	24.2175	-0.105620	-2.424031	0.002297	NaN
32	1.000000	0.930751	7.36536e+06	-40239.1	955.818	-29791.4	0.000000	0.000000	6.931061	0.158367	NaN	0.000000	0.001703	0.001596	28.1143	0.022414	0.002096	10.6933	-59.0678	-179.257	0.117051	0.929458	-0.097798	-0.099090	0.158367	10.6933	-0.108905	-2.849220	-0.055583	NaN
32	1.000000	0.938746	7.36536e+06	-40239.1	955.819	-29791.4	0.000000	0.000000	6.939050	0.031887	NaN	0.000000	0.001688	0.001608	28.1142	0.045020	0.001906	23.6167	-66.963	177.706	0.011710	0.937445	-0.089803	-0.091104	0.031887	23.6167	-0.090815	-1.129539	-0.028230	NaN
32	1.000000	0.946769	7.36536e+06	-40239.1	955.819	-29791.4	0.000000	0.000000	6.947074	0.046197	NaN	0.000000	0.001652	0.001598	28.1153	0.115804	0.001981	58.4487	64.0167	-178.62	0.035445	0.945424	-0.081779	-0.083124	0.046197	58.4487	-0.082372	-0.708817	-0.065175	NaN
32	1.000000	0.954767	7.36536e+06	-40239.1	955.818	-29791.4	0.000000	0.000000	6.955072	0.024852	NaN	0.000000	0.001688	0.001600	28.1144	0.063109	0.001971	32.0119	11.4751	177.632	0.054565	0.953492	-0.073781	-0.075056	0.024852	32.0119	-0.074364	-0.444650	-0.055890	NaN
32	1.000000	0.962772	7.36536e+06	-40239.1	955.818	-29791.4	0.000000	0.000000	6.963077	0.018714	NaN	0.000000	0.001714	0.001603	28.1154	0.012291	0.002033	6.046955	-144.086	178.383	0.032165	0.961407	-0.065776	-0.067141	0.018714	6.046955	-0.068097	-0.303089	-0.061744	NaN
32	1.000000	0.970784	7.36536e+06	-40239.1	955.819	-29791.4	0.000000	0.000000	6.971089	0.035258	NaN	0.000000	0.001659	0.001603	28.114	0.037470	0.002069	18.11	-50.4218	177.02	0.044657	0.969471	-0.057765	-0.059077	0.035258	18.11	-0.059225	-0.171082	-0.206087	NaN
32	1.000000	0.978760	7.36536e+06	-40239.1	955.818	-29791.4	0.000000	0.000000	6.979064	0.000909	NaN	0.000000	0.001694	0.001634	28.1133	0.135948	0.002049	66.351	-103.851	178.068	-0.007251	0.977459	-0.049788	-0.051089	0.000909	66.351	-0.049798	-0.089978	-0.010105	NaN
32	1.000000	0.986776	7.36536e+06	-40239.1	955.819	-29791.4	0.000000	0.000000	6.987082	0.057139	NaN	0.000000	0.001672	0.001659	28.1143	0.052524	0.002114	24.8495	-63.6437	174.657	0.160857	0.985447	-0.041772	-0.043101	0.057139	24.8495	-0.043497	-0.057812	-0.988355	NaN
32	1.000000	0.994792	7.36536e+06	-40239.1	955.818	-29791.4	0.000000	0.000000	6.995094	-0.022560	NaN	0.000000	0.001708	0.001624	28.114	0.083261	0.002073	40.1608	-105.077	179.493	-0.059890	0.993444	-0.033757	-0.035104	-0.022560	40.1608	-0.033335	-0.028631	0.787978	NaN
32	1.000000	1.002789	7.36536e+06	-40239.1	955.819	-29791.4	0.000000	0.000000	7.003093	0.014704	NaN	0.000000	0.001654	0.001629	28.1155	0.130144	0.001923	67.6638	46.3452	175.446	-0.000885	1.001447	-0.025760	-0.027101	0.014704	67.6638	-0.025923	-0.017838	-0.824314	NaN
32	1.000000	1.010776	7.36536e+06	-40239.1	955.818	-29791.4	0.000000	0.000000	7.011080	0.012509	NaN	0.000000	0.001683	0.001632	28.1163	0.024992	0.001988	12.5718	76.1544	177.398	-0.035985	1.009444	-0.017772	-0.019104	0.012509	12.5718	-0.018519	-0.011512	-1.086568	NaN
32	1.000000	1.018820	7.36536e+06	-40239.1	955.818	-29791.4	0.000000	0.000000	7.019121	-0.061324	NaN	0.000000	0.001704	0.001656	28.1166	0.066947	0.002097	31.9178	-10.8579	175.781	0.027878	1.017465	-0.009728	-0.011083	-0.061324	31.9178	-0.008287	-0.005399	11.3576	NaN
32	1.000000	1.026771	7.36536e+06	-40239.1	955.818	-29791.4	0.000000	0.000000	7.027074	-0.016339	NaN	0.000000	0.001690	0.001649	28.1168	0.023026	0.001937	11.8892	-179.114	177.881	-0.045603	1.025493	-0.001777	-0.003056	-0.016339	11.8892	-0.000746	-0.000550	29.7238	NaN
32	1.000000	1.034761	7.36536e+06	-40239.1	955.819	-29791.4	0.000000	0.000000	7.035235	4.133888	NaN	0.000000	0.001707	0.001664	28.1168	3.856783	0.001704	2263.65	6.977628	174.877	2.603120	1.033454	0.006213	0.004906	4.133888	2263.65	0.004843	0.003991	1035.8	32737.1
32	2.000000	1.040404	7.36536e+06	-40239.1	955.819	-29791.4	0.000000	0.000000	7.041055	8.433265	NaN	0.000000	0.001691	0.001618	28.1161	8.224698	0.001612	5102.8	4.603637	172.126	8.060152	1.040097	0.011856	0.011549	8.433265	5102.8	0.010617	0.009875	854.005	46915.3
32	2.000000	1.042370	7.36536e+06	-40239.1	955.818	-29791.4	0.000000	0.000000	7.043122	10.9234	NaN	0.000000	0.001647	0.001689	28.1156	9.917740	0.001693	5858.38	6.590792	170.244	10.814	1.042080	0.013821	0.013532	10.9234	5858.38	0.012423	0.012001	910.244	48859.7
32	2.000000	1.044342	7.36536e+06	-40239.1	955.818	-29791.4	0.000000	0.000000	7.045200	13.4896	NaN	0.000000	0.001681	0.001663	28.1161	12.9235	0.001778	7269.06	5.633943	170.253	13.4633	1.043959	0.015794	0.015411	13.4896	7269.06	0.014402	0.014496	930.55	55159.7
32	2.000000	1.046364	7.36536e+06	-40239.1	955.819	-29791.4	0.000000	0.000000	7.047365	16.9851	NaN	0.000000	0.001707	0.001683	28.1157	15.0857	0.001888	7991.86	9.287034	166.324	18.2717	1.046095	0.017816	0.017547	16.9851	7991.86	0.016222	0.016949	1002.13	56085.2
32	2.000000	1.048305	7.36536e+06	-40239.1	955.819	-29791.4	0.000000	0.000000	7.049500	21.7016	NaN	0.000000	0.001669	0.001679	28.1159	17.1419	0.001772	9673.23	7.031252	165.478	20.7812	1.047957	0.019756	0.019408	21.7016	9673.23	0.018074	0.019606	1106.91	63118.3
32	2.000000	1.050295	7.36536e+06	-40239.1	955.819	-29791.4	0.000000	0.000000	7.051573	23.7109	NaN	0.000000	0.001679	0.001672	28.1161	19.1581	0.001732	11060.4	4.390997	166.143	22.1603	1.049991	0.021747	0.021443	23.7109	11060.4	0.020139	0.022761	1041.71	66980
32	2.000000	1.052288	7.36536e+06	-40239.1	955.818	-29791.4	0.000000	0.000000	7.053902	31.8873	NaN	0.000000	0.001702	0.001664	28.1163	20.8664	0.001762	11843.5	7.836073	162.793	30.9078	1.051949	0.023740	0.023400	31.8873	11843.5	0.021721	0.025318	1259.45	68004.3
32	2.000000	1.054275	7.36536e+06	-40239.1	955.819	-29791.4	0.000000	0.000000	7.056024	35.1618	NaN	0.000000	0.001703	0.001654	28.1166	22.6266	0.001706	13263.2	2.727606	167.656	33.9731	1.053972	0.025727	0.025423	35.1618	13263.2	0.023739	0.028761	1222.55	71452.8
32	2.000000	1.056323	7.36536e+06	-40239.1	955.819	-29791.4	0.000000	0.000000	7.058263	39.8217	NaN	0.000000	0.001684	0.001653	28.1172	25.489	0.001772	14384.8	6.219380	162.929	39.1682	1.055975	0.027774	0.027427	39.8217	14384.8	0.025698	0.032298	1232.94	73128.7
32	2.000000	1.058263	7.36536e+06	-40239.1	955.819	-29791.4	0.000000	0.000000	7.060477	46.4951	NaN	0.000000	0.001756	0.001679	28.1167	27.0843	0.001804	15013.3	6.666062	162.292	45.2037	1.057951	0.029715	0.029402	46.4951	15013.3	0.027392	0.035512	1309.28	72788.5
32	2.000000	1.060256	7.36536e+06	-40239.1	955.819	-29791.4	0.000000	0.000000	7.062657	51.0545	NaN	0.000000	0.001746	0.001685	28.1165	29.5238	0.001910	15458.8	4.277883	164.479	49.3712	1.059947	0.031707	0.031398	51.0545	15458.8	0.029231	0.039164	1303.61	71368.4
32	2.000000	1.062289	7.36536e+06	-40239.1	955.819	-29791.4	0.000000	0.000000	7.064902	56.1927	NaN	0.000000	0.001729	0.001697	28.1155	31.1323	0.001962	15865.5	6.201679	162.908	55.9344	1.061937	0.033741	0.033389	56.1927	15865.5	0.031085	0.043022	1306.15	69884.8
32	2.000000	1.064252	7.36536e+06	-40239.1	955.82	-29791.4	0.000000	0.000000	7.067186	64.0113	NaN	0.000000	0.001749	0.001656	28.1141	32.8787	0.001874	17545.6	5.689120	162.64	62.6763	1.063886	0.035704	0.035338	64.0113	17545.6	0.032968	0.047120	1358.49	73848.2
32	2.000000	1.066337	7.36536e+06	-40239.1	955.819	-29791.4	0.000000	0.000000	7.069493	69.4105	NaN	0.000000	0.001784	0.001674	28.1151	34.7166	0.001756	19773.7	5.903349	161.504	71.8323	1.065949	0.037789	0.037400	69.4105	19773.7	0.035156	0.052111	1331.98	79140.5
32	2.000000	1.068234	7.36536e+06	-40239.1	955.819	-29791.4	0.000000	0.000000	7.071803	79.4543	NaN	0.000000	0.001764	0.001687	28.1146	36.07	0.001770	20379.2	4.669783	161.819	78.0896	1.067939	0.039686	0.039391	79.4543	20379.2	0.036762	0.055927	1420.68	78731.6
32	2.000000	1.070221	7.36536e+06	-40239.1	955.819	-29791.4	0.000000	0.000000	7.074009	84.7823	NaN	0.000000	0.001784	0.001665	28.1144	38.8149	0.001919	20229.3	4.790454	161.678	81.4956	1.070024	0.041673	0.041476	84.7823	20229.3	0.038530	0.060283	1406.4	75275.6
32	2.000000	1.072248	7.36536e+06	-40239.1	955.819	-29791.4	0.000000	0.000000	7.076526	96.7181	NaN	0.000000	0.001755	0.001735	28.1161	38.9534	0.001665	23391	1.634242	162.917	95.9493	1.071909	0.043700	0.043361	96.7181	23391	0.040598	0.065584	1474.72	83449.3
32	2.000000	1.074240	7.36536e+06	-40239.1	955.819	-29791.4	0.000000	0.000000	7.078707	101.292	NaN	0.000000	0.001712	0.001738	28.1153	40.5717	0.001626	24947.5	0.865342	162.745	99.2516	1.073921	0.045692	0.045373	101.292	24947.5	0.042647	0.071048	1425.68	85511.4
32	2.000000	1.076261	7.36536e+06	-40239.1	955.82	-29791.4	0.000000	0.000000	7.081135	111.219	NaN	0.000000	0.001685	0.001718	28.1159	43.3924	0.001762	24622.3	3.181766	162.359	108.771	1.075865	0.047713	0.047317	111.219	24622.3	0.044325	0.075682	1469.55	81772.1
32	2.000000	1.078203	7.36536e+06	-40239.1	955.82	-29791.4	0.000000	0.000000	7.083421	119.57	NaN	0.000000	0.001651	0.001658	28.1163	45.7017	0.001782	25650.2	5.091478	158.982	116.868	1.077986	0.049655	0.049437	119.57	25650.2	0.046159	0.080912	1477.78	82387
32	2.000000	1.080205	7.36536e+06	-40239.1	955.82	-29791.4	0.000000	0.000000	7.085798	128.732	NaN	0.000000	0.001664	0.001681	28.1159	48.3401	0.001780	27150.8	3.904114	159.945	126.381	1.079918	0.051656	0.051369	128.732	27150.8	0.048100	0.086632	1485.96	84278.3
32	2.000000	1.082232	7.36536e+06	-40239.1	955.82	-29791.4	0.000000	0.000000	7.088127	136.055	NaN	0.000000	0.001659	0.001615	28.115	49.2064	0.001777	27688.2	5.924441	157.397	134.782	1.081966	0.053684	0.053418	136.055	27688.2	0.049998	0.092408	1472.33	83217.2
32	2.000000	1.084251	7.36536e+06	-40239.1	955.82	-29791.4	0.000000	0.000000	7.090401	142.254	NaN	0.000000	0.001657	0.001654	28.1149	52.1201	0.001877	27763.1	4.553248	159.08	142.962	1.083904	0.055703	0.055356	142.254	27763.1	0.051860	0.098250	1447.88	80923.6
32	2.000000	1.086259	7.36536e+06	-40239.1	955.82	-29791.4	0.000000	0.000000	7.092842	152.818	NaN	0.000000	0.001675	0.001667	28.1154	52.6331	0.001775	29659.1	6.028975	158.626	152.986	1.085859	0.057710	0.057311	152.818	29659.1	0.053846	0.104670	1459.99	83756.7
32	2.000000	1.088201	7.36536e+06	-40239.1	955.819	-29791.4	0.000000	0.000000	7.095187	162.614	NaN	0.000000	0.001670	0.001653	28.115	54.0528	0.001882	28716.8	3.551347	160.224	160.526	1.087875	0.059652	0.059327	162.614	28716.8	0.055405	0.109850	1480.32	79160.5
32	2.000000	1.090283	7.36536e+06	-40239.1	955.82	-29791.4	0.000000	0.000000	7.097576	170.07	NaN	0.000000	0.001690	0.001689	28.1151	55.6356	0.001821	30554.1	9.189437	154.716	171.669	1.089879	0.061735	0.061330	170.07	30554.1	0.057560	0.117206	1451.04	81539.5
32	2.000000	1.092253	7.36536e+06	-40239.1	955.82	-29791.4	0.000000	0.000000	7.099942	179.72	NaN	0.000000	0.001772	0.001649	28.1161	56.2593	0.001694	33211.4	4.286280	158.053	178.952	1.091872	0.063704	0.063324	179.72	33211.4	0.059646	0.124541	1443.06	85981.2
32	2.000000	1.094259	7.36536e+06	-40239.1	955.819	-29791.4	0.000000	0.000000	7.102020	181.464	NaN	0.000000	0.001728	0.001694	28.1162	59.3472	0.001859	31929.4	4.239205	158.131	181.992	1.094043	0.065711	0.065495	181.464	31929.4	0.061449	0.131054	1384.65	80582.2
32	2.000000	1.096212	7.36536e+06	-40239.1	955.819	-29791.4	0.000000	0.000000	7.104549	195.482	NaN	0.000000	0.001753	0.001643	28.1167	61.7775	0.001766	34977	6.113441	156.017	193.32	1.095953	0.067664	0.067405	195.482	34977	0.063472	0.138552	1410.9	85852
32	2.000000	1.098228	7.36536e+06	-40239.1	955.82	-29791.4	0.000000	0.000000	7.107096	208.413	NaN	0.000000	0.001685	0.001636	28.1167	63.6579	0.001814	35090.2	8.518453	154.415	206.723	1.097819	0.069679	0.069271	208.413	35090.2	0.065225	0.145207	1435.28	84132.7
32	2.000000	1.100215	7.36536e+06	-40239.1	955.82	-29791.4	0.000000	0.000000	7.109341	214.676	NaN	0.000000	0.001678	0.001634	28.1178	64.8853	0.001772	36614	1.115683	160.62	212.211	1.099963	0.071667	0.071414	214.676	36614	0.067269	0.153158	1401.66	85477.3
32	2.000000	1.102197	7.36536e+06	-40239.1	955.819	-29791.4	0.000000	0.000000	7.111862	227.797	NaN	0.000000	0.001689	0.001699	28.1164	65.8173	0.001733	37977.8	4.644575	157.243	225.875	1.101915	0.073649	0.073366	227.797	37977.8	0.069151	0.160650	1417.97	86569
32	2.000000	1.104209	7.36536e+06	-40239.1	955.818	-29791.4	0.000000	0.000000	7.114483	242.605	NaN	0.000000	0.001684	0.001705	28.1165	68.5354	0.001745	39279.1	7.645167	153.549	240.994	1.103818	0.075661	0.075270	242.605	39279.1	0.071029	0.168297	1441.52	87477.5
32	2.000000	1.106242	7.36536e+06	-40239.1	955.819	-29791.4	0.000000	0.000000	7.116903	252.053	NaN	0.000000	0.001684	0.001669	28.1173	70.3346	0.001781	39494.2	4.619314	156.993	251.646	1.105922	0.077693	0.077374	252.053	39494.2	0.072907	0.176114	1431.19	85982.4
32	2.000000	1.108194	7.36536e+06	-40239.1	955.819	-29791.4	0.000000	0.000000	7.119302	262.904	NaN	0.000000	0.001647	0.001695	28.1172	71.9835	0.001815	39670.8	2.701118	158.386	260.964	1.107897	0.079646	0.079349	262.904	39670.8	0.074676	0.183627	1431.72	84581.6
32	2.000000	1.110218	7.36536e+06	-40239.1	955.82	-29791.4	0.000000	0.000000	7.121903	276.967	NaN	0.000000	0.001662	0.001673	28.1167	75.0136	0.001837	40845.2	4.332058	157.418	275.952	1.109842	0.081670	0.081294	276.967	40845.2	0.076584	0.191897	1443.3	85188.1
32	2.000000	1.112107	7.36536e+06	-40239.1	955.82	-29791.4	0.000000	0.000000	7.124386	291.41	NaN	0.000000	0.001688	0.001660	28.118	76.9786	0.001801	42749.1	9.294293	151.404	286.724	1.111752	0.083559	0.083204	291.41	42749.1	0.078446	0.200134	1456.08	87305.2
32	2.000000	1.114146	7.36536e+06	-40239.1	955.82	-29791.4	0.000000	0.000000	7.126775	299.917	NaN	0.000000	0.001716	0.001683	28.1179	79.9598	0.001858	43045.9	6.412789	153.978	295.07	1.113819	0.085598	0.085271	299.917	43045.9	0.080372	0.208822	1436.24	86063.2
32	2.000000	1.116261	7.36536e+06	-40239.1	955.819	-29791.4	0.000000	0.000000	7.129215	307.814	NaN	0.000000	0.001675	0.001652	28.1177	81.7072	0.001876	43560.4	6.036076	154.152	308.981	1.115910	0.087713	0.087362	307.814	43560.4	0.082413	0.218217	1410.59	85196.4
32	2.000000	1.118087	7.36536e+06	-40239.1	955.819	-29791.4	0.000000	0.000000	7.131464	318.126	NaN	0.000000	0.001605	0.001674	28.1184	81.8303	0.001729	47315.4	2.973512	156.472	309.923	1.117871	0.089538	0.089323	318.126	47315.4	0.084496	0.228002	1395.27	90532.7
32	2.000000	1.120232	7.36536e+06	-40239.1	955.819	-29791.4	0.000000	0.000000	7.134346	336.06	NaN	0.000000	0.001602	0.001638	28.1176	85.2011	0.001857	45883.3	3.926711	156.174	337.263	1.119933	0.091684	0.091384	336.06	45883.3	0.086190	0.236113	1423.3	86271.7
32	2.000000	1.122192	7.36536e+06	-40239.1	955.819	-29791.4	0.000000	0.000000	7.136894	350.38	NaN	0.000000	0.001605	0.001675	28.1176	85.5655	0.001840	46501.3	3.241677	156.741	347.248	1.121928	0.093643	0.093380	350.38	46501.3	0.087992	0.244882	1430.81	85853.8
32	2.000000	1.124103	7.36536e+06	-40239.1	955.819	-29791.4	0.000000	0.000000	7.139610	369.958	NaN	0.000000	0.001595	0.001650	28.1164	87.9973	0.001846	47660.4	2.912149	157.002	364.659	1.123778	0.095554	0.095230	369.958	47660.4	0.089733	0.253494	1459.43	86486.2
32	2.000000	1.126221	7.36536e+06	-40239.1	955.82	-29791.4	0.000000	0.000000	7.142143	380.057	NaN	0.000000	0.001576	0.001667	28.1169	90.2178	0.001864	48411.5	3.526839	156.449	379.481	1.125923	0.097673	0.097375	380.057	48411.5	0.091785	0.263828	1440.55	86111.6
32	2.000000	1.128102	7.36536e+06	-40239.1	955.819	-29791.4	0.000000	0.000000	7.144688	396.208	NaN	0.000000	0.001575	0.001667	28.1172	91.3137	0.001743	52388.9	4.475391	154.328	391.369	1.127814	0.099554	0.099266	396.208	52388.9	0.093882	0.274586	1442.93	91342.5
32	2.000000	1.130120	7.36536e+06	-40239.1	955.819	-29791.4	0.000000	0.000000	7.147418	413.546	NaN	0.000000	0.001593	0.001669	28.1169	93.6089	0.001753	53414.3	0.780097	158.313	410.059	1.129904	0.101572	0.101356	413.546	53414.3	0.095765	0.284417	1454.01	91506.7
32	2.000000	1.132121	7.36536e+06	-40239.1	955.819	-29791.4	0.000000	0.000000	7.150214	432.894	NaN	0.000000	0.001581	0.001663	28.1177	95.3899	0.001949	48937.2	5.298559	154.521	429.508	1.131821	0.103572	0.103273	432.894	48937.2	0.096938	0.290623	1489.54	82936.8
32	2.000000	1.134134	7.36536e+06	-40239.1	955.819	-29791.4	0.000000	0.000000	7.152846	447.939	NaN	0.000000	0.001594	0.001698	28.117	98.9746	0.001917	51642.7	8.121552	152.106	442.908	1.133690	0.105586	0.105142	447.939	51642.7	0.099081	0.302122	1482.64	85840.3
32	2.000000	1.136142	7.36536e+06	-40239.1	955.82	-29791.4	0.000000	0.000000	7.155684	468.156	NaN	0.000000	0.001601	0.001666	28.1169	99.5656	0.001854	53691.7	5.811661	153.509	463.518	1.135750	0.107593	0.107201	468.156	53691.7	0.101054	0.312895	1496.21	87696.1
32	2.000000	1.138044	7.36536e+06	-40239.1	955.819	-29791.4	0.000000	0.000000	7.158058	479.624	NaN	0.000000	0.001631	0.001702	28.1169	101.8	0.001938	52536.2	6.798746	152.52	471.368	1.137748	0.109496	0.109200	479.624	52536.2	0.102649	0.321733	1490.75	84622.1