File: remote_trans/data/nanoindenter/0828-1/data/Data_2025-08-06,11h17m57s/2025-07-22_16-23-58_1_542.txt
2025-07-22, 16:23:58, 1
Index	Phase	Displacement	Time	Pos X	Pos Y	Pos Z	Rot A	Rot B	Piezo Z	Force A	Force B	Gripper	Voltage A	Voltage B	Temperature	Amplitude force	Amplitude pos	Stiffness	Phase shift	Phase excitation	Force A raw	Displacement raw	HMax	HMax raw	Real Force	Real Stiffness	Contact Depth	Area	Hardness	Reduced Mod.
[#]	[#]	[um]	[s]	[um]	[um]	[um]	[m°]	[m°]	[um]	[uN]	[uN]	[V]	[V]	[V]	[°C]	[uN]	[um]	[N/m]	[°]	[°]	[uN]	[um]	[um]	[um]	[uN]	[N/m]	[um]	[um^2]	[MPa]	[MPa]
542	1.000000	0.002741	7.37035e+06	-49989.1	1005.82	-29757.2	0.000000	0.000000	6.002815	0.095290	NaN	0.000000	0.001626	0.001777	28.0819	0.038277	0.000919	41.6327	-15.6005	-171.753	0.014759	0.001461	-1.032235	-1.033516	0.095290	41.6327	-1.033952	-6.495819E+13	-1.466947E-15	NaN
542	1.000000	0.010697	7.37035e+06	-49989.1	1005.82	-29757.2	0.000000	0.000000	6.010767	0.022822	NaN	0.000000	0.001619	0.001773	28.0821	0.054703	0.000921	59.4116	-138.721	-171.717	0.077978	0.009396	-1.024280	-1.025581	0.022822	59.4116	-1.024568	-4.857488E+13	-4.698391E-16	NaN
542	1.000000	0.018648	7.37035e+06	-49989.1	1005.82	-29757.2	0.000000	0.000000	6.018720	0.065672	NaN	0.000000	0.001621	0.001780	28.0821	0.087803	0.001630	53.8774	64.259	-163.748	0.130085	0.017405	-1.016329	-1.017572	0.065672	53.8774	-1.017243	-3.871258E+13	-1.696395E-15	NaN
542	1.000000	0.026734	7.37035e+06	-49989.1	1005.82	-29757.2	0.000000	0.000000	6.026806	0.048442	NaN	0.000000	0.001617	0.001794	28.0819	0.041238	0.001794	22.9876	26.3247	-165.776	0.063935	0.025379	-1.008243	-1.009597	0.048442	22.9876	-1.009823	-3.076097E+13	-1.574785E-15	NaN
542	1.000000	0.034681	7.37035e+06	-49989.1	1005.82	-29757.2	0.000000	0.000000	6.034751	0.006734	NaN	0.000000	0.001602	0.001772	28.0819	0.095572	0.001919	49.8116	-150.647	-164.998	-0.048526	0.033371	-1.000296	-1.001605	0.006734	49.8116	-1.000397	-2.296752E+13	-2.931950E-16	NaN
542	1.000000	0.042676	7.37035e+06	-49989.1	1005.82	-29757.2	0.000000	0.000000	6.042747	0.054152	NaN	0.000000	0.001627	0.001795	28.0819	0.082674	0.001897	43.5892	96.4107	-166.22	0.049677	0.041364	-0.992301	-0.993613	0.054152	43.5892	-0.993233	-1.839284E+13	-2.944202E-15	NaN
542	1.000000	0.050655	7.37035e+06	-49989.1	1005.82	-29757.2	0.000000	0.000000	6.050725	0.030431	NaN	0.000000	0.001641	0.001801	28.0824	0.028911	0.002006	14.4122	28.7947	-165.278	0.092437	0.049332	-0.984322	-0.985645	0.030431	14.4122	-0.985906	-1.465433E+13	-2.076573E-15	NaN
542	1.000000	0.058629	7.37035e+06	-49989.1	1005.82	-29757.2	0.000000	0.000000	6.058701	0.071209	NaN	0.000000	0.001631	0.001790	28.0813	0.004626	0.002178	2.123347	118.474	-164.466	0.068797	0.057387	-0.976348	-0.977589	0.071209	2.123347	-1.001500	-2.376651E+13	-2.996197E-15	NaN
542	1.000000	0.066672	7.37035e+06	-49989.1	1005.82	-29757.2	0.000000	0.000000	6.066742	0.011018	NaN	0.000000	0.001619	0.001787	28.081	0.097548	0.002017	48.3541	83.2684	-164.796	0.062287	0.065353	-0.968305	-0.969624	0.011018	48.3541	-0.968476	-8.533356E+12	-1.291121E-15	NaN
542	1.000000	0.074660	7.37035e+06	-49989.1	1005.82	-29757.2	0.000000	0.000000	6.074730	0.004734	NaN	0.000000	0.001626	0.001787	28.0806	0.032911	0.001953	16.8524	-134.926	-166.399	-0.056905	0.073408	-0.960316	-0.961569	0.004734	16.8524	-0.960527	-6.667694E+12	-7.100056E-16	NaN
542	1.000000	0.082663	7.37035e+06	-49989.1	1005.82	-29757.2	0.000000	0.000000	6.082732	-0.023281	NaN	0.000000	0.001629	0.001759	28.0807	0.056440	0.001981	28.4868	163.99	-166.463	-0.024434	0.081387	-0.952314	-0.953590	-0.023281	28.4868	-0.951701	-5.069472E+12	4.592467E-15	NaN
542	1.000000	0.090702	7.37035e+06	-49989.1	1005.82	-29757.2	0.000000	0.000000	6.090772	0.011890	NaN	0.000000	0.001637	0.001777	28.081	0.102124	0.002039	50.0736	118.576	-166.884	0.074221	0.089363	-0.944275	-0.945614	0.011890	50.0736	-0.944453	-4.047675E+12	-2.937413E-15	NaN
542	1.000000	0.098705	7.37035e+06	-49989.1	1005.82	-29757.2	0.000000	0.000000	6.098774	0.002157	NaN	0.000000	0.001651	0.001807	28.0806	0.046348	0.001979	23.4205	-40.2226	-167.269	0.062442	0.097390	-0.936272	-0.937587	0.002157	23.4205	-0.936341	-3.146088E+12	-6.857685E-16	NaN
542	1.000000	0.106687	7.37035e+06	-49989.1	1005.82	-29757.2	0.000000	0.000000	6.106759	0.076952	NaN	0.000000	0.001631	0.001765	28.0809	0.062749	0.001994	31.4731	154.851	-164.934	0.031122	0.105398	-0.928290	-0.929579	0.076952	31.4731	-0.930124	-2.593405E+12	-2.967238E-14	NaN
542	1.000000	0.114691	7.37035e+06	-49989.1	1005.82	-29757.2	0.000000	0.000000	6.114760	-0.018957	NaN	0.000000	0.001640	0.001792	28.0805	0.083443	0.002104	39.6654	-92.5881	-167.439	0.063838	0.113420	-0.920285	-0.921557	-0.018957	39.6654	-0.919927	-1.888950E+12	1.003555E-14	NaN
542	1.000000	0.122690	7.37035e+06	-49989.1	1005.82	-29757.2	0.000000	0.000000	6.122763	0.094346	NaN	0.000000	0.001618	0.001790	28.0804	0.054405	0.002079	26.1648	-158.646	-167.196	0.057377	0.121414	-0.912287	-0.913562	0.094346	26.1648	-0.914991	-1.620210E+12	-5.823084E-14	NaN
542	1.000000	0.130723	7.37035e+06	-49989.1	1005.82	-29757.2	0.000000	0.000000	6.130795	0.069534	NaN	0.000000	0.001620	0.001822	28.0806	0.038131	0.002063	18.4838	-4.060213	-168.583	0.090159	0.129438	-0.904254	-0.905539	0.069534	18.4838	-0.907075	-1.266640E+12	-5.489652E-14	NaN
542	1.000000	0.138735	7.37035e+06	-49989.1	1005.82	-29757.2	0.000000	0.000000	6.138806	0.034822	NaN	0.000000	0.001616	0.001779	28.0804	0.024858	0.001943	12.7933	-148.307	-166.659	0.031884	0.137378	-0.896241	-0.897599	0.034822	12.7933	-0.898283	-9.635248E+11	-3.613991E-14	NaN
542	1.000000	0.146715	7.37035e+06	-49989.1	1005.82	-29757.2	0.000000	0.000000	6.146785	0.016853	NaN	0.000000	0.001672	0.001787	28.0806	0.046476	0.002071	22.4429	97.8328	-164.998	0.029400	0.145398	-0.888261	-0.889579	0.016853	22.4429	-0.888825	-7.178388E+11	-2.347717E-14	NaN
542	1.000000	0.154730	7.37035e+06	-49989.1	1005.82	-29757.2	0.000000	0.000000	6.154798	-0.015368	NaN	0.000000	0.001660	0.001756	28.0805	0.097334	0.001949	49.9396	-2.808647	-163.933	-0.039410	0.153389	-0.880247	-0.881588	-0.015368	49.9396	-0.880016	-5.456670E+11	2.816339E-14	NaN
542	1.000000	0.162731	7.37035e+06	-49989.1	1005.82	-29757.2	0.000000	0.000000	6.162805	0.108916	NaN	0.000000	0.001670	0.001767	28.0805	0.014435	0.002016	7.158695	104.24	-164.162	0.033439	0.161451	-0.872246	-0.873526	0.108916	7.158695	-0.883657	-6.111604E+11	-1.782124E-13	NaN
542	1.000000	0.170704	7.37035e+06	-49989.1	1005.82	-29757.2	0.000000	0.000000	6.170777	0.087908	NaN	0.000000	0.001654	0.001744	28.0805	0.077539	0.002008	38.6096	7.229076	-163.894	0.069899	0.169385	-0.864273	-0.865592	0.087908	38.6096	-0.865980	-3.524153E+11	-2.494432E-13	NaN
542	1.000000	0.178710	7.37035e+06	-49989.1	1005.82	-29757.2	0.000000	0.000000	6.178781	0.030451	NaN	0.000000	0.001657	0.001760	28.0805	0.044776	0.002027	22.0919	-131.521	-164.241	0.002636	0.177421	-0.856267	-0.857556	0.030451	22.0919	-0.857301	-2.688947E+11	-1.132460E-13	NaN
542	1.000000	0.186705	7.37035e+06	-49989.1	1005.82	-29757.2	0.000000	0.000000	6.186776	0.036416	NaN	0.000000	0.001645	0.001795	28.0806	0.057366	0.002099	27.3266	106.446	-165.656	0.000109	0.185443	-0.848272	-0.849534	0.036416	27.3266	-0.849271	-2.093482E+11	-1.739498E-13	NaN
542	1.000000	0.194767	7.37035e+06	-49989.1	1005.82	-29757.2	0.000000	0.000000	6.194837	0.035614	NaN	0.000000	0.001689	0.001791	28.0812	0.094647	0.002071	45.712	48.2401	-164.396	-0.003436	0.193373	-0.840210	-0.841604	0.035614	45.712	-0.840795	-1.607150E+11	-2.215972E-13	NaN
542	1.000000	0.202745	7.37035e+06	-49989.1	1005.82	-29757.2	0.000000	0.000000	6.202817	0.079971	NaN	0.000000	0.001657	0.001775	28.0818	0.085063	0.002083	40.8351	-19.3296	-166.457	0.021247	0.201381	-0.832232	-0.833595	0.079971	40.8351	-0.833701	-1.288077E+11	-6.208526E-13	NaN
542	1.000000	0.210724	7.37035e+06	-49989.1	1005.82	-29757.2	0.000000	0.000000	6.210793	-0.006137	NaN	0.000000	0.001634	0.001745	28.0817	0.015644	0.001988	7.868664	-145.626	-165.564	0.012166	0.209442	-0.824253	-0.825535	-0.006137	7.868664	-0.823668	-9.417817E+10	6.516378E-14	NaN
542	1.000000	0.218769	7.37035e+06	-49989.1	1005.82	-29757.2	0.000000	0.000000	6.218840	0.028463	NaN	0.000000	0.001602	0.001792	28.0816	0.099178	0.002031	48.8331	140.318	-163.508	-0.051045	0.217488	-0.816208	-0.817488	0.028463	48.8331	-0.816645	-7.563274E+10	-3.763373E-13	NaN
542	1.000000	0.226765	7.37035e+06	-49989.1	1005.82	-29757.2	0.000000	0.000000	6.226838	0.098133	NaN	0.000000	0.001655	0.001757	28.082	0.059866	0.002084	28.727	55.0755	-170.048	0.059852	0.225509	-0.808212	-0.809468	0.098133	28.727	-0.810774	-6.296121E+10	-1.558634E-12	NaN
542	1.000000	0.234769	7.37035e+06	-49989.1	1005.82	-29757.2	0.000000	0.000000	6.234840	0.050853	NaN	0.000000	0.001668	0.001762	28.0816	0.181761	0.001972	92.1861	30.8628	-171.301	-0.002103	0.233481	-0.800208	-0.801496	0.050853	92.1861	-0.800622	-4.584584E+10	-1.109221E-12	NaN
542	1.000000	0.242760	7.37035e+06	-49989.1	1005.82	-29757.2	0.000000	0.000000	6.242833	0.095187	NaN	0.000000	0.001638	0.001734	28.0819	0.124916	0.001945	64.2321	61.9636	-165.23	0.173703	0.241422	-0.792217	-0.793555	0.095187	64.2321	-0.793328	-3.649892E+10	-2.607939E-12	NaN
542	1.000000	0.250786	7.37035e+06	-49989.1	1005.82	-29757.2	0.000000	0.000000	6.250854	-0.022935	NaN	0.000000	0.001650	0.001766	28.0818	0.025168	0.001992	12.6364	146.8	-165.135	0.056223	0.249486	-0.784191	-0.785491	-0.022935	12.6364	-0.782830	-2.628357E+10	8.726138E-13	NaN
542	1.000000	0.258778	7.37035e+06	-49989.1	1005.82	-29757.2	0.000000	0.000000	6.258848	0.013330	NaN	0.000000	0.001674	0.001736	28.0818	0.029132	0.002159	13.4956	2.146267	-165.427	0.021837	0.257459	-0.776199	-0.777517	0.013330	13.4956	-0.776940	-2.185976E+10	-6.097952E-13	NaN
542	1.000000	0.266740	7.37035e+06	-49989.1	1005.82	-29757.2	0.000000	0.000000	6.266810	0.004118	NaN	0.000000	0.001643	0.001745	28.082	0.070452	0.001967	35.8196	-19.8757	-168.231	0.119751	0.265496	-0.768236	-0.769481	0.004118	35.8196	-0.768323	-1.669162E+10	-2.467089E-13	NaN
542	1.000000	0.274770	7.37035e+06	-49989.1	1005.82	-29757.2	0.000000	0.000000	6.274840	0.017346	NaN	0.000000	0.001617	0.001762	28.0818	0.029711	0.001863	15.945	-71.6731	-169.949	0.039431	0.273494	-0.760207	-0.761483	0.017346	15.945	-0.761022	-1.328041E+10	-1.306120E-12	NaN
542	1.000000	0.282782	7.37035e+06	-49989.1	1005.82	-29757.2	0.000000	0.000000	6.282852	0.007112	NaN	0.000000	0.001592	0.001780	28.0817	0.065166	0.002084	31.2729	148.666	-166.806	-0.051165	0.281456	-0.752195	-0.753521	0.007112	31.2729	-0.752365	-1.012544E+10	-7.023729E-13	NaN
542	1.000000	0.290784	7.37035e+06	-49989.1	1005.82	-29757.2	0.000000	0.000000	6.290856	0.063698	NaN	0.000000	0.001627	0.001794	28.0818	0.067947	0.001930	35.1965	-53.6951	-165.36	0.001324	0.289458	-0.744193	-0.745519	0.063698	35.1965	-0.745550	-8.177776E+9	-7.789199E-12	NaN
542	1.000000	0.298777	7.37035e+06	-49989.1	1005.82	-29757.2	0.000000	0.000000	6.298846	-0.004439	NaN	0.000000	0.001617	0.001807	28.0819	0.043967	0.001965	22.3698	-25.228	-167.216	0.040446	0.297455	-0.736200	-0.737522	-0.004439	22.3698	-0.736051	-6.070971E+9	7.311545E-13	NaN
542	1.000000	0.306800	7.37035e+06	-49989.1	1005.82	-29757.2	0.000000	0.000000	6.306873	0.089195	NaN	0.000000	0.001607	0.001790	28.0818	0.079230	0.002067	38.3225	73.0736	-167.776	0.084589	0.305477	-0.728177	-0.729499	0.089195	38.3225	-0.729922	-5.008977E+9	-1.780696E-11	NaN
542	1.000000	0.314760	7.37035e+06	-49989.1	1005.82	-29757.2	0.000000	0.000000	6.314831	0.028150	NaN	0.000000	0.001599	0.001767	28.0816	0.040298	0.002020	19.9523	-2.025597	-165.537	0.007644	0.313425	-0.720217	-0.721552	0.028150	19.9523	-0.721275	-3.818206E+9	-7.372623E-12	NaN
542	1.000000	0.322789	7.37035e+06	-49989.1	1005.82	-29757.2	0.000000	0.000000	6.322860	0.025111	NaN	0.000000	0.001593	0.001746	28.082	0.086748	0.002028	42.7815	134.476	-163.04	-0.006066	0.321468	-0.712188	-0.713509	0.025111	42.7815	-0.712628	-2.910093E+9	-8.628911E-12	NaN
542	1.000000	0.330811	7.37035e+06	-49989.1	1005.82	-29757.2	0.000000	0.000000	6.330881	0.020715	NaN	0.000000	0.001618	0.001766	28.081	0.048090	0.001934	24.8646	146.267	-166.575	0.082630	0.329492	-0.704166	-0.705484	0.020715	24.8646	-0.704791	-2.274797E+9	-9.106483E-12	NaN
542	1.000000	0.338762	7.37035e+06	-49989.1	1005.82	-29757.2	0.000000	0.000000	6.338834	0.075507	NaN	0.000000	0.001589	0.001766	28.0805	0.109878	0.001965	55.9035	-154.488	-167.21	0.139819	0.337471	-0.696215	-0.697506	0.075507	55.9035	-0.697228	-1.793377E+9	-4.210303E-11	NaN
542	1.000000	0.346806	7.37035e+06	-49989.1	1005.82	-29757.2	0.000000	0.000000	6.346877	0.044639	NaN	0.000000	0.001556	0.001772	28.0801	0.034565	0.002008	17.2127	-35.5953	-165.492	0.065293	0.345491	-0.688171	-0.689486	0.044639	17.2127	-0.690116	-1.433854E+9	-3.113248E-11	NaN
542	1.000000	0.354823	7.37035e+06	-49989.1	1005.82	-29757.2	0.000000	0.000000	6.354893	0.032066	NaN	0.000000	0.001606	0.001754	28.0803	0.085424	0.002171	39.3538	-85.9981	-165.977	0.082980	0.353433	-0.680154	-0.681544	0.032066	39.3538	-0.680765	-1.068239E+9	-3.001752E-11	NaN
542	1.000000	0.362800	7.37035e+06	-49989.1	1005.82	-29757.2	0.000000	0.000000	6.362870	0.008159	NaN	0.000000	0.001581	0.001781	28.0804	0.099019	0.001963	50.4467	25.6389	-166.391	-0.026088	0.361454	-0.672177	-0.673523	0.008159	50.4467	-0.672298	-8.181652E+8	-9.972922E-12	NaN
542	1.000000	0.370811	7.37035e+06	-49989.1	1005.82	-29757.2	0.000000	0.000000	6.370884	0.099182	NaN	0.000000	0.001607	0.001821	28.0805	0.024037	0.001924	12.4948	-110.857	-165.614	0.098331	0.369494	-0.664166	-0.665483	0.099182	12.4948	-0.670120	-7.638835E+8	-1.298385E-10	NaN
542	1.000000	0.378806	7.37035e+06	-49989.1	1005.82	-29757.2	0.000000	0.000000	6.378877	0.039799	NaN	0.000000	0.001620	0.001796	28.0806	0.043792	0.002006	21.8337	-178.952	-165.602	0.098499	0.377527	-0.656171	-0.657450	0.039799	21.8337	-0.657538	-5.137435E+8	-7.746958E-11	NaN
542	1.000000	0.386808	7.37035e+06	-49989.1	1005.82	-29757.2	0.000000	0.000000	6.386880	0.064272	NaN	0.000000	0.001605	0.001768	28.0803	0.057027	0.001932	29.5155	141.404	-170.159	0.087807	0.385469	-0.648169	-0.649507	0.064272	29.5155	-0.649802	-4.024626E+8	-1.596957E-10	NaN
542	1.000000	0.394811	7.37035e+06	-49989.1	1005.82	-29757.2	0.000000	0.000000	6.394880	-0.005111	NaN	0.000000	0.001608	0.001761	28.0806	0.011754	0.001978	5.942947	80.9631	-167.563	0.008893	0.393513	-0.640166	-0.641464	-0.005111	5.942947	-0.639521	-2.908790E+8	1.757010E-11	NaN
542	1.000000	0.402848	7.37035e+06	-49989.1	1005.82	-29757.2	0.000000	0.000000	6.402917	-0.012083	NaN	0.000000	0.001583	0.001794	28.0804	0.104735	0.002011	52.0735	27.479	-163.161	-0.009726	0.401519	-0.632129	-0.633458	-0.012083	52.0735	-0.631955	-2.290179E+8	5.276177E-11	NaN
542	1.000000	0.410810	7.37035e+06	-49989.1	1005.82	-29757.2	0.000000	0.000000	6.410880	0.011827	NaN	0.000000	0.001566	0.001761	28.0804	0.030935	0.002022	15.2989	23.6582	-166.046	0.036786	0.409562	-0.624167	-0.625415	0.011827	15.2989	-0.624746	-1.823307E+8	-6.486829E-11	NaN
542	1.000000	0.418832	7.37035e+06	-49989.1	1005.82	-29757.2	0.000000	0.000000	6.418904	0.080083	NaN	0.000000	0.001588	0.001755	28.0806	0.070909	0.001974	35.9215	-5.178346	-164.564	-0.042848	0.417486	-0.616145	-0.617491	0.080083	35.9215	-0.617817	-1.464281E+8	-5.469099E-10	NaN
542	1.000000	0.426814	7.37035e+06	-49989.1	1005.82	-29757.2	0.000000	0.000000	6.426885	0.044448	NaN	0.000000	0.001627	0.001726	28.0803	0.037060	0.001954	18.9702	65.0598	-167.933	0.009817	0.425573	-0.608163	-0.609404	0.044448	18.9702	-0.609920	-1.140277E+8	-3.897972E-10	NaN
542	1.000000	0.434848	7.37035e+06	-49989.1	1005.82	-29757.2	0.000000	0.000000	6.434925	0.181110	NaN	0.000000	0.001660	0.001749	28.0806	0.058314	0.002103	27.7293	-73.1802	-166.005	0.149656	0.433513	-0.600129	-0.601463	0.181110	27.7293	-0.605027	-9.765202E+7	-1.854652E-9	NaN
542	1.000000	0.442848	7.37035e+06	-49989.1	1005.82	-29757.2	0.000000	0.000000	6.442922	0.094293	NaN	0.000000	0.001704	0.001735	28.0804	0.041372	0.001845	22.4253	-119.691	-167.077	0.071203	0.441527	-0.592128	-0.593450	0.094293	22.4253	-0.595282	-7.169151E+7	-1.315265E-9	NaN
542	1.000000	0.450860	7.37035e+06	-49989.1	1005.82	-29757.2	0.000000	0.000000	6.450933	0.081301	NaN	0.000000	0.001706	0.001732	28.0805	0.015598	0.002048	7.616746	163.661	-167.557	0.047933	0.449505	-0.584117	-0.585471	0.081301	7.616746	-0.592122	-6.485194E+7	-1.253638E-9	NaN
542	1.000000	0.458860	7.37035e+06	-49989.1	1005.82	-29757.2	0.000000	0.000000	6.458932	0.076536	NaN	0.000000	0.001675	0.001748	28.0806	0.046008	0.002093	21.9848	164.771	-164.488	0.075825	0.457553	-0.576117	-0.577424	0.076536	21.9848	-0.578728	-4.238066E+7	-1.805912E-9	NaN
542	1.000000	0.466872	7.37035e+06	-49989.1	1005.82	-29757.2	0.000000	0.000000	6.466943	0.052533	NaN	0.000000	0.001673	0.001769	28.0807	0.065107	0.001904	34.1969	-156.761	-166.122	-0.036561	0.465562	-0.568105	-0.569415	0.052533	34.1969	-0.569257	-3.135964E+7	-1.675188E-9	NaN
542	1.000000	0.474847	7.37035e+06	-49989.1	1005.82	-29757.2	0.000000	0.000000	6.474919	0.058062	NaN	0.000000	0.001660	0.001729	28.0823	0.046408	0.002033	22.8302	-127.815	-165.836	0.078743	0.473557	-0.560129	-0.561420	0.058062	22.8302	-0.562037	-2.492019E+7	-2.329907E-9	NaN
542	1.000000	0.482865	7.37035e+06	-49989.1	1005.82	-29757.2	0.000000	0.000000	6.482938	0.081629	NaN	0.000000	0.001661	0.001739	28.0818	0.052712	0.001929	27.3226	-178.883	-169.077	0.051893	0.481492	-0.552112	-0.553485	0.081629	27.3226	-0.554352	-1.950853E+7	-4.184292E-9	NaN
542	1.000000	0.490863	7.37035e+06	-49989.1	1005.82	-29757.2	0.000000	0.000000	6.490932	-0.026006	NaN	0.000000	0.001686	0.001735	28.0821	0.095030	0.001912	49.6968	-61.3238	-166.419	-0.095191	0.489600	-0.544113	-0.545377	-0.026006	49.6968	-0.543721	-1.389797E+7	1.871207E-9	NaN
542	1.000000	0.498896	7.37035e+06	-49989.1	1005.82	-29757.2	0.000000	0.000000	6.498967	0.035815	NaN	0.000000	0.001655	0.001741	28.0818	0.040996	0.001911	21.4487	57.3947	-164.812	0.051494	0.497490	-0.536081	-0.537487	0.035815	21.4487	-0.537333	-1.133361E+7	-3.160028E-9	NaN
542	1.000000	0.506864	7.37035e+06	-49989.1	1005.82	-29757.2	0.000000	0.000000	6.506936	0.064220	NaN	0.000000	0.001634	0.001722	28.082	0.054913	0.001971	27.8648	-66.562	-167.038	-0.002353	0.505650	-0.528113	-0.529327	0.064220	27.8648	-0.529841	-8.92005e+06	-7.199565E-9	NaN
542	1.000000	0.514879	7.37035e+06	-49989.1	1005.82	-29757.2	0.000000	0.000000	6.514950	0.049270	NaN	0.000000	0.001602	0.001707	28.0823	0.026682	0.002140	12.4701	44.2749	-167.828	0.080278	0.513499	-0.520098	-0.521478	0.049270	12.4701	-0.523061	-7.18064e+06	-6.861533E-9	NaN
542	1.000000	0.522887	7.37035e+06	-49989.1	1005.82	-29757.2	0.000000	0.000000	6.522959	0.076312	NaN	0.000000	0.001607	0.001705	28.0819	0.113807	0.002056	55.3476	-68.0183	-168.509	0.072427	0.521543	-0.512090	-0.513434	0.076312	55.3476	-0.513124	-5.22299e+06	-1.461076E-8	NaN
542	1.000000	0.530860	7.37035e+06	-49989.1	1005.82	-29757.2	0.000000	0.000000	6.530930	0.022973	NaN	0.000000	0.001606	0.001702	28.0821	0.084162	0.002070	40.6569	-137.379	-167.148	0.080235	0.529563	-0.504117	-0.505414	0.022973	40.6569	-0.504541	-3.96593e+06	-5.792495E-9	NaN
542	1.000000	0.538904	7.37035e+06	-49989.1	1005.82	-29757.2	0.000000	0.000000	6.538974	0.033707	NaN	0.000000	0.001645	0.001725	28.0819	0.008575	0.001855	4.623229	-35.6989	-168.2	-0.014213	0.537555	-0.496073	-0.497422	0.033707	4.623229	-0.501541	-3.60177e+06	-9.358323E-9	NaN
542	1.000000	0.546912	7.37035e+06	-49989.1	1005.82	-29757.2	0.000000	0.000000	6.546981	-0.023527	NaN	0.000000	0.001607	0.001730	28.0818	0.204348	0.001795	113.817	102.364	-165.034	-0.096049	0.545591	-0.488064	-0.489386	-0.023527	113.817	-0.487909	-2.32366e+06	1.012509E-8	NaN
542	1.000000	0.554888	7.37035e+06	-49989.1	1005.82	-29757.2	0.000000	0.000000	6.554957	0.007562	NaN	0.000000	0.001612	0.001731	28.0821	0.086753	0.002091	41.484	99.6471	-165.475	0.021696	0.553591	-0.480089	-0.481386	0.007562	41.484	-0.480226	-1.81422e+06	-4.168438E-9	NaN
542	1.000000	0.562891	7.37035e+06	-49989.1	1005.82	-29757.2	0.000000	0.000000	6.562960	-0.002572	NaN	0.000000	0.001606	0.001713	28.0818	0.071749	0.001859	38.6035	-73.005	-166.037	0.040253	0.561590	-0.472086	-0.473387	-0.002572	38.6035	-0.472036	-1.39303e+06	1.846649E-9	NaN
542	1.000000	0.570900	7.37035e+06	-49989.1	1005.82	-29757.2	0.000000	0.000000	6.570969	0.000332	NaN	0.000000	0.001571	0.001694	28.0818	0.059202	0.001975	29.9713	2.437047	-167.618	0.005478	0.569598	-0.464077	-0.465379	0.000332	29.9713	-0.464085	-1.07746e+06	-3.077563E-10	NaN
542	1.000000	0.578891	7.37035e+06	-49989.1	1005.82	-29757.2	0.000000	0.000000	6.578960	-0.014400	NaN	0.000000	0.001599	0.001707	28.0817	0.001791	0.001952	0.917528	177.233	-165.757	-0.012706	0.577590	-0.456086	-0.457387	-0.014400	0.917528	-0.444315	-567850	2.535893E-8	NaN
542	1.000000	0.586927	7.37035e+06	-49989.1	1005.82	-29757.2	0.000000	0.000000	6.586997	0.023982	NaN	0.000000	0.001567	0.001715	28.0817	0.079667	0.001875	42.4787	41.0786	-166.574	0.013088	0.585523	-0.448050	-0.449454	0.023982	42.4787	-0.448473	-649886	-3.690145E-8	NaN
542	1.000000	0.594928	7.37035e+06	-49989.1	1005.82	-29757.2	0.000000	0.000000	6.594998	0.012805	NaN	0.000000	0.001584	0.001716	28.0819	0.083953	0.001988	42.2199	-177.862	-166.525	0.014161	0.593648	-0.440049	-0.441329	0.012805	42.2199	-0.440276	-498041	-2.571115E-8	NaN
542	1.000000	0.602917	7.37035e+06	-49989.1	1005.82	-29757.2	0.000000	0.000000	6.602988	0.041667	NaN	0.000000	0.001574	0.001725	28.0816	0.116939	0.002084	56.1095	43.5108	-163.677	0.011729	0.601583	-0.432060	-0.433393	0.041667	56.1095	-0.432617	-388216	-1.073304E-7	NaN
542	1.000000	0.610907	7.37035e+06	-49989.1	1005.82	-29757.2	0.000000	0.000000	6.610979	0.075542	NaN	0.000000	0.001573	0.001747	28.0808	0.031734	0.002131	14.8904	175.613	-166.668	0.040282	0.609647	-0.424070	-0.425330	0.075542	14.8904	-0.427875	-332652	-2.270891E-7	NaN
542	1.000000	0.618909	7.37035e+06	-49989.1	1005.82	-29757.2	0.000000	0.000000	6.618980	0.018846	NaN	0.000000	0.001562	0.001737	28.0804	0.048021	0.002078	23.1041	34.0385	-162.793	-0.017440	0.617561	-0.416067	-0.417416	0.018846	23.1041	-0.416679	-230832	-8.164380E-8	NaN
542	1.000000	0.626902	7.37035e+06	-49989.1	1005.82	-29757.2	0.000000	0.000000	6.626971	-0.001576	NaN	0.000000	0.001561	0.001725	28.0806	0.086516	0.002108	41.0392	-55.3147	-167.304	0.027732	0.625649	-0.408075	-0.409328	-0.001576	41.0392	-0.408046	-174023	9.056783E-9	NaN
542	1.000000	0.634942	7.37035e+06	-49989.1	1005.82	-29757.2	0.000000	0.000000	6.635013	0.046369	NaN	0.000000	0.001586	0.001693	28.0805	0.112985	0.001925	58.706	-96.0955	-167.295	0.051129	0.633626	-0.400035	-0.401351	0.046369	58.706	-0.400627	-136439	-3.398533E-7	NaN
542	1.000000	0.642932	7.37035e+06	-49989.1	1005.82	-29757.2	0.000000	0.000000	6.643005	0.086655	NaN	0.000000	0.001573	0.001730	28.0804	0.131489	0.002124	61.9003	-145.139	-164.326	0.063220	0.641676	-0.392044	-0.393300	0.086655	61.9003	-0.393094	-106514	-8.135502E-7	NaN
542	1.000000	0.650923	7.37035e+06	-49989.1	1005.82	-29757.2	0.000000	0.000000	6.650991	-0.037334	NaN	0.000000	0.001590	0.001756	28.0806	0.071854	0.002044	35.1495	-84.6263	-167.933	-0.039541	0.649622	-0.384054	-0.385355	-0.037334	35.1495	-0.383257	-77021.5	4.847188E-7	NaN
542	1.000000	0.658906	7.37035e+06	-49989.1	1005.82	-29757.2	0.000000	0.000000	6.658978	0.073515	NaN	0.000000	0.001567	0.001785	28.0806	0.053187	0.001993	26.6805	-79.7844	-165.862	0.011866	0.657647	-0.376071	-0.377330	0.073515	26.6805	-0.378137	-65035.4	-1.130378E-6	NaN
542	1.000000	0.666922	7.37035e+06	-49989.1	1005.82	-29757.2	0.000000	0.000000	6.666993	0.042830	NaN	0.000000	0.001587	0.001774	28.0808	0.049724	0.001957	25.4024	-150.282	-161.525	0.059139	0.665604	-0.368055	-0.369373	0.042830	25.4024	-0.369319	-48564.8	-8.819224E-7	NaN
542	1.000000	0.674940	7.37035e+06	-49989.1	1005.82	-29757.2	0.000000	0.000000	6.675013	0.100703	NaN	0.000000	0.001579	0.001750	28.0804	0.073741	0.002034	36.2477	166.114	-166.805	0.014446	0.673634	-0.360037	-0.361343	0.100703	36.2477	-0.362121	-38237.2	-2.633646E-6	NaN
542	1.000000	0.682945	7.37035e+06	-49989.1	1005.82	-29757.2	0.000000	0.000000	6.683015	0.033431	NaN	0.000000	0.001591	0.001745	28.0805	0.066863	0.001833	36.4746	179.108	-168.696	0.014662	0.681687	-0.352032	-0.353290	0.033431	36.4746	-0.352720	-27954.6	-1.195896E-6	NaN
542	1.000000	0.690940	7.37035e+06	-49989.1	1005.82	-29757.2	0.000000	0.000000	6.691012	0.068025	NaN	0.000000	0.001617	0.001736	28.0806	0.031284	0.002070	15.11	-27.7872	-165.068	0.014965	0.689638	-0.344037	-0.345339	0.068025	15.11	-0.347413	-23412.2	-2.905540E-6	NaN
542	1.000000	0.698943	7.37035e+06	-49989.1	1005.82	-29757.2	0.000000	0.000000	6.699015	0.061332	NaN	0.000000	0.001641	0.001711	28.0808	0.078154	0.001957	39.9419	-5.066550	-164.631	0.028036	0.697642	-0.336034	-0.337334	0.061332	39.9419	-0.337185	-16614.9	-3.691391E-6	NaN
542	1.000000	0.706925	7.37035e+06	-49989.1	1005.82	-29757.2	0.000000	0.000000	6.706995	0.039861	NaN	0.000000	0.001615	0.001740	28.0808	0.088037	0.001975	44.5869	-129.206	-164.369	0.040109	0.705663	-0.328052	-0.329314	0.039861	44.5869	-0.328723	-12495.1	-3.190102E-6	NaN
542	1.000000	0.714947	7.37035e+06	-49989.1	1005.82	-29757.2	0.000000	0.000000	6.715016	-0.009898	NaN	0.000000	0.001652	0.001749	28.0805	0.081112	0.002061	39.3474	116.886	-165.748	0.035529	0.713571	-0.320030	-0.321405	-0.009898	39.3474	-0.319841	-9253.31	1.069638E-6	NaN
542	1.000000	0.722943	7.37035e+06	-49989.1	1005.82	-29757.2	0.000000	0.000000	6.723013	0.015378	NaN	0.000000	0.001674	0.001777	28.0808	0.057699	0.001916	30.1185	-169.031	-166.277	0.156750	0.721667	-0.312034	-0.313310	0.015378	30.1185	-0.312417	-7191.22	-2.138376E-6	NaN
542	1.000000	0.730940	7.37035e+06	-49989.1	1005.82	-29757.2	0.000000	0.000000	6.731011	0.021647	NaN	0.000000	0.001637	0.001750	28.0804	0.065603	0.002075	31.6097	36.7376	-165.408	0.063144	0.729642	-0.304037	-0.305335	0.021647	31.6097	-0.304550	-5498.92	-3.936672E-6	NaN
542	1.000000	0.738975	7.37035e+06	-49989.1	1005.82	-29757.2	0.000000	0.000000	6.739046	0.042529	NaN	0.000000	0.001632	0.001744	28.0808	0.070394	0.002007	35.0658	161.895	-165.566	-0.017342	0.737648	-0.296002	-0.297328	0.042529	35.0658	-0.296912	-4232.71	-1.004759E-5	NaN
542	1.000000	0.746931	7.37035e+06	-49989.1	1005.82	-29757.2	0.000000	0.000000	6.747000	-0.005097	NaN	0.000000	0.001615	0.001725	28.0819	0.074526	0.002061	36.1586	104.746	-165.081	0.061181	0.745710	-0.288046	-0.289267	-0.005097	36.1586	-0.287940	-3107.53	1.640090E-6	NaN
542	1.000000	0.754983	7.37035e+06	-49989.1	1005.82	-29757.2	0.000000	0.000000	6.755053	0.005221	NaN	0.000000	0.001621	0.001725	28.0818	0.089381	0.002004	44.5967	17.0712	-167.989	0.084223	0.753674	-0.279993	-0.281302	0.005221	44.5967	-0.280081	-2366.99	-2.205898E-6	NaN
542	1.000000	0.762950	7.37035e+06	-49989.1	1005.82	-29757.2	0.000000	0.000000	6.763021	0.053216	NaN	0.000000	0.001625	0.001741	28.0822	0.126097	0.002046	61.6376	-86.6386	-165.341	0.040522	0.761675	-0.272027	-0.273302	0.053216	61.6376	-0.272674	-1828.75	-2.909936E-5	NaN
542	1.000000	0.770996	7.37035e+06	-49989.1	1005.82	-29757.2	0.000000	0.000000	6.771065	-0.005926	NaN	0.000000	0.001646	0.001776	28.0817	0.130672	0.001951	66.964	-102.177	-166.845	-0.030899	0.769670	-0.263981	-0.265307	-0.005926	66.964	-0.263915	-1345.3	4.404641E-6	NaN
542	1.000000	0.778997	7.37035e+06	-49989.1	1005.82	-29757.2	0.000000	0.000000	6.779069	0.054501	NaN	0.000000	0.001648	0.001772	28.0818	0.024663	0.002255	10.9352	123.052	-165.559	0.006420	0.777634	-0.255979	-0.257343	0.054501	10.9352	-0.259717	-1160.34	-4.696978E-5	NaN
542	1.000000	0.786962	7.37035e+06	-49989.1	1005.82	-29757.2	0.000000	0.000000	6.787033	0.034352	NaN	0.000000	0.001652	0.001813	28.0817	0.070809	0.001952	36.2813	23.6154	-165.955	0.082502	0.785657	-0.248015	-0.249320	0.034352	36.2813	-0.248725	-785.663	-4.372406E-5	NaN
542	1.000000	0.794990	7.37035e+06	-49989.1	1005.82	-29757.2	0.000000	0.000000	6.795059	0.005843	NaN	0.000000	0.001626	0.001796	28.0818	0.043947	0.001893	23.2168	-100.923	-165.781	0.078412	0.793695	-0.239987	-0.241282	0.005843	23.2168	-0.240176	-578.496	-1.010017E-5	NaN
542	1.000000	0.802997	7.37035e+06	-49989.1	1005.82	-29757.2	0.000000	0.000000	6.803065	-0.017506	NaN	0.000000	0.001643	0.001814	28.082	0.047913	0.001970	24.3181	30.1691	-166.16	0.033254	0.801718	-0.231980	-0.233259	-0.017506	24.3181	-0.231440	-421.928	4.149070E-5	NaN
542	1.000000	0.811016	7.37035e+06	-49989.1	1005.82	-29757.2	0.000000	0.000000	6.811089	0.105587	NaN	0.000000	0.001597	0.001805	28.0817	0.017665	0.001974	8.950464	-75.674	-165.404	0.063126	0.809699	-0.223961	-0.225278	0.105587	8.950464	-0.232809	-443.404	-0.000238	NaN
542	1.000000	0.819025	7.37035e+06	-49989.1	1005.82	-29757.2	0.000000	0.000000	6.819096	0.038625	NaN	0.000000	0.001657	0.001802	28.082	0.087051	0.002042	42.6391	165.944	-166.631	0.094204	0.817647	-0.215952	-0.217330	0.038625	42.6391	-0.216631	-245.315	-0.000157	NaN
542	1.000000	0.827018	7.37035e+06	-49989.1	1005.82	-29757.2	0.000000	0.000000	6.827088	0.039799	NaN	0.000000	0.001742	0.001797	28.0819	0.087629	0.001957	44.7813	35.2634	-165.666	-0.008304	0.825692	-0.207959	-0.209285	0.039799	44.7813	-0.208626	-182.198	-0.000218	NaN
542	1.000000	0.835014	7.37035e+06	-49989.1	1005.82	-29757.2	0.000000	0.000000	6.835085	0.029343	NaN	0.000000	0.001735	0.001782	28.0818	0.028893	0.001993	14.4986	-80.197	-166.212	-0.020818	0.833726	-0.199962	-0.201250	0.029343	14.4986	-0.201480	-139.315	-0.000211	NaN
542	1.000000	0.842998	7.37035e+06	-49989.1	1005.82	-29757.2	0.000000	0.000000	6.843068	0.016015	NaN	0.000000	0.001731	0.001773	28.0817	0.101945	0.001925	52.9675	-157.196	-166.499	0.057655	0.841667	-0.191979	-0.193309	0.016015	52.9675	-0.192206	-97.9046	-0.000164	NaN
542	1.000000	0.851036	7.37035e+06	-49989.1	1005.82	-29757.2	0.000000	0.000000	6.851105	0.007776	NaN	0.000000	0.001758	0.001792	28.0817	0.040292	0.002053	19.6272	-150.493	-165.589	0.070035	0.849714	-0.183941	-0.185263	0.007776	19.6272	-0.184238	-71.9922	-0.000108	NaN
542	1.000000	0.859008	7.37035e+06	-49989.1	1005.82	-29757.2	0.000000	0.000000	6.859078	0.023250	NaN	0.000000	0.001742	0.001787	28.082	0.076991	0.001933	39.835	-172.098	-166.19	0.062277	0.857726	-0.175969	-0.177251	0.023250	39.835	-0.176407	-52.9812	-0.000439	NaN
542	1.000000	0.867013	7.37035e+06	-49989.1	1005.82	-29757.2	0.000000	0.000000	6.867084	0.049166	NaN	0.000000	0.001744	0.001799	28.0817	0.133654	0.002031	65.7955	-153.976	-168.453	0.015247	0.865719	-0.167964	-0.169258	0.049166	65.7955	-0.168525	-38.7216	-0.001270	NaN
542	1.000000	0.875004	7.37035e+06	-49989.1	1005.82	-29757.2	0.000000	0.000000	6.875074	0.001375	NaN	0.000000	0.001736	0.001775	28.0817	0.064316	0.002077	30.9691	-176.833	-164.553	0.040625	0.873762	-0.159972	-0.161215	0.001375	30.9691	-0.160006	-27.4214	-5.015260E-5	NaN
542	1.000000	0.883033	7.37035e+06	-49989.1	1005.82	-29757.2	0.000000	0.000000	6.883105	0.055067	NaN	0.000000	0.001735	0.001794	28.0806	0.035428	0.001951	18.159	111.679	-166.089	0.084376	0.881745	-0.151944	-0.153232	0.055067	18.159	-0.154218	-21.602	-0.002549	NaN
542	1.000000	0.891035	7.37035e+06	-49989.1	1005.82	-29757.2	0.000000	0.000000	6.891105	0.019018	NaN	0.000000	0.001638	0.001797	28.0811	0.064378	0.001974	32.6212	16.0173	-169.504	0.054041	0.889734	-0.143942	-0.145243	0.019018	32.6212	-0.144379	-14.2781	-0.001332	NaN
542	1.000000	0.899017	7.37035e+06	-49989.1	1005.82	-29757.2	0.000000	0.000000	6.899086	-0.006745	NaN	0.000000	0.001650	0.001817	28.0807	0.147280	0.002013	73.1567	-164.206	-163.949	-0.009159	0.897733	-0.135960	-0.137244	-0.006745	73.1567	-0.135890	-9.891529	0.000682	NaN
542	1.000000	0.907059	7.37035e+06	-49989.1	1005.82	-29757.2	0.000000	0.000000	6.907130	0.049393	NaN	0.000000	0.001665	0.001759	28.0803	0.102489	0.001966	52.1185	-63.2453	-164.886	0.090644	0.905711	-0.127918	-0.129266	0.049393	52.1185	-0.128629	-7.166510	-0.006892	NaN
542	1.000000	0.915037	7.37035e+06	-49989.1	1005.82	-29757.2	0.000000	0.000000	6.915109	0.082882	NaN	0.000000	0.001638	0.001760	28.0806	0.036389	0.001925	18.9019	73.8258	-167.523	0.117567	0.913758	-0.119940	-0.121219	0.082882	18.9019	-0.123229	-5.608236	-0.014779	NaN
542	1.000000	0.923047	7.37035e+06	-49989.1	1005.82	-29757.2	0.000000	0.000000	6.923119	0.076582	NaN	0.000000	0.001656	0.001782	28.0805	0.031525	0.001934	16.3025	-97.6976	-168.489	0.115094	0.921745	-0.111930	-0.113232	0.076582	16.3025	-0.115453	-3.903382	-0.019619	NaN
542	1.000000	0.931030	7.37035e+06	-49989.1	1005.82	-29757.2	0.000000	0.000000	6.931100	0.026160	NaN	0.000000	0.001668	0.001777	28.0807	0.026620	0.002119	12.562	160.005	-165.051	0.056759	0.929801	-0.103947	-0.105176	0.026160	12.562	-0.105509	-2.410715	-0.010851	NaN
542	1.000000	0.939024	7.37035e+06	-49989.1	1005.82	-29757.2	0.000000	0.000000	6.939096	0.072534	NaN	0.000000	0.001640	0.001766	28.0806	0.092961	0.002066	44.9878	52.7964	-162.543	0.018131	0.937722	-0.095953	-0.097255	0.072534	44.9878	-0.097162	-1.578982	-0.045937	NaN
542	1.000000	0.947037	7.37036e+06	-49989.1	1005.82	-29757.2	0.000000	0.000000	6.947153	1.112878	NaN	0.000000	0.001671	0.001753	28.0805	0.664141	0.001933	343.603	18.7252	-168.123	0.794552	0.945669	-0.087939	-0.089308	1.112878	343.603	-0.090368	-1.102690	-1.009240	NaN
542	1.000000	0.955059	7.37036e+06	-49989.1	1005.82	-29757.2	0.000000	0.000000	6.955238	2.664549	NaN	0.000000	0.001644	0.001759	28.0807	0.940766	0.001929	487.798	23.5756	-168.139	2.539650	0.953714	-0.079918	-0.081263	2.664549	487.798	-0.084015	-0.777608	-3.426598	NaN
542	1.000000	0.963046	7.37036e+06	-49989.1	1005.82	-29757.2	0.000000	0.000000	6.963277	3.927584	NaN	0.000000	0.001638	0.001784	28.0805	1.245582	0.002046	608.684	21.4917	-167.627	3.677335	0.961766	-0.071930	-0.073211	3.927584	608.684	-0.076770	-0.512893	-7.657704	NaN
542	1.000000	0.971032	7.37036e+06	-49989.1	1005.82	-29757.2	0.000000	0.000000	6.971250	3.619716	NaN	0.000000	0.001685	0.001742	28.0808	0.917287	0.001955	469.285	21.9169	-167.926	3.815964	0.969784	-0.063945	-0.065193	3.619716	469.285	-0.069730	-0.335469	-10.79	NaN
542	1.000000	0.979066	7.37036e+06	-49989.1	1005.82	-29757.2	0.000000	0.000000	6.979270	3.264097	NaN	0.000000	0.001690	0.001789	28.0806	0.975640	0.001886	517.197	22.8487	-164.835	3.284699	0.977748	-0.055911	-0.057229	3.264097	517.197	-0.060644	-0.187902	-17.3712	NaN
542	1.000000	0.987070	7.37036e+06	-49989.1	1005.82	-29757.2	0.000000	0.000000	6.987247	2.625562	NaN	0.000000	0.001704	0.001782	28.0807	0.697816	0.002024	344.834	26.5039	-168.401	2.755944	0.985761	-0.047907	-0.049215	2.625562	344.834	-0.053617	-0.117171	-22.408	NaN
542	1.000000	0.995060	7.37036e+06	-49989.1	1005.82	-29757.2	0.000000	0.000000	6.995199	1.696639	NaN	0.000000	0.001697	0.001812	28.0815	0.759229	0.002088	363.681	33.1062	-170.396	1.831839	0.993744	-0.039917	-0.041232	1.696639	363.681	-0.043416	-0.057484	-29.5148	NaN
542	1.000000	1.003069	7.37036e+06	-49989.1	1005.82	-29757.2	0.000000	0.000000	7.003193	1.331234	NaN	0.000000	0.001649	0.001814	28.0805	0.665633	0.001941	342.939	19.7615	-167.199	1.434095	1.001816	-0.031908	-0.033161	1.331234	342.939	-0.034819	-0.031634	-42.0822	NaN
542	1.000000	1.011050	7.37036e+06	-49989.1	1005.82	-29757.2	0.000000	0.000000	7.011178	1.422313	NaN	0.000000	0.001707	0.001815	28.0805	0.825747	0.002051	402.632	19.2753	-165.623	1.493549	1.009739	-0.023927	-0.025238	1.422313	402.632	-0.026576	-0.018565	-76.6127	NaN
542	1.000000	1.019092	7.37036e+06	-49989.1	1005.82	-29757.2	0.000000	0.000000	7.019248	2.127622	NaN	0.000000	0.001664	0.001820	28.0817	1.272644	0.002018	630.802	18.6	-166.088	1.963643	1.017791	-0.015885	-0.017186	2.127622	630.802	-0.018415	-0.011442	-185.956	NaN
542	1.000000	1.027090	7.37036e+06	-49989.1	1005.82	-29757.2	0.000000	0.000000	7.027299	3.406430	NaN	0.000000	0.001684	0.001782	28.0816	1.785326	0.001945	918.111	19.1445	-168.878	3.255475	1.025801	-0.007887	-0.009176	3.406430	918.111	-0.010670	-0.006770	-503.17	NaN
542	1.000000	1.035090	7.37036e+06	-49989.1	1005.82	-29757.2	0.000000	0.000000	7.035358	4.814494	NaN	0.000000	0.001680	0.001778	28.0818	2.477113	0.001920	1290.13	21.201	-167.721	4.729887	1.033778	0.000113	-0.001198	4.814494	1290.13	-0.002685	-0.001909	-2522.28	NaN
542	2.000000	1.042489	7.37036e+06	-49989.1	1005.82	-29757.2	0.000000	0.000000	7.042923	8.869528	NaN	0.000000	0.001674	0.001780	28.0816	6.911556	0.001759	3929.41	12.6305	-169.989	9.030859	1.041647	0.007512	0.006670	8.869528	3929.41	0.005819	0.004893	1812.53	51320.8
542	2.000000	1.044632	7.37036e+06	-49989.1	1005.82	-29757.2	0.000000	0.000000	7.045105	9.822843	NaN	0.000000	0.001675	0.001770	28.0822	8.362489	0.001755	4765.54	11.6368	-172.773	9.830665	1.044297	0.009655	0.009321	9.822843	4765.54	0.008109	0.007155	1372.93	51474.4
542	2.000000	1.046610	7.37036e+06	-49989.1	1005.82	-29757.2	0.000000	0.000000	7.047182	12.227	NaN	0.000000	0.001699	0.001745	28.0816	10.7454	0.001686	6372.37	7.849550	-173.458	11.9336	1.046295	0.011633	0.011318	12.227	6372.37	0.010194	0.009398	1301	60055.7
542	2.000000	1.048613	7.37036e+06	-49989.1	1005.82	-29757.2	0.000000	0.000000	7.049341	16.0094	NaN	0.000000	0.001668	0.001791	28.0818	13.2332	0.001848	7161.48	6.350328	-169.706	15.6337	1.048239	0.013636	0.013262	16.0094	7161.48	0.011960	0.011442	1399.22	61168.8
542	2.000000	1.050546	7.37036e+06	-49989.1	1005.82	-29757.2	0.000000	0.000000	7.051311	16.9067	NaN	0.000000	0.001671	0.001753	28.0816	15.0857	0.001855	8132.76	9.422257	-176.833	16.0158	1.050255	0.015570	0.015278	16.9067	8132.76	0.014011	0.013989	1208.61	62823.9
542	2.000000	1.052570	7.37036e+06	-49989.1	1005.82	-29757.2	0.000000	0.000000	7.053429	19.2213	NaN	0.000000	0.001753	0.001809	28.0815	16.6297	0.001810	9187.83	7.934427	-176.086	18.5425	1.052257	0.017593	0.017280	19.2213	9187.83	0.016024	0.016675	1152.7	65005.9
542	2.000000	1.054562	7.37036e+06	-49989.1	1005.82	-29757.2	0.000000	0.000000	7.055567	22.7609	NaN	0.000000	0.001717	0.001768	28.0828	18.3409	0.001848	9926.15	8.893656	-177.815	22.0179	1.054306	0.019585	0.019329	22.7609	9926.15	0.017865	0.019298	1179.46	65283
542	2.000000	1.056511	7.37036e+06	-49989.1	1005.82	-29757.2	0.000000	0.000000	7.057725	27.8399	NaN	0.000000	0.001745	0.001778	28.0814	20.0587	0.001813	11062.2	6.940281	-176.655	27.303	1.056247	0.021534	0.021270	27.8399	11062.2	0.019647	0.021990	1266.03	68156.1
542	2.000000	1.058592	7.37036e+06	-49989.1	1005.82	-29757.2	0.000000	0.000000	7.059874	29.4943	NaN	0.000000	0.001714	0.001786	28.0819	21.389	0.001794	11921.2	3.215359	-173.083	31.3302	1.058307	0.023616	0.023330	29.4943	11921.2	0.021760	0.025384	1161.94	68362.3
542	2.000000	1.060519	7.37036e+06	-49989.1	1005.82	-29757.2	0.000000	0.000000	7.061957	33.2989	NaN	0.000000	0.001724	0.001754	28.0818	23.4908	0.001757	13369.7	6.900460	-178.302	31.3047	1.060278	0.025542	0.025301	33.2989	13369.7	0.023674	0.028647	1162.38	72169.4
542	2.000000	1.062531	7.37036e+06	-49989.1	1005.82	-29757.2	0.000000	0.000000	7.064182	38.4609	NaN	0.000000	0.001733	0.001765	28.0815	26.0302	0.001899	13708.1	7.777929	-179.81	37.6957	1.062295	0.027555	0.027318	38.4609	13708.1	0.025450	0.031840	1207.94	70188.3
542	2.000000	1.064529	7.37036e+06	-49989.1	1005.82	-29757.2	0.000000	0.000000	7.066446	44.9194	NaN	0.000000	0.001669	0.001744	28.082	26.8438	0.001762	15234.6	7.063540	-178.988	44.32	1.064173	0.029553	0.029196	44.9194	15234.6	0.027341	0.035413	1268.44	73964.3
542	2.000000	1.066533	7.37036e+06	-49989.1	1005.82	-29757.2	0.000000	0.000000	7.068620	49.0561	NaN	0.000000	0.001647	0.001803	28.0817	29.6615	0.001765	16808.2	9.384711	176.435	48.8632	1.066209	0.031556	0.031232	49.0561	16808.2	0.029368	0.039443	1243.72	77323.1
542	2.000000	1.068566	7.37036e+06	-49989.1	1005.82	-29757.2	0.000000	0.000000	7.070750	51.4145	NaN	0.000000	0.001644	0.001783	28.082	31.9419	0.001785	17893.4	10.7341	173.924	51.5642	1.068174	0.033589	0.033197	51.4145	17893.4	0.031434	0.043769	1174.68	78141.9
542	2.000000	1.070522	7.37036e+06	-49989.1	1005.82	-29757.2	0.000000	0.000000	7.073031	59.3158	NaN	0.000000	0.001653	0.001761	28.0807	32.8889	0.001771	18569.7	9.362859	176.535	59.1317	1.070172	0.035546	0.035195	59.3158	18569.7	0.033150	0.047526	1248.08	77824.2
542	2.000000	1.072479	7.37036e+06	-49989.1	1005.82	-29757.2	0.000000	0.000000	7.075282	66.4692	NaN	0.000000	0.001632	0.001769	28.0807	34.9427	0.001730	20202.7	4.531913	179.655	65.3996	1.072172	0.037503	0.037195	66.4692	20202.7	0.035035	0.051828	1282.5	81077.9
542	2.000000	1.074497	7.37036e+06	-49989.1	1005.82	-29757.2	0.000000	0.000000	7.077524	71.927	NaN	0.000000	0.001634	0.001726	28.0808	36.1421	0.001827	19781.2	5.110976	179.923	70.6082	1.074194	0.039520	0.039217	71.927	19781.2	0.036793	0.056002	1284.36	76370
542	2.000000	1.076541	7.37036e+06	-49989.1	1005.82	-29757.2	0.000000	0.000000	7.079741	76.1468	NaN	0.000000	0.001607	0.001714	28.0807	39.735	0.001797	22112.3	10.6258	174.275	76.7168	1.076091	0.041564	0.041114	76.1468	22112.3	0.038981	0.061422	1239.73	81516.3
542	2.000000	1.078544	7.37036e+06	-49989.1	1005.82	-29757.2	0.000000	0.000000	7.082081	84.3231	NaN	0.000000	0.001581	0.001763	28.0808	41.1292	0.001760	23367	7.473571	176.041	84.2952	1.078155	0.043568	0.043178	84.3231	23367	0.040861	0.066273	1272.36	82929.5
542	2.000000	1.080483	7.37036e+06	-49989.1	1005.82	-29757.2	0.000000	0.000000	7.084210	88.9486	NaN	0.000000	0.001623	0.001732	28.0811	42.4799	0.001712	24809.4	3.160370	179.265	86.9042	1.080215	0.045506	0.045239	88.9486	24809.4	0.042817	0.071512	1243.83	84762.1
542	2.000000	1.082461	7.37036e+06	-49989.1	1005.82	-29757.2	0.000000	0.000000	7.086515	96.8965	NaN	0.000000	0.001636	0.001763	28.0809	44.6166	0.001760	25349.2	3.121037	179.135	93.6292	1.082220	0.047484	0.047243	96.8965	25349.2	0.044618	0.076506	1266.53	83732
542	2.000000	1.084476	7.37036e+06	-49989.1	1005.82	-29757.2	0.000000	0.000000	7.088756	102.405	NaN	0.000000	0.001615	0.001741	28.0809	46.1104	0.001717	26859.6	4.995845	176.377	100.237	1.084181	0.049499	0.049205	102.405	26859.6	0.046640	0.082310	1244.13	85535.4
542	2.000000	1.086453	7.37036e+06	-49989.1	1005.82	-29757.2	0.000000	0.000000	7.091039	109.852	NaN	0.000000	0.001615	0.001760	28.0809	48.3485	0.001735	27867.4	4.421767	176.25	106.975	1.086203	0.051476	0.051226	109.852	27867.4	0.048519	0.087892	1249.85	85880.6
542	2.000000	1.088470	7.37036e+06	-49989.1	1005.82	-29757.2	0.000000	0.000000	7.093501	120.662	NaN	0.000000	0.001617	0.001747	28.0807	50.6138	0.001737	29140.7	4.155270	177.075	117.104	1.088215	0.053494	0.053238	120.662	29140.7	0.050388	0.093617	1288.89	87015.4
542	2.000000	1.090434	7.37036e+06	-49989.1	1005.82	-29757.2	0.000000	0.000000	7.095831	129.563	NaN	0.000000	0.001611	0.001765	28.0809	51.892	0.001778	29187.3	6.344627	174.748	125.938	1.090172	0.055457	0.055195	129.563	29187.3	0.052128	0.099102	1307.36	84708
542	2.000000	1.092552	7.37036e+06	-49989.1	1005.82	-29757.2	0.000000	0.000000	7.098254	136.97	NaN	0.000000	0.001649	0.001786	28.0808	56.0001	0.001928	29051.9	7.475272	174.067	138.296	1.092210	0.057575	0.057233	136.97	29051.9	0.054039	0.105307	1300.68	81793.7
542	2.000000	1.094457	7.37036e+06	-49989.1	1005.82	-29757.2	0.000000	0.000000	7.100567	146.907	NaN	0.000000	0.001618	0.001733	28.081	55.9109	0.001746	32018.6	6.353815	173.488	145.71	1.094266	0.059481	0.059289	146.907	32018.6	0.056039	0.111990	1311.78	87414.8
542	2.000000	1.096459	7.37036e+06	-49989.1	1005.82	-29757.2	0.000000	0.000000	7.103067	159.017	NaN	0.000000	0.001597	0.001732	28.0809	59.3564	0.001818	32645.3	9.697252	170.695	157.658	1.096112	0.061482	0.061136	159.017	32645.3	0.057829	0.118137	1346.04	86776.2
542	2.000000	1.098489	7.37036e+06	-49989.1	1005.82	-29757.2	0.000000	0.000000	7.105735	174.529	NaN	0.000000	0.001583	0.001720	28.0808	61.2978	0.001765	34739.3	9.415317	170.342	173.509	1.098128	0.063513	0.063152	174.529	34739.3	0.059745	0.124894	1397.42	89809.7
542	2.000000	1.100525	7.37036e+06	-49989.1	1005.82	-29757.2	0.000000	0.000000	7.107926	178.307	NaN	0.000000	0.001612	0.001740	28.0808	62.658	0.001742	35966.8	6.993436	172.451	179.763	1.100179	0.065548	0.065202	178.307	35966.8	0.061830	0.132451	1346.22	90291.9
542	2.000000	1.102404	7.37036e+06	-49989.1	1005.82	-29757.2	0.000000	0.000000	7.110485	194.838	NaN	0.000000	0.001609	0.001719	28.0807	64.676	0.001742	37123.6	2.402388	176.463	191.989	1.102237	0.067427	0.067260	194.838	37123.6	0.063491	0.138622	1405.53	91097.6
542	2.000000	1.104394	7.37036e+06	-49989.1	1005.82	-29757.2	0.000000	0.000000	7.112882	204.723	NaN	0.000000	0.001616	0.001724	28.0821	66.5611	0.001740	38254.2	7.247365	171.546	200.906	1.104188	0.069417	0.069211	204.723	38254.2	0.065404	0.145895	1403.22	91502.4
542	2.000000	1.106384	7.37036e+06	-49989.1	1005.82	-29757.2	0.000000	0.000000	7.115584	222.066	NaN	0.000000	0.001654	0.001749	28.0822	68.4654	0.001746	39221.6	6.671041	172.262	218.988	1.106061	0.071407	0.071084	222.066	39221.6	0.067160	0.152729	1453.99	91693.3
542	2.000000	1.108443	7.37036e+06	-49989.1	1005.82	-29757.2	0.000000	0.000000	7.118087	232.837	NaN	0.000000	0.001635	0.001764	28.082	70.1928	0.001714	40951.9	3.749652	174.991	228.934	1.108117	0.073466	0.073140	232.837	40951.9	0.069202	0.160858	1447.47	93288.1
542	2.000000	1.110369	7.37036e+06	-49989.1	1005.82	-29757.2	0.000000	0.000000	7.120577	246.559	NaN	0.000000	0.001626	0.001744	28.0819	72.2978	0.001790	40378.6	8.207745	170.424	241.949	1.110021	0.075392	0.075044	246.559	40378.6	0.070812	0.167408	1472.8	90164.7
542	2.000000	1.112526	7.37036e+06	-49989.1	1005.82	-29757.2	0.000000	0.000000	7.122927	251.249	NaN	0.000000	0.001699	0.001734	28.0819	75.8891	0.001844	41147.8	7.591679	171.106	255.158	1.112145	0.077549	0.077168	251.249	41147.8	0.072970	0.176379	1424.48	89515.2
542	2.000000	1.114338	7.37036e+06	-49989.1	1005.82	-29757.2	0.000000	0.000000	7.125470	269.042	NaN	0.000000	0.001615	0.001753	28.0818	75.2447	0.001675	44927.8	4.721355	172.886	262.965	1.114088	0.079361	0.079111	269.042	44927.8	0.074870	0.184459	1458.54	95573.5
542	2.000000	1.116395	7.37036e+06	-49989.1	1005.82	-29757.2	0.000000	0.000000	7.127869	277.354	NaN	0.000000	0.001649	0.001759	28.0821	78.7049	0.001808	43539.2	3.715695	173.83	273.657	1.116097	0.081418	0.081120	277.354	43539.2	0.076640	0.192143	1443.48	90748.9
542	2.000000	1.118420	7.37036e+06	-49989.1	1005.82	-29757.2	0.000000	0.000000	7.130504	292.188	NaN	0.000000	0.001642	0.001733	28.0822	81.2014	0.001826	44469.5	6.861933	171.919	290.532	1.118058	0.083444	0.083081	292.188	44469.5	0.078516	0.200443	1457.71	90748.5
542	2.000000	1.120371	7.37036e+06	-49989.1	1005.82	-29757.2	0.000000	0.000000	7.133079	307.374	NaN	0.000000	0.001621	0.001765	28.0821	82.8549	0.001723	48081.9	6.689466	170.558	302.228	1.120104	0.085394	0.085127	307.374	48081.9	0.080599	0.209857	1464.68	95894.3
542	2.000000	1.122473	7.37036e+06	-49989.1	1005.82	-29757.2	0.000000	0.000000	7.135733	320.789	NaN	0.000000	0.001635	0.001764	28.0819	84.6705	0.001741	48630	3.888851	173.312	321.384	1.122114	0.087496	0.087137	320.789	48630	0.082549	0.218849	1465.8	94974.1
542	2.000000	1.124337	7.37036e+06	-49989.1	1005.82	-29757.2	0.000000	0.000000	7.138184	335.064	NaN	0.000000	0.001648	0.001766	28.0819	85.5258	0.001827	46816	2.574900	174.62	328.376	1.124171	0.089360	0.089194	335.064	46816	0.083992	0.225617	1485.1	90049.4
542	2.000000	1.126508	7.37036e+06	-49989.1	1005.82	-29757.2	0.000000	0.000000	7.140983	350.313	NaN	0.000000	0.001681	0.001761	28.082	88.9007	0.001890	47027	5.224110	172.399	354.336	1.126187	0.091532	0.091210	350.313	47027	0.085945	0.234929	1491.14	88644.5
542	2.000000	1.128448	7.37036e+06	-49989.1	1005.82	-29757.2	0.000000	0.000000	7.143571	366.069	NaN	0.000000	0.001634	0.001730	28.082	91.0129	0.001810	50277.8	6.509116	170.809	365.416	1.128087	0.093472	0.093110	366.069	50277.8	0.088011	0.244974	1494.32	92808.9
542	2.000000	1.130375	7.37036e+06	-49989.1	1005.82	-29757.2	0.000000	0.000000	7.146245	384.252	NaN	0.000000	0.001661	0.001722	28.0821	91.3788	0.001799	50806.5	7.201210	169.703	380.649	1.130007	0.095398	0.095030	384.252	50806.5	0.089726	0.253461	1516.02	92201.2
542	2.000000	1.132396	7.37036e+06	-49989.1	1005.82	-29757.2	0.000000	0.000000	7.148802	397.298	NaN	0.000000	0.001634	0.001726	28.0819	94.461	0.001727	54688.1	4.945016	171.703	394.999	1.132109	0.097419	0.097132	397.298	54688.1	0.091971	0.264772	1500.53	97102.3
542	2.000000	1.134352	7.37036e+06	-49989.1	1005.82	-29757.2	0.000000	0.000000	7.151340	411.442	NaN	0.000000	0.001670	0.001694	28.0819	94.9616	0.001747	54342.3	5.745578	170.667	407.827	1.134115	0.099375	0.099138	411.442	54342.3	0.093697	0.273629	1503.65	94914
542	2.000000	1.136351	7.37036e+06	-49989.1	1005.82	-29757.2	0.000000	0.000000	7.154081	429.501	NaN	0.000000	0.001643	0.001721	28.082	98.1483	0.001712	57318.7	2.917295	172.919	423.013	1.136051	0.101374	0.101074	429.501	57318.7	0.095754	0.284359	1510.42	98205.6
542	2.000000	1.138400	7.37036e+06	-49989.1	1005.82	-29757.2	0.000000	0.000000	7.156767	444.978	NaN	0.000000	0.001655	0.001742	28.081	101.705	0.001913	53169.7	7.870072	168.553	441.701	1.138029	0.103423	0.103053	444.978	53169.7	0.097147	0.291734	1525.28	89938.1
542	2.000000	1.140398	7.37036e+06	-49989.1	1005.82	-29757.2	0.000000	0.000000	7.159200	455.568	NaN	0.000000	0.001623	0.001728	28.0809	102.904	0.001800	57173.8	7.373172	168.629	453.263	1.140115	0.105421	0.105138	455.568	57173.8	0.099445	0.304098	1498.1	94724.7
542	2.000000	1.140896	7.37036e+06	-49989.1	1005.82	-29757.2	0.000000	0.000000	7.159829	458.748	NaN	0.000000	0.001629	0.001743	28.0809	102.522	0.001772	57848.6	5.165333	-9.397318	455.649	1.140572	0.105920	0.105596	458.748	57848.6	0.099972	0.306966	1494.46	95394