File: remote_trans/data/nanoindenter/0828-1/data/Data_2025-08-06,11h17m57s/2025-07-22_16-23-58_1_366.txt
2025-07-22, 16:23:58, 1
Index	Phase	Displacement	Time	Pos X	Pos Y	Pos Z	Rot A	Rot B	Piezo Z	Force A	Force B	Gripper	Voltage A	Voltage B	Temperature	Amplitude force	Amplitude pos	Stiffness	Phase shift	Phase excitation	Force A raw	Displacement raw	HMax	HMax raw	Real Force	Real Stiffness	Contact Depth	Area	Hardness	Reduced Mod.
[#]	[#]	[um]	[s]	[um]	[um]	[um]	[m°]	[m°]	[um]	[uN]	[uN]	[V]	[V]	[V]	[°C]	[uN]	[um]	[N/m]	[°]	[°]	[uN]	[um]	[um]	[um]	[uN]	[N/m]	[um]	[um^2]	[MPa]	[MPa]
366	1.000000	0.002105	7.36864e+06	-56939.1	955.819	-29738	0.000000	0.000000	6.002809	-0.018703	NaN	0.000000	0.001680	0.001691	28.0824	0.081977	0.000890	92.0601	-84.5616	-160.078	0.014362	0.000783	-1.082331	-1.083653	-0.018703	92.0601	-1.082178	-2.889190E+14	6.473583E-17	NaN
366	1.000000	0.012127	7.36864e+06	-56939.1	955.819	-29738	0.000000	0.000000	6.012828	-0.086552	NaN	0.000000	0.001667	0.001714	28.0824	0.035237	0.001195	29.4935	-90.7897	12.1371	-0.122078	0.010736	-1.072309	-1.073700	-0.086552	29.4935	-1.070108	-1.988998E+14	4.351534E-16	NaN
366	1.000000	0.022083	7.36864e+06	-56939.1	955.819	-29738	0.000000	0.000000	6.022788	0.001331	NaN	0.000000	0.001681	0.001694	28.0822	0.045565	0.001695	26.8777	-171.585	-164.557	0.015675	0.020766	-1.062353	-1.063669	0.001331	26.8777	-1.062390	-1.566534E+14	-8.497899E-18	NaN
366	1.000000	0.032038	7.36864e+06	-56939.1	955.819	-29738	0.000000	0.000000	6.032741	-0.051386	NaN	0.000000	0.001689	0.001706	28.0823	0.037827	0.001864	20.2905	-19.7252	18.0974	-0.062398	0.030706	-1.052397	-1.053730	-0.051386	20.2905	-1.050498	-1.084198E+14	4.739505E-16	NaN
366	1.000000	0.042060	7.36864e+06	-56939.1	955.818	-29738	0.000000	0.000000	6.042764	-0.030929	NaN	0.000000	0.001687	0.001728	28.0828	0.022433	0.001971	11.3835	-46.9191	-164.939	-0.017819	0.040761	-1.042376	-1.043674	-0.030929	11.3835	-1.040338	-7.916109E+13	3.907052E-16	NaN
366	1.000000	0.052078	7.36864e+06	-56939.1	955.818	-29738	0.000000	0.000000	6.052783	-0.002150	NaN	0.000000	0.001681	0.001745	28.0822	0.078357	0.002027	38.6537	-20.6248	12.4846	0.000789	0.050693	-1.032357	-1.033743	-0.002150	38.6537	-1.032315	-6.174808E+13	3.482155E-17	NaN
366	1.000000	0.062075	7.36864e+06	-56939.1	955.819	-29738	0.000000	0.000000	6.062778	-0.056732	NaN	0.000000	0.001676	0.001720	28.0811	0.013171	0.002074	6.350479	124.557	-166.382	-0.041628	0.060696	-1.022361	-1.023739	-0.056732	6.350479	-1.015661	-3.686049E+13	1.539096E-15	NaN
366	1.000000	0.072094	7.36864e+06	-56939.1	955.819	-29738	0.000000	0.000000	6.072798	-0.038991	NaN	0.000000	0.001728	0.001737	28.0812	0.062634	0.001884	33.2516	167.752	14.0252	0.013907	0.070711	-1.012341	-1.013724	-0.038991	33.2516	-1.011462	-3.236366E+13	1.204771E-15	NaN
366	1.000000	0.082082	7.36864e+06	-56939.1	955.819	-29738	0.000000	0.000000	6.082785	-0.062927	NaN	0.000000	0.001685	0.001748	28.0813	0.045337	0.002068	21.9189	12.6658	-167.226	-0.060370	0.080731	-1.002353	-1.003704	-0.062927	21.9189	-1.000200	-2.282780E+13	2.756613E-15	NaN
366	1.000000	0.092086	7.36864e+06	-56939.1	955.818	-29738	0.000000	0.000000	6.092789	-0.032232	NaN	0.000000	0.001663	0.001763	28.0813	0.113571	0.001922	59.0927	77.0709	15.8207	-0.040189	0.090739	-0.992350	-0.993697	-0.032232	59.0927	-0.991941	-1.767055E+13	1.824054E-15	NaN
366	1.000000	0.102050	7.36864e+06	-56939.1	955.819	-29738	0.000000	0.000000	6.102753	-0.041861	NaN	0.000000	0.001764	0.001732	28.0812	0.041581	0.002028	20.503	-123.634	-166.814	-0.097486	0.100797	-0.982385	-0.983638	-0.041861	20.503	-0.980854	-1.252905E+13	3.341121E-15	NaN
366	1.000000	0.112103	7.36864e+06	-56939.1	955.819	-29738	0.000000	0.000000	6.112806	-0.055204	NaN	0.000000	0.001758	0.001718	28.0816	0.009445	0.002100	4.498066	-97.138	15.3938	-0.051321	0.110723	-0.972332	-0.973713	-0.055204	4.498066	-0.963128	-7.228306E+12	7.637154E-15	NaN
366	1.000000	0.122079	7.36864e+06	-56939.1	955.819	-29738	0.000000	0.000000	6.122783	-0.015275	NaN	0.000000	0.001757	0.001706	28.0813	0.024943	0.002051	12.1593	35.1891	-167.211	-0.009675	0.120809	-0.962357	-0.963627	-0.015275	12.1593	-0.961414	-6.853899E+12	2.228631E-15	NaN
366	1.000000	0.132104	7.36864e+06	-56939.1	955.818	-29738	0.000000	0.000000	6.132807	-0.054134	NaN	0.000000	0.001784	0.001731	28.0813	0.102483	0.001868	54.8614	157.722	17.0319	-0.105714	0.130728	-0.952331	-0.953708	-0.054134	54.8614	-0.951591	-5.052303E+12	1.071465E-14	NaN
366	1.000000	0.142048	7.36864e+06	-56939.1	955.819	-29738	0.000000	0.000000	6.142753	0.000763	NaN	0.000000	0.001766	0.001756	28.0812	0.142991	0.002085	68.5666	-171.724	-165.519	0.049534	0.140749	-0.942387	-0.943687	0.000763	68.5666	-0.942396	-3.797162E+12	-2.008150E-16	NaN
366	1.000000	0.152088	7.36864e+06	-56939.1	955.818	-29738	0.000000	0.000000	6.152793	0.001639	NaN	0.000000	0.001775	0.001712	28.0816	0.085213	0.001887	45.1462	161.828	16.8753	0.001134	0.150763	-0.932347	-0.933673	0.001639	45.1462	-0.932374	-2.781269E+12	-5.893377E-16	NaN
366	1.000000	0.162079	7.36864e+06	-56939.1	955.819	-29738	0.000000	0.000000	6.162779	-0.116085	NaN	0.000000	0.001779	0.001730	28.0813	0.109426	0.002039	53.6598	14.9902	-162.721	-0.033111	0.160779	-0.922357	-0.923657	-0.116085	53.6598	-0.920734	-1.936962E+12	5.993144E-14	NaN
366	1.000000	0.172077	7.36864e+06	-56939.1	955.817	-29738	0.000000	0.000000	6.172781	-0.018012	NaN	0.000000	0.001732	0.001729	28.0813	0.040430	0.002143	18.8688	-72.4849	13.5489	-0.006041	0.170751	-0.912359	-0.913684	-0.018012	18.8688	-0.911643	-1.460006E+12	1.233717E-14	NaN
366	1.000000	0.182076	7.36864e+06	-56939.1	955.818	-29738	0.000000	0.000000	6.182781	0.000400	NaN	0.000000	0.001769	0.001740	28.0813	0.040353	0.001919	21.0261	126.467	-164.454	0.076724	0.180776	-0.902359	-0.903660	0.000400	21.0261	-0.902374	-1.094309E+12	-3.658105E-16	NaN
366	1.000000	0.192099	7.36864e+06	-56939.1	955.818	-29738	0.000000	0.000000	6.192803	-0.028561	NaN	0.000000	0.001762	0.001745	28.0813	0.109432	0.001938	56.467	178.881	16.9128	0.046580	0.190780	-0.892336	-0.893656	-0.028561	56.467	-0.891957	-7.913493E+11	3.609137E-14	NaN
366	1.000000	0.202110	7.36864e+06	-56939.1	955.818	-29738	0.000000	0.000000	6.202813	-0.044885	NaN	0.000000	0.001714	0.001750	28.0824	0.083798	0.002109	39.7244	129.727	-167.93	-0.004115	0.200793	-0.882326	-0.883642	-0.044885	39.7244	-0.881479	-5.710874E+11	7.859586E-14	NaN
366	1.000000	0.212113	7.36864e+06	-56939.1	955.818	-29738	0.000000	0.000000	6.212817	-0.015260	NaN	0.000000	0.001750	0.001748	28.0823	0.078785	0.002006	39.2796	-55.2575	13.3961	-0.041405	0.210720	-0.872323	-0.873716	-0.015260	39.2796	-0.872031	-4.255246E+11	3.586264E-14	NaN
366	1.000000	0.222130	7.36864e+06	-56939.1	955.818	-29738	0.000000	0.000000	6.222835	0.003083	NaN	0.000000	0.001736	0.001688	28.0828	0.048432	0.001922	25.202	173.699	-166.014	0.056401	0.220783	-0.862306	-0.863652	0.003083	25.202	-0.862397	-3.151881E+11	-9.782709E-15	NaN
366	1.000000	0.232129	7.36864e+06	-56939.1	955.818	-29738	0.000000	0.000000	6.232834	0.007916	NaN	0.000000	0.001736	0.001726	28.0823	0.029193	0.002006	14.5517	68.9389	15.8003	0.021935	0.230744	-0.852307	-0.853692	0.007916	14.5517	-0.852715	-2.330753E+11	-3.396457E-14	NaN
366	1.000000	0.242183	7.36864e+06	-56939.1	955.818	-29738.1	0.000000	0.000000	6.242885	-0.082484	NaN	0.000000	0.001727	0.001672	28.0823	0.051768	0.002057	25.1705	78.4634	-163.408	-0.012390	0.240798	-0.842253	-0.843637	-0.082484	25.1705	-0.839795	-1.557808E+11	5.294850E-13	NaN
366	1.000000	0.252166	7.36864e+06	-56939.1	955.818	-29738.1	0.000000	0.000000	6.252868	-0.070739	NaN	0.000000	0.001744	0.001757	28.0822	0.077752	0.001954	39.7878	-43.2258	14.8055	-0.023634	0.250733	-0.832269	-0.833703	-0.070739	39.7878	-0.830936	-1.181603E+11	5.986725E-13	NaN
366	1.000000	0.262150	7.36864e+06	-56939.1	955.818	-29738.1	0.000000	0.000000	6.262852	-0.064230	NaN	0.000000	0.001712	0.001731	28.0823	0.058122	0.001950	29.8131	-100.497	-165.69	-0.032403	0.260813	-0.822286	-0.823622	-0.064230	29.8131	-0.820670	-8.576222E+10	7.489368E-13	NaN
366	1.000000	0.272136	7.36864e+06	-56939.1	955.818	-29738.1	0.000000	0.000000	6.272839	-0.038239	NaN	0.000000	0.001690	0.001730	28.0848	0.007547	0.002033	3.711506	50.7945	15.4492	-0.002483	0.270726	-0.812300	-0.813710	-0.038239	3.711506	-0.804572	-5.187086E+10	7.372024E-13	NaN
366	1.000000	0.282134	7.36864e+06	-56939.1	955.819	-29738.1	0.000000	0.000000	6.282836	-0.075962	NaN	0.000000	0.001658	0.001690	28.0833	0.054390	0.001964	27.6905	139.543	-166.23	0.043501	0.280834	-0.802302	-0.803602	-0.075962	27.6905	-0.800244	-4.530858E+10	1.676550E-12	NaN
366	1.000000	0.292173	7.36864e+06	-56939.1	955.818	-29738.1	0.000000	0.000000	6.292875	-0.072123	NaN	0.000000	0.001689	0.001728	28.0824	0.068303	0.001812	37.6848	106.852	15.4271	-0.076767	0.290756	-0.792262	-0.793679	-0.072123	37.6848	-0.790827	-3.375328E+10	2.136781E-12	NaN
366	1.000000	0.302130	7.36864e+06	-56939.1	955.818	-29738.1	0.000000	0.000000	6.302833	-0.053396	NaN	0.000000	0.001606	0.001782	28.0822	0.036602	0.001945	18.8227	-94.8373	-167.579	-0.052674	0.300819	-0.782305	-0.783616	-0.053396	18.8227	-0.780178	-2.419059E+10	2.207301E-12	NaN
366	1.000000	0.312140	7.36864e+06	-56939.1	955.818	-29738.1	0.000000	0.000000	6.312840	-0.115902	NaN	0.000000	0.001614	0.001762	28.0818	0.119934	0.002030	59.0764	-132.675	14.6767	-0.002663	0.310773	-0.772296	-0.773662	-0.115902	59.0764	-0.770825	-1.805162E+10	6.420580E-12	NaN
366	1.000000	0.322139	7.36864e+06	-56939.1	955.818	-29738.1	0.000000	0.000000	6.322842	-0.059182	NaN	0.000000	0.001622	0.001721	28.0821	0.060011	0.001939	30.9523	161.564	-164.771	-0.111935	0.320863	-0.762296	-0.763573	-0.059182	30.9523	-0.760862	-1.321389E+10	4.478759E-12	NaN
366	1.000000	0.332139	7.36864e+06	-56939.1	955.818	-29738.1	0.000000	0.000000	6.332844	-0.003382	NaN	0.000000	0.001605	0.001712	28.0808	0.022620	0.001960	11.5399	-141.833	13.183	-0.077963	0.330780	-0.752297	-0.753656	-0.003382	11.5399	-0.752077	-1.003435E+10	3.370686E-13	NaN
366	1.000000	0.342169	7.36864e+06	-56939.1	955.818	-29738.1	0.000000	0.000000	6.342872	-0.054740	NaN	0.000000	0.001650	0.001707	28.0813	0.058725	0.001959	29.9773	14.53	-165.2	-0.033626	0.340868	-0.742266	-0.743568	-0.054740	29.9773	-0.740897	-7.067574E+9	7.745246E-12	NaN
366	1.000000	0.352183	7.36864e+06	-56939.1	955.817	-29738.1	0.000000	0.000000	6.352888	0.000973	NaN	0.000000	0.001635	0.001771	28.0808	0.055587	0.001931	28.7862	16.0955	13.7753	-0.039128	0.350797	-0.732252	-0.733638	0.000973	28.7862	-0.732278	-5.393232E+9	-1.804388E-13	NaN
366	1.000000	0.362176	7.36864e+06	-56939.1	955.819	-29738.1	0.000000	0.000000	6.362880	-0.029576	NaN	0.000000	0.001698	0.001737	28.081	0.136499	0.002094	65.1989	60.8137	-165.857	-0.035453	0.360864	-0.722259	-0.723572	-0.029576	65.1989	-0.721919	-3.896219E+9	7.590880E-12	NaN
366	1.000000	0.372169	7.36864e+06	-56939.1	955.818	-29738.1	0.000000	0.000000	6.372871	-0.055205	NaN	0.000000	0.001674	0.001728	28.0808	0.110542	0.002087	52.9678	60.9147	15.2513	-0.024805	0.370810	-0.712267	-0.713626	-0.055205	52.9678	-0.711485	-2.807475E+9	1.966340E-11	NaN
366	1.000000	0.382194	7.36864e+06	-56939.1	955.818	-29738.1	0.000000	0.000000	6.382900	0.039628	NaN	0.000000	0.001691	0.001757	28.081	0.082860	0.001961	42.2627	42.7289	-165.023	0.067586	0.380868	-0.702242	-0.703568	0.039628	42.2627	-0.702945	-2.146568E+9	-1.846103E-11	NaN
366	1.000000	0.392182	7.36864e+06	-56939.1	955.818	-29738.1	0.000000	0.000000	6.392885	-0.042956	NaN	0.000000	0.001716	0.001748	28.0807	0.004274	0.001883	2.270430	-93.6002	20.1186	-0.005028	0.390789	-0.692254	-0.693646	-0.042956	2.270430	-0.678064	-9.811277E+8	4.378227E-11	NaN
366	1.000000	0.402189	7.36864e+06	-56939.1	955.818	-29738.1	0.000000	0.000000	6.402896	0.042182	NaN	0.000000	0.001718	0.001726	28.0807	0.044693	0.002064	21.6551	-99.0781	-164.621	-0.030686	0.400937	-0.682247	-0.683499	0.042182	21.6551	-0.683708	-1.171943E+9	-3.599302E-11	NaN
366	1.000000	0.412157	7.36864e+06	-56939.1	955.818	-29738.1	0.000000	0.000000	6.412860	-0.036076	NaN	0.000000	0.001688	0.001747	28.0811	0.118375	0.002018	58.6501	-164.224	15.6448	-0.067648	0.410856	-0.672279	-0.673580	-0.036076	58.6501	-0.671818	-8.058723E+8	4.476659E-11	NaN
366	1.000000	0.422219	7.36864e+06	-56939.1	955.819	-29738.1	0.000000	0.000000	6.422923	-0.032136	NaN	0.000000	0.001691	0.001718	28.0809	0.011553	0.002047	5.643013	-63.8869	-163.537	-0.053115	0.420860	-0.662217	-0.663576	-0.032136	5.643013	-0.657945	-5.203828E+8	6.175489E-11	NaN
366	1.000000	0.432199	7.36864e+06	-56939.1	955.817	-29738.1	0.000000	0.000000	6.432902	-0.054005	NaN	0.000000	0.001681	0.001697	28.0807	0.061495	0.001913	32.14	-163.126	13.3472	0.043026	0.430830	-0.652236	-0.653606	-0.054005	32.14	-0.650976	-4.176562E+8	1.293041E-10	NaN
366	1.000000	0.442224	7.36864e+06	-56939.1	955.819	-29738.1	0.000000	0.000000	6.442927	-0.043713	NaN	0.000000	0.001671	0.001748	28.0807	0.064924	0.002019	32.163	-108.484	-162.535	0.014165	0.440896	-0.642212	-0.643539	-0.043713	32.163	-0.641192	-3.066529E+8	1.425490E-10	NaN
366	1.000000	0.452202	7.36864e+06	-56939.1	955.818	-29738.1	0.000000	0.000000	6.452909	0.047625	NaN	0.000000	0.001690	0.001724	28.0808	0.013815	0.001901	7.265475	-29.3182	19.4469	-0.014018	0.450905	-0.632233	-0.633530	0.047625	7.265475	-0.637150	-2.698840E+8	-1.764651E-10	NaN
366	1.000000	0.462205	7.36864e+06	-56939.1	955.819	-29738.1	0.000000	0.000000	6.462908	-0.050196	NaN	0.000000	0.001659	0.001719	28.0808	0.082182	0.002061	39.8766	47.6676	-164.033	-0.015794	0.460896	-0.622231	-0.623540	-0.050196	39.8766	-0.621287	-1.634259E+8	3.071483E-10	NaN
366	1.000000	0.472239	7.36864e+06	-56939.1	955.818	-29738.1	0.000000	0.000000	6.472945	0.022561	NaN	0.000000	0.001689	0.001728	28.0821	0.026807	0.002034	13.1819	-91.3385	16.6777	0.007947	0.470819	-0.612197	-0.613616	0.022561	13.1819	-0.613480	-1.276409E+8	-1.767517E-10	NaN
366	1.000000	0.482246	7.36864e+06	-56939.1	955.819	-29738.1	0.000000	0.000000	6.482946	-0.133936	NaN	0.000000	0.001638	0.001743	28.0819	0.062568	0.001940	32.2536	54.8129	-166.961	-0.068767	0.480947	-0.602189	-0.603489	-0.133936	32.2536	-0.599075	-8.085692E+7	1.656453E-9	NaN
366	1.000000	0.492225	7.36864e+06	-56939.1	955.819	-29738.1	0.000000	0.000000	6.492930	-0.015285	NaN	0.000000	0.001667	0.001764	28.0821	0.039492	0.001923	20.5346	-168.195	16.7153	-0.020888	0.490930	-0.592210	-0.593506	-0.015285	20.5346	-0.591652	-6.389063E+7	2.392429E-10	NaN
366	1.000000	0.502224	7.36864e+06	-56939.1	955.818	-29738.1	0.000000	0.000000	6.502931	0.045407	NaN	0.000000	0.001655	0.001742	28.0819	0.033532	0.001914	17.5176	25.2147	-168.259	0.084437	0.500893	-0.582211	-0.583543	0.045407	17.5176	-0.584155	-5.035708E+7	-9.016958E-10	NaN
366	1.000000	0.512225	7.36864e+06	-56939.1	955.818	-29738.1	0.000000	0.000000	6.512931	0.008134	NaN	0.000000	0.001668	0.001753	28.0818	0.059112	0.002045	28.9009	62.9811	14.3965	-0.014960	0.510903	-0.572210	-0.573532	0.008134	28.9009	-0.572421	-3.468043E+7	-2.345395E-10	NaN
366	1.000000	0.522225	7.36864e+06	-56939.1	955.819	-29738.1	0.000000	0.000000	6.522928	-0.060077	NaN	0.000000	0.001636	0.001762	28.0817	0.098431	0.002036	48.3378	104.875	-167.427	-0.078033	0.520960	-0.562210	-0.563475	-0.060077	48.3378	-0.561278	-2.432523E+7	2.469746E-9	NaN
366	1.000000	0.532249	7.36864e+06	-56939.1	955.819	-29738.1	0.000000	0.000000	6.532952	-0.032875	NaN	0.000000	0.001649	0.001761	28.0822	0.008963	0.001996	4.489863	87.4685	17.7121	0.005988	0.530895	-0.552187	-0.553541	-0.032875	4.489863	-0.546696	-1.528186E+7	2.151216E-9	NaN
366	1.000000	0.542254	7.36864e+06	-56939.1	955.818	-29738.1	0.000000	0.000000	6.542959	-0.005755	NaN	0.000000	0.001654	0.001784	28.082	0.068163	0.002112	32.2679	-131.585	-164.374	-0.060502	0.540935	-0.542182	-0.543500	-0.005755	32.2679	-0.542048	-1.317512E+7	4.367709E-10	NaN
366	1.000000	0.552268	7.36864e+06	-56939.1	955.818	-29738.1	0.000000	0.000000	6.552969	-0.082194	NaN	0.000000	0.001663	0.001777	28.0822	0.151736	0.002103	72.1545	0.367081	18.9361	-0.003473	0.550922	-0.532168	-0.533514	-0.082194	72.1545	-0.531313	-9.35005e+06	8.790801E-9	NaN
366	1.000000	0.562266	7.36864e+06	-56939.1	955.819	-29738.1	0.000000	0.000000	6.562967	-0.086664	NaN	0.000000	0.001672	0.001750	28.0819	0.118840	0.001975	60.1742	-158.86	-166.526	-0.100908	0.560946	-0.522170	-0.523490	-0.086664	60.1742	-0.521089	-6.74136e+06	1.285558E-8	NaN
366	1.000000	0.572261	7.36864e+06	-56939.1	955.818	-29738.1	0.000000	0.000000	6.572963	-0.058487	NaN	0.000000	0.001679	0.001757	28.0824	0.040891	0.001997	20.4809	75.0757	18.1107	0.020834	0.570926	-0.512175	-0.513510	-0.058487	20.4809	-0.510033	-4.7302e+06	1.236470E-8	NaN
366	1.000000	0.582260	7.36864e+06	-56939.1	955.819	-29738.1	0.000000	0.000000	6.582966	0.028394	NaN	0.000000	0.001722	0.001759	28.0821	0.111976	0.001928	58.0676	-120.603	-165.802	0.008382	0.580956	-0.502175	-0.503480	0.028394	58.0676	-0.502542	-3.71942e+06	-7.634066E-9	NaN
366	1.000000	0.592275	7.36864e+06	-56939.1	955.819	-29738.1	0.000000	0.000000	6.592979	-0.022030	NaN	0.000000	0.001674	0.001749	28.0823	0.026257	0.001880	13.963	-161.881	15.2143	-0.041246	0.590868	-0.492161	-0.493568	-0.022030	13.963	-0.490977	-2.56478e+06	8.589540E-9	NaN
366	1.000000	0.602281	7.36864e+06	-56939.1	955.818	-29738.1	0.000000	0.000000	6.602982	-0.091066	NaN	0.000000	0.001670	0.001766	28.0822	0.139273	0.002120	65.6868	179.115	-165.278	-0.084097	0.600970	-0.482155	-0.483466	-0.091066	65.6868	-0.481115	-1.86695e+06	4.877774E-8	NaN
366	1.000000	0.612263	7.36864e+06	-56939.1	955.818	-29738.1	0.000000	0.000000	6.612968	0.014546	NaN	0.000000	0.001701	0.001778	28.0813	0.105218	0.002046	51.4277	88.9131	11.7687	0.028812	0.610903	-0.472173	-0.473533	0.014546	51.4277	-0.472385	-1.4088e+06	-1.032499E-8	NaN
366	1.000000	0.622272	7.36864e+06	-56939.1	955.819	-29738.1	0.000000	0.000000	6.622973	-0.097903	NaN	0.000000	0.001685	0.001791	28.0808	0.030373	0.001994	15.2332	-119.473	-166.899	0.023027	0.620953	-0.462163	-0.463482	-0.097903	15.2332	-0.457343	-866304	1.130126E-7	NaN
366	1.000000	0.632288	7.36864e+06	-56939.1	955.818	-29738.1	0.000000	0.000000	6.632993	0.013118	NaN	0.000000	0.001686	0.001824	28.081	0.071885	0.002034	35.3471	103.041	16.8368	0.008007	0.630940	-0.452148	-0.453496	0.013118	35.3471	-0.452426	-738756	-1.775677E-8	NaN
366	1.000000	0.642313	7.36864e+06	-56939.1	955.817	-29738.1	0.000000	0.000000	6.643015	-0.091664	NaN	0.000000	0.001670	0.001808	28.0811	0.102649	0.002075	49.4713	31.3199	-163.661	-0.022619	0.641019	-0.442122	-0.443416	-0.091664	49.4713	-0.440733	-505478	1.813416E-7	NaN
366	1.000000	0.652318	7.36864e+06	-56939.1	955.818	-29738.1	0.000000	0.000000	6.653026	0.051662	NaN	0.000000	0.001751	0.001757	28.0811	0.015159	0.001878	8.069576	149.68	14.6744	0.022195	0.650973	-0.432117	-0.433463	0.051662	8.069576	-0.436919	-446539	-1.156947E-7	NaN
366	1.000000	0.662282	7.36864e+06	-56939.1	955.818	-29738.1	0.000000	0.000000	6.662987	0.009685	NaN	0.000000	0.001756	0.001814	28.0808	0.071203	0.001935	36.7921	133.402	-166.923	-0.050495	0.661020	-0.422154	-0.423415	0.009685	36.7921	-0.422351	-277812	-3.486174E-8	NaN
366	1.000000	0.672276	7.36864e+06	-56939.1	955.819	-29738.1	0.000000	0.000000	6.672978	-0.074153	NaN	0.000000	0.001771	0.001744	28.0811	0.041574	0.002014	20.6388	-145.727	16.003	-0.092809	0.670967	-0.412160	-0.413469	-0.074153	20.6388	-0.409465	-182304	4.067565E-7	NaN
366	1.000000	0.682326	7.36864e+06	-56939.1	955.818	-29738.1	0.000000	0.000000	6.683029	-0.047326	NaN	0.000000	0.001761	0.001731	28.0811	0.101382	0.002061	49.1875	-17.0508	-164.643	0.005404	0.680996	-0.402110	-0.403439	-0.047326	49.1875	-0.401388	-139890	3.383056E-7	NaN
366	1.000000	0.692357	7.36864e+06	-56939.1	955.818	-29738.1	0.000000	0.000000	6.693062	-0.008405	NaN	0.000000	0.001727	0.001742	28.0812	0.040436	0.001971	20.5203	-167.85	15.1514	-0.043150	0.691031	-0.392079	-0.393405	-0.008405	20.5203	-0.391771	-101976	8.242204E-8	NaN
366	1.000000	0.702310	7.36864e+06	-56939.1	955.819	-29738.1	0.000000	0.000000	6.703015	-0.007748	NaN	0.000000	0.001792	0.001750	28.0807	0.017040	0.002065	8.250612	38.0212	-167.027	-0.003013	0.701029	-0.382126	-0.383407	-0.007748	8.250612	-0.381421	-72490.4	1.068845E-7	NaN
366	1.000000	0.712339	7.36864e+06	-56939.1	955.819	-29738.1	0.000000	0.000000	6.713044	-0.008099	NaN	0.000000	0.001797	0.001764	28.0809	0.047323	0.002051	23.0774	6.243008	14.7899	0.011047	0.711009	-0.372096	-0.373427	-0.008099	23.0774	-0.371833	-52786.1	1.534399E-7	NaN
366	1.000000	0.722317	7.36864e+06	-56939.1	955.819	-29738.1	0.000000	0.000000	6.723022	0.001796	NaN	0.000000	0.001759	0.001767	28.081	0.007864	0.002133	3.686265	152.26	-161.734	0.011541	0.720996	-0.362119	-0.363439	0.001796	3.686265	-0.362484	-38702.1	-4.639755E-8	NaN
366	1.000000	0.732338	7.36864e+06	-56939.1	955.818	-29738.1	0.000000	0.000000	6.733042	-0.036724	NaN	0.000000	0.001747	0.001746	28.0809	0.102657	0.002021	50.785	38.4431	12.7185	-0.039019	0.731036	-0.352097	-0.353399	-0.036724	50.785	-0.351555	-26888.3	1.365816E-6	NaN
366	1.000000	0.742351	7.36864e+06	-56939.1	955.817	-29738.1	0.000000	0.000000	6.743055	-0.024891	NaN	0.000000	0.001779	0.001768	28.0821	0.025247	0.001932	13.0667	-4.766939	-165.497	-0.021489	0.741028	-0.342085	-0.343408	-0.024891	13.0667	-0.340656	-18668.9	1.333271E-6	NaN
366	1.000000	0.752349	7.36864e+06	-56939.1	955.818	-29738.1	0.000000	0.000000	6.753051	-0.091660	NaN	0.000000	0.001744	0.001701	28.0823	0.024718	0.001948	12.6867	-104.364	16.4349	-0.118708	0.751030	-0.332086	-0.333405	-0.091660	12.6867	-0.326667	-11657.5	7.862693E-6	NaN
366	1.000000	0.762343	7.36864e+06	-56939.1	955.819	-29738.1	0.000000	0.000000	6.763047	-0.013222	NaN	0.000000	0.001784	0.001740	28.0821	0.079111	0.002067	38.2685	173.354	-163.86	-0.012360	0.761040	-0.322093	-0.323396	-0.013222	38.2685	-0.321833	-9899.45	1.335667E-6	NaN
366	1.000000	0.772332	7.36864e+06	-56939.1	955.819	-29738.1	0.000000	0.000000	6.773038	0.017893	NaN	0.000000	0.001782	0.001740	28.0821	0.136627	0.002019	67.6682	-124.817	14.6004	0.033479	0.771024	-0.312103	-0.313412	0.017893	67.6682	-0.312302	-7163.05	-2.497924E-6	NaN
366	1.000000	0.782366	7.36864e+06	-56939.1	955.818	-29738.1	0.000000	0.000000	6.783070	-0.032186	NaN	0.000000	0.001765	0.001761	28.0821	0.019729	0.002069	9.535614	-24.512	-163.091	0.009285	0.781032	-0.302070	-0.303404	-0.032186	9.535614	-0.299538	-4631.9	6.948705E-6	NaN
366	1.000000	0.792364	7.36864e+06	-56939.1	955.818	-29738.1	0.000000	0.000000	6.793067	-0.034295	NaN	0.000000	0.001737	0.001745	28.0824	0.142193	0.001989	71.5028	-165.159	13.8613	0.043984	0.790976	-0.292072	-0.293460	-0.034295	71.5028	-0.291712	-3539.47	9.689405E-6	NaN
366	1.000000	0.802370	7.36864e+06	-56939.1	955.818	-29738.1	0.000000	0.000000	6.803073	-0.051308	NaN	0.000000	0.001783	0.001794	28.082	0.023774	0.001858	12.7937	58.1859	-166.01	-0.053295	0.801064	-0.282065	-0.283371	-0.051308	12.7937	-0.279058	-2284.28	2.246126E-5	NaN
366	1.000000	0.812336	7.36864e+06	-56939.1	955.818	-29738.1	0.000000	0.000000	6.813041	0.013087	NaN	0.000000	0.001794	0.001777	28.0821	0.044603	0.001995	22.356	-173.613	15.654	-0.018506	0.811007	-0.272100	-0.273429	0.013087	22.356	-0.272539	-1820.13	-7.190139E-6	NaN
366	1.000000	0.822365	7.36865e+06	-56939.1	955.818	-29738.1	0.000000	0.000000	6.823071	0.024033	NaN	0.000000	0.001707	0.001765	28.0821	0.096496	0.002066	46.7049	-154.203	-166.845	0.003130	0.821025	-0.262071	-0.263410	0.024033	46.7049	-0.262456	-1277.99	-1.880541E-5	NaN
366	1.000000	0.832355	7.36865e+06	-56939.1	955.818	-29738.1	0.000000	0.000000	6.833059	-0.023961	NaN	0.000000	0.001733	0.001768	28.0822	0.082789	0.001932	42.8543	96.6149	15.514	-0.102368	0.831083	-0.252080	-0.253352	-0.023961	42.8543	-0.251661	-872.234	2.747130E-5	NaN
366	1.000000	0.842368	7.36865e+06	-56939.1	955.817	-29738.1	0.000000	0.000000	6.843070	-0.072171	NaN	0.000000	0.001731	0.001826	28.0823	0.049770	0.001927	25.8234	-109.315	-165.729	-0.005105	0.841132	-0.242068	-0.243303	-0.072171	25.8234	-0.239972	-574.262	0.000126	NaN
366	1.000000	0.852420	7.36865e+06	-56939.1	955.819	-29738.1	0.000000	0.000000	6.853122	-0.054125	NaN	0.000000	0.001730	0.001755	28.082	0.043251	0.002058	21.0185	-23.2395	16.3426	-0.053414	0.850989	-0.232016	-0.233446	-0.054125	21.0185	-0.230085	-401.655	0.000135	NaN
366	1.000000	0.862399	7.36865e+06	-56939.1	955.818	-29738.1	0.000000	0.000000	6.863106	0.027653	NaN	0.000000	0.001708	0.001810	28.0824	0.078547	0.002047	38.3783	-11.1589	-166.327	0.000273	0.861043	-0.222036	-0.223393	0.027653	38.3783	-0.222577	-305.342	-9.056366E-5	NaN
366	1.000000	0.872394	7.36865e+06	-56939.1	955.819	-29738.1	0.000000	0.000000	6.873096	-0.070723	NaN	0.000000	0.001710	0.001791	28.0822	0.108068	0.001929	56.0308	-50.89	16.8481	0.001613	0.871015	-0.212042	-0.213421	-0.070723	56.0308	-0.211095	-199.777	0.000354	NaN
366	1.000000	0.882397	7.36865e+06	-56939.1	955.818	-29738.1	0.000000	0.000000	6.883100	-0.046092	NaN	0.000000	0.001721	0.001792	28.0811	0.095237	0.002077	45.8439	-144.07	-166.046	-0.086117	0.881104	-0.202038	-0.203332	-0.046092	45.8439	-0.201284	-138.288	0.000333	NaN
366	1.000000	0.892361	7.36865e+06	-56939.1	955.818	-29738.1	0.000000	0.000000	6.893066	0.004621	NaN	0.000000	0.001723	0.001812	28.0806	0.048920	0.001980	24.7029	-87.5431	12.6819	0.063426	0.891018	-0.192074	-0.193417	0.004621	24.7029	-0.192215	-97.9389	-4.718237E-5	NaN
366	1.000000	0.902397	7.36865e+06	-56939.1	955.818	-29738.1	0.000000	0.000000	6.903101	-0.025893	NaN	0.000000	0.001651	0.001786	28.0813	0.079474	0.002070	38.3857	-117.581	-162.329	-0.099919	0.901139	-0.182038	-0.183296	-0.025893	38.3857	-0.181533	-64.7893	0.000400	NaN
366	1.000000	0.912428	7.36865e+06	-56939.1	955.819	-29738.1	0.000000	0.000000	6.913132	-0.016822	NaN	0.000000	0.001729	0.001798	28.081	0.115201	0.001934	59.5531	-5.720176	17.2506	-0.041255	0.911016	-0.172008	-0.173419	-0.016822	59.5531	-0.171796	-44.1303	0.000381	NaN
366	1.000000	0.922431	7.36865e+06	-56939.1	955.818	-29738.1	0.000000	0.000000	6.923136	-0.021061	NaN	0.000000	0.001701	0.001774	28.081	0.072608	0.002023	35.8935	70.0135	-164.91	-0.098164	0.921145	-0.162004	-0.163290	-0.021061	35.8935	-0.161564	-29.2231	0.000721	NaN
366	1.000000	0.932421	7.36865e+06	-56939.1	955.819	-29738.1	0.000000	0.000000	6.933123	-0.084217	NaN	0.000000	0.001691	0.001777	28.0809	0.053438	0.002112	25.3005	106.49	13.1177	0.050296	0.931063	-0.152014	-0.153372	-0.084217	25.3005	-0.149518	-17.7504	0.004745	NaN
366	1.000000	0.942442	7.36865e+06	-56939.1	955.819	-29738.1	0.000000	0.000000	6.943145	-0.051615	NaN	0.000000	0.001734	0.001790	28.081	0.125397	0.001926	65.1046	138.034	-164.556	-0.023212	0.941135	-0.141994	-0.143301	-0.051615	65.1046	-0.141399	-12.5658	0.004108	NaN
366	1.000000	0.952440	7.36865e+06	-56939.1	955.818	-29738.1	0.000000	0.000000	6.953143	-0.043938	NaN	0.000000	0.001703	0.001786	28.0808	0.062119	0.001909	32.5468	-138.57	16.5603	-0.006307	0.951101	-0.131996	-0.133334	-0.043938	32.5468	-0.130984	-7.963116	0.005518	NaN
366	1.000000	0.962454	7.36865e+06	-56939.1	955.819	-29738.1	0.000000	0.000000	6.963155	-0.077594	NaN	0.000000	0.001693	0.001786	28.0808	0.091361	0.002075	44.0278	52.9513	-167.15	-0.093266	0.961167	-0.121982	-0.123269	-0.077594	44.0278	-0.120660	-4.981827	0.015575	NaN
366	1.000000	0.972423	7.36865e+06	-56939.1	955.819	-29738.1	0.000000	0.000000	6.973127	-0.029713	NaN	0.000000	0.001692	0.001785	28.0808	0.034017	0.001990	17.0932	-91.9248	15.7856	-0.001815	0.971079	-0.112012	-0.113356	-0.029713	17.0932	-0.110709	-3.110208	0.009553	NaN
366	1.000000	0.982419	7.36865e+06	-56939.1	955.819	-29738.1	0.000000	0.000000	6.983121	-0.083031	NaN	0.000000	0.001756	0.001813	28.0808	0.019654	0.002011	9.774627	-15.5892	-161.028	-0.072581	0.981123	-0.102016	-0.103313	-0.083031	9.774627	-0.095645	-1.459134	0.056904	NaN
366	1.000000	0.992429	7.36865e+06	-56939.1	955.819	-29738.1	0.000000	0.000000	6.993131	-0.060451	NaN	0.000000	0.001715	0.001750	28.0808	0.047415	0.001964	24.1422	-116.219	13.1059	0.001299	0.991043	-0.092007	-0.093393	-0.060451	24.1422	-0.090129	-1.088537	0.055534	NaN
366	1.000000	1.002440	7.36865e+06	-56939.1	955.818	-29738.1	0.000000	0.000000	7.003148	0.072350	NaN	0.000000	0.001694	0.001781	28.0808	0.053683	0.002046	26.24	-36.3006	-164.497	0.054463	1.001118	-0.081995	-0.083317	0.072350	26.24	-0.084063	-0.779717	-0.092790	NaN
366	1.000000	1.012475	7.36865e+06	-56939.1	955.819	-29738.1	0.000000	0.000000	7.013180	0.012379	NaN	0.000000	0.001679	0.001789	28.0811	0.083248	0.002047	40.6712	-114.832	11.6347	0.013513	1.011071	-0.071961	-0.073364	0.012379	40.6712	-0.072189	-0.390016	-0.031740	NaN
366	1.000000	1.022450	7.36865e+06	-56939.1	955.819	-29738.1	0.000000	0.000000	7.023153	-0.044359	NaN	0.000000	0.001690	0.001807	28.082	0.054464	0.001990	27.3649	-25.6278	-165.113	-0.069769	1.021140	-0.061985	-0.063295	-0.044359	27.3649	-0.060770	-0.189461	0.234130	NaN
366	1.000000	1.032479	7.36865e+06	-56939.1	955.82	-29738.1	0.000000	0.000000	7.033185	0.020669	NaN	0.000000	0.001665	0.001796	28.0822	0.026741	0.001964	13.6184	-15.9832	15.652	-0.059673	1.031101	-0.051957	-0.053335	0.020669	13.6184	-0.053095	-0.113045	-0.182841	NaN
366	1.000000	1.042442	7.36865e+06	-56939.1	955.82	-29738.1	0.000000	0.000000	7.043145	-0.051000	NaN	0.000000	0.001681	0.001780	28.0822	0.070926	0.002099	33.785	-1.609400	-165.205	0.033581	1.041188	-0.041993	-0.043247	-0.051000	33.785	-0.040861	-0.048032	1.061774	NaN
366	1.000000	1.052441	7.36865e+06	-56939.1	955.819	-29738.1	0.000000	0.000000	7.053143	-0.053640	NaN	0.000000	0.001701	0.001800	28.0822	0.038959	0.001960	19.8719	158.158	15.1815	-0.072162	1.051090	-0.031995	-0.033346	-0.053640	19.8719	-0.029970	-0.022969	2.335311	NaN
366	1.000000	1.062465	7.36865e+06	-56939.1	955.819	-29738.1	0.000000	0.000000	7.063168	-0.058235	NaN	0.000000	0.001682	0.001744	28.082	0.069126	0.001880	36.7788	-9.520230	-165.346	-0.016597	1.061174	-0.021970	-0.023262	-0.058235	36.7788	-0.020783	-0.013150	4.428540	NaN
366	1.000000	1.072471	7.36865e+06	-56939.1	955.819	-29738.1	0.000000	0.000000	7.073177	0.010255	NaN	0.000000	0.001685	0.001805	28.0823	0.051237	0.001918	26.715	-76.8455	13.6676	-0.018672	1.071105	-0.011964	-0.013330	0.010255	26.715	-0.012252	-0.007673	-1.336527	NaN
366	1.000000	1.082491	7.36865e+06	-56939.1	955.82	-29738.1	0.000000	0.000000	7.083193	-0.067340	NaN	0.000000	0.001754	0.001772	28.0823	0.065980	0.002060	32.0339	173.514	-162.935	-0.055082	1.081165	-0.001945	-0.003270	-0.067340	32.0339	-0.000368	-0.000273	246.642	NaN
366	1.000000	1.092449	7.36865e+06	-56939.1	955.82	-29738.1	0.000000	0.000000	7.093366	5.150691	NaN	0.000000	0.001738	0.001785	28.0823	6.309122	0.001641	3843.54	13.5371	8.617849	4.001287	1.091145	0.008014	0.006709	5.150691	3843.54	0.007009	0.006043	852.405	45174.7
366	2.000000	1.097950	7.36865e+06	-56939.1	955.82	-29738.1	0.000000	0.000000	7.099133	11.6053	NaN	0.000000	0.001750	0.001775	28.0821	11.0972	0.001462	7592.23	4.498978	-171.864	11.1968	1.097647	0.013515	0.013211	11.6053	7592.23	0.012368	0.011934	972.455	63496.4
366	2.000000	1.100448	7.36865e+06	-56939.1	955.819	-29738.1	0.000000	0.000000	7.101775	15.1186	NaN	0.000000	0.001731	0.001749	28.0831	14.4965	0.001677	8644.99	5.350251	8.242520	14.944	1.100170	0.016013	0.015734	15.1186	8644.99	0.014701	0.014889	1015.42	64729.8
366	2.000000	1.102958	7.36865e+06	-56939.1	955.819	-29738.1	0.000000	0.000000	7.104401	17.9183	NaN	0.000000	0.001749	0.001822	28.0823	17.1868	0.001861	9235.25	6.090703	-172.531	19.6517	1.102605	0.018523	0.018170	17.9183	9235.25	0.017068	0.018142	987.652	62643.5
366	2.000000	1.105412	7.36865e+06	-56939.1	955.819	-29738.1	0.000000	0.000000	7.107022	21.9929	NaN	0.000000	0.001706	0.001818	28.0829	19.1149	0.001775	10770.5	4.545091	7.219632	20.7881	1.105085	0.020977	0.020650	21.9929	10770.5	0.019445	0.021678	1014.53	66834
366	2.000000	1.107903	7.36865e+06	-56939.1	955.819	-29738.1	0.000000	0.000000	7.109734	27.3825	NaN	0.000000	0.001649	0.001756	28.0822	21.6336	0.001717	12600.1	6.523862	-176.737	26.4855	1.107606	0.023467	0.023171	27.3825	12600.1	0.021837	0.025512	1073.32	72073.8
366	2.000000	1.110337	7.36865e+06	-56939.1	955.82	-29738.1	0.000000	0.000000	7.112331	31.3227	NaN	0.000000	0.001640	0.001750	28.0818	24.5322	0.001835	13367.6	4.823088	3.959267	28.0854	1.110027	0.025902	0.025591	31.3227	13367.6	0.024144	0.029477	1062.61	71135.4
366	2.000000	1.112898	7.36865e+06	-56939.1	955.82	-29738.1	0.000000	0.000000	7.115046	35.0717	NaN	0.000000	0.001692	0.001741	28.0811	26.9386	0.001847	14584.3	5.022352	-175.972	34.6726	1.112527	0.028462	0.028092	35.0717	14584.3	0.026658	0.034102	1028.43	72155.3
366	2.000000	1.115430	7.36865e+06	-56939.1	955.82	-29738.1	0.000000	0.000000	7.117966	44.5056	NaN	0.000000	0.001684	0.001764	28.0829	28.6822	0.001812	15824.9	6.487989	1.983421	44.804	1.114967	0.030994	0.030532	44.5056	15824.9	0.028885	0.038464	1157.06	73720
366	2.000000	1.117859	7.36865e+06	-56939.1	955.819	-29738.1	0.000000	0.000000	7.120616	49.8936	NaN	0.000000	0.001714	0.001755	28.0811	30.8133	0.001651	18667.8	5.927418	178.985	48.4565	1.117547	0.033423	0.033111	49.8936	18667.8	0.031419	0.043735	1140.81	81554.9
366	2.000000	1.120324	7.36865e+06	-56939.1	955.82	-29738.1	0.000000	0.000000	7.123422	58.16	NaN	0.000000	0.001668	0.001788	28.0823	35.1261	0.001732	20281.3	7.629661	-3.346287	55.9086	1.119968	0.035889	0.035533	58.16	20281.3	0.033738	0.048849	1190.62	83838.3
366	2.000000	1.122882	7.36865e+06	-56939.1	955.82	-29738.1	0.000000	0.000000	7.126255	64.8615	NaN	0.000000	0.001634	0.001804	28.0811	38.0424	0.001885	20180.7	4.051203	-179.041	65.0769	1.122578	0.038446	0.038142	64.8615	20180.7	0.036036	0.054185	1197.03	79208
366	2.000000	1.125348	7.36865e+06	-56939.1	955.819	-29738.1	0.000000	0.000000	7.129051	72.8759	NaN	0.000000	0.001680	0.001791	28.0815	40.8764	0.001800	22706	7.666506	-4.155806	70.7201	1.125002	0.040912	0.040566	72.8759	22706	0.038505	0.060222	1210.11	84534.6
366	2.000000	1.127826	7.36865e+06	-56939.1	955.821	-29738.1	0.000000	0.000000	7.132073	86.0823	NaN	0.000000	0.001653	0.001800	28.0811	42.6185	0.001782	23921.7	6.145371	177.593	83.929	1.127466	0.043391	0.043030	86.0823	23921.7	0.040692	0.065829	1307.67	85184
366	2.000000	1.130366	7.36865e+06	-56939.1	955.819	-29738.1	0.000000	0.000000	7.134955	94.4023	NaN	0.000000	0.001679	0.001766	28.0823	46.502	0.001895	24543.4	5.881121	-2.204375	95.2925	1.129985	0.045931	0.045550	94.4023	24543.4	0.043046	0.072137	1308.66	83489
366	2.000000	1.132868	7.36865e+06	-56939.1	955.82	-29738.1	0.000000	0.000000	7.137539	96.4053	NaN	0.000000	0.001681	0.001749	28.081	48.7833	0.001862	26201.5	1.643855	-179.825	95.4326	1.132719	0.048432	0.048284	96.4053	26201.5	0.045673	0.079509	1212.5	84896.7
366	2.000000	1.135371	7.36865e+06	-56939.1	955.82	-29738.1	0.000000	0.000000	7.140794	114.663	NaN	0.000000	0.001657	0.001786	28.0813	50.6853	0.001728	29329.4	5.493393	-3.455257	112.678	1.134902	0.050936	0.050467	114.663	29329.4	0.048003	0.086342	1328.01	91193.9
366	2.000000	1.137870	7.36865e+06	-56939.1	955.819	-29738.1	0.000000	0.000000	7.143892	129.227	NaN	0.000000	0.001681	0.001828	28.0809	53.6072	0.001757	30509.6	7.471351	173.478	130.168	1.137501	0.053435	0.053065	129.227	30509.6	0.050258	0.093212	1386.37	91300.7
366	2.000000	1.140355	7.36865e+06	-56939.1	955.82	-29738.1	0.000000	0.000000	7.146719	137.529	NaN	0.000000	0.001675	0.001827	28.0816	55.9258	0.001760	31782.6	5.535562	-4.436302	137.768	1.140071	0.055920	0.055635	137.529	31782.6	0.052675	0.100859	1363.58	91433.6
366	2.000000	1.142792	7.36865e+06	-56939.1	955.819	-29738.1	0.000000	0.000000	7.149820	153.701	NaN	0.000000	0.001685	0.001805	28.0811	59.0477	0.001875	31487.7	6.915161	174.369	151.303	1.142538	0.058356	0.058102	153.701	31487.7	0.054695	0.107476	1430.1	87752.4
366	2.000000	1.145343	7.36865e+06	-56939.1	955.819	-29738.1	0.000000	0.000000	7.153010	169.208	NaN	0.000000	0.001672	0.001790	28.0825	60.851	0.001853	32844.9	3.854140	-1.914576	167.084	1.144876	0.060908	0.060440	169.208	32844.9	0.057044	0.115422	1466	88327.7
366	2.000000	1.147808	7.36865e+06	-56939.1	955.819	-29738.1	0.000000	0.000000	7.155928	180.219	NaN	0.000000	0.001690	0.001768	28.0823	63.7806	0.001811	35216.2	7.665038	172.619	179.24	1.147542	0.063373	0.063107	180.219	35216.2	0.059534	0.124144	1451.69	91317.1
366	2.000000	1.150309	7.36865e+06	-56939.1	955.819	-29738.1	0.000000	0.000000	7.158939	192.622	NaN	0.000000	0.001662	0.001761	28.0825	66.2499	0.001811	36572.1	4.851677	-4.286556	190.603	1.150035	0.065873	0.065600	192.622	36572.1	0.061923	0.132795	1450.53	91692.3
366	2.000000	1.152827	7.36865e+06	-56939.1	955.82	-29738.1	0.000000	0.000000	7.162023	206.38	NaN	0.000000	0.001676	0.001785	28.0823	69.8483	0.001891	36940.6	6.451207	173.084	204.365	1.152516	0.068392	0.068080	206.38	36940.6	0.064201	0.141304	1460.54	89784.4
366	2.000000	1.155240	7.36865e+06	-56939.1	955.82	-29738.1	0.000000	0.000000	7.165365	228.957	NaN	0.000000	0.001701	0.001765	28.0823	69.577	0.001757	39608	2.307821	-2.106105	224.111	1.154779	0.070804	0.070344	228.957	39608	0.066469	0.150021	1526.16	93428.5
366	2.000000	1.157814	7.36865e+06	-56939.1	955.82	-29738.1	0.000000	0.000000	7.168329	238.448	NaN	0.000000	0.001756	0.001786	28.0826	73.4096	0.001835	40009.5	6.491377	172.372	236.112	1.157566	0.073378	0.073131	238.448	40009.5	0.068908	0.159675	1493.33	91478.2
366	2.000000	1.160259	7.36865e+06	-56939.1	955.822	-29738.1	0.000000	0.000000	7.171656	259.894	NaN	0.000000	0.001750	0.001785	28.0824	76.1232	0.001761	43224.3	6.121360	-7.502024	255.642	1.159825	0.075823	0.075389	259.894	43224.3	0.071313	0.169472	1533.55	95929.5
366	2.000000	1.162720	7.36865e+06	-56939.1	955.821	-29738.1	0.000000	0.000000	7.174564	270.726	NaN	0.000000	0.001796	0.001786	28.0823	80.5688	0.001901	42378.4	8.063240	170.535	265.444	1.162442	0.078285	0.078006	270.726	42378.4	0.073494	0.178589	1515.91	91620
366	2.000000	1.165223	7.36865e+06	-56939.1	955.82	-29738.1	0.000000	0.000000	7.177885	290.629	NaN	0.000000	0.001748	0.001837	28.0823	81.1274	0.001887	42999.1	5.188153	-6.502510	282.595	1.164816	0.080787	0.080381	290.629	42999.1	0.075718	0.188124	1544.88	90575.5
366	2.000000	1.167714	7.36865e+06	-56939.1	955.821	-29738.1	0.000000	0.000000	7.181305	313.19	NaN	0.000000	0.001761	0.001804	28.0825	83.4647	0.001796	46471.7	6.601537	171.561	308.556	1.167403	0.083278	0.082968	313.19	46471.7	0.078224	0.199141	1572.7	95144
366	2.000000	1.170286	7.36865e+06	-56939.1	955.821	-29738.1	0.000000	0.000000	7.184449	327.089	NaN	0.000000	0.001720	0.001822	28.0824	86.6073	0.001801	48094.2	5.452423	-7.428343	323.687	1.169908	0.085851	0.085472	327.089	48094.2	0.080750	0.210546	1553.53	95762
366	2.000000	1.172784	7.36865e+06	-56939.1	955.821	-29738.1	0.000000	0.000000	7.187599	342.962	NaN	0.000000	0.001758	0.001805	28.0824	87.9686	0.001661	52952.6	2.505161	174.566	341.846	1.172581	0.088348	0.088145	342.962	52952.6	0.083491	0.223254	1536.2	102391
366	2.000000	1.175404	7.36865e+06	-56939.1	955.821	-29738.1	0.000000	0.000000	7.191078	363.819	NaN	0.000000	0.001747	0.001800	28.0824	90.7789	0.001802	50387.3	4.543959	-6.957209	365.255	1.174987	0.090969	0.090551	363.819	50387.3	0.085553	0.233048	1561.14	95361.2
366	2.000000	1.177831	7.36865e+06	-56939.1	955.82	-29738.1	0.000000	0.000000	7.194571	389.741	NaN	0.000000	0.001762	0.001786	28.0823	92.9365	0.001862	49905.9	3.672965	174.348	390.784	1.177365	0.093396	0.092929	389.741	49905.9	0.087538	0.242659	1606.12	92560.7
366	2.000000	1.180280	7.36865e+06	-56939.1	955.82	-29738.1	0.000000	0.000000	7.197045	390.336	NaN	0.000000	0.001706	0.001800	28.0814	95.806	0.001762	54377.6	4.023946	-7.462368	387.223	1.180135	0.095845	0.095700	390.336	54377.6	0.090461	0.257139	1518	97973.7
366	2.000000	1.182785	7.36865e+06	-56939.1	955.821	-29738.1	0.000000	0.000000	7.200881	422.697	NaN	0.000000	0.001731	0.001806	28.0813	100.045	0.001811	55230	7.404019	169.778	423.385	1.182450	0.098350	0.098014	422.697	55230	0.092610	0.268035	1577.03	97466
366	2.000000	1.185231	7.36865e+06	-56939.1	955.82	-29738.1	0.000000	0.000000	7.204234	444.742	NaN	0.000000	0.001706	0.001794	28.0814	100.71	0.001896	53115.2	4.627073	-7.254564	438.174	1.184932	0.100795	0.100496	444.742	53115.2	0.094515	0.277874	1600.51	92059.3
366	2.000000	1.187795	7.36865e+06	-56939.1	955.82	-29738.1	0.000000	0.000000	7.207576	463.648	NaN	0.000000	0.001739	0.001779	28.0813	103.309	0.001784	57896.8	7.403936	169.105	465.238	1.187431	0.103359	0.102995	463.648	57896.8	0.097353	0.292836	1583.3	97749.7
366	2.000000	1.190269	7.36865e+06	-56939.1	955.821	-29738.1	0.000000	0.000000	7.211028	487.434	NaN	0.000000	0.001704	0.001787	28.0813	106.128	0.001898	55920.9	6.166285	-9.151930	483.635	1.189830	0.105833	0.105395	487.434	55920.9	0.099296	0.303287	1607.17	92772.8
366	2.000000	1.192716	7.36865e+06	-56939.1	955.82	-29738.1	0.000000	0.000000	7.214087	502.307	NaN	0.000000	0.001734	0.001785	28.0813	106.877	0.001748	61149.5	1.291591	174.95	498.932	1.192457	0.108280	0.108022	502.307	61149.5	0.102120	0.318787	1575.68	98950
366	2.000000	1.194692	7.36865e+06	-56939.1	955.821	-29738.1	0.000000	0.000000	7.217322	532.895	NaN	0.000000	0.001736	0.001792	28.0816	108.24	0.001779	60850.6	5.620268	170.749	527.165	1.194257	0.110256	0.109822	532.895	60850.6	0.103688	0.327554	1626.89	97139.6