File: remote_trans/data/nanoindenter/0828-1/data/Data_2025-08-06,11h17m57s/2025-07-22_16-23-58_1_727.txt
2025-07-22, 16:23:58, 1
Index	Phase	Displacement	Time	Pos X	Pos Y	Pos Z	Rot A	Rot B	Piezo Z	Force A	Force B	Gripper	Voltage A	Voltage B	Temperature	Amplitude force	Amplitude pos	Stiffness	Phase shift	Phase excitation	Force A raw	Displacement raw	HMax	HMax raw	Real Force	Real Stiffness	Contact Depth	Area	Hardness	Reduced Mod.
[#]	[#]	[um]	[s]	[um]	[um]	[um]	[m°]	[m°]	[um]	[uN]	[uN]	[V]	[V]	[V]	[°C]	[uN]	[um]	[N/m]	[°]	[°]	[uN]	[um]	[um]	[um]	[uN]	[N/m]	[um]	[um^2]	[MPa]	[MPa]
727	1.000000	0.002923	7.37217e+06	-40739.1	1005.82	-29788.8	0.000000	0.000000	6.002837	0.016491	NaN	0.000000	0.001567	0.001753	28.0853	0.066720	0.001021	65.3382	85.5109	-164.973	0.006375	0.001633	-1.098911	-1.100201	0.016491	65.3382	-1.099100	-4.875190E+14	-3.382650E-17	NaN
727	1.000000	0.012964	7.37217e+06	-40739.1	1005.82	-29788.8	0.000000	0.000000	6.012879	0.038465	NaN	0.000000	0.001580	0.001702	28.0849	0.061814	0.001206	51.2509	64.4803	18.015	-0.025638	0.011512	-1.088870	-1.090321	0.038465	51.2509	-1.089433	-3.615727E+14	-1.063821E-16	NaN
727	1.000000	0.022854	7.37217e+06	-40739.1	1005.82	-29788.8	0.000000	0.000000	6.022767	-0.001726	NaN	0.000000	0.001543	0.001728	28.0846	0.101926	0.001770	57.5723	-39.7581	-163.09	-0.033599	0.021510	-1.078980	-1.080324	-0.001726	57.5723	-1.078957	-2.615245E+14	6.598917E-18	NaN
727	1.000000	0.032883	7.37217e+06	-40739.1	1005.82	-29788.8	0.000000	0.000000	6.032797	0.014232	NaN	0.000000	0.001592	0.001706	28.0848	0.087778	0.001739	50.4753	179.864	13.5085	-0.025006	0.031504	-1.068951	-1.070330	0.014232	50.4753	-1.069162	-1.931672E+14	-7.367666E-17	NaN
727	1.000000	0.042863	7.37217e+06	-40739.1	1005.82	-29788.8	0.000000	0.000000	6.042777	0.010681	NaN	0.000000	0.001577	0.001693	28.0846	0.102546	0.002014	50.9177	-130.647	-162.813	-0.011371	0.041500	-1.058971	-1.060334	0.010681	50.9177	-1.059128	-1.416126E+14	-7.542352E-17	NaN
727	1.000000	0.052847	7.37217e+06	-40739.1	1005.82	-29788.8	0.000000	0.000000	6.052761	0.032914	NaN	0.000000	0.001589	0.001737	28.0846	0.027595	0.001935	14.2642	-97.6421	17.9786	-0.058466	0.051460	-1.048987	-1.050374	0.032914	14.2642	-1.050718	-1.091600E+14	-3.015212E-16	NaN
727	1.000000	0.062864	7.37217e+06	-40739.1	1005.82	-29788.8	0.000000	0.000000	6.062778	0.019760	NaN	0.000000	0.001613	0.001720	28.0845	0.035326	0.001953	18.0887	-4.971611	-166.448	0.039062	0.061562	-1.038970	-1.040272	0.019760	18.0887	-1.039789	-7.782671E+13	-2.538992E-16	NaN
727	1.000000	0.072842	7.37217e+06	-40739.1	1005.82	-29788.8	0.000000	0.000000	6.072756	0.041181	NaN	0.000000	0.001615	0.001775	28.0847	0.107850	0.002144	50.3091	103.967	17.5567	0.040013	0.071453	-1.028992	-1.030381	0.041181	50.3091	-1.029606	-5.677847E+13	-7.252854E-16	NaN
727	1.000000	0.082834	7.37217e+06	-40739.1	1005.82	-29788.8	0.000000	0.000000	6.082746	-0.029460	NaN	0.000000	0.001594	0.001762	28.0848	0.166434	0.001924	86.494	38.9969	-162.407	-0.083457	0.081544	-1.019000	-1.020290	-0.029460	86.494	-1.018745	-4.055682E+13	7.263833E-16	NaN
727	1.000000	0.092849	7.37217e+06	-40739.1	1005.82	-29788.8	0.000000	0.000000	6.092762	-0.001995	NaN	0.000000	0.001579	0.001764	28.0848	0.022026	0.001926	11.4374	-136.948	11.3492	-0.030347	0.091483	-1.008985	-1.010351	-0.001995	11.4374	-1.008854	-2.985078E+13	6.681968E-17	NaN
727	1.000000	0.102857	7.37217e+06	-40739.1	1005.82	-29788.8	0.000000	0.000000	6.102772	0.046384	NaN	0.000000	0.001565	0.001756	28.0846	0.039187	0.002048	19.1338	104.588	-163.441	0.076692	0.101558	-0.998977	-1.000276	0.046384	19.1338	-1.000795	-2.325244E+13	-1.994813E-15	NaN
727	1.000000	0.112849	7.37217e+06	-40739.1	1005.82	-29788.8	0.000000	0.000000	6.112759	-0.075598	NaN	0.000000	0.001612	0.001719	28.0845	0.064928	0.001956	33.1945	-103.74	12.5514	-0.018209	0.111467	-0.988985	-0.990367	-0.075598	33.1945	-0.987276	-1.529079E+13	4.944028E-15	NaN
727	1.000000	0.122876	7.37217e+06	-40739.1	1005.82	-29788.8	0.000000	0.000000	6.122789	0.000445	NaN	0.000000	0.001624	0.001768	28.0838	0.108154	0.002133	50.7162	-100.562	-163.947	5.344625E-5	0.121526	-0.978958	-0.980308	0.000445	50.7162	-0.978965	-1.181571E+13	-3.766756E-17	NaN
727	1.000000	0.132871	7.37217e+06	-40739.1	1005.82	-29788.8	0.000000	0.000000	6.132785	0.009272	NaN	0.000000	0.001648	0.001747	28.0834	0.066368	0.002038	32.5574	-11.7262	14.7408	0.009876	0.131555	-0.968963	-0.970279	0.009272	32.5574	-0.969176	-8.720908E+12	-1.063198E-15	NaN
727	1.000000	0.142891	7.37217e+06	-40739.1	1005.82	-29788.8	0.000000	0.000000	6.142805	0.008650	NaN	0.000000	0.001635	0.001744	28.0837	0.030991	0.001861	16.6533	149.939	-165.902	0.001364	0.141578	-0.958943	-0.960256	0.008650	16.6533	-0.959332	-6.424951E+12	-1.346332E-15	NaN
727	1.000000	0.152886	7.37217e+06	-40739.1	1005.82	-29788.8	0.000000	0.000000	6.152801	0.044016	NaN	0.000000	0.001627	0.001724	28.0834	0.036805	0.002000	18.401	97.7891	15.8013	0.049690	0.151478	-0.948948	-0.950355	0.044016	18.401	-0.950742	-4.920835E+12	-8.944780E-15	NaN
727	1.000000	0.162855	7.37217e+06	-40739.1	1005.82	-29788.8	0.000000	0.000000	6.162767	-0.029260	NaN	0.000000	0.001643	0.001733	28.0836	0.079810	0.001998	39.9451	-25.0896	-165.754	0.023256	0.161573	-0.938979	-0.940261	-0.029260	39.9451	-0.938429	-3.356961E+12	8.716333E-15	NaN
727	1.000000	0.172888	7.37217e+06	-40739.1	1005.82	-29788.8	0.000000	0.000000	6.172802	0.013600	NaN	0.000000	0.001650	0.001726	28.0832	0.093813	0.002137	43.8973	67.4293	14.5835	0.034507	0.171517	-0.928945	-0.930317	0.013600	43.8973	-0.929178	-2.518253E+12	-5.400517E-15	NaN
727	1.000000	0.182903	7.37217e+06	-40739.1	1005.82	-29788.8	0.000000	0.000000	6.182815	-0.022954	NaN	0.000000	0.001616	0.001753	28.0835	0.028268	0.001904	14.8474	168.612	-166.87	0.002520	0.181582	-0.918931	-0.920252	-0.022954	14.8474	-0.917771	-1.766492E+12	1.299394E-14	NaN
727	1.000000	0.192901	7.37217e+06	-40739.1	1005.82	-29788.8	0.000000	0.000000	6.192815	0.015969	NaN	0.000000	0.001631	0.001746	28.0835	0.040801	0.002010	20.294	-84.38	14.0684	0.017671	0.191574	-0.908933	-0.910260	0.015969	20.294	-0.909523	-1.366841E+12	-1.168335E-14	NaN
727	1.000000	0.202906	7.37217e+06	-40739.1	1005.82	-29788.8	0.000000	0.000000	6.202819	0.010857	NaN	0.000000	0.001654	0.001749	28.0833	0.182316	0.002015	90.4801	-94.6475	-168.703	0.061682	0.201611	-0.898928	-0.900223	0.010857	90.4801	-0.899018	-9.858221E+11	-1.101284E-14	NaN
727	1.000000	0.212915	7.37217e+06	-40739.1	1005.82	-29788.8	0.000000	0.000000	6.212827	-0.013982	NaN	0.000000	0.001690	0.001734	28.0832	0.079221	0.001977	40.0765	-146.935	10.6525	-0.010337	0.211479	-0.888919	-0.890355	-0.013982	40.0765	-0.888658	-7.141152E+11	1.957889E-14	NaN
727	1.000000	0.222883	7.37217e+06	-40739.1	1005.82	-29788.8	0.000000	0.000000	6.222798	0.030260	NaN	0.000000	0.001657	0.001752	28.083	0.050624	0.002053	24.6624	107.028	-166.645	0.045497	0.221565	-0.878950	-0.880269	0.030260	24.6624	-0.879871	-5.431991E+11	-5.570638E-14	NaN
727	1.000000	0.232918	7.37217e+06	-40739.1	1005.82	-29788.8	0.000000	0.000000	6.232832	0.016822	NaN	0.000000	0.001621	0.001735	28.0832	0.055841	0.001995	27.9937	106.577	15.2643	-0.018873	0.231541	-0.868916	-0.870293	0.016822	27.9937	-0.869367	-3.916297E+11	-4.295439E-14	NaN
727	1.000000	0.242932	7.37217e+06	-40739.1	1005.82	-29788.8	0.000000	0.000000	6.242845	-0.007922	NaN	0.000000	0.001640	0.001729	28.0827	0.045213	0.002108	21.4533	29.7703	-163.489	0.004515	0.241658	-0.858902	-0.860175	-0.007922	21.4533	-0.858625	-2.802243E+11	2.827039E-14	NaN
727	1.000000	0.252929	7.37217e+06	-40739.1	1005.82	-29788.8	0.000000	0.000000	6.252838	-0.086942	NaN	0.000000	0.001634	0.001738	28.0837	0.038131	0.002037	18.7193	83.7732	14.3011	-0.087777	0.251618	-0.848905	-0.850216	-0.086942	18.7193	-0.845422	-1.856681E+11	4.682659E-13	NaN
727	1.000000	0.262924	7.37217e+06	-40739.1	1005.82	-29788.8	0.000000	0.000000	6.262837	-0.012025	NaN	0.000000	0.001646	0.001756	28.0844	0.057742	0.001975	29.2329	-18.5313	-167.477	0.057906	0.261626	-0.838909	-0.840208	-0.012025	29.2329	-0.838601	-1.500849E+11	8.011854E-14	NaN
727	1.000000	0.272947	7.37217e+06	-40739.1	1005.82	-29788.8	0.000000	0.000000	6.272860	0.007505	NaN	0.000000	0.001640	0.001736	28.0843	0.053451	0.002062	25.9181	165.706	16.8342	0.072086	0.271570	-0.828887	-0.830264	0.007505	25.9181	-0.829104	-1.115948E+11	-6.724855E-14	NaN
727	1.000000	0.282909	7.37217e+06	-40739.1	1005.82	-29788.8	0.000000	0.000000	6.282822	-0.000936	NaN	0.000000	0.001642	0.001749	28.0844	0.066529	0.002130	31.2337	123.31	-165.509	0.074777	0.281629	-0.818925	-0.820204	-0.000936	31.2337	-0.818903	-8.115837E+10	1.152780E-14	NaN
727	1.000000	0.292939	7.37217e+06	-40739.1	1005.82	-29788.8	0.000000	0.000000	6.292849	-0.073543	NaN	0.000000	0.001633	0.001737	28.0844	0.062303	0.002037	30.5911	25.309	17.6947	0.011251	0.291600	-0.808895	-0.810233	-0.073543	30.5911	-0.807092	-5.611974E+10	1.310469E-12	NaN
727	1.000000	0.302954	7.37217e+06	-40739.1	1005.82	-29788.8	0.000000	0.000000	6.302867	-0.021970	NaN	0.000000	0.001622	0.001745	28.0849	0.019339	0.002097	9.221042	-70.3454	-165.911	-0.065069	0.301667	-0.798880	-0.800167	-0.021970	9.221042	-0.797093	-4.105771E+10	5.351047E-13	NaN
727	1.000000	0.312936	7.37217e+06	-40739.1	1005.82	-29788.8	0.000000	0.000000	6.312850	0.016028	NaN	0.000000	0.001631	0.001711	28.0846	0.022948	0.002018	11.3715	-88.6557	13.4782	0.003319	0.311552	-0.788898	-0.790282	0.016028	11.3715	-0.789955	-3.284558E+10	-4.879853E-13	NaN
727	1.000000	0.322995	7.37217e+06	-40739.1	1005.82	-29788.8	0.000000	0.000000	6.322906	-0.059627	NaN	0.000000	0.001639	0.001780	28.0845	0.032984	0.002077	15.8804	51.547	-167.22	-0.024789	0.321620	-0.778839	-0.780214	-0.059627	15.8804	-0.776023	-2.124132E+10	2.807146E-12	NaN
727	1.000000	0.332925	7.37217e+06	-40739.1	1005.82	-29788.8	0.000000	0.000000	6.332840	0.049806	NaN	0.000000	0.001643	0.001743	28.0846	0.043973	0.001872	23.4904	106.424	14.1412	0.005431	0.331639	-0.768909	-0.770195	0.049806	23.4904	-0.770499	-1.786858E+10	-2.787340E-12	NaN
727	1.000000	0.342931	7.37217e+06	-40739.1	1005.82	-29788.8	0.000000	0.000000	6.342842	-0.045972	NaN	0.000000	0.001664	0.001723	28.0845	0.125817	0.001969	63.8916	111.162	-164.612	-0.055043	0.341678	-0.758903	-0.760156	-0.045972	63.8916	-0.758363	-1.221893E+10	3.762335E-12	NaN
727	1.000000	0.352947	7.37217e+06	-40739.1	1005.82	-29788.8	0.000000	0.000000	6.352861	0.020414	NaN	0.000000	0.001643	0.001710	28.0846	0.077172	0.001967	39.2311	-124.452	14.4236	0.102192	0.351617	-0.748887	-0.750217	0.020414	39.2311	-0.749277	-9.191394E+9	-2.220986E-12	NaN
727	1.000000	0.362981	7.37217e+06	-40739.1	1005.82	-29788.8	0.000000	0.000000	6.362895	0.033231	NaN	0.000000	0.001613	0.001735	28.0846	0.084727	0.002153	39.348	3.575946	-166.468	-0.057297	0.361645	-0.738853	-0.740189	0.033231	39.348	-0.739487	-6.761809E+9	-4.914467E-12	NaN
727	1.000000	0.372946	7.37217e+06	-40739.1	1005.82	-29788.8	0.000000	0.000000	6.372857	-0.038455	NaN	0.000000	0.001662	0.001719	28.0848	0.183274	0.001946	94.1828	-32.7854	12.6224	-0.057569	0.371687	-0.728888	-0.730147	-0.038455	94.1828	-0.728582	-4.802629E+9	8.007104E-12	NaN
727	1.000000	0.382989	7.37217e+06	-40739.1	1005.82	-29788.8	0.000000	0.000000	6.382901	-0.015518	NaN	0.000000	0.001627	0.001747	28.0845	0.052629	0.001976	26.6304	112.911	-167.754	0.039397	0.381653	-0.718845	-0.720181	-0.015518	26.6304	-0.718408	-3.489488E+9	4.447194E-12	NaN
727	1.000000	0.392973	7.37217e+06	-40739.1	1005.82	-29788.8	0.000000	0.000000	6.392888	0.048852	NaN	0.000000	0.001567	0.001741	28.083	0.051575	0.002023	25.4947	25.0762	11.0816	0.001986	0.391613	-0.708861	-0.710220	0.048852	25.4947	-0.710298	-2.704666E+9	-1.806230E-11	NaN
727	1.000000	0.402990	7.37217e+06	-40739.1	1005.82	-29788.8	0.000000	0.000000	6.402905	0.039866	NaN	0.000000	0.001627	0.001722	28.0832	0.062009	0.002061	30.09	-134.593	-164.391	0.015918	0.401665	-0.698844	-0.700169	0.039866	30.09	-0.699837	-1.946742E+9	-2.047814E-11	NaN
727	1.000000	0.413010	7.37217e+06	-40739.1	1005.82	-29788.8	0.000000	0.000000	6.412926	0.060539	NaN	0.000000	0.001608	0.001759	28.0834	0.031789	0.001990	15.9716	-10.4351	15.4005	0.011707	0.411614	-0.688824	-0.690220	0.060539	15.9716	-0.691666	-1.505531E+9	-4.021099E-11	NaN
727	1.000000	0.423019	7.37217e+06	-40739.1	1005.82	-29788.8	0.000000	0.000000	6.422932	-0.004458	NaN	0.000000	0.001598	0.001733	28.0831	0.142849	0.001929	74.0583	-123.065	-164.411	-0.004588	0.421665	-0.678815	-0.680169	-0.004458	74.0583	-0.678770	-1.003185E+9	4.443921E-12	NaN
727	1.000000	0.432993	7.37217e+06	-40739.1	1005.82	-29788.8	0.000000	0.000000	6.432906	-0.000518	NaN	0.000000	0.001586	0.001742	28.0832	0.073386	0.002117	34.6725	-81.9216	14.5421	-0.012701	0.431676	-0.668841	-0.670158	-0.000518	34.6725	-0.668830	-7.334528E+8	7.068343E-13	NaN
727	1.000000	0.443015	7.37217e+06	-40739.1	1005.82	-29788.8	0.000000	0.000000	6.442927	-0.024440	NaN	0.000000	0.001596	0.001743	28.0829	0.072521	0.002031	35.7022	-69.7599	-161.969	-0.054951	0.441671	-0.658819	-0.660163	-0.024440	35.7022	-0.658306	-5.263324E+8	4.643527E-11	NaN
727	1.000000	0.453012	7.37217e+06	-40739.1	1005.82	-29788.8	0.000000	0.000000	6.452926	0.008562	NaN	0.000000	0.001605	0.001720	28.0834	0.026988	0.001949	13.8446	49.8806	14.1737	-0.008089	0.451594	-0.648822	-0.650240	0.008562	13.8446	-0.649286	-3.959511E+8	-2.162277E-11	NaN
727	1.000000	0.463040	7.37217e+06	-40739.1	1005.82	-29788.8	0.000000	0.000000	6.462952	-0.031516	NaN	0.000000	0.001600	0.001727	28.0832	0.084062	0.002046	41.0959	-160.92	-167.808	0.047660	0.461720	-0.638794	-0.640114	-0.031516	41.0959	-0.638219	-2.791556E+8	1.128984E-10	NaN
727	1.000000	0.473032	7.37217e+06	-40739.1	1005.82	-29788.8	0.000000	0.000000	6.472944	-0.030635	NaN	0.000000	0.001604	0.001712	28.0832	0.114588	0.001952	58.699	33.1192	14.6764	-0.031642	0.471653	-0.628802	-0.630181	-0.030635	58.699	-0.628411	-2.047379E+8	1.496291E-10	NaN
727	1.000000	0.483007	7.37217e+06	-40739.1	1005.82	-29788.8	0.000000	0.000000	6.482919	-0.027488	NaN	0.000000	0.001618	0.001750	28.0834	0.027089	0.001863	14.5424	-68.7131	-168.07	-0.044800	0.481712	-0.618827	-0.620121	-0.027488	14.5424	-0.617410	-1.445517E+8	1.901610E-10	NaN
727	1.000000	0.493034	7.37217e+06	-40739.1	1005.82	-29788.8	0.000000	0.000000	6.492947	-0.016157	NaN	0.000000	0.001594	0.001725	28.0835	0.045839	0.001953	23.4751	92.9543	12.4157	0.018780	0.491660	-0.608800	-0.610173	-0.016157	23.4751	-0.608283	-1.082666E+8	1.492334E-10	NaN
727	1.000000	0.503058	7.37217e+06	-40739.1	1005.82	-29788.8	0.000000	0.000000	6.502972	0.017823	NaN	0.000000	0.001590	0.001758	28.0831	0.024276	0.001914	12.6825	114.174	-167.61	0.020467	0.501701	-0.598776	-0.600133	0.017823	12.6825	-0.599830	-8.281659E+7	-2.152100E-10	NaN
727	1.000000	0.513038	7.37217e+06	-40739.1	1005.82	-29788.8	0.000000	0.000000	6.512951	-0.025656	NaN	0.000000	0.001655	0.001730	28.083	0.052183	0.002001	26.0841	104.019	16.747	-0.056900	0.511728	-0.588795	-0.590106	-0.025656	26.0841	-0.588058	-5.700151E+7	4.500979E-10	NaN
727	1.000000	0.523046	7.37217e+06	-40739.1	1005.82	-29788.8	0.000000	0.000000	6.522957	-0.055995	NaN	0.000000	0.001707	0.001771	28.0836	0.092030	0.002008	45.8409	18.022	-167.165	-0.010722	0.521740	-0.578788	-0.580094	-0.055995	45.8409	-0.577872	-4.124327E+7	1.357666E-9	NaN
727	1.000000	0.533040	7.37217e+06	-40739.1	1005.82	-29788.8	0.000000	0.000000	6.532954	0.023855	NaN	0.000000	0.001665	0.001701	28.0846	0.019489	0.002083	9.357753	-179.128	11.8787	-0.027486	0.531664	-0.568794	-0.570170	0.023855	9.357753	-0.570706	-3.283851E+7	-7.264336E-10	NaN
727	1.000000	0.543039	7.37217e+06	-40739.1	1005.82	-29788.8	0.000000	0.000000	6.542951	-0.049464	NaN	0.000000	0.001687	0.001691	28.0845	0.018966	0.001972	9.619367	62.5286	-164.86	-0.032147	0.541760	-0.558795	-0.560074	-0.049464	9.619367	-0.554938	-1.987604E+7	2.488601E-9	NaN
727	1.000000	0.553054	7.37217e+06	-40739.1	1005.82	-29788.8	0.000000	0.000000	6.552969	0.040552	NaN	0.000000	0.001681	0.001665	28.0845	0.038104	0.002012	18.9383	2.542005	15.6056	0.057929	0.551670	-0.548780	-0.550164	0.040552	18.9383	-0.550386	-1.719081E+7	-2.358942E-9	NaN
727	1.000000	0.563054	7.37217e+06	-40739.1	1005.82	-29788.8	0.000000	0.000000	6.562966	-0.020830	NaN	0.000000	0.001647	0.001725	28.0844	0.100670	0.002019	49.8528	-61.4839	-164.198	0.071225	0.561721	-0.538780	-0.540113	-0.020830	49.8528	-0.538467	-1.175144E+7	1.772578E-9	NaN
727	1.000000	0.573058	7.37217e+06	-40739.1	1005.82	-29788.8	0.000000	0.000000	6.572971	-0.006801	NaN	0.000000	0.001710	0.001718	28.0843	0.117140	0.001955	59.9222	18.0649	14.6944	-0.054235	0.571695	-0.528776	-0.530139	-0.006801	59.9222	-0.528690	-8.59779e+06	7.909901E-10	NaN
727	1.000000	0.583034	7.37217e+06	-40739.1	1005.82	-29788.8	0.000000	0.000000	6.582950	0.057388	NaN	0.000000	0.001714	0.001745	28.0846	0.090938	0.001940	46.871	112.164	-168.54	-0.024531	0.581753	-0.518800	-0.520080	0.057388	46.871	-0.519718	-6.45169e+06	-8.894976E-9	NaN
727	1.000000	0.593060	7.37217e+06	-40739.1	1005.82	-29788.8	0.000000	0.000000	6.592972	-0.025291	NaN	0.000000	0.001694	0.001795	28.0847	0.035908	0.001944	18.4692	-83.6976	15.0565	-0.016949	0.591727	-0.508774	-0.510107	-0.025291	18.4692	-0.507747	-4.39572e+06	5.753500E-9	NaN
727	1.000000	0.603068	7.37217e+06	-40739.1	1005.82	-29788.8	0.000000	0.000000	6.602982	0.036354	NaN	0.000000	0.001565	0.001743	28.0846	0.074347	0.002069	35.9367	49.8324	-167.707	-0.081309	0.601767	-0.498766	-0.500067	0.036354	35.9367	-0.499525	-3.37589e+06	-1.076861E-8	NaN
727	1.000000	0.613080	7.37217e+06	-40739.1	1005.82	-29788.8	0.000000	0.000000	6.612993	-0.006359	NaN	0.000000	0.001608	0.001747	28.0844	0.032088	0.002056	15.61	93.4375	16.7036	-0.048229	0.611676	-0.488754	-0.490158	-0.006359	15.61	-0.488448	-2.36432e+06	2.689700E-9	NaN
727	1.000000	0.623061	7.37217e+06	-40739.1	1005.82	-29788.8	0.000000	0.000000	6.622975	0.018695	NaN	0.000000	0.001604	0.001769	28.0844	0.091041	0.001925	47.2844	-95.1806	-161.545	-0.011869	0.621806	-0.478773	-0.480028	0.018695	47.2844	-0.479070	-1.74784e+06	-1.069594E-8	NaN
727	1.000000	0.633111	7.37217e+06	-40739.1	1005.82	-29788.8	0.000000	0.000000	6.633023	-0.029452	NaN	0.000000	0.001601	0.001743	28.0845	0.050507	0.002026	24.9254	40.7254	14.395	-0.034000	0.631747	-0.468723	-0.470087	-0.029452	24.9254	-0.467837	-1.21635e+06	2.421340E-8	NaN
727	1.000000	0.643110	7.37217e+06	-40739.1	1005.82	-29788.8	0.000000	0.000000	6.643024	0.005547	NaN	0.000000	0.001592	0.001770	28.0846	0.137927	0.002045	67.4513	-131.669	-163.134	-0.006856	0.641701	-0.458724	-0.460133	0.005547	67.4513	-0.458785	-907710	-6.111416E-9	NaN
727	1.000000	0.653071	7.37217e+06	-40739.1	1005.82	-29788.8	0.000000	0.000000	6.652984	-0.011906	NaN	0.000000	0.001642	0.001757	28.0846	0.021638	0.001889	11.4551	-130.736	10.1792	0.007963	0.651715	-0.448763	-0.450119	-0.011906	11.4551	-0.447984	-639646	1.861298E-8	NaN
727	1.000000	0.663104	7.37217e+06	-40739.1	1005.82	-29788.8	0.000000	0.000000	6.663016	-0.039016	NaN	0.000000	0.001628	0.001770	28.0839	0.041884	0.001962	21.3456	119.492	-167.357	0.015932	0.661781	-0.438730	-0.440053	-0.039016	21.3456	-0.437359	-452978	8.613241E-8	NaN
727	1.000000	0.673079	7.37217e+06	-40739.1	1005.82	-29788.8	0.000000	0.000000	6.672990	-0.058864	NaN	0.000000	0.001624	0.001760	28.0832	0.018220	0.002047	8.901005	46.3042	13.8721	-0.048649	0.671749	-0.428755	-0.430084	-0.058864	8.901005	-0.423795	-291211	2.021349E-7	NaN
727	1.000000	0.683102	7.37217e+06	-40739.1	1005.82	-29788.8	0.000000	0.000000	6.683015	-0.015331	NaN	0.000000	0.001631	0.001716	28.0834	0.160207	0.001885	84.9989	-141.891	-163.142	0.066758	0.681742	-0.418732	-0.420092	-0.015331	84.9989	-0.418596	-245757	6.238329E-8	NaN
727	1.000000	0.693105	7.37217e+06	-40739.1	1005.82	-29788.8	0.000000	0.000000	6.693017	-0.029096	NaN	0.000000	0.001635	0.001726	28.0833	0.083826	0.001973	42.4851	126.676	13.8118	0.007622	0.691712	-0.408729	-0.410122	-0.029096	42.4851	-0.408215	-174991	1.662712E-7	NaN
727	1.000000	0.703094	7.37217e+06	-40739.1	1005.82	-29788.8	0.000000	0.000000	6.703009	0.029585	NaN	0.000000	0.001619	0.001735	28.0836	0.102127	0.001942	52.597	-166.093	-166.427	0.066611	0.701781	-0.398739	-0.400053	0.029585	52.597	-0.399161	-130027	-2.275292E-7	NaN
727	1.000000	0.713105	7.37217e+06	-40739.1	1005.82	-29788.8	0.000000	0.000000	6.713019	0.037474	NaN	0.000000	0.001629	0.001766	28.0834	0.031159	0.002113	14.7452	-167.454	14.4728	-0.007180	0.711741	-0.388729	-0.390093	0.037474	14.7452	-0.390635	-98232.7	-3.814866E-7	NaN
727	1.000000	0.723126	7.37217e+06	-40739.1	1005.82	-29788.8	0.000000	0.000000	6.723039	0.006078	NaN	0.000000	0.001632	0.001729	28.0833	0.024086	0.002065	11.6644	176.31	-164.811	-0.070611	0.721857	-0.378708	-0.379977	0.006078	11.6644	-0.379099	-67136.1	-9.053917E-8	NaN
727	1.000000	0.733143	7.37217e+06	-40739.1	1005.82	-29788.8	0.000000	0.000000	6.733056	-0.007793	NaN	0.000000	0.001618	0.001740	28.0834	0.030062	0.001984	15.1551	116.788	14.5048	-0.027897	0.731746	-0.368690	-0.370088	-0.007793	15.1551	-0.368305	-46957.6	1.659573E-7	NaN
727	1.000000	0.743114	7.37217e+06	-40739.1	1005.82	-29788.8	0.000000	0.000000	6.743028	0.013314	NaN	0.000000	0.001638	0.001756	28.0836	0.072505	0.002141	33.8729	133.745	-164.264	-0.010045	0.741803	-0.358719	-0.360030	0.013314	33.8729	-0.359014	-34482	-3.861250E-7	NaN
727	1.000000	0.753122	7.37217e+06	-40739.1	1005.82	-29788.8	0.000000	0.000000	6.753032	-0.069951	NaN	0.000000	0.001628	0.001730	28.0833	0.080009	0.001956	40.9101	82.7666	13.626	0.055308	0.751829	-0.348712	-0.350005	-0.069951	40.9101	-0.347430	-23425	2.986190E-6	NaN
727	1.000000	0.763134	7.37217e+06	-40739.1	1005.82	-29788.8	0.000000	0.000000	6.763048	0.010121	NaN	0.000000	0.001655	0.001682	28.0834	0.045369	0.002001	22.6729	59.4589	-166.553	0.016406	0.761846	-0.338700	-0.339988	0.010121	22.6729	-0.339035	-17679.9	-5.724373E-7	NaN
727	1.000000	0.773146	7.37217e+06	-40739.1	1005.82	-29788.8	0.000000	0.000000	6.773060	-0.004280	NaN	0.000000	0.001629	0.001685	28.0836	0.065398	0.001875	34.8727	155.261	13.0586	0.011863	0.771757	-0.328687	-0.330076	-0.004280	34.8727	-0.328595	-12441.5	3.440418E-7	NaN
727	1.000000	0.783152	7.37217e+06	-40739.1	1005.82	-29788.8	0.000000	0.000000	6.783065	-0.007497	NaN	0.000000	0.001618	0.001710	28.0835	0.016748	0.002001	8.371229	-122.014	-167.75	0.025887	0.781824	-0.318682	-0.320010	-0.007497	8.371229	-0.318011	-8696.42	8.620735E-7	NaN
727	1.000000	0.793154	7.37217e+06	-40739.1	1005.82	-29788.8	0.000000	0.000000	6.793067	-0.017278	NaN	0.000000	0.001617	0.001719	28.0834	0.118893	0.001905	62.3974	-1.003950	10.8548	-0.053206	0.791801	-0.308680	-0.310033	-0.017278	62.3974	-0.308472	-6286.82	2.748362E-6	NaN
727	1.000000	0.803148	7.37217e+06	-40739.1	1005.82	-29788.8	0.000000	0.000000	6.803061	0.003917	NaN	0.000000	0.001722	0.001716	28.0846	0.090439	0.001991	45.4156	-6.037525	-166.788	-0.044633	0.801893	-0.298686	-0.299941	0.003917	45.4156	-0.298751	-4508.53	-8.687248E-7	NaN
727	1.000000	0.813168	7.37217e+06	-40739.1	1005.82	-29788.8	0.000000	0.000000	6.813083	0.030546	NaN	0.000000	0.001701	0.001735	28.0849	0.077019	0.001906	40.4145	50.3052	17.1394	-0.008803	0.811813	-0.288666	-0.290021	0.030546	40.4145	-0.289232	-3249.37	-9.400609E-6	NaN
727	1.000000	0.823167	7.37217e+06	-40739.1	1005.82	-29788.8	0.000000	0.000000	6.823082	0.020268	NaN	0.000000	0.001712	0.001754	28.0847	0.100028	0.002065	48.4356	-174.28	-162.042	0.070607	0.821855	-0.278666	-0.279979	0.020268	48.4356	-0.278980	-2278.14	-8.896829E-6	NaN
727	1.000000	0.833169	7.37217e+06	-40739.1	1005.82	-29788.8	0.000000	0.000000	6.833083	0.028000	NaN	0.000000	0.001709	0.001705	28.085	0.023635	0.001855	12.7403	137.516	11.9346	0.022765	0.831811	-0.268665	-0.270023	0.028000	12.7403	-0.270314	-1683.87	-1.662822E-5	NaN
727	1.000000	0.843189	7.37217e+06	-40739.1	1005.82	-29788.8	0.000000	0.000000	6.843102	-0.011241	NaN	0.000000	0.001717	0.001739	28.0846	0.101769	0.002032	50.0842	67.5316	-168.514	0.003889	0.841954	-0.258645	-0.259880	-0.011241	50.0842	-0.258477	-1110.59	1.012136E-5	NaN
727	1.000000	0.853185	7.37217e+06	-40739.1	1005.82	-29788.8	0.000000	0.000000	6.853097	-0.030833	NaN	0.000000	0.001686	0.001731	28.0851	0.027393	0.002098	13.058	-6.572563	13.041	0.044644	0.851772	-0.248648	-0.250062	-0.030833	13.058	-0.246878	-735.535	4.191889E-5	NaN
727	1.000000	0.863186	7.37217e+06	-40739.1	1005.82	-29788.8	0.000000	0.000000	6.863098	-0.029228	NaN	0.000000	0.001659	0.001744	28.0844	0.065900	0.001943	33.923	131.761	-164.218	-0.084115	0.861917	-0.238648	-0.239917	-0.029228	33.923	-0.238002	-534.946	5.463745E-5	NaN
727	1.000000	0.873195	7.37217e+06	-40739.1	1005.82	-29788.8	0.000000	0.000000	6.873106	-0.071392	NaN	0.000000	0.001699	0.001738	28.0849	0.085869	0.001874	45.8268	144.964	10.0408	-0.131124	0.871829	-0.228638	-0.230004	-0.071392	45.8268	-0.227470	-365.182	0.000195	NaN
727	1.000000	0.883214	7.37217e+06	-40739.1	1005.82	-29788.8	0.000000	0.000000	6.883124	-0.069656	NaN	0.000000	0.001645	0.001756	28.0848	0.063005	0.001984	31.754	-32.8507	-167.646	0.027507	0.881851	-0.218620	-0.219983	-0.069656	31.754	-0.216975	-248.449	0.000280	NaN
727	1.000000	0.893176	7.37217e+06	-40739.1	1005.82	-29788.8	0.000000	0.000000	6.893088	-0.023250	NaN	0.000000	0.001695	0.001773	28.0851	0.072736	0.002040	35.6483	25.1954	14.7191	-0.019436	0.891823	-0.208658	-0.210011	-0.023250	35.6483	-0.208169	-179.112	0.000130	NaN
727	1.000000	0.903192	7.37217e+06	-40739.1	1005.82	-29788.8	0.000000	0.000000	6.903103	-0.051531	NaN	0.000000	0.001688	0.001766	28.0843	0.094249	0.001924	48.9857	-14.357	-167.548	-0.063829	0.901809	-0.198642	-0.200025	-0.051531	48.9857	-0.197853	-121.438	0.000424	NaN
727	1.000000	0.913213	7.37217e+06	-40739.1	1005.82	-29788.8	0.000000	0.000000	6.913127	0.017704	NaN	0.000000	0.001702	0.001732	28.0848	0.113343	0.001816	62.4162	-93.1532	14.5056	0.076604	0.911853	-0.188621	-0.189981	0.017704	62.4162	-0.188833	-86.0043	-0.000206	NaN
727	1.000000	0.923202	7.37217e+06	-40739.1	1005.82	-29788.8	0.000000	0.000000	6.923113	-0.056273	NaN	0.000000	0.001644	0.001755	28.0847	0.028471	0.002043	13.9365	145.731	-166.516	-0.042861	0.921904	-0.178632	-0.179930	-0.056273	13.9365	-0.175604	-51.3275	0.001096	NaN
727	1.000000	0.933197	7.37217e+06	-40739.1	1005.82	-29788.8	0.000000	0.000000	6.933109	-0.038509	NaN	0.000000	0.001702	0.001758	28.0847	0.147232	0.002022	72.8038	-104.841	13.683	-0.012654	0.931871	-0.168636	-0.169963	-0.038509	72.8038	-0.168240	-38.2813	0.001006	NaN
727	1.000000	0.943186	7.37217e+06	-40739.1	1005.82	-29788.8	0.000000	0.000000	6.943099	-0.018485	NaN	0.000000	0.001707	0.001762	28.0833	0.032450	0.001957	16.5791	32.3869	-165.175	0.035674	0.941893	-0.158648	-0.159941	-0.018485	16.5791	-0.157812	-25.0606	0.000738	NaN
727	1.000000	0.953200	7.37217e+06	-40739.1	1005.82	-29788.8	0.000000	0.000000	6.953113	-0.018554	NaN	0.000000	0.001712	0.001782	28.0834	0.026665	0.001969	13.5409	98.219	15.286	0.038163	0.951902	-0.148634	-0.149932	-0.018554	13.5409	-0.147606	-16.3757	0.001133	NaN
727	1.000000	0.963237	7.37217e+06	-40739.1	1005.82	-29788.8	0.000000	0.000000	6.963148	-0.043942	NaN	0.000000	0.001701	0.001744	28.0836	0.089838	0.002027	44.3237	112.993	-167.006	-0.051013	0.961900	-0.138597	-0.139934	-0.043942	44.3237	-0.137853	-10.7772	0.004077	NaN
727	1.000000	0.973227	7.37217e+06	-40739.1	1005.82	-29788.8	0.000000	0.000000	6.973140	-0.013002	NaN	0.000000	0.001712	0.001767	28.0834	0.082971	0.002031	40.8468	-172.348	12.3671	-0.034294	0.971829	-0.128607	-0.130005	-0.013002	40.8468	-0.128368	-7.083045	0.001836	NaN
727	1.000000	0.983217	7.37217e+06	-40739.1	1005.82	-29788.8	0.000000	0.000000	6.983130	0.004837	NaN	0.000000	0.001730	0.001734	28.0834	0.052826	0.002172	24.3212	-89.0075	-164.621	0.007518	0.981930	-0.118617	-0.119904	0.004837	24.3212	-0.118766	-4.561548	-0.001060	NaN
727	1.000000	0.993203	7.37217e+06	-40739.1	1005.82	-29788.8	0.000000	0.000000	6.993117	0.007700	NaN	0.000000	0.001703	0.001736	28.0836	0.025099	0.002146	11.6934	-174.09	14.648	0.035465	0.991875	-0.108630	-0.109959	0.007700	11.6934	-0.109124	-2.879864	-0.002674	NaN
727	1.000000	1.003226	7.37217e+06	-40739.1	1005.82	-29788.8	0.000000	0.000000	7.003141	0.035460	NaN	0.000000	0.001622	0.001746	28.0837	0.171491	0.002026	84.6645	67.9278	-164.087	0.020364	1.001942	-0.098608	-0.099891	0.035460	84.6645	-0.098922	-1.729033	-0.020508	NaN
727	1.000000	1.013239	7.37217e+06	-40739.1	1005.82	-29788.8	0.000000	0.000000	7.013150	-0.044790	NaN	0.000000	0.001614	0.001772	28.0833	0.063682	0.001955	32.5739	178.851	16.4539	-0.116863	1.011912	-0.088595	-0.089922	-0.044790	32.5739	-0.087564	-0.946745	0.047309	NaN
727	1.000000	1.023240	7.37217e+06	-40739.1	1005.82	-29788.8	0.000000	0.000000	7.023153	-0.012113	NaN	0.000000	0.001624	0.001734	28.0833	0.139342	0.001907	73.0645	-151.931	-163.447	0.020024	1.021916	-0.078594	-0.079918	-0.012113	73.0645	-0.078470	-0.566529	0.021382	NaN
727	1.000000	1.033256	7.37217e+06	-40739.1	1005.82	-29788.8	0.000000	0.000000	7.033168	-0.037563	NaN	0.000000	0.001606	0.001762	28.0836	0.118702	0.002064	57.511	-104.775	15.4705	-0.017454	1.031914	-0.068578	-0.069920	-0.037563	57.511	-0.068088	-0.302918	0.124003	NaN
727	1.000000	1.043243	7.37217e+06	-40739.1	1005.82	-29788.8	0.000000	0.000000	7.043153	-0.066937	NaN	0.000000	0.001654	0.001771	28.083	0.047273	0.001921	24.6074	-86.5208	-168.918	0.023533	1.041929	-0.058591	-0.059905	-0.066937	24.6074	-0.056551	-0.143048	0.467934	NaN
727	1.000000	1.053260	7.37217e+06	-40739.1	1005.82	-29788.8	0.000000	0.000000	7.053172	-0.036733	NaN	0.000000	0.001652	0.001733	28.0832	0.066681	0.001953	34.1431	172.224	16.9523	-0.058487	1.051969	-0.048573	-0.049865	-0.036733	34.1431	-0.047767	-0.078063	0.470548	NaN
727	1.000000	1.063271	7.37217e+06	-40739.1	1005.82	-29788.8	0.000000	0.000000	7.063185	0.018059	NaN	0.000000	0.001624	0.001752	28.0832	0.041147	0.001917	21.4635	150.135	-163.672	0.014673	1.061935	-0.038563	-0.039899	0.018059	21.4635	-0.039194	-0.042748	-0.422450	NaN
727	1.000000	1.073247	7.37217e+06	-40739.1	1005.82	-29788.8	0.000000	0.000000	7.073160	-0.012158	NaN	0.000000	0.001652	0.001742	28.0845	0.095399	0.001917	49.7576	-137.74	13.9601	-0.040975	1.071946	-0.028587	-0.029888	-0.012158	49.7576	-0.028404	-0.020795	0.584671	NaN
727	1.000000	1.083255	7.37217e+06	-40739.1	1005.82	-29788.8	0.000000	0.000000	7.083169	0.010803	NaN	0.000000	0.001636	0.001754	28.0845	0.132352	0.002039	64.9254	-161.542	-164.701	0.004528	1.081945	-0.018579	-0.019889	0.010803	64.9254	-0.018704	-0.011639	-0.928175	NaN
727	1.000000	1.093277	7.37217e+06	-40739.1	1005.82	-29788.8	0.000000	0.000000	7.093202	0.280231	NaN	0.000000	0.001646	0.001744	28.0846	0.411140	0.002064	199.238	15.5091	11.5221	0.149517	1.091930	-0.008557	-0.009904	0.280231	199.238	-0.009612	-0.006165	-45.4562	NaN
727	1.000000	1.103242	7.37217e+06	-40739.1	1005.82	-29788.8	0.000000	0.000000	7.103318	3.952036	NaN	0.000000	0.001618	0.001727	28.0846	4.424993	0.001846	2397.23	10.5781	-170.836	2.822656	1.101992	0.001409	0.000158	3.952036	2397.23	0.000172	0.000129	30621.8	192792
727	2.000000	1.110402	7.37217e+06	-40739.1	1005.82	-29788.8	0.000000	0.000000	7.110688	9.065924	NaN	0.000000	0.001657	0.001738	28.0847	9.063808	0.001777	5099.97	6.127591	9.286305	8.667022	1.110052	0.008568	0.008218	9.065924	5099.97	0.007235	0.006267	1446.5	58856.5
727	2.000000	1.112872	7.37217e+06	-40739.1	1005.82	-29788.8	0.000000	0.000000	7.113277	11.9577	NaN	0.000000	0.001624	0.001718	28.0851	11.6848	0.001703	6861.67	7.289634	-176.976	10.7302	1.112571	0.011038	0.010737	11.9577	6861.67	0.009731	0.008885	1345.9	66509.8
727	2.000000	1.115401	7.37217e+06	-40739.1	1005.82	-29788.8	0.000000	0.000000	7.115854	13.1414	NaN	0.000000	0.001673	0.001761	28.0846	13.3442	0.001783	7484.86	12.0164	2.305215	12.9138	1.115034	0.013567	0.013200	13.1414	7484.86	0.012250	0.011791	1114.51	62976.4
727	2.000000	1.117811	7.37217e+06	-40739.1	1005.82	-29788.8	0.000000	0.000000	7.118508	19.0541	NaN	0.000000	0.001654	0.001792	28.0851	15.8502	0.001747	9071.99	5.854154	-175.754	17.4615	1.117551	0.015977	0.015718	19.0541	9071.99	0.014402	0.014497	1314.39	68840.4
727	2.000000	1.120343	7.37217e+06	-40739.1	1005.82	-29788.8	0.000000	0.000000	7.121130	21.2543	NaN	0.000000	0.001659	0.001758	28.0847	17.9438	0.001634	10981.3	3.597103	4.022686	20.212	1.120010	0.018509	0.018176	21.2543	10981.3	0.017058	0.018128	1172.46	74516.5
727	2.000000	1.122819	7.37217e+06	-40739.1	1005.82	-29788.8	0.000000	0.000000	7.123875	27.8085	NaN	0.000000	0.001656	0.001743	28.0853	21.0607	0.001791	11760.5	6.516544	-177.662	28.24	1.122587	0.020986	0.020754	27.8085	11760.5	0.019212	0.021319	1304.38	73589
727	2.000000	1.125327	7.37217e+06	-40739.1	1005.82	-29788.8	0.000000	0.000000	7.126578	32.54	NaN	0.000000	0.001572	0.001711	28.0846	22.9878	0.001765	13022.2	4.439015	2.484592	30.0464	1.124946	0.023494	0.023112	32.54	13022.2	0.021619	0.025151	1293.77	75020
727	2.000000	1.127777	7.37217e+06	-40739.1	1005.82	-29788.8	0.000000	0.000000	7.129424	42.1884	NaN	0.000000	0.001592	0.001737	28.0846	25.4783	0.001900	13409.3	3.227591	-176.446	39.3616	1.127435	0.025943	0.025601	42.1884	13409.3	0.023584	0.028489	1480.86	72583.7
727	2.000000	1.130300	7.37217e+06	-40739.1	1005.82	-29788.8	0.000000	0.000000	7.132076	45.3085	NaN	0.000000	0.001592	0.001734	28.0843	28.0991	0.001871	15020.7	4.574124	2.468747	44.8856	1.129887	0.028467	0.028053	45.3085	15020.7	0.026204	0.033243	1362.96	75268.5
727	2.000000	1.132754	7.37217e+06	-40739.1	1005.82	-29788.8	0.000000	0.000000	7.134897	54.2557	NaN	0.000000	0.001565	0.001718	28.0844	30.2705	0.001636	18497.7	3.876029	178.794	50.6833	1.132385	0.030921	0.030551	54.2557	18497.7	0.028721	0.038134	1422.76	86543.7
727	2.000000	1.135325	7.37217e+06	-40739.1	1005.82	-29788.8	0.000000	0.000000	7.137645	58.5538	NaN	0.000000	0.001613	0.001728	28.0831	32.5494	0.001785	18237.9	9.094627	-4.624200	58.4207	1.134858	0.033491	0.033024	58.5538	18237.9	0.031083	0.043019	1361.11	80337.2
727	2.000000	1.137794	7.37217e+06	-40739.1	1005.82	-29788.8	0.000000	0.000000	7.140503	68.0414	NaN	0.000000	0.001612	0.001738	28.0837	34.4255	0.001784	19297.2	7.535401	177.24	67.3701	1.137447	0.035960	0.035613	68.0414	19297.2	0.033315	0.047896	1420.61	80559.5
727	2.000000	1.140289	7.37217e+06	-40739.1	1005.82	-29788.8	0.000000	0.000000	7.143330	76.1074	NaN	0.000000	0.001627	0.001750	28.0832	37.324	0.001723	21666.2	6.193171	-3.735758	74.6741	1.139888	0.038455	0.038054	76.1074	21666.2	0.035821	0.053674	1417.95	85442.4
727	2.000000	1.142801	7.37217e+06	-40739.1	1005.82	-29788.8	0.000000	0.000000	7.146224	85.4014	NaN	0.000000	0.001674	0.001755	28.084	40.0616	0.001801	22242	5.841154	176.794	85.7067	1.142480	0.040967	0.040646	85.4014	22242	0.038088	0.059179	1443.1	83533.9
727	2.000000	1.145290	7.37217e+06	-40739.1	1005.82	-29788.8	0.000000	0.000000	7.149147	95.9514	NaN	0.000000	0.001606	0.001725	28.0831	41.4423	0.001745	23747.7	3.860650	-1.547426	93.9195	1.144970	0.043457	0.043136	95.9514	23747.7	0.040426	0.065135	1473.13	85013.8
727	2.000000	1.147713	7.37217e+06	-40739.1	1005.82	-29788.8	0.000000	0.000000	7.151789	101.313	NaN	0.000000	0.001628	0.001733	28.0837	43.3937	0.001770	24509.6	2.891852	177.707	97.0155	1.147458	0.045879	0.045624	101.313	24509.6	0.042778	0.071406	1418.83	83799.5
727	2.000000	1.150313	7.37217e+06	-40739.1	1005.82	-29788.8	0.000000	0.000000	7.154722	109.39	NaN	0.000000	0.001612	0.001729	28.0833	47.9717	0.001773	27052.2	7.086477	-6.692569	110.13	1.149884	0.048479	0.048050	109.39	27052.2	0.045446	0.078860	1387.14	88013.3
727	2.000000	1.152781	7.37217e+06	-40739.1	1005.82	-29788.8	0.000000	0.000000	7.157619	119.828	NaN	0.000000	0.001631	0.001746	28.0838	51.3292	0.001805	28443.9	5.561177	175.202	118.87	1.152361	0.050947	0.050527	119.828	28443.9	0.047788	0.085698	1398.25	88772
727	2.000000	1.155253	7.37217e+06	-40739.1	1005.82	-29788.8	0.000000	0.000000	7.160590	131.98	NaN	0.000000	0.001614	0.001719	28.0833	51.9994	0.001763	29491	3.156919	-2.895571	128.794	1.154840	0.053419	0.053006	131.98	29491	0.050063	0.092607	1425.17	88540.5
727	2.000000	1.157677	7.37217e+06	-40739.1	1005.82	-29788.8	0.000000	0.000000	7.163420	141.865	NaN	0.000000	0.001646	0.001732	28.0834	54.5353	0.001760	30979.2	4.982938	174.064	138.02	1.157519	0.055843	0.055685	141.865	30979.2	0.052409	0.100004	1418.6	89502.3
727	2.000000	1.160217	7.37217e+06	-40739.1	1005.82	-29788.8	0.000000	0.000000	7.166659	158.863	NaN	0.000000	0.001640	0.001814	28.0831	57.5676	0.001875	30709.3	2.254415	-2.501360	154.558	1.159847	0.058383	0.058013	158.863	30709.3	0.054503	0.106838	1486.94	85838
727	2.000000	1.162776	7.37217e+06	-40739.1	1005.82	-29788.8	0.000000	0.000000	7.169778	172.485	NaN	0.000000	0.001609	0.001795	28.0833	60.6213	0.001730	35041.6	7.135450	170.77	171.566	1.162378	0.060942	0.060544	172.485	35041.6	0.057251	0.116134	1485.22	93945.9
727	2.000000	1.165365	7.37217e+06	-40739.1	1005.82	-29788.8	0.000000	0.000000	7.173117	190.74	NaN	0.000000	0.001643	0.001802	28.0833	63.1413	0.001775	35580.2	8.235597	-8.937505	192.872	1.164799	0.063531	0.062966	190.74	35580.2	0.059511	0.124060	1537.48	92292.3
727	2.000000	1.167661	7.37217e+06	-40739.1	1005.82	-29788.8	0.000000	0.000000	7.176009	205.247	NaN	0.000000	0.001628	0.001801	28.0833	64.1924	0.001811	35444.9	3.497908	174.88	200.44	1.167416	0.065827	0.065582	205.247	35444.9	0.061484	0.131184	1564.57	89409.9
727	2.000000	1.170226	7.37217e+06	-40739.1	1005.82	-29788.8	0.000000	0.000000	7.179060	217.08	NaN	0.000000	0.001649	0.001755	28.0844	68.6317	0.001835	37392.6	8.965078	-11.1989	212.322	1.169818	0.068392	0.067985	217.08	37392.6	0.064038	0.140683	1543.04	91083
727	2.000000	1.172687	7.37217e+06	-40739.1	1005.82	-29788.8	0.000000	0.000000	7.182220	234.066	NaN	0.000000	0.001617	0.001793	28.0845	70.4972	0.001829	38535.7	5.018439	172.405	229.284	1.172511	0.070853	0.070677	234.066	38535.7	0.066298	0.149355	1567.18	91101.5
727	2.000000	1.175197	7.37217e+06	-40739.1	1005.82	-29788.8	0.000000	0.000000	7.185367	249.578	NaN	0.000000	0.001641	0.001800	28.0845	72.0324	0.001791	40222.1	4.843247	-7.148791	244.629	1.174891	0.073363	0.073057	249.578	40222.1	0.068710	0.158879	1570.87	92194.4
727	2.000000	1.177680	7.37217e+06	-40739.1	1005.82	-29788.8	0.000000	0.000000	7.188565	266.985	NaN	0.000000	0.001639	0.001766	28.0847	74.7573	0.001887	39612.3	4.450739	172.525	263.67	1.177373	0.075846	0.075539	266.985	39612.3	0.070791	0.167321	1595.65	88476.6
727	2.000000	1.180275	7.37217e+06	-40739.1	1005.82	-29788.8	0.000000	0.000000	7.191744	281.184	NaN	0.000000	0.001652	0.001792	28.0844	77.737	0.001876	41443.3	5.467102	-8.129647	280.339	1.179800	0.078441	0.077966	281.184	41443.3	0.073353	0.177992	1579.75	89748.5
727	2.000000	1.182658	7.37217e+06	-40739.1	1005.82	-29788.8	0.000000	0.000000	7.195106	305.034	NaN	0.000000	0.001653	0.001781	28.0843	79.7406	0.001893	42119.6	3.456641	173.886	299.498	1.182380	0.080824	0.080546	305.034	42119.6	0.075392	0.186712	1633.72	89057.8
727	2.000000	1.185274	7.37217e+06	-40739.1	1005.82	-29788.8	0.000000	0.000000	7.197993	311.619	NaN	0.000000	0.001698	0.001810	28.0849	80.9949	0.001808	44808.5	2.902082	-6.280420	310.696	1.184981	0.083440	0.083147	311.619	44808.5	0.078224	0.199141	1564.82	91738.9
727	2.000000	1.187884	7.37217e+06	-40739.1	1005.82	-29788.8	0.000000	0.000000	7.201054	322.577	NaN	0.000000	0.001695	0.001789	28.0846	83.713	0.001718	48738.6	9.433688	166.466	331.83	1.187472	0.086051	0.085638	322.577	48738.6	0.081087	0.212088	1520.96	96691.6
727	2.000000	1.190165	7.37217e+06	-40739.1	1005.82	-29788.8	0.000000	0.000000	7.204500	350.932	NaN	0.000000	0.001675	0.001817	28.0845	86.9343	0.001868	46536.4	5.357626	-9.488500	345.41	1.189885	0.088331	0.088051	350.932	46536.4	0.082675	0.219438	1599.23	90763.4
727	2.000000	1.192741	7.37217e+06	-40739.1	1005.82	-29788.8	0.000000	0.000000	7.207729	366.809	NaN	0.000000	0.001674	0.001793	28.0846	90.0068	0.001840	48928.1	8.309421	167.808	367.839	1.192369	0.090908	0.090535	366.809	48928.1	0.085285	0.231762	1582.7	92856.1
727	2.000000	1.195276	7.37217e+06	-40739.1	1005.82	-29788.8	0.000000	0.000000	7.211371	393.767	NaN	0.000000	0.001694	0.001790	28.0847	90.1429	0.001823	49439	4.968121	-8.081262	391.915	1.194794	0.093442	0.092961	393.767	49439	0.087468	0.242318	1625	91759.3
727	2.000000	1.197632	7.37217e+06	-40739.1	1005.82	-29788.8	0.000000	0.000000	7.214319	408.162	NaN	0.000000	0.001641	0.001826	28.0845	91.6927	0.001705	53780	3.014901	172.257	401.543	1.197366	0.095798	0.095532	408.162	53780	0.090106	0.255361	1598.37	97233.7
727	2.000000	1.200299	7.37217e+06	-40739.1	1005.82	-29788.8	0.000000	0.000000	7.217567	422.287	NaN	0.000000	0.001648	0.001850	28.0845	95.3694	0.001814	52585.2	6.339240	-10.7415	424.359	1.199836	0.098465	0.098002	422.287	52585.2	0.092442	0.267179	1580.54	92947.1
727	2.000000	1.202697	7.37217e+06	-40739.1	1005.82	-29788.8	0.000000	0.000000	7.220932	445.826	NaN	0.000000	0.001686	0.001846	28.0838	97.499	0.001902	51253.6	4.435178	171.178	445.585	1.202402	0.100863	0.100568	445.826	51253.6	0.094339	0.276959	1609.72	88979.5
727	2.000000	1.205157	7.37217e+06	-40739.1	1005.82	-29788.8	0.000000	0.000000	7.224092	462.867	NaN	0.000000	0.001661	0.001845	28.0833	98.4737	0.001831	53772.5	3.105661	-8.014123	456.748	1.204855	0.103323	0.103022	462.867	53772.5	0.096867	0.290246	1594.74	91190.6
727	2.000000	1.207616	7.37217e+06	-40739.1	1005.82	-29788.8	0.000000	0.000000	7.227607	488.534	NaN	0.000000	0.001651	0.001812	28.0831	100.372	0.001853	54174.3	4.739463	170.552	483.198	1.207373	0.105783	0.105539	488.534	54174.3	0.099019	0.301789	1618.79	90098