File: remote_trans/data/nanoindenter/0828-1/data/Data_2025-08-06,11h17m57s/2025-07-22_16-23-58_1_1192.txt
2025-07-22, 16:23:58, 1
Index	Phase	Displacement	Time	Pos X	Pos Y	Pos Z	Rot A	Rot B	Piezo Z	Force A	Force B	Gripper	Voltage A	Voltage B	Temperature	Amplitude force	Amplitude pos	Stiffness	Phase shift	Phase excitation	Force A raw	Displacement raw	HMax	HMax raw	Real Force	Real Stiffness	Contact Depth	Area	Hardness	Reduced Mod.
[#]	[#]	[um]	[s]	[um]	[um]	[um]	[m°]	[m°]	[um]	[uN]	[uN]	[V]	[V]	[V]	[°C]	[uN]	[um]	[N/m]	[°]	[°]	[uN]	[um]	[um]	[um]	[uN]	[N/m]	[um]	[um^2]	[MPa]	[MPa]
1192	1.000000	0.001410	7.3767e+06	-55989.1	1105.82	-29740	0.000000	0.000000	6.002782	-0.055355	NaN	0.000000	0.001552	0.001696	28.0809	0.086412	0.000944	91.5153	48.9858	-167.187	-0.074762	0.000160	-1.093327	-1.094578	-0.055355	91.5153	-1.092873	-4.021547E+14	1.376455E-16	NaN
1192	1.000000	0.011482	7.3767e+06	-55989.1	1105.82	-29740	0.000000	0.000000	6.012855	-0.023917	NaN	0.000000	0.001535	0.001730	28.0819	0.029278	0.001285	22.7802	-143.205	14.9257	-0.017124	0.009965	-1.083256	-1.084772	-0.023917	22.7802	-1.082468	-2.915191E+14	8.204385E-17	NaN
1192	1.000000	0.021399	7.3767e+06	-55989.1	1105.82	-29740	0.000000	0.000000	6.022774	0.022632	NaN	0.000000	0.001546	0.001695	28.0818	0.059541	0.001620	36.7453	-9.008100	-167.743	0.044766	0.020107	-1.073338	-1.074631	0.022632	36.7453	-1.073800	-2.229669E+14	-1.015040E-16	NaN
1192	1.000000	0.031371	7.3767e+06	-55989.1	1105.82	-29740	0.000000	0.000000	6.032743	-0.057635	NaN	0.000000	0.001519	0.001731	28.0817	0.050630	0.001924	26.3128	156.765	13.0491	-0.063597	0.030050	-1.063367	-1.064688	-0.057635	26.3128	-1.061724	-1.534567E+14	3.755777E-16	NaN
1192	1.000000	0.041366	7.3767e+06	-55989.1	1105.82	-29740	0.000000	0.000000	6.042740	0.001118	NaN	0.000000	0.001522	0.001699	28.0822	0.128719	0.002074	62.0524	163.242	-163.639	-0.013854	0.040053	-1.053371	-1.054685	0.001118	62.0524	-1.053385	-1.185536E+14	-9.432537E-18	NaN
1192	1.000000	0.051397	7.3767e+06	-55989.1	1105.82	-29740	0.000000	0.000000	6.052770	-0.031132	NaN	0.000000	0.001527	0.001742	28.0819	0.091917	0.001926	47.7339	162.768	14.2324	-0.016357	0.050036	-1.043340	-1.044702	-0.031132	47.7339	-1.042851	-8.556687E+13	3.638341E-16	NaN
1192	1.000000	0.061393	7.3767e+06	-55989.1	1105.82	-29740	0.000000	0.000000	6.062768	0.014515	NaN	0.000000	0.001576	0.001724	28.0823	0.002667	0.002093	1.274482	-73.7838	-164.475	0.016374	0.060108	-1.033345	-1.034630	0.014515	1.274482	-1.041886	-8.304799E+13	-1.747756E-16	NaN
1192	1.000000	0.071418	7.3767e+06	-55989.1	1105.82	-29740	0.000000	0.000000	6.072791	-0.030727	NaN	0.000000	0.001570	0.001695	28.082	0.127735	0.001996	64.0075	-140.138	13.7784	-0.014862	0.070071	-1.023320	-1.024666	-0.030727	64.0075	-1.022960	-4.621409E+13	6.648890E-16	NaN
1192	1.000000	0.081365	7.3767e+06	-55989.1	1105.82	-29740	0.000000	0.000000	6.082739	-0.024689	NaN	0.000000	0.001603	0.001747	28.0825	0.074579	0.001975	37.7569	153.425	-163.846	-0.017967	0.080070	-1.013372	-1.014667	-0.024689	37.7569	-1.012882	-3.381924E+13	7.300346E-16	NaN
1192	1.000000	0.091367	7.3767e+06	-55989.1	1105.82	-29740	0.000000	0.000000	6.092740	-0.040914	NaN	0.000000	0.001623	0.001725	28.0819	0.070408	0.002011	35.0078	65.3413	13.1724	-0.005325	0.090007	-1.003370	-1.004730	-0.040914	35.0078	-1.002494	-2.450975E+13	1.669302E-15	NaN
1192	1.000000	0.101376	7.3767e+06	-55989.1	1105.82	-29740	0.000000	0.000000	6.102750	0.010264	NaN	0.000000	0.001609	0.001731	28.0819	0.097119	0.002109	46.058	162.313	-161.512	-0.006995	0.100107	-0.993362	-0.994631	0.010264	46.058	-0.993529	-1.856251E+13	-5.529674E-16	NaN
1192	1.000000	0.111380	7.3767e+06	-55989.1	1105.82	-29740	0.000000	0.000000	6.112754	0.003559	NaN	0.000000	0.001614	0.001685	28.082	0.019391	0.001856	10.4462	-6.821197	16.3551	-0.012773	0.110046	-0.983357	-0.984691	0.003559	10.4462	-0.983613	-1.364842E+13	-2.607618E-16	NaN
1192	1.000000	0.121404	7.3767e+06	-55989.1	1105.82	-29740	0.000000	0.000000	6.122776	-0.031637	NaN	0.000000	0.001631	0.001727	28.082	0.077246	0.001970	39.2026	56.2131	-164.545	0.002374	0.120027	-0.973334	-0.974711	-0.031637	39.2026	-0.972729	-9.737217E+12	3.249101E-15	NaN
1192	1.000000	0.131409	7.3767e+06	-55989.1	1105.82	-29740	0.000000	0.000000	6.132783	-0.000778	NaN	0.000000	0.001596	0.001747	28.0818	0.008711	0.002011	4.331907	-134.485	14.4509	-0.020885	0.130029	-0.963329	-0.964708	-0.000778	4.331907	-0.963194	-7.243172E+12	1.073868E-16	NaN
1192	1.000000	0.141404	7.3767e+06	-55989.1	1105.82	-29740	0.000000	0.000000	6.142778	0.005446	NaN	0.000000	0.001655	0.001703	28.0819	0.066249	0.001992	33.2634	154.624	-164.458	0.000674	0.140097	-0.953334	-0.954640	0.005446	33.2634	-0.953456	-5.353535E+12	-1.017184E-15	NaN
1192	1.000000	0.151406	7.3767e+06	-55989.1	1105.82	-29740	0.000000	0.000000	6.152780	-0.007002	NaN	0.000000	0.001617	0.001687	28.081	0.106433	0.001990	53.4707	99.0465	15.6071	0.002825	0.150096	-0.943331	-0.944642	-0.007002	53.4707	-0.943233	-3.897218E+12	1.796565E-15	NaN
1192	1.000000	0.161388	7.3767e+06	-55989.1	1105.82	-29740	0.000000	0.000000	6.162761	-0.030590	NaN	0.000000	0.001626	0.001712	28.0808	0.038747	0.002058	18.8256	-94.1438	-166.059	-0.087212	0.160136	-0.933350	-0.934601	-0.030590	18.8256	-0.932131	-2.760300E+12	1.108202E-14	NaN
1192	1.000000	0.171419	7.3767e+06	-55989.1	1105.82	-29740	0.000000	0.000000	6.172791	-0.052389	NaN	0.000000	0.001625	0.001711	28.0807	0.147002	0.002006	73.2906	163.721	13.0821	-0.090250	0.170051	-0.923318	-0.924686	-0.052389	73.2906	-0.922782	-2.064280E+12	2.537889E-14	NaN
1192	1.000000	0.181420	7.3767e+06	-55989.1	1105.82	-29740	0.000000	0.000000	6.182791	-0.059588	NaN	0.000000	0.001661	0.001743	28.0808	0.095135	0.001959	48.5652	156.518	-163.507	-0.091026	0.180123	-0.913318	-0.914615	-0.059588	48.5652	-0.912397	-1.494665E+12	3.986690E-14	NaN
1192	1.000000	0.191433	7.3767e+06	-55989.1	1105.82	-29740	0.000000	0.000000	6.192805	-0.053824	NaN	0.000000	0.001664	0.001707	28.0809	0.088653	0.001943	45.6189	-20.6765	13.538	-0.116740	0.190103	-0.903304	-0.904634	-0.053824	45.6189	-0.902419	-1.095866E+12	4.911554E-14	NaN
1192	1.000000	0.201447	7.3767e+06	-55989.1	1105.82	-29740	0.000000	0.000000	6.202817	-0.077903	NaN	0.000000	0.001681	0.001735	28.0809	0.121653	0.002148	56.6345	33.9873	-162.452	-0.048187	0.200117	-0.893291	-0.894621	-0.077903	56.6345	-0.892259	-7.988297E+11	9.752197E-14	NaN
1192	1.000000	0.211424	7.3767e+06	-55989.1	1105.82	-29740	0.000000	0.000000	6.212797	-0.014304	NaN	0.000000	0.001669	0.001732	28.081	0.066344	0.001973	33.6208	-106.514	12.9053	-0.058217	0.210093	-0.883314	-0.884645	-0.014304	33.6208	-0.882995	-5.986913E+11	2.389277E-14	NaN
1192	1.000000	0.221443	7.3767e+06	-55989.1	1105.82	-29740	0.000000	0.000000	6.222820	0.073368	NaN	0.000000	0.001636	0.001724	28.0808	0.042388	0.002001	21.1812	-98.7904	-161.621	0.043767	0.220135	-0.873295	-0.874602	0.073368	21.1812	-0.875893	-4.799102E+11	-1.528794E-13	NaN
1192	1.000000	0.231446	7.3767e+06	-55989.1	1105.82	-29740	0.000000	0.000000	6.232819	-0.029050	NaN	0.000000	0.001643	0.001717	28.0808	0.181142	0.002037	88.9179	154.604	16.055	0.032503	0.230091	-0.863292	-0.864647	-0.029050	88.9179	-0.863047	-3.216301E+11	9.032221E-14	NaN
1192	1.000000	0.241418	7.3767e+06	-55989.1	1105.82	-29740	0.000000	0.000000	6.242791	-0.033800	NaN	0.000000	0.001651	0.001702	28.0809	0.132118	0.001889	69.926	166.362	-166.621	-0.044842	0.240173	-0.853319	-0.854565	-0.033800	69.926	-0.852957	-2.348394E+11	1.439276E-13	NaN
1192	1.000000	0.251453	7.3767e+06	-55989.1	1105.82	-29740	0.000000	0.000000	6.252825	-0.055429	NaN	0.000000	0.001657	0.001685	28.0809	0.027221	0.001992	13.6656	171.544	17.0096	-0.040714	0.250099	-0.843285	-0.844638	-0.055429	13.6656	-0.840243	-1.579716E+11	3.508798E-13	NaN
1192	1.000000	0.261484	7.3767e+06	-55989.1	1105.82	-29740	0.000000	0.000000	6.262855	-0.070706	NaN	0.000000	0.001671	0.001682	28.0808	0.051159	0.001912	26.7502	132.561	-168.818	-0.057457	0.260153	-0.833254	-0.834584	-0.070706	26.7502	-0.831271	-1.194024E+11	5.921671E-13	NaN
1192	1.000000	0.271451	7.3767e+06	-55989.1	1105.82	-29740	0.000000	0.000000	6.272828	0.066665	NaN	0.000000	0.001581	0.001702	28.081	0.058522	0.002038	28.7158	105.979	15.0636	0.018919	0.270112	-0.823286	-0.824626	0.066665	28.7158	-0.825027	-9.826046E+10	-6.784480E-13	NaN
1192	1.000000	0.281483	7.3767e+06	-55989.1	1105.82	-29740	0.000000	0.000000	6.282856	-0.038312	NaN	0.000000	0.001581	0.001693	28.0819	0.035240	0.001999	17.628	-134.156	-164.461	-0.079129	0.280182	-0.813254	-0.814555	-0.038312	17.628	-0.811624	-6.465607E+10	5.925544E-13	NaN
1192	1.000000	0.291482	7.3767e+06	-55989.1	1105.82	-29740	0.000000	0.000000	6.292854	-0.047401	NaN	0.000000	0.001599	0.001660	28.0823	0.063656	0.002090	30.4598	68.0154	14.2504	-0.020518	0.290073	-0.803256	-0.804664	-0.047401	30.4598	-0.802089	-4.799672E+10	9.875895E-13	NaN
1192	1.000000	0.301481	7.3767e+06	-55989.1	1105.82	-29740	0.000000	0.000000	6.302853	-0.051801	NaN	0.000000	0.001580	0.001701	28.0821	0.028108	0.001980	14.1925	75.6563	-162.969	-0.071714	0.300116	-0.793256	-0.794621	-0.051801	14.1925	-0.790519	-3.342979E+10	1.549531E-12	NaN
1192	1.000000	0.311505	7.3767e+06	-55989.1	1105.82	-29740	0.000000	0.000000	6.312878	-0.015305	NaN	0.000000	0.001600	0.001704	28.0822	0.038036	0.002015	18.8796	-168.023	16.8405	-0.024157	0.310099	-0.783233	-0.784638	-0.015305	18.8796	-0.782625	-2.611527E+10	5.860475E-13	NaN
1192	1.000000	0.321497	7.3767e+06	-55989.1	1105.82	-29740	0.000000	0.000000	6.322871	0.001187	NaN	0.000000	0.001588	0.001682	28.0819	0.076573	0.001930	39.6676	159.695	-164.056	0.019112	0.320159	-0.773240	-0.774578	0.001187	39.6676	-0.773263	-1.948325E+10	-6.092802E-14	NaN
1192	1.000000	0.331481	7.3767e+06	-55989.1	1105.82	-29740	0.000000	0.000000	6.332855	-0.004282	NaN	0.000000	0.001576	0.001699	28.0822	0.033903	0.002080	16.2964	-19.4831	15.666	0.037881	0.330183	-0.763257	-0.764554	-0.004282	16.2964	-0.763059	-1.415535E+10	3.025144E-13	NaN
1192	1.000000	0.341475	7.3767e+06	-55989.1	1105.82	-29740	0.000000	0.000000	6.342851	0.049621	NaN	0.000000	0.001605	0.001653	28.0822	0.027076	0.002028	13.353	67.624	-163.649	0.005322	0.340171	-0.753263	-0.754567	0.049621	13.353	-0.756050	-1.136464E+10	-4.366252E-12	NaN
1192	1.000000	0.351496	7.3767e+06	-55989.1	1105.82	-29740	0.000000	0.000000	6.352870	0.005889	NaN	0.000000	0.001603	0.001679	28.0822	0.061342	0.001974	31.0733	-99.992	18.9762	-0.070511	0.350119	-0.743242	-0.744618	0.005889	31.0733	-0.743384	-7.640879E+9	-7.707096E-13	NaN
1192	1.000000	0.361489	7.3767e+06	-55989.1	1105.82	-29740	0.000000	0.000000	6.362861	-0.060270	NaN	0.000000	0.001631	0.001679	28.082	0.099969	0.002052	48.7189	-129.349	-166.959	-0.069769	0.360193	-0.733248	-0.734544	-0.060270	48.7189	-0.732320	-5.400463E+9	1.116023E-11	NaN
1192	1.000000	0.371505	7.3767e+06	-55989.1	1105.82	-29740	0.000000	0.000000	6.372881	0.051242	NaN	0.000000	0.001612	0.001723	28.0822	0.035256	0.002044	17.2447	18.5523	13.0177	-0.048605	0.370118	-0.723233	-0.724619	0.051242	17.2447	-0.725461	-4.354549E+9	-1.176752E-11	NaN
1192	1.000000	0.381476	7.3767e+06	-55989.1	1105.82	-29740	0.000000	0.000000	6.382850	-0.005551	NaN	0.000000	0.001603	0.001672	28.082	0.072506	0.002052	35.3349	-139.676	-163.349	-0.028651	0.380208	-0.713261	-0.714530	-0.005551	35.3349	-0.713143	-2.957603E+9	1.876799E-12	NaN
1192	1.000000	0.391499	7.3767e+06	-55989.1	1105.82	-29740	0.000000	0.000000	6.392870	-0.078587	NaN	0.000000	0.001607	0.001713	28.082	0.079113	0.001981	39.9399	83.1705	17.5629	-0.054330	0.390138	-0.703239	-0.704599	-0.078587	39.9399	-0.701763	-2.068271E+9	3.799637E-11	NaN
1192	1.000000	0.401514	7.3767e+06	-55989.1	1105.82	-29740	0.000000	0.000000	6.402885	-0.080067	NaN	0.000000	0.001568	0.001670	28.0818	0.124681	0.002032	61.3722	-56.3078	-165.644	-0.080051	0.400194	-0.693223	-0.694543	-0.080067	61.3722	-0.692245	-1.533182E+9	5.222244E-11	NaN
1192	1.000000	0.411539	7.3767e+06	-55989.1	1105.82	-29740	0.000000	0.000000	6.412914	0.027222	NaN	0.000000	0.001616	0.001711	28.0823	0.017770	0.002029	8.757131	-106.074	17.1445	0.023561	0.410196	-0.683198	-0.684542	0.027222	8.757131	-0.685530	-1.241133E+9	-2.193289E-11	NaN
1192	1.000000	0.421520	7.3767e+06	-55989.1	1105.82	-29740	0.000000	0.000000	6.422894	0.006275	NaN	0.000000	0.001561	0.001671	28.0808	0.053315	0.002104	25.3452	41.2752	-164.291	0.042853	0.420225	-0.673217	-0.674512	0.006275	25.3452	-0.673403	-8.471546E+8	-7.407579E-12	NaN
1192	1.000000	0.431520	7.3767e+06	-55989.1	1105.82	-29740	0.000000	0.000000	6.432894	-0.024793	NaN	0.000000	0.001592	0.001732	28.0808	0.044144	0.001986	22.2228	26.8405	16.6474	-0.011549	0.430179	-0.663217	-0.664558	-0.024793	22.2228	-0.662380	-5.985072E+8	4.142550E-11	NaN
1192	1.000000	0.441529	7.3767e+06	-55989.1	1105.82	-29740	0.000000	0.000000	6.442905	0.042503	NaN	0.000000	0.001602	0.001696	28.0808	0.007469	0.001926	3.878405	-142.917	-164.301	-0.022446	0.440244	-0.653209	-0.654494	0.042503	3.878405	-0.661428	-5.808004E+8	-7.317944E-11	NaN
1192	1.000000	0.451539	7.37671e+06	-55989.1	1105.82	-29740	0.000000	0.000000	6.452911	-0.053818	NaN	0.000000	0.001602	0.001643	28.0813	0.114716	0.002028	56.5584	173.966	20.0434	-0.071675	0.450199	-0.643198	-0.644539	-0.053818	56.5584	-0.642484	-3.194275E+8	1.684837E-10	NaN
1192	1.000000	0.461551	7.37671e+06	-55989.1	1105.82	-29740	0.000000	0.000000	6.462925	0.005009	NaN	0.000000	0.001633	0.001674	28.0808	0.166336	0.002024	82.1736	-177.293	-165.29	0.009607	0.460229	-0.633187	-0.634509	0.005009	82.1736	-0.633232	-2.384552E+8	-2.100512E-11	NaN
1192	1.000000	0.471556	7.37671e+06	-55989.1	1105.82	-29740	0.000000	0.000000	6.472931	0.014217	NaN	0.000000	0.001634	0.001670	28.0811	0.115412	0.001956	58.9976	133.803	13.5579	-0.021741	0.470170	-0.623181	-0.624567	0.014217	58.9976	-0.623362	-1.745175E+8	-8.146590E-11	NaN
1192	1.000000	0.481536	7.37671e+06	-55989.1	1105.82	-29740	0.000000	0.000000	6.482911	-0.000526	NaN	0.000000	0.001630	0.001699	28.0809	0.052861	0.001942	27.2229	-19.1779	-166.148	0.004335	0.480269	-0.613201	-0.614468	-0.000526	27.2229	-0.613187	-1.264591E+8	4.157216E-12	NaN
1192	1.000000	0.491583	7.37671e+06	-55989.1	1105.82	-29740	0.000000	0.000000	6.492957	-0.022074	NaN	0.000000	0.001624	0.001671	28.0813	0.050747	0.002035	24.9382	167.586	13.0041	-0.126205	0.490191	-0.603154	-0.604546	-0.022074	24.9382	-0.602490	-9.010579E+7	2.449771E-10	NaN
1192	1.000000	0.501603	7.37671e+06	-55989.1	1105.82	-29740	0.000000	0.000000	6.502980	0.083894	NaN	0.000000	0.001598	0.001769	28.0809	0.031321	0.002124	14.7475	155.172	-167.73	0.036316	0.500269	-0.593135	-0.594469	0.083894	14.7475	-0.597401	-7.667728E+7	-1.094119E-9	NaN
1192	1.000000	0.511569	7.37671e+06	-55989.1	1105.82	-29740	0.000000	0.000000	6.512944	0.017919	NaN	0.000000	0.001609	0.001680	28.081	0.056427	0.001928	29.2733	26.3615	17.373	-0.009567	0.510252	-0.583169	-0.584485	0.017919	29.2733	-0.583628	-4.952065E+7	-3.618463E-10	NaN
1192	1.000000	0.521570	7.37671e+06	-55989.1	1105.82	-29740	0.000000	0.000000	6.522947	0.084242	NaN	0.000000	0.001603	0.001743	28.0809	0.058231	0.002026	28.7355	-162.533	-161.93	-0.021201	0.520274	-0.573168	-0.574464	0.084242	28.7355	-0.575366	-3.808527E+7	-2.211932E-9	NaN
1192	1.000000	0.531552	7.37671e+06	-55989.1	1105.82	-29740	0.000000	0.000000	6.532926	-0.001594	NaN	0.000000	0.001635	0.001680	28.0809	0.031702	0.001926	16.4615	57.6079	15.3735	-0.009010	0.530228	-0.563185	-0.564509	-0.001594	16.4615	-0.563112	-2.578854E+7	6.180760E-11	NaN
1192	1.000000	0.541578	7.37671e+06	-55989.1	1105.82	-29740	0.000000	0.000000	6.542953	0.010656	NaN	0.000000	0.001603	0.001726	28.081	0.008536	0.001812	4.709716	177.18	-165.432	-0.037644	0.540251	-0.553160	-0.554487	0.010656	4.709716	-0.554856	-1.982447E+7	-5.375174E-10	NaN
1192	1.000000	0.551603	7.37671e+06	-55989.1	1105.82	-29740	0.000000	0.000000	6.552977	-0.015504	NaN	0.000000	0.001615	0.001684	28.0807	0.043337	0.002037	21.2731	80.1078	14.9271	0.052152	0.550208	-0.543134	-0.544529	-0.015504	21.2731	-0.542588	-1.340411E+7	1.156661E-9	NaN
1192	1.000000	0.561590	7.37671e+06	-55989.1	1105.82	-29740	0.000000	0.000000	6.562963	-0.040970	NaN	0.000000	0.001624	0.001675	28.0821	0.084338	0.001973	42.7566	-91.758	-167.355	-0.030493	0.560237	-0.533147	-0.534501	-0.040970	42.7566	-0.532428	-9.68934e+06	4.228310E-9	NaN
1192	1.000000	0.571596	7.37671e+06	-55989.1	1105.82	-29740	0.000000	0.000000	6.572970	-0.012653	NaN	0.000000	0.001623	0.001696	28.082	0.039987	0.001937	20.6475	60.9958	12.3948	0.032493	0.570230	-0.523142	-0.524508	-0.012653	20.6475	-0.522682	-7.09398e+06	1.783642E-9	NaN
1192	1.000000	0.581631	7.37671e+06	-55989.1	1105.82	-29740	0.000000	0.000000	6.583004	-0.030876	NaN	0.000000	0.001621	0.001698	28.082	0.125737	0.001878	66.9582	46.136	-164.806	-0.004030	0.580285	-0.513107	-0.514452	-0.030876	66.9582	-0.512761	-5.16251e+06	5.980861E-9	NaN
1192	1.000000	0.591592	7.37671e+06	-55989.1	1105.82	-29740	0.000000	0.000000	6.592966	-0.004492	NaN	0.000000	0.001606	0.001689	28.0819	0.151354	0.001893	79.9651	-155.35	14.4671	0.030182	0.590217	-0.503146	-0.504521	-0.004492	79.9651	-0.503104	-3.78708e+06	1.186115E-9	NaN
1192	1.000000	0.601604	7.37671e+06	-55989.1	1105.82	-29740	0.000000	0.000000	6.602978	-0.016440	NaN	0.000000	0.001599	0.001706	28.0821	0.140961	0.002053	68.6534	125.601	-164.06	-0.009239	0.600282	-0.493133	-0.494455	-0.016440	68.6534	-0.492954	-2.73313e+06	6.015124E-9	NaN
1192	1.000000	0.611612	7.37671e+06	-55989.1	1105.82	-29740	0.000000	0.000000	6.612984	-0.044180	NaN	0.000000	0.001604	0.001725	28.082	0.030954	0.002061	15.0181	-64.174	16.7534	-0.001837	0.610259	-0.483126	-0.484479	-0.044180	15.0181	-0.480919	-1.85522e+06	2.381365E-8	NaN
1192	1.000000	0.621626	7.37671e+06	-55989.1	1105.82	-29740	0.000000	0.000000	6.622997	-0.086418	NaN	0.000000	0.001557	0.001708	28.0821	0.014096	0.002002	7.040500	-51.2169	-160.327	-0.059716	0.620319	-0.473111	-0.474419	-0.086418	7.040500	-0.463906	-1.07123e+06	8.067168E-8	NaN
1192	1.000000	0.631615	7.37671e+06	-55989.1	1105.82	-29740	0.000000	0.000000	6.632988	-0.036837	NaN	0.000000	0.001584	0.001734	28.0819	0.043049	0.002064	20.8577	-161.697	15.5493	-0.108234	0.630254	-0.463122	-0.464483	-0.036837	20.8577	-0.461797	-1.00063e+06	3.681378E-8	NaN
1192	1.000000	0.641649	7.37671e+06	-55989.1	1105.82	-29740	0.000000	0.000000	6.643019	-0.090214	NaN	0.000000	0.001590	0.001651	28.082	0.031663	0.001887	16.7788	-55.7578	-165.167	-0.065806	0.640243	-0.453089	-0.454495	-0.090214	16.7788	-0.449056	-662292	1.362149E-7	NaN
1192	1.000000	0.651631	7.37671e+06	-55989.1	1105.82	-29740	0.000000	0.000000	6.653003	-0.053575	NaN	0.000000	0.001576	0.001612	28.0817	0.057132	0.002019	28.3005	140.063	14.5553	-0.044609	0.650291	-0.443107	-0.444446	-0.053575	28.3005	-0.441687	-521395	1.027528E-7	NaN
1192	1.000000	0.661624	7.37671e+06	-55989.1	1105.82	-29740	0.000000	0.000000	6.662996	-0.053950	NaN	0.000000	0.001578	0.001652	28.0817	0.059151	0.001958	30.2169	103.43	-162.903	-0.070285	0.660320	-0.433113	-0.434417	-0.053950	30.2169	-0.431774	-377710	1.428342E-7	NaN
1192	1.000000	0.671631	7.37671e+06	-55989.1	1105.82	-29740	0.000000	0.000000	6.673005	-0.009651	NaN	0.000000	0.001595	0.001657	28.082	0.059959	0.001976	30.3449	-122.89	15.0358	-0.036744	0.670250	-0.423106	-0.424488	-0.009651	30.3449	-0.422868	-282534	3.415962E-8	NaN
1192	1.000000	0.681639	7.37671e+06	-55989.1	1105.82	-29740	0.000000	0.000000	6.683011	-0.046737	NaN	0.000000	0.001585	0.001678	28.0818	0.063274	0.001953	32.3904	-141.63	-168.118	-0.039917	0.680300	-0.413098	-0.414437	-0.046737	32.3904	-0.412016	-198183	2.358256E-7	NaN
1192	1.000000	0.691644	7.37671e+06	-55989.1	1105.82	-29740	0.000000	0.000000	6.693017	-0.013632	NaN	0.000000	0.001585	0.001666	28.0807	0.064252	0.002090	30.7489	-16.6968	13.9849	-0.026177	0.690290	-0.403094	-0.404447	-0.013632	30.7489	-0.402761	-146338	9.315188E-8	NaN
1192	1.000000	0.701637	7.37671e+06	-55989.1	1105.82	-29740	0.000000	0.000000	6.703009	-0.046354	NaN	0.000000	0.001607	0.001754	28.0806	0.124839	0.001905	65.5452	-36.8088	-161.03	-0.034100	0.700315	-0.393101	-0.394422	-0.046354	65.5452	-0.392570	-104694	4.427565E-7	NaN
1192	1.000000	0.711675	7.37671e+06	-55989.1	1105.82	-29740	0.000000	0.000000	6.713047	-0.047653	NaN	0.000000	0.001576	0.001710	28.0808	0.006656	0.002145	3.102902	-34.0607	15.2701	-0.093632	0.710254	-0.383062	-0.384483	-0.047653	3.102902	-0.371544	-52282.8	9.114410E-7	NaN
1192	1.000000	0.721658	7.37671e+06	-55989.1	1105.82	-29740	0.000000	0.000000	6.723028	-0.096184	NaN	0.000000	0.001595	0.001707	28.0808	0.070510	0.001984	35.532	-130.255	-163.934	-0.104163	0.720312	-0.373080	-0.374425	-0.096184	35.532	-0.371049	-51432.6	1.870102E-6	NaN
1192	1.000000	0.731673	7.37671e+06	-55989.1	1105.82	-29740	0.000000	0.000000	6.733045	-0.053983	NaN	0.000000	0.001608	0.001709	28.0807	0.059858	0.001974	30.3249	-107.488	12.8181	0.014763	0.730265	-0.363064	-0.364472	-0.053983	30.3249	-0.361729	-37742.4	1.430310E-6	NaN
1192	1.000000	0.741668	7.37671e+06	-55989.1	1105.82	-29740	0.000000	0.000000	6.743042	-0.015950	NaN	0.000000	0.001556	0.001681	28.0809	0.057390	0.001926	29.8012	72.7745	-166.45	-0.087341	0.740367	-0.353069	-0.354371	-0.015950	29.8012	-0.352668	-27906.4	5.715686E-7	NaN
1192	1.000000	0.751656	7.37671e+06	-55989.1	1105.82	-29740	0.000000	0.000000	6.753029	-0.026015	NaN	0.000000	0.001559	0.001691	28.0806	0.044846	0.001907	23.5146	-157.697	13.6649	0.001611	0.750342	-0.343081	-0.344396	-0.026015	23.5146	-0.342252	-19695.1	1.320886E-6	NaN
1192	1.000000	0.761704	7.37671e+06	-55989.1	1105.82	-29740	0.000000	0.000000	6.763079	0.042891	NaN	0.000000	0.001555	0.001687	28.0807	0.115952	0.001899	61.074	14.9664	-167.737	0.057807	0.760344	-0.333034	-0.334393	0.042891	61.074	-0.333561	-14707.9	-2.916203E-6	NaN
1192	1.000000	0.771672	7.37671e+06	-55989.1	1105.82	-29740	0.000000	0.000000	6.773048	0.029679	NaN	0.000000	0.001601	0.001677	28.0806	0.023683	0.002029	11.6739	-47.1668	12.0358	0.014977	0.770307	-0.323065	-0.324430	0.029679	11.6739	-0.324972	-11008.5	-2.696046E-6	NaN
1192	1.000000	0.781685	7.37671e+06	-55989.1	1105.82	-29740	0.000000	0.000000	6.783059	-0.004860	NaN	0.000000	0.001579	0.001718	28.0808	0.148762	0.001997	74.4808	-97.4662	-164.444	0.006978	0.780349	-0.313053	-0.314389	-0.004860	74.4808	-0.313004	-7336.18	6.624293E-7	NaN
1192	1.000000	0.791692	7.37671e+06	-55989.1	1105.82	-29740	0.000000	0.000000	6.793065	-0.028175	NaN	0.000000	0.001536	0.001693	28.0807	0.065834	0.002159	30.4943	127.594	15.6705	-0.014424	0.790332	-0.303046	-0.304406	-0.028175	30.4943	-0.302353	-5100.79	5.523617E-6	NaN
1192	1.000000	0.801685	7.37671e+06	-55989.1	1105.82	-29740	0.000000	0.000000	6.803057	-0.055132	NaN	0.000000	0.001595	0.001722	28.0808	0.037658	0.001925	19.5649	114.096	-161.24	-0.041024	0.800363	-0.293052	-0.294374	-0.055132	19.5649	-0.290939	-3446.37	1.599720E-5	NaN
1192	1.000000	0.811677	7.37671e+06	-55989.1	1105.82	-29740	0.000000	0.000000	6.813049	-0.034390	NaN	0.000000	0.001576	0.001710	28.0808	0.040772	0.001959	20.8164	134.627	14.1679	-0.098538	0.810325	-0.283061	-0.284413	-0.034390	20.8164	-0.281822	-2514.42	1.367707E-5	NaN
1192	1.000000	0.821703	7.37671e+06	-55989.1	1105.82	-29740	0.000000	0.000000	6.823079	0.043273	NaN	0.000000	0.001590	0.001659	28.0808	0.090208	0.002078	43.4022	-126.552	-161.176	0.087541	0.820363	-0.273034	-0.274374	0.043273	43.4022	-0.273782	-1900.85	-2.276507E-5	NaN
1192	1.000000	0.831728	7.37671e+06	-55989.1	1105.82	-29740	0.000000	0.000000	6.833101	-0.022489	NaN	0.000000	0.001584	0.001680	28.0819	0.029593	0.002117	13.9774	133.408	13.3056	0.053634	0.830379	-0.263009	-0.264358	-0.022489	13.9774	-0.261803	-1248.89	1.800684E-5	NaN
1192	1.000000	0.841706	7.37671e+06	-55989.1	1105.82	-29740	0.000000	0.000000	6.843079	-0.042474	NaN	0.000000	0.001584	0.001696	28.0819	0.048151	0.002024	23.7857	-129.922	-161.835	0.099239	0.840415	-0.253031	-0.254322	-0.042474	23.7857	-0.251692	-873.202	4.864112E-5	NaN
1192	1.000000	0.851709	7.37671e+06	-55989.1	1105.82	-29740	0.000000	0.000000	6.853083	-0.002729	NaN	0.000000	0.001581	0.001735	28.0822	0.057861	0.002101	27.535	51.029	12.5103	0.031978	0.850356	-0.243028	-0.244382	-0.002729	27.535	-0.242954	-639.175	4.269297E-6	NaN
1192	1.000000	0.861713	7.37671e+06	-55989.1	1105.82	-29740	0.000000	0.000000	6.863088	0.021210	NaN	0.000000	0.001611	0.001716	28.082	0.064586	0.001963	32.9021	-116.229	-164.546	-0.045641	0.860383	-0.233024	-0.234355	0.021210	32.9021	-0.233508	-454.772	-4.663842E-5	NaN
1192	1.000000	0.871706	7.37671e+06	-55989.1	1105.82	-29740	0.000000	0.000000	6.873077	-0.068965	NaN	0.000000	0.001606	0.001700	28.0819	0.054332	0.002031	26.7525	120.05	16.3981	-0.036910	0.870341	-0.223032	-0.224396	-0.068965	26.7525	-0.221098	-289.211	0.000238	NaN
1192	1.000000	0.881715	7.37671e+06	-55989.1	1105.82	-29740	0.000000	0.000000	6.883087	-0.049444	NaN	0.000000	0.001612	0.001715	28.0819	0.044886	0.001958	22.93	-143.308	-164.297	-0.016976	0.880395	-0.213022	-0.214343	-0.049444	22.93	-0.211405	-202.093	0.000245	NaN
1192	1.000000	0.891736	7.37671e+06	-55989.1	1105.82	-29740	0.000000	0.000000	6.893115	0.113720	NaN	0.000000	0.001673	0.001707	28.0822	0.083256	0.002091	39.8114	-160.397	12.9495	0.153136	0.890339	-0.203001	-0.204399	0.113720	39.8114	-0.205144	-159.92	-0.000711	NaN
1192	1.000000	0.901737	7.37671e+06	-55989.1	1105.82	-29740	0.000000	0.000000	6.903109	-0.039856	NaN	0.000000	0.001677	0.001722	28.0821	0.063441	0.001950	32.5381	38.3089	-166.473	-0.004740	0.900428	-0.193001	-0.194310	-0.039856	32.5381	-0.192082	-97.4431	0.000409	NaN
1192	1.000000	0.911726	7.37671e+06	-55989.1	1105.82	-29740	0.000000	0.000000	6.913100	7.378602E-5	NaN	0.000000	0.001671	0.001669	28.0822	0.013608	0.001875	7.255935	-48.2632	14.5321	-0.032668	0.910426	-0.183011	-0.184311	7.378602E-5	7.255935	-0.183019	-68.657	-1.074705E-6	NaN
1192	1.000000	0.921727	7.37671e+06	-55989.1	1105.82	-29740	0.000000	0.000000	6.923102	0.021852	NaN	0.000000	0.001592	0.001718	28.0821	0.055360	0.002014	27.4823	123.705	-165.039	0.013299	0.920442	-0.173011	-0.174295	0.021852	27.4823	-0.173607	-47.425	-0.000461	NaN
1192	1.000000	0.931720	7.37671e+06	-55989.1	1105.82	-29740	0.000000	0.000000	6.933091	-0.081585	NaN	0.000000	0.001562	0.001708	28.0824	0.106269	0.002079	51.1201	-105.803	18.1571	0.016958	0.930367	-0.163017	-0.164370	-0.081585	51.1201	-0.161820	-29.5295	0.002763	NaN
1192	1.000000	0.941711	7.37671e+06	-55989.1	1105.82	-29740	0.000000	0.000000	6.943083	-0.051494	NaN	0.000000	0.001638	0.001696	28.082	0.007695	0.002133	3.607258	124.049	-162.726	-0.063692	0.940488	-0.153027	-0.154250	-0.051494	3.607258	-0.142320	-13.0736	0.003939	NaN
1192	1.000000	0.951761	7.37671e+06	-55989.1	1105.82	-29740	0.000000	0.000000	6.953135	0.004442	NaN	0.000000	0.001679	0.001653	28.082	0.068752	0.001924	35.7364	-141.1	17.9172	-0.027189	0.950358	-0.142977	-0.144379	0.004442	35.7364	-0.143070	-13.5008	-0.000329	NaN
1192	1.000000	0.961746	7.37671e+06	-55989.1	1105.82	-29740	0.000000	0.000000	6.963119	-0.025908	NaN	0.000000	0.001679	0.001667	28.0821	0.046924	0.002054	22.842	82.8605	-167.521	-0.022139	0.960460	-0.132992	-0.134277	-0.025908	22.842	-0.132141	-8.383907	0.003090	NaN
1192	1.000000	0.971750	7.37671e+06	-55989.1	1105.82	-29740	0.000000	0.000000	6.973125	0.031312	NaN	0.000000	0.001658	0.001686	28.0813	0.105695	0.001988	53.1618	-159.842	17.6602	0.020088	0.970455	-0.122988	-0.124282	0.031312	53.1618	-0.123430	-5.660147	-0.005532	NaN
1192	1.000000	0.981771	7.37671e+06	-55989.1	1105.82	-29740	0.000000	0.000000	6.983144	-0.031630	NaN	0.000000	0.001641	0.001674	28.081	0.089157	0.001990	44.7937	-175.856	-165.107	0.003992	0.980487	-0.112967	-0.114251	-0.031630	44.7937	-0.112437	-3.380420	0.009357	NaN
1192	1.000000	0.991753	7.37671e+06	-55989.1	1105.82	-29740	0.000000	0.000000	6.993128	0.010868	NaN	0.000000	0.001589	0.001660	28.0809	0.066575	0.001999	33.297	-71.3089	16.9451	-0.074170	0.990448	-0.102984	-0.104290	0.010868	33.297	-0.103229	-2.151520	-0.005052	NaN
1192	1.000000	1.001784	7.37671e+06	-55989.1	1105.82	-29740	0.000000	0.000000	7.003153	-0.128697	NaN	0.000000	0.001644	0.001692	28.0812	0.090749	0.002069	43.8577	-54.5044	-167.665	-0.050601	1.000438	-0.092953	-0.094299	-0.128697	43.8577	-0.090752	-1.125727	0.114323	NaN
1192	1.000000	1.011740	7.37671e+06	-55989.1	1105.82	-29740	0.000000	0.000000	7.013111	-0.078616	NaN	0.000000	0.001643	0.001725	28.081	0.046960	0.001975	23.781	0.754967	13.2641	-0.130737	1.010407	-0.082997	-0.084330	-0.078616	23.781	-0.080518	-0.637702	0.123280	NaN
1192	1.000000	1.021791	7.37671e+06	-55989.1	1105.82	-29740	0.000000	0.000000	7.023166	0.026507	NaN	0.000000	0.001611	0.001696	28.0808	0.120629	0.001934	62.3577	140.712	-164.214	0.003194	1.020474	-0.072947	-0.074263	0.026507	62.3577	-0.073265	-0.416267	-0.063678	NaN
1192	1.000000	1.031768	7.37671e+06	-55989.1	1105.82	-29740	0.000000	0.000000	7.033139	-0.079429	NaN	0.000000	0.001567	0.001694	28.0807	0.076105	0.001916	39.7217	-68.9117	12.8846	-0.146708	1.030403	-0.062969	-0.064334	-0.079429	39.7217	-0.061470	-0.198361	0.400424	NaN
1192	1.000000	1.041801	7.37671e+06	-55989.1	1105.82	-29740	0.000000	0.000000	7.043173	-0.050317	NaN	0.000000	0.001528	0.001696	28.0814	0.121471	0.002026	59.9521	-176.932	-165.133	-0.016465	1.040431	-0.052937	-0.054307	-0.050317	59.9521	-0.052307	-0.107078	0.469906	NaN
1192	1.000000	1.051775	7.37671e+06	-55989.1	1105.82	-29740	0.000000	0.000000	7.053149	-0.011584	NaN	0.000000	0.001545	0.001716	28.081	0.060725	0.001858	32.6807	-93.2633	11.3092	-0.029328	1.050402	-0.042962	-0.044336	-0.011584	32.6807	-0.042696	-0.054645	0.211981	NaN
1192	1.000000	1.061778	7.37671e+06	-55989.1	1105.82	-29740	0.000000	0.000000	7.063151	-0.040795	NaN	0.000000	0.001533	0.001678	28.0809	0.091190	0.001880	48.5027	-118.807	-163.703	-0.078524	1.060507	-0.032959	-0.034231	-0.040795	48.5027	-0.032328	-0.026779	1.523361	NaN
1192	1.000000	1.071784	7.37671e+06	-55989.1	1105.82	-29740	0.000000	0.000000	7.073159	0.017973	NaN	0.000000	0.001546	0.001703	28.0809	0.051863	0.002027	25.5905	131.933	16.2458	0.008793	1.070446	-0.022953	-0.024291	0.017973	25.5905	-0.023480	-0.015408	-1.166487	NaN
1192	1.000000	1.081809	7.37671e+06	-55989.1	1105.82	-29740	0.000000	0.000000	7.083184	-0.002423	NaN	0.000000	0.001550	0.001689	28.0812	0.017214	0.002022	8.511266	118.453	-164.242	0.063821	1.080482	-0.012928	-0.014256	-0.002423	8.511266	-0.012714	-0.007938	0.305253	NaN
1192	1.000000	1.091779	7.37671e+06	-55989.1	1105.82	-29740	0.000000	0.000000	7.093152	-0.032396	NaN	0.000000	0.001606	0.001721	28.0811	0.099491	0.001981	50.2332	-25.3954	13.103	-0.024293	1.090510	-0.002958	-0.004227	-0.032396	50.2332	-0.002475	-0.001766	18.3474	NaN
1192	1.000000	1.101705	7.37671e+06	-55989.1	1105.82	-29740	0.000000	0.000000	7.103376	7.203005	NaN	0.000000	0.001563	0.001718	28.0823	7.365364	0.001699	4334.57	10.5793	-170.81	5.842170	1.100499	0.006968	0.005762	7.203005	4334.57	0.005722	0.004802	1500.12	57151.2
1192	2.000000	1.104948	7.37671e+06	-55989.1	1105.82	-29740	0.000000	0.000000	7.106728	9.864373	NaN	0.000000	0.001570	0.001686	28.0824	10.651	0.001682	6332.21	3.175219	11.2854	9.355455	1.104586	0.010211	0.009848	9.864373	6332.21	0.009042	0.008137	1212.34	64136.6
1192	2.000000	1.107380	7.37671e+06	-55989.1	1105.82	-29740	0.000000	0.000000	7.109336	14.1592	NaN	0.000000	0.001658	0.001682	28.0832	13.477	0.001873	7194.62	5.792337	-172.124	13.3753	1.107094	0.012642	0.012357	14.1592	7194.62	0.011166	0.010507	1347.66	64128.6
1192	2.000000	1.109906	7.37671e+06	-55989.1	1105.82	-29740	0.000000	0.000000	7.111940	16.0404	NaN	0.000000	0.001642	0.001701	28.0825	15.582	0.001782	8743.9	7.968518	4.533296	15.1985	1.109607	0.015168	0.014870	16.0404	8743.9	0.013792	0.013708	1170.11	68231.5
1192	2.000000	1.112352	7.37671e+06	-55989.1	1105.82	-29740	0.000000	0.000000	7.114597	21.1579	NaN	0.000000	0.001640	0.001652	28.0829	17.7727	0.001758	10111.2	8.269148	-177.4	20.1755	1.112074	0.017615	0.017336	21.1579	10111.2	0.016045	0.016705	1266.59	71475.3
1192	2.000000	1.114841	7.37671e+06	-55989.1	1105.82	-29740	0.000000	0.000000	7.117245	25.0226	NaN	0.000000	0.001655	0.001677	28.0825	20.4379	0.001746	11704.3	5.621095	2.962980	22.6953	1.114526	0.020104	0.019789	25.0226	11704.3	0.018500	0.020240	1236.3	75164.7
1192	2.000000	1.117364	7.37671e+06	-55989.1	1105.82	-29740	0.000000	0.000000	7.119996	30.5714	NaN	0.000000	0.001648	0.001688	28.0832	23.203	0.001761	13175.5	3.291593	-175.909	29.761	1.117042	0.022627	0.022305	30.5714	13175.5	0.020886	0.023954	1276.23	77776
1192	2.000000	1.119872	7.37671e+06	-55989.1	1105.82	-29740	0.000000	0.000000	7.122712	35.644	NaN	0.000000	0.001647	0.001658	28.0824	25.3932	0.001913	13276.5	9.005985	0.159640	34.4402	1.119529	0.025134	0.024791	35.644	13276.5	0.023121	0.027685	1287.48	72901.3
1192	2.000000	1.122328	7.37671e+06	-55989.1	1105.82	-29740	0.000000	0.000000	7.125440	42.2588	NaN	0.000000	0.001586	0.001676	28.083	27.1958	0.001723	15783.9	7.044964	179.55	40.8623	1.121964	0.027590	0.027226	42.2588	15783.9	0.025582	0.032084	1317.15	80509.5
1192	2.000000	1.124815	7.37671e+06	-55989.1	1105.82	-29740	0.000000	0.000000	7.128107	46.6099	NaN	0.000000	0.001610	0.001671	28.0822	30.6341	0.001845	16602.9	6.886529	-1.394026	43.2803	1.124480	0.030078	0.029742	46.6099	16602.9	0.027972	0.036646	1271.91	79240.1
1192	2.000000	1.127299	7.37671e+06	-55989.1	1105.82	-29740	0.000000	0.000000	7.131045	57.658	NaN	0.000000	0.001616	0.001654	28.0827	31.9763	0.001675	19092.3	2.804619	-176.921	55.016	1.127009	0.032562	0.032272	57.658	19092.3	0.030297	0.041361	1394.03	85770.6
1192	2.000000	1.129837	7.37671e+06	-55989.1	1105.82	-29740	0.000000	0.000000	7.133903	65.4371	NaN	0.000000	0.001601	0.001681	28.0821	34.9286	0.001855	18827.4	6.323552	-0.748393	62.434	1.129429	0.035099	0.034692	65.4371	18827.4	0.032493	0.046069	1420.43	80142.1
1192	2.000000	1.132261	7.37671e+06	-55989.1	1105.82	-29740	0.000000	0.000000	7.136663	73.5876	NaN	0.000000	0.001620	0.001715	28.0823	37.0862	0.001689	21951.8	4.424993	178.842	69.8623	1.131956	0.037524	0.037218	73.5876	21951.8	0.035010	0.051768	1421.48	88148
1192	2.000000	1.134765	7.37671e+06	-55989.1	1105.82	-29740	0.000000	0.000000	7.139452	80.5481	NaN	0.000000	0.001580	0.001675	28.0821	40.8167	0.001754	23275.1	3.755016	-1.811458	75.2782	1.134416	0.040027	0.039678	80.5481	23275.1	0.037432	0.057559	1399.39	88635.3
1192	2.000000	1.137316	7.37671e+06	-55989.1	1105.82	-29740	0.000000	0.000000	7.142391	89.9622	NaN	0.000000	0.001633	0.001678	28.0818	43.3999	0.001825	23781.1	1.117629	-178.115	88.8568	1.137009	0.042579	0.042272	89.9622	23781.1	0.039742	0.063362	1419.8	86315.7
1192	2.000000	1.139777	7.37671e+06	-55989.1	1105.82	-29740	0.000000	0.000000	7.145264	99.9867	NaN	0.000000	0.001552	0.001691	28.081	46.1745	0.001851	24946.6	7.752413	-4.811246	97.1745	1.139388	0.045039	0.044650	99.9867	24946.6	0.042033	0.069388	1440.97	86525.1
1192	2.000000	1.142299	7.37671e+06	-55989.1	1105.82	-29740	0.000000	0.000000	7.148199	110.019	NaN	0.000000	0.001553	0.001683	28.081	46.527	0.001796	25904.6	3.357030	178.663	107.682	1.141990	0.047561	0.047252	110.019	25904.6	0.044376	0.075826	1450.95	85949
1192	2.000000	1.144795	7.37671e+06	-55989.1	1105.82	-29740	0.000000	0.000000	7.150992	117.228	NaN	0.000000	0.001557	0.001697	28.081	49.1974	0.001843	26698.9	1.979773	-0.061912	113.448	1.144440	0.050058	0.049702	117.228	26698.9	0.046765	0.082676	1417.92	84835.1
1192	2.000000	1.147327	7.37671e+06	-55989.1	1105.82	-29740	0.000000	0.000000	7.154073	130.578	NaN	0.000000	0.001556	0.001730	28.0816	53.1539	0.001855	28649.8	6.320795	174.559	130.698	1.146975	0.052589	0.052237	130.578	28649.8	0.049171	0.089869	1452.99	87315.3
1192	2.000000	1.149796	7.37671e+06	-55989.1	1105.82	-29740	0.000000	0.000000	7.157205	146.683	NaN	0.000000	0.001548	0.001705	28.081	54.6387	0.001758	31088.9	6.294386	-5.421315	143.702	1.149483	0.055059	0.054746	146.683	31088.9	0.051520	0.097170	1509.55	91119.5
1192	2.000000	1.152295	7.37671e+06	-55989.1	1105.82	-29740	0.000000	0.000000	7.160340	162.142	NaN	0.000000	0.001601	0.001757	28.0812	57.6227	0.001715	33590.6	8.453738	171.407	161.244	1.151913	0.057558	0.057176	162.142	33590.6	0.053938	0.104972	1544.62	94722.7
1192	2.000000	1.154817	7.37671e+06	-55989.1	1105.82	-29740	0.000000	0.000000	7.163377	174.672	NaN	0.000000	0.001569	0.001713	28.0809	59.6235	0.001630	36572	3.848332	-4.699170	173.456	1.154406	0.060079	0.059669	174.672	36572	0.056497	0.113548	1538.31	99158.8
1192	2.000000	1.157249	7.37671e+06	-55989.1	1105.82	-29740	0.000000	0.000000	7.166494	191.319	NaN	0.000000	0.001575	0.001712	28.0813	65.1909	0.002018	32302.6	8.117543	172.657	188.788	1.156926	0.062512	0.062188	191.319	32302.6	0.058070	0.118977	1608.03	85561.5
1192	2.000000	1.159737	7.37671e+06	-55989.1	1105.82	-29740	0.000000	0.000000	7.169557	205.312	NaN	0.000000	0.001574	0.001670	28.0808	65.0861	0.001653	39363.2	2.099423	-4.136078	198.656	1.159437	0.064999	0.064700	205.312	39363.2	0.061087	0.129736	1582.54	99846.8
1192	2.000000	1.162267	7.37671e+06	-55989.1	1105.82	-29740	0.000000	0.000000	7.172756	221.547	NaN	0.000000	0.001560	0.001641	28.0813	67.152	0.001807	37157.5	4.312019	174.606	219.419	1.161963	0.067530	0.067226	221.547	37157.5	0.063058	0.137002	1617.11	91718.6
1192	2.000000	1.164754	7.37671e+06	-55989.1	1105.82	-29740	0.000000	0.000000	7.176171	244.118	NaN	0.000000	0.001567	0.001701	28.0813	69.5224	0.001809	38441.1	3.675100	-4.841590	242.019	1.164534	0.070016	0.069796	244.118	38441.1	0.065253	0.145317	1679.9	92132
1192	2.000000	1.167190	7.37671e+06	-55989.1	1105.82	-29740	0.000000	0.000000	7.179529	266.513	NaN	0.000000	0.001558	0.001695	28.0813	72.0768	0.001739	41445.2	5.356128	172.741	260.607	1.166925	0.072453	0.072187	266.513	41445.2	0.067630	0.154580	1724.11	96309.8
1192	2.000000	1.169725	7.37671e+06	-55989.1	1105.82	-29740	0.000000	0.000000	7.182748	283.168	NaN	0.000000	0.001568	0.001716	28.0811	73.4707	0.001786	41133.9	5.656581	-7.203808	276.69	1.169424	0.074987	0.074687	283.168	41133.9	0.069824	0.163374	1733.25	92978.4
1192	2.000000	1.172299	7.37671e+06	-55989.1	1105.82	-29740	0.000000	0.000000	7.186357	308.315	NaN	0.000000	0.001556	0.001674	28.0827	75.6777	0.001852	40860.8	2.121317	176.591	307.007	1.171969	0.077561	0.077232	308.315	40860.8	0.071902	0.171912	1793.44	90038.1
1192	2.000000	1.174713	7.37671e+06	-55989.1	1105.82	-29740	0.000000	0.000000	7.189525	326.645	NaN	0.000000	0.001563	0.001678	28.0819	78.2652	0.001719	45529.8	2.548020	-4.404383	322.635	1.174367	0.079975	0.079629	326.645	45529.8	0.074595	0.183279	1782.23	97165.7
1192	2.000000	1.177260	7.37671e+06	-55989.1	1105.82	-29740	0.000000	0.000000	7.192756	343.274	NaN	0.000000	0.001583	0.001686	28.0823	82.8953	0.001742	47592.3	5.366568	171.628	342.456	1.176986	0.082523	0.082249	343.274	47592.3	0.077113	0.194220	1767.45	98665
1192	2.000000	1.179759	7.37671e+06	-55989.1	1105.82	-29740	0.000000	0.000000	7.196243	367.295	NaN	0.000000	0.001571	0.001682	28.0821	84.2314	0.001761	47830.4	6.008568	-8.197633	362.824	1.179311	0.085021	0.084573	367.295	47830.4	0.079262	0.203792	1802.3	96801.7
1192	2.000000	1.182183	7.37671e+06	-55989.1	1105.82	-29740	0.000000	0.000000	7.199233	381.029	NaN	0.000000	0.001556	0.001720	28.0825	86.9799	0.001767	49226.4	2.910565	173.604	374.891	1.181877	0.087446	0.087139	381.029	49226.4	0.081640	0.214636	1775.23	97077.8
1192	2.000000	1.184691	7.37671e+06	-55989.1	1105.82	-29740	0.000000	0.000000	7.202533	400.292	NaN	0.000000	0.001556	0.001733	28.082	90.0584	0.001811	49721.2	4.084902	-7.044096	395.271	1.184389	0.089954	0.089651	400.292	49721.2	0.083916	0.225257	1777.04	95713.9
1192	2.000000	1.187436	7.37671e+06	-55989.1	1105.82	-29740	0.000000	0.000000	7.205660	409.587	NaN	0.000000	0.001555	0.001732	28.0824	93.6539	0.001797	52117.3	5.573895	171.291	418.388	1.186985	0.092698	0.092248	409.587	52117.3	0.086804	0.239083	1713.16	97382.5
1192	2.000000	1.189780	7.37671e+06	-55989.1	1105.82	-29740	0.000000	0.000000	7.209212	438.954	NaN	0.000000	0.001571	0.001701	28.0821	93.6872	0.001770	52945.1	2.622926	-5.754228	436.311	1.189485	0.095042	0.094747	438.954	52945.1	0.088824	0.248981	1763	96942.9
1192	2.000000	1.192264	7.37671e+06	-55989.1	1105.82	-29740	0.000000	0.000000	7.212459	457.49	NaN	0.000000	0.001558	0.001681	28.0823	95.907	0.001825	52553.9	4.771398	171.885	457.788	1.191927	0.097526	0.097190	457.49	52553.9	0.090998	0.259840	1760.66	94194.4
1192	2.000000	1.194810	7.37671e+06	-55989.1	1105.82	-29740	0.000000	0.000000	7.215499	469.495	NaN	0.000000	0.001557	0.001701	28.0821	98.7255	0.001877	52604	5.347496	-8.926580	469.549	1.194476	0.100073	0.099738	469.495	52604	0.093379	0.271987	1726.17	92154.8
1192	2.000000	1.197175	7.37671e+06	-55989.1	1105.82	-29740	0.000000	0.000000	7.218652	488.652	NaN	0.000000	0.001589	0.001668	28.0823	99.7738	0.001740	57342.6	2.272356	173.436	483.214	1.196887	0.102437	0.102149	488.652	57342.6	0.096046	0.285900	1709.17	97981.5
1192	2.000000	1.199671	7.37671e+06	-55989.1	1105.82	-29740	0.000000	0.000000	7.222333	517.456	NaN	0.000000	0.001589	0.001662	28.0823	100.995	0.001779	56766.7	6.145500	-9.657892	508.756	1.199327	0.104934	0.104589	517.456	56766.7	0.098097	0.296818	1743.34	95196.7
1192	2.000000	1.201186	7.37671e+06	-55989.1	1105.82	-29740	0.000000	0.000000	7.223964	520.269	NaN	0.000000	0.001577	0.001635	28.0822	103.192	0.001858	55545	3.871306	172.453	515.08	1.200835	0.106449	0.106098	520.269	55545	0.099424	0.303981	1711.52	92043.8