File: remote_trans/data/nanoindenter/0828-1/data/Data_2025-08-06,11h17m57s/2025-07-22_16-23-58_1_417.txt
2025-07-22, 16:23:58, 1
Index	Phase	Displacement	Time	Pos X	Pos Y	Pos Z	Rot A	Rot B	Piezo Z	Force A	Force B	Gripper	Voltage A	Voltage B	Temperature	Amplitude force	Amplitude pos	Stiffness	Phase shift	Phase excitation	Force A raw	Displacement raw	HMax	HMax raw	Real Force	Real Stiffness	Contact Depth	Area	Hardness	Reduced Mod.
[#]	[#]	[um]	[s]	[um]	[um]	[um]	[m°]	[m°]	[um]	[uN]	[uN]	[V]	[V]	[V]	[°C]	[uN]	[um]	[N/m]	[°]	[°]	[uN]	[um]	[um]	[um]	[uN]	[N/m]	[um]	[um^2]	[MPa]	[MPa]
417	1.000000	0.003064	7.36914e+06	-56239.1	1005.82	-29739.6	0.000000	0.000000	6.002791	0.081823	NaN	0.000000	0.001685	0.001659	28.0818	0.025561	0.000907	28.1919	-118.558	-164.881	0.128364	0.001812	-1.056252	-1.057504	0.081823	28.1919	-1.058429	-1.385818E+14	-5.904293E-16	NaN
417	1.000000	0.011044	7.36914e+06	-56239.1	1005.82	-29739.6	0.000000	0.000000	6.010771	0.094336	NaN	0.000000	0.001712	0.001692	28.0804	0.024348	0.001046	23.2843	44.8725	-165.752	0.145656	0.009716	-1.048272	-1.049600	0.094336	23.2843	-1.051311	-1.111820E+14	-8.484868E-16	NaN
417	1.000000	0.019034	7.36914e+06	-56239.1	1005.82	-29739.6	0.000000	0.000000	6.018761	0.089239	NaN	0.000000	0.001673	0.001631	28.0804	0.101767	0.001631	62.3854	59.9928	-167.689	0.062179	0.017750	-1.040281	-1.041565	0.089239	62.3854	-1.041354	-8.169178E+13	-1.092385E-15	NaN
417	1.000000	0.027037	7.36914e+06	-56239.1	1005.82	-29739.6	0.000000	0.000000	6.026763	0.061770	NaN	0.000000	0.001648	0.001641	28.0805	0.038055	0.001733	21.9613	32.304	-167.32	0.062308	0.025711	-1.032278	-1.033604	0.061770	21.9613	-1.034388	-6.584132E+13	-9.381677E-16	NaN
417	1.000000	0.035051	7.36914e+06	-56239.1	1005.82	-29739.6	0.000000	0.000000	6.034778	0.087238	NaN	0.000000	0.001648	0.001650	28.0801	0.084053	0.001994	42.1577	-74.1134	-169.007	0.075467	0.033692	-1.024265	-1.025624	0.087238	42.1577	-1.025817	-5.049074E+13	-1.727802E-15	NaN
417	1.000000	0.042997	7.36914e+06	-56239.1	1005.82	-29739.6	0.000000	0.000000	6.042722	0.032497	NaN	0.000000	0.001695	0.001660	28.0803	0.064848	0.001885	34.4106	123.174	-160.509	0.095138	0.041685	-1.016318	-1.017630	0.032497	34.4106	-1.017027	-3.845407E+13	-8.450961E-16	NaN
417	1.000000	0.051031	7.36914e+06	-56239.1	1005.82	-29739.6	0.000000	0.000000	6.050757	0.049304	NaN	0.000000	0.001690	0.001616	28.0804	0.096459	0.001984	48.6221	-110.757	-166.77	0.173308	0.049726	-1.008285	-1.009589	0.049304	48.6221	-1.009045	-3.002820E+13	-1.641935E-15	NaN
417	1.000000	0.059018	7.36914e+06	-56239.1	1005.82	-29739.6	0.000000	0.000000	6.058747	0.126691	NaN	0.000000	0.001692	0.001655	28.0802	0.089264	0.002070	43.1302	44.8006	-166.971	0.100809	0.057711	-1.000298	-1.001605	0.126691	43.1302	-1.002501	-2.451530E+13	-5.167853E-15	NaN
417	1.000000	0.067040	7.36914e+06	-56239.1	1005.82	-29739.6	0.000000	0.000000	6.066766	0.059513	NaN	0.000000	0.001660	0.001634	28.0801	0.028110	0.001975	14.231	-124.638	-167.854	0.050597	0.065686	-0.992275	-0.993630	0.059513	14.231	-0.995412	-1.967850E+13	-3.024250E-15	NaN
417	1.000000	0.075027	7.36914e+06	-56239.1	1005.82	-29739.6	0.000000	0.000000	6.074752	0.033616	NaN	0.000000	0.001746	0.001666	28.0799	0.062991	0.001900	33.1593	-153.591	-167.188	0.025148	0.073700	-0.984288	-0.985616	0.033616	33.1593	-0.985049	-1.426993E+13	-2.355700E-15	NaN
417	1.000000	0.083027	7.36914e+06	-56239.1	1005.82	-29739.6	0.000000	0.000000	6.082754	0.087174	NaN	0.000000	0.001731	0.001644	28.08	0.030551	0.002042	14.9622	22.3645	-169.584	0.087484	0.081747	-0.976289	-0.977569	0.087174	14.9622	-0.980659	-1.245338E+13	-7.000066E-15	NaN
417	1.000000	0.091042	7.36914e+06	-56239.1	1005.82	-29739.6	0.000000	0.000000	6.090768	0.058303	NaN	0.000000	0.001729	0.001669	28.0798	0.084556	0.002060	41.0504	171.457	-163.603	0.094210	0.089756	-0.968274	-0.969560	0.058303	41.0504	-0.969339	-8.765031E+12	-6.651746E-15	NaN
417	1.000000	0.099043	7.36914e+06	-56239.1	1005.82	-29739.6	0.000000	0.000000	6.098767	0.009663	NaN	0.000000	0.001747	0.001668	28.0799	0.161666	0.001985	81.454	-104.539	-167.827	-0.078014	0.097705	-0.960273	-0.961611	0.009663	81.454	-0.960362	-6.633634E+12	-1.456683E-15	NaN
417	1.000000	0.107032	7.36914e+06	-56239.1	1005.82	-29739.6	0.000000	0.000000	6.106757	0.053801	NaN	0.000000	0.001700	0.001666	28.0798	0.036253	0.002049	17.6956	28.4996	-166.329	0.089293	0.105742	-0.952284	-0.953573	0.053801	17.6956	-0.954564	-5.540906E+12	-9.709747E-15	NaN
417	1.000000	0.115039	7.36914e+06	-56239.1	1005.82	-29739.6	0.000000	0.000000	6.114761	-0.032697	NaN	0.000000	0.001714	0.001641	28.0799	0.035740	0.002010	17.7776	-138.451	-163.694	0.009068	0.113687	-0.944277	-0.945628	-0.032697	17.7776	-0.942897	-3.856773E+12	8.477683E-15	NaN
417	1.000000	0.123079	7.36914e+06	-56239.1	1005.82	-29739.6	0.000000	0.000000	6.122803	0.024308	NaN	0.000000	0.001753	0.001658	28.0801	0.049035	0.001959	25.0346	-129.642	-166.789	0.111419	0.121742	-0.936237	-0.937574	0.024308	25.0346	-0.936965	-3.207663E+12	-7.578145E-15	NaN
417	1.000000	0.131053	7.36914e+06	-56239.1	1005.82	-29739.6	0.000000	0.000000	6.130779	0.045813	NaN	0.000000	0.001735	0.001681	28.08	0.081454	0.001955	41.6574	-46.203	-163.893	0.066695	0.129777	-0.928263	-0.929538	0.045813	41.6574	-0.929087	-2.511188E+12	-1.824337E-14	NaN
417	1.000000	0.139061	7.36914e+06	-56239.1	1005.82	-29739.6	0.000000	0.000000	6.138786	0.028730	NaN	0.000000	0.001719	0.001668	28.0804	0.134495	0.001989	67.6356	117.491	-164.385	0.114113	0.137728	-0.920255	-0.921588	0.028730	67.6356	-0.920573	-1.927282E+12	-1.490714E-14	NaN
417	1.000000	0.147052	7.36914e+06	-56239.1	1005.82	-29739.6	0.000000	0.000000	6.146776	0.012087	NaN	0.000000	0.001755	0.001635	28.0812	0.079146	0.002050	38.6009	152.401	-167.215	0.085278	0.145753	-0.912263	-0.913563	0.012087	38.6009	-0.912498	-1.499354E+12	-8.061471E-15	NaN
417	1.000000	0.155092	7.36914e+06	-56239.1	1005.82	-29739.6	0.000000	0.000000	6.154817	0.035119	NaN	0.000000	0.001743	0.001627	28.0815	0.036905	0.001957	18.8614	167.305	-164.338	-0.004521	0.153752	-0.904224	-0.905564	0.035119	18.8614	-0.905620	-1.210597E+12	-2.900937E-14	NaN
417	1.000000	0.163086	7.36914e+06	-56239.1	1005.82	-29739.6	0.000000	0.000000	6.162812	0.043230	NaN	0.000000	0.001759	0.001618	28.0813	0.076601	0.002088	36.6886	103.262	-163.352	0.034551	0.161749	-0.896229	-0.897567	0.043230	36.6886	-0.897113	-9.290866E+11	-4.652935E-14	NaN
417	1.000000	0.171087	7.36914e+06	-56239.1	1005.82	-29739.6	0.000000	0.000000	6.170810	-0.012329	NaN	0.000000	0.001737	0.001643	28.0813	0.030361	0.002193	13.8439	-155.957	-166.326	-0.014873	0.169698	-0.888228	-0.889618	-0.012329	13.8439	-0.887561	-6.901392E+11	1.786395E-14	NaN
417	1.000000	0.179079	7.36914e+06	-56239.1	1005.82	-29739.6	0.000000	0.000000	6.178803	0.006240	NaN	0.000000	0.001725	0.001634	28.0814	0.048188	0.001984	24.2908	37.8004	-167.761	-0.039405	0.177702	-0.880236	-0.881614	0.006240	24.2908	-0.880429	-5.527241E+11	-1.129033E-14	NaN
417	1.000000	0.187076	7.36914e+06	-56239.1	1005.82	-29739.6	0.000000	0.000000	6.186801	0.023568	NaN	0.000000	0.001723	0.001625	28.0812	0.141431	0.001874	75.4772	111.433	-167.513	0.032856	0.185719	-0.872239	-0.873597	0.023568	75.4772	-0.872474	-4.314286E+11	-5.462781E-14	NaN
417	1.000000	0.195080	7.36914e+06	-56239.1	1005.82	-29739.6	0.000000	0.000000	6.194802	-0.046876	NaN	0.000000	0.001718	0.001670	28.0817	0.007623	0.002045	3.727402	32.2139	-166.49	-0.019769	0.193741	-0.864235	-0.865575	-0.046876	3.727402	-0.854803	-2.487549E+11	1.884444E-13	NaN
417	1.000000	0.203073	7.36914e+06	-56239.1	1005.82	-29739.6	0.000000	0.000000	6.202800	0.088464	NaN	0.000000	0.001712	0.001656	28.0814	0.036234	0.001980	18.3008	-169.67	-166.539	0.076167	0.201766	-0.856243	-0.857550	0.088464	18.3008	-0.859868	-2.912995E+11	-3.036886E-13	NaN
417	1.000000	0.211078	7.36914e+06	-56239.1	1005.82	-29739.6	0.000000	0.000000	6.210803	0.029554	NaN	0.000000	0.001740	0.001649	28.0813	0.005789	0.001960	2.953281	18.1815	-164.817	0.045047	0.209783	-0.848238	-0.849532	0.029554	2.953281	-0.855743	-2.561500E+11	-1.153760E-13	NaN
417	1.000000	0.219077	7.36914e+06	-56239.1	1005.82	-29739.6	0.000000	0.000000	6.218802	0.040450	NaN	0.000000	0.001739	0.001663	28.0813	0.072137	0.002024	35.6376	142.49	-165.022	-0.016349	0.217816	-0.840239	-0.841499	0.040450	35.6376	-0.841090	-1.622023E+11	-2.493769E-13	NaN
417	1.000000	0.227105	7.36914e+06	-56239.1	1005.82	-29739.6	0.000000	0.000000	6.226831	0.070348	NaN	0.000000	0.001716	0.001653	28.0813	0.124169	0.001990	62.4034	153.54	-167.313	-0.010512	0.225767	-0.832211	-0.833549	0.070348	62.4034	-0.833057	-1.262441E+11	-5.572353E-13	NaN
417	1.000000	0.235103	7.36914e+06	-56239.1	1005.82	-29739.6	0.000000	0.000000	6.234829	0.051238	NaN	0.000000	0.001701	0.001629	28.0819	0.067665	0.001966	34.4205	-107.224	-168.816	-0.003088	0.233770	-0.824212	-0.825546	0.051238	34.4205	-0.825329	-9.918882E+10	-5.165666E-13	NaN
417	1.000000	0.243100	7.36914e+06	-56239.1	1005.82	-29739.6	0.000000	0.000000	6.242825	0.039760	NaN	0.000000	0.001684	0.001644	28.0814	0.059675	0.002062	28.9434	-171.62	-169.154	0.035232	0.241826	-0.816215	-0.817490	0.039760	28.9434	-0.817246	-7.706529E+10	-5.159247E-13	NaN
417	1.000000	0.251099	7.36914e+06	-56239.1	1005.82	-29739.6	0.000000	0.000000	6.250826	0.082874	NaN	0.000000	0.001691	0.001629	28.0815	0.051941	0.002019	25.721	-177.31	-166.492	0.091251	0.249780	-0.808217	-0.809536	0.082874	25.721	-0.810633	-6.268490E+10	-1.322068E-12	NaN
417	1.000000	0.259107	7.36914e+06	-56239.1	1005.82	-29739.6	0.000000	0.000000	6.258830	-0.017458	NaN	0.000000	0.001718	0.001644	28.0815	0.047970	0.002094	22.9131	101.948	-166.965	0.080620	0.257775	-0.800209	-0.801541	-0.017458	22.9131	-0.799638	-4.445726E+10	3.926850E-13	NaN
417	1.000000	0.267095	7.36914e+06	-56239.1	1005.82	-29739.6	0.000000	0.000000	6.266820	0.032197	NaN	0.000000	0.001685	0.001613	28.0814	0.142253	0.002009	70.8073	97.5922	-165.416	0.088143	0.265778	-0.792220	-0.793537	0.032197	70.8073	-0.792561	-3.563425E+10	-9.035414E-13	NaN
417	1.000000	0.275098	7.36914e+06	-56239.1	1005.82	-29739.6	0.000000	0.000000	6.274822	0.022599	NaN	0.000000	0.001670	0.001609	28.0821	0.079806	0.001881	42.4203	117.645	-166.004	0.012473	0.273761	-0.784218	-0.785555	0.022599	42.4203	-0.784618	-2.779534E+10	-8.130536E-13	NaN
417	1.000000	0.283095	7.36914e+06	-56239.1	1005.82	-29739.6	0.000000	0.000000	6.282818	-0.015021	NaN	0.000000	0.001648	0.001620	28.0806	0.035967	0.001926	18.677	-119.006	-168.829	-0.004629	0.281811	-0.776221	-0.777505	-0.015021	18.677	-0.775618	-2.097364E+10	7.161891E-13	NaN
417	1.000000	0.291138	7.36914e+06	-56239.1	1005.82	-29739.6	0.000000	0.000000	6.290863	0.038377	NaN	0.000000	0.001700	0.001621	28.0803	0.055001	0.001898	28.9798	-83.1078	-165.57	0.084188	0.289838	-0.768178	-0.769478	0.038377	28.9798	-0.769171	-1.714079E+10	-2.238903E-12	NaN
417	1.000000	0.299145	7.36914e+06	-56239.1	1005.82	-29739.6	0.000000	0.000000	6.298869	0.016340	NaN	0.000000	0.001701	0.001623	28.0803	0.034341	0.001925	17.8438	-5.081971	-165.135	-0.014098	0.297770	-0.760171	-0.761546	0.016340	17.8438	-0.760858	-1.321199E+10	-1.236740E-12	NaN
417	1.000000	0.307117	7.36914e+06	-56239.1	1005.82	-29739.6	0.000000	0.000000	6.306841	0.007491	NaN	0.000000	0.001690	0.001656	28.0801	0.042001	0.001983	21.1843	-26.4513	-164.491	0.013265	0.305817	-0.752198	-0.753499	0.007491	21.1843	-0.752463	-1.015667E+10	-7.375676E-13	NaN
417	1.000000	0.315127	7.36914e+06	-56239.1	1005.82	-29739.6	0.000000	0.000000	6.314851	0.032228	NaN	0.000000	0.001701	0.001624	28.0804	0.083635	0.002061	40.5834	37.3224	-167.481	-0.072223	0.313808	-0.744189	-0.745508	0.032228	40.5834	-0.744785	-7.983940E+9	-4.036591E-12	NaN
417	1.000000	0.323143	7.36914e+06	-56239.1	1005.82	-29739.6	0.000000	0.000000	6.322870	0.078354	NaN	0.000000	0.001719	0.001651	28.0802	0.024346	0.002045	11.9075	50.6824	-169.38	0.047767	0.321813	-0.736172	-0.737502	0.078354	11.9075	-0.741107	-7.114413E+9	-1.101338E-11	NaN
417	1.000000	0.331123	7.36914e+06	-56239.1	1005.82	-29739.6	0.000000	0.000000	6.330850	0.071098	NaN	0.000000	0.001703	0.001631	28.0804	0.044744	0.002041	21.9239	-29.3155	-167.19	0.057241	0.329824	-0.728193	-0.729492	0.071098	21.9239	-0.730625	-5.120632E+9	-1.388453E-11	NaN
417	1.000000	0.339115	7.36914e+06	-56239.1	1005.82	-29739.6	0.000000	0.000000	6.338841	0.059902	NaN	0.000000	0.001717	0.001620	28.0804	0.030176	0.001968	15.3315	-116.3	-166.124	-0.013414	0.337823	-0.720201	-0.721492	0.059902	15.3315	-0.723131	-4.047370E+9	-1.480031E-11	NaN
417	1.000000	0.347137	7.36914e+06	-56239.1	1005.82	-29739.6	0.000000	0.000000	6.346861	-0.005060	NaN	0.000000	0.001747	0.001629	28.0803	0.071216	0.002003	35.5603	99.6088	-167.544	0.026385	0.345818	-0.712178	-0.713498	-0.005060	35.5603	-0.712072	-2.859698E+9	1.769431E-12	NaN
417	1.000000	0.355145	7.36914e+06	-56239.1	1005.82	-29739.6	0.000000	0.000000	6.354870	0.019391	NaN	0.000000	0.001719	0.001661	28.0803	0.010885	0.002063	5.275633	121.162	-166.952	-0.017624	0.353864	-0.704170	-0.705451	0.019391	5.275633	-0.706927	-2.432797E+9	-7.970691E-12	NaN
417	1.000000	0.363168	7.36914e+06	-56239.1	1005.82	-29739.6	0.000000	0.000000	6.362893	0.036882	NaN	0.000000	0.001711	0.001659	28.08	0.090638	0.002043	44.355	-154.423	-165.339	0.076606	0.361816	-0.696147	-0.697499	0.036882	44.355	-0.696771	-1.767789E+9	-2.086343E-11	NaN
417	1.000000	0.371145	7.36914e+06	-56239.1	1005.82	-29739.6	0.000000	0.000000	6.370870	0.036717	NaN	0.000000	0.001719	0.001634	28.0802	0.052500	0.002034	25.8149	20.4449	-168.414	-0.025541	0.369864	-0.688171	-0.689452	0.036717	25.8149	-0.689238	-1.394765E+9	-2.632480E-11	NaN
417	1.000000	0.379166	7.36914e+06	-56239.1	1005.82	-29739.6	0.000000	0.000000	6.378888	-0.050713	NaN	0.000000	0.001661	0.001644	28.0802	0.054887	0.002016	27.2197	-137.458	-165.518	-0.042114	0.377827	-0.680149	-0.681488	-0.050713	27.2197	-0.678752	-1.002623E+9	5.058006E-11	NaN
417	1.000000	0.387161	7.36914e+06	-56239.1	1005.82	-29739.6	0.000000	0.000000	6.386887	0.071637	NaN	0.000000	0.001722	0.001639	28.0801	0.069877	0.001966	35.5489	4.806834	-163.498	0.114114	0.385868	-0.672155	-0.673447	0.071637	35.5489	-0.673666	-8.542089E+8	-8.386299E-11	NaN
417	1.000000	0.395193	7.36914e+06	-56239.1	1005.82	-29739.6	0.000000	0.000000	6.394915	-0.039468	NaN	0.000000	0.001733	0.001666	28.0799	0.079328	0.001885	42.0819	43.1928	-167.968	0.032342	0.393837	-0.664123	-0.665479	-0.039468	42.0819	-0.663420	-6.184455E+8	6.381813E-11	NaN
417	1.000000	0.403145	7.36914e+06	-56239.1	1005.82	-29739.6	0.000000	0.000000	6.402875	0.145647	NaN	0.000000	0.001726	0.001608	28.0799	0.130573	0.001933	67.5615	-168.794	-167.88	0.009320	0.401871	-0.656171	-0.657445	0.145647	67.5615	-0.657787	-5.177956E+8	-2.812829E-10	NaN
417	1.000000	0.411171	7.36914e+06	-56239.1	1005.82	-29739.6	0.000000	0.000000	6.410895	0.014155	NaN	0.000000	0.001689	0.001600	28.0801	0.038879	0.001920	20.2502	-27.4526	-165.917	-0.009248	0.409854	-0.648145	-0.649462	0.014155	20.2502	-0.648669	-3.883247E+8	-3.645259E-11	NaN
417	1.000000	0.419180	7.36914e+06	-56239.1	1005.82	-29739.6	0.000000	0.000000	6.418905	0.034200	NaN	0.000000	0.001680	0.001611	28.0812	0.039309	0.002017	19.4896	68.6936	-167.096	0.014910	0.417826	-0.640136	-0.641489	0.034200	19.4896	-0.641452	-3.091761E+8	-1.106177E-10	NaN
417	1.000000	0.427175	7.36914e+06	-56239.1	1005.82	-29739.6	0.000000	0.000000	6.426901	0.066763	NaN	0.000000	0.001679	0.001701	28.0816	0.167836	0.002178	77.072	-111.038	-163.978	-0.021048	0.425905	-0.632141	-0.633410	0.066763	77.072	-0.632790	-2.351457E+8	-2.839198E-10	NaN
417	1.000000	0.435171	7.36914e+06	-56239.1	1005.82	-29739.6	0.000000	0.000000	6.434897	0.057360	NaN	0.000000	0.001650	0.001692	28.0812	0.058596	0.002139	27.3904	-89.3537	-166.148	0.160224	0.433875	-0.624145	-0.625441	0.057360	27.3904	-0.625715	-1.880049E+8	-3.050990E-10	NaN
417	1.000000	0.443192	7.36914e+06	-56239.1	1005.82	-29739.6	0.000000	0.000000	6.442919	0.102551	NaN	0.000000	0.001630	0.001701	28.0814	0.157894	0.001994	79.1708	66.0899	-164.758	0.086492	0.441917	-0.616124	-0.617399	0.102551	79.1708	-0.617096	-1.431216E+8	-7.165327E-10	NaN
417	1.000000	0.451169	7.36914e+06	-56239.1	1005.82	-29739.6	0.000000	0.000000	6.450897	0.093633	NaN	0.000000	0.001661	0.001706	28.0814	0.032221	0.002024	15.9219	9.343871	-167.712	0.041570	0.449922	-0.608146	-0.609394	0.093633	15.9219	-0.612557	-1.239619E+8	-7.553399E-10	NaN
417	1.000000	0.459174	7.36914e+06	-56239.1	1005.82	-29739.6	0.000000	0.000000	6.458900	0.073484	NaN	0.000000	0.001658	0.001691	28.0816	0.073563	0.001956	37.6129	-74.3415	-163.727	0.067580	0.457913	-0.600142	-0.601403	0.073484	37.6129	-0.601607	-8.761804E+7	-8.386857E-10	NaN
417	1.000000	0.467221	7.36914e+06	-56239.1	1005.82	-29739.6	0.000000	0.000000	6.466949	0.099705	NaN	0.000000	0.001672	0.001674	28.0817	0.034022	0.002062	16.5017	88.3773	-164.756	0.009783	0.465864	-0.592094	-0.593452	0.099705	16.5017	-0.596626	-7.481404E+7	-1.332710E-9	NaN
417	1.000000	0.475181	7.36914e+06	-56239.1	1005.82	-29739.6	0.000000	0.000000	6.474908	0.079533	NaN	0.000000	0.001667	0.001695	28.0815	0.099439	0.002060	48.2769	-63.8342	-165.699	0.099906	0.473887	-0.584135	-0.585429	0.079533	48.2769	-0.585370	-5.233855E+7	-1.519594E-9	NaN
417	1.000000	0.483213	7.36914e+06	-56239.1	1005.82	-29739.6	0.000000	0.000000	6.482938	0.027256	NaN	0.000000	0.001652	0.001705	28.0817	0.059948	0.002027	29.5689	-44.6399	-165.883	-0.000371	0.481871	-0.576103	-0.577444	0.027256	29.5689	-0.576794	-3.985371E+7	-6.839040E-10	NaN
417	1.000000	0.491215	7.36914e+06	-56239.1	1005.82	-29739.6	0.000000	0.000000	6.490942	0.079729	NaN	0.000000	0.001636	0.001674	28.0815	0.028583	0.002021	14.1453	63.6298	-168.477	0.132192	0.489844	-0.568101	-0.569472	0.079729	14.1453	-0.572328	-3.457757E+7	-2.305815E-9	NaN
417	1.000000	0.499217	7.36914e+06	-56239.1	1005.82	-29739.6	0.000000	0.000000	6.498942	0.038567	NaN	0.000000	0.001701	0.001726	28.0815	0.015237	0.001955	7.791987	-76.8414	-165.677	0.120579	0.497913	-0.560099	-0.561403	0.038567	7.791987	-0.563811	-2.636851E+7	-1.462616E-9	NaN
417	1.000000	0.507191	7.36914e+06	-56239.1	1005.82	-29739.6	0.000000	0.000000	6.506916	0.045068	NaN	0.000000	0.001656	0.001710	28.0815	0.066822	0.002064	32.3698	-167.198	-164.706	-0.035424	0.505899	-0.552125	-0.553416	0.045068	32.3698	-0.553169	-1.878619E+7	-2.398993E-9	NaN
417	1.000000	0.515264	7.36914e+06	-56239.1	1005.82	-29739.6	0.000000	0.000000	6.514989	0.013940	NaN	0.000000	0.001642	0.001770	28.0815	0.034701	0.001938	17.9011	45.4956	-167.289	0.086073	0.513880	-0.544051	-0.545436	0.013940	17.9011	-0.544635	-1.430950E+7	-9.741532E-10	NaN
417	1.000000	0.523205	7.36914e+06	-56239.1	1005.82	-29739.6	0.000000	0.000000	6.522930	0.039291	NaN	0.000000	0.001666	0.001761	28.082	0.125290	0.001885	66.4553	-26.4685	-167.643	0.064618	0.521869	-0.536111	-0.537446	0.039291	66.4553	-0.536554	-1.105488E+7	-3.554154E-9	NaN
417	1.000000	0.531237	7.36914e+06	-56239.1	1005.82	-29739.6	0.000000	0.000000	6.530959	-0.032227	NaN	0.000000	0.001664	0.001714	28.0815	0.068110	0.002040	33.3928	-131.517	-165.408	0.040697	0.529912	-0.528079	-0.529403	-0.032227	33.3928	-0.527355	-8.23833e+06	3.911824E-9	NaN
417	1.000000	0.539220	7.36914e+06	-56239.1	1005.82	-29739.6	0.000000	0.000000	6.538945	0.025658	NaN	0.000000	0.001709	0.001736	28.0815	0.040728	0.002010	20.2631	-70.7725	-163.144	-0.039992	0.537880	-0.520096	-0.521435	0.025658	20.2631	-0.521045	-6.73187e+06	-3.811381E-9	NaN
417	1.000000	0.547235	7.36914e+06	-56239.1	1005.82	-29739.6	0.000000	0.000000	6.546961	0.068259	NaN	0.000000	0.001692	0.001725	28.0818	0.060003	0.001926	31.1582	-112.731	-164.119	0.086432	0.545940	-0.512081	-0.513376	0.068259	31.1582	-0.513724	-5.32438e+06	-1.282011E-8	NaN
417	1.000000	0.555235	7.36914e+06	-56239.1	1005.82	-29739.6	0.000000	0.000000	6.554957	-0.031878	NaN	0.000000	0.001723	0.001741	28.0809	0.010628	0.001955	5.436953	-124.281	-168.444	0.057400	0.553922	-0.504081	-0.505393	-0.031878	5.436953	-0.499683	-3.39312e+06	9.394846E-9	NaN
417	1.000000	0.563236	7.36914e+06	-56239.1	1005.82	-29739.6	0.000000	0.000000	6.562961	0.041708	NaN	0.000000	0.001738	0.001718	28.0808	0.048827	0.001853	26.3536	-133.556	-170.12	0.070762	0.561877	-0.496080	-0.497439	0.041708	26.3536	-0.497267	-3.13963e+06	-1.328443E-8	NaN
417	1.000000	0.571259	7.36914e+06	-56239.1	1005.82	-29739.6	0.000000	0.000000	6.570983	0.010392	NaN	0.000000	0.001720	0.001694	28.0805	0.092073	0.001950	47.2206	120.853	-166.43	0.061969	0.569919	-0.488057	-0.489396	0.010392	47.2206	-0.488222	-2.34715e+06	-4.427573E-9	NaN
417	1.000000	0.579215	7.36914e+06	-56239.1	1005.82	-29739.6	0.000000	0.000000	6.578944	0.110237	NaN	0.000000	0.001684	0.001710	28.0804	0.089687	0.002117	42.3606	156.545	-165.711	0.128470	0.577964	-0.480100	-0.481352	0.110237	42.3606	-0.482052	-1.92419e+06	-5.729017E-8	NaN
417	1.000000	0.587226	7.36914e+06	-56239.1	1005.82	-29739.6	0.000000	0.000000	6.586953	0.078786	NaN	0.000000	0.001676	0.001683	28.0805	0.161996	0.001968	82.3317	22.4636	-164.596	0.018349	0.585956	-0.472090	-0.473360	0.078786	82.3317	-0.472808	-1.42815e+06	-5.516633E-8	NaN
417	1.000000	0.595259	7.36914e+06	-56239.1	1005.82	-29739.6	0.000000	0.000000	6.594984	0.032416	NaN	0.000000	0.001704	0.001712	28.0804	0.119885	0.002016	59.4707	-38.6334	-164.312	0.046205	0.593929	-0.464057	-0.465387	0.032416	59.4707	-0.464466	-1.0908e+06	-2.971734E-8	NaN
417	1.000000	0.603269	7.36914e+06	-56239.1	1005.82	-29739.6	0.000000	0.000000	6.602993	0.016045	NaN	0.000000	0.001674	0.001722	28.0803	0.102651	0.001933	53.1057	-8.047988	-166.403	0.012723	0.601987	-0.456047	-0.457328	0.016045	53.1057	-0.456274	-836816	-1.917333E-8	NaN
417	1.000000	0.611220	7.36914e+06	-56239.1	1005.82	-29739.6	0.000000	0.000000	6.610943	-0.008013	NaN	0.000000	0.001700	0.001784	28.081	0.071983	0.002031	35.4376	-168.366	-167.546	0.020465	0.609958	-0.448096	-0.449358	-0.008013	35.4376	-0.447927	-638465	1.255016E-8	NaN
417	1.000000	0.619247	7.36914e+06	-56239.1	1005.82	-29739.6	0.000000	0.000000	6.618970	-0.010932	NaN	0.000000	0.001727	0.001750	28.0805	0.095842	0.001992	48.12	161.53	-169.236	-0.013478	0.617927	-0.440069	-0.441388	-0.010932	48.12	-0.439899	-491964	2.222029E-8	NaN
417	1.000000	0.627262	7.36914e+06	-56239.1	1005.82	-29739.6	0.000000	0.000000	6.626984	-0.022533	NaN	0.000000	0.001666	0.001757	28.0805	0.066666	0.002074	32.1455	176.599	-165.352	0.021332	0.625900	-0.432054	-0.433416	-0.022533	32.1455	-0.431528	-374696	6.013604E-8	NaN
417	1.000000	0.635278	7.36914e+06	-56239.1	1005.82	-29739.6	0.000000	0.000000	6.635003	0.036059	NaN	0.000000	0.001711	0.001763	28.0803	0.023161	0.001995	11.6089	56.2733	-166.913	0.050282	0.633941	-0.424037	-0.425375	0.036059	11.6089	-0.426367	-316696	-1.138615E-7	NaN
417	1.000000	0.643276	7.36914e+06	-56239.1	1005.82	-29739.6	0.000000	0.000000	6.643000	0.005976	NaN	0.000000	0.001729	0.001738	28.08	0.069190	0.002024	34.1873	-79.2116	-168.017	0.048350	0.641921	-0.416039	-0.417395	0.005976	34.1873	-0.416170	-227026	-2.632284E-8	NaN
417	1.000000	0.651260	7.36914e+06	-56239.1	1005.82	-29739.6	0.000000	0.000000	6.650985	0.015868	NaN	0.000000	0.001712	0.001699	28.0801	0.030929	0.001955	15.8186	-19.1988	-170.473	0.056484	0.649947	-0.408055	-0.409369	0.015868	15.8186	-0.408808	-178419	-8.893486E-8	NaN
417	1.000000	0.659258	7.36914e+06	-56239.1	1005.82	-29739.6	0.000000	0.000000	6.658983	0.026337	NaN	0.000000	0.001723	0.001750	28.0805	0.063100	0.001993	31.6577	-96.0572	-167.939	0.002224	0.657945	-0.400057	-0.401371	0.026337	31.6577	-0.400681	-136681	-1.926896E-7	NaN
417	1.000000	0.667294	7.36914e+06	-56239.1	1005.82	-29739.6	0.000000	0.000000	6.667021	0.090684	NaN	0.000000	0.001728	0.001748	28.0803	0.104995	0.001984	52.9236	65.1571	-168.289	0.103805	0.666005	-0.392022	-0.393310	0.090684	52.9236	-0.393307	-107262	-8.454411E-7	NaN
417	1.000000	0.675271	7.36914e+06	-56239.1	1005.82	-29739.6	0.000000	0.000000	6.674995	0.016005	NaN	0.000000	0.001708	0.001749	28.0803	0.148755	0.001975	75.3095	144.758	-165.138	0.000841	0.673987	-0.384045	-0.385328	0.016005	75.3095	-0.384204	-79466	-2.014083E-7	NaN
417	1.000000	0.683273	7.36914e+06	-56239.1	1005.82	-29739.6	0.000000	0.000000	6.682999	0.043801	NaN	0.000000	0.001719	0.001726	28.0803	0.160895	0.002115	76.0748	-72.6655	-163.512	0.072304	0.681990	-0.376042	-0.377325	0.043801	76.0748	-0.376474	-61554.5	-7.115884E-7	NaN
417	1.000000	0.691252	7.36914e+06	-56239.1	1005.82	-29739.6	0.000000	0.000000	6.690979	0.066059	NaN	0.000000	0.001738	0.001707	28.0807	0.027824	0.002021	13.7686	76.167	-165.623	0.086838	0.689974	-0.368063	-0.369342	0.066059	13.7686	-0.371662	-52486.7	-1.258582E-6	NaN
417	1.000000	0.699313	7.36914e+06	-56239.1	1005.82	-29739.6	0.000000	0.000000	6.699041	0.103873	NaN	0.000000	0.001795	0.001734	28.0816	0.140978	0.001897	74.3142	173.293	-167.424	0.095211	0.697989	-0.360003	-0.361327	0.103873	74.3142	-0.361051	-36900.7	-2.814921E-6	NaN
417	1.000000	0.707305	7.36914e+06	-56239.1	1005.82	-29739.7	0.000000	0.000000	6.707030	0.046622	NaN	0.000000	0.001765	0.001709	28.0817	0.087270	0.002006	43.5045	-123.331	-167.158	0.057377	0.705964	-0.352011	-0.353352	0.046622	43.5045	-0.352815	-28043.3	-1.662495E-6	NaN
417	1.000000	0.715309	7.36914e+06	-56239.1	1005.82	-29739.7	0.000000	0.000000	6.715032	-0.007688	NaN	0.000000	0.001802	0.001742	28.0813	0.150271	0.002076	72.396	-140.613	-163.365	0.026261	0.713990	-0.344007	-0.345326	-0.007688	72.396	-0.343927	-20832.9	3.690390E-7	NaN
417	1.000000	0.723332	7.36914e+06	-56239.1	1005.82	-29739.7	0.000000	0.000000	6.723058	0.046148	NaN	0.000000	0.001766	0.001729	28.0815	0.043275	0.002019	21.43	-65.2889	-167.504	0.119130	0.721979	-0.335984	-0.337336	0.046148	21.43	-0.337599	-16847.4	-2.739208E-6	NaN
417	1.000000	0.731280	7.36914e+06	-56239.1	1005.82	-29739.7	0.000000	0.000000	6.731004	-0.004126	NaN	0.000000	0.001791	0.001678	28.0818	0.025709	0.002065	12.4525	-124.297	-167.052	0.032421	0.730002	-0.328035	-0.329314	-0.004126	12.4525	-0.327787	-12106.6	3.408020E-7	NaN
417	1.000000	0.739318	7.36914e+06	-56239.1	1005.82	-29739.7	0.000000	0.000000	6.739043	0.032043	NaN	0.000000	0.001771	0.001742	28.0815	0.059043	0.002051	28.7841	99.6032	-165.618	0.022954	0.737997	-0.319998	-0.321319	0.032043	28.7841	-0.320832	-9569.47	-3.348505E-6	NaN
417	1.000000	0.747308	7.36914e+06	-56239.1	1005.82	-29739.7	0.000000	0.000000	6.747035	0.093066	NaN	0.000000	0.001785	0.001707	28.0818	0.107259	0.002010	53.3671	-112.099	-166.627	0.086797	0.746064	-0.312008	-0.313252	0.093066	53.3671	-0.313316	-7414.5	-1.255186E-5	NaN
417	1.000000	0.755312	7.36914e+06	-56239.1	1005.82	-29739.7	0.000000	0.000000	6.755035	-0.017238	NaN	0.000000	0.001793	0.001678	28.0819	0.157679	0.002104	74.9313	-141.029	-168.311	0.008733	0.754003	-0.304003	-0.305312	-0.017238	74.9313	-0.303831	-5365.31	3.212923E-6	NaN
417	1.000000	0.763287	7.36914e+06	-56239.1	1005.82	-29739.7	0.000000	0.000000	6.763016	0.126605	NaN	0.000000	0.001755	0.001675	28.0816	0.026236	0.001827	14.3606	-137.526	-165.048	0.087156	0.762002	-0.296029	-0.297314	0.126605	14.3606	-0.302641	-5151.28	-2.457736E-5	NaN
417	1.000000	0.771305	7.36914e+06	-56239.1	1005.82	-29739.7	0.000000	0.000000	6.771032	0.078980	NaN	0.000000	0.001666	0.001715	28.0818	0.009980	0.001866	5.347641	-113.098	-168.67	0.080547	0.769986	-0.288011	-0.289330	0.078980	5.347641	-0.299088	-4560.89	-1.731683E-5	NaN
417	1.000000	0.779318	7.36914e+06	-56239.1	1005.82	-29739.7	0.000000	0.000000	6.779043	0.013542	NaN	0.000000	0.001714	0.001712	28.0816	0.060407	0.001934	31.2409	96.046	-168.359	0.039735	0.778040	-0.279997	-0.281275	0.013542	31.2409	-0.280322	-2386.9	-5.673601E-6	NaN
417	1.000000	0.787347	7.36914e+06	-56239.1	1005.82	-29739.7	0.000000	0.000000	6.787078	0.177492	NaN	0.000000	0.001727	0.001701	28.0817	0.091120	0.001865	48.8597	125.306	-166.613	0.140120	0.785990	-0.271968	-0.273326	0.177492	48.8597	-0.274693	-1962.22	-9.045496E-5	NaN
417	1.000000	0.795337	7.36914e+06	-56239.1	1005.82	-29739.7	0.000000	0.000000	6.795062	0.038093	NaN	0.000000	0.001688	0.001702	28.0818	0.056239	0.001988	28.2825	-73.8141	-167.393	0.004724	0.794054	-0.263979	-0.265262	0.038093	28.2825	-0.264989	-1397.09	-2.726581E-5	NaN
417	1.000000	0.803333	7.36914e+06	-56239.1	1005.82	-29739.7	0.000000	0.000000	6.803059	0.050091	NaN	0.000000	0.001661	0.001699	28.0817	0.155901	0.002037	76.5445	116.195	-168.619	-0.022613	0.801947	-0.255983	-0.257368	0.050091	76.5445	-0.256473	-1034.63	-4.841419E-5	NaN
417	1.000000	0.811346	7.36914e+06	-56239.1	1005.82	-29739.7	0.000000	0.000000	6.811072	0.043871	NaN	0.000000	0.001710	0.001725	28.0818	0.134156	0.001978	67.8172	112.248	-166.98	0.120182	0.810024	-0.247970	-0.249292	0.043871	67.8172	-0.248455	-778.125	-5.638021E-5	NaN
417	1.000000	0.819355	7.36914e+06	-56239.1	1005.82	-29739.7	0.000000	0.000000	6.819080	0.045843	NaN	0.000000	0.001715	0.001683	28.0817	0.062730	0.001989	31.5309	0.174315	-167.262	0.082690	0.818074	-0.239961	-0.241241	0.045843	31.5309	-0.241052	-596.992	-7.678963E-5	NaN
417	1.000000	0.827344	7.36914e+06	-56239.1	1005.82	-29739.7	0.000000	0.000000	6.827070	0.070790	NaN	0.000000	0.001742	0.001701	28.0818	0.081370	0.001983	41.0349	21.3054	-166.403	0.060682	0.826067	-0.231972	-0.233249	0.070790	41.0349	-0.233266	-450.81	-0.000157	NaN
417	1.000000	0.835366	7.36914e+06	-56239.1	1005.82	-29739.7	0.000000	0.000000	6.835093	0.100033	NaN	0.000000	0.001701	0.001734	28.0812	0.108277	0.002071	52.2873	76.4315	-168.207	0.188416	0.834064	-0.223950	-0.225252	0.100033	52.2873	-0.225385	-338.412	-0.000296	NaN
417	1.000000	0.843359	7.36914e+06	-56239.1	1005.82	-29739.7	0.000000	0.000000	6.843085	0.054428	NaN	0.000000	0.001680	0.001691	28.0803	0.031878	0.001908	16.7114	-31.9653	-164.953	0.075475	0.842062	-0.215957	-0.217253	0.054428	16.7114	-0.218399	-261.861	-0.000208	NaN
417	1.000000	0.851346	7.36914e+06	-56239.1	1005.82	-29739.7	0.000000	0.000000	6.851072	0.055504	NaN	0.000000	0.001732	0.001725	28.0803	0.048701	0.002109	23.0952	-70.04	-167.8	0.061301	0.850048	-0.207969	-0.209267	0.055504	23.0952	-0.209772	-190.162	-0.000292	NaN
417	1.000000	0.859335	7.36914e+06	-56239.1	1005.82	-29739.7	0.000000	0.000000	6.859060	0.028215	NaN	0.000000	0.001717	0.001704	28.0801	0.093773	0.001826	51.3677	29.3756	-164.916	0.011731	0.857999	-0.199981	-0.201316	0.028215	51.3677	-0.200393	-133.706	-0.000211	NaN
417	1.000000	0.867384	7.36914e+06	-56239.1	1005.82	-29739.7	0.000000	0.000000	6.867108	0.017820	NaN	0.000000	0.001731	0.001690	28.0802	0.073933	0.002012	36.7551	-47.3045	-163.994	0.061078	0.866069	-0.191932	-0.193246	0.017820	36.7551	-0.192295	-98.2421	-0.000181	NaN
417	1.000000	0.875361	7.36914e+06	-56239.1	1005.82	-29739.7	0.000000	0.000000	6.875083	-0.023771	NaN	0.000000	0.001720	0.001683	28.0804	0.106135	0.002110	50.2946	-101.621	-165.536	0.026101	0.874096	-0.183955	-0.185219	-0.023771	50.2946	-0.183601	-70.229	0.000338	NaN
417	1.000000	0.883385	7.36914e+06	-56239.1	1005.82	-29739.7	0.000000	0.000000	6.883110	0.029191	NaN	0.000000	0.001694	0.001728	28.0803	0.031394	0.001943	16.1596	153.198	-167.227	-0.017126	0.882057	-0.175930	-0.177258	0.029191	16.1596	-0.177285	-54.8476	-0.000532	NaN
417	1.000000	0.891375	7.36914e+06	-56239.1	1005.82	-29739.7	0.000000	0.000000	6.891101	0.076416	NaN	0.000000	0.001746	0.001697	28.0804	0.062493	0.002104	29.6983	67.9521	-164.999	0.022978	0.890127	-0.167941	-0.169189	0.076416	29.6983	-0.169871	-40.8667	-0.001870	NaN
417	1.000000	0.899372	7.36914e+06	-56239.1	1005.82	-29739.7	0.000000	0.000000	6.899096	-0.001141	NaN	0.000000	0.001727	0.001727	28.0802	0.064008	0.001911	33.4948	-60.8302	-166.395	0.000107	0.898028	-0.159944	-0.161288	-0.001141	33.4948	-0.159918	-27.323	4.174936E-5	NaN
417	1.000000	0.907392	7.36914e+06	-56239.1	1005.82	-29739.7	0.000000	0.000000	6.907116	0.004648	NaN	0.000000	0.001725	0.001691	28.0802	0.122467	0.002119	57.8048	93.0651	-167.69	0.025264	0.906097	-0.151924	-0.153218	0.004648	57.8048	-0.151984	-19.6828	-0.000236	NaN
417	1.000000	0.915416	7.36914e+06	-56239.1	1005.82	-29739.7	0.000000	0.000000	6.915138	-0.020772	NaN	0.000000	0.001735	0.001717	28.0804	0.018392	0.001937	9.496291	-8.998732	-165.031	0.007078	0.914065	-0.143900	-0.145251	-0.020772	9.496291	-0.142259	-13.0395	0.001593	NaN
417	1.000000	0.923388	7.36914e+06	-56239.1	1005.82	-29739.7	0.000000	0.000000	6.923116	0.114671	NaN	0.000000	0.001768	0.001728	28.0804	0.022549	0.002009	11.224	-118.168	-166.614	0.156675	0.922067	-0.135928	-0.137248	0.114671	11.224	-0.143591	-13.8051	-0.008306	NaN
417	1.000000	0.931378	7.36914e+06	-56239.1	1005.82	-29739.7	0.000000	0.000000	6.931105	0.091538	NaN	0.000000	0.001796	0.001731	28.0802	0.176660	0.001979	89.2557	22.6038	-167.785	0.063505	0.930047	-0.127938	-0.129268	0.091538	89.2557	-0.128707	-7.191875	-0.012728	NaN
417	1.000000	0.939393	7.36914e+06	-56239.1	1005.82	-29739.7	0.000000	0.000000	6.939119	0.065993	NaN	0.000000	0.001743	0.001726	28.0803	0.036915	0.002033	18.1562	-116.096	-164.959	0.140967	0.938069	-0.119923	-0.121246	0.065993	18.1562	-0.122649	-5.460751	-0.012085	NaN
417	1.000000	0.947409	7.36914e+06	-56239.1	1005.82	-29739.7	0.000000	0.000000	6.947133	0.012114	NaN	0.000000	0.001693	0.001710	28.0802	0.054596	0.001960	27.8538	-10.8047	-164.154	-0.067776	0.946092	-0.111906	-0.113224	0.012114	27.8538	-0.112233	-3.347398	-0.003619	NaN
417	1.000000	0.955396	7.36914e+06	-56239.1	1005.82	-29739.7	0.000000	0.000000	6.955120	0.013428	NaN	0.000000	0.001685	0.001681	28.0803	0.137717	0.002083	66.1149	137.253	-166.539	-0.031077	0.954111	-0.103920	-0.105205	0.013428	66.1149	-0.104072	-2.244297	-0.005983	NaN
417	1.000000	0.963390	7.36914e+06	-56239.1	1005.82	-29739.7	0.000000	0.000000	6.963113	-0.007501	NaN	0.000000	0.001640	0.001677	28.0805	0.128365	0.001873	68.5416	102.289	-160.795	0.002211	0.962112	-0.095926	-0.097204	-0.007501	68.5416	-0.095844	-1.474337	0.005088	NaN
417	1.000000	0.971399	7.36914e+06	-56239.1	1005.82	-29739.7	0.000000	0.000000	6.971126	0.086498	NaN	0.000000	0.001655	0.001703	28.0815	0.084409	0.001992	42.3817	87.9881	-164.203	0.064239	0.970105	-0.087917	-0.089210	0.086498	42.3817	-0.089448	-1.049140	-0.082446	NaN
417	1.000000	0.979417	7.36914e+06	-56239.1	1005.82	-29739.7	0.000000	0.000000	6.979141	0.018436	NaN	0.000000	0.001675	0.001694	28.0819	0.052134	0.001937	26.9203	162.792	-166.963	0.079668	0.978069	-0.079899	-0.081247	0.018436	26.9203	-0.080412	-0.633846	-0.029086	NaN
417	1.000000	0.987421	7.36914e+06	-56239.1	1005.82	-29739.7	0.000000	0.000000	6.987147	0.067765	NaN	0.000000	0.001679	0.001678	28.0816	0.079509	0.002029	39.1916	155.283	-166.551	0.018195	0.986091	-0.071895	-0.073225	0.067765	39.1916	-0.073192	-0.414422	-0.163518	NaN
417	1.000000	0.995414	7.36914e+06	-56239.1	1005.82	-29739.7	0.000000	0.000000	6.995140	0.053029	NaN	0.000000	0.001673	0.001672	28.0815	0.052169	0.002040	25.579	170.742	-168.2	0.063370	0.994122	-0.063901	-0.065194	0.053029	25.579	-0.065456	-0.256571	-0.206682	NaN
417	1.000000	1.003416	7.36914e+06	-56239.1	1005.82	-29739.7	0.000000	0.000000	7.003139	-0.003637	NaN	0.000000	0.001700	0.001690	28.0818	0.080325	0.002033	39.5129	-17.2956	-167.345	-0.043249	1.002187	-0.055900	-0.057129	-0.003637	39.5129	-0.055831	-0.136251	0.026690	NaN
417	1.000000	1.011445	7.36914e+06	-56239.1	1005.82	-29739.7	0.000000	0.000000	7.011169	0.010647	NaN	0.000000	0.001692	0.001675	28.0816	0.079524	0.001949	40.8013	77.9967	-163.072	0.005330	1.010107	-0.047871	-0.049209	0.010647	40.8013	-0.048067	-0.079722	-0.133548	NaN
417	1.000000	1.019415	7.36914e+06	-56239.1	1005.82	-29739.7	0.000000	0.000000	7.019141	0.051090	NaN	0.000000	0.001660	0.001721	28.0819	0.063500	0.002146	29.5895	-157.616	-166.92	0.018964	1.018071	-0.039900	-0.041245	0.051090	29.5895	-0.041195	-0.049173	-1.038998	NaN
417	1.000000	1.027421	7.36914e+06	-56239.1	1005.82	-29739.7	0.000000	0.000000	7.027147	0.050749	NaN	0.000000	0.001679	0.001675	28.0817	0.061890	0.002141	28.9025	14.6701	-165.85	0.019689	1.026127	-0.031894	-0.033189	0.050749	28.9025	-0.033211	-0.028395	-1.787276	NaN
417	1.000000	1.035433	7.36914e+06	-56239.1	1005.82	-29739.7	0.000000	0.000000	7.035159	0.063495	NaN	0.000000	0.001630	0.001689	28.0816	0.087748	0.001903	46.103	19.2493	-167.855	0.046355	1.034102	-0.023882	-0.025214	0.063495	46.103	-0.024915	-0.016785	-3.782914	NaN
417	1.000000	1.043443	7.36914e+06	-56239.1	1005.82	-29739.7	0.000000	0.000000	7.043170	0.085281	NaN	0.000000	0.001668	0.001709	28.0816	0.142656	0.002077	68.6805	131.41	-163.724	0.030529	1.042206	-0.015873	-0.017110	0.085281	68.6805	-0.016804	-0.010386	-8.211444	NaN
417	1.000000	1.051422	7.36914e+06	-56239.1	1005.82	-29739.7	0.000000	0.000000	7.051149	0.072705	NaN	0.000000	0.001688	0.001696	28.0815	0.032978	0.002019	16.3303	98.1181	-163.218	0.061729	1.050145	-0.007893	-0.009170	0.072705	16.3303	-0.011232	-0.007091	-10.2538	NaN
417	1.000000	1.059412	7.36914e+06	-56239.1	1005.82	-29739.7	0.000000	0.000000	7.059142	0.140035	NaN	0.000000	0.001658	0.001708	28.0817	0.189977	0.002047	92.7964	12.5212	-165.35	0.040611	1.058050	9.648088E-5	-0.001265	0.140035	92.7964	-0.001035	-0.000759	-184.609	NaN
417	1.000000	1.067325	7.36914e+06	-56239.1	1005.82	-29739.7	0.000000	0.000000	7.067371	7.850217	NaN	0.000000	0.001664	0.001668	28.0816	8.006940	0.001719	4658.55	10.7917	-172.103	5.845989	1.066112	0.008009	0.006796	7.850217	4658.55	0.006745	0.005783	1357.43	55968.3
417	2.000000	1.070022	7.36914e+06	-56239.1	1005.82	-29739.7	0.000000	0.000000	7.070194	10.8943	NaN	0.000000	0.001660	0.001739	28.0817	10.4198	0.001565	6658.05	3.855690	-171.814	10.2453	1.069717	0.010706	0.010401	10.8943	6658.05	0.009479	0.008608	1265.56	65563.5
417	2.000000	1.072068	7.36914e+06	-56239.1	1005.82	-29739.7	0.000000	0.000000	7.072301	12.3839	NaN	0.000000	0.001680	0.001696	28.0817	13.0403	0.001819	7170.43	9.348127	-175.304	12.368	1.071711	0.012752	0.012396	12.3839	7170.43	0.011457	0.010846	1141.76	62903.9
417	2.000000	1.073975	7.36914e+06	-56239.1	1005.82	-29739.7	0.000000	0.000000	7.074444	18.1334	NaN	0.000000	0.001652	0.001665	28.0814	14.9533	0.001664	8987.34	7.997230	-176.57	17.9433	1.073656	0.014659	0.014341	18.1334	8987.34	0.013146	0.012891	1406.62	72319.1
417	2.000000	1.076003	7.36914e+06	-56239.1	1005.82	-29739.7	0.000000	0.000000	7.076517	19.2112	NaN	0.000000	0.001666	0.001687	28.0815	17.3841	0.001904	9130.08	5.108780	-174.411	19.3929	1.075617	0.016687	0.016302	19.2112	9130.08	0.015109	0.015431	1244.96	67150.3
417	2.000000	1.077977	7.36914e+06	-56239.1	1005.82	-29739.7	0.000000	0.000000	7.078703	24.3703	NaN	0.000000	0.001717	0.001693	28.0803	19.6298	0.001772	11077	12.2434	176.741	25.2999	1.077667	0.018661	0.018351	24.3703	11077	0.017011	0.018061	1349.32	75305
417	2.000000	1.079906	7.36914e+06	-56239.1	1005.82	-29739.7	0.000000	0.000000	7.080719	26.4923	NaN	0.000000	0.001720	0.001680	28.0803	20.5444	0.001782	11528.8	3.254935	-175.025	24.8921	1.079620	0.020590	0.020304	26.4923	11528.8	0.018867	0.020792	1274.14	73047.4
417	2.000000	1.081937	7.36914e+06	-56239.1	1005.82	-29739.7	0.000000	0.000000	7.083044	33.6428	NaN	0.000000	0.001716	0.001712	28.0811	23.5859	0.001777	13271.3	7.272554	179.37	33.1919	1.081652	0.022621	0.022336	33.6428	13271.3	0.020720	0.023686	1420.38	78785
417	2.000000	1.083982	7.36914e+06	-56239.1	1005.82	-29739.7	0.000000	0.000000	7.085309	38.9837	NaN	0.000000	0.001702	0.001712	28.08	24.7631	0.001755	14109.4	10.8177	177.407	40.3807	1.083594	0.024666	0.024278	38.9837	14109.4	0.022594	0.026783	1455.54	78768.6
417	2.000000	1.085916	7.36914e+06	-56239.1	1005.82	-29739.7	0.000000	0.000000	7.087379	42.2827	NaN	0.000000	0.001701	0.001739	28.0801	27.6601	0.001760	15712.3	7.241958	177.742	40.6683	1.085635	0.026600	0.026319	42.2827	15712.3	0.024582	0.030259	1397.36	82525.1
417	2.000000	1.087978	7.36914e+06	-56239.1	1005.82	-29739.7	0.000000	0.000000	7.089636	47.0084	NaN	0.000000	0.001705	0.001726	28.0805	29.3927	0.001889	15557.1	6.633133	-179.751	47.2359	1.087672	0.028662	0.028356	47.0084	15557.1	0.026396	0.033605	1398.86	77535.7
417	2.000000	1.089934	7.36914e+06	-56239.1	1005.82	-29739.7	0.000000	0.000000	7.091832	52.8584	NaN	0.000000	0.001643	0.001711	28.0802	31.6912	0.001753	18081.1	11.8401	171.832	52.721	1.089561	0.030618	0.030245	52.8584	18081.1	0.028426	0.037544	1407.92	85257.2
417	2.000000	1.091875	7.36914e+06	-56239.1	1005.82	-29739.7	0.000000	0.000000	7.093954	57.2457	NaN	0.000000	0.001651	0.001723	28.0806	33.4933	0.001888	17744	3.609144	-178.973	56.1485	1.091751	0.032560	0.032435	57.2457	17744	0.030140	0.041035	1395.06	80029.3
417	2.000000	1.093863	7.36914e+06	-56239.1	1005.82	-29739.7	0.000000	0.000000	7.096149	62.2931	NaN	0.000000	0.001676	0.001702	28.0804	34.4854	0.001675	20592	0.215463	-178.262	59.7315	1.093620	0.034547	0.034305	62.2931	20592	0.032278	0.045599	1366.11	88104
417	2.000000	1.095960	7.36914e+06	-56239.1	1005.82	-29739.7	0.000000	0.000000	7.098619	71.3432	NaN	0.000000	0.001649	0.001711	28.0801	37.3612	0.001758	21246.9	6.873303	175.424	71.6465	1.095588	0.036644	0.036273	71.3432	21246.9	0.034126	0.049731	1434.59	87047.8
417	2.000000	1.097970	7.36914e+06	-56239.1	1005.82	-29739.7	0.000000	0.000000	7.100794	75.3492	NaN	0.000000	0.001684	0.001679	28.0803	39.6733	0.001835	21617.1	7.880911	174.954	74.2688	1.097640	0.038654	0.038324	75.3492	21617.1	0.036040	0.054196	1390.32	84837.4
417	2.000000	1.099928	7.36914e+06	-56239.1	1005.82	-29739.7	0.000000	0.000000	7.103120	84.3092	NaN	0.000000	0.001670	0.001666	28.0802	40.9031	0.001845	22174.2	5.626863	177.961	85.557	1.099600	0.040612	0.040285	84.3092	22174.2	0.037760	0.058368	1444.43	83855.7
417	2.000000	1.101904	7.36914e+06	-56239.1	1005.82	-29739.7	0.000000	0.000000	7.105494	93.9897	NaN	0.000000	0.001645	0.001742	28.0806	44.4116	0.001824	24344.3	5.280616	175.979	92.594	1.101633	0.042588	0.042317	93.9897	24344.3	0.039692	0.063236	1486.34	88448.2
417	2.000000	1.103933	7.36914e+06	-56239.1	1005.82	-29739.7	0.000000	0.000000	7.107794	100.559	NaN	0.000000	0.001667	0.001731	28.0803	45.3373	0.001877	24147.9	5.307701	176.432	101.09	1.103596	0.044617	0.044281	100.559	24147.9	0.041494	0.067946	1479.98	84638.8
417	2.000000	1.105887	7.36914e+06	-56239.1	1005.82	-29739.7	0.000000	0.000000	7.110038	107.627	NaN	0.000000	0.001672	0.001729	28.0802	47.267	0.001818	25995.7	2.752038	177.087	105.781	1.105602	0.046571	0.046287	107.627	25995.7	0.043466	0.073292	1468.47	87729.7
417	2.000000	1.107924	7.36914e+06	-56239.1	1005.82	-29739.7	0.000000	0.000000	7.112623	120.938	NaN	0.000000	0.001671	0.001706	28.0808	49.6014	0.001741	28493.3	8.069799	172.111	120.6	1.107549	0.048608	0.048233	120.938	28493.3	0.045425	0.078799	1534.78	92737.8
417	2.000000	1.109888	7.36914e+06	-56239.1	1005.82	-29739.7	0.000000	0.000000	7.115067	132.588	NaN	0.000000	0.001666	0.001721	28.0801	50.7943	0.001756	28920.3	5.874637	174.357	130.855	1.109505	0.050573	0.050190	132.588	28920.3	0.047134	0.083762	1582.93	91296.4
417	2.000000	1.111943	7.36914e+06	-56239.1	1005.82	-29739.7	0.000000	0.000000	7.117426	139.992	NaN	0.000000	0.001682	0.001718	28.0816	53.9403	0.001825	29563	7.236404	173.638	141.588	1.111575	0.052627	0.052259	139.992	29563	0.049075	0.089577	1562.82	90245.4
417	2.000000	1.113847	7.36914e+06	-56239.1	1005.82	-29739.7	0.000000	0.000000	7.119905	153.977	NaN	0.000000	0.001692	0.001740	28.0816	54.5816	0.001686	32365.6	5.553332	173.239	151.781	1.113535	0.054531	0.054219	153.977	32365.6	0.050963	0.095414	1613.78	95730.7
417	2.000000	1.115815	7.36914e+06	-56239.1	1005.82	-29739.7	0.000000	0.000000	7.122119	159.954	NaN	0.000000	0.001633	0.001709	28.0815	57.1554	0.001800	31755.9	6.482989	172.543	155.747	1.115434	0.056499	0.056118	159.954	31755.9	0.052721	0.101010	1583.54	91288.4
417	2.000000	1.117875	7.36914e+06	-56239.1	1005.82	-29739.7	0.000000	0.000000	7.124620	170.659	NaN	0.000000	0.001666	0.001723	28.0821	58.288	0.001606	36295	3.192617	175.31	166.761	1.117456	0.058560	0.058140	170.659	36295	0.055033	0.108603	1571.4	100623
417	2.000000	1.119885	7.36914e+06	-56239.1	1005.82	-29739.7	0.000000	0.000000	7.126975	179.053	NaN	0.000000	0.001650	0.001686	28.0814	60.7498	0.001722	35287.6	3.967035	174.173	180.28	1.119615	0.060570	0.060299	179.053	35287.6	0.056764	0.114461	1564.32	95294.2
417	2.000000	1.121881	7.36914e+06	-56239.1	1005.82	-29739.7	0.000000	0.000000	7.129559	193.36	NaN	0.000000	0.001763	0.001711	28.0817	63.1797	0.001633	38688.2	2.729768	174.153	192.892	1.121602	0.062565	0.062286	193.36	38688.2	0.058817	0.121599	1590.15	101365
417	2.000000	1.123811	7.36914e+06	-56239.1	1005.82	-29739.7	0.000000	0.000000	7.131985	205.399	NaN	0.000000	0.001759	0.001701	28.0814	64.1803	0.001659	38683	5.521312	171.722	201.589	1.123619	0.064496	0.064304	205.399	38683	0.060513	0.127656	1609	98917.3
417	2.000000	1.125871	7.36914e+06	-56239.1	1005.82	-29739.7	0.000000	0.000000	7.134503	216.54	NaN	0.000000	0.001730	0.001712	28.0815	67.0973	0.001777	37749.1	1.127096	176.262	214.69	1.125582	0.066555	0.066266	216.54	37749.1	0.062253	0.134010	1615.85	94212.9
417	2.000000	1.127837	7.36914e+06	-56239.1	1005.82	-29739.7	0.000000	0.000000	7.137242	235.328	NaN	0.000000	0.001693	0.001685	28.0822	69.9162	0.001794	38970.9	5.170839	172.859	230.69	1.127352	0.068522	0.068037	235.328	38970.9	0.063993	0.140513	1674.78	94985
417	2.000000	1.129828	7.36914e+06	-56239.1	1005.82	-29739.7	0.000000	0.000000	7.139798	249.064	NaN	0.000000	0.001700	0.001682	28.0815	71.6277	0.001810	39570.5	6.744283	171.358	247.735	1.129456	0.070512	0.070140	249.064	39570.5	0.065792	0.147392	1689.8	94168.9
417	2.000000	1.131910	7.36914e+06	-56239.1	1005.82	-29739.7	0.000000	0.000000	7.142274	258.627	NaN	0.000000	0.001630	0.001681	28.0819	74.0503	0.001793	41296.6	3.538704	173.618	259.042	1.131608	0.072594	0.072293	258.627	41296.6	0.067897	0.155640	1661.7	95637.1
417	2.000000	1.133845	7.36914e+06	-56239.1	1005.82	-29739.7	0.000000	0.000000	7.144690	270.343	NaN	0.000000	0.001641	0.001683	28.0816	74.9637	0.001759	42628.8	4.958063	171.424	267.489	1.133570	0.074529	0.074255	270.343	42628.8	0.069773	0.163164	1656.88	96419.2
417	2.000000	1.135803	7.36914e+06	-56239.1	1005.82	-29739.7	0.000000	0.000000	7.147197	283.665	NaN	0.000000	0.001704	0.001644	28.0814	76.8799	0.001726	44549.4	2.655493	173.378	280.356	1.135614	0.076487	0.076298	283.665	44549.4	0.071712	0.171121	1657.69	98392.8
417	2.000000	1.137929	7.36914e+06	-56239.1	1005.82	-29739.7	0.000000	0.000000	7.150122	303.085	NaN	0.000000	0.001658	0.001646	28.0819	79.9111	0.001854	43103	4.350278	172.66	307.181	1.137535	0.078614	0.078219	303.085	43103	0.073340	0.177939	1703.31	93356.5
417	2.000000	1.139892	7.36914e+06	-56239.1	1005.82	-29739.7	0.000000	0.000000	7.152762	319.544	NaN	0.000000	0.001669	0.001653	28.0815	81.9892	0.001851	44298.3	6.392690	170.327	322.18	1.139511	0.080576	0.080195	319.544	44298.3	0.075166	0.185736	1720.42	93910.1
417	2.000000	1.141796	7.36914e+06	-56239.1	1005.82	-29739.7	0.000000	0.000000	7.155405	337.513	NaN	0.000000	0.001672	0.001643	28.0818	82.7244	0.001785	46354.2	2.722767	173.531	334.395	1.141470	0.082481	0.082155	337.513	46354.2	0.077020	0.193810	1741.47	96199.8
417	2.000000	1.143801	7.36914e+06	-56239.1	1005.82	-29739.7	0.000000	0.000000	7.158183	356.29	NaN	0.000000	0.001717	0.001615	28.0816	84.3586	0.001744	48370.4	5.720200	170.345	354.475	1.143566	0.084486	0.084250	356.29	48370.4	0.078961	0.202440	1759.98	98221.1
417	2.000000	1.145751	7.36915e+06	-56239.1	1005.82	-29739.7	0.000000	0.000000	7.160679	369.562	NaN	0.000000	0.001674	0.001599	28.0805	86.7906	0.001845	47032.9	0.464383	175.626	361.856	1.145456	0.086436	0.086140	369.562	47032.9	0.080542	0.209597	1763.21	93860.5
417	2.000000	1.147842	7.36915e+06	-56239.1	1005.82	-29739.7	0.000000	0.000000	7.163478	386.773	NaN	0.000000	0.001719	0.001628	28.0806	89.5743	0.001778	50377.7	7.324422	168.907	385.745	1.147418	0.088526	0.088102	386.773	50377.7	0.082768	0.219871	1759.09	98158.4
417	2.000000	1.149831	7.36915e+06	-56239.1	1005.82	-29739.7	0.000000	0.000000	7.166305	407.152	NaN	0.000000	0.001748	0.001626	28.0803	90.7626	0.001719	52786.2	5.415716	170.039	405.396	1.149441	0.090516	0.090125	407.152	52786.2	0.084731	0.229119	1777.03	100754
417	2.000000	1.151907	7.36915e+06	-56239.1	1005.82	-29739.7	0.000000	0.000000	7.168967	421.404	NaN	0.000000	0.001673	0.001595	28.0817	93.6076	0.001817	51516.9	3.309610	171.888	423.166	1.151511	0.092591	0.092196	421.404	51516.9	0.086456	0.237397	1775.1	96601.8
417	2.000000	1.153900	7.36915e+06	-56239.1	1005.82	-29739.7	0.000000	0.000000	7.171788	441.512	NaN	0.000000	0.001702	0.001600	28.0803	94.5	0.001741	54293.8	6.738861	168.821	442.769	1.153433	0.094584	0.094117	441.512	54293.8	0.088485	0.247308	1785.27	99748.1
417	2.000000	1.155881	7.36915e+06	-56239.1	1005.82	-29739.7	0.000000	0.000000	7.174437	457.759	NaN	0.000000	0.001635	0.001638	28.0805	96.7079	0.001708	56624.8	6.094641	168.865	458.646	1.155506	0.096565	0.096191	457.759	56624.8	0.090502	0.257348	1778.76	101981
417	2.000000	1.157791	7.36915e+06	-56239.1	1005.82	-29739.7	0.000000	0.000000	7.177101	476.092	NaN	0.000000	0.001681	0.001623	28.0805	98.4226	0.001694	58110.8	3.797842	171.138	472.208	1.157506	0.098475	0.098190	476.092	58110.8	0.092330	0.266606	1785.75	102824
417	2.000000	1.159864	7.36915e+06	-56239.1	1005.82	-29739.7	0.000000	0.000000	7.179471	483.316	NaN	0.000000	0.001718	0.001626	28.0802	100.829	0.001719	58660.1	6.711526	167.416	485.421	1.159669	0.100548	0.100354	483.316	58660.1	0.094369	0.277111	1744.13	101810
417	2.000000	1.161886	7.36915e+06	-56239.1	1005.82	-29739.7	0.000000	0.000000	7.182677	512.107	NaN	0.000000	0.001702	0.001573	28.0805	104.286	0.001805	57768.6	7.141217	168.099	513.021	1.161445	0.102570	0.102130	512.107	57768.6	0.095921	0.285241	1795.35	98823.3
417	2.000000	1.163796	7.36915e+06	-56239.1	1005.82	-29739.7	0.000000	0.000000	7.185282	528.985	NaN	0.000000	0.001753	0.001633	28.0803	105.226	0.001764	59666.5	6.766683	167.586	528.039	1.163488	0.104480	0.104173	528.985	59666.5	0.097831	0.295391	1790.79	100301
417	2.000000	1.165656	7.36915e+06	-56239.1	1005.82	-29739.7	0.000000	0.000000	7.188002	549.904	NaN	0.000000	0.001706	0.001632	28.0805	106.47	0.001813	58715.9	0.852857	173.854	539.965	1.165384	0.106340	0.106068	549.904	58715.9	0.099316	0.303396	1812.5	97392.3
417	2.000000	1.166809	7.36915e+06	-56239.1	1005.82	-29739.7	0.000000	0.000000	7.189109	548.766	NaN	0.000000	0.001720	0.001600	28.0802	107.05	0.001697	63083.6	-0.751045	174.882	546.811	1.166680	0.107493	0.107365	548.766	63083.6	0.100969	0.312429	1756.45	103113