File: remote_trans/data/nanoindenter/0828-1/data/Data_2025-08-06,11h17m57s/2025-07-22_16-23-58_1_520.txt
2025-07-22, 16:23:58, 1
Index	Phase	Displacement	Time	Pos X	Pos Y	Pos Z	Rot A	Rot B	Piezo Z	Force A	Force B	Gripper	Voltage A	Voltage B	Temperature	Amplitude force	Amplitude pos	Stiffness	Phase shift	Phase excitation	Force A raw	Displacement raw	HMax	HMax raw	Real Force	Real Stiffness	Contact Depth	Area	Hardness	Reduced Mod.
[#]	[#]	[um]	[s]	[um]	[um]	[um]	[m°]	[m°]	[um]	[uN]	[uN]	[V]	[V]	[V]	[°C]	[uN]	[um]	[N/m]	[°]	[°]	[uN]	[um]	[um]	[um]	[uN]	[N/m]	[um]	[um^2]	[MPa]	[MPa]
520	1.000000	0.002622	7.37014e+06	-51089.1	1005.82	-29753.5	0.000000	0.000000	6.002795	0.078372	NaN	0.000000	0.001673	0.001766	28.0832	0.016359	0.000945	17.3045	17.0875	-170.34	0.055991	0.001352	-1.058442	-1.059712	0.078372	17.3045	-1.061839	-1.540031E+14	-5.088977E-16	NaN
520	1.000000	0.010582	7.37014e+06	-51089.1	1005.82	-29753.5	0.000000	0.000000	6.010752	0.023717	NaN	0.000000	0.001663	0.001766	28.0828	0.071816	0.000848	84.6756	-18.4537	-171.702	0.083957	0.009284	-1.050482	-1.051779	0.023717	84.6756	-1.050692	-1.090732E+14	-2.174391E-16	NaN
520	1.000000	0.018614	7.37014e+06	-51089.1	1005.82	-29753.5	0.000000	0.000000	6.018782	-0.055473	NaN	0.000000	0.001670	0.001765	28.0829	0.090529	0.001788	50.6312	-109.427	-160.593	0.016785	0.017280	-1.042449	-1.043784	-0.055473	50.6312	-1.041628	-8.238629E+13	6.733236E-16	NaN
520	1.000000	0.026598	7.37014e+06	-51089.1	1005.82	-29753.5	0.000000	0.000000	6.026768	-0.005437	NaN	0.000000	0.001657	0.001801	28.083	0.031383	0.001773	17.7036	-90.5651	-165.608	0.013096	0.025282	-1.034465	-1.035782	-0.005437	17.7036	-1.034235	-6.553015E+13	8.297316E-17	NaN
520	1.000000	0.034595	7.37014e+06	-51089.1	1005.82	-29753.5	0.000000	0.000000	6.034767	0.053762	NaN	0.000000	0.001649	0.001763	28.0827	0.074115	0.001785	41.522	-32.9991	-166.683	0.043098	0.033309	-1.026469	-1.027755	0.053762	41.522	-1.027440	-5.309334E+13	-1.012590E-15	NaN
520	1.000000	0.042583	7.37014e+06	-51089.1	1005.82	-29753.5	0.000000	0.000000	6.042755	0.058377	NaN	0.000000	0.001645	0.001769	28.0826	0.028929	0.001956	14.7874	-9.907380	-166.947	0.026447	0.041290	-1.018481	-1.019773	0.058377	14.7874	-1.021442	-4.409091E+13	-1.324004E-15	NaN
520	1.000000	0.050598	7.37014e+06	-51089.1	1005.82	-29753.5	0.000000	0.000000	6.050772	0.118178	NaN	0.000000	0.001618	0.001759	28.0829	0.042698	0.002048	20.8486	147.994	-166.003	0.093716	0.049221	-1.010466	-1.011843	0.118178	20.8486	-1.014717	-3.579890E+13	-3.301166E-15	NaN
520	1.000000	0.058583	7.37014e+06	-51089.1	1005.82	-29753.5	0.000000	0.000000	6.058754	0.040617	NaN	0.000000	0.001629	0.001778	28.0826	0.112355	0.002060	54.5334	-156.854	-161.249	0.015923	0.057253	-1.002481	-1.003811	0.040617	54.5334	-1.003039	-2.492794E+13	-1.629393E-15	NaN
520	1.000000	0.066581	7.37014e+06	-51089.1	1005.82	-29753.5	0.000000	0.000000	6.066751	0.002498	NaN	0.000000	0.001626	0.001781	28.0827	0.068431	0.001945	35.1921	128.391	-164.485	0.023569	0.065265	-0.994483	-0.995799	0.002498	35.1921	-0.994536	-1.915124E+13	-1.304170E-16	NaN
520	1.000000	0.074587	7.37014e+06	-51089.1	1005.82	-29753.5	0.000000	0.000000	6.074760	0.098864	NaN	0.000000	0.001631	0.001746	28.0817	0.105598	0.001899	55.6196	130.073	-163.967	0.077324	0.073248	-0.986477	-0.987816	0.098864	55.6196	-0.987810	-1.554601E+13	-6.359412E-15	NaN
520	1.000000	0.082594	7.37014e+06	-51089.1	1005.82	-29753.5	0.000000	0.000000	6.082764	0.011776	NaN	0.000000	0.001633	0.001762	28.0814	0.038920	0.001965	19.8096	162.562	-165.849	-0.054324	0.081288	-0.978470	-0.979776	0.011776	19.8096	-0.978916	-1.179791E+13	-9.981665E-16	NaN
520	1.000000	0.090601	7.37014e+06	-51089.1	1005.82	-29753.5	0.000000	0.000000	6.090773	0.062199	NaN	0.000000	0.001646	0.001783	28.0814	0.088489	0.002046	43.245	0.864300	-162.324	0.089977	0.089266	-0.970463	-0.971798	0.062199	43.245	-0.971542	-9.385168E+12	-6.627408E-15	NaN
520	1.000000	0.098586	7.37014e+06	-51089.1	1005.82	-29753.5	0.000000	0.000000	6.098757	0.037968	NaN	0.000000	0.001591	0.001720	28.0816	0.085558	0.002100	40.7372	175.873	-165.088	0.040439	0.097318	-0.962478	-0.963746	0.037968	40.7372	-0.963177	-7.239387E+12	-5.244704E-15	NaN
520	1.000000	0.106581	7.37014e+06	-51089.1	1005.82	-29753.5	0.000000	0.000000	6.106751	0.005001	NaN	0.000000	0.001587	0.001725	28.0816	0.140740	0.002022	69.5885	166.059	-164.598	-0.021489	0.105265	-0.954483	-0.955799	0.005001	69.5885	-0.954537	-5.536115E+12	-9.033979E-16	NaN
520	1.000000	0.114594	7.37014e+06	-51089.1	1005.82	-29753.5	0.000000	0.000000	6.114765	0.025302	NaN	0.000000	0.001642	0.001711	28.0814	0.103865	0.001919	54.1269	-168.993	-164.234	0.087151	0.113255	-0.946470	-0.947809	0.025302	54.1269	-0.946820	-4.356529E+12	-5.807860E-15	NaN
520	1.000000	0.122630	7.37014e+06	-51089.1	1005.82	-29753.5	0.000000	0.000000	6.122803	0.070818	NaN	0.000000	0.001592	0.001727	28.0813	0.070157	0.001902	36.8918	41.1874	-166.551	0.016346	0.121337	-0.938434	-0.939727	0.070818	36.8918	-0.939873	-3.510974E+12	-2.017043E-14	NaN
520	1.000000	0.130624	7.37014e+06	-51089.1	1005.82	-29753.5	0.000000	0.000000	6.130795	0.029775	NaN	0.000000	0.001602	0.001691	28.0814	0.022002	0.002036	10.8056	26.6906	-164.281	-0.033907	0.129341	-0.930440	-0.931723	0.029775	10.8056	-0.932506	-2.792691E+12	-1.066164E-14	NaN
520	1.000000	0.138583	7.37014e+06	-51089.1	1005.82	-29753.5	0.000000	0.000000	6.138754	0.033277	NaN	0.000000	0.001601	0.001773	28.0814	0.049601	0.001898	26.1319	-169.028	-166.678	0.062310	0.137318	-0.922481	-0.923746	0.033277	26.1319	-0.923436	-2.106647E+12	-1.579600E-14	NaN
520	1.000000	0.146619	7.37014e+06	-51089.1	1005.82	-29753.5	0.000000	0.000000	6.146794	0.129721	NaN	0.000000	0.001630	0.001755	28.0815	0.053004	0.001997	26.5474	-153.831	-164.518	0.144262	0.145319	-0.914445	-0.915744	0.129721	26.5474	-0.918110	-1.785187E+12	-7.266497E-14	NaN
520	1.000000	0.154599	7.37014e+06	-51089.1	1005.82	-29753.5	0.000000	0.000000	6.154772	0.089008	NaN	0.000000	0.001613	0.001750	28.0816	0.084424	0.001976	42.7167	30.5144	-166.076	0.143430	0.153299	-0.906465	-0.907765	0.089008	42.7167	-0.908028	-1.304737E+12	-6.821873E-14	NaN
520	1.000000	0.162629	7.37014e+06	-51089.1	1005.82	-29753.5	0.000000	0.000000	6.162799	0.006361	NaN	0.000000	0.001600	0.001773	28.0817	0.104548	0.002008	52.0668	-70.4813	-162.667	0.010636	0.161286	-0.898435	-0.899778	0.006361	52.0668	-0.898526	-9.708510E+11	-6.552038E-15	NaN
520	1.000000	0.170604	7.37014e+06	-51089.1	1005.82	-29753.5	0.000000	0.000000	6.170777	0.090800	NaN	0.000000	0.001625	0.001746	28.0816	0.055808	0.001992	28.0226	167.264	-164.561	-0.023524	0.169328	-0.890460	-0.891736	0.090800	28.0226	-0.892890	-8.146706E+11	-1.114557E-13	NaN
520	1.000000	0.178615	7.37014e+06	-51089.1	1005.82	-29753.5	0.000000	0.000000	6.178788	0.084447	NaN	0.000000	0.001613	0.001729	28.0813	0.059997	0.002024	29.6407	-32.1256	-163.674	0.043058	0.177313	-0.882449	-0.883751	0.084447	29.6407	-0.884585	-6.290895E+11	-1.342363E-13	NaN
520	1.000000	0.186624	7.37014e+06	-51089.1	1005.82	-29753.5	0.000000	0.000000	6.186796	0.046941	NaN	0.000000	0.001591	0.001723	28.0813	0.095526	0.001942	49.1858	-117.988	-167.803	0.109957	0.185322	-0.874440	-0.875742	0.046941	49.1858	-0.875155	-4.690145E+11	-1.000835E-13	NaN
520	1.000000	0.194606	7.37014e+06	-51089.1	1005.82	-29753.5	0.000000	0.000000	6.194776	-0.006095	NaN	0.000000	0.001648	0.001709	28.0813	0.063570	0.001973	32.2126	113.33	-167.747	0.001820	0.193338	-0.866458	-0.867726	-0.006095	32.2126	-0.866316	-3.561169E+11	1.711550E-14	NaN
520	1.000000	0.202655	7.37014e+06	-51089.1	1005.82	-29753.5	0.000000	0.000000	6.202825	0.008618	NaN	0.000000	0.001652	0.001698	28.0814	0.062224	0.002047	30.3945	-3.121439	-164.61	0.002012	0.201299	-0.858409	-0.859765	0.008618	30.3945	-0.858622	-2.801968E+11	-3.075752E-14	NaN
520	1.000000	0.210627	7.37014e+06	-51089.1	1005.82	-29753.5	0.000000	0.000000	6.210800	0.071529	NaN	0.000000	0.001604	0.001740	28.0821	0.051577	0.002000	25.7934	179.414	-162.599	0.054961	0.209345	-0.850436	-0.851719	0.071529	25.7934	-0.852516	-2.316382E+11	-3.087957E-13	NaN
520	1.000000	0.218626	7.37014e+06	-51089.1	1005.82	-29753.5	0.000000	0.000000	6.218797	0.043373	NaN	0.000000	0.001622	0.001731	28.0826	0.100324	0.001988	50.4672	124.685	-167.219	0.033309	0.217327	-0.842438	-0.843736	0.043373	50.4672	-0.843082	-1.726036E+11	-2.512876E-13	NaN
520	1.000000	0.226644	7.37014e+06	-51089.1	1005.82	-29753.5	0.000000	0.000000	6.226820	0.137576	NaN	0.000000	0.001604	0.001716	28.0826	0.147505	0.002070	71.2465	-20.86	-164.866	0.154188	0.225330	-0.834419	-0.835734	0.137576	71.2465	-0.835868	-1.378177E+11	-9.982452E-13	NaN
520	1.000000	0.234653	7.37014e+06	-51089.1	1005.82	-29753.5	0.000000	0.000000	6.234824	0.047900	NaN	0.000000	0.001622	0.001692	28.0825	0.096426	0.002088	46.1845	-19.4636	-167.714	0.102353	0.233317	-0.826411	-0.827747	0.047900	46.1845	-0.827189	-1.051193E+11	-4.556705E-13	NaN
520	1.000000	0.242670	7.37014e+06	-51089.1	1005.82	-29753.5	0.000000	0.000000	6.242842	0.073894	NaN	0.000000	0.001575	0.001686	28.0827	0.046709	0.002048	22.8102	17.8634	-165.871	0.159886	0.241333	-0.818394	-0.819731	0.073894	22.8102	-0.820824	-8.617524E+10	-8.574900E-13	NaN
520	1.000000	0.250665	7.37014e+06	-51089.1	1005.82	-29753.5	0.000000	0.000000	6.250837	0.063438	NaN	0.000000	0.001590	0.001658	28.0827	0.044438	0.002020	21.9988	-59.9526	-164.154	0.026132	0.249340	-0.810399	-0.811723	0.063438	21.9988	-0.812562	-6.657682E+10	-9.528581E-13	NaN
520	1.000000	0.258646	7.37014e+06	-51089.1	1005.82	-29753.6	0.000000	0.000000	6.258816	-0.008188	NaN	0.000000	0.001603	0.001667	28.0827	0.043644	0.001922	22.7051	87.9463	-168.393	0.076314	0.257330	-0.802417	-0.803734	-0.008188	22.7051	-0.802147	-4.808440E+10	1.702837E-13	NaN
520	1.000000	0.266653	7.37014e+06	-51089.1	1005.82	-29753.5	0.000000	0.000000	6.266827	0.095328	NaN	0.000000	0.001585	0.001662	28.0827	0.077388	0.002034	38.0475	-40.6254	-163.111	0.118315	0.265336	-0.794410	-0.795728	0.095328	38.0475	-0.796289	-4.003957E+10	-2.380848E-12	NaN
520	1.000000	0.274657	7.37014e+06	-51089.1	1005.82	-29753.6	0.000000	0.000000	6.274829	0.047187	NaN	0.000000	0.001613	0.001661	28.0828	0.025934	0.002015	12.8693	-36.2725	-164.948	-0.008675	0.273374	-0.786406	-0.787689	0.047187	12.8693	-0.789156	-3.203499E+10	-1.472991E-12	NaN
520	1.000000	0.282675	7.37014e+06	-51089.1	1005.82	-29753.5	0.000000	0.000000	6.282846	0.017386	NaN	0.000000	0.001590	0.001696	28.0828	0.071486	0.002016	35.4678	-155.483	-164.937	0.034876	0.281367	-0.778388	-0.779697	0.017386	35.4678	-0.778756	-2.313807E+10	-7.513907E-13	NaN
520	1.000000	0.290684	7.37014e+06	-51089.1	1005.82	-29753.5	0.000000	0.000000	6.290855	0.029541	NaN	0.000000	0.001596	0.001714	28.0828	0.079022	0.001911	41.3502	104.821	-167.19	0.070894	0.289389	-0.770379	-0.771675	0.029541	41.3502	-0.770915	-1.810289E+10	-1.631830E-12	NaN
520	1.000000	0.298674	7.37014e+06	-51089.1	1005.82	-29753.5	0.000000	0.000000	6.298847	0.073766	NaN	0.000000	0.001672	0.001679	28.0829	0.127924	0.002072	61.7371	-75.3824	-167.814	0.064518	0.297408	-0.762390	-0.763656	0.073766	61.7371	-0.763286	-1.425602E+10	-5.174393E-12	NaN
520	1.000000	0.306696	7.37014e+06	-51089.1	1005.82	-29753.5	0.000000	0.000000	6.306866	0.018317	NaN	0.000000	0.001602	0.001669	28.083	0.021000	0.002023	10.3831	68.2357	-162.996	0.060032	0.305355	-0.754368	-0.755709	0.018317	10.3831	-0.755691	-1.123760E+10	-1.629933E-12	NaN
520	1.000000	0.314695	7.37014e+06	-51089.1	1005.82	-29753.5	0.000000	0.000000	6.314865	0.001657	NaN	0.000000	0.001604	0.001725	28.0826	0.038658	0.002008	19.2515	-108.761	-162.783	-0.010421	0.313319	-0.746369	-0.747745	0.001657	19.2515	-0.746433	-8.407421E+9	-1.970445E-13	NaN
520	1.000000	0.322698	7.37014e+06	-51089.1	1005.82	-29753.5	0.000000	0.000000	6.322869	0.052796	NaN	0.000000	0.001573	0.001695	28.0834	0.043948	0.001983	22.1654	-74.0673	-160.14	0.048559	0.321398	-0.738366	-0.739666	0.052796	22.1654	-0.740153	-6.904548E+9	-7.646591E-12	NaN
520	1.000000	0.330696	7.37014e+06	-51089.1	1005.82	-29753.6	0.000000	0.000000	6.330867	0.031527	NaN	0.000000	0.001588	0.001700	28.083	0.036565	0.002003	18.2532	77.0871	-161.886	0.046333	0.329354	-0.730368	-0.731710	0.031527	18.2532	-0.731664	-5.290300E+9	-5.959411E-12	NaN
520	1.000000	0.338689	7.37014e+06	-51089.1	1005.82	-29753.6	0.000000	0.000000	6.338860	0.038060	NaN	0.000000	0.001569	0.001700	28.083	0.061582	0.002051	30.0307	-16.398	-164.707	-0.010382	0.337354	-0.722375	-0.723710	0.038060	30.0307	-0.723326	-4.072139E+9	-9.346495E-12	NaN
520	1.000000	0.346697	7.37014e+06	-51089.1	1005.82	-29753.6	0.000000	0.000000	6.346867	0.012686	NaN	0.000000	0.001576	0.001730	28.0822	0.046926	0.001999	23.4697	-132.578	-164.966	0.092277	0.345444	-0.714367	-0.715619	0.012686	23.4697	-0.714772	-3.112898E+9	-4.075268E-12	NaN
520	1.000000	0.354716	7.37014e+06	-51089.1	1005.82	-29753.6	0.000000	0.000000	6.354886	0.009800	NaN	0.000000	0.001595	0.001693	28.0812	0.016911	0.001991	8.494261	115.767	-163.617	-0.006888	0.353431	-0.706347	-0.707633	0.009800	8.494261	-0.707213	-2.454751E+9	-3.992391E-12	NaN
520	1.000000	0.362716	7.37014e+06	-51089.1	1005.82	-29753.6	0.000000	0.000000	6.362886	0.024787	NaN	0.000000	0.001593	0.001707	28.0815	0.074871	0.001958	38.2455	162.164	-164.53	0.055544	0.361422	-0.698348	-0.699642	0.024787	38.2455	-0.698834	-1.886297E+9	-1.314033E-11	NaN
520	1.000000	0.370709	7.37014e+06	-51089.1	1005.82	-29753.6	0.000000	0.000000	6.370878	-0.006217	NaN	0.000000	0.001591	0.001690	28.0814	0.069670	0.001963	35.4871	-78.33	-165.259	0.016403	0.369363	-0.690355	-0.691701	-0.006217	35.4871	-0.690224	-1.438723E+9	4.321004E-12	NaN
520	1.000000	0.378720	7.37014e+06	-51089.1	1005.82	-29753.6	0.000000	0.000000	6.378892	0.047561	NaN	0.000000	0.001579	0.001696	28.0816	0.093818	0.001983	47.3176	-56.3412	-165.785	0.005394	0.377406	-0.682344	-0.683658	0.047561	47.3176	-0.683097	-1.149640E+9	-4.137051E-11	NaN
520	1.000000	0.386702	7.37014e+06	-51089.1	1005.82	-29753.6	0.000000	0.000000	6.386873	0.023910	NaN	0.000000	0.001602	0.001754	28.0813	0.070948	0.001992	35.6207	94.1557	-167.891	-0.014935	0.385364	-0.674361	-0.675699	0.023910	35.6207	-0.674865	-8.870789E+8	-2.695338E-11	NaN
520	1.000000	0.394716	7.37014e+06	-51089.1	1005.82	-29753.5	0.000000	0.000000	6.394887	0.032224	NaN	0.000000	0.001576	0.001701	28.0812	0.033376	0.001997	16.7115	-167.599	-165.171	-0.013074	0.393429	-0.666348	-0.667635	0.032224	16.7115	-0.667794	-7.099033E+8	-4.539223E-11	NaN
520	1.000000	0.402757	7.37014e+06	-51089.1	1005.82	-29753.6	0.000000	0.000000	6.402927	-0.000786	NaN	0.000000	0.001576	0.001682	28.0813	0.110625	0.002214	49.9596	175.689	-164.311	0.019780	0.401421	-0.658306	-0.659643	-0.000786	49.9596	-0.658295	-5.261463E+8	1.493607E-12	NaN
520	1.000000	0.410740	7.37014e+06	-51089.1	1005.82	-29753.6	0.000000	0.000000	6.410911	0.034322	NaN	0.000000	0.001590	0.001671	28.0813	0.073363	0.001977	37.107	-175.36	-164.541	0.065473	0.409428	-0.650323	-0.651635	0.034322	37.107	-0.651017	-4.181967E+8	-8.207101E-11	NaN
520	1.000000	0.418763	7.37014e+06	-51089.1	1005.82	-29753.6	0.000000	0.000000	6.418937	0.103627	NaN	0.000000	0.001613	0.001710	28.0816	0.138384	0.002062	67.1252	145.979	-161.119	-0.004997	0.417413	-0.642301	-0.643650	0.103627	67.1252	-0.643458	-3.294077E+8	-3.145867E-10	NaN
520	1.000000	0.426739	7.37014e+06	-51089.1	1005.82	-29753.6	0.000000	0.000000	6.426909	0.001046	NaN	0.000000	0.001563	0.001739	28.0812	0.039773	0.001962	20.2669	-146.935	-164.023	-0.041327	0.425473	-0.634324	-0.635590	0.001046	20.2669	-0.634363	-2.471329E+8	-4.232860E-12	NaN
520	1.000000	0.434760	7.37014e+06	-51089.1	1005.82	-29753.6	0.000000	0.000000	6.434931	0.024732	NaN	0.000000	0.001587	0.001701	28.0814	0.052891	0.002028	26.0845	-123.253	-164.339	0.064168	0.433441	-0.626304	-0.627623	0.024732	26.0845	-0.627015	-1.958964E+8	-1.262492E-10	NaN
520	1.000000	0.442717	7.37014e+06	-51089.1	1005.82	-29753.6	0.000000	0.000000	6.442886	-0.009498	NaN	0.000000	0.001629	0.001661	28.0813	0.077868	0.001967	39.5862	117.455	-163.746	-0.033292	0.441443	-0.618347	-0.619621	-0.009498	39.5862	-0.618167	-1.480602E+8	6.414988E-11	NaN
520	1.000000	0.450735	7.37014e+06	-51089.1	1005.82	-29753.6	0.000000	0.000000	6.450905	0.001210	NaN	0.000000	0.001592	0.001714	28.0813	0.048385	0.001953	24.7761	-139.533	-162.849	-0.061853	0.449411	-0.610329	-0.611653	0.001210	24.7761	-0.610365	-1.156490E+8	-1.046580E-11	NaN
520	1.000000	0.458738	7.37014e+06	-51089.1	1005.82	-29753.6	0.000000	0.000000	6.458908	0.014569	NaN	0.000000	0.001581	0.001713	28.0816	0.080729	0.002022	39.9319	107.053	-167.276	-0.012494	0.457481	-0.602326	-0.603583	0.014569	39.9319	-0.602600	-9.041852E+7	-1.611312E-10	NaN
520	1.000000	0.466756	7.37014e+06	-51089.1	1005.82	-29753.6	0.000000	0.000000	6.466929	0.066744	NaN	0.000000	0.001588	0.001664	28.0812	0.015572	0.001909	8.158499	-22.67	-170.701	0.051905	0.465405	-0.594308	-0.595659	0.066744	8.158499	-0.600443	-8.444329E+7	-7.904030E-10	NaN
520	1.000000	0.474773	7.37014e+06	-51089.1	1005.82	-29753.6	0.000000	0.000000	6.474943	0.008038	NaN	0.000000	0.001583	0.001672	28.0815	0.134662	0.001957	68.8245	-156.724	-164.082	0.004570	0.473420	-0.586291	-0.587643	0.008038	68.8245	-0.586378	-5.404151E+7	-1.487352E-10	NaN
520	1.000000	0.482756	7.37014e+06	-51089.1	1005.82	-29753.6	0.000000	0.000000	6.482926	0.004245	NaN	0.000000	0.001599	0.001699	28.0815	0.032057	0.002075	15.45	79.5894	-165.226	-0.032442	0.481484	-0.578308	-0.579580	0.004245	15.45	-0.578514	-4.209300E+7	-1.008574E-10	NaN
520	1.000000	0.490759	7.37014e+06	-51089.1	1005.82	-29753.6	0.000000	0.000000	6.490931	0.049471	NaN	0.000000	0.001555	0.001713	28.0826	0.068737	0.002057	33.4114	-174.037	-164.872	0.022728	0.489416	-0.570305	-0.571648	0.049471	33.4114	-0.571415	-3.358783E+7	-1.472881E-9	NaN
520	1.000000	0.498797	7.37014e+06	-51089.1	1005.82	-29753.6	0.000000	0.000000	6.498969	0.067415	NaN	0.000000	0.001555	0.001716	28.0826	0.099797	0.001943	51.3544	-28.2753	-167.061	0.098443	0.497468	-0.562267	-0.563595	0.067415	51.3544	-0.563252	-2.590303E+7	-2.602605E-9	NaN
520	1.000000	0.506765	7.37014e+06	-51089.1	1005.82	-29753.6	0.000000	0.000000	6.506938	0.082551	NaN	0.000000	0.001585	0.001699	28.0825	0.091187	0.002037	44.7593	142.322	-162.487	0.039105	0.505475	-0.554299	-0.555589	0.082551	44.7593	-0.555682	-2.035291E+7	-4.056003E-9	NaN
520	1.000000	0.514775	7.37014e+06	-51089.1	1005.82	-29753.6	0.000000	0.000000	6.514947	0.057309	NaN	0.000000	0.001610	0.001701	28.0831	0.060207	0.001932	31.1694	-45.9283	-164.366	0.113371	0.513486	-0.546289	-0.547577	0.057309	31.1694	-0.547668	-1.576350E+7	-3.635541E-9	NaN
520	1.000000	0.522777	7.37014e+06	-51089.1	1005.82	-29753.6	0.000000	0.000000	6.522949	0.068428	NaN	0.000000	0.001619	0.001706	28.0826	0.071631	0.001986	36.0634	45.7404	-163.221	0.011024	0.521425	-0.538287	-0.539639	0.068428	36.0634	-0.539710	-1.222741E+7	-5.596274E-9	NaN
520	1.000000	0.530751	7.37014e+06	-51089.1	1005.82	-29753.6	0.000000	0.000000	6.530921	0.004572	NaN	0.000000	0.001569	0.001662	28.0829	0.070422	0.002149	32.7695	57.8334	-164.106	0.023239	0.529522	-0.530313	-0.531542	0.004572	32.7695	-0.530418	-9.08606e+06	-5.031649E-10	NaN
520	1.000000	0.538768	7.37014e+06	-51089.1	1005.82	-29753.6	0.000000	0.000000	6.538940	0.046190	NaN	0.000000	0.001584	0.001688	28.0827	0.089799	0.002016	44.5412	43.0853	-164.915	0.103953	0.537525	-0.522295	-0.523539	0.046190	44.5412	-0.523073	-7.18339e+06	-6.430144E-9	NaN
520	1.000000	0.546778	7.37014e+06	-51089.1	1005.82	-29753.5	0.000000	0.000000	6.546950	0.041110	NaN	0.000000	0.001596	0.001702	28.0827	0.034986	0.001837	19.0414	-63.6471	-165.378	0.078648	0.545524	-0.514286	-0.515540	0.041110	19.0414	-0.515905	-5.70986e+06	-7.199772E-9	NaN
520	1.000000	0.554770	7.37014e+06	-51089.1	1005.82	-29753.6	0.000000	0.000000	6.554941	0.025536	NaN	0.000000	0.001631	0.001666	28.0828	0.119247	0.001984	60.0896	-146.983	-165.335	0.115354	0.553467	-0.506293	-0.507597	0.025536	60.0896	-0.506612	-4.23852e+06	-6.024752E-9	NaN
520	1.000000	0.562799	7.37014e+06	-51089.1	1005.82	-29753.5	0.000000	0.000000	6.562971	0.065658	NaN	0.000000	0.001612	0.001683	28.0827	0.104042	0.002062	50.4546	55.9967	-169.391	0.034310	0.561535	-0.498265	-0.499529	0.065658	50.4546	-0.499241	-3.34522e+06	-1.962739E-8	NaN
520	1.000000	0.570810	7.37014e+06	-51089.1	1005.82	-29753.6	0.000000	0.000000	6.570983	0.075363	NaN	0.000000	0.001592	0.001688	28.0827	0.072024	0.002027	35.528	72.9091	-162.278	0.080595	0.569475	-0.490253	-0.491589	0.075363	35.528	-0.491844	-2.63731e+06	-2.857588E-8	NaN
520	1.000000	0.578803	7.37014e+06	-51089.1	1005.82	-29753.6	0.000000	0.000000	6.578974	0.036858	NaN	0.000000	0.001574	0.001676	28.0826	0.068536	0.002102	32.603	-151.163	-166.305	-0.009457	0.577450	-0.482261	-0.483614	0.036858	32.603	-0.483109	-1.99086e+06	-1.851383E-8	NaN
520	1.000000	0.586804	7.37014e+06	-51089.1	1005.82	-29753.6	0.000000	0.000000	6.586976	0.050210	NaN	0.000000	0.001607	0.001676	28.083	0.143292	0.001941	73.8196	-132.603	-163.684	0.038544	0.585410	-0.474259	-0.475654	0.050210	73.8196	-0.474770	-1.5215e+06	-3.300005E-8	NaN
520	1.000000	0.594819	7.37014e+06	-51089.1	1005.82	-29753.6	0.000000	0.000000	6.594992	0.070335	NaN	0.000000	0.001586	0.001669	28.0827	0.108462	0.001981	54.7538	-0.974896	-161.227	0.068708	0.593510	-0.466245	-0.467554	0.070335	54.7538	-0.467208	-1.1919e+06	-5.901067E-8	NaN
520	1.000000	0.602818	7.37014e+06	-51089.1	1005.82	-29753.6	0.000000	0.000000	6.602988	-0.005538	NaN	0.000000	0.001619	0.001693	28.0825	0.044462	0.002028	21.9242	-113.018	-164.643	0.025675	0.601466	-0.458245	-0.459598	-0.005538	21.9242	-0.458056	-886530	6.247166E-9	NaN
520	1.000000	0.610818	7.37014e+06	-51089.1	1005.82	-29753.6	0.000000	0.000000	6.610991	0.083414	NaN	0.000000	0.001629	0.001684	28.0824	0.061057	0.001932	31.6094	174.522	-167.926	0.074917	0.609521	-0.450246	-0.451543	0.083414	31.6094	-0.452225	-733953	-1.136499E-7	NaN
520	1.000000	0.618811	7.37014e+06	-51089.1	1005.82	-29753.6	0.000000	0.000000	6.618981	-0.013287	NaN	0.000000	0.001625	0.001643	28.0824	0.023450	0.002008	11.6757	30.8234	-166.182	0.054693	0.617487	-0.442252	-0.443576	-0.013287	11.6757	-0.441399	-516540	2.572216E-8	NaN
520	1.000000	0.626801	7.37014e+06	-51089.1	1005.82	-29753.6	0.000000	0.000000	6.626973	0.065873	NaN	0.000000	0.001646	0.001671	28.0812	0.028864	0.001934	14.922	34.7385	-164.245	0.108012	0.625493	-0.434263	-0.435571	0.065873	14.922	-0.437574	-456156	-1.444090E-7	NaN
520	1.000000	0.634842	7.37014e+06	-51089.1	1005.82	-29753.6	0.000000	0.000000	6.635012	-0.006759	NaN	0.000000	0.001608	0.001653	28.081	0.027858	0.001847	15.0804	-116.062	-163.378	-0.027315	0.633473	-0.426221	-0.427591	-0.006759	15.0804	-0.425885	-311760	2.167968E-8	NaN
520	1.000000	0.642832	7.37014e+06	-51089.1	1005.82	-29753.6	0.000000	0.000000	6.643003	0.034376	NaN	0.000000	0.001617	0.001706	28.0813	0.067959	0.002054	33.093	-37.7933	-168.696	0.071574	0.641564	-0.418232	-0.419499	0.034376	33.093	-0.419011	-249109	-1.379973E-7	NaN
520	1.000000	0.650806	7.37014e+06	-51089.1	1005.82	-29753.6	0.000000	0.000000	6.650980	0.085109	NaN	0.000000	0.001620	0.001680	28.0812	0.033066	0.002156	15.3368	125.882	-161.432	0.126836	0.649561	-0.410257	-0.411503	0.085109	15.3368	-0.414419	-214392	-3.969783E-7	NaN
520	1.000000	0.658840	7.37014e+06	-51089.1	1005.82	-29753.5	0.000000	0.000000	6.659012	0.076217	NaN	0.000000	0.001571	0.001674	28.0812	0.030265	0.001967	15.3889	-119.732	-166.647	0.104279	0.657542	-0.402224	-0.403522	0.076217	15.3889	-0.405939	-162410	-4.692861E-7	NaN
520	1.000000	0.666841	7.37014e+06	-51089.1	1005.82	-29753.6	0.000000	0.000000	6.667013	0.043730	NaN	0.000000	0.001607	0.001699	28.0809	0.074078	0.001941	38.1632	81.1988	-162.426	-0.024395	0.665496	-0.394222	-0.395567	0.043730	38.1632	-0.395082	-113711	-3.845757E-7	NaN
520	1.000000	0.674856	7.37014e+06	-51089.1	1005.82	-29753.6	0.000000	0.000000	6.675029	0.075683	NaN	0.000000	0.001599	0.001705	28.0811	0.053788	0.002010	26.7563	127.809	-164.346	0.031158	0.673500	-0.386208	-0.387564	0.075683	26.7563	-0.388329	-91045.8	-8.312626E-7	NaN
520	1.000000	0.682856	7.37014e+06	-51089.1	1005.82	-29753.6	0.000000	0.000000	6.683027	0.041389	NaN	0.000000	0.001585	0.001676	28.0816	0.025015	0.002095	11.9418	-96.2781	-165.378	0.080083	0.681552	-0.378208	-0.379512	0.041389	11.9418	-0.380808	-71035.9	-5.826472E-7	NaN
520	1.000000	0.690818	7.37014e+06	-51089.1	1005.82	-29753.6	0.000000	0.000000	6.690988	0.018894	NaN	0.000000	0.001598	0.001685	28.0814	0.100648	0.001982	50.7784	-153.42	-161.435	-0.001327	0.689565	-0.370246	-0.371499	0.018894	50.7784	-0.370525	-50545.9	-3.737895E-7	NaN
520	1.000000	0.698863	7.37014e+06	-51089.1	1005.82	-29753.6	0.000000	0.000000	6.699031	-0.032385	NaN	0.000000	0.001613	0.001676	28.0812	0.141431	0.002019	70.0454	27.2167	-162.163	-0.021436	0.697535	-0.362201	-0.363529	-0.032385	70.0454	-0.361854	-37900.3	8.544758E-7	NaN
520	1.000000	0.706859	7.37014e+06	-51089.1	1005.82	-29753.6	0.000000	0.000000	6.707029	0.008182	NaN	0.000000	0.001620	0.001699	28.0812	0.051081	0.001940	26.3273	55.1304	-166.755	0.027870	0.705554	-0.354205	-0.355510	0.008182	26.3273	-0.354438	-29604	-2.763697E-7	NaN
520	1.000000	0.714846	7.37014e+06	-51089.1	1005.82	-29753.6	0.000000	0.000000	6.715017	0.025022	NaN	0.000000	0.001598	0.001661	28.0811	0.030603	0.001995	15.3363	-162.22	-163.38	-0.051021	0.713536	-0.346218	-0.347528	0.025022	15.3363	-0.347441	-23434.1	-1.067741E-6	NaN
520	1.000000	0.722863	7.37014e+06	-51089.1	1005.82	-29753.6	0.000000	0.000000	6.723036	0.102522	NaN	0.000000	0.001611	0.001684	28.0816	0.045744	0.001975	23.1563	-173.031	-168.318	0.099611	0.721549	-0.338201	-0.339515	0.102522	23.1563	-0.341522	-19218.9	-5.334450E-6	NaN
520	1.000000	0.730879	7.37014e+06	-51089.1	1005.82	-29753.6	0.000000	0.000000	6.731053	0.109987	NaN	0.000000	0.001600	0.001651	28.0812	0.074270	0.001953	38.0306	69.9164	-166.155	0.118042	0.729549	-0.330185	-0.331515	0.109987	38.0306	-0.332354	-14122.1	-7.788284E-6	NaN
520	1.000000	0.738852	7.37014e+06	-51089.1	1005.82	-29753.6	0.000000	0.000000	6.739025	0.079872	NaN	0.000000	0.001615	0.001672	28.0814	0.039981	0.001978	20.2102	-120.296	-166.343	0.010457	0.737568	-0.322212	-0.323496	0.079872	20.2102	-0.325176	-11084.6	-7.205653E-6	NaN
520	1.000000	0.746849	7.37014e+06	-51089.1	1005.82	-29753.6	0.000000	0.000000	6.747022	0.085125	NaN	0.000000	0.001589	0.001680	28.0812	0.004626	0.002078	2.226633	9.450425	-164.282	0.093309	0.745541	-0.314215	-0.315523	0.085125	2.226633	-0.342888	-20119.7	-4.230930E-6	NaN
520	1.000000	0.754898	7.37014e+06	-51089.1	1005.82	-29753.6	0.000000	0.000000	6.755070	0.047078	NaN	0.000000	0.001629	0.001665	28.0811	0.089463	0.002092	42.7635	-64.9165	-163.623	0.056746	0.753605	-0.306165	-0.307459	0.047078	42.7635	-0.306991	-5977.07	-7.876491E-6	NaN
520	1.000000	0.762895	7.37014e+06	-51089.1	1005.82	-29753.6	0.000000	0.000000	6.763063	-0.046174	NaN	0.000000	0.001602	0.001702	28.0825	0.047217	0.002050	23.0291	-172.142	-165.342	-0.015481	0.761623	-0.298168	-0.299441	-0.046174	23.0291	-0.296665	-4196.95	1.100171E-5	NaN
520	1.000000	0.770848	7.37014e+06	-51089.1	1005.82	-29753.6	0.000000	0.000000	6.771020	0.043872	NaN	0.000000	0.001577	0.001691	28.0824	0.045069	0.002018	22.3353	169.748	-165.852	0.021956	0.769538	-0.290216	-0.291526	0.043872	22.3353	-0.291689	-3536.64	-1.240486E-5	NaN
520	1.000000	0.778895	7.37014e+06	-51089.1	1005.82	-29753.6	0.000000	0.000000	6.779065	0.013741	NaN	0.000000	0.001591	0.001682	28.0826	0.085688	0.002141	40.0134	-72.0174	-165.099	0.002332	0.777565	-0.282169	-0.283498	0.013741	40.0134	-0.282426	-2567.68	-5.351557E-6	NaN
520	1.000000	0.786853	7.37014e+06	-51089.1	1005.82	-29753.6	0.000000	0.000000	6.787025	0.035006	NaN	0.000000	0.001614	0.001686	28.0824	0.050566	0.002130	23.7422	45.9832	-164.785	0.075204	0.785582	-0.274210	-0.275481	0.035006	23.7422	-0.275316	-2005.34	-1.745621E-5	NaN
520	1.000000	0.794904	7.37014e+06	-51089.1	1005.82	-29753.6	0.000000	0.000000	6.795078	0.107952	NaN	0.000000	0.001609	0.001689	28.0826	0.049040	0.001971	24.8837	70.0168	-164.682	0.027823	0.793645	-0.266160	-0.267419	0.107952	24.8837	-0.269413	-1631.64	-6.616188E-5	NaN
520	1.000000	0.802865	7.37014e+06	-51089.1	1005.82	-29753.6	0.000000	0.000000	6.803039	0.102476	NaN	0.000000	0.001601	0.001681	28.0823	0.042910	0.001976	21.7176	92.2888	-164.284	0.126801	0.801605	-0.258199	-0.259459	0.102476	21.7176	-0.261738	-1246.05	-8.224094E-5	NaN
520	1.000000	0.810888	7.37014e+06	-51089.1	1005.82	-29753.6	0.000000	0.000000	6.811060	0.072582	NaN	0.000000	0.001604	0.001697	28.0823	0.046896	0.001921	24.408	-120.247	-166.91	0.087979	0.809611	-0.250176	-0.251453	0.072582	24.408	-0.252406	-895.656	-8.103825E-5	NaN
520	1.000000	0.818894	7.37014e+06	-51089.1	1005.82	-29753.6	0.000000	0.000000	6.819065	0.020874	NaN	0.000000	0.001599	0.001695	28.0827	0.045156	0.001947	23.1967	-132.861	-163.787	0.018629	0.817614	-0.242170	-0.243450	0.020874	23.1967	-0.242845	-636.68	-3.278651E-5	NaN
520	1.000000	0.826888	7.37014e+06	-51089.1	1005.82	-29753.6	0.000000	0.000000	6.827060	0.054527	NaN	0.000000	0.001529	0.001703	28.0826	0.061568	0.002074	29.6868	-178.7	-164.549	0.025645	0.825522	-0.234176	-0.235541	0.054527	29.6868	-0.235553	-489.701	-0.000111	NaN
520	1.000000	0.834877	7.37014e+06	-51089.1	1005.82	-29753.6	0.000000	0.000000	6.835047	0.015086	NaN	0.000000	0.001553	0.001667	28.0828	0.038042	0.002096	18.1498	127.273	-163.265	0.027090	0.833587	-0.226187	-0.227477	0.015086	18.1498	-0.226810	-356.5	-4.231795E-5	NaN
520	1.000000	0.842921	7.37014e+06	-51089.1	1005.82	-29753.6	0.000000	0.000000	6.843092	0.029750	NaN	0.000000	0.001552	0.001697	28.0826	0.185289	0.002131	86.9345	-148.358	-163.251	0.069642	0.841633	-0.218143	-0.219430	0.029750	86.9345	-0.218400	-261.865	-0.000114	NaN
520	1.000000	0.850906	7.37014e+06	-51089.1	1005.82	-29753.6	0.000000	0.000000	6.851076	0.005762	NaN	0.000000	0.001551	0.001745	28.0826	0.071977	0.002051	35.096	-34.9256	-163.778	-0.011406	0.849631	-0.210158	-0.211432	0.005762	35.096	-0.210281	-193.806	-2.972983E-5	NaN
520	1.000000	0.858940	7.37014e+06	-51089.1	1005.82	-29753.6	0.000000	0.000000	6.859109	-0.015829	NaN	0.000000	0.001570	0.001738	28.0826	0.079738	0.001974	40.3887	-54.8725	-165.522	0.027435	0.857633	-0.202124	-0.203431	-0.015829	40.3887	-0.201830	-141.165	0.000112	NaN
520	1.000000	0.866912	7.37014e+06	-51089.1	1005.82	-29753.6	0.000000	0.000000	6.867084	0.061980	NaN	0.000000	0.001570	0.001694	28.0827	0.050541	0.001952	25.8871	29.1257	-165.202	0.039572	0.865608	-0.194152	-0.195456	0.061980	25.8871	-0.195948	-112.95	-0.000549	NaN
520	1.000000	0.874924	7.37014e+06	-51089.1	1005.82	-29753.6	0.000000	0.000000	6.875095	0.031609	NaN	0.000000	0.001542	0.001709	28.0828	0.058845	0.002097	28.0582	-81.5335	-163.477	0.121811	0.873594	-0.186140	-0.187470	0.031609	28.0582	-0.186985	-80.0808	-0.000395	NaN
520	1.000000	0.882879	7.37014e+06	-51089.1	1005.82	-29753.6	0.000000	0.000000	6.883052	0.061807	NaN	0.000000	0.001590	0.001707	28.0825	0.070296	0.002033	34.5785	-8.183257	-168.187	0.008484	0.881585	-0.178184	-0.179478	0.061807	34.5785	-0.179525	-59.8938	-0.001032	NaN
520	1.000000	0.890922	7.37014e+06	-51089.1	1005.82	-29753.6	0.000000	0.000000	6.891095	0.074221	NaN	0.000000	0.001583	0.001744	28.0826	0.042753	0.002048	20.8722	-155.145	-166.088	0.086711	0.889673	-0.170141	-0.171391	0.074221	20.8722	-0.172808	-45.9446	-0.001615	NaN
520	1.000000	0.898926	7.37014e+06	-51089.1	1005.82	-29753.6	0.000000	0.000000	6.899099	0.091090	NaN	0.000000	0.001569	0.001743	28.0812	0.055900	0.002005	27.8845	-97.1026	-165.012	0.015373	0.897620	-0.162138	-0.163443	0.091090	27.8845	-0.164588	-33.0418	-0.002757	NaN
520	1.000000	0.906942	7.37014e+06	-51089.1	1005.82	-29753.6	0.000000	0.000000	6.907115	0.082191	NaN	0.000000	0.001570	0.001698	28.0813	0.086111	0.002072	41.567	166.126	-166.315	0.109886	0.905664	-0.154122	-0.155400	0.082191	41.567	-0.155605	-22.8802	-0.003592	NaN
520	1.000000	0.914920	7.37014e+06	-51089.1	1005.82	-29753.6	0.000000	0.000000	6.915089	-0.015569	NaN	0.000000	0.001638	0.001702	28.0815	0.028536	0.001908	14.9552	8.906959	-163.634	-0.032122	0.913608	-0.146144	-0.147456	-0.015569	14.9552	-0.145363	-14.8897	0.001046	NaN
520	1.000000	0.922931	7.37014e+06	-51089.1	1005.82	-29753.5	0.000000	0.000000	6.923104	0.075482	NaN	0.000000	0.001640	0.001721	28.0812	0.049807	0.002023	24.6153	-126.119	-166.28	0.118388	0.921667	-0.138133	-0.139397	0.075482	24.6153	-0.140432	-12.0527	-0.006263	NaN
520	1.000000	0.930939	7.37014e+06	-51089.1	1005.82	-29753.6	0.000000	0.000000	6.931112	0.071683	NaN	0.000000	0.001592	0.001724	28.0814	0.035238	0.001999	17.627	147.512	-166.961	0.098254	0.929617	-0.130125	-0.131447	0.071683	17.627	-0.133175	-8.776839	-0.008167	NaN
520	1.000000	0.938931	7.37014e+06	-51089.1	1005.82	-29753.6	0.000000	0.000000	6.939101	0.027666	NaN	0.000000	0.001599	0.001713	28.0813	0.091072	0.001818	50.1007	85.604	-165.546	0.007126	0.937658	-0.122133	-0.123406	0.027666	50.1007	-0.122547	-5.435413	-0.005090	NaN
520	1.000000	0.946980	7.37014e+06	-51089.1	1005.82	-29753.6	0.000000	0.000000	6.947150	0.007749	NaN	0.000000	0.001633	0.001674	28.0816	0.021007	0.002086	10.0725	172.497	-161.843	0.031126	0.945597	-0.114083	-0.115467	0.007749	10.0725	-0.114660	-3.759245	-0.002061	NaN
520	1.000000	0.954930	7.37014e+06	-51089.1	1005.82	-29753.6	0.000000	0.000000	6.955103	0.079395	NaN	0.000000	0.001607	0.001693	28.0815	0.059740	0.001932	30.9246	48.8103	-164.638	0.047586	0.953665	-0.106134	-0.107399	0.079395	30.9246	-0.108059	-2.733773	-0.029042	NaN
520	1.000000	0.962937	7.37014e+06	-51089.1	1005.82	-29753.6	0.000000	0.000000	6.963105	-0.028172	NaN	0.000000	0.001618	0.001691	28.0816	0.031354	0.001997	15.7022	11.2156	-166.57	0.028745	0.961669	-0.098127	-0.099395	-0.028172	15.7022	-0.096781	-1.548108	0.018197	NaN
520	1.000000	0.970976	7.37014e+06	-51089.1	1005.82	-29753.5	0.000000	0.000000	6.971147	0.041961	NaN	0.000000	0.001574	0.001735	28.0814	0.100788	0.002096	48.0863	73.3119	-163.232	0.034968	0.969582	-0.090088	-0.091482	0.041961	48.0863	-0.090742	-1.125122	-0.037295	NaN
520	1.000000	0.978965	7.37014e+06	-51089.1	1005.82	-29753.6	0.000000	0.000000	6.979138	0.081344	NaN	0.000000	0.001617	0.001692	28.0811	0.123467	0.002005	61.5917	-13.6971	-164.824	0.021092	0.977663	-0.082099	-0.083401	0.081344	61.5917	-0.083089	-0.738163	-0.110197	NaN
520	1.000000	0.986983	7.37014e+06	-51089.1	1005.82	-29753.6	0.000000	0.000000	6.987156	0.076838	NaN	0.000000	0.001604	0.001719	28.0812	0.067231	0.002017	33.3247	122.522	-162.481	0.122497	0.985656	-0.074081	-0.075408	0.076838	33.3247	-0.075810	-0.484639	-0.158546	NaN
520	1.000000	0.994980	7.37014e+06	-51089.1	1005.82	-29753.6	0.000000	0.000000	6.995153	0.074005	NaN	0.000000	0.001565	0.001709	28.0813	0.021437	0.001971	10.8768	-172.384	-162.692	0.053208	0.993640	-0.066084	-0.067423	0.074005	10.8768	-0.071187	-0.366898	-0.201703	NaN
520	1.000000	1.002955	7.37014e+06	-51089.1	1005.82	-29753.6	0.000000	0.000000	7.003126	0.032580	NaN	0.000000	0.001583	0.001729	28.0817	0.117193	0.002123	55.2014	178.407	-165.151	0.062924	1.001670	-0.058108	-0.059394	0.032580	55.2014	-0.058551	-0.163585	-0.199162	NaN
520	1.000000	1.010941	7.37014e+06	-51089.1	1005.82	-29753.6	0.000000	0.000000	7.011116	0.126563	NaN	0.000000	0.001609	0.001714	28.0818	0.057151	0.002007	28.4698	157.437	-167.268	0.027741	1.009671	-0.050123	-0.051393	0.126563	28.4698	-0.053457	-0.115891	-1.092087	NaN
520	1.000000	1.018975	7.37014e+06	-51089.1	1005.82	-29753.6	0.000000	0.000000	7.019145	0.001132	NaN	0.000000	0.001591	0.001715	28.0813	0.028289	0.001996	14.1736	5.827162	-163.902	0.074011	1.017647	-0.042089	-0.043416	0.001132	14.1736	-0.042149	-0.052579	-0.021536	NaN
520	1.000000	1.026981	7.37014e+06	-51089.1	1005.82	-29753.6	0.000000	0.000000	7.027149	-0.035061	NaN	0.000000	0.001598	0.001732	28.0812	0.104593	0.002089	50.0702	-31.0775	-165.503	0.032717	1.025708	-0.034083	-0.035356	-0.035061	50.0702	-0.033558	-0.029060	1.206514	NaN
520	1.000000	1.034994	7.37014e+06	-51089.1	1005.82	-29753.6	0.000000	0.000000	7.035164	0.014378	NaN	0.000000	0.001592	0.001702	28.0825	0.066475	0.002097	31.7047	-130.932	-164.764	0.010356	1.033664	-0.026070	-0.027400	0.014378	31.7047	-0.026410	-0.018377	-0.782422	NaN
520	1.000000	1.042966	7.37014e+06	-51089.1	1005.82	-29753.6	0.000000	0.000000	7.043139	0.080951	NaN	0.000000	0.001649	0.001748	28.0823	0.101407	0.002035	49.826	152.108	-165.31	0.072315	1.041627	-0.018097	-0.019437	0.080951	49.826	-0.019316	-0.012067	-6.708620	NaN
520	1.000000	1.051003	7.37014e+06	-51089.1	1005.82	-29753.6	0.000000	0.000000	7.051173	-0.002621	NaN	0.000000	0.001610	0.001720	28.0825	0.043993	0.001998	22.0203	178.157	-163.634	0.030928	1.049724	-0.010060	-0.011340	-0.002621	22.0203	-0.009971	-0.006371	0.411437	NaN
520	1.000000	1.058960	7.37014e+06	-51089.1	1005.82	-29753.6	0.000000	0.000000	7.059152	0.546437	NaN	0.000000	0.001619	0.001739	28.0825	0.738349	0.001959	376.939	6.382650	-165.884	0.135081	1.057665	-0.002104	-0.003398	0.546437	376.939	-0.003191	-0.002248	-243.083	NaN
520	2.000000	1.066384	7.37014e+06	-51089.1	1005.82	-29753.6	0.000000	0.000000	7.066928	9.110151	NaN	0.000000	0.001595	0.001729	28.0823	8.343114	0.001644	5074.06	8.894545	-169.726	9.465675	1.065605	0.005320	0.004541	9.110151	5074.06	0.003973	0.003216	2833.03	81750.8
520	2.000000	1.068451	7.37014e+06	-51089.1	1005.82	-29753.6	0.000000	0.000000	7.069124	12.2432	NaN	0.000000	0.001585	0.001718	28.0825	10.346	0.001707	6059.85	6.852571	-171.777	11.6283	1.068184	0.007387	0.007120	12.2432	6059.85	0.005872	0.004943	2476.7	78745.4
520	2.000000	1.070439	7.37014e+06	-51089.1	1005.82	-29753.6	0.000000	0.000000	7.071208	14.5688	NaN	0.000000	0.001589	0.001711	28.0823	12.7474	0.001771	7196.4	4.114533	-171.953	13.6087	1.070106	0.009375	0.009042	14.5688	7196.4	0.007857	0.006896	2112.69	79176.4
520	2.000000	1.072453	7.37014e+06	-51089.1	1005.82	-29753.6	0.000000	0.000000	7.073319	16.953	NaN	0.000000	0.001621	0.001727	28.0823	13.7748	0.001598	8617.74	2.718960	-172.862	15.9927	1.072088	0.011389	0.011024	16.953	8617.74	0.009913	0.009085	1865.97	82603
520	2.000000	1.074383	7.37014e+06	-51089.1	1005.82	-29753.6	0.000000	0.000000	7.075411	20.8767	NaN	0.000000	0.001624	0.001740	28.0824	16.621	0.001751	9493.9	5.664998	-173.942	19.6867	1.074077	0.013319	0.013013	20.8767	9493.9	0.011670	0.011097	1881.28	82340.8
520	2.000000	1.076453	7.37014e+06	-51089.1	1005.82	-29753.6	0.000000	0.000000	7.077651	24.9892	NaN	0.000000	0.001665	0.001705	28.0825	18.9333	0.001796	10539.3	5.975160	-174.238	24.9461	1.076104	0.015390	0.015040	24.9892	10539.3	0.013611	0.013478	1854.09	82941.7
520	2.000000	1.078364	7.37014e+06	-51089.1	1005.82	-29753.6	0.000000	0.000000	7.079766	29.9623	NaN	0.000000	0.001644	0.001696	28.0835	20.4175	0.001786	11434.6	6.217673	-175.746	27.9788	1.078046	0.017300	0.016982	29.9623	11434.6	0.015335	0.015735	1904.18	83283.4
520	2.000000	1.080393	7.37014e+06	-51089.1	1005.82	-29753.6	0.000000	0.000000	7.081838	31.0264	NaN	0.000000	0.001654	0.001715	28.0824	23.8928	0.001992	11995.3	8.858861	-178.498	29.6735	1.080114	0.019329	0.019051	31.0264	11995.3	0.017389	0.018604	1667.7	80348.6
520	2.000000	1.082387	7.37014e+06	-51089.1	1005.82	-29753.6	0.000000	0.000000	7.084032	35.8874	NaN	0.000000	0.001636	0.001738	28.0828	24.3078	0.001632	14893.2	4.484927	-178.425	34.2537	1.082064	0.021323	0.021000	35.8874	14893.2	0.019516	0.021787	1647.18	92185.1
520	2.000000	1.084385	7.37014e+06	-51089.1	1005.82	-29753.5	0.000000	0.000000	7.086212	40.2936	NaN	0.000000	0.001639	0.001715	28.0825	27.0399	0.001752	15431.6	5.831489	-179.286	39.5157	1.084103	0.023321	0.023039	40.2936	15431.6	0.021363	0.024729	1629.38	89655.7
520	2.000000	1.086422	7.37014e+06	-51089.1	1005.82	-29753.6	0.000000	0.000000	7.088491	46.1695	NaN	0.000000	0.001630	0.001772	28.0826	28.7778	0.001797	16010.3	5.361759	-178.157	45.9273	1.086086	0.025358	0.025022	46.1695	16010.3	0.023196	0.027815	1659.9	87707.6
520	2.000000	1.088375	7.37014e+06	-51089.1	1005.82	-29753.6	0.000000	0.000000	7.090596	49.8666	NaN	0.000000	0.001642	0.001755	28.0827	29.9946	0.001657	18100.2	4.294783	-178.994	48.9713	1.088102	0.027311	0.027038	49.8666	18100.2	0.025245	0.031463	1584.93	93230.1
520	2.000000	1.090396	7.37014e+06	-51089.1	1005.82	-29753.6	0.000000	0.000000	7.092798	54.2896	NaN	0.000000	0.001653	0.001729	28.0827	32.2504	0.001793	17985.1	1.772824	-175.117	55.712	1.090075	0.029332	0.029011	54.2896	17985.1	0.027068	0.034886	1556.21	87975.6
520	2.000000	1.092371	7.37014e+06	-51089.1	1005.82	-29753.6	0.000000	0.000000	7.095003	59.894	NaN	0.000000	0.001606	0.001758	28.0818	33.0478	0.001771	18662.4	5.779828	-179.002	60.3472	1.092040	0.031307	0.030976	59.894	18662.4	0.028900	0.038494	1555.91	86904.3
520	2.000000	1.094335	7.37014e+06	-51089.1	1005.82	-29753.6	0.000000	0.000000	7.097206	65.6772	NaN	0.000000	0.001672	0.001748	28.0813	35.9791	0.001813	19842.8	3.273392	-178.154	62.6892	1.093971	0.033272	0.032907	65.6772	19842.8	0.030789	0.042395	1549.17	88047.5
520	2.000000	1.096390	7.37014e+06	-51089.1	1005.82	-29753.6	0.000000	0.000000	7.099523	72.0655	NaN	0.000000	0.001619	0.001735	28.0816	37.7876	0.001855	20372.1	3.951843	-179.266	70.0791	1.095964	0.035326	0.034900	72.0655	20372.1	0.032673	0.046466	1550.94	86346.3
520	2.000000	1.098395	7.37014e+06	-51089.1	1005.82	-29753.6	0.000000	0.000000	7.101739	77.2004	NaN	0.000000	0.001620	0.001755	28.0813	39.6256	0.001792	22115.8	4.487397	178.301	76.4633	1.098021	0.037331	0.036957	77.2004	22115.8	0.034713	0.051079	1511.38	89403.1
520	2.000000	1.100346	7.37014e+06	-51089.1	1005.82	-29753.6	0.000000	0.000000	7.103981	84.2673	NaN	0.000000	0.001652	0.001726	28.0813	41.4769	0.001769	23447.1	1.558634	-178.533	81.9596	1.100084	0.039282	0.039020	84.2673	23447.1	0.036587	0.055505	1518.2	90928.2
520	2.000000	1.102341	7.37014e+06	-51089.1	1005.82	-29753.6	0.000000	0.000000	7.106211	89.9875	NaN	0.000000	0.001552	0.001727	28.0819	43.1578	0.001782	24213.1	7.124299	175.588	90.2137	1.102114	0.041277	0.041051	89.9875	24213.1	0.038490	0.060184	1495.21	90174.6
520	2.000000	1.104301	7.37014e+06	-51089.1	1005.82	-29753.6	0.000000	0.000000	7.108670	102.116	NaN	0.000000	0.001570	0.001683	28.0814	44.677	0.001832	24393.7	3.317141	-179.971	98.9022	1.103945	0.043237	0.042881	102.116	24393.7	0.040097	0.064280	1588.62	87904.9
520	2.000000	1.106331	7.37014e+06	-51089.1	1005.82	-29753.6	0.000000	0.000000	7.110913	107.292	NaN	0.000000	0.001569	0.001704	28.0814	46.9778	0.001739	27010	7.879814	175.553	107.054	1.106029	0.045267	0.044965	107.292	27010	0.042288	0.070074	1531.12	93221.8
520	2.000000	1.108364	7.37014e+06	-51089.1	1005.82	-29753.6	0.000000	0.000000	7.113197	113.388	NaN	0.000000	0.001591	0.001701	28.0811	48.2528	0.001756	27478.5	5.744234	175.949	113.047	1.108016	0.047301	0.046952	113.388	27478.5	0.044206	0.075349	1504.85	91459.6
520	2.000000	1.110362	7.37014e+06	-51089.1	1005.82	-29753.6	0.000000	0.000000	7.115560	122.267	NaN	0.000000	0.001580	0.001720	28.0811	50.0518	0.001744	28691.2	1.567138	179.54	120.56	1.110044	0.049298	0.048980	122.267	28691.2	0.046102	0.080747	1514.19	92248.1
520	2.000000	1.112346	7.37014e+06	-51089.1	1005.82	-29753.6	0.000000	0.000000	7.117837	129.403	NaN	0.000000	0.001569	0.001741	28.0813	51.4644	0.001710	30100.3	4.215361	176.887	128.962	1.112032	0.051282	0.050969	129.403	30100.3	0.048058	0.086504	1495.92	93503.3
520	2.000000	1.114285	7.37014e+06	-51089.1	1005.82	-29753.6	0.000000	0.000000	7.120152	138.541	NaN	0.000000	0.001606	0.001729	28.0811	54.0654	0.001743	31015.3	6.107102	174.3	135.57	1.114026	0.053221	0.052962	138.541	31015.3	0.049871	0.092014	1505.65	93416.2
520	2.000000	1.116301	7.37014e+06	-51089.1	1005.82	-29753.6	0.000000	0.000000	7.122618	149.473	NaN	0.000000	0.001617	0.001727	28.0816	55.661	0.001758	31658.1	4.594582	176.967	145.783	1.115952	0.055238	0.054888	149.473	31658.1	0.051696	0.097729	1529.46	92522.3
520	2.000000	1.118359	7.37014e+06	-51089.1	1005.82	-29753.6	0.000000	0.000000	7.124869	154.175	NaN	0.000000	0.001646	0.001741	28.0812	57.3587	0.001859	30855.9	4.048264	176.883	154.591	1.118081	0.057295	0.057017	154.175	30855.9	0.053548	0.103694	1486.83	87545.6
520	2.000000	1.120370	7.37014e+06	-51089.1	1005.82	-29753.6	0.000000	0.000000	7.127358	165.803	NaN	0.000000	0.001614	0.001766	28.0836	59.5111	0.001778	33476	5.232278	174.529	166.705	1.120073	0.059306	0.059009	165.803	33476	0.055592	0.110477	1500.79	92017.7
520	2.000000	1.122338	7.37014e+06	-51089.1	1005.82	-29753.6	0.000000	0.000000	7.129745	175.999	NaN	0.000000	0.001614	0.001751	28.0849	60.2219	0.001810	33268.3	5.427979	174.936	175.314	1.121992	0.061274	0.060929	175.999	33268.3	0.057306	0.116327	1512.97	89117.6
520	2.000000	1.124341	7.37014e+06	-51089.1	1005.82	-29753.6	0.000000	0.000000	7.132100	184.543	NaN	0.000000	0.001593	0.001715	28.0817	62.4839	0.001741	35893.8	1.384525	178.046	183.394	1.124057	0.063277	0.062993	184.543	35893.8	0.059421	0.123740	1491.37	93226
520	2.000000	1.126377	7.37014e+06	-51089.1	1005.82	-29753.6	0.000000	0.000000	7.134740	199.228	NaN	0.000000	0.001576	0.001744	28.0832	66.1111	0.001909	34637.5	11.1515	170.574	199.918	1.125912	0.065313	0.064848	199.228	34637.5	0.060999	0.129417	1539.43	87967.9
520	2.000000	1.128315	7.37014e+06	-51089.1	1005.82	-29753.6	0.000000	0.000000	7.137092	209.307	NaN	0.000000	0.001569	0.001749	28.0826	67.0734	0.001810	37059.1	6.810507	172.244	207.673	1.127957	0.067251	0.066893	209.307	37059.1	0.063015	0.136841	1529.56	91529.2
520	2.000000	1.130288	7.37014e+06	-51089.1	1005.82	-29753.6	0.000000	0.000000	7.139510	220.133	NaN	0.000000	0.001576	0.001717	28.0826	70.0438	0.001796	39003.5	8.494949	170.837	216.137	1.129954	0.069224	0.068890	220.133	39003.5	0.064991	0.144313	1525.39	93804.7
520	2.000000	1.132260	7.37014e+06	-51089.1	1005.82	-29753.6	0.000000	0.000000	7.142047	233.855	NaN	0.000000	0.001584	0.001751	28.0827	70.7898	0.001831	38661.1	4.866250	174.247	231.058	1.131961	0.071196	0.070897	233.855	38661.1	0.066659	0.150765	1551.13	90969.7
520	2.000000	1.134297	7.37014e+06	-51089.1	1005.82	-29753.6	0.000000	0.000000	7.144486	243.649	NaN	0.000000	0.001613	0.001750	28.0823	72.4989	0.001824	39756.1	4.323526	174.805	240.616	1.133916	0.073233	0.072853	243.649	39756.1	0.068636	0.158585	1536.39	91210.6
520	2.000000	1.136339	7.37014e+06	-51089.1	1005.82	-29753.6	0.000000	0.000000	7.147142	258.563	NaN	0.000000	0.001589	0.001763	28.0827	74.222	0.001822	40747.8	5.967417	173.691	257.872	1.135931	0.075275	0.074867	258.563	40747.8	0.070516	0.166194	1555.79	91320.7
520	2.000000	1.138244	7.37014e+06	-51089.1	1005.82	-29753.6	0.000000	0.000000	7.149268	263.939	NaN	0.000000	0.001614	0.001732	28.0825	74.3472	0.001708	43522	-0.898096	178.528	259.314	1.138051	0.077181	0.076987	263.939	43522	0.072632	0.174960	1508.56	95063.1
520	2.000000	1.140359	7.37014e+06	-51089.1	1005.82	-29753.6	0.000000	0.000000	7.152058	280.343	NaN	0.000000	0.001585	0.001731	28.0829	78.1376	0.001618	48299.6	6.051584	171.478	281.646	1.139988	0.079295	0.078925	280.343	48299.6	0.074942	0.184772	1517.24	102659
520	2.000000	1.142325	7.37014e+06	-51089.1	1005.82	-29753.6	0.000000	0.000000	7.154533	292.743	NaN	0.000000	0.001550	0.001774	28.0825	79.1139	0.001851	42752.4	3.457648	175.203	291.602	1.142026	0.081261	0.080962	292.743	42752.4	0.076125	0.189894	1541.61	89635
520	2.000000	1.144285	7.37014e+06	-51089.1	1005.82	-29753.6	0.000000	0.000000	7.157016	305.439	NaN	0.000000	0.001633	0.001719	28.0822	82.4616	0.001855	44451.2	6.239619	172.202	302.802	1.143912	0.083221	0.082848	305.439	44451.2	0.078068	0.198447	1539.15	91166.4
520	2.000000	1.146272	7.37014e+06	-51089.1	1005.82	-29753.6	0.000000	0.000000	7.159544	318.622	NaN	0.000000	0.001622	0.001709	28.0827	84.4062	0.001827	46205.8	9.008948	168.499	315.505	1.145946	0.085208	0.084882	318.622	46205.8	0.080036	0.207292	1537.07	92721
520	2.000000	1.148315	7.37014e+06	-51089.1	1005.82	-29753.6	0.000000	0.000000	7.162237	334.411	NaN	0.000000	0.001624	0.001696	28.0823	84.0531	0.001701	49405	5.130661	172.093	335.133	1.148038	0.087252	0.086974	334.411	49405	0.082175	0.217110	1540.29	96873.4
520	2.000000	1.150278	7.37014e+06	-51089.1	1005.82	-29753.6	0.000000	0.000000	7.164652	345.401	NaN	0.000000	0.001604	0.001725	28.0831	86.7929	0.001841	47137.9	1.800186	175.588	345.077	1.150078	0.089214	0.089014	345.401	47137.9	0.083718	0.224326	1539.72	90929.1
520	2.000000	1.152325	7.37014e+06	-51089.1	1005.82	-29753.6	0.000000	0.000000	7.167368	361.686	NaN	0.000000	0.001623	0.001743	28.0823	87.7493	0.001791	49005.4	4.094435	173.415	362.903	1.151934	0.091261	0.090871	361.686	49005.4	0.085726	0.233875	1546.49	92581.7
520	2.000000	1.154297	7.37014e+06	-51089.1	1005.82	-29753.5	0.000000	0.000000	7.169718	370.875	NaN	0.000000	0.001645	0.001741	28.0824	89.5129	0.001718	52104.9	4.493155	172.699	369.703	1.154031	0.093233	0.092967	370.875	52104.9	0.087895	0.244404	1517.46	96293.6
520	2.000000	1.156380	7.37014e+06	-51089.1	1005.82	-29753.6	0.000000	0.000000	7.172367	384.632	NaN	0.000000	0.001615	0.001740	28.0824	93.0548	0.001901	48951.5	8.565277	169.922	386.889	1.155925	0.095316	0.094862	384.632	48951.5	0.089423	0.251951	1526.62	89100.7
520	2.000000	1.158327	7.37014e+06	-51089.1	1005.82	-29753.6	0.000000	0.000000	7.175096	403.66	NaN	0.000000	0.001587	0.001742	28.0822	96.2395	0.001953	49284.4	7.834101	169.726	403.274	1.157945	0.097263	0.096881	403.66	49284.4	0.091120	0.260458	1549.81	88229.5
520	2.000000	1.160188	7.37014e+06	-51089.1	1005.82	-29753.6	0.000000	0.000000	7.177686	421.365	NaN	0.000000	0.001603	0.001734	28.0816	95.4417	0.001756	54342.5	2.324530	174.418	415.583	1.159974	0.099124	0.098910	421.365	54342.5	0.093309	0.271625	1551.28	95263.8
520	2.000000	1.162289	7.37014e+06	-51089.1	1005.82	-29753.6	0.000000	0.000000	7.180540	439.682	NaN	0.000000	0.001677	0.001741	28.081	96.9321	0.001905	50871.5	5.170656	172.207	439.33	1.161961	0.101225	0.100897	439.682	50871.5	0.094743	0.279061	1575.58	87983
520	2.000000	1.164289	7.37014e+06	-51089.1	1005.82	-29753.6	0.000000	0.000000	7.183106	453.446	NaN	0.000000	0.001630	0.001778	28.0812	99.8159	0.001782	56002.6	7.625558	168.912	453.545	1.163950	0.103225	0.102886	453.446	56002.6	0.097152	0.291765	1554.15	94725
520	2.000000	1.164820	7.37014e+06	-51089.1	1005.82	-29753.6	0.000000	0.000000	7.183675	454.373	NaN	0.000000	0.001637	0.001747	28.0813	99.317	0.001780	55791.7	2.876246	-6.899909	452.323	1.164514	0.103756	0.103450	454.373	55791.7	0.097648	0.294409	1543.34	93943.6