File: remote_trans/data/nanoindenter/0828-1/data/Data_2025-08-06,11h17m57s/2025-07-22_16-23-58_1_1032.txt
2025-07-22, 16:23:58, 1
Index	Phase	Displacement	Time	Pos X	Pos Y	Pos Z	Rot A	Rot B	Piezo Z	Force A	Force B	Gripper	Voltage A	Voltage B	Temperature	Amplitude force	Amplitude pos	Stiffness	Phase shift	Phase excitation	Force A raw	Displacement raw	HMax	HMax raw	Real Force	Real Stiffness	Contact Depth	Area	Hardness	Reduced Mod.
[#]	[#]	[um]	[s]	[um]	[um]	[um]	[m°]	[m°]	[um]	[uN]	[uN]	[V]	[V]	[V]	[°C]	[uN]	[um]	[N/m]	[°]	[°]	[uN]	[um]	[um]	[um]	[uN]	[N/m]	[um]	[um^2]	[MPa]	[MPa]
1032	1.000000	0.002716	7.37514e+06	-51739.1	1055.82	-29751.2	0.000000	0.000000	6.002818	-0.025705	NaN	0.000000	0.001591	0.001669	28.0829	0.040931	0.000917	44.6234	-58.0835	-171.104	-0.026932	0.001418	-1.117700	-1.118997	-0.025705	44.6234	-1.117267	-8.546916E+14	3.007508E-17	NaN
1032	1.000000	0.012767	7.37514e+06	-51739.1	1055.82	-29751.2	0.000000	0.000000	6.012871	0.026658	NaN	0.000000	0.001560	0.001652	28.0826	0.019887	0.001409	14.1132	20.9061	16.03	-0.046728	0.011313	-1.107648	-1.109102	0.026658	14.1132	-1.109065	-6.633480E+14	-4.018665E-17	NaN
1032	1.000000	0.022648	7.37514e+06	-51739.1	1055.82	-29751.2	0.000000	0.000000	6.022747	-0.080318	NaN	0.000000	0.001585	0.001658	28.0825	0.022156	0.001839	12.0506	138.146	-163.639	-0.052639	0.021336	-1.097767	-1.099080	-0.080318	12.0506	-1.092769	-4.008529E+14	2.003681E-16	NaN
1032	1.000000	0.032644	7.37514e+06	-51739.1	1055.82	-29751.2	0.000000	0.000000	6.032745	-0.040057	NaN	0.000000	0.001557	0.001668	28.0836	0.130338	0.001845	70.6618	-98.7143	13.9006	-0.022489	0.031317	-1.087771	-1.089098	-0.040057	70.6618	-1.087346	-3.389836E+14	1.181667E-16	NaN
1032	1.000000	0.042651	7.37514e+06	-51739.1	1055.82	-29751.2	0.000000	0.000000	6.042754	0.002827	NaN	0.000000	0.001560	0.001704	28.0836	0.097717	0.002060	47.4356	-34.6144	-167.624	-0.090746	0.041343	-1.077764	-1.079073	0.002827	47.4356	-1.077809	-2.523994E+14	-1.119996E-17	NaN
1032	1.000000	0.052662	7.37514e+06	-51739.1	1055.82	-29751.2	0.000000	0.000000	6.052763	-0.043862	NaN	0.000000	0.001540	0.001716	28.0836	0.083678	0.001920	43.5913	78.1651	10.0019	-0.042552	0.051307	-1.067754	-1.069108	-0.043862	43.5913	-1.066999	-1.806634E+14	2.427816E-16	NaN
1032	1.000000	0.062652	7.37514e+06	-51739.1	1055.82	-29751.2	0.000000	0.000000	6.062755	0.004180	NaN	0.000000	0.001615	0.001699	28.0835	0.017563	0.001858	9.451799	-47.5786	-165.802	0.017903	0.061319	-1.057763	-1.059096	0.004180	9.451799	-1.058095	-1.371560E+14	-3.047681E-17	NaN
1032	1.000000	0.072646	7.37514e+06	-51739.1	1055.82	-29751.2	0.000000	0.000000	6.072751	0.051556	NaN	0.000000	0.001648	0.001675	28.0837	0.017066	0.001998	8.541819	172.071	12.4779	0.048799	0.071338	-1.047769	-1.049078	0.051556	8.541819	-1.052296	-1.146254E+14	-4.497820E-16	NaN
1032	1.000000	0.082658	7.37514e+06	-51739.1	1055.82	-29751.2	0.000000	0.000000	6.082761	0.010544	NaN	0.000000	0.001634	0.001672	28.0837	0.042311	0.001863	22.7118	-92.3452	-163.577	-0.073090	0.081424	-1.037757	-1.038991	0.010544	22.7118	-1.038106	-7.387447E+13	-1.427228E-16	NaN
1032	1.000000	0.092665	7.37514e+06	-51739.1	1055.82	-29751.2	0.000000	0.000000	6.092768	-0.000970	NaN	0.000000	0.001582	0.001676	28.0837	0.119593	0.001985	60.2541	69.2288	10.7624	0.013727	0.091293	-1.027750	-1.029122	-0.000970	60.2541	-1.027738	-5.358632E+13	1.810580E-17	NaN
1032	1.000000	0.102676	7.37514e+06	-51739.1	1055.82	-29751.2	0.000000	0.000000	6.102779	0.024819	NaN	0.000000	0.001578	0.001689	28.0838	0.114326	0.002018	56.6554	11.4414	-166.511	0.009365	0.101360	-1.017740	-1.019056	0.024819	56.6554	-1.018068	-3.971554E+13	-6.249185E-16	NaN
1032	1.000000	0.112666	7.37514e+06	-51739.1	1055.82	-29751.2	0.000000	0.000000	6.112769	0.010446	NaN	0.000000	0.001611	0.001664	28.084	0.034583	0.001912	18.0835	24.902	11.0272	-0.083196	0.111306	-1.007749	-1.009110	0.010446	18.0835	-1.008182	-2.923609E+13	-3.572850E-16	NaN
1032	1.000000	0.122664	7.37514e+06	-51739.1	1055.82	-29751.2	0.000000	0.000000	6.122768	0.033605	NaN	0.000000	0.001568	0.001702	28.084	0.034770	0.002085	16.6748	173	-168.01	0.011420	0.121308	-0.997751	-0.999107	0.033605	16.6748	-0.999263	-2.217398E+13	-1.515511E-15	NaN
1032	1.000000	0.132697	7.37514e+06	-51739.1	1055.82	-29751.2	0.000000	0.000000	6.132802	0.039644	NaN	0.000000	0.001556	0.001680	28.084	0.070921	0.001939	36.5767	-142.692	13.9233	-0.000208	0.131339	-0.987718	-0.989076	0.039644	36.5767	-0.988531	-1.589737E+13	-2.493745E-15	NaN
1032	1.000000	0.142666	7.37514e+06	-51739.1	1055.82	-29751.2	0.000000	0.000000	6.142771	0.062795	NaN	0.000000	0.001523	0.001709	28.0841	0.094134	0.002065	45.5874	-131.401	-166.408	0.063181	0.141367	-0.977750	-0.979049	0.062795	45.5874	-0.978783	-1.174929E+13	-5.344610E-15	NaN
1032	1.000000	0.152669	7.37514e+06	-51739.1	1055.82	-29751.2	0.000000	0.000000	6.152771	-0.013503	NaN	0.000000	0.001556	0.001703	28.0841	0.025734	0.001805	14.2582	75.8414	13.9658	-0.024474	0.151340	-0.967746	-0.969075	-0.013503	14.2582	-0.967036	-8.160478E+12	1.654698E-15	NaN
1032	1.000000	0.162674	7.37514e+06	-51739.1	1055.82	-29751.2	0.000000	0.000000	6.162779	0.035959	NaN	0.000000	0.001549	0.001723	28.0841	0.061884	0.002066	29.9489	-163.692	-162.739	0.035411	0.161369	-0.957741	-0.959046	0.035959	29.9489	-0.958641	-6.288576E+12	-5.718113E-15	NaN
1032	1.000000	0.172713	7.37514e+06	-51739.1	1055.82	-29751.2	0.000000	0.000000	6.172816	0.005385	NaN	0.000000	0.001559	0.001706	28.0827	0.140099	0.002129	65.7903	-35.4675	14.2363	-0.001142	0.171328	-0.947702	-0.949088	0.005385	65.7903	-0.947764	-4.486079E+12	-1.200430E-15	NaN
1032	1.000000	0.182694	7.37514e+06	-51739.1	1055.82	-29751.2	0.000000	0.000000	6.182794	-0.048344	NaN	0.000000	0.001559	0.001716	28.0831	0.081380	0.002076	39.2024	-58.9271	-167.844	0.037415	0.181396	-0.937722	-0.939020	-0.048344	39.2024	-0.936797	-3.190952E+12	1.515046E-14	NaN
1032	1.000000	0.192723	7.37514e+06	-51739.1	1055.82	-29751.2	0.000000	0.000000	6.192826	0.001056	NaN	0.000000	0.001561	0.001705	28.0825	0.079807	0.001938	41.1846	167.659	13.4767	0.069311	0.191306	-0.927692	-0.929109	0.001056	41.1846	-0.927711	-2.406068E+12	-4.387499E-16	NaN
1032	1.000000	0.202706	7.37514e+06	-51739.1	1055.82	-29751.2	0.000000	0.000000	6.202810	0.017442	NaN	0.000000	0.001546	0.001728	28.0828	0.043718	0.001951	22.4089	-102.15	-163.758	0.038523	0.201383	-0.917709	-0.919032	0.017442	22.4089	-0.918293	-1.795377E+12	-9.714750E-15	NaN
1032	1.000000	0.212677	7.37514e+06	-51739.1	1055.82	-29751.2	0.000000	0.000000	6.212778	-0.035224	NaN	0.000000	0.001535	0.001692	28.0826	0.157313	0.002042	77.0411	71.7245	16.6544	-0.053305	0.211310	-0.907739	-0.909105	-0.035224	77.0411	-0.907396	-1.279336E+12	2.753285E-14	NaN
1032	1.000000	0.222711	7.37514e+06	-51739.1	1055.82	-29751.2	0.000000	0.000000	6.222815	0.022400	NaN	0.000000	0.001557	0.001726	28.0834	0.052155	0.002041	25.5554	0.067003	-166.392	0.029226	0.221433	-0.897704	-0.898983	0.022400	25.5554	-0.898361	-9.658843E+11	-2.319162E-14	NaN
1032	1.000000	0.232724	7.37514e+06	-51739.1	1055.82	-29751.2	0.000000	0.000000	6.232825	-0.045782	NaN	0.000000	0.001565	0.001756	28.0827	0.077573	0.001870	41.4757	65.0814	10.1956	-0.099400	0.231364	-0.887692	-0.889051	-0.045782	41.4757	-0.886864	-6.753338E+11	6.779128E-14	NaN
1032	1.000000	0.242756	7.37514e+06	-51739.1	1055.82	-29751.2	0.000000	0.000000	6.242858	-0.027028	NaN	0.000000	0.001569	0.001750	28.0827	0.057718	0.002045	28.2241	-23.3878	-162.573	-0.007353	0.241432	-0.877659	-0.878983	-0.027028	28.2241	-0.876941	-4.958329E+11	5.451023E-14	NaN
1032	1.000000	0.252718	7.37514e+06	-51739.1	1055.82	-29751.2	0.000000	0.000000	6.252821	-0.011960	NaN	0.000000	0.001568	0.001702	28.0826	0.040896	0.001945	21.0302	-167.165	13.6253	0.020886	0.251348	-0.867697	-0.869068	-0.011960	21.0302	-0.867271	-3.668710E+11	3.259905E-14	NaN
1032	1.000000	0.262743	7.37514e+06	-51739.1	1055.82	-29751.2	0.000000	0.000000	6.262847	0.046047	NaN	0.000000	0.001577	0.001701	28.0828	0.041676	0.001981	21.0331	-80.7991	-165.267	0.027408	0.261434	-0.857673	-0.858981	0.046047	21.0331	-0.859315	-2.863146E+11	-1.608259E-13	NaN
1032	1.000000	0.272753	7.37514e+06	-51739.1	1055.82	-29751.2	0.000000	0.000000	6.272854	-0.031879	NaN	0.000000	0.001556	0.001738	28.0826	0.098527	0.001914	51.4784	-15.6118	12.8957	-0.095708	0.271401	-0.847662	-0.849014	-0.031879	51.4784	-0.847198	-1.962423E+11	1.624491E-13	NaN
1032	1.000000	0.282750	7.37514e+06	-51739.1	1055.82	-29751.2	0.000000	0.000000	6.282851	-0.031850	NaN	0.000000	0.001556	0.001725	28.0828	0.039279	0.002021	19.4329	-146.463	-164.626	-0.067719	0.281460	-0.837666	-0.838955	-0.031850	19.4329	-0.836436	-1.402848E+11	2.270381E-13	NaN
1032	1.000000	0.292755	7.37514e+06	-51739.1	1055.82	-29751.2	0.000000	0.000000	6.292858	-0.010676	NaN	0.000000	0.001559	0.001720	28.0829	0.035913	0.001979	18.1429	68.6561	16.3383	-0.046985	0.291397	-0.827660	-0.829018	-0.010676	18.1429	-0.827219	-1.052168E+11	1.014647E-13	NaN
1032	1.000000	0.302760	7.37514e+06	-51739.1	1055.82	-29751.2	0.000000	0.000000	6.302862	-0.020002	NaN	0.000000	0.001580	0.001727	28.0836	0.067377	0.002130	31.6298	-174.576	-168.763	-0.102644	0.301427	-0.817656	-0.818989	-0.020002	31.6298	-0.817181	-7.691061E+10	2.600674E-13	NaN
1032	1.000000	0.312754	7.37514e+06	-51739.1	1055.82	-29751.2	0.000000	0.000000	6.312855	-0.045484	NaN	0.000000	0.001585	0.001735	28.084	0.155001	0.001980	78.276	89.3371	10.0133	-0.030179	0.311369	-0.807661	-0.809047	-0.045484	78.276	-0.807225	-5.635395E+10	8.071129E-13	NaN
1032	1.000000	0.322789	7.37514e+06	-51739.1	1055.82	-29751.2	0.000000	0.000000	6.322889	-0.086690	NaN	0.000000	0.001588	0.001730	28.0841	0.080867	0.002132	37.9323	77.1857	-166.868	-0.073932	0.321485	-0.797626	-0.798930	-0.086690	37.9323	-0.795912	-3.956983E+10	2.190819E-12	NaN
1032	1.000000	0.332789	7.37514e+06	-51739.1	1055.82	-29751.2	0.000000	0.000000	6.332890	-0.032326	NaN	0.000000	0.001562	0.001702	28.0843	0.087424	0.002070	42.2408	103.079	13.7567	0.018999	0.331408	-0.787627	-0.789007	-0.032326	42.2408	-0.787053	-2.999507E+10	1.077709E-12	NaN
1032	1.000000	0.342764	7.37514e+06	-51739.1	1055.82	-29751.2	0.000000	0.000000	6.342865	-0.034516	NaN	0.000000	0.001593	0.001723	28.0841	0.069380	0.002104	32.9826	-66.7779	-167.692	0.021819	0.341441	-0.777651	-0.778975	-0.034516	32.9826	-0.776867	-2.180966E+10	1.582596E-12	NaN
1032	1.000000	0.352758	7.37514e+06	-51739.1	1055.82	-29751.2	0.000000	0.000000	6.352860	-0.018746	NaN	0.000000	0.001587	0.001744	28.0839	0.070267	0.001944	36.1484	4.462275	11.3492	-0.092137	0.351425	-0.767657	-0.768991	-0.018746	36.1484	-0.767268	-1.614953E+10	1.160792E-12	NaN
1032	1.000000	0.362795	7.37514e+06	-51739.1	1055.82	-29751.2	0.000000	0.000000	6.362897	-0.019064	NaN	0.000000	0.001541	0.001708	28.0839	0.080322	0.001990	40.3727	-5.126664	-168.848	0.010916	0.361498	-0.757620	-0.758918	-0.019064	40.3727	-0.757266	-1.180608E+10	1.614733E-12	NaN
1032	1.000000	0.372796	7.37514e+06	-51739.1	1055.82	-29751.2	0.000000	0.000000	6.372898	-0.015668	NaN	0.000000	0.001548	0.001714	28.0838	0.029560	0.001850	15.9761	-155.883	11.1704	0.065847	0.371400	-0.747619	-0.749016	-0.015668	15.9761	-0.746884	-8.527071E+9	1.837398E-12	NaN
1032	1.000000	0.382788	7.37514e+06	-51739.1	1055.82	-29751.2	0.000000	0.000000	6.382891	0.008346	NaN	0.000000	0.001522	0.001698	28.084	0.044433	0.001946	22.8281	-130.019	-165.545	-0.050666	0.381454	-0.737628	-0.738961	0.008346	22.8281	-0.737902	-6.433906E+9	-1.297245E-12	NaN
1032	1.000000	0.392772	7.37514e+06	-51739.1	1055.82	-29751.2	0.000000	0.000000	6.392875	-0.004698	NaN	0.000000	0.001529	0.001702	28.0838	0.088887	0.001991	44.639	174.012	15.724	0.015811	0.391475	-0.727643	-0.728940	-0.004698	44.639	-0.727564	-4.651634E+9	1.010029E-12	NaN
1032	1.000000	0.402792	7.37514e+06	-51739.1	1055.82	-29751.2	0.000000	0.000000	6.402893	-0.040041	NaN	0.000000	0.001524	0.001722	28.0842	0.064701	0.002095	30.8864	57.7763	-164.527	-0.010299	0.401497	-0.717623	-0.718918	-0.040041	30.8864	-0.716651	-3.302106E+9	1.212577E-11	NaN
1032	1.000000	0.412769	7.37514e+06	-51739.1	1055.82	-29751.2	0.000000	0.000000	6.412868	-0.094510	NaN	0.000000	0.001568	0.001690	28.0837	0.061054	0.002010	30.3699	-154.757	9.195672	0.022840	0.411399	-0.707646	-0.709016	-0.094510	30.3699	-0.705312	-2.312391E+9	4.087105E-11	NaN
1032	1.000000	0.422800	7.37514e+06	-51739.1	1055.82	-29751.2	0.000000	0.000000	6.422905	0.056415	NaN	0.000000	0.001588	0.001728	28.0839	0.052066	0.001939	26.8517	3.071399	-167.031	0.072571	0.421490	-0.697615	-0.698926	0.056415	26.8517	-0.699191	-1.907568E+9	-2.957417E-11	NaN
1032	1.000000	0.432820	7.37514e+06	-51739.1	1055.82	-29751.2	0.000000	0.000000	6.432920	-0.054250	NaN	0.000000	0.001569	0.001743	28.0838	0.086443	0.001973	43.8231	178.519	12.4049	-0.055966	0.431468	-0.687595	-0.688947	-0.054250	43.8231	-0.686667	-1.286361E+9	4.217350E-11	NaN
1032	1.000000	0.442787	7.37514e+06	-51739.1	1055.82	-29751.2	0.000000	0.000000	6.442889	-0.014796	NaN	0.000000	0.001573	0.001687	28.0829	0.046072	0.002169	21.2445	61.4751	-167.845	-0.066494	0.441479	-0.677628	-0.678937	-0.014796	21.2445	-0.677106	-9.519658E+8	1.554272E-11	NaN
1032	1.000000	0.452811	7.37514e+06	-51739.1	1055.82	-29751.2	0.000000	0.000000	6.452913	-0.016234	NaN	0.000000	0.001590	0.001684	28.0827	0.020075	0.002123	9.456083	-58.7126	15.0735	0.029537	0.451440	-0.667604	-0.668975	-0.016234	9.456083	-0.666317	-6.775998E+8	2.395822E-11	NaN
1032	1.000000	0.462823	7.37514e+06	-51739.1	1055.82	-29751.2	0.000000	0.000000	6.462925	-0.007772	NaN	0.000000	0.001551	0.001707	28.0828	0.044426	0.001959	22.6731	-82.3372	-165.732	0.054919	0.461513	-0.657593	-0.658903	-0.007772	22.6731	-0.657335	-5.104667E+8	1.522497E-11	NaN
1032	1.000000	0.472817	7.37514e+06	-51739.1	1055.82	-29751.2	0.000000	0.000000	6.472918	-0.033455	NaN	0.000000	0.001576	0.001707	28.0826	0.054689	0.001856	29.4737	84.1088	8.661494	-0.043395	0.471447	-0.647598	-0.648969	-0.033455	29.4737	-0.646747	-3.654564E+8	9.154360E-11	NaN
1032	1.000000	0.482826	7.37514e+06	-51739.1	1055.82	-29751.2	0.000000	0.000000	6.482928	-0.028655	NaN	0.000000	0.001564	0.001687	28.0822	0.014820	0.002087	7.100086	42.0014	-167.499	-0.013250	0.481576	-0.637589	-0.638840	-0.028655	7.100086	-0.634562	-2.486907E+8	1.152229E-10	NaN
1032	1.000000	0.492807	7.37514e+06	-51739.1	1055.82	-29751.2	0.000000	0.000000	6.492910	-0.012559	NaN	0.000000	0.001576	0.001719	28.0826	0.067658	0.002134	31.7072	106.802	12.0477	-0.045768	0.491444	-0.627608	-0.628972	-0.012559	31.7072	-0.627311	-1.977375E+8	6.351161E-11	NaN
1032	1.000000	0.502850	7.37514e+06	-51739.1	1055.82	-29751.2	0.000000	0.000000	6.502953	0.021709	NaN	0.000000	0.001552	0.001716	28.0825	0.054644	0.002142	25.5119	1.881613	-164.655	0.060355	0.501550	-0.617566	-0.618866	0.021709	25.5119	-0.618204	-1.482322E+8	-1.464519E-10	NaN
1032	1.000000	0.512830	7.37514e+06	-51739.1	1055.82	-29751.2	0.000000	0.000000	6.512932	-0.014387	NaN	0.000000	0.001591	0.001730	28.0827	0.089168	0.001863	47.8662	-33.1028	14.9697	-0.023646	0.511455	-0.607585	-0.608960	-0.014387	47.8662	-0.607360	-1.051439E+8	1.368268E-10	NaN
1032	1.000000	0.522841	7.37514e+06	-51739.1	1055.82	-29751.2	0.000000	0.000000	6.522944	0.010844	NaN	0.000000	0.001584	0.001670	28.0825	0.107505	0.002134	50.3655	173.12	-170.764	-0.082152	0.521549	-0.597574	-0.598866	0.010844	50.3655	-0.597736	-7.749531E+7	-1.399307E-10	NaN
1032	1.000000	0.532876	7.37514e+06	-51739.1	1055.82	-29751.2	0.000000	0.000000	6.532975	-0.097674	NaN	0.000000	0.001608	0.001677	28.0826	0.028224	0.002060	13.6985	-75.1718	14.4231	-0.053170	0.531502	-0.587539	-0.588913	-0.097674	13.6985	-0.582191	-4.731123E+7	2.064495E-9	NaN
1032	1.000000	0.542852	7.37514e+06	-51739.1	1055.82	-29751.2	0.000000	0.000000	6.542954	-0.014111	NaN	0.000000	0.001600	0.001703	28.0827	0.079084	0.002018	39.1877	-94.3286	-165.523	-0.009054	0.541545	-0.577564	-0.578870	-0.014111	39.1877	-0.577294	-4.049176E+7	3.484811E-10	NaN
1032	1.000000	0.552884	7.37514e+06	-51739.1	1055.82	-29751.2	0.000000	0.000000	6.552989	0.055335	NaN	0.000000	0.001592	0.001706	28.0826	0.034449	0.002137	16.1169	-176.578	15.1854	0.097207	0.551527	-0.567531	-0.568888	0.055335	16.1169	-0.570106	-3.221824E+7	-1.717493E-9	NaN
1032	1.000000	0.562842	7.37514e+06	-51739.1	1055.82	-29751.2	0.000000	0.000000	6.562942	-0.069461	NaN	0.000000	0.001596	0.001720	28.0827	0.077620	0.002020	38.4203	-156.645	-167.585	-0.014517	0.561555	-0.557574	-0.558860	-0.069461	38.4203	-0.556218	-2.070351E+7	3.355044E-9	NaN
1032	1.000000	0.572887	7.37514e+06	-51739.1	1055.82	-29751.2	0.000000	0.000000	6.572988	-0.047557	NaN	0.000000	0.001582	0.001709	28.0827	0.061064	0.001956	31.2238	-126.969	11.9476	-0.091935	0.571512	-0.547528	-0.548903	-0.047557	31.2238	-0.546386	-1.513162E+7	3.142883E-9	NaN
1032	1.000000	0.582846	7.37514e+06	-51739.1	1055.82	-29751.2	0.000000	0.000000	6.582951	0.062673	NaN	0.000000	0.001610	0.001705	28.0841	0.065637	0.001995	32.895	16.4331	-165.481	-0.014703	0.581596	-0.537569	-0.538820	0.062673	32.895	-0.538998	-1.195270E+7	-5.243411E-9	NaN
1032	1.000000	0.592876	7.37515e+06	-51739.1	1055.82	-29751.2	0.000000	0.000000	6.592977	-0.055787	NaN	0.000000	0.001576	0.001681	28.084	0.054784	0.002096	26.1398	111.231	12.6512	-0.002768	0.591518	-0.527539	-0.528897	-0.055787	26.1398	-0.525938	-7.87318e+06	7.085713E-9	NaN
1032	1.000000	0.602886	7.37515e+06	-51739.1	1055.82	-29751.2	0.000000	0.000000	6.602989	0.006878	NaN	0.000000	0.001605	0.001705	28.084	0.047411	0.001867	25.3936	139.828	-166.143	-0.007810	0.601528	-0.517529	-0.518887	0.006878	25.3936	-0.517732	-6.05414e+06	-1.136067E-9	NaN
1032	1.000000	0.612899	7.37515e+06	-51739.1	1055.82	-29751.2	0.000000	0.000000	6.613002	0.005452	NaN	0.000000	0.001576	0.001711	28.084	0.093508	0.001976	47.3212	-156.478	10.8162	-0.043862	0.611485	-0.507516	-0.508931	0.005452	47.3212	-0.507602	-4.37534e+06	-1.245996E-9	NaN
1032	1.000000	0.622879	7.37515e+06	-51739.1	1055.82	-29751.2	0.000000	0.000000	6.622979	-0.068642	NaN	0.000000	0.001573	0.001693	28.0841	0.027225	0.002069	13.1599	-157.883	-165.801	-0.071217	0.621559	-0.497537	-0.498856	-0.068642	13.1599	-0.493625	-2.79273e+06	2.457892E-8	NaN
1032	1.000000	0.632874	7.37515e+06	-51739.1	1055.82	-29751.2	0.000000	0.000000	6.632978	0.012657	NaN	0.000000	0.001579	0.001677	28.0841	0.099820	0.001859	53.7041	-163.213	11.1089	-0.016610	0.631491	-0.487541	-0.488924	0.012657	53.7041	-0.487718	-2.30937e+06	-5.480830E-9	NaN
1032	1.000000	0.642887	7.37515e+06	-51739.1	1055.82	-29751.2	0.000000	0.000000	6.642990	-0.006146	NaN	0.000000	0.001567	0.001698	28.0843	0.079297	0.002073	38.2444	107.81	-168.631	0.012665	0.641565	-0.477528	-0.478850	-0.006146	38.2444	-0.477407	-1.65663e+06	3.710024E-9	NaN
1032	1.000000	0.652888	7.37515e+06	-51739.1	1055.82	-29751.2	0.000000	0.000000	6.652988	-0.045570	NaN	0.000000	0.001592	0.001702	28.0845	0.111539	0.002112	52.8159	161.068	16.3104	-0.046736	0.651584	-0.467528	-0.468832	-0.045570	52.8159	-0.466881	-1.17936e+06	3.863994E-8	NaN
1032	1.000000	0.662900	7.37515e+06	-51739.1	1055.82	-29751.2	0.000000	0.000000	6.663003	-0.000880	NaN	0.000000	0.001587	0.001703	28.0844	0.046329	0.002004	23.1134	-58.8596	-165.191	-0.001102	0.661653	-0.457515	-0.458762	-0.000880	23.1134	-0.457486	-870335	1.010957E-9	NaN
1032	1.000000	0.672907	7.37515e+06	-51739.1	1055.82	-29751.2	0.000000	0.000000	6.673010	0.007768	NaN	0.000000	0.001561	0.001722	28.0841	0.048594	0.001977	24.5811	16.6388	12.664	-0.017022	0.671550	-0.447508	-0.448865	0.007768	24.5811	-0.447745	-634723	-1.223824E-8	NaN
1032	1.000000	0.682933	7.37515e+06	-51739.1	1055.82	-29751.2	0.000000	0.000000	6.683035	-0.036403	NaN	0.000000	0.001597	0.001682	28.0843	0.073167	0.002009	36.4241	-87.8594	-167.558	0.003739	0.681571	-0.437482	-0.438844	-0.036403	36.4241	-0.436732	-443842	8.201732E-8	NaN
1032	1.000000	0.692900	7.37515e+06	-51739.1	1055.82	-29751.2	0.000000	0.000000	6.693003	0.004523	NaN	0.000000	0.001558	0.001688	28.0842	0.045705	0.002077	22.0102	-64.6564	12.9769	9.758991E-5	0.691566	-0.427516	-0.428849	0.004523	22.0102	-0.427670	-330436	-1.368863E-8	NaN
1032	1.000000	0.702934	7.37515e+06	-51739.1	1055.82	-29751.2	0.000000	0.000000	6.703034	-0.045340	NaN	0.000000	0.001578	0.001681	28.0842	0.062344	0.001918	32.5039	123.283	-166.875	-0.007332	0.701552	-0.417482	-0.418863	-0.045340	32.5039	-0.416436	-229002	1.979910E-7	NaN
1032	1.000000	0.712928	7.37515e+06	-51739.1	1055.82	-29751.2	0.000000	0.000000	6.713031	0.022818	NaN	0.000000	0.001587	0.001697	28.083	0.082969	0.002102	39.4656	157.939	9.955236	0.046196	0.711512	-0.407488	-0.408903	0.022818	39.4656	-0.407921	-173313	-1.316591E-7	NaN
1032	1.000000	0.722911	7.37515e+06	-51739.1	1055.82	-29751.2	0.000000	0.000000	6.723015	0.021100	NaN	0.000000	0.001585	0.001693	28.083	0.077483	0.002055	37.7038	95.2655	-167.104	0.021206	0.721644	-0.397504	-0.398772	0.021100	37.7038	-0.397924	-124847	-1.690036E-7	NaN
1032	1.000000	0.732956	7.37515e+06	-51739.1	1055.82	-29751.2	0.000000	0.000000	6.733057	-0.024766	NaN	0.000000	0.001587	0.001701	28.083	0.085067	0.001829	46.5193	38.6394	11.9908	0.069705	0.731585	-0.387460	-0.388831	-0.024766	46.5193	-0.387060	-87316.8	2.836301E-7	NaN
1032	1.000000	0.742936	7.37515e+06	-51739.1	1055.82	-29751.2	0.000000	0.000000	6.743038	-0.026790	NaN	0.000000	0.001585	0.001699	28.0828	0.029834	0.002060	14.4817	-155.198	-166.042	0.002803	0.741633	-0.377480	-0.378783	-0.026790	14.4817	-0.376092	-60781	4.407605E-7	NaN
1032	1.000000	0.752953	7.37515e+06	-51739.1	1055.82	-29751.2	0.000000	0.000000	6.753056	-0.015418	NaN	0.000000	0.001586	0.001674	28.0831	0.012100	0.001994	6.069128	-166.154	14.5899	0.014645	0.751560	-0.367462	-0.368856	-0.015418	6.069128	-0.365557	-42863.2	3.597097E-7	NaN
1032	1.000000	0.762926	7.37515e+06	-51739.1	1055.82	-29751.2	0.000000	0.000000	6.763029	0.005244	NaN	0.000000	0.001561	0.001705	28.0829	0.107070	0.001868	57.3251	92.4428	-167.527	-0.012288	0.761667	-0.357489	-0.358748	0.005244	57.3251	-0.357558	-32849.1	-1.596464E-7	NaN
1032	1.000000	0.772978	7.37515e+06	-51739.1	1055.82	-29751.2	0.000000	0.000000	6.773079	-0.043929	NaN	0.000000	0.001555	0.001746	28.0829	0.042922	0.001951	22.0024	-82.8928	13.562	-0.041334	0.771579	-0.347437	-0.348836	-0.043929	22.0024	-0.345940	-22285.4	1.971186E-6	NaN
1032	1.000000	0.782944	7.37515e+06	-51739.1	1055.82	-29751.2	0.000000	0.000000	6.783047	-0.010889	NaN	0.000000	0.001557	0.001705	28.0828	0.031152	0.001995	15.6121	163.603	-165.517	0.026188	0.781639	-0.337471	-0.338776	-0.010889	15.6121	-0.336948	-16482.9	6.605950E-7	NaN
1032	1.000000	0.792935	7.37515e+06	-51739.1	1055.82	-29751.2	0.000000	0.000000	6.793036	-0.049896	NaN	0.000000	0.001553	0.001678	28.0828	0.049005	0.002013	24.3485	89.9338	12.5416	-0.016163	0.791608	-0.327480	-0.328807	-0.049896	24.3485	-0.325943	-11375.8	4.386141E-6	NaN
1032	1.000000	0.802929	7.37515e+06	-51739.1	1055.82	-29751.2	0.000000	0.000000	6.803032	0.002056	NaN	0.000000	0.001562	0.001703	28.0828	0.084369	0.001869	45.1428	130.25	-166.61	0.075351	0.801634	-0.317487	-0.318782	0.002056	45.1428	-0.317521	-8553.1	-2.404181E-7	NaN
1032	1.000000	0.812938	7.37515e+06	-51739.1	1055.82	-29751.2	0.000000	0.000000	6.813039	-0.048002	NaN	0.000000	0.001536	0.001723	28.0827	0.061804	0.001977	31.267	-129.548	11.2322	0.017086	0.811597	-0.307477	-0.308819	-0.048002	31.267	-0.306326	-5842.86	8.215472E-6	NaN
1032	1.000000	0.822956	7.37515e+06	-51739.1	1055.82	-29751.2	0.000000	0.000000	6.823058	-0.023213	NaN	0.000000	0.001536	0.001712	28.0829	0.014108	0.002022	6.977859	-93.1718	-166.769	0.034324	0.821586	-0.297460	-0.298829	-0.023213	6.977859	-0.294964	-3958.75	5.863818E-6	NaN
1032	1.000000	0.832982	7.37515e+06	-51739.1	1055.82	-29751.2	0.000000	0.000000	6.833086	0.035400	NaN	0.000000	0.001556	0.001701	28.0831	0.062461	0.001927	32.4132	-41.5406	17.0328	0.020345	0.831571	-0.287433	-0.288844	0.035400	32.4132	-0.288252	-3141.26	-1.126927E-5	NaN
1032	1.000000	0.842966	7.37515e+06	-51739.1	1055.82	-29751.2	0.000000	0.000000	6.843069	0.014306	NaN	0.000000	0.001575	0.001711	28.083	0.038419	0.002031	18.9176	-144.632	-166.38	0.044936	0.841647	-0.277450	-0.278769	0.014306	18.9176	-0.278017	-2203.09	-6.493713E-6	NaN
1032	1.000000	0.852992	7.37515e+06	-51739.1	1055.82	-29751.2	0.000000	0.000000	6.853097	0.048029	NaN	0.000000	0.001539	0.001688	28.084	0.070360	0.001998	35.2168	-14.8133	14.9631	0.084436	0.851640	-0.267424	-0.268775	0.048029	35.2168	-0.268446	-1577.3	-3.044987E-5	NaN
1032	1.000000	0.862983	7.37515e+06	-51739.1	1055.82	-29751.2	0.000000	0.000000	6.863087	0.048843	NaN	0.000000	0.001566	0.001694	28.0839	0.032884	0.002050	16.0441	15.6308	-166.846	0.060755	0.861658	-0.257433	-0.258758	0.048843	16.0441	-0.259716	-1160.28	-4.209600E-5	NaN
1032	1.000000	0.872986	7.37515e+06	-51739.1	1055.82	-29751.2	0.000000	0.000000	6.873087	-0.046271	NaN	0.000000	0.001589	0.001753	28.084	0.114954	0.001996	57.583	-76.9574	11.6971	-0.039840	0.871593	-0.247429	-0.248822	-0.046271	57.583	-0.246826	-734.194	6.302356E-5	NaN
1032	1.000000	0.883005	7.37515e+06	-51739.1	1055.82	-29751.2	0.000000	0.000000	6.883105	-0.054889	NaN	0.000000	0.001511	0.001717	28.0841	0.063498	0.001986	31.978	-4.754922	-167.083	-0.088005	0.881672	-0.237411	-0.238743	-0.054889	31.978	-0.236123	-499.891	0.000110	NaN
1032	1.000000	0.893027	7.37515e+06	-51739.1	1055.82	-29751.2	0.000000	0.000000	6.893128	-0.051318	NaN	0.000000	0.001591	0.001715	28.0839	0.218191	0.001939	112.542	-115.065	14.472	0.022260	0.891648	-0.227388	-0.228767	-0.051318	112.542	-0.227046	-359.577	0.000143	NaN
1032	1.000000	0.902983	7.37515e+06	-51739.1	1055.82	-29751.2	0.000000	0.000000	6.903085	-0.020842	NaN	0.000000	0.001541	0.001692	28.0842	0.013678	0.002078	6.582315	-15.1598	-165.821	-0.005694	0.901715	-0.217433	-0.218700	-0.020842	6.582315	-0.215058	-231.443	9.005415E-5	NaN
1032	1.000000	0.912998	7.37515e+06	-51739.1	1055.82	-29751.2	0.000000	0.000000	6.913100	-0.026391	NaN	0.000000	0.001552	0.001712	28.0843	0.025248	0.002046	12.3424	35.4277	14.2551	0.024837	0.911619	-0.207417	-0.208796	-0.026391	12.3424	-0.205813	-163.99	0.000161	NaN
1032	1.000000	0.923033	7.37515e+06	-51739.1	1055.82	-29751.2	0.000000	0.000000	6.923137	0.019867	NaN	0.000000	0.001558	0.001744	28.0842	0.071158	0.002116	33.6226	-111.167	-163.114	-0.000732	0.921698	-0.197382	-0.198717	0.019867	33.6226	-0.197825	-121.311	-0.000164	NaN
1032	1.000000	0.933010	7.37515e+06	-51739.1	1055.82	-29751.2	0.000000	0.000000	6.933111	-0.030212	NaN	0.000000	0.001538	0.001722	28.0842	0.039901	0.002005	19.8965	7.662787	14.5149	0.032051	0.931667	-0.187405	-0.188748	-0.030212	19.8965	-0.186267	-77.8854	0.000388	NaN
1032	1.000000	0.943028	7.37515e+06	-51739.1	1055.82	-29751.2	0.000000	0.000000	6.943127	-0.080925	NaN	0.000000	0.001538	0.001736	28.084	0.119914	0.002172	55.1964	63.6817	-167.121	-0.029842	0.941723	-0.177388	-0.178693	-0.080925	55.1964	-0.176288	-52.7335	0.001535	NaN
1032	1.000000	0.953026	7.37515e+06	-51739.1	1055.82	-29751.2	0.000000	0.000000	6.953127	-0.043531	NaN	0.000000	0.001619	0.001720	28.0843	0.050582	0.002010	25.1669	-153.559	11.3842	-0.090609	0.951642	-0.167389	-0.168773	-0.043531	25.1669	-0.166092	-35.1118	0.001240	NaN
1032	1.000000	0.963023	7.37515e+06	-51739.1	1055.82	-29751.2	0.000000	0.000000	6.963127	0.036822	NaN	0.000000	0.001559	0.001718	28.0842	0.022412	0.001960	11.4355	98.4961	-163.762	-0.029706	0.961676	-0.157392	-0.158739	0.036822	11.4355	-0.159807	-27.1994	-0.001354	NaN
1032	1.000000	0.973044	7.37515e+06	-51739.1	1055.82	-29751.2	0.000000	0.000000	6.973146	-0.029089	NaN	0.000000	0.001590	0.001727	28.0844	0.085571	0.002062	41.5059	49.6297	16.6305	0.002833	0.971643	-0.147371	-0.148772	-0.029089	41.5059	-0.146845	-15.8568	0.001835	NaN
1032	1.000000	0.983000	7.37515e+06	-51739.1	1055.82	-29751.2	0.000000	0.000000	6.983101	-0.030281	NaN	0.000000	0.001579	0.001708	28.0844	0.041856	0.001940	21.5783	-109.698	-164.578	-0.064191	0.981667	-0.137415	-0.138749	-0.030281	21.5783	-0.136363	-10.0983	0.002999	NaN
1032	1.000000	0.993057	7.37515e+06	-51739.1	1055.82	-29751.2	0.000000	0.000000	6.993160	0.012600	NaN	0.000000	0.001589	0.001730	28.0831	0.082703	0.002090	39.5644	-32.5937	19.0314	-0.037338	0.991653	-0.127358	-0.128763	0.012600	39.5644	-0.127597	-6.841274	-0.001842	NaN
1032	1.000000	1.003036	7.37515e+06	-51739.1	1055.82	-29751.2	0.000000	0.000000	7.003137	-0.055401	NaN	0.000000	0.001570	0.001727	28.083	0.072436	0.001950	37.1438	-178.206	-171.943	0.002566	1.001723	-0.117379	-0.118693	-0.055401	37.1438	-0.116260	-4.055217	0.013662	NaN
1032	1.000000	1.013020	7.37515e+06	-51739.1	1055.82	-29751.2	0.000000	0.000000	7.013121	-0.050238	NaN	0.000000	0.001520	0.001722	28.0831	0.095455	0.002036	46.8736	-50.2141	13.0055	-0.069012	1.011711	-0.107395	-0.108704	-0.050238	46.8736	-0.106591	-2.543361	0.019752	NaN
1032	1.000000	1.023019	7.37515e+06	-51739.1	1055.82	-29751.2	0.000000	0.000000	7.023122	-0.000956	NaN	0.000000	0.001559	0.001710	28.0835	0.097349	0.002127	45.766	-72.9392	-165.261	-0.065008	1.021758	-0.097396	-0.098657	-0.000956	45.766	-0.097381	-1.596983	0.000599	NaN
1032	1.000000	1.033066	7.37515e+06	-51739.1	1055.82	-29751.2	0.000000	0.000000	7.033168	-0.021653	NaN	0.000000	0.001550	0.001667	28.0832	0.082558	0.001970	41.9036	-54.5183	13.4096	-0.012608	1.031709	-0.087349	-0.088706	-0.021653	41.9036	-0.086961	-0.915918	0.023641	NaN
1032	1.000000	1.043048	7.37515e+06	-51739.1	1055.82	-29751.2	0.000000	0.000000	7.043151	-0.003277	NaN	0.000000	0.001558	0.001713	28.0835	0.024656	0.001954	12.6208	-138.608	-164.711	0.005214	1.041842	-0.077367	-0.078573	-0.003277	12.6208	-0.077172	-0.525176	0.006239	NaN
1032	1.000000	1.053017	7.37515e+06	-51739.1	1055.82	-29751.2	0.000000	0.000000	7.053166	1.142831	NaN	0.000000	0.001532	0.001680	28.0833	1.213630	0.001904	637.496	7.213579	12.2387	0.707071	1.051693	-0.067399	-0.068722	1.142831	637.496	-0.068743	-0.315555	-3.621650	NaN
1032	1.000000	1.063041	7.37515e+06	-51739.1	1055.82	-29751.2	0.000000	0.000000	7.063226	1.996407	NaN	0.000000	0.001556	0.001682	28.0833	1.243652	0.001966	632.722	7.096520	-163.532	2.116909	1.061738	-0.057374	-0.058677	1.996407	632.722	-0.059741	-0.177034	-11.277	NaN
1032	1.000000	1.073085	7.37515e+06	-51739.1	1055.82	-29751.2	0.000000	0.000000	7.073270	2.020879	NaN	0.000000	0.001554	0.001650	28.083	1.285962	0.001894	678.93	11.1869	11.867	1.978962	1.071727	-0.047331	-0.048689	2.020879	678.93	-0.049563	-0.088515	-22.8308	NaN
1032	1.000000	1.083085	7.37515e+06	-51739.1	1055.82	-29751.2	0.000000	0.000000	7.083305	2.835231	NaN	0.000000	0.001476	0.001718	28.0832	1.501420	0.001868	803.747	11.1084	-165.827	2.744807	1.081793	-0.037330	-0.038622	2.835231	803.747	-0.039976	-0.045145	-62.8023	NaN
1032	1.000000	1.093060	7.37515e+06	-51739.1	1055.82	-29751.2	0.000000	0.000000	7.093292	3.148151	NaN	0.000000	0.001582	0.001682	28.0837	1.414224	0.001911	740.039	15.9896	10.8227	3.047747	1.091732	-0.027355	-0.028683	3.148151	740.039	-0.030546	-0.023836	-132.075	NaN
1032	1.000000	1.103060	7.37515e+06	-51739.1	1055.82	-29751.2	0.000000	0.000000	7.103271	2.628404	NaN	0.000000	0.001572	0.001712	28.0832	1.424391	0.002062	690.671	18.318	-166.745	2.645173	1.101761	-0.017355	-0.018654	2.628404	690.671	-0.020209	-0.012716	-206.705	NaN
1032	1.000000	1.113086	7.37515e+06	-51739.1	1055.82	-29751.2	0.000000	0.000000	7.113340	3.695927	NaN	0.000000	0.001557	0.001702	28.0835	2.716769	0.002062	1317.7	17.0114	13.2888	3.603155	1.111720	-0.007330	-0.008696	3.695927	1317.7	-0.009433	-0.006063	-609.626	NaN
1032	1.000000	1.122985	7.37515e+06	-51739.1	1055.82	-29751.2	0.000000	0.000000	7.123421	8.094687	NaN	0.000000	0.001628	0.001692	28.0844	6.085585	0.001866	3261.01	20.907	-173.917	7.792895	1.121764	0.002570	0.001349	8.094687	3261.01	0.000708	0.000537	15083.1	128609
1032	2.000000	1.126119	7.37515e+06	-51739.1	1055.82	-29751.2	0.000000	0.000000	7.126580	8.707020	NaN	0.000000	0.001590	0.001710	28.0853	7.714187	0.001870	4124.37	15.1676	6.389383	8.266483	1.125770	0.005704	0.005354	8.707020	4124.37	0.004120	0.003345	2603.26	65156
1032	2.000000	1.128576	7.37515e+06	-51739.1	1055.82	-29751.2	0.000000	0.000000	7.129103	10.3224	NaN	0.000000	0.001623	0.001672	28.0844	9.542457	0.001752	5446.26	10.861	-173.552	9.978906	1.128247	0.008161	0.007832	10.3224	5446.26	0.006739	0.005777	1786.76	65465.7
1032	2.000000	1.131099	7.37515e+06	-51739.1	1055.82	-29751.2	0.000000	0.000000	7.131766	13.7147	NaN	0.000000	0.001587	0.001692	28.0846	11.672	0.001903	6133.95	11.7802	5.181640	13.0188	1.130732	0.010683	0.010317	13.7147	6133.95	0.009006	0.008098	1693.57	62276.2
1032	2.000000	1.133555	7.37515e+06	-51739.1	1055.82	-29751.2	0.000000	0.000000	7.134406	18.191	NaN	0.000000	0.001590	0.001720	28.0846	13.4075	0.001597	8397.2	6.199900	-174.322	17.5832	1.133268	0.013140	0.012853	18.191	8397.2	0.011515	0.010914	1666.75	73437
1032	2.000000	1.136048	7.37515e+06	-51739.1	1055.82	-29751.2	0.000000	0.000000	7.137255	26.8598	NaN	0.000000	0.001571	0.001693	28.0851	16.1936	0.001531	10574.4	3.844023	5.789158	25.214	1.135668	0.015632	0.015253	26.8598	10574.4	0.013727	0.013625	1971.31	82766.6
1032	2.000000	1.138530	7.37515e+06	-51739.1	1055.82	-29751.2	0.000000	0.000000	7.140126	36.2942	NaN	0.000000	0.001559	0.001730	28.0845	19.3859	0.001702	11387.3	9.764113	179.136	35.3901	1.138194	0.018115	0.017779	36.2942	11387.3	0.015725	0.016264	2231.58	81579.5
1032	2.000000	1.141034	7.37515e+06	-51739.1	1055.82	-29751.2	0.000000	0.000000	7.143078	47.2065	NaN	0.000000	0.001551	0.001709	28.0845	21.5232	0.001727	12461.4	0.844463	6.979960	45.0848	1.140689	0.020619	0.020274	47.2065	12461.4	0.017778	0.019170	2462.54	82229.9
1032	2.000000	1.143529	7.37515e+06	-51739.1	1055.82	-29751.2	0.000000	0.000000	7.145915	55.5206	NaN	0.000000	0.001591	0.001681	28.0843	24.687	0.001772	13929	5.894521	-179.48	54.7127	1.143172	0.023113	0.022756	55.5206	13929	0.020124	0.022737	2441.85	84397
1032	2.000000	1.146022	7.37515e+06	-51739.1	1055.82	-29751.2	0.000000	0.000000	7.148874	66.86	NaN	0.000000	0.001550	0.001720	28.0848	26.6689	0.001910	13960	6.226195	1.445873	64.5846	1.145608	0.025607	0.025192	66.86	13960	0.022015	0.025807	2590.73	79394
1032	2.000000	1.148497	7.37515e+06	-51739.1	1055.82	-29751.2	0.000000	0.000000	7.151912	80.5561	NaN	0.000000	0.001531	0.001708	28.0846	29.0612	0.001832	15860.1	8.233939	176.959	79.8178	1.148218	0.028081	0.027802	80.5561	15860.1	0.024272	0.029704	2711.92	84075.3
1032	2.000000	1.151002	7.37515e+06	-51739.1	1055.82	-29751.2	0.000000	0.000000	7.155073	96.4953	NaN	0.000000	0.001560	0.001681	28.0846	30.7794	0.001659	18552.6	3.022123	0.174681	94.0026	1.150584	0.030586	0.030169	96.4953	18552.6	0.026685	0.034153	2825.37	91719.9
1032	2.000000	1.153504	7.37515e+06	-51739.1	1055.82	-29751.2	0.000000	0.000000	7.158054	108.13	NaN	0.000000	0.001612	0.001787	28.0844	34.1399	0.001804	18921.2	6.471850	177.855	107.207	1.153220	0.033089	0.032805	108.13	18921.2	0.028803	0.038299	2823.33	88334.2
1032	2.000000	1.156026	7.37515e+06	-51739.1	1055.82	-29751.2	0.000000	0.000000	7.161230	124.038	NaN	0.000000	0.001605	0.001753	28.0845	36.2388	0.001686	21494.1	7.991623	-5.341947	123.919	1.155608	0.035611	0.035193	124.038	21494.1	0.031283	0.043445	2855.07	94215.8
1032	2.000000	1.158532	7.37515e+06	-51739.1	1055.82	-29751.2	0.000000	0.000000	7.164241	136.304	NaN	0.000000	0.001643	0.001750	28.0827	38.0411	0.001755	21677.2	2.806943	-179.691	136.975	1.158155	0.038117	0.037740	136.304	21677.2	0.033401	0.048089	2834.44	90314
1032	2.000000	1.160993	7.37515e+06	-51739.1	1055.82	-29751.2	0.000000	0.000000	7.167605	158.268	NaN	0.000000	0.001632	0.001739	28.0829	41.439	0.001801	23006	6.055684	-4.329811	156.261	1.160608	0.040578	0.040192	158.268	23006	0.035418	0.052725	3001.78	91539.2
1032	2.000000	1.163477	7.37515e+06	-51739.1	1055.82	-29751.2	0.000000	0.000000	7.171006	180.572	NaN	0.000000	0.001672	0.001722	28.083	44.2657	0.001816	24369.1	6.296515	175.825	179.258	1.163112	0.043062	0.042696	180.572	24369.1	0.037504	0.057738	3127.42	92657.8
1032	2.000000	1.165917	7.37515e+06	-51739.1	1055.82	-29751.2	0.000000	0.000000	7.173990	193.821	NaN	0.000000	0.001636	0.001723	28.0829	45.9463	0.001776	25876.5	5.647910	-4.782888	188.797	1.165518	0.045501	0.045102	193.821	25876.5	0.039884	0.063728	3041.37	93651.1
1032	2.000000	1.168518	7.37515e+06	-51739.1	1055.82	-29751.2	0.000000	0.000000	7.177291	210.822	NaN	0.000000	0.001639	0.001726	28.0828	47.8905	0.001866	25659.3	6.517869	175.267	210.661	1.168137	0.048103	0.047722	210.822	25659.3	0.041941	0.069140	3049.21	89156.7
1032	2.000000	1.170905	7.37515e+06	-51739.1	1055.82	-29751.2	0.000000	0.000000	7.180553	232.103	NaN	0.000000	0.001649	0.001715	28.0828	49.8082	0.001803	27630.4	2.080940	-1.713756	228.58	1.170613	0.050490	0.050198	232.103	27630.4	0.044190	0.075303	3082.23	91992.6
1032	2.000000	1.173441	7.37515e+06	-51739.1	1055.82	-29751.2	0.000000	0.000000	7.183880	251.333	NaN	0.000000	0.001644	0.001730	28.0829	53.4958	0.001927	27763.7	5.889510	175.176	249.203	1.173054	0.053025	0.052638	251.333	27763.7	0.046236	0.081135	3097.72	89052.8
1032	2.000000	1.175993	7.37515e+06	-51739.1	1055.82	-29751.2	0.000000	0.000000	7.187384	274.488	NaN	0.000000	0.001626	0.001728	28.0829	54.4002	0.001839	29579.4	2.600484	-2.515498	270.524	1.175537	0.055577	0.055122	274.488	29579.4	0.048618	0.088188	3112.53	91003.4
1032	2.000000	1.178417	7.37515e+06	-51739.1	1055.82	-29751.2	0.000000	0.000000	7.190655	295.074	NaN	0.000000	0.001637	0.001738	28.0828	56.4787	0.001773	31851.5	1.634342	177.658	290.551	1.178086	0.058002	0.057671	295.074	31851.5	0.051054	0.095698	3083.39	94070.1
1032	2.000000	1.180863	7.37515e+06	-51739.1	1055.82	-29751.2	0.000000	0.000000	7.193860	313.533	NaN	0.000000	0.001622	0.001728	28.083	59.3513	0.001877	31623.4	3.688651	-3.968239	305.901	1.180565	0.060447	0.060150	313.533	31623.4	0.053011	0.101948	3075.42	90488.4
1032	2.000000	1.183423	7.37515e+06	-51739.1	1055.82	-29751.2	0.000000	0.000000	7.197554	341.104	NaN	0.000000	0.001645	0.001740	28.0829	61.8181	0.001856	33298.5	4.898663	174.487	338.235	1.183133	0.063008	0.062718	341.104	33298.5	0.055325	0.109581	3112.81	91903.4
1032	2.000000	1.185984	7.37515e+06	-51739.1	1055.82	-29751.2	0.000000	0.000000	7.200584	352.511	NaN	0.000000	0.001663	0.001728	28.083	64.6585	0.001774	36451.9	11.3235	-11.869	349.506	1.185522	0.065569	0.065107	352.511	36451.9	0.058316	0.119838	2941.55	96204.5
1032	2.000000	1.188427	7.37515e+06	-51739.1	1055.82	-29751.2	0.000000	0.000000	7.203471	363.292	NaN	0.000000	0.001651	0.001747	28.0829	66.8809	0.001938	34517.9	9.293204	170.336	360.213	1.187962	0.068012	0.067547	363.292	34517.9	0.060119	0.126234	2877.93	88762.7
1032	2.000000	1.190855	7.37515e+06	-51739.1	1055.82	-29751.2	0.000000	0.000000	7.207341	398.365	NaN	0.000000	0.001623	0.001732	28.0831	68.3786	0.001885	36270.2	6.109775	-7.786776	391.102	1.190482	0.070440	0.070067	398.365	36270.2	0.062202	0.133824	2976.78	90585
1032	2.000000	1.193385	7.37515e+06	-51739.1	1055.82	-29751.2	0.000000	0.000000	7.210951	424.631	NaN	0.000000	0.001610	0.001710	28.0843	70.0592	0.001801	38893.5	3.702265	174.031	420.349	1.192967	0.072970	0.072552	424.631	38893.5	0.064781	0.143510	2958.89	93801.2
1032	2.000000	1.195949	7.37515e+06	-51739.1	1055.82	-29751.2	0.000000	0.000000	7.214733	454.238	NaN	0.000000	0.001608	0.001698	28.0842	70.8088	0.001795	39449.8	6.563903	-8.262943	450.119	1.195563	0.075534	0.075148	454.238	39449.8	0.066898	0.151700	2994.32	92539.1
1032	2.000000	1.198360	7.37515e+06	-51739.1	1055.82	-29751.2	0.000000	0.000000	7.218181	479.463	NaN	0.000000	0.001555	0.001705	28.0841	73.6396	0.001842	39974.1	2.543201	175.174	472.932	1.198001	0.077944	0.077585	479.463	39974.1	0.068949	0.159838	2999.69	91350.8
1032	2.000000	1.200865	7.37515e+06	-51739.1	1055.82	-29751.2	0.000000	0.000000	7.221702	504.161	NaN	0.000000	0.001551	0.001736	28.0844	76.9591	0.001890	40719.3	2.287094	-4.655127	498.633	1.200560	0.080450	0.080145	504.161	40719.3	0.071164	0.168854	2985.77	90535.2
1032	2.000000	1.203337	7.37515e+06	-51739.1	1055.82	-29751.2	0.000000	0.000000	7.225189	528.864	NaN	0.000000	0.001540	0.001757	28.084	79.2198	0.001819	43550	5.415750	170.889	523.166	1.203017	0.082921	0.082601	528.864	43550	0.073813	0.179945	2939.03	93797.4
1032	2.000000	1.205875	7.37515e+06	-51739.1	1055.82	-29751.2	0.000000	0.000000	7.228987	559.504	NaN	0.000000	0.001554	0.001762	28.085	80.8428	0.001799	44933.8	4.057845	-7.367425	550.788	1.205492	0.085459	0.085077	559.504	44933.8	0.076121	0.189874	2946.72	94213.8
1032	2.000000	1.208321	7.37515e+06	-51739.1	1055.82	-29751.2	0.000000	0.000000	7.232817	593.127	NaN	0.000000	0.001550	0.001733	28.0839	83.6548	0.001863	44907.5	4.659217	172.027	585.398	1.208090	0.087906	0.087675	593.127	44907.5	0.078000	0.198145	2993.39	92172.2
1032	2.000000	1.210879	7.37515e+06	-51739.1	1055.82	-29751.2	0.000000	0.000000	7.236546	621.623	NaN	0.000000	0.001566	0.001712	28.0842	85.8996	0.001774	48421.5	4.404173	-8.532719	614.681	1.210493	0.090464	0.090077	621.623	48421.5	0.080835	0.210936	2946.98	96324.4
1032	2.000000	1.213346	7.37515e+06	-51739.1	1055.82	-29751.2	0.000000	0.000000	7.240385	654.977	NaN	0.000000	0.001567	0.001716	28.084	88.2833	0.001791	49295.7	2.499231	173.567	648.362	1.213100	0.092931	0.092685	654.977	49295.7	0.082966	0.220793	2966.48	95849.5
1032	2.000000	1.215870	7.37515e+06	-51739.1	1055.82	-29751.2	0.000000	0.000000	7.244140	684.902	NaN	0.000000	0.001551	0.001719	28.0842	89.5982	0.001777	50418.3	5.934598	-10.0346	678.521	1.215526	0.095455	0.095111	684.902	50418.3	0.085266	0.231674	2956.31	95702.3
1032	2.000000	1.218389	7.37515e+06	-51739.1	1055.82	-29751.2	0.000000	0.000000	7.247786	712.307	NaN	0.000000	0.001561	0.001695	28.0841	90.4278	0.001688	53557.1	0.346030	174.916	709.365	1.218224	0.097974	0.097809	712.307	53557.1	0.087999	0.244916	2908.37	98873.9
1032	2.000000	1.220805	7.37515e+06	-51739.1	1055.82	-29751.2	0.000000	0.000000	7.251533	744.67	NaN	0.000000	0.001544	0.001704	28.0844	94.9754	0.001785	53194.3	5.141145	-9.913823	735.065	1.220519	0.100389	0.100104	744.67	53194.3	0.089890	0.254281	2928.54	96378.8
1032	2.000000	1.222281	7.37515e+06	-51739.1	1055.82	-29751.2	0.000000	0.000000	7.254205	773.762	NaN	0.000000	0.001518	0.001641	28.0842	94.2711	0.001737	54280.3	-0.281675	175.643	763.503	1.221955	0.101865	0.101540	773.762	54280.3	0.091174	0.260732	2967.65	97122