File: remote_trans/data/nanoindenter/0828-1/data/Data_2025-08-06,11h17m57s/2025-07-22_16-23-58_1_682.txt
2025-07-22, 16:23:58, 1
Index	Phase	Displacement	Time	Pos X	Pos Y	Pos Z	Rot A	Rot B	Piezo Z	Force A	Force B	Gripper	Voltage A	Voltage B	Temperature	Amplitude force	Amplitude pos	Stiffness	Phase shift	Phase excitation	Force A raw	Displacement raw	HMax	HMax raw	Real Force	Real Stiffness	Contact Depth	Area	Hardness	Reduced Mod.
[#]	[#]	[um]	[s]	[um]	[um]	[um]	[m°]	[m°]	[um]	[uN]	[uN]	[V]	[V]	[V]	[°C]	[uN]	[um]	[N/m]	[°]	[°]	[uN]	[um]	[um]	[um]	[uN]	[N/m]	[um]	[um^2]	[MPa]	[MPa]
682	1.000000	0.002649	7.37172e+06	-42989.1	1005.82	-29780.7	0.000000	0.000000	6.002796	-0.023903	NaN	0.000000	0.001607	0.001753	28.0815	0.083804	0.000917	91.3668	-166.172	-162.715	-0.035811	0.001340	-1.105103	-1.106413	-0.023903	91.3668	-1.104907	-5.833498E+14	4.097464E-17	NaN
682	1.000000	0.012689	7.37172e+06	-42989.1	1005.82	-29780.7	0.000000	0.000000	6.012836	-0.006261	NaN	0.000000	0.001631	0.001759	28.0811	0.056392	0.001053	53.5428	21.3335	12.4225	-0.051877	0.011266	-1.095063	-1.096486	-0.006261	53.5428	-1.094976	-4.291597E+14	1.458924E-17	NaN
682	1.000000	0.022599	7.37172e+06	-42989.1	1005.82	-29780.7	0.000000	0.000000	6.022746	-0.008180	NaN	0.000000	0.001659	0.001728	28.0817	0.102377	0.001679	60.9884	-15.1926	-164.4	0.022843	0.021265	-1.085153	-1.086487	-0.008180	60.9884	-1.085053	-3.157744E+14	2.590551E-17	NaN
682	1.000000	0.032601	7.37172e+06	-42989.1	1005.82	-29780.7	0.000000	0.000000	6.032750	0.030060	NaN	0.000000	0.001631	0.001746	28.0809	0.034133	0.001885	18.11	-21.8862	14.626	0.010597	0.031206	-1.075151	-1.076546	0.030060	18.11	-1.076396	-2.416089E+14	-1.244173E-16	NaN
682	1.000000	0.042595	7.37172e+06	-42989.1	1005.82	-29780.7	0.000000	0.000000	6.042745	0.053169	NaN	0.000000	0.001601	0.001754	28.0813	0.101917	0.002092	48.7068	119.617	-167.938	-0.015526	0.041249	-1.065157	-1.066503	0.053169	48.7068	-1.065976	-1.750330E+14	-3.037682E-16	NaN
682	1.000000	0.052591	7.37172e+06	-42989.1	1005.82	-29780.7	0.000000	0.000000	6.052739	0.011717	NaN	0.000000	0.001593	0.001758	28.0809	0.052039	0.001999	26.0291	-152.574	16.7408	0.051256	0.051222	-1.055161	-1.056530	0.011717	26.0291	-1.055499	-1.265680E+14	-9.257619E-17	NaN
682	1.000000	0.062597	7.37172e+06	-42989.1	1005.82	-29780.7	0.000000	0.000000	6.062747	0.065342	NaN	0.000000	0.001606	0.001796	28.0812	0.056760	0.001898	29.9063	26.4769	-166.849	0.043048	0.061296	-1.045156	-1.046457	0.065342	29.9063	-1.046794	-9.667647E+13	-6.758781E-16	NaN
682	1.000000	0.072622	7.37172e+06	-42989.1	1005.82	-29780.7	0.000000	0.000000	6.072766	-0.067272	NaN	0.000000	0.001634	0.001775	28.0811	0.068858	0.002026	33.9909	-113.264	16.833	-0.068636	0.071263	-1.035131	-1.036489	-0.067272	33.9909	-1.033646	-6.434658E+13	1.045458E-15	NaN
682	1.000000	0.082633	7.37172e+06	-42989.1	1005.82	-29780.7	0.000000	0.000000	6.082780	-0.006589	NaN	0.000000	0.001561	0.001765	28.0813	0.005233	0.002054	2.548119	94.1707	-164.464	0.018756	0.081297	-1.025119	-1.026455	-0.006589	2.548119	-1.023180	-4.652982E+13	1.416152E-16	NaN
682	1.000000	0.092594	7.37172e+06	-42989.1	1005.82	-29780.7	0.000000	0.000000	6.092743	0.044782	NaN	0.000000	0.001550	0.001766	28.081	0.087784	0.002033	43.1837	-21.2819	14.6281	0.025771	0.091263	-1.015159	-1.016489	0.044782	43.1837	-1.015936	-3.717680E+13	-1.204570E-15	NaN
682	1.000000	0.102629	7.37172e+06	-42989.1	1005.82	-29780.7	0.000000	0.000000	6.102777	0.017802	NaN	0.000000	0.001567	0.001751	28.081	0.079717	0.002087	38.193	70.8209	-163.442	0.017209	0.101309	-1.005124	-1.006443	0.017802	38.193	-1.005473	-2.688126E+13	-6.622400E-16	NaN
682	1.000000	0.112634	7.37172e+06	-42989.1	1005.82	-29780.7	0.000000	0.000000	6.112780	-0.040878	NaN	0.000000	0.001636	0.001731	28.0813	0.004572	0.001894	2.413416	-53.9424	17.3048	-0.042901	0.111325	-0.995118	-0.996428	-0.040878	2.413416	-0.982415	-1.315038E+13	3.108490E-15	NaN
682	1.000000	0.122628	7.37172e+06	-42989.1	1005.82	-29780.7	0.000000	0.000000	6.122776	0.007402	NaN	0.000000	0.001617	0.001771	28.0811	0.043682	0.001970	22.1787	-32.7901	-166.825	0.036281	0.121334	-0.985124	-0.986418	0.007402	22.1787	-0.985374	-1.441480E+13	-5.134949E-16	NaN
682	1.000000	0.132625	7.37172e+06	-42989.1	1005.82	-29780.7	0.000000	0.000000	6.132776	0.095927	NaN	0.000000	0.001632	0.001734	28.0823	0.032789	0.002068	15.8557	-123.637	13.7239	0.033207	0.131272	-0.975127	-0.976480	0.095927	15.8557	-0.979665	-1.207525E+13	-7.944091E-15	NaN
682	1.000000	0.142613	7.37172e+06	-42989.1	1005.82	-29780.7	0.000000	0.000000	6.142761	0.020398	NaN	0.000000	0.001651	0.001749	28.0821	0.012380	0.002048	6.045182	-95.5381	-163.337	0.025889	0.141333	-0.965139	-0.966419	0.020398	6.045182	-0.967670	-8.322627E+12	-2.450936E-15	NaN
682	1.000000	0.152666	7.37172e+06	-42989.1	1005.82	-29780.7	0.000000	0.000000	6.152817	0.071722	NaN	0.000000	0.001660	0.001777	28.0822	0.067778	0.002084	32.5237	-145.283	13.4258	-0.002980	0.151269	-0.955086	-0.956483	0.071722	32.5237	-0.956740	-5.928066E+12	-1.209876E-14	NaN
682	1.000000	0.162628	7.37172e+06	-42989.1	1005.82	-29780.7	0.000000	0.000000	6.162778	0.051263	NaN	0.000000	0.001647	0.001715	28.0822	0.117904	0.001904	61.935	41.37	-163.81	0.068763	0.161280	-0.945124	-0.946472	0.051263	61.935	-0.945745	-4.213395E+12	-1.216676E-14	NaN
682	1.000000	0.172678	7.37172e+06	-42989.1	1005.82	-29780.7	0.000000	0.000000	6.172828	0.070521	NaN	0.000000	0.001636	0.001689	28.0825	0.061496	0.001952	31.4993	-161.473	14.8522	0.059011	0.171318	-0.935074	-0.936434	0.070521	31.4993	-0.936754	-3.186658E+12	-2.213001E-14	NaN
682	1.000000	0.182656	7.37172e+06	-42989.1	1005.82	-29780.7	0.000000	0.000000	6.182803	0.003915	NaN	0.000000	0.001655	0.001749	28.0822	0.066177	0.002083	31.7728	43.0814	-165.079	7.250466E-6	0.181331	-0.925096	-0.926421	0.003915	31.7728	-0.925189	-2.224624E+12	-1.759768E-15	NaN
682	1.000000	0.192675	7.37172e+06	-42989.1	1005.82	-29780.7	0.000000	0.000000	6.192823	0.016868	NaN	0.000000	0.001654	0.001790	28.0824	0.050779	0.001979	25.6585	-47.261	14.6651	-0.013903	0.191328	-0.915077	-0.916425	0.016868	25.6585	-0.915570	-1.649662E+12	-1.022488E-14	NaN
682	1.000000	0.202634	7.37172e+06	-42989.1	1005.82	-29780.7	0.000000	0.000000	6.202780	-0.024506	NaN	0.000000	0.001629	0.001747	28.082	0.135234	0.001962	68.9123	-60.504	-164.347	-0.039316	0.201328	-0.905118	-0.906424	-0.024506	68.9123	-0.904852	-1.181996E+12	2.073263E-14	NaN
682	1.000000	0.212656	7.37172e+06	-42989.1	1005.82	-29780.7	0.000000	0.000000	6.212801	-0.038924	NaN	0.000000	0.001616	0.001744	28.0823	0.075861	0.001982	38.2697	87.9504	10.7248	-0.052806	0.211306	-0.895097	-0.896446	-0.038924	38.2697	-0.894334	-8.521101E+11	4.567913E-14	NaN
682	1.000000	0.222676	7.37172e+06	-42989.1	1005.82	-29780.7	0.000000	0.000000	6.222823	-0.007593	NaN	0.000000	0.001685	0.001762	28.0825	0.079418	0.002042	38.8939	30.6244	-165.461	-0.036726	0.221355	-0.885077	-0.886397	-0.007593	38.8939	-0.884930	-6.358818E+11	1.194025E-14	NaN
682	1.000000	0.232680	7.37172e+06	-42989.1	1005.82	-29780.7	0.000000	0.000000	6.232826	-0.033564	NaN	0.000000	0.001632	0.001729	28.0824	0.029241	0.002061	14.187	-105.216	12.9119	-0.040800	0.231314	-0.875073	-0.876439	-0.033564	14.187	-0.873298	-4.426539E+11	7.582477E-14	NaN
682	1.000000	0.242682	7.37172e+06	-42989.1	1005.82	-29780.7	0.000000	0.000000	6.242828	-0.039206	NaN	0.000000	0.001578	0.001731	28.0827	0.058915	0.001938	30.4044	138.626	-161.858	-0.053102	0.241381	-0.865070	-0.866372	-0.039206	30.4044	-0.864103	-3.323926E+11	1.179501E-13	NaN
682	1.000000	0.252699	7.37172e+06	-42989.1	1005.82	-29780.7	0.000000	0.000000	6.252846	-0.012696	NaN	0.000000	0.001597	0.001754	28.0828	0.059206	0.001940	30.5143	49.1833	14.5073	0.017098	0.251298	-0.855053	-0.856454	-0.012696	30.5143	-0.854741	-2.482765E+11	5.113460E-14	NaN
682	1.000000	0.262693	7.37172e+06	-42989.1	1005.82	-29780.7	0.000000	0.000000	6.262837	-0.079945	NaN	0.000000	0.001551	0.001807	28.0817	0.059922	0.001994	30.0512	11.6326	-163.874	-0.051193	0.261358	-0.845059	-0.846394	-0.079945	30.0512	-0.843064	-1.725041E+11	4.634379E-13	NaN
682	1.000000	0.272682	7.37172e+06	-42989.1	1005.82	-29780.7	0.000000	0.000000	6.272830	0.020904	NaN	0.000000	0.001597	0.001764	28.0813	0.136168	0.001906	71.4271	159.18	13.389	-0.018836	0.271337	-0.835071	-0.836415	0.020904	71.4271	-0.835290	-1.353560E+11	-1.544377E-13	NaN
682	1.000000	0.282717	7.37172e+06	-42989.1	1005.82	-29780.7	0.000000	0.000000	6.282863	-0.036669	NaN	0.000000	0.001567	0.001757	28.0816	0.049693	0.002062	24.1046	-92.3117	-165.388	-0.041094	0.281368	-0.825036	-0.826385	-0.036669	24.1046	-0.823895	-9.484651E+10	3.866105E-13	NaN
682	1.000000	0.292717	7.37172e+06	-42989.1	1005.82	-29780.7	0.000000	0.000000	6.292864	-0.014993	NaN	0.000000	0.001579	0.001739	28.0817	0.077567	0.001913	40.5466	-176.349	17.9855	-0.079322	0.291339	-0.815035	-0.816413	-0.014993	40.5466	-0.814758	-7.130363E+10	2.102660E-13	NaN
682	1.000000	0.302694	7.37172e+06	-42989.1	1005.82	-29780.7	0.000000	0.000000	6.302845	0.090806	NaN	0.000000	0.001583	0.001753	28.0815	0.080104	0.001867	42.8957	176.694	-165.871	0.101544	0.301425	-0.805059	-0.806327	0.090806	42.8957	-0.806646	-5.534348E+10	-1.640775E-12	NaN
682	1.000000	0.312709	7.37172e+06	-42989.1	1005.82	-29780.7	0.000000	0.000000	6.312856	-0.012198	NaN	0.000000	0.001587	0.001777	28.0815	0.088341	0.002014	43.865	143.252	14.9829	0.007768	0.311371	-0.795043	-0.796382	-0.012198	43.865	-0.794835	-3.825951E+10	3.188356E-13	NaN
682	1.000000	0.322744	7.37172e+06	-42989.1	1005.82	-29780.7	0.000000	0.000000	6.322890	-0.020359	NaN	0.000000	0.001578	0.001737	28.0816	0.107166	0.002054	52.1834	-65.2064	-165.38	-0.034581	0.321394	-0.785008	-0.786359	-0.020359	52.1834	-0.784716	-2.788090E+10	7.301979E-13	NaN
682	1.000000	0.332697	7.37172e+06	-42989.1	1005.82	-29780.7	0.000000	0.000000	6.332842	-0.067623	NaN	0.000000	0.001549	0.001739	28.0816	0.091746	0.001992	46.066	149.702	14.2976	-0.039217	0.331321	-0.775055	-0.776432	-0.067623	46.066	-0.773954	-1.990975E+10	3.396488E-12	NaN
682	1.000000	0.342733	7.37172e+06	-42989.1	1005.82	-29780.7	0.000000	0.000000	6.342879	-0.041010	NaN	0.000000	0.001571	0.001772	28.0812	0.077946	0.002027	38.4519	-43.2669	-166.912	-0.078857	0.341401	-0.765019	-0.766351	-0.041010	38.4519	-0.764219	-1.467880E+10	2.793810E-12	NaN
682	1.000000	0.352722	7.37172e+06	-42989.1	1005.82	-29780.7	0.000000	0.000000	6.352867	-0.059518	NaN	0.000000	0.001533	0.001757	28.0811	0.098909	0.002019	48.9886	-21.5344	13.7756	0.017554	0.351350	-0.755030	-0.756402	-0.059518	48.9886	-0.754119	-1.069744E+10	5.563729E-12	NaN
682	1.000000	0.362732	7.37172e+06	-42989.1	1005.82	-29780.7	0.000000	0.000000	6.362878	-0.049769	NaN	0.000000	0.001596	0.001769	28.0815	0.114339	0.002173	52.6079	171.978	-166.613	-0.044917	0.361386	-0.745020	-0.746367	-0.049769	52.6079	-0.744311	-7.866131E+9	6.326949E-12	NaN
682	1.000000	0.372733	7.37172e+06	-42989.1	1005.82	-29780.7	0.000000	0.000000	6.372883	0.075527	NaN	0.000000	0.001594	0.001752	28.0815	0.111851	0.001973	56.6826	121.176	15.9926	0.050505	0.371366	-0.735020	-0.736386	0.075527	56.6826	-0.736019	-6.064930E+9	-1.245305E-11	NaN
682	1.000000	0.382748	7.37172e+06	-42989.1	1005.82	-29780.7	0.000000	0.000000	6.382897	0.016744	NaN	0.000000	0.001565	0.001775	28.0811	0.023135	0.002105	10.9913	-47.9824	-166.956	-0.055287	0.381447	-0.725004	-0.726305	0.016744	10.9913	-0.726146	-4.449176E+9	-3.763340E-12	NaN
682	1.000000	0.392745	7.37172e+06	-42989.1	1005.82	-29780.7	0.000000	0.000000	6.392890	-0.061281	NaN	0.000000	0.001593	0.001782	28.0811	0.092022	0.002034	45.2314	-138.086	16.2419	-0.021351	0.391378	-0.715008	-0.716374	-0.061281	45.2314	-0.713991	-3.037473E+9	2.017502E-11	NaN
682	1.000000	0.402770	7.37172e+06	-42989.1	1005.82	-29780.7	0.000000	0.000000	6.402919	0.031783	NaN	0.000000	0.001570	0.001737	28.0829	0.054068	0.001916	28.2255	160.625	-165.529	-0.021840	0.401407	-0.704982	-0.706346	0.031783	28.2255	-0.705827	-2.350112E+9	-1.352398E-11	NaN
682	1.000000	0.412744	7.37172e+06	-42989.1	1005.82	-29780.7	0.000000	0.000000	6.412891	-3.816238E-5	NaN	0.000000	0.001581	0.001715	28.0825	0.043716	0.001999	21.8637	-100.019	11.5362	-0.001896	0.411367	-0.695008	-0.696385	-3.816238E-5	21.8637	-0.695007	-1.672376E+9	2.281927E-14	NaN
682	1.000000	0.422766	7.37172e+06	-42989.1	1005.82	-29780.7	0.000000	0.000000	6.422911	-0.047975	NaN	0.000000	0.001594	0.001736	28.0826	0.048263	0.002014	23.9646	127.281	-165.384	-0.027226	0.421428	-0.684986	-0.686324	-0.047975	23.9646	-0.683485	-1.163749E+9	4.122474E-11	NaN
682	1.000000	0.432755	7.37172e+06	-42989.1	1005.82	-29780.7	0.000000	0.000000	6.432900	-0.056621	NaN	0.000000	0.001591	0.001740	28.0826	0.029374	0.002009	14.6185	17.8365	10.5995	-0.054731	0.431398	-0.674997	-0.676354	-0.056621	14.6185	-0.672092	-8.128788E+8	6.965432E-11	NaN
682	1.000000	0.442780	7.37172e+06	-42989.1	1005.82	-29780.7	0.000000	0.000000	6.442926	-0.033780	NaN	0.000000	0.001583	0.001729	28.0829	0.087990	0.001874	46.9613	-8.134350	-162.205	-0.022226	0.441431	-0.664972	-0.666321	-0.033780	46.9613	-0.664432	-6.385160E+8	5.290419E-11	NaN
682	1.000000	0.452760	7.37172e+06	-42989.1	1005.82	-29780.7	0.000000	0.000000	6.452907	-0.028091	NaN	0.000000	0.001565	0.001724	28.0824	0.073068	0.002015	36.2678	11.2543	17.1247	0.032676	0.451470	-0.654992	-0.656282	-0.028091	36.2678	-0.654411	-4.654731E+8	6.034839E-11	NaN
682	1.000000	0.462764	7.37172e+06	-42989.1	1005.82	-29780.7	0.000000	0.000000	6.462909	-0.051075	NaN	0.000000	0.001550	0.001745	28.0825	0.045010	0.001980	22.737	-141.997	-165.302	-0.051272	0.461503	-0.644988	-0.646250	-0.051075	22.737	-0.643304	-3.278026E+8	1.558104E-10	NaN
682	1.000000	0.472775	7.37172e+06	-42989.1	1005.82	-29780.7	0.000000	0.000000	6.472921	-0.017925	NaN	0.000000	0.001558	0.001747	28.0825	0.042090	0.001920	21.9269	113.072	16.7265	0.046987	0.471402	-0.634978	-0.636350	-0.017925	21.9269	-0.634365	-2.471439E+8	7.252920E-11	NaN
682	1.000000	0.482772	7.37172e+06	-42989.1	1005.82	-29780.7	0.000000	0.000000	6.482921	0.030669	NaN	0.000000	0.001586	0.001742	28.0825	0.020517	0.001918	10.699	125.645	-164.394	0.029906	0.481535	-0.624980	-0.626217	0.030669	10.699	-0.627130	-1.966093E+8	-1.559902E-10	NaN
682	1.000000	0.492794	7.37172e+06	-42989.1	1005.82	-29780.7	0.000000	0.000000	6.492940	-0.032285	NaN	0.000000	0.001604	0.001739	28.0822	0.050709	0.001994	25.4322	167.66	18.4137	-0.002768	0.491453	-0.614958	-0.616299	-0.032285	25.4322	-0.614006	-1.297845E+8	2.487550E-10	NaN
682	1.000000	0.502787	7.37172e+06	-42989.1	1005.82	-29780.7	0.000000	0.000000	6.502933	-0.025197	NaN	0.000000	0.001600	0.001729	28.0825	0.087841	0.001978	44.3985	-178.652	-168.492	-5.680801E-5	0.501528	-0.604965	-0.606224	-0.025197	44.3985	-0.604540	-9.615374E+7	2.620531E-10	NaN
682	1.000000	0.512821	7.37172e+06	-42989.1	1005.82	-29780.7	0.000000	0.000000	6.512966	-0.049477	NaN	0.000000	0.001563	0.001746	28.0826	0.069896	0.001891	36.9723	113.988	16.2215	0.050504	0.511456	-0.594932	-0.596296	-0.049477	36.9723	-0.593928	-6.867658E+7	7.204388E-10	NaN
682	1.000000	0.522817	7.37172e+06	-42989.1	1005.82	-29780.7	0.000000	0.000000	6.522967	0.052220	NaN	0.000000	0.001580	0.001755	28.0825	0.049614	0.002002	24.7847	85.2714	-166.907	0.030839	0.521489	-0.584935	-0.586263	0.052220	24.7847	-0.586515	-5.427676E+7	-9.621122E-10	NaN
682	1.000000	0.532770	7.37172e+06	-42989.1	1005.82	-29780.7	0.000000	0.000000	6.532915	-0.067608	NaN	0.000000	0.001562	0.001779	28.0824	0.084468	0.002089	40.4253	142.539	15.1777	-0.109597	0.531493	-0.574982	-0.576259	-0.067608	40.4253	-0.573728	-3.615165E+7	1.870131E-9	NaN
682	1.000000	0.542811	7.37172e+06	-42989.1	1005.82	-29780.7	0.000000	0.000000	6.542959	-0.001718	NaN	0.000000	0.001576	0.001730	28.0812	0.070374	0.001843	38.1746	-24.5713	-163.181	-0.030899	0.541512	-0.564941	-0.566241	-0.001718	38.1746	-0.564907	-2.730500E+7	6.291355E-11	NaN
682	1.000000	0.552812	7.37172e+06	-42989.1	1005.82	-29780.7	0.000000	0.000000	6.552957	-0.052464	NaN	0.000000	0.001596	0.001727	28.0813	0.055685	0.002069	26.9153	-78.5632	15.086	-0.069514	0.551515	-0.554941	-0.556237	-0.052464	26.9153	-0.553479	-1.897265E+7	2.765241E-9	NaN
682	1.000000	0.562825	7.37172e+06	-42989.1	1005.82	-29780.7	0.000000	0.000000	6.562972	-0.008979	NaN	0.000000	0.001633	0.001744	28.0812	0.054644	0.002091	26.1337	-87.6796	-164.856	-0.045320	0.561544	-0.544928	-0.546209	-0.008979	26.1337	-0.544670	-1.432530E+7	6.267746E-10	NaN
682	1.000000	0.572794	7.37172e+06	-42989.1	1005.82	-29780.7	0.000000	0.000000	6.572939	-0.063520	NaN	0.000000	0.001644	0.001762	28.0815	0.100564	0.001999	50.3047	100.726	16.5073	-0.119701	0.571464	-0.534958	-0.536289	-0.063520	50.3047	-0.534011	-1.019220E+7	6.232184E-9	NaN
682	1.000000	0.582808	7.37172e+06	-42989.1	1005.82	-29780.7	0.000000	0.000000	6.582953	-0.056078	NaN	0.000000	0.001610	0.001769	28.0812	0.054881	0.001938	28.3181	87.2894	-165.813	-0.044599	0.581547	-0.524945	-0.526205	-0.056078	28.3181	-0.523460	-7.27277e+06	7.710734E-9	NaN
682	1.000000	0.592844	7.37172e+06	-42989.1	1005.82	-29780.7	0.000000	0.000000	6.592989	-0.061907	NaN	0.000000	0.001585	0.001784	28.0812	0.101969	0.001898	53.7358	128.258	15.6167	-0.065938	0.591437	-0.514908	-0.516315	-0.061907	53.7358	-0.514044	-5.37934e+06	1.150824E-8	NaN
682	1.000000	0.602826	7.37172e+06	-42989.1	1005.82	-29780.7	0.000000	0.000000	6.602971	-0.051600	NaN	0.000000	0.001616	0.001774	28.0812	0.104664	0.002122	49.3139	109.803	-166.137	0.042632	0.601480	-0.504926	-0.506272	-0.051600	49.3139	-0.504142	-3.91541e+06	1.317879E-8	NaN
682	1.000000	0.612809	7.37172e+06	-42989.1	1005.82	-29780.7	0.000000	0.000000	6.612954	-0.062900	NaN	0.000000	0.001617	0.001740	28.0811	0.074843	0.002052	36.4751	-81.6582	14.0242	-0.016665	0.611507	-0.494944	-0.496246	-0.062900	36.4751	-0.493650	-2.79502e+06	2.250437E-8	NaN
682	1.000000	0.622859	7.37172e+06	-42989.1	1005.82	-29780.7	0.000000	0.000000	6.623006	-0.026588	NaN	0.000000	0.001653	0.001733	28.0817	0.038971	0.001956	19.9241	97.8164	-165.287	-0.039060	0.621509	-0.484893	-0.486243	-0.026588	19.9241	-0.483892	-2.04171e+06	1.302239E-8	NaN
682	1.000000	0.632837	7.37172e+06	-42989.1	1005.82	-29780.7	0.000000	0.000000	6.632982	-0.062340	NaN	0.000000	0.001607	0.001769	28.0813	0.027606	0.001949	14.1635	-179.777	16.0625	0.019784	0.631473	-0.474915	-0.476279	-0.062340	14.1635	-0.471614	-1.37417e+06	4.536566E-8	NaN
682	1.000000	0.642849	7.37172e+06	-42989.1	1005.82	-29780.7	0.000000	0.000000	6.642994	-0.054756	NaN	0.000000	0.001604	0.001732	28.0814	0.020589	0.002024	10.1742	-116.293	-165.176	0.025647	0.641514	-0.464904	-0.466238	-0.054756	10.1742	-0.460867	-970965	5.639303E-8	NaN
682	1.000000	0.652856	7.37172e+06	-42989.1	1005.82	-29780.7	0.000000	0.000000	6.653004	0.011718	NaN	0.000000	0.001607	0.001781	28.0811	0.040350	0.002091	19.2985	108.112	16.3529	0.008869	0.651482	-0.454896	-0.456270	0.011718	19.2985	-0.455352	-812202	-1.442762E-8	NaN
682	1.000000	0.662865	7.37172e+06	-42989.1	1005.82	-29780.7	0.000000	0.000000	6.663012	-0.008821	NaN	0.000000	0.001614	0.001776	28.0817	0.104153	0.001978	52.6429	49.8145	-163.085	0.011828	0.661557	-0.444887	-0.446196	-0.008821	52.6429	-0.444761	-576139	1.530981E-8	NaN
682	1.000000	0.672854	7.37172e+06	-42989.1	1005.82	-29780.7	0.000000	0.000000	6.673002	0.029336	NaN	0.000000	0.001593	0.001760	28.0824	0.055621	0.002069	26.878	-140.856	14.7399	0.014205	0.671495	-0.434899	-0.436257	0.029336	26.878	-0.435717	-429426	-6.831424E-8	NaN
682	1.000000	0.682862	7.37172e+06	-42989.1	1005.82	-29780.7	0.000000	0.000000	6.683009	-0.026580	NaN	0.000000	0.001610	0.001768	28.0826	0.041457	0.002005	20.6786	-130.695	-165.778	-0.062803	0.681588	-0.424890	-0.426165	-0.026580	20.6786	-0.423926	-292461	9.088337E-8	NaN
682	1.000000	0.692845	7.37172e+06	-42989.1	1005.82	-29780.7	0.000000	0.000000	6.692991	-0.025398	NaN	0.000000	0.001579	0.001733	28.0824	0.076819	0.002057	37.3365	-113.901	15.1358	-0.053225	0.691504	-0.414908	-0.416248	-0.025398	37.3365	-0.414398	-214239	1.185502E-7	NaN
682	1.000000	0.702895	7.37172e+06	-42989.1	1005.82	-29780.7	0.000000	0.000000	6.703042	-0.027376	NaN	0.000000	0.001635	0.001781	28.0828	0.126157	0.002009	62.7889	119.201	-166.697	-0.015877	0.701583	-0.404857	-0.406169	-0.027376	62.7889	-0.404530	-155079	1.765306E-7	NaN
682	1.000000	0.712890	7.37173e+06	-42989.1	1005.82	-29780.7	0.000000	0.000000	6.713038	0.017878	NaN	0.000000	0.001611	0.001779	28.0824	0.058363	0.001991	29.3116	-34.6192	13.1314	0.044756	0.711480	-0.394862	-0.396272	0.017878	29.3116	-0.395320	-114605	-1.559997E-7	NaN
682	1.000000	0.722885	7.37173e+06	-42989.1	1005.82	-29780.7	0.000000	0.000000	6.723031	-0.052364	NaN	0.000000	0.001599	0.001807	28.0827	0.069611	0.001896	36.7232	52.2271	-162.994	-0.021704	0.721533	-0.384867	-0.386220	-0.052364	36.7232	-0.383798	-78406.9	6.678470E-7	NaN
682	1.000000	0.732887	7.37173e+06	-42989.1	1005.82	-29780.7	0.000000	0.000000	6.733034	-0.017372	NaN	0.000000	0.001597	0.001787	28.0826	0.092488	0.002096	44.1297	64.5833	15.5084	-0.065047	0.731573	-0.374865	-0.376180	-0.017372	44.1297	-0.374570	-57794.5	3.005801E-7	NaN
682	1.000000	0.742891	7.37173e+06	-42989.1	1005.82	-29780.7	0.000000	0.000000	6.743035	-0.084822	NaN	0.000000	0.001591	0.001820	28.0827	0.028483	0.001994	14.2848	23.4582	-164.745	-0.124665	0.741588	-0.364861	-0.366164	-0.084822	14.2848	-0.360408	-36119.3	2.348394E-6	NaN
682	1.000000	0.752890	7.37173e+06	-42989.1	1005.82	-29780.7	0.000000	0.000000	6.753038	0.007245	NaN	0.000000	0.001570	0.001799	28.0823	0.132492	0.001904	69.5918	-132.573	14.5805	0.049031	0.751605	-0.354862	-0.356148	0.007245	69.5918	-0.354941	-30104.8	-2.406457E-7	NaN
682	1.000000	0.762900	7.37173e+06	-42989.1	1005.82	-29780.7	0.000000	0.000000	6.763045	-0.057389	NaN	0.000000	0.001602	0.001801	28.0825	0.067512	0.001967	34.3179	109.768	-169.074	0.013042	0.761596	-0.344852	-0.346156	-0.057389	34.3179	-0.343598	-20604.2	2.785314E-6	NaN
682	1.000000	0.772879	7.37173e+06	-42989.1	1005.82	-29780.7	0.000000	0.000000	6.773026	-0.019984	NaN	0.000000	0.001594	0.001817	28.0828	0.017300	0.002021	8.559647	144.042	18.1979	-0.086699	0.771526	-0.334873	-0.336227	-0.019984	8.559647	-0.333122	-14492.3	1.378956E-6	NaN
682	1.000000	0.782880	7.37173e+06	-42989.1	1005.82	-29780.7	0.000000	0.000000	6.783026	-0.036642	NaN	0.000000	0.001594	0.001822	28.0825	0.071124	0.002034	34.9667	-51.9681	-165.986	-0.024108	0.781522	-0.324872	-0.326230	-0.036642	34.9667	-0.324086	-10683.7	3.429668E-6	NaN
682	1.000000	0.792890	7.37173e+06	-42989.1	1005.82	-29780.7	0.000000	0.000000	6.793038	0.018915	NaN	0.000000	0.001621	0.001835	28.0822	0.111527	0.001893	58.921	129.565	15.3067	-0.003494	0.791593	-0.314863	-0.316159	0.018915	58.921	-0.315103	-7879.07	-2.400675E-6	NaN
682	1.000000	0.802931	7.37173e+06	-42989.1	1005.82	-29780.7	0.000000	0.000000	6.803079	0.008455	NaN	0.000000	0.001615	0.001816	28.0825	0.121421	0.002067	58.7507	-174.327	-167.979	-0.053694	0.801596	-0.304822	-0.306157	0.008455	58.7507	-0.304929	-5570.68	-1.517804E-6	NaN
682	1.000000	0.812884	7.37173e+06	-42989.1	1005.82	-29780.7	0.000000	0.000000	6.813027	-0.102404	NaN	0.000000	0.001622	0.001827	28.0811	0.035828	0.001935	18.52	-93.7103	11.6417	-0.104377	0.811571	-0.294869	-0.296181	-0.102404	18.52	-0.290722	-3420.67	2.993687E-5	NaN
682	1.000000	0.822936	7.37173e+06	-42989.1	1005.82	-29780.7	0.000000	0.000000	6.823079	-0.100692	NaN	0.000000	0.001587	0.001794	28.081	0.043164	0.002118	20.3786	92.7015	-159.92	-0.062212	0.821638	-0.284817	-0.286114	-0.100692	20.3786	-0.281111	-2453.14	4.104626E-5	NaN
682	1.000000	0.832930	7.37173e+06	-42989.1	1005.82	-29780.7	0.000000	0.000000	6.833077	0.001736	NaN	0.000000	0.001583	0.001779	28.0811	0.075303	0.001852	40.6582	146.588	15.2685	-0.057905	0.831572	-0.274822	-0.276180	0.001736	40.6582	-0.274854	-1973.31	-8.798218E-7	NaN
682	1.000000	0.842951	7.37173e+06	-42989.1	1005.82	-29780.7	0.000000	0.000000	6.843099	0.004293	NaN	0.000000	0.001662	0.001758	28.0814	0.101415	0.002043	49.6341	-44.969	-163.769	-0.015088	0.841620	-0.264801	-0.266132	0.004293	49.6341	-0.264866	-1391.04	-3.086085E-6	NaN
682	1.000000	0.852911	7.37173e+06	-42989.1	1005.82	-29780.7	0.000000	0.000000	6.853059	-0.002771	NaN	0.000000	0.001681	0.001759	28.081	0.062149	0.002083	29.8321	-154.867	17.5182	0.014565	0.851519	-0.254841	-0.256233	-0.002771	29.8321	-0.254771	-974.079	2.845071E-6	NaN
682	1.000000	0.862914	7.37173e+06	-42989.1	1005.82	-29780.7	0.000000	0.000000	6.863061	-0.006616	NaN	0.000000	0.001662	0.001767	28.0813	0.016113	0.002074	7.769596	43.8688	-164.655	-0.042901	0.861618	-0.244838	-0.246134	-0.006616	7.769596	-0.244200	-668.361	9.899067E-6	NaN
682	1.000000	0.872923	7.37173e+06	-42989.1	1005.82	-29780.7	0.000000	0.000000	6.873072	0.022600	NaN	0.000000	0.001697	0.001746	28.081	0.091588	0.001808	50.6463	-95.5326	12.6052	0.083051	0.871582	-0.234829	-0.236170	0.022600	50.6463	-0.235163	-482.854	-4.680430E-5	NaN
682	1.000000	0.882955	7.37173e+06	-42989.1	1005.82	-29780.7	0.000000	0.000000	6.883104	0.028207	NaN	0.000000	0.001623	0.001727	28.0813	0.064219	0.002011	31.9304	134.133	-165.458	0.004266	0.881683	-0.224797	-0.226069	0.028207	31.9304	-0.225459	-339.337	-8.312505E-5	NaN
682	1.000000	0.892963	7.37173e+06	-42989.1	1005.82	-29780.7	0.000000	0.000000	6.893110	-0.012002	NaN	0.000000	0.001591	0.001733	28.0811	0.050736	0.002108	24.0634	-162.15	15.0203	-0.039932	0.891564	-0.214789	-0.216188	-0.012002	24.0634	-0.214415	-225.994	5.310576E-5	NaN
682	1.000000	0.902949	7.37173e+06	-42989.1	1005.82	-29780.7	0.000000	0.000000	6.903096	-0.013052	NaN	0.000000	0.001579	0.001726	28.0812	0.099856	0.002028	49.2357	154.336	-167.05	-0.040762	0.901649	-0.204804	-0.206104	-0.013052	49.2357	-0.204605	-156.715	8.328735E-5	NaN
682	1.000000	0.912961	7.37173e+06	-42989.1	1005.82	-29780.7	0.000000	0.000000	6.913108	0.000638	NaN	0.000000	0.001567	0.001732	28.0814	0.085768	0.001961	43.7328	31.3588	13.1004	0.087733	0.911629	-0.194792	-0.196124	0.000638	43.7328	-0.194803	-108.127	-5.900406E-6	NaN
682	1.000000	0.922961	7.37173e+06	-42989.1	1005.82	-29780.7	0.000000	0.000000	6.923107	-0.028770	NaN	0.000000	0.001546	0.001702	28.0812	0.088766	0.002101	42.2449	92.4019	-167.018	-0.036359	0.921678	-0.184792	-0.186075	-0.028770	42.2449	-0.184281	-72.1114	0.000399	NaN
682	1.000000	0.932968	7.37173e+06	-42989.1	1005.82	-29780.7	0.000000	0.000000	6.933112	-0.077013	NaN	0.000000	0.001567	0.001726	28.0812	0.133258	0.001988	67.0438	174.12	15.573	-0.091122	0.931526	-0.174784	-0.176226	-0.077013	67.0438	-0.173923	-48.0226	0.001604	NaN
682	1.000000	0.942963	7.37173e+06	-42989.1	1005.82	-29780.7	0.000000	0.000000	6.943110	-0.017136	NaN	0.000000	0.001598	0.001724	28.0812	0.101539	0.002063	49.2085	-37.1555	-169.254	0.018930	0.941625	-0.164789	-0.166127	-0.017136	49.2085	-0.164528	-32.9622	0.000520	NaN
682	1.000000	0.952983	7.37173e+06	-42989.1	1005.82	-29780.7	0.000000	0.000000	6.953127	-0.087417	NaN	0.000000	0.001569	0.001715	28.0827	0.071838	0.002060	34.8677	-157.397	15.1373	-0.023136	0.951632	-0.154769	-0.156120	-0.087417	34.8677	-0.152889	-20.4404	0.004277	NaN
682	1.000000	0.962971	7.37173e+06	-42989.1	1005.82	-29780.7	0.000000	0.000000	6.963117	-0.024644	NaN	0.000000	0.001599	0.001727	28.0825	0.024403	0.002019	12.0881	171.007	-168.007	0.000902	0.961628	-0.144781	-0.146124	-0.024644	12.0881	-0.143252	-13.6066	0.001811	NaN
682	1.000000	0.972978	7.37173e+06	-42989.1	1005.82	-29780.7	0.000000	0.000000	6.973124	-0.042907	NaN	0.000000	0.001592	0.001708	28.0828	0.087765	0.001843	47.6274	-165.944	11.0982	-0.052180	0.971642	-0.134774	-0.136111	-0.042907	47.6274	-0.134098	-9.142136	0.004693	NaN
682	1.000000	0.982988	7.37173e+06	-42989.1	1005.82	-29780.7	0.000000	0.000000	6.983135	-0.031294	NaN	0.000000	0.001589	0.001698	28.0826	0.043097	0.002008	21.4627	135.223	-165.542	0.045776	0.981674	-0.124764	-0.126078	-0.031294	21.4627	-0.123670	-5.722882	0.005468	NaN
682	1.000000	0.992992	7.37173e+06	-42989.1	1005.82	-29780.7	0.000000	0.000000	6.993137	-0.048964	NaN	0.000000	0.001571	0.001761	28.0825	0.092459	0.002000	46.2339	-34.2174	12.5772	-0.003339	0.991644	-0.114760	-0.116108	-0.048964	46.2339	-0.113966	-3.637005	0.013463	NaN
682	1.000000	1.002999	7.37173e+06	-42989.1	1005.82	-29780.7	0.000000	0.000000	7.003146	-0.018758	NaN	0.000000	0.001570	0.001749	28.0823	0.109240	0.002049	53.3038	123.03	-166.014	0.069567	1.001666	-0.104753	-0.106086	-0.018758	53.3038	-0.104489	-2.291513	0.008186	NaN
682	1.000000	1.013007	7.37173e+06	-42989.1	1005.82	-29780.7	0.000000	0.000000	7.013154	-0.004758	NaN	0.000000	0.001601	0.001734	28.0824	0.123597	0.002039	60.6131	39.119	15.0209	-0.024868	1.011633	-0.094745	-0.096119	-0.004758	60.6131	-0.094686	-1.387592	0.003429	NaN
682	1.000000	1.023004	7.37173e+06	-42989.1	1005.82	-29780.7	0.000000	0.000000	7.023150	-0.018111	NaN	0.000000	0.001565	0.001735	28.0826	0.080003	0.002029	39.4369	-158.071	-167.076	-0.042079	1.021701	-0.084749	-0.086052	-0.018111	39.4369	-0.084404	-0.794756	0.022788	NaN
682	1.000000	1.033014	7.37173e+06	-42989.1	1005.82	-29780.7	0.000000	0.000000	7.033162	0.009435	NaN	0.000000	0.001606	0.001701	28.0828	0.102723	0.001917	53.574	114.179	12.6559	-0.044300	1.031635	-0.074738	-0.076117	0.009435	53.574	-0.074870	-0.458313	-0.020586	NaN
682	1.000000	1.043016	7.37173e+06	-42989.1	1005.82	-29780.7	0.000000	0.000000	7.043163	-0.023641	NaN	0.000000	0.001576	0.001719	28.0825	0.070079	0.001963	35.7004	61.4906	-165.908	-0.024455	1.041728	-0.064736	-0.066024	-0.023641	35.7004	-0.064240	-0.237370	0.099595	NaN
682	1.000000	1.053021	7.37173e+06	-42989.1	1005.82	-29780.7	0.000000	0.000000	7.053170	0.021328	NaN	0.000000	0.001602	0.001706	28.0826	0.098214	0.001983	49.522	153.353	17.517	-0.003914	1.051639	-0.054731	-0.056113	0.021328	49.522	-0.055054	-0.129252	-0.165012	NaN
682	1.000000	1.063008	7.37173e+06	-42989.1	1005.82	-29780.7	0.000000	0.000000	7.063159	0.090823	NaN	0.000000	0.001577	0.001708	28.0827	0.055932	0.001895	29.5201	174.282	-167.948	0.058662	1.061738	-0.044744	-0.046014	0.090823	29.5201	-0.047052	-0.074246	-1.223283	NaN
682	1.000000	1.073044	7.37173e+06	-42989.1	1005.82	-29780.7	0.000000	0.000000	7.073191	0.007266	NaN	0.000000	0.001586	0.001690	28.0828	0.062410	0.002074	30.0933	-176.414	15.6585	0.016824	1.071666	-0.034709	-0.036086	0.007266	30.0933	-0.034890	-0.031786	-0.228602	NaN
682	1.000000	1.083008	7.37173e+06	-42989.1	1005.82	-29780.7	0.000000	0.000000	7.083155	-0.013190	NaN	0.000000	0.001589	0.001738	28.0813	0.070807	0.002041	34.6901	-135.572	-166.024	-0.030672	1.081686	-0.024745	-0.026066	-0.013190	34.6901	-0.024459	-0.016332	0.807593	NaN
682	1.000000	1.093052	7.37173e+06	-42989.1	1005.82	-29780.7	0.000000	0.000000	7.093199	-0.011098	NaN	0.000000	0.001584	0.001732	28.0816	0.080765	0.002073	38.9643	111.86	17.939	-0.062145	1.091699	-0.014701	-0.016053	-0.011098	38.9643	-0.014487	-0.008970	1.237277	NaN
682	1.000000	1.103039	7.37173e+06	-42989.1	1005.82	-29780.7	0.000000	0.000000	7.103197	0.251403	NaN	0.000000	0.001652	0.001734	28.0815	0.491702	0.001902	258.57	20.2849	-169.611	-0.004682	1.101784	-0.004713	-0.005968	0.251403	258.57	-0.005443	-0.003693	-68.0761	NaN
682	2.000000	1.112029	7.37173e+06	-42989.1	1005.82	-29780.7	0.000000	0.000000	7.112559	9.319805	NaN	0.000000	0.001656	0.001708	28.0816	9.172329	0.001666	5505.42	8.141087	7.842199	8.437029	1.111443	0.004276	0.003691	9.319805	5505.42	0.003007	0.002385	3906.91	102986
682	2.000000	1.114537	7.37173e+06	-42989.1	1005.82	-29780.7	0.000000	0.000000	7.115162	11.6245	NaN	0.000000	0.001679	0.001757	28.0814	12.1778	0.001713	7110.34	7.754578	-174.984	10.8454	1.114339	0.006784	0.006586	11.6245	7110.34	0.005558	0.004649	2500.62	95279.7
682	2.000000	1.117072	7.37173e+06	-42989.1	1005.82	-29780.7	0.000000	0.000000	7.117925	17.1679	NaN	0.000000	0.001642	0.001714	28.0823	14.7054	0.001776	8280.79	8.440982	5.969353	16.6412	1.116651	0.009320	0.008899	17.1679	8280.79	0.007765	0.006801	2524.18	91737.5
682	2.000000	1.119517	7.37173e+06	-42989.1	1005.82	-29780.7	0.000000	0.000000	7.120542	21.3572	NaN	0.000000	0.001658	0.001723	28.0816	17.2148	0.001694	10162.3	6.972986	-175.692	20.8495	1.119183	0.011765	0.011430	21.3572	10162.3	0.010188	0.009392	2274.09	95807
682	2.000000	1.122010	7.37173e+06	-42989.1	1005.82	-29780.7	0.000000	0.000000	7.123249	26.5625	NaN	0.000000	0.001670	0.001732	28.0817	20.0703	0.001658	12105.6	5.342177	3.634229	26.2034	1.121608	0.014258	0.013855	26.5625	12105.6	0.012612	0.012231	2171.66	100004
682	2.000000	1.124498	7.37173e+06	-42989.1	1005.82	-29780.7	0.000000	0.000000	7.125948	31.7102	NaN	0.000000	0.001637	0.001702	28.0816	23.4285	0.001991	11769.7	8.115116	-178.231	30.3389	1.124181	0.016745	0.016429	31.7102	11769.7	0.014725	0.014920	2125.37	88034.9
682	2.000000	1.127004	7.37173e+06	-42989.1	1005.82	-29780.7	0.000000	0.000000	7.128702	37.7292	NaN	0.000000	0.001650	0.001741	28.0825	25.5047	0.001735	14703.4	7.505762	-0.260537	37.0907	1.126575	0.019251	0.018823	37.7292	14703.4	0.017327	0.018515	2037.8	98726.6
682	2.000000	1.129485	7.37173e+06	-42989.1	1005.82	-29780.7	0.000000	0.000000	7.131445	44.1084	NaN	0.000000	0.001581	0.001710	28.0815	27.8694	0.001832	15212.8	3.040905	-176.423	43.5669	1.129209	0.021733	0.021457	44.1084	15212.8	0.019558	0.021853	2018.44	94022.1
682	2.000000	1.131910	7.37173e+06	-42989.1	1005.82	-29780.7	0.000000	0.000000	7.134258	53.5322	NaN	0.000000	0.001564	0.001692	28.0818	29.1268	0.001753	16615.7	3.681062	1.588451	50.5441	1.131637	0.024158	0.023885	53.5322	16615.7	0.021742	0.025354	2111.42	95339
682	2.000000	1.134479	7.37173e+06	-42989.1	1005.82	-29780.7	0.000000	0.000000	7.137099	60.1525	NaN	0.000000	0.001608	0.001749	28.0817	32.7924	0.001824	17978.1	4.865832	179.599	58.8857	1.134176	0.026727	0.026424	60.1525	17978.1	0.024217	0.029607	2031.7	95459.4
682	2.000000	1.136986	7.37173e+06	-42989.1	1005.82	-29780.7	0.000000	0.000000	7.139965	68.8909	NaN	0.000000	0.001634	0.001695	28.0818	35.0433	0.001840	19049.4	6.371752	-2.239846	66.6561	1.136655	0.029234	0.028903	68.8909	19049.4	0.026522	0.033842	2035.67	94608
682	2.000000	1.139452	7.37173e+06	-42989.1	1005.82	-29780.7	0.000000	0.000000	7.142747	76.587	NaN	0.000000	0.001646	0.001710	28.0829	37.1736	0.001729	21502.4	4.592384	177.912	75.4857	1.139136	0.031700	0.031384	76.587	21502.4	0.029028	0.038754	1976.25	99793.6
682	2.000000	1.141942	7.37173e+06	-42989.1	1005.82	-29780.7	0.000000	0.000000	7.145779	89.7489	NaN	0.000000	0.001657	0.001706	28.0832	39.8355	0.001717	23205.5	3.882363	-0.497005	89.2737	1.141634	0.034190	0.033882	89.7489	23205.5	0.031289	0.043459	2065.16	101701
682	2.000000	1.144482	7.37173e+06	-42989.1	1005.82	-29780.7	0.000000	0.000000	7.148697	98.9651	NaN	0.000000	0.001632	0.001691	28.083	43.339	0.001852	23398.3	4.102097	179.062	99.7964	1.144158	0.036730	0.036406	98.9651	23398.3	0.033558	0.048441	2042.98	97129.2
682	2.000000	1.146930	7.37173e+06	-42989.1	1005.82	-29780.7	0.000000	0.000000	7.151653	111.307	NaN	0.000000	0.001643	0.001719	28.0829	44.2059	0.001814	24369.4	3.177655	-0.198918	109.08	1.146604	0.039178	0.038851	111.307	24369.4	0.035752	0.053512	2080.02	96247.8
682	2.000000	1.149390	7.37173e+06	-42989.1	1005.82	-29780.7	0.000000	0.000000	7.154719	126.089	NaN	0.000000	0.001624	0.001717	28.083	46.9819	0.001617	29055.7	5.603098	174.028	122.619	1.149104	0.041637	0.041352	126.089	29055.7	0.038383	0.059915	2104.44	108451
682	2.000000	1.151899	7.37173e+06	-42989.1	1005.82	-29780.7	0.000000	0.000000	7.157700	137.533	NaN	0.000000	0.001649	0.001716	28.083	50.7686	0.001876	27059.6	5.490367	-3.786993	134.437	1.151570	0.044147	0.043818	137.533	27059.6	0.040335	0.064898	2119.24	97046.8
682	2.000000	1.154473	7.37173e+06	-42989.1	1005.82	-29780.7	0.000000	0.000000	7.160820	150.823	NaN	0.000000	0.001610	0.001647	28.083	54.5097	0.001971	27660.8	7.748373	172.524	150.473	1.154178	0.046721	0.046425	150.823	27660.8	0.042632	0.071006	2124.08	94839.6
682	2.000000	1.156926	7.37173e+06	-42989.1	1005.82	-29780.7	0.000000	0.000000	7.163822	164.19	NaN	0.000000	0.001589	0.001720	28.0826	55.6337	0.001787	31139	5.519642	-5.752254	161.871	1.156667	0.049174	0.048915	164.19	31139	0.045219	0.078211	2099.32	101729
682	2.000000	1.159422	7.37173e+06	-42989.1	1005.82	-29780.7	0.000000	0.000000	7.166951	179.584	NaN	0.000000	0.001584	0.001708	28.0828	57.6112	0.001760	32730.1	8.166765	170.466	176.85	1.159096	0.051670	0.051344	179.584	32730.1	0.047555	0.085006	2112.61	102564
682	2.000000	1.161882	7.37173e+06	-42989.1	1005.82	-29780.7	0.000000	0.000000	7.169923	192.054	NaN	0.000000	0.001617	0.001698	28.0827	59.3866	0.001722	34490.6	1.490803	-2.212378	189.17	1.161601	0.054130	0.053848	192.054	34490.6	0.049954	0.092270	2081.43	103739
682	2.000000	1.164456	7.37173e+06	-42989.1	1005.82	-29780.7	0.000000	0.000000	7.172982	203.854	NaN	0.000000	0.001587	0.001688	28.0829	62.8685	0.001773	35460.7	3.638036	175.476	204.157	1.164093	0.056704	0.056341	203.854	35460.7	0.052392	0.099951	2039.54	102477
682	2.000000	1.166957	7.37173e+06	-42989.1	1005.82	-29780.7	0.000000	0.000000	7.176244	222.363	NaN	0.000000	0.001592	0.001721	28.0826	63.9758	0.001719	37219.8	4.596610	-5.081424	221.137	1.166481	0.059205	0.058729	222.363	37219.8	0.054724	0.107572	2067.11	103681
682	2.000000	1.169321	7.37173e+06	-42989.1	1005.82	-29780.7	0.000000	0.000000	7.179224	237.348	NaN	0.000000	0.001594	0.001668	28.0826	66.6719	0.001757	37950.1	5.340855	173.003	232.455	1.169042	0.061569	0.061289	237.348	37950.1	0.056878	0.114853	2066.54	102309
682	2.000000	1.171900	7.37173e+06	-42989.1	1005.82	-29780.7	0.000000	0.000000	7.182380	251.396	NaN	0.000000	0.001604	0.001712	28.0825	68.952	0.001723	40012.7	1.330729	-3.424510	249.258	1.171575	0.064147	0.063823	251.396	40012.7	0.059435	0.123791	2030.8	103903
682	2.000000	1.174408	7.37173e+06	-42989.1	1005.82	-29780.7	0.000000	0.000000	7.185465	265.419	NaN	0.000000	0.001617	0.001710	28.0813	72.2082	0.001747	41339	2.117647	175.667	263.427	1.174153	0.066656	0.066401	265.419	41339	0.061840	0.132491	2003.3	103763
682	2.000000	1.176888	7.37173e+06	-42989.1	1005.82	-29780.7	0.000000	0.000000	7.188825	286.828	NaN	0.000000	0.001631	0.001693	28.0816	74.5183	0.001777	41923.9	8.431483	-10.3121	283.751	1.176562	0.069136	0.068810	286.828	41923.9	0.064005	0.140559	2040.61	102166
682	2.000000	1.179397	7.37173e+06	-42989.1	1005.82	-29780.7	0.000000	0.000000	7.192019	303.514	NaN	0.000000	0.001629	0.001736	28.0814	77.4043	0.001840	42059	6.743707	170.566	300.76	1.179094	0.071645	0.071342	303.514	42059	0.066233	0.149101	2035.63	99515.8
682	2.000000	1.181847	7.37173e+06	-42989.1	1005.82	-29780.7	0.000000	0.000000	7.194980	315.946	NaN	0.000000	0.001615	0.001748	28.0817	79.6115	0.001826	43598.2	4.547812	-7.261311	308.45	1.181473	0.074095	0.073720	315.946	43598.2	0.068660	0.158679	1991.1	99995.9
682	2.000000	1.184408	7.37173e+06	-42989.1	1005.82	-29780.7	0.000000	0.000000	7.198230	332.71	NaN	0.000000	0.001625	0.001717	28.0813	81.7924	0.001766	46323.8	3.104440	173.699	330.487	1.184163	0.076656	0.076411	332.71	46323.8	0.071269	0.169290	1965.33	102864
682	2.000000	1.186863	7.37173e+06	-42989.1	1005.82	-29780.7	0.000000	0.000000	7.201579	354.456	NaN	0.000000	0.001635	0.001710	28.0814	83.4065	0.001642	50781.7	3.411393	-7.278629	350.209	1.186628	0.079111	0.078876	354.456	50781.7	0.073876	0.180210	1966.9	109292
682	2.000000	1.189422	7.37173e+06	-42989.1	1005.82	-29780.7	0.000000	0.000000	7.204951	374.239	NaN	0.000000	0.001612	0.001701	28.0814	85.9488	0.001738	49456.6	6.463643	170.128	374.753	1.188979	0.081670	0.081227	374.239	49456.6	0.075995	0.189326	1976.69	103847
682	2.000000	1.191766	7.37173e+06	-42989.1	1005.82	-29780.7	0.000000	0.000000	7.208100	393.808	NaN	0.000000	0.001608	0.001694	28.0815	88.5117	0.001764	50175.6	3.112366	-6.389472	385.672	1.191498	0.084014	0.083745	393.808	50175.6	0.078128	0.198713	1981.8	102838
682	2.000000	1.194373	7.37173e+06	-42989.1	1005.82	-29780.7	0.000000	0.000000	7.211688	417.694	NaN	0.000000	0.001598	0.001741	28.0815	90.1028	0.001701	52971	0.385715	176.174	414.567	1.193994	0.086621	0.086242	417.694	52971	0.080707	0.210348	1985.73	105522
682	2.000000	1.196886	7.37173e+06	-42989.1	1005.82	-29780.7	0.000000	0.000000	7.214874	434.079	NaN	0.000000	0.001584	0.001758	28.0814	93.642	0.001788	52381.8	4.512442	-8.476780	429.545	1.196496	0.089134	0.088743	434.079	52381.8	0.082918	0.220572	1967.97	101901
682	2.000000	1.199332	7.37173e+06	-42989.1	1005.82	-29780.7	0.000000	0.000000	7.218322	458.454	NaN	0.000000	0.001593	0.001710	28.0816	95.7491	0.001775	53943.4	4.635123	171.332	454.93	1.198951	0.091579	0.091199	458.454	53943.4	0.085205	0.231382	1981.38	102458
682	2.000000	1.201839	7.37173e+06	-42989.1	1005.82	-29780.7	0.000000	0.000000	7.221319	470.385	NaN	0.000000	0.001586	0.001729	28.0816	97.2301	0.001825	53272.4	0.325327	-4.278133	465.017	1.201476	0.094086	0.093724	470.385	53272.4	0.087464	0.242296	1941.36	98878.5
682	2.000000	1.204363	7.37173e+06	-42989.1	1005.82	-29780.7	0.000000	0.000000	7.224731	491.958	NaN	0.000000	0.001609	0.001721	28.0816	100.071	0.001801	55569	2.807145	173.176	492.199	1.204049	0.096611	0.096297	491.958	55569	0.089971	0.254684	1931.64	100602
682	2.000000	1.206857	7.37173e+06	-42989.1	1005.82	-29780.7	0.000000	0.000000	7.228281	517.686	NaN	0.000000	0.001622	0.001743	28.0825	102.397	0.001905	53740.8	7.612353	-10.758	512.712	1.206491	0.099104	0.098739	517.686	53740.8	0.091879	0.264309	1958.64	95504
682	2.000000	1.209275	7.37173e+06	-42989.1	1005.82	-29780.7	0.000000	0.000000	7.231466	536.312	NaN	0.000000	0.001640	0.001710	28.0833	104.121	0.001803	57753.2	5.424592	170.313	529.716	1.208778	0.101523	0.101026	536.312	57753.2	0.094558	0.278099	1928.49	100057
682	2.000000	1.210420	7.37173e+06	-42989.1	1005.82	-29780.7	0.000000	0.000000	7.232734	539.327	NaN	0.000000	0.001580	0.001734	28.0829	104.716	0.001782	58750.6	3.695317	172.013	538.03	1.210081	0.102667	0.102328	539.327	58750.6	0.095782	0.284509	1895.64	100632