File: remote_trans/data/nanoindenter/0828-1/data/Data_2025-08-06,11h17m57s/2025-07-22_16-23-58_1_45.txt
2025-07-22, 16:23:58, 1
Index	Phase	Displacement	Time	Pos X	Pos Y	Pos Z	Rot A	Rot B	Piezo Z	Force A	Force B	Gripper	Voltage A	Voltage B	Temperature	Amplitude force	Amplitude pos	Stiffness	Phase shift	Phase excitation	Force A raw	Displacement raw	HMax	HMax raw	Real Force	Real Stiffness	Contact Depth	Area	Hardness	Reduced Mod.
[#]	[#]	[um]	[s]	[um]	[um]	[um]	[m°]	[m°]	[um]	[uN]	[uN]	[V]	[V]	[V]	[°C]	[uN]	[um]	[N/m]	[°]	[°]	[uN]	[um]	[um]	[um]	[uN]	[N/m]	[um]	[um^2]	[MPa]	[MPa]
45	1.000000	0.002126	7.36548e+06	-40889.1	955.818	-29789	0.000000	0.000000	6.002835	0.090082	NaN	0.000000	0.001611	0.001700	28.083	0.106746	0.000966	110.529	134.013	-163.279	0.022044	0.000824	-0.947451	-0.948753	0.090082	110.529	-0.948063	-4.527925E+12	-1.989476E-14	NaN
45	1.000000	0.010083	7.36548e+06	-40889.1	955.818	-29789	0.000000	0.000000	6.010790	0.031555	NaN	0.000000	0.001663	0.001694	28.0823	0.102141	0.001004	101.783	-90.3402	-161.372	0.006934	0.008787	-0.939494	-0.940791	0.031555	101.783	-0.939726	-3.494996E+12	-9.028694E-15	NaN
45	1.000000	0.018067	7.36548e+06	-40889.1	955.818	-29789	0.000000	0.000000	6.018773	0.023471	NaN	0.000000	0.001676	0.001657	28.0821	0.043283	0.001650	26.2309	-16.9878	-166.842	-0.003714	0.016707	-0.931510	-0.932871	0.023471	26.2309	-0.932182	-2.764647E+12	-8.489602E-15	NaN
45	1.000000	0.026081	7.36548e+06	-40889.1	955.818	-29789	0.000000	0.000000	6.026785	-0.017373	NaN	0.000000	0.001634	0.001670	28.0814	0.066253	0.001773	37.3654	97.5653	-164.94	0.015917	0.024675	-0.923497	-0.924902	-0.017373	37.3654	-0.923148	-2.087879E+12	8.321117E-15	NaN
45	1.000000	0.034032	7.36548e+06	-40889.1	955.818	-29789	0.000000	0.000000	6.034736	-0.022653	NaN	0.000000	0.001659	0.001677	28.0823	0.102842	0.002002	51.3628	-83.5379	-165.698	-0.013180	0.032748	-0.915545	-0.916830	-0.022653	51.3628	-0.915214	-1.631495E+12	1.388453E-14	NaN
45	1.000000	0.042060	7.36548e+06	-40889.1	955.819	-29789	0.000000	0.000000	6.042767	0.064881	NaN	0.000000	0.001661	0.001658	28.0809	0.028671	0.001831	15.6582	-148.185	-168.992	0.018944	0.040737	-0.907518	-0.908840	0.064881	15.6582	-0.910625	-1.414524E+12	-4.586790E-14	NaN
45	1.000000	0.050055	7.36548e+06	-40889.1	955.818	-29789	0.000000	0.000000	6.050758	-0.050818	NaN	0.000000	0.001690	0.001659	28.0805	0.012774	0.001945	6.567005	-12.3058	-162.115	-0.091375	0.048793	-0.899522	-0.900785	-0.050818	6.567005	-0.893718	-8.359412E+11	6.079191E-14	NaN
45	1.000000	0.058070	7.36548e+06	-40889.1	955.818	-29789	0.000000	0.000000	6.058778	0.058200	NaN	0.000000	0.001655	0.001679	28.081	0.095458	0.002042	46.7392	-166.61	-165.245	0.044727	0.056770	-0.891507	-0.892808	0.058200	46.7392	-0.892441	-8.033560E+11	-7.244617E-14	NaN
45	1.000000	0.066034	7.36548e+06	-40889.1	955.818	-29789	0.000000	0.000000	6.066740	0.026417	NaN	0.000000	0.001680	0.001702	28.081	0.046196	0.001874	24.6475	-26.3597	-165.649	-0.024650	0.064773	-0.883543	-0.884804	0.026417	24.6475	-0.884347	-6.244392E+11	-4.230518E-14	NaN
45	1.000000	0.074066	7.36548e+06	-40889.1	955.818	-29789	0.000000	0.000000	6.074774	0.085902	NaN	0.000000	0.001663	0.001666	28.0811	0.042547	0.002015	21.1172	136.672	-165.199	-0.021358	0.072712	-0.875511	-0.876865	0.085902	21.1172	-0.878562	-5.215112E+11	-1.647170E-13	NaN
45	1.000000	0.082056	7.36548e+06	-40889.1	955.818	-29789	0.000000	0.000000	6.082764	0.056753	NaN	0.000000	0.001571	0.001691	28.0836	0.130575	0.001850	70.5725	-123.015	-165.467	0.022133	0.080755	-0.867521	-0.868822	0.056753	70.5725	-0.868124	-3.767579E+11	-1.506352E-13	NaN
45	1.000000	0.090057	7.36548e+06	-40889.1	955.818	-29789	0.000000	0.000000	6.090762	0.014910	NaN	0.000000	0.001602	0.001680	28.0816	0.076155	0.001772	42.9663	10.9174	-165.455	-0.037938	0.088712	-0.859520	-0.860865	0.014910	42.9663	-0.859781	-2.905047E+11	-5.132418E-14	NaN
45	1.000000	0.098059	7.36548e+06	-40889.1	955.817	-29789	0.000000	0.000000	6.098764	-0.010210	NaN	0.000000	0.001614	0.001646	28.0807	0.044806	0.001877	23.8689	80.9723	-166.926	-0.016092	0.096729	-0.851518	-0.852848	-0.010210	23.8689	-0.851197	-2.223056E+11	4.592924E-14	NaN
45	1.000000	0.106073	7.36548e+06	-40889.1	955.818	-29789	0.000000	0.000000	6.106778	-0.008305	NaN	0.000000	0.001646	0.001683	28.0816	0.031385	0.002058	15.2485	-145.297	-168.096	0.048100	0.104825	-0.843504	-0.844752	-0.008305	15.2485	-0.843096	-1.726749E+11	4.809481E-14	NaN
45	1.000000	0.114074	7.36548e+06	-40889.1	955.82	-29789	0.000000	0.000000	6.114779	0.015551	NaN	0.000000	0.001635	0.001714	28.0813	0.050281	0.002027	24.8105	-179.793	-165.635	-0.047718	0.112767	-0.835504	-0.836810	0.015551	24.8105	-0.835974	-1.382737E+11	-1.124618E-13	NaN
45	1.000000	0.122061	7.36548e+06	-40889.1	955.818	-29789	0.000000	0.000000	6.122768	0.050101	NaN	0.000000	0.001637	0.001686	28.0808	0.032431	0.002020	16.0577	33.1469	-165.237	0.066169	0.120797	-0.827516	-0.828781	0.050101	16.0577	-0.829856	-1.142453E+11	-4.385397E-13	NaN
45	1.000000	0.130060	7.36548e+06	-40889.1	955.817	-29789	0.000000	0.000000	6.130765	0.008347	NaN	0.000000	0.001601	0.001676	28.0786	0.032454	0.002220	14.6206	-36.9749	-165	-0.007835	0.128771	-0.819518	-0.820806	0.008347	14.6206	-0.819946	-8.384492E+10	-9.954767E-14	NaN
45	1.000000	0.138093	7.36548e+06	-40889.1	955.819	-29789	0.000000	0.000000	6.138800	0.043004	NaN	0.000000	0.001596	0.001672	28.0799	0.106200	0.002015	52.7058	-110.148	-164.982	-0.002598	0.136825	-0.811484	-0.812752	0.043004	52.7058	-0.812096	-6.561598E+10	-6.553910E-13	NaN
45	1.000000	0.146094	7.36548e+06	-40889.1	955.818	-29789	0.000000	0.000000	6.146801	0.035607	NaN	0.000000	0.001590	0.001716	28.0791	0.096663	0.001805	53.5518	-43.1567	-164.585	0.103564	0.144787	-0.803483	-0.804791	0.035607	53.5518	-0.803982	-5.092228E+10	-6.992381E-13	NaN
45	1.000000	0.154099	7.36548e+06	-40889.1	955.818	-29789	0.000000	0.000000	6.154806	0.054263	NaN	0.000000	0.001605	0.001686	28.0798	0.052862	0.001934	27.3338	128.107	-167.432	-0.004196	0.152775	-0.795479	-0.796803	0.054263	27.3338	-0.796967	-4.089733E+10	-1.326802E-12	NaN
45	1.000000	0.162085	7.36548e+06	-40889.1	955.819	-29789	0.000000	0.000000	6.162790	-0.010988	NaN	0.000000	0.001615	0.001674	28.081	0.056330	0.001976	28.5101	-21.8515	-165.072	-0.002212	0.160844	-0.787492	-0.788733	-0.010988	28.5101	-0.787203	-3.013654E+10	3.646001E-13	NaN
45	1.000000	0.170112	7.36548e+06	-40889.1	955.818	-29789	0.000000	0.000000	6.170819	0.047557	NaN	0.000000	0.001570	0.001668	28.0815	0.060847	0.002064	29.4734	-26.4419	-164.94	0.034172	0.168795	-0.779465	-0.780782	0.047557	29.4734	-0.780675	-2.456989E+10	-1.935564E-12	NaN
45	1.000000	0.178107	7.36548e+06	-40889.1	955.818	-29789	0.000000	0.000000	6.178815	0.074280	NaN	0.000000	0.001587	0.001694	28.0816	0.026742	0.001901	14.0645	-4.833592	-166.552	0.034079	0.176742	-0.771470	-0.772836	0.074280	14.0645	-0.775431	-2.085150E+10	-3.562354E-12	NaN
45	1.000000	0.186142	7.36548e+06	-40889.1	955.818	-29789	0.000000	0.000000	6.186845	-0.032198	NaN	0.000000	0.001579	0.001725	28.0803	0.016506	0.002012	8.205102	123.068	-165.011	-0.038338	0.184782	-0.763436	-0.764796	-0.032198	8.205102	-0.760492	-1.306177E+10	2.465026E-12	NaN
45	1.000000	0.194080	7.36548e+06	-40889.1	955.818	-29789	0.000000	0.000000	6.194788	0.087332	NaN	0.000000	0.001620	0.001707	28.0817	0.187409	0.002037	92.0205	159.521	-163.555	-0.047421	0.192762	-0.755498	-0.756815	0.087332	92.0205	-0.756210	-1.142168E+10	-7.646152E-12	NaN
45	1.000000	0.202118	7.36548e+06	-40889.1	955.817	-29789	0.000000	0.000000	6.202828	0.121483	NaN	0.000000	0.001627	0.001668	28.0808	0.161449	0.002071	77.949	139.12	-165.711	-0.035126	0.200782	-0.747460	-0.748796	0.121483	77.949	-0.748629	-9.006380E+9	-1.348856E-11	NaN
45	1.000000	0.210112	7.36548e+06	-40889.1	955.818	-29789	0.000000	0.000000	6.210818	0.005000	NaN	0.000000	0.001599	0.001694	28.0805	0.031348	0.001981	15.8229	-86.0472	-166.279	0.036910	0.208788	-0.739465	-0.740789	0.005000	15.8229	-0.739702	-6.807614E+9	-7.344620E-13	NaN
45	1.000000	0.218117	7.36548e+06	-40889.1	955.817	-29789	0.000000	0.000000	6.218823	0.007513	NaN	0.000000	0.001597	0.001709	28.0796	0.072427	0.002000	36.2123	158.574	-166.783	-0.024723	0.216834	-0.731460	-0.732744	0.007513	36.2123	-0.731616	-5.282330E+9	-1.422210E-12	NaN
45	1.000000	0.226109	7.36548e+06	-40889.1	955.818	-29789	0.000000	0.000000	6.226814	0.006034	NaN	0.000000	0.001593	0.001643	28.0809	0.066473	0.001989	33.4248	110.421	-169.177	-0.026252	0.224837	-0.723468	-0.724740	0.006034	33.4248	-0.723604	-4.107829E+9	-1.469006E-12	NaN
45	1.000000	0.234116	7.36548e+06	-40889.1	955.819	-29789	0.000000	0.000000	6.234823	0.038065	NaN	0.000000	0.001626	0.001700	28.0815	0.076374	0.001959	38.9925	171.961	-164.056	0.003902	0.232839	-0.715461	-0.716738	0.038065	38.9925	-0.716193	-3.254980E+9	-1.169443E-11	NaN
45	1.000000	0.242107	7.36548e+06	-40889.1	955.818	-29789	0.000000	0.000000	6.242813	0.020016	NaN	0.000000	0.001606	0.001705	28.0819	0.120264	0.002048	58.7099	-37.0521	-165.817	-0.017718	0.240878	-0.707470	-0.708699	0.020016	58.7099	-0.707726	-2.494645E+9	-8.023730E-12	NaN
45	1.000000	0.250131	7.36548e+06	-40889.1	955.818	-29789	0.000000	0.000000	6.250841	0.103068	NaN	0.000000	0.001547	0.001687	28.0821	0.054599	0.002021	27.0116	-30.6167	-164.685	0.081787	0.248744	-0.699446	-0.700833	0.103068	27.0116	-0.702308	-2.103991E+9	-4.898686E-11	NaN
45	1.000000	0.258126	7.36548e+06	-40889.1	955.818	-29789	0.000000	0.000000	6.258832	0.025476	NaN	0.000000	0.001595	0.001682	28.0817	0.057099	0.001935	29.5011	-108.983	-166.513	0.060404	0.256841	-0.691451	-0.692736	0.025476	29.5011	-0.692099	-1.526156E+9	-1.669284E-11	NaN
45	1.000000	0.266128	7.36548e+06	-40889.1	955.818	-29789	0.000000	0.000000	6.266836	0.064188	NaN	0.000000	0.001614	0.001690	28.0832	0.036293	0.002071	17.5282	-172.178	-164.62	0.064089	0.264834	-0.683449	-0.684743	0.064188	17.5282	-0.686196	-1.267412E+9	-5.064474E-11	NaN
45	1.000000	0.274153	7.36548e+06	-40889.1	955.817	-29789	0.000000	0.000000	6.274860	0.025774	NaN	0.000000	0.001554	0.001647	28.0805	0.028429	0.001911	14.8774	78.4058	-165.178	0.023760	0.272853	-0.675424	-0.676724	0.025774	14.8774	-0.676723	-9.405559E+8	-2.740286E-11	NaN
45	1.000000	0.282144	7.36548e+06	-40889.1	955.818	-29789	0.000000	0.000000	6.282852	0.055823	NaN	0.000000	0.001567	0.001653	28.0809	0.012188	0.002081	5.857031	-122.721	-167.631	0.100282	0.280911	-0.667433	-0.668666	0.055823	5.857031	-0.674581	-8.791891E+8	-6.349396E-11	NaN
45	1.000000	0.290164	7.36548e+06	-40889.1	955.818	-29789	0.000000	0.000000	6.290870	0.024026	NaN	0.000000	0.001575	0.001667	28.0799	0.091652	0.001926	47.5753	109.607	-166.53	0.005858	0.288852	-0.659414	-0.660725	0.024026	47.5753	-0.659792	-5.516026E+8	-4.355703E-11	NaN
45	1.000000	0.298141	7.36548e+06	-40889.1	955.818	-29789	0.000000	0.000000	6.298847	0.046468	NaN	0.000000	0.001620	0.001672	28.0803	0.080903	0.001879	43.0666	-134.29	-166.558	0.012721	0.296815	-0.651437	-0.652762	0.046468	43.0666	-0.652246	-4.347335E+8	-1.068877E-10	NaN
45	1.000000	0.306124	7.36548e+06	-40889.1	955.817	-29789	0.000000	0.000000	6.306829	0.017108	NaN	0.000000	0.001601	0.001719	28.0812	0.020443	0.002024	10.1015	-12.0738	-169.766	0.033785	0.304853	-0.643454	-0.644724	0.017108	10.1015	-0.644724	-3.428378E+8	-4.990051E-11	NaN
45	1.000000	0.314191	7.36548e+06	-40889.1	955.817	-29789	0.000000	0.000000	6.314898	0.058525	NaN	0.000000	0.001584	0.001678	28.0816	0.050321	0.001964	25.621	44.5408	-167.148	0.042153	0.312883	-0.635386	-0.636694	0.058525	25.621	-0.637100	-2.694564E+8	-2.171957E-10	NaN
45	1.000000	0.322147	7.36548e+06	-40889.1	955.818	-29789	0.000000	0.000000	6.322851	-0.011931	NaN	0.000000	0.001596	0.001658	28.0821	0.036118	0.001906	18.9539	38.7128	-166.781	0.084287	0.320789	-0.627431	-0.628788	-0.011931	18.9539	-0.626958	-1.955461E+8	6.101441E-11	NaN
45	1.000000	0.330164	7.36548e+06	-40889.1	955.819	-29789	0.000000	0.000000	6.330870	0.014731	NaN	0.000000	0.001593	0.001635	28.0816	0.026290	0.001993	13.1929	18.0333	-167.128	-0.016801	0.328822	-0.619413	-0.620755	0.014731	13.1929	-0.620251	-1.581537E+8	-9.314659E-11	NaN
45	1.000000	0.338155	7.36548e+06	-40889.1	955.819	-29789	0.000000	0.000000	6.338860	-0.014341	NaN	0.000000	0.001599	0.001648	28.0822	0.152935	0.001975	77.4441	-96.7009	-164.929	-0.021851	0.336844	-0.611422	-0.612733	-0.014341	77.4441	-0.611283	-1.190599E+8	1.204483E-10	NaN
45	1.000000	0.346181	7.36548e+06	-40889.1	955.817	-29789	0.000000	0.000000	6.346889	0.071522	NaN	0.000000	0.001612	0.001656	28.082	0.061037	0.001990	30.6767	-117.757	-166.735	0.081288	0.344906	-0.603396	-0.604672	0.071522	30.6767	-0.605145	-9.801639E+7	-7.296991E-10	NaN
45	1.000000	0.354231	7.36548e+06	-40889.1	955.817	-29789	0.000000	0.000000	6.354936	0.011807	NaN	0.000000	0.001615	0.001695	28.0821	0.138617	0.002049	67.6405	148.705	-165.124	0.035167	0.352793	-0.595347	-0.596784	0.011807	67.6405	-0.595478	-7.213771E+7	-1.636670E-10	NaN
45	1.000000	0.362177	7.36548e+06	-40889.1	955.817	-29789	0.000000	0.000000	6.362884	0.052835	NaN	0.000000	0.001580	0.001715	28.0793	0.091572	0.002069	44.2567	148.719	-165.317	0.029359	0.360859	-0.587401	-0.588718	0.052835	44.2567	-0.588296	-5.743439E+7	-9.199276E-10	NaN
45	1.000000	0.370191	7.36548e+06	-40889.1	955.819	-29789	0.000000	0.000000	6.370896	0.001201	NaN	0.000000	0.001602	0.001686	28.0789	0.038024	0.002030	18.7295	45.4949	-164.608	0.039483	0.368879	-0.579386	-0.580698	0.001201	18.7295	-0.579434	-4.334236E+7	-2.769841E-11	NaN
45	1.000000	0.378187	7.36548e+06	-40889.1	955.818	-29789	0.000000	0.000000	6.378893	0.024891	NaN	0.000000	0.001570	0.001700	28.0791	0.067014	0.002001	33.4822	131.233	-162.661	0.035617	0.376927	-0.571390	-0.572651	0.024891	33.4822	-0.571948	-3.416182E+7	-7.286204E-10	NaN
45	1.000000	0.386190	7.36548e+06	-40889.1	955.818	-29789	0.000000	0.000000	6.386897	0.056761	NaN	0.000000	0.001607	0.001697	28.0797	0.023370	0.002098	11.1398	125.765	-159.17	0.043959	0.384940	-0.563388	-0.564637	0.056761	11.1398	-0.567209	-2.938075E+7	-1.931923E-9	NaN
45	1.000000	0.394182	7.36548e+06	-40889.1	955.818	-29789	0.000000	0.000000	6.394888	0.025146	NaN	0.000000	0.001587	0.001710	28.0795	0.070837	0.002006	35.3102	-140.618	-165.556	0.027362	0.392949	-0.555395	-0.556628	0.025146	35.3102	-0.555929	-2.051408E+7	-1.225770E-9	NaN
45	1.000000	0.402199	7.36548e+06	-40889.1	955.818	-29789	0.000000	0.000000	6.402906	0.047417	NaN	0.000000	0.001558	0.001706	28.081	0.089330	0.001961	45.5592	153.997	-165.883	0.092584	0.400925	-0.547378	-0.548652	0.047417	45.5592	-0.548158	-1.601199E+7	-2.961339E-9	NaN
45	1.000000	0.410203	7.36548e+06	-40889.1	955.817	-29789	0.000000	0.000000	6.410912	0.088507	NaN	0.000000	0.001600	0.001676	28.0798	0.054387	0.002130	25.5288	-28.7889	-166.144	0.103743	0.408880	-0.539374	-0.540697	0.088507	25.5288	-0.541974	-1.314418E+7	-6.733581E-9	NaN
45	1.000000	0.418229	7.36548e+06	-40889.1	955.817	-29789	0.000000	0.000000	6.418933	-0.011268	NaN	0.000000	0.001560	0.001684	28.0812	0.067559	0.002007	33.6687	-137.98	-167.225	-0.026373	0.416870	-0.531348	-0.532707	-0.011268	33.6687	-0.531097	-9.28567e+06	1.213469E-9	NaN
45	1.000000	0.426189	7.36548e+06	-40889.1	955.818	-29789	0.000000	0.000000	6.426896	0.036688	NaN	0.000000	0.001549	0.001685	28.0806	0.118349	0.002048	57.7809	133.597	-163.731	0.034971	0.424925	-0.523388	-0.524652	0.036688	57.7809	-0.523864	-7.36755e+06	-4.979673E-9	NaN
45	1.000000	0.434192	7.36548e+06	-40889.1	955.818	-29789	0.000000	0.000000	6.434899	0.038040	NaN	0.000000	0.001597	0.001706	28.0808	0.114566	0.001802	63.5928	93.8169	-167.993	0.020089	0.432928	-0.515385	-0.516649	0.038040	63.5928	-0.515834	-5.69684e+06	-6.677443E-9	NaN
45	1.000000	0.442194	7.36548e+06	-40889.1	955.817	-29789	0.000000	0.000000	6.442900	0.026038	NaN	0.000000	0.001578	0.001714	28.0805	0.077144	0.002041	37.7929	-172.147	-167.423	-0.001605	0.440893	-0.507383	-0.508684	0.026038	37.7929	-0.507900	-4.41734e+06	-5.894389E-9	NaN
45	1.000000	0.450211	7.36549e+06	-40889.1	955.818	-29789	0.000000	0.000000	6.450919	0.088422	NaN	0.000000	0.001561	0.001693	28.0794	0.047803	0.002029	23.5587	58.2042	-162.426	0.049743	0.448910	-0.499366	-0.500668	0.088422	23.5587	-0.502181	-3.67658e+06	-2.404996E-8	NaN
45	1.000000	0.458255	7.36549e+06	-40889.1	955.817	-29789	0.000000	0.000000	6.458962	0.047476	NaN	0.000000	0.001585	0.001726	28.079	0.066767	0.001995	33.4706	120.224	-162.671	0.083463	0.456917	-0.491322	-0.492660	0.047476	33.4706	-0.492386	-2.68364e+06	-1.769100E-8	NaN
45	1.000000	0.466218	7.36549e+06	-40889.1	955.818	-29789	0.000000	0.000000	6.466924	0.028614	NaN	0.000000	0.001580	0.001696	28.0793	0.113505	0.002031	55.8985	-145.375	-163.302	0.066531	0.464914	-0.483359	-0.484663	0.028614	55.8985	-0.483743	-2.03194e+06	-1.408193E-8	NaN
45	1.000000	0.474227	7.36549e+06	-40889.1	955.817	-29789	0.000000	0.000000	6.474934	0.051681	NaN	0.000000	0.001572	0.001678	28.0792	0.026862	0.002057	13.0559	112.906	-168.825	-0.023189	0.472873	-0.475350	-0.476704	0.051681	13.0559	-0.478319	-1.70605e+06	-3.029283E-8	NaN
45	1.000000	0.482228	7.36549e+06	-40889.1	955.818	-29789	0.000000	0.000000	6.482932	-0.035416	NaN	0.000000	0.001572	0.001682	28.0804	0.041351	0.001979	20.8917	-165.578	-166.791	-0.048569	0.480985	-0.467349	-0.468592	-0.035416	20.8917	-0.466078	-1.14915e+06	3.081953E-8	NaN
45	1.000000	0.490243	7.36549e+06	-40889.1	955.818	-29789	0.000000	0.000000	6.490948	0.006073	NaN	0.000000	0.001568	0.001638	28.079	0.034168	0.002021	16.9046	150.639	-164.044	0.044903	0.488965	-0.459334	-0.460612	0.006073	16.9046	-0.459604	-932076	-6.515557E-9	NaN
45	1.000000	0.498233	7.36549e+06	-40889.1	955.818	-29789	0.000000	0.000000	6.498936	-0.036405	NaN	0.000000	0.001602	0.001683	28.0819	0.158569	0.002084	76.0747	139.154	-166.785	0.031670	0.496945	-0.451344	-0.452632	-0.036405	76.0747	-0.450985	-705047	5.163422E-8	NaN
45	1.000000	0.506243	7.36549e+06	-40889.1	955.818	-29789	0.000000	0.000000	6.506950	0.031379	NaN	0.000000	0.001562	0.001667	28.0819	0.063051	0.001916	32.9122	141.093	-165.469	0.079552	0.504924	-0.443334	-0.444653	0.031379	32.9122	-0.444049	-562967	-5.573897E-8	NaN
45	1.000000	0.514262	7.36549e+06	-40889.1	955.818	-29789	0.000000	0.000000	6.514967	0.003616	NaN	0.000000	0.001572	0.001670	28.0814	0.139229	0.002073	67.1778	-33.5854	-163.7	-0.002297	0.512941	-0.435315	-0.436636	0.003616	67.1778	-0.435355	-424401	-8.520637E-9	NaN
45	1.000000	0.522236	7.36549e+06	-40889.1	955.817	-29789	0.000000	0.000000	6.522945	0.096288	NaN	0.000000	0.001592	0.001641	28.0806	0.057507	0.001960	29.3442	132.23	-167.816	0.026265	0.520944	-0.427341	-0.428633	0.096288	29.3442	-0.429802	-354212	-2.718366E-7	NaN
45	1.000000	0.530238	7.36549e+06	-40889.1	955.818	-29789	0.000000	0.000000	6.530943	0.014811	NaN	0.000000	0.001591	0.001664	28.0801	0.027140	0.001970	13.7762	-126.171	-166.814	-0.014344	0.528927	-0.419340	-0.420650	0.014811	13.7762	-0.420146	-258514	-5.729448E-8	NaN
45	1.000000	0.538247	7.36549e+06	-40889.1	955.819	-29789	0.000000	0.000000	6.538951	-0.016541	NaN	0.000000	0.001575	0.001674	28.0793	0.026823	0.002024	13.2551	160.026	-162.233	0.057089	0.536965	-0.411330	-0.412612	-0.016541	13.2551	-0.410394	-187934	8.801629E-8	NaN
45	1.000000	0.546251	7.36549e+06	-40889.1	955.818	-29789	0.000000	0.000000	6.546957	0.005870	NaN	0.000000	0.001565	0.001650	28.0805	0.069718	0.001781	39.1403	8.237528	-169.723	-0.006548	0.544933	-0.403326	-0.404645	0.005870	39.1403	-0.403438	-149626	-3.923283E-8	NaN
45	1.000000	0.554280	7.36549e+06	-40889.1	955.817	-29789	0.000000	0.000000	6.554984	-0.030792	NaN	0.000000	0.001587	0.001675	28.0809	0.017311	0.001884	9.190593	-60.8825	-165.559	0.018397	0.552968	-0.395297	-0.396610	-0.030792	9.190593	-0.392784	-105434	2.920496E-7	NaN
45	1.000000	0.562271	7.36549e+06	-40889.1	955.818	-29789	0.000000	0.000000	6.562978	0.038436	NaN	0.000000	0.001580	0.001649	28.0825	0.040432	0.002037	19.8484	19.6563	-164.315	0.059522	0.560966	-0.387306	-0.388611	0.038436	19.8484	-0.388758	-92342	-4.162375E-7	NaN
45	1.000000	0.570274	7.36549e+06	-40889.1	955.818	-29789	0.000000	0.000000	6.570979	-0.017310	NaN	0.000000	0.001618	0.001656	28.0824	0.041514	0.002142	19.3812	-164.561	-169.136	-0.013154	0.569023	-0.379303	-0.380555	-0.017310	19.3812	-0.378633	-66110.3	2.618288E-7	NaN
45	1.000000	0.578268	7.36549e+06	-40889.1	955.819	-29789	0.000000	0.000000	6.578970	-0.065650	NaN	0.000000	0.001608	0.001659	28.0809	0.017114	0.002001	8.552843	117.947	-165.75	-0.007981	0.576990	-0.371309	-0.372588	-0.065650	8.552843	-0.365553	-42857.3	1.531830E-6	NaN
45	1.000000	0.586257	7.36549e+06	-40889.1	955.818	-29789	0.000000	0.000000	6.586963	0.031819	NaN	0.000000	0.001603	0.001701	28.0807	0.043693	0.002067	21.1389	-67.2336	-168.927	-0.081751	0.585013	-0.363320	-0.364564	0.031819	21.1389	-0.364449	-41314.9	-7.701646E-7	NaN
45	1.000000	0.594265	7.36549e+06	-40889.1	955.818	-29789	0.000000	0.000000	6.594969	-0.013002	NaN	0.000000	0.001600	0.001676	28.0828	0.033742	0.002094	16.1141	88.729	-166.876	0.000272	0.592926	-0.355313	-0.356652	-0.013002	16.1141	-0.354708	-29871.8	4.352583E-7	NaN
45	1.000000	0.602278	7.36549e+06	-40889.1	955.818	-29789	0.000000	0.000000	6.602983	-0.007372	NaN	0.000000	0.001612	0.001678	28.0811	0.083001	0.001927	43.0668	157.989	-167.378	-0.010962	0.601021	-0.347299	-0.348556	-0.007372	43.0668	-0.347171	-23222.6	3.174339E-7	NaN
45	1.000000	0.610274	7.36549e+06	-40889.1	955.818	-29789	0.000000	0.000000	6.610982	0.074430	NaN	0.000000	0.001602	0.001671	28.0803	0.027281	0.001997	13.6579	-93.6719	-168.067	0.046745	0.608983	-0.339303	-0.340595	0.074430	13.6579	-0.343390	-20461.3	-3.637588E-6	NaN
45	1.000000	0.618270	7.36549e+06	-40889.1	955.817	-29789	0.000000	0.000000	6.618975	0.008260	NaN	0.000000	0.001592	0.001674	28.0804	0.018598	0.002069	8.991234	-160.531	-166.37	0.059360	0.616985	-0.331307	-0.332592	0.008260	8.991234	-0.331996	-13953.2	-5.920006E-7	NaN
45	1.000000	0.626290	7.36549e+06	-40889.1	955.818	-29789	0.000000	0.000000	6.626997	0.054164	NaN	0.000000	0.001580	0.001680	28.0812	0.048034	0.002013	23.8607	76.5557	-166.936	0.057155	0.624975	-0.323288	-0.324602	0.054164	23.8607	-0.324990	-11015.2	-4.917244E-6	NaN
45	1.000000	0.634289	7.36549e+06	-40889.1	955.819	-29789	0.000000	0.000000	6.634995	0.029356	NaN	0.000000	0.001619	0.001678	28.0795	0.053003	0.001994	26.5849	155.39	-164.532	0.044987	0.632997	-0.315289	-0.316580	0.029356	26.5849	-0.316117	-8154.98	-3.599817E-6	NaN
45	1.000000	0.642324	7.36549e+06	-40889.1	955.818	-29789	0.000000	0.000000	6.643029	-0.009172	NaN	0.000000	0.001625	0.001703	28.0804	0.041419	0.001950	21.241	-162.004	-168.019	0.031823	0.640937	-0.307253	-0.308640	-0.009172	21.241	-0.306929	-5964.43	1.537800E-6	NaN
45	1.000000	0.650301	7.36549e+06	-40889.1	955.817	-29789	0.000000	0.000000	6.651009	0.073394	NaN	0.000000	0.001618	0.001769	28.0804	0.034779	0.002026	17.1656	130.117	-166.837	0.107109	0.648998	-0.299277	-0.300580	0.073394	17.1656	-0.302483	-5123.59	-1.432465E-5	NaN
45	1.000000	0.658323	7.36549e+06	-40889.1	955.818	-29789	0.000000	0.000000	6.659031	0.063852	NaN	0.000000	0.001605	0.001739	28.081	0.160281	0.002011	79.7166	96.4685	-167.738	0.114757	0.657000	-0.291254	-0.292577	0.063852	79.7166	-0.291855	-3556.95	-1.795133E-5	NaN
45	1.000000	0.666308	7.36549e+06	-40889.1	955.818	-29789	0.000000	0.000000	6.667014	0.015356	NaN	0.000000	0.001562	0.001703	28.0818	0.032744	0.002124	15.417	43.529	-161.816	0.012159	0.664984	-0.283269	-0.284593	0.015356	15.417	-0.284016	-2713.13	-5.659964E-6	NaN
45	1.000000	0.674323	7.36549e+06	-40889.1	955.818	-29789	0.000000	0.000000	6.675030	0.035933	NaN	0.000000	0.001566	0.001731	28.0817	0.069364	0.001929	35.9524	-119.492	-163.505	0.052891	0.672998	-0.275254	-0.276580	0.035933	35.9524	-0.276004	-2053.97	-1.749426E-5	NaN
45	1.000000	0.682267	7.36549e+06	-40889.1	955.818	-29789	0.000000	0.000000	6.682972	-0.002567	NaN	0.000000	0.001596	0.001723	28.0787	0.049735	0.001991	24.981	167.557	-165.317	-0.052642	0.681035	-0.267310	-0.268543	-0.002567	24.981	-0.267233	-1511.59	1.698138E-6	NaN
45	1.000000	0.690327	7.36549e+06	-40889.1	955.817	-29789	0.000000	0.000000	6.691037	0.114501	NaN	0.000000	0.001578	0.001684	28.08	0.023806	0.001976	12.0447	76.315	-167.064	0.054814	0.689044	-0.259250	-0.260534	0.114501	12.0447	-0.266380	-1467	-7.805097E-5	NaN
45	1.000000	0.698342	7.36549e+06	-40889.1	955.817	-29789	0.000000	0.000000	6.699050	0.085335	NaN	0.000000	0.001640	0.001708	28.0796	0.129238	0.001933	66.8511	113.647	-162.461	0.078562	0.697016	-0.251236	-0.252562	0.085335	66.8511	-0.252193	-888.887	-9.600170E-5	NaN
45	1.000000	0.706338	7.36549e+06	-40889.1	955.818	-29789	0.000000	0.000000	6.707044	0.023976	NaN	0.000000	0.001623	0.001669	28.0795	0.079409	0.001990	39.8948	-106.263	-164.924	0.006320	0.705037	-0.243239	-0.244541	0.023976	39.8948	-0.243690	-656.261	-3.653377E-5	NaN
45	1.000000	0.714349	7.36549e+06	-40889.1	955.819	-29789	0.000000	0.000000	6.715054	0.005814	NaN	0.000000	0.001623	0.001680	28.0799	0.086386	0.001962	44.0257	143.047	-166.543	0.006116	0.713020	-0.235228	-0.236557	0.005814	44.0257	-0.235327	-485.72	-1.196968E-5	NaN
45	1.000000	0.722333	7.36549e+06	-40889.1	955.819	-29789	0.000000	0.000000	6.723038	-0.003334	NaN	0.000000	0.001628	0.001728	28.0805	0.051472	0.002059	24.9939	-5.937468	-168.391	0.008158	0.721003	-0.227244	-0.228574	-0.003334	24.9939	-0.227144	-360.868	9.238007E-6	NaN
45	1.000000	0.730335	7.36549e+06	-40889.1	955.818	-29789	0.000000	0.000000	6.731041	0.032800	NaN	0.000000	0.001625	0.001746	28.081	0.034213	0.001964	17.423	131.487	-165.363	0.082810	0.729039	-0.219242	-0.220538	0.032800	17.423	-0.220654	-284.531	-0.000115	NaN
45	1.000000	0.738352	7.36549e+06	-40889.1	955.819	-29789	0.000000	0.000000	6.739062	0.119082	NaN	0.000000	0.001598	0.001690	28.0812	0.050109	0.002042	24.5371	102.779	-166.366	0.202254	0.737071	-0.211225	-0.212507	0.119082	24.5371	-0.214865	-229.796	-0.000518	NaN
45	1.000000	0.746353	7.36549e+06	-40889.1	955.817	-29789	0.000000	0.000000	6.747060	0.038057	NaN	0.000000	0.001609	0.001723	28.081	0.060416	0.002043	29.5685	-167.772	-169.123	0.046481	0.745041	-0.203224	-0.204536	0.038057	29.5685	-0.204189	-154.286	-0.000247	NaN
45	1.000000	0.754366	7.36549e+06	-40889.1	955.819	-29789	0.000000	0.000000	6.755073	0.061636	NaN	0.000000	0.001598	0.001692	28.0807	0.056647	0.001965	28.8288	134.761	-167.92	0.061355	0.753015	-0.195212	-0.196563	0.061636	28.8288	-0.196815	-116.742	-0.000528	NaN
45	1.000000	0.762317	7.36549e+06	-40889.1	955.818	-29789	0.000000	0.000000	6.763022	-0.007418	NaN	0.000000	0.001597	0.001694	28.0789	0.101809	0.002012	50.6055	-16.8725	-164.585	-0.047361	0.761090	-0.187260	-0.188487	-0.007418	50.6055	-0.187150	-80.593	9.204165E-5	NaN
45	1.000000	0.770330	7.36549e+06	-40889.1	955.818	-29789	0.000000	0.000000	6.771036	0.013346	NaN	0.000000	0.001638	0.001759	28.081	0.069607	0.001915	36.3508	-116.448	-167.126	0.048000	0.769039	-0.179247	-0.180538	0.013346	36.3508	-0.179522	-59.8874	-0.000223	NaN
45	1.000000	0.778368	7.36549e+06	-40889.1	955.818	-29789	0.000000	0.000000	6.779072	-0.017134	NaN	0.000000	0.001632	0.001738	28.0806	0.101480	0.002020	50.248	-157.096	-166.909	0.031598	0.777073	-0.171210	-0.172505	-0.017134	50.248	-0.170954	-42.6738	0.000402	NaN
45	1.000000	0.786393	7.36549e+06	-40889.1	955.818	-29789	0.000000	0.000000	6.787102	0.100435	NaN	0.000000	0.001609	0.001709	28.0813	0.073098	0.002085	35.0596	70.4734	-165.787	-0.010760	0.785099	-0.163184	-0.164479	0.100435	35.0596	-0.165333	-34.0522	-0.002949	NaN
45	1.000000	0.794350	7.36549e+06	-40889.1	955.818	-29789	0.000000	0.000000	6.795056	0.029282	NaN	0.000000	0.001622	0.001729	28.082	0.013647	0.002076	6.573681	-53.622	-165.738	0.006654	0.793069	-0.155227	-0.156508	0.029282	6.573681	-0.158568	-25.8521	-0.001133	NaN
45	1.000000	0.802360	7.36549e+06	-40889.1	955.818	-29789	0.000000	0.000000	6.803066	0.012670	NaN	0.000000	0.001625	0.001741	28.0805	0.042283	0.001884	22.4383	102.66	-164.548	-0.001825	0.801066	-0.147217	-0.148511	0.012670	22.4383	-0.147640	-16.3993	-0.000773	NaN
45	1.000000	0.810360	7.36549e+06	-40889.1	955.818	-29789	0.000000	0.000000	6.811069	0.095821	NaN	0.000000	0.001601	0.001728	28.0818	0.084519	0.002036	41.5125	76.2807	-164.796	0.056530	0.809052	-0.139217	-0.140525	0.095821	41.5125	-0.140948	-12.324	-0.007775	NaN
45	1.000000	0.818404	7.36549e+06	-40889.1	955.818	-29789	0.000000	0.000000	6.819111	0.069237	NaN	0.000000	0.001601	0.001734	28.0818	0.062758	0.002083	30.125	-2.313508	-164.058	0.120499	0.817059	-0.131174	-0.132518	0.069237	30.125	-0.132897	-8.669725	-0.007986	NaN
45	1.000000	0.826393	7.36549e+06	-40889.1	955.818	-29789	0.000000	0.000000	6.827098	0.009333	NaN	0.000000	0.001610	0.001732	28.0813	0.112588	0.001841	61.165	144.118	-164.823	-0.023131	0.825070	-0.123184	-0.124507	0.009333	61.165	-0.123299	-5.626247	-0.001659	NaN
45	1.000000	0.834379	7.36549e+06	-40889.1	955.818	-29789	0.000000	0.000000	6.835089	0.119011	NaN	0.000000	0.001613	0.001730	28.082	0.038325	0.001989	19.2671	98.2631	-166.056	0.072938	0.833029	-0.115198	-0.116548	0.119011	19.2671	-0.119831	-4.793589	-0.024827	NaN
45	1.000000	0.842381	7.36549e+06	-40889.1	955.819	-29789	0.000000	0.000000	6.843085	-0.030151	NaN	0.000000	0.001588	0.001686	28.0811	0.104530	0.002145	48.7237	-146.815	-163.359	-0.013323	0.841087	-0.107196	-0.108490	-0.030151	48.7237	-0.106732	-2.561154	0.011772	NaN
45	1.000000	0.850372	7.36549e+06	-40889.1	955.818	-29789	0.000000	0.000000	6.851077	-0.010876	NaN	0.000000	0.001599	0.001695	28.081	0.093160	0.002075	44.8916	-58.8026	-168.67	0.038559	0.849138	-0.099205	-0.100439	-0.010876	44.8916	-0.099024	-1.738088	0.006257	NaN
45	1.000000	0.858384	7.36549e+06	-40889.1	955.818	-29789	0.000000	0.000000	6.859091	0.042839	NaN	0.000000	0.001618	0.001739	28.0818	0.101569	0.001940	52.3627	-88.9389	-163.476	0.085531	0.857070	-0.091193	-0.092508	0.042839	52.3627	-0.091806	-1.191171	-0.035964	NaN
45	1.000000	0.866410	7.36549e+06	-40889.1	955.818	-29789	0.000000	0.000000	6.867114	-0.043268	NaN	0.000000	0.001624	0.001675	28.0811	0.019020	0.002094	9.084840	134.574	-165.873	-0.007427	0.865073	-0.083167	-0.084504	-0.043268	9.084840	-0.079595	-0.604700	0.071553	NaN
45	1.000000	0.874427	7.36549e+06	-40889.1	955.819	-29789	0.000000	0.000000	6.875133	0.024826	NaN	0.000000	0.001566	0.001684	28.0808	0.091679	0.002026	45.2472	-3.260629	-165.338	0.017637	0.873099	-0.075151	-0.076478	0.024826	45.2472	-0.075562	-0.477566	-0.051985	NaN
45	1.000000	0.882396	7.36549e+06	-40889.1	955.818	-29789	0.000000	0.000000	6.883100	-0.023505	NaN	0.000000	0.001593	0.001668	28.0823	0.090070	0.002010	44.801	-65.5608	-165.068	0.023605	0.881085	-0.067181	-0.068492	-0.023505	44.801	-0.066788	-0.279163	0.084197	NaN
45	1.000000	0.890393	7.36549e+06	-40889.1	955.818	-29789	0.000000	0.000000	6.891098	0.002404	NaN	0.000000	0.001527	0.001683	28.0825	0.155593	0.001894	82.1615	31.7589	-168.473	-0.050627	0.889079	-0.059184	-0.060498	0.002404	82.1615	-0.059206	-0.170873	-0.014071	NaN
45	1.000000	0.898410	7.36549e+06	-40889.1	955.818	-29789	0.000000	0.000000	6.899115	-0.004514	NaN	0.000000	0.001618	0.001708	28.0817	0.061312	0.002041	30.0361	55.8165	-162.516	0.071857	0.897129	-0.051167	-0.052448	-0.004514	30.0361	-0.051054	-0.098189	0.045972	NaN
45	1.000000	0.906400	7.36549e+06	-40889.1	955.818	-29789	0.000000	0.000000	6.907103	-0.040365	NaN	0.000000	0.001598	0.001701	28.0801	0.060218	0.002010	29.9584	-33.5636	-166.727	-0.077202	0.905092	-0.043177	-0.044486	-0.040365	29.9584	-0.042167	-0.052646	0.766718	NaN
45	1.000000	0.914446	7.36549e+06	-40889.1	955.818	-29789	0.000000	0.000000	6.915155	0.074161	NaN	0.000000	0.001628	0.001706	28.0814	0.066190	0.002039	32.4691	-85.016	-164.216	0.061184	0.913140	-0.035131	-0.036437	0.074161	32.4691	-0.036844	-0.036324	-2.041661	NaN
45	1.000000	0.922431	7.36549e+06	-40889.1	955.818	-29789	0.000000	0.000000	6.923139	0.074350	NaN	0.000000	0.001608	0.001698	28.0798	0.059889	0.001925	31.1163	58.734	-168.762	0.121323	0.921081	-0.027147	-0.028497	0.074350	31.1163	-0.028939	-0.021508	-3.456860	NaN
45	1.000000	0.930426	7.36549e+06	-40889.1	955.818	-29789	0.000000	0.000000	6.931129	-0.043924	NaN	0.000000	0.001637	0.001699	28.079	0.067664	0.001992	33.9681	-139.263	-166.751	0.003602	0.929073	-0.019151	-0.020504	-0.043924	33.9681	-0.018181	-0.011284	3.892661	NaN
45	1.000000	0.938412	7.36549e+06	-40889.1	955.819	-29789	0.000000	0.000000	6.939117	0.007512	NaN	0.000000	0.001588	0.001690	28.0803	0.062276	0.001975	31.5249	-163.206	-169.07	0.010452	0.937169	-0.011165	-0.012409	0.007512	31.5249	-0.011344	-0.007154	-1.050011	NaN
45	1.000000	0.946453	7.36549e+06	-40889.1	955.818	-29789	0.000000	0.000000	6.947157	-0.014874	NaN	0.000000	0.001603	0.001692	28.0795	0.015808	0.001876	8.424972	-134.451	-166.232	0.030426	0.945140	-0.003124	-0.004437	-0.014874	8.424972	-0.001800	-0.001300	11.4379	NaN
45	1.000000	0.954442	7.36549e+06	-40889.1	955.819	-29789	0.000000	0.000000	6.955192	1.101386	NaN	0.000000	0.001605	0.001661	28.0791	1.559787	0.002035	766.605	18.6724	-169.503	0.513208	0.953102	0.004865	0.003524	1.101386	766.605	0.003787	0.003053	360.734	12675.6
45	1.000000	0.962405	7.36549e+06	-40889.1	955.818	-29789	0.000000	0.000000	6.963367	6.262950	NaN	0.000000	0.001589	0.001665	28.0833	6.074788	0.001680	3616.98	11.4009	-171.111	5.259478	0.961071	0.012827	0.011493	6.262950	3616.98	0.011529	0.010931	572.977	31608.2
45	2.000000	0.966011	7.36549e+06	-40889.1	955.819	-29789	0.000000	0.000000	6.967154	10.6523	NaN	0.000000	0.001594	0.001685	28.0802	9.939676	0.001544	6439.58	5.935099	-173.469	10.0344	0.965686	0.016434	0.016108	10.6523	6439.58	0.015193	0.015544	685.297	47189.9
45	2.000000	0.967982	7.36549e+06	-40889.1	955.819	-29789	0.000000	0.000000	6.969297	14.8503	NaN	0.000000	0.001613	0.001685	28.0813	13.7464	0.001676	8203.98	7.476260	-177.259	14.3648	0.967651	0.018404	0.018074	14.8503	8203.98	0.017047	0.018112	819.903	55694.3
45	2.000000	0.970008	7.36549e+06	-40889.1	955.82	-29789	0.000000	0.000000	6.971622	22.1244	NaN	0.000000	0.001639	0.001709	28.0812	16.3694	0.001829	8949	7.117369	-175.521	21.1537	0.969690	0.020430	0.020113	22.1244	8949	0.018576	0.020354	1086.97	57308.8
45	2.000000	0.971966	7.36549e+06	-40889.1	955.819	-29789	0.000000	0.000000	6.973843	28.5161	NaN	0.000000	0.001593	0.001680	28.0814	18.0069	0.001653	10894.6	3.223168	-176.054	27.5513	0.971638	0.022389	0.022061	28.5161	10894.6	0.020426	0.023216	1228.28	65326.2
45	2.000000	0.973920	7.36549e+06	-40889.1	955.819	-29789	0.000000	0.000000	6.976030	34.1757	NaN	0.000000	0.001615	0.001710	28.0813	20.6743	0.001716	12047.2	6.319059	-179.351	32.9952	0.973693	0.024343	0.024116	34.1757	12047.2	0.022216	0.026144	1307.21	68072.8
45	2.000000	0.975963	7.36549e+06	-40889.1	955.819	-29789	0.000000	0.000000	6.978262	38.7788	NaN	0.000000	0.001635	0.001666	28.0803	21.925	0.001743	12577.5	4.724960	-177.757	39.2583	0.975691	0.026386	0.026114	38.7788	12577.5	0.024074	0.029352	1321.15	67072.9
45	2.000000	0.977928	7.36549e+06	-40889.1	955.819	-29789	0.000000	0.000000	6.980499	45.4025	NaN	0.000000	0.001681	0.001714	28.0799	23.7352	0.001704	13929.6	4.890942	-178.734	43.7368	0.977586	0.028351	0.028009	45.4025	13929.6	0.025906	0.032685	1389.1	70394.3
45	2.000000	0.979993	7.36549e+06	-40889.1	955.818	-29789	0.000000	0.000000	6.982655	47.6247	NaN	0.000000	0.001674	0.001702	28.0801	25.6407	0.001873	13691	7.488302	179.957	48.4932	0.979599	0.030416	0.030022	47.6247	13691	0.027807	0.036320	1311.25	65634.9
45	2.000000	0.981902	7.36549e+06	-40889.1	955.818	-29789	0.000000	0.000000	6.984841	54.3532	NaN	0.000000	0.001657	0.001707	28.08	26.7193	0.001765	15138.4	5.344039	-179.526	52.9847	0.981602	0.032325	0.032025	54.3532	15138.4	0.029632	0.039984	1359.36	69168.3
45	2.000000	0.983944	7.36549e+06	-40889.1	955.818	-29789	0.000000	0.000000	6.987055	58.5443	NaN	0.000000	0.001676	0.001688	28.0821	30.0198	0.001884	15933.3	8.382891	176.138	58.0157	0.983612	0.034367	0.034035	58.5443	15933.3	0.031611	0.044150	1326.03	69280.7
45	2.000000	0.985907	7.36549e+06	-40889.1	955.818	-29789	0.000000	0.000000	6.989205	63.1044	NaN	0.000000	0.001653	0.001686	28.0827	30.6004	0.001789	17107.6	5.724445	179.005	61.3494	0.985556	0.036330	0.035979	63.1044	17107.6	0.033563	0.048453	1302.38	71007
45	2.000000	0.987912	7.36549e+06	-40889.1	955.819	-29789	0.000000	0.000000	6.991411	68.0012	NaN	0.000000	0.001571	0.001700	28.0829	32.6625	0.001737	18800.3	3.094287	-179.07	68.0062	0.987626	0.038334	0.038048	68.0012	18800.3	0.035621	0.053203	1278.15	74468.1
45	2.000000	0.989944	7.36549e+06	-40889.1	955.82	-29789	0.000000	0.000000	6.993614	72.1468	NaN	0.000000	0.001586	0.001683	28.0826	35.9111	0.001907	18833.8	9.562180	174.884	72.3242	0.989622	0.040367	0.040045	72.1468	18833.8	0.037494	0.057712	1250.12	71627.4
45	2.000000	0.991854	7.36549e+06	-40889.1	955.819	-29789	0.000000	0.000000	6.995804	78.9649	NaN	0.000000	0.001601	0.001699	28.0826	37.4582	0.001860	20140.2	7.751581	175.032	76.7126	0.991577	0.042277	0.042000	78.9649	20140.2	0.039336	0.062324	1267.02	73707.5
45	2.000000	0.993863	7.36549e+06	-40889.1	955.819	-29789	0.000000	0.000000	6.997830	79.3694	NaN	0.000000	0.001546	0.001734	28.0806	39.12	0.001834	21332.4	4.738266	177.143	77.6846	0.993655	0.044286	0.044077	79.3694	21332.4	0.041495	0.067949	1168.06	74768.6
45	2.000000	0.995901	7.36549e+06	-40889.1	955.818	-29789	0.000000	0.000000	7.000333	90.6718	NaN	0.000000	0.001549	0.001686	28.081	39.4208	0.001731	22779.9	3.180213	178.79	89.8764	0.995553	0.046324	0.045975	90.6718	22779.9	0.043339	0.072942	1243.07	77061.6
45	2.000000	0.997897	7.36549e+06	-40889.1	955.819	-29789	0.000000	0.000000	7.002503	94.9209	NaN	0.000000	0.001560	0.001704	28.0819	41.6269	0.001664	25012.5	5.771927	175.233	94.3236	0.997590	0.048320	0.048012	94.9209	25012.5	0.045474	0.078938	1202.47	81336.8
45	2.000000	0.999900	7.36549e+06	-40889.1	955.818	-29789	0.000000	0.000000	7.004775	101.474	NaN	0.000000	0.001571	0.001737	28.0811	44.2353	0.001884	23475.3	6.801314	175.281	98.6639	0.999583	0.050322	0.050005	101.474	23475.3	0.047080	0.083603	1213.76	74177.8
45	2.000000	1.001870	7.36549e+06	-40889.1	955.818	-29789	0.000000	0.000000	7.006937	106.153	NaN	0.000000	0.001590	0.001699	28.0808	46.5286	0.001989	23396.2	4.959274	177.476	104.273	1.001537	0.052292	0.051959	106.153	23396.2	0.048890	0.089012	1192.57	71646.4
45	2.000000	1.003912	7.36549e+06	-40889.1	955.819	-29789	0.000000	0.000000	7.009268	113.189	NaN	0.000000	0.001602	0.001685	28.0828	48.0438	0.001893	25385.4	3.075974	178.002	114.08	1.003550	0.054335	0.053972	113.189	25385.4	0.050990	0.095499	1185.23	75051.1
45	2.000000	1.005819	7.36549e+06	-40889.1	955.818	-29789	0.000000	0.000000	7.011587	123.204	NaN	0.000000	0.001589	0.001693	28.0818	49.3937	0.001758	28097	4.499401	175.293	120.637	1.005539	0.056242	0.055962	123.204	28097	0.052953	0.101758	1210.76	80472.7
45	2.000000	1.007763	7.36549e+06	-40889.1	955.819	-29789	0.000000	0.000000	7.014078	136.513	NaN	0.000000	0.001605	0.001700	28.0813	51.354	0.001897	27078	2.579835	177.956	130.228	1.007508	0.058185	0.057930	136.513	27078	0.054404	0.106511	1281.68	75804.1
45	2.000000	1.009936	7.36549e+06	-40889.1	955.819	-29789	0.000000	0.000000	7.016564	144.132	NaN	0.000000	0.001629	0.001664	28.0828	54.1203	0.001716	31532.1	7.281768	171.57	146.272	1.009583	0.060359	0.060006	144.132	31532.1	0.056931	0.115033	1252.96	84940.5
45	2.000000	1.011861	7.36549e+06	-40889.1	955.819	-29789	0.000000	0.000000	7.018836	152.563	NaN	0.000000	0.001617	0.001668	28.0823	54.7587	0.001823	30035.8	5.127700	174.825	151.979	1.011598	0.062284	0.062021	152.563	30035.8	0.058474	0.120393	1267.21	79088.1
45	2.000000	1.013864	7.36549e+06	-40889.1	955.819	-29789	0.000000	0.000000	7.021273	163.135	NaN	0.000000	0.001609	0.001702	28.0826	58.027	0.001816	31961.5	6.382238	173.3	161.421	1.013452	0.064287	0.063875	163.135	31961.5	0.060459	0.127458	1279.91	81793.2
45	2.000000	1.015834	7.36549e+06	-40889.1	955.82	-29789	0.000000	0.000000	7.023441	167.95	NaN	0.000000	0.001603	0.001676	28.0808	59.1587	0.001808	32713.7	5.814520	173.356	164.987	1.015539	0.066257	0.065961	167.95	32713.7	0.062407	0.134579	1247.96	81472.9
45	2.000000	1.017842	7.36549e+06	-40889.1	955.819	-29789	0.000000	0.000000	7.026119	184.24	NaN	0.000000	0.001575	0.001682	28.0804	59.0117	0.001763	33472.3	3.396120	175.841	182.14	1.017517	0.068265	0.067940	184.24	33472.3	0.064136	0.141058	1306.14	81425.6
45	2.000000	1.019842	7.36549e+06	-40889.1	955.82	-29789	0.000000	0.000000	7.028404	191.184	NaN	0.000000	0.001553	0.001684	28.0817	61.845	0.001939	31898.6	7.531597	172.756	187.719	1.019645	0.070265	0.070068	191.184	31898.6	0.065770	0.147307	1297.86	75933.3
45	2.000000	1.021878	7.36549e+06	-40889.1	955.82	-29789	0.000000	0.000000	7.031213	209.984	NaN	0.000000	0.001588	0.001688	28.0796	65.053	0.001717	37878.5	4.384104	174.636	208.441	1.021547	0.072301	0.071970	209.984	37878.5	0.068143	0.156616	1340.76	87447.6
45	2.000000	1.023800	7.36549e+06	-40889.1	955.82	-29789	0.000000	0.000000	7.033716	224.12	NaN	0.000000	0.001574	0.001672	28.0822	68.8736	0.001801	38248.4	8.074669	169.931	220.991	1.023429	0.074223	0.073852	224.12	38248.4	0.069828	0.163391	1371.68	86451.6
45	2.000000	1.025816	7.36549e+06	-40889.1	955.819	-29789	0.000000	0.000000	7.036110	233.33	NaN	0.000000	0.001613	0.001672	28.0805	68.2959	0.001819	37546.7	2.936972	175.247	228.654	1.025509	0.076239	0.075932	233.33	37546.7	0.071578	0.170567	1367.97	83061
45	2.000000	1.027834	7.36549e+06	-40889.1	955.819	-29789	0.000000	0.000000	7.038497	242.328	NaN	0.000000	0.001615	0.001667	28.0814	71.498	0.001812	39462.5	4.984983	172.485	241.288	1.027610	0.078256	0.078033	242.328	39462.5	0.073651	0.179255	1351.86	85157.3
45	2.000000	1.029816	7.36549e+06	-40889.1	955.82	-29789	0.000000	0.000000	7.041225	260.463	NaN	0.000000	0.001595	0.001692	28.0818	72.6635	0.001675	43391	4.369782	171.943	257.017	1.029615	0.080238	0.080038	260.463	43391	0.075736	0.188202	1383.95	91382
45	2.000000	1.031815	7.36549e+06	-40889.1	955.819	-29789	0.000000	0.000000	7.043852	275.744	NaN	0.000000	0.001594	0.001738	28.082	73.9406	0.001830	40409.6	3.817434	174.058	273.974	1.031462	0.082238	0.081885	275.744	40409.6	0.077120	0.194251	1419.53	83767.7
45	2.000000	1.033866	7.36549e+06	-40889.1	955.819	-29789	0.000000	0.000000	7.045990	277.86	NaN	0.000000	0.001607	0.001723	28.0809	76.4805	0.001893	40409	1.467031	176.029	276.215	1.033623	0.084289	0.084046	277.86	40409	0.079131	0.203204	1367.39	81900.2
45	2.000000	1.035789	7.36549e+06	-40889.1	955.819	-29789	0.000000	0.000000	7.048508	292.343	NaN	0.000000	0.001603	0.001704	28.0796	77.9521	0.001713	45509.7	7.183754	168.192	288.589	1.035490	0.086211	0.085913	292.343	45509.7	0.081394	0.213499	1369.3	89986.9
45	2.000000	1.037895	7.36549e+06	-40889.1	955.819	-29789	0.000000	0.000000	7.051197	306.518	NaN	0.000000	0.001636	0.001708	28.0817	79.2601	0.001697	46716.2	1.817867	174.687	310.705	1.037551	0.088318	0.087974	306.518	46716.2	0.083397	0.222815	1375.66	90420.9
45	2.000000	1.039771	7.36549e+06	-40889.1	955.818	-29789	0.000000	0.000000	7.053333	312.843	NaN	0.000000	0.001591	0.001726	28.0801	81.7048	0.001754	46595	3.588402	172.392	307.154	1.039512	0.090194	0.089935	312.843	46595	0.085158	0.231157	1353.38	88544
45	2.000000	1.041829	7.36549e+06	-40889.1	955.82	-29789	0.000000	0.000000	7.056271	334.256	NaN	0.000000	0.001615	0.001692	28.081	82.932	0.001831	45283.9	1.268984	175.503	332.711	1.041481	0.092252	0.091904	334.256	45283.9	0.086716	0.238657	1400.57	84689.6
45	2.000000	1.043779	7.36549e+06	-40889.1	955.819	-29789	0.000000	0.000000	7.058760	347.381	NaN	0.000000	0.001576	0.001727	28.0808	86.706	0.001843	47042.6	6.667513	169.413	343.224	1.043472	0.094202	0.093895	347.381	47042.6	0.088664	0.248188	1399.67	86272.9
45	2.000000	1.045787	7.36549e+06	-40889.1	955.82	-29789	0.000000	0.000000	7.061395	362.621	NaN	0.000000	0.001610	0.001701	28.0818	86.8096	0.001821	47664	1.402398	174.873	358.295	1.045524	0.096210	0.095947	362.621	47664	0.090504	0.257357	1409.02	85841.1
45	2.000000	1.047758	7.36549e+06	-40889.1	955.819	-29789	0.000000	0.000000	7.063706	370.921	NaN	0.000000	0.001630	0.001692	28.0818	89.7385	0.001781	50393.4	3.145079	172.282	366.044	1.047544	0.098180	0.097967	370.921	50393.4	0.092660	0.268292	1382.53	88888
45	2.000000	1.049929	7.36549e+06	-40889.1	955.819	-29789	0.000000	0.000000	7.066257	380.152	NaN	0.000000	0.001623	0.001686	28.0816	92.5281	0.001927	48018.2	5.576679	170.489	383.362	1.049765	0.100352	0.100188	380.152	48018.2	0.094414	0.277349	1370.66	83304.1
45	2.000000	1.051927	7.36549e+06	-40889.1	955.82	-29789	0.000000	0.000000	7.069168	402.364	NaN	0.000000	0.001632	0.001672	28.0816	93.4685	0.001820	51361.3	8.901451	167.705	406.22	1.051457	0.102350	0.101880	402.364	51361.3	0.096474	0.288162	1396.31	87416
45	2.000000	1.053752	7.36549e+06	-40889.1	955.819	-29789	0.000000	0.000000	7.071725	420.172	NaN	0.000000	0.001618	0.001732	28.0811	94.9728	0.001907	49794	4.772863	171.116	418.29	1.053443	0.104175	0.103865	420.172	49794	0.097846	0.295473	1422.03	83693.5
45	2.000000	1.055813	7.36549e+06	-40889.1	955.819	-29789	0.000000	0.000000	7.074369	434.358	NaN	0.000000	0.001590	0.001708	28.0821	94.8304	0.001813	52312.9	5.654970	170.678	431.912	1.055428	0.106236	0.105851	434.358	52312.9	0.100009	0.307166	1414.08	86237.3
45	2.000000	1.057714	7.36549e+06	-40889.1	955.82	-29789	0.000000	0.000000	7.077044	453.203	NaN	0.000000	0.001615	0.001725	28.0822	97.6401	0.001783	54752.2	4.116476	171.618	448.322	1.057468	0.108137	0.107891	453.203	54752.2	0.101929	0.317730	1426.38	88745.5
45	2.000000	1.059814	7.36549e+06	-40889.1	955.821	-29789	0.000000	0.000000	7.079426	460.052	NaN	0.000000	0.001574	0.001715	28.0824	99.1944	0.001862	53262.6	2.013437	173.758	459.482	1.059497	0.110237	0.109920	460.052	53262.6	0.103759	0.327952	1402.8	84974.8
45	2.000000	1.061802	7.36549e+06	-40889.1	955.82	-29789	0.000000	0.000000	7.082048	475.514	NaN	0.000000	0.001564	0.001725	28.0817	101.681	0.001907	53331.2	6.684791	169.18	475.216	1.061455	0.112224	0.111878	475.514	53331.2	0.105537	0.338030	1406.72	83806.4
45	2.000000	1.062762	7.36549e+06	-40889.1	955.82	-29789	0.000000	0.000000	7.083374	484.413	NaN	0.000000	0.001589	0.001695	28.1187	101.023	0.001769	57091.5	4.275265	170.414	480.578	1.062431	0.113185	0.112854	484.413	57091.5	0.106821	0.345396	1402.49	88753.6