File: remote_trans/data/nanoindenter/0828-1/data/Data_2025-08-06,11h17m57s/2025-07-22_16-23-58_1_664.txt
2025-07-22, 16:23:58, 1
Index	Phase	Displacement	Time	Pos X	Pos Y	Pos Z	Rot A	Rot B	Piezo Z	Force A	Force B	Gripper	Voltage A	Voltage B	Temperature	Amplitude force	Amplitude pos	Stiffness	Phase shift	Phase excitation	Force A raw	Displacement raw	HMax	HMax raw	Real Force	Real Stiffness	Contact Depth	Area	Hardness	Reduced Mod.
[#]	[#]	[um]	[s]	[um]	[um]	[um]	[m°]	[m°]	[um]	[uN]	[uN]	[V]	[V]	[V]	[°C]	[uN]	[um]	[N/m]	[°]	[°]	[uN]	[um]	[um]	[um]	[uN]	[N/m]	[um]	[um^2]	[MPa]	[MPa]
664	1.000000	0.002594	7.37155e+06	-43889.1	1005.82	-29777.4	0.000000	0.000000	6.002809	0.006315	NaN	0.000000	0.001584	0.001782	28.0838	0.018416	0.000768	23.9659	-156.585	-165.573	0.039717	0.001323	-1.183117	-1.184389	0.006315	23.9659	-1.183315	-6.565636E+15	-9.618419E-19	NaN
664	1.000000	0.012658	7.37155e+06	-43889.1	1005.82	-29777.4	0.000000	0.000000	6.012872	0.000584	NaN	0.000000	0.001580	0.001781	28.0841	0.038028	0.001317	28.8821	-162.783	17.9588	-0.099167	0.011174	-1.173054	-1.174537	0.000584	28.8821	-1.173069	-4.786374E+15	-1.220847E-19	NaN
664	1.000000	0.022523	7.37155e+06	-43889.1	1005.82	-29777.4	0.000000	0.000000	6.022734	-0.062248	NaN	0.000000	0.001572	0.001738	28.0841	0.082981	0.001832	45.2901	-146.957	-166.258	-0.022228	0.021228	-1.163189	-1.164483	-0.062248	45.2901	-1.162158	-3.418176E+15	1.821081E-17	NaN
664	1.000000	0.032518	7.37155e+06	-43889.1	1005.82	-29777.4	0.000000	0.000000	6.032732	-0.004264	NaN	0.000000	0.001595	0.001741	28.0837	0.117820	0.001906	61.8171	-98.5734	14.8134	-0.071618	0.031173	-1.153194	-1.154539	-0.004264	61.8171	-1.153142	-2.587862E+15	1.647884E-18	NaN
664	1.000000	0.042532	7.37155e+06	-43889.1	1005.82	-29777.4	0.000000	0.000000	6.042747	0.027168	NaN	0.000000	0.001578	0.001744	28.0834	0.090060	0.001963	45.8708	-26.9928	-166.337	-0.027199	0.041232	-1.143179	-1.144480	0.027168	45.8708	-1.143624	-1.928986E+15	-1.408425E-17	NaN
664	1.000000	0.052523	7.37155e+06	-43889.1	1005.82	-29777.4	0.000000	0.000000	6.052737	-0.000326	NaN	0.000000	0.001585	0.001747	28.0831	0.122175	0.002010	60.7702	-159.325	14.8436	-0.070868	0.051207	-1.133189	-1.134505	-0.000326	60.7702	-1.133185	-1.397450E+15	2.334265E-19	NaN
664	1.000000	0.062539	7.37155e+06	-43889.1	1005.82	-29777.4	0.000000	0.000000	6.062752	-0.023650	NaN	0.000000	0.001599	0.001745	28.0826	0.084229	0.001962	42.9325	-67.8414	-161.754	-0.003755	0.061273	-1.123173	-1.124438	-0.023650	42.9325	-1.122759	-1.012731E+15	2.335232E-17	NaN
664	1.000000	0.072559	7.37155e+06	-43889.1	1005.82	-29777.4	0.000000	0.000000	6.072772	-0.027956	NaN	0.000000	0.001567	0.001754	28.083	0.042299	0.002007	21.0783	-109.473	15.9904	-0.046222	0.071222	-1.113152	-1.114489	-0.027956	21.0783	-1.112158	-7.298636E+14	3.830251E-17	NaN
664	1.000000	0.082532	7.37155e+06	-43889.1	1005.82	-29777.4	0.000000	0.000000	6.082749	0.067696	NaN	0.000000	0.001587	0.001777	28.0831	0.065369	0.002105	31.0588	33.3025	-164.666	0.029420	0.081255	-1.103179	-1.104457	0.067696	31.0588	-1.104814	-5.816839E+14	-1.163792E-16	NaN
664	1.000000	0.092524	7.37155e+06	-43889.1	1005.82	-29777.4	0.000000	0.000000	6.092739	0.006840	NaN	0.000000	0.001578	0.001771	28.0831	0.002805	0.002040	1.375417	-1.876274	12.2881	-0.001363	0.091187	-1.093187	-1.094524	0.006840	1.375417	-1.096917	-4.556991E+14	-1.500887E-17	NaN
664	1.000000	0.102547	7.37155e+06	-43889.1	1005.82	-29777.4	0.000000	0.000000	6.102762	0.038523	NaN	0.000000	0.001586	0.001703	28.0829	0.088288	0.001903	46.391	97.9071	-163.711	0.005939	0.101174	-1.083165	-1.084537	0.038523	46.391	-1.083788	-3.036625E+14	-1.268601E-16	NaN
664	1.000000	0.112566	7.37155e+06	-43889.1	1005.82	-29777.4	0.000000	0.000000	6.112779	-0.025923	NaN	0.000000	0.001579	0.001769	28.0829	0.023714	0.001873	12.6644	-0.214111	15.1582	0.054597	0.111179	-1.073146	-1.074533	-0.025923	12.6644	-1.071610	-2.083647E+14	1.244139E-16	NaN
664	1.000000	0.122562	7.37155e+06	-43889.1	1005.82	-29777.4	0.000000	0.000000	6.122776	-0.000401	NaN	0.000000	0.001592	0.001736	28.0831	0.107848	0.001931	55.8511	-178.669	-165.45	-0.017830	0.121228	-1.063150	-1.064484	-0.000401	55.8511	-1.063144	-1.603513E+14	2.500811E-18	NaN
664	1.000000	0.132583	7.37155e+06	-43889.1	1005.82	-29777.4	0.000000	0.000000	6.132799	0.041732	NaN	0.000000	0.001579	0.001778	28.0831	0.047270	0.001996	23.6841	-141.886	18.373	0.080556	0.131213	-1.053129	-1.054499	0.041732	23.6841	-1.054450	-1.225280E+14	-3.405941E-16	NaN
664	1.000000	0.142530	7.37155e+06	-43889.1	1005.82	-29777.4	0.000000	0.000000	6.142743	-0.032080	NaN	0.000000	0.001556	0.001754	28.0828	0.109885	0.002054	53.5098	43.2297	-165.534	-0.026310	0.141248	-1.043181	-1.044464	-0.032080	53.5098	-1.042732	-8.525069E+13	3.762997E-16	NaN
664	1.000000	0.152579	7.37155e+06	-43889.1	1005.82	-29777.4	0.000000	0.000000	6.152793	0.003937	NaN	0.000000	0.001612	0.001727	28.083	0.019028	0.001939	9.814375	-117.736	14.6685	-0.122027	0.151244	-1.033133	-1.034467	0.003937	9.814375	-1.033434	-6.392385E+13	-6.159520E-17	NaN
664	1.000000	0.162574	7.37155e+06	-43889.1	1005.82	-29777.4	0.000000	0.000000	6.162788	-0.014742	NaN	0.000000	0.001602	0.001723	28.0827	0.058670	0.001996	29.3881	9.961886	-164.981	0.009627	0.161222	-1.023138	-1.024490	-0.014742	29.3881	-1.022761	-4.593101E+13	3.209528E-16	NaN
664	1.000000	0.172576	7.37155e+06	-43889.1	1005.82	-29777.4	0.000000	0.000000	6.172791	0.005459	NaN	0.000000	0.001585	0.001752	28.0841	0.040092	0.001996	20.083	-92.8822	16.9723	0.064795	0.171277	-1.013135	-1.014435	0.005459	20.083	-1.013339	-3.430238E+13	-1.591472E-16	NaN
664	1.000000	0.182591	7.37155e+06	-43889.1	1005.82	-29777.4	0.000000	0.000000	6.182806	0.003048	NaN	0.000000	0.001617	0.001731	28.0843	0.057703	0.001961	29.425	-20.9203	-159.816	-0.095876	0.181319	-1.003120	-1.004392	0.003048	29.425	-1.003198	-2.505075E+13	-1.216644E-16	NaN
664	1.000000	0.192620	7.37155e+06	-43889.1	1005.82	-29777.4	0.000000	0.000000	6.192833	-0.042563	NaN	0.000000	0.001586	0.001737	28.0844	0.049620	0.002005	24.7526	65.0568	16.6872	0.004843	0.191239	-0.993092	-0.994472	-0.042563	24.7526	-0.991802	-1.759459E+13	2.419089E-15	NaN
664	1.000000	0.202606	7.37155e+06	-43889.1	1005.82	-29777.4	0.000000	0.000000	6.202820	0.000456	NaN	0.000000	0.001607	0.001754	28.0842	0.090519	0.001872	48.3545	107.832	-167.458	-0.055694	0.201284	-0.983106	-0.984427	0.000456	48.3545	-0.983113	-1.343826E+13	-3.396391E-17	NaN
664	1.000000	0.212627	7.37155e+06	-43889.1	1005.82	-29777.4	0.000000	0.000000	6.212837	-0.110058	NaN	0.000000	0.001596	0.001776	28.0841	0.052181	0.001875	27.8359	-79.313	15.6964	-0.165558	0.211204	-0.973084	-0.974507	-0.110058	27.8359	-0.970119	-8.979804E+12	1.225615E-14	NaN
664	1.000000	0.222585	7.37155e+06	-43889.1	1005.82	-29777.4	0.000000	0.000000	6.222799	-0.020335	NaN	0.000000	0.001585	0.001715	28.0842	0.086110	0.001865	46.173	3.786516	-164.33	-0.073416	0.221340	-0.963126	-0.964372	-0.020335	46.173	-0.962796	-7.154255E+12	2.842317E-15	NaN
664	1.000000	0.232626	7.37155e+06	-43889.1	1005.82	-29777.4	0.000000	0.000000	6.232840	-0.020350	NaN	0.000000	0.001608	0.001764	28.0843	0.028594	0.002033	14.0667	-111.963	13.5906	-0.053752	0.231308	-0.953085	-0.954403	-0.020350	14.0667	-0.952000	-5.116883E+12	3.977126E-15	NaN
664	1.000000	0.242619	7.37155e+06	-43889.1	1005.82	-29777.4	0.000000	0.000000	6.242833	-0.011640	NaN	0.000000	0.001617	0.001740	28.0846	0.056387	0.001912	29.4905	-143.945	-166.525	-0.024760	0.241284	-0.943092	-0.944428	-0.011640	29.4905	-0.942796	-3.844705E+12	3.027456E-15	NaN
664	1.000000	0.252626	7.37155e+06	-43889.1	1005.82	-29777.4	0.000000	0.000000	6.252838	-0.042602	NaN	0.000000	0.001565	0.001776	28.0839	0.138693	0.001945	71.2924	-92.5918	13.0608	-0.038215	0.251224	-0.933086	-0.934487	-0.042602	71.2924	-0.932637	-2.804089E+12	1.519270E-14	NaN
664	1.000000	0.262628	7.37155e+06	-43889.1	1005.82	-29777.4	0.000000	0.000000	6.262842	-0.006551	NaN	0.000000	0.001601	0.001764	28.0845	0.113592	0.002008	56.5668	142.904	-163.766	-0.021069	0.261300	-0.923083	-0.924412	-0.006551	56.5668	-0.922996	-2.078065E+12	3.152452E-15	NaN
664	1.000000	0.272644	7.37155e+06	-43889.1	1005.82	-29777.4	0.000000	0.000000	6.272860	0.035220	NaN	0.000000	0.001599	0.001742	28.0844	0.073732	0.002024	36.4363	170.26	18.5372	0.001270	0.271314	-0.913068	-0.914398	0.035220	36.4363	-0.913793	-1.560937E+12	-2.256367E-14	NaN
664	1.000000	0.282635	7.37155e+06	-43889.1	1005.82	-29777.4	0.000000	0.000000	6.282851	0.029670	NaN	0.000000	0.001609	0.001750	28.0843	0.088664	0.002127	41.6826	-91.5128	-166.347	-0.044641	0.281343	-0.903076	-0.904369	0.029670	41.6826	-0.903610	-1.137215E+12	-2.609004E-14	NaN
664	1.000000	0.292640	7.37155e+06	-43889.1	1005.82	-29777.4	0.000000	0.000000	6.292853	-0.042003	NaN	0.000000	0.001590	0.001714	28.0842	0.022886	0.001910	11.9852	-16.508	17.0038	0.064182	0.291252	-0.893071	-0.894460	-0.042003	11.9852	-0.890443	-7.549249E+11	5.563896E-14	NaN
664	1.000000	0.302624	7.37155e+06	-43889.1	1005.82	-29777.4	0.000000	0.000000	6.302836	-0.067219	NaN	0.000000	0.001582	0.001743	28.0844	0.090025	0.001940	46.4016	56.8492	-166.48	-0.049342	0.301326	-0.883088	-0.884385	-0.067219	46.4016	-0.882001	-5.804545E+11	1.158036E-13	NaN
664	1.000000	0.312654	7.37155e+06	-43889.1	1005.82	-29777.4	0.000000	0.000000	6.312867	-0.013381	NaN	0.000000	0.001574	0.001732	28.083	0.063087	0.002019	31.25	106.775	16.2916	0.037364	0.311305	-0.873058	-0.874406	-0.013381	31.25	-0.872737	-4.349787E+11	3.076244E-14	NaN
664	1.000000	0.322627	7.37155e+06	-43889.1	1005.82	-29777.4	0.000000	0.000000	6.322841	0.008754	NaN	0.000000	0.001604	0.001766	28.0829	0.052609	0.001880	27.9829	-14.5336	-166.759	-0.004706	0.321348	-0.863085	-0.864364	0.008754	27.9829	-0.863319	-3.243749E+11	-2.698862E-14	NaN
664	1.000000	0.332641	7.37155e+06	-43889.1	1005.82	-29777.4	0.000000	0.000000	6.332856	5.514906E-5	NaN	0.000000	0.001642	0.001774	28.083	0.057919	0.002023	28.6309	-45.0141	16.8088	0.098458	0.331286	-0.853070	-0.854425	5.514906E-5	28.6309	-0.853072	-2.356830E+11	-2.339967E-16	NaN
664	1.000000	0.342657	7.37155e+06	-43889.1	1005.82	-29777.4	0.000000	0.000000	6.342868	-0.086344	NaN	0.000000	0.001602	0.001781	28.0831	0.059413	0.002117	28.0701	-105.96	-165.068	-0.082707	0.341393	-0.843054	-0.844318	-0.086344	28.0701	-0.840747	-1.604773E+11	5.380463E-13	NaN
664	1.000000	0.352646	7.37155e+06	-43889.1	1005.82	-29777.4	0.000000	0.000000	6.352859	-0.027976	NaN	0.000000	0.001593	0.001741	28.0829	0.100653	0.001933	52.0648	-157.453	13.588	-0.013176	0.351281	-0.833066	-0.834431	-0.027976	52.0648	-0.832663	-1.247013E+11	2.243453E-13	NaN
664	1.000000	0.362658	7.37155e+06	-43889.1	1005.82	-29777.4	0.000000	0.000000	6.362871	-0.050620	NaN	0.000000	0.001565	0.001732	28.0832	0.076005	0.002096	36.2586	-41.4429	-167.271	-0.015084	0.361337	-0.823053	-0.824375	-0.050620	36.2586	-0.822006	-8.941542E+10	5.661227E-13	NaN
664	1.000000	0.372642	7.37155e+06	-43889.1	1005.82	-29777.4	0.000000	0.000000	6.372855	-0.025506	NaN	0.000000	0.001666	0.001734	28.0832	0.025305	0.002098	12.0593	-51.9847	13.0337	-0.046676	0.371300	-0.813070	-0.814411	-0.025506	12.0593	-0.811483	-6.437164E+10	3.962290E-13	NaN
664	1.000000	0.382664	7.37155e+06	-43889.1	1005.82	-29777.4	0.000000	0.000000	6.382876	-0.056471	NaN	0.000000	0.001673	0.001740	28.0834	0.108791	0.002001	54.3709	-67.0519	-160.775	-0.057086	0.381331	-0.803048	-0.804381	-0.056471	54.3709	-0.802269	-4.826750E+10	1.169967E-12	NaN
664	1.000000	0.392662	7.37155e+06	-43889.1	1005.82	-29777.4	0.000000	0.000000	6.392874	-0.052649	NaN	0.000000	0.001685	0.001756	28.083	0.007070	0.002017	3.504756	140.675	15.7837	-0.036206	0.391279	-0.793049	-0.794433	-0.052649	3.504756	-0.781783	-2.543636E+10	2.069835E-12	NaN
664	1.000000	0.402702	7.37155e+06	-43889.1	1005.82	-29777.4	0.000000	0.000000	6.402917	-0.003620	NaN	0.000000	0.001650	0.001726	28.0828	0.059318	0.001866	31.7813	54.1765	-163.777	0.002643	0.401353	-0.783009	-0.784358	-0.003620	31.7813	-0.782924	-2.636074E+10	1.373112E-13	NaN
664	1.000000	0.412690	7.37155e+06	-43889.1	1005.82	-29777.4	0.000000	0.000000	6.412903	-0.035099	NaN	0.000000	0.001673	0.001779	28.0832	0.057549	0.001996	28.8378	-42.0121	15.1192	0.025329	0.411400	-0.773022	-0.774312	-0.035099	28.8378	-0.772109	-1.879205E+10	1.867767E-12	NaN
664	1.000000	0.422708	7.37155e+06	-43889.1	1005.82	-29777.4	0.000000	0.000000	6.422920	-0.065539	NaN	0.000000	0.001642	0.001761	28.0829	0.018319	0.001923	9.527941	150.041	-166.859	-0.061508	0.421393	-0.763003	-0.764319	-0.065539	9.527941	-0.757844	-1.202191E+10	5.451593E-12	NaN
664	1.000000	0.432702	7.37155e+06	-43889.1	1005.82	-29777.4	0.000000	0.000000	6.432915	-0.043735	NaN	0.000000	0.001656	0.001724	28.083	0.039228	0.002021	19.4121	144.89	15.4108	-0.033507	0.431350	-0.753010	-0.754362	-0.043735	19.4121	-0.751320	-9.799055E+9	4.463226E-12	NaN
664	1.000000	0.442722	7.37155e+06	-43889.1	1005.82	-29777.4	0.000000	0.000000	6.442934	-0.049297	NaN	0.000000	0.001672	0.001763	28.084	0.126702	0.002100	60.3291	24.1988	-164.372	-0.013393	0.441398	-0.742990	-0.744314	-0.049297	60.3291	-0.742377	-7.403367E+9	6.658745E-12	NaN
664	1.000000	0.452700	7.37155e+06	-43889.1	1005.82	-29777.4	0.000000	0.000000	6.452917	0.073936	NaN	0.000000	0.001675	0.001736	28.0844	0.064341	0.001930	33.3419	-3.172989	13.4219	-0.024647	0.451352	-0.733012	-0.734359	0.073936	33.3419	-0.734675	-5.814486E+9	-1.271576E-11	NaN
664	1.000000	0.462700	7.37155e+06	-43889.1	1005.82	-29777.4	0.000000	0.000000	6.462913	-0.037382	NaN	0.000000	0.001648	0.001752	28.0841	0.047992	0.002004	23.9426	-12.6091	-161.183	-0.047395	0.461402	-0.723012	-0.724309	-0.037382	23.9426	-0.721841	-3.886627E+9	9.618186E-12	NaN
664	1.000000	0.472712	7.37155e+06	-43889.1	1005.82	-29777.4	0.000000	0.000000	6.472923	-0.081981	NaN	0.000000	0.001640	0.001741	28.0843	0.076264	0.001995	38.226	-149.063	14.4874	-0.064984	0.471364	-0.713000	-0.714347	-0.081981	38.226	-0.711391	-2.799185E+9	2.928741E-11	NaN
664	1.000000	0.482713	7.37155e+06	-43889.1	1005.82	-29777.4	0.000000	0.000000	6.482926	-0.022739	NaN	0.000000	0.001649	0.001754	28.0841	0.062218	0.001969	31.6047	79.5746	-164.286	-0.057357	0.481407	-0.702999	-0.704305	-0.022739	31.6047	-0.702459	-2.114031E+9	1.075622E-11	NaN
664	1.000000	0.492717	7.37155e+06	-43889.1	1005.82	-29777.4	0.000000	0.000000	6.492931	-0.014529	NaN	0.000000	0.001683	0.001733	28.0843	0.065478	0.001965	33.3218	91.777	12.3901	-0.074467	0.491330	-0.692994	-0.694381	-0.014529	33.3218	-0.692667	-1.553688E+9	9.351180E-12	NaN
664	1.000000	0.502711	7.37155e+06	-43889.1	1005.82	-29777.4	0.000000	0.000000	6.502925	0.003658	NaN	0.000000	0.001669	0.001721	28.0841	0.144099	0.002031	70.9611	-134.269	-163.93	0.014057	0.501425	-0.683001	-0.684287	0.003658	70.9611	-0.683040	-1.147552E+9	-3.187982E-12	NaN
664	1.000000	0.512704	7.37155e+06	-43889.1	1005.82	-29777.4	0.000000	0.000000	6.512920	0.021670	NaN	0.000000	0.001627	0.001731	28.0841	0.064243	0.001945	33.0359	-160.975	12.6968	-0.020954	0.511345	-0.673007	-0.674367	0.021670	33.0359	-0.673499	-8.497183E+8	-2.550257E-11	NaN
664	1.000000	0.522730	7.37155e+06	-43889.1	1005.82	-29777.4	0.000000	0.000000	6.522943	-0.048638	NaN	0.000000	0.001661	0.001759	28.0844	0.071796	0.001964	36.5493	-155.786	-165.139	-0.095086	0.521418	-0.662981	-0.664294	-0.048638	36.5493	-0.661983	-5.910592E+8	8.229009E-11	NaN
664	1.000000	0.532750	7.37155e+06	-43889.1	1005.82	-29777.4	0.000000	0.000000	6.532965	0.008696	NaN	0.000000	0.001631	0.001746	28.0841	0.049364	0.002002	24.6589	-162.063	16.733	0.004759	0.531324	-0.652961	-0.654388	0.008696	24.6589	-0.653226	-4.483864E+8	-1.939463E-11	NaN
664	1.000000	0.542771	7.37155e+06	-43889.1	1005.82	-29777.4	0.000000	0.000000	6.542986	-0.002153	NaN	0.000000	0.001626	0.001767	28.0839	0.130195	0.001979	65.7778	135.093	-165.761	-0.057657	0.541444	-0.642940	-0.644268	-0.002153	65.7778	-0.642916	-3.238093E+8	6.650318E-12	NaN
664	1.000000	0.552767	7.37155e+06	-43889.1	1005.82	-29777.4	0.000000	0.000000	6.552982	0.023112	NaN	0.000000	0.001641	0.001812	28.0842	0.098559	0.002058	47.9019	-35.6165	19.7836	0.011630	0.551418	-0.632944	-0.634294	0.023112	47.9019	-0.633306	-2.390124E+8	-9.669760E-11	NaN
664	1.000000	0.562778	7.37155e+06	-43889.1	1005.82	-29777.4	0.000000	0.000000	6.562992	0.004749	NaN	0.000000	0.001680	0.001801	28.084	0.021725	0.001975	10.998	61.1546	-167.464	0.086146	0.561442	-0.622934	-0.624270	0.004749	10.998	-0.623258	-1.739428E+8	-2.730374E-11	NaN
664	1.000000	0.572773	7.37155e+06	-43889.1	1005.82	-29777.4	0.000000	0.000000	6.572986	-0.035657	NaN	0.000000	0.001667	0.001785	28.0841	0.124371	0.001933	64.335	-42.6724	16.0495	-0.011920	0.571402	-0.612938	-0.614310	-0.035657	64.335	-0.612523	-1.238275E+8	2.879562E-10	NaN
664	1.000000	0.582752	7.37155e+06	-43889.1	1005.82	-29777.4	0.000000	0.000000	6.582963	-0.076323	NaN	0.000000	0.001668	0.001734	28.0828	0.045248	0.001875	24.1333	-101.978	-166.469	-0.042604	0.581433	-0.602959	-0.604279	-0.076323	24.1333	-0.600588	-8.483049E+7	8.997139E-10	NaN
664	1.000000	0.592755	7.37155e+06	-43889.1	1005.82	-29777.4	0.000000	0.000000	6.592971	0.020598	NaN	0.000000	0.001700	0.001799	28.0831	0.150537	0.001975	76.2362	81.4102	14.6111	-0.007974	0.591436	-0.592956	-0.594276	0.020598	76.2362	-0.593159	-6.702036E+7	-3.073324E-10	NaN
664	1.000000	0.602764	7.37155e+06	-43889.1	1005.82	-29777.4	0.000000	0.000000	6.602980	0.028262	NaN	0.000000	0.001674	0.001772	28.0829	0.066522	0.002040	32.6081	145.937	-164.114	-0.011754	0.601461	-0.582947	-0.584250	0.028262	32.6081	-0.583597	-4.947245E+7	-5.712758E-10	NaN
664	1.000000	0.612769	7.37155e+06	-43889.1	1005.82	-29777.4	0.000000	0.000000	6.612982	-0.051346	NaN	0.000000	0.001684	0.001729	28.0832	0.113741	0.002027	56.1141	15.1493	12.2193	-0.085018	0.611458	-0.572942	-0.574253	-0.051346	56.1141	-0.572256	-3.449842E+7	1.488368E-9	NaN
664	1.000000	0.622771	7.37155e+06	-43889.1	1005.82	-29777.4	0.000000	0.000000	6.622984	-0.031413	NaN	0.000000	0.001708	0.001734	28.083	0.132894	0.002032	65.4003	179.743	-164.776	-0.031662	0.621501	-0.562941	-0.564210	-0.031413	65.4003	-0.562580	-2.535526E+7	1.238926E-9	NaN
664	1.000000	0.632804	7.37155e+06	-43889.1	1005.82	-29777.4	0.000000	0.000000	6.633016	-0.067192	NaN	0.000000	0.001620	0.001738	28.0836	0.067621	0.001949	34.7039	-113.489	17.3618	-0.088054	0.631424	-0.552907	-0.554287	-0.067192	34.7039	-0.551455	-1.778724E+7	3.777561E-9	NaN
664	1.000000	0.642805	7.37155e+06	-43889.1	1005.82	-29777.4	0.000000	0.000000	6.643018	-0.030420	NaN	0.000000	0.001637	0.001737	28.0833	0.010272	0.001957	5.248264	-15.9092	-165.852	0.027112	0.641536	-0.542906	-0.544175	-0.030420	5.248264	-0.538559	-1.178620E+7	2.580983E-9	NaN
664	1.000000	0.652783	7.37155e+06	-43889.1	1005.82	-29777.4	0.000000	0.000000	6.652996	-0.026229	NaN	0.000000	0.001596	0.001777	28.0831	0.068617	0.001972	34.7941	18.6056	15.2254	0.070163	0.651444	-0.532929	-0.534267	-0.026229	34.7941	-0.532363	-9.66921e+06	2.712668E-9	NaN
664	1.000000	0.662782	7.37155e+06	-43889.1	1005.82	-29777.4	0.000000	0.000000	6.662994	-0.051394	NaN	0.000000	0.001619	0.001771	28.0831	0.055591	0.001941	28.6372	-35.5835	-162.821	0.025599	0.661480	-0.522929	-0.524232	-0.051394	28.6372	-0.521583	-6.84883e+06	7.503990E-9	NaN
664	1.000000	0.672794	7.37155e+06	-43889.1	1005.82	-29777.4	0.000000	0.000000	6.673009	-0.004154	NaN	0.000000	0.001626	0.001759	28.0832	0.127443	0.001975	64.5421	-150.023	18.1551	0.005587	0.671505	-0.512917	-0.514207	-0.004154	64.5421	-0.512869	-5.18044e+06	8.017875E-10	NaN
664	1.000000	0.682795	7.37155e+06	-43889.1	1005.82	-29777.4	0.000000	0.000000	6.683011	0.026580	NaN	0.000000	0.001586	0.001752	28.0831	0.040313	0.002056	19.6122	2.908142	-165.252	0.058022	0.681501	-0.502916	-0.504211	0.026580	19.6122	-0.503933	-3.88926e+06	-6.834105E-9	NaN
664	1.000000	0.692794	7.37155e+06	-43889.1	1005.82	-29777.4	0.000000	0.000000	6.693007	-0.036041	NaN	0.000000	0.001616	0.001752	28.0831	0.077516	0.002019	38.3988	-90.1753	16.1585	-0.065907	0.691468	-0.492918	-0.494243	-0.036041	38.3988	-0.492214	-2.66885e+06	1.350433E-8	NaN
664	1.000000	0.702808	7.37155e+06	-43889.1	1005.82	-29777.4	0.000000	0.000000	6.703022	-0.009333	NaN	0.000000	0.001616	0.001780	28.0836	0.027208	0.001951	13.9456	118.789	-167.917	0.123343	0.701547	-0.482903	-0.484164	-0.009333	13.9456	-0.482401	-1.94596e+06	4.796024E-9	NaN
664	1.000000	0.712827	7.37155e+06	-43889.1	1005.82	-29777.4	0.000000	0.000000	6.713041	-0.002262	NaN	0.000000	0.001623	0.001762	28.083	0.032473	0.002127	15.2698	-96.3702	13.9047	0.013313	0.711455	-0.472885	-0.474256	-0.002262	15.2698	-0.472774	-1.42659e+06	1.585680E-9	NaN
664	1.000000	0.722816	7.37155e+06	-43889.1	1005.82	-29777.4	0.000000	0.000000	6.723031	0.032713	NaN	0.000000	0.001638	0.001749	28.0843	0.107112	0.001980	54.1045	-142.01	-165.057	0.004087	0.721497	-0.462896	-0.464214	0.032713	54.1045	-0.463349	-1.05213e+06	-3.109212E-8	NaN
664	1.000000	0.732811	7.37155e+06	-43889.1	1005.82	-29777.4	0.000000	0.000000	6.733024	-0.033865	NaN	0.000000	0.001646	0.001759	28.0845	0.086307	0.001997	43.2248	130.996	12.783	-0.002404	0.731466	-0.452900	-0.454246	-0.033865	43.2248	-0.452313	-736041	4.600923E-8	NaN
664	1.000000	0.742805	7.37155e+06	-43889.1	1005.82	-29777.4	0.000000	0.000000	6.743018	-0.028096	NaN	0.000000	0.001618	0.001756	28.0849	0.126763	0.002070	61.2478	-41.6574	-164.923	0.015876	0.741570	-0.442906	-0.444142	-0.028096	61.2478	-0.442562	-536435	5.237611E-8	NaN
664	1.000000	0.752850	7.37155e+06	-43889.1	1005.82	-29777.4	0.000000	0.000000	6.753063	-0.011101	NaN	0.000000	0.001648	0.001767	28.0844	0.038930	0.002016	19.3104	144.007	13.7238	0.045658	0.751468	-0.432862	-0.434243	-0.011101	19.3104	-0.432431	-385869	2.876871E-8	NaN
664	1.000000	0.762820	7.37155e+06	-43889.1	1005.82	-29777.4	0.000000	0.000000	6.763032	-0.051497	NaN	0.000000	0.001645	0.001795	28.0845	0.067070	0.001912	35.0811	156.889	-167.22	0.030180	0.761556	-0.422892	-0.424155	-0.051497	35.0811	-0.421791	-272778	1.887872E-7	NaN
664	1.000000	0.772832	7.37155e+06	-43889.1	1005.82	-29777.4	0.000000	0.000000	6.773045	-0.042763	NaN	0.000000	0.001621	0.001804	28.0846	0.057177	0.001977	28.9268	-151.593	18.1728	-0.004938	0.771448	-0.412879	-0.414264	-0.042763	28.9268	-0.411771	-196595	2.175204E-7	NaN
664	1.000000	0.782840	7.37155e+06	-43889.1	1005.82	-29777.4	0.000000	0.000000	6.783053	-0.031315	NaN	0.000000	0.001631	0.001767	28.0846	0.050089	0.001978	25.3172	-54.6375	-161.783	-0.016411	0.781515	-0.402871	-0.404197	-0.031315	25.3172	-0.401943	-142463	2.198143E-7	NaN
664	1.000000	0.792860	7.37155e+06	-43889.1	1005.82	-29777.4	0.000000	0.000000	6.793074	-0.006985	NaN	0.000000	0.001599	0.001784	28.0844	0.134221	0.001893	70.9175	99.5687	13.2074	-0.046899	0.791433	-0.392852	-0.394278	-0.006985	70.9175	-0.392778	-105411	6.626578E-8	NaN
664	1.000000	0.802842	7.37155e+06	-43889.1	1005.82	-29777.4	0.000000	0.000000	6.803054	-0.053586	NaN	0.000000	0.001608	0.001762	28.0845	0.130237	0.002054	63.3912	171.007	-165.788	-0.044574	0.801545	-0.382870	-0.384166	-0.053586	63.3912	-0.382236	-74467.5	7.195904E-7	NaN
664	1.000000	0.812857	7.37155e+06	-43889.1	1005.82	-29777.4	0.000000	0.000000	6.813070	-0.043822	NaN	0.000000	0.001598	0.001751	28.0846	0.157132	0.002047	76.7675	149.506	14.6637	-0.024530	0.811460	-0.372855	-0.374252	-0.043822	76.7675	-0.372426	-53833.9	8.140153E-7	NaN
664	1.000000	0.822844	7.37155e+06	-43889.1	1005.82	-29777.4	0.000000	0.000000	6.823056	-0.065397	NaN	0.000000	0.001655	0.001781	28.0846	0.029159	0.001947	14.974	-13.351	-166.111	-0.087514	0.821580	-0.362867	-0.364131	-0.065397	14.974	-0.359592	-35151.3	1.860445E-6	NaN
664	1.000000	0.832867	7.37155e+06	-43889.1	1005.82	-29777.4	0.000000	0.000000	6.833084	0.054768	NaN	0.000000	0.001652	0.001749	28.0846	0.016298	0.001949	8.361514	57.7404	14.881	-0.007770	0.831431	-0.352844	-0.354280	0.054768	8.361514	-0.357757	-33067.7	-1.656235E-6	NaN
664	1.000000	0.842883	7.37155e+06	-43889.1	1005.82	-29777.4	0.000000	0.000000	6.843094	-0.070725	NaN	0.000000	0.001675	0.001733	28.0847	0.075729	0.002006	37.7428	-79.1721	-164.553	0.026010	0.841616	-0.342829	-0.344096	-0.070725	37.7428	-0.341423	-19155.6	3.692128E-6	NaN
664	1.000000	0.852866	7.37155e+06	-43889.1	1005.82	-29777.4	0.000000	0.000000	6.853076	-0.099128	NaN	0.000000	0.001724	0.001762	28.0838	0.085644	0.001985	43.1438	88.4142	15.9669	-0.040512	0.851582	-0.332846	-0.334130	-0.099128	43.1438	-0.331123	-13548.4	7.316559E-6	NaN
664	1.000000	0.862885	7.37155e+06	-43889.1	1005.82	-29777.4	0.000000	0.000000	6.863100	0.013981	NaN	0.000000	0.001698	0.001741	28.083	0.115784	0.001958	59.1217	-18.7576	-165.013	-0.035888	0.861565	-0.322827	-0.324146	0.013981	59.1217	-0.323004	-10299.6	-1.357460E-6	NaN
664	1.000000	0.872858	7.37155e+06	-43889.1	1005.82	-29777.4	0.000000	0.000000	6.873071	-0.038588	NaN	0.000000	0.001714	0.001711	28.083	0.066622	0.001962	33.9636	-150.992	13.483	-0.069363	0.871510	-0.312853	-0.314201	-0.038588	33.9636	-0.312001	-7090.13	5.442537E-6	NaN
664	1.000000	0.882876	7.37155e+06	-43889.1	1005.82	-29777.4	0.000000	0.000000	6.883090	-0.024900	NaN	0.000000	0.001718	0.001733	28.0829	0.164735	0.001959	84.091	-118.971	-169.298	-0.007929	0.881604	-0.302835	-0.304108	-0.024900	84.091	-0.302613	-5146.41	4.838418E-6	NaN
664	1.000000	0.892895	7.37155e+06	-43889.1	1005.82	-29777.4	0.000000	0.000000	6.893108	-0.014823	NaN	0.000000	0.001767	0.001748	28.0832	0.050842	0.002069	24.5761	-7.458422	12.6665	-0.050875	0.891520	-0.292817	-0.294192	-0.014823	24.5761	-0.292364	-3619.91	4.094948E-6	NaN
664	1.000000	0.902885	7.37155e+06	-43889.1	1005.82	-29777.4	0.000000	0.000000	6.903099	-0.019080	NaN	0.000000	0.001733	0.001755	28.0829	0.050160	0.002075	24.1703	157.838	-168.089	-0.032591	0.901552	-0.282826	-0.284160	-0.019080	24.1703	-0.282234	-2550.62	7.480701E-6	NaN
664	1.000000	0.912906	7.37155e+06	-43889.1	1005.82	-29777.4	0.000000	0.000000	6.913120	-0.001202	NaN	0.000000	0.001755	0.001757	28.083	0.057936	0.002009	28.8412	155.397	13.828	-0.050196	0.911539	-0.272805	-0.274172	-0.001202	28.8412	-0.272774	-1835.13	6.550889E-7	NaN
664	1.000000	0.922900	7.37155e+06	-43889.1	1005.82	-29777.4	0.000000	0.000000	6.923115	0.021213	NaN	0.000000	0.001745	0.001761	28.0832	0.043280	0.001999	21.646	73.3755	-165.061	0.059963	0.921585	-0.262812	-0.264126	0.021213	21.646	-0.263547	-1327.98	-1.597365E-5	NaN
664	1.000000	0.932923	7.37155e+06	-43889.1	1005.82	-29777.4	0.000000	0.000000	6.933136	-0.028569	NaN	0.000000	0.001732	0.001742	28.083	0.091469	0.002124	43.0575	56.9327	17.1409	-0.048783	0.931506	-0.252788	-0.254205	-0.028569	43.0575	-0.252291	-891.985	3.202844E-5	NaN
664	1.000000	0.942877	7.37155e+06	-43889.1	1005.82	-29777.4	0.000000	0.000000	6.943090	-0.047556	NaN	0.000000	0.001746	0.001745	28.0828	0.032407	0.001975	16.407	155.752	-166.431	-0.060311	0.941600	-0.242834	-0.244112	-0.047556	16.407	-0.240660	-588.656	8.078712E-5	NaN
664	1.000000	0.952904	7.37155e+06	-43889.1	1005.82	-29777.4	0.000000	0.000000	6.953117	-0.039520	NaN	0.000000	0.001741	0.001742	28.0831	0.105915	0.002020	52.4398	95.6094	12.753	-0.055831	0.951565	-0.232807	-0.234147	-0.039520	52.4398	-0.232242	-434.389	9.097784E-5	NaN
664	1.000000	0.962936	7.37155e+06	-43889.1	1005.82	-29777.4	0.000000	0.000000	6.963149	-0.022649	NaN	0.000000	0.001734	0.001762	28.083	0.113332	0.002029	55.8611	9.325577	-167.996	0.006959	0.961581	-0.222776	-0.224131	-0.022649	55.8611	-0.222472	-304.169	7.446155E-5	NaN
664	1.000000	0.972918	7.37155e+06	-43889.1	1005.82	-29777.4	0.000000	0.000000	6.973129	-0.067393	NaN	0.000000	0.001739	0.001768	28.083	0.081506	0.001981	41.1502	75.0666	11.8617	-0.131322	0.971564	-0.212794	-0.214148	-0.067393	41.1502	-0.211566	-203.304	0.000331	NaN
664	1.000000	0.982915	7.37155e+06	-43889.1	1005.82	-29777.4	0.000000	0.000000	6.983127	-0.054277	NaN	0.000000	0.001744	0.001713	28.083	0.101565	0.001953	51.9968	77.0064	-166.984	-0.123660	0.981672	-0.202796	-0.204039	-0.054277	51.9968	-0.202014	-142.148	0.000382	NaN
664	1.000000	0.992915	7.37155e+06	-43889.1	1005.82	-29777.4	0.000000	0.000000	6.993129	-0.004406	NaN	0.000000	0.001748	0.001655	28.0845	0.014787	0.001910	7.741483	-82.7373	12.7225	0.031066	0.991530	-0.192796	-0.194182	-0.004406	7.741483	-0.192370	-98.5218	4.472504E-5	NaN
664	1.000000	1.002938	7.37155e+06	-43889.1	1005.82	-29777.4	0.000000	0.000000	7.003152	-0.012070	NaN	0.000000	0.001759	0.001719	28.0843	0.134488	0.002079	64.6803	-102.059	-166.176	0.008072	1.001614	-0.182773	-0.184097	-0.012070	64.6803	-0.182633	-67.6331	0.000178	NaN
664	1.000000	1.012928	7.37155e+06	-43889.1	1005.82	-29777.4	0.000000	0.000000	7.013144	0.036447	NaN	0.000000	0.001728	0.001688	28.0842	0.042631	0.002149	19.8341	-168.681	12.1232	-0.030265	1.011540	-0.172783	-0.174172	0.036447	19.8341	-0.174162	-48.48	-0.000752	NaN
664	1.000000	1.022938	7.37155e+06	-43889.1	1005.82	-29777.4	0.000000	0.000000	7.023151	-0.040374	NaN	0.000000	0.001658	0.001721	28.0842	0.116244	0.001952	59.549	-39.9598	-161.032	-0.059984	1.021607	-0.162773	-0.164105	-0.040374	59.549	-0.162265	-30.0691	0.001343	NaN
664	1.000000	1.032945	7.37155e+06	-43889.1	1005.82	-29777.4	0.000000	0.000000	7.033157	-0.038292	NaN	0.000000	0.001630	0.001702	28.0842	0.067475	0.001896	35.5921	102.346	13.6989	-0.050073	1.031560	-0.152767	-0.154151	-0.038292	35.5921	-0.151960	-19.6634	0.001947	NaN
664	1.000000	1.042933	7.37155e+06	-43889.1	1005.82	-29777.4	0.000000	0.000000	7.043145	-0.061001	NaN	0.000000	0.001701	0.001688	28.0846	0.084209	0.002150	39.1633	168.698	-161.73	-0.071730	1.041631	-0.142778	-0.144081	-0.061001	39.1633	-0.141610	-12.6803	0.004811	NaN
664	1.000000	1.052932	7.37155e+06	-43889.1	1005.82	-29777.4	0.000000	0.000000	7.053147	0.000321	NaN	0.000000	0.001729	0.001723	28.0841	0.084799	0.002085	40.6806	22.6271	14.5595	-0.006692	1.051600	-0.132779	-0.134111	0.000321	40.6806	-0.132785	-8.626719	-3.726213E-5	NaN
664	1.000000	1.062956	7.37155e+06	-43889.1	1005.82	-29777.4	0.000000	0.000000	7.063168	-0.062645	NaN	0.000000	0.001649	0.001736	28.084	0.026260	0.002041	12.8651	9.456950	-165.423	-0.038026	1.061619	-0.122755	-0.124092	-0.062645	12.8651	-0.119103	-4.633953	0.013519	NaN
664	1.000000	1.072982	7.37155e+06	-43889.1	1005.82	-29777.4	0.000000	0.000000	7.073194	-0.061808	NaN	0.000000	0.001641	0.001712	28.0842	0.085467	0.002032	42.0513	-176.873	15.6833	-0.144481	1.071566	-0.112729	-0.114145	-0.061808	42.0513	-0.111627	-3.251262	0.019010	NaN
664	1.000000	1.082974	7.37155e+06	-43889.1	1005.82	-29777.4	0.000000	0.000000	7.083188	-0.000362	NaN	0.000000	0.001606	0.001728	28.084	0.049204	0.002005	24.5394	-0.182524	-167.134	-0.047447	1.081618	-0.102737	-0.104093	-0.000362	24.5394	-0.102726	-2.097851	0.000173	NaN
664	1.000000	1.092966	7.37155e+06	-43889.1	1005.82	-29777.4	0.000000	0.000000	7.093180	-0.001474	NaN	0.000000	0.001617	0.001725	28.0841	0.045725	0.001960	23.3285	14.8621	11.9601	-0.022229	1.091600	-0.092745	-0.094112	-0.001474	23.3285	-0.092698	-1.249151	0.001180	NaN
664	1.000000	1.102972	7.37155e+06	-43889.1	1005.82	-29777.4	0.000000	0.000000	7.103186	-0.004420	NaN	0.000000	0.001597	0.001720	28.0842	0.055997	0.001984	28.2314	47.7656	-166.989	0.046513	1.101651	-0.082739	-0.084060	-0.004420	28.2314	-0.082622	-0.718918	0.006148	NaN
664	1.000000	1.112976	7.37155e+06	-43889.1	1005.82	-29777.4	0.000000	0.000000	7.113191	0.012479	NaN	0.000000	0.001618	0.001783	28.0847	0.012645	0.002081	6.077730	-21.1091	17.0637	-0.014261	1.111637	-0.072735	-0.074075	0.012479	6.077730	-0.074275	-0.442299	-0.028214	NaN
664	1.000000	1.123007	7.37155e+06	-43889.1	1005.82	-29777.4	0.000000	0.000000	7.123221	0.004575	NaN	0.000000	0.001639	0.001750	28.0841	0.088109	0.001949	45.1982	74.433	-166.973	0.036370	1.121653	-0.062705	-0.064059	0.004575	45.1982	-0.062781	-0.216045	-0.021175	NaN
664	1.000000	1.133003	7.37155e+06	-43889.1	1005.82	-29777.4	0.000000	0.000000	7.133216	-0.015900	NaN	0.000000	0.001661	0.001747	28.083	0.054710	0.001938	28.2287	6.420001	15.8314	-0.030984	1.131584	-0.052709	-0.054128	-0.015900	28.2287	-0.052286	-0.106923	0.148702	NaN
664	1.000000	1.142980	7.37155e+06	-43889.1	1005.82	-29777.4	0.000000	0.000000	7.143194	-0.017635	NaN	0.000000	0.001645	0.001750	28.0828	0.032219	0.001910	16.8689	-118.077	-168.227	0.002837	1.141661	-0.042731	-0.044050	-0.017635	16.8689	-0.041947	-0.051839	0.340181	NaN
664	1.000000	1.153014	7.37155e+06	-43889.1	1005.82	-29777.4	0.000000	0.000000	7.153225	-0.077046	NaN	0.000000	0.001626	0.001732	28.0829	0.097247	0.002095	46.4152	-21.9667	14.4538	-0.037264	1.151595	-0.032697	-0.034117	-0.077046	46.4152	-0.031452	-0.025282	3.047463	NaN
664	1.000000	1.163013	7.37155e+06	-43889.1	1005.82	-29777.4	0.000000	0.000000	7.163223	-0.102089	NaN	0.000000	0.001592	0.001743	28.0829	0.069566	0.001928	36.0726	-39.9465	-166.358	-0.048545	1.161740	-0.022699	-0.023971	-0.102089	36.0726	-0.020576	-0.012992	7.858013	NaN
664	1.000000	1.172990	7.37155e+06	-43889.1	1005.82	-29777.4	0.000000	0.000000	7.173204	-0.010683	NaN	0.000000	0.001596	0.001734	28.0829	0.092293	0.001918	48.1242	76.9308	14.5662	0.093474	1.171639	-0.012721	-0.014072	-0.010683	48.1242	-0.012555	-0.007846	1.361518	NaN
664	1.000000	1.182987	7.37155e+06	-43889.1	1005.82	-29777.4	0.000000	0.000000	7.183247	1.122362	NaN	0.000000	0.001606	0.001759	28.0832	1.818378	0.001925	944.51	7.147902	-167.117	0.372703	1.181635	-0.002725	-0.004077	1.122362	944.51	-0.003616	-0.002529	-443.881	NaN
664	2.000000	1.190998	7.37155e+06	-43889.1	1005.82	-29777.4	0.000000	0.000000	7.191650	10.658	NaN	0.000000	0.001598	0.001743	28.083	10.3238	0.001502	6874.1	7.212349	6.426878	10.02	1.190603	0.005287	0.004891	10.658	6874.1	0.004124	0.003348	3183.72	108547
664	2.000000	1.193483	7.37155e+06	-43889.1	1005.82	-29777.4	0.000000	0.000000	7.194280	14.19	NaN	0.000000	0.001618	0.001703	28.0831	14.2876	0.001816	7869.5	11.0679	-177.637	13.9634	1.193151	0.007771	0.007440	14.19	7869.5	0.006419	0.005466	2596.22	97252.2
664	2.000000	1.195987	7.37155e+06	-43889.1	1005.82	-29777.4	0.000000	0.000000	7.197021	19.9353	NaN	0.000000	0.001621	0.001736	28.0829	16.2725	0.001598	10183.5	6.059627	4.437379	19.2556	1.195569	0.010276	0.009858	19.9353	10183.5	0.008808	0.007886	2527.85	104769
664	2.000000	1.198406	7.37155e+06	-43889.1	1005.82	-29777.4	0.000000	0.000000	7.199640	24.7952	NaN	0.000000	0.001660	0.001750	28.0835	19.2506	0.001847	10422	8.832694	-176.972	24.6214	1.198087	0.012695	0.012376	24.7952	10422	0.010910	0.010211	2428.33	94231.2
664	2.000000	1.200931	7.37155e+06	-43889.1	1005.82	-29777.4	0.000000	0.000000	7.202385	30.1521	NaN	0.000000	0.001604	0.001758	28.0827	21.4995	0.001584	13574	3.069221	4.065105	28.3457	1.200621	0.015220	0.014909	30.1521	13574	0.013554	0.013405	2249.37	107115
664	2.000000	1.203382	7.37155e+06	-43889.1	1005.82	-29777.4	0.000000	0.000000	7.205152	37.8599	NaN	0.000000	0.001633	0.001770	28.0832	25.7254	0.001784	14423.8	6.844185	179.71	35.6367	1.203122	0.017670	0.017410	37.8599	14423.8	0.015702	0.016232	2332.39	103434
664	2.000000	1.205920	7.37155e+06	-43889.1	1005.82	-29777.4	0.000000	0.000000	7.208008	45.5771	NaN	0.000000	0.001628	0.001772	28.0828	28.0259	0.001932	14505.3	8.297845	-1.150788	44.5699	1.205576	0.020209	0.019865	45.5771	14505.3	0.017852	0.019279	2364.1	95446.5
664	2.000000	1.208376	7.37155e+06	-43889.1	1005.82	-29777.4	0.000000	0.000000	7.210874	55.5518	NaN	0.000000	0.001660	0.001813	28.0841	29.8439	0.001773	16834.6	8.330315	177.065	54.4968	1.208054	0.022664	0.022342	55.5518	16834.6	0.020189	0.022841	2432.13	101770
664	2.000000	1.210887	7.37155e+06	-43889.1	1005.82	-29777.4	0.000000	0.000000	7.213683	62.8092	NaN	0.000000	0.001642	0.001775	28.0841	32.0813	0.001768	18144.7	2.713034	2.215016	59.7888	1.210474	0.025176	0.024762	62.8092	18144.7	0.022579	0.026759	2347.25	101343
664	2.000000	1.213401	7.37155e+06	-43889.1	1005.82	-29777.4	0.000000	0.000000	7.216509	70.4066	NaN	0.000000	0.001631	0.001817	28.0846	35.295	0.001786	19765.4	9.424513	175.64	70.2388	1.213047	0.027690	0.027335	70.4066	19765.4	0.025018	0.031049	2267.63	102484
664	2.000000	1.215911	7.37155e+06	-43889.1	1005.82	-29777.4	0.000000	0.000000	7.219504	82.1971	NaN	0.000000	0.001687	0.001763	28.0842	36.9332	0.001803	20483.1	7.144268	-3.011114	80.6812	1.215525	0.030200	0.029814	82.1971	20483.1	0.027190	0.035120	2340.44	99859.5
664	2.000000	1.218401	7.37155e+06	-43889.1	1005.82	-29777.4	0.000000	0.000000	7.222150	85.9998	NaN	0.000000	0.001747	0.001740	28.085	39.3028	0.001787	21989.5	5.774699	176.712	85.3273	1.218070	0.032689	0.032358	85.9998	21989.5	0.029756	0.040240	2137.17	100152
664	2.000000	1.220895	7.37155e+06	-43889.1	1005.82	-29777.4	0.000000	0.000000	7.225168	98.7448	NaN	0.000000	0.001723	0.001789	28.084	41.2653	0.001857	22222.2	1.743466	1.581455	97.5426	1.220514	0.035183	0.034803	98.7448	22222.2	0.031851	0.044667	2210.68	96065.3
664	2.000000	1.223356	7.37155e+06	-43889.1	1005.82	-29777.4	0.000000	0.000000	7.228107	110.364	NaN	0.000000	0.001729	0.001764	28.0842	44.0891	0.001895	23272.1	5.306496	178.107	108.684	1.223004	0.037645	0.037293	110.364	23272.1	0.034088	0.049644	2223.1	95427.8
664	2.000000	1.225891	7.37155e+06	-43889.1	1005.82	-29777.4	0.000000	0.000000	7.231096	121.397	NaN	0.000000	0.001720	0.001749	28.0843	45.9308	0.001903	24134.8	5.715564	-2.576419	120.707	1.225539	0.040180	0.039828	121.397	24134.8	0.036407	0.055074	2204.27	93960.4
664	2.000000	1.228412	7.37155e+06	-43889.1	1005.82	-29777.4	0.000000	0.000000	7.233802	125.926	NaN	0.000000	0.001701	0.001776	28.0849	48.3268	0.001805	26773.2	3.940767	176.863	125.578	1.228185	0.042700	0.042474	125.926	26773.2	0.039173	0.061907	2034.09	98310.9
664	2.000000	1.230834	7.37155e+06	-43889.1	1005.82	-29777.4	0.000000	0.000000	7.236932	143.162	NaN	0.000000	0.001752	0.001790	28.0842	50.1609	0.001789	28037.2	1.139234	-0.596325	140.419	1.230490	0.045122	0.044778	143.162	28037.2	0.041293	0.067411	2123.71	98659.9
664	2.000000	1.233368	7.37155e+06	-43889.1	1005.82	-29777.4	0.000000	0.000000	7.240111	158.843	NaN	0.000000	0.001703	0.001719	28.0842	53.1456	0.001817	29244.5	5.053766	175.755	158.222	1.233035	0.047657	0.047323	158.843	29244.5	0.043583	0.073615	2157.75	98476.5
664	2.000000	1.235851	7.37155e+06	-43889.1	1005.82	-29777.4	0.000000	0.000000	7.243140	172.131	NaN	0.000000	0.001714	0.001763	28.0841	54.3865	0.001668	32612.1	6.238702	-6.131979	169.81	1.235530	0.050139	0.049818	172.131	32612.1	0.046181	0.080974	2125.75	104707
664	2.000000	1.238285	7.37155e+06	-43889.1	1005.82	-29777.4	0.000000	0.000000	7.245974	181.856	NaN	0.000000	0.001707	0.001777	28.0841	56.2131	0.001811	31035.1	4.516241	175.56	177.774	1.237977	0.052573	0.052266	181.856	31035.1	0.048178	0.086866	2093.52	96205.9
664	2.000000	1.240808	7.37155e+06	-43889.1	1005.82	-29777.4	0.000000	0.000000	7.249164	198.087	NaN	0.000000	0.001715	0.001737	28.0842	58.7713	0.001737	33833.9	1.638409	-2.502146	194.805	1.240539	0.055096	0.054828	198.087	33833.9	0.050705	0.094606	2093.81	100500
664	2.000000	1.243366	7.37155e+06	-43889.1	1005.82	-29777.4	0.000000	0.000000	7.252214	210.056	NaN	0.000000	0.001714	0.001767	28.083	61.6813	0.001715	35966.6	3.671114	175.073	209.116	1.243047	0.057654	0.057336	210.056	35966.6	0.053274	0.102800	2043.35	102489
664	2.000000	1.245846	7.37155e+06	-43889.1	1005.82	-29777.4	0.000000	0.000000	7.255370	226.492	NaN	0.000000	0.001726	0.001770	28.0827	63.0034	0.001919	32830.7	2.350675	-1.406779	222.741	1.245465	0.060134	0.059754	226.492	32830.7	0.054960	0.108359	2090.2	91121.5
664	2.000000	1.248285	7.37155e+06	-43889.1	1005.82	-29777.4	0.000000	0.000000	7.258394	240.74	NaN	0.000000	0.001723	0.001822	28.0829	65.4059	0.001790	36530.5	4.244750	174.381	236.756	1.248008	0.062573	0.062296	240.74	36530.5	0.057631	0.117450	2049.73	97387.2
664	2.000000	1.250848	7.37155e+06	-43889.1	1005.82	-29777.4	0.000000	0.000000	7.261420	252.002	NaN	0.000000	0.001707	0.001797	28.0825	67.4112	0.001698	39703	1.401765	-3.326516	249.577	1.250547	0.065136	0.064836	252.002	39703	0.060376	0.127160	1981.77	101724
664	2.000000	1.253319	7.37155e+06	-43889.1	1005.82	-29777.4	0.000000	0.000000	7.264557	268.205	NaN	0.000000	0.001714	0.001773	28.0832	71.3805	0.001758	40611.9	4.054044	173.735	268.515	1.253022	0.067608	0.067310	268.205	40611.9	0.062654	0.135499	1979.39	100800
664	2.000000	1.255779	7.37155e+06	-43889.1	1005.82	-29777.4	0.000000	0.000000	7.267860	288.709	NaN	0.000000	0.001666	0.001742	28.0824	73.3135	0.001768	41464.4	5.818832	-7.345303	284.529	1.255397	0.070067	0.069685	288.709	41464.4	0.064845	0.143753	2008.37	99917.1
664	2.000000	1.258312	7.37155e+06	-43889.1	1005.82	-29777.4	0.000000	0.000000	7.270905	301.158	NaN	0.000000	0.001623	0.001767	28.0825	75.6701	0.001796	42129.6	6.229627	172.286	300.03	1.257990	0.072600	0.072278	301.158	42129.6	0.067239	0.153038	1967.86	98392.1
664	2.000000	1.260812	7.37155e+06	-43889.1	1005.82	-29777.4	0.000000	0.000000	7.273894	313.063	NaN	0.000000	0.001666	0.001758	28.0824	78.4308	0.001831	42843.3	4.614393	-7.009315	310.053	1.260505	0.075100	0.074793	313.063	42843.3	0.069620	0.162545	1926	97088.6
664	2.000000	1.263335	7.37155e+06	-43889.1	1005.82	-29777.4	0.000000	0.000000	7.277117	330.095	NaN	0.000000	0.001666	0.001758	28.0828	81.675	0.001935	42214.9	6.728882	171.382	329.246	1.262918	0.077623	0.077207	330.095	42214.9	0.071758	0.171315	1926.83	93184
664	2.000000	1.265834	7.37155e+06	-43889.1	1005.82	-29777.4	0.000000	0.000000	7.280400	349.151	NaN	0.000000	0.001628	0.001769	28.0825	82.3284	0.001754	46938	4.920576	-7.200309	346.115	1.265491	0.080123	0.079780	349.151	46938	0.074544	0.183061	1907.29	100231
664	2.000000	1.268320	7.37155e+06	-43889.1	1005.82	-29777.4	0.000000	0.000000	7.283450	362.886	NaN	0.000000	0.001659	0.001814	28.0824	86.0314	0.001856	46362.9	8.687873	168.799	362.582	1.268058	0.082608	0.082347	362.886	46362.9	0.076738	0.192571	1884.43	96527
664	2.000000	1.270838	7.37155e+06	-43889.1	1005.82	-29777.4	0.000000	0.000000	7.286709	380.916	NaN	0.000000	0.001619	0.001816	28.0825	87.7785	0.001872	46899	3.539003	-6.192926	380.683	1.270570	0.085127	0.084858	380.916	46899	0.079035	0.202771	1878.56	95155.6
664	2.000000	1.273356	7.37155e+06	-43889.1	1005.82	-29777.4	0.000000	0.000000	7.290089	401.867	NaN	0.000000	0.001616	0.001780	28.0827	89.8914	0.001691	53159.1	5.119951	171.952	402.763	1.272970	0.087645	0.087258	401.867	53159.1	0.081975	0.216182	1858.93	104458
664	2.000000	1.275764	7.37155e+06	-43889.1	1005.82	-29777.4	0.000000	0.000000	7.293373	423.208	NaN	0.000000	0.001682	0.001794	28.0826	91.7919	0.001778	51638	6.409136	-9.725000	418.381	1.275460	0.090052	0.089749	423.208	51638	0.083905	0.225208	1879.19	99414.8
664	2.000000	1.278268	7.37155e+06	-43889.1	1005.82	-29777.4	0.000000	0.000000	7.296891	447.88	NaN	0.000000	0.001659	0.001802	28.0836	93.6237	0.001817	51539.8	3.485401	173.655	447.092	1.277970	0.092556	0.092259	447.88	51539.8	0.086039	0.235382	1902.78	97057.7
664	2.000000	1.280665	7.37155e+06	-43889.1	1005.82	-29777.4	0.000000	0.000000	7.299510	453.286	NaN	0.000000	0.001676	0.001798	28.084	96.767	0.001777	54449.8	5.885722	-10.2065	443.886	1.280396	0.094953	0.094685	453.286	54449.8	0.088709	0.248414	1824.72	99811.7
664	2.000000	1.283239	7.37155e+06	-43889.1	1005.82	-29777.4	0.000000	0.000000	7.303197	480.352	NaN	0.000000	0.001689	0.001786	28.0838	98.8081	0.001790	55190.7	4.553222	171.563	477.799	1.283029	0.097528	0.097317	480.352	55190.7	0.091000	0.259853	1848.55	98918.1
664	2.000000	1.285723	7.37155e+06	-43889.1	1005.82	-29777.4	0.000000	0.000000	7.306790	507.334	NaN	0.000000	0.001697	0.001786	28.0837	101.255	0.001815	55787.4	7.154174	-10.442	500.567	1.285281	0.100011	0.099569	507.334	55787.4	0.093190	0.271016	1871.97	97906.5
664	2.000000	1.288222	7.37155e+06	-43889.1	1005.82	-29777.4	0.000000	0.000000	7.310153	528.343	NaN	0.000000	0.001692	0.001753	28.0839	101.666	0.001755	57918.7	5.207093	170.905	523.431	1.287889	0.102510	0.102178	528.343	57918.7	0.095668	0.283909	1860.96	99312.2
664	2.000000	1.288756	7.37155e+06	-43889.1	1005.82	-29777.4	0.000000	0.000000	7.310983	535.548	NaN	0.000000	0.001720	0.001737	28.0838	101.573	0.001737	58480.4	4.580305	-8.160003	529.583	1.288386	0.103044	0.102674	535.548	58480.4	0.096176	0.286585	1868.72	99806