File: remote_trans/data/nanoindenter/0828-1/data/Data_2025-08-06,11h17m57s/2025-07-22_16-23-58_1_643.txt
2025-07-22, 16:23:58, 1
Index	Phase	Displacement	Time	Pos X	Pos Y	Pos Z	Rot A	Rot B	Piezo Z	Force A	Force B	Gripper	Voltage A	Voltage B	Temperature	Amplitude force	Amplitude pos	Stiffness	Phase shift	Phase excitation	Force A raw	Displacement raw	HMax	HMax raw	Real Force	Real Stiffness	Contact Depth	Area	Hardness	Reduced Mod.
[#]	[#]	[um]	[s]	[um]	[um]	[um]	[m°]	[m°]	[um]	[uN]	[uN]	[V]	[V]	[V]	[°C]	[uN]	[um]	[N/m]	[°]	[°]	[uN]	[um]	[um]	[um]	[uN]	[N/m]	[um]	[um^2]	[MPa]	[MPa]
643	1.000000	0.002699	7.37134e+06	-44939.1	1005.82	-29774.1	0.000000	0.000000	6.002769	0.003070	NaN	0.000000	0.001775	0.001655	28.0841	0.135603	0.000891	152.17	178.022	-171.249	-0.005041	0.001465	-1.089566	-1.090800	0.003070	152.17	-1.089581	-3.632332E+14	-8.453012E-18	NaN
643	1.000000	0.012753	7.37134e+06	-44939.1	1005.82	-29774.1	0.000000	0.000000	6.012823	0.006736	NaN	0.000000	0.001770	0.001653	28.0837	0.108830	0.001154	94.2843	-135.995	10.2978	-0.008594	0.011315	-1.079512	-1.080950	0.006736	94.2843	-1.079566	-2.664930E+14	-2.527725E-17	NaN
643	1.000000	0.022685	7.37134e+06	-44939.1	1005.82	-29774.1	0.000000	0.000000	6.022755	0.010506	NaN	0.000000	0.001771	0.001708	28.0837	0.070918	0.001715	41.3539	-107.484	-168.275	-0.013291	0.021436	-1.069580	-1.070829	0.010506	41.3539	-1.069770	-1.968341E+14	-5.337583E-17	NaN
643	1.000000	0.032666	7.37134e+06	-44939.1	1005.82	-29774.1	0.000000	0.000000	6.032736	0.009430	NaN	0.000000	0.001778	0.001695	28.0838	0.077065	0.002032	37.9292	-172.2	11.0731	-0.011498	0.031311	-1.059599	-1.060954	0.009430	37.9292	-1.059785	-1.445233E+14	-6.525116E-17	NaN
643	1.000000	0.042674	7.37134e+06	-44939.1	1005.82	-29774.1	0.000000	0.000000	6.042742	-0.038983	NaN	0.000000	0.001821	0.001699	28.084	0.045013	0.001955	23.0211	-24.267	-165.235	-0.047149	0.041306	-1.049591	-1.050959	-0.038983	23.0211	-1.048321	-1.013532E+14	3.846243E-16	NaN
643	1.000000	0.052688	7.37134e+06	-44939.1	1005.82	-29774.1	0.000000	0.000000	6.052757	-0.023097	NaN	0.000000	0.001844	0.001674	28.0837	0.026820	0.001940	13.8264	78.0267	15.6196	-0.012679	0.051323	-1.039577	-1.040942	-0.023097	13.8264	-1.038324	-7.437533E+13	3.105525E-16	NaN
643	1.000000	0.062692	7.37134e+06	-44939.1	1005.82	-29774.1	0.000000	0.000000	6.062759	-0.055842	NaN	0.000000	0.001745	0.001754	28.0835	0.084049	0.001985	42.3426	153.896	-167.075	-0.027541	0.061358	-1.029573	-1.030907	-0.055842	42.3426	-1.028584	-5.500884E+13	1.015142E-15	NaN
643	1.000000	0.072674	7.37134e+06	-44939.1	1005.82	-29774.1	0.000000	0.000000	6.072742	-0.022976	NaN	0.000000	0.001782	0.001724	28.0833	0.075094	0.002118	35.4544	-179.894	14.3043	-0.018258	0.071333	-1.019591	-1.020932	-0.022976	35.4544	-1.019105	-4.101191E+13	5.602266E-16	NaN
643	1.000000	0.082699	7.37134e+06	-44939.1	1005.82	-29774.1	0.000000	0.000000	6.082769	0.014180	NaN	0.000000	0.001796	0.001719	28.0824	0.189774	0.001939	97.8765	164.482	-167.283	-0.061890	0.081330	-1.009566	-1.010935	0.014180	97.8765	-1.009675	-3.061990E+13	-4.630925E-16	NaN
643	1.000000	0.092685	7.37134e+06	-44939.1	1005.82	-29774.1	0.000000	0.000000	6.092750	-0.109277	NaN	0.000000	0.001789	0.001714	28.0822	0.027536	0.002035	13.5294	149.242	17.1668	-0.069319	0.091361	-0.999580	-1.000904	-0.109277	13.5294	-0.993522	-1.855862E+13	5.888227E-15	NaN
643	1.000000	0.102691	7.37134e+06	-44939.1	1005.82	-29774.1	0.000000	0.000000	6.102760	0.002293	NaN	0.000000	0.001779	0.001737	28.0818	0.095678	0.002094	45.6856	-165.715	-168.108	0.049434	0.101379	-0.989574	-0.990886	0.002293	45.6856	-0.989612	-1.643934E+13	-1.394671E-16	NaN
643	1.000000	0.112696	7.37134e+06	-44939.1	1005.82	-29774.1	0.000000	0.000000	6.112764	-0.034916	NaN	0.000000	0.001790	0.001720	28.0822	0.014813	0.001963	7.545168	129.671	14.2848	-0.013021	0.111334	-0.979569	-0.980931	-0.034916	7.545168	-0.976098	-1.081045E+13	3.229799E-15	NaN
643	1.000000	0.122731	7.37134e+06	-44939.1	1005.82	-29774.1	0.000000	0.000000	6.122800	-0.013858	NaN	0.000000	0.001807	0.001726	28.0823	0.102747	0.002056	49.9687	-117.082	-163.919	0.005334	0.121360	-0.969534	-0.970905	-0.013858	49.9687	-0.969326	-8.761522E+12	1.581640E-15	NaN
643	1.000000	0.132713	7.37134e+06	-44939.1	1005.82	-29774.1	0.000000	0.000000	6.132783	0.014766	NaN	0.000000	0.001778	0.001719	28.0824	0.100183	0.001941	51.609	-81.4783	12.3752	-0.059115	0.131312	-0.959552	-0.960953	0.014766	51.609	-0.959766	-6.512078E+12	-2.267457E-15	NaN
643	1.000000	0.142722	7.37134e+06	-44939.1	1005.82	-29774.1	0.000000	0.000000	6.142791	0.007764	NaN	0.000000	0.001826	0.001711	28.0821	0.083998	0.001910	43.9815	8.465413	-166.617	0.053192	0.141431	-0.949543	-0.950834	0.007764	43.9815	-0.949676	-4.760506E+12	-1.630834E-15	NaN
643	1.000000	0.152713	7.37134e+06	-44939.1	1005.82	-29774.1	0.000000	0.000000	6.152784	0.028697	NaN	0.000000	0.001767	0.001703	28.0823	0.058400	0.002110	27.6827	65.4989	15.954	-0.026801	0.151385	-0.939552	-0.940880	0.028697	27.6827	-0.940329	-3.561066E+12	-8.058679E-15	NaN
643	1.000000	0.162708	7.37134e+06	-44939.1	1005.82	-29774.1	0.000000	0.000000	6.162778	0.020391	NaN	0.000000	0.001789	0.001667	28.0823	0.030226	0.002173	13.9107	-154.544	-169.403	0.010731	0.161438	-0.929557	-0.930827	0.020391	13.9107	-0.930657	-2.636682E+12	-7.733394E-15	NaN
643	1.000000	0.172698	7.37134e+06	-44939.1	1005.82	-29774.1	0.000000	0.000000	6.172769	0.027998	NaN	0.000000	0.001821	0.001667	28.0823	0.016071	0.002084	7.711898	-43.3418	13.1576	0.018139	0.171400	-0.919567	-0.920865	0.027998	7.711898	-0.922290	-2.032926E+12	-1.377224E-14	NaN
643	1.000000	0.182736	7.37134e+06	-44939.1	1005.82	-29774.1	0.000000	0.000000	6.182808	0.058187	NaN	0.000000	0.001833	0.001684	28.082	0.044432	0.001944	22.8547	-132.246	-165.179	0.089194	0.181387	-0.909529	-0.910878	0.058187	22.8547	-0.911438	-1.450741E+12	-4.010859E-14	NaN
643	1.000000	0.192758	7.37134e+06	-44939.1	1005.82	-29774.1	0.000000	0.000000	6.192828	0.021416	NaN	0.000000	0.001809	0.001676	28.0823	0.062840	0.001819	34.5466	-91.7798	11.9663	-0.045376	0.191422	-0.899507	-0.900843	0.021416	34.5466	-0.899972	-1.015517E+12	-2.108848E-14	NaN
643	1.000000	0.202765	7.37134e+06	-44939.1	1005.82	-29774.1	0.000000	0.000000	6.202833	-0.028036	NaN	0.000000	0.001785	0.001705	28.0821	0.088274	0.001984	44.4912	7.690119	-165.645	0.005173	0.201441	-0.889500	-0.890824	-0.028036	44.4912	-0.889028	-7.223925E+11	3.880948E-14	NaN
643	1.000000	0.212700	7.37134e+06	-44939.1	1005.82	-29774.1	0.000000	0.000000	6.212771	0.042149	NaN	0.000000	0.001695	0.001737	28.0822	0.131952	0.001987	66.4009	157.295	15.2901	-0.013298	0.211421	-0.879565	-0.880844	0.042149	66.4009	-0.880041	-5.460843E+11	-7.718335E-14	NaN
643	1.000000	0.222759	7.37134e+06	-44939.1	1005.82	-29774.1	0.000000	0.000000	6.222826	-0.049802	NaN	0.000000	0.001702	0.001730	28.0835	0.026135	0.002040	12.8134	161.756	-167.716	-0.045050	0.221451	-0.869506	-0.870814	-0.049802	12.8134	-0.866591	-3.591854E+11	1.386536E-13	NaN
643	1.000000	0.232726	7.37134e+06	-44939.1	1005.82	-29774.1	0.000000	0.000000	6.232797	0.053606	NaN	0.000000	0.001694	0.001698	28.0834	0.092043	0.002103	43.7742	-154.447	12.1498	0.007870	0.231413	-0.859539	-0.860852	0.053606	43.7742	-0.860458	-2.967010E+11	-1.806728E-13	NaN
643	1.000000	0.242749	7.37134e+06	-44939.1	1005.82	-29774.1	0.000000	0.000000	6.242817	-0.044983	NaN	0.000000	0.001705	0.001651	28.0836	0.105550	0.001874	56.3343	114.582	-161.795	-0.045869	0.241392	-0.849516	-0.850873	-0.044983	56.3343	-0.848917	-2.070463E+11	2.172582E-13	NaN
643	1.000000	0.252773	7.37134e+06	-44939.1	1005.82	-29774.1	0.000000	0.000000	6.252845	0.058288	NaN	0.000000	0.001766	0.001646	28.0836	0.022070	0.001878	11.7521	-94.5338	14.6843	-0.091470	0.251430	-0.839492	-0.840835	0.058288	11.7521	-0.843212	-1.733013E+11	-3.363417E-13	NaN
643	1.000000	0.262767	7.37134e+06	-44939.1	1005.82	-29774.1	0.000000	0.000000	6.262834	-0.053094	NaN	0.000000	0.001749	0.001676	28.084	0.077766	0.001975	39.369	49.9666	-165.6	-0.091141	0.261451	-0.829498	-0.830814	-0.053094	39.369	-0.828487	-1.094646E+11	4.850299E-13	NaN
643	1.000000	0.272778	7.37134e+06	-44939.1	1005.82	-29774.2	0.000000	0.000000	6.272848	0.024352	NaN	0.000000	0.001753	0.001713	28.0837	0.027924	0.001912	14.6062	45.6477	11.7126	0.007035	0.271426	-0.819487	-0.820839	0.024352	14.6062	-0.820738	-8.594368E+10	-2.833529E-13	NaN
643	1.000000	0.282775	7.37134e+06	-44939.1	1005.82	-29774.2	0.000000	0.000000	6.282843	-0.020388	NaN	0.000000	0.001731	0.001678	28.0837	0.035473	0.002109	16.8229	-178.938	-166.364	-0.000446	0.281426	-0.809490	-0.810839	-0.020388	16.8229	-0.808581	-5.879285E+10	3.467795E-13	NaN
643	1.000000	0.292788	7.37134e+06	-44939.1	1005.82	-29774.2	0.000000	0.000000	6.292855	-0.053595	NaN	0.000000	0.001707	0.001722	28.0836	0.049970	0.002145	23.3008	31.0634	16.4401	-0.023559	0.291435	-0.799477	-0.800830	-0.053595	23.3008	-0.797752	-4.191240E+10	1.278740E-12	NaN
643	1.000000	0.302788	7.37134e+06	-44939.1	1005.82	-29774.2	0.000000	0.000000	6.302855	-0.044841	NaN	0.000000	0.001691	0.001699	28.0839	0.066664	0.002103	31.6998	83.8867	-166.949	0.005808	0.301425	-0.789477	-0.790840	-0.044841	31.6998	-0.788416	-3.130205E+10	1.432513E-12	NaN
643	1.000000	0.312813	7.37134e+06	-44939.1	1005.82	-29774.2	0.000000	0.000000	6.312882	-0.003672	NaN	0.000000	0.001709	0.001696	28.0835	0.049185	0.001992	24.6899	7.756679	11.5187	0.053650	0.311419	-0.779452	-0.780846	-0.003672	24.6899	-0.779341	-2.356528E+10	1.558254E-13	NaN
643	1.000000	0.322793	7.37134e+06	-44939.1	1005.82	-29774.2	0.000000	0.000000	6.322863	0.002174	NaN	0.000000	0.001728	0.001702	28.0836	0.032311	0.002057	15.7046	-169.362	-165.772	-0.021148	0.321496	-0.769472	-0.770769	0.002174	15.7046	-0.769575	-1.735934E+10	-1.252521E-13	NaN
643	1.000000	0.332786	7.37134e+06	-44939.1	1005.82	-29774.2	0.000000	0.000000	6.332855	-0.014698	NaN	0.000000	0.001727	0.001706	28.0834	0.026910	0.002080	12.9349	-95.6502	12.5424	-0.106217	0.331453	-0.759479	-0.760812	-0.014698	12.9349	-0.758627	-1.232029E+10	1.192979E-12	NaN
643	1.000000	0.342791	7.37134e+06	-44939.1	1005.82	-29774.2	0.000000	0.000000	6.342862	0.044315	NaN	0.000000	0.001710	0.001704	28.0833	0.044965	0.001889	23.8082	-105.237	-166.161	0.107669	0.341515	-0.749474	-0.750750	0.044315	23.8082	-0.750870	-9.662009E+9	-4.586473E-12	NaN
643	1.000000	0.352781	7.37134e+06	-44939.1	1005.82	-29774.2	0.000000	0.000000	6.352850	-0.024114	NaN	0.000000	0.001702	0.001707	28.0827	0.092419	0.002086	44.2948	-170.22	14.4462	-0.044476	0.351459	-0.739484	-0.740806	-0.024114	44.2948	-0.739076	-6.675200E+9	3.612532E-12	NaN
643	1.000000	0.362805	7.37134e+06	-44939.1	1005.82	-29774.2	0.000000	0.000000	6.362874	-0.002215	NaN	0.000000	0.001725	0.001722	28.082	0.082022	0.001983	41.3524	-85.051	-165.041	-0.049898	0.361454	-0.729460	-0.730811	-0.002215	41.3524	-0.729420	-4.930587E+9	4.492576E-13	NaN
643	1.000000	0.372814	7.37134e+06	-44939.1	1005.82	-29774.2	0.000000	0.000000	6.372886	0.054704	NaN	0.000000	0.001674	0.001722	28.0823	0.022168	0.001962	11.3014	-91.248	16.0559	-0.005721	0.371418	-0.719451	-0.720847	0.054704	11.3014	-0.723081	-4.041016E+9	-1.353715E-11	NaN
643	1.000000	0.382833	7.37134e+06	-44939.1	1005.82	-29774.2	0.000000	0.000000	6.382902	-0.006259	NaN	0.000000	0.001692	0.001709	28.082	0.015776	0.001977	7.980385	128.557	-165.717	0.058226	0.381510	-0.709432	-0.710755	-0.006259	7.980385	-0.708844	-2.583843E+9	2.422418E-12	NaN
643	1.000000	0.392785	7.37134e+06	-44939.1	1005.82	-29774.2	0.000000	0.000000	6.392854	-0.014617	NaN	0.000000	0.001720	0.001683	28.082	0.142452	0.002076	68.6054	170.041	11.9467	-0.028996	0.391435	-0.699480	-0.700830	-0.014617	68.6054	-0.699320	-1.915324E+9	7.631626E-12	NaN
643	1.000000	0.402833	7.37134e+06	-44939.1	1005.82	-29774.2	0.000000	0.000000	6.402904	0.050338	NaN	0.000000	0.001724	0.001725	28.082	0.078419	0.002017	38.8851	-24.4512	-168.405	0.010496	0.401529	-0.689432	-0.690736	0.050338	38.8851	-0.690403	-1.446866E+9	-3.479135E-11	NaN
643	1.000000	0.412798	7.37134e+06	-44939.1	1005.82	-29774.2	0.000000	0.000000	6.412867	-0.023363	NaN	0.000000	0.001692	0.001730	28.0822	0.141587	0.001995	70.9594	130.043	13.2958	-0.022611	0.411433	-0.679467	-0.680832	-0.023363	70.9594	-0.679220	-1.017495E+9	2.296104E-11	NaN
643	1.000000	0.422813	7.37134e+06	-44939.1	1005.82	-29774.2	0.000000	0.000000	6.422883	0.006867	NaN	0.000000	0.001706	0.001683	28.0818	0.022331	0.002064	10.8216	-77.6313	-167.459	-0.049114	0.421480	-0.669452	-0.670785	0.006867	10.8216	-0.669928	-7.592766E+8	-9.043941E-12	NaN
643	1.000000	0.432824	7.37134e+06	-44939.1	1005.82	-29774.2	0.000000	0.000000	6.432893	-0.013320	NaN	0.000000	0.001685	0.001680	28.0818	0.039360	0.001904	20.6713	29.9784	14.0976	-0.040221	0.431480	-0.659441	-0.660785	-0.013320	20.6713	-0.658957	-5.372615E+8	2.479239E-11	NaN
643	1.000000	0.442859	7.37134e+06	-44939.1	1005.82	-29774.2	0.000000	0.000000	6.442927	-0.031702	NaN	0.000000	0.001702	0.001690	28.0822	0.098727	0.002033	48.5701	23.4782	-169.643	-0.048749	0.441561	-0.649406	-0.650705	-0.031702	48.5701	-0.648917	-3.913694E+8	8.100271E-11	NaN
643	1.000000	0.452834	7.37134e+06	-44939.1	1005.82	-29774.2	0.000000	0.000000	6.452904	0.035225	NaN	0.000000	0.001686	0.001693	28.0817	0.050630	0.001969	25.7124	151.781	13.0407	-0.005811	0.451473	-0.639431	-0.640792	0.035225	25.7124	-0.640459	-2.996310E+8	-1.175628E-10	NaN
643	1.000000	0.462827	7.37134e+06	-44939.1	1005.82	-29774.2	0.000000	0.000000	6.462897	0.032047	NaN	0.000000	0.001728	0.001705	28.0819	0.041441	0.001968	21.0553	34.2117	-165.057	0.066699	0.461521	-0.629439	-0.630744	0.032047	21.0553	-0.630580	-2.192748E+8	-1.461478E-10	NaN
643	1.000000	0.472871	7.37134e+06	-44939.1	1005.82	-29774.2	0.000000	0.000000	6.472940	-0.001121	NaN	0.000000	0.001741	0.001673	28.0818	0.073681	0.002061	35.7579	125.054	11.9194	-0.101697	0.471496	-0.619394	-0.620769	-0.001121	35.7579	-0.619371	-1.538109E+8	7.288366E-12	NaN
643	1.000000	0.482853	7.37134e+06	-44939.1	1005.82	-29774.2	0.000000	0.000000	6.482923	0.029655	NaN	0.000000	0.001708	0.001697	28.0819	0.052969	0.001879	28.1955	-132.151	-162.019	-0.036789	0.481552	-0.609412	-0.610713	0.029655	28.1955	-0.610201	-1.150480E+8	-2.577610E-10	NaN
643	1.000000	0.492858	7.37134e+06	-44939.1	1005.82	-29774.2	0.000000	0.000000	6.492927	-0.012937	NaN	0.000000	0.001734	0.001693	28.0832	0.025473	0.001994	12.7722	64.0471	16.1549	0.070753	0.491486	-0.599407	-0.600779	-0.012937	12.7722	-0.598647	-7.976786E+7	1.621824E-10	NaN
643	1.000000	0.502864	7.37134e+06	-44939.1	1005.82	-29774.2	0.000000	0.000000	6.502935	0.050473	NaN	0.000000	0.001724	0.001698	28.0831	0.067306	0.001977	34.0494	98.6282	-166.685	-0.115847	0.501553	-0.589401	-0.590712	0.050473	34.0494	-0.590513	-6.162256E+7	-8.190728E-10	NaN
643	1.000000	0.512861	7.37134e+06	-44939.1	1005.82	-29774.2	0.000000	0.000000	6.512930	-0.000731	NaN	0.000000	0.001704	0.001723	28.0834	0.105532	0.001882	56.0641	-1.779559	12.7997	-0.060591	0.511491	-0.579404	-0.580774	-0.000731	56.0641	-0.579394	-4.328775E+7	1.689219E-11	NaN
643	1.000000	0.522880	7.37134e+06	-44939.1	1005.82	-29774.2	0.000000	0.000000	6.522950	0.018670	NaN	0.000000	0.001681	0.001692	28.0833	0.130844	0.002131	61.404	-61.8451	-168.435	0.097230	0.521591	-0.569385	-0.570674	0.018670	61.404	-0.569613	-3.171654E+7	-5.886658E-10	NaN
643	1.000000	0.532879	7.37134e+06	-44939.1	1005.82	-29774.2	0.000000	0.000000	6.532947	-0.012248	NaN	0.000000	0.001692	0.001742	28.0832	0.036010	0.002139	16.8356	-93.2355	15.0038	0.022720	0.531548	-0.559386	-0.560717	-0.012248	16.8356	-0.558841	-2.250826E+7	5.441469E-10	NaN
643	1.000000	0.542895	7.37134e+06	-44939.1	1005.82	-29774.2	0.000000	0.000000	6.542965	0.003655	NaN	0.000000	0.001689	0.001710	28.083	0.062775	0.002008	31.2689	-105.646	-165.11	-0.017997	0.541569	-0.549370	-0.550696	0.003655	31.2689	-0.549458	-1.668952E+7	-2.190140E-10	NaN
643	1.000000	0.552900	7.37134e+06	-44939.1	1005.82	-29774.2	0.000000	0.000000	6.552969	-0.010379	NaN	0.000000	0.001774	0.001693	28.0834	0.060778	0.001937	31.383	-65.559	17.7242	-0.040308	0.551539	-0.539365	-0.540726	-0.010379	31.383	-0.539117	-1.199801E+7	8.650890E-10	NaN
643	1.000000	0.562906	7.37134e+06	-44939.1	1005.82	-29774.2	0.000000	0.000000	6.562975	-0.004439	NaN	0.000000	0.001768	0.001723	28.083	0.037203	0.001981	18.7806	7.504006	-168.965	-0.054233	0.561558	-0.529359	-0.530707	-0.004439	18.7806	-0.529182	-8.73398e+06	5.081979E-10	NaN
643	1.000000	0.572881	7.37134e+06	-44939.1	1005.82	-29774.2	0.000000	0.000000	6.572952	0.036043	NaN	0.000000	0.001782	0.001728	28.0831	0.085913	0.001911	44.9664	36.3291	14.8124	0.083377	0.571528	-0.519384	-0.520737	0.036043	44.9664	-0.519985	-6.50722e+06	-5.538935E-9	NaN
643	1.000000	0.582920	7.37134e+06	-44939.1	1005.82	-29774.2	0.000000	0.000000	6.582989	-0.013678	NaN	0.000000	0.001772	0.001699	28.0834	0.050380	0.001829	27.5471	-151.233	-167.833	-0.005574	0.581630	-0.509345	-0.510635	-0.013678	27.5471	-0.508972	-4.57192e+06	2.991764E-9	NaN
643	1.000000	0.592923	7.37134e+06	-44939.1	1005.82	-29774.2	0.000000	0.000000	6.592991	-0.047209	NaN	0.000000	0.001754	0.001720	28.0832	0.033618	0.002114	15.901	-58.7936	11.7216	-0.084545	0.591509	-0.499342	-0.500756	-0.047209	15.901	-0.497115	-3.12436e+06	1.511002E-8	NaN
643	1.000000	0.602881	7.37134e+06	-44939.1	1005.82	-29774.2	0.000000	0.000000	6.602947	-0.072036	NaN	0.000000	0.001767	0.001739	28.0828	0.062800	0.001923	32.6603	-29.9365	-167.542	-0.111190	0.601583	-0.489384	-0.490682	-0.072036	32.6603	-0.487730	-2.31028e+06	3.118055E-8	NaN
643	1.000000	0.612928	7.37134e+06	-44939.1	1005.82	-29774.2	0.000000	0.000000	6.612997	-0.005896	NaN	0.000000	0.001786	0.001731	28.0831	0.082535	0.001944	42.4492	-156.697	15.8523	-0.056611	0.611603	-0.479337	-0.480662	-0.005896	42.4492	-0.479233	-1.75706e+06	3.355332E-9	NaN
643	1.000000	0.622912	7.37134e+06	-44939.1	1005.82	-29774.2	0.000000	0.000000	6.622981	-0.011724	NaN	0.000000	0.001788	0.001693	28.0833	0.074529	0.002090	35.6568	79.5309	-163.729	-0.006909	0.621608	-0.469353	-0.470657	-0.011724	35.6568	-0.469106	-1.26726e+06	9.251106E-9	NaN
643	1.000000	0.632928	7.37134e+06	-44939.1	1005.82	-29774.2	0.000000	0.000000	6.632996	-0.031313	NaN	0.000000	0.001776	0.001717	28.0817	0.014174	0.001981	7.155064	-23.139	15.47	-0.034517	0.631606	-0.459337	-0.460659	-0.031313	7.155064	-0.456055	-830909	3.768512E-8	NaN
643	1.000000	0.642919	7.37134e+06	-44939.1	1005.82	-29774.2	0.000000	0.000000	6.642989	0.005281	NaN	0.000000	0.001754	0.001701	28.0818	0.015318	0.002062	7.429406	-86.468	-164.127	0.018920	0.641601	-0.449346	-0.450664	0.005281	7.429406	-0.449879	-680203	-7.763825E-9	NaN
643	1.000000	0.652957	7.37134e+06	-44939.1	1005.82	-29774.2	0.000000	0.000000	6.653028	0.040110	NaN	0.000000	0.001789	0.001672	28.0819	0.079275	0.002006	39.5226	97.7516	16.4689	-0.054706	0.651622	-0.439308	-0.440643	0.040110	39.5226	-0.440070	-494705	-8.107846E-8	NaN
643	1.000000	0.662943	7.37134e+06	-44939.1	1005.82	-29774.2	0.000000	0.000000	6.663011	-0.015308	NaN	0.000000	0.001805	0.001715	28.0819	0.026854	0.001955	13.7379	126.979	-166.315	0.063135	0.661596	-0.429322	-0.430669	-0.015308	13.7379	-0.428487	-339350	4.510911E-8	NaN
643	1.000000	0.672933	7.37134e+06	-44939.1	1005.82	-29774.2	0.000000	0.000000	6.673001	-0.018649	NaN	0.000000	0.001799	0.001711	28.0818	0.147056	0.001998	73.6095	-60.6165	17.5788	-0.036456	0.671547	-0.419332	-0.420718	-0.018649	73.6095	-0.419142	-250176	7.454199E-8	NaN
643	1.000000	0.682953	7.37134e+06	-44939.1	1005.82	-29774.2	0.000000	0.000000	6.683022	-0.004623	NaN	0.000000	0.001790	0.001719	28.0819	0.067613	0.001866	36.2389	-70.8396	-167.753	-0.046056	0.681626	-0.409312	-0.410639	-0.004623	36.2389	-0.409216	-180823	2.556517E-8	NaN
643	1.000000	0.692923	7.37134e+06	-44939.1	1005.82	-29774.2	0.000000	0.000000	6.692989	-0.069503	NaN	0.000000	0.001804	0.001711	28.0822	0.074000	0.002052	36.0629	124.465	10.404	-0.107329	0.691661	-0.399342	-0.400604	-0.069503	36.0629	-0.397897	-124737	5.571949E-7	NaN
643	1.000000	0.702950	7.37134e+06	-44939.1	1005.82	-29774.2	0.000000	0.000000	6.703017	-0.052776	NaN	0.000000	0.001763	0.001722	28.082	0.026697	0.002135	12.5061	-77.7934	-166.292	0.016402	0.701641	-0.389315	-0.390624	-0.052776	12.5061	-0.386150	-84733.8	6.228475E-7	NaN
643	1.000000	0.712946	7.37134e+06	-44939.1	1005.82	-29774.2	0.000000	0.000000	6.713013	-0.040711	NaN	0.000000	0.001727	0.001707	28.0836	0.031456	0.001988	15.8261	103.084	8.867269	-0.041390	0.711570	-0.379320	-0.380695	-0.040711	15.8261	-0.377390	-63448.1	6.416427E-7	NaN
643	1.000000	0.722975	7.37134e+06	-44939.1	1005.82	-29774.2	0.000000	0.000000	6.723041	-0.079389	NaN	0.000000	0.001677	0.001715	28.0863	0.068495	0.002060	33.2513	43.9332	-164.055	-0.023675	0.721644	-0.369290	-0.370621	-0.079389	33.2513	-0.367499	-45719.2	1.736443E-6	NaN
643	1.000000	0.732974	7.37134e+06	-44939.1	1005.82	-29774.2	0.000000	0.000000	6.733040	-0.090447	NaN	0.000000	0.001683	0.001705	28.083	0.155977	0.001990	78.3952	117.283	13.3418	-0.018918	0.731633	-0.359291	-0.360632	-0.090447	78.3952	-0.358425	-33812.4	2.674958E-6	NaN
643	1.000000	0.742975	7.37134e+06	-44939.1	1005.82	-29774.2	0.000000	0.000000	6.743045	0.033529	NaN	0.000000	0.001682	0.001691	28.0824	0.110362	0.001961	56.268	129.219	-166.475	0.027872	0.741651	-0.349290	-0.350614	0.033529	56.268	-0.349737	-25303.9	-1.325048E-6	NaN
643	1.000000	0.752973	7.37134e+06	-44939.1	1005.82	-29774.2	0.000000	0.000000	6.753043	0.005715	NaN	0.000000	0.001675	0.001687	28.082	0.048748	0.001969	24.7632	-97.6641	14.0264	-0.044659	0.751624	-0.339292	-0.340641	0.005715	24.7632	-0.339465	-17937.1	-3.186247E-7	NaN
643	1.000000	0.762994	7.37134e+06	-44939.1	1005.82	-29774.2	0.000000	0.000000	6.763061	-0.048897	NaN	0.000000	0.001682	0.001748	28.0835	0.026160	0.001972	13.2625	-133.381	-162.707	-0.045486	0.761666	-0.329271	-0.330599	-0.048897	13.2625	-0.326506	-11594.2	4.217394E-6	NaN
643	1.000000	0.772998	7.37134e+06	-44939.1	1005.82	-29774.2	0.000000	0.000000	6.773067	-0.005034	NaN	0.000000	0.001720	0.001715	28.0835	0.077471	0.001943	39.8791	153.15	18.9407	-0.001660	0.771592	-0.319267	-0.320673	-0.005034	39.8791	-0.319172	-9045.95	5.565169E-7	NaN
643	1.000000	0.783006	7.37134e+06	-44939.1	1005.82	-29774.2	0.000000	0.000000	6.783076	0.013527	NaN	0.000000	0.001741	0.001694	28.0835	0.040548	0.002043	19.8425	-151.64	-167.143	-0.042739	0.781661	-0.309259	-0.310604	0.013527	19.8425	-0.309770	-6571.34	-2.058500E-6	NaN
643	1.000000	0.792990	7.37134e+06	-44939.1	1005.82	-29774.2	0.000000	0.000000	6.793059	-0.000262	NaN	0.000000	0.001748	0.001702	28.0834	0.076397	0.002053	37.2059	-90.7107	12.2999	-0.065171	0.791590	-0.299275	-0.300675	-0.000262	37.2059	-0.299270	-4589.52	5.719039E-8	NaN
643	1.000000	0.803007	7.37134e+06	-44939.1	1005.82	-29774.2	0.000000	0.000000	6.803075	-0.026344	NaN	0.000000	0.001758	0.001694	28.0837	0.120305	0.002040	58.9721	-76.1321	-170.055	-0.002313	0.801684	-0.289258	-0.290581	-0.026344	58.9721	-0.288923	-3214.85	8.194358E-6	NaN
643	1.000000	0.813007	7.37134e+06	-44939.1	1005.82	-29774.2	0.000000	0.000000	6.813075	-0.036118	NaN	0.000000	0.001731	0.001706	28.0836	0.088100	0.001962	44.8991	175.124	14.7734	-0.077012	0.811660	-0.279258	-0.280605	-0.036118	44.8991	-0.278655	-2252.51	1.603467E-5	NaN
643	1.000000	0.823011	7.37134e+06	-44939.1	1005.82	-29774.2	0.000000	0.000000	6.823082	0.041423	NaN	0.000000	0.001736	0.001702	28.0834	0.037126	0.002079	17.8607	10.7357	-167.36	0.067808	0.821714	-0.269254	-0.270551	0.041423	17.8607	-0.270993	-1724.39	-2.402168E-5	NaN
643	1.000000	0.833019	7.37134e+06	-44939.1	1005.82	-29774.2	0.000000	0.000000	6.833090	0.040181	NaN	0.000000	0.001721	0.001715	28.0832	0.082981	0.002066	40.1662	90.6137	14.3258	0.058845	0.831665	-0.259246	-0.260600	0.040181	40.1662	-0.259996	-1171.8	-3.429020E-5	NaN
643	1.000000	0.843000	7.37134e+06	-44939.1	1005.82	-29774.2	0.000000	0.000000	6.843072	0.063262	NaN	0.000000	0.001723	0.001688	28.0842	0.108582	0.001970	55.1111	-115.839	-164.032	-0.001400	0.841716	-0.249265	-0.250549	0.063262	55.1111	-0.250126	-825.867	-7.660016E-5	NaN
643	1.000000	0.853007	7.37134e+06	-44939.1	1005.82	-29774.2	0.000000	0.000000	6.853073	-0.076045	NaN	0.000000	0.001736	0.001659	28.0834	0.078993	0.002086	37.861	-92.7263	14.5022	-0.066181	0.851655	-0.239258	-0.240610	-0.076045	37.861	-0.237752	-530.147	0.000143	NaN
643	1.000000	0.863013	7.37134e+06	-44939.1	1005.82	-29774.2	0.000000	0.000000	6.863082	-0.013997	NaN	0.000000	0.001730	0.001703	28.0832	0.135622	0.001917	70.7481	171.85	-168.173	0.033475	0.861737	-0.229252	-0.230528	-0.013997	70.7481	-0.229104	-387.578	3.611311E-5	NaN
643	1.000000	0.873025	7.37134e+06	-44939.1	1005.82	-29774.2	0.000000	0.000000	6.873092	-0.057073	NaN	0.000000	0.001750	0.001733	28.0834	0.094255	0.001924	48.9988	100.594	11.3689	-0.020413	0.871610	-0.219240	-0.220655	-0.057073	48.9988	-0.218366	-261.541	0.000218	NaN
643	1.000000	0.883052	7.37134e+06	-44939.1	1005.82	-29774.2	0.000000	0.000000	6.883123	0.037007	NaN	0.000000	0.001750	0.001712	28.0835	0.033440	0.002015	16.594	84.8424	-166.084	0.008000	0.881749	-0.209213	-0.210516	0.037007	16.594	-0.210886	-198.225	-0.000187	NaN
643	1.000000	0.893050	7.37134e+06	-44939.1	1005.82	-29774.2	0.000000	0.000000	6.893119	0.007452	NaN	0.000000	0.001757	0.001716	28.0832	0.070266	0.001951	36.0163	164.418	15.3071	0.036675	0.891652	-0.199215	-0.200613	0.007452	36.0163	-0.199371	-128.633	-5.793580E-5	NaN
643	1.000000	0.903028	7.37134e+06	-44939.1	1005.82	-29774.2	0.000000	0.000000	6.903097	0.005844	NaN	0.000000	0.001702	0.001734	28.0816	0.148585	0.001877	79.1641	-134.389	-166.959	-0.002169	0.901710	-0.189238	-0.190555	0.005844	79.1641	-0.189293	-87.5403	-6.675326E-5	NaN
643	1.000000	0.913052	7.37134e+06	-44939.1	1005.82	-29774.2	0.000000	0.000000	6.913122	0.012398	NaN	0.000000	0.001726	0.001712	28.0819	0.069514	0.001945	35.7413	-109.078	11.7187	0.067056	0.911617	-0.179213	-0.180648	0.012398	35.7413	-0.179473	-59.7713	-0.000207	NaN
643	1.000000	0.923037	7.37134e+06	-44939.1	1005.82	-29774.2	0.000000	0.000000	6.923108	0.038061	NaN	0.000000	0.001695	0.001739	28.0827	0.082037	0.002040	40.2205	-137.791	-164.557	-0.004119	0.921697	-0.169228	-0.170568	0.038061	40.2205	-0.169938	-40.9759	-0.000929	NaN
643	1.000000	0.933064	7.37134e+06	-44939.1	1005.82	-29774.2	0.000000	0.000000	6.933132	-0.050198	NaN	0.000000	0.001714	0.001707	28.0815	0.065613	0.002093	31.3468	-19.2703	12.5536	-0.000558	0.931733	-0.159201	-0.160532	-0.050198	31.3468	-0.158000	-25.2552	0.001988	NaN
643	1.000000	0.943093	7.37134e+06	-44939.1	1005.82	-29774.2	0.000000	0.000000	6.943163	0.003308	NaN	0.000000	0.001740	0.001761	28.0819	0.029998	0.001998	15.0122	-67.1089	-167.141	-0.027191	0.941689	-0.149172	-0.150576	0.003308	15.0122	-0.149337	-17.616	-0.000188	NaN
643	1.000000	0.953071	7.37134e+06	-44939.1	1005.82	-29774.2	0.000000	0.000000	6.953140	-0.000251	NaN	0.000000	0.001731	0.001709	28.0818	0.090815	0.001879	48.3267	122.898	16.3335	-0.042399	0.951689	-0.139194	-0.140576	-0.000251	48.3267	-0.139191	-11.422	2.195612E-5	NaN
643	1.000000	0.963072	7.37134e+06	-44939.1	1005.82	-29774.2	0.000000	0.000000	6.963141	0.000166	NaN	0.000000	0.001729	0.001707	28.0821	0.096580	0.001946	49.638	145.1	-166.6	-0.008982	0.961771	-0.129193	-0.130494	0.000166	49.638	-0.129196	-7.351365	-2.260739E-5	NaN
643	1.000000	0.973074	7.37134e+06	-44939.1	1005.82	-29774.2	0.000000	0.000000	6.973144	0.023509	NaN	0.000000	0.001781	0.001718	28.0819	0.037873	0.002042	18.5462	51.3758	12.4873	0.048868	0.971747	-0.119191	-0.120518	0.023509	18.5462	-0.120142	-4.863523	-0.004834	NaN
643	1.000000	0.983055	7.37134e+06	-44939.1	1005.82	-29774.2	0.000000	0.000000	6.983124	0.008836	NaN	0.000000	0.001769	0.001733	28.0819	0.144499	0.002059	70.1655	145.577	-165.885	0.048573	0.981712	-0.109210	-0.110553	0.008836	70.1655	-0.109305	-2.905295	-0.003041	NaN
643	1.000000	0.993070	7.37134e+06	-44939.1	1005.82	-29774.2	0.000000	0.000000	6.993140	0.008502	NaN	0.000000	0.001759	0.001703	28.0822	0.065558	0.002087	31.4056	-82.0014	14.7703	0.001655	0.991760	-0.099195	-0.100505	0.008502	31.4056	-0.099398	-1.771749	-0.004798	NaN
643	1.000000	1.003049	7.37134e+06	-44939.1	1005.82	-29774.2	0.000000	0.000000	7.003118	-0.003143	NaN	0.000000	0.001735	0.001748	28.0819	0.089856	0.001927	46.6418	-176.667	-162.089	-0.085570	1.001799	-0.089216	-0.090466	-0.003143	46.6418	-0.089165	-1.033201	0.003042	NaN
643	1.000000	1.013125	7.37134e+06	-44939.1	1005.82	-29774.2	0.000000	0.000000	7.013194	-0.013409	NaN	0.000000	0.001707	0.001705	28.0821	0.121545	0.002002	60.7203	162.689	14.4235	0.036626	1.011703	-0.079140	-0.080562	-0.013409	60.7203	-0.078974	-0.583370	0.022986	NaN
643	1.000000	1.023087	7.37134e+06	-44939.1	1005.82	-29774.2	0.000000	0.000000	7.023156	-0.007730	NaN	0.000000	0.001745	0.001691	28.0818	0.057527	0.002078	27.684	-110.389	-165.358	-0.029144	1.021775	-0.069178	-0.070490	-0.007730	27.684	-0.068968	-0.320005	0.024156	NaN
643	1.000000	1.033075	7.37134e+06	-44939.1	1005.82	-29774.2	0.000000	0.000000	7.033144	-0.010923	NaN	0.000000	0.001714	0.001709	28.0824	0.063714	0.002021	31.5267	61.9075	13.8769	-0.094600	1.031792	-0.059190	-0.060473	-0.010923	31.5267	-0.058931	-0.167770	0.065108	NaN
643	1.000000	1.043085	7.37134e+06	-44939.1	1005.82	-29774.2	0.000000	0.000000	7.043154	0.000583	NaN	0.000000	0.001674	0.001734	28.083	0.022018	0.001998	11.0225	163.879	-165.235	-0.001362	1.041812	-0.049180	-0.050453	0.000583	11.0225	-0.049220	-0.086418	-0.006747	NaN
643	1.000000	1.053072	7.37134e+06	-44939.1	1005.82	-29774.2	0.000000	0.000000	7.053142	0.026553	NaN	0.000000	0.001716	0.001695	28.0834	0.051488	0.002116	24.3379	-155.278	15.0656	0.020417	1.051747	-0.039193	-0.040518	0.026553	24.3379	-0.040011	-0.045258	-0.586716	NaN
643	1.000000	1.063091	7.37134e+06	-44939.1	1005.82	-29774.2	0.000000	0.000000	7.063159	-0.024566	NaN	0.000000	0.001689	0.001736	28.0831	0.101515	0.002053	49.4412	12.6576	-169.528	-0.012356	1.061776	-0.029174	-0.030489	-0.024566	49.4412	-0.028801	-0.021322	1.152150	NaN
643	1.000000	1.073104	7.37134e+06	-44939.1	1005.82	-29774.2	0.000000	0.000000	7.073174	0.009518	NaN	0.000000	0.001715	0.001713	28.0834	0.110376	0.001986	55.5881	176.95	13.2804	-0.008935	1.071713	-0.019161	-0.020552	0.009518	55.5881	-0.019289	-0.012048	-0.790051	NaN
643	1.000000	1.083108	7.37134e+06	-44939.1	1005.82	-29774.2	0.000000	0.000000	7.083173	-0.102952	NaN	0.000000	0.001621	0.001738	28.083	0.037244	0.002077	17.9319	-90.9873	-169.203	-0.123305	1.081848	-0.009157	-0.010417	-0.102952	17.9319	-0.004851	-0.003323	30.982	NaN
643	1.000000	1.093081	7.37134e+06	-44939.1	1005.82	-29774.2	0.000000	0.000000	7.093291	3.410307	NaN	0.000000	0.001610	0.001740	28.0831	4.280685	0.002016	2123.52	12.3127	9.898080	1.830486	1.091700	0.000816	-0.000565	3.410307	2123.52	-0.000388	-0.000288	-11843.1	NaN
643	2.000000	1.098798	7.37134e+06	-44939.1	1005.82	-29774.2	0.000000	0.000000	7.099281	10.0609	NaN	0.000000	0.001648	0.001731	28.0831	9.847011	0.001590	6191.87	3.475648	-171.411	10.025	1.098509	0.006533	0.006243	10.0609	6191.87	0.005315	0.004422	2275.06	85069.5
643	2.000000	1.101259	7.37134e+06	-44939.1	1005.82	-29774.2	0.000000	0.000000	7.101915	14.2641	NaN	0.000000	0.001616	0.001725	28.0831	13.1303	0.001679	7820.28	9.523249	3.671107	13.7544	1.100867	0.008994	0.008602	14.2641	7820.28	0.007626	0.006661	2141.52	87545.6
643	2.000000	1.103769	7.37134e+06	-44939.1	1005.82	-29774.2	0.000000	0.000000	7.104582	18.1012	NaN	0.000000	0.001640	0.001694	28.0834	16.652	0.001909	8722.59	9.979827	-178.465	17.7489	1.103472	0.011504	0.011207	18.1012	8722.59	0.009947	0.009123	1984.1	83434.7
643	2.000000	1.106251	7.37134e+06	-44939.1	1005.82	-29774.2	0.000000	0.000000	7.107383	25.8401	NaN	0.000000	0.001625	0.001726	28.0832	18.5001	0.001663	11122	5.549984	2.427481	23.9813	1.105866	0.013986	0.013601	25.8401	11122	0.012244	0.011783	2192.96	93610.3
643	2.000000	1.108683	7.37134e+06	-44939.1	1005.82	-29774.2	0.000000	0.000000	7.110076	32.2075	NaN	0.000000	0.001577	0.001714	28.0833	20.6238	0.001571	13123.9	5.362347	-179.769	29.1954	1.108455	0.016418	0.016190	32.2075	13123.9	0.014577	0.014725	2187.19	98810.3
643	2.000000	1.111175	7.37134e+06	-44939.1	1005.82	-29774.2	0.000000	0.000000	7.112803	37.919	NaN	0.000000	0.001643	0.001675	28.0832	23.4818	0.001660	14147.3	6.687345	-0.778198	35.7732	1.110876	0.018910	0.018611	37.919	14147.3	0.016900	0.017903	2118.03	96601.4
643	2.000000	1.113723	7.37134e+06	-44939.1	1005.82	-29774.2	0.000000	0.000000	7.115624	44.566	NaN	0.000000	0.001641	0.001780	28.083	27.1961	0.001806	15062.3	3.655961	-177.801	44.7929	1.113354	0.021458	0.021089	44.566	15062.3	0.019239	0.021360	2086.39	94158.6
643	2.000000	1.116230	7.37134e+06	-44939.1	1005.82	-29774.2	0.000000	0.000000	7.118477	52.9754	NaN	0.000000	0.001651	0.001688	28.0824	28.7889	0.001646	17486.7	2.470362	1.171412	51.5408	1.115869	0.023965	0.023604	52.9754	17486.7	0.021693	0.025272	2096.19	100498
643	2.000000	1.118735	7.37134e+06	-44939.1	1005.82	-29774.2	0.000000	0.000000	7.121232	59.0607	NaN	0.000000	0.001660	0.001708	28.082	31.1515	0.001698	18350	5.911230	177.509	61.0905	1.118417	0.026470	0.026152	59.0607	18350	0.024056	0.029320	2014.33	97909.4
643	2.000000	1.121193	7.37134e+06	-44939.1	1005.82	-29774.2	0.000000	0.000000	7.124045	67.711	NaN	0.000000	0.001641	0.001686	28.0819	34.6793	0.001852	18723.9	7.613312	-3.780501	67.4455	1.120878	0.028928	0.028613	67.711	18723.9	0.026215	0.033264	2035.56	93795.6
643	2.000000	1.123736	7.37134e+06	-44939.1	1005.82	-29774.2	0.000000	0.000000	7.126994	77.5795	NaN	0.000000	0.001612	0.001719	28.0817	36.6414	0.001693	21637.7	5.709948	176.068	78.8915	1.123398	0.031471	0.031132	77.5795	21637.7	0.028782	0.038256	2027.9	101073
643	2.000000	1.126193	7.37134e+06	-44939.1	1005.82	-29774.2	0.000000	0.000000	7.129963	90.0317	NaN	0.000000	0.001661	0.001743	28.0819	39.0296	0.001717	22737.7	7.702974	-6.260371	87.9012	1.125733	0.033928	0.033468	90.0317	22737.7	0.030958	0.042753	2105.87	100470
643	2.000000	1.128676	7.37134e+06	-44939.1	1005.82	-29774.2	0.000000	0.000000	7.132873	100.425	NaN	0.000000	0.001642	0.001732	28.0819	41.6156	0.001880	22136.5	8.628019	174.087	100.03	1.128358	0.036411	0.036093	100.425	22136.5	0.033008	0.047210	2127.2	93081.7
643	2.000000	1.131133	7.37134e+06	-44939.1	1005.82	-29774.2	0.000000	0.000000	7.135845	112.941	NaN	0.000000	0.001691	0.001708	28.082	44.2095	0.001826	24213.1	4.341552	-3.072797	109.589	1.130834	0.038868	0.038569	112.941	24213.1	0.035370	0.052610	2146.74	96446.9
643	2.000000	1.133678	7.37134e+06	-44939.1	1005.82	-29774.2	0.000000	0.000000	7.138963	126.885	NaN	0.000000	0.001683	0.001707	28.0819	46.2344	0.001694	27296.8	4.529327	176.633	125.543	1.133350	0.041413	0.041085	126.885	27296.8	0.037927	0.058780	2158.66	102866
643	2.000000	1.136189	7.37134e+06	-44939.1	1005.82	-29774.2	0.000000	0.000000	7.142054	140.982	NaN	0.000000	0.001637	0.001723	28.0822	49.3487	0.001749	28212.6	6.179569	-5.827240	138.407	1.135754	0.043924	0.043489	140.982	28212.6	0.040176	0.064485	2186.28	101505
643	2.000000	1.138601	7.37135e+06	-44939.1	1005.82	-29774.2	0.000000	0.000000	7.145030	154.733	NaN	0.000000	0.001679	0.001737	28.0819	51.3689	0.001782	28823.4	4.030693	176.228	151.48	1.138362	0.046336	0.046097	154.733	28823.4	0.042309	0.070133	2206.29	99439.4
643	2.000000	1.141133	7.37135e+06	-44939.1	1005.82	-29774.2	0.000000	0.000000	7.148271	171.959	NaN	0.000000	0.001640	0.001734	28.0819	54.0182	0.001695	31875.1	5.610214	-6.226263	168.879	1.140802	0.048868	0.048537	171.959	31875.1	0.044822	0.077083	2230.84	104893
643	2.000000	1.143612	7.37135e+06	-44939.1	1005.82	-29774.2	0.000000	0.000000	7.151364	186.897	NaN	0.000000	0.001684	0.001744	28.082	57.2694	0.001861	30779.6	2.507775	177.332	182.512	1.143342	0.051347	0.051077	186.897	30779.6	0.046793	0.082758	2258.36	97753.3
643	2.000000	1.146139	7.37135e+06	-44939.1	1005.82	-29774.2	0.000000	0.000000	7.154587	203.831	NaN	0.000000	0.001674	0.001720	28.082	58.868	0.001771	33243.8	3.390434	-4.664353	199.522	1.145812	0.053874	0.053547	203.831	33243.8	0.049276	0.090188	2260.08	101137
643	2.000000	1.148625	7.37135e+06	-44939.1	1005.82	-29774.2	0.000000	0.000000	7.157857	222.919	NaN	0.000000	0.001719	0.001726	28.082	60.5526	0.001711	35385.4	7.101286	170.75	221.645	1.148348	0.056360	0.056083	222.919	35385.4	0.051635	0.097533	2285.57	103519
643	2.000000	1.151118	7.37135e+06	-44939.1	1005.82	-29774.2	0.000000	0.000000	7.161097	241.085	NaN	0.000000	0.001716	0.001703	28.0831	64.9218	0.001818	35707.9	5.823529	-8.002162	239.08	1.150775	0.058853	0.058510	241.085	35707.9	0.053789	0.104484	2307.38	100928
643	2.000000	1.153710	7.37135e+06	-44939.1	1005.82	-29774.2	0.000000	0.000000	7.164404	258.479	NaN	0.000000	0.001695	0.001712	28.0835	68.0799	0.001786	38119.4	6.657183	171.085	258.901	1.153320	0.061445	0.061055	258.479	38119.4	0.056359	0.113078	2285.85	103569
643	2.000000	1.156133	7.37135e+06	-44939.1	1005.82	-29774.2	0.000000	0.000000	7.167778	281.584	NaN	0.000000	0.001697	0.001770	28.0832	69.5649	0.001741	39956.4	5.357204	-7.646685	275.9	1.155787	0.063868	0.063522	281.584	39956.4	0.058583	0.120776	2331.46	105044
643	2.000000	1.158582	7.37135e+06	-44939.1	1005.82	-29774.2	0.000000	0.000000	7.170883	297.546	NaN	0.000000	0.001683	0.001795	28.0833	71.4625	0.001688	42336.5	3.435448	173.381	294.223	1.158403	0.066317	0.066138	297.546	42336.5	0.061046	0.129587	2296.11	107450
643	2.000000	1.161133	7.37135e+06	-44939.1	1005.82	-29774.2	0.000000	0.000000	7.174294	318.468	NaN	0.000000	0.001693	0.001817	28.0833	75.454	0.001877	40195.1	5.300510	-7.742789	316.046	1.160756	0.068868	0.068491	318.468	40195.1	0.062926	0.136510	2332.94	99395
643	2.000000	1.163579	7.37135e+06	-44939.1	1005.82	-29774.2	0.000000	0.000000	7.177844	345.335	NaN	0.000000	0.001595	0.001794	28.0833	77.0304	0.001818	42367.1	2.816354	174.645	341.725	1.163257	0.071314	0.070992	345.335	42367.1	0.065201	0.145116	2379.71	101612
643	2.000000	1.166081	7.37135e+06	-44939.1	1005.82	-29774.2	0.000000	0.000000	7.181557	374.803	NaN	0.000000	0.001578	0.001744	28.0833	77.7611	0.001612	48243.8	1.272717	-5.078619	368.785	1.165760	0.073816	0.073495	374.803	48243.8	0.067989	0.156004	2402.52	111595
643	2.000000	1.168605	7.37135e+06	-44939.1	1005.82	-29774.2	0.000000	0.000000	7.184844	393.383	NaN	0.000000	0.001622	0.001761	28.0832	80.364	0.001751	45885.9	2.390805	174.232	391.983	1.168323	0.076339	0.076058	393.383	45885.9	0.069910	0.163721	2402.77	103610
643	2.000000	1.171123	7.37135e+06	-44939.1	1005.82	-29774.2	0.000000	0.000000	7.188111	411.577	NaN	0.000000	0.001608	0.001778	28.0834	84.2081	0.001773	47497.4	6.288412	-10.2602	408.664	1.170695	0.078858	0.078430	411.577	47497.4	0.072359	0.173818	2367.87	104087
643	2.000000	1.173584	7.37135e+06	-44939.1	1005.82	-29774.2	0.000000	0.000000	7.191425	432.341	NaN	0.000000	0.001629	0.001779	28.0832	88.1248	0.001840	47900	5.834846	170.072	430.62	1.173397	0.081319	0.081132	432.341	47900	0.074549	0.183084	2361.43	102278
643	2.000000	1.176152	7.37135e+06	-44939.1	1005.82	-29774.2	0.000000	0.000000	7.194994	456.689	NaN	0.000000	0.001610	0.001805	28.0832	89.2091	0.001900	46942.5	5.913508	-9.658139	455.736	1.175917	0.083887	0.083652	456.689	46942.5	0.076591	0.191928	2379.49	97897.3
643	2.000000	1.178643	7.37135e+06	-44939.1	1005.82	-29774.2	0.000000	0.000000	7.198642	484.839	NaN	0.000000	0.001612	0.001796	28.0832	90.0758	0.001663	54173.4	3.342716	172.126	485.305	1.178355	0.086378	0.086090	484.839	54173.4	0.079666	0.205615	2357.99	109152
643	2.000000	1.181083	7.37135e+06	-44939.1	1005.82	-29774.2	0.000000	0.000000	7.202232	512.806	NaN	0.000000	0.001654	0.001742	28.0835	94.4672	0.001755	53839.2	8.578960	-13.0745	509.337	1.180760	0.088818	0.088495	512.806	53839.2	0.081674	0.214793	2387.45	106136
643	2.000000	1.183579	7.37135e+06	-44939.1	1005.82	-29774.2	0.000000	0.000000	7.205993	543.604	NaN	0.000000	0.001620	0.001783	28.0834	97.8537	0.001820	53766.9	6.604484	169.053	540.888	1.183228	0.091314	0.090963	543.604	53766.9	0.083731	0.224385	2422.65	103703
643	2.000000	1.186041	7.37135e+06	-44939.1	1005.82	-29774.2	0.000000	0.000000	7.209629	572.169	NaN	0.000000	0.001626	0.001742	28.0819	99.2274	0.001805	54966.8	5.790515	-10.005	567.784	1.185598	0.093776	0.093333	572.169	54966.8	0.085968	0.235043	2434.31	103586
643	2.000000	1.188582	7.37135e+06	-44939.1	1005.82	-29774.2	0.000000	0.000000	7.213291	599.414	NaN	0.000000	0.001635	0.001734	28.0821	100.44	0.001796	55935.6	4.892215	170.682	596.318	1.188036	0.096317	0.095771	599.414	55935.6	0.088280	0.246298	2433.7	102975
643	2.000000	1.191101	7.37135e+06	-44939.1	1005.82	-29774.2	0.000000	0.000000	7.216697	621.002	NaN	0.000000	0.001640	0.001760	28.0821	103.977	0.001731	60068.5	8.169415	-13.2319	617.428	1.190637	0.098835	0.098372	621.002	60068.5	0.091082	0.260266	2386.03	107575
643	2.000000	1.193579	7.37135e+06	-44939.1	1005.82	-29774.2	0.000000	0.000000	7.220343	649.412	NaN	0.000000	0.001619	0.001752	28.0822	107.5	0.001971	54551.3	4.410704	170.788	646.543	1.193341	0.101313	0.101076	649.412	54551.3	0.092385	0.266886	2433.29	96475.1
643	2.000000	1.196093	7.37135e+06	-44939.1	1005.82	-29774.2	0.000000	0.000000	7.224249	683.278	NaN	0.000000	0.001625	0.001758	28.0821	109.092	0.001857	58757.1	7.813837	-12.8136	679.374	1.195673	0.103828	0.103408	683.278	58757.1	0.095107	0.280961	2431.93	101277