File: remote_trans/data/nanoindenter/0828-1/data/Data_2025-08-06,11h17m57s/2025-07-22_16-23-58_1_495.txt
2025-07-22, 16:23:58, 1
Index	Phase	Displacement	Time	Pos X	Pos Y	Pos Z	Rot A	Rot B	Piezo Z	Force A	Force B	Gripper	Voltage A	Voltage B	Temperature	Amplitude force	Amplitude pos	Stiffness	Phase shift	Phase excitation	Force A raw	Displacement raw	HMax	HMax raw	Real Force	Real Stiffness	Contact Depth	Area	Hardness	Reduced Mod.
[#]	[#]	[um]	[s]	[um]	[um]	[um]	[m°]	[m°]	[um]	[uN]	[uN]	[V]	[V]	[V]	[°C]	[uN]	[um]	[N/m]	[°]	[°]	[uN]	[um]	[um]	[um]	[uN]	[N/m]	[um]	[um^2]	[MPa]	[MPa]
495	1.000000	0.002529	7.36989e+06	-52339.1	1005.82	-29749.6	0.000000	0.000000	6.002819	-0.067824	NaN	0.000000	0.001579	0.001748	28.0818	0.028168	0.000947	29.7355	-48.363	-157.634	-0.079033	0.001228	-1.010116	-1.011417	-0.067824	29.7355	-1.008406	-2.943905E+13	2.303866E-15	NaN
495	1.000000	0.010499	7.36989e+06	-52339.1	1005.82	-29749.6	0.000000	0.000000	6.010790	-0.046908	NaN	0.000000	0.001592	0.001730	28.0806	0.076868	0.000945	81.3404	-41.9596	-159.562	-0.121576	0.009142	-1.002146	-1.003503	-0.046908	81.3404	-1.001713	-2.392420E+13	1.960702E-15	NaN
495	1.000000	0.018482	7.36989e+06	-52339.1	1005.82	-29749.6	0.000000	0.000000	6.018775	0.006041	NaN	0.000000	0.001613	0.001740	28.0804	0.040799	0.002006	20.3381	-138.637	-163.697	-0.029919	0.017188	-0.994163	-0.995457	0.006041	20.3381	-0.994386	-1.906226E+13	-3.169026E-16	NaN
495	1.000000	0.026462	7.36989e+06	-52339.1	1005.82	-29749.6	0.000000	0.000000	6.026753	-0.041063	NaN	0.000000	0.001581	0.001753	28.0804	0.056897	0.001746	32.5891	-13.1713	-166.808	0.017471	0.025135	-0.986183	-0.987510	-0.041063	32.5891	-0.985238	-1.435402E+13	2.860719E-15	NaN
495	1.000000	0.034442	7.36989e+06	-52339.1	1005.82	-29749.6	0.000000	0.000000	6.034734	0.004278	NaN	0.000000	0.001581	0.001793	28.0804	0.022476	0.001789	12.5652	106.105	-167.93	-0.085665	0.033162	-0.978204	-0.979484	0.004278	12.5652	-0.978459	-1.163185E+13	-3.678220E-16	NaN
495	1.000000	0.042409	7.36989e+06	-52339.1	1005.82	-29749.6	0.000000	0.000000	6.042702	0.010233	NaN	0.000000	0.001600	0.001824	28.0805	0.071804	0.002020	35.5403	-131.416	-163.993	-0.001020	0.041114	-0.970236	-0.971531	0.010233	35.5403	-0.970452	-9.073075E+12	-1.127841E-15	NaN
495	1.000000	0.050457	7.36989e+06	-52339.1	1005.82	-29749.6	0.000000	0.000000	6.050745	-0.087873	NaN	0.000000	0.001586	0.001814	28.0801	0.070545	0.001900	37.1316	-14.6085	-167.333	-0.101686	0.049121	-0.962189	-0.963525	-0.087873	37.1316	-0.960414	-6.644266E+12	1.322544E-14	NaN
495	1.000000	0.058466	7.36989e+06	-52339.1	1005.82	-29749.6	0.000000	0.000000	6.058756	-0.055428	NaN	0.000000	0.001598	0.001814	28.0801	0.095180	0.001983	47.9924	-88.0245	-165.039	-0.054213	0.057162	-0.954180	-0.955483	-0.055428	47.9924	-0.953313	-5.329794E+12	1.039963E-14	NaN
495	1.000000	0.066440	7.36989e+06	-52339.1	1005.82	-29749.6	0.000000	0.000000	6.066731	-0.049609	NaN	0.000000	0.001623	0.001793	28.0801	0.056663	0.001963	28.8697	-57.8958	-165.02	-0.110888	0.065213	-0.946205	-0.947433	-0.049609	28.8697	-0.944916	-4.106361E+12	1.208093E-14	NaN
495	1.000000	0.074449	7.36989e+06	-52339.1	1005.82	-29749.6	0.000000	0.000000	6.074740	-0.027481	NaN	0.000000	0.001611	0.001816	28.0805	0.055995	0.001944	28.802	93.4293	-164.538	0.040441	0.073206	-0.938197	-0.939439	-0.027481	28.802	-0.937481	-3.259497E+12	8.431036E-15	NaN
495	1.000000	0.082465	7.36989e+06	-52339.1	1005.82	-29749.6	0.000000	0.000000	6.082757	-0.015002	NaN	0.000000	0.001633	0.001796	28.0806	0.079095	0.001941	40.7482	114.705	-164.364	-0.100112	0.081190	-0.930180	-0.931455	-0.015002	40.7482	-0.929904	-2.575749E+12	5.824480E-15	NaN
495	1.000000	0.090482	7.36989e+06	-52339.1	1005.82	-29749.6	0.000000	0.000000	6.090775	0.003425	NaN	0.000000	0.001627	0.001814	28.0803	0.062617	0.002122	29.5061	-91.2195	-163.401	0.011524	0.089140	-0.922163	-0.923505	0.003425	29.5061	-0.922250	-2.030418E+12	-1.686697E-15	NaN
495	1.000000	0.098483	7.3699e+06	-52339.1	1005.82	-29749.6	0.000000	0.000000	6.098777	0.050220	NaN	0.000000	0.001634	0.001811	28.0801	0.100694	0.001966	51.2153	-93.5387	-166.914	0.013812	0.097196	-0.914163	-0.915450	0.050220	51.2153	-0.914898	-1.615532E+12	-3.108601E-14	NaN
495	1.000000	0.106469	7.3699e+06	-52339.1	1005.82	-29749.6	0.000000	0.000000	6.106763	0.047979	NaN	0.000000	0.001637	0.001787	28.0801	0.024101	0.001899	12.6892	145.15	-169.874	-0.015057	0.105139	-0.906177	-0.907506	0.047979	12.6892	-0.909013	-1.345322E+12	-3.566372E-14	NaN
495	1.000000	0.114490	7.3699e+06	-52339.1	1005.82	-29749.6	0.000000	0.000000	6.114780	-0.043159	NaN	0.000000	0.001639	0.001772	28.08	0.121146	0.001997	60.6784	-46.0026	-164.589	0.031681	0.113175	-0.898156	-0.899470	-0.043159	60.6784	-0.897622	-9.439210E+11	4.572277E-14	NaN
495	1.000000	0.122462	7.3699e+06	-52339.1	1005.82	-29749.6	0.000000	0.000000	6.122749	-0.119172	NaN	0.000000	0.001632	0.001784	28.0802	0.083339	0.002005	41.5683	165.783	-165.57	0.010811	0.121156	-0.890184	-0.891489	-0.119172	41.5683	-0.888034	-7.003797E+11	1.701532E-13	NaN
495	1.000000	0.130499	7.3699e+06	-52339.1	1005.82	-29749.6	0.000000	0.000000	6.130791	-0.001263	NaN	0.000000	0.001503	0.001786	28.0803	0.018492	0.002022	9.145780	79.4227	-165.183	-0.006055	0.129223	-0.882146	-0.883422	-0.001263	9.145780	-0.882043	-5.812110E+11	2.172937E-15	NaN
495	1.000000	0.138516	7.3699e+06	-52339.1	1005.82	-29749.6	0.000000	0.000000	6.138807	-0.056746	NaN	0.000000	0.001521	0.001822	28.0803	0.047397	0.002018	23.4837	174.589	-164.452	0.033252	0.137171	-0.874129	-0.875474	-0.056746	23.4837	-0.872317	-4.293231E+11	1.321744E-13	NaN
495	1.000000	0.146502	7.3699e+06	-52339.1	1005.82	-29749.6	0.000000	0.000000	6.146794	-0.029019	NaN	0.000000	0.001487	0.001783	28.0811	0.050248	0.002069	24.2828	145.4	-161.801	-0.008365	0.145177	-0.866143	-0.867469	-0.029019	24.2828	-0.865247	-3.444517E+11	8.424727E-14	NaN
495	1.000000	0.154484	7.3699e+06	-52339.1	1005.82	-29749.6	0.000000	0.000000	6.154777	0.001047	NaN	0.000000	0.001535	0.001767	28.0814	0.083431	0.001977	42.2115	-94.3852	-163.794	-0.039304	0.153167	-0.858161	-0.859478	0.001047	42.2115	-0.858180	-2.763626E+11	-3.787589E-15	NaN
495	1.000000	0.162477	7.3699e+06	-52339.1	1005.82	-29749.6	0.000000	0.000000	6.162767	-0.062003	NaN	0.000000	0.001530	0.001784	28.0811	0.038614	0.002019	19.1294	155.766	-166.309	0.019561	0.161202	-0.850168	-0.851443	-0.062003	19.1294	-0.847737	-1.995686E+11	3.106863E-13	NaN
495	1.000000	0.170515	7.3699e+06	-52339.1	1005.82	-29749.6	0.000000	0.000000	6.170806	-0.044910	NaN	0.000000	0.001512	0.001760	28.0812	0.016875	0.002128	7.929904	-49.3	-170.052	-0.013996	0.169209	-0.842130	-0.843436	-0.044910	7.929904	-0.837883	-1.467591E+11	3.060106E-13	NaN
495	1.000000	0.178495	7.3699e+06	-52339.1	1005.82	-29749.6	0.000000	0.000000	6.178787	-0.013557	NaN	0.000000	0.001544	0.001701	28.0813	0.059710	0.001937	30.8278	148.554	-166.558	-0.019792	0.177219	-0.834150	-0.835426	-0.013557	30.8278	-0.833820	-1.292883E+11	1.048592E-13	NaN
495	1.000000	0.186550	7.3699e+06	-52339.1	1005.82	-29749.6	0.000000	0.000000	6.186842	0.002490	NaN	0.000000	0.001579	0.001719	28.0819	0.084212	0.002019	41.7174	11.136	-166.395	-0.008108	0.185204	-0.826096	-0.827442	0.002490	41.7174	-0.826140	-1.017340E+11	-2.447394E-14	NaN
495	1.000000	0.194507	7.3699e+06	-52339.1	1005.82	-29749.6	0.000000	0.000000	6.194796	-0.094756	NaN	0.000000	0.001600	0.001704	28.0816	0.029259	0.001997	14.6545	71.717	-164.834	-0.008076	0.193248	-0.818138	-0.819397	-0.094756	14.6545	-0.813288	-6.810564E+10	1.391311E-12	NaN
495	1.000000	0.202519	7.3699e+06	-52339.1	1005.82	-29749.6	0.000000	0.000000	6.202815	0.080379	NaN	0.000000	0.001577	0.001672	28.0813	0.063353	0.001989	31.8547	107.623	-162.505	0.027959	0.201205	-0.810126	-0.811440	0.080379	31.8547	-0.812019	-6.545749E+10	-1.227965E-12	NaN
495	1.000000	0.210527	7.3699e+06	-52339.1	1005.82	-29749.6	0.000000	0.000000	6.210815	-0.102926	NaN	0.000000	0.001559	0.001725	28.0813	0.098688	0.002044	48.272	-23.8966	-162.389	-0.035733	0.209228	-0.802119	-0.803417	-0.102926	48.272	-0.800519	-4.569970E+10	2.252217E-12	NaN
495	1.000000	0.218528	7.3699e+06	-52339.1	1005.82	-29749.6	0.000000	0.000000	6.218817	-0.077632	NaN	0.000000	0.001608	0.001712	28.0814	0.095334	0.002075	45.9488	160.239	-164.008	-0.074263	0.217182	-0.794118	-0.795463	-0.077632	45.9488	-0.792851	-3.595806E+10	2.158972E-12	NaN
495	1.000000	0.226562	7.3699e+06	-52339.1	1005.82	-29749.6	0.000000	0.000000	6.226855	0.017154	NaN	0.000000	0.001603	0.001744	28.0816	0.132100	0.001934	68.3037	57.0282	-167.254	-0.106287	0.225247	-0.786083	-0.787398	0.017154	68.3037	-0.786272	-2.927134E+10	-5.860456E-13	NaN
495	1.000000	0.234525	7.3699e+06	-52339.1	1005.82	-29749.6	0.000000	0.000000	6.234815	-0.078299	NaN	0.000000	0.001559	0.001755	28.0815	0.136882	0.001915	71.4835	-158.629	-166.888	-0.033683	0.233204	-0.778120	-0.779442	-0.078299	71.4835	-0.777298	-2.210637E+10	3.541903E-12	NaN
495	1.000000	0.242540	7.3699e+06	-52339.1	1005.82	-29749.6	0.000000	0.000000	6.242831	-0.026622	NaN	0.000000	0.001577	0.001730	28.0814	0.135399	0.001974	68.5932	-4.079030	-164.102	-0.040100	0.241203	-0.770106	-0.771442	-0.026622	68.5932	-0.769815	-1.748977E+10	1.522129E-12	NaN
495	1.000000	0.250559	7.3699e+06	-52339.1	1005.82	-29749.6	0.000000	0.000000	6.250850	-0.019219	NaN	0.000000	0.001571	0.001710	28.0813	0.108432	0.001912	56.6972	89.9251	-166.703	-0.048159	0.249187	-0.762087	-0.763458	-0.019219	56.6972	-0.761833	-1.362172E+10	1.410911E-12	NaN
495	1.000000	0.258548	7.3699e+06	-52339.1	1005.82	-29749.6	0.000000	0.000000	6.258840	-0.029858	NaN	0.000000	0.001565	0.001745	28.0811	0.100503	0.002025	49.633	117.465	-162.317	-0.054827	0.257220	-0.754097	-0.755425	-0.029858	49.633	-0.753646	-1.054003E+10	2.832778E-12	NaN
495	1.000000	0.266573	7.3699e+06	-52339.1	1005.82	-29749.6	0.000000	0.000000	6.266866	0.015457	NaN	0.000000	0.001590	0.001720	28.0814	0.109058	0.002035	53.5934	-128.994	-167.769	-0.049612	0.265274	-0.746073	-0.747371	0.015457	53.5934	-0.746289	-8.369524E+9	-1.846770E-12	NaN
495	1.000000	0.274524	7.3699e+06	-52339.1	1005.82	-29749.6	0.000000	0.000000	6.274816	-0.012807	NaN	0.000000	0.001579	0.001754	28.0816	0.078983	0.001963	40.2349	34.6073	-166.359	-0.046816	0.273191	-0.738121	-0.739455	-0.012807	40.2349	-0.737882	-6.429968E+9	1.991842E-12	NaN
495	1.000000	0.282517	7.3699e+06	-52339.1	1005.82	-29749.6	0.000000	0.000000	6.282807	-0.055963	NaN	0.000000	0.001596	0.001785	28.0809	0.084767	0.001996	42.4672	133.027	-170.586	-0.118501	0.281249	-0.730128	-0.731397	-0.055963	42.4672	-0.729140	-4.887450E+9	1.145045E-11	NaN
495	1.000000	0.290564	7.3699e+06	-52339.1	1005.82	-29749.6	0.000000	0.000000	6.290855	-0.039209	NaN	0.000000	0.001619	0.001749	28.0804	0.073085	0.002141	34.1338	-79.7518	-164.883	-0.066190	0.289264	-0.722082	-0.723382	-0.039209	34.1338	-0.721220	-3.811635E+9	1.028674E-11	NaN
495	1.000000	0.298582	7.3699e+06	-52339.1	1005.82	-29749.6	0.000000	0.000000	6.298870	-0.089112	NaN	0.000000	0.001662	0.001745	28.0802	0.067398	0.002050	32.8703	138.987	-165.574	-0.094656	0.297223	-0.714064	-0.715423	-0.089112	32.8703	-0.712030	-2.855981E+9	3.120173E-11	NaN
495	1.000000	0.306551	7.3699e+06	-52339.1	1005.82	-29749.6	0.000000	0.000000	6.306839	-0.089616	NaN	0.000000	0.001566	0.001752	28.0803	0.034392	0.001960	17.5466	147.445	-164.969	-0.098402	0.305235	-0.706095	-0.707410	-0.089616	17.5466	-0.702264	-2.101126E+9	4.265128E-11	NaN
495	1.000000	0.314568	7.3699e+06	-52339.1	1005.82	-29749.6	0.000000	0.000000	6.314855	-0.121943	NaN	0.000000	0.001572	0.001711	28.0804	0.139352	0.001960	71.0801	85.9451	-164.794	-0.010747	0.313225	-0.698078	-0.699420	-0.121943	71.0801	-0.696791	-1.768906E+9	6.893683E-11	NaN
495	1.000000	0.322552	7.3699e+06	-52339.1	1005.82	-29749.6	0.000000	0.000000	6.322842	-0.071751	NaN	0.000000	0.001591	0.001702	28.0805	0.097039	0.002062	47.0592	-155.256	-167.935	-0.103841	0.321272	-0.690093	-0.691373	-0.071751	47.0592	-0.688949	-1.382164E+9	5.191202E-11	NaN
495	1.000000	0.330585	7.3699e+06	-52339.1	1005.82	-29749.6	0.000000	0.000000	6.330877	-0.002237	NaN	0.000000	0.001593	0.001734	28.0806	0.051505	0.001905	27.0412	-80.8272	-165.772	-0.026281	0.329289	-0.682061	-0.683356	-0.002237	27.0412	-0.681998	-1.110542E+9	2.014444E-12	NaN
495	1.000000	0.338604	7.3699e+06	-52339.1	1005.82	-29749.6	0.000000	0.000000	6.338898	0.049476	NaN	0.000000	0.001602	0.001730	28.0801	0.018143	0.001931	9.395966	-9.674351	-166.01	0.053882	0.337274	-0.674042	-0.675371	0.049476	9.395966	-0.677991	-9.788737E+8	-5.054378E-11	NaN
495	1.000000	0.346574	7.3699e+06	-52339.1	1005.82	-29749.6	0.000000	0.000000	6.346867	0.020217	NaN	0.000000	0.001623	0.001736	28.0802	0.054486	0.002069	26.3291	23.7454	-164.38	0.001002	0.345237	-0.666072	-0.667409	0.020217	26.3291	-0.666648	-6.847034E+8	-2.952717E-11	NaN
495	1.000000	0.354599	7.3699e+06	-52339.1	1005.82	-29749.6	0.000000	0.000000	6.354890	-0.024041	NaN	0.000000	0.001648	0.001712	28.08	0.013911	0.002014	6.908676	138.637	-167.319	-0.056447	0.353299	-0.658046	-0.659346	-0.024041	6.908676	-0.655437	-4.807840E+8	5.000344E-11	NaN
495	1.000000	0.362578	7.3699e+06	-52339.1	1005.82	-29749.6	0.000000	0.000000	6.362871	0.028869	NaN	0.000000	0.001610	0.001745	28.0801	0.068352	0.001884	36.2857	-46.6936	-164.656	0.151195	0.361271	-0.650068	-0.651374	0.028869	36.2857	-0.650664	-4.135641E+8	-6.980491E-11	NaN
495	1.000000	0.370599	7.3699e+06	-52339.1	1005.82	-29749.6	0.000000	0.000000	6.370892	0.018747	NaN	0.000000	0.001549	0.001764	28.0802	0.044223	0.002047	21.6075	146.856	-165.548	-0.016185	0.369241	-0.642046	-0.643405	0.018747	21.6075	-0.642697	-3.215827E+8	-5.829755E-11	NaN
495	1.000000	0.378605	7.3699e+06	-52339.1	1005.82	-29749.6	0.000000	0.000000	6.378896	-0.036115	NaN	0.000000	0.001565	0.001695	28.0802	0.064336	0.001929	33.3562	120.731	-167.338	0.028661	0.377338	-0.634040	-0.635307	-0.036115	33.3562	-0.633228	-2.384244E+8	1.514717E-10	NaN
495	1.000000	0.386624	7.3699e+06	-52339.1	1005.82	-29749.6	0.000000	0.000000	6.386913	-0.071221	NaN	0.000000	0.001563	0.001736	28.0804	0.037750	0.002039	18.5114	-37.3374	-167.515	-0.027139	0.385263	-0.626022	-0.627383	-0.071221	18.5114	-0.623136	-1.732753E+8	4.110272E-10	NaN
495	1.000000	0.394605	7.3699e+06	-52339.1	1005.82	-29749.6	0.000000	0.000000	6.394896	-0.022691	NaN	0.000000	0.001562	0.001674	28.0802	0.093817	0.002129	44.0754	-47.2877	-166.977	-0.088002	0.393367	-0.618041	-0.619278	-0.022691	44.0754	-0.617655	-1.456770E+8	1.557633E-10	NaN
495	1.000000	0.402605	7.3699e+06	-52339.1	1005.82	-29749.6	0.000000	0.000000	6.402896	-0.021636	NaN	0.000000	0.001517	0.001672	28.0802	0.042907	0.001973	21.7479	-138.468	-166.628	-0.025058	0.401306	-0.610041	-0.611339	-0.021636	21.7479	-0.609295	-1.117918E+8	1.935352E-10	NaN
495	1.000000	0.410612	7.3699e+06	-52339.1	1005.82	-29749.6	0.000000	0.000000	6.410901	-0.070746	NaN	0.000000	0.001571	0.001674	28.08	0.047464	0.002027	23.4149	152.279	-165.806	-0.045725	0.409266	-0.602034	-0.603379	-0.070746	23.4149	-0.599768	-8.265357E+7	8.559367E-10	NaN
495	1.000000	0.418636	7.3699e+06	-52339.1	1005.82	-29749.6	0.000000	0.000000	6.418927	-0.047052	NaN	0.000000	0.001597	0.001702	28.0812	0.109156	0.002064	52.8905	131.164	-168.039	-0.021710	0.417304	-0.594009	-0.595342	-0.047052	52.8905	-0.593342	-6.741118E+7	6.979908E-10	NaN
495	1.000000	0.426590	7.3699e+06	-52339.1	1005.82	-29749.6	0.000000	0.000000	6.426882	0.008891	NaN	0.000000	0.001575	0.001722	28.0814	0.032787	0.001996	16.4302	94.7246	-167.572	-0.067091	0.425336	-0.586056	-0.587309	0.008891	16.4302	-0.586462	-5.418437E+7	-1.640936E-10	NaN
495	1.000000	0.434627	7.3699e+06	-52339.1	1005.82	-29749.6	0.000000	0.000000	6.434916	-0.064940	NaN	0.000000	0.001554	0.001712	28.0815	0.099253	0.001962	50.5756	-9.616749	-167.543	-0.064695	0.433312	-0.578019	-0.579334	-0.064940	50.5756	-0.577056	-4.018693E+7	1.615944E-9	NaN
495	1.000000	0.442653	7.3699e+06	-52339.1	1005.82	-29749.6	0.000000	0.000000	6.442946	0.007004	NaN	0.000000	0.001557	0.001724	28.0816	0.148189	0.001965	75.4194	58.2989	-164.914	-0.050355	0.441345	-0.569992	-0.571300	0.007004	75.4194	-0.570062	-3.217259E+7	-2.177152E-10	NaN
495	1.000000	0.450622	7.3699e+06	-52339.1	1005.82	-29749.6	0.000000	0.000000	6.450912	-0.059200	NaN	0.000000	0.001604	0.001719	28.0811	0.065652	0.002166	30.3074	-112.755	-167.429	-0.032022	0.449328	-0.562023	-0.563318	-0.059200	30.3074	-0.560558	-2.377401E+7	2.490131E-9	NaN
495	1.000000	0.458625	7.3699e+06	-52339.1	1005.82	-29749.6	0.000000	0.000000	6.458917	-0.032280	NaN	0.000000	0.001555	0.001746	28.0814	0.056934	0.002046	27.8335	82.4682	-165.494	-0.003204	0.457294	-0.554020	-0.555351	-0.032280	27.8335	-0.553150	-1.877493E+7	1.719308E-9	NaN
495	1.000000	0.466619	7.3699e+06	-52339.1	1005.82	-29749.6	0.000000	0.000000	6.466909	-0.043116	NaN	0.000000	0.001603	0.001739	28.0814	0.048810	0.001965	24.8424	-149.526	-167.367	-0.019506	0.465373	-0.546027	-0.547272	-0.043116	24.8424	-0.544725	-1.435056E+7	3.004503E-9	NaN
495	1.000000	0.474639	7.3699e+06	-52339.1	1005.82	-29749.6	0.000000	0.000000	6.474930	-0.033313	NaN	0.000000	0.001610	0.001729	28.0816	0.168626	0.001989	84.7636	-57.0245	-167.297	-0.009885	0.473376	-0.538007	-0.539270	-0.033313	84.7636	-0.537712	-1.147144E+7	2.903991E-9	NaN
495	1.000000	0.482660	7.3699e+06	-52339.1	1005.82	-29749.6	0.000000	0.000000	6.482950	-0.070014	NaN	0.000000	0.001585	0.001693	28.0815	0.089036	0.002071	42.9956	43.2219	-165.352	-0.105628	0.481350	-0.529985	-0.531296	-0.070014	42.9956	-0.528764	-8.61799e+06	8.124161E-9	NaN
495	1.000000	0.490623	7.3699e+06	-52339.1	1005.82	-29749.6	0.000000	0.000000	6.490914	-0.037395	NaN	0.000000	0.001585	0.001775	28.0812	0.050925	0.002113	24.1032	149.455	-167.221	-0.077477	0.489377	-0.522022	-0.523268	-0.037395	24.1032	-0.520859	-6.69176e+06	5.588284E-9	NaN
495	1.000000	0.498619	7.3699e+06	-52339.1	1005.82	-29749.6	0.000000	0.000000	6.498916	0.101641	NaN	0.000000	0.001566	0.001739	28.0812	0.061532	0.001917	32.0937	-89.8939	-166.989	0.060870	0.497364	-0.514026	-0.515281	0.101641	32.0937	-0.516401	-5.80139e+06	-1.752019E-8	NaN
495	1.000000	0.506654	7.3699e+06	-52339.1	1005.82	-29749.6	0.000000	0.000000	6.506944	-0.048136	NaN	0.000000	0.001628	0.001707	28.0811	0.104036	0.002032	51.1927	78.4982	-166.913	-0.002592	0.505394	-0.505992	-0.507252	-0.048136	51.1927	-0.505286	-4.06197e+06	1.185043E-8	NaN
495	1.000000	0.514652	7.3699e+06	-52339.1	1005.82	-29749.6	0.000000	0.000000	6.514939	-0.117739	NaN	0.000000	0.001625	0.001698	28.0813	0.089448	0.002058	43.4541	-88.079	-166.758	-0.067933	0.513347	-0.497994	-0.499298	-0.117739	43.4541	-0.495961	-3.01064e+06	3.910767E-8	NaN
495	1.000000	0.522642	7.3699e+06	-52339.1	1005.82	-29749.6	0.000000	0.000000	6.522932	-0.074094	NaN	0.000000	0.001646	0.001723	28.0814	0.071119	0.002026	35.1009	-35.6368	-167.354	-0.101549	0.521389	-0.490003	-0.491256	-0.074094	35.1009	-0.488420	-2.36215e+06	3.136730E-8	NaN
495	1.000000	0.530657	7.3699e+06	-52339.1	1005.82	-29749.6	0.000000	0.000000	6.530950	0.014290	NaN	0.000000	0.001645	0.001714	28.0812	0.131750	0.002067	63.7244	-156.397	-167.945	0.070350	0.529315	-0.481989	-0.483330	0.014290	63.7244	-0.482157	-1.93071e+06	-7.401194E-9	NaN
495	1.000000	0.538672	7.3699e+06	-52339.1	1005.82	-29749.6	0.000000	0.000000	6.538965	0.007152	NaN	0.000000	0.001629	0.001776	28.0815	0.060154	0.002014	29.8682	-23.2845	-165.582	0.042271	0.537341	-0.473973	-0.475305	0.007152	29.8682	-0.474153	-1.49152e+06	-4.795198E-9	NaN
495	1.000000	0.546651	7.3699e+06	-52339.1	1005.82	-29749.6	0.000000	0.000000	6.546943	-0.009194	NaN	0.000000	0.001598	0.001708	28.0812	0.045282	0.002061	21.9715	-162.394	-166.507	-0.045349	0.545363	-0.465995	-0.467282	-0.009194	21.9715	-0.465681	-1.1345e+06	8.104334E-9	NaN
495	1.000000	0.554675	7.3699e+06	-52339.1	1005.82	-29749.6	0.000000	0.000000	6.554964	-0.079100	NaN	0.000000	0.001611	0.001749	28.0811	0.021364	0.002158	9.901337	-133.485	-165.924	-0.093881	0.553399	-0.457970	-0.459247	-0.079100	9.901337	-0.451978	-728111	1.086378E-7	NaN
495	1.000000	0.562654	7.3699e+06	-52339.1	1005.82	-29749.6	0.000000	0.000000	6.562942	-0.094194	NaN	0.000000	0.001594	0.001765	28.0799	0.030564	0.001891	16.1593	-12.1203	-168.066	-0.068665	0.561373	-0.449992	-0.451272	-0.094194	16.1593	-0.445620	-592421	1.589989E-7	NaN
495	1.000000	0.570681	7.3699e+06	-52339.1	1005.82	-29749.6	0.000000	0.000000	6.570968	-0.112547	NaN	0.000000	0.001609	0.001711	28.0799	0.021410	0.001965	10.8932	-157.296	-165.504	-0.108235	0.569351	-0.441965	-0.443294	-0.112547	10.8932	-0.434216	-408952	2.752083E-7	NaN
495	1.000000	0.578690	7.3699e+06	-52339.1	1005.82	-29749.6	0.000000	0.000000	6.578982	-0.005917	NaN	0.000000	0.001615	0.001713	28.08	0.096187	0.001914	50.2434	-140.673	-165.662	-0.014692	0.577353	-0.433955	-0.435293	-0.005917	50.2434	-0.433867	-404334	1.463334E-8	NaN
495	1.000000	0.586685	7.3699e+06	-52339.1	1005.82	-29749.6	0.000000	0.000000	6.586978	0.007809	NaN	0.000000	0.001628	0.001708	28.0797	0.022613	0.001982	11.4065	21.5962	-168.414	-0.046083	0.585369	-0.425960	-0.427277	0.007809	11.4065	-0.426474	-317798	-2.457355E-8	NaN
495	1.000000	0.594701	7.3699e+06	-52339.1	1005.82	-29749.6	0.000000	0.000000	6.594995	0.055080	NaN	0.000000	0.001660	0.001690	28.08	0.086880	0.001995	43.5538	171.859	-167.825	0.011858	0.593347	-0.417945	-0.419298	0.055080	43.5538	-0.418893	-248150	-2.219608E-7	NaN
495	1.000000	0.602671	7.3699e+06	-52339.1	1005.82	-29749.6	0.000000	0.000000	6.602961	-0.049667	NaN	0.000000	0.001627	0.001743	28.0797	0.032163	0.002088	15.405	102.33	-168.536	-0.043181	0.601422	-0.409974	-0.411223	-0.049667	15.405	-0.407556	-171253	2.900231E-7	NaN
495	1.000000	0.610666	7.3699e+06	-52339.1	1005.82	-29749.6	0.000000	0.000000	6.610958	-0.010268	NaN	0.000000	0.001611	0.001735	28.08	0.046245	0.001978	23.3739	-32.1738	-165.766	-0.095521	0.609346	-0.401979	-0.403299	-0.010268	23.3739	-0.401650	-141097	7.277120E-8	NaN
495	1.000000	0.618709	7.3699e+06	-52339.1	1005.82	-29749.6	0.000000	0.000000	6.619000	-0.033497	NaN	0.000000	0.001610	0.001719	28.08	0.107641	0.002029	53.063	72.1204	-168.928	-0.087020	0.617364	-0.393937	-0.395281	-0.033497	53.063	-0.393463	-107815	3.106918E-7	NaN
495	1.000000	0.626713	7.3699e+06	-52339.1	1005.82	-29749.6	0.000000	0.000000	6.627006	0.018550	NaN	0.000000	0.001629	0.001657	28.0798	0.047396	0.002090	22.6739	56.2305	-163.506	-0.015832	0.625420	-0.385933	-0.387225	0.018550	22.6739	-0.386546	-85848.7	-2.160745E-7	NaN
495	1.000000	0.634705	7.3699e+06	-52339.1	1005.82	-29749.6	0.000000	0.000000	6.634995	-0.060518	NaN	0.000000	0.001577	0.001694	28.0796	0.092172	0.001936	47.598	-8.831967	-168.901	-0.037920	0.633419	-0.377940	-0.379227	-0.060518	47.598	-0.376986	-62606.4	9.666385E-7	NaN
495	1.000000	0.642727	7.3699e+06	-52339.1	1005.82	-29749.6	0.000000	0.000000	6.643015	-0.091194	NaN	0.000000	0.001555	0.001684	28.0798	0.116559	0.002129	54.7585	-66.4191	-166.385	-0.016295	0.641432	-0.369919	-0.371214	-0.091194	54.7585	-0.368670	-47529.6	1.918682E-6	NaN
495	1.000000	0.650700	7.3699e+06	-52339.1	1005.82	-29749.6	0.000000	0.000000	6.650992	-0.017177	NaN	0.000000	0.001540	0.001706	28.0801	0.035256	0.002110	16.7055	-10.1934	-166.719	-0.015172	0.649438	-0.361945	-0.363207	-0.017177	16.7055	-0.361174	-37052	4.635803E-7	NaN
495	1.000000	0.658746	7.3699e+06	-52339.1	1005.82	-29749.6	0.000000	0.000000	6.659039	0.017946	NaN	0.000000	0.001525	0.001701	28.0801	0.055851	0.001933	28.8978	23.8141	-166.619	-0.072484	0.657393	-0.353900	-0.355252	0.017946	28.8978	-0.354365	-29532.7	-6.076762E-7	NaN
495	1.000000	0.666724	7.3699e+06	-52339.1	1005.82	-29749.6	0.000000	0.000000	6.667016	-0.017576	NaN	0.000000	0.001514	0.001737	28.0799	0.097016	0.002122	45.7235	-166.307	-165.864	-0.002011	0.665429	-0.345921	-0.347216	-0.017576	45.7235	-0.345633	-22057.7	7.968148E-7	NaN
495	1.000000	0.674716	7.3699e+06	-52339.1	1005.82	-29749.6	0.000000	0.000000	6.675011	0.054042	NaN	0.000000	0.001537	0.001742	28.0799	0.075979	0.002058	36.917	155.778	-164.761	0.029493	0.673422	-0.337929	-0.339223	0.054042	36.917	-0.339027	-17675.2	-3.057490E-6	NaN
495	1.000000	0.682698	7.3699e+06	-52339.1	1005.82	-29749.6	0.000000	0.000000	6.682990	-0.018576	NaN	0.000000	0.001545	0.001748	28.0801	0.062980	0.002093	30.088	64.5846	-164.696	-0.024822	0.681398	-0.329947	-0.331247	-0.018576	30.088	-0.329484	-12820.3	1.448959E-6	NaN
495	1.000000	0.690744	7.3699e+06	-52339.1	1005.82	-29749.6	0.000000	0.000000	6.691035	-0.029662	NaN	0.000000	0.001564	0.001718	28.0803	0.101039	0.001938	52.1262	134.03	-166.543	-0.083210	0.689399	-0.321902	-0.323246	-0.029662	52.1262	-0.321475	-9779.97	3.032933E-6	NaN
495	1.000000	0.698761	7.3699e+06	-52339.1	1005.82	-29749.6	0.000000	0.000000	6.699051	-0.065372	NaN	0.000000	0.001569	0.001704	28.0812	0.011547	0.001974	5.850521	-162.765	-168.01	-0.053868	0.697390	-0.313884	-0.315255	-0.065372	5.850521	-0.305504	-5681.1	1.150693E-5	NaN
495	1.000000	0.706708	7.3699e+06	-52339.1	1005.82	-29749.6	0.000000	0.000000	6.707000	0.011217	NaN	0.000000	0.001569	0.001727	28.0815	0.103539	0.001966	52.6602	-89.8556	-170.544	0.005046	0.705429	-0.305938	-0.307216	0.011217	52.6602	-0.306097	-5797.47	-1.934816E-6	NaN
495	1.000000	0.714734	7.3699e+06	-52339.1	1005.82	-29749.6	0.000000	0.000000	6.715024	-0.055229	NaN	0.000000	0.001559	0.001711	28.0813	0.038199	0.001923	19.8667	-93.1755	-162.891	0.000533	0.713401	-0.297912	-0.299245	-0.055229	19.8667	-0.295827	-4077.86	1.354365E-5	NaN
495	1.000000	0.722709	7.3699e+06	-52339.1	1005.82	-29749.6	0.000000	0.000000	6.722999	-0.042966	NaN	0.000000	0.001562	0.001725	28.0813	0.126577	0.002119	59.732	166.642	-164.808	-0.057325	0.721410	-0.289937	-0.291235	-0.042966	59.732	-0.289397	-3267.92	1.314782E-5	NaN
495	1.000000	0.730729	7.3699e+06	-52339.1	1005.82	-29749.6	0.000000	0.000000	6.731019	-0.062552	NaN	0.000000	0.001579	0.001702	28.0813	0.093457	0.002045	45.6942	-58.2838	-164.211	-0.051230	0.729415	-0.281916	-0.283230	-0.062552	45.6942	-0.280889	-2434.34	2.569583E-5	NaN
495	1.000000	0.738749	7.3699e+06	-52339.1	1005.82	-29749.6	0.000000	0.000000	6.739043	0.038771	NaN	0.000000	0.001577	0.001688	28.0812	0.047037	0.002128	22.1058	-39.5171	-163.24	0.035287	0.737491	-0.273896	-0.275154	0.038771	22.1058	-0.275212	-1998.06	-1.940420E-5	NaN
495	1.000000	0.746746	7.3699e+06	-52339.1	1005.82	-29749.6	0.000000	0.000000	6.747036	-0.047841	NaN	0.000000	0.001565	0.001725	28.082	0.131273	0.001955	67.1472	-121.529	-167.432	-0.020969	0.745434	-0.265900	-0.267211	-0.047841	67.1472	-0.265365	-1415.67	3.379419E-5	NaN
495	1.000000	0.754755	7.3699e+06	-52339.1	1005.82	-29749.6	0.000000	0.000000	6.755044	-0.082271	NaN	0.000000	0.001533	0.001751	28.0812	0.070244	0.002097	33.5032	118.016	-166.444	-0.086300	0.753428	-0.257891	-0.259218	-0.082271	33.5032	-0.256049	-1019.19	8.072166E-5	NaN
495	1.000000	0.762771	7.3699e+06	-52339.1	1005.82	-29749.6	0.000000	0.000000	6.763061	-0.065795	NaN	0.000000	0.001567	0.001735	28.0813	0.059736	0.001972	30.2878	-165.056	-168.496	-0.012856	0.761429	-0.249874	-0.251216	-0.065795	30.2878	-0.248245	-772.329	8.519083E-5	NaN
495	1.000000	0.770739	7.3699e+06	-52339.1	1005.82	-29749.6	0.000000	0.000000	6.771031	-0.022519	NaN	0.000000	0.001568	0.001721	28.0811	0.012399	0.001896	6.540065	142.363	-166.164	-0.067585	0.769471	-0.241906	-0.243174	-0.022519	6.540065	-0.239324	-561.029	4.013787E-5	NaN
495	1.000000	0.778764	7.3699e+06	-52339.1	1005.82	-29749.6	0.000000	0.000000	6.779056	-0.029891	NaN	0.000000	0.001556	0.001714	28.0811	0.100330	0.001952	51.3897	120.973	-165.069	-0.028394	0.777442	-0.233881	-0.235203	-0.029891	51.3897	-0.233445	-453.739	6.587743E-5	NaN
495	1.000000	0.786783	7.3699e+06	-52339.1	1005.82	-29749.6	0.000000	0.000000	6.787074	-0.041593	NaN	0.000000	0.001567	0.001729	28.0815	0.086861	0.001982	43.8309	16.727	-168.453	-0.077276	0.785431	-0.225862	-0.227214	-0.041593	43.8309	-0.225151	-335.526	0.000124	NaN
495	1.000000	0.794780	7.3699e+06	-52339.1	1005.82	-29749.6	0.000000	0.000000	6.795072	-0.027249	NaN	0.000000	0.001580	0.001691	28.0813	0.064064	0.001974	32.4458	-154.431	-166.332	-0.035335	0.793472	-0.217865	-0.219173	-0.027249	32.4458	-0.217235	-250.848	0.000109	NaN
495	1.000000	0.802789	7.3699e+06	-52339.1	1005.82	-29749.6	0.000000	0.000000	6.803078	-0.098936	NaN	0.000000	0.001574	0.001717	28.0815	0.068315	0.002083	32.7988	148.814	-167.297	-0.013740	0.801473	-0.209856	-0.211173	-0.098936	32.7988	-0.207594	-175.301	0.000564	NaN
495	1.000000	0.810762	7.3699e+06	-52339.1	1005.82	-29749.6	0.000000	0.000000	6.811054	-0.010167	NaN	0.000000	0.001596	0.001749	28.0812	0.084663	0.002025	41.8043	-8.178884	-163.567	-0.005416	0.809434	-0.201884	-0.203212	-0.010167	41.8043	-0.201701	-140.482	7.237378E-5	NaN
495	1.000000	0.818762	7.3699e+06	-52339.1	1005.82	-29749.6	0.000000	0.000000	6.819055	0.001262	NaN	0.000000	0.001603	0.001730	28.0813	0.075712	0.002005	37.7637	129.149	-165.143	-0.002985	0.817441	-0.193883	-0.195205	0.001262	37.7637	-0.193908	-104.495	-1.208126E-5	NaN
495	1.000000	0.826755	7.3699e+06	-52339.1	1005.82	-29749.6	0.000000	0.000000	6.827046	-0.045170	NaN	0.000000	0.001593	0.001739	28.0815	0.098180	0.002019	48.6255	-178.289	-169.578	-0.045309	0.825449	-0.185890	-0.187196	-0.045170	48.6255	-0.185193	-74.7125	0.000605	NaN
495	1.000000	0.834780	7.3699e+06	-52339.1	1005.82	-29749.6	0.000000	0.000000	6.835069	-0.060731	NaN	0.000000	0.001612	0.001709	28.08	0.138354	0.002091	66.162	88.0838	-162.407	0.043511	0.833463	-0.177866	-0.179182	-0.060731	66.162	-0.177177	-54.6151	0.001112	NaN
495	1.000000	0.842791	7.3699e+06	-52339.1	1005.82	-29749.6	0.000000	0.000000	6.843080	-0.069058	NaN	0.000000	0.001547	0.001713	28.0805	0.006873	0.001949	3.525839	-124.637	-164.869	-0.083665	0.841469	-0.169855	-0.171177	-0.069058	3.525839	-0.155165	-22.4674	0.003074	NaN
495	1.000000	0.850790	7.3699e+06	-52339.1	1005.82	-29749.6	0.000000	0.000000	6.851080	-0.044089	NaN	0.000000	0.001575	0.001706	28.0802	0.087424	0.001994	43.8423	-151.98	-169.094	-0.056872	0.849474	-0.161856	-0.163171	-0.044089	43.8423	-0.161102	-28.6771	0.001537	NaN
495	1.000000	0.858819	7.3699e+06	-52339.1	1005.82	-29749.6	0.000000	0.000000	6.859109	-0.068773	NaN	0.000000	0.001575	0.001724	28.0802	0.103508	0.001950	53.0689	150.321	-167.495	-0.089567	0.857475	-0.153826	-0.155171	-0.068773	53.0689	-0.152854	-20.4108	0.003369	NaN
495	1.000000	0.866798	7.3699e+06	-52339.1	1005.82	-29749.6	0.000000	0.000000	6.867091	0.008362	NaN	0.000000	0.001549	0.001725	28.0803	0.088145	0.002059	42.8051	-66.8895	-168.436	0.045223	0.865491	-0.145847	-0.147155	0.008362	42.8051	-0.145994	-15.2942	-0.000547	NaN
495	1.000000	0.874820	7.3699e+06	-52339.1	1005.82	-29749.6	0.000000	0.000000	6.875112	-0.006209	NaN	0.000000	0.001584	0.001727	28.0801	0.087854	0.001990	44.1548	28.3499	-167.027	0.001203	0.873482	-0.137826	-0.139163	-0.006209	44.1548	-0.137720	-10.7149	0.000580	NaN
495	1.000000	0.882795	7.3699e+06	-52339.1	1005.82	-29749.6	0.000000	0.000000	6.883086	-0.042289	NaN	0.000000	0.001573	0.001724	28.0803	0.056571	0.001930	29.3053	-66.4915	-165.016	-0.055525	0.881499	-0.129850	-0.131146	-0.042289	29.3053	-0.128768	-7.211404	0.005864	NaN
495	1.000000	0.890790	7.3699e+06	-52339.1	1005.82	-29749.6	0.000000	0.000000	6.891082	-0.008301	NaN	0.000000	0.001560	0.001729	28.0802	0.028353	0.001983	14.2961	28.3346	-169.749	0.036157	0.889488	-0.121855	-0.123157	-0.008301	14.2961	-0.121420	-5.160085	0.001609	NaN
495	1.000000	0.898800	7.3699e+06	-52339.1	1005.82	-29749.6	0.000000	0.000000	6.899091	-0.024289	NaN	0.000000	0.001560	0.001732	28.0804	0.075275	0.002083	36.1415	126.75	-165.335	-0.041499	0.897515	-0.113846	-0.115130	-0.024289	36.1415	-0.113342	-3.530144	0.006880	NaN
495	1.000000	0.906785	7.3699e+06	-52339.1	1005.82	-29749.6	0.000000	0.000000	6.907073	-0.108419	NaN	0.000000	0.001614	0.001658	28.08	0.096666	0.002091	46.2252	-164.253	-162.448	0.044989	0.905422	-0.105860	-0.107224	-0.108419	46.2252	-0.104101	-2.247539	0.048239	NaN
495	1.000000	0.914842	7.3699e+06	-52339.1	1005.82	-29749.6	0.000000	0.000000	6.915136	0.039913	NaN	0.000000	0.001531	0.001685	28.0799	0.071931	0.002080	34.5901	-4.616912	-167.349	-0.048987	0.913546	-0.097803	-0.099099	0.039913	34.5901	-0.098669	-1.706698	-0.023386	NaN
495	1.000000	0.922824	7.3699e+06	-52339.1	1005.82	-29749.6	0.000000	0.000000	6.923115	-0.023546	NaN	0.000000	0.001551	0.001705	28.0801	0.030541	0.001794	17.0227	-62.981	-166.902	0.017480	0.921510	-0.089822	-0.091135	-0.023546	17.0227	-0.088784	-1.012009	0.023266	NaN
495	1.000000	0.930790	7.3699e+06	-52339.1	1005.82	-29749.6	0.000000	0.000000	6.931080	-0.055524	NaN	0.000000	0.001568	0.001721	28.0798	0.118627	0.002087	56.8295	117.175	-166.749	-0.102796	0.929522	-0.081855	-0.083124	-0.055524	56.8295	-0.081123	-0.660162	0.084106	NaN
495	1.000000	0.938820	7.3699e+06	-52339.1	1005.82	-29749.6	0.000000	0.000000	6.939109	-0.068591	NaN	0.000000	0.001581	0.001723	28.0806	0.060250	0.001959	30.7551	100.088	-167.564	-0.060622	0.937474	-0.073826	-0.075172	-0.068591	30.7551	-0.072153	-0.389166	0.176250	NaN
495	1.000000	0.946820	7.3699e+06	-52339.1	1005.82	-29749.6	0.000000	0.000000	6.947111	-0.035749	NaN	0.000000	0.001544	0.001711	28.0802	0.079498	0.001969	40.372	-87.2193	-167.317	-0.047251	0.945515	-0.065825	-0.067130	-0.035749	40.372	-0.065161	-0.251794	0.141978	NaN
495	1.000000	0.954822	7.3699e+06	-52339.1	1005.82	-29749.6	0.000000	0.000000	6.955114	-0.022291	NaN	0.000000	0.001556	0.001707	28.0803	0.027908	0.001991	14.015	141.042	-165.895	-0.090568	0.953478	-0.057823	-0.059168	-0.022291	14.015	-0.056630	-0.143818	0.154995	NaN
495	1.000000	0.962818	7.3699e+06	-52339.1	1005.82	-29749.6	0.000000	0.000000	6.963110	9.333021E-5	NaN	0.000000	0.001583	0.001734	28.0802	0.060546	0.002039	29.695	-29.9846	-165.563	-0.026208	0.961515	-0.049827	-0.051131	9.333021E-5	29.695	-0.049830	-0.090175	-0.001035	NaN
495	1.000000	0.970856	7.3699e+06	-52339.1	1005.82	-29749.6	0.000000	0.000000	6.971148	-0.008922	NaN	0.000000	0.001547	0.001742	28.0817	0.094902	0.001898	50.007	23.6071	-167.496	-0.059410	0.969525	-0.041790	-0.043120	-0.008922	50.007	-0.041656	-0.050789	0.175663	NaN
495	1.000000	0.978847	7.3699e+06	-52339.1	1005.82	-29749.6	0.000000	0.000000	6.979140	0.002604	NaN	0.000000	0.001539	0.001727	28.0816	0.014060	0.001972	7.131164	-135.412	-165.994	-0.020290	0.977484	-0.033798	-0.035161	0.002604	7.131164	-0.034072	-0.030079	-0.086568	NaN
495	1.000000	0.986846	7.3699e+06	-52339.1	1005.82	-29749.6	0.000000	0.000000	6.987135	-0.071531	NaN	0.000000	0.001557	0.001723	28.0814	0.078418	0.002061	38.0565	-88.2135	-165.712	-0.055152	0.985542	-0.025799	-0.027103	-0.071531	38.0565	-0.024390	-0.016264	4.398037	NaN
495	1.000000	0.994863	7.3699e+06	-52339.1	1005.82	-29749.6	0.000000	0.000000	6.995154	-0.048586	NaN	0.000000	0.001560	0.001701	28.0817	0.054467	0.002011	27.0882	146.001	-168.944	-0.091058	0.993516	-0.017782	-0.019129	-0.048586	27.0882	-0.016437	-0.010154	4.784796	NaN
495	1.000000	1.002838	7.3699e+06	-52339.1	1005.82	-29749.6	0.000000	0.000000	7.003127	-0.079376	NaN	0.000000	0.001572	0.001701	28.0813	0.051896	0.002006	25.8739	-155.546	-166.708	-0.036319	1.001502	-0.009807	-0.011143	-0.079376	25.8739	-0.007507	-0.004941	16.0635	NaN
495	1.000000	1.010877	7.3699e+06	-52339.1	1005.82	-29749.6	0.000000	0.000000	7.011167	-0.054421	NaN	0.000000	0.001561	0.001678	28.0816	0.021650	0.001972	10.9808	-143.204	-166.09	-0.039397	1.009498	-0.001769	-0.003148	-0.054421	10.9808	0.001949	0.001513	-35.964	257.903
495	1.000000	1.018841	7.3699e+06	-52339.1	1005.82	-29749.6	0.000000	0.000000	7.019132	-0.040382	NaN	0.000000	0.001551	0.001684	28.0815	0.137311	0.002041	67.2758	106.765	-164.742	-0.051639	1.017563	0.006196	0.004917	-0.040382	67.2758	0.006646	0.005686	-7.101791	815.12
495	1.000000	1.026747	7.3699e+06	-52339.1	1005.82	-29749.6	0.000000	0.000000	7.027332	7.105968	NaN	0.000000	0.001548	0.001707	28.0815	7.218354	0.001610	4482.11	10.2792	-174.536	5.628276	1.025480	0.014102	0.012835	7.105968	4482.11	0.012913	0.012602	563.895	36479
495	2.000000	1.029537	7.3699e+06	-52339.1	1005.82	-29749.6	0.000000	0.000000	7.030281	10.9751	NaN	0.000000	0.001549	0.001730	28.082	9.808029	0.001588	6175.33	4.654939	-175.401	10.163	1.029207	0.016892	0.016562	10.9751	6175.33	0.015559	0.016038	684.31	44550.9
495	2.000000	1.031561	7.3699e+06	-52339.1	1005.82	-29749.6	0.000000	0.000000	7.032301	10.8779	NaN	0.000000	0.001535	0.001685	28.0814	11.8598	0.001886	6288.87	12.7769	-176.403	12.6305	1.031253	0.018915	0.018607	10.8779	6288.87	0.017618	0.018937	574.435	41753.5
495	2.000000	1.033471	7.3699e+06	-52339.1	1005.82	-29749.6	0.000000	0.000000	7.034400	15.4765	NaN	0.000000	0.001544	0.001714	28.0814	13.7253	0.001753	7829.3	5.687831	-176.718	14.0071	1.033232	0.020826	0.020586	15.4765	7829.3	0.019343	0.021521	719.133	48760.2
495	2.000000	1.035521	7.3699e+06	-52339.1	1005.82	-29749.6	0.000000	0.000000	7.036395	14.1516	NaN	0.000000	0.001564	0.001700	28.0812	14.7674	0.001813	8146.28	12.05	179.745	15.4829	1.035187	0.022876	0.022541	14.1516	8146.28	0.021573	0.025074	564.386	47002.3
495	2.000000	1.037530	7.3699e+06	-52339.1	1005.82	-29749.6	0.000000	0.000000	7.038525	17.0917	NaN	0.000000	0.001554	0.001711	28.0814	16.2148	0.001699	9541.02	0.808759	-171.291	16.685	1.037181	0.024884	0.024536	17.0917	9541.02	0.023541	0.028414	601.522	51713.2
495	2.000000	1.039424	7.3699e+06	-52339.1	1005.82	-29749.6	0.000000	0.000000	7.040671	23.2059	NaN	0.000000	0.001560	0.001694	28.0819	18.7201	0.001797	10419.9	3.425342	-176.479	20.6874	1.039122	0.026779	0.026477	23.2059	10419.9	0.025109	0.031214	743.451	53884.7
495	2.000000	1.041453	7.3699e+06	-52339.1	1005.82	-29749.6	0.000000	0.000000	7.042739	24.1455	NaN	0.000000	0.001592	0.001735	28.0812	20.4403	0.001833	11148.8	6.230539	-179.705	22.8757	1.041146	0.028808	0.028501	24.1455	11148.8	0.027184	0.035108	687.743	54362.2
495	2.000000	1.043473	7.3699e+06	-52339.1	1005.82	-29749.6	0.000000	0.000000	7.044655	21.6303	NaN	0.000000	0.001627	0.001747	28.0816	21.1311	0.001791	11800.8	4.996176	-177.874	20.7627	1.043255	0.030827	0.030609	21.6303	11800.8	0.029453	0.039617	545.983	54167.9
495	2.000000	1.045476	7.3699e+06	-52339.1	1005.82	-29749.6	0.000000	0.000000	7.046868	26.727	NaN	0.000000	0.001649	0.001738	28.0812	23.1904	0.001850	12535.8	7.234506	-179.128	27.0972	1.045168	0.032831	0.032523	26.727	12535.8	0.031232	0.043335	616.747	55017.9
495	2.000000	1.047499	7.3699e+06	-52339.1	1005.82	-29749.6	0.000000	0.000000	7.049203	34.3208	NaN	0.000000	0.001594	0.001736	28.0799	25.0707	0.001823	13752.6	10.2831	178.913	35.6673	1.047161	0.034853	0.034516	34.3208	13752.6	0.032982	0.047151	727.89	57864.6
495	2.000000	1.049459	7.3699e+06	-52339.1	1005.82	-29749.6	0.000000	0.000000	7.051302	37.7182	NaN	0.000000	0.001630	0.001737	28.081	26.7147	0.001789	14932.2	6.891420	178.594	38.2422	1.049105	0.036813	0.036459	37.7182	14932.2	0.034919	0.051557	731.584	60083.1
495	2.000000	1.051460	7.3699e+06	-52339.1	1005.82	-29749.6	0.000000	0.000000	7.053500	42.4841	NaN	0.000000	0.001612	0.001727	28.08	29.177	0.001732	16841.9	10.0243	174.745	42.9433	1.051159	0.038815	0.038514	42.4841	16841.9	0.036923	0.056317	754.368	64840
495	2.000000	1.053487	7.3699e+06	-52339.1	1005.82	-29749.6	0.000000	0.000000	7.055807	49.3174	NaN	0.000000	0.001607	0.001691	28.0805	30.6561	0.001771	17313.6	9.511413	174.654	50.0866	1.053088	0.040841	0.040442	49.3174	17313.6	0.038705	0.060724	812.156	64191.8
495	2.000000	1.055487	7.3699e+06	-52339.1	1005.82	-29749.6	0.000000	0.000000	7.057941	52.56	NaN	0.000000	0.001621	0.001703	28.08	32.3229	0.001763	18330.5	4.990977	178.782	54.8355	1.055111	0.042842	0.042465	52.56	18330.5	0.040691	0.065827	798.461	65275
495	2.000000	1.057422	7.3699e+06	-52339.1	1005.82	-29749.6	0.000000	0.000000	7.060153	59.3093	NaN	0.000000	0.001621	0.001683	28.0802	34.9098	0.001817	19218.1	6.209311	177.21	55.8289	1.057115	0.044776	0.044470	59.3093	19218.1	0.042462	0.070545	840.728	66107.5
495	2.000000	1.059492	7.3699e+06	-52339.1	1005.82	-29749.6	0.000000	0.000000	7.062412	63.8997	NaN	0.000000	0.001639	0.001688	28.081	36.5446	0.001774	20598.5	5.899557	177.851	65.2256	1.059102	0.046847	0.046457	63.8997	20598.5	0.044520	0.076230	838.245	68162.5
495	2.000000	1.061512	7.3699e+06	-52339.1	1005.82	-29749.6	0.000000	0.000000	7.064493	65.3651	NaN	0.000000	0.001656	0.001704	28.08	38.7989	0.001950	19899.4	6.925231	177.951	68.8219	1.061089	0.048867	0.048444	65.3651	19899.4	0.046403	0.081621	800.832	63637.1
495	2.000000	1.063394	7.3699e+06	-52339.1	1005.82	-29749.6	0.000000	0.000000	7.066963	79.6503	NaN	0.000000	0.001609	0.001733	28.0804	40.5205	0.001713	23656.5	7.291406	173.791	77.799	1.063048	0.050749	0.050403	79.6503	23656.5	0.048224	0.087002	915.499	73275.7
495	2.000000	1.065423	7.3699e+06	-52339.1	1005.82	-29749.6	0.000000	0.000000	7.069151	83.5325	NaN	0.000000	0.001621	0.001699	28.0799	41.4557	0.001637	25324.6	-1.071432	-178.777	82.4416	1.065030	0.052778	0.052384	83.5325	25324.6	0.050304	0.093354	894.79	75726.8
495	2.000000	1.067490	7.3699e+06	-52339.1	1005.82	-29749.6	0.000000	0.000000	7.071573	92.1717	NaN	0.000000	0.001662	0.001724	28.08	45.1067	0.001822	24754.4	6.244676	176.521	92.7986	1.067089	0.054845	0.054444	92.1717	24754.4	0.052052	0.098862	932.324	71930
495	2.000000	1.069389	7.3699e+06	-52339.1	1005.82	-29749.6	0.000000	0.000000	7.073917	102.998	NaN	0.000000	0.001633	0.001734	28.0805	46.3865	0.001798	25800.1	6.515745	175.098	101.723	1.068988	0.056744	0.056343	102.998	25800.1	0.053749	0.104354	987.008	72969.5
495	2.000000	1.071384	7.3699e+06	-52339.1	1005.82	-29749.6	0.000000	0.000000	7.075875	102.077	NaN	0.000000	0.001622	0.001752	28.0804	50.3715	0.001854	27174.5	8.173540	171.317	99.5092	1.071146	0.058739	0.058500	102.077	27174.5	0.055921	0.111591	914.739	74322.5
495	2.000000	1.073410	7.3699e+06	-52339.1	1005.82	-29749.6	0.000000	0.000000	7.078386	113.88	NaN	0.000000	0.001626	0.001768	28.0806	49.9549	0.001755	28470	5.942651	174.637	113.729	1.073092	0.060764	0.060447	113.88	28470	0.057764	0.117914	965.787	75749.1
495	2.000000	1.075396	7.3699e+06	-52339.1	1005.82	-29749.6	0.000000	0.000000	7.080395	114.447	NaN	0.000000	0.001650	0.001730	28.0801	52.79	0.001738	30374.1	1.360922	177.225	113.387	1.075210	0.062751	0.062565	114.447	30374.1	0.059925	0.125539	911.647	78322.6
495	2.000000	1.077556	7.3699e+06	-52339.1	1005.82	-29749.6	0.000000	0.000000	7.083010	125.5	NaN	0.000000	0.001649	0.001734	28.08	55.3165	0.001929	28672.5	5.604663	175.705	134.091	1.077161	0.064911	0.064515	125.5	28672.5	0.061628	0.131712	952.835	72181.7
495	2.000000	1.079313	7.3699e+06	-52339.1	1005.82	-29749.6	0.000000	0.000000	7.085360	139.916	NaN	0.000000	0.001606	0.001729	28.0803	56.8721	0.001820	31250.4	4.552189	174.807	135.937	1.079010	0.066668	0.066364	139.916	31250.4	0.063310	0.137943	1014.3	76873.8
495	2.000000	1.081456	7.3699e+06	-52339.1	1005.82	-29749.6	0.000000	0.000000	7.087558	141.242	NaN	0.000000	0.001661	0.001761	28.0812	59.223	0.001902	31144.3	3.432651	176.356	146.339	1.081196	0.068811	0.068551	141.242	31144.3	0.065410	0.145918	967.953	74489.9
495	2.000000	1.083423	7.3699e+06	-52339.1	1005.82	-29749.6	0.000000	0.000000	7.090290	159.867	NaN	0.000000	0.001595	0.001730	28.0817	61.7678	0.001891	32666.1	9.843194	169.734	160.349	1.083045	0.070778	0.070400	159.867	32666.1	0.067107	0.152519	1048.17	76420.3
495	2.000000	1.085435	7.3699e+06	-52339.1	1005.82	-29749.6	0.000000	0.000000	7.092540	165.644	NaN	0.000000	0.001567	0.001762	28.0813	62.114	0.001743	35635.4	3.220979	174.654	166.228	1.085130	0.072790	0.072485	165.644	35635.4	0.069304	0.161267	1027.14	81074
495	2.000000	1.087516	7.3699e+06	-52339.1	1005.82	-29749.6	0.000000	0.000000	7.094998	174.804	NaN	0.000000	0.001557	0.001751	28.0813	65.701	0.001807	36367.1	6.188687	172.029	180.926	1.087135	0.074871	0.074489	174.804	36367.1	0.071266	0.169276	1032.66	80757.8
495	2.000000	1.089438	7.3699e+06	-52339.1	1005.82	-29749.6	0.000000	0.000000	7.097607	191.518	NaN	0.000000	0.001542	0.001754	28.0815	66.3066	0.001890	35075.2	5.970918	173.913	194.874	1.089050	0.076793	0.076405	191.518	35075.2	0.072698	0.175235	1092.92	76553.1
495	2.000000	1.091354	7.3699e+06	-52339.1	1005.82	-29749.6	0.000000	0.000000	7.100020	203.599	NaN	0.000000	0.001567	0.001761	28.0813	68.4942	0.001716	39924.5	7.057076	170.086	202.876	1.091031	0.078709	0.078386	203.599	39924.5	0.074884	0.184523	1103.38	84915.6
495	2.000000	1.093384	7.3699e+06	-52339.1	1005.82	-29749.6	0.000000	0.000000	7.102452	213.363	NaN	0.000000	0.001562	0.001753	28.0816	69.4082	0.001824	38043.6	6.847034	170.933	212.524	1.092983	0.080739	0.080338	213.363	38043.6	0.076533	0.191673	1113.16	79391.4
495	2.000000	1.095344	7.3699e+06	-52339.1	1005.82	-29749.6	0.000000	0.000000	7.104649	219.136	NaN	0.000000	0.001596	0.001746	28.0814	71.4051	0.001801	39641.9	3.411271	173.835	217.695	1.095076	0.082698	0.082431	219.136	39641.9	0.078553	0.200608	1092.36	80863.6
495	2.000000	1.097412	7.3699e+06	-52339.1	1005.82	-29749.6	0.000000	0.000000	7.107354	234.639	NaN	0.000000	0.001592	0.001726	28.0816	73.7171	0.001830	40281.7	6.669049	171.211	233.866	1.097034	0.084766	0.084389	234.639	40281.7	0.080397	0.208936	1123.02	80514.4
495	2.000000	1.099334	7.3699e+06	-52339.1	1005.82	-29749.6	0.000000	0.000000	7.109799	247.349	NaN	0.000000	0.001602	0.001745	28.0814	75.6643	0.001812	41767.7	4.078070	172.567	244.912	1.099025	0.086688	0.086380	247.349	41767.7	0.082247	0.217444	1137.53	81835.3
495	2.000000	1.101319	7.3699e+06	-52339.1	1005.82	-29749.6	0.000000	0.000000	7.112208	257.652	NaN	0.000000	0.001608	0.001775	28.0814	77.3807	0.001821	42484.6	0.533081	176.116	253.187	1.101072	0.088673	0.088427	257.652	42484.6	0.084125	0.226245	1138.81	81604.7
495	2.000000	1.103436	7.3699e+06	-52339.1	1005.82	-29749.6	0.000000	0.000000	7.114845	270.296	NaN	0.000000	0.001612	0.001766	28.0819	79.6923	0.001695	47023.9	5.229411	170.77	275.22	1.103022	0.090791	0.090377	270.296	47023.9	0.086480	0.237512	1138.03	88155.4
495	2.000000	1.105418	7.3699e+06	-52339.1	1005.82	-29749.6	0.000000	0.000000	7.117732	292.319	NaN	0.000000	0.001615	0.001730	28.0816	83.3254	0.001804	46183.1	10.0678	166.925	293.575	1.104932	0.092772	0.092287	292.319	46183.1	0.088025	0.245044	1192.92	85238.2
495	2.000000	1.107310	7.3699e+06	-52339.1	1005.82	-29749.6	0.000000	0.000000	7.119989	301.199	NaN	0.000000	0.001597	0.001779	28.0816	83.6775	0.001862	44932.2	1.312858	175.224	295.19	1.107067	0.094664	0.094421	301.199	44932.2	0.089637	0.253015	1190.44	81612.7
495	2.000000	1.109357	7.3699e+06	-52339.1	1005.82	-29749.6	0.000000	0.000000	7.122572	314.214	NaN	0.000000	0.001590	0.001745	28.0814	86.4603	0.001853	46648.6	6.968159	168.989	312.035	1.109029	0.096712	0.096383	314.214	46648.6	0.091660	0.263192	1193.86	83076
495	2.000000	1.111255	7.3699e+06	-52339.1	1005.82	-29749.6	0.000000	0.000000	7.124706	319.936	NaN	0.000000	0.001604	0.001710	28.0816	87.4031	0.001703	51328.7	0.726215	174.207	314.454	1.111119	0.098610	0.098474	319.936	51328.7	0.093935	0.274862	1163.99	89449.2
495	2.000000	1.113282	7.3699e+06	-52339.1	1005.82	-29749.6	0.000000	0.000000	7.128108	353.385	NaN	0.000000	0.001619	0.001678	28.0815	89.1808	0.001728	51595.6	8.712786	166.755	348.393	1.112874	0.100637	0.100229	353.385	51595.6	0.095500	0.283022	1248.61	88608.5
495	2.000000	1.115289	7.3699e+06	-52339.1	1005.82	-29749.6	0.000000	0.000000	7.130666	366.786	NaN	0.000000	0.001623	0.001719	28.0805	92.3797	0.001788	51680.4	7.250978	168.041	362.308	1.115008	0.102643	0.102363	366.786	51680.4	0.097321	0.292661	1253.28	87280.4
495	2.000000	1.117322	7.3699e+06	-52339.1	1005.82	-29749.6	0.000000	0.000000	7.133114	376.862	NaN	0.000000	0.001633	0.001680	28.0804	94.2278	0.001819	51805.8	5.076945	170.518	372.799	1.117068	0.104676	0.104422	376.862	51805.8	0.099221	0.302880	1244.26	86003.6
495	2.000000	1.119332	7.3699e+06	-52339.1	1005.82	-29749.6	0.000000	0.000000	7.135805	393.424	NaN	0.000000	0.001668	0.001664	28.0804	95.6505	0.001770	54026.1	3.552384	171.412	391.927	1.118986	0.106687	0.106341	393.424	54026.1	0.101225	0.313839	1253.59	88109.6
495	2.000000	1.121355	7.3699e+06	-52339.1	1005.82	-29749.6	0.000000	0.000000	7.138700	414.624	NaN	0.000000	0.001654	0.001694	28.0803	98.0934	0.001817	53982.8	2.005430	173.361	412.671	1.121040	0.108710	0.108394	414.624	53982.8	0.102949	0.323411	1282.03	86726.4
495	2.000000	1.123261	7.3699e+06	-52339.1	1005.82	-29749.6	0.000000	0.000000	7.141546	437.49	NaN	0.000000	0.001652	0.001661	28.0803	98.922	0.001716	57655.8	3.495316	170.832	432.131	1.122976	0.110615	0.110331	437.49	57655.8	0.104924	0.334541	1307.73	91073.3
495	2.000000	1.125304	7.3699e+06	-52339.1	1005.82	-29749.6	0.000000	0.000000	7.143881	444.572	NaN	0.000000	0.001623	0.001710	28.0804	102.511	0.001767	58010.8	7.790173	167.025	443.102	1.125004	0.112659	0.112359	444.572	58010.8	0.106911	0.345916	1285.2	90115
495	2.000000	1.126295	7.3699e+06	-52339.1	1005.82	-29749.6	0.000000	0.000000	7.145200	452.554	NaN	0.000000	0.001643	0.001687	28.0802	102.606	0.001790	57337.7	4.915994	169.532	448.441	1.126083	0.113649	0.113438	452.554	57337.7	0.107730	0.350656	1290.59	88465.2