File: remote_trans/data/nanoindenter/0828-1/data/Data_2025-08-06,11h17m57s/2025-07-22_16-23-58_1_20.txt
2025-07-22, 16:23:58, 1
Index	Phase	Displacement	Time	Pos X	Pos Y	Pos Z	Rot A	Rot B	Piezo Z	Force A	Force B	Gripper	Voltage A	Voltage B	Temperature	Amplitude force	Amplitude pos	Stiffness	Phase shift	Phase excitation	Force A raw	Displacement raw	HMax	HMax raw	Real Force	Real Stiffness	Contact Depth	Area	Hardness	Reduced Mod.
[#]	[#]	[um]	[s]	[um]	[um]	[um]	[m°]	[m°]	[um]	[uN]	[uN]	[V]	[V]	[V]	[°C]	[uN]	[um]	[N/m]	[°]	[°]	[uN]	[um]	[um]	[um]	[uN]	[N/m]	[um]	[um^2]	[MPa]	[MPa]
20	1.000000	0.002869	7.36524e+06	-39639.1	955.818	-29793.8	0.000000	0.000000	6.002817	0.023153	NaN	0.000000	0.001628	0.001671	28.0841	0.071819	0.000965	74.4611	-30.1408	-168.379	-0.010901	0.001696	-1.105025	-1.106198	0.023153	74.4611	-1.105259	-5.897294E+14	-3.926094E-17	NaN
20	1.000000	0.012951	7.36524e+06	-39639.1	955.818	-29793.8	0.000000	0.000000	6.012896	-0.040550	NaN	0.000000	0.001617	0.001697	28.0839	0.203325	0.001196	169.943	137.491	16.3774	0.048752	0.011464	-1.094943	-1.096431	-0.040550	169.943	-1.094764	-4.263647E+14	9.510703E-17	NaN
20	1.000000	0.022837	7.36524e+06	-39639.1	955.818	-29793.8	0.000000	0.000000	6.022785	0.025069	NaN	0.000000	0.001678	0.001691	28.121	0.020277	0.001629	12.4507	136.459	-163.294	0.003636	0.021549	-1.085057	-1.086346	0.025069	12.4507	-1.086568	-3.309190E+14	-7.575719E-17	NaN
20	1.000000	0.032839	7.36524e+06	-39639.1	955.819	-29793.8	0.000000	0.000000	6.032787	0.027865	NaN	0.000000	0.001643	0.001709	28.1213	0.027590	0.001969	14.0095	-11.1239	14.012	0.015482	0.031456	-1.075056	-1.076439	0.027865	14.0095	-1.076547	-2.427426E+14	-1.147918E-16	NaN
20	1.000000	0.042830	7.36524e+06	-39639.1	955.819	-29793.8	0.000000	0.000000	6.042777	-0.001531	NaN	0.000000	0.001645	0.001673	28.0835	0.085266	0.001932	44.1301	142.733	-164.638	-0.014943	0.041492	-1.065065	-1.066403	-0.001531	44.1301	-1.065039	-1.700324E+14	9.004728E-18	NaN
20	1.000000	0.052815	7.36524e+06	-39639.1	955.818	-29793.8	0.000000	0.000000	6.052760	-0.038380	NaN	0.000000	0.001639	0.001697	28.0841	0.048725	0.002075	23.4799	-9.468477	15.0297	-0.075939	0.051468	-1.055080	-1.056427	-0.038380	23.4799	-1.053854	-1.202869E+14	3.190712E-16	NaN
20	1.000000	0.062811	7.36524e+06	-39639.1	955.817	-29793.8	0.000000	0.000000	6.062758	0.005999	NaN	0.000000	0.001624	0.001668	28.1216	0.022442	0.001936	11.5921	17.2911	-168.49	0.038006	0.061495	-1.045084	-1.046400	0.005999	11.5921	-1.045472	-9.279816E+13	-6.464897E-17	NaN
20	1.000000	0.072838	7.36524e+06	-39639.1	955.818	-29793.8	0.000000	0.000000	6.072781	-0.080201	NaN	0.000000	0.001662	0.001647	28.1218	0.049223	0.002009	24.5061	-178.78	15.2965	-0.029153	0.071495	-1.035057	-1.036400	-0.080201	24.5061	-1.032602	-6.229933E+13	1.287352E-15	NaN
20	1.000000	0.082822	7.36524e+06	-39639.1	955.819	-29793.8	0.000000	0.000000	6.082771	0.052259	NaN	0.000000	0.001570	0.001704	28.085	0.089855	0.002128	42.2203	-153.183	-167.304	0.050562	0.081491	-1.025073	-1.026404	0.052259	42.2203	-1.026001	-5.078018E+13	-1.029120E-15	NaN
20	1.000000	0.092799	7.36524e+06	-39639.1	955.818	-29793.8	0.000000	0.000000	6.092746	-0.002755	NaN	0.000000	0.001591	0.001664	28.0853	0.065112	0.002066	31.5221	-1.119572	14.3236	-0.039444	0.091501	-1.015096	-1.016394	-0.002755	31.5221	-1.015030	-3.614760E+13	7.621681E-17	NaN
20	1.000000	0.102820	7.36524e+06	-39639.1	955.818	-29793.8	0.000000	0.000000	6.102765	-0.030698	NaN	0.000000	0.001601	0.001676	28.1227	0.022404	0.002059	10.8837	-104.657	-165.45	0.071118	0.101509	-1.005075	-1.006386	-0.030698	10.8837	-1.002960	-2.486656E+13	1.234501E-15	NaN
20	1.000000	0.112848	7.36524e+06	-39639.1	955.818	-29793.8	0.000000	0.000000	6.112794	0.003617	NaN	0.000000	0.001594	0.001667	28.1233	0.154142	0.001989	77.4952	123.321	14.6025	0.071448	0.111538	-0.995047	-0.996357	0.003617	77.4952	-0.995082	-1.947842E+13	-1.857103E-16	NaN
20	1.000000	0.122843	7.36524e+06	-39639.1	955.819	-29793.8	0.000000	0.000000	6.122788	-0.034118	NaN	0.000000	0.001583	0.001628	28.0849	0.091351	0.002020	45.2167	163.836	-166.787	-0.087468	0.121540	-0.985052	-0.986355	-0.034118	45.2167	-0.984486	-1.402297E+13	2.432987E-15	NaN
20	1.000000	0.132837	7.36524e+06	-39639.1	955.818	-29793.8	0.000000	0.000000	6.132785	0.033623	NaN	0.000000	0.001567	0.001682	28.084	0.100370	0.001965	51.087	-95.0067	13.8388	0.040877	0.131458	-0.975058	-0.976437	0.033623	51.087	-0.975552	-1.062869E+13	-3.163418E-15	NaN
20	1.000000	0.142832	7.36524e+06	-39639.1	955.818	-29793.8	0.000000	0.000000	6.142780	0.035067	NaN	0.000000	0.001573	0.001673	28.1215	0.045323	0.001982	22.862	163.933	-161.774	-0.006581	0.141579	-0.965063	-0.966315	0.035067	22.862	-0.966214	-7.954828E+12	-4.408219E-15	NaN
20	1.000000	0.152838	7.36524e+06	-39639.1	955.819	-29793.8	0.000000	0.000000	6.152784	-0.013743	NaN	0.000000	0.001593	0.001650	28.1224	0.063128	0.002112	29.8937	38.1825	13.7344	-0.130172	0.151472	-0.955057	-0.956423	-0.013743	29.8937	-0.954712	-5.566335E+12	2.468893E-15	NaN
20	1.000000	0.162834	7.36524e+06	-39639.1	955.819	-29793.8	0.000000	0.000000	6.162780	-0.015982	NaN	0.000000	0.001576	0.001675	28.0848	0.093552	0.001907	49.054	132.546	-163.083	-0.025062	0.161526	-0.945061	-0.946369	-0.015982	49.054	-0.944816	-4.093659E+12	3.904062E-15	NaN
20	1.000000	0.172854	7.36524e+06	-39639.1	955.819	-29793.8	0.000000	0.000000	6.172800	-0.019769	NaN	0.000000	0.001591	0.001702	28.0838	0.086028	0.002084	41.2816	111.902	16.2175	-0.059661	0.171445	-0.935041	-0.936450	-0.019769	41.2816	-0.934681	-2.987955E+12	6.616114E-15	NaN
20	1.000000	0.182861	7.36524e+06	-39639.1	955.818	-29793.8	0.000000	0.000000	6.182808	0.002784	NaN	0.000000	0.001624	0.001713	28.1219	0.089471	0.001981	45.1552	-107.526	-164.298	-0.047636	0.181513	-0.925034	-0.926382	0.002784	45.1552	-0.925080	-2.217128E+12	-1.255801E-15	NaN
20	1.000000	0.192833	7.36524e+06	-39639.1	955.82	-29793.8	0.000000	0.000000	6.192780	0.005020	NaN	0.000000	0.001623	0.001720	28.1216	0.059053	0.001923	30.7139	101.572	11.3783	0.039577	0.191498	-0.915062	-0.916396	0.005020	30.7139	-0.915185	-1.629982E+12	-3.079788E-15	NaN
20	1.000000	0.202880	7.36524e+06	-39639.1	955.819	-29793.8	0.000000	0.000000	6.202826	-0.018897	NaN	0.000000	0.001611	0.001706	28.084	0.024277	0.001988	12.2116	99.0951	-167.093	-0.071947	0.201562	-0.905015	-0.906333	-0.018897	12.2116	-0.903854	-1.145885E+12	1.649103E-14	NaN
20	1.000000	0.212863	7.36524e+06	-39639.1	955.818	-29793.8	0.000000	0.000000	6.212812	0.076682	NaN	0.000000	0.001642	0.001686	28.0825	0.166381	0.002057	80.885	18.5314	14.725	0.041578	0.211510	-0.895032	-0.896385	0.076682	80.885	-0.895743	-8.903137E+11	-8.612868E-14	NaN
20	1.000000	0.222911	7.36524e+06	-39639.1	955.819	-29793.8	0.000000	0.000000	6.222857	-0.022172	NaN	0.000000	0.001626	0.001662	28.119	0.035468	0.001992	17.803	75.7598	-166.789	0.014485	0.221536	-0.884983	-0.886359	-0.022172	17.803	-0.884049	-6.186797E+11	3.583720E-14	NaN
20	1.000000	0.232910	7.36524e+06	-39639.1	955.818	-29793.8	0.000000	0.000000	6.232858	0.049754	NaN	0.000000	0.001582	0.001655	28.1211	0.072488	0.002037	35.5936	69.2989	14.531	0.067727	0.231533	-0.874985	-0.876362	0.049754	35.5936	-0.876034	-4.820182E+11	-1.032203E-13	NaN
20	1.000000	0.242909	7.36524e+06	-39639.1	955.818	-29793.8	0.000000	0.000000	6.242856	0.000292	NaN	0.000000	0.001590	0.001655	28.0842	0.046390	0.001996	23.2443	-174.883	-166.059	0.032055	0.241587	-0.864986	-0.866307	0.000292	23.2443	-0.864995	-3.417632E+11	-8.531785E-16	NaN
20	1.000000	0.252875	7.36524e+06	-39639.1	955.819	-29793.8	0.000000	0.000000	6.252821	-0.018306	NaN	0.000000	0.001583	0.001665	28.0828	0.110197	0.002013	54.7487	19.2292	13.4593	-0.003440	0.251561	-0.855020	-0.856334	-0.018306	54.7487	-0.854769	-2.484912E+11	7.366838E-14	NaN
20	1.000000	0.262901	7.36524e+06	-39639.1	955.818	-29793.8	0.000000	0.000000	6.262850	0.042291	NaN	0.000000	0.001605	0.001643	28.1201	0.046229	0.002034	22.7299	174.5	-165.51	0.011738	0.261575	-0.844993	-0.846320	0.042291	22.7299	-0.846389	-1.913521E+11	-2.210118E-13	NaN
20	1.000000	0.272906	7.36524e+06	-39639.1	955.819	-29793.8	0.000000	0.000000	6.272851	-0.029786	NaN	0.000000	0.001625	0.001641	28.1222	0.159979	0.001921	83.2628	-50.2672	11.6234	-0.047693	0.271527	-0.834989	-0.836368	-0.029786	83.2628	-0.834721	-1.329737E+11	2.239995E-13	NaN
20	1.000000	0.282900	7.36524e+06	-39639.1	955.818	-29793.8	0.000000	0.000000	6.282849	0.049003	NaN	0.000000	0.001609	0.001619	28.0838	0.039193	0.001995	19.6429	-111.357	-168.666	-0.012028	0.281625	-0.824995	-0.826270	0.049003	19.6429	-0.826866	-1.040637E+11	-4.708963E-13	NaN
20	1.000000	0.292942	7.36524e+06	-39639.1	955.818	-29793.8	0.000000	0.000000	6.292887	-0.040959	NaN	0.000000	0.001678	0.001626	28.0831	0.069839	0.001912	36.5332	-171.222	13.8725	0.016257	0.291544	-0.814952	-0.816351	-0.040959	36.5332	-0.814112	-6.987922E+10	5.861420E-13	NaN
20	1.000000	0.302902	7.36524e+06	-39639.1	955.817	-29793.8	0.000000	0.000000	6.302847	-0.052497	NaN	0.000000	0.001625	0.001643	28.1193	0.191052	0.002122	90.0284	-73.2074	-168.319	-0.008369	0.301616	-0.804993	-0.806278	-0.052497	90.0284	-0.804555	-5.184287E+10	1.012617E-12	NaN
20	1.000000	0.312899	7.36524e+06	-39639.1	955.819	-29793.8	0.000000	0.000000	6.312844	-0.030565	NaN	0.000000	0.001636	0.001664	28.1217	0.015222	0.001968	7.735420	3.837973	10.8448	-0.069764	0.311536	-0.794996	-0.796358	-0.030565	7.735420	-0.792033	-3.505003E+10	8.720527E-13	NaN
20	1.000000	0.322943	7.36524e+06	-39639.1	955.818	-29793.8	0.000000	0.000000	6.322888	-0.045866	NaN	0.000000	0.001662	0.001640	28.0863	0.037234	0.001933	19.2589	80.5054	-165.777	0.051369	0.321662	-0.784952	-0.786233	-0.045866	19.2589	-0.783166	-2.656119E+10	1.726805E-12	NaN
20	1.000000	0.332911	7.36524e+06	-39639.1	955.819	-29793.8	0.000000	0.000000	6.332858	0.015690	NaN	0.000000	0.001637	0.001655	28.0848	0.050652	0.001988	25.4727	-174.814	14.1404	0.003818	0.331573	-0.774984	-0.776321	0.015690	25.4727	-0.775446	-2.086130E+10	-7.521117E-13	NaN
20	1.000000	0.342910	7.36524e+06	-39639.1	955.818	-29793.8	0.000000	0.000000	6.342857	0.012795	NaN	0.000000	0.001669	0.001653	28.1213	0.070810	0.001911	37.0484	-62.0606	-161.989	0.038273	0.341563	-0.764985	-0.766332	0.012795	37.0484	-0.765244	-1.515747E+10	-8.441545E-13	NaN
20	1.000000	0.352936	7.36524e+06	-39639.1	955.817	-29793.8	0.000000	0.000000	6.352884	0.027275	NaN	0.000000	0.001674	0.001657	28.1246	0.081153	0.001995	40.6744	14.2911	13.9547	0.037367	0.351588	-0.754959	-0.756307	0.027275	40.6744	-0.755462	-1.115713E+10	-2.444605E-12	NaN
20	1.000000	0.362948	7.36524e+06	-39639.1	955.819	-29793.8	0.000000	0.000000	6.362895	-0.003502	NaN	0.000000	0.001659	0.001637	28.0852	0.027742	0.001909	14.5307	78.0026	-164.278	-0.046569	0.361610	-0.744947	-0.746285	-0.003502	14.5307	-0.744766	-7.979218E+9	4.389396E-13	NaN
20	1.000000	0.372958	7.36524e+06	-39639.1	955.819	-29793.8	0.000000	0.000000	6.372906	0.046402	NaN	0.000000	0.001638	0.001660	28.0842	0.058967	0.002013	29.2949	-104.76	13.0533	0.041612	0.371594	-0.734937	-0.736301	0.046402	29.2949	-0.736125	-6.085141E+9	-7.625509E-12	NaN
20	1.000000	0.382933	7.36524e+06	-39639.1	955.817	-29793.8	0.000000	0.000000	6.382881	0.016546	NaN	0.000000	0.001644	0.001691	28.1195	0.047891	0.002102	22.7852	-177.458	-166.984	-0.035765	0.381604	-0.724962	-0.726291	0.016546	22.7852	-0.725506	-4.360673E+9	-3.794405E-12	NaN
20	1.000000	0.392954	7.36524e+06	-39639.1	955.819	-29793.8	0.000000	0.000000	6.392901	0.018470	NaN	0.000000	0.001673	0.001654	28.1229	0.055343	0.001863	29.7141	-122.243	15.355	0.024166	0.391581	-0.714941	-0.716314	0.018470	29.7141	-0.715407	-3.175624E+9	-5.816164E-12	NaN
20	1.000000	0.402963	7.36524e+06	-39639.1	955.818	-29793.8	0.000000	0.000000	6.402909	-0.015707	NaN	0.000000	0.001647	0.001646	28.0853	0.041869	0.001969	21.2674	-13.8102	-169.147	0.042476	0.401658	-0.704932	-0.706237	-0.015707	21.2674	-0.704378	-2.245464E+9	6.995009E-12	NaN
20	1.000000	0.412958	7.36524e+06	-39639.1	955.817	-29793.8	0.000000	0.000000	6.412906	0.037920	NaN	0.000000	0.001633	0.001680	28.0834	0.027199	0.001937	14.0394	120.375	12.5808	0.042284	0.411572	-0.694937	-0.696323	0.037920	14.0394	-0.696963	-1.778495E+9	-2.132159E-11	NaN
20	1.000000	0.422956	7.36524e+06	-39639.1	955.818	-29793.8	0.000000	0.000000	6.422902	-0.005852	NaN	0.000000	0.001666	0.001684	28.1208	0.173281	0.002019	85.8116	164.642	-170.133	0.008944	0.421642	-0.684939	-0.686253	-0.005852	85.8116	-0.684888	-1.216300E+9	4.811387E-12	NaN
20	1.000000	0.432972	7.36524e+06	-39639.1	955.819	-29793.8	0.000000	0.000000	6.432921	0.049976	NaN	0.000000	0.001643	0.001632	28.1244	0.040680	0.002124	19.1555	-77.2157	8.930613	-0.033828	0.431605	-0.674923	-0.676289	0.049976	19.1555	-0.676880	-9.452074E+8	-5.287353E-11	NaN
20	1.000000	0.442979	7.36524e+06	-39639.1	955.819	-29793.8	0.000000	0.000000	6.442927	0.020630	NaN	0.000000	0.001616	0.001656	28.0859	0.112326	0.002057	54.605	-140.798	-164.097	0.031383	0.441729	-0.664915	-0.666165	0.020630	54.605	-0.665199	-6.541310E+8	-3.153846E-11	NaN
20	1.000000	0.452982	7.36524e+06	-39639.1	955.817	-29793.8	0.000000	0.000000	6.452927	-0.036394	NaN	0.000000	0.001582	0.001662	28.0839	0.017154	0.002010	8.534178	174.516	17.3313	0.031206	0.451639	-0.654913	-0.656256	-0.036394	8.534178	-0.651714	-4.274988E+8	8.513247E-11	NaN
20	1.000000	0.462944	7.36524e+06	-39639.1	955.818	-29793.8	0.000000	0.000000	6.462893	0.061329	NaN	0.000000	0.001584	0.001647	28.1179	0.074932	0.002038	36.7588	-131.761	-164.72	0.093629	0.461683	-0.644951	-0.646212	0.061329	36.7588	-0.646203	-3.592286E+8	-1.707234E-10	NaN
20	1.000000	0.473001	7.36524e+06	-39639.1	955.818	-29793.8	0.000000	0.000000	6.472948	0.005728	NaN	0.000000	0.001582	0.001630	28.1221	0.059703	0.001960	30.4584	-46.2751	14.9176	-0.071007	0.471638	-0.634894	-0.636257	0.005728	30.4584	-0.635035	-2.524336E+8	-2.268968E-11	NaN
20	1.000000	0.483030	7.36524e+06	-39639.1	955.818	-29793.8	0.000000	0.000000	6.482978	0.034201	NaN	0.000000	0.001541	0.001640	28.0842	0.079385	0.002130	37.2676	-91.1205	-168.376	0.063970	0.481679	-0.624865	-0.626215	0.034201	37.2676	-0.625553	-1.870423E+8	-1.828502E-10	NaN
20	1.000000	0.492972	7.36524e+06	-39639.1	955.817	-29793.8	0.000000	0.000000	6.492919	0.002909	NaN	0.000000	0.001583	0.001688	28.0834	0.033612	0.002079	16.1638	-123.137	11.9703	0.013196	0.491644	-0.614923	-0.616251	0.002909	16.1638	-0.615058	-1.341781E+8	-2.167683E-11	NaN
20	1.000000	0.503003	7.36524e+06	-39639.1	955.817	-29793.8	0.000000	0.000000	6.502949	-0.011735	NaN	0.000000	0.001553	0.001691	28.119	0.006714	0.002112	3.178455	173.605	-166.785	-0.007770	0.501649	-0.604892	-0.606246	-0.011735	3.178455	-0.602123	-8.906243E+7	1.317655E-10	NaN
20	1.000000	0.512988	7.36524e+06	-39639.1	955.818	-29793.8	0.000000	0.000000	6.512933	-0.043990	NaN	0.000000	0.001596	0.001638	28.1236	0.003144	0.001925	1.633113	-49.6444	15.0616	0.033567	0.511699	-0.594907	-0.596196	-0.043990	1.633113	-0.574704	-3.729192E+7	1.179624E-9	NaN
20	1.000000	0.523013	7.36524e+06	-39639.1	955.819	-29793.8	0.000000	0.000000	6.522960	-0.005016	NaN	0.000000	0.001610	0.001671	28.0843	0.036863	0.002007	18.3698	-110.294	-169.338	0.080111	0.521744	-0.584882	-0.586151	-0.005016	18.3698	-0.584677	-5.119858E+7	9.798017E-11	NaN
20	1.000000	0.533011	7.36524e+06	-39639.1	955.819	-29793.8	0.000000	0.000000	6.532958	0.004805	NaN	0.000000	0.001598	0.001666	28.0823	0.065595	0.001986	33.0267	0.664220	13.246	0.016974	0.531637	-0.574884	-0.576258	0.004805	33.0267	-0.574993	-3.763554E+7	-1.276739E-10	NaN
20	1.000000	0.543027	7.36524e+06	-39639.1	955.818	-29793.8	0.000000	0.000000	6.542975	0.026760	NaN	0.000000	0.001624	0.001661	28.1176	0.072482	0.001928	37.6037	139.452	-165.513	-0.039799	0.541698	-0.564868	-0.566197	0.026760	37.6037	-0.565401	-2.773786E+7	-9.647303E-10	NaN
20	1.000000	0.553033	7.36524e+06	-39639.1	955.819	-29793.8	0.000000	0.000000	6.552980	0.018503	NaN	0.000000	0.001593	0.001701	28.1225	0.114573	0.001926	59.4875	-170.814	14.9514	0.030767	0.551695	-0.554862	-0.556200	0.018503	59.4875	-0.555095	-1.997583E+7	-9.262572E-10	NaN
20	1.000000	0.563032	7.36524e+06	-39639.1	955.818	-29793.8	0.000000	0.000000	6.562979	0.020643	NaN	0.000000	0.001608	0.001626	28.0853	0.035038	0.002057	17.0343	104.443	-166.132	-0.074093	0.561697	-0.544863	-0.546198	0.020643	17.0343	-0.545772	-1.483803E+7	-1.391225E-9	NaN
20	1.000000	0.573030	7.36524e+06	-39639.1	955.818	-29793.8	0.000000	0.000000	6.572976	-0.026144	NaN	0.000000	0.001587	0.001666	28.0827	0.048973	0.002124	23.0615	65.0027	13.7195	-0.033695	0.571684	-0.534865	-0.536210	-0.026144	23.0615	-0.534015	-1.019324E+7	2.564877E-9	NaN
20	1.000000	0.583029	7.36524e+06	-39639.1	955.819	-29793.8	0.000000	0.000000	6.582977	0.031188	NaN	0.000000	0.001563	0.001682	28.1186	0.030802	0.001883	16.3572	-105.886	-170.621	-0.044649	0.581755	-0.524865	-0.526140	0.031188	16.3572	-0.526295	-7.96365e+06	-3.916327E-9	NaN
20	1.000000	0.593046	7.36524e+06	-39639.1	955.818	-29793.8	0.000000	0.000000	6.592995	0.060479	NaN	0.000000	0.001559	0.001697	28.1239	0.052777	0.002061	25.6024	138.216	14.4366	0.029292	0.591664	-0.514849	-0.516231	0.060479	25.6024	-0.516621	-5.84238e+06	-1.035181E-8	NaN
20	1.000000	0.603040	7.36524e+06	-39639.1	955.819	-29793.8	0.000000	0.000000	6.602989	0.056126	NaN	0.000000	0.001606	0.001664	28.0857	0.027594	0.002024	13.632	-110.103	-168.097	0.086112	0.601731	-0.504855	-0.506164	0.056126	13.632	-0.507943	-4.4234e+06	-1.268846E-8	NaN
20	1.000000	0.613057	7.36524e+06	-39639.1	955.819	-29793.8	0.000000	0.000000	6.613002	-0.042757	NaN	0.000000	0.001568	0.001648	28.0833	0.033788	0.001994	16.9471	36.7595	15.9132	-0.008616	0.611722	-0.494838	-0.496173	-0.042757	16.9471	-0.492946	-2.73241e+06	1.564811E-8	NaN
20	1.000000	0.623058	7.36524e+06	-39639.1	955.818	-29793.8	0.000000	0.000000	6.623002	-0.057669	NaN	0.000000	0.001582	0.001694	28.1189	0.051886	0.002026	25.6088	50.7733	-166.254	-0.061826	0.621729	-0.484837	-0.486166	-0.057669	25.6088	-0.483148	-1.99334e+06	2.893074E-8	NaN
20	1.000000	0.633037	7.36524e+06	-39639.1	955.819	-29793.8	0.000000	0.000000	6.632984	0.009990	NaN	0.000000	0.001579	0.001701	28.1239	0.082724	0.002084	39.6932	45.484	13.9953	0.058121	0.631682	-0.474858	-0.476213	0.009990	39.6932	-0.475047	-1.53517e+06	-6.507141E-9	NaN
20	1.000000	0.643053	7.36524e+06	-39639.1	955.819	-29793.8	0.000000	0.000000	6.643000	0.007929	NaN	0.000000	0.001610	0.001663	28.0857	0.138014	0.001970	70.0539	-142.597	-168.511	0.008246	0.641762	-0.464842	-0.466133	0.007929	70.0539	-0.464927	-1.10718e+06	-7.161454E-9	NaN
20	1.000000	0.653055	7.36524e+06	-39639.1	955.818	-29793.8	0.000000	0.000000	6.653002	0.012468	NaN	0.000000	0.001636	0.001639	28.0828	0.030992	0.002063	15.0263	147.131	13.537	0.078873	0.651711	-0.454840	-0.456183	0.012468	15.0263	-0.455462	-815112	-1.529598E-8	NaN
20	1.000000	0.663067	7.36524e+06	-39639.1	955.818	-29793.8	0.000000	0.000000	6.663013	-0.008113	NaN	0.000000	0.001602	0.001675	28.1199	0.070212	0.002088	33.6319	-113.98	-166.814	0.065117	0.661756	-0.444828	-0.446139	-0.008113	33.6319	-0.444647	-574002	1.413415E-8	NaN
20	1.000000	0.673075	7.36524e+06	-39639.1	955.819	-29793.8	0.000000	0.000000	6.673018	-0.085745	NaN	0.000000	0.001595	0.001647	28.1254	0.025937	0.001947	13.3205	-46.0616	13.1037	-0.052431	0.671703	-0.434820	-0.436192	-0.085745	13.3205	-0.429992	-356408	2.405824E-7	NaN
20	1.000000	0.683091	7.36524e+06	-39639.1	955.819	-29793.8	0.000000	0.000000	6.683038	0.009483	NaN	0.000000	0.001628	0.001632	28.0846	0.084033	0.002075	40.5077	-92.5216	-167.373	-0.010845	0.681738	-0.424804	-0.426157	0.009483	40.5077	-0.424980	-302687	-3.132918E-8	NaN
20	1.000000	0.693060	7.36524e+06	-39639.1	955.818	-29793.8	0.000000	0.000000	6.693005	-0.037526	NaN	0.000000	0.001634	0.001627	28.0825	0.097578	0.002042	47.777	-75.6469	13.3158	-0.050114	0.691693	-0.414835	-0.416202	-0.037526	47.777	-0.414246	-213181	1.760267E-7	NaN
20	1.000000	0.703091	7.36524e+06	-39639.1	955.818	-29793.8	0.000000	0.000000	6.703036	-0.043217	NaN	0.000000	0.001638	0.001643	28.1181	0.042583	0.002032	20.9605	70.9023	-163.47	-0.056542	0.701796	-0.404803	-0.406099	-0.043217	20.9605	-0.403257	-148738	2.905602E-7	NaN
20	1.000000	0.713088	7.36524e+06	-39639.1	955.818	-29793.8	0.000000	0.000000	6.713034	-0.007089	NaN	0.000000	0.001603	0.001662	28.1248	0.015462	0.001999	7.736467	-116.533	14.1009	0.004274	0.711728	-0.394807	-0.396166	-0.007089	7.736467	-0.394120	-110170	6.434273E-8	NaN
20	1.000000	0.723090	7.36524e+06	-39639.1	955.818	-29793.8	0.000000	0.000000	6.723033	-0.087017	NaN	0.000000	0.001622	0.001611	28.0856	0.090188	0.001998	45.1286	-158.037	-162.508	0.003638	0.721820	-0.384805	-0.386075	-0.087017	45.1286	-0.383359	-77279.6	1.126006E-6	NaN
20	1.000000	0.733089	7.36524e+06	-39639.1	955.818	-29793.8	0.000000	0.000000	6.733036	0.003594	NaN	0.000000	0.001664	0.001633	28.0836	0.053582	0.001961	27.3307	102.701	16.4048	-0.045247	0.731789	-0.374806	-0.376106	0.003594	27.3307	-0.374905	-58438.4	-6.150644E-8	NaN
20	1.000000	0.743101	7.36524e+06	-39639.1	955.818	-29793.8	0.000000	0.000000	6.743048	0.008943	NaN	0.000000	0.001634	0.001651	28.1182	0.081703	0.001935	42.2163	130.997	-164.382	-0.021158	0.741786	-0.364794	-0.366109	0.008943	42.2163	-0.364953	-42012.1	-2.128608E-7	NaN
20	1.000000	0.753074	7.36524e+06	-39639.1	955.818	-29793.8	0.000000	0.000000	6.753021	-0.002752	NaN	0.000000	0.001634	0.001702	28.1246	0.088225	0.002137	41.2817	33.2253	12.2518	-0.033624	0.751783	-0.354821	-0.356112	-0.002752	41.2817	-0.354771	-29934.8	9.194234E-8	NaN
20	1.000000	0.763128	7.36524e+06	-39639.1	955.818	-29793.8	0.000000	0.000000	6.763073	-0.050647	NaN	0.000000	0.001672	0.001673	28.0844	0.100563	0.002086	48.2151	145.508	-171.25	-0.059796	0.761813	-0.344767	-0.346082	-0.050647	48.2151	-0.343979	-20869	2.426926E-6	NaN
20	1.000000	0.773127	7.36524e+06	-39639.1	955.819	-29793.8	0.000000	0.000000	6.773070	-0.090967	NaN	0.000000	0.001663	0.001685	28.0817	0.071195	0.002005	35.5049	19.1972	16.474	-0.058264	0.771766	-0.334768	-0.336129	-0.090967	35.5049	-0.332846	-14358.5	6.335422E-6	NaN
20	1.000000	0.783130	7.36524e+06	-39639.1	955.818	-29793.8	0.000000	0.000000	6.783078	0.031572	NaN	0.000000	0.001662	0.001673	28.1163	0.042466	0.001944	21.8441	99.7524	-163.754	0.017590	0.781829	-0.324765	-0.326066	0.031572	21.8441	-0.325849	-11339.7	-2.784219E-6	NaN
20	1.000000	0.793102	7.36524e+06	-39639.1	955.819	-29793.8	0.000000	0.000000	6.793048	-0.016594	NaN	0.000000	0.001629	0.001662	28.1236	0.097092	0.001973	49.2124	20.002	14.5977	-0.080345	0.791746	-0.314793	-0.316148	-0.016594	49.2124	-0.314540	-7729.56	2.146848E-6	NaN
20	1.000000	0.803120	7.36524e+06	-39639.1	955.819	-29793.8	0.000000	0.000000	6.803069	0.066197	NaN	0.000000	0.001615	0.001677	28.0846	0.098119	0.001892	51.8594	-142.807	-167.036	-0.030717	0.801828	-0.304775	-0.306067	0.066197	51.8594	-0.305732	-5725.62	-1.156159E-5	NaN
20	1.000000	0.813129	7.36524e+06	-39639.1	955.819	-29793.8	0.000000	0.000000	6.813073	-0.048219	NaN	0.000000	0.001652	0.001678	28.0832	0.126213	0.001995	63.2675	-48.8382	13.6516	0.056451	0.811774	-0.294766	-0.296121	-0.048219	63.2675	-0.294195	-3855.29	1.250711E-5	NaN
20	1.000000	0.823155	7.36524e+06	-39639.1	955.819	-29793.8	0.000000	0.000000	6.823104	0.045866	NaN	0.000000	0.001645	0.001660	28.1169	0.028535	0.002084	13.6914	-68.8624	-164.301	0.000191	0.821768	-0.284740	-0.286127	0.045866	13.6914	-0.287252	-3034.56	-1.511446E-5	NaN
20	1.000000	0.833124	7.36524e+06	-39639.1	955.818	-29793.8	0.000000	0.000000	6.833069	-0.051423	NaN	0.000000	0.001652	0.001669	28.1253	0.099388	0.002082	47.737	112.587	11.6375	-0.020866	0.831818	-0.274771	-0.276077	-0.051423	47.737	-0.273963	-1912.88	2.688241E-5	NaN
20	1.000000	0.843133	7.36524e+06	-39639.1	955.818	-29793.8	0.000000	0.000000	6.843078	-0.045834	NaN	0.000000	0.001639	0.001687	28.0832	0.111838	0.001806	61.9172	-36.8241	-160.049	-0.012763	0.841797	-0.264761	-0.266098	-0.045834	61.9172	-0.264206	-1359.16	3.372262E-5	NaN
20	1.000000	0.853142	7.36524e+06	-39639.1	955.82	-29793.8	0.000000	0.000000	6.853089	0.015595	NaN	0.000000	0.001634	0.001665	28.0812	0.068069	0.001876	36.2803	177.863	16.1121	-0.013518	0.851786	-0.254753	-0.256109	0.015595	36.2803	-0.255076	-984.647	-1.583777E-5	NaN
20	1.000000	0.863159	7.36524e+06	-39639.1	955.819	-29793.8	0.000000	0.000000	6.863106	0.017572	NaN	0.000000	0.001636	0.001718	28.1163	0.077217	0.001947	39.6531	1.498035	-167.029	0.146576	0.861816	-0.244736	-0.246079	0.017572	39.6531	-0.245069	-689.477	-2.548598E-5	NaN
20	1.000000	0.873159	7.36524e+06	-39639.1	955.819	-29793.8	0.000000	0.000000	6.873103	-0.068716	NaN	0.000000	0.001682	0.001674	28.1257	0.075269	0.002110	35.674	90.115	12.5397	-0.036086	0.871791	-0.234736	-0.236104	-0.068716	35.674	-0.233292	-451.227	0.000152	NaN
20	1.000000	0.883173	7.36524e+06	-39639.1	955.819	-29793.8	0.000000	0.000000	6.883117	-0.072712	NaN	0.000000	0.001639	0.001646	28.0863	0.045460	0.002151	21.1343	120.682	-166.164	-0.085956	0.881878	-0.224722	-0.226017	-0.072712	21.1343	-0.222141	-300.506	0.000242	NaN
20	1.000000	0.893185	7.36524e+06	-39639.1	955.818	-29793.8	0.000000	0.000000	6.893128	-0.074617	NaN	0.000000	0.001642	0.001633	28.0816	0.072026	0.002030	35.4754	-91.7727	12.4508	-0.017039	0.891807	-0.214710	-0.216088	-0.074617	35.4754	-0.213133	-215.496	0.000346	NaN
20	1.000000	0.903180	7.36524e+06	-39639.1	955.817	-29793.8	0.000000	0.000000	6.903125	-0.049085	NaN	0.000000	0.001622	0.001651	28.1183	0.057381	0.002064	27.8007	144.626	-167.328	-0.082858	0.901857	-0.204714	-0.206038	-0.049085	27.8007	-0.203390	-149.716	0.000328	NaN
20	1.000000	0.913168	7.36524e+06	-39639.1	955.818	-29793.8	0.000000	0.000000	6.913112	-0.083821	NaN	0.000000	0.001638	0.001642	28.1268	0.053795	0.001944	27.6661	-20.0536	18.1636	0.001869	0.911804	-0.194726	-0.196090	-0.083821	27.6661	-0.192454	-98.8416	0.000848	NaN
20	1.000000	0.923187	7.36524e+06	-39639.1	955.818	-29793.8	0.000000	0.000000	6.923133	-0.007989	NaN	0.000000	0.001626	0.001682	28.0866	0.062806	0.002075	30.2643	42.4325	-164.908	-0.008069	0.921898	-0.184708	-0.185997	-0.007989	30.2643	-0.184510	-72.7567	0.000110	NaN
20	1.000000	0.933178	7.36524e+06	-39639.1	955.818	-29793.8	0.000000	0.000000	6.933121	-0.082601	NaN	0.000000	0.001598	0.001665	28.0833	0.112595	0.001963	57.3488	150.252	14.1726	-0.090144	0.931833	-0.174717	-0.176062	-0.082601	57.3488	-0.173637	-47.4809	0.001740	NaN
20	1.000000	0.943191	7.36524e+06	-39639.1	955.819	-29793.8	0.000000	0.000000	6.943138	-0.007201	NaN	0.000000	0.001604	0.001679	28.1166	0.047173	0.001987	23.744	25.2763	-168.445	0.036441	0.941906	-0.164704	-0.165989	-0.007201	23.744	-0.164476	-32.8929	0.000219	NaN
20	1.000000	0.953185	7.36524e+06	-39639.1	955.818	-29793.8	0.000000	0.000000	6.953132	0.012148	NaN	0.000000	0.001585	0.001646	28.1257	0.061247	0.001989	30.7884	-38.8006	15.9785	-0.011991	0.951850	-0.154710	-0.156045	0.012148	30.7884	-0.155006	-22.3193	-0.000544	NaN
20	1.000000	0.963208	7.36524e+06	-39639.1	955.819	-29793.8	0.000000	0.000000	6.963156	0.025775	NaN	0.000000	0.001594	0.001653	28.0868	0.046136	0.001979	23.3144	-128.922	-167.178	0.019535	0.961876	-0.144687	-0.146019	0.025775	23.3144	-0.145516	-14.9867	-0.001720	NaN
20	1.000000	0.973177	7.36524e+06	-39639.1	955.819	-29793.8	0.000000	0.000000	6.973122	-0.046121	NaN	0.000000	0.001617	0.001693	28.0835	0.055594	0.001993	27.8927	-153.001	15.1513	-0.071803	0.971806	-0.134718	-0.136089	-0.046121	27.8927	-0.133478	-8.895076	0.005185	NaN
20	1.000000	0.983241	7.36524e+06	-39639.1	955.819	-29793.8	0.000000	0.000000	6.983186	-0.035519	NaN	0.000000	0.001649	0.001677	28.1176	0.065342	0.002110	30.9634	-74.6424	-165.856	-0.071024	0.981888	-0.124654	-0.126007	-0.035519	30.9634	-0.123794	-5.755360	0.006172	NaN
20	1.000000	0.993188	7.36524e+06	-39639.1	955.818	-29793.8	0.000000	0.000000	6.993132	-0.056215	NaN	0.000000	0.001634	0.001672	28.1272	0.042039	0.001934	21.7413	-87.4844	16.1175	0.057192	0.991810	-0.114707	-0.116085	-0.056215	21.7413	-0.112768	-3.434513	0.016368	NaN
20	1.000000	1.003207	7.36524e+06	-39639.1	955.819	-29793.8	0.000000	0.000000	7.003154	-0.003911	NaN	0.000000	0.001630	0.001647	28.0863	0.159221	0.002112	75.4042	116.135	-167.019	-0.050409	1.001859	-0.104688	-0.106036	-0.003911	75.4042	-0.104649	-2.309829	0.001693	NaN
20	1.000000	1.013205	7.36524e+06	-39639.1	955.818	-29793.8	0.000000	0.000000	7.013153	0.042991	NaN	0.000000	0.001617	0.001662	28.082	0.038403	0.002033	18.8892	-122.272	15.4907	0.022121	1.011852	-0.094690	-0.096043	0.042991	18.8892	-0.096397	-1.517463	-0.028331	NaN
20	1.000000	1.023212	7.36524e+06	-39639.1	955.819	-29793.8	0.000000	0.000000	7.023159	0.010767	NaN	0.000000	0.001582	0.001671	28.1157	0.123254	0.001958	62.9568	162.601	-165.582	0.038334	1.021940	-0.084683	-0.085955	0.010767	62.9568	-0.084811	-0.813033	-0.013243	NaN
20	1.000000	1.033176	7.36524e+06	-39639.1	955.818	-29793.8	0.000000	0.000000	7.033124	0.025569	NaN	0.000000	0.001632	0.001648	28.1252	0.073610	0.001929	38.1498	161.907	16.0366	-0.012954	1.031893	-0.074719	-0.076002	0.025569	38.1498	-0.075221	-0.467998	-0.054636	NaN
20	1.000000	1.043222	7.36524e+06	-39639.1	955.819	-29793.8	0.000000	0.000000	7.043168	-0.009514	NaN	0.000000	0.001624	0.001676	28.0856	0.066639	0.001992	33.4523	112.392	-164.953	-0.045144	1.041933	-0.064673	-0.065962	-0.009514	33.4523	-0.064460	-0.240747	0.039519	NaN
20	1.000000	1.053214	7.36524e+06	-39639.1	955.819	-29793.8	0.000000	0.000000	7.053161	-0.005953	NaN	0.000000	0.001580	0.001702	28.0823	0.074458	0.002027	36.7376	-118.893	15.2494	0.024868	1.051874	-0.054680	-0.056021	-0.005953	36.7376	-0.054559	-0.124964	0.047637	NaN
20	1.000000	1.063215	7.36524e+06	-39639.1	955.819	-29793.8	0.000000	0.000000	7.063162	-0.006969	NaN	0.000000	0.001590	0.001687	28.1167	0.140174	0.002023	69.2823	145.931	-167.971	0.008999	1.061870	-0.044680	-0.046025	-0.006969	69.2823	-0.044604	-0.062501	0.111502	NaN
20	1.000000	1.073209	7.36524e+06	-39639.1	955.819	-29793.8	0.000000	0.000000	7.073155	-0.020341	NaN	0.000000	0.001571	0.001640	28.126	0.105874	0.002003	52.8707	115.054	14.4062	-0.024687	1.071815	-0.034686	-0.036079	-0.020341	52.8707	-0.034398	-0.030746	0.661582	NaN
20	1.000000	1.083247	7.36524e+06	-39639.1	955.819	-29793.8	0.000000	0.000000	7.083193	-0.014359	NaN	0.000000	0.001587	0.001602	28.0854	0.093835	0.001899	49.4075	52.905	-165.617	-0.004265	1.081880	-0.024648	-0.026015	-0.014359	49.4075	-0.024430	-0.016304	0.880746	NaN
20	1.000000	1.093226	7.36524e+06	-39639.1	955.818	-29793.8	0.000000	0.000000	7.093174	0.018267	NaN	0.000000	0.001589	0.001632	28.0819	0.063881	0.001926	33.1708	-62.5027	14.5768	0.070379	1.091859	-0.014668	-0.016036	0.018267	33.1708	-0.015081	-0.009324	-1.959048	NaN
20	1.000000	1.103256	7.36524e+06	-39639.1	955.818	-29793.8	0.000000	0.000000	7.103202	-0.022842	NaN	0.000000	0.001562	0.001637	28.1152	0.076176	0.002005	37.9856	58.8915	-161.653	-0.047436	1.101903	-0.004639	-0.005992	-0.022842	37.9856	-0.004188	-0.002900	7.875985	NaN
20	1.000000	1.113216	7.36524e+06	-39639.1	955.818	-29793.8	0.000000	0.000000	7.113340	4.322849	NaN	0.000000	0.001599	0.001662	28.1251	4.761559	0.001771	2689.14	4.915504	11.3742	2.124199	1.111849	0.005321	0.003954	4.322849	2689.14	0.004115	0.003340	1294.25	42512
20	2.000000	1.119733	7.36524e+06	-39639.1	955.819	-29793.8	0.000000	0.000000	7.120162	11.7453	NaN	0.000000	0.001603	0.001686	28.0877	10.831	0.001577	6867.83	4.431513	-172.986	11.2717	1.119447	0.011838	0.011552	11.7453	6867.83	0.010555	0.009805	1197.89	63368
20	2.000000	1.122258	7.36524e+06	-39639.1	955.819	-29793.8	0.000000	0.000000	7.122903	16.9892	NaN	0.000000	0.001586	0.001655	28.0822	13.5133	0.001587	8514.22	7.294455	4.025230	16.0926	1.121886	0.014363	0.013991	16.9892	8514.22	0.012867	0.012545	1354.28	69452.1
20	2.000000	1.124682	7.36524e+06	-39639.1	955.819	-29793.8	0.000000	0.000000	7.125435	19.6198	NaN	0.000000	0.001631	0.001649	28.1169	16.1614	0.001672	9667.65	3.593726	-174.211	19.1929	1.124400	0.016787	0.016506	19.6198	9667.65	0.015265	0.015640	1254.46	70627.7
20	2.000000	1.127193	7.36524e+06	-39639.1	955.819	-29793.8	0.000000	0.000000	7.128212	26.0758	NaN	0.000000	0.001667	0.001701	28.1275	19.5658	0.001951	10028.5	6.132112	5.037892	25.1541	1.126722	0.019299	0.018827	26.0758	10028.5	0.017348	0.018546	1406.03	67279.8
20	2.000000	1.129704	7.36524e+06	-39639.1	955.817	-29793.8	0.000000	0.000000	7.130873	29.7553	NaN	0.000000	0.001674	0.001729	28.0873	21.6696	0.001944	11147.2	8.735176	-178.394	30.6465	1.129362	0.021809	0.021468	29.7553	11147.2	0.019807	0.022240	1337.91	68292.4
20	2.000000	1.132162	7.36524e+06	-39639.1	955.818	-29793.8	0.000000	0.000000	7.133604	36.3848	NaN	0.000000	0.001668	0.001681	28.0823	23.2867	0.001703	13677.6	2.877432	4.446704	35.4132	1.131784	0.024267	0.023889	36.3848	13677.6	0.022272	0.026238	1386.7	77146.1
20	2.000000	1.134642	7.36524e+06	-39639.1	955.819	-29793.8	0.000000	0.000000	7.136289	41.3586	NaN	0.000000	0.001657	0.001680	28.1158	25.1387	0.001646	15269.4	5.052845	-178.924	40.9546	1.134389	0.026748	0.026494	41.3586	15269.4	0.024716	0.030501	1355.97	79879.8
20	2.000000	1.137139	7.36524e+06	-39639.1	955.817	-29793.8	0.000000	0.000000	7.139067	48.196	NaN	0.000000	0.001647	0.001682	28.1266	27.6251	0.001681	16432.4	1.943580	2.928003	45.6933	1.136763	0.029244	0.028868	48.196	16432.4	0.027045	0.034841	1383.32	80432.3
20	2.000000	1.139630	7.36524e+06	-39639.1	955.819	-29793.8	0.000000	0.000000	7.141703	51.7371	NaN	0.000000	0.001651	0.001684	28.0881	30.5748	0.001706	17926.5	3.864205	-178.624	50.8526	1.139302	0.031735	0.031407	51.7371	17926.5	0.029571	0.039859	1298.02	82036.8
20	2.000000	1.142108	7.36524e+06	-39639.1	955.818	-29793.8	0.000000	0.000000	7.144650	63.1595	NaN	0.000000	0.001632	0.001639	28.0827	32.3011	0.001739	18573.8	3.442703	1.616264	60.1544	1.141741	0.034213	0.033847	63.1595	18573.8	0.031663	0.044260	1427	80661.9
20	2.000000	1.144686	7.36524e+06	-39639.1	955.819	-29793.8	0.000000	0.000000	7.147439	68.2863	NaN	0.000000	0.001631	0.001650	28.1163	34.842	0.001829	19049.8	7.134272	177.782	70.6704	1.144309	0.036791	0.036414	68.2863	19049.8	0.034103	0.049677	1374.6	78088.1
20	2.000000	1.147158	7.36524e+06	-39639.1	955.819	-29793.8	0.000000	0.000000	7.150109	73.0925	NaN	0.000000	0.001608	0.001642	28.1279	37.6692	0.001894	19884.4	6.853661	-1.900536	73.306	1.146823	0.039264	0.038928	73.0925	19884.4	0.036507	0.055312	1321.45	77245.9
20	2.000000	1.149646	7.36524e+06	-39639.1	955.819	-29793.8	0.000000	0.000000	7.153132	86.1372	NaN	0.000000	0.001665	0.001643	28.0877	39.4887	0.001757	22469.3	6.075064	177.046	86.0359	1.149247	0.041751	0.041352	86.1372	22469.3	0.038876	0.061155	1408.52	83013.5
20	2.000000	1.152180	7.36524e+06	-39639.1	955.818	-29793.8	0.000000	0.000000	7.155997	94.1865	NaN	0.000000	0.001630	0.001641	28.0817	41.6783	0.001798	23184.8	7.648263	-4.712937	96.1106	1.151806	0.044285	0.043912	94.1865	23184.8	0.041238	0.067267	1400.18	81672.4
20	2.000000	1.154624	7.36524e+06	-39639.1	955.818	-29793.8	0.000000	0.000000	7.158839	103.876	NaN	0.000000	0.001616	0.001715	28.1151	42.4008	0.001698	24964.4	1.783566	-179.051	104.183	1.154239	0.046729	0.046344	103.876	24964.4	0.043608	0.073685	1409.72	84024.1
20	2.000000	1.157136	7.36524e+06	-39639.1	955.817	-29793.8	0.000000	0.000000	7.161516	107.886	NaN	0.000000	0.001616	0.001702	28.1272	45.8568	0.001782	25734.9	2.745248	-1.316668	106.664	1.156743	0.049241	0.048848	107.886	25734.9	0.046097	0.080732	1336.34	82750.6
20	2.000000	1.159625	7.36524e+06	-39639.1	955.819	-29793.8	0.000000	0.000000	7.164529	120.613	NaN	0.000000	0.001623	0.001657	28.0869	49.2239	0.001846	26664.6	1.513098	-179.905	121.682	1.159285	0.051731	0.051391	120.613	26664.6	0.048338	0.087346	1380.87	82430.6
20	2.000000	1.162069	7.36524e+06	-39639.1	955.817	-29793.8	0.000000	0.000000	7.167418	131.456	NaN	0.000000	0.001691	0.001664	28.0834	50.661	0.001818	27863.6	3.324136	-1.837807	127.271	1.161676	0.054175	0.053781	131.456	27863.6	0.050636	0.094390	1392.69	82860.4
20	2.000000	1.164562	7.36524e+06	-39639.1	955.818	-29793.8	0.000000	0.000000	7.170186	138.151	NaN	0.000000	0.001700	0.001645	28.1153	52.2642	0.001783	29304.8	2.989314	177.849	136.191	1.164238	0.056667	0.056343	138.151	29304.8	0.053132	0.102338	1349.95	83693.8
20	2.000000	1.167069	7.36524e+06	-39639.1	955.819	-29793.8	0.000000	0.000000	7.173207	150.674	NaN	0.000000	0.001677	0.001662	28.1267	55.0155	0.001818	30258.2	4.065105	-3.354672	147.918	1.166717	0.059174	0.058822	150.674	30258.2	0.055439	0.109964	1370.21	83366.5
20	2.000000	1.169578	7.36524e+06	-39639.1	955.818	-29793.8	0.000000	0.000000	7.176212	162.727	NaN	0.000000	0.001688	0.001650	28.0861	57.4161	0.001909	30070.4	4.761552	176.354	160.927	1.169260	0.061684	0.061365	162.727	30070.4	0.057625	0.117430	1385.74	80172.2
20	2.000000	1.172113	7.36524e+06	-39639.1	955.819	-29793.8	0.000000	0.000000	7.179083	170.918	NaN	0.000000	0.001685	0.001666	28.0822	59.4553	0.001750	33970.4	5.897345	-6.276455	168.489	1.171727	0.064218	0.063832	170.918	33970.4	0.060445	0.127407	1341.51	86951.4
20	2.000000	1.174672	7.36524e+06	-39639.1	955.818	-29793.8	0.000000	0.000000	7.182246	185.603	NaN	0.000000	0.001649	0.001673	28.1133	61.4453	0.001807	34009.8	3.014264	177.297	189.323	1.174264	0.066777	0.066369	185.603	34009.8	0.062684	0.135609	1368.67	84379
20	2.000000	1.177023	7.36524e+06	-39639.1	955.819	-29793.8	0.000000	0.000000	7.185257	201.658	NaN	0.000000	0.001602	0.001668	28.1261	64.1135	0.001831	35021	5.266528	-5.220870	197.618	1.176621	0.069128	0.068726	201.658	35021	0.064809	0.143617	1404.14	84430.5
20	2.000000	1.179600	7.36524e+06	-39639.1	955.819	-29793.8	0.000000	0.000000	7.188182	210.127	NaN	0.000000	0.001640	0.001683	28.0865	66.4409	0.001788	37150.4	3.263393	175.565	209.797	1.179306	0.071705	0.071411	210.127	37150.4	0.067463	0.153922	1365.15	86514
20	2.000000	1.182083	7.36524e+06	-39639.1	955.82	-29793.8	0.000000	0.000000	7.191150	221.917	NaN	0.000000	0.001630	0.001684	28.0818	67.7665	0.001903	35606.6	1.882223	-1.997580	220.407	1.181708	0.074189	0.073813	221.917	35606.6	0.069514	0.162118	1368.86	80795.9
20	2.000000	1.184510	7.36524e+06	-39639.1	955.819	-29793.8	0.000000	0.000000	7.194005	232.356	NaN	0.000000	0.001649	0.001674	28.114	69.4416	0.001777	39074.3	3.531251	174.925	228.691	1.184264	0.076615	0.076369	232.356	39074.3	0.072155	0.172966	1343.36	85838.8
20	2.000000	1.187098	7.36524e+06	-39639.1	955.819	-29793.8	0.000000	0.000000	7.197250	248.337	NaN	0.000000	0.001659	0.001644	28.1271	72.8658	0.001840	39595.5	8.382444	-9.397868	248.189	1.186705	0.079203	0.078810	248.337	39595.5	0.074499	0.182870	1358	84595.6
20	2.000000	1.189507	7.36524e+06	-39639.1	955.819	-29793.8	0.000000	0.000000	7.200466	267.989	NaN	0.000000	0.001679	0.001684	28.0855	74.1774	0.001813	40923	4.417917	174.548	262.774	1.189088	0.081612	0.081193	267.989	40923	0.076701	0.192408	1392.81	85237.1
20	2.000000	1.192177	7.36524e+06	-39639.1	955.82	-29793.8	0.000000	0.000000	7.203615	279.639	NaN	0.000000	0.001634	0.001672	28.0812	76.3528	0.001739	43916.3	10.6876	-12.0641	281.354	1.191607	0.084282	0.083712	279.639	43916.3	0.079507	0.204895	1364.79	88640.7
20	2.000000	1.194491	7.36524e+06	-39639.1	955.82	-29793.8	0.000000	0.000000	7.206656	297.327	NaN	0.000000	0.001636	0.001653	28.1145	77.4584	0.001698	45616.8	4.373788	173.651	294.185	1.194170	0.086596	0.086275	297.327	45616.8	0.081708	0.214948	1383.25	89894.2
20	2.000000	1.197021	7.36524e+06	-39639.1	955.819	-29793.8	0.000000	0.000000	7.209706	309.978	NaN	0.000000	0.001598	0.001647	28.1274	81.5282	0.001791	45528.6	6.601976	-9.369093	305.929	1.196677	0.089126	0.088782	309.978	45528.6	0.084020	0.225747	1373.12	87548.1
20	2.000000	1.199579	7.36524e+06	-39639.1	955.82	-29793.8	0.000000	0.000000	7.212907	325.618	NaN	0.000000	0.001608	0.001633	28.088	85.398	0.001829	46695.4	6.121262	171.487	325.782	1.199248	0.091684	0.091353	325.618	46695.4	0.086454	0.237388	1371.67	87562.4
20	2.000000	1.201988	7.36524e+06	-39639.1	955.819	-29793.8	0.000000	0.000000	7.216132	345.486	NaN	0.000000	0.001627	0.001631	28.083	87.4962	0.001825	47953.3	6.336572	-8.956480	339.443	1.201657	0.094093	0.093762	345.486	47953.3	0.088689	0.248314	1391.32	87920.7
20	2.000000	1.204570	7.36524e+06	-39639.1	955.819	-29793.8	0.000000	0.000000	7.219371	361.478	NaN	0.000000	0.001653	0.001620	28.1152	88.4322	0.001752	50463.5	6.468204	170.554	361.68	1.204291	0.096675	0.096396	361.478	50463.5	0.091303	0.261383	1382.95	90180.4
20	2.000000	1.207092	7.36524e+06	-39639.1	955.819	-29793.8	0.000000	0.000000	7.222372	373.126	NaN	0.000000	0.001662	0.001643	28.1289	91.4093	0.001762	51885.8	5.639941	-9.111241	372.082	1.206675	0.099197	0.098780	373.126	51885.8	0.093803	0.274179	1360.88	90532.4
20	2.000000	1.209613	7.36524e+06	-39639.1	955.819	-29793.8	0.000000	0.000000	7.225966	399.246	NaN	0.000000	0.001665	0.001672	28.0892	93.5392	0.001815	51527.4	3.115097	173.934	399.966	1.209199	0.101718	0.101304	399.246	51527.4	0.095907	0.285165	1400.05	88158.4
20	2.000000	1.211944	7.36524e+06	-39639.1	955.819	-29793.8	0.000000	0.000000	7.228955	415.257	NaN	0.000000	0.001619	0.001667	28.0835	95.142	0.001821	52255.6	3.923141	-6.914429	406.733	1.211709	0.104049	0.103814	415.257	52255.6	0.098089	0.296776	1399.23	87637.9
20	2.000000	1.214501	7.36524e+06	-39639.1	955.818	-29793.8	0.000000	0.000000	7.232396	436.758	NaN	0.000000	0.001630	0.001658	28.1137	97.3976	0.001721	56589.5	4.394320	171.781	433.514	1.214192	0.106606	0.106297	436.758	56589.5	0.100818	0.311596	1401.68	92621.7
20	2.000000	1.217127	7.36524e+06	-39639.1	955.818	-29793.8	0.000000	0.000000	7.235652	452.106	NaN	0.000000	0.001643	0.001670	28.1281	102.624	0.001817	56471	10.5983	-14.33	455.066	1.216702	0.109232	0.108807	452.106	56471	0.103228	0.324968	1391.23	90506.3