File: remote_trans/data/nanoindenter/0828-1/data/Data_2025-08-06,11h17m57s/2025-07-22_16-23-58_1_532.txt
2025-07-22, 16:23:58, 1
Index	Phase	Displacement	Time	Pos X	Pos Y	Pos Z	Rot A	Rot B	Piezo Z	Force A	Force B	Gripper	Voltage A	Voltage B	Temperature	Amplitude force	Amplitude pos	Stiffness	Phase shift	Phase excitation	Force A raw	Displacement raw	HMax	HMax raw	Real Force	Real Stiffness	Contact Depth	Area	Hardness	Reduced Mod.
[#]	[#]	[um]	[s]	[um]	[um]	[um]	[m°]	[m°]	[um]	[uN]	[uN]	[V]	[V]	[V]	[°C]	[uN]	[um]	[N/m]	[°]	[°]	[uN]	[um]	[um]	[um]	[uN]	[N/m]	[um]	[um^2]	[MPa]	[MPa]
532	1.000000	0.003051	7.37025e+06	-50489.1	1005.82	-29755.5	0.000000	0.000000	6.002795	-0.057806	NaN	0.000000	0.001643	0.001820	28.0801	0.100526	0.000837	120.094	174.344	-165.531	-0.077081	0.001787	-1.097034	-1.098299	-0.057806	120.094	-1.096673	-4.522791E+14	1.278106E-16	NaN
532	1.000000	0.013105	7.37025e+06	-50489.1	1005.82	-29755.5	0.000000	0.000000	6.012850	-0.023269	NaN	0.000000	0.001672	0.001813	28.0797	0.014016	0.001287	10.8913	-32.0077	20.434	0.006142	0.011692	-1.086980	-1.088393	-0.023269	10.8913	-1.085378	-3.189650E+14	7.295122E-17	NaN
532	1.000000	0.023021	7.37025e+06	-50489.1	1005.82	-29755.5	0.000000	0.000000	6.022765	-0.033052	NaN	0.000000	0.001637	0.001810	28.0799	0.120843	0.001669	72.3917	-173.677	-165.746	0.050865	0.021662	-1.077065	-1.078423	-0.033052	72.3917	-1.076722	-2.440593E+14	1.354253E-16	NaN
532	1.000000	0.032986	7.37025e+06	-50489.1	1005.82	-29755.5	0.000000	0.000000	6.032727	-0.111564	NaN	0.000000	0.001634	0.001804	28.0802	0.040936	0.001752	23.3684	70.9017	18.3297	-0.102885	0.031646	-1.067100	-1.068440	-0.111564	23.3684	-1.063519	-1.622233E+14	6.877204E-16	NaN
532	1.000000	0.042966	7.37025e+06	-50489.1	1005.82	-29755.5	0.000000	0.000000	6.042714	0.038952	NaN	0.000000	0.001622	0.001824	28.0802	0.027479	0.002152	12.7665	124.441	-167.022	0.060464	0.041709	-1.057119	-1.058377	0.038952	12.7665	-1.059407	-1.428428E+14	-2.726879E-16	NaN
532	1.000000	0.052998	7.37025e+06	-50489.1	1005.82	-29755.5	0.000000	0.000000	6.052744	0.009331	NaN	0.000000	0.001559	0.001832	28.0799	0.033088	0.002100	15.7598	126.7	14.7471	0.004226	0.051669	-1.047087	-1.048417	0.009331	15.7598	-1.047531	-9.890732E+13	-9.434334E-17	NaN
532	1.000000	0.063009	7.37025e+06	-50489.1	1005.82	-29755.5	0.000000	0.000000	6.062758	0.058779	NaN	0.000000	0.001573	0.001851	28.0813	0.125902	0.002034	61.9049	-177.015	-162.608	0.097597	0.061687	-1.037076	-1.038398	0.058779	61.9049	-1.037788	-7.315181E+13	-8.035218E-16	NaN
532	1.000000	0.073010	7.37025e+06	-50489.1	1005.82	-29755.5	0.000000	0.000000	6.072755	-0.022893	NaN	0.000000	0.001604	0.001776	28.0815	0.066576	0.001973	33.7482	166.162	15.706	-0.060231	0.071660	-1.027076	-1.028425	-0.022893	33.7482	-1.026567	-5.167722E+13	4.429972E-16	NaN
532	1.000000	0.083021	7.37025e+06	-50489.1	1005.82	-29755.5	0.000000	0.000000	6.082764	-0.065896	NaN	0.000000	0.001599	0.001754	28.0808	0.078789	0.002021	38.9859	-107.349	-163.75	-0.029763	0.081684	-1.017065	-1.018401	-0.065896	38.9859	-1.015797	-3.701678E+13	1.780156E-15	NaN
532	1.000000	0.093013	7.37025e+06	-50489.1	1005.82	-29755.5	0.000000	0.000000	6.092760	0.012483	NaN	0.000000	0.001588	0.001793	28.081	0.079747	0.002100	37.9669	76.5403	17.1089	-0.053031	0.091665	-1.007072	-1.008421	0.012483	37.9669	-1.007319	-2.846388E+13	-4.385723E-16	NaN
532	1.000000	0.103005	7.37025e+06	-50489.1	1005.82	-29755.5	0.000000	0.000000	6.102751	0.005837	NaN	0.000000	0.001556	0.001786	28.0809	0.108887	0.001885	57.7652	106.746	-166.877	-0.019309	0.101728	-0.997080	-0.998358	0.005837	57.7652	-0.997156	-2.077207E+13	-2.809789E-16	NaN
532	1.000000	0.113008	7.37025e+06	-50489.1	1005.82	-29755.5	0.000000	0.000000	6.112754	-0.014540	NaN	0.000000	0.001605	0.001790	28.0809	0.016496	0.002086	7.906560	153.412	15.7001	0.015537	0.111661	-0.987077	-0.988425	-0.014540	7.906560	-0.985698	-1.456021E+13	9.985789E-16	NaN
532	1.000000	0.123029	7.37025e+06	-50489.1	1005.82	-29755.5	0.000000	0.000000	6.122776	0.020660	NaN	0.000000	0.001591	0.001767	28.0811	0.120978	0.001884	64.2257	-169.696	-164.412	0.072997	0.121747	-0.977056	-0.978338	0.020660	64.2257	-0.977297	-1.122012E+13	-1.841355E-15	NaN
532	1.000000	0.133024	7.37025e+06	-50489.1	1005.82	-29755.5	0.000000	0.000000	6.132769	-0.024772	NaN	0.000000	0.001592	0.001788	28.0808	0.099407	0.001831	54.3031	18.1259	14.7151	-0.060817	0.131647	-0.967061	-0.968438	-0.024772	54.3031	-0.966719	-8.080650E+12	3.065575E-15	NaN
532	1.000000	0.143004	7.37025e+06	-50489.1	1005.82	-29755.5	0.000000	0.000000	6.142749	-0.021993	NaN	0.000000	0.001606	0.001778	28.0814	0.069503	0.002070	33.5802	-102.935	-162.306	-0.027942	0.141742	-0.957082	-0.958344	-0.021993	33.5802	-0.956591	-5.900703E+12	3.727245E-15	NaN
532	1.000000	0.153052	7.37025e+06	-50489.1	1005.82	-29755.5	0.000000	0.000000	6.152798	0.003888	NaN	0.000000	0.001636	0.001788	28.0809	0.028457	0.002064	13.785	-41.5358	16.0494	0.018248	0.151694	-0.947033	-0.948392	0.003888	13.785	-0.947245	-4.414344E+12	-8.808160E-16	NaN
532	1.000000	0.163061	7.37025e+06	-50489.1	1005.82	-29755.5	0.000000	0.000000	6.162810	0.084038	NaN	0.000000	0.001600	0.001776	28.081	0.111474	0.001976	56.421	-64.9953	-162.649	0.067768	0.161750	-0.937025	-0.938336	0.084038	56.421	-0.938142	-3.327134E+12	-2.525847E-14	NaN
532	1.000000	0.173072	7.37025e+06	-50489.1	1005.82	-29755.5	0.000000	0.000000	6.172818	0.002074	NaN	0.000000	0.001616	0.001805	28.0809	0.046946	0.002001	23.4626	46.7672	18.2192	-0.048757	0.171708	-0.927014	-0.928377	0.002074	23.4626	-0.927080	-2.359323E+12	-8.789214E-16	NaN
532	1.000000	0.183065	7.37025e+06	-50489.1	1005.82	-29755.5	0.000000	0.000000	6.182809	-0.052512	NaN	0.000000	0.001629	0.001752	28.0811	0.045207	0.002022	22.3611	-22.2731	-163.763	0.011903	0.181806	-0.917020	-0.918279	-0.052512	22.3611	-0.915259	-1.633757E+12	3.214217E-14	NaN
532	1.000000	0.193038	7.37025e+06	-50489.1	1005.82	-29755.5	0.000000	0.000000	6.192783	-0.029461	NaN	0.000000	0.001632	0.001779	28.0799	0.088398	0.001997	44.2639	24.5385	16.485	-0.088788	0.191687	-0.907048	-0.908399	-0.029461	44.2639	-0.906548	-1.246063E+12	2.364345E-14	NaN
532	1.000000	0.203083	7.37025e+06	-50489.1	1005.82	-29755.5	0.000000	0.000000	6.202828	-0.005573	NaN	0.000000	0.001620	0.001784	28.0799	0.081526	0.001985	41.0671	163.917	-163.534	-0.017194	0.201825	-0.897003	-0.898260	-0.005573	41.0671	-0.896901	-9.229731E+11	6.038613E-15	NaN
532	1.000000	0.213060	7.37025e+06	-50489.1	1005.82	-29755.5	0.000000	0.000000	6.212808	0.057222	NaN	0.000000	0.001622	0.001809	28.0801	0.103868	0.001913	54.2907	48.9566	12.7154	0.081920	0.211681	-0.887026	-0.888405	0.057222	54.2907	-0.887816	-6.956536E+11	-8.225657E-14	NaN
532	1.000000	0.223058	7.37025e+06	-50489.1	1005.82	-29755.5	0.000000	0.000000	6.222806	0.056774	NaN	0.000000	0.001598	0.001801	28.0796	0.084128	0.001958	42.9697	-70.1015	-164.133	0.001845	0.221750	-0.877028	-0.878335	0.056774	42.9697	-0.878019	-5.127592E+11	-1.107223E-13	NaN
532	1.000000	0.233055	7.37025e+06	-50489.1	1005.82	-29755.5	0.000000	0.000000	6.232802	0.010185	NaN	0.000000	0.001657	0.001785	28.0797	0.055093	0.001988	27.7167	52.3485	13.5497	-0.010634	0.231720	-0.867030	-0.868365	0.010185	27.7167	-0.867306	-3.672742E+11	-2.773025E-14	NaN
532	1.000000	0.243099	7.37025e+06	-50489.1	1005.82	-29755.5	0.000000	0.000000	6.242844	-0.011055	NaN	0.000000	0.001622	0.001813	28.0796	0.046777	0.001889	24.762	-75.0596	-166.33	0.003581	0.241774	-0.856987	-0.858311	-0.011055	24.762	-0.856652	-2.635127E+11	4.195082E-14	NaN
532	1.000000	0.253103	7.37025e+06	-50489.1	1005.82	-29755.5	0.000000	0.000000	6.252852	0.065025	NaN	0.000000	0.001624	0.001794	28.0798	0.089284	0.001880	47.4995	-43.748	16.2959	2.523328E-5	0.251747	-0.846982	-0.848338	0.065025	47.4995	-0.848009	-2.012675E+11	-3.230788E-13	NaN
532	1.000000	0.263095	7.37025e+06	-50489.1	1005.82	-29755.5	0.000000	0.000000	6.262841	-0.007591	NaN	0.000000	0.001605	0.001763	28.0796	0.091459	0.002020	45.2726	-93.2082	-163.012	0.033645	0.261752	-0.836990	-0.838334	-0.007591	45.2726	-0.836864	-1.421703E+11	5.339640E-14	NaN
532	1.000000	0.273102	7.37025e+06	-50489.1	1005.82	-29755.5	0.000000	0.000000	6.272847	-0.018747	NaN	0.000000	0.001649	0.001807	28.0797	0.064502	0.001936	33.3152	148.942	14.9377	0.029929	0.271736	-0.826984	-0.828349	-0.018747	33.3152	-0.826562	-1.030813E+11	1.818631E-13	NaN
532	1.000000	0.283101	7.37025e+06	-50489.1	1005.82	-29755.5	0.000000	0.000000	6.282845	-0.037282	NaN	0.000000	0.001632	0.001770	28.0799	0.048426	0.001976	24.5012	170.252	-164.956	0.084057	0.281786	-0.816985	-0.818300	-0.037282	24.5012	-0.815843	-7.376323E+10	5.054225E-13	NaN
532	1.000000	0.293091	7.37025e+06	-50489.1	1005.82	-29755.5	0.000000	0.000000	6.292839	0.041373	NaN	0.000000	0.001633	0.001769	28.0801	0.024500	0.001967	12.4571	-54.1533	18.2131	0.040307	0.291738	-0.806994	-0.808347	0.041373	12.4571	-0.809485	-6.047650E+10	-6.841160E-13	NaN
532	1.000000	0.303122	7.37025e+06	-50489.1	1005.82	-29755.5	0.000000	0.000000	6.302868	-0.007749	NaN	0.000000	0.001672	0.001753	28.0798	0.127130	0.002018	62.9953	141.817	-164.124	-0.023171	0.301856	-0.796963	-0.798229	-0.007749	62.9953	-0.796871	-4.077406E+10	1.900499E-13	NaN
532	1.000000	0.313133	7.37025e+06	-50489.1	1005.82	-29755.5	0.000000	0.000000	6.312876	-0.077278	NaN	0.000000	0.001647	0.001762	28.0798	0.065896	0.001973	33.4047	-165.301	14.6109	-0.145385	0.311755	-0.786952	-0.788331	-0.077278	33.4047	-0.785217	-2.832150E+10	2.728586E-12	NaN
532	1.000000	0.323125	7.37025e+06	-50489.1	1005.82	-29755.5	0.000000	0.000000	6.322874	0.071589	NaN	0.000000	0.001598	0.001765	28.08	0.061644	0.001930	31.9332	-35.0305	-164.717	-0.055845	0.321811	-0.776960	-0.778275	0.071589	31.9332	-0.778642	-2.305554E+10	-3.105056E-12	NaN
532	1.000000	0.333113	7.37025e+06	-50489.1	1005.82	-29755.5	0.000000	0.000000	6.332859	0.011522	NaN	0.000000	0.001631	0.001788	28.081	0.011705	0.001911	6.125267	-29.5457	14.0479	-0.046280	0.331798	-0.766973	-0.768288	0.011522	6.125267	-0.768384	-1.672361E+10	-6.889869E-13	NaN
532	1.000000	0.343117	7.37025e+06	-50489.1	1005.82	-29755.5	0.000000	0.000000	6.342862	-0.016125	NaN	0.000000	0.001657	0.001730	28.081	0.097787	0.001991	49.1149	-90.5421	-167.986	0.023218	0.341820	-0.756969	-0.758265	-0.016125	49.1149	-0.756723	-1.160679E+10	1.389299E-12	NaN
532	1.000000	0.353121	7.37025e+06	-50489.1	1005.82	-29755.5	0.000000	0.000000	6.352864	-0.060938	NaN	0.000000	0.001654	0.001740	28.0813	0.060091	0.002069	29.0392	115.481	17.3397	0.009066	0.351724	-0.746965	-0.748361	-0.060938	29.0392	-0.745391	-8.137119E+9	7.488908E-12	NaN
532	1.000000	0.363118	7.37025e+06	-50489.1	1005.82	-29755.5	0.000000	0.000000	6.362863	-0.010194	NaN	0.000000	0.001585	0.001761	28.0811	0.084677	0.001889	44.8357	169.086	-162.086	0.002987	0.361837	-0.736968	-0.738249	-0.010194	44.8357	-0.736797	-6.214786E+9	1.640318E-12	NaN
532	1.000000	0.373160	7.37025e+06	-50489.1	1005.82	-29755.5	0.000000	0.000000	6.372903	-0.052957	NaN	0.000000	0.001555	0.001736	28.0812	0.134758	0.002015	66.8809	-160.653	16.888	-0.032161	0.371760	-0.726926	-0.728325	-0.052957	66.8809	-0.726332	-4.475184E+9	1.183352E-11	NaN
532	1.000000	0.383112	7.37025e+06	-50489.1	1005.82	-29755.5	0.000000	0.000000	6.382858	-0.014486	NaN	0.000000	0.001583	0.001774	28.0811	0.096055	0.002007	47.8547	132.404	-165.16	-0.044722	0.381835	-0.716973	-0.718250	-0.014486	47.8547	-0.716746	-3.312010E+9	4.373905E-12	NaN
532	1.000000	0.393145	7.37025e+06	-50489.1	1005.82	-29755.5	0.000000	0.000000	6.392892	0.010822	NaN	0.000000	0.001578	0.001808	28.0814	0.061755	0.002036	30.3386	62.1025	12.6324	-0.001519	0.391796	-0.706940	-0.708290	0.010822	30.3386	-0.707208	-2.454372E+9	-4.409257E-12	NaN
532	1.000000	0.403152	7.37025e+06	-50489.1	1005.82	-29755.5	0.000000	0.000000	6.402898	0.004074	NaN	0.000000	0.001595	0.001794	28.081	0.030538	0.002007	15.212	101.484	-163.749	-0.019551	0.401835	-0.696933	-0.698251	0.004074	15.212	-0.697134	-1.788085E+9	-2.278294E-12	NaN
532	1.000000	0.413161	7.37025e+06	-50489.1	1005.82	-29755.5	0.000000	0.000000	6.412906	-0.033998	NaN	0.000000	0.001607	0.001793	28.0813	0.060190	0.001946	30.9246	67.1536	11.077	-0.057897	0.411794	-0.686924	-0.688291	-0.033998	30.9246	-0.686100	-1.263603E+9	2.690576E-11	NaN
532	1.000000	0.423140	7.37025e+06	-50489.1	1005.82	-29755.5	0.000000	0.000000	6.422885	-0.034496	NaN	0.000000	0.001558	0.001784	28.0811	0.075467	0.001935	39.0056	-111.107	-164.39	0.022542	0.421891	-0.676945	-0.678194	-0.034496	39.0056	-0.676282	-9.275761E+8	3.718893E-11	NaN
532	1.000000	0.433160	7.37025e+06	-50489.1	1005.82	-29755.5	0.000000	0.000000	6.432908	0.061487	NaN	0.000000	0.001533	0.001797	28.0813	0.109677	0.002005	54.6988	178.94	13.1065	0.063395	0.431793	-0.666926	-0.668293	0.061487	54.6988	-0.667769	-7.093387E+8	-8.668216E-11	NaN
532	1.000000	0.443195	7.37025e+06	-50489.1	1005.82	-29755.5	0.000000	0.000000	6.442940	-0.029770	NaN	0.000000	0.001595	0.001772	28.0812	0.075731	0.002084	36.3456	-159.427	-162.404	-0.047675	0.441810	-0.656890	-0.658276	-0.029770	36.3456	-0.656276	-4.936849E+8	6.030088E-11	NaN
532	1.000000	0.453141	7.37025e+06	-50489.1	1005.82	-29755.5	0.000000	0.000000	6.452884	-0.054522	NaN	0.000000	0.001539	0.001780	28.0814	0.077446	0.002016	38.4086	137.435	16.0962	0.061037	0.451810	-0.646945	-0.648276	-0.054522	38.4086	-0.645880	-3.555884E+8	1.533291E-10	NaN
532	1.000000	0.463184	7.37026e+06	-50489.1	1005.82	-29755.5	0.000000	0.000000	6.462928	-0.057276	NaN	0.000000	0.001558	0.001780	28.0814	0.052889	0.001956	27.0458	-112.337	-167.773	-0.009964	0.461878	-0.636901	-0.638208	-0.057276	27.0458	-0.635313	-2.546654E+8	2.249079E-10	NaN
532	1.000000	0.473203	7.37026e+06	-50489.1	1005.82	-29755.5	0.000000	0.000000	6.472951	0.035324	NaN	0.000000	0.001543	0.001780	28.0801	0.074977	0.001938	38.6832	9.669493	14.708	-0.053354	0.471822	-0.626882	-0.628263	0.035324	38.6832	-0.627567	-1.993456E+8	-1.771976E-10	NaN
532	1.000000	0.483173	7.37026e+06	-50489.1	1005.82	-29755.5	0.000000	0.000000	6.482918	-0.012976	NaN	0.000000	0.001571	0.001748	28.0795	0.178109	0.001973	90.2718	139.274	-166	0.013877	0.481882	-0.616913	-0.618204	-0.012976	90.2718	-0.616805	-1.418104E+8	9.150295E-11	NaN
532	1.000000	0.493181	7.37026e+06	-50489.1	1005.82	-29755.5	0.000000	0.000000	6.492927	0.010855	NaN	0.000000	0.001564	0.001732	28.0803	0.064493	0.001993	32.357	-54.0968	15.8668	-0.024423	0.491810	-0.606904	-0.608276	0.010855	32.357	-0.607156	-1.044672E+8	-1.039084E-10	NaN
532	1.000000	0.503188	7.37026e+06	-50489.1	1005.82	-29755.5	0.000000	0.000000	6.502934	-0.020239	NaN	0.000000	0.001578	0.001714	28.0802	0.074568	0.001864	40.0078	52.2811	-164.597	-0.028573	0.501860	-0.596897	-0.598225	-0.020239	40.0078	-0.596518	-7.455762E+7	2.714596E-10	NaN
532	1.000000	0.513190	7.37026e+06	-50489.1	1005.82	-29755.5	0.000000	0.000000	6.512935	-0.036417	NaN	0.000000	0.001597	0.001703	28.0802	0.012871	0.002104	6.117596	48.3808	17.591	0.009121	0.511823	-0.586895	-0.588262	-0.036417	6.117596	-0.582431	-4.767238E+7	7.638992E-10	NaN
532	1.000000	0.523214	7.37026e+06	-50489.1	1005.82	-29755.5	0.000000	0.000000	6.522957	-0.071835	NaN	0.000000	0.001577	0.001710	28.08	0.065160	0.001907	34.1729	-44.0368	-164.694	-0.077167	0.521911	-0.576871	-0.578175	-0.071835	34.1729	-0.575294	-3.799839E+7	1.890473E-9	NaN
532	1.000000	0.533200	7.37026e+06	-50489.1	1005.82	-29755.5	0.000000	0.000000	6.532943	-0.056143	NaN	0.000000	0.001546	0.001722	28.0803	0.100456	0.001950	51.5054	-128.529	13.2975	-0.019057	0.531865	-0.566886	-0.568221	-0.056143	51.5054	-0.566068	-2.833313E+7	1.981544E-9	NaN
532	1.000000	0.543202	7.37026e+06	-50489.1	1005.82	-29755.5	0.000000	0.000000	6.542947	-0.028585	NaN	0.000000	0.001546	0.001702	28.0804	0.070625	0.002050	34.4464	-143.306	-165.33	-0.035333	0.541882	-0.556883	-0.558204	-0.028585	34.4464	-0.556261	-2.073204E+7	1.378781E-9	NaN
532	1.000000	0.553188	7.37026e+06	-50489.1	1005.82	-29755.5	0.000000	0.000000	6.552935	0.032268	NaN	0.000000	0.001566	0.001746	28.0802	0.060833	0.002030	29.9671	35.8139	17.3678	0.120274	0.551837	-0.546898	-0.548249	0.032268	29.9671	-0.547705	-1.578223E+7	-2.044547E-9	NaN
532	1.000000	0.563231	7.37026e+06	-50489.1	1005.82	-29755.5	0.000000	0.000000	6.562978	0.023405	NaN	0.000000	0.001578	0.001822	28.0799	0.026190	0.002067	12.6689	70.7631	-165.369	0.039820	0.561933	-0.536855	-0.538153	0.023405	12.6689	-0.538240	-1.166675E+7	-2.006087E-9	NaN
532	1.000000	0.573257	7.37026e+06	-50489.1	1005.82	-29755.5	0.000000	0.000000	6.573003	-0.018649	NaN	0.000000	0.001573	0.001760	28.08	0.104019	0.001900	54.7552	51.2722	13.2758	-0.012887	0.571847	-0.526828	-0.528239	-0.018649	54.7552	-0.526573	-8.0346e+06	2.321051E-9	NaN
532	1.000000	0.583222	7.37026e+06	-50489.1	1005.82	-29755.5	0.000000	0.000000	6.582967	-0.016167	NaN	0.000000	0.001556	0.001758	28.08	0.092604	0.001900	48.741	161.449	-162.251	-0.134924	0.581933	-0.516863	-0.518153	-0.016167	48.741	-0.516615	-5.84119e+06	2.767769E-9	NaN
532	1.000000	0.593239	7.37026e+06	-50489.1	1005.82	-29755.5	0.000000	0.000000	6.592983	-0.045591	NaN	0.000000	0.001576	0.001761	28.0799	0.128965	0.001896	68.0277	172.708	14.9972	-0.116772	0.591915	-0.506846	-0.508170	-0.045591	68.0277	-0.506344	-4.20214e+06	1.084957E-8	NaN
532	1.000000	0.603282	7.37026e+06	-50489.1	1005.82	-29755.5	0.000000	0.000000	6.603027	-0.039792	NaN	0.000000	0.001553	0.001782	28.0815	0.069434	0.002072	33.5093	-48.2203	-163.398	-0.062016	0.601870	-0.496803	-0.498216	-0.039792	33.5093	-0.495912	-3.0059e+06	1.323809E-8	NaN
532	1.000000	0.613232	7.37026e+06	-50489.1	1005.82	-29755.5	0.000000	0.000000	6.612976	-0.048623	NaN	0.000000	0.001595	0.001764	28.0812	0.106083	0.002076	51.0892	179.638	16.9267	-0.029782	0.611853	-0.486853	-0.488233	-0.048623	51.0892	-0.486139	-2.19495e+06	2.215201E-8	NaN
532	1.000000	0.623239	7.37026e+06	-50489.1	1005.82	-29755.5	0.000000	0.000000	6.622983	-0.032345	NaN	0.000000	0.001620	0.001794	28.0814	0.063993	0.001972	32.4442	-41.9944	-166.83	0.030582	0.621930	-0.476847	-0.478155	-0.032345	32.4442	-0.476099	-1.58819e+06	2.036621E-8	NaN
532	1.000000	0.633258	7.37026e+06	-50489.1	1005.82	-29755.5	0.000000	0.000000	6.633002	-0.050619	NaN	0.000000	0.001526	0.001799	28.0814	0.064429	0.002010	32.0491	-70.187	19.4689	0.128606	0.631892	-0.466827	-0.468193	-0.050619	32.0491	-0.465643	-1.13311e+06	4.467303E-8	NaN
532	1.000000	0.643233	7.37026e+06	-50489.1	1005.82	-29755.5	0.000000	0.000000	6.642975	-0.083056	NaN	0.000000	0.001541	0.001786	28.0816	0.048090	0.001962	24.5119	-24.4885	-166.077	-0.119850	0.641980	-0.456853	-0.458105	-0.083056	24.5119	-0.454312	-785294	1.057641E-7	NaN
532	1.000000	0.653249	7.37026e+06	-50489.1	1005.82	-29755.5	0.000000	0.000000	6.652992	-0.087067	NaN	0.000000	0.001570	0.001771	28.0811	0.153801	0.002124	72.4252	-116.458	14.9774	-0.122391	0.651901	-0.446836	-0.448185	-0.087067	72.4252	-0.445935	-598506	1.454737E-7	NaN
532	1.000000	0.663270	7.37026e+06	-50489.1	1005.82	-29755.5	0.000000	0.000000	6.663017	0.014503	NaN	0.000000	0.001541	0.001726	28.0812	0.036062	0.002023	17.8236	6.815260	-164.033	0.018996	0.661931	-0.436815	-0.438154	0.014503	17.8236	-0.437426	-453960	-3.194799E-8	NaN
532	1.000000	0.673273	7.37026e+06	-50489.1	1005.82	-29755.5	0.000000	0.000000	6.673017	-0.025297	NaN	0.000000	0.001568	0.001744	28.0811	0.139435	0.001972	70.7037	100.721	15.3073	0.010677	0.671945	-0.426813	-0.428141	-0.025297	70.7037	-0.426545	-318535	7.941827E-8	NaN
532	1.000000	0.683269	7.37026e+06	-50489.1	1005.82	-29755.5	0.000000	0.000000	6.683015	0.003268	NaN	0.000000	0.001576	0.001683	28.0812	0.041619	0.002022	20.5823	33.4723	-163.729	0.047424	0.681893	-0.416816	-0.418193	0.003268	20.5823	-0.416935	-232772	-1.403863E-8	NaN
532	1.000000	0.693273	7.37026e+06	-50489.1	1005.82	-29755.5	0.000000	0.000000	6.693017	-0.037978	NaN	0.000000	0.001553	0.001714	28.0811	0.037903	0.001913	19.8156	-112.128	14.7944	-0.088188	0.691946	-0.406813	-0.408139	-0.037978	19.8156	-0.405376	-159439	2.381984E-7	NaN
532	1.000000	0.703279	7.37026e+06	-50489.1	1005.82	-29755.5	0.000000	0.000000	6.703022	-0.077601	NaN	0.000000	0.001532	0.001717	28.0808	0.041624	0.002018	20.63	66.465	-166.091	-0.017685	0.701963	-0.396806	-0.398123	-0.077601	20.63	-0.393985	-109682	7.075101E-7	NaN
532	1.000000	0.713252	7.37026e+06	-50489.1	1005.82	-29755.5	0.000000	0.000000	6.712993	-0.118104	NaN	0.000000	0.001526	0.001744	28.0812	0.057764	0.001966	29.3812	-36.5901	13.1172	-0.026650	0.711886	-0.386834	-0.388199	-0.118104	29.3812	-0.383819	-78462.6	1.505227E-6	NaN
532	1.000000	0.723250	7.37026e+06	-50489.1	1005.82	-29755.5	0.000000	0.000000	6.722995	-0.023419	NaN	0.000000	0.001576	0.001712	28.081	0.099592	0.002003	49.7117	-159.376	-164.021	-0.035971	0.721978	-0.376835	-0.378108	-0.023419	49.7117	-0.376482	-61570.3	3.803660E-7	NaN
532	1.000000	0.733280	7.37026e+06	-50489.1	1005.82	-29755.5	0.000000	0.000000	6.733024	-0.045245	NaN	0.000000	0.001554	0.001706	28.0809	0.052126	0.001892	27.5519	-30.1069	12.9457	-0.089734	0.731932	-0.366806	-0.368154	-0.045245	27.5519	-0.365574	-42888.1	1.054945E-6	NaN
532	1.000000	0.743295	7.37026e+06	-50489.1	1005.82	-29755.5	0.000000	0.000000	6.743041	-8.054315E-5	NaN	0.000000	0.001559	0.001699	28.0797	0.062813	0.002018	31.1277	-106.225	-165.289	0.073935	0.741973	-0.356790	-0.358112	-8.054315E-5	31.1277	-0.356788	-32017.5	2.515600E-9	NaN
532	1.000000	0.753285	7.37026e+06	-50489.1	1005.82	-29755.5	0.000000	0.000000	6.753032	0.017583	NaN	0.000000	0.001605	0.001736	28.0798	0.023424	0.002057	11.3858	174.897	16.4662	0.001055	0.751963	-0.346800	-0.348123	0.017583	11.3858	-0.347959	-23843.1	-7.374331E-7	NaN
532	1.000000	0.763287	7.37026e+06	-50489.1	1005.82	-29755.5	0.000000	0.000000	6.763031	-0.037361	NaN	0.000000	0.001582	0.001726	28.0797	0.018178	0.001924	9.446861	78.7202	-167.863	-0.083713	0.761983	-0.336799	-0.338103	-0.037361	9.446861	-0.333832	-14843.1	2.517059E-6	NaN
532	1.000000	0.773295	7.37026e+06	-50489.1	1005.82	-29755.5	0.000000	0.000000	6.773040	-0.015597	NaN	0.000000	0.001583	0.001746	28.0799	0.078450	0.001965	39.9252	140.089	15.3273	0.005155	0.771965	-0.326790	-0.328120	-0.015597	39.9252	-0.326497	-11590.8	1.345669E-6	NaN
532	1.000000	0.783301	7.37026e+06	-50489.1	1005.82	-29755.5	0.000000	0.000000	6.783046	-0.020853	NaN	0.000000	0.001560	0.001737	28.08	0.113150	0.001982	57.0905	84.9693	-163.493	-0.099493	0.782025	-0.316785	-0.318061	-0.020853	57.0905	-0.316511	-8264.84	2.523124E-6	NaN
532	1.000000	0.793328	7.37026e+06	-50489.1	1005.82	-29755.5	0.000000	0.000000	6.793071	-0.078117	NaN	0.000000	0.001559	0.001746	28.0799	0.091698	0.001955	46.8972	59.2062	18.9049	-0.060108	0.791937	-0.306757	-0.308148	-0.078117	46.8972	-0.305508	-5681.89	1.374836E-5	NaN
532	1.000000	0.803324	7.37026e+06	-50489.1	1005.82	-29755.5	0.000000	0.000000	6.803068	-0.039527	NaN	0.000000	0.001549	0.001736	28.0797	0.121629	0.001929	63.0399	-141.007	-165.319	-0.018399	0.802036	-0.296762	-0.298049	-0.039527	63.0399	-0.296292	-4143.52	9.539493E-6	NaN
532	1.000000	0.813302	7.37026e+06	-50489.1	1005.82	-29755.5	0.000000	0.000000	6.813048	0.004737	NaN	0.000000	0.001546	0.001726	28.0798	0.047728	0.001919	24.8778	78.2329	11.1404	0.015519	0.811946	-0.286784	-0.288139	0.004737	24.8778	-0.286927	-3000.62	-1.578797E-6	NaN
532	1.000000	0.823332	7.37026e+06	-50489.1	1005.82	-29755.5	0.000000	0.000000	6.823077	-0.006198	NaN	0.000000	0.001558	0.001730	28.08	0.051568	0.001989	25.9291	112.259	-166.297	-0.000779	0.822015	-0.276754	-0.278070	-0.006198	25.9291	-0.276575	-2095.22	2.958192E-6	NaN
532	1.000000	0.833336	7.37026e+06	-50489.1	1005.82	-29755.5	0.000000	0.000000	6.833081	-0.019828	NaN	0.000000	0.001576	0.001703	28.0797	0.034346	0.001912	17.9595	-99.8493	15.3785	0.027125	0.831924	-0.266750	-0.268161	-0.019828	17.9595	-0.265922	-1443.62	1.373476E-5	NaN
532	1.000000	0.843315	7.37026e+06	-50489.1	1005.82	-29755.5	0.000000	0.000000	6.843060	-0.014856	NaN	0.000000	0.001536	0.001722	28.0799	0.074332	0.002077	35.7878	-151.815	-165.359	-0.057462	0.841981	-0.256771	-0.258104	-0.014856	35.7878	-0.256460	-1034.12	1.436562E-5	NaN
532	1.000000	0.853330	7.37026e+06	-50489.1	1005.82	-29755.5	0.000000	0.000000	6.853076	0.009409	NaN	0.000000	0.001533	0.001765	28.0801	0.015183	0.002056	7.383662	-67.6889	15.2442	0.006957	0.851947	-0.246755	-0.248139	0.009409	7.383662	-0.247711	-757.753	-1.241644E-5	NaN
532	1.000000	0.863358	7.37026e+06	-50489.1	1005.82	-29755.5	0.000000	0.000000	6.863104	0.008890	NaN	0.000000	0.001523	0.001735	28.08	0.025267	0.002057	12.2815	-146.326	-163.254	-0.034720	0.862014	-0.236728	-0.238072	0.008890	12.2815	-0.237271	-521.03	-1.706243E-5	NaN
532	1.000000	0.873355	7.37026e+06	-50489.1	1005.82	-29755.5	0.000000	0.000000	6.873099	-0.044739	NaN	0.000000	0.001670	0.001739	28.0799	0.053062	0.001963	27.0302	119.641	17.4548	-0.045400	0.871986	-0.226730	-0.228099	-0.044739	27.0302	-0.225489	-339.704	0.000132	NaN
532	1.000000	0.883343	7.37026e+06	-50489.1	1005.82	-29755.5	0.000000	0.000000	6.883089	0.000688	NaN	0.000000	0.001641	0.001751	28.0812	0.112133	0.002054	54.5981	160.269	-164.795	0.005576	0.882027	-0.216743	-0.218058	0.000688	54.5981	-0.216752	-246.415	-2.793490E-6	NaN
532	1.000000	0.893349	7.37026e+06	-50489.1	1005.82	-29755.5	0.000000	0.000000	6.893096	0.023754	NaN	0.000000	0.001651	0.001756	28.0814	0.020902	0.002003	10.4336	-164.686	15.6846	0.096393	0.891979	-0.206736	-0.208106	0.023754	10.4336	-0.208444	-180.964	-0.000131	NaN
532	1.000000	0.903343	7.37026e+06	-50489.1	1005.82	-29755.5	0.000000	0.000000	6.903088	-0.020901	NaN	0.000000	0.001658	0.001736	28.0811	0.079325	0.002017	39.3376	-79.3515	-166.378	0.023408	0.901997	-0.196742	-0.198089	-0.020901	39.3376	-0.196344	-114.667	0.000182	NaN
532	1.000000	0.913371	7.37026e+06	-50489.1	1005.82	-29755.5	0.000000	0.000000	6.913116	-0.003565	NaN	0.000000	0.001657	0.001777	28.0813	0.142351	0.002086	68.2328	-138.118	15.6065	-0.012020	0.912029	-0.186715	-0.188057	-0.003565	68.2328	-0.186676	-79.1282	4.505884E-5	NaN
532	1.000000	0.923335	7.37026e+06	-50489.1	1005.82	-29755.5	0.000000	0.000000	6.923084	0.062462	NaN	0.000000	0.001672	0.001750	28.0814	0.047771	0.001975	24.1851	-159.287	-164.567	0.070639	0.921992	-0.176750	-0.178093	0.062462	24.1851	-0.178687	-57.9566	-0.001078	NaN
532	1.000000	0.933367	7.37026e+06	-50489.1	1005.82	-29755.5	0.000000	0.000000	6.933108	-0.123595	NaN	0.000000	0.001631	0.001756	28.0812	0.017112	0.002121	8.067422	166.473	15.0242	-0.111829	0.931988	-0.166718	-0.168097	-0.123595	8.067422	-0.155228	-22.526	0.005487	NaN
532	1.000000	0.943353	7.37026e+06	-50489.1	1005.82	-29755.5	0.000000	0.000000	6.943099	0.005040	NaN	0.000000	0.001667	0.001755	28.0813	0.035740	0.002091	17.0953	-167.378	-160.933	0.022097	0.942107	-0.156733	-0.157979	0.005040	17.0953	-0.156954	-24.1911	-0.000208	NaN
532	1.000000	0.953369	7.37026e+06	-50489.1	1005.82	-29755.5	0.000000	0.000000	6.953113	-0.056722	NaN	0.000000	0.001655	0.001721	28.0813	0.145827	0.001840	79.2523	99.8498	14.0623	-0.052572	0.952052	-0.146717	-0.148034	-0.056722	79.2523	-0.146180	-15.4155	0.003680	NaN
532	1.000000	0.963354	7.37026e+06	-50489.1	1005.82	-29755.5	0.000000	0.000000	6.963098	-0.050364	NaN	0.000000	0.001636	0.001720	28.0814	0.102402	0.002036	50.2955	24.936	-163.758	-0.089504	0.962130	-0.136731	-0.137955	-0.050364	50.2955	-0.135980	-9.930603	0.005072	NaN
532	1.000000	0.973396	7.37026e+06	-50489.1	1005.82	-29755.5	0.000000	0.000000	6.973138	-0.084443	NaN	0.000000	0.001571	0.001774	28.0811	0.090458	0.002086	43.3652	-128.369	16.5934	-0.085168	0.972015	-0.126690	-0.128070	-0.084443	43.3652	-0.125230	-6.145171	0.013741	NaN
532	1.000000	0.983397	7.37026e+06	-50489.1	1005.82	-29755.5	0.000000	0.000000	6.983140	-0.059366	NaN	0.000000	0.001596	0.001719	28.081	0.092203	0.001946	47.3695	23.7565	-164.596	-0.093245	0.982051	-0.116689	-0.118035	-0.059366	47.3695	-0.115749	-3.958401	0.014997	NaN
532	1.000000	0.993353	7.37026e+06	-50489.1	1005.82	-29755.5	0.000000	0.000000	6.993098	-0.044554	NaN	0.000000	0.001592	0.001734	28.0813	0.097116	0.001997	48.6392	52.5157	14.9948	0.013993	0.991993	-0.106732	-0.108092	-0.044554	48.6392	-0.106045	-2.475659	0.017997	NaN
532	1.000000	1.003408	7.37026e+06	-50489.1	1005.82	-29755.5	0.000000	0.000000	7.003153	-0.041177	NaN	0.000000	0.001603	0.001726	28.0814	0.029758	0.001998	14.8903	-69.2703	-170.251	-0.067647	1.002065	-0.096677	-0.098021	-0.041177	14.8903	-0.094603	-1.381525	0.029806	NaN
532	1.000000	1.013378	7.37026e+06	-50489.1	1005.82	-29755.5	0.000000	0.000000	7.013123	-0.031300	NaN	0.000000	0.001610	0.001713	28.0799	0.026073	0.002036	12.8042	-104.523	14.2899	0.039235	1.011987	-0.086707	-0.088098	-0.031300	12.8042	-0.084874	-0.815874	0.038364	NaN
532	1.000000	1.023419	7.37026e+06	-50489.1	1005.82	-29755.5	0.000000	0.000000	7.023163	-0.044189	NaN	0.000000	0.001599	0.001752	28.0799	0.043342	0.002021	21.4463	26.2965	-164.087	0.021250	1.022135	-0.076667	-0.077950	-0.044189	21.4463	-0.075122	-0.465227	0.094984	NaN
532	1.000000	1.033387	7.37026e+06	-50489.1	1005.82	-29755.5	0.000000	0.000000	7.033135	0.050277	NaN	0.000000	0.001582	0.001771	28.0799	0.132468	0.002062	64.2424	-128.606	16.0288	0.033287	1.032021	-0.066698	-0.068065	0.050277	64.2424	-0.067285	-0.288052	-0.174542	NaN
532	1.000000	1.043383	7.37026e+06	-50489.1	1005.82	-29755.5	0.000000	0.000000	7.043129	0.014957	NaN	0.000000	0.001595	0.001742	28.0801	0.034602	0.001896	18.2514	-141.883	-169.309	0.000147	1.042064	-0.056703	-0.058021	0.014957	18.2514	-0.057317	-0.150624	-0.099303	NaN
532	1.000000	1.053387	7.37026e+06	-50489.1	1005.82	-29755.5	0.000000	0.000000	7.053131	-0.053682	NaN	0.000000	0.001618	0.001683	28.0798	0.010742	0.002127	5.051179	-131.694	15.0263	-0.052928	1.052103	-0.046698	-0.047983	-0.053682	5.051179	-0.038728	-0.041381	1.297240	NaN
532	1.000000	1.063418	7.37026e+06	-50489.1	1005.82	-29755.5	0.000000	0.000000	7.063163	-0.027736	NaN	0.000000	0.001577	0.001697	28.0798	0.075255	0.002023	37.2047	80.6434	-164.303	-0.106656	1.062092	-0.036668	-0.037993	-0.027736	37.2047	-0.036108	-0.034536	0.803102	NaN
532	1.000000	1.073447	7.37026e+06	-50489.1	1005.82	-29755.5	0.000000	0.000000	7.073192	-0.022717	NaN	0.000000	0.001607	0.001710	28.08	0.229429	0.002008	114.275	111.919	17.9024	-0.025851	1.072131	-0.026638	-0.027955	-0.022717	114.275	-0.026489	-0.018466	1.230226	NaN
532	1.000000	1.083424	7.37026e+06	-50489.1	1005.82	-29755.5	0.000000	0.000000	7.083172	0.049002	NaN	0.000000	0.001596	0.001740	28.0798	0.022325	0.001935	11.5355	-174.614	-165.147	0.032554	1.082094	-0.016661	-0.017991	0.049002	11.5355	-0.019847	-0.012449	-3.936229	NaN
532	1.000000	1.093449	7.37026e+06	-50489.1	1005.82	-29755.5	0.000000	0.000000	7.093194	-0.016689	NaN	0.000000	0.001591	0.001732	28.0801	0.087586	0.001929	45.3983	172.062	19.4365	0.047180	1.092126	-0.006637	-0.007960	-0.016689	45.3983	-0.006361	-0.004256	3.921311	NaN
532	1.000000	1.103427	7.37026e+06	-50489.1	1005.82	-29755.5	0.000000	0.000000	7.103417	5.951545	NaN	0.000000	0.001585	0.001747	28.08	6.507580	0.001808	3599.69	19.7966	-173.744	5.608605	1.102108	0.003341	0.002023	5.951545	3599.69	0.002101	0.001637	3635.88	81288.3
532	2.000000	1.108488	7.37026e+06	-50489.1	1005.82	-29755.5	0.000000	0.000000	7.108673	10.6723	NaN	0.000000	0.001587	0.001729	28.08	11.0126	0.001610	6840.05	6.628900	5.734571	9.587373	1.108133	0.008403	0.008048	10.6723	6840.05	0.007233	0.006265	1703.51	78954.1
532	2.000000	1.110936	7.37026e+06	-50489.1	1005.82	-29755.5	0.000000	0.000000	7.111279	14.5174	NaN	0.000000	0.001563	0.001706	28.0799	14.2841	0.001789	7986.53	11.2249	-176.35	15.1794	1.110659	0.010851	0.010574	14.5174	7986.53	0.009487	0.008617	1684.68	78604.1
532	2.000000	1.113472	7.37026e+06	-50489.1	1005.82	-29755.5	0.000000	0.000000	7.114027	19.6717	NaN	0.000000	0.001563	0.001687	28.0799	16.4718	0.001599	10301.1	2.238779	9.621653	18.7997	1.113159	0.013387	0.013074	19.6717	10301.1	0.011954	0.011435	1720.23	88009.4
532	2.000000	1.115932	7.37026e+06	-50489.1	1005.82	-29755.5	0.000000	0.000000	7.116710	25.1022	NaN	0.000000	0.001539	0.001736	28.0802	19.5873	0.001748	11208.5	6.538813	-176.415	25.0687	1.115643	0.015847	0.015557	25.1022	11208.5	0.014167	0.014191	1768.93	85964.6
532	2.000000	1.118382	7.37026e+06	-50489.1	1005.82	-29755.5	0.000000	0.000000	7.119476	32.7846	NaN	0.000000	0.001598	0.001717	28.0812	22.2623	0.001742	12782.3	1.985737	5.877949	30.6155	1.118045	0.018296	0.017959	32.7846	12782.3	0.016372	0.017159	1910.6	89152.3
532	2.000000	1.120941	7.37026e+06	-50489.1	1005.82	-29755.5	0.000000	0.000000	7.122152	35.6253	NaN	0.000000	0.001595	0.001723	28.0811	25.2011	0.001898	13279.2	1.689941	-173.602	35.2507	1.120723	0.020855	0.020637	35.6253	13279.2	0.018843	0.020757	1716.31	84209.8
532	2.000000	1.123451	7.37026e+06	-50489.1	1005.82	-29755.5	0.000000	0.000000	7.125196	48.6163	NaN	0.000000	0.001581	0.001732	28.0813	27.1949	0.001699	16005.3	3.104673	4.477363	49.933	1.122991	0.023366	0.022905	48.6163	16005.3	0.021088	0.024280	2002.28	93844.4
532	2.000000	1.125898	7.37026e+06	-50489.1	1005.82	-29755.5	0.000000	0.000000	7.127902	54.9296	NaN	0.000000	0.001550	0.001764	28.0815	30.5668	0.001883	16233.7	6.811413	-179.101	54.4739	1.125568	0.025812	0.025482	54.9296	16233.7	0.023274	0.027951	1965.2	88713.9
532	2.000000	1.128399	7.37026e+06	-50489.1	1005.82	-29755.5	0.000000	0.000000	7.130550	58.5089	NaN	0.000000	0.001587	0.001727	28.0811	33.2732	0.001754	18967.9	5.439737	-1.918388	57.2692	1.128091	0.028313	0.028006	58.5089	18967.9	0.026000	0.032859	1780.6	95601.3
532	2.000000	1.130854	7.37026e+06	-50489.1	1005.82	-29755.5	0.000000	0.000000	7.133344	66.7347	NaN	0.000000	0.001542	0.001754	28.0812	36.0954	0.001749	20637	4.962802	178.605	65.8835	1.130657	0.030768	0.030572	66.7347	20637	0.028343	0.037379	1785.33	97522.3
532	2.000000	1.133380	7.37026e+06	-50489.1	1005.82	-29755.5	0.000000	0.000000	7.136272	76.4928	NaN	0.000000	0.001539	0.001723	28.0812	37.246	0.001777	20958.3	3.918419	0.406429	74.4818	1.132912	0.033295	0.032826	76.4928	20958.3	0.030557	0.041907	1825.29	93537.3
532	2.000000	1.135845	7.37026e+06	-50489.1	1005.82	-29755.5	0.000000	0.000000	7.139063	84.441	NaN	0.000000	0.001540	0.001742	28.0815	39.8784	0.001966	20281.8	7.706484	176.65	82.8531	1.135475	0.035759	0.035390	84.441	20281.8	0.032637	0.046386	1820.39	86037.2
532	2.000000	1.138340	7.37026e+06	-50489.1	1005.82	-29755.5	0.000000	0.000000	7.141873	92.0971	NaN	0.000000	0.001533	0.001761	28.0812	42.5765	0.001934	22016.1	5.200425	-2.166716	90.5592	1.138051	0.038255	0.037966	92.0971	22016.1	0.035117	0.052020	1770.42	88192.2
532	2.000000	1.140797	7.37026e+06	-50489.1	1005.82	-29755.5	0.000000	0.000000	7.144883	105.551	NaN	0.000000	0.001516	0.001773	28.081	43.8013	0.001766	24799.6	3.077774	178.616	102.026	1.140521	0.040711	0.040435	105.551	24799.6	0.037519	0.057774	1826.96	94265.3
532	2.000000	1.143367	7.37026e+06	-50489.1	1005.82	-29755.5	0.000000	0.000000	7.147701	111.568	NaN	0.000000	0.001569	0.001716	28.0812	45.8149	0.001808	25336	4.318997	-1.959311	109.876	1.143039	0.043281	0.042954	111.568	25336	0.039979	0.063974	1743.96	91518.7
532	2.000000	1.145841	7.37026e+06	-50489.1	1005.82	-29755.5	0.000000	0.000000	7.150613	122.229	NaN	0.000000	0.001603	0.001693	28.0813	47.745	0.001690	28256	2.891254	178.737	121.314	1.145483	0.045755	0.045397	122.229	28256	0.042511	0.070679	1729.36	97104.4
532	2.000000	1.148289	7.37026e+06	-50489.1	1005.82	-29755.5	0.000000	0.000000	7.153412	130.771	NaN	0.000000	0.001586	0.001745	28.0812	50.5229	0.001878	26902.8	4.022584	-2.357033	126.127	1.148005	0.048203	0.047920	130.771	26902.8	0.044557	0.076336	1713.1	88962.4
532	2.000000	1.150782	7.37026e+06	-50489.1	1005.82	-29755.5	0.000000	0.000000	7.156551	146.476	NaN	0.000000	0.001574	0.001736	28.0812	52.5781	0.001766	29780.6	5.288273	174.387	144.011	1.150520	0.050697	0.050434	146.476	29780.6	0.047008	0.083389	1756.54	94222.1
532	2.000000	1.153282	7.37026e+06	-50489.1	1005.82	-29755.5	0.000000	0.000000	7.159620	160.319	NaN	0.000000	0.001585	0.001717	28.0801	53.3083	0.001804	29549.3	6.135906	-5.667127	155.092	1.152881	0.053196	0.052795	160.319	29549.3	0.049127	0.089734	1786.6	90124.5
532	2.000000	1.155956	7.37026e+06	-50489.1	1005.82	-29755.5	0.000000	0.000000	7.162468	164.535	NaN	0.000000	0.001628	0.001733	28.0799	56.0257	0.001735	32285.1	5.874222	174.527	171.073	1.155539	0.055871	0.055453	164.535	32285.1	0.052048	0.098850	1664.49	93818.5
532	2.000000	1.158318	7.37026e+06	-50489.1	1005.82	-29755.5	0.000000	0.000000	7.165520	181.316	NaN	0.000000	0.001610	0.001741	28.0799	58.7709	0.001757	33441.7	3.432397	-3.806007	177.417	1.157870	0.058232	0.057784	181.316	33441.7	0.054166	0.105724	1715	93967
532	2.000000	1.160794	7.37026e+06	-50489.1	1005.82	-29755.5	0.000000	0.000000	7.168445	192.217	NaN	0.000000	0.001615	0.001713	28.08	62.5754	0.001865	33560.3	4.649200	174.496	189.952	1.160538	0.060709	0.060452	192.217	33560.3	0.056413	0.113262	1697.1	91108.1
532	2.000000	1.163329	7.37026e+06	-50489.1	1005.82	-29755.5	0.000000	0.000000	7.171527	205.52	NaN	0.000000	0.001590	0.001716	28.08	64.1628	0.001757	36523.3	3.426401	-3.946435	203.504	1.163064	0.063244	0.062978	205.52	36523.3	0.059023	0.122330	1680.05	95406.4
532	2.000000	1.165763	7.37026e+06	-50489.1	1005.82	-29755.5	0.000000	0.000000	7.174707	223.684	NaN	0.000000	0.001609	0.001723	28.08	66.0014	0.001764	37422.5	1.412218	177.151	220.13	1.165474	0.065677	0.065389	223.684	37422.5	0.061194	0.130126	1718.98	94781.6
532	2.000000	1.168220	7.37026e+06	-50489.1	1005.82	-29755.5	0.000000	0.000000	7.177672	236.024	NaN	0.000000	0.001535	0.001728	28.0799	69.0598	0.001811	38136.1	5.013003	-6.537996	230.606	1.167972	0.068135	0.067886	236.024	38136.1	0.063493	0.138631	1702.54	93579.1
532	2.000000	1.170859	7.37026e+06	-50489.1	1005.82	-29755.5	0.000000	0.000000	7.180795	247.797	NaN	0.000000	0.001572	0.001713	28.0804	71.2842	0.001794	39737.2	5.184965	173.926	248.589	1.170543	0.070773	0.070457	247.797	39737.2	0.066096	0.148572	1667.85	94189.2
532	2.000000	1.173354	7.37026e+06	-50489.1	1005.82	-29755.5	0.000000	0.000000	7.183950	263.869	NaN	0.000000	0.001570	0.001747	28.0799	72.8588	0.001789	40734.7	4.669139	-6.050668	262.621	1.172995	0.073268	0.072910	263.869	40734.7	0.068410	0.157679	1673.46	93723.8
532	2.000000	1.175814	7.37026e+06	-50489.1	1005.82	-29755.5	0.000000	0.000000	7.186680	270.402	NaN	0.000000	0.001573	0.001750	28.08	74.4056	0.001774	41948.4	0.906246	176.411	268.863	1.175592	0.075729	0.075506	270.402	41948.4	0.070894	0.167745	1611.99	93575.9
532	2.000000	1.178425	7.37026e+06	-50489.1	1005.82	-29755.5	0.000000	0.000000	7.190211	292.806	NaN	0.000000	0.001600	0.001699	28.08	78.4191	0.001759	44590.3	6.687322	-8.296059	298.542	1.177796	0.078339	0.077710	292.806	44590.3	0.073414	0.178254	1642.63	96492.7
532	2.000000	1.180698	7.37026e+06	-50489.1	1005.82	-29755.5	0.000000	0.000000	7.193321	313.13	NaN	0.000000	0.001571	0.001692	28.08	80.9177	0.001694	47754.2	3.368662	173.464	307.5	1.180468	0.080613	0.080382	313.13	47754.2	0.075695	0.188024	1665.38	100619
532	2.000000	1.183309	7.37026e+06	-50489.1	1005.82	-29755.5	0.000000	0.000000	7.196696	331.726	NaN	0.000000	0.001569	0.001735	28.08	83.9179	0.001895	44292.5	8.285541	-10.4539	328.699	1.182943	0.083223	0.082858	331.726	44292.5	0.077606	0.196399	1689.04	91313.3
532	2.000000	1.185821	7.37026e+06	-50489.1	1005.82	-29755.5	0.000000	0.000000	7.199841	347.138	NaN	0.000000	0.001553	0.001748	28.0813	86.7529	0.001887	45964.2	8.742545	168.615	348.719	1.185420	0.085735	0.085334	347.138	45964.2	0.080071	0.207450	1673.36	92201.1
532	2.000000	1.188222	7.37026e+06	-50489.1	1005.82	-29755.5	0.000000	0.000000	7.202918	363.569	NaN	0.000000	0.001592	0.001756	28.0815	88.9345	0.001824	48755.2	6.608971	-10.1922	358.564	1.187997	0.088136	0.087911	363.569	48755.2	0.082544	0.218823	1661.47	95224.2
532	2.000000	1.190827	7.37026e+06	-50489.1	1005.82	-29755.5	0.000000	0.000000	7.206293	382.277	NaN	0.000000	0.001583	0.001722	28.0813	91.9046	0.001925	47747.6	6.898238	170.101	384.784	1.190584	0.090742	0.090498	382.277	47747.6	0.084737	0.229149	1668.25	91130.9
532	2.000000	1.193356	7.37026e+06	-50489.1	1005.82	-29755.5	0.000000	0.000000	7.209370	395.594	NaN	0.000000	0.001591	0.001722	28.0813	92.4362	0.001799	51372.5	3.459549	-6.948810	394.99	1.193071	0.093271	0.092985	395.594	51372.5	0.087495	0.242448	1631.66	95322.3
532	2.000000	1.195676	7.37026e+06	-50489.1	1005.82	-29755.5	0.000000	0.000000	7.212777	422.056	NaN	0.000000	0.001591	0.001756	28.0812	93.3942	0.001663	56159.1	3.163956	172.825	416.94	1.195340	0.095590	0.095255	422.056	56159.1	0.089954	0.254597	1657.74	101687
532	2.000000	1.198293	7.37026e+06	-50489.1	1005.82	-29755.5	0.000000	0.000000	7.215908	434.541	NaN	0.000000	0.001656	0.001765	28.0813	99.3312	0.001880	52839.9	5.654191	-10.0978	432.373	1.197945	0.098207	0.097859	434.541	52839.9	0.092040	0.265124	1639.01	93758.5
532	2.000000	1.200717	7.37026e+06	-50489.1	1005.82	-29755.5	0.000000	0.000000	7.219201	455.671	NaN	0.000000	0.001668	0.001764	28.0811	99.8462	0.001738	57463.3	2.498822	173.296	452.844	1.200501	0.100632	0.100416	455.671	57463.3	0.094684	0.278756	1634.66	99437.9
532	2.000000	1.203299	7.37026e+06	-50489.1	1005.82	-29755.5	0.000000	0.000000	7.222846	481.528	NaN	0.000000	0.001640	0.001744	28.0811	102.616	0.001831	56029.6	6.861583	-11.4524	479.685	1.202933	0.103214	0.102847	481.528	56029.6	0.096768	0.289720	1662.05	95104.6
532	2.000000	1.205364	7.37026e+06	-50489.1	1005.82	-29755.5	0.000000	0.000000	7.225430	494.142	NaN	0.000000	0.001633	0.001766	28.0815	103.535	0.001779	58212.5	5.262185	-9.455966	497.311	1.204841	0.105279	0.104755	494.142	58212.5	0.098912	0.301211	1640.52	96906.8