File: remote_trans/data/nanoindenter/0828-1/data/Data_2025-08-06,11h17m57s/2025-07-22_16-23-58_1_728.txt
2025-07-22, 16:23:58, 1
Index	Phase	Displacement	Time	Pos X	Pos Y	Pos Z	Rot A	Rot B	Piezo Z	Force A	Force B	Gripper	Voltage A	Voltage B	Temperature	Amplitude force	Amplitude pos	Stiffness	Phase shift	Phase excitation	Force A raw	Displacement raw	HMax	HMax raw	Real Force	Real Stiffness	Contact Depth	Area	Hardness	Reduced Mod.
[#]	[#]	[um]	[s]	[um]	[um]	[um]	[m°]	[m°]	[um]	[uN]	[uN]	[V]	[V]	[V]	[°C]	[uN]	[um]	[N/m]	[°]	[°]	[uN]	[um]	[um]	[um]	[uN]	[N/m]	[um]	[um^2]	[MPa]	[MPa]
728	1.000000	0.002079	7.37218e+06	-40689.1	1005.82	-29789	0.000000	0.000000	6.002787	0.072328	NaN	0.000000	0.001634	0.001820	28.0833	0.053299	0.000938	56.7952	-63.3845	-169.663	0.029504	0.000824	-1.110837	-1.112091	0.072328	56.7952	-1.111792	-7.216583E+14	-1.002244E-16	NaN
728	1.000000	0.012142	7.37218e+06	-40689.1	1005.82	-29789	0.000000	0.000000	6.012847	-0.001102	NaN	0.000000	0.001625	0.001780	28.0832	0.099286	0.001355	73.2883	179.315	17.9771	0.042615	0.010754	-1.100774	-1.102162	-0.001102	73.2883	-1.100762	-5.132165E+14	2.146847E-18	NaN
728	1.000000	0.022042	7.37218e+06	-40689.1	1005.82	-29789	0.000000	0.000000	6.022749	0.067016	NaN	0.000000	0.001651	0.001786	28.0829	0.048307	0.001805	26.7669	-65.1653	-170.797	-0.012279	0.020739	-1.090874	-1.092176	0.067016	26.7669	-1.092752	-4.006458E+14	-1.672703E-16	NaN
728	1.000000	0.032057	7.37218e+06	-40689.1	1005.82	-29789	0.000000	0.000000	6.032767	0.123710	NaN	0.000000	0.001585	0.001821	28.0833	0.038832	0.001897	20.468	-153.369	16.1085	0.083471	0.030680	-1.080859	-1.082236	0.123710	20.468	-1.085392	-3.191062E+14	-3.876762E-16	NaN
728	1.000000	0.042042	7.37218e+06	-40689.1	1005.82	-29789	0.000000	0.000000	6.042750	0.079992	NaN	0.000000	0.001570	0.001736	28.0835	0.003682	0.001829	2.012872	34.7736	-165.382	0.132498	0.040694	-1.070874	-1.072222	0.079992	2.012872	-1.100679	-5.118993E+14	-1.562651E-16	NaN
728	1.000000	0.052023	7.37218e+06	-40689.1	1005.82	-29789	0.000000	0.000000	6.052730	0.048243	NaN	0.000000	0.001598	0.001778	28.0832	0.132096	0.001898	69.6106	-81.12	10.6336	0.097332	0.050683	-1.060893	-1.062233	0.048243	69.6106	-1.061412	-1.519855E+14	-3.174215E-16	NaN
728	1.000000	0.062040	7.37218e+06	-40689.1	1005.82	-29789	0.000000	0.000000	6.062746	0.039353	NaN	0.000000	0.001598	0.001772	28.0834	0.054879	0.002150	25.5246	125.27	-167.757	0.078911	0.060761	-1.050876	-1.052154	0.039353	25.5246	-1.052032	-1.136926E+14	-3.461365E-16	NaN
728	1.000000	0.072056	7.37218e+06	-40689.1	1005.82	-29789	0.000000	0.000000	6.072761	-0.016624	NaN	0.000000	0.001623	0.001808	28.0832	0.079970	0.001961	40.7782	49.799	12.1789	0.006451	0.070687	-1.040859	-1.042229	-0.016624	40.7782	-1.040554	-7.969133E+13	2.086077E-16	NaN
728	1.000000	0.082051	7.37218e+06	-40689.1	1005.82	-29789	0.000000	0.000000	6.082757	0.023256	NaN	0.000000	0.001606	0.001788	28.0834	0.093542	0.002113	44.2732	-157.057	-167.16	-0.048785	0.080733	-1.030865	-1.032182	0.023256	44.2732	-1.031259	-5.976019E+13	-3.891632E-16	NaN
728	1.000000	0.092063	7.37218e+06	-40689.1	1005.82	-29789	0.000000	0.000000	6.092770	0.043747	NaN	0.000000	0.001619	0.001822	28.0832	0.055525	0.002088	26.5882	82.3022	13.0111	0.145519	0.090650	-1.020853	-1.022265	0.043747	26.5882	-1.022087	-4.498102E+13	-9.725688E-16	NaN
728	1.000000	0.102036	7.37218e+06	-40689.1	1005.82	-29789	0.000000	0.000000	6.102739	-0.039098	NaN	0.000000	0.001720	0.001806	28.082	0.039166	0.001994	19.6405	2.623268	-166.068	-0.027024	0.100754	-1.010880	-1.012161	-0.039098	19.6405	-1.009387	-3.034811E+13	1.288301E-15	NaN
728	1.000000	0.112087	7.37218e+06	-40689.1	1005.82	-29789	0.000000	0.000000	6.112795	0.057576	NaN	0.000000	0.001669	0.001810	28.0821	0.034032	0.002138	15.9186	-175.082	12.9329	-0.019797	0.110687	-1.000828	-1.002229	0.057576	15.9186	-1.003541	-2.531859E+13	-2.274068E-15	NaN
728	1.000000	0.122060	7.37218e+06	-40689.1	1005.82	-29789	0.000000	0.000000	6.122765	0.015177	NaN	0.000000	0.001701	0.001799	28.0821	0.036270	0.002077	17.4621	89.2341	-166.016	0.025775	0.120816	-0.990856	-0.992099	0.015177	17.4621	-0.991508	-1.743490E+13	-8.704735E-16	NaN
728	1.000000	0.132096	7.37218e+06	-40689.1	1005.82	-29789	0.000000	0.000000	6.132802	0.024029	NaN	0.000000	0.001687	0.001800	28.0821	0.154876	0.001970	78.6024	-0.341124	18.3113	-0.047267	0.130731	-0.980820	-0.982184	0.024029	78.6024	-0.981049	-1.260514E+13	-1.906272E-15	NaN
728	1.000000	0.142098	7.37218e+06	-40689.1	1005.82	-29789	0.000000	0.000000	6.142805	0.040108	NaN	0.000000	0.001707	0.001792	28.0821	0.083802	0.002013	41.6338	-41.9677	-166.966	-0.035124	0.140760	-0.970817	-0.972155	0.040108	41.6338	-0.971540	-9.384599E+12	-4.273836E-15	NaN
728	1.000000	0.152077	7.37218e+06	-40689.1	1005.82	-29789	0.000000	0.000000	6.152784	0.027586	NaN	0.000000	0.001654	0.001817	28.082	0.026412	0.001962	13.4629	-149.308	12.7249	-0.052120	0.150737	-0.960838	-0.962178	0.027586	13.4629	-0.962375	-7.061325E+12	-3.906660E-15	NaN
728	1.000000	0.162079	7.37218e+06	-40689.1	1005.82	-29789	0.000000	0.000000	6.162786	0.048089	NaN	0.000000	0.001688	0.001804	28.0819	0.039244	0.001962	20.0059	-108.658	-165.404	-0.008643	0.160797	-0.950836	-0.952118	0.048089	20.0059	-0.952639	-5.219358E+12	-9.213595E-15	NaN
728	1.000000	0.172072	7.37218e+06	-40689.1	1005.82	-29789	0.000000	0.000000	6.172779	0.062309	NaN	0.000000	0.001667	0.001830	28.0822	0.086480	0.002071	41.7494	-4.104242	10.9148	0.060418	0.170745	-0.940844	-0.942171	0.062309	41.7494	-0.941963	-3.746471E+12	-1.663135E-14	NaN
728	1.000000	0.182131	7.37218e+06	-40689.1	1005.82	-29789	0.000000	0.000000	6.182838	0.048082	NaN	0.000000	0.001672	0.001804	28.0824	0.034495	0.001972	17.4926	96.3397	-166.819	0.078473	0.180818	-0.930785	-0.932097	0.048082	17.4926	-0.932846	-2.822364E+12	-1.703623E-14	NaN
728	1.000000	0.192113	7.37218e+06	-40689.1	1005.82	-29789	0.000000	0.000000	6.192818	0.007775	NaN	0.000000	0.001650	0.001748	28.0824	0.108434	0.002012	53.8993	103.541	10.8088	0.083007	0.190745	-0.920803	-0.922170	0.007775	53.8993	-0.920911	-1.947640E+12	-3.991932E-15	NaN
728	1.000000	0.202109	7.37218e+06	-40689.1	1005.82	-29789	0.000000	0.000000	6.202815	0.027746	NaN	0.000000	0.001680	0.001787	28.0824	0.045334	0.001930	23.4887	77.817	-163.988	0.031694	0.200808	-0.910807	-0.912108	0.027746	23.4887	-0.911693	-1.462268E+12	-1.897456E-14	NaN
728	1.000000	0.212112	7.37218e+06	-40689.1	1005.82	-29789	0.000000	0.000000	6.212820	0.062172	NaN	0.000000	0.001668	0.001790	28.0822	0.103354	0.002011	51.3826	164.585	14.3453	0.077763	0.210721	-0.900804	-0.902195	0.062172	51.3826	-0.901711	-1.071981E+12	-5.799735E-14	NaN
728	1.000000	0.222088	7.37218e+06	-40689.1	1005.82	-29789	0.000000	0.000000	6.222794	0.023061	NaN	0.000000	0.001676	0.001798	28.0824	0.113021	0.001954	57.8272	-149.021	-166.625	0.002997	0.220798	-0.890827	-0.892117	0.023061	57.8272	-0.891126	-7.711521E+11	-2.990414E-14	NaN
728	1.000000	0.232129	7.37218e+06	-40689.1	1005.82	-29789	0.000000	0.000000	6.232833	-0.011692	NaN	0.000000	0.001666	0.001755	28.083	0.049776	0.002001	24.8752	89.8013	16.1395	-0.075665	0.230739	-0.880787	-0.882177	-0.011692	24.8752	-0.880434	-5.528157E+11	2.114940E-14	NaN
728	1.000000	0.242119	7.37218e+06	-40689.1	1005.82	-29789	0.000000	0.000000	6.242826	0.055308	NaN	0.000000	0.001696	0.001739	28.0835	0.099154	0.002076	47.7672	9.552764	-164.35	0.033009	0.240820	-0.870797	-0.872096	0.055308	47.7672	-0.871665	-4.206966E+11	-1.314670E-13	NaN
728	1.000000	0.252135	7.37218e+06	-40689.1	1005.82	-29789	0.000000	0.000000	6.252840	0.004411	NaN	0.000000	0.001680	0.001722	28.0832	0.039716	0.002031	19.5548	116.267	13.9155	0.023698	0.250716	-0.860781	-0.862199	0.004411	19.5548	-0.860950	-3.012832E+11	-1.464096E-14	NaN
728	1.000000	0.262151	7.37218e+06	-40689.1	1005.82	-29789	0.000000	0.000000	6.262859	0.074705	NaN	0.000000	0.001657	0.001751	28.0831	0.073983	0.001815	40.7578	-11.3945	-167.812	0.077600	0.260787	-0.850765	-0.852128	0.074705	40.7578	-0.852139	-2.289314E+11	-3.263212E-13	NaN
728	1.000000	0.272127	7.37218e+06	-40689.1	1005.82	-29789	0.000000	0.000000	6.272832	0.013642	NaN	0.000000	0.001694	0.001741	28.0832	0.096216	0.002078	46.2923	165.923	13.5639	0.051748	0.270733	-0.840789	-0.842183	0.013642	46.2923	-0.841010	-1.617982E+11	-8.431294E-14	NaN
728	1.000000	0.282144	7.37218e+06	-40689.1	1005.82	-29789	0.000000	0.000000	6.282853	0.073978	NaN	0.000000	0.001684	0.001735	28.0832	0.053220	0.002142	24.8477	-133.344	-168.724	0.004051	0.280842	-0.830771	-0.832074	0.073978	24.8477	-0.833004	-1.260373E+11	-5.869551E-13	NaN
728	1.000000	0.292129	7.37218e+06	-40689.1	1005.82	-29789	0.000000	0.000000	6.292835	0.016659	NaN	0.000000	0.001666	0.001708	28.0834	0.113047	0.002002	56.4796	-126.744	15.2495	0.028665	0.290745	-0.820787	-0.822170	0.016659	56.4796	-0.821008	-8.667225E+10	-1.922039E-13	NaN
728	1.000000	0.302147	7.37218e+06	-40689.1	1005.82	-29789	0.000000	0.000000	6.302853	0.016451	NaN	0.000000	0.001624	0.001695	28.0834	0.074586	0.002123	35.1249	-49.6395	-166.556	0.049917	0.300871	-0.810769	-0.812044	0.016451	35.1249	-0.811120	-6.364530E+10	-2.584762E-13	NaN
728	1.000000	0.312147	7.37218e+06	-40689.1	1005.82	-29789	0.000000	0.000000	6.312854	0.059999	NaN	0.000000	0.001705	0.001692	28.0833	0.110949	0.002100	52.8391	20.5683	13.523	0.088515	0.310774	-0.800769	-0.802141	0.059999	52.8391	-0.801621	-4.729991E+10	-1.268477E-12	NaN
728	1.000000	0.322157	7.37218e+06	-40689.1	1005.82	-29789	0.000000	0.000000	6.322862	0.008880	NaN	0.000000	0.001688	0.001736	28.0832	0.023759	0.001973	12.0408	-17.4437	-167.151	0.031364	0.320845	-0.790759	-0.792071	0.008880	12.0408	-0.791312	-3.426907E+10	-2.591383E-13	NaN
728	1.000000	0.332184	7.37218e+06	-40689.1	1005.82	-29789	0.000000	0.000000	6.332891	0.062967	NaN	0.000000	0.001663	0.001682	28.0838	0.051546	0.002070	24.8993	86.7303	12.6405	-0.039465	0.330758	-0.780732	-0.782158	0.062967	24.8993	-0.782629	-2.611853E+10	-2.410824E-12	NaN
728	1.000000	0.342186	7.37218e+06	-40689.1	1005.82	-29789	0.000000	0.000000	6.342891	0.012589	NaN	0.000000	0.001693	0.001689	28.0833	0.094357	0.001904	49.5574	45.6141	-165.27	-0.059318	0.340800	-0.770730	-0.772116	0.012589	49.5574	-0.770920	-1.810585E+10	-6.953055E-13	NaN
728	1.000000	0.352175	7.37218e+06	-40689.1	1005.82	-29789	0.000000	0.000000	6.352884	0.078378	NaN	0.000000	0.001652	0.001704	28.0837	0.145826	0.002059	70.8095	-136.403	15.2737	0.033847	0.350822	-0.760740	-0.762094	0.078378	70.8095	-0.761570	-1.351029E+10	-5.801337E-12	NaN
728	1.000000	0.362174	7.37218e+06	-40689.1	1005.82	-29789	0.000000	0.000000	6.362882	0.080432	NaN	0.000000	0.001669	0.001676	28.0835	0.141864	0.001841	77.0657	-94.264	-164.942	0.072979	0.360895	-0.750742	-0.752021	0.080432	77.0657	-0.751524	-9.862078E+9	-8.155645E-12	NaN
728	1.000000	0.372176	7.37218e+06	-40689.1	1005.82	-29789	0.000000	0.000000	6.372885	0.083512	NaN	0.000000	0.001673	0.001691	28.0826	0.017167	0.001993	8.615100	11.4267	12.9993	0.048585	0.370793	-0.740739	-0.742122	0.083512	8.615100	-0.748010	-8.833362E+9	-9.454147E-12	NaN
728	1.000000	0.382186	7.37218e+06	-40689.1	1005.82	-29789	0.000000	0.000000	6.382889	-0.033823	NaN	0.000000	0.001664	0.001670	28.0821	0.037659	0.001970	19.1181	-130.437	-167.449	0.082368	0.380854	-0.730730	-0.732062	-0.033823	19.1181	-0.729403	-4.928011E+9	6.863493E-12	NaN
728	1.000000	0.392176	7.37218e+06	-40689.1	1005.82	-29789	0.000000	0.000000	6.392882	0.032592	NaN	0.000000	0.001697	0.001696	28.082	0.104621	0.001979	52.8768	-108.502	12.176	0.014288	0.390793	-0.720740	-0.722123	0.032592	52.8768	-0.721202	-3.809500E+9	-8.555558E-12	NaN
728	1.000000	0.402195	7.37218e+06	-40689.1	1005.82	-29789	0.000000	0.000000	6.402905	0.121091	NaN	0.000000	0.001668	0.001708	28.0821	0.053687	0.002036	26.3652	138.643	-165.543	0.035207	0.400912	-0.710721	-0.712003	0.121091	26.3652	-0.714166	-3.054129E+9	-3.964833E-11	NaN
728	1.000000	0.412202	7.37218e+06	-40689.1	1005.82	-29789	0.000000	0.000000	6.412908	0.027946	NaN	0.000000	0.001686	0.001697	28.082	0.012304	0.002128	5.781396	15.8675	13.8819	0.037912	0.410858	-0.700714	-0.702057	0.027946	5.781396	-0.704339	-2.242727E+9	-1.246057E-11	NaN
728	1.000000	0.422211	7.37218e+06	-40689.1	1005.82	-29789	0.000000	0.000000	6.422918	0.053642	NaN	0.000000	0.001674	0.001713	28.082	0.048240	0.001959	24.6272	-20.9424	-166.517	-0.006888	0.420912	-0.690705	-0.692003	0.053642	24.6272	-0.692338	-1.537703E+9	-3.488459E-11	NaN
728	1.000000	0.432227	7.37218e+06	-40689.1	1005.82	-29789	0.000000	0.000000	6.432933	0.020454	NaN	0.000000	0.001684	0.001694	28.0819	0.067270	0.002075	32.4268	-35.449	13.7084	0.045019	0.430837	-0.680689	-0.682078	0.020454	32.4268	-0.681162	-1.081668E+9	-1.890966E-11	NaN
728	1.000000	0.442216	7.37218e+06	-40689.1	1005.82	-29789	0.000000	0.000000	6.442922	0.026646	NaN	0.000000	0.001651	0.001675	28.0823	0.027932	0.001938	14.4122	68.5811	-165.794	0.031103	0.440884	-0.670700	-0.672031	0.026646	14.4122	-0.672086	-8.127190E+8	-3.278563E-11	NaN
728	1.000000	0.452225	7.37218e+06	-40689.1	1005.82	-29789	0.000000	0.000000	6.452929	-0.045362	NaN	0.000000	0.001679	0.001698	28.0821	0.153017	0.002088	73.3005	-140.38	14.4433	-0.060297	0.450872	-0.660690	-0.662044	-0.045362	73.3005	-0.660226	-5.591964E+8	8.111970E-11	NaN
728	1.000000	0.462196	7.37218e+06	-40689.1	1005.82	-29789	0.000000	0.000000	6.462901	-0.004318	NaN	0.000000	0.001676	0.001704	28.0822	0.089397	0.001928	46.3668	-166.823	-168.256	0.056817	0.460822	-0.650720	-0.652094	-0.004318	46.3668	-0.650650	-4.133778E+8	1.044514E-11	NaN
728	1.000000	0.472233	7.37218e+06	-40689.1	1005.82	-29789	0.000000	0.000000	6.472941	0.090644	NaN	0.000000	0.001654	0.001701	28.0822	0.030695	0.001986	15.4528	8.687661	13.6534	0.099580	0.470847	-0.640683	-0.642069	0.090644	15.4528	-0.645082	-3.467425E+8	-2.614155E-10	NaN
728	1.000000	0.482236	7.37218e+06	-40689.1	1005.82	-29789	0.000000	0.000000	6.482943	0.040144	NaN	0.000000	0.001639	0.001704	28.0824	0.026974	0.001956	13.788	-88.6954	-170.159	0.005314	0.480865	-0.630680	-0.632051	0.040144	13.788	-0.632863	-2.356887E+8	-1.703276E-10	NaN
728	1.000000	0.492239	7.37218e+06	-40689.1	1005.82	-29789	0.000000	0.000000	6.492948	0.091385	NaN	0.000000	0.001641	0.001704	28.0824	0.104154	0.001985	52.4777	123.085	13.9574	0.061249	0.490843	-0.620677	-0.622073	0.091385	52.4777	-0.621983	-1.670651E+8	-5.470010E-10	NaN
728	1.000000	0.502236	7.37218e+06	-40689.1	1005.82	-29789	0.000000	0.000000	6.502944	0.054161	NaN	0.000000	0.001633	0.001668	28.0822	0.052635	0.001967	26.7547	-104.3	-165.05	0.072379	0.500936	-0.610679	-0.611980	0.054161	26.7547	-0.612198	-1.225592E+8	-4.419162E-10	NaN
728	1.000000	0.512239	7.37218e+06	-40689.1	1005.82	-29789	0.000000	0.000000	6.512945	0.026124	NaN	0.000000	0.001689	0.001680	28.0835	0.050579	0.001917	26.3832	96.3846	13.3439	0.034180	0.510892	-0.600676	-0.602024	0.026124	26.3832	-0.601419	-8.709634E+7	-2.999411E-10	NaN
728	1.000000	0.522236	7.37218e+06	-40689.1	1005.82	-29789	0.000000	0.000000	6.522941	0.000609	NaN	0.000000	0.001662	0.001718	28.0836	0.125469	0.001940	64.691	14.5425	-167.713	0.063034	0.520901	-0.590680	-0.592015	0.000609	64.691	-0.590687	-6.196402E+7	-9.833404E-12	NaN
728	1.000000	0.532211	7.37218e+06	-40689.1	1005.82	-29789	0.000000	0.000000	6.532917	0.028782	NaN	0.000000	0.001666	0.001705	28.0835	0.029314	0.002006	14.6104	-63.5347	18.3572	0.074872	0.530869	-0.580704	-0.582047	0.028782	14.6104	-0.582182	-4.729722E+7	-6.085362E-10	NaN
728	1.000000	0.542232	7.37218e+06	-40689.1	1005.82	-29789	0.000000	0.000000	6.542936	-0.004081	NaN	0.000000	0.001658	0.001709	28.0832	0.032785	0.001983	16.5374	-156.475	-165.1	-0.012041	0.540943	-0.570684	-0.571973	-0.004081	16.5374	-0.570499	-3.262312E+7	1.250960E-10	NaN
728	1.000000	0.552277	7.37218e+06	-40689.1	1005.82	-29789	0.000000	0.000000	6.552980	-0.037085	NaN	0.000000	0.001660	0.001722	28.0834	0.056100	0.002004	27.9964	-104.661	17.3189	-0.050062	0.550903	-0.560639	-0.562012	-0.037085	27.9964	-0.559646	-2.309272E+7	1.605910E-9	NaN
728	1.000000	0.562263	7.37218e+06	-40689.1	1005.82	-29789	0.000000	0.000000	6.562972	0.078672	NaN	0.000000	0.001654	0.001725	28.0835	0.060501	0.002007	30.1406	-140.689	-167.533	0.037296	0.560967	-0.550652	-0.551949	0.078672	30.1406	-0.552610	-1.845432E+7	-4.263042E-9	NaN
728	1.000000	0.572263	7.37218e+06	-40689.1	1005.82	-29789	0.000000	0.000000	6.572967	-0.021283	NaN	0.000000	0.001675	0.001706	28.0831	0.048048	0.002102	22.8533	-98.0748	12.5331	0.030161	0.570942	-0.540653	-0.541974	-0.021283	22.8533	-0.539954	-1.232312E+7	1.727053E-9	NaN
728	1.000000	0.582257	7.37218e+06	-40689.1	1005.82	-29789	0.000000	0.000000	6.582965	0.071743	NaN	0.000000	0.001671	0.001714	28.0831	0.035971	0.001916	18.7762	-115.039	-168.448	0.092906	0.580975	-0.530658	-0.531940	0.071743	18.7762	-0.533524	-1.003475E+7	-7.149492E-9	NaN
728	1.000000	0.592255	7.37218e+06	-40689.1	1005.82	-29789	0.000000	0.000000	6.592962	0.035220	NaN	0.000000	0.001644	0.001708	28.0837	0.048643	0.001965	24.7585	139.304	12.0835	-0.046900	0.590902	-0.520660	-0.522014	0.035220	24.7585	-0.521727	-6.88042e+06	-5.118876E-9	NaN
728	1.000000	0.602268	7.37218e+06	-40689.1	1005.82	-29789	0.000000	0.000000	6.602975	0.037378	NaN	0.000000	0.001667	0.001668	28.0838	0.103404	0.002101	49.2165	53.5991	-163.408	-0.005679	0.600962	-0.510647	-0.511953	0.037378	49.2165	-0.511217	-4.91321e+06	-7.607585E-9	NaN
728	1.000000	0.612263	7.37218e+06	-40689.1	1005.82	-29789	0.000000	0.000000	6.612965	-0.059753	NaN	0.000000	0.001653	0.001708	28.0833	0.026497	0.001987	13.3337	-138.762	13.7904	0.015613	0.610911	-0.500653	-0.502005	-0.059753	13.3337	-0.497292	-3.14218e+06	1.901647E-8	NaN
728	1.000000	0.622288	7.37218e+06	-40689.1	1005.82	-29789	0.000000	0.000000	6.622993	-0.001073	NaN	0.000000	0.001656	0.001754	28.0834	0.054502	0.001981	27.5124	-47.2031	-168.153	0.055649	0.620974	-0.490628	-0.491942	-0.001073	27.5124	-0.490599	-2.53373e+06	4.235037E-10	NaN
728	1.000000	0.632287	7.37218e+06	-40689.1	1005.82	-29789	0.000000	0.000000	6.632992	0.000427	NaN	0.000000	0.001656	0.001710	28.0835	0.041246	0.001950	21.1572	-134.566	16.5436	-0.027455	0.630959	-0.480629	-0.481956	0.000427	21.1572	-0.480644	-1.83885e+06	-2.322770E-10	NaN
728	1.000000	0.642266	7.37218e+06	-40689.1	1005.82	-29789	0.000000	0.000000	6.642972	0.033094	NaN	0.000000	0.001673	0.001743	28.0823	0.060290	0.001924	31.3372	48.101	-166.771	0.002537	0.640987	-0.470650	-0.471929	0.033094	31.3372	-0.471442	-1.36656e+06	-2.421700E-8	NaN
728	1.000000	0.652308	7.37218e+06	-40689.1	1005.82	-29789	0.000000	0.000000	6.653010	-0.073700	NaN	0.000000	0.001617	0.001745	28.0821	0.020134	0.002011	10.014	-69.2007	13.8478	-0.091833	0.650928	-0.460608	-0.461987	-0.073700	10.014	-0.455088	-805294	9.151968E-8	NaN
728	1.000000	0.662328	7.37218e+06	-40689.1	1005.82	-29789	0.000000	0.000000	6.663034	0.035784	NaN	0.000000	0.001673	0.001755	28.0821	0.086792	0.002025	42.865	37.8873	-166.243	0.019056	0.660999	-0.450588	-0.451917	0.035784	42.865	-0.451214	-710295	-5.037897E-8	NaN
728	1.000000	0.672292	7.37218e+06	-40689.1	1005.82	-29789	0.000000	0.000000	6.672999	0.035844	NaN	0.000000	0.001639	0.001747	28.0822	0.157396	0.002092	75.2361	-157.099	13.4194	0.037677	0.670908	-0.440623	-0.442008	0.035844	75.2361	-0.440981	-509567	-7.034292E-8	NaN
728	1.000000	0.682301	7.37218e+06	-40689.1	1005.82	-29789	0.000000	0.000000	6.683004	-0.043802	NaN	0.000000	0.001689	0.001738	28.0821	0.058835	0.001997	29.4607	155.61	-167.449	-0.035810	0.680996	-0.430615	-0.431920	-0.043802	29.4607	-0.429500	-350737	1.248856E-7	NaN
728	1.000000	0.692305	7.37218e+06	-40689.1	1005.82	-29789	0.000000	0.000000	6.693011	0.029231	NaN	0.000000	0.001691	0.001726	28.0821	0.061598	0.002018	30.5183	58.0898	13.7028	0.085831	0.690939	-0.420611	-0.421977	0.029231	30.5183	-0.421329	-268696	-1.087885E-7	NaN
728	1.000000	0.702323	7.37218e+06	-40689.1	1005.82	-29789	0.000000	0.000000	6.703030	0.042162	NaN	0.000000	0.001696	0.001735	28.0823	0.068010	0.001909	35.6302	13.3469	-168.421	0.020118	0.700990	-0.410592	-0.411925	0.042162	35.6302	-0.411480	-194734	-2.165130E-7	NaN
728	1.000000	0.712317	7.37218e+06	-40689.1	1005.82	-29789	0.000000	0.000000	6.713024	0.051491	NaN	0.000000	0.001698	0.001689	28.0822	0.026593	0.002073	12.8271	-101.522	15.3362	0.034768	0.710926	-0.400599	-0.401990	0.051491	12.8271	-0.403609	-150467	-3.422059E-7	NaN
728	1.000000	0.722298	7.37218e+06	-40689.1	1005.82	-29789	0.000000	0.000000	6.723005	0.043951	NaN	0.000000	0.001761	0.001696	28.0822	0.077099	0.002128	36.2255	-39.9731	-165.217	0.002554	0.721056	-0.390617	-0.391859	0.043951	36.2255	-0.391527	-101160	-4.344660E-7	NaN
728	1.000000	0.732332	7.37218e+06	-40689.1	1005.82	-29789	0.000000	0.000000	6.733037	0.012031	NaN	0.000000	0.001751	0.001696	28.0823	0.108359	0.001971	54.9687	130.442	14.3295	0.030750	0.730946	-0.380584	-0.381970	0.012031	54.9687	-0.380748	-70896.1	-1.696947E-7	NaN
728	1.000000	0.742286	7.37218e+06	-40689.1	1005.82	-29789	0.000000	0.000000	6.742995	0.077633	NaN	0.000000	0.001698	0.001722	28.0825	0.055641	0.001982	28.0756	-172.16	-163.042	0.011730	0.740972	-0.370629	-0.371943	0.077633	28.0756	-0.372703	-54329.7	-1.428920E-6	NaN
728	1.000000	0.752301	7.37218e+06	-40689.1	1005.82	-29789	0.000000	0.000000	6.753011	0.112626	NaN	0.000000	0.001728	0.001729	28.0823	0.161805	0.002017	80.2174	-63.7593	11.4912	0.039746	0.751001	-0.360615	-0.361915	0.112626	80.2174	-0.361668	-37665.7	-2.990157E-6	NaN
728	1.000000	0.762346	7.37218e+06	-40689.1	1005.82	-29789	0.000000	0.000000	6.763049	-0.041655	NaN	0.000000	0.001738	0.001703	28.0821	0.050509	0.001908	26.4679	-13.9669	-167.455	-0.055503	0.761070	-0.350570	-0.351846	-0.041655	26.4679	-0.349390	-25011.6	1.665427E-6	NaN
728	1.000000	0.772344	7.37218e+06	-40689.1	1005.82	-29789	0.000000	0.000000	6.773050	0.006204	NaN	0.000000	0.001797	0.001722	28.0824	0.089882	0.002067	43.4871	-167.571	15.0072	0.019940	0.770980	-0.340571	-0.341936	0.006204	43.4871	-0.340678	-18682.7	-3.320674E-7	NaN
728	1.000000	0.782360	7.37218e+06	-40689.1	1005.82	-29789	0.000000	0.000000	6.783066	0.013406	NaN	0.000000	0.001781	0.001735	28.0836	0.090881	0.001944	46.7404	83.1696	-164.949	0.041458	0.781016	-0.330555	-0.331900	0.013406	46.7404	-0.330770	-13388.4	-1.001302E-6	NaN
728	1.000000	0.792350	7.37218e+06	-40689.1	1005.82	-29789	0.000000	0.000000	6.793055	0.007213	NaN	0.000000	0.001771	0.001701	28.0837	0.058671	0.002078	28.2393	-26.0843	10.2796	0.027490	0.790994	-0.320566	-0.321921	0.007213	28.2393	-0.320757	-9545.14	-7.556524E-7	NaN
728	1.000000	0.802342	7.37218e+06	-40689.1	1005.82	-29789	0.000000	0.000000	6.803045	-0.047028	NaN	0.000000	0.001759	0.001705	28.0832	0.075630	0.001998	37.8621	117.799	-167.368	-0.028009	0.801044	-0.310573	-0.311871	-0.047028	37.8621	-0.309642	-6542.64	7.188001E-6	NaN
728	1.000000	0.812360	7.37218e+06	-40689.1	1005.82	-29789	0.000000	0.000000	6.813070	0.117904	NaN	0.000000	0.001752	0.001717	28.0838	0.026270	0.001992	13.1847	113.081	15.1024	0.020047	0.811045	-0.300556	-0.301871	0.117904	13.1847	-0.307263	-6032.74	-1.954404E-5	NaN
728	1.000000	0.822389	7.37218e+06	-40689.1	1005.82	-29789	0.000000	0.000000	6.823094	0.016949	NaN	0.000000	0.001687	0.001719	28.0831	0.052886	0.002081	25.4137	-46.2032	-163.805	0.013087	0.821035	-0.290527	-0.291880	0.016949	25.4137	-0.291027	-3456.88	-4.902925E-6	NaN
728	1.000000	0.832361	7.37218e+06	-40689.1	1005.82	-29789	0.000000	0.000000	6.833068	0.067261	NaN	0.000000	0.001661	0.001760	28.0838	0.103156	0.002008	51.365	9.817657	12.2905	0.111857	0.831043	-0.280555	-0.281873	0.067261	51.365	-0.281537	-2489.7	-2.701584E-5	NaN
728	1.000000	0.842376	7.37218e+06	-40689.1	1005.82	-29789	0.000000	0.000000	6.843083	0.052155	NaN	0.000000	0.001671	0.001698	28.0832	0.033248	0.001943	17.1109	-106.147	-166.329	0.029607	0.841126	-0.270539	-0.271790	0.052155	17.1109	-0.272825	-1838.43	-2.836911E-5	NaN
728	1.000000	0.852395	7.37218e+06	-40689.1	1005.82	-29789	0.000000	0.000000	6.853101	0.020871	NaN	0.000000	0.001670	0.001718	28.0838	0.096660	0.001886	51.2412	-93.4986	14.5131	-0.009857	0.851033	-0.260521	-0.261883	0.020871	51.2412	-0.260826	-1206.63	-1.729676E-5	NaN
728	1.000000	0.862377	7.37218e+06	-40689.1	1005.82	-29789	0.000000	0.000000	6.863082	-0.009001	NaN	0.000000	0.001668	0.001709	28.0834	0.087246	0.001975	44.1784	-118.993	-165.814	0.043236	0.861085	-0.250538	-0.251830	-0.009001	44.1784	-0.250385	-833.542	1.079889E-5	NaN
728	1.000000	0.872400	7.37218e+06	-40689.1	1005.82	-29789	0.000000	0.000000	6.873108	0.068324	NaN	0.000000	0.001723	0.001727	28.0837	0.071450	0.002035	35.11	65.5605	11.4485	0.066195	0.871017	-0.240516	-0.241899	0.068324	35.11	-0.241975	-617.123	-0.000111	NaN
728	1.000000	0.882375	7.37218e+06	-40689.1	1005.82	-29789	0.000000	0.000000	6.883082	0.058063	NaN	0.000000	0.001739	0.001708	28.0834	0.025701	0.002064	12.4516	-59.1905	-167.471	0.069469	0.881082	-0.230541	-0.231833	0.058063	12.4516	-0.234038	-463.59	-0.000125	NaN
728	1.000000	0.892377	7.37218e+06	-40689.1	1005.82	-29789	0.000000	0.000000	6.893083	0.023051	NaN	0.000000	0.001670	0.001747	28.0834	0.090005	0.001939	46.4213	3.686788	10.6985	0.087270	0.891002	-0.220538	-0.221913	0.023051	46.4213	-0.220911	-287.224	-8.025291E-5	NaN
728	1.000000	0.902386	7.37218e+06	-40689.1	1005.82	-29789	0.000000	0.000000	6.903095	0.102803	NaN	0.000000	0.001691	0.001760	28.0833	0.041138	0.001884	21.8355	-178.392	-171.003	0.043690	0.901111	-0.210530	-0.211805	0.102803	21.8355	-0.214061	-223.049	-0.000461	NaN
728	1.000000	0.912380	7.37218e+06	-40689.1	1005.82	-29789	0.000000	0.000000	6.913085	0.011442	NaN	0.000000	0.001680	0.001722	28.0834	0.071134	0.002006	35.4641	113.346	12.1624	-0.071046	0.910989	-0.200536	-0.201927	0.011442	35.4641	-0.200778	-135.666	-8.433894E-5	NaN
728	1.000000	0.922374	7.37218e+06	-40689.1	1005.82	-29789	0.000000	0.000000	6.923080	0.016308	NaN	0.000000	0.001669	0.001743	28.0824	0.103116	0.002025	50.917	94.5692	-168.186	0.007932	0.921071	-0.190542	-0.191845	0.016308	50.917	-0.190782	-92.7003	-0.000176	NaN
728	1.000000	0.932378	7.37218e+06	-40689.1	1005.82	-29789	0.000000	0.000000	6.933082	-0.032091	NaN	0.000000	0.001661	0.001761	28.0822	0.180953	0.002052	88.1913	106.92	13.5567	-0.012338	0.931067	-0.180538	-0.181848	-0.032091	88.1913	-0.180265	-61.6554	0.000520	NaN
728	1.000000	0.942395	7.37218e+06	-40689.1	1005.82	-29789	0.000000	0.000000	6.943101	0.036488	NaN	0.000000	0.001724	0.001742	28.082	0.090226	0.001969	45.8207	2.470830	-164.971	0.031675	0.941060	-0.170521	-0.171855	0.036488	45.8207	-0.171118	-42.9545	-0.000849	NaN
728	1.000000	0.952416	7.37218e+06	-40689.1	1005.82	-29789	0.000000	0.000000	6.953123	0.031668	NaN	0.000000	0.001686	0.001757	28.0822	0.111446	0.001976	56.3911	22.2229	14.1098	0.066857	0.951070	-0.160499	-0.161846	0.031668	56.3911	-0.160920	-28.4658	-0.001112	NaN
728	1.000000	0.962428	7.37218e+06	-40689.1	1005.82	-29789	0.000000	0.000000	6.963134	0.022890	NaN	0.000000	0.001701	0.001721	28.0823	0.098700	0.001963	50.2685	40.7454	-165.674	0.113274	0.961127	-0.150487	-0.151789	0.022890	50.2685	-0.150829	-18.7543	-0.001220	NaN
728	1.000000	0.972419	7.37218e+06	-40689.1	1005.82	-29789	0.000000	0.000000	6.973124	-0.000599	NaN	0.000000	0.001681	0.001699	28.0821	0.023742	0.001998	11.8847	-61.872	11.8792	0.040848	0.971056	-0.140497	-0.141860	-0.000599	11.8847	-0.140459	-12.0665	4.965992E-5	NaN
728	1.000000	0.982425	7.37218e+06	-40689.1	1005.82	-29789	0.000000	0.000000	6.983132	0.063884	NaN	0.000000	0.001705	0.001732	28.082	0.142996	0.002094	68.2768	81.8313	-165.423	0.036057	0.981108	-0.130491	-0.131808	0.063884	68.2768	-0.131193	-8.037680	-0.007948	NaN
728	1.000000	0.992435	7.37218e+06	-40689.1	1005.82	-29789	0.000000	0.000000	6.993140	0.007432	NaN	0.000000	0.001702	0.001731	28.0822	0.004460	0.002036	2.190378	-115.779	11.1866	0.010448	0.991077	-0.120481	-0.121839	0.007432	2.190378	-0.123025	-5.556120	-0.001338	NaN
728	1.000000	1.002427	7.37218e+06	-40689.1	1005.82	-29789	0.000000	0.000000	7.003133	0.029960	NaN	0.000000	0.001681	0.001744	28.082	0.036036	0.002001	18.0094	-147.548	-164.124	0.043591	1.001105	-0.110489	-0.111811	0.029960	18.0094	-0.111736	-3.268424	-0.009167	NaN
728	1.000000	1.012421	7.37218e+06	-40689.1	1005.82	-29789	0.000000	0.000000	7.013128	0.044525	NaN	0.000000	0.001692	0.001775	28.0822	0.118220	0.001956	60.4334	72.5791	13.3878	0.004121	1.011093	-0.100494	-0.101822	0.044525	60.4334	-0.101047	-1.927136	-0.023104	NaN
728	1.000000	1.022445	7.37218e+06	-40689.1	1005.82	-29789	0.000000	0.000000	7.023150	0.015881	NaN	0.000000	0.001689	0.001754	28.0822	0.094009	0.001906	49.3274	171.664	-166.492	0.048948	1.021153	-0.090471	-0.091762	0.015881	49.3274	-0.090712	-1.123296	-0.014138	NaN
728	1.000000	1.032457	7.37218e+06	-40689.1	1005.82	-29789	0.000000	0.000000	7.033162	-0.007620	NaN	0.000000	0.001744	0.001759	28.0824	0.064572	0.002082	31.0185	26.0317	12.4882	0.040426	1.031096	-0.080458	-0.081819	-0.007620	31.0185	-0.080274	-0.628834	0.012117	NaN
728	1.000000	1.042414	7.37218e+06	-40689.1	1005.82	-29789	0.000000	0.000000	7.043118	-0.023011	NaN	0.000000	0.001761	0.001747	28.0821	0.116149	0.002166	53.6283	122.446	-165.157	0.001199	1.041079	-0.070501	-0.071837	-0.023011	53.6283	-0.070180	-0.344906	0.066716	NaN
728	1.000000	1.052453	7.37218e+06	-40689.1	1005.82	-29789	0.000000	0.000000	7.053157	-0.037087	NaN	0.000000	0.001745	0.001741	28.0832	0.016852	0.001914	8.804737	-105.27	12.7365	-0.057717	1.051108	-0.060462	-0.061807	-0.037087	8.804737	-0.057303	-0.150480	0.246457	NaN
728	1.000000	1.062461	7.37218e+06	-40689.1	1005.82	-29789	0.000000	0.000000	7.063168	0.037049	NaN	0.000000	0.001708	0.001732	28.0834	0.054477	0.001996	27.2923	-171.111	-167.868	0.110021	1.061164	-0.050454	-0.051751	0.037049	27.2923	-0.051472	-0.101074	-0.366551	NaN
728	1.000000	1.072464	7.37218e+06	-40689.1	1005.82	-29789	0.000000	0.000000	7.073170	0.024496	NaN	0.000000	0.001723	0.001740	28.0835	0.133012	0.001984	67.0423	0.774650	11.3076	0.000337	1.071081	-0.040451	-0.041835	0.024496	67.0423	-0.040725	-0.047578	-0.514852	NaN
728	1.000000	1.082453	7.37218e+06	-40689.1	1005.82	-29789	0.000000	0.000000	7.083159	0.029343	NaN	0.000000	0.001649	0.001717	28.0835	0.057127	0.001924	29.6862	-137.617	-166.402	0.031503	1.081148	-0.030463	-0.031768	0.029343	29.6862	-0.031204	-0.024876	-1.179543	NaN
728	1.000000	1.092484	7.37218e+06	-40689.1	1005.82	-29789	0.000000	0.000000	7.093187	-0.043591	NaN	0.000000	0.001692	0.001739	28.0833	0.125533	0.001901	66.0359	-178.583	15.9343	-0.048883	1.091095	-0.020432	-0.021820	-0.043591	66.0359	-0.019937	-0.012514	3.483252	NaN
728	1.000000	1.102464	7.37218e+06	-40689.1	1005.82	-29789	0.000000	0.000000	7.103171	0.064503	NaN	0.000000	0.001664	0.001720	28.0839	0.075291	0.002009	37.4723	-143.813	-162.563	0.051811	1.101134	-0.010452	-0.011782	0.064503	37.4723	-0.011743	-0.007382	-8.738102	NaN
728	1.000000	1.112473	7.37218e+06	-40689.1	1005.82	-29789	0.000000	0.000000	7.113187	0.223452	NaN	0.000000	0.001664	0.001722	28.0834	0.346265	0.001953	177.255	5.834968	14.7773	-0.001356	1.111152	-0.000443	-0.001764	0.223452	177.255	-0.001388	-0.001011	-221.107	NaN
728	2.000000	1.120076	7.37218e+06	-40689.1	1005.82	-29789	0.000000	0.000000	7.121171	9.495115	NaN	0.000000	0.001670	0.001727	28.0835	9.173986	0.001726	5313.66	7.144725	-173.246	8.742501	1.119737	0.007160	0.006821	9.495115	5313.66	0.005820	0.004894	1939.98	69393
728	2.000000	1.122553	7.37218e+06	-40689.1	1005.82	-29789	0.000000	0.000000	7.123848	14.37	NaN	0.000000	0.001689	0.001765	28.0832	11.614	0.001639	7086.03	5.131103	7.325812	13.346	1.122234	0.009637	0.009318	14.37	7086.03	0.008116	0.007162	2006.36	76498.2
728	2.000000	1.125030	7.37218e+06	-40689.1	1005.82	-29789	0.000000	0.000000	7.126447	17.3307	NaN	0.000000	0.001679	0.001763	28.0836	15.105	0.001760	8582.44	8.336282	-176.55	17.3652	1.124737	0.012114	0.011821	17.3307	8582.44	0.010600	0.009856	1758.46	78984.7
728	2.000000	1.127484	7.37218e+06	-40689.1	1005.82	-29789	0.000000	0.000000	7.129090	21.9121	NaN	0.000000	0.001659	0.001745	28.0834	17.7134	0.001825	9707.15	6.405741	3.040572	20.9376	1.127147	0.014569	0.014231	21.9121	9707.15	0.012876	0.012556	1745.17	79148.3
728	2.000000	1.129988	7.37218e+06	-40689.1	1005.82	-29789	0.000000	0.000000	7.131794	26.7681	NaN	0.000000	0.001663	0.001699	28.0835	20.4116	0.001897	10761.4	5.149294	-176.108	25.9259	1.129675	0.017073	0.016759	26.7681	10761.4	0.015207	0.015563	1720	78813.2
728	2.000000	1.132524	7.37218e+06	-40689.1	1005.82	-29789	0.000000	0.000000	7.134694	35.6566	NaN	0.000000	0.001686	0.001748	28.0835	22.7897	0.001904	11970	10.4008	-0.127126	34.6333	1.132095	0.019608	0.019180	35.6566	11970	0.017374	0.018582	1918.85	80226.2
728	2.000000	1.134991	7.37218e+06	-40689.1	1005.82	-29789	0.000000	0.000000	7.137217	37.0191	NaN	0.000000	0.001679	0.001770	28.0838	24.7261	0.001646	15026.3	6.826042	178.137	37.1772	1.134692	0.022075	0.021776	37.0191	15026.3	0.020227	0.022901	1616.5	90719.1
728	2.000000	1.137460	7.37218e+06	-40689.1	1005.82	-29789	0.000000	0.000000	7.140134	47.9051	NaN	0.000000	0.001694	0.001703	28.0821	27.9522	0.001823	15332.4	4.103264	0.916265	46.1972	1.137179	0.024545	0.024263	47.9051	15332.4	0.022201	0.026120	1834.04	86675.9
728	2.000000	1.139942	7.37218e+06	-40689.1	1005.82	-29789	0.000000	0.000000	7.143051	58.5001	NaN	0.000000	0.001668	0.001709	28.0825	31.2364	0.001818	17181.8	9.302676	175.523	57.3312	1.139691	0.027026	0.026775	58.5001	17181.8	0.024472	0.030063	1945.94	90537.4
728	2.000000	1.142462	7.37218e+06	-40689.1	1005.82	-29789	0.000000	0.000000	7.146037	69.8311	NaN	0.000000	0.001708	0.001765	28.0824	32.8094	0.001733	18937.5	7.618699	-3.524742	67.7168	1.142119	0.029546	0.029203	69.8311	18937.5	0.026781	0.034335	2033.83	93374.8
728	2.000000	1.144916	7.37218e+06	-40689.1	1005.82	-29789	0.000000	0.000000	7.149000	82.2069	NaN	0.000000	0.001671	0.001673	28.0823	35.3604	0.001669	21188.3	4.924733	177.869	80.0225	1.144610	0.032001	0.031695	82.2069	21188.3	0.029091	0.038880	2114.37	98176.2
728	2.000000	1.147435	7.37218e+06	-40689.1	1005.82	-29789	0.000000	0.000000	7.152063	95.4805	NaN	0.000000	0.001701	0.001691	28.0822	38.8281	0.001808	21478.7	4.650189	-1.238931	92.8516	1.147028	0.034519	0.034113	95.4805	21478.7	0.031185	0.043235	2208.39	94376.1
728	2.000000	1.149953	7.37218e+06	-40689.1	1005.82	-29789	0.000000	0.000000	7.155090	107.837	NaN	0.000000	0.001690	0.001716	28.0825	41.8231	0.001724	24260.1	4.335230	177.822	107.023	1.149638	0.037038	0.036722	107.837	24260.1	0.033704	0.048771	2211.07	100365
728	2.000000	1.152426	7.37218e+06	-40689.1	1005.82	-29789	0.000000	0.000000	7.158103	120.991	NaN	0.000000	0.001672	0.001762	28.0824	43.5598	0.001624	26824	4.219521	-3.425289	116.866	1.152060	0.039510	0.039145	120.991	26824	0.036127	0.054404	2223.96	105071
728	2.000000	1.154935	7.37218e+06	-40689.1	1005.82	-29789	0.000000	0.000000	7.161086	132.538	NaN	0.000000	0.001704	0.001726	28.0823	47.6634	0.001853	25723.4	8.045331	173.012	131.301	1.154625	0.042019	0.041709	132.538	25723.4	0.038155	0.059346	2233.31	96472.7
728	2.000000	1.157448	7.37218e+06	-40689.1	1005.82	-29789	0.000000	0.000000	7.164379	151.504	NaN	0.000000	0.001688	0.001762	28.0822	49.4602	0.001824	27123.4	7.094952	-6.127902	150.364	1.157055	0.044532	0.044140	151.504	27123.4	0.040343	0.064918	2333.78	97259.9
728	2.000000	1.159944	7.37218e+06	-40689.1	1005.82	-29789	0.000000	0.000000	7.167197	159.333	NaN	0.000000	0.001660	0.001770	28.0823	51.8245	0.001919	27006.4	1.590078	179.291	158.55	1.159691	0.047028	0.046775	159.333	27006.4	0.042603	0.070929	2246.37	92645.9
728	2.000000	1.162400	7.37218e+06	-40689.1	1005.82	-29789	0.000000	0.000000	7.170626	183.012	NaN	0.000000	0.001711	0.001759	28.0827	53.8571	0.001837	29314.7	5.257933	-3.941472	179.859	1.162054	0.049485	0.049138	183.012	29314.7	0.044803	0.077028	2375.92	96501.7
728	2.000000	1.164886	7.37218e+06	-40689.1	1005.82	-29789	0.000000	0.000000	7.173656	196.228	NaN	0.000000	0.001719	0.001738	28.0823	56.625	0.001821	31098.3	2.337424	177.985	193.124	1.164567	0.051971	0.051651	196.228	31098.3	0.047238	0.084069	2334.13	97992.3
728	2.000000	1.167413	7.37218e+06	-40689.1	1005.82	-29789	0.000000	0.000000	7.176676	208.251	NaN	0.000000	0.001703	0.001751	28.0822	59.2944	0.001713	34618.9	5.396324	-6.695975	205.739	1.167084	0.054497	0.054169	208.251	34618.9	0.049985	0.092368	2254.58	104070
728	2.000000	1.169890	7.37218e+06	-40689.1	1005.82	-29789	0.000000	0.000000	7.179793	223.834	NaN	0.000000	0.001679	0.001748	28.0824	62.4836	0.001761	35489.8	3.967455	174.254	221.264	1.169639	0.056974	0.056724	223.834	35489.8	0.052244	0.099475	2250.16	102806
728	2.000000	1.172385	7.37218e+06	-40689.1	1005.82	-29789	0.000000	0.000000	7.182933	239.503	NaN	0.000000	0.001684	0.001728	28.0838	64.7518	0.001907	33963.2	5.579550	-5.705986	234.751	1.171987	0.059470	0.059071	239.503	33963.2	0.054181	0.105772	2264.32	95410.5
728	2.000000	1.174920	7.37218e+06	-40689.1	1005.82	-29789	0.000000	0.000000	7.186097	254.815	NaN	0.000000	0.001696	0.001801	28.0856	67.0221	0.001824	36743.5	13.3082	166.035	254.831	1.174576	0.062004	0.061660	254.815	36743.5	0.056803	0.114595	2223.62	99168
728	2.000000	1.177460	7.37218e+06	-40689.1	1005.82	-29789	0.000000	0.000000	7.189202	268.572	NaN	0.000000	0.001652	0.001778	28.0872	68.8421	0.001825	37730	6.630625	-8.488654	267.126	1.177038	0.064544	0.064122	268.572	37730	0.059206	0.122976	2183.94	98299.3
728	2.000000	1.179903	7.37218e+06	-40689.1	1005.82	-29789	0.000000	0.000000	7.192063	278.741	NaN	0.000000	0.001649	0.001793	28.0845	70.6358	0.001792	39418.1	2.774064	175.046	277.319	1.179658	0.066988	0.066742	278.741	39418.1	0.061684	0.131916	2113.02	99156.1
728	2.000000	1.182446	7.37218e+06	-40689.1	1005.82	-29789	0.000000	0.000000	7.195632	303.702	NaN	0.000000	0.001703	0.001736	28.0847	72.9855	0.001898	38462.9	8.006728	-9.645341	302.104	1.182004	0.069531	0.069088	303.702	38462.9	0.063609	0.139066	2183.86	94233.3
728	2.000000	1.184907	7.37218e+06	-40689.1	1005.82	-29789	0.000000	0.000000	7.198463	312.719	NaN	0.000000	0.001669	0.001727	28.0838	74.703	0.001786	41829.6	6.916912	170.287	311.56	1.184498	0.071991	0.071582	312.719	41829.6	0.066384	0.149690	2089.11	98778
728	2.000000	1.187389	7.37218e+06	-40689.1	1005.82	-29789	0.000000	0.000000	7.201199	318.898	NaN	0.000000	0.001649	0.001748	28.0838	76.5226	0.001852	41325.1	5.388695	-8.396311	315.388	1.187133	0.074473	0.074217	318.898	41325.1	0.068685	0.158782	2008.4	94751.6
728	2.000000	1.189894	7.37218e+06	-40689.1	1005.82	-29789	0.000000	0.000000	7.204772	344.874	NaN	0.000000	0.001661	0.001731	28.0837	78.2301	0.001899	41197.1	1.285726	176.354	343.524	1.189591	0.076979	0.076676	344.874	41197.1	0.070700	0.166947	2065.77	92119.3
728	2.000000	1.192480	7.37218e+06	-40689.1	1005.82	-29789	0.000000	0.000000	7.207569	350.004	NaN	0.000000	0.001641	0.001740	28.0842	79.7683	0.001795	44427	3.800246	-6.218676	352.938	1.192266	0.079564	0.079351	350.004	44427	0.073656	0.179276	1952.32	95864.9
728	2.000000	1.194884	7.37218e+06	-40689.1	1005.82	-29789	0.000000	0.000000	7.211090	377.184	NaN	0.000000	0.001662	0.001696	28.0837	81.4437	0.001721	47311.7	5.748586	170.632	376.079	1.194610	0.081969	0.081694	377.184	47311.7	0.075990	0.189303	1992.49	99349
728	2.000000	1.197286	7.37218e+06	-40689.1	1005.82	-29789	0.000000	0.000000	7.214097	391.904	NaN	0.000000	0.001735	0.001724	28.0837	83.4517	0.001789	46636.8	2.539319	-5.790881	383.964	1.196967	0.084371	0.084052	391.904	46636.8	0.078068	0.198448	1974.85	95648.8
728	2.000000	1.199976	7.37218e+06	-40689.1	1005.82	-29789	0.000000	0.000000	7.217896	418.903	NaN	0.000000	0.001765	0.001751	28.0839	87.5139	0.001767	49537.6	10.17	167.663	421.434	1.199512	0.087061	0.086597	418.903	49537.6	0.080718	0.210401	1990.97	98669.8
728	2.000000	1.202464	7.37218e+06	-40689.1	1005.82	-29789	0.000000	0.000000	7.220795	428.903	NaN	0.000000	0.001741	0.001738	28.084	87.9929	0.001779	49467.6	4.397904	-6.968261	429.299	1.202111	0.089548	0.089196	428.903	49467.6	0.083046	0.221166	1939.28	96102.4
728	2.000000	1.204821	7.37218e+06	-40689.1	1005.82	-29789	0.000000	0.000000	7.224141	452.945	NaN	0.000000	0.001734	0.001771	28.0823	88.4214	0.001781	49644.8	6.664605	169.59	449.23	1.204507	0.091906	0.091591	452.945	49644.8	0.085063	0.230702	1963.33	94432.4
728	2.000000	1.207403	7.37218e+06	-40689.1	1005.82	-29789	0.000000	0.000000	7.227490	471.626	NaN	0.000000	0.001731	0.001746	28.0824	91.942	0.001785	51512.4	5.961630	-9.579335	469.633	1.207036	0.094487	0.094120	471.626	51512.4	0.087620	0.243061	1940.36	95461.4
728	2.000000	1.209963	7.37218e+06	-40689.1	1005.82	-29789	0.000000	0.000000	7.230629	485.705	NaN	0.000000	0.001741	0.001745	28.0825	95.3051	0.001900	50153.1	5.808995	171.006	487.843	1.209610	0.097048	0.096694	485.705	50153.1	0.089784	0.253752	1914.09	90963.3
728	2.000000	1.212498	7.37218e+06	-40689.1	1005.82	-29789	0.000000	0.000000	7.234086	508.133	NaN	0.000000	0.001681	0.001755	28.0824	97.0091	0.001820	53308.3	7.822040	-10.3958	511.74	1.211818	0.099583	0.098902	508.133	53308.3	0.092434	0.267136	1902.15	94232.8
728	2.000000	1.214847	7.37218e+06	-40689.1	1005.82	-29789	0.000000	0.000000	7.237199	526.753	NaN	0.000000	0.001701	0.001738	28.0824	97.3295	0.001805	53933.8	1.143955	175.301	524.972	1.214639	0.101931	0.101723	526.753	53933.8	0.094606	0.278347	1892.43	93398.7
728	2.000000	1.217303	7.37218e+06	-40689.1	1005.82	-29789	0.000000	0.000000	7.240422	545.404	NaN	0.000000	0.001735	0.001748	28.0825	99.3027	0.001666	59602.8	0.098592	-4.079904	538.597	1.217064	0.104387	0.104148	545.404	59602.8	0.097524	0.293750	1856.7	100473
728	2.000000	1.217806	7.37218e+06	-40689.1	1005.82	-29789	0.000000	0.000000	7.241266	553.703	NaN	0.000000	0.001734	0.001751	28.0824	100.385	0.001810	55453.7	2.933145	173.718	549.578	1.217492	0.104890	0.104576	553.703	55453.7	0.097401	0.293092	1889.18	93584.1