File: remote_trans/data/nanoindenter/0828-1/data/Data_2025-08-06,11h17m57s/2025-07-22_16-23-58_1_1168.txt
2025-07-22, 16:23:58, 1
Index	Phase	Displacement	Time	Pos X	Pos Y	Pos Z	Rot A	Rot B	Piezo Z	Force A	Force B	Gripper	Voltage A	Voltage B	Temperature	Amplitude force	Amplitude pos	Stiffness	Phase shift	Phase excitation	Force A raw	Displacement raw	HMax	HMax raw	Real Force	Real Stiffness	Contact Depth	Area	Hardness	Reduced Mod.
[#]	[#]	[um]	[s]	[um]	[um]	[um]	[m°]	[m°]	[um]	[uN]	[uN]	[V]	[V]	[V]	[°C]	[uN]	[um]	[N/m]	[°]	[°]	[uN]	[um]	[um]	[um]	[uN]	[N/m]	[um]	[um^2]	[MPa]	[MPa]
1168	1.000000	0.002548	7.37647e+06	-57189.1	1105.82	-29737.2	0.000000	0.000000	6.002794	-0.032657	NaN	0.000000	0.001609	0.001705	28.0827	0.067756	0.001009	67.1214	55.1725	-160.109	0.019838	0.001284	-1.050274	-1.051537	-0.032657	67.1214	-1.049909	-1.064598E+14	3.067530E-16	NaN
1168	1.000000	0.010505	7.37647e+06	-57189.1	1105.82	-29737.2	0.000000	0.000000	6.010751	-0.027785	NaN	0.000000	0.001594	0.001720	28.0823	0.060282	0.000993	60.7203	-72.4463	-164.158	0.012457	0.009172	-1.042317	-1.043649	-0.027785	60.7203	-1.041974	-8.327296E+13	3.336664E-16	NaN
1168	1.000000	0.018492	7.37647e+06	-57189.1	1105.82	-29737.2	0.000000	0.000000	6.018739	-0.019487	NaN	0.000000	0.001581	0.001693	28.0826	0.049182	0.001837	26.7713	145.329	-168.893	-0.064113	0.017225	-1.034330	-1.035596	-0.019487	26.7713	-1.033784	-6.462064E+13	3.015652E-16	NaN
1168	1.000000	0.026524	7.37647e+06	-57189.1	1105.82	-29737.2	0.000000	0.000000	6.026768	-0.087315	NaN	0.000000	0.001594	0.001721	28.0825	0.046757	0.001827	25.5927	146.678	-163.275	-0.053022	0.025179	-1.026297	-1.027643	-0.087315	25.5927	-1.023739	-4.734269E+13	1.844315E-15	NaN
1168	1.000000	0.034515	7.37647e+06	-57189.1	1105.82	-29737.2	0.000000	0.000000	6.034761	-0.042553	NaN	0.000000	0.001623	0.001732	28.0824	0.120984	0.001918	63.0781	-1.613598	-167.659	-0.103575	0.033155	-1.018306	-1.019666	-0.042553	63.0781	-1.017800	-3.938714E+13	1.080371E-15	NaN
1168	1.000000	0.042492	7.37647e+06	-57189.1	1105.82	-29737.2	0.000000	0.000000	6.042740	0.008491	NaN	0.000000	0.001609	0.001752	28.0826	0.023505	0.001961	11.9889	11.1248	-167.931	-0.000593	0.041197	-1.010330	-1.011624	0.008491	11.9889	-1.010861	-3.176634E+13	-2.672839E-16	NaN
1168	1.000000	0.050495	7.37647e+06	-57189.1	1105.82	-29737.2	0.000000	0.000000	6.050738	-0.110658	NaN	0.000000	0.001664	0.001748	28.0825	0.022079	0.001940	11.3791	47.6107	-163	-0.065403	0.049199	-1.002326	-1.003622	-0.110658	11.3791	-0.995033	-1.944861E+13	5.689750E-15	NaN
1168	1.000000	0.058506	7.37647e+06	-57189.1	1105.82	-29737.2	0.000000	0.000000	6.058753	-0.014147	NaN	0.000000	0.001672	0.001701	28.0829	0.040417	0.002033	19.8789	70.6302	-168.168	-0.010618	0.057242	-0.994315	-0.995579	-0.014147	19.8789	-0.993782	-1.870858E+13	7.561735E-16	NaN
1168	1.000000	0.066514	7.37647e+06	-57189.1	1105.82	-29737.2	0.000000	0.000000	6.066759	-0.077560	NaN	0.000000	0.001659	0.001710	28.0822	0.099657	0.001977	50.415	110.077	-164.043	-0.048430	0.065216	-0.986307	-0.987606	-0.077560	50.415	-0.985153	-1.431639E+13	5.417595E-15	NaN
1168	1.000000	0.074537	7.37647e+06	-57189.1	1105.82	-29737.2	0.000000	0.000000	6.074781	-0.088307	NaN	0.000000	0.001697	0.001716	28.0822	0.158690	0.001948	81.4801	-69.825	-160.554	0.006086	0.073207	-0.978285	-0.979615	-0.088307	81.4801	-0.977472	-1.128096E+13	7.827999E-15	NaN
1168	1.000000	0.082526	7.37647e+06	-57189.1	1105.82	-29737.2	0.000000	0.000000	6.082773	-0.004314	NaN	0.000000	0.001674	0.001746	28.0812	0.028404	0.002050	13.857	-27.8478	-166.805	-0.009766	0.081170	-0.970296	-0.971651	-0.004314	13.857	-0.970062	-8.964032E+12	4.812723E-16	NaN
1168	1.000000	0.090517	7.37647e+06	-57189.1	1105.82	-29737.2	0.000000	0.000000	6.090766	0.009404	NaN	0.000000	0.001654	0.001715	28.0812	0.059868	0.002033	29.4453	-66.1108	-166.456	-0.014724	0.089176	-0.962304	-0.963646	0.009404	29.4453	-0.962543	-7.098361E+12	-1.324879E-15	NaN
1168	1.000000	0.098532	7.37647e+06	-57189.1	1105.82	-29737.2	0.000000	0.000000	6.098776	-0.092847	NaN	0.000000	0.001616	0.001681	28.0818	0.099070	0.002017	49.1231	89.7379	-162.596	-0.122510	0.097245	-0.954289	-0.955576	-0.092847	49.1231	-0.952872	-5.257203E+12	1.766085E-14	NaN
1168	1.000000	0.106515	7.37647e+06	-57189.1	1105.82	-29737.2	0.000000	0.000000	6.106762	-0.018988	NaN	0.000000	0.001634	0.001731	28.0812	0.063892	0.002000	31.9513	48.7965	-164.03	0.006678	0.105238	-0.946306	-0.947583	-0.018988	31.9513	-0.945860	-4.228586E+12	4.490296E-15	NaN
1168	1.000000	0.114527	7.37647e+06	-57189.1	1105.82	-29737.2	0.000000	0.000000	6.114774	-0.005676	NaN	0.000000	0.001633	0.001722	28.0813	0.137794	0.002060	66.887	169.39	-165.755	-0.011862	0.113228	-0.938295	-0.939593	-0.005676	66.887	-0.938231	-3.336332E+12	1.701245E-15	NaN
1168	1.000000	0.122512	7.37647e+06	-57189.1	1105.82	-29737.2	0.000000	0.000000	6.122761	0.016105	NaN	0.000000	0.001656	0.001682	28.0813	0.103209	0.001897	54.3952	149.646	-166.541	-0.092498	0.121248	-0.930309	-0.931574	0.016105	54.3952	-0.930531	-2.626431E+12	-6.132042E-15	NaN
1168	1.000000	0.130565	7.37647e+06	-57189.1	1105.82	-29737.2	0.000000	0.000000	6.130813	0.010019	NaN	0.000000	0.001693	0.001703	28.0811	0.026468	0.001954	13.5478	-105.405	-166.555	-0.030567	0.129199	-0.922256	-0.923622	0.010019	13.5478	-0.922811	-2.066138E+12	-4.849372E-15	NaN
1168	1.000000	0.138536	7.37647e+06	-57189.1	1105.82	-29737.2	0.000000	0.000000	6.138783	-0.016484	NaN	0.000000	0.001689	0.001700	28.0814	0.047166	0.001913	24.6533	178.305	-168.922	-0.003653	0.137208	-0.914286	-0.915613	-0.016484	24.6533	-0.913784	-1.560536E+12	1.056313E-14	NaN
1168	1.000000	0.146560	7.37647e+06	-57189.1	1105.82	-29737.2	0.000000	0.000000	6.146804	-0.100938	NaN	0.000000	0.001663	0.001702	28.0809	0.047396	0.001926	24.6124	55.4503	-164.655	-0.156252	0.145208	-0.906261	-0.907613	-0.100938	24.6124	-0.903186	-1.122299E+12	8.993839E-14	NaN
1168	1.000000	0.154524	7.37647e+06	-57189.1	1105.82	-29737.2	0.000000	0.000000	6.154773	0.031943	NaN	0.000000	0.001694	0.001756	28.0814	0.057599	0.001862	30.9409	12.822	-168.477	0.052367	0.153169	-0.898297	-0.899653	0.031943	30.9409	-0.899071	-9.874579E+11	-3.234902E-14	NaN
1168	1.000000	0.162554	7.37647e+06	-57189.1	1105.82	-29737.2	0.000000	0.000000	6.162799	-0.060204	NaN	0.000000	0.001695	0.001702	28.0812	0.090912	0.002033	44.7191	175.609	-168.057	-0.077934	0.161261	-0.890268	-0.891560	-0.060204	44.7191	-0.889258	-7.275880E+11	8.274422E-14	NaN
1168	1.000000	0.170547	7.37647e+06	-57189.1	1105.82	-29737.2	0.000000	0.000000	6.170792	-0.057577	NaN	0.000000	0.001680	0.001720	28.0812	0.150246	0.002013	74.6252	97.0361	-165.874	-0.052496	0.169244	-0.882274	-0.883577	-0.057577	74.6252	-0.881696	-5.749622E+11	1.001410E-13	NaN
1168	1.000000	0.178569	7.37647e+06	-57189.1	1105.82	-29737.2	0.000000	0.000000	6.178817	0.006819	NaN	0.000000	0.001646	0.001719	28.081	0.074270	0.001969	37.7124	-13.0178	-166.119	-0.057988	0.177229	-0.874253	-0.875592	0.006819	37.7124	-0.874388	-4.579418E+11	-1.489119E-14	NaN
1168	1.000000	0.186580	7.37647e+06	-57189.1	1105.82	-29737.2	0.000000	0.000000	6.186826	-0.049186	NaN	0.000000	0.001620	0.001720	28.0811	0.126756	0.002011	63.0415	143.558	-166.801	0.022692	0.185253	-0.866241	-0.867568	-0.049186	63.0415	-0.865656	-3.488743E+11	1.409857E-13	NaN
1168	1.000000	0.194575	7.37647e+06	-57189.1	1105.82	-29737.2	0.000000	0.000000	6.194822	-0.020330	NaN	0.000000	0.001634	0.001749	28.0812	0.112762	0.002037	55.3534	-44.8979	-167.556	-0.025139	0.193306	-0.858246	-0.859516	-0.020330	55.3534	-0.857971	-2.745708E+11	7.404327E-14	NaN
1168	1.000000	0.202559	7.37647e+06	-57189.1	1105.82	-29737.2	0.000000	0.000000	6.202806	-0.011756	NaN	0.000000	0.001644	0.001712	28.0811	0.093057	0.002023	46.0087	-78.7279	-168.449	0.026979	0.201242	-0.850262	-0.851579	-0.011756	46.0087	-0.850071	-2.146331E+11	5.477031E-14	NaN
1168	1.000000	0.210574	7.37647e+06	-57189.1	1105.82	-29737.2	0.000000	0.000000	6.210820	-0.035097	NaN	0.000000	0.001676	0.001724	28.0812	0.107364	0.002100	51.1221	-138.447	-164.694	-0.051185	0.209181	-0.842248	-0.843640	-0.035097	51.1221	-0.841733	-1.654881E+11	2.120807E-13	NaN
1168	1.000000	0.218565	7.37647e+06	-57189.1	1105.82	-29737.2	0.000000	0.000000	6.218811	-0.046088	NaN	0.000000	0.001660	0.001703	28.082	0.028652	0.001988	14.4132	162.233	-164.301	-0.056894	0.217279	-0.834256	-0.835542	-0.046088	14.4132	-0.831858	-1.216091E+11	3.789835E-13	NaN
1168	1.000000	0.226554	7.37647e+06	-57189.1	1105.82	-29737.2	0.000000	0.000000	6.226804	0.049925	NaN	0.000000	0.001674	0.001709	28.0825	0.052966	0.002044	25.911	13.4923	-168.813	0.006588	0.225255	-0.826268	-0.827567	0.049925	25.911	-0.827713	-1.068513E+11	-4.672419E-13	NaN
1168	1.000000	0.234604	7.37647e+06	-57189.1	1105.82	-29737.2	0.000000	0.000000	6.234848	-0.071824	NaN	0.000000	0.001647	0.001719	28.0826	0.068595	0.002065	33.2252	97.6087	-166.274	0.035591	0.233309	-0.818218	-0.819512	-0.071824	33.2252	-0.816596	-7.551847E+10	9.510748E-13	NaN
1168	1.000000	0.242584	7.37647e+06	-57189.1	1105.82	-29737.2	0.000000	0.000000	6.242832	0.011221	NaN	0.000000	0.001667	0.001716	28.0825	0.080026	0.001947	41.0968	-87.5454	-164.426	-0.028689	0.241297	-0.810237	-0.811524	0.011221	41.0968	-0.810442	-6.231128E+10	-1.800780E-13	NaN
1168	1.000000	0.250606	7.37647e+06	-57189.1	1105.82	-29737.2	0.000000	0.000000	6.250852	-0.047416	NaN	0.000000	0.001643	0.001731	28.0831	0.094851	0.001915	49.5265	-36.0169	-163.247	-0.115075	0.249257	-0.802215	-0.803564	-0.047416	49.5265	-0.801497	-4.711810E+10	1.006328E-12	NaN
1168	1.000000	0.258579	7.37647e+06	-57189.1	1105.82	-29737.2	0.000000	0.000000	6.258826	-0.023379	NaN	0.000000	0.001612	0.001715	28.0825	0.007546	0.002061	3.661622	-160.986	-163.383	0.092572	0.257307	-0.794242	-0.795515	-0.023379	3.661622	-0.789453	-3.233376E+10	7.230671E-13	NaN
1168	1.000000	0.266578	7.37648e+06	-57189.1	1105.82	-29737.2	0.000000	0.000000	6.266822	-0.106980	NaN	0.000000	0.001678	0.001695	28.0826	0.035888	0.002037	17.6222	-101.898	-167.661	-0.066445	0.265322	-0.786243	-0.787499	-0.106980	17.6222	-0.781690	-2.536276E+10	4.217977E-12	NaN
1168	1.000000	0.274599	7.37648e+06	-57189.1	1105.82	-29737.2	0.000000	0.000000	6.274846	-0.032201	NaN	0.000000	0.001694	0.001726	28.0825	0.027524	0.001882	14.6284	-35.5852	-164.673	-0.004184	0.273259	-0.778222	-0.779562	-0.032201	14.6284	-0.776571	-2.160881E+10	1.490163E-12	NaN
1168	1.000000	0.282605	7.37648e+06	-57189.1	1105.82	-29737.2	0.000000	0.000000	6.282852	-0.022713	NaN	0.000000	0.001674	0.001737	28.0825	0.125623	0.001971	63.7294	130.004	-165.154	-0.019195	0.281298	-0.770216	-0.771523	-0.022713	63.7294	-0.769949	-1.756361E+10	1.293186E-12	NaN
1168	1.000000	0.290583	7.37648e+06	-57189.1	1105.82	-29737.2	0.000000	0.000000	6.290830	-0.024788	NaN	0.000000	0.001666	0.001678	28.0829	0.003424	0.002026	1.690594	70.3887	-166.016	-0.008835	0.289277	-0.762238	-0.763544	-0.024788	1.690594	-0.751242	-9.775090E+9	2.535788E-12	NaN
1168	1.000000	0.298613	7.37648e+06	-57189.1	1105.82	-29737.2	0.000000	0.000000	6.298860	-0.018023	NaN	0.000000	0.001631	0.001709	28.0823	0.059775	0.001897	31.5166	74.4858	-161.8	0.016468	0.297325	-0.754209	-0.755496	-0.018023	31.5166	-0.753780	-1.058434E+10	1.702759E-12	NaN
1168	1.000000	0.306620	7.37648e+06	-57189.1	1105.82	-29737.2	0.000000	0.000000	6.306869	0.032593	NaN	0.000000	0.001643	0.001686	28.0827	0.064022	0.001996	32.0821	-140.062	-166.433	-0.041840	0.305300	-0.746201	-0.747521	0.032593	32.0821	-0.746963	-8.548228E+9	-3.812890E-12	NaN
1168	1.000000	0.314573	7.37648e+06	-57189.1	1105.82	-29737.2	0.000000	0.000000	6.314819	-0.039062	NaN	0.000000	0.001643	0.001658	28.0824	0.043660	0.001959	22.2823	152.857	-167.437	0.024237	0.313328	-0.738248	-0.739493	-0.039062	22.2823	-0.736934	-6.241456E+9	6.258460E-12	NaN
1168	1.000000	0.322629	7.37648e+06	-57189.1	1105.82	-29737.2	0.000000	0.000000	6.322876	-0.028310	NaN	0.000000	0.001674	0.001675	28.0823	0.047157	0.001935	24.3748	115.209	-167.067	-0.076952	0.321338	-0.730192	-0.731483	-0.028310	24.3748	-0.729321	-4.915315E+9	5.759614E-12	NaN
1168	1.000000	0.330652	7.37648e+06	-57189.1	1105.82	-29737.2	0.000000	0.000000	6.330898	-0.034388	NaN	0.000000	0.001624	0.001674	28.0825	0.064378	0.002168	29.7005	-59.0654	-165.393	-0.030911	0.329313	-0.722170	-0.723509	-0.034388	29.7005	-0.721301	-3.821385E+9	8.998865E-12	NaN
1168	1.000000	0.338626	7.37648e+06	-57189.1	1105.82	-29737.2	0.000000	0.000000	6.338874	-0.017848	NaN	0.000000	0.001617	0.001681	28.0825	0.072867	0.001980	36.7941	-41.1456	-167.56	-0.066479	0.337339	-0.714195	-0.715482	-0.017848	36.7941	-0.713831	-3.022209E+9	5.905507E-12	NaN
1168	1.000000	0.346623	7.37648e+06	-57189.1	1105.82	-29737.2	0.000000	0.000000	6.346871	0.020941	NaN	0.000000	0.001678	0.001685	28.083	0.079404	0.001945	40.8261	-151.966	-166.006	-0.012500	0.345287	-0.706199	-0.707534	0.020941	40.8261	-0.706583	-2.406658E+9	-8.701251E-12	NaN
1168	1.000000	0.354624	7.37648e+06	-57189.1	1105.82	-29737.2	0.000000	0.000000	6.354872	-0.007337	NaN	0.000000	0.001632	0.001684	28.0819	0.084676	0.001995	42.4451	-74.8676	-165.871	-0.000298	0.353342	-0.698197	-0.699480	-0.007337	42.4451	-0.698067	-1.841354E+9	3.984420E-12	NaN
1168	1.000000	0.362612	7.37648e+06	-57189.1	1105.82	-29737.2	0.000000	0.000000	6.362860	0.001644	NaN	0.000000	0.001614	0.001682	28.0813	0.066216	0.001991	33.2541	-38.5307	-166.4	-0.073891	0.361364	-0.690209	-0.691458	0.001644	33.2541	-0.690247	-1.439752E+9	-1.141819E-12	NaN
1168	1.000000	0.370630	7.37648e+06	-57189.1	1105.82	-29737.2	0.000000	0.000000	6.370875	-0.080012	NaN	0.000000	0.001641	0.001676	28.0812	0.076107	0.002082	36.547	135.305	-164.952	0.001238	0.369337	-0.682191	-0.683485	-0.080012	36.547	-0.680549	-1.061000E+9	7.541196E-11	NaN
1168	1.000000	0.378645	7.37648e+06	-57189.1	1105.82	-29737.2	0.000000	0.000000	6.378892	-0.023881	NaN	0.000000	0.001629	0.001705	28.0812	0.080848	0.002029	39.8554	-20.3717	-169.436	-0.057094	0.377338	-0.674176	-0.675483	-0.023881	39.8554	-0.673727	-8.558412E+8	2.790298E-11	NaN
1168	1.000000	0.386633	7.37648e+06	-57189.1	1105.82	-29737.2	0.000000	0.000000	6.386881	-0.011711	NaN	0.000000	0.001617	0.001694	28.0814	0.075685	0.002041	37.0842	-58.2534	-168.724	-0.007773	0.385349	-0.666188	-0.667473	-0.011711	37.0842	-0.665951	-6.698355E+8	1.748281E-11	NaN
1168	1.000000	0.394656	7.37648e+06	-57189.1	1105.82	-29737.2	0.000000	0.000000	6.394905	0.027881	NaN	0.000000	0.001666	0.001680	28.0811	0.140744	0.002020	69.6738	74.5285	-165.254	-0.033813	0.393330	-0.658165	-0.659491	0.027881	69.6738	-0.658466	-5.289930E+8	-5.270575E-11	NaN
1168	1.000000	0.402653	7.37648e+06	-57189.1	1105.82	-29737.2	0.000000	0.000000	6.402904	0.072789	NaN	0.000000	0.001643	0.001702	28.0815	0.095210	0.002091	45.5394	54.4205	-168.128	0.039473	0.401313	-0.650168	-0.651509	0.072789	45.5394	-0.651367	-4.228364E+8	-1.721438E-10	NaN
1168	1.000000	0.410667	7.37648e+06	-57189.1	1105.82	-29737.2	0.000000	0.000000	6.410915	0.001849	NaN	0.000000	0.001673	0.001738	28.0815	0.043370	0.001963	22.0986	57.845	-165.943	-0.032808	0.409357	-0.642154	-0.643465	0.001849	22.0986	-0.642217	-3.167438E+8	-5.837443E-12	NaN
1168	1.000000	0.418629	7.37648e+06	-57189.1	1105.82	-29737.2	0.000000	0.000000	6.418877	0.027302	NaN	0.000000	0.001643	0.001710	28.0813	0.069201	0.002051	33.7441	-82.1084	-166.141	0.016991	0.417346	-0.634193	-0.635476	0.027302	33.7441	-0.634800	-2.505657E+8	-1.089608E-10	NaN
1168	1.000000	0.426624	7.37648e+06	-57189.1	1105.82	-29737.2	0.000000	0.000000	6.426870	-0.045299	NaN	0.000000	0.001658	0.001722	28.0811	0.018127	0.001929	9.395483	11.5458	-165.676	-0.014462	0.425335	-0.626197	-0.627486	-0.045299	9.395483	-0.622581	-1.702594E+8	2.660575E-10	NaN
1168	1.000000	0.434667	7.37648e+06	-57189.1	1105.82	-29737.2	0.000000	0.000000	6.434916	0.013886	NaN	0.000000	0.001631	0.001690	28.0813	0.077464	0.001867	41.4993	84.1211	-167.264	-0.047207	0.433394	-0.618154	-0.619427	0.013886	41.4993	-0.618405	-1.491785E+8	-9.308278E-11	NaN
1168	1.000000	0.442654	7.37648e+06	-57189.1	1105.82	-29737.2	0.000000	0.000000	6.442903	0.031404	NaN	0.000000	0.001691	0.001730	28.0816	0.107573	0.001945	55.3214	158.232	-162.877	0.050067	0.441344	-0.610168	-0.611478	0.031404	55.3214	-0.610594	-1.164879E+8	-2.695889E-10	NaN
1168	1.000000	0.450669	7.37648e+06	-57189.1	1105.82	-29737.2	0.000000	0.000000	6.450914	-0.058814	NaN	0.000000	0.001680	0.001738	28.0815	0.064663	0.002037	31.737	-81.962	-165.254	0.006137	0.449310	-0.602153	-0.603511	-0.058814	31.737	-0.600763	-8.530284E+7	6.894782E-10	NaN
1168	1.000000	0.458667	7.37648e+06	-57189.1	1105.82	-29737.2	0.000000	0.000000	6.458916	0.034900	NaN	0.000000	0.001672	0.001735	28.0814	0.037708	0.001971	19.1277	3.484942	-163.083	0.020305	0.457369	-0.594155	-0.595452	0.034900	19.1277	-0.595523	-7.224214E+7	-4.830999E-10	NaN
1168	1.000000	0.466656	7.37648e+06	-57189.1	1105.82	-29737.2	0.000000	0.000000	6.466902	-0.044969	NaN	0.000000	0.001674	0.001734	28.0811	0.185130	0.001889	97.9907	46.3991	-164.901	-0.032593	0.465377	-0.586165	-0.587444	-0.044969	97.9907	-0.585821	-5.309294E+7	8.469809E-10	NaN
1168	1.000000	0.474670	7.37648e+06	-57189.1	1105.82	-29737.2	0.000000	0.000000	6.474919	0.036835	NaN	0.000000	0.001684	0.001760	28.0812	0.033889	0.002025	16.7333	-159.748	-165.004	-0.042180	0.473421	-0.578151	-0.579401	0.036835	16.7333	-0.579802	-4.385272E+7	-8.399609E-10	NaN
1168	1.000000	0.482688	7.37648e+06	-57189.1	1105.82	-29737.2	0.000000	0.000000	6.482934	-0.042828	NaN	0.000000	0.001659	0.001733	28.0812	0.104338	0.001933	53.9649	-178.875	-168.833	-0.043350	0.481352	-0.570134	-0.571469	-0.042828	53.9649	-0.569539	-3.164142E+7	1.353557E-9	NaN
1168	1.000000	0.490694	7.37648e+06	-57189.1	1105.82	-29737.2	0.000000	0.000000	6.490940	-0.021629	NaN	0.000000	0.001671	0.001744	28.0816	0.128522	0.001970	65.2419	-93.7593	-165.839	0.023501	0.489391	-0.562128	-0.563431	-0.021629	65.2419	-0.561879	-2.479541E+7	8.722825E-10	NaN
1168	1.000000	0.498687	7.37648e+06	-57189.1	1105.82	-29737.2	0.000000	0.000000	6.498934	-0.006342	NaN	0.000000	0.001663	0.001728	28.0825	0.002127	0.002090	1.017659	-78.7061	-166.691	0.000108	0.497404	-0.554134	-0.555417	-0.006342	1.017659	-0.549460	-1.669096E+7	3.799720E-10	NaN
1168	1.000000	0.506699	7.37648e+06	-57189.1	1105.82	-29737.2	0.000000	0.000000	6.506944	-0.073231	NaN	0.000000	0.001681	0.001713	28.0823	0.034465	0.001942	17.7485	-152.764	-168.209	-0.062886	0.505327	-0.546122	-0.547494	-0.073231	17.7485	-0.543028	-1.359388E+7	5.387084E-9	NaN
1168	1.000000	0.514704	7.37648e+06	-57189.1	1105.82	-29737.2	0.000000	0.000000	6.514952	0.002910	NaN	0.000000	0.001671	0.001769	28.0826	0.142869	0.001943	73.5378	26.1859	-164.912	0.016671	0.513333	-0.538118	-0.539488	0.002910	73.5378	-0.538147	-1.163210E+7	-2.501468E-10	NaN
1168	1.000000	0.522673	7.37648e+06	-57189.1	1105.82	-29737.2	0.000000	0.000000	6.522920	-0.011238	NaN	0.000000	0.001661	0.001755	28.0827	0.047077	0.002076	22.6777	-144.501	-164.396	-0.064814	0.521390	-0.530148	-0.531431	-0.011238	22.6777	-0.529777	-8.90172e+06	1.262410E-9	NaN
1168	1.000000	0.530674	7.37648e+06	-57189.1	1105.82	-29737.2	0.000000	0.000000	6.530920	-0.063439	NaN	0.000000	0.001642	0.001741	28.0826	0.071938	0.002102	34.2289	159.216	-168.658	-0.122883	0.529464	-0.522147	-0.523357	-0.063439	34.2289	-0.520757	-6.66998e+06	9.511185E-9	NaN
1168	1.000000	0.538734	7.37648e+06	-57189.1	1105.82	-29737.2	0.000000	0.000000	6.538980	-0.046591	NaN	0.000000	0.001687	0.001725	28.0827	0.049665	0.001859	26.7162	-157.362	-168.039	-0.049584	0.537388	-0.514087	-0.515433	-0.046591	26.7162	-0.512779	-5.16561e+06	9.019531E-9	NaN
1168	1.000000	0.546732	7.37648e+06	-57189.1	1105.82	-29737.2	0.000000	0.000000	6.546979	-0.025520	NaN	0.000000	0.001655	0.001764	28.0823	0.086279	0.002032	42.4522	-28.5226	-165.967	-0.062418	0.545391	-0.506089	-0.507430	-0.025520	42.4522	-0.505638	-4.1081e+06	6.212013E-9	NaN
1168	1.000000	0.554743	7.37648e+06	-57189.1	1105.82	-29737.2	0.000000	0.000000	6.554990	0.004291	NaN	0.000000	0.001675	0.001739	28.0825	0.065940	0.002035	32.4041	46.9697	-165.461	-0.011231	0.553356	-0.498079	-0.499465	0.004291	32.4041	-0.498178	-3.23294e+06	-1.327145E-9	NaN
1168	1.000000	0.562721	7.37648e+06	-57189.1	1105.82	-29737.2	0.000000	0.000000	6.562966	-0.069901	NaN	0.000000	0.001687	0.001752	28.0824	0.112325	0.002136	52.5911	135.454	-167.657	-0.075384	0.561398	-0.490100	-0.491423	-0.069901	52.5911	-0.489103	-2.4147e+06	2.894825E-8	NaN
1168	1.000000	0.570741	7.37648e+06	-57189.1	1105.82	-29737.2	0.000000	0.000000	6.570989	0.002206	NaN	0.000000	0.001684	0.001719	28.0824	0.054930	0.001949	28.1768	156.117	-163.133	-0.043064	0.569429	-0.482081	-0.483392	0.002206	28.1768	-0.482139	-1.92961e+06	-1.143146E-9	NaN
1168	1.000000	0.578702	7.37648e+06	-57189.1	1105.82	-29737.2	0.000000	0.000000	6.578948	-0.031214	NaN	0.000000	0.001665	0.001730	28.0827	0.033804	0.002057	16.4374	-80.9045	-165.408	-0.012311	0.577473	-0.474120	-0.475349	-0.031214	16.4374	-0.472696	-1.42299e+06	2.193549E-8	NaN
1168	1.000000	0.586732	7.37648e+06	-57189.1	1105.82	-29737.2	0.000000	0.000000	6.586981	0.030817	NaN	0.000000	0.001700	0.001765	28.0825	0.086729	0.001951	44.4581	-109.788	-163.016	0.083598	0.585419	-0.466089	-0.467403	0.030817	44.4581	-0.466609	-1.16906e+06	-2.636074E-8	NaN
1168	1.000000	0.594757	7.37648e+06	-57189.1	1105.82	-29737.2	0.000000	0.000000	6.595004	-0.023153	NaN	0.000000	0.001695	0.001764	28.0828	0.065691	0.002007	32.7327	-139.678	-168.572	-0.045103	0.593393	-0.458064	-0.459428	-0.023153	32.7327	-0.457534	-871675	2.656173E-8	NaN
1168	1.000000	0.602734	7.37648e+06	-57189.1	1105.82	-29737.2	0.000000	0.000000	6.602982	0.004478	NaN	0.000000	0.001695	0.001701	28.0826	0.053926	0.001980	27.2318	125.895	-168.978	-0.069538	0.601398	-0.450088	-0.451424	0.004478	27.2318	-0.450211	-687568	-6.512798E-9	NaN
1168	1.000000	0.610733	7.37648e+06	-57189.1	1105.82	-29737.2	0.000000	0.000000	6.610976	-0.107264	NaN	0.000000	0.001684	0.001725	28.0828	0.046181	0.002041	22.6259	-119.352	-165.813	-0.091780	0.609489	-0.442089	-0.443332	-0.107264	22.6259	-0.438533	-470606	2.279267E-7	NaN
1168	1.000000	0.618747	7.37648e+06	-57189.1	1105.82	-29737.2	0.000000	0.000000	6.618991	-0.088448	NaN	0.000000	0.001666	0.001724	28.0826	0.021631	0.001949	11.0974	83.234	-163.513	-0.076151	0.617394	-0.434075	-0.435428	-0.088448	11.0974	-0.428097	-335069	2.639708E-7	NaN
1168	1.000000	0.626731	7.37648e+06	-57189.1	1105.82	-29737.2	0.000000	0.000000	6.626975	-0.094463	NaN	0.000000	0.001714	0.001727	28.0826	0.031794	0.002015	15.7825	85.8575	-165.788	-0.173017	0.625404	-0.426090	-0.427417	-0.094463	15.7825	-0.421601	-271092	3.484544E-7	NaN
1168	1.000000	0.634710	7.37648e+06	-57189.1	1105.82	-29737.2	0.000000	0.000000	6.634957	-0.018795	NaN	0.000000	0.001706	0.001725	28.0816	0.052860	0.001867	28.3092	-23.8592	-169.405	-0.035182	0.633421	-0.418111	-0.419400	-0.018795	28.3092	-0.417613	-237987	7.897378E-8	NaN
1168	1.000000	0.642750	7.37648e+06	-57189.1	1105.82	-29737.2	0.000000	0.000000	6.642997	-0.024237	NaN	0.000000	0.001675	0.001720	28.0812	0.053420	0.002076	25.7373	46.8164	-168.357	-0.039744	0.641508	-0.410072	-0.411313	-0.024237	25.7373	-0.409365	-181708	1.333838E-7	NaN
1168	1.000000	0.650718	7.37648e+06	-57189.1	1105.82	-29737.2	0.000000	0.000000	6.650964	-0.027334	NaN	0.000000	0.001657	0.001726	28.0814	0.149370	0.002058	72.5934	-138.789	-166.987	-0.039690	0.649498	-0.402104	-0.403324	-0.027334	72.5934	-0.401821	-141894	1.926356E-7	NaN
1168	1.000000	0.658745	7.37648e+06	-57189.1	1105.82	-29737.2	0.000000	0.000000	6.658991	-0.042625	NaN	0.000000	0.001635	0.001734	28.0811	0.117518	0.001971	59.6334	-7.377151	-163.045	-0.010829	0.657442	-0.394076	-0.395380	-0.042625	59.6334	-0.393540	-108088	3.943569E-7	NaN
1168	1.000000	0.666764	7.37648e+06	-57189.1	1105.82	-29737.2	0.000000	0.000000	6.667012	-0.008127	NaN	0.000000	0.001614	0.001701	28.0812	0.101360	0.002001	50.6533	52.9998	-159.158	0.046470	0.665426	-0.386057	-0.387396	-0.008127	50.6533	-0.385937	-84140.2	9.659279E-8	NaN
1168	1.000000	0.674787	7.37648e+06	-57189.1	1105.82	-29737.2	0.000000	0.000000	6.675037	0.054212	NaN	0.000000	0.001633	0.001698	28.0813	0.081205	0.001961	41.4014	137.495	-167.442	0.069073	0.673465	-0.378034	-0.379357	0.054212	41.4014	-0.379016	-66952.1	-8.097124E-7	NaN
1168	1.000000	0.682756	7.37648e+06	-57189.1	1105.82	-29737.2	0.000000	0.000000	6.683004	0.010048	NaN	0.000000	0.001656	0.001692	28.0812	0.061025	0.002034	30.0058	123.909	-166.317	0.007378	0.681442	-0.370065	-0.371380	0.010048	30.0058	-0.370316	-50197.8	-2.001751E-7	NaN
1168	1.000000	0.690768	7.37648e+06	-57189.1	1105.82	-29737.2	0.000000	0.000000	6.691014	-0.044531	NaN	0.000000	0.001659	0.001704	28.0813	0.109373	0.002017	54.2365	-28.4769	-164.503	-0.075504	0.689433	-0.362053	-0.363389	-0.044531	54.2365	-0.361438	-37378.5	1.191353E-6	NaN
1168	1.000000	0.698797	7.37648e+06	-57189.1	1105.82	-29737.2	0.000000	0.000000	6.699044	-0.012891	NaN	0.000000	0.001645	0.001688	28.0813	0.075099	0.001914	39.2341	-155.177	-166.827	0.006396	0.697460	-0.354025	-0.355362	-0.012891	39.2341	-0.353778	-28960	4.451235E-7	NaN
1168	1.000000	0.706793	7.37648e+06	-57189.1	1105.82	-29737.2	0.000000	0.000000	6.707040	-0.023082	NaN	0.000000	0.001671	0.001677	28.0815	0.041577	0.002029	20.4919	86.5499	-165.556	-0.059758	0.705478	-0.346028	-0.347344	-0.023082	20.4919	-0.345183	-21728.2	1.062315E-6	NaN
1168	1.000000	0.714780	7.37648e+06	-57189.1	1105.82	-29737.2	0.000000	0.000000	6.715028	0.009736	NaN	0.000000	0.001671	0.001693	28.0813	0.038153	0.001948	19.59	7.038608	-165.318	-0.007699	0.713467	-0.338042	-0.339354	0.009736	19.59	-0.338415	-17315.5	-5.622607E-7	NaN
1168	1.000000	0.722795	7.37648e+06	-57189.1	1105.82	-29737.2	0.000000	0.000000	6.723043	0.006100	NaN	0.000000	0.001684	0.001686	28.0811	0.051463	0.002132	24.1436	-63.5599	-166.016	-0.017621	0.721444	-0.330026	-0.331378	0.006100	24.1436	-0.330216	-13140.4	-4.642090E-7	NaN
1168	1.000000	0.730798	7.37648e+06	-57189.1	1105.82	-29737.2	0.000000	0.000000	6.731045	-0.027277	NaN	0.000000	0.001680	0.001705	28.0813	0.158040	0.002134	74.0616	-89.2132	-164.223	-0.047758	0.729539	-0.322023	-0.323282	-0.027277	74.0616	-0.321747	-9870.46	2.763473E-6	NaN
1168	1.000000	0.738800	7.37648e+06	-57189.1	1105.82	-29737.2	0.000000	0.000000	6.739047	-0.015192	NaN	0.000000	0.001689	0.001674	28.0814	0.113638	0.001898	59.8648	-132.548	-167.469	-0.043817	0.737468	-0.314021	-0.315353	-0.015192	59.8648	-0.313831	-7545.49	2.013326E-6	NaN
1168	1.000000	0.746798	7.37648e+06	-57189.1	1105.82	-29737.2	0.000000	0.000000	6.747047	0.045119	NaN	0.000000	0.001650	0.001717	28.0814	0.036225	0.001801	20.1186	-67.7368	-165.114	0.002037	0.745503	-0.306024	-0.307319	0.045119	20.1186	-0.307706	-6124.66	-7.366751E-6	NaN
1168	1.000000	0.754820	7.37648e+06	-57189.1	1105.82	-29737.2	0.000000	0.000000	6.755067	-0.016522	NaN	0.000000	0.001608	0.001710	28.0812	0.123190	0.001871	65.8415	-71.5356	-165.093	0.050003	0.753481	-0.298001	-0.299341	-0.016522	65.8415	-0.297813	-4365.7	3.784599E-6	NaN
1168	1.000000	0.762811	7.37648e+06	-57189.1	1105.82	-29737.2	0.000000	0.000000	6.763055	-0.085020	NaN	0.000000	0.001661	0.001737	28.0816	0.121211	0.001978	61.2815	22.7874	-169.288	-0.066729	0.761496	-0.290010	-0.291326	-0.085020	61.2815	-0.288970	-3220.05	2.640320E-5	NaN
1168	1.000000	0.770823	7.37648e+06	-57189.1	1105.82	-29737.2	0.000000	0.000000	6.771068	-0.065145	NaN	0.000000	0.001684	0.001726	28.0826	0.032296	0.002050	15.7538	-10.2023	-163.175	-0.062494	0.769526	-0.281998	-0.283295	-0.065145	15.7538	-0.278897	-2271.55	2.867884E-5	NaN
1168	1.000000	0.778806	7.37648e+06	-57189.1	1105.82	-29737.2	0.000000	0.000000	6.779055	0.016592	NaN	0.000000	0.001634	0.001779	28.0826	0.068076	0.002087	32.6151	178.376	-164.832	0.037104	0.777479	-0.274015	-0.275342	0.016592	32.6151	-0.274397	-1942.05	-8.543466E-6	NaN
1168	1.000000	0.786783	7.37648e+06	-57189.1	1105.82	-29737.2	0.000000	0.000000	6.787028	-0.066397	NaN	0.000000	0.001679	0.001740	28.0824	0.103152	0.001952	52.8403	-102.294	-163.392	-0.077072	0.785501	-0.266039	-0.267320	-0.066397	52.8403	-0.265096	-1402.36	4.734660E-5	NaN
1168	1.000000	0.794796	7.37648e+06	-57189.1	1105.82	-29737.2	0.000000	0.000000	6.795040	-0.099125	NaN	0.000000	0.001690	0.001716	28.0824	0.044502	0.001961	22.6915	-0.052346	-165.573	-0.086930	0.793538	-0.258025	-0.259283	-0.099125	22.6915	-0.254749	-973.311	0.000102	NaN
1168	1.000000	0.802821	7.37648e+06	-57189.1	1105.82	-29737.2	0.000000	0.000000	6.803069	0.004506	NaN	0.000000	0.001690	0.001738	28.0825	0.104785	0.001969	53.2173	100.589	-166.038	-0.023311	0.801560	-0.250000	-0.251261	0.004506	53.2173	-0.250064	-824.049	-5.468525E-6	NaN
1168	1.000000	0.810796	7.37648e+06	-57189.1	1105.82	-29737.2	0.000000	0.000000	6.811041	-0.055165	NaN	0.000000	0.001664	0.001714	28.0825	0.067383	0.001827	36.8732	126.422	-168.34	-0.042608	0.809453	-0.242026	-0.243368	-0.055165	36.8732	-0.240904	-593.828	9.289755E-5	NaN
1168	1.000000	0.818783	7.37648e+06	-57189.1	1105.82	-29737.2	0.000000	0.000000	6.819031	-0.013871	NaN	0.000000	0.001647	0.001754	28.0828	0.091602	0.001972	46.4485	16.6663	-163.739	0.046111	0.817563	-0.234038	-0.235259	-0.013871	46.4485	-0.233814	-459.846	3.016416E-5	NaN
1168	1.000000	0.826819	7.37648e+06	-57189.1	1105.82	-29737.2	0.000000	0.000000	6.827066	-0.012542	NaN	0.000000	0.001659	0.001742	28.0824	0.092137	0.001908	48.2871	168.673	-166.647	-0.051775	0.825523	-0.226003	-0.227298	-0.012542	48.2871	-0.225808	-343.683	3.649281E-5	NaN
1168	1.000000	0.834861	7.37648e+06	-57189.1	1105.82	-29737.2	0.000000	0.000000	6.835107	-0.058663	NaN	0.000000	0.001648	0.001752	28.0825	0.135429	0.001977	68.4988	-77.5283	-167.199	-0.064285	0.833517	-0.217960	-0.219305	-0.058663	68.4988	-0.217318	-251.616	0.000233	NaN
1168	1.000000	0.842843	7.37648e+06	-57189.1	1105.82	-29737.2	0.000000	0.000000	6.843090	-0.016465	NaN	0.000000	0.001641	0.001780	28.0824	0.071493	0.001928	37.0896	112.473	-165.821	-0.084508	0.841573	-0.209978	-0.211248	-0.016465	37.0896	-0.209645	-189.267	8.699557E-5	NaN
1168	1.000000	0.850842	7.37648e+06	-57189.1	1105.82	-29737.2	0.000000	0.000000	6.851091	0.020201	NaN	0.000000	0.001612	0.001739	28.0823	0.078874	0.001972	40.0025	-160.058	-165.611	0.018062	0.849513	-0.201979	-0.203308	0.020201	40.0025	-0.202358	-144.006	-0.000140	NaN
1168	1.000000	0.858841	7.37648e+06	-57189.1	1105.82	-29737.2	0.000000	0.000000	6.859087	-0.059372	NaN	0.000000	0.001627	0.001749	28.0825	0.057578	0.001964	29.3186	-96.9678	-166.092	0.092085	0.857556	-0.193980	-0.195265	-0.059372	29.3186	-0.192461	-98.8684	0.000601	NaN
1168	1.000000	0.866827	7.37648e+06	-57189.1	1105.82	-29737.2	0.000000	0.000000	6.867072	-0.052893	NaN	0.000000	0.001603	0.001722	28.0825	0.089504	0.001873	47.7785	-73.1897	-166.155	-0.071566	0.865577	-0.185995	-0.187245	-0.052893	47.7785	-0.185164	-74.6279	0.000709	NaN
1168	1.000000	0.874835	7.37648e+06	-57189.1	1105.82	-29737.2	0.000000	0.000000	6.875084	0.013390	NaN	0.000000	0.001640	0.001723	28.0827	0.082245	0.001972	41.7162	-74.2527	-168.357	0.017436	0.873520	-0.177986	-0.179301	0.013390	41.7162	-0.178227	-56.9173	-0.000235	NaN
1168	1.000000	0.882867	7.37648e+06	-57189.1	1105.82	-29737.2	0.000000	0.000000	6.883112	-0.071006	NaN	0.000000	0.001605	0.001768	28.0827	0.057897	0.001851	31.2747	20.1603	-163.948	-0.019714	0.881602	-0.169954	-0.171219	-0.071006	31.2747	-0.168251	-38.2994	0.001854	NaN
1168	1.000000	0.890879	7.37648e+06	-57189.1	1105.82	-29737.2	0.000000	0.000000	6.891129	0.041296	NaN	0.000000	0.001628	0.001763	28.0829	0.067673	0.001847	36.6475	62.2163	-165.735	0.018818	0.889563	-0.161942	-0.163259	0.041296	36.6475	-0.162787	-30.7148	-0.001345	NaN
1168	1.000000	0.898841	7.37648e+06	-57189.1	1105.82	-29737.2	0.000000	0.000000	6.899088	-0.014500	NaN	0.000000	0.001609	0.001769	28.0825	0.084504	0.001978	42.7257	-168.828	-164.218	-0.019138	0.897529	-0.153980	-0.155292	-0.014500	42.7257	-0.153726	-21.1646	0.000685	NaN
1168	1.000000	0.906855	7.37648e+06	-57189.1	1105.82	-29737.2	0.000000	0.000000	6.907103	0.003880	NaN	0.000000	0.001579	0.001730	28.0814	0.080491	0.002009	40.0728	119.182	-165.828	0.026265	0.905551	-0.145966	-0.147271	0.003880	40.0728	-0.146039	-15.3234	-0.000253	NaN
1168	1.000000	0.914851	7.37648e+06	-57189.1	1105.82	-29737.2	0.000000	0.000000	6.915099	-0.001516	NaN	0.000000	0.001598	0.001747	28.0812	0.038488	0.002004	19.2019	154.789	-167.385	-0.019237	0.913552	-0.137970	-0.139269	-0.001516	19.2019	-0.137911	-10.8044	0.000140	NaN
1168	1.000000	0.922847	7.37648e+06	-57189.1	1105.82	-29737.2	0.000000	0.000000	6.923093	-0.034357	NaN	0.000000	0.001595	0.001746	28.0813	0.021239	0.001905	11.1489	-76.7465	-161.877	-0.080384	0.921490	-0.129975	-0.131331	-0.034357	11.1489	-0.127663	-6.861718	0.005007	NaN
1168	1.000000	0.930840	7.37648e+06	-57189.1	1105.82	-29737.2	0.000000	0.000000	6.931087	-0.011100	NaN	0.000000	0.001606	0.001710	28.0816	0.044789	0.002102	21.3101	55.9303	-167.873	0.021163	0.929566	-0.121982	-0.123255	-0.011100	21.3101	-0.121591	-5.201078	0.002134	NaN
1168	1.000000	0.938878	7.37648e+06	-57189.1	1105.82	-29737.2	0.000000	0.000000	6.939121	-0.118992	NaN	0.000000	0.001546	0.001679	28.0812	0.067601	0.001975	34.2315	173.792	-166.759	-0.036394	0.937547	-0.113943	-0.115274	-0.118992	34.2315	-0.111336	-3.205992	0.037116	NaN
1168	1.000000	0.946884	7.37648e+06	-57189.1	1105.82	-29737.2	0.000000	0.000000	6.947133	0.039253	NaN	0.000000	0.001568	0.001739	28.0816	0.016229	0.001971	8.232796	57.3774	-165.25	0.036629	0.945558	-0.105938	-0.107264	0.039253	8.232796	-0.109514	-2.935012	-0.013374	NaN
1168	1.000000	0.954864	7.37648e+06	-57189.1	1105.82	-29737.2	0.000000	0.000000	6.955110	-0.049258	NaN	0.000000	0.001602	0.001737	28.0812	0.094215	0.002106	44.7309	97.0593	-167.665	0.013384	0.953592	-0.097957	-0.099230	-0.049258	44.7309	-0.097132	-1.576501	0.031245	NaN
1168	1.000000	0.962871	7.37648e+06	-57189.1	1105.82	-29737.2	0.000000	0.000000	6.963113	-0.129420	NaN	0.000000	0.001564	0.001709	28.0814	0.033699	0.002029	16.6065	-101.628	-166.947	-0.183405	0.961551	-0.089950	-0.091271	-0.129420	16.6065	-0.084105	-0.781564	0.165591	NaN
1168	1.000000	0.970921	7.37648e+06	-57189.1	1105.82	-29737.2	0.000000	0.000000	6.971168	-0.004129	NaN	0.000000	0.001575	0.001730	28.0815	0.053004	0.001995	26.5684	-5.703451	-165.647	-0.055717	0.969533	-0.081901	-0.083288	-0.004129	26.5684	-0.081784	-0.685540	0.006022	NaN
1168	1.000000	0.978874	7.37648e+06	-57189.1	1105.82	-29737.2	0.000000	0.000000	6.979117	-0.132680	NaN	0.000000	0.001611	0.001726	28.0814	0.019351	0.002120	9.128675	88.7578	-168.474	-0.017648	0.977631	-0.073947	-0.075191	-0.132680	9.128675	-0.063046	-0.219793	0.603658	NaN
1168	1.000000	0.986921	7.37648e+06	-57189.1	1105.82	-29737.2	0.000000	0.000000	6.987168	-0.011489	NaN	0.000000	0.001581	0.001722	28.0818	0.051392	0.002067	24.8611	-123.199	-170.59	0.009001	0.985601	-0.065900	-0.067220	-0.011489	24.8611	-0.065554	-0.258172	0.044500	NaN
1168	1.000000	0.994890	7.37648e+06	-57189.1	1105.82	-29737.2	0.000000	0.000000	6.995135	-0.052160	NaN	0.000000	0.001593	0.001707	28.0813	0.086078	0.001894	45.4366	160.213	-160.149	0.018235	0.993626	-0.057932	-0.059196	-0.052160	45.4366	-0.057071	-0.148148	0.352085	NaN
1168	1.000000	1.002902	7.37648e+06	-57189.1	1105.82	-29737.2	0.000000	0.000000	7.003148	-0.038975	NaN	0.000000	0.001615	0.001691	28.0811	0.047053	0.001854	25.382	30.2661	-166.6	-0.065909	1.001548	-0.049919	-0.051273	-0.038975	25.382	-0.048768	-0.083731	0.465474	NaN
1168	1.000000	1.010887	7.37648e+06	-57189.1	1105.82	-29737.2	0.000000	0.000000	7.011136	0.035616	NaN	0.000000	0.001623	0.001711	28.0812	0.055156	0.001943	28.3827	-75.2819	-165.625	0.051008	1.009605	-0.041934	-0.043216	0.035616	28.3827	-0.042876	-0.055338	-0.643606	NaN
1168	1.000000	1.018889	7.37648e+06	-57189.1	1105.82	-29737.2	0.000000	0.000000	7.019136	-0.002424	NaN	0.000000	0.001587	0.001737	28.0813	0.084818	0.002101	40.3672	11.6424	-164.681	-0.055995	1.017582	-0.033933	-0.035240	-0.002424	40.3672	-0.033888	-0.029709	0.081595	NaN
1168	1.000000	1.026914	7.37648e+06	-57189.1	1105.82	-29737.2	0.000000	0.000000	7.027158	-0.090450	NaN	0.000000	0.001587	0.001716	28.0819	0.006978	0.002086	3.344724	-145.162	-166.528	-0.136328	1.025606	-0.025907	-0.027215	-0.090450	3.344724	-0.005625	-0.003806	23.766	NaN
1168	1.000000	1.034938	7.37648e+06	-57189.1	1105.82	-29737.2	0.000000	0.000000	7.035187	0.018773	NaN	0.000000	0.001602	0.001719	28.0813	0.113936	0.002063	55.2333	91.2277	-164.939	-0.062283	1.033546	-0.017883	-0.019275	0.018773	55.2333	-0.018138	-0.011255	-1.667998	NaN
1168	1.000000	1.042892	7.37648e+06	-57189.1	1105.82	-29737.2	0.000000	0.000000	7.043138	-0.042136	NaN	0.000000	0.001545	0.001727	28.0827	0.204603	0.001921	106.51	74.1955	-167.685	0.005592	1.041618	-0.009929	-0.011203	-0.042136	106.51	-0.009632	-0.006177	6.821593	NaN
1168	1.000000	1.050909	7.37648e+06	-57189.1	1105.82	-29737.2	0.000000	0.000000	7.051158	0.037636	NaN	0.000000	0.001578	0.001745	28.0826	0.157975	0.002073	76.2053	8.085529	-167.678	-0.048023	1.049640	-0.001912	-0.003181	0.037636	76.2053	-0.002283	-0.001634	-23.0284	NaN
1168	1.000000	1.058835	7.37648e+06	-57189.1	1105.82	-29737.2	0.000000	0.000000	7.059380	7.242001	NaN	0.000000	0.001616	0.001744	28.0824	7.412555	0.001765	4199.19	21.596	-179.043	7.362263	1.057569	0.006013	0.004748	7.242001	4199.19	0.004720	0.003879	1866.94	61599.2
1168	2.000000	1.061478	7.37648e+06	-57189.1	1105.82	-29737.2	0.000000	0.000000	7.062246	12.6355	NaN	0.000000	0.001575	0.001788	28.0823	11.0929	0.001666	6656.69	4.691880	-173.546	10.7188	1.061107	0.008657	0.008285	12.6355	6656.69	0.007233	0.006265	2016.72	76834.9
1168	2.000000	1.063418	7.37648e+06	-57189.1	1105.82	-29737.2	0.000000	0.000000	7.064188	12.6749	NaN	0.000000	0.001551	0.001730	28.0823	12.2402	0.001669	7336.05	7.224454	-176.582	11.2405	1.063114	0.010597	0.010293	12.6749	7336.05	0.009301	0.008415	1506.22	73064.4
1168	2.000000	1.065441	7.37648e+06	-57189.1	1105.82	-29737.2	0.000000	0.000000	7.066243	13.4713	NaN	0.000000	0.001573	0.001725	28.0824	14.2143	0.001766	8048.76	6.537425	-174.063	14.5507	1.065153	0.012620	0.012331	13.4713	8048.76	0.011365	0.010738	1254.56	70964.6
1168	2.000000	1.067397	7.37648e+06	-57189.1	1105.82	-29737.2	0.000000	0.000000	7.068484	20.3799	NaN	0.000000	0.001586	0.001709	28.0825	15.89	0.001634	9723.26	4.019221	-174.296	19.0751	1.067105	0.014576	0.014284	20.3799	9723.26	0.013004	0.012715	1602.82	78782.1
1168	2.000000	1.069372	7.37648e+06	-57189.1	1105.82	-29737.2	0.000000	0.000000	7.070488	21.1131	NaN	0.000000	0.001599	0.001724	28.0827	18.496	0.001843	10038.5	5.533855	-175.312	19.3395	1.069073	0.016550	0.016251	21.1131	10038.5	0.014973	0.015249	1384.54	74271
1168	2.000000	1.071400	7.37648e+06	-57189.1	1105.82	-29737.2	0.000000	0.000000	7.072765	27.1395	NaN	0.000000	0.001612	0.001729	28.0825	21.0639	0.001861	11317.6	10.1511	179.524	26.0334	1.071033	0.018579	0.018212	27.1395	11317.6	0.016780	0.017733	1530.42	77647.9
1168	2.000000	1.073326	7.37648e+06	-57189.1	1105.82	-29737.2	0.000000	0.000000	7.074923	32.7955	NaN	0.000000	0.001574	0.001731	28.0826	22.4621	0.001794	12519.3	3.831417	-175.143	30.3257	1.073024	0.020504	0.020203	32.7955	12519.3	0.018539	0.020299	1615.62	80281.6
1168	2.000000	1.075356	7.37648e+06	-57189.1	1105.82	-29737.2	0.000000	0.000000	7.077241	39.7869	NaN	0.000000	0.001656	0.001717	28.0826	25.2952	0.001902	13302.7	3.081738	-175.111	38.1341	1.074991	0.022535	0.022169	39.7869	13302.7	0.020292	0.023003	1729.63	80134.7
1168	2.000000	1.077381	7.37648e+06	-57189.1	1105.82	-29737.2	0.000000	0.000000	7.079586	47.5677	NaN	0.000000	0.001682	0.001733	28.0826	26.4477	0.001624	16286.5	6.972309	178.502	48.882	1.077077	0.024560	0.024256	47.5677	16286.5	0.022369	0.026403	1801.59	91574.2
1168	2.000000	1.079304	7.37648e+06	-57189.1	1105.82	-29737.2	0.000000	0.000000	7.081800	54.646	NaN	0.000000	0.001588	0.001746	28.0833	28.2233	0.001660	16999.5	0.824577	-176.255	52.4548	1.079098	0.026483	0.026276	54.646	16999.5	0.024072	0.029349	1861.93	90659.3
1168	2.000000	1.081441	7.37648e+06	-57189.1	1105.82	-29737.2	0.000000	0.000000	7.084200	61.0367	NaN	0.000000	0.001559	0.001737	28.0824	30.9388	0.001798	17206.9	7.657745	178.212	62.6395	1.081023	0.028619	0.028201	61.0367	17206.9	0.025959	0.032783	1861.84	86826.6
1168	2.000000	1.083362	7.37648e+06	-57189.1	1105.82	-29737.2	0.000000	0.000000	7.086549	71.4344	NaN	0.000000	0.001591	0.001693	28.0825	32.4395	0.001772	18305	5.910061	178.397	71.4118	1.082981	0.030541	0.030160	71.4344	18305	0.027614	0.035943	1987.41	88213.1
1168	2.000000	1.085387	7.37648e+06	-57189.1	1105.82	-29737.2	0.000000	0.000000	7.088902	79.4114	NaN	0.000000	0.001586	0.001695	28.0829	34.8765	0.001759	19825.4	4.504514	178.958	79.7618	1.085073	0.032565	0.032252	79.4114	19825.4	0.029561	0.039839	1993.31	90749
1168	2.000000	1.087275	7.37648e+06	-57189.1	1105.82	-29737.2	0.000000	0.000000	7.091320	92.3032	NaN	0.000000	0.001577	0.001679	28.0825	35.4769	0.001711	20737.7	3.085217	179.899	88.7758	1.086972	0.034453	0.034151	92.3032	20737.7	0.031115	0.043087	2142.26	91277
1168	2.000000	1.089296	7.37648e+06	-57189.1	1105.82	-29737.2	0.000000	0.000000	7.093756	102.378	NaN	0.000000	0.001606	0.001741	28.0819	38.5636	0.001867	20655.8	4.084313	179.472	98.2202	1.088939	0.036475	0.036118	102.378	20655.8	0.032758	0.046654	2194.43	87372.2
1168	2.000000	1.091331	7.37648e+06	-57189.1	1105.82	-29737.2	0.000000	0.000000	7.095972	106.791	NaN	0.000000	0.001626	0.001746	28.0812	39.4225	0.001781	22132.2	2.432220	-179.288	104.203	1.091021	0.038509	0.038200	106.791	22132.2	0.034890	0.051491	2073.96	89110.9
1168	2.000000	1.093325	7.37648e+06	-57189.1	1105.82	-29737.2	0.000000	0.000000	7.098385	116.96	NaN	0.000000	0.001642	0.001751	28.0813	41.5983	0.001885	22066.6	2.735150	-179.585	115.065	1.092977	0.040504	0.040156	116.96	22066.6	0.036528	0.055364	2112.56	85682.9
1168	2.000000	1.095305	7.37648e+06	-57189.1	1105.82	-29737.2	0.000000	0.000000	7.100756	126.457	NaN	0.000000	0.001630	0.001700	28.0821	43.7153	0.001864	23450.9	5.119769	177.399	124.521	1.094999	0.042484	0.042178	126.457	23450.9	0.038440	0.060058	2105.59	87427.4
1168	2.000000	1.097336	7.37648e+06	-57189.1	1105.82	-29737.2	0.000000	0.000000	7.103134	134.903	NaN	0.000000	0.001617	0.001695	28.0813	44.7399	0.001845	24243.9	3.474657	178.921	133.68	1.097042	0.044514	0.044221	134.903	24243.9	0.040341	0.064912	2078.23	86938.3
1168	2.000000	1.099356	7.37648e+06	-57189.1	1105.82	-29737.2	0.000000	0.000000	7.105544	144.367	NaN	0.000000	0.001606	0.001698	28.0823	46.7168	0.001701	27463.6	2.721649	178.212	144.953	1.099079	0.046535	0.046257	144.367	27463.6	0.042593	0.070900	2036.21	94234.1
1168	2.000000	1.101307	7.37648e+06	-57189.1	1105.82	-29737.2	0.000000	0.000000	7.107917	154.64	NaN	0.000000	0.001605	0.001684	28.0812	49.0926	0.001852	26504	3.176906	178.703	150.8	1.100986	0.048486	0.048165	154.64	26504	0.044110	0.075080	2059.66	88373.3
1168	2.000000	1.103314	7.37648e+06	-57189.1	1105.82	-29737.2	0.000000	0.000000	7.110345	164.858	NaN	0.000000	0.001624	0.001725	28.0817	49.9976	0.001781	28069.5	2.715846	178.115	162.913	1.102992	0.050493	0.050171	164.858	28069.5	0.046088	0.080705	2042.72	90273
1168	2.000000	1.105294	7.37648e+06	-57189.1	1105.82	-29737.2	0.000000	0.000000	7.112787	176.09	NaN	0.000000	0.001627	0.001691	28.0814	53.6586	0.001943	27614.3	5.760059	175.561	174.653	1.104996	0.052472	0.052175	176.09	27614.3	0.047690	0.085407	2061.78	86329.9
1168	2.000000	1.107343	7.37648e+06	-57189.1	1105.82	-29737.2	0.000000	0.000000	7.115218	185.358	NaN	0.000000	0.001637	0.001690	28.0813	54.0446	0.001740	31054.2	5.283358	175.133	187.009	1.106943	0.054522	0.054122	185.358	31054.2	0.050045	0.092554	2002.7	93260.2
1168	2.000000	1.109289	7.37648e+06	-57189.1	1105.82	-29737.2	0.000000	0.000000	7.117519	193.993	NaN	0.000000	0.001624	0.001668	28.0823	56.4355	0.001685	33483.4	7.303773	172.113	194.654	1.109001	0.056468	0.056180	193.993	33483.4	0.052123	0.099087	1957.82	97184.2
1168	2.000000	1.111375	7.37648e+06	-57189.1	1105.82	-29737.2	0.000000	0.000000	7.120164	207.585	NaN	0.000000	0.001635	0.001692	28.0813	57.4707	0.001722	33382.6	0.183627	-179.398	207.55	1.110923	0.058554	0.058101	207.585	33382.6	0.053890	0.104816	1980.47	94206.3
1168	2.000000	1.113288	7.37648e+06	-57189.1	1105.82	-29737.2	0.000000	0.000000	7.122687	222.418	NaN	0.000000	0.001622	0.001752	28.0816	60.9124	0.001810	33658.8	7.985914	171.358	220.244	1.112983	0.060467	0.060162	222.418	33658.8	0.055511	0.110204	2018.23	92634.5
1168	2.000000	1.115337	7.37648e+06	-57189.1	1105.82	-29737.2	0.000000	0.000000	7.125220	234.181	NaN	0.000000	0.001600	0.001716	28.0813	62.9349	0.001880	33484.9	5.665265	174.494	233.917	1.114955	0.062516	0.062133	234.181	33484.9	0.057271	0.116204	2015.25	89745.1
1168	2.000000	1.117233	7.37648e+06	-57189.1	1105.82	-29737.2	0.000000	0.000000	7.127460	242.552	NaN	0.000000	0.001611	0.001758	28.0814	63.3271	0.001796	35268	3.263965	176.486	238.586	1.116953	0.064411	0.064132	242.552	35268	0.059253	0.123144	1969.66	91821.9
1168	2.000000	1.119269	7.37648e+06	-57189.1	1105.82	-29737.2	0.000000	0.000000	7.129846	251.045	NaN	0.000000	0.001615	0.001733	28.0816	67.0045	0.001880	35633	3.129296	176.556	248.051	1.118910	0.066448	0.066088	251.045	35633	0.061164	0.130014	1930.91	90288.3
1168	2.000000	1.121229	7.37648e+06	-57189.1	1105.82	-29737.2	0.000000	0.000000	7.132377	264.927	NaN	0.000000	0.001603	0.001732	28.0813	68.6497	0.001854	37026.8	3.880196	175.353	259.957	1.120954	0.068407	0.068132	264.927	37026.8	0.063041	0.136939	1934.64	91416.7
1168	2.000000	1.123273	7.37648e+06	-57189.1	1105.82	-29737.2	0.000000	0.000000	7.135291	286.066	NaN	0.000000	0.001621	0.001747	28.0829	70.7234	0.001868	37855.7	7.421343	172.132	284.684	1.122918	0.070452	0.070097	286.066	37855.7	0.064785	0.143522	1993.19	91294.7
1168	2.000000	1.125411	7.37648e+06	-57189.1	1105.82	-29737.2	0.000000	0.000000	7.137551	289.035	NaN	0.000000	0.001627	0.001697	28.0827	73.6924	0.001726	42691.5	8.335711	170.401	292.472	1.125057	0.072590	0.072236	289.035	42691.5	0.067512	0.154116	1875.45	99355.5
1168	2.000000	1.127335	7.37648e+06	-57189.1	1105.82	-29737.2	0.000000	0.000000	7.139948	300.526	NaN	0.000000	0.001608	0.001748	28.0827	74.6561	0.001950	38289.3	8.487244	171.431	300.032	1.126843	0.074514	0.074022	300.526	38289.3	0.068627	0.158549	1895.47	87855.4
1168	2.000000	1.129204	7.37648e+06	-57189.1	1105.82	-29737.2	0.000000	0.000000	7.142454	316.016	NaN	0.000000	0.001609	0.001761	28.0828	75.8883	0.001772	42815.7	6.315014	171.289	312.02	1.128865	0.076383	0.076044	316.016	42815.7	0.070847	0.167551	1886.09	95566
1168	2.000000	1.131235	7.37648e+06	-57189.1	1105.82	-29737.2	0.000000	0.000000	7.145122	331.507	NaN	0.000000	0.001597	0.001736	28.0826	77.5224	0.001848	41951.4	4.204971	173.996	327.538	1.130917	0.078414	0.078095	331.507	41951.4	0.072487	0.174353	1901.35	91792.1
1168	2.000000	1.133154	7.37648e+06	-57189.1	1105.82	-29737.2	0.000000	0.000000	7.147016	330.894	NaN	0.000000	0.001592	0.001751	28.083	78.3391	0.001740	45034.2	4.786292	172.321	323.168	1.132905	0.080333	0.080084	330.894	45034.2	0.074822	0.184256	1795.84	95852.9
1168	2.000000	1.135213	7.37648e+06	-57189.1	1105.82	-29737.2	0.000000	0.000000	7.150146	356.934	NaN	0.000000	0.001604	0.001700	28.0825	81.0686	0.001716	47254.8	6.202007	170.478	351.567	1.134968	0.082391	0.082147	356.934	47254.8	0.076726	0.192520	1854.01	98396.7
1168	2.000000	1.137275	7.37648e+06	-57189.1	1105.82	-29737.2	0.000000	0.000000	7.152855	372.648	NaN	0.000000	0.001606	0.001737	28.0826	81.6886	0.001863	43853	3.918695	174.159	371.22	1.136909	0.084454	0.084088	372.648	43853	0.078080	0.198502	1877.3	89927
1168	2.000000	1.139198	7.37648e+06	-57189.1	1105.82	-29737.2	0.000000	0.000000	7.154710	370.987	NaN	0.000000	0.001633	0.001730	28.0827	84.7193	0.001851	45768.2	3.934226	173.321	364.665	1.138865	0.086377	0.086043	370.987	45768.2	0.080298	0.208482	1779.47	91580.5
1168	2.000000	1.141330	7.37648e+06	-57189.1	1105.82	-29737.2	0.000000	0.000000	7.157824	394.862	NaN	0.000000	0.001616	0.001767	28.0826	86.1784	0.001792	48088.5	2.839771	174.727	395.55	1.140999	0.088509	0.088177	394.862	48088.5	0.082351	0.217925	1811.92	94115.4
1168	2.000000	1.143302	7.37648e+06	-57189.1	1105.82	-29737.2	0.000000	0.000000	7.160552	413.231	NaN	0.000000	0.001620	0.001739	28.0826	89.0162	0.001808	49241	4.448208	173.436	414.234	1.142842	0.090481	0.090020	413.231	49241	0.084187	0.226539	1824.11	94521.1
1168	2.000000	1.145406	7.37648e+06	-57189.1	1105.82	-29737.2	0.000000	0.000000	7.161947	396.007	NaN	0.000000	0.001612	0.001736	28.0826	92.7605	0.001856	49984.9	6.072834	170.212	399.925	1.145345	0.092585	0.092524	396.007	49984.9	0.086643	0.238300	1661.8	93551.3
1168	2.000000	1.147262	7.37648e+06	-57189.1	1105.82	-29737.2	0.000000	0.000000	7.165499	437.22	NaN	0.000000	0.001590	0.001745	28.0826	92.7519	0.001839	50447.1	5.075846	172.55	435.46	1.146876	0.094441	0.094055	437.22	50447.1	0.087941	0.244629	1787.28	93187
1168	2.000000	1.149270	7.37648e+06	-57189.1	1105.82	-29737.2	0.000000	0.000000	7.167867	445.978	NaN	0.000000	0.001583	0.001728	28.0826	95.2721	0.001822	52288	6.188137	170.324	444.995	1.148928	0.096449	0.096106	445.978	52288	0.090052	0.255089	1748.32	94586.4
1168	2.000000	1.151433	7.37648e+06	-57189.1	1105.82	-29737.2	0.000000	0.000000	7.169122	423.931	NaN	0.000000	0.001603	0.001750	28.0832	96.1926	0.001874	51333.8	0.149878	176.619	428.241	1.151496	0.098611	0.098674	423.931	51333.8	0.092417	0.267052	1587.45	90756.8
1168	2.000000	1.153217	7.37648e+06	-57189.1	1105.82	-29737.2	0.000000	0.000000	7.173086	476.914	NaN	0.000000	0.001616	0.001760	28.0829	98.8144	0.001876	52665	7.946851	169.011	474.688	1.152820	0.100395	0.099998	476.914	52665	0.093603	0.273146	1746.01	92065.7
1168	2.000000	1.155357	7.37648e+06	-57189.1	1105.82	-29737.2	0.000000	0.000000	7.175808	491.021	NaN	0.000000	0.001611	0.001723	28.0828	101.043	0.001899	53205.1	6.017232	170.375	495.63	1.155161	0.102536	0.102340	491.021	53205.1	0.095614	0.283625	1731.23	91275.5
1168	2.000000	1.157334	7.37648e+06	-57189.1	1105.82	-29737.2	0.000000	0.000000	7.178379	505.475	NaN	0.000000	0.001641	0.001724	28.0816	101.917	0.001900	53628.5	4.604920	172.409	508.837	1.156954	0.104512	0.104133	505.475	53628.5	0.097443	0.293317	1723.31	90469.2
1168	2.000000	1.158155	7.37648e+06	-57189.1	1105.82	-29737.2	0.000000	0.000000	7.179787	519.75	NaN	0.000000	0.001620	0.001706	28.0815	103.17	0.001850	55756.2	4.814323	171.299	513.486	1.157820	0.105334	0.104998	519.75	55756.2	0.098342	0.298136	1743.33	93295.2