File: remote_trans/data/nanoindenter/0828-1/data/Data_2025-08-06,11h17m57s/2025-07-22_16-23-58_1_1041.txt
2025-07-22, 16:23:58, 1
Index	Phase	Displacement	Time	Pos X	Pos Y	Pos Z	Rot A	Rot B	Piezo Z	Force A	Force B	Gripper	Voltage A	Voltage B	Temperature	Amplitude force	Amplitude pos	Stiffness	Phase shift	Phase excitation	Force A raw	Displacement raw	HMax	HMax raw	Real Force	Real Stiffness	Contact Depth	Area	Hardness	Reduced Mod.
[#]	[#]	[um]	[s]	[um]	[um]	[um]	[m°]	[m°]	[um]	[uN]	[uN]	[V]	[V]	[V]	[°C]	[uN]	[um]	[N/m]	[°]	[°]	[uN]	[um]	[um]	[um]	[uN]	[N/m]	[um]	[um^2]	[MPa]	[MPa]
1041	1.000000	0.002623	7.37523e+06	-52189.1	1055.82	-29749.8	0.000000	0.000000	6.002782	0.025908	NaN	0.000000	0.001710	0.001709	28.0839	0.063266	0.000946	66.861	176.999	-163.355	-0.025051	0.001381	-1.061416	-1.062658	0.025908	66.861	-1.061707	-1.533757E+14	-1.689176E-16	NaN
1041	1.000000	0.010609	7.37523e+06	-52189.1	1055.82	-29749.8	0.000000	0.000000	6.010766	-0.015788	NaN	0.000000	0.001687	0.001707	28.0839	0.046736	0.000987	47.3664	12.4014	-161.455	-0.047859	0.009271	-1.053430	-1.054768	-0.015788	47.3664	-1.053180	-1.178053E+14	1.340168E-16	NaN
1041	1.000000	0.018595	7.37523e+06	-52189.1	1055.82	-29749.8	0.000000	0.000000	6.018754	0.015864	NaN	0.000000	0.001710	0.001678	28.0837	0.045016	0.001681	26.7796	-41.0217	-166.995	-0.007034	0.017246	-1.045444	-1.046793	0.015864	26.7796	-1.045888	-9.400228E+13	-1.687596E-16	NaN
1041	1.000000	0.026612	7.37523e+06	-52189.1	1055.82	-29749.8	0.000000	0.000000	6.026773	0.062638	NaN	0.000000	0.001762	0.001698	28.0837	0.142925	0.001853	77.1466	135.939	-164.725	0.025354	0.025321	-1.037427	-1.038718	0.062638	77.1466	-1.038036	-7.371470E+13	-8.497309E-16	NaN
1041	1.000000	0.034581	7.37523e+06	-52189.1	1055.82	-29749.8	0.000000	0.000000	6.034743	0.075281	NaN	0.000000	0.001715	0.001679	28.0838	0.051547	0.001857	27.7553	77.0361	-165.751	0.025374	0.033334	-1.029458	-1.030705	0.075281	27.7553	-1.031492	-6.019317E+13	-1.250658E-15	NaN
1041	1.000000	0.042593	7.37523e+06	-52189.1	1055.82	-29749.8	0.000000	0.000000	6.042751	-0.006165	NaN	0.000000	0.001728	0.001691	28.0837	0.119656	0.002035	58.803	-128.251	-165.692	-0.007817	0.041252	-1.021446	-1.022787	-0.006165	58.803	-1.021367	-4.398949E+13	1.401526E-16	NaN
1041	1.000000	0.050579	7.37523e+06	-52189.1	1055.82	-29749.8	0.000000	0.000000	6.050739	0.028534	NaN	0.000000	0.001760	0.001680	28.0836	0.127222	0.002039	62.3972	-166.615	-168.94	0.046089	0.049292	-1.013460	-1.014747	0.028534	62.3972	-1.013803	-3.479856E+13	-8.199736E-16	NaN
1041	1.000000	0.058587	7.37523e+06	-52189.1	1055.82	-29749.8	0.000000	0.000000	6.058749	0.083488	NaN	0.000000	0.001704	0.001699	28.0823	0.035210	0.002037	17.2868	166.387	-165.26	0.005930	0.057213	-1.005452	-1.006826	0.083488	17.2868	-1.009074	-3.005507E+13	-2.777850E-15	NaN
1041	1.000000	0.066622	7.37523e+06	-52189.1	1055.82	-29749.8	0.000000	0.000000	6.066781	0.026108	NaN	0.000000	0.001739	0.001667	28.0824	0.074823	0.002049	36.5235	-77.8768	-165.467	0.031575	0.065261	-0.997417	-0.998778	0.026108	36.5235	-0.997953	-2.129189E+13	-1.226196E-15	NaN
1041	1.000000	0.074605	7.37523e+06	-52189.1	1055.82	-29749.8	0.000000	0.000000	6.074767	0.092178	NaN	0.000000	0.001733	0.001663	28.0823	0.046220	0.002020	22.8826	151.39	-163.423	0.102115	0.073281	-0.989434	-0.990758	0.092178	22.8826	-0.992455	-1.795476E+13	-5.133887E-15	NaN
1041	1.000000	0.082656	7.37523e+06	-52189.1	1055.82	-29749.8	0.000000	0.000000	6.082815	0.024328	NaN	0.000000	0.001723	0.001660	28.0822	0.052285	0.002085	25.0764	-68.8422	-166.739	0.113600	0.081279	-0.981383	-0.982760	0.024328	25.0764	-0.982111	-1.302702E+13	-1.867488E-15	NaN
1041	1.000000	0.090590	7.37523e+06	-52189.1	1055.82	-29749.8	0.000000	0.000000	6.090752	0.086090	NaN	0.000000	0.001710	0.001677	28.0823	0.114164	0.002095	54.4849	-50.9276	-165.953	0.065825	0.089305	-0.973449	-0.974734	0.086090	54.4849	-0.974634	-1.033024E+13	-8.333825E-15	NaN
1041	1.000000	0.098611	7.37523e+06	-52189.1	1055.82	-29749.8	0.000000	0.000000	6.098772	0.062063	NaN	0.000000	0.001703	0.001702	28.0825	0.038948	0.002042	19.075	38.7094	-165.988	0.018448	0.097327	-0.965428	-0.966711	0.062063	19.075	-0.967868	-8.373988E+12	-7.411417E-15	NaN
1041	1.000000	0.106598	7.37523e+06	-52189.1	1055.82	-29749.8	0.000000	0.000000	6.106759	0.076020	NaN	0.000000	0.001703	0.001692	28.0827	0.075005	0.002130	35.2099	-25.7307	-162.59	0.053870	0.105290	-0.957441	-0.958749	0.076020	35.2099	-0.959061	-6.370943E+12	-1.193233E-14	NaN
1041	1.000000	0.114587	7.37523e+06	-52189.1	1055.82	-29749.8	0.000000	0.000000	6.114748	0.072985	NaN	0.000000	0.001717	0.001716	28.0824	0.121800	0.001983	61.4183	-51.7401	-166.575	0.092134	0.113368	-0.949452	-0.950671	0.072985	61.4183	-0.950343	-4.860241E+12	-1.501682E-14	NaN
1041	1.000000	0.122601	7.37523e+06	-52189.1	1055.82	-29749.8	0.000000	0.000000	6.122761	0.021763	NaN	0.000000	0.001729	0.001700	28.0821	0.032441	0.002113	15.355	151.474	-167.114	0.036592	0.121321	-0.941438	-0.942718	0.021763	15.355	-0.942501	-3.809551E+12	-5.712753E-15	NaN
1041	1.000000	0.130633	7.37523e+06	-52189.1	1055.82	-29749.8	0.000000	0.000000	6.130793	0.027909	NaN	0.000000	0.001716	0.001721	28.0822	0.104943	0.001947	53.8922	-58.0594	-166.8	0.036178	0.129291	-0.933406	-0.934748	0.027909	53.8922	-0.933794	-2.906735E+12	-9.601359E-15	NaN
1041	1.000000	0.138639	7.37523e+06	-52189.1	1055.82	-29749.8	0.000000	0.000000	6.138798	0.030643	NaN	0.000000	0.001704	0.001727	28.0823	0.109871	0.001918	57.2848	-15.6575	-165.346	0.097167	0.137348	-0.925400	-0.926691	0.030643	57.2848	-0.925801	-2.267393E+12	-1.351450E-14	NaN
1041	1.000000	0.146653	7.37523e+06	-52189.1	1055.82	-29749.8	0.000000	0.000000	6.146814	0.054071	NaN	0.000000	0.001724	0.001677	28.0824	0.056248	0.001981	28.3911	-111.003	-168.099	0.096137	0.145329	-0.917386	-0.918710	0.054071	28.3911	-0.918814	-1.824701E+12	-2.963275E-14	NaN
1041	1.000000	0.154607	7.37523e+06	-52189.1	1055.82	-29749.8	0.000000	0.000000	6.154765	-0.000789	NaN	0.000000	0.001675	0.001711	28.0825	0.126925	0.002044	62.0916	107.279	-168.192	0.065161	0.153306	-0.909432	-0.910733	-0.000789	62.0916	-0.909423	-1.362596E+12	5.788020E-16	NaN
1041	1.000000	0.162641	7.37523e+06	-52189.1	1055.82	-29749.8	0.000000	0.000000	6.162801	0.042447	NaN	0.000000	0.001696	0.001715	28.0822	0.042945	0.001995	21.5237	-157.816	-164.31	0.060647	0.161273	-0.901398	-0.902766	0.042447	21.5237	-0.902877	-1.111583E+12	-3.818572E-14	NaN
1041	1.000000	0.170612	7.37523e+06	-52189.1	1055.82	-29749.8	0.000000	0.000000	6.170771	0.009142	NaN	0.000000	0.001670	0.001670	28.0823	0.019800	0.001943	10.1912	-99.1171	-167.276	0.022891	0.169351	-0.893427	-0.894688	0.009142	10.1912	-0.894100	-8.459248E+11	-1.080758E-14	NaN
1041	1.000000	0.178653	7.37523e+06	-52189.1	1055.82	-29749.8	0.000000	0.000000	6.178813	0.044521	NaN	0.000000	0.001668	0.001675	28.0823	0.050197	0.002058	24.3961	14.1423	-166.093	0.135252	0.177323	-0.885386	-0.886716	0.044521	24.3961	-0.886755	-6.730409E+11	-6.614896E-14	NaN
1041	1.000000	0.186627	7.37523e+06	-52189.1	1055.82	-29749.8	0.000000	0.000000	6.186788	0.047865	NaN	0.000000	0.001650	0.001654	28.0824	0.127742	0.001956	65.2986	73.2636	-165.921	0.077911	0.185349	-0.877411	-0.878690	0.047865	65.2986	-0.877961	-5.118416E+11	-9.351441E-14	NaN
1041	1.000000	0.194607	7.37523e+06	-52189.1	1055.82	-29749.8	0.000000	0.000000	6.194767	0.040340	NaN	0.000000	0.001750	0.001682	28.0838	0.048043	0.001863	25.7908	-12.3093	-166.551	0.108483	0.193330	-0.869432	-0.870709	0.040340	25.7908	-0.870605	-4.070301E+11	-9.910771E-14	NaN
1041	1.000000	0.202674	7.37523e+06	-52189.1	1055.82	-29749.8	0.000000	0.000000	6.202835	0.055062	NaN	0.000000	0.001753	0.001683	28.0834	0.118191	0.002080	56.8341	103.798	-165.125	0.088901	0.201335	-0.861365	-0.862704	0.055062	56.8341	-0.862092	-3.121992E+11	-1.763678E-13	NaN
1041	1.000000	0.210685	7.37523e+06	-52189.1	1055.82	-29749.9	0.000000	0.000000	6.210845	0.040902	NaN	0.000000	0.001716	0.001687	28.0836	0.061334	0.002044	30.0029	135.235	-166.842	0.030410	0.209327	-0.853354	-0.854712	0.040902	30.0029	-0.854376	-2.454668E+11	-1.666281E-13	NaN
1041	1.000000	0.218659	7.37523e+06	-52189.1	1055.82	-29749.9	0.000000	0.000000	6.218818	0.017923	NaN	0.000000	0.001709	0.001715	28.0834	0.034635	0.002015	17.1895	120.956	-160.624	0.023171	0.217389	-0.845380	-0.846650	0.017923	17.1895	-0.846162	-1.900018E+11	-9.432896E-14	NaN
1041	1.000000	0.226651	7.37523e+06	-52189.1	1055.82	-29749.9	0.000000	0.000000	6.226810	0.024365	NaN	0.000000	0.001629	0.001730	28.0833	0.049673	0.002076	23.9224	108.426	-166.054	0.055973	0.225332	-0.837388	-0.838707	0.024365	23.9224	-0.838152	-1.479984E+11	-1.646287E-13	NaN
1041	1.000000	0.234678	7.37523e+06	-52189.1	1055.82	-29749.9	0.000000	0.000000	6.234840	0.078208	NaN	0.000000	0.001681	0.001718	28.084	0.087447	0.002093	41.7872	-73.3159	-160.766	0.067272	0.233406	-0.829361	-0.830633	0.078208	41.7872	-0.830764	-1.175290E+11	-6.654343E-13	NaN
1041	1.000000	0.242658	7.37523e+06	-52189.1	1055.82	-29749.9	0.000000	0.000000	6.242819	0.039272	NaN	0.000000	0.001691	0.001729	28.0837	0.051225	0.001898	26.9915	-91.0011	-167.64	0.077052	0.241310	-0.821381	-0.822729	0.039272	26.9915	-0.822472	-9.072516E+10	-4.328680E-13	NaN
1041	1.000000	0.250681	7.37523e+06	-52189.1	1055.82	-29749.9	0.000000	0.000000	6.250841	0.039016	NaN	0.000000	0.001654	0.001694	28.0839	0.110848	0.002004	55.3191	-147.159	-167.644	0.055455	0.249377	-0.813358	-0.814662	0.039016	55.3191	-0.813887	-6.939092E+10	-5.622617E-13	NaN
1041	1.000000	0.258659	7.37523e+06	-52189.1	1055.82	-29749.9	0.000000	0.000000	6.258821	0.080836	NaN	0.000000	0.001643	0.001701	28.0836	0.085730	0.002114	40.5563	-166.993	-166.189	0.080597	0.257377	-0.805380	-0.806662	0.080836	40.5563	-0.806875	-5.573973E+10	-1.450239E-12	NaN
1041	1.000000	0.266658	7.37523e+06	-52189.1	1055.82	-29749.9	0.000000	0.000000	6.266820	0.092371	NaN	0.000000	0.001635	0.001686	28.0837	0.114329	0.001876	60.9483	52.6716	-165.97	0.060531	0.265393	-0.797381	-0.798645	0.092371	60.9483	-0.798518	-4.292832E+10	-2.151739E-12	NaN
1041	1.000000	0.274687	7.37523e+06	-52189.1	1055.82	-29749.9	0.000000	0.000000	6.274845	-0.018112	NaN	0.000000	0.001668	0.001684	28.0836	0.066336	0.002000	33.1603	-17.0172	-163.811	-0.019733	0.273375	-0.789352	-0.790664	-0.018112	33.1603	-0.788942	-3.182140E+10	5.691693E-13	NaN
1041	1.000000	0.282694	7.37523e+06	-52189.1	1055.82	-29749.9	0.000000	0.000000	6.282854	0.017513	NaN	0.000000	0.001637	0.001703	28.0838	0.061440	0.001874	32.7803	82.3906	-163.659	0.077998	0.281396	-0.781345	-0.782643	0.017513	32.7803	-0.781745	-2.540662E+10	-6.893211E-13	NaN
1041	1.000000	0.290673	7.37523e+06	-52189.1	1055.82	-29749.9	0.000000	0.000000	6.290833	0.030484	NaN	0.000000	0.001662	0.001701	28.0841	0.069527	0.001931	35.9969	0.641160	-165.999	0.049801	0.289364	-0.773365	-0.774675	0.030484	35.9969	-0.774001	-1.993852E+10	-1.528886E-12	NaN
1041	1.000000	0.298682	7.37523e+06	-52189.1	1055.82	-29749.9	0.000000	0.000000	6.298842	0.042247	NaN	0.000000	0.001630	0.001678	28.0837	0.021163	0.002037	10.3892	39.933	-163.749	0.062203	0.297419	-0.765357	-0.766619	0.042247	10.3892	-0.768407	-1.673582E+10	-2.524325E-12	NaN
1041	1.000000	0.306703	7.37523e+06	-52189.1	1055.82	-29749.9	0.000000	0.000000	6.306864	0.051529	NaN	0.000000	0.001623	0.001721	28.0836	0.058191	0.001948	29.8768	-22.3492	-165.428	0.055458	0.305376	-0.757336	-0.758663	0.051529	29.8768	-0.758629	-1.232123E+10	-4.182125E-12	NaN
1041	1.000000	0.314679	7.37523e+06	-52189.1	1055.82	-29749.9	0.000000	0.000000	6.314835	-0.074198	NaN	0.000000	0.001641	0.001685	28.0835	0.111853	0.002037	54.8996	74.1102	-168.793	0.055439	0.313371	-0.749360	-0.750668	-0.074198	54.8996	-0.748346	-8.926939E+9	8.311651E-12	NaN
1041	1.000000	0.322689	7.37523e+06	-52189.1	1055.82	-29749.9	0.000000	0.000000	6.322847	-0.013076	NaN	0.000000	0.001609	0.001734	28.0836	0.061743	0.002050	30.1167	124.118	-165.466	-0.064276	0.321441	-0.741350	-0.742598	-0.013076	30.1167	-0.741024	-7.095826E+9	1.842824E-12	NaN
1041	1.000000	0.330693	7.37523e+06	-52189.1	1055.82	-29749.9	0.000000	0.000000	6.330851	0.007168	NaN	0.000000	0.001616	0.001685	28.0824	0.066980	0.002056	32.5729	152.373	-166.663	0.015856	0.329407	-0.733346	-0.734631	0.007168	32.5729	-0.733511	-5.606079E+9	-1.278662E-12	NaN
1041	1.000000	0.338680	7.37523e+06	-52189.1	1055.82	-29749.9	0.000000	0.000000	6.338840	0.056070	NaN	0.000000	0.001592	0.001677	28.0827	0.012298	0.001801	6.830239	-101.393	-166.54	0.016230	0.337440	-0.725359	-0.726599	0.056070	6.830239	-0.731516	-5.265872E+9	-1.064775E-11	NaN
1041	1.000000	0.346738	7.37523e+06	-52189.1	1055.82	-29749.9	0.000000	0.000000	6.346897	0.011857	NaN	0.000000	0.001661	0.001662	28.0827	0.127895	0.001946	65.732	-146.683	-163.353	0.051947	0.345390	-0.717301	-0.718649	0.011857	65.732	-0.717436	-3.384571E+9	-3.503204E-12	NaN
1041	1.000000	0.354715	7.37523e+06	-52189.1	1055.82	-29749.9	0.000000	0.000000	6.354876	0.070762	NaN	0.000000	0.001615	0.001671	28.0825	0.050271	0.002009	25.024	22.1666	-162.48	0.005908	0.353391	-0.709324	-0.710648	0.070762	25.024	-0.711445	-2.803913E+9	-2.523678E-11	NaN
1041	1.000000	0.362706	7.37523e+06	-52189.1	1055.82	-29749.9	0.000000	0.000000	6.362867	0.077823	NaN	0.000000	0.001597	0.001680	28.0825	0.078658	0.001942	40.4986	-178.172	-163.788	0.096732	0.361409	-0.701333	-0.702630	0.077823	40.4986	-0.702775	-2.135098E+9	-3.644956E-11	NaN
1041	1.000000	0.370716	7.37523e+06	-52189.1	1055.82	-29749.9	0.000000	0.000000	6.370876	0.043371	NaN	0.000000	0.001624	0.001686	28.0826	0.071527	0.002165	33.0382	140.387	-166.397	0.052921	0.369431	-0.693323	-0.694608	0.043371	33.0382	-0.694307	-1.635966E+9	-2.651118E-11	NaN
1041	1.000000	0.378705	7.37523e+06	-52189.1	1055.82	-29749.9	0.000000	0.000000	6.378867	0.088838	NaN	0.000000	0.001622	0.001657	28.0827	0.047029	0.002087	22.5349	-166.08	-169.776	0.038932	0.377413	-0.685334	-0.686626	0.088838	22.5349	-0.688290	-1.353796E+9	-6.562151E-11	NaN
1041	1.000000	0.386754	7.37523e+06	-52189.1	1055.82	-29749.9	0.000000	0.000000	6.386915	0.065382	NaN	0.000000	0.001654	0.001679	28.0824	0.077483	0.002001	38.726	-69.1216	-165.634	0.063385	0.385452	-0.677285	-0.678587	0.065382	38.726	-0.678552	-9.963146E+8	-6.562339E-11	NaN
1041	1.000000	0.394732	7.37523e+06	-52189.1	1055.82	-29749.9	0.000000	0.000000	6.394892	0.037111	NaN	0.000000	0.001673	0.001682	28.0825	0.123003	0.002189	56.1843	0.649628	-167.154	0.073849	0.393464	-0.669307	-0.670574	0.037111	56.1843	-0.669802	-7.562812E+8	-4.906984E-11	NaN
1041	1.000000	0.402726	7.37523e+06	-52189.1	1055.82	-29749.9	0.000000	0.000000	6.402886	0.028817	NaN	0.000000	0.001604	0.001667	28.0828	0.053493	0.001946	27.4885	-42.3418	-167.038	0.030958	0.401432	-0.661313	-0.662607	0.028817	27.4885	-0.662099	-5.932196E+8	-4.857731E-11	NaN
1041	1.000000	0.410722	7.37523e+06	-52189.1	1055.82	-29749.9	0.000000	0.000000	6.410880	0.008931	NaN	0.000000	0.001637	0.001690	28.0826	0.083320	0.001937	43.0075	15.7972	-164.851	-0.021604	0.409401	-0.653317	-0.654638	0.008931	43.0075	-0.653473	-4.519002E+8	-1.976379E-11	NaN
1041	1.000000	0.418764	7.37523e+06	-52189.1	1055.82	-29749.9	0.000000	0.000000	6.418922	0.002094	NaN	0.000000	0.001621	0.001695	28.0827	0.021884	0.001997	10.9563	-117.792	-164.455	0.056989	0.417444	-0.645275	-0.646595	0.002094	10.9563	-0.645418	-3.504425E+8	-5.973940E-12	NaN
1041	1.000000	0.426758	7.37523e+06	-52189.1	1055.82	-29749.9	0.000000	0.000000	6.426920	0.073741	NaN	0.000000	0.001646	0.001666	28.0824	0.131890	0.001985	66.4319	63.5606	-164.222	0.060524	0.425395	-0.637281	-0.638644	0.073741	66.4319	-0.638113	-2.782289E+8	-2.650362E-10	NaN
1041	1.000000	0.434741	7.37523e+06	-52189.1	1055.82	-29749.9	0.000000	0.000000	6.434901	0.043421	NaN	0.000000	0.001627	0.001649	28.0826	0.021542	0.001782	12.0879	-103.357	-165.145	0.010062	0.433439	-0.629298	-0.630599	0.043421	12.0879	-0.631992	-2.292881E+8	-1.893733E-10	NaN
1041	1.000000	0.442745	7.37523e+06	-52189.1	1055.82	-29749.9	0.000000	0.000000	6.442906	0.061130	NaN	0.000000	0.001618	0.001705	28.0827	0.105094	0.001964	53.5107	-146.12	-168.347	0.080319	0.441466	-0.621294	-0.622573	0.061130	53.5107	-0.622151	-1.679545E+8	-3.639681E-10	NaN
1041	1.000000	0.450722	7.37523e+06	-52189.1	1055.82	-29749.9	0.000000	0.000000	6.450884	0.080259	NaN	0.000000	0.001638	0.001681	28.0826	0.103223	0.002071	49.8518	168.402	-165.756	0.064799	0.449444	-0.613317	-0.614595	0.080259	49.8518	-0.614524	-1.319312E+8	-6.083375E-10	NaN
1041	1.000000	0.458737	7.37523e+06	-52189.1	1055.82	-29749.9	0.000000	0.000000	6.458898	0.063408	NaN	0.000000	0.001622	0.001688	28.0827	0.098094	0.002009	48.8284	121.948	-165.135	0.070536	0.457465	-0.605302	-0.606574	0.063408	48.8284	-0.606276	-1.015928E+8	-6.241400E-10	NaN
1041	1.000000	0.466790	7.37523e+06	-52189.1	1055.82	-29749.9	0.000000	0.000000	6.466952	0.083997	NaN	0.000000	0.001627	0.001714	28.0839	0.040038	0.002026	19.76	69.1568	-166.116	0.088113	0.465462	-0.597249	-0.598577	0.083997	19.76	-0.600437	-8.442760E+7	-9.948964E-10	NaN
1041	1.000000	0.474760	7.37523e+06	-52189.1	1055.82	-29749.9	0.000000	0.000000	6.474919	0.007390	NaN	0.000000	0.001639	0.001718	28.0843	0.036433	0.001920	18.9718	-86.0202	-166.258	-0.008325	0.473463	-0.589279	-0.590576	0.007390	18.9718	-0.589571	-5.980648E+7	-1.235582E-10	NaN
1041	1.000000	0.482759	7.37523e+06	-52189.1	1055.82	-29749.9	0.000000	0.000000	6.482919	0.047015	NaN	0.000000	0.001637	0.001686	28.0841	0.090265	0.002129	42.4071	-134.628	-167.994	0.093980	0.481491	-0.581280	-0.582548	0.047015	42.4071	-0.582111	-4.719152E+7	-9.962583E-10	NaN
1041	1.000000	0.490813	7.37523e+06	-52189.1	1055.82	-29749.9	0.000000	0.000000	6.490970	-0.036072	NaN	0.000000	0.001670	0.001686	28.0841	0.133262	0.002022	65.9179	135.251	-163.922	-0.038106	0.489410	-0.573226	-0.574628	-0.036072	65.9179	-0.572816	-3.511802E+7	1.027163E-9	NaN
1041	1.000000	0.498778	7.37523e+06	-52189.1	1055.82	-29749.9	0.000000	0.000000	6.498939	0.056713	NaN	0.000000	0.001644	0.001701	28.0842	0.117654	0.001969	59.7658	-56.8629	-165.44	0.073725	0.497512	-0.565261	-0.566527	0.056713	59.7658	-0.565973	-2.824704E+7	-2.007767E-9	NaN
1041	1.000000	0.506791	7.37523e+06	-52189.1	1055.82	-29749.9	0.000000	0.000000	6.506952	0.066537	NaN	0.000000	0.001662	0.001685	28.0838	0.062559	0.001986	31.4968	107.851	-164.677	0.101842	0.505439	-0.557248	-0.558600	0.066537	31.4968	-0.558833	-2.250243E+7	-2.956871E-9	NaN
1041	1.000000	0.514789	7.37523e+06	-52189.1	1055.82	-29749.9	0.000000	0.000000	6.514950	0.053828	NaN	0.000000	0.001702	0.001687	28.0839	0.117885	0.002064	57.1101	-167.159	-166.005	0.042707	0.513474	-0.549250	-0.550565	0.053828	57.1101	-0.549957	-1.695721E+7	-3.174343E-9	NaN
1041	1.000000	0.522770	7.37523e+06	-52189.1	1055.82	-29749.9	0.000000	0.000000	6.522932	0.072578	NaN	0.000000	0.001655	0.001719	28.084	0.027490	0.001921	14.3078	52.0213	-168.261	-0.000699	0.521424	-0.541269	-0.542615	0.072578	14.3078	-0.545073	-1.451090E+7	-5.001637E-9	NaN
1041	1.000000	0.530816	7.37523e+06	-52189.1	1055.82	-29749.9	0.000000	0.000000	6.530974	-0.009342	NaN	0.000000	0.001699	0.001701	28.084	0.055377	0.001945	28.4761	34.3443	-168.932	0.069528	0.529553	-0.533223	-0.534486	-0.009342	28.4761	-0.532977	-9.86086e+06	9.473482E-10	NaN
1041	1.000000	0.538798	7.37523e+06	-52189.1	1055.82	-29749.9	0.000000	0.000000	6.538957	-0.000949	NaN	0.000000	0.001693	0.001681	28.0842	0.108704	0.002109	51.5408	-59.7271	-167.606	0.024648	0.537502	-0.525241	-0.526537	-0.000949	51.5408	-0.525227	-7.69599e+06	1.232718E-10	NaN
1041	1.000000	0.546772	7.37523e+06	-52189.1	1055.82	-29749.9	0.000000	0.000000	6.546935	0.116340	NaN	0.000000	0.001721	0.001701	28.0842	0.085689	0.002080	41.1869	-1.757827	-169.264	0.033120	0.545500	-0.517267	-0.518539	0.116340	41.1869	-0.519386	-6.38339e+06	-1.822543E-8	NaN
1041	1.000000	0.554777	7.37523e+06	-52189.1	1055.82	-29749.9	0.000000	0.000000	6.554936	0.026917	NaN	0.000000	0.001690	0.001716	28.0841	0.143441	0.001930	74.329	-129.832	-165.273	0.012930	0.553489	-0.509262	-0.510550	0.026917	74.329	-0.509534	-4.65501e+06	-5.782415E-9	NaN
1041	1.000000	0.562812	7.37523e+06	-52189.1	1055.82	-29749.9	0.000000	0.000000	6.562973	0.070304	NaN	0.000000	0.001678	0.001707	28.084	0.080650	0.002008	40.1728	-158.461	-165.656	0.023566	0.561517	-0.501227	-0.502522	0.070304	40.1728	-0.502540	-3.71916e+06	-1.890326E-8	NaN
1041	1.000000	0.570810	7.37523e+06	-52189.1	1055.82	-29749.9	0.000000	0.000000	6.570969	-0.002424	NaN	0.000000	0.001681	0.001660	28.084	0.078463	0.001979	39.6501	-57.4394	-162.996	-0.050896	0.569506	-0.493229	-0.494533	-0.002424	39.6501	-0.493183	-2.75334e+06	8.803690E-10	NaN
1041	1.000000	0.578822	7.37523e+06	-52189.1	1055.82	-29749.9	0.000000	0.000000	6.578984	0.093714	NaN	0.000000	0.001665	0.001674	28.0841	0.045322	0.002015	22.493	-83.1757	-169.101	0.162201	0.577478	-0.485217	-0.486560	0.093714	22.493	-0.488342	-2.35626e+06	-3.977235E-8	NaN
1041	1.000000	0.586827	7.37523e+06	-52189.1	1055.82	-29749.9	0.000000	0.000000	6.586986	0.015033	NaN	0.000000	0.001648	0.001673	28.0837	0.067273	0.002076	32.4011	112.929	-165.552	0.054414	0.585500	-0.477212	-0.478539	0.015033	32.4011	-0.477560	-1.6648e+06	-9.029847E-9	NaN
1041	1.000000	0.594789	7.37523e+06	-52189.1	1055.82	-29749.9	0.000000	0.000000	6.594949	0.039254	NaN	0.000000	0.001704	0.001678	28.084	0.038044	0.002016	18.8666	131.127	-165.769	-0.008594	0.593509	-0.469250	-0.470530	0.039254	18.8666	-0.470811	-1.33898e+06	-2.931604E-8	NaN
1041	1.000000	0.602820	7.37523e+06	-52189.1	1055.82	-29749.9	0.000000	0.000000	6.602977	-0.048031	NaN	0.000000	0.001652	0.001669	28.0827	0.056424	0.002025	27.8613	-33.8375	-166.653	-0.041358	0.601531	-0.461218	-0.462508	-0.048031	27.8613	-0.459925	-941827	5.099767E-8	NaN
1041	1.000000	0.610813	7.37523e+06	-52189.1	1055.82	-29749.9	0.000000	0.000000	6.610974	0.046700	NaN	0.000000	0.001669	0.001705	28.0824	0.098151	0.001917	51.1943	-79.2101	-164.831	0.065906	0.609484	-0.453226	-0.454555	0.046700	51.1943	-0.453910	-775136	-6.024794E-8	NaN
1041	1.000000	0.618811	7.37523e+06	-52189.1	1055.82	-29749.9	0.000000	0.000000	6.618970	0.019414	NaN	0.000000	0.001643	0.001684	28.0824	0.078076	0.002051	38.0731	-91.5662	-164.023	-0.006378	0.617504	-0.445228	-0.446535	0.019414	38.0731	-0.445611	-592245	-3.277961E-8	NaN
1041	1.000000	0.626820	7.37523e+06	-52189.1	1055.82	-29749.9	0.000000	0.000000	6.626976	-0.048305	NaN	0.000000	0.001633	0.001684	28.0827	0.056147	0.002033	27.6224	-67.8779	-168.694	-0.007015	0.625519	-0.437219	-0.438520	-0.048305	27.6224	-0.435908	-432092	1.117944E-7	NaN
1041	1.000000	0.634797	7.37523e+06	-52189.1	1055.82	-29749.9	0.000000	0.000000	6.634955	-0.012446	NaN	0.000000	0.001650	0.001692	28.0828	0.036233	0.002036	17.7963	-71.9268	-165.922	0.037999	0.633532	-0.429242	-0.430507	-0.012446	17.7963	-0.428717	-341908	3.640205E-8	NaN
1041	1.000000	0.642848	7.37523e+06	-52189.1	1055.82	-29749.9	0.000000	0.000000	6.643006	-0.012884	NaN	0.000000	0.001623	0.001737	28.0827	0.005081	0.001877	2.706812	-117.887	-167.24	-0.083799	0.641544	-0.421190	-0.422495	-0.012884	2.706812	-0.417620	-238043	5.412665E-8	NaN
1041	1.000000	0.650853	7.37523e+06	-52189.1	1055.82	-29749.9	0.000000	0.000000	6.651012	0.001782	NaN	0.000000	0.001599	0.001684	28.0827	0.020002	0.001940	10.3121	-178.378	-167.983	0.058969	0.649562	-0.413185	-0.414477	0.001782	10.3121	-0.413315	-206786	-8.616122E-9	NaN
1041	1.000000	0.658828	7.37523e+06	-52189.1	1055.82	-29749.9	0.000000	0.000000	6.658987	0.012089	NaN	0.000000	0.001682	0.001734	28.0825	0.033564	0.002032	16.5205	-169.828	-166.004	0.050003	0.657529	-0.405211	-0.406509	0.012089	16.5205	-0.405759	-161459	-7.487357E-8	NaN
1041	1.000000	0.666834	7.37523e+06	-52189.1	1055.82	-29749.9	0.000000	0.000000	6.666996	0.067055	NaN	0.000000	0.001684	0.001679	28.0822	0.130978	0.001951	67.1497	-47.3766	-164.484	-0.001009	0.665525	-0.397205	-0.398514	0.067055	67.1497	-0.397953	-124968	-5.365792E-7	NaN
1041	1.000000	0.674861	7.37523e+06	-52189.1	1055.82	-29749.9	0.000000	0.000000	6.675019	-0.004420	NaN	0.000000	0.001711	0.001672	28.0827	0.084710	0.002040	41.5304	-170.478	-167.722	0.016374	0.673492	-0.389178	-0.390547	-0.004420	41.5304	-0.389098	-93382.1	4.733287E-8	NaN
1041	1.000000	0.682853	7.37523e+06	-52189.1	1055.82	-29749.9	0.000000	0.000000	6.683012	-0.003784	NaN	0.000000	0.001680	0.001664	28.0827	0.044034	0.002072	21.2509	-119.101	-162.808	0.066712	0.681573	-0.381185	-0.382466	-0.003784	21.2509	-0.381052	-71611.6	5.283785E-8	NaN
1041	1.000000	0.690815	7.37523e+06	-52189.1	1055.82	-29749.9	0.000000	0.000000	6.690976	0.043795	NaN	0.000000	0.001673	0.001733	28.0825	0.085564	0.001889	45.2956	-177.556	-164.962	0.011379	0.689546	-0.373224	-0.374493	0.043795	45.2956	-0.373949	-56618.2	-7.735148E-7	NaN
1041	1.000000	0.698874	7.37523e+06	-52189.1	1055.82	-29749.9	0.000000	0.000000	6.699033	0.003295	NaN	0.000000	0.001697	0.001709	28.0823	0.042738	0.002006	21.3012	-136.846	-165.709	0.042909	0.697558	-0.365165	-0.366481	0.003295	21.3012	-0.365281	-42472	-7.758428E-8	NaN
1041	1.000000	0.706841	7.37523e+06	-52189.1	1055.82	-29749.9	0.000000	0.000000	6.707004	0.115816	NaN	0.000000	0.001692	0.001696	28.0823	0.034359	0.001853	18.5395	-137.071	-164.798	0.011162	0.705517	-0.357198	-0.358522	0.115816	18.5395	-0.361883	-37936.5	-3.052899E-6	NaN
1041	1.000000	0.714877	7.37523e+06	-52189.1	1055.82	-29749.9	0.000000	0.000000	6.715038	0.049872	NaN	0.000000	0.001650	0.001711	28.0825	0.076223	0.002072	36.7822	54.612	-167.624	0.106869	0.713580	-0.349162	-0.350459	0.049872	36.7822	-0.350179	-25680.2	-1.942041E-6	NaN
1041	1.000000	0.722869	7.37523e+06	-52189.1	1055.82	-29749.9	0.000000	0.000000	6.723031	0.092137	NaN	0.000000	0.001677	0.001677	28.0827	0.016663	0.002046	8.144569	23.9702	-165.184	0.112961	0.721566	-0.341170	-0.342473	0.092137	8.144569	-0.349655	-25234.3	-3.651277E-6	NaN
1041	1.000000	0.730869	7.37523e+06	-52189.1	1055.82	-29749.9	0.000000	0.000000	6.731029	0.038244	NaN	0.000000	0.001676	0.001671	28.0825	0.068771	0.001866	36.851	-72.2895	-162.154	-0.016981	0.729518	-0.333170	-0.334521	0.038244	36.851	-0.333948	-14901.1	-2.566483E-6	NaN
1041	1.000000	0.738879	7.37523e+06	-52189.1	1055.82	-29749.9	0.000000	0.000000	6.739038	0.000860	NaN	0.000000	0.001690	0.001701	28.0836	0.005139	0.002020	2.544668	-168.435	-165.525	0.021743	0.737559	-0.325160	-0.326480	0.000860	2.544668	-0.325413	-11173.8	-7.692080E-8	NaN
1041	1.000000	0.746883	7.37523e+06	-52189.1	1055.82	-29749.9	0.000000	0.000000	6.747043	0.023300	NaN	0.000000	0.001667	0.001635	28.0839	0.080447	0.002028	39.6607	172.625	-165.044	0.004298	0.745577	-0.317156	-0.318461	0.023300	39.6607	-0.317596	-8575.04	-2.717199E-6	NaN
1041	1.000000	0.754872	7.37523e+06	-52189.1	1055.82	-29749.9	0.000000	0.000000	6.755032	0.043931	NaN	0.000000	0.001657	0.001657	28.0836	0.108732	0.001978	54.9586	167.294	-163.137	-0.042607	0.753535	-0.309167	-0.310504	0.043931	54.9586	-0.309767	-6570.59	-6.685957E-6	NaN
1041	1.000000	0.762894	7.37523e+06	-52189.1	1055.82	-29749.9	0.000000	0.000000	6.763053	0.012685	NaN	0.000000	0.001669	0.001661	28.0839	0.071122	0.002034	34.9747	35.3832	-166.808	0.040079	0.761589	-0.301145	-0.302450	0.012685	34.9747	-0.301417	-4939.86	-2.567955E-6	NaN
1041	1.000000	0.770849	7.37523e+06	-52189.1	1055.82	-29749.9	0.000000	0.000000	6.771010	0.052812	NaN	0.000000	0.001684	0.001689	28.0837	0.097438	0.001950	49.9759	-69.9579	-165.539	-0.015632	0.769575	-0.293190	-0.294464	0.052812	49.9759	-0.293982	-3827.22	-1.379916E-5	NaN
1041	1.000000	0.778889	7.37523e+06	-52189.1	1055.82	-29749.9	0.000000	0.000000	6.779047	-0.003733	NaN	0.000000	0.001662	0.001710	28.0835	0.066557	0.001962	33.9266	-82.6861	-166.643	0.010543	0.777594	-0.285150	-0.286445	-0.003733	33.9266	-0.285067	-2813.71	1.326813E-6	NaN
1041	1.000000	0.786897	7.37523e+06	-52189.1	1055.82	-29749.9	0.000000	0.000000	6.787056	-0.004450	NaN	0.000000	0.001704	0.001710	28.084	0.039702	0.002062	19.2571	-5.282924	-166.406	-0.015484	0.785616	-0.277142	-0.278423	-0.004450	19.2571	-0.276968	-2124.13	2.095167E-6	NaN
1041	1.000000	0.794907	7.37523e+06	-52189.1	1055.82	-29749.9	0.000000	0.000000	6.795065	-0.011844	NaN	0.000000	0.001752	0.001725	28.0835	0.085342	0.001988	42.9319	-173.464	-166.695	0.055090	0.793595	-0.269132	-0.270444	-0.011844	42.9319	-0.268925	-1603.95	7.384546E-6	NaN
1041	1.000000	0.802892	7.37523e+06	-52189.1	1055.82	-29749.9	0.000000	0.000000	6.803052	0.044495	NaN	0.000000	0.001758	0.001728	28.0838	0.059375	0.001917	30.9729	136.115	-165.943	0.014063	0.801583	-0.261147	-0.262456	0.044495	30.9729	-0.262225	-1267.6	-3.510200E-5	NaN
1041	1.000000	0.810918	7.37523e+06	-52189.1	1055.82	-29749.9	0.000000	0.000000	6.811075	-0.035841	NaN	0.000000	0.001775	0.001721	28.0837	0.068390	0.001906	35.8904	-2.748994	-165.488	-0.066112	0.809547	-0.253121	-0.254492	-0.035841	35.8904	-0.252372	-894.551	4.006597E-5	NaN
1041	1.000000	0.818917	7.37523e+06	-52189.1	1055.82	-29749.9	0.000000	0.000000	6.819078	0.056232	NaN	0.000000	0.001724	0.001696	28.0838	0.101152	0.001923	52.6032	-58.4582	-164.775	-0.072122	0.817598	-0.245122	-0.246441	0.056232	52.6032	-0.245924	-710.882	-7.910223E-5	NaN
1041	1.000000	0.826924	7.37523e+06	-52189.1	1055.82	-29749.9	0.000000	0.000000	6.827084	0.036942	NaN	0.000000	0.001766	0.001721	28.0839	0.113685	0.002056	55.2998	163.628	-167.016	-0.047915	0.825598	-0.237115	-0.238440	0.036942	55.2998	-0.237616	-527.559	-7.002441E-5	NaN
1041	1.000000	0.834898	7.37523e+06	-52189.1	1055.82	-29749.9	0.000000	0.000000	6.835057	0.012858	NaN	0.000000	0.001768	0.001721	28.0839	0.011929	0.001988	5.999289	52.1025	-169.393	-0.014661	0.833620	-0.229141	-0.230419	0.012858	5.999289	-0.230749	-411.468	-3.125021E-5	NaN
1041	1.000000	0.842917	7.37523e+06	-52189.1	1055.82	-29749.9	0.000000	0.000000	6.843079	0.061537	NaN	0.000000	0.001724	0.001691	28.0841	0.067872	0.002043	33.23	-51.229	-167.118	0.028320	0.841631	-0.221121	-0.222408	0.061537	33.23	-0.222510	-304.601	-0.000202	NaN
1041	1.000000	0.850925	7.37523e+06	-52189.1	1055.82	-29749.9	0.000000	0.000000	6.851084	0.018018	NaN	0.000000	0.001685	0.001718	28.0836	0.111132	0.002080	53.4287	-64.2191	-165.37	0.006373	0.849638	-0.213114	-0.214401	0.018018	53.4287	-0.213367	-217.377	-8.288825E-5	NaN
1041	1.000000	0.858942	7.37523e+06	-52189.1	1055.82	-29749.9	0.000000	0.000000	6.859098	-0.070686	NaN	0.000000	0.001741	0.001710	28.0839	0.080270	0.002062	38.9309	120.984	-168.919	-0.042911	0.857633	-0.205097	-0.206406	-0.070686	38.9309	-0.203735	-151.673	0.000466	NaN
1041	1.000000	0.866892	7.37523e+06	-52189.1	1055.82	-29749.9	0.000000	0.000000	6.867052	0.034234	NaN	0.000000	0.001742	0.001731	28.0838	0.066734	0.002009	33.213	99.5605	-164.869	0.037963	0.865603	-0.197147	-0.198436	0.034234	33.213	-0.197920	-121.747	-0.000281	NaN
1041	1.000000	0.874955	7.37523e+06	-52189.1	1055.82	-29749.9	0.000000	0.000000	6.875115	0.029180	NaN	0.000000	0.001736	0.001721	28.0827	0.043838	0.001935	22.6586	-68.6028	-165.544	-0.044256	0.873614	-0.189083	-0.190425	0.029180	22.6586	-0.190049	-90.1264	-0.000324	NaN
1041	1.000000	0.882973	7.37523e+06	-52189.1	1055.82	-29749.9	0.000000	0.000000	6.883133	0.026796	NaN	0.000000	0.001649	0.001698	28.0826	0.035582	0.002008	17.7237	117.538	-169.992	0.093093	0.881605	-0.181066	-0.182434	0.026796	17.7237	-0.182200	-66.4991	-0.000403	NaN
1041	1.000000	0.890910	7.37523e+06	-52189.1	1055.82	-29749.9	0.000000	0.000000	6.891072	0.060595	NaN	0.000000	0.001666	0.001646	28.0827	0.017500	0.001971	8.879899	125.813	-164.575	0.085510	0.889635	-0.173128	-0.174404	0.060595	8.879899	-0.178246	-56.9614	-0.001064	NaN
1041	1.000000	0.898926	7.37523e+06	-52189.1	1055.82	-29749.9	0.000000	0.000000	6.899086	0.019705	NaN	0.000000	0.001667	0.001689	28.0828	0.049387	0.001933	25.554	-112.871	-166.266	0.064047	0.897630	-0.165112	-0.166409	0.019705	25.554	-0.165691	-34.5483	-0.000570	NaN
1041	1.000000	0.906959	7.37523e+06	-52189.1	1055.82	-29749.9	0.000000	0.000000	6.907119	0.030510	NaN	0.000000	0.001660	0.001673	28.0826	0.151405	0.002011	75.282	-115.472	-164.982	0.040313	0.905573	-0.157080	-0.158466	0.030510	75.282	-0.157383	-24.623	-0.001239	NaN
1041	1.000000	0.914938	7.37523e+06	-52189.1	1055.82	-29749.9	0.000000	0.000000	6.915098	0.035446	NaN	0.000000	0.001677	0.001678	28.0829	0.100084	0.001910	52.3997	58.3191	-164.753	0.044637	0.913698	-0.149101	-0.150341	0.035446	52.3997	-0.149608	-17.8176	-0.001989	NaN
1041	1.000000	0.922974	7.37523e+06	-52189.1	1055.82	-29749.9	0.000000	0.000000	6.923134	0.038030	NaN	0.000000	0.001705	0.001699	28.0826	0.078705	0.001926	40.8622	117.187	-161.003	-0.005443	0.921669	-0.141065	-0.142369	0.038030	40.8622	-0.141763	-12.764	-0.002980	NaN
1041	1.000000	0.930931	7.37523e+06	-52189.1	1055.82	-29749.9	0.000000	0.000000	6.931092	0.055476	NaN	0.000000	0.001669	0.001710	28.0829	0.209927	0.002053	102.259	-43.2902	-165.918	0.027559	0.929655	-0.133108	-0.134384	0.055476	102.259	-0.133515	-8.909765	-0.006226	NaN
1041	1.000000	0.938959	7.37523e+06	-52189.1	1055.82	-29749.9	0.000000	0.000000	6.939120	0.058299	NaN	0.000000	0.001648	0.001736	28.0832	0.037165	0.001998	18.5977	90.9079	-165.687	0.065826	0.937629	-0.125080	-0.126410	0.058299	18.5977	-0.127431	-6.790246	-0.008586	NaN
1041	1.000000	0.946965	7.37523e+06	-52189.1	1055.82	-29749.9	0.000000	0.000000	6.947126	0.059181	NaN	0.000000	0.001676	0.001732	28.0831	0.045887	0.001945	23.5867	111.963	-163.656	0.012229	0.945635	-0.117074	-0.118404	0.059181	23.5867	-0.118956	-4.602242	-0.012859	NaN
1041	1.000000	0.954930	7.37523e+06	-52189.1	1055.82	-29749.9	0.000000	0.000000	6.955089	0.017115	NaN	0.000000	0.001675	0.001699	28.0835	0.114320	0.002113	54.1084	-86.9117	-165.211	0.035747	0.953666	-0.109109	-0.110373	0.017115	54.1084	-0.109346	-2.911148	-0.005879	NaN
1041	1.000000	0.962958	7.37523e+06	-52189.1	1055.82	-29749.9	0.000000	0.000000	6.963120	0.092076	NaN	0.000000	0.001637	0.001695	28.0828	0.020133	0.001912	10.5272	117.617	-164.702	0.057051	0.961695	-0.101081	-0.102344	0.092076	10.5272	-0.107641	-2.678296	-0.034379	NaN
1041	1.000000	0.970975	7.37523e+06	-52189.1	1055.82	-29749.9	0.000000	0.000000	6.971134	0.030787	NaN	0.000000	0.001629	0.001687	28.0828	0.010724	0.001993	5.379936	-18.7364	-164.432	-0.026911	0.969689	-0.093064	-0.094350	0.030787	5.379936	-0.097356	-1.594955	-0.019303	NaN
1041	1.000000	0.978972	7.37523e+06	-52189.1	1055.82	-29749.9	0.000000	0.000000	6.979131	0.013939	NaN	0.000000	0.001655	0.001680	28.0828	0.064525	0.002004	32.1942	-93.0536	-164.597	0.008649	0.977663	-0.085067	-0.086376	0.013939	32.1942	-0.085392	-0.839764	-0.016598	NaN
1041	1.000000	0.986996	7.37523e+06	-52189.1	1055.82	-29749.9	0.000000	0.000000	6.987156	0.044698	NaN	0.000000	0.001622	0.001690	28.0828	0.084940	0.001864	45.5757	139.683	-170.579	-0.009540	0.985644	-0.077043	-0.078395	0.044698	45.5757	-0.077779	-0.544167	-0.082141	NaN
1041	1.000000	0.994965	7.37523e+06	-52189.1	1055.82	-29749.9	0.000000	0.000000	6.995126	0.060814	NaN	0.000000	0.001641	0.001674	28.0832	0.160452	0.001809	88.7017	-59.2108	-165.565	-0.002239	0.993727	-0.069074	-0.070312	0.060814	88.7017	-0.069588	-0.332531	-0.182883	NaN
1041	1.000000	1.002969	7.37523e+06	-52189.1	1055.82	-29749.9	0.000000	0.000000	7.003127	-0.005960	NaN	0.000000	0.001633	0.001668	28.0828	0.105082	0.002050	51.2643	-143.47	-167.594	-0.045426	1.001680	-0.061070	-0.062359	-0.005960	51.2643	-0.060983	-0.192132	0.031022	NaN
1041	1.000000	1.010969	7.37523e+06	-52189.1	1055.82	-29749.9	0.000000	0.000000	7.011128	0.014600	NaN	0.000000	0.001641	0.001696	28.084	0.137753	0.002017	68.3112	-94.8108	-163.868	0.067668	1.009658	-0.053070	-0.054381	0.014600	68.3112	-0.053230	-0.114101	-0.127953	NaN
1041	1.000000	1.018981	7.37523e+06	-52189.1	1055.82	-29749.9	0.000000	0.000000	7.019136	-0.079027	NaN	0.000000	0.001665	0.001654	28.084	0.025532	0.001970	12.9576	-28.3288	-165.968	-0.083284	1.017603	-0.045058	-0.046436	-0.079027	12.9576	-0.040484	-0.046781	1.689314	NaN
1041	1.000000	1.026983	7.37523e+06	-52189.1	1055.82	-29749.9	0.000000	0.000000	7.027143	0.034613	NaN	0.000000	0.001646	0.001653	28.0838	0.134985	0.002055	65.6945	-20.096	-162.144	-0.024043	1.025696	-0.037056	-0.038343	0.034613	65.6945	-0.037451	-0.037877	-0.913832	NaN
1041	1.000000	1.035018	7.37523e+06	-52189.1	1055.82	-29749.9	0.000000	0.000000	7.035179	0.055962	NaN	0.000000	0.001660	0.001659	28.0845	0.073197	0.002012	36.3748	-171.277	-166.362	0.020090	1.033708	-0.029021	-0.030331	0.055962	36.3748	-0.030175	-0.023273	-2.404554	NaN
1041	1.000000	1.043035	7.37523e+06	-52189.1	1055.82	-29749.9	0.000000	0.000000	7.043195	0.021518	NaN	0.000000	0.001726	0.001670	28.0841	0.057074	0.002127	26.8313	25.3589	-164.435	0.059896	1.041731	-0.021004	-0.022308	0.021518	26.8313	-0.021605	-0.013798	-1.559521	NaN
1041	1.000000	1.050976	7.37523e+06	-52189.1	1055.82	-29749.9	0.000000	0.000000	7.051179	1.072489	NaN	0.000000	0.001696	0.001690	28.0845	1.034042	0.001973	524.106	4.715491	-165.806	0.812879	1.049679	-0.013063	-0.014360	1.072489	524.106	-0.014598	-0.009036	-118.696	NaN
1041	1.000000	1.058976	7.37523e+06	-52189.1	1055.82	-29749.9	0.000000	0.000000	7.059323	4.569397	NaN	0.000000	0.001642	0.001689	28.0842	1.994389	0.001943	1026.47	15.0605	-169.838	3.877382	1.057647	-0.005063	-0.006392	4.569397	1026.47	-0.008402	-0.005466	-835.947	NaN
1041	2.000000	1.064661	7.37523e+06	-52189.1	1055.82	-29749.9	0.000000	0.000000	7.065040	5.343013	NaN	0.000000	0.001653	0.001663	28.0838	6.266110	0.001667	3758.44	6.976360	-168.951	6.892625	1.064338	0.000623	0.000299	5.343013	3758.44	-0.000444	-0.000329	-16252.8	NaN
1041	2.000000	1.066602	7.37523e+06	-52189.1	1055.82	-29749.9	0.000000	0.000000	7.067039	6.768961	NaN	0.000000	0.001680	0.001717	28.0842	8.290465	0.001744	4754.43	8.236422	-171.339	6.935923	1.066252	0.002563	0.002213	6.768961	4754.43	0.001495	0.001151	5881.82	128046
1041	2.000000	1.068521	7.37523e+06	-52189.1	1055.82	-29749.9	0.000000	0.000000	7.069150	11.4372	NaN	0.000000	0.001635	0.001699	28.0839	11.6041	0.001789	6486.05	6.663079	-172.277	10.0137	1.068240	0.004482	0.004201	11.4372	6486.05	0.003159	0.002514	4548.74	118179
1041	2.000000	1.070548	7.37523e+06	-52189.1	1055.82	-29749.9	0.000000	0.000000	7.071256	13.3512	NaN	0.000000	0.001637	0.001703	28.0841	13.2502	0.001690	7838.43	6.785402	-174.363	12.2937	1.070276	0.006509	0.006237	13.3512	7838.43	0.005232	0.004346	3071.99	108630
1041	2.000000	1.072559	7.37523e+06	-52189.1	1055.82	-29749.9	0.000000	0.000000	7.073432	17.3833	NaN	0.000000	0.001613	0.001715	28.0839	16.1469	0.001606	10053.9	4.960567	-174.397	18.9391	1.072264	0.008520	0.008225	17.3833	10053.9	0.007223	0.006255	2778.95	116141
1041	2.000000	1.074551	7.37523e+06	-52189.1	1055.82	-29749.9	0.000000	0.000000	7.075760	25.5327	NaN	0.000000	0.001606	0.001675	28.0839	18.9433	0.001757	10784.6	3.576431	-172.917	23.9783	1.074150	0.010512	0.010111	25.5327	10784.6	0.008736	0.007811	3268.95	111490
1041	2.000000	1.076459	7.37523e+06	-52189.1	1055.82	-29749.9	0.000000	0.000000	7.077868	30.405	NaN	0.000000	0.001587	0.001685	28.084	21.2436	0.001826	11632.2	6.273115	-176.882	28.2169	1.076104	0.012420	0.012065	30.405	11632.2	0.010460	0.009697	3135.5	107923
1041	2.000000	1.078537	7.37523e+06	-52189.1	1055.82	-29749.9	0.000000	0.000000	7.080107	34.3237	NaN	0.000000	0.001648	0.001685	28.0841	23.123	0.001836	12594.8	7.427555	-177.468	34.8003	1.078147	0.014498	0.014109	34.3237	12594.8	0.012454	0.012039	2851.13	104876
1041	2.000000	1.080511	7.37523e+06	-52189.1	1055.82	-29749.9	0.000000	0.000000	7.082401	42.1033	NaN	0.000000	0.001608	0.001677	28.0848	24.3532	0.001722	14140.9	8.409031	179.765	42.3783	1.080188	0.016472	0.016149	42.1033	14140.9	0.014239	0.014284	2947.66	108101
1041	2.000000	1.082517	7.37523e+06	-52189.1	1055.82	-29749.9	0.000000	0.000000	7.084602	46.835	NaN	0.000000	0.001607	0.001707	28.0842	26.5969	0.001815	14650.3	2.579285	-176.282	45.5004	1.082223	0.018478	0.018184	46.835	14650.3	0.016081	0.016754	2795.5	103411
1041	2.000000	1.084566	7.37523e+06	-52189.1	1055.82	-29749.9	0.000000	0.000000	7.086810	50.6996	NaN	0.000000	0.001587	0.001711	28.0829	28.8444	0.001784	16170.7	4.793408	-177.992	54.4702	1.084228	0.020527	0.020189	50.6996	16170.7	0.018176	0.019757	2566.22	105110
1041	2.000000	1.086491	7.37523e+06	-52189.1	1055.82	-29749.9	0.000000	0.000000	7.089106	59.7249	NaN	0.000000	0.001591	0.001718	28.0828	30.0301	0.001728	17381.2	6.143870	179.712	60.2639	1.086166	0.022452	0.022127	59.7249	17381.2	0.019875	0.022346	2672.74	106232
1041	2.000000	1.088454	7.37523e+06	-52189.1	1055.82	-29749.9	0.000000	0.000000	7.091244	63.9772	NaN	0.000000	0.001615	0.001719	28.0825	33.8905	0.001883	18001.7	7.647530	176.894	61.8439	1.088212	0.024415	0.024173	63.9772	18001.7	0.021750	0.025367	2522.09	103265
1041	2.000000	1.090458	7.37523e+06	-52189.1	1055.82	-29749.9	0.000000	0.000000	7.093647	73.684	NaN	0.000000	0.001627	0.001707	28.0835	34.3715	0.001868	18395.5	5.210830	179.858	72.2792	1.090175	0.026419	0.026137	73.684	18395.5	0.023415	0.028196	2613.31	100091
1041	2.000000	1.092452	7.37523e+06	-52189.1	1055.82	-29749.9	0.000000	0.000000	7.095800	77.5486	NaN	0.000000	0.001615	0.001697	28.083	36.0452	0.001816	19849.3	7.615266	176.353	74.4534	1.092173	0.028413	0.028134	77.5486	19849.3	0.025483	0.031900	2430.98	101537
1041	2.000000	1.094468	7.37523e+06	-52189.1	1055.82	-29749.9	0.000000	0.000000	7.098345	90.3991	NaN	0.000000	0.001624	0.001692	28.083	37.6699	0.001761	21394.9	6.340200	177.201	89.1412	1.094154	0.030429	0.030115	90.3991	21394.9	0.027261	0.035257	2564.02	104103
1041	2.000000	1.096470	7.37523e+06	-52189.1	1055.82	-29749.9	0.000000	0.000000	7.100297	89.2179	NaN	0.000000	0.001624	0.001691	28.0828	39.2174	0.001761	22271.1	3.656744	178.775	87.6392	1.096167	0.032431	0.032128	89.2179	22271.1	0.029426	0.039563	2255.1	102299
1041	2.000000	1.098468	7.37523e+06	-52189.1	1055.82	-29749.9	0.000000	0.000000	7.102808	101.667	NaN	0.000000	0.001633	0.001701	28.0828	42.0039	0.001896	22158.6	6.193882	176.925	101.389	1.098128	0.034429	0.034089	101.667	22158.6	0.030988	0.042816	2374.5	97838.9
1041	2.000000	1.100506	7.37523e+06	-52189.1	1055.82	-29749.9	0.000000	0.000000	7.105077	107.293	NaN	0.000000	0.001630	0.001739	28.0833	42.7572	0.001691	25288.9	5.667615	176.989	109.95	1.100189	0.036467	0.036150	107.293	25288.9	0.033285	0.047828	2243.3	105648
1041	2.000000	1.102416	7.37523e+06	-52189.1	1055.82	-29749.9	0.000000	0.000000	7.107569	121.434	NaN	0.000000	0.001629	0.001680	28.0831	44.3542	0.001874	23670.2	4.061449	179.195	118.698	1.102051	0.038377	0.038012	121.434	23670.2	0.034529	0.050656	2397.24	96085.8
1041	2.000000	1.104452	7.37523e+06	-52189.1	1055.82	-29749.9	0.000000	0.000000	7.109926	129.235	NaN	0.000000	0.001674	0.001686	28.0831	46.6293	0.001734	26898.6	5.268262	176.438	127.103	1.104262	0.040413	0.040223	129.235	26898.6	0.036810	0.056044	2305.94	103809
1041	2.000000	1.106414	7.37523e+06	-52189.1	1055.82	-29749.9	0.000000	0.000000	7.112204	136.921	NaN	0.000000	0.001676	0.001755	28.0831	48.0608	0.001735	27695.8	3.704834	176.72	133.687	1.106254	0.042375	0.042215	136.921	27695.8	0.038667	0.060630	2258.3	102765
1041	2.000000	1.108410	7.37523e+06	-52189.1	1055.82	-29749.9	0.000000	0.000000	7.114867	153.149	NaN	0.000000	0.001677	0.001722	28.083	51.0967	0.001761	29008	5.813632	174.808	149.957	1.108125	0.044371	0.044086	153.149	29008	0.040411	0.065096	2352.67	103876
1041	2.000000	1.110404	7.37523e+06	-52189.1	1055.82	-29749.9	0.000000	0.000000	7.117324	164.406	NaN	0.000000	0.001693	0.001666	28.083	50.9463	0.001664	30623.9	5.626431	174.441	161.417	1.110112	0.046365	0.046073	164.406	30623.9	0.042338	0.070211	2341.59	105592
1041	2.000000	1.112411	7.37523e+06	-52189.1	1055.82	-29749.9	0.000000	0.000000	7.119733	174.181	NaN	0.000000	0.001611	0.001676	28.083	54.9127	0.001796	30577.1	6.446417	174.898	171.306	1.112035	0.048372	0.047996	174.181	30577.1	0.044100	0.075052	2320.81	101974
1041	2.000000	1.114475	7.37523e+06	-52189.1	1055.82	-29749.9	0.000000	0.000000	7.122137	182.45	NaN	0.000000	0.001647	0.001682	28.0831	57.1867	0.001872	30550.5	8.129849	172.886	181.423	1.114102	0.050436	0.050063	182.45	30550.5	0.045957	0.080328	2271.31	98482.1
1041	2.000000	1.116335	7.37523e+06	-52189.1	1055.82	-29749.9	0.000000	0.000000	7.124466	193.864	NaN	0.000000	0.001614	0.001686	28.0837	57.3586	0.001776	32290.7	2.567693	177.639	187.171	1.116063	0.052296	0.052024	193.864	32290.7	0.047793	0.085713	2261.77	100769
1041	2.000000	1.118402	7.37523e+06	-52189.1	1055.82	-29749.9	0.000000	0.000000	7.126906	202.934	NaN	0.000000	0.001669	0.001677	28.0844	60.5544	0.001766	34289.6	2.807046	176.996	199.279	1.118160	0.054363	0.054121	202.934	34289.6	0.049924	0.092178	2201.53	103186
1041	2.000000	1.120394	7.37523e+06	-52189.1	1055.82	-29749.9	0.000000	0.000000	7.129532	218.335	NaN	0.000000	0.001729	0.001700	28.0842	61.7866	0.001717	35976.4	2.696869	176.273	214.118	1.120093	0.056355	0.056054	218.335	35976.4	0.051803	0.098069	2226.35	104961
1041	2.000000	1.122395	7.37523e+06	-52189.1	1055.82	-29749.9	0.000000	0.000000	7.131890	227.008	NaN	0.000000	0.001724	0.001675	28.0843	63.9389	0.001800	35513.4	5.314949	174.133	224.312	1.122025	0.058356	0.057986	227.008	35513.4	0.053562	0.103741	2188.22	100737
1041	2.000000	1.124456	7.37523e+06	-52189.1	1055.82	-29749.9	0.000000	0.000000	7.134542	241.381	NaN	0.000000	0.001721	0.001714	28.0843	65.1661	0.001679	38806.1	2.858488	176.314	240.783	1.124065	0.060417	0.060026	241.381	38806.1	0.055752	0.111018	2174.25	106409
1041	2.000000	1.126428	7.37523e+06	-52189.1	1055.82	-29749.9	0.000000	0.000000	7.136994	253.072	NaN	0.000000	0.001704	0.001739	28.0839	66.6349	0.001692	39377.8	4.089405	174.644	252.946	1.126162	0.062389	0.062123	253.072	39377.8	0.057569	0.117234	2158.68	105074
1041	2.000000	1.128437	7.37523e+06	-52189.1	1055.82	-29749.9	0.000000	0.000000	7.139408	262.899	NaN	0.000000	0.001731	0.001723	28.0842	70.179	0.001810	38779.7	8.116785	171.422	262.913	1.128062	0.064398	0.064023	262.899	38779.7	0.059314	0.123359	2131.18	100877
1041	2.000000	1.130495	7.37523e+06	-52189.1	1055.82	-29749.9	0.000000	0.000000	7.141919	273.918	NaN	0.000000	0.001730	0.001714	28.0842	70.0281	0.001712	40895.8	3.504184	175.249	277.681	1.130112	0.066457	0.066073	273.918	40895.8	0.061433	0.130997	2091.02	103234
1041	2.000000	1.132340	7.37523e+06	-52189.1	1055.82	-29749.9	0.000000	0.000000	7.144339	287.906	NaN	0.000000	0.001706	0.001732	28.0838	72.5938	0.001847	39309.8	2.773865	175.822	283.562	1.132236	0.068301	0.068198	287.906	39309.8	0.062808	0.136068	2115.89	97363.2
1041	2.000000	1.134466	7.37523e+06	-52189.1	1055.82	-29749.9	0.000000	0.000000	7.147065	302.477	NaN	0.000000	0.001764	0.001701	28.084	75.7531	0.001715	44177.9	10.9853	167.245	301.246	1.134142	0.070427	0.070103	302.477	44177.9	0.065292	0.145466	2079.36	105827
1041	2.000000	1.136381	7.37523e+06	-52189.1	1055.82	-29749.9	0.000000	0.000000	7.149448	313.858	NaN	0.000000	0.001734	0.001688	28.0839	76.4134	0.001771	43146.9	4.491148	173.795	311.096	1.136091	0.072342	0.072052	313.858	43146.9	0.066887	0.151654	2069.56	101227
1041	2.000000	1.138481	7.37523e+06	-52189.1	1055.82	-29749.9	0.000000	0.000000	7.151893	322.27	NaN	0.000000	0.001735	0.001724	28.084	79.1818	0.001739	45526.6	4.401466	173.103	323.825	1.138320	0.074442	0.074281	322.27	45526.6	0.069133	0.160578	2006.94	103800
1041	2.000000	1.140405	7.37523e+06	-52189.1	1055.82	-29749.9	0.000000	0.000000	7.154775	345.555	NaN	0.000000	0.001715	0.001692	28.084	79.156	0.001599	49498.6	1.093248	176.28	343.958	1.140045	0.076366	0.076006	345.555	49498.6	0.071130	0.168716	2048.15	110100
1041	2.000000	1.142412	7.37523e+06	-52189.1	1055.82	-29749.9	0.000000	0.000000	7.157048	352.013	NaN	0.000000	0.001701	0.001698	28.0841	83.0587	0.001837	45214.6	4.526249	173.012	351.79	1.142213	0.078373	0.078174	352.013	45214.6	0.072534	0.174549	2016.71	98876.5
1041	2.000000	1.144444	7.37523e+06	-52189.1	1055.82	-29749.9	0.000000	0.000000	7.160014	374.737	NaN	0.000000	0.001732	0.001706	28.0841	85.0596	0.001753	48522.9	6.909881	170.684	372.987	1.144120	0.080405	0.080081	374.737	48522.9	0.074612	0.183356	2043.77	103532
1041	2.000000	1.146378	7.37523e+06	-52189.1	1055.82	-29749.9	0.000000	0.000000	7.162591	390.365	NaN	0.000000	0.001748	0.001712	28.0841	86.3885	0.001692	51068.9	9.003577	167.974	388.628	1.146006	0.082339	0.081967	390.365	51068.9	0.076606	0.191992	2033.23	106485
1041	2.000000	1.148373	7.37523e+06	-52189.1	1055.82	-29749.9	0.000000	0.000000	7.165010	400.671	NaN	0.000000	0.001761	0.001734	28.0841	89.7966	0.001772	50686.4	5.151400	171.77	398.766	1.148159	0.084334	0.084120	400.671	50686.4	0.078405	0.199951	2003.85	103563
1041	2.000000	1.150440	7.37523e+06	-52189.1	1055.82	-29749.9	0.000000	0.000000	7.167708	415.997	NaN	0.000000	0.001741	0.001716	28.0841	90.1249	0.001850	48712.9	5.027223	173.103	417.547	1.150076	0.086402	0.086037	415.997	48712.9	0.079997	0.207114	2008.55	97794.1
1041	2.000000	1.152321	7.37523e+06	-52189.1	1055.82	-29749.9	0.000000	0.000000	7.170295	433.187	NaN	0.000000	0.001743	0.001747	28.0831	92.3432	0.001765	52327.9	0.834065	176.077	430.113	1.152160	0.088282	0.088121	433.187	52327.9	0.082073	0.216638	1999.59	102716
1041	2.000000	1.154378	7.37523e+06	-52189.1	1055.82	-29749.9	0.000000	0.000000	7.172772	443.388	NaN	0.000000	0.001717	0.001714	28.0833	96.5691	0.001796	53781.2	8.883881	168.3	439.006	1.154046	0.090339	0.090007	443.388	53781.2	0.084156	0.226393	1958.49	103270
1041	2.000000	1.156464	7.37523e+06	-52189.1	1055.82	-29749.9	0.000000	0.000000	7.175433	457.383	NaN	0.000000	0.001744	0.001680	28.0829	96.8677	0.001811	53494.1	3.982542	172.824	460.781	1.156107	0.092425	0.092068	457.383	53494.1	0.086013	0.235255	1944.2	100765
1041	2.000000	1.158439	7.37523e+06	-52189.1	1055.82	-29749.9	0.000000	0.000000	7.177973	471.113	NaN	0.000000	0.001767	0.001682	28.083	99.6482	0.001774	56161.3	4.222563	172.082	473.406	1.158272	0.094400	0.094233	471.113	56161.3	0.088109	0.245454	1919.36	103568
1041	2.000000	1.160314	7.37523e+06	-52189.1	1055.82	-29749.9	0.000000	0.000000	7.180762	493.35	NaN	0.000000	0.001717	0.001694	28.083	100.339	0.001895	52944.1	3.064462	173.772	488.23	1.160062	0.096275	0.096023	493.35	52944.1	0.089286	0.251272	1963.42	96498.2
1041	2.000000	1.162415	7.37523e+06	-52189.1	1055.82	-29749.9	0.000000	0.000000	7.183510	509.047	NaN	0.000000	0.001730	0.001667	28.0831	102.864	0.001817	56600.4	4.513961	171.708	509.379	1.162148	0.098377	0.098109	509.047	56600.4	0.091631	0.263048	1935.19	100827