File: remote_trans/data/nanoindenter/0828-1/data/Data_2025-08-06,11h17m57s/2025-07-22_16-23-58_1_298.txt
2025-07-22, 16:23:58, 1
Index	Phase	Displacement	Time	Pos X	Pos Y	Pos Z	Rot A	Rot B	Piezo Z	Force A	Force B	Gripper	Voltage A	Voltage B	Temperature	Amplitude force	Amplitude pos	Stiffness	Phase shift	Phase excitation	Force A raw	Displacement raw	HMax	HMax raw	Real Force	Real Stiffness	Contact Depth	Area	Hardness	Reduced Mod.
[#]	[#]	[um]	[s]	[um]	[um]	[um]	[m°]	[m°]	[um]	[uN]	[uN]	[V]	[V]	[V]	[°C]	[uN]	[um]	[N/m]	[°]	[°]	[uN]	[um]	[um]	[um]	[uN]	[N/m]	[um]	[um^2]	[MPa]	[MPa]
298	1.000000	0.003031	7.36798e+06	-53539.1	955.818	-29746.3	0.000000	0.000000	6.002830	-0.050777	NaN	0.000000	0.001701	0.001578	28.0808	0.032934	0.000953	34.5616	139.919	-165.025	-0.040949	0.001710	-1.088878	-1.090199	-0.050777	34.5616	-1.087777	-3.435229E+14	1.478132E-16	NaN
298	1.000000	0.010960	7.36798e+06	-53539.1	955.82	-29746.3	0.000000	0.000000	6.010759	-0.065108	NaN	0.000000	0.001721	0.001593	28.0807	0.030705	0.001046	29.3502	79.2209	-158.173	-0.109328	0.009642	-1.080949	-1.082267	-0.065108	29.3502	-1.079285	-2.641929E+14	2.464425E-16	NaN
298	1.000000	0.018952	7.36798e+06	-53539.1	955.817	-29746.3	0.000000	0.000000	6.018754	-0.000936	NaN	0.000000	0.001720	0.001585	28.0806	0.098840	0.001680	58.8272	31.9183	-162.499	0.038867	0.017621	-1.072957	-1.074287	-0.000936	58.8272	-1.072945	-2.171450E+14	4.312100E-18	NaN
298	1.000000	0.026996	7.36798e+06	-53539.1	955.818	-29746.3	0.000000	0.000000	6.026798	0.017869	NaN	0.000000	0.001726	0.001607	28.0807	0.102975	0.001918	53.6927	151.232	-164.957	-0.046137	0.025666	-1.064913	-1.066243	0.017869	53.6927	-1.065163	-1.706861E+14	-1.046916E-16	NaN
298	1.000000	0.034934	7.36798e+06	-53539.1	955.817	-29746.3	0.000000	0.000000	6.034738	0.045005	NaN	0.000000	0.001694	0.001628	28.0808	0.105234	0.001983	53.0549	160.185	-165.722	0.087553	0.033617	-1.056975	-1.058292	0.045005	53.0549	-1.057611	-1.351181E+14	-3.330763E-16	NaN
298	1.000000	0.042953	7.36798e+06	-53539.1	955.819	-29746.3	0.000000	0.000000	6.042751	-0.089946	NaN	0.000000	0.001739	0.001587	28.0807	0.134022	0.002028	66.0885	-129.202	-167.78	-0.070580	0.041634	-1.048956	-1.050275	-0.089946	66.0885	-1.047936	-1.001527E+14	8.980910E-16	NaN
298	1.000000	0.050943	7.36798e+06	-53539.1	955.818	-29746.3	0.000000	0.000000	6.050741	-0.081323	NaN	0.000000	0.001695	0.001599	28.0808	0.095930	0.002018	47.5466	-6.004376	-166.113	-0.115637	0.049621	-1.040966	-1.042288	-0.081323	47.5466	-1.039683	-7.757270E+13	1.048343E-15	NaN
298	1.000000	0.058928	7.36798e+06	-53539.1	955.818	-29746.3	0.000000	0.000000	6.058729	-0.034530	NaN	0.000000	0.001697	0.001570	28.0807	0.062402	0.001895	32.9281	-117.83	-166.249	-0.045067	0.057644	-1.032981	-1.034265	-0.034530	32.9281	-1.032194	-6.151659E+13	5.613118E-16	NaN
298	1.000000	0.066955	7.36798e+06	-53539.1	955.818	-29746.3	0.000000	0.000000	6.066756	-0.019924	NaN	0.000000	0.001674	0.001587	28.0805	0.149556	0.002008	74.4971	-111.584	-169.176	-0.000583	0.065643	-1.024954	-1.026266	-0.019924	74.4971	-1.024753	-4.885412E+13	4.078212E-16	NaN
298	1.000000	0.074949	7.36798e+06	-53539.1	955.818	-29746.3	0.000000	0.000000	6.074752	0.024116	NaN	0.000000	0.001720	0.001558	28.0804	0.100526	0.001965	51.1591	166.451	-166.609	0.041761	0.073651	-1.016960	-1.018258	0.024116	51.1591	-1.017313	-3.879719E+13	-6.215994E-16	NaN
298	1.000000	0.082980	7.36798e+06	-53539.1	955.819	-29746.3	0.000000	0.000000	6.082780	-0.044276	NaN	0.000000	0.001665	0.001577	28.0806	0.117424	0.002029	57.8862	165.219	-165.864	0.000520	0.081621	-1.008929	-1.010288	-0.044276	57.8862	-1.008356	-2.939337E+13	1.506336E-15	NaN
298	1.000000	0.090973	7.36798e+06	-53539.1	955.818	-29746.3	0.000000	0.000000	6.090775	0.009931	NaN	0.000000	0.001689	0.001602	28.0804	0.037601	0.001912	19.6701	-166.614	-165.884	0.023563	0.089659	-1.000936	-1.002250	0.009931	19.6701	-1.001315	-2.363045E+13	-4.202832E-16	NaN
298	1.000000	0.098965	7.36798e+06	-53539.1	955.818	-29746.3	0.000000	0.000000	6.098766	-0.009322	NaN	0.000000	0.001696	0.001620	28.0807	0.002969	0.001959	1.516092	177.941	-165.721	-0.075180	0.097654	-0.992944	-0.994254	-0.009322	1.516092	-0.988332	-1.579973E+13	5.900410E-16	NaN
298	1.000000	0.106967	7.36798e+06	-53539.1	955.817	-29746.3	0.000000	0.000000	6.106767	-0.051153	NaN	0.000000	0.001636	0.001590	28.0808	0.052628	0.002068	25.4529	129.44	-166.051	-0.048878	0.105671	-0.984942	-0.986238	-0.051153	25.4529	-0.983434	-1.357303E+13	3.768710E-15	NaN
298	1.000000	0.114975	7.36798e+06	-53539.1	955.819	-29746.3	0.000000	0.000000	6.114778	0.040631	NaN	0.000000	0.001653	0.001575	28.0809	0.033742	0.001905	17.7144	-144.1	-167.012	0.023031	0.113677	-0.976934	-0.978232	0.040631	17.7144	-0.978654	-1.170249E+13	-3.472023E-15	NaN
298	1.000000	0.122927	7.36798e+06	-53539.1	955.818	-29746.3	0.000000	0.000000	6.122728	-0.014651	NaN	0.000000	0.001591	0.001591	28.0795	0.033825	0.002076	16.2931	-117.699	-167.52	-0.017857	0.121687	-0.968982	-0.970221	-0.014651	16.2931	-0.968308	-8.489046E+12	1.725907E-15	NaN
298	1.000000	0.130967	7.36798e+06	-53539.1	955.82	-29746.3	0.000000	0.000000	6.130771	0.071653	NaN	0.000000	0.001649	0.001585	28.0794	0.096423	0.002085	46.2406	173.483	-163.69	0.031087	0.129636	-0.960942	-0.962273	0.071653	46.2406	-0.962105	-7.002306E+12	-1.023276E-14	NaN
298	1.000000	0.138966	7.36798e+06	-53539.1	955.818	-29746.3	0.000000	0.000000	6.138765	-0.052384	NaN	0.000000	0.001628	0.001576	28.0796	0.060082	0.002043	29.4042	-152.056	-167.361	0.002175	0.137653	-0.952943	-0.954256	-0.052384	29.4042	-0.951607	-5.054797E+12	1.036316E-14	NaN
298	1.000000	0.146977	7.36798e+06	-53539.1	955.818	-29746.3	0.000000	0.000000	6.146779	-0.006150	NaN	0.000000	0.001649	0.001560	28.0796	0.014146	0.002160	6.549039	-103.31	-164.78	0.024852	0.145689	-0.944931	-0.946220	-0.006150	6.549039	-0.944227	-4.019429E+12	1.529944E-15	NaN
298	1.000000	0.154993	7.36798e+06	-53539.1	955.819	-29746.3	0.000000	0.000000	6.154794	-0.023664	NaN	0.000000	0.001633	0.001584	28.0793	0.058694	0.001923	30.5295	141.428	-168.049	-0.024179	0.153716	-0.936916	-0.938193	-0.023664	30.5295	-0.936334	-3.145429E+12	7.523141E-15	NaN
298	1.000000	0.163008	7.36798e+06	-53539.1	955.817	-29746.3	0.000000	0.000000	6.162807	-0.051381	NaN	0.000000	0.001666	0.001600	28.0793	0.102600	0.002016	50.8858	-172.877	-165.145	0.003986	0.161730	-0.928901	-0.930179	-0.051381	50.8858	-0.928144	-2.438622E+12	2.106984E-14	NaN
298	1.000000	0.171014	7.36798e+06	-53539.1	955.819	-29746.3	0.000000	0.000000	6.170818	0.037591	NaN	0.000000	0.001653	0.001625	28.0792	0.045572	0.002115	21.5516	63.6042	-163.494	-0.034579	0.169682	-0.920895	-0.922227	0.037591	21.5516	-0.922203	-2.027426E+12	-1.854115E-14	NaN
298	1.000000	0.178986	7.36798e+06	-53539.1	955.818	-29746.3	0.000000	0.000000	6.178785	-0.053065	NaN	0.000000	0.001689	0.001649	28.0793	0.062257	0.001965	31.6771	50.6763	-169.849	-0.051848	0.177725	-0.912923	-0.914184	-0.053065	31.6771	-0.911667	-1.461094E+12	3.631849E-14	NaN
298	1.000000	0.187012	7.36798e+06	-53539.1	955.818	-29746.3	0.000000	0.000000	6.186814	0.007481	NaN	0.000000	0.001670	0.001600	28.0794	0.030935	0.002061	15.0107	20.0143	-166.276	-0.013238	0.185699	-0.904897	-0.906210	0.007481	15.0107	-0.905271	-1.197508E+12	-6.246917E-15	NaN
298	1.000000	0.194983	7.36798e+06	-53539.1	955.818	-29746.3	0.000000	0.000000	6.194783	-0.039544	NaN	0.000000	0.001643	0.001671	28.0796	0.034514	0.002210	15.6195	-154.233	-166.959	-0.068808	0.193696	-0.896926	-0.898213	-0.039544	15.6195	-0.895027	-8.707002E+11	4.541664E-14	NaN
298	1.000000	0.202998	7.36798e+06	-53539.1	955.818	-29746.3	0.000000	0.000000	6.202800	0.024468	NaN	0.000000	0.001660	0.001636	28.0799	0.096870	0.001987	48.7496	111.223	-163.505	0.070884	0.201674	-0.888911	-0.890235	0.024468	48.7496	-0.889288	-7.282570E+11	-3.359850E-14	NaN
298	1.000000	0.211006	7.36798e+06	-53539.1	955.818	-29746.3	0.000000	0.000000	6.210808	-0.013915	NaN	0.000000	0.001637	0.001622	28.0796	0.078733	0.001889	41.6783	-49.0543	-168.825	-0.010581	0.209743	-0.880903	-0.882166	-0.013915	41.6783	-0.880652	-5.565798E+11	2.500031E-14	NaN
298	1.000000	0.219028	7.36798e+06	-53539.1	955.817	-29746.3	0.000000	0.000000	6.218828	-0.038272	NaN	0.000000	0.001667	0.001643	28.0795	0.052420	0.002059	25.4626	-155.971	-165.768	-0.071475	0.217706	-0.872881	-0.874203	-0.038272	25.4626	-0.871754	-4.218652E+11	9.072191E-14	NaN
298	1.000000	0.227018	7.36798e+06	-53539.1	955.819	-29746.3	0.000000	0.000000	6.226819	-0.007591	NaN	0.000000	0.001654	0.001624	28.0794	0.045677	0.002046	22.3304	-101.883	-163.965	-0.077853	0.225710	-0.864891	-0.866199	-0.007591	22.3304	-0.864636	-3.379587E+11	2.246053E-14	NaN
298	1.000000	0.235037	7.36798e+06	-53539.1	955.817	-29746.3	0.000000	0.000000	6.234836	-0.066625	NaN	0.000000	0.001631	0.001672	28.0792	0.013579	0.001955	6.946275	30.2175	-165.69	-0.086338	0.233678	-0.856872	-0.858231	-0.066625	6.946275	-0.849678	-2.120205E+11	3.142381E-13	NaN
298	1.000000	0.243014	7.36798e+06	-53539.1	955.819	-29746.3	0.000000	0.000000	6.242814	-0.059205	NaN	0.000000	0.001660	0.001632	28.0798	0.065352	0.002040	32.0379	-96.2779	-165.223	-0.082686	0.241701	-0.848895	-0.850208	-0.059205	32.0379	-0.847509	-1.981519E+11	2.987871E-13	NaN
298	1.000000	0.251031	7.36798e+06	-53539.1	955.818	-29746.3	0.000000	0.000000	6.250830	-0.072964	NaN	0.000000	0.001663	0.001574	28.0795	0.075409	0.002002	37.6682	157.613	-164.512	-0.057145	0.249746	-0.840878	-0.842163	-0.072964	37.6682	-0.839425	-1.539940E+11	4.738126E-13	NaN
298	1.000000	0.259053	7.36798e+06	-53539.1	955.818	-29746.3	0.000000	0.000000	6.258855	-0.007734	NaN	0.000000	0.001604	0.001574	28.0807	0.119356	0.001879	63.5376	-4.445617	-168.156	0.046067	0.257758	-0.832856	-0.834151	-0.007734	63.5376	-0.832764	-1.250975E+11	6.182449E-14	NaN
298	1.000000	0.267032	7.36798e+06	-53539.1	955.819	-29746.3	0.000000	0.000000	6.266833	-0.000987	NaN	0.000000	0.001622	0.001584	28.0806	0.028727	0.001895	15.1573	58.7745	-165.824	0.066399	0.265747	-0.824877	-0.826162	-0.000987	15.1573	-0.824828	-9.765163E+10	1.011051E-14	NaN
298	1.000000	0.275049	7.36798e+06	-53539.1	955.817	-29746.3	0.000000	0.000000	6.274845	-0.124386	NaN	0.000000	0.001624	0.001632	28.0806	0.074173	0.002020	36.7242	-137.274	-161.984	-0.080395	0.273772	-0.816860	-0.818137	-0.124386	36.7242	-0.814320	-7.033599E+10	1.768458E-12	NaN
298	1.000000	0.283051	7.36798e+06	-53539.1	955.818	-29746.3	0.000000	0.000000	6.282851	-0.042380	NaN	0.000000	0.001654	0.001623	28.0808	0.057442	0.002097	27.3963	43.8517	-164.481	-0.137573	0.281714	-0.808858	-0.810195	-0.042380	27.3963	-0.807697	-5.719111E+10	7.410275E-13	NaN
298	1.000000	0.291047	7.36798e+06	-53539.1	955.818	-29746.3	0.000000	0.000000	6.290847	-0.031331	NaN	0.000000	0.001633	0.001623	28.0807	0.017961	0.002003	8.965780	176.633	-166.172	-0.007896	0.289730	-0.800862	-0.802179	-0.031331	8.965780	-0.798241	-4.255891E+10	7.361901E-13	NaN
298	1.000000	0.299083	7.36798e+06	-53539.1	955.818	-29746.3	0.000000	0.000000	6.298884	-0.017721	NaN	0.000000	0.001636	0.001596	28.0809	0.018143	0.002026	8.957077	76.6447	-165.505	0.016763	0.297764	-0.792826	-0.794145	-0.017721	8.957077	-0.791342	-3.430169E+10	5.166343E-13	NaN
298	1.000000	0.307070	7.36798e+06	-53539.1	955.818	-29746.3	0.000000	0.000000	6.306872	0.001224	NaN	0.000000	0.001664	0.001583	28.0808	0.051654	0.002049	25.2147	-159.887	-166.938	-0.068308	0.305758	-0.784839	-0.786151	0.001224	25.2147	-0.784876	-2.802052E+10	-4.368872E-14	NaN
298	1.000000	0.315047	7.36798e+06	-53539.1	955.818	-29746.3	0.000000	0.000000	6.314846	-0.053297	NaN	0.000000	0.001666	0.001604	28.0807	0.030015	0.002050	14.6444	-75.3479	-168.964	-0.043547	0.313776	-0.776862	-0.778133	-0.053297	14.6444	-0.774132	-2.002096E+10	2.662063E-12	NaN
298	1.000000	0.323061	7.36798e+06	-53539.1	955.818	-29746.3	0.000000	0.000000	6.322860	-0.050803	NaN	0.000000	0.001685	0.001614	28.0809	0.096028	0.001984	48.4082	-145.815	-166.759	-0.089201	0.321757	-0.768848	-0.770152	-0.050803	48.4082	-0.768061	-1.655542E+10	3.068677E-12	NaN
298	1.000000	0.331075	7.36798e+06	-53539.1	955.818	-29746.3	0.000000	0.000000	6.330876	-0.007044	NaN	0.000000	0.001689	0.001619	28.0808	0.023460	0.001964	11.9476	-53.2761	-170.34	-0.050913	0.329726	-0.760834	-0.762183	-0.007044	11.9476	-0.760392	-1.302078E+10	5.409859E-13	NaN
298	1.000000	0.339071	7.36798e+06	-53539.1	955.818	-29746.3	0.000000	0.000000	6.338872	0.001899	NaN	0.000000	0.001667	0.001597	28.081	0.105243	0.001885	55.8251	19.0473	-165.379	0.043265	0.337749	-0.752838	-0.754160	0.001899	55.8251	-0.752864	-1.028492E+10	-1.846443E-13	NaN
298	1.000000	0.347100	7.36798e+06	-53539.1	955.818	-29746.3	0.000000	0.000000	6.346902	0.018650	NaN	0.000000	0.001662	0.001638	28.0814	0.046136	0.002046	22.5494	70.7409	-165.949	0.069705	0.345787	-0.744809	-0.746122	0.018650	22.5494	-0.745430	-8.147010E+9	-2.289143E-12	NaN
298	1.000000	0.355083	7.36798e+06	-53539.1	955.818	-29746.3	0.000000	0.000000	6.354884	-0.023258	NaN	0.000000	0.001640	0.001613	28.0808	0.027117	0.001978	13.7063	-114.643	-168.715	0.008905	0.353777	-0.736826	-0.738132	-0.023258	13.7063	-0.735553	-5.976993E+9	3.891285E-12	NaN
298	1.000000	0.363104	7.36798e+06	-53539.1	955.819	-29746.3	0.000000	0.000000	6.362906	-0.008214	NaN	0.000000	0.001640	0.001635	28.0808	0.025472	0.002135	11.9284	59.2357	-167.756	-0.030747	0.361792	-0.728805	-0.730117	-0.008214	11.9284	-0.728288	-4.758580E+9	1.726143E-12	NaN
298	1.000000	0.371105	7.36798e+06	-53539.1	955.819	-29746.3	0.000000	0.000000	6.370907	0.017093	NaN	0.000000	0.001667	0.001646	28.0808	0.077685	0.002038	38.1132	156.16	-166.417	0.033726	0.369801	-0.720804	-0.722108	0.017093	38.1132	-0.721140	-3.802125E+9	-4.495660E-12	NaN
298	1.000000	0.379088	7.36798e+06	-53539.1	955.818	-29746.3	0.000000	0.000000	6.378887	-0.064714	NaN	0.000000	0.001623	0.001642	28.0809	0.039117	0.001886	20.7459	136.866	-165.065	-0.054923	0.377794	-0.712821	-0.714115	-0.064714	20.7459	-0.710482	-2.720333E+9	2.378910E-11	NaN
298	1.000000	0.387083	7.36798e+06	-53539.1	955.818	-29746.3	0.000000	0.000000	6.386882	-0.070949	NaN	0.000000	0.001620	0.001604	28.0809	0.135999	0.002037	66.7785	-113.534	-164.343	0.009673	0.385827	-0.704826	-0.706082	-0.070949	66.7785	-0.704029	-2.220994E+9	3.194481E-11	NaN
298	1.000000	0.395071	7.36798e+06	-53539.1	955.818	-29746.3	0.000000	0.000000	6.394871	-0.037119	NaN	0.000000	0.001624	0.001591	28.0795	0.095112	0.002122	44.8317	125.009	-167.462	-0.036502	0.393817	-0.696838	-0.698092	-0.037119	44.8317	-0.696217	-1.737228E+9	2.136655E-11	NaN
298	1.000000	0.403112	7.36798e+06	-53539.1	955.818	-29746.3	0.000000	0.000000	6.402911	-0.053469	NaN	0.000000	0.001608	0.001619	28.08	0.048516	0.001990	24.3743	-178.861	-163.31	-0.066872	0.401747	-0.688797	-0.690162	-0.053469	24.3743	-0.687152	-1.306151E+9	4.093593E-11	NaN
298	1.000000	0.411087	7.36798e+06	-53539.1	955.818	-29746.3	0.000000	0.000000	6.410890	0.033992	NaN	0.000000	0.001618	0.001627	28.0797	0.110314	0.001955	56.4343	-173.105	-163.829	0.051765	0.409775	-0.680822	-0.682134	0.033992	56.4343	-0.681274	-1.085501E+9	-3.131412E-11	NaN
298	1.000000	0.419093	7.36798e+06	-53539.1	955.818	-29746.3	0.000000	0.000000	6.418894	-0.010331	NaN	0.000000	0.001620	0.001605	28.0798	0.134808	0.002045	65.9107	65.6343	-166.444	-0.060912	0.417793	-0.672816	-0.674116	-0.010331	65.9107	-0.672699	-8.285591E+8	1.246823E-11	NaN
298	1.000000	0.427063	7.36798e+06	-53539.1	955.818	-29746.3	0.000000	0.000000	6.426865	0.014323	NaN	0.000000	0.001632	0.001591	28.08	0.089324	0.002090	42.7463	-102.236	-166.833	0.004324	0.425800	-0.664846	-0.666109	0.014323	42.7463	-0.665098	-6.520478E+8	-2.196681E-11	NaN
298	1.000000	0.435099	7.36798e+06	-53539.1	955.817	-29746.3	0.000000	0.000000	6.434900	-0.019365	NaN	0.000000	0.001596	0.001598	28.08	0.044949	0.001903	23.6254	94.9022	-165.077	0.005582	0.433817	-0.656810	-0.658092	-0.019365	23.6254	-0.656195	-4.924327E+8	3.932454E-11	NaN
298	1.000000	0.443102	7.36798e+06	-53539.1	955.818	-29746.3	0.000000	0.000000	6.442902	-0.048619	NaN	0.000000	0.001605	0.001624	28.0802	0.070059	0.002033	34.4529	-29.3153	-164.118	-0.027205	0.441799	-0.648807	-0.650110	-0.048619	34.4529	-0.647748	-3.771926E+8	1.288976E-10	NaN
298	1.000000	0.451133	7.36798e+06	-53539.1	955.818	-29746.3	0.000000	0.000000	6.450932	-0.066515	NaN	0.000000	0.001639	0.001569	28.0796	0.046114	0.001986	23.2174	153.988	-165.916	-0.079451	0.449794	-0.640776	-0.642115	-0.066515	23.2174	-0.638627	-2.827804E+8	2.352182E-10	NaN
298	1.000000	0.459113	7.36798e+06	-53539.1	955.817	-29746.3	0.000000	0.000000	6.458914	-0.013140	NaN	0.000000	0.001671	0.001584	28.0797	0.008314	0.002090	3.978072	-98.5095	-168.262	0.051210	0.457803	-0.632796	-0.634106	-0.013140	3.978072	-0.630319	-2.174718E+8	6.042220E-11	NaN
298	1.000000	0.467115	7.36798e+06	-53539.1	955.818	-29746.3	0.000000	0.000000	6.466915	-0.048242	NaN	0.000000	0.001672	0.001557	28.0797	0.084741	0.001846	45.8985	-95.0308	-164.879	-0.040152	0.465804	-0.624794	-0.626105	-0.048242	45.8985	-0.624005	-1.781067E+8	2.708600E-10	NaN
298	1.000000	0.475155	7.36798e+06	-53539.1	955.819	-29746.3	0.000000	0.000000	6.474955	-0.017501	NaN	0.000000	0.001650	0.001573	28.0799	0.064673	0.002015	32.0884	76.0918	-164.182	0.028820	0.473834	-0.616754	-0.618075	-0.017501	32.0884	-0.616345	-1.397625E+8	1.252170E-10	NaN
298	1.000000	0.483139	7.36798e+06	-53539.1	955.818	-29746.3	0.000000	0.000000	6.482942	0.029131	NaN	0.000000	0.001657	0.001584	28.0795	0.088875	0.002044	43.4761	-149.636	-168.108	-0.019312	0.481840	-0.608770	-0.610069	0.029131	43.4761	-0.609273	-1.117134E+8	-2.607620E-10	NaN
298	1.000000	0.491146	7.36798e+06	-53539.1	955.819	-29746.3	0.000000	0.000000	6.490944	-0.097638	NaN	0.000000	0.001651	0.001586	28.0797	0.001683	0.001911	0.880651	-131.657	-170.208	-0.099466	0.489847	-0.600762	-0.602062	-0.097638	0.880651	-0.517610	-6.03042e+06	1.619093E-8	NaN
298	1.000000	0.499124	7.36798e+06	-53539.1	955.818	-29746.3	0.000000	0.000000	6.498927	0.013047	NaN	0.000000	0.001653	0.001610	28.0795	0.065790	0.001901	34.6112	-74.4311	-163.297	0.042005	0.497826	-0.592785	-0.594083	0.013047	34.6112	-0.593067	-6.682616E+7	-1.952412E-10	NaN
298	1.000000	0.507161	7.36798e+06	-53539.1	955.818	-29746.3	0.000000	0.000000	6.506961	-0.043453	NaN	0.000000	0.001627	0.001578	28.0795	0.050814	0.002151	23.6186	-70.9754	-165.474	-0.067876	0.505806	-0.584748	-0.586103	-0.043453	23.6186	-0.583368	-4.911347E+7	8.847563E-10	NaN
298	1.000000	0.515166	7.36798e+06	-53539.1	955.818	-29746.3	0.000000	0.000000	6.514967	-0.017663	NaN	0.000000	0.001624	0.001578	28.0796	0.026027	0.002166	12.0163	-33.1507	-164.512	-0.013949	0.513845	-0.576743	-0.578064	-0.017663	12.0163	-0.575641	-3.841918E+7	4.597565E-10	NaN
298	1.000000	0.523133	7.36798e+06	-53539.1	955.818	-29746.3	0.000000	0.000000	6.522930	-0.114331	NaN	0.000000	0.001667	0.001603	28.0795	0.120731	0.002039	59.215	-21.4266	-168.678	-0.173529	0.521836	-0.568776	-0.570073	-0.114331	59.215	-0.567328	-2.949213E+7	3.876656E-9	NaN
298	1.000000	0.531152	7.36798e+06	-53539.1	955.819	-29746.3	0.000000	0.000000	6.530956	0.036765	NaN	0.000000	0.001618	0.001587	28.0811	0.071664	0.001923	37.2625	-51.5446	-168.301	0.013050	0.529872	-0.560756	-0.562037	0.036765	37.2625	-0.561496	-2.449501E+7	-1.500930E-9	NaN
298	1.000000	0.539155	7.36798e+06	-53539.1	955.819	-29746.3	0.000000	0.000000	6.538956	-0.017894	NaN	0.000000	0.001621	0.001569	28.0811	0.069828	0.002066	33.796	-44.2687	-166.147	-0.085736	0.537853	-0.552754	-0.554055	-0.017894	33.796	-0.552357	-1.830592E+7	9.774882E-10	NaN
298	1.000000	0.547167	7.36798e+06	-53539.1	955.819	-29746.3	0.000000	0.000000	6.546968	-0.022844	NaN	0.000000	0.001642	0.001573	28.081	0.025557	0.001900	13.448	98.1687	-162.646	-0.069374	0.545887	-0.544742	-0.546021	-0.022844	13.448	-0.543468	-1.378606E+7	1.657048E-9	NaN
298	1.000000	0.555148	7.36798e+06	-53539.1	955.818	-29746.3	0.000000	0.000000	6.554947	-0.081712	NaN	0.000000	0.001628	0.001598	28.081	0.070362	0.002033	34.6068	0.920740	-165.685	-0.150091	0.553845	-0.536761	-0.538064	-0.081712	34.6068	-0.534990	-1.051592E+7	7.770299E-9	NaN
298	1.000000	0.563178	7.36798e+06	-53539.1	955.818	-29746.3	0.000000	0.000000	6.562980	-0.010011	NaN	0.000000	0.001654	0.001571	28.0809	0.095490	0.001989	47.9972	-141.594	-167.325	-0.040100	0.561846	-0.528730	-0.530063	-0.010011	47.9972	-0.528574	-8.56582e+06	1.168696E-9	NaN
298	1.000000	0.571155	7.36798e+06	-53539.1	955.818	-29746.3	0.000000	0.000000	6.570954	-0.059210	NaN	0.000000	0.001640	0.001590	28.081	0.066620	0.002019	33.0017	169.895	-165.888	-0.065648	0.569897	-0.520754	-0.522012	-0.059210	33.0017	-0.519408	-6.388e+06	9.269014E-9	NaN
298	1.000000	0.579213	7.36798e+06	-53539.1	955.818	-29746.3	0.000000	0.000000	6.579015	0.001963	NaN	0.000000	0.001669	0.001601	28.081	0.074662	0.002088	35.7572	139.253	-166.437	0.027428	0.577874	-0.512696	-0.514035	0.001963	35.7572	-0.512737	-5.15858e+06	-3.805863E-10	NaN
298	1.000000	0.587161	7.36798e+06	-53539.1	955.818	-29746.3	0.000000	0.000000	6.586963	-0.008801	NaN	0.000000	0.001624	0.001586	28.0807	0.020622	0.002008	10.2718	-126.526	-166.781	-0.001084	0.585864	-0.504748	-0.506045	-0.008801	10.2718	-0.504105	-3.91082e+06	2.250452E-9	NaN
298	1.000000	0.595185	7.36798e+06	-53539.1	955.818	-29746.3	0.000000	0.000000	6.594988	0.045203	NaN	0.000000	0.001638	0.001628	28.0811	0.015200	0.001993	7.625704	-178.411	-166.861	0.007665	0.593867	-0.496724	-0.498042	0.045203	7.625704	-0.501170	-3.55911e+06	-1.270071E-8	NaN
298	1.000000	0.603174	7.36798e+06	-53539.1	955.818	-29746.3	0.000000	0.000000	6.602972	-0.090535	NaN	0.000000	0.001622	0.001582	28.0807	0.091496	0.001969	46.4634	-163.01	-166.713	-0.035985	0.601873	-0.488735	-0.490036	-0.090535	46.4634	-0.487273	-2.27655e+06	3.976827E-8	NaN
298	1.000000	0.611185	7.36798e+06	-53539.1	955.817	-29746.3	0.000000	0.000000	6.610984	-0.061208	NaN	0.000000	0.001623	0.001601	28.0805	0.064847	0.002049	31.6454	-4.556752	-165.334	-0.150141	0.609844	-0.480724	-0.482065	-0.061208	31.6454	-0.479273	-1.75936e+06	3.479007E-8	NaN
298	1.000000	0.619185	7.36798e+06	-53539.1	955.819	-29746.3	0.000000	0.000000	6.618986	-0.021298	NaN	0.000000	0.001630	0.001582	28.0807	0.038882	0.001949	19.9496	-176.997	-164.237	0.041022	0.617860	-0.472724	-0.474049	-0.021298	19.9496	-0.471923	-1.38796e+06	1.534467E-8	NaN
298	1.000000	0.627166	7.36798e+06	-53539.1	955.818	-29746.3	0.000000	0.000000	6.626967	-0.020933	NaN	0.000000	0.001643	0.001596	28.0807	0.050969	0.002128	23.9523	155.624	-164.855	-0.022344	0.625886	-0.464743	-0.466023	-0.020933	23.9523	-0.464088	-1.07756e+06	1.942601E-8	NaN
298	1.000000	0.635188	7.36798e+06	-53539.1	955.818	-29746.3	0.000000	0.000000	6.634988	-0.037394	NaN	0.000000	0.001571	0.001582	28.0808	0.065715	0.001991	32.9997	-167.784	-166.632	-0.008293	0.633935	-0.456721	-0.457974	-0.037394	32.9997	-0.455871	-825973	4.527224E-8	NaN
298	1.000000	0.643181	7.36798e+06	-53539.1	955.818	-29746.3	0.000000	0.000000	6.642983	0.012796	NaN	0.000000	0.001632	0.001628	28.0808	0.013021	0.001942	6.704553	-147.728	-162.645	-0.038640	0.641818	-0.448728	-0.450091	0.012796	6.704553	-0.450160	-686420	-1.864149E-8	NaN
298	1.000000	0.651212	7.36798e+06	-53539.1	955.818	-29746.3	0.000000	0.000000	6.651012	-0.049381	NaN	0.000000	0.001598	0.001604	28.0809	0.033351	0.001974	16.8958	-162.985	-166.473	-0.085509	0.649897	-0.440697	-0.442012	-0.049381	16.8958	-0.438505	-470176	1.050264E-7	NaN
298	1.000000	0.659225	7.36798e+06	-53539.1	955.818	-29746.3	0.000000	0.000000	6.659025	-0.030127	NaN	0.000000	0.001601	0.001611	28.0805	0.077260	0.002070	37.3213	-47.5603	-164.84	0.029014	0.657938	-0.432684	-0.433971	-0.030127	37.3213	-0.432079	-381470	7.897645E-8	NaN
298	1.000000	0.667207	7.36798e+06	-53539.1	955.819	-29746.3	0.000000	0.000000	6.667005	-0.100713	NaN	0.000000	0.001643	0.001567	28.0791	0.047155	0.002022	23.321	23.0454	-165.076	-0.046196	0.665918	-0.424702	-0.425991	-0.100713	23.321	-0.421463	-269871	3.731874E-7	NaN
298	1.000000	0.675212	7.36798e+06	-53539.1	955.819	-29746.3	0.000000	0.000000	6.675012	-0.023499	NaN	0.000000	0.001632	0.001613	28.0789	0.048335	0.001864	25.9249	-141.037	-169.178	-0.001237	0.673913	-0.416697	-0.417996	-0.023499	25.9249	-0.416017	-225893	1.040269E-7	NaN
298	1.000000	0.683233	7.36798e+06	-53539.1	955.818	-29746.3	0.000000	0.000000	6.683034	-0.000642	NaN	0.000000	0.001648	0.001582	28.0793	0.069976	0.001960	35.7102	-111.593	-167.491	-0.086189	0.681890	-0.408676	-0.410019	-0.000642	35.7102	-0.408663	-177576	3.614479E-9	NaN
298	1.000000	0.691232	7.36798e+06	-53539.1	955.818	-29746.3	0.000000	0.000000	6.691030	-0.084057	NaN	0.000000	0.001651	0.001572	28.0792	0.130999	0.002038	64.2705	160.766	-170.163	-0.083223	0.689909	-0.400677	-0.402000	-0.084057	64.2705	-0.399696	-132332	6.351942E-7	NaN
298	1.000000	0.699243	7.36798e+06	-53539.1	955.817	-29746.3	0.000000	0.000000	6.699044	-0.019476	NaN	0.000000	0.001656	0.001591	28.0793	0.058565	0.001960	29.8809	106.769	-166.933	-0.018339	0.697915	-0.392666	-0.393994	-0.019476	29.8809	-0.392177	-103346	1.884523E-7	NaN
298	1.000000	0.707237	7.36798e+06	-53539.1	955.818	-29746.3	0.000000	0.000000	6.707037	-0.032302	NaN	0.000000	0.001643	0.001569	28.0791	0.072474	0.002031	35.6853	52.7144	-167.403	-0.059305	0.705882	-0.384672	-0.386027	-0.032302	35.6853	-0.383993	-78915.2	4.093294E-7	NaN
298	1.000000	0.715245	7.36798e+06	-53539.1	955.818	-29746.3	0.000000	0.000000	6.715045	-0.024833	NaN	0.000000	0.001646	0.001589	28.079	0.081598	0.002049	39.8267	164.482	-167.754	-0.055566	0.713899	-0.376664	-0.378010	-0.024833	39.8267	-0.376197	-60991.9	4.071608E-7	NaN
298	1.000000	0.723223	7.36798e+06	-53539.1	955.819	-29746.3	0.000000	0.000000	6.723025	-0.002266	NaN	0.000000	0.001639	0.001597	28.0792	0.061265	0.001988	30.8185	-70.1847	-165.454	-0.008658	0.721975	-0.368685	-0.369934	-0.002266	30.8185	-0.368630	-47467.6	4.774390E-8	NaN
298	1.000000	0.731260	7.36798e+06	-53539.1	955.818	-29746.3	0.000000	0.000000	6.731062	-0.005151	NaN	0.000000	0.001604	0.001567	28.0791	0.149375	0.001907	78.3316	-178.951	-163.834	0.033479	0.729967	-0.360649	-0.361942	-0.005151	78.3316	-0.360600	-36350.6	1.417093E-7	NaN
298	1.000000	0.739224	7.36798e+06	-53539.1	955.818	-29746.3	0.000000	0.000000	6.739027	0.022164	NaN	0.000000	0.001620	0.001583	28.0796	0.083832	0.002040	41.1021	154.46	-167.757	-0.027324	0.737914	-0.352685	-0.353995	0.022164	41.1021	-0.353089	-28301.7	-7.831363E-7	NaN
298	1.000000	0.747214	7.36798e+06	-53539.1	955.818	-29746.3	0.000000	0.000000	6.747016	0.004249	NaN	0.000000	0.001628	0.001575	28.0795	0.060587	0.001945	31.1442	162.036	-166.338	-0.010030	0.745932	-0.344695	-0.345977	0.004249	31.1442	-0.344797	-21449.2	-1.981182E-7	NaN
298	1.000000	0.755204	7.36798e+06	-53539.1	955.819	-29746.3	0.000000	0.000000	6.755002	-0.093001	NaN	0.000000	0.001639	0.001575	28.079	0.008692	0.002054	4.232508	20.7404	-160.932	-0.085368	0.753925	-0.336705	-0.337984	-0.093001	4.232508	-0.320225	-9374.56	9.920625E-6	NaN
298	1.000000	0.763234	7.36798e+06	-53539.1	955.818	-29746.3	0.000000	0.000000	6.763035	-0.026809	NaN	0.000000	0.001645	0.001590	28.0791	0.059777	0.002057	29.0591	-96.6067	-164.163	0.023884	0.761943	-0.328675	-0.329966	-0.026809	29.0591	-0.327983	-12187.1	2.199819E-6	NaN
298	1.000000	0.771265	7.36798e+06	-53539.1	955.819	-29746.3	0.000000	0.000000	6.771069	0.039608	NaN	0.000000	0.001608	0.001593	28.0791	0.060352	0.002041	29.565	131.046	-167.186	0.039498	0.769976	-0.320644	-0.321933	0.039608	29.565	-0.321648	-9837.66	-4.026135E-6	NaN
298	1.000000	0.779261	7.36798e+06	-53539.1	955.818	-29746.3	0.000000	0.000000	6.779062	-0.010231	NaN	0.000000	0.001640	0.001598	28.0793	0.070304	0.001995	35.2405	-23.2759	-169.019	-0.082039	0.777927	-0.312648	-0.313982	-0.010231	35.2405	-0.312431	-7194.51	1.422056E-6	NaN
298	1.000000	0.787231	7.36798e+06	-53539.1	955.819	-29746.3	0.000000	0.000000	6.787029	-0.073877	NaN	0.000000	0.001639	0.001584	28.0793	0.037644	0.001970	19.1087	45.6584	-162.102	-0.051504	0.785984	-0.304678	-0.305925	-0.073877	19.1087	-0.301779	-5001.48	1.477094E-5	NaN
298	1.000000	0.795248	7.36798e+06	-53539.1	955.817	-29746.3	0.000000	0.000000	6.795045	-0.113598	NaN	0.000000	0.001630	0.001596	28.0792	0.116953	0.002018	57.9565	-175.119	-167.116	-0.116280	0.793954	-0.296661	-0.297955	-0.113598	57.9565	-0.295191	-3989.69	2.847278E-5	NaN
298	1.000000	0.803296	7.36798e+06	-53539.1	955.818	-29746.3	0.000000	0.000000	6.803098	0.002591	NaN	0.000000	0.001627	0.001613	28.0807	0.101239	0.002024	50.0266	155.797	-165.809	0.027373	0.801931	-0.288613	-0.289978	0.002591	50.0266	-0.288652	-3184.89	-8.134413E-7	NaN
298	1.000000	0.811272	7.36798e+06	-53539.1	955.818	-29746.3	0.000000	0.000000	6.811072	-0.043982	NaN	0.000000	0.001689	0.001604	28.0804	0.031450	0.002056	15.2968	-4.589505	-166.061	-0.050333	0.809936	-0.280637	-0.281973	-0.043982	15.2968	-0.278480	-2238.88	1.964467E-5	NaN
298	1.000000	0.819294	7.36798e+06	-53539.1	955.818	-29746.3	0.000000	0.000000	6.819095	-0.024092	NaN	0.000000	0.001714	0.001593	28.0807	0.027809	0.001950	14.2638	64.0946	-165.028	-0.100427	0.818006	-0.272614	-0.273903	-0.024092	14.2638	-0.271348	-1745.9	1.379919E-5	NaN
298	1.000000	0.827271	7.36798e+06	-53539.1	955.819	-29746.3	0.000000	0.000000	6.827073	-0.005498	NaN	0.000000	0.001718	0.001600	28.0805	0.021099	0.001962	10.7558	61.7359	-166.478	0.033578	0.826014	-0.264638	-0.265895	-0.005498	10.7558	-0.264254	-1361.45	4.038185E-6	NaN
298	1.000000	0.835279	7.36798e+06	-53539.1	955.818	-29746.3	0.000000	0.000000	6.835078	-0.069431	NaN	0.000000	0.001713	0.001622	28.0804	0.019057	0.001943	9.807060	-118.49	-168.086	-0.037251	0.833962	-0.256630	-0.257947	-0.069431	9.807060	-0.251320	-861.732	8.057090E-5	NaN
298	1.000000	0.843287	7.36798e+06	-53539.1	955.818	-29746.3	0.000000	0.000000	6.843087	-0.031994	NaN	0.000000	0.001724	0.001632	28.0812	0.015736	0.002053	7.665890	38.8677	-167.493	-0.043127	0.841936	-0.248622	-0.249973	-0.031994	7.665890	-0.245492	-699.997	4.570527E-5	NaN
298	1.000000	0.851267	7.36798e+06	-53539.1	955.818	-29746.3	0.000000	0.000000	6.851068	-0.012676	NaN	0.000000	0.001705	0.001654	28.0805	0.064915	0.001959	33.1445	-2.932936	-166.875	-0.052885	0.849996	-0.240642	-0.241913	-0.012676	33.1445	-0.240355	-582.231	2.177065E-5	NaN
298	1.000000	0.859299	7.36798e+06	-53539.1	955.818	-29746.3	0.000000	0.000000	6.859100	-0.010640	NaN	0.000000	0.001640	0.001602	28.0807	0.095220	0.001956	48.677	-89.5031	-166.088	-0.016197	0.857967	-0.232610	-0.233942	-0.010640	48.677	-0.232446	-437.613	2.431309E-5	NaN
298	1.000000	0.867290	7.36798e+06	-53539.1	955.819	-29746.3	0.000000	0.000000	6.867092	0.008751	NaN	0.000000	0.001672	0.001618	28.0806	0.091425	0.001999	45.7358	9.342081	-165.607	-0.022597	0.865905	-0.224619	-0.226003	0.008751	45.7358	-0.224763	-330.799	-2.645303E-5	NaN
298	1.000000	0.875284	7.36798e+06	-53539.1	955.818	-29746.3	0.000000	0.000000	6.875086	0.014182	NaN	0.000000	0.001695	0.001595	28.0806	0.094470	0.001867	50.6066	158.102	-165.252	0.085835	0.873972	-0.216625	-0.217937	0.014182	50.6066	-0.216835	-247.172	-5.737511E-5	NaN
298	1.000000	0.883300	7.36798e+06	-53539.1	955.817	-29746.3	0.000000	0.000000	6.883102	0.005278	NaN	0.000000	0.001676	0.001625	28.0807	0.175898	0.002121	82.9244	56.7002	-168.279	0.027846	0.881993	-0.208609	-0.209916	0.005278	82.9244	-0.208656	-182.406	-2.893463E-5	NaN
298	1.000000	0.891288	7.36798e+06	-53539.1	955.819	-29746.3	0.000000	0.000000	6.891093	0.067774	NaN	0.000000	0.001677	0.001599	28.0805	0.057225	0.001964	29.1398	171.468	-164.473	0.005946	0.889955	-0.200621	-0.201954	0.067774	29.1398	-0.202365	-144.044	-0.000471	NaN
298	1.000000	0.899317	7.36798e+06	-53539.1	955.818	-29746.3	0.000000	0.000000	6.899119	0.003884	NaN	0.000000	0.001656	0.001607	28.0808	0.073817	0.001933	38.1954	176.636	-169.4	-0.042326	0.897977	-0.192591	-0.193932	0.003884	38.1954	-0.192668	-99.6535	-3.897918E-5	NaN
298	1.000000	0.907306	7.36798e+06	-53539.1	955.818	-29746.3	0.000000	0.000000	6.907108	-0.001296	NaN	0.000000	0.001729	0.001613	28.0806	0.006989	0.002052	3.406210	116.595	-167.34	0.011818	0.906014	-0.184603	-0.185895	-0.001296	3.406210	-0.184317	-72.2138	1.795168E-5	NaN
298	1.000000	0.915304	7.36798e+06	-53539.1	955.818	-29746.3	0.000000	0.000000	6.915106	0.007840	NaN	0.000000	0.001681	0.001616	28.0807	0.016577	0.001928	8.598047	11.7649	-166.801	-0.058556	0.913987	-0.176605	-0.177922	0.007840	8.598047	-0.177289	-54.8549	-0.000143	NaN
298	1.000000	0.923337	7.36798e+06	-53539.1	955.817	-29746.3	0.000000	0.000000	6.923136	-0.066605	NaN	0.000000	0.001672	0.001614	28.0806	0.124008	0.001997	62.1057	-179.935	-167.324	-0.070826	0.922006	-0.168572	-0.169903	-0.066605	62.1057	-0.167768	-37.5628	0.001773	NaN
298	1.000000	0.931308	7.36798e+06	-53539.1	955.818	-29746.3	0.000000	0.000000	6.931109	-0.008191	NaN	0.000000	0.001664	0.001632	28.0806	0.079363	0.001958	40.5344	-41.1486	-167.758	-0.075979	0.930036	-0.160601	-0.161873	-0.008191	40.5344	-0.160450	-27.9239	0.000293	NaN
298	1.000000	0.939331	7.36798e+06	-53539.1	955.818	-29746.3	0.000000	0.000000	6.939131	-0.046631	NaN	0.000000	0.001654	0.001638	28.0795	0.059726	0.002108	28.3333	-83.6896	-167.894	-0.067501	0.937997	-0.152578	-0.153912	-0.046631	28.3333	-0.151343	-19.1629	0.002433	NaN
298	1.000000	0.947341	7.36798e+06	-53539.1	955.817	-29746.3	0.000000	0.000000	6.947141	-0.037156	NaN	0.000000	0.001661	0.001623	28.0794	0.054420	0.002015	27.011	-94.4201	-167.22	0.003525	0.946025	-0.144568	-0.145884	-0.037156	27.011	-0.143536	-13.7729	0.002698	NaN
298	1.000000	0.955303	7.36798e+06	-53539.1	955.817	-29746.3	0.000000	0.000000	6.955102	-0.066500	NaN	0.000000	0.001643	0.001614	28.0795	0.048117	0.001904	25.2739	-27.3989	-166.35	-0.017070	0.954052	-0.136606	-0.137857	-0.066500	25.2739	-0.134632	-9.359728	0.007105	NaN
298	1.000000	0.963347	7.36798e+06	-53539.1	955.818	-29746.3	0.000000	0.000000	6.963148	-0.029041	NaN	0.000000	0.001667	0.001606	28.0794	0.102450	0.002070	49.4813	-139.897	-168.407	-0.017982	0.962050	-0.128562	-0.129859	-0.029041	49.4813	-0.128122	-7.004845	0.004146	NaN
298	1.000000	0.971330	7.36798e+06	-53539.1	955.819	-29746.3	0.000000	0.000000	6.971129	-0.055819	NaN	0.000000	0.001666	0.001569	28.0795	0.043803	0.001977	22.1567	174.622	-167.47	-0.054253	0.969980	-0.120579	-0.121929	-0.055819	22.1567	-0.118690	-4.545366	0.012280	NaN
298	1.000000	0.979334	7.36798e+06	-53539.1	955.819	-29746.3	0.000000	0.000000	6.979135	-0.014886	NaN	0.000000	0.001660	0.001581	28.0795	0.092848	0.001956	47.472	105.262	-164.597	-0.011779	0.977981	-0.112575	-0.113928	-0.014886	47.472	-0.112339	-3.364615	0.004424	NaN
298	1.000000	0.987354	7.36798e+06	-53539.1	955.818	-29746.3	0.000000	0.000000	6.987154	-0.033191	NaN	0.000000	0.001640	0.001586	28.0797	0.065353	0.002060	31.7284	151.972	-166.648	0.052610	0.986048	-0.104555	-0.105861	-0.033191	31.7284	-0.103770	-2.210706	0.015014	NaN
298	1.000000	0.995336	7.36798e+06	-53539.1	955.818	-29746.3	0.000000	0.000000	6.995134	-0.094384	NaN	0.000000	0.001653	0.001615	28.0795	0.095501	0.002045	46.6936	-40.1192	-166.985	-0.073867	0.994113	-0.096573	-0.097796	-0.094384	46.6936	-0.095057	-1.414871	0.066709	NaN
298	1.000000	1.003320	7.36798e+06	-53539.1	955.819	-29746.3	0.000000	0.000000	7.003120	-0.032165	NaN	0.000000	0.001629	0.001657	28.0793	0.012527	0.001840	6.810011	22.7362	-167.282	0.010262	1.002034	-0.088589	-0.089875	-0.032165	6.810011	-0.085047	-0.823779	0.039045	NaN
298	1.000000	1.011338	7.36798e+06	-53539.1	955.819	-29746.3	0.000000	0.000000	7.011141	0.035237	NaN	0.000000	0.001628	0.001634	28.0795	0.097814	0.001904	51.3662	-15.785	-164.393	-0.009318	1.010041	-0.080571	-0.081868	0.035237	51.3662	-0.081086	-0.658767	-0.053490	NaN
298	1.000000	1.019347	7.36798e+06	-53539.1	955.818	-29746.3	0.000000	0.000000	7.019182	0.814897	NaN	0.000000	0.001619	0.001665	28.0793	0.972974	0.002045	475.773	7.262365	-166.41	0.438425	1.018044	-0.072562	-0.073865	0.814897	475.773	-0.073846	-0.431081	-1.890357	NaN
298	1.000000	1.027376	7.36798e+06	-53539.1	955.819	-29746.3	0.000000	0.000000	7.027247	1.670247	NaN	0.000000	0.001663	0.001678	28.0794	1.216306	0.001949	624.198	21.646	-167.079	1.915686	1.026052	-0.064533	-0.065857	1.670247	624.198	-0.066539	-0.274824	-6.077517	NaN
298	1.000000	1.035374	7.36798e+06	-53539.1	955.819	-29746.3	0.000000	0.000000	7.035211	0.861670	NaN	0.000000	0.001690	0.001651	28.0798	0.876726	0.002041	429.606	27.0739	-167.277	0.990752	1.034003	-0.056535	-0.057906	0.861670	429.606	-0.058039	-0.158088	-5.450577	NaN
298	1.000000	1.043378	7.36798e+06	-53539.1	955.818	-29746.3	0.000000	0.000000	7.043200	0.485508	NaN	0.000000	0.001673	0.001649	28.0828	0.607570	0.002054	295.797	34.4184	-167.753	0.531683	1.042020	-0.048531	-0.049889	0.485508	295.797	-0.049762	-0.089751	-5.409511	NaN
298	1.000000	1.051354	7.36798e+06	-53539.1	955.819	-29746.3	0.000000	0.000000	7.051171	0.373941	NaN	0.000000	0.001686	0.001666	28.082	0.504992	0.001929	261.766	31.527	-167.179	0.318012	1.050117	-0.040555	-0.041792	0.373941	261.766	-0.041627	-0.050685	-7.377728	NaN
298	1.000000	1.059373	7.36798e+06	-53539.1	955.819	-29746.3	0.000000	0.000000	7.059203	0.677529	NaN	0.000000	0.001681	0.001645	28.0801	0.828237	0.001934	428.289	34.6064	-163.871	0.705524	1.058041	-0.032535	-0.033868	0.677529	428.289	-0.033722	-0.029381	-23.0605	NaN
298	1.000000	1.067370	7.36798e+06	-53539.1	955.819	-29746.3	0.000000	0.000000	7.067204	0.786796	NaN	0.000000	0.001681	0.001664	28.0794	1.082757	0.002057	526.26	30.8712	-166.461	0.709047	1.066022	-0.024539	-0.025887	0.786796	526.26	-0.025660	-0.017556	-44.8155	NaN
298	1.000000	1.075368	7.36798e+06	-53539.1	955.818	-29746.3	0.000000	0.000000	7.075309	3.393394	NaN	0.000000	0.001658	0.001673	28.0814	3.514185	0.001805	1947.28	12.5549	-164.089	2.693482	1.074028	-0.016541	-0.017881	3.393394	1947.28	-0.017848	-0.011062	-306.768	NaN
298	2.000000	1.082820	7.36798e+06	-53539.1	955.819	-29746.3	0.000000	0.000000	7.082954	8.077215	NaN	0.000000	0.001676	0.001704	28.0806	7.908828	0.001722	4593.16	18.9776	-177.356	7.878472	1.082006	-0.009089	-0.009903	8.077215	4593.16	-0.010408	-0.006620	-1220.05	NaN
298	2.000000	1.084930	7.36798e+06	-53539.1	955.819	-29746.3	0.000000	0.000000	7.085114	9.297349	NaN	0.000000	0.001681	0.001687	28.0808	10.0789	0.001587	6349.93	15.0209	-178.521	8.916018	1.084678	-0.006979	-0.007231	9.297349	6349.93	-0.008077	-0.005277	-1762.01	NaN
298	2.000000	1.086964	7.36798e+06	-53539.1	955.818	-29746.3	0.000000	0.000000	7.087309	13.2208	NaN	0.000000	0.001694	0.001688	28.0807	13.19	0.001771	7448.44	6.050178	-171.435	12.8771	1.086599	-0.004945	-0.005310	13.2208	7448.44	-0.006277	-0.004205	-3144.17	NaN
298	2.000000	1.088936	7.36798e+06	-53539.1	955.818	-29746.3	0.000000	0.000000	7.089519	18.9883	NaN	0.000000	0.001663	0.001641	28.0809	16.2811	0.001790	9095.08	9.333078	-175.53	17.7303	1.088611	-0.002973	-0.003298	18.9883	9095.08	-0.004538	-0.003125	-6076.91	NaN
298	2.000000	1.090897	7.36798e+06	-53539.1	955.82	-29746.3	0.000000	0.000000	7.091745	25.4527	NaN	0.000000	0.001664	0.001630	28.0817	18.3897	0.001725	10659.7	9.820928	179.942	23.8814	1.090542	-0.001012	-0.001367	25.4527	10659.7	-0.002803	-0.001988	-12801.7	NaN
298	2.000000	1.092887	7.36798e+06	-53539.1	955.818	-29746.3	0.000000	0.000000	7.094035	32.74	NaN	0.000000	0.001680	0.001616	28.0809	20.8606	0.001762	11839.9	6.470675	-176.822	32.1215	1.092654	0.000978	0.000745	32.74	11839.9	-0.001096	-0.000802	-40806.8	NaN
298	2.000000	1.094860	7.36798e+06	-53539.1	955.818	-29746.3	0.000000	0.000000	7.096443	43.3115	NaN	0.000000	0.001698	0.001627	28.0809	22.2402	0.001726	12884.5	5.610100	-177.872	42.0332	1.094613	0.002951	0.002705	43.3115	12884.5	0.000430	0.000324	133752	654169
298	2.000000	1.096847	7.36798e+06	-53539.1	955.819	-29746.3	0.000000	0.000000	7.098859	53.7521	NaN	0.000000	0.001705	0.001624	28.081	25.8345	0.001926	13412.3	6.532130	-178.339	51.7227	1.096560	0.004938	0.004652	53.7521	13412.3	0.001932	0.001500	35833.5	316391
298	2.000000	1.098920	7.36798e+06	-53539.1	955.817	-29746.3	0.000000	0.000000	7.101579	69.48	NaN	0.000000	0.001688	0.001659	28.0805	28.1608	0.001904	14786.7	8.145884	178.223	68.8015	1.098552	0.007011	0.006643	69.48	14786.7	0.003487	0.002794	24869.4	255592
298	2.000000	1.100829	7.36798e+06	-53539.1	955.819	-29746.3	0.000000	0.000000	7.104087	84.0183	NaN	0.000000	0.001706	0.001652	28.0808	29.7654	0.001828	16281.6	6.993283	178.627	82.08	1.100530	0.008920	0.008621	84.0183	16281.6	0.005050	0.004179	20105.2	230111
298	2.000000	1.102866	7.36798e+06	-53539.1	955.82	-29746.3	0.000000	0.000000	7.106750	99.2594	NaN	0.000000	0.001671	0.001628	28.0806	31.9043	0.001791	17809.1	6.975658	177.809	97.6719	1.102448	0.010957	0.010539	99.2594	17809.1	0.006777	0.005814	17072.6	213392
298	2.000000	1.104783	7.36798e+06	-53539.1	955.819	-29746.3	0.000000	0.000000	7.109306	114.775	NaN	0.000000	0.001657	0.001668	28.081	32.9822	0.001694	19468.1	7.292018	176.124	110.285	1.104455	0.012875	0.012546	114.775	19468.1	0.008453	0.007512	15278.3	205216
298	2.000000	1.106826	7.36798e+06	-53539.1	955.818	-29746.3	0.000000	0.000000	7.111985	130.259	NaN	0.000000	0.001689	0.001667	28.0806	35.7428	0.001900	18808	7.714530	176.602	128.047	1.106484	0.014917	0.014575	130.259	18808	0.009723	0.008875	14677.3	182404
298	2.000000	1.108834	7.36798e+06	-53539.1	955.818	-29746.3	0.000000	0.000000	7.114716	147.831	NaN	0.000000	0.001650	0.001650	28.0807	36.9873	0.001822	20306	3.069045	-179.318	145.221	1.108491	0.016925	0.016582	147.831	20306	0.011465	0.010855	13618.7	178066
298	2.000000	1.110839	7.36798e+06	-53539.1	955.818	-29746.3	0.000000	0.000000	7.117402	164.389	NaN	0.000000	0.001697	0.001655	28.0809	37.817	0.001708	22134.9	4.137934	177.442	163.162	1.110464	0.018930	0.018555	164.389	22134.9	0.013360	0.013160	12491.4	176287
298	2.000000	1.112889	7.36798e+06	-53539.1	955.819	-29746.3	0.000000	0.000000	7.120249	183.777	NaN	0.000000	0.001675	0.001659	28.0807	41.3274	0.001726	23947.5	6.127001	175.02	183.988	1.112506	0.020980	0.020597	183.777	23947.5	0.015224	0.015585	11791.6	175257
298	2.000000	1.114796	7.36798e+06	-53539.1	955.82	-29746.3	0.000000	0.000000	7.123061	205.75	NaN	0.000000	0.001668	0.001671	28.0806	41.9502	0.001686	24887	5.426765	175.552	204.267	1.114454	0.022887	0.022545	205.75	24887	0.016687	0.017601	11689.8	171387
298	2.000000	1.116740	7.36798e+06	-53539.1	955.82	-29746.3	0.000000	0.000000	7.125673	221.998	NaN	0.000000	0.001674	0.001697	28.0795	45.0275	0.001782	25264.2	6.516930	174.062	215.917	1.116410	0.024832	0.024501	221.998	25264.2	0.018241	0.019854	11181.7	163817
298	2.000000	1.118816	7.36798e+06	-53539.1	955.819	-29746.3	0.000000	0.000000	7.128575	242.077	NaN	0.000000	0.001647	0.001675	28.0796	46.3836	0.001830	25347.9	6.281218	175.584	237.215	1.118425	0.026907	0.026516	242.077	25347.9	0.019744	0.022142	10932.8	155634
298	2.000000	1.120745	7.36798e+06	-53539.1	955.82	-29746.3	0.000000	0.000000	7.131047	255.289	NaN	0.000000	0.001645	0.001669	28.0795	47.6857	0.001832	26035.4	2.359674	178.249	251.047	1.120509	0.028836	0.028600	255.289	26035.4	0.021482	0.024925	10242.5	150669
298	2.000000	1.122797	7.36798e+06	-53539.1	955.818	-29746.3	0.000000	0.000000	7.133970	276.469	NaN	0.000000	0.001660	0.001673	28.0795	50.1155	0.001910	26240.5	4.845805	175.71	274.965	1.122449	0.030888	0.030540	276.469	26240.5	0.022986	0.027454	10070.4	144692
298	2.000000	1.124822	7.36798e+06	-53539.1	955.819	-29746.3	0.000000	0.000000	7.136820	296.513	NaN	0.000000	0.001653	0.001635	28.0803	50.5195	0.001754	28802.4	4.291097	175.902	295.728	1.124495	0.032913	0.032586	296.513	28802.4	0.025192	0.031367	9453.14	148582
298	2.000000	1.126737	7.36798e+06	-53539.1	955.819	-29746.3	0.000000	0.000000	7.139898	324.779	NaN	0.000000	0.001662	0.001673	28.0795	52.1124	0.001876	27781.7	5.502644	175.272	319.508	1.126394	0.034828	0.034485	324.779	27781.7	0.026061	0.032973	9849.72	139782
298	2.000000	1.128806	7.36798e+06	-53539.1	955.82	-29746.3	0.000000	0.000000	7.142725	343.208	NaN	0.000000	0.001662	0.001681	28.0795	53.7425	0.001848	29081.3	4.464319	175.603	340.367	1.128470	0.036898	0.036562	343.208	29081.3	0.028046	0.036792	9328.43	138520
298	2.000000	1.130821	7.36798e+06	-53539.1	955.817	-29746.3	0.000000	0.000000	7.145160	353.422	NaN	0.000000	0.001674	0.001639	28.0795	54.2268	0.001811	29948.2	3.202648	176.739	350.666	1.130528	0.038912	0.038619	353.422	29948.2	0.030062	0.040871	8647.18	135342
298	2.000000	1.132715	7.36798e+06	-53539.1	955.819	-29746.3	0.000000	0.000000	7.148302	383.778	NaN	0.000000	0.001683	0.001650	28.0795	56.3809	0.001875	30062.7	2.914431	176.825	377.584	1.132363	0.040806	0.040454	383.778	30062.7	0.031231	0.043334	8856.19	131943
298	2.000000	1.134843	7.36798e+06	-53539.1	955.82	-29746.3	0.000000	0.000000	7.151004	397.728	NaN	0.000000	0.001705	0.001645	28.0799	56.8194	0.001780	31928.9	2.346629	177.001	397.496	1.134600	0.042934	0.042691	397.728	31928.9	0.033592	0.048518	8197.6	132436
298	2.000000	1.136761	7.36798e+06	-53539.1	955.819	-29746.3	0.000000	0.000000	7.154107	426.529	NaN	0.000000	0.001668	0.001674	28.0795	58.9361	0.001891	31174.1	2.306905	177.094	422.009	1.136412	0.044852	0.044503	426.529	31174.1	0.034591	0.050797	8396.68	126371
298	2.000000	1.138800	7.36798e+06	-53539.1	955.82	-29746.3	0.000000	0.000000	7.156763	441.54	NaN	0.000000	0.001695	0.001684	28.0795	59.8043	0.001782	33565.1	0.213804	178.655	438.846	1.138604	0.046891	0.046695	441.54	33565.1	0.037025	0.056567	7805.62	128938
298	2.000000	1.140769	7.36798e+06	-53539.1	955.82	-29746.3	0.000000	0.000000	7.159409	458.01	NaN	0.000000	0.001668	0.001663	28.0796	61.2356	0.001749	35013.7	3.449359	174.404	453.356	1.140529	0.048860	0.048621	458.01	35013.7	0.039049	0.061594	7435.96	128897
298	2.000000	1.142921	7.36798e+06	-53539.1	955.82	-29746.3	0.000000	0.000000	7.162120	471.595	NaN	0.000000	0.001677	0.001668	28.0794	64.0499	0.001804	35507.6	4.685612	174.652	478.266	1.142578	0.051012	0.050669	471.595	35507.6	0.041051	0.066773	7062.65	125543
298	2.000000	1.144690	7.36798e+06	-53539.1	955.819	-29746.3	0.000000	0.000000	7.164504	486.544	NaN	0.000000	0.001696	0.001650	28.0797	64.3203	0.001851	34748	1.847027	176.71	480.04	1.144326	0.052781	0.052417	486.544	34748	0.042280	0.070053	6945.36	119947
298	2.000000	1.146744	7.36798e+06	-53539.1	955.819	-29746.3	0.000000	0.000000	7.167674	513.665	NaN	0.000000	0.001712	0.001659	28.0799	67.7099	0.001830	36990.5	3.702891	174.547	508.907	1.146324	0.054835	0.054415	513.665	36990.5	0.044421	0.075951	6763.12	122630
298	2.000000	1.148900	7.36798e+06	-53539.1	955.82	-29746.3	0.000000	0.000000	7.170288	524.819	NaN	0.000000	0.001651	0.001638	28.0804	70.5394	0.001906	37006.5	6.278519	172.456	526.869	1.148450	0.056991	0.056541	524.819	37006.5	0.046355	0.081479	6441.14	118448
298	2.000000	1.150716	7.36798e+06	-53539.1	955.819	-29746.3	0.000000	0.000000	7.173123	549.599	NaN	0.000000	0.001674	0.001689	28.081	69.8469	0.001733	40309.4	1.939778	175.697	544.084	1.150432	0.058807	0.058523	549.599	40309.4	0.048581	0.088078	6239.92	124093
298	2.000000	1.152863	7.36798e+06	-53539.1	955.821	-29746.3	0.000000	0.000000	7.176107	569.928	NaN	0.000000	0.001659	0.001683	28.0809	73.0467	0.001924	37969.4	7.145191	172.473	572.35	1.152466	0.060954	0.060557	569.928	37969.4	0.049696	0.091477	6230.27	114697
298	2.000000	1.154696	7.36798e+06	-53539.1	955.82	-29746.3	0.000000	0.000000	7.176711	540.052	NaN	0.000000	0.001670	0.001670	28.0807	73.5396	0.001815	40510.1	2.142688	175.069	533.438	1.154404	0.062787	0.062496	540.052	40510.1	0.052789	0.101228	5335.02	116329
298	2.000000	1.156747	7.36798e+06	-53539.1	955.821	-29746.3	0.000000	0.000000	7.180639	585.703	NaN	0.000000	0.001672	0.001706	28.0807	74.8628	0.001792	41765.7	5.872551	170.971	581.822	1.156387	0.064838	0.064478	585.703	41765.7	0.054320	0.106233	5513.38	117075
298	2.000000	1.158833	7.36798e+06	-53539.1	955.821	-29746.3	0.000000	0.000000	7.183815	612.191	NaN	0.000000	0.001659	0.001688	28.0812	76.8928	0.001847	41626.5	6.705567	171.528	612.899	1.158510	0.066924	0.066601	612.191	41626.5	0.055894	0.111498	5490.59	113896
298	2.000000	1.160809	7.36798e+06	-53539.1	955.821	-29746.3	0.000000	0.000000	7.186269	623.83	NaN	0.000000	0.001656	0.001684	28.0809	78.2239	0.001932	40495	6.509877	171.758	624.251	1.160422	0.068900	0.068513	623.83	40495	0.057346	0.116464	5356.43	108412
298	2.000000	1.162856	7.36798e+06	-53539.1	955.819	-29746.3	0.000000	0.000000	7.188989	640.166	NaN	0.000000	0.001652	0.001658	28.0809	79.9276	0.001874	42656	7.101343	170.863	642.126	1.162433	0.070947	0.070524	640.166	42656	0.059692	0.124705	5133.44	110360
298	2.000000	1.164809	7.36798e+06	-53539.1	955.82	-29746.3	0.000000	0.000000	7.191510	653.968	NaN	0.000000	0.001683	0.001675	28.0807	79.9843	0.001764	45338.9	4.620327	172.321	654.493	1.164384	0.072901	0.072475	653.968	45338.9	0.062083	0.133382	4902.98	113422
298	2.000000	1.166712	7.36798e+06	-53539.1	955.82	-29746.3	0.000000	0.000000	7.194173	672.466	NaN	0.000000	0.001690	0.001654	28.0808	82.4499	0.001887	43700.7	4.910258	172.386	667.489	1.166379	0.074803	0.074470	672.466	43700.7	0.063262	0.137764	4881.28	107571
298	2.000000	1.168713	7.36798e+06	-53539.1	955.82	-29746.3	0.000000	0.000000	7.197170	696.675	NaN	0.000000	0.001665	0.001693	28.082	83.2344	0.001932	43072.4	2.459180	175.274	691.627	1.168401	0.076804	0.076492	696.675	43072.4	0.064673	0.143097	4868.57	104030
298	2.000000	1.170623	7.36798e+06	-53539.1	955.82	-29746.3	0.000000	0.000000	7.198963	693.815	NaN	0.000000	0.001684	0.001649	28.0809	84.2447	0.001731	48671.4	3.945491	172.249	684.483	1.170296	0.078714	0.078387	693.815	48671.4	0.068023	0.156139	4443.57	112536
298	2.000000	1.172736	7.36798e+06	-53539.1	955.819	-29746.3	0.000000	0.000000	7.201947	715.009	NaN	0.000000	0.001666	0.001678	28.0807	85.8821	0.001892	45403.1	2.639191	174.288	711.603	1.172498	0.080827	0.080589	715.009	45403.1	0.069016	0.160110	4465.75	103669
298	2.000000	1.174689	7.36798e+06	-53539.1	955.82	-29746.3	0.000000	0.000000	7.204849	738.07	NaN	0.000000	0.001653	0.001654	28.0807	86.8809	0.001780	48809.1	4.736621	171.749	732.809	1.174284	0.082781	0.082375	738.07	48809.1	0.071439	0.169992	4341.79	108158
298	2.000000	1.176823	7.36798e+06	-53539.1	955.82	-29746.3	0.000000	0.000000	7.207459	749.671	NaN	0.000000	0.001650	0.001646	28.0807	88.161	0.001787	49327	4.811922	171.822	749.922	1.176538	0.084914	0.084629	749.671	49327	0.073515	0.178681	4195.58	106615
298	2.000000	1.178798	7.36798e+06	-53539.1	955.82	-29746.3	0.000000	0.000000	7.210344	771.777	NaN	0.000000	0.001671	0.001648	28.0809	91.0349	0.001761	51701.1	5.994390	170.318	772.495	1.178383	0.086889	0.086474	771.777	51701.1	0.075693	0.188016	4104.84	108937
298	2.000000	1.180837	7.36798e+06	-53539.1	955.819	-29746.3	0.000000	0.000000	7.211870	759.31	NaN	0.000000	0.001676	0.001681	28.0806	90.8719	0.001731	52482.7	0.397782	175.183	760.647	1.180737	0.088928	0.088828	759.31	52482.7	0.078077	0.198486	3825.5	107628
298	2.000000	1.181157	7.36798e+06	-53539.1	955.82	-29746.3	0.000000	0.000000	7.212561	768.313	NaN	0.000000	0.001700	0.001679	28.0807	91.3509	0.001721	53073.3	-0.300707	-3.972076	759.339	1.180898	0.089249	0.088989	768.313	53073.3	0.078391	0.199887	3843.73	108457