File: remote_trans/data/nanoindenter/0828-1/data/Data_2025-08-06,11h17m57s/2025-07-22_16-23-58_1_1200.txt
2025-07-22, 16:23:58, 1
Index	Phase	Displacement	Time	Pos X	Pos Y	Pos Z	Rot A	Rot B	Piezo Z	Force A	Force B	Gripper	Voltage A	Voltage B	Temperature	Amplitude force	Amplitude pos	Stiffness	Phase shift	Phase excitation	Force A raw	Displacement raw	HMax	HMax raw	Real Force	Real Stiffness	Contact Depth	Area	Hardness	Reduced Mod.
[#]	[#]	[um]	[s]	[um]	[um]	[um]	[m°]	[m°]	[um]	[uN]	[uN]	[V]	[V]	[V]	[°C]	[uN]	[um]	[N/m]	[°]	[°]	[uN]	[um]	[um]	[um]	[uN]	[N/m]	[um]	[um^2]	[MPa]	[MPa]
1200	1.000000	0.002658	7.37678e+06	-55589.1	1105.82	-29741	0.000000	0.000000	6.002805	-0.010969	NaN	0.000000	0.001594	0.001692	28.0812	0.062455	0.000990	63.1077	115.876	-161.041	-0.009737	0.001448	-1.074099	-1.075310	-0.010969	63.1077	-1.073969	-2.241350E+14	4.893955E-17	NaN
1200	1.000000	0.010608	7.37678e+06	-55589.1	1105.82	-29741	0.000000	0.000000	6.010756	0.010084	NaN	0.000000	0.001586	0.001717	28.0811	0.047926	0.000899	53.3131	-64.5333	-164.124	0.079838	0.009308	-1.066150	-1.067449	0.010084	53.3131	-1.066291	-1.767516E+14	-5.705063E-17	NaN
1200	1.000000	0.018615	7.37678e+06	-55589.1	1105.82	-29741	0.000000	0.000000	6.018763	0.005240	NaN	0.000000	0.001561	0.001674	28.0822	0.056804	0.001687	33.6794	143.556	-166.904	0.058953	0.017329	-1.058142	-1.059428	0.005240	33.6794	-1.058259	-1.378543E+14	-3.801141E-17	NaN
1200	1.000000	0.026637	7.37678e+06	-55589.1	1105.82	-29741	0.000000	0.000000	6.026785	-0.004379	NaN	0.000000	0.001537	0.001731	28.0824	0.145792	0.001959	74.4234	-164.868	-170.775	-0.018372	0.025348	-1.050120	-1.051410	-0.004379	74.4234	-1.050076	-1.070125E+14	4.091578E-17	NaN
1200	1.000000	0.034617	7.37678e+06	-55589.1	1105.82	-29741	0.000000	0.000000	6.034763	-0.023277	NaN	0.000000	0.001539	0.001723	28.0826	0.073710	0.001965	37.5048	-171.023	-166.107	-0.119890	0.033299	-1.042140	-1.043458	-0.023277	37.5048	-1.041675	-8.250686E+13	2.821192E-16	NaN
1200	1.000000	0.042574	7.37678e+06	-55589.1	1105.82	-29741	0.000000	0.000000	6.042720	-0.034556	NaN	0.000000	0.001535	0.001718	28.0826	0.081985	0.001844	44.4653	-117.274	-165.851	-0.050967	0.041282	-1.034183	-1.035475	-0.034556	44.4653	-1.033601	-6.425529E+13	5.377936E-16	NaN
1200	1.000000	0.050596	7.37678e+06	-55589.1	1105.82	-29741	0.000000	0.000000	6.050743	-0.012959	NaN	0.000000	0.001547	0.001712	28.0827	0.110321	0.001915	57.622	-57.7857	-166.486	-0.045749	0.049297	-1.026161	-1.027461	-0.012959	57.622	-1.025993	-5.076651E+13	2.552677E-16	NaN
1200	1.000000	0.058593	7.37678e+06	-55589.1	1105.82	-29741	0.000000	0.000000	6.058737	-0.080438	NaN	0.000000	0.001555	0.001725	28.0826	0.073518	0.001956	37.5922	-129.814	-165.381	-0.045181	0.057255	-1.018164	-1.019503	-0.080438	37.5922	-1.016559	-3.790144E+13	2.122285E-15	NaN
1200	1.000000	0.066580	7.37678e+06	-55589.1	1105.82	-29741	0.000000	0.000000	6.066726	-0.031186	NaN	0.000000	0.001557	0.001722	28.0824	0.061259	0.002041	30.0207	161.146	-166.197	-0.046576	0.065360	-1.010177	-1.011397	-0.031186	30.0207	-1.009398	-3.035845E+13	1.027254E-15	NaN
1200	1.000000	0.074602	7.37678e+06	-55589.1	1105.82	-29741	0.000000	0.000000	6.074748	-0.036614	NaN	0.000000	0.001523	0.001730	28.0826	0.078971	0.002048	38.5618	-44.607	-166.029	-0.078197	0.073252	-1.002155	-1.003505	-0.036614	38.5618	-1.001443	-2.372471E+13	1.543294E-15	NaN
1200	1.000000	0.082600	7.37678e+06	-55589.1	1105.82	-29741	0.000000	0.000000	6.082750	0.051851	NaN	0.000000	0.001542	0.001706	28.0828	0.032636	0.001990	16.4	154.376	-170.023	0.033096	0.081319	-0.994157	-0.995438	0.051851	16.4	-0.996528	-2.037166E+13	-2.545258E-15	NaN
1200	1.000000	0.090617	7.37678e+06	-55589.1	1105.82	-29741	0.000000	0.000000	6.090765	0.030881	NaN	0.000000	0.001516	0.001745	28.0826	0.050908	0.002015	25.2659	177.954	-166.015	-0.021573	0.089277	-0.986141	-0.987481	0.030881	25.2659	-0.987058	-1.518736E+13	-2.033347E-15	NaN
1200	1.000000	0.098608	7.37678e+06	-55589.1	1105.82	-29741	0.000000	0.000000	6.098754	-0.029841	NaN	0.000000	0.001528	0.001755	28.0826	0.033495	0.002011	16.6536	-49.2673	-168.925	-0.005677	0.097298	-0.978149	-0.979460	-0.029841	16.6536	-0.976806	-1.105023E+13	2.700513E-15	NaN
1200	1.000000	0.106605	7.37678e+06	-55589.1	1105.82	-29741	0.000000	0.000000	6.106752	-0.000454	NaN	0.000000	0.001536	0.001753	28.0827	0.033365	0.001942	17.1844	4.233809	-161.936	-0.081162	0.105318	-0.970153	-0.971439	-0.000454	17.1844	-0.970133	-8.983629E+12	5.054445E-17	NaN
1200	1.000000	0.114621	7.37678e+06	-55589.1	1105.82	-29741	0.000000	0.000000	6.114767	-0.029008	NaN	0.000000	0.001541	0.001726	28.0824	0.104262	0.002103	49.5862	-71.8783	-166.568	0.041092	0.113298	-0.962136	-0.963460	-0.029008	49.5862	-0.961698	-6.914404E+12	4.195248E-15	NaN
1200	1.000000	0.122660	7.37678e+06	-55589.1	1105.82	-29741	0.000000	0.000000	6.122809	0.030733	NaN	0.000000	0.001509	0.001749	28.0825	0.085132	0.002085	40.8302	-158.618	-165.29	0.081730	0.121304	-0.954097	-0.955454	0.030733	40.8302	-0.954662	-5.557639E+12	-5.529888E-15	NaN
1200	1.000000	0.130621	7.37678e+06	-55589.1	1105.82	-29741	0.000000	0.000000	6.130768	0.000762	NaN	0.000000	0.001510	0.001737	28.0825	0.070106	0.002063	33.9856	-97.7654	-166.45	-0.002288	0.129306	-0.946136	-0.947452	0.000762	33.9856	-0.946153	-4.267208E+12	-1.785292E-16	NaN
1200	1.000000	0.138627	7.37678e+06	-55589.1	1105.82	-29741	0.000000	0.000000	6.138774	0.002083	NaN	0.000000	0.001574	0.001753	28.0825	0.022684	0.002037	11.1359	163.805	-166.686	0.000423	0.137342	-0.938131	-0.939415	0.002083	11.1359	-0.938271	-3.340479E+12	-6.235068E-16	NaN
1200	1.000000	0.146619	7.37678e+06	-55589.1	1105.82	-29741	0.000000	0.000000	6.146767	0.026022	NaN	0.000000	0.001597	0.001749	28.0824	0.078388	0.002004	39.1078	179.624	-167.256	0.019018	0.145344	-0.930138	-0.931413	0.026022	39.1078	-0.930638	-2.635126E+12	-9.875171E-15	NaN
1200	1.000000	0.154629	7.37678e+06	-55589.1	1105.82	-29741	0.000000	0.000000	6.154777	0.016499	NaN	0.000000	0.001640	0.001705	28.0812	0.100888	0.002042	49.4169	177.383	-165.184	-0.009909	0.153312	-0.922128	-0.923445	0.016499	49.4169	-0.922379	-2.038538E+12	-8.093510E-15	NaN
1200	1.000000	0.162650	7.37678e+06	-55589.1	1105.82	-29741	0.000000	0.000000	6.162798	0.022348	NaN	0.000000	0.001648	0.001736	28.0813	0.113460	0.002060	55.0774	85.59	-169.333	-0.023704	0.161315	-0.914108	-0.915443	0.022348	55.0774	-0.914412	-1.591303E+12	-1.404364E-14	NaN
1200	1.000000	0.170660	7.37678e+06	-55589.1	1105.82	-29741	0.000000	0.000000	6.170811	0.072185	NaN	0.000000	0.001549	0.001728	28.0813	0.070389	0.001854	37.9731	0.938671	-168.072	0.026496	0.169342	-0.906097	-0.907415	0.072185	37.9731	-0.907523	-1.284409E+12	-5.620115E-14	NaN
1200	1.000000	0.178673	7.37678e+06	-55589.1	1105.82	-29741	0.000000	0.000000	6.178823	0.050917	NaN	0.000000	0.001547	0.001712	28.0815	0.034469	0.002060	16.7307	-29.0128	-165.189	-0.045919	0.177345	-0.898084	-0.899413	0.050917	16.7307	-0.900367	-1.028069E+12	-4.952633E-14	NaN
1200	1.000000	0.186660	7.37678e+06	-55589.1	1105.82	-29741	0.000000	0.000000	6.186808	0.013403	NaN	0.000000	0.001572	0.001700	28.0812	0.115220	0.002012	57.2733	153.431	-165.155	0.094194	0.185356	-0.890098	-0.891402	0.013403	57.2733	-0.890273	-7.509421E+11	-1.784792E-14	NaN
1200	1.000000	0.194662	7.37678e+06	-55589.1	1105.82	-29741	0.000000	0.000000	6.194812	0.042842	NaN	0.000000	0.001565	0.001730	28.0815	0.084638	0.001917	44.1512	-153.896	-166.813	0.048790	0.193281	-0.882095	-0.883476	0.042842	44.1512	-0.882823	-5.954960E+11	-7.194324E-14	NaN
1200	1.000000	0.202664	7.37678e+06	-55589.1	1105.82	-29741	0.000000	0.000000	6.202810	-0.037393	NaN	0.000000	0.001576	0.001732	28.0814	0.030839	0.002015	15.3028	-179.556	-166.935	-0.019737	0.201357	-0.874093	-0.875401	-0.037393	15.3028	-0.872261	-4.285741E+11	8.724954E-14	NaN
1200	1.000000	0.210700	7.37678e+06	-55589.1	1105.82	-29741	0.000000	0.000000	6.210847	-0.007240	NaN	0.000000	0.001563	0.001750	28.0812	0.158883	0.002131	74.5576	130.872	-165.874	0.006069	0.209356	-0.866058	-0.867402	-0.007240	74.5576	-0.865985	-3.524639E+11	2.054102E-14	NaN
1200	1.000000	0.218666	7.37678e+06	-55589.1	1105.82	-29741	0.000000	0.000000	6.218815	0.045897	NaN	0.000000	0.001518	0.001743	28.0815	0.169046	0.001908	88.578	46.5185	-166.318	0.063073	0.217321	-0.858092	-0.859436	0.045897	88.578	-0.858480	-2.789657E+11	-1.645243E-13	NaN
1200	1.000000	0.226706	7.37678e+06	-55589.1	1105.82	-29741	0.000000	0.000000	6.226855	0.044520	NaN	0.000000	0.001559	0.001694	28.0813	0.087671	0.001923	45.5872	55.8517	-165.665	-0.041695	0.225295	-0.850052	-0.851462	0.044520	45.5872	-0.850784	-2.194595E+11	-2.028606E-13	NaN
1200	1.000000	0.234710	7.37678e+06	-55589.1	1105.82	-29741	0.000000	0.000000	6.234857	-0.017535	NaN	0.000000	0.001564	0.001761	28.0814	0.073035	0.001912	38.1991	176.534	-164.115	-0.066122	0.233358	-0.842047	-0.843400	-0.017535	38.1991	-0.841703	-1.653337E+11	1.060611E-13	NaN
1200	1.000000	0.242696	7.37678e+06	-55589.1	1105.82	-29741	0.000000	0.000000	6.242842	-0.036090	NaN	0.000000	0.001560	0.001780	28.0811	0.030869	0.001926	16.0263	-13.6589	-165.487	-0.012405	0.241398	-0.834062	-0.835359	-0.036090	16.0263	-0.832373	-1.235778E+11	2.920464E-13	NaN
1200	1.000000	0.250668	7.37678e+06	-55589.1	1105.82	-29741	0.000000	0.000000	6.250815	-0.015288	NaN	0.000000	0.001527	0.001724	28.0811	0.046534	0.001962	23.7173	-113.694	-166.426	-0.048599	0.249331	-0.826089	-0.827427	-0.015288	23.7173	-0.825606	-1.000497E+11	1.528088E-13	NaN
1200	1.000000	0.258658	7.37678e+06	-55589.1	1105.82	-29741	0.000000	0.000000	6.258804	-0.027597	NaN	0.000000	0.001527	0.001719	28.0813	0.009788	0.001872	5.228002	-79.4593	-165.402	-0.036037	0.257336	-0.818100	-0.819422	-0.027597	5.228002	-0.814141	-6.994309E+10	3.945612E-13	NaN
1200	1.000000	0.266689	7.37678e+06	-55589.1	1105.82	-29741	0.000000	0.000000	6.266835	-0.050324	NaN	0.000000	0.001533	0.001722	28.0814	0.054136	0.001934	27.995	113.418	-166.656	-0.081764	0.265384	-0.810068	-0.811373	-0.050324	27.995	-0.808720	-5.904785E+10	8.522661E-13	NaN
1200	1.000000	0.274701	7.37678e+06	-55589.1	1105.82	-29741	0.000000	0.000000	6.274847	-0.026567	NaN	0.000000	0.001532	0.001731	28.0816	0.071077	0.002146	33.1255	100.609	-165.77	-0.034495	0.273338	-0.802056	-0.803420	-0.026567	33.1255	-0.801455	-4.705547E+10	5.645837E-13	NaN
1200	1.000000	0.282696	7.37678e+06	-55589.1	1105.82	-29741	0.000000	0.000000	6.282844	0.030461	NaN	0.000000	0.001541	0.001739	28.0813	0.060979	0.002044	29.8258	68.699	-166.652	-0.028834	0.281387	-0.794062	-0.795370	0.030461	29.8258	-0.794828	-3.825085E+10	-7.963510E-13	NaN
1200	1.000000	0.290709	7.37678e+06	-55589.1	1105.82	-29741	0.000000	0.000000	6.290856	-0.018339	NaN	0.000000	0.001522	0.001719	28.0825	0.104185	0.002009	51.8707	100.309	-165.889	-0.050244	0.289483	-0.786049	-0.787274	-0.018339	51.8707	-0.785783	-2.882762E+10	6.361694E-13	NaN
1200	1.000000	0.298740	7.37678e+06	-55589.1	1105.82	-29741	0.000000	0.000000	6.298886	-0.033560	NaN	0.000000	0.001546	0.001733	28.0825	0.013202	0.002108	6.263093	101.37	-166.856	0.038635	0.297430	-0.778017	-0.779327	-0.033560	6.263093	-0.773999	-1.993730E+10	1.683292E-12	NaN
1200	1.000000	0.306698	7.37678e+06	-55589.1	1105.82	-29741	0.000000	0.000000	6.306845	-0.010351	NaN	0.000000	0.001550	0.001741	28.0829	0.045215	0.002098	21.5554	75.6067	-167.298	-0.030517	0.305438	-0.770060	-0.771320	-0.010351	21.5554	-0.769700	-1.742699E+10	5.939923E-13	NaN
1200	1.000000	0.314687	7.37678e+06	-55589.1	1105.82	-29741	0.000000	0.000000	6.314833	-0.046229	NaN	0.000000	0.001565	0.001704	28.0827	0.065352	0.002032	32.1552	-28.8711	-166.027	-0.043089	0.313389	-0.762070	-0.763369	-0.046229	32.1552	-0.760992	-1.326783E+10	3.484265E-12	NaN
1200	1.000000	0.322721	7.37678e+06	-55589.1	1105.82	-29741	0.000000	0.000000	6.322871	0.054067	NaN	0.000000	0.001591	0.001699	28.0827	0.050198	0.001980	25.347	-126.451	-166.455	0.108378	0.321426	-0.754037	-0.755332	0.054067	25.347	-0.755636	-1.121839E+10	-4.819492E-12	NaN
1200	1.000000	0.330725	7.37678e+06	-55589.1	1105.82	-29741	0.000000	0.000000	6.330870	-0.053409	NaN	0.000000	0.001594	0.001697	28.0826	0.044924	0.001982	22.6611	17.6183	-167.025	-0.042277	0.329423	-0.746032	-0.747334	-0.053409	22.6611	-0.744265	-7.854805E+9	6.799495E-12	NaN
1200	1.000000	0.338701	7.37678e+06	-55589.1	1105.82	-29741	0.000000	0.000000	6.338848	-0.004931	NaN	0.000000	0.001582	0.001680	28.0826	0.043479	0.002025	21.4748	-34.0382	-166.873	0.037833	0.337475	-0.738056	-0.739282	-0.004931	21.4748	-0.737884	-6.430361E+9	7.668618E-13	NaN
1200	1.000000	0.346703	7.37678e+06	-55589.1	1105.82	-29741.1	0.000000	0.000000	6.346852	0.032815	NaN	0.000000	0.001587	0.001706	28.0826	0.026786	0.001920	13.9485	120.466	-168.771	-0.004248	0.345423	-0.730054	-0.731334	0.032815	13.9485	-0.731819	-5.316118E+9	-6.172678E-12	NaN
1200	1.000000	0.354773	7.37678e+06	-55589.1	1105.82	-29741	0.000000	0.000000	6.354921	0.019749	NaN	0.000000	0.001587	0.001699	28.0825	0.087304	0.001899	45.9678	132.498	-167.986	0.086481	0.353362	-0.721984	-0.723396	0.019749	45.9678	-0.722306	-3.943904E+9	-5.007450E-12	NaN
1200	1.000000	0.362708	7.37678e+06	-55589.1	1105.82	-29741.1	0.000000	0.000000	6.362856	0.005395	NaN	0.000000	0.001585	0.001738	28.0827	0.018133	0.002047	8.857880	53.6069	-165.808	-0.082256	0.361383	-0.714049	-0.715374	0.005395	8.857880	-0.714506	-3.086998E+9	-1.747594E-12	NaN
1200	1.000000	0.370716	7.37678e+06	-55589.1	1105.82	-29741.1	0.000000	0.000000	6.370864	0.020984	NaN	0.000000	0.001581	0.001720	28.0826	0.142449	0.002047	69.6009	91.1439	-168.196	0.042808	0.369412	-0.706041	-0.707346	0.020984	69.6009	-0.706268	-2.382898E+9	-8.806106E-12	NaN
1200	1.000000	0.378730	7.37678e+06	-55589.1	1105.82	-29741.1	0.000000	0.000000	6.378877	0.004868	NaN	0.000000	0.001522	0.001705	28.0827	0.031864	0.002037	15.6436	-124.727	-164.168	-0.017975	0.377468	-0.698028	-0.699289	0.004868	15.6436	-0.698261	-1.852606E+9	-2.627383E-12	NaN
1200	1.000000	0.386748	7.37678e+06	-55589.1	1105.82	-29741.1	0.000000	0.000000	6.386896	0.020841	NaN	0.000000	0.001577	0.001732	28.0829	0.063981	0.001964	32.5841	-79.1109	-165.861	-0.033693	0.385376	-0.690009	-0.691381	0.020841	32.5841	-0.690489	-1.450777E+9	-1.436531E-11	NaN
1200	1.000000	0.394749	7.37678e+06	-55589.1	1105.82	-29741.1	0.000000	0.000000	6.394895	-0.029942	NaN	0.000000	0.001547	0.001701	28.0826	0.093480	0.001870	49.9986	159.542	-167.398	-0.053287	0.393458	-0.682009	-0.683299	-0.029942	49.9986	-0.681560	-1.095299E+9	2.733718E-11	NaN
1200	1.000000	0.402721	7.37678e+06	-55589.1	1105.82	-29741.1	0.000000	0.000000	6.402866	-0.052702	NaN	0.000000	0.001617	0.001731	28.0826	0.108997	0.002002	54.4412	163.069	-162.513	0.031484	0.401437	-0.674037	-0.675321	-0.052702	54.4412	-0.673311	-8.446927E+8	6.239182E-11	NaN
1200	1.000000	0.410729	7.37678e+06	-55589.1	1105.82	-29741.1	0.000000	0.000000	6.410876	-0.015906	NaN	0.000000	0.001571	0.001726	28.0825	0.012026	0.002085	5.768593	-11.6479	-164.291	0.010823	0.409451	-0.666029	-0.667306	-0.015906	5.768593	-0.663961	-6.290872E+8	2.528401E-11	NaN
1200	1.000000	0.418775	7.37678e+06	-55589.1	1105.82	-29741.1	0.000000	0.000000	6.418921	-0.041530	NaN	0.000000	0.001559	0.001741	28.0826	0.064482	0.001963	32.8497	176.783	-163.071	-0.056337	0.417480	-0.657982	-0.659278	-0.041530	32.8497	-0.657034	-5.056322E+8	8.213527E-11	NaN
1200	1.000000	0.426737	7.37678e+06	-55589.1	1105.82	-29741.1	0.000000	0.000000	6.426884	-0.017765	NaN	0.000000	0.001570	0.001713	28.0816	0.076187	0.001947	39.1397	-175.689	-167.122	0.088182	0.425469	-0.650020	-0.651288	-0.017765	39.1397	-0.649680	-4.009119E+8	4.431143E-11	NaN
1200	1.000000	0.434768	7.37678e+06	-55589.1	1105.82	-29741.1	0.000000	0.000000	6.434918	0.070604	NaN	0.000000	0.001564	0.001721	28.0814	0.097235	0.001886	51.5535	-100.065	-164.467	0.080329	0.433474	-0.641990	-0.643284	0.070604	51.5535	-0.643017	-3.248444E+8	-2.173468E-10	NaN
1200	1.000000	0.442756	7.37678e+06	-55589.1	1105.82	-29741.1	0.000000	0.000000	6.442902	-0.030525	NaN	0.000000	0.001577	0.001702	28.0817	0.098479	0.002011	48.9609	63.2226	-166.029	-0.074827	0.441465	-0.634001	-0.635293	-0.030525	48.9609	-0.633534	-2.407382E+8	1.267961E-10	NaN
1200	1.000000	0.450798	7.37678e+06	-55589.1	1105.82	-29741.1	0.000000	0.000000	6.450947	0.043932	NaN	0.000000	0.001603	0.001712	28.0814	0.116727	0.001935	60.3096	-161.41	-164.696	0.009667	0.449471	-0.625959	-0.627287	0.043932	60.3096	-0.626506	-1.927662E+8	-2.279055E-10	NaN
1200	1.000000	0.458809	7.37678e+06	-55589.1	1105.82	-29741.1	0.000000	0.000000	6.458952	-0.108026	NaN	0.000000	0.001594	0.001712	28.0815	0.055189	0.002004	27.5445	111.475	-166.213	-0.107307	0.457479	-0.617948	-0.619278	-0.108026	27.5445	-0.615007	-1.339626E+8	8.063875E-10	NaN
1200	1.000000	0.466783	7.37678e+06	-55589.1	1105.82	-29741.1	0.000000	0.000000	6.466929	-0.032210	NaN	0.000000	0.001609	0.001715	28.0815	0.002455	0.002019	1.216064	-59.5489	-168.64	-0.054474	0.465557	-0.609975	-0.611201	-0.032210	1.216064	-0.590110	-6.083816E+7	5.294318E-10	NaN
1200	1.000000	0.474755	7.37678e+06	-55589.1	1105.82	-29741.1	0.000000	0.000000	6.474903	0.010857	NaN	0.000000	0.001592	0.001696	28.0814	0.101117	0.001910	52.9447	158.091	-170.422	-0.024326	0.473474	-0.602002	-0.603284	0.010857	52.9447	-0.602156	-8.915617E+7	-1.217799E-10	NaN
1200	1.000000	0.482776	7.37678e+06	-55589.1	1105.82	-29741.1	0.000000	0.000000	6.482921	-0.044356	NaN	0.000000	0.001652	0.001679	28.0819	0.124049	0.001989	62.3712	18.8869	-164.758	-0.063765	0.481467	-0.593982	-0.595290	-0.044356	62.3712	-0.593448	-6.763902E+7	6.557818E-10	NaN
1200	1.000000	0.490764	7.37678e+06	-55589.1	1105.82	-29741.1	0.000000	0.000000	6.490911	-0.019107	NaN	0.000000	0.001651	0.001719	28.0813	0.063917	0.002076	30.7864	-71.4474	-166.5	-0.015486	0.489511	-0.585993	-0.587246	-0.019107	30.7864	-0.585528	-5.260091E+7	3.632473E-10	NaN
1200	1.000000	0.498797	7.37678e+06	-55589.1	1105.82	-29741.1	0.000000	0.000000	6.498942	-0.077025	NaN	0.000000	0.001652	0.001711	28.0821	0.081812	0.001996	40.9784	-138.664	-164.651	-0.087189	0.497506	-0.577960	-0.579251	-0.077025	40.9784	-0.576550	-3.954622E+7	1.947721E-9	NaN
1200	1.000000	0.506784	7.37678e+06	-55589.1	1105.82	-29741.1	0.000000	0.000000	6.506931	-0.011026	NaN	0.000000	0.001634	0.001728	28.0817	0.035595	0.001908	18.6535	-79.3427	-162.897	0.026703	0.505483	-0.569973	-0.571274	-0.011026	18.6535	-0.569530	-3.163280E+7	3.485511E-10	NaN
1200	1.000000	0.514803	7.37678e+06	-55589.1	1105.82	-29741.1	0.000000	0.000000	6.514950	0.005770	NaN	0.000000	0.001650	0.001701	28.0816	0.048720	0.001920	25.3697	29.9893	-163.185	0.007971	0.513510	-0.561955	-0.563247	0.005770	25.3697	-0.562125	-2.499061E+7	-2.308882E-10	NaN
1200	1.000000	0.522787	7.37678e+06	-55589.1	1105.82	-29741.1	0.000000	0.000000	6.522936	0.045584	NaN	0.000000	0.001622	0.001715	28.0816	0.138084	0.002039	67.7298	8.391624	-165.666	0.002453	0.521457	-0.553970	-0.555300	0.045584	67.7298	-0.554475	-1.958495E+7	-2.327487E-9	NaN
1200	1.000000	0.530793	7.37678e+06	-55589.1	1105.82	-29741.1	0.000000	0.000000	6.530937	-0.069198	NaN	0.000000	0.001649	0.001729	28.0815	0.057809	0.002042	28.3157	-162.081	-162.105	0.009986	0.529471	-0.545965	-0.547286	-0.069198	28.3157	-0.544132	-1.408144E+7	4.914096E-9	NaN
1200	1.000000	0.538782	7.37678e+06	-55589.1	1105.82	-29741.1	0.000000	0.000000	6.538931	0.022980	NaN	0.000000	0.001660	0.001707	28.0815	0.044347	0.001979	22.4096	-154.448	-166.377	-0.038583	0.537539	-0.537975	-0.539218	0.022980	22.4096	-0.538744	-1.185603E+7	-1.938223E-9	NaN
1200	1.000000	0.546823	7.37678e+06	-55589.1	1105.82	-29741.1	0.000000	0.000000	6.546972	0.048758	NaN	0.000000	0.001614	0.001702	28.0814	0.014518	0.001966	7.383860	-66.4975	-164.598	0.013121	0.545513	-0.529935	-0.531245	0.048758	7.383860	-0.534887	-1.048148E+7	-4.651834E-9	NaN
1200	1.000000	0.554797	7.37678e+06	-55589.1	1105.82	-29741.1	0.000000	0.000000	6.554945	-0.003059	NaN	0.000000	0.001660	0.001688	28.0816	0.075046	0.002049	36.6206	89.2774	-161.158	-0.001518	0.553504	-0.521960	-0.523253	-0.003059	36.6206	-0.521897	-6.91803e+06	4.421065E-10	NaN
1200	1.000000	0.562819	7.37678e+06	-55589.1	1105.82	-29741.1	0.000000	0.000000	6.562970	0.094303	NaN	0.000000	0.001621	0.001707	28.0823	0.041928	0.002119	19.7881	-75.0842	-167.894	0.047911	0.561555	-0.513938	-0.515202	0.094303	19.7881	-0.517512	-6.01167e+06	-1.568658E-8	NaN
1200	1.000000	0.570812	7.37678e+06	-55589.1	1105.82	-29741.1	0.000000	0.000000	6.570959	0.007870	NaN	0.000000	0.001650	0.001755	28.0826	0.044134	0.002153	20.5032	140.989	-167.744	-0.097370	0.569513	-0.505946	-0.507244	0.007870	20.5032	-0.506234	-4.18737e+06	-1.879407E-9	NaN
1200	1.000000	0.578832	7.37678e+06	-55589.1	1105.82	-29741.1	0.000000	0.000000	6.578977	-0.058066	NaN	0.000000	0.001696	0.001701	28.0826	0.087846	0.002072	42.3899	-158.552	-165.836	-0.023162	0.577518	-0.497926	-0.499239	-0.058066	42.3899	-0.496898	-3.10267e+06	1.871494E-8	NaN
1200	1.000000	0.586819	7.37678e+06	-55589.1	1105.82	-29741.1	0.000000	0.000000	6.586966	-0.022110	NaN	0.000000	0.001589	0.001710	28.0828	0.055332	0.002103	26.3127	141.853	-167.447	-0.078658	0.585521	-0.489938	-0.491237	-0.022110	26.3127	-0.489308	-2.43066e+06	9.096373E-9	NaN
1200	1.000000	0.594804	7.37678e+06	-55589.1	1105.82	-29741.1	0.000000	0.000000	6.594950	-0.030840	NaN	0.000000	0.001589	0.001690	28.0832	0.143337	0.001887	75.9665	-174.793	-168.087	0.057570	0.593533	-0.481954	-0.483224	-0.030840	75.9665	-0.481649	-1.89939e+06	1.623672E-8	NaN
1200	1.000000	0.602834	7.37678e+06	-55589.1	1105.82	-29741.1	0.000000	0.000000	6.602982	0.007194	NaN	0.000000	0.001600	0.001683	28.0827	0.027976	0.002116	13.2194	138.713	-164.14	0.022620	0.601560	-0.473923	-0.475197	0.007194	13.2194	-0.474331	-1.50013e+06	-4.795601E-9	NaN
1200	1.000000	0.610838	7.37678e+06	-55589.1	1105.82	-29741.1	0.000000	0.000000	6.610985	-0.003599	NaN	0.000000	0.001563	0.001708	28.0828	0.106361	0.002006	53.0223	174.531	-166.276	-0.034977	0.609565	-0.465919	-0.467193	-0.003599	53.0223	-0.465869	-1.1414e+06	3.153069E-9	NaN
1200	1.000000	0.618843	7.37678e+06	-55589.1	1105.82	-29741.1	0.000000	0.000000	6.618989	-0.029124	NaN	0.000000	0.001574	0.001702	28.0828	0.043999	0.002026	21.7219	-115.072	-162.595	0.031126	0.617517	-0.457914	-0.459240	-0.029124	21.7219	-0.456909	-854205	3.409538E-8	NaN
1200	1.000000	0.626842	7.37678e+06	-55589.1	1105.82	-29741.1	0.000000	0.000000	6.626988	-0.026269	NaN	0.000000	0.001587	0.001718	28.0828	0.051162	0.002005	25.5147	-15.6715	-164.406	-0.040144	0.625518	-0.449915	-0.451239	-0.026269	25.5147	-0.449143	-664166	3.955114E-8	NaN
1200	1.000000	0.634825	7.37678e+06	-55589.1	1105.82	-29741.1	0.000000	0.000000	6.634973	0.031001	NaN	0.000000	0.001593	0.001699	28.083	0.034396	0.002004	17.1637	-6.439860	-170.104	0.009245	0.633542	-0.441933	-0.443216	0.031001	17.1637	-0.443287	-549215	-5.644525E-8	NaN
1200	1.000000	0.642846	7.37678e+06	-55589.1	1105.82	-29741.1	0.000000	0.000000	6.642993	-0.007325	NaN	0.000000	0.001587	0.001676	28.0827	0.028669	0.002056	13.9428	-30.8161	-167.007	-0.004922	0.641564	-0.433911	-0.435194	-0.007325	13.9428	-0.433517	-399760	1.832238E-8	NaN
1200	1.000000	0.650866	7.37678e+06	-55589.1	1105.82	-29741.1	0.000000	0.000000	6.651013	-0.009990	NaN	0.000000	0.001590	0.001680	28.0832	0.037673	0.001913	19.6968	126.874	-165.423	-0.026657	0.649566	-0.425892	-0.427191	-0.009990	19.6968	-0.425511	-307979	3.243858E-8	NaN
1200	1.000000	0.658860	7.37678e+06	-55589.1	1105.82	-29741.1	0.000000	0.000000	6.659007	-0.012969	NaN	0.000000	0.001567	0.001693	28.0828	0.056898	0.001945	29.2459	-53.7831	-164.796	0.037250	0.657586	-0.417897	-0.419172	-0.012969	29.2459	-0.417564	-237608	5.458250E-8	NaN
1200	1.000000	0.666889	7.37678e+06	-55589.1	1105.82	-29741.1	0.000000	0.000000	6.667037	0.019833	NaN	0.000000	0.001598	0.001682	28.0828	0.037524	0.001991	18.8491	167.007	-166.616	0.027270	0.665567	-0.409869	-0.411190	0.019833	18.8491	-0.410658	-189565	-1.046252E-7	NaN
1200	1.000000	0.674870	7.37678e+06	-55589.1	1105.82	-29741.1	0.000000	0.000000	6.675016	-0.027018	NaN	0.000000	0.001543	0.001683	28.0828	0.058768	0.002116	27.767	-5.402843	-166.303	-0.093820	0.673580	-0.401888	-0.403177	-0.027018	27.767	-0.401158	-138838	1.945981E-7	NaN
1200	1.000000	0.682891	7.37678e+06	-55589.1	1105.82	-29741.1	0.000000	0.000000	6.683040	0.036678	NaN	0.000000	0.001558	0.001651	28.0827	0.055059	0.002052	26.8381	-22.9272	-169.552	0.026724	0.681551	-0.393867	-0.395206	0.036678	26.8381	-0.394891	-113002	-3.245763E-7	NaN
1200	1.000000	0.690879	7.37678e+06	-55589.1	1105.82	-29741.1	0.000000	0.000000	6.691026	-0.021444	NaN	0.000000	0.001578	0.001686	28.0833	0.101965	0.002000	50.9825	31.5359	-163.698	-0.046631	0.689567	-0.385878	-0.387190	-0.021444	50.9825	-0.385563	-83109.4	2.580248E-7	NaN
1200	1.000000	0.698873	7.37678e+06	-55589.1	1105.82	-29741.1	0.000000	0.000000	6.699020	-0.006074	NaN	0.000000	0.001544	0.001727	28.082	0.033706	0.001998	16.8659	-163.067	-165.661	-0.015111	0.697540	-0.377884	-0.379218	-0.006074	16.8659	-0.377614	-63919.7	9.502798E-8	NaN
1200	1.000000	0.706911	7.37678e+06	-55589.1	1105.82	-29741.1	0.000000	0.000000	6.707058	-0.010393	NaN	0.000000	0.001554	0.001695	28.082	0.164115	0.002009	81.6726	-168.366	-162.682	0.026486	0.705583	-0.369846	-0.371175	-0.010393	81.6726	-0.369751	-49264.8	2.109589E-7	NaN
1200	1.000000	0.714891	7.37678e+06	-55589.1	1105.82	-29741.1	0.000000	0.000000	6.715038	-0.009859	NaN	0.000000	0.001543	0.001708	28.0815	0.033416	0.001873	17.8458	29.6842	-165.415	-0.005946	0.713515	-0.361866	-0.363242	-0.009859	17.8458	-0.361452	-37396.5	2.636260E-7	NaN
1200	1.000000	0.722835	7.37678e+06	-55589.1	1105.82	-29741.1	0.000000	0.000000	6.722983	-0.003205	NaN	0.000000	0.001529	0.001683	28.0816	0.047443	0.002025	23.424	-169.639	-165.516	0.004691	0.721553	-0.353922	-0.355204	-0.003205	23.424	-0.353819	-28999.7	1.105301E-7	NaN
1200	1.000000	0.730890	7.37678e+06	-55589.1	1105.82	-29741.1	0.000000	0.000000	6.731038	0.011679	NaN	0.000000	0.001523	0.001663	28.0816	0.066853	0.001979	33.7822	-27.0899	-166.737	0.000339	0.729602	-0.345868	-0.347155	0.011679	33.7822	-0.346127	-22425.6	-5.208065E-7	NaN
1200	1.000000	0.738880	7.37678e+06	-55589.1	1105.82	-29741.1	0.000000	0.000000	6.739028	0.008815	NaN	0.000000	0.001534	0.001663	28.0814	0.038289	0.001912	20.0255	-127.162	-163.75	0.065474	0.737582	-0.337877	-0.339176	0.008815	20.0255	-0.338208	-17195.6	-5.126493E-7	NaN
1200	1.000000	0.746908	7.37678e+06	-55589.1	1105.82	-29741.1	0.000000	0.000000	6.747057	0.021074	NaN	0.000000	0.001539	0.001670	28.0816	0.101242	0.002071	48.8782	115.605	-165.382	-0.021507	0.745593	-0.329849	-0.331164	0.021074	48.8782	-0.330172	-13121.2	-1.606086E-6	NaN
1200	1.000000	0.754922	7.37678e+06	-55589.1	1105.82	-29741.1	0.000000	0.000000	6.755067	-0.057330	NaN	0.000000	0.001561	0.001731	28.0815	0.011894	0.001990	5.978249	-153.56	-166.939	-0.027062	0.753604	-0.321836	-0.323153	-0.057330	5.978249	-0.314644	-7756.86	7.390834E-6	NaN
1200	1.000000	0.762897	7.37678e+06	-55589.1	1105.82	-29741.1	0.000000	0.000000	6.763047	0.070529	NaN	0.000000	0.001530	0.001679	28.0815	0.133437	0.001940	68.7768	-160.779	-167.747	-0.083634	0.761599	-0.313861	-0.315158	0.070529	68.7768	-0.314630	-7753.2	-9.096773E-6	NaN
1200	1.000000	0.770899	7.37678e+06	-55589.1	1105.82	-29741.1	0.000000	0.000000	6.771046	-0.013146	NaN	0.000000	0.001575	0.001677	28.0814	0.108688	0.001932	56.2579	-165.5	-164.211	-0.002297	0.769563	-0.305858	-0.307195	-0.013146	56.2579	-0.305683	-5715.94	2.299907E-6	NaN
1200	1.000000	0.778898	7.37678e+06	-55589.1	1105.82	-29741.1	0.000000	0.000000	6.779045	-0.016772	NaN	0.000000	0.001518	0.001683	28.0816	0.083779	0.002019	41.4906	78.582	-165.265	-0.028261	0.777635	-0.297859	-0.299123	-0.016772	41.4906	-0.297556	-4327.39	3.875747E-6	NaN
1200	1.000000	0.786931	7.37678e+06	-55589.1	1105.82	-29741.1	0.000000	0.000000	6.787078	-0.008378	NaN	0.000000	0.001514	0.001660	28.0815	0.065621	0.001930	34.0017	-126.874	-166.706	-0.089380	0.785598	-0.289827	-0.291160	-0.008378	34.0017	-0.289642	-3295.59	2.542067E-6	NaN
1200	1.000000	0.794911	7.37678e+06	-55589.1	1105.82	-29741.1	0.000000	0.000000	6.795057	-0.035801	NaN	0.000000	0.001550	0.001693	28.0813	0.155841	0.001883	82.7501	162.838	-163.997	-0.011257	0.793621	-0.281847	-0.283137	-0.035801	82.7501	-0.281522	-2488.4	1.438732E-5	NaN
1200	1.000000	0.802889	7.37678e+06	-55589.1	1105.82	-29741.1	0.000000	0.000000	6.803036	-0.008920	NaN	0.000000	0.001530	0.001677	28.0816	0.112096	0.002058	54.4812	-120.424	-166.412	-0.039376	0.801623	-0.273868	-0.275134	-0.008920	54.4812	-0.273745	-1898.43	4.698569E-6	NaN
1200	1.000000	0.810925	7.37678e+06	-55589.1	1105.82	-29741.1	0.000000	0.000000	6.811072	-0.028908	NaN	0.000000	0.001516	0.001696	28.0813	0.071010	0.002007	35.3757	11.1233	-164.718	-0.018317	0.809563	-0.265832	-0.267194	-0.028908	35.3757	-0.265219	-1408.43	2.052514E-5	NaN
1200	1.000000	0.818922	7.37678e+06	-55589.1	1105.82	-29741.1	0.000000	0.000000	6.819070	0.017959	NaN	0.000000	0.001528	0.001687	28.0815	0.066495	0.002141	31.0511	173.832	-168.16	0.079663	0.817635	-0.257836	-0.259122	0.017959	31.0511	-0.258269	-1102.48	-1.628975E-5	NaN
1200	1.000000	0.826930	7.37678e+06	-55589.1	1105.82	-29741.1	0.000000	0.000000	6.827077	-0.015110	NaN	0.000000	0.001481	0.001688	28.0814	0.033199	0.001965	16.8965	-37.2297	-168.276	0.026434	0.825630	-0.249827	-0.251127	-0.015110	16.8965	-0.249156	-797.836	1.893934E-5	NaN
1200	1.000000	0.834937	7.37678e+06	-55589.1	1105.82	-29741.1	0.000000	0.000000	6.835083	-0.024549	NaN	0.000000	0.001521	0.001704	28.0819	0.131160	0.002016	65.0645	-72.7617	-168.669	-0.015953	0.833658	-0.241820	-0.243099	-0.024549	65.0645	-0.241537	-607.503	4.041043E-5	NaN
1200	1.000000	0.842969	7.37678e+06	-55589.1	1105.82	-29741.1	0.000000	0.000000	6.843114	-0.068533	NaN	0.000000	0.001492	0.001681	28.0827	0.010298	0.001951	5.278284	134.414	-163.941	0.017497	0.841677	-0.233788	-0.235081	-0.068533	5.278284	-0.224050	-322.283	0.000213	NaN
1200	1.000000	0.850952	7.37678e+06	-55589.1	1105.82	-29741.1	0.000000	0.000000	6.851096	-0.084537	NaN	0.000000	0.001527	0.001689	28.0826	0.007181	0.001980	3.627055	140.822	-164.277	-0.025998	0.849604	-0.225805	-0.227153	-0.084537	3.627055	-0.208325	-180.16	0.000469	NaN
1200	1.000000	0.858946	7.37678e+06	-55589.1	1105.82	-29741.1	0.000000	0.000000	6.859092	-0.019417	NaN	0.000000	0.001535	0.001687	28.0829	0.031484	0.002054	15.3284	127.193	-167.153	-0.083148	0.857550	-0.217812	-0.219207	-0.019417	15.3284	-0.216862	-247.413	7.847862E-5	NaN
1200	1.000000	0.866938	7.37678e+06	-55589.1	1105.82	-29741.1	0.000000	0.000000	6.867081	-0.103007	NaN	0.000000	0.001485	0.001729	28.0827	0.018016	0.002020	8.920576	-82.2825	-163.505	0.028351	0.865606	-0.209819	-0.211152	-0.103007	8.920576	-0.201159	-137.635	0.000748	NaN
1200	1.000000	0.874953	7.37678e+06	-55589.1	1105.82	-29741.1	0.000000	0.000000	6.875099	-0.055248	NaN	0.000000	0.001504	0.001755	28.0827	0.092764	0.001944	47.7292	10.9605	-166.303	0.016939	0.873689	-0.201804	-0.203069	-0.055248	47.7292	-0.200936	-136.479	0.000405	NaN
1200	1.000000	0.882936	7.37678e+06	-55589.1	1105.82	-29741.1	0.000000	0.000000	6.883085	0.022944	NaN	0.000000	0.001493	0.001713	28.0826	0.039356	0.002098	18.7571	-18.8223	-165.105	-0.079027	0.881650	-0.193821	-0.195107	0.022944	18.7571	-0.194739	-107.863	-0.000213	NaN
1200	1.000000	0.890964	7.37678e+06	-55589.1	1105.82	-29741.1	0.000000	0.000000	6.891112	-0.000142	NaN	0.000000	0.001488	0.001704	28.0842	0.106160	0.002138	49.6531	-138.994	-168.028	-0.056149	0.889636	-0.185793	-0.187121	-0.000142	49.6531	-0.185791	-76.4637	1.863424E-6	NaN
1200	1.000000	0.898976	7.37678e+06	-55589.1	1105.82	-29741.1	0.000000	0.000000	6.899123	-0.011761	NaN	0.000000	0.001484	0.001686	28.0829	0.111178	0.002092	53.145	55.8779	-166.189	-0.041227	0.897629	-0.177781	-0.179129	-0.011761	53.145	-0.177615	-55.565	0.000212	NaN
1200	1.000000	0.906913	7.37678e+06	-55589.1	1105.82	-29741.1	0.000000	0.000000	6.907058	-0.051019	NaN	0.000000	0.001517	0.001707	28.0829	0.148131	0.001871	79.1614	-68.1313	-166.047	-0.056651	0.905683	-0.169845	-0.171074	-0.051019	79.1614	-0.169361	-40.0417	0.001274	NaN
1200	1.000000	0.915005	7.37678e+06	-55589.1	1105.82	-29741.1	0.000000	0.000000	6.915152	-0.015914	NaN	0.000000	0.001501	0.001681	28.0829	0.101801	0.001948	52.2717	-9.659342	-163.954	0.085549	0.913636	-0.161752	-0.163122	-0.015914	52.2717	-0.161524	-29.1755	0.000545	NaN
1200	1.000000	0.922977	7.37678e+06	-55589.1	1105.82	-29741.1	0.000000	0.000000	6.923127	0.064231	NaN	0.000000	0.001527	0.001668	28.0828	0.050417	0.001916	26.3146	-82.1897	-163.81	0.063482	0.921628	-0.153780	-0.155129	0.064231	26.3146	-0.155611	-22.8855	-0.002807	NaN
1200	1.000000	0.930972	7.37678e+06	-55589.1	1105.82	-29741.1	0.000000	0.000000	6.931119	-0.006924	NaN	0.000000	0.001536	0.001672	28.0828	0.077947	0.002043	38.1537	-112.889	-165.205	0.009048	0.929657	-0.145785	-0.147100	-0.006924	38.1537	-0.145649	-15.0717	0.000459	NaN
1200	1.000000	0.938983	7.37678e+06	-55589.1	1105.82	-29741.1	0.000000	0.000000	6.939130	-0.022917	NaN	0.000000	0.001516	0.001713	28.0827	0.018706	0.002054	9.104908	107.661	-170.293	-0.095359	0.937682	-0.137774	-0.139075	-0.022917	9.104908	-0.135886	-9.889734	0.002317	NaN
1200	1.000000	0.946974	7.37678e+06	-55589.1	1105.82	-29741.1	0.000000	0.000000	6.947122	0.019055	NaN	0.000000	0.001538	0.001682	28.0827	0.046864	0.002012	23.2975	-65.0437	-166.282	0.047986	0.945661	-0.129783	-0.131097	0.019055	23.2975	-0.130397	-7.757335	-0.002456	NaN
1200	1.000000	0.954959	7.37678e+06	-55589.1	1105.82	-29741.1	0.000000	0.000000	6.955106	-0.008688	NaN	0.000000	0.001521	0.001671	28.0829	0.037453	0.001932	19.3813	7.805850	-162.949	-0.059674	0.953700	-0.121799	-0.123057	-0.008688	19.3813	-0.121463	-5.170313	0.001680	NaN
1200	1.000000	0.963009	7.37678e+06	-55589.1	1105.82	-29741.1	0.000000	0.000000	6.963156	-0.009551	NaN	0.000000	0.001533	0.001689	28.0828	0.051828	0.001970	26.3111	-171.667	-167.412	-0.065589	0.961702	-0.113748	-0.115055	-0.009551	26.3111	-0.113476	-3.552880	0.002688	NaN
1200	1.000000	0.970925	7.37678e+06	-55589.1	1105.82	-29741.1	0.000000	0.000000	6.971072	0.004373	NaN	0.000000	0.001528	0.001689	28.0822	0.059484	0.001976	30.1017	-11.5279	-165.524	0.013320	0.969743	-0.105833	-0.107015	0.004373	30.1017	-0.105941	-2.462999	-0.001775	NaN
1200	1.000000	0.978969	7.37678e+06	-55589.1	1105.82	-29741.1	0.000000	0.000000	6.979119	0.063073	NaN	0.000000	0.001520	0.001720	28.0815	0.012411	0.001991	6.233604	-135.861	-167.263	-0.017629	0.977691	-0.097788	-0.099067	0.063073	6.233604	-0.105377	-2.395007	-0.026335	NaN
1200	1.000000	0.986978	7.37678e+06	-55589.1	1105.82	-29741.1	0.000000	0.000000	6.987125	-0.005467	NaN	0.000000	0.001521	0.001709	28.0814	0.086601	0.001946	44.5066	118.388	-167.836	0.038503	0.985679	-0.089780	-0.091079	-0.005467	44.5066	-0.089687	-1.062863	0.005144	NaN
1200	1.000000	0.994977	7.37678e+06	-55589.1	1105.82	-29741.1	0.000000	0.000000	6.995124	-0.023614	NaN	0.000000	0.001543	0.001670	28.0814	0.055330	0.002031	27.2414	-78.9006	-167.35	-0.034161	0.993707	-0.081780	-0.083050	-0.023614	27.2414	-0.081130	-0.660445	0.035755	NaN
1200	1.000000	1.002986	7.37678e+06	-55589.1	1105.82	-29741.1	0.000000	0.000000	7.003134	0.006335	NaN	0.000000	0.001529	0.001647	28.0815	0.049857	0.001983	25.1475	130.049	-166.927	-0.034175	1.001669	-0.073771	-0.075088	0.006335	25.1475	-0.073960	-0.434027	-0.014596	NaN
1200	1.000000	1.010989	7.37678e+06	-55589.1	1105.82	-29741.1	0.000000	0.000000	7.011135	-0.022837	NaN	0.000000	0.001518	0.001659	28.0827	0.057153	0.002006	28.4946	1.794623	-167.07	0.038507	1.009706	-0.065769	-0.067051	-0.022837	28.4946	-0.065168	-0.251900	0.090659	NaN
1200	1.000000	1.019015	7.37678e+06	-55589.1	1105.82	-29741.1	0.000000	0.000000	7.019163	0.019972	NaN	0.000000	0.001523	0.001697	28.0817	0.125108	0.001911	65.4523	-124.8	-165.414	-0.039836	1.017733	-0.057743	-0.059024	0.019972	65.4523	-0.057971	-0.157374	-0.126905	NaN
1200	1.000000	1.027000	7.37678e+06	-55589.1	1105.82	-29741.1	0.000000	0.000000	7.027151	0.077669	NaN	0.000000	0.001528	0.001672	28.0814	0.109803	0.001876	58.5177	135.308	-163.6	-0.091263	1.025674	-0.049757	-0.051084	0.077669	58.5177	-0.050753	-0.096153	-0.807763	NaN
1200	1.000000	1.034998	7.37678e+06	-55589.1	1105.82	-29741.1	0.000000	0.000000	7.035145	0.006834	NaN	0.000000	0.001498	0.001680	28.0813	0.073099	0.002042	35.7953	43.3324	-167.4	-0.037384	1.033656	-0.041760	-0.043101	0.006834	35.7953	-0.041903	-0.051679	-0.132240	NaN
1200	1.000000	1.043044	7.37678e+06	-55589.1	1105.82	-29741.1	0.000000	0.000000	7.043187	-0.100002	NaN	0.000000	0.001517	0.001679	28.0814	0.130341	0.002020	64.5337	178.672	-167.86	-0.081392	1.041709	-0.033714	-0.035049	-0.100002	64.5337	-0.032552	-0.027177	3.679588	NaN
1200	1.000000	1.051016	7.37678e+06	-55589.1	1105.82	-29741.1	0.000000	0.000000	7.051161	-0.050002	NaN	0.000000	0.001534	0.001658	28.0814	0.026735	0.002066	12.9396	-131.326	-169.279	-0.020610	1.049706	-0.025742	-0.027052	-0.050002	12.9396	-0.022843	-0.014839	3.369634	NaN
1200	1.000000	1.059014	7.37678e+06	-55589.1	1105.82	-29741.1	0.000000	0.000000	7.059159	-0.050186	NaN	0.000000	0.001517	0.001667	28.0816	0.061928	0.002106	29.3997	-45.545	-166.55	-0.028329	1.057735	-0.017743	-0.019023	-0.050186	29.3997	-0.016463	-0.010171	4.934263	NaN
1200	1.000000	1.067049	7.37678e+06	-55589.1	1105.82	-29741.1	0.000000	0.000000	7.067197	0.011334	NaN	0.000000	0.001501	0.001653	28.0816	0.064397	0.002098	30.6935	87.8411	-167.649	0.119527	1.065682	-0.009709	-0.011075	0.011334	30.6935	-0.009986	-0.006379	-1.776773	NaN
1200	1.000000	1.075032	7.37678e+06	-55589.1	1105.82	-29741.1	0.000000	0.000000	7.075178	-0.041580	NaN	0.000000	0.001534	0.001671	28.0814	0.128676	0.001964	65.5135	-47.9868	-165.291	-0.110596	1.073729	-0.001725	-0.003029	-0.041580	65.5135	-0.001249	-0.000912	45.6049	NaN
1200	1.000000	1.082972	7.37678e+06	-55589.1	1105.82	-29741.1	0.000000	0.000000	7.083341	5.401461	NaN	0.000000	0.001536	0.001650	28.0815	6.382446	0.001797	3551.23	15.0035	-172.48	4.106172	1.081722	0.006214	0.004964	5.401461	3551.23	0.005074	0.004201	1285.85	50060.1
1200	2.000000	1.086701	7.37678e+06	-55589.1	1105.82	-29741.1	0.000000	0.000000	7.087253	9.841510	NaN	0.000000	0.001517	0.001653	28.0813	9.558359	0.001509	6336.1	8.538907	-176.934	9.582199	1.086370	0.009944	0.009612	9.841510	6336.1	0.008779	0.007856	1252.82	65314.2
1200	2.000000	1.088664	7.37678e+06	-55589.1	1105.82	-29741.1	0.000000	0.000000	7.089346	13.0017	NaN	0.000000	0.001516	0.001634	28.0819	12.5227	0.001714	7305.01	9.061190	-176.499	13.0906	1.088263	0.011906	0.011506	13.0017	7305.01	0.010571	0.009823	1323.56	67339
1200	2.000000	1.090665	7.37678e+06	-55589.1	1105.82	-29741.1	0.000000	0.000000	7.091485	16.3404	NaN	0.000000	0.001514	0.001651	28.0821	14.8366	0.001792	8280	8.321891	-176.301	15.7614	1.090314	0.013908	0.013556	16.3404	8280	0.012428	0.012006	1360.99	69039.9
1200	2.000000	1.092625	7.37678e+06	-55589.1	1105.82	-29741.1	0.000000	0.000000	7.093561	19.1515	NaN	0.000000	0.001521	0.001683	28.0827	16.3298	0.001732	9429.58	10.65	-179.227	19.6163	1.092268	0.015868	0.015510	19.1515	9429.58	0.014345	0.014421	1328	71740.2
1200	2.000000	1.094617	7.37678e+06	-55589.1	1105.82	-29741.1	0.000000	0.000000	7.095734	23.5745	NaN	0.000000	0.001513	0.001630	28.0828	18.7696	0.001840	10199.4	6.547831	-176.611	23.5643	1.094256	0.017859	0.017499	23.5745	10199.4	0.016126	0.016816	1401.89	71859.4
1200	2.000000	1.096595	7.37678e+06	-55589.1	1105.82	-29741.1	0.000000	0.000000	7.097932	28.9062	NaN	0.000000	0.001544	0.001653	28.0828	20.4684	0.001847	11083.8	2.343331	-173.509	28.0602	1.096274	0.019838	0.019516	28.9062	11083.8	0.017882	0.019323	1495.98	72850.2
1200	2.000000	1.098622	7.37678e+06	-55589.1	1105.82	-29741.1	0.000000	0.000000	7.100147	33.4881	NaN	0.000000	0.001509	0.001692	28.0834	22.4925	0.001680	13391.1	4.488559	-178.105	33.8591	1.098284	0.021865	0.021526	33.4881	13391.1	0.019989	0.022525	1486.69	81517.9
1200	2.000000	1.100598	7.37678e+06	-55589.1	1105.82	-29741.1	0.000000	0.000000	7.102365	39.3807	NaN	0.000000	0.001502	0.001678	28.0828	24.4084	0.001697	14381.4	6.185969	-179.162	38.3159	1.100277	0.023840	0.023520	39.3807	14381.4	0.021786	0.025427	1548.75	82399.3
1200	2.000000	1.102564	7.37678e+06	-55589.1	1105.82	-29741.1	0.000000	0.000000	7.104438	41.9776	NaN	0.000000	0.001460	0.001693	28.0827	26.8495	0.001829	14675.9	6.070049	179.565	41.3379	1.102313	0.025806	0.025556	41.9776	14675.9	0.023661	0.028625	1466.48	79251.3
1200	2.000000	1.104575	7.37678e+06	-55589.1	1105.82	-29741.1	0.000000	0.000000	7.106706	48.2005	NaN	0.000000	0.001492	0.001690	28.0831	29.4036	0.001878	15657.6	7.176049	178.838	48.1712	1.104322	0.027818	0.027564	48.2005	15657.6	0.025509	0.031948	1508.7	80033.9
1200	2.000000	1.106574	7.37678e+06	-55589.1	1105.82	-29741.1	0.000000	0.000000	7.108958	54.3604	NaN	0.000000	0.001509	0.001690	28.0827	30.4743	0.001779	17125.7	7.323603	178.169	52.7789	1.106202	0.029817	0.029445	54.3604	17125.7	0.027436	0.035597	1527.09	82930.2
1200	2.000000	1.108565	7.37678e+06	-55589.1	1105.82	-29741.1	0.000000	0.000000	7.111286	62.5562	NaN	0.000000	0.001454	0.001675	28.0841	32.7334	0.001851	17685.3	4.801031	-179.826	61.1255	1.108177	0.031808	0.031420	62.5562	17685.3	0.029155	0.039010	1603.59	81808.3
1200	2.000000	1.110568	7.37678e+06	-55589.1	1105.82	-29741.1	0.000000	0.000000	7.113481	67.2374	NaN	0.000000	0.001509	0.001694	28.0828	34.1265	0.001692	20169.3	4.934769	177.879	65.5403	1.110273	0.033810	0.033515	67.2374	20169.3	0.031310	0.043503	1545.58	88349.5
1200	2.000000	1.112551	7.37678e+06	-55589.1	1105.82	-29741.1	0.000000	0.000000	7.115825	75.9964	NaN	0.000000	0.001501	0.001685	28.0829	35.3561	0.001767	20008.9	3.513680	-178.019	75.8313	1.112230	0.035794	0.035472	75.9964	20008.9	0.032945	0.047070	1614.54	84260.5
1200	2.000000	1.114537	7.37678e+06	-55589.1	1105.82	-29741.1	0.000000	0.000000	7.118077	82.4591	NaN	0.000000	0.001495	0.001684	28.0833	38.6236	0.001684	22939	4.174394	177.944	81.6877	1.114259	0.037780	0.037501	82.4591	22939	0.035084	0.051941	1587.57	91959
1200	2.000000	1.116528	7.37678e+06	-55589.1	1105.82	-29741.1	0.000000	0.000000	7.120479	92.4748	NaN	0.000000	0.001458	0.001675	28.0831	39.7046	0.001876	21164.3	3.675932	-179.471	90.752	1.116146	0.039770	0.039389	92.4748	21164.3	0.036493	0.055280	1672.86	82242.3
1200	2.000000	1.118532	7.37678e+06	-55589.1	1105.82	-29741.1	0.000000	0.000000	7.122715	98.0916	NaN	0.000000	0.001486	0.001678	28.0841	42.4269	0.001574	26957.4	1.098462	179.412	95.784	1.118168	0.041775	0.041411	98.0916	26957.4	0.039046	0.061585	1592.78	99246.2
1200	2.000000	1.120553	7.37678e+06	-55589.1	1105.82	-29741.1	0.000000	0.000000	7.125071	106.261	NaN	0.000000	0.001494	0.001635	28.083	45.9774	0.001855	24785.3	5.067317	177.255	104.301	1.120245	0.043795	0.043487	106.261	24785.3	0.040580	0.065535	1621.45	88456.8
1200	2.000000	1.122493	7.37678e+06	-55589.1	1105.82	-29741.1	0.000000	0.000000	7.127505	118.244	NaN	0.000000	0.001504	0.001662	28.0829	48.4342	0.001889	25637.1	5.461762	175.468	117.072	1.122209	0.045735	0.045452	118.244	25637.1	0.042276	0.070043	1688.16	88503.1
1200	2.000000	1.124470	7.37678e+06	-55589.1	1105.82	-29741.1	0.000000	0.000000	7.129756	124.896	NaN	0.000000	0.001524	0.001646	28.0832	51.1678	0.001871	27351.6	5.914455	174.609	122.616	1.124224	0.047713	0.047467	124.896	27351.6	0.044288	0.075579	1652.51	90898.1
1200	2.000000	1.126570	7.37678e+06	-55589.1	1105.82	-29741.1	0.000000	0.000000	7.132303	135.783	NaN	0.000000	0.001511	0.001662	28.0817	50.8956	0.001688	30143.2	5.142074	176.163	136.166	1.126059	0.049813	0.049301	135.783	30143.2	0.046434	0.081711	1661.76	96343.7
1200	2.000000	1.128490	7.37678e+06	-55589.1	1105.82	-29741.1	0.000000	0.000000	7.134601	144.953	NaN	0.000000	0.001530	0.001657	28.0822	54.0303	0.001922	28105.2	6.322486	174.745	143.804	1.128202	0.051733	0.051444	144.953	28105.2	0.047865	0.085927	1686.94	87598.1
1200	2.000000	1.130494	7.37678e+06	-55589.1	1105.82	-29741.1	0.000000	0.000000	7.136982	154.143	NaN	0.000000	0.001503	0.001672	28.0817	54.8998	0.001852	29635.8	5.438964	175.25	151.64	1.130199	0.053736	0.053442	154.143	29635.8	0.049835	0.091904	1677.21	89314.4
1200	2.000000	1.132527	7.37678e+06	-55589.1	1105.82	-29741.1	0.000000	0.000000	7.139510	166.146	NaN	0.000000	0.001536	0.001664	28.0817	57.4115	0.001864	30805.9	7.987899	171.884	164.98	1.132233	0.055770	0.055475	166.146	30805.9	0.051725	0.097819	1698.51	89990.5
1200	2.000000	1.134523	7.37678e+06	-55589.1	1105.82	-29741.1	0.000000	0.000000	7.142032	178.958	NaN	0.000000	0.001533	0.001668	28.0821	58.6915	0.001906	30794.6	3.165390	176.78	177.236	1.134222	0.057766	0.057465	178.958	30794.6	0.053407	0.103234	1733.52	87566
1200	2.000000	1.136542	7.37678e+06	-55589.1	1105.82	-29741.1	0.000000	0.000000	7.144650	193.522	NaN	0.000000	0.001516	0.001698	28.0817	59.679	0.001663	35896.4	6.283381	171.566	192.202	1.136208	0.059784	0.059451	193.522	35896.4	0.055741	0.110980	1743.76	98446.9
1200	2.000000	1.138494	7.37678e+06	-55589.1	1105.82	-29741.1	0.000000	0.000000	7.146980	202.682	NaN	0.000000	0.001491	0.001652	28.0822	61.6325	0.001654	37266.2	6.083690	172.037	201.518	1.138142	0.061737	0.061385	202.682	37266.2	0.057658	0.117544	1724.3	99308.7
1200	2.000000	1.140514	7.37678e+06	-55589.1	1105.82	-29741.1	0.000000	0.000000	7.149676	219.136	NaN	0.000000	0.001578	0.001680	28.0821	64.0106	0.001718	37253	7.099325	171.552	215.525	1.140159	0.063756	0.063402	219.136	37253	0.059344	0.123468	1774.84	96862.9
1200	2.000000	1.142515	7.37678e+06	-55589.1	1105.82	-29741.1	0.000000	0.000000	7.152094	229.289	NaN	0.000000	0.001565	0.001641	28.0817	65.7863	0.001793	36687.6	5.756112	173.151	227.838	1.142120	0.065757	0.065363	229.289	36687.6	0.061070	0.129672	1768.22	93082.8
1200	2.000000	1.144497	7.37678e+06	-55589.1	1105.82	-29741.1	0.000000	0.000000	7.154586	241.659	NaN	0.000000	0.001583	0.001643	28.0819	68.9223	0.001678	41079.4	4.880654	171.929	239.065	1.144192	0.067740	0.067435	241.659	41079.4	0.063328	0.138011	1751.01	101027
1200	2.000000	1.146438	7.37678e+06	-55589.1	1105.82	-29741.1	0.000000	0.000000	7.156913	251.048	NaN	0.000000	0.001557	0.001653	28.0817	69.7558	0.001819	38339.5	3.929439	173.792	245.757	1.146165	0.069680	0.069408	251.048	38339.5	0.064769	0.143463	1749.91	92480.4
1200	2.000000	1.148497	7.37678e+06	-55589.1	1105.82	-29741.1	0.000000	0.000000	7.159488	263.59	NaN	0.000000	0.001585	0.001662	28.0819	72.1122	0.001693	42601.1	0.497447	176.519	262.232	1.148170	0.071740	0.071412	263.59	42601.1	0.067099	0.152489	1728.58	99672.3
1200	2.000000	1.150566	7.37678e+06	-55589.1	1105.82	-29741.1	0.000000	0.000000	7.162214	279.569	NaN	0.000000	0.001588	0.001633	28.0818	75.1839	0.001694	44374.9	5.248694	172.906	280.522	1.150159	0.073809	0.073402	279.569	44374.9	0.069083	0.160380	1743.17	101236
1200	2.000000	1.152478	7.37678e+06	-55589.1	1105.82	-29741.1	0.000000	0.000000	7.164676	292.922	NaN	0.000000	0.001603	0.001639	28.0818	77.5154	0.001761	44011.6	5.540591	171.419	291.733	1.152172	0.075721	0.075414	292.922	44011.6	0.070729	0.167067	1753.32	98377.3
1200	2.000000	1.154537	7.37678e+06	-55589.1	1105.82	-29741.1	0.000000	0.000000	7.167258	305.63	NaN	0.000000	0.001620	0.001678	28.0819	79.6752	0.001856	42923.5	4.420481	172.775	305.239	1.154298	0.077780	0.077540	305.63	42923.5	0.072440	0.174154	1754.94	93972.8
1200	2.000000	1.156368	7.37678e+06	-55589.1	1105.82	-29741.1	0.000000	0.000000	7.169996	327.692	NaN	0.000000	0.001500	0.001610	28.0818	79.8768	0.001753	45566	6.429064	170.835	320.897	1.156072	0.079611	0.079314	327.692	45566	0.074217	0.181664	1803.83	97674.1
1200	2.000000	1.158482	7.37678e+06	-55589.1	1105.82	-29741.1	0.000000	0.000000	7.172367	333.955	NaN	0.000000	0.001489	0.001655	28.0821	83.5266	0.001838	45439	4.763569	172.104	332.541	1.158100	0.081724	0.081343	333.955	45439	0.076212	0.190271	1755.15	95173.4
1200	2.000000	1.160434	7.37678e+06	-55589.1	1105.82	-29741.1	0.000000	0.000000	7.175052	351.754	NaN	0.000000	0.001497	0.001651	28.0829	85.2564	0.001713	49756.7	4.520180	171.592	347.175	1.160181	0.083677	0.083424	351.754	49756.7	0.078375	0.199814	1760.4	101698
1200	2.000000	1.162422	7.37678e+06	-55589.1	1105.82	-29741.1	0.000000	0.000000	7.177635	366.214	NaN	0.000000	0.001485	0.001652	28.0831	87.1615	0.001777	49045.4	5.162793	171.367	361.845	1.162072	0.085665	0.085314	366.214	49045.4	0.080065	0.207422	1765.55	98388.3
1200	2.000000	1.164452	7.37678e+06	-55589.1	1105.82	-29741.1	0.000000	0.000000	7.180074	376.163	NaN	0.000000	0.001478	0.001647	28.0832	88.4519	0.001836	48165.4	-0.424810	176.984	372.899	1.164243	0.087695	0.087486	376.163	48165.4	0.081838	0.215547	1745.15	94784.4
1200	2.000000	1.166362	7.37678e+06	-55589.1	1105.82	-29741.1	0.000000	0.000000	7.182899	398.416	NaN	0.000000	0.001478	0.001643	28.0829	89.8995	0.001844	48746.9	4.112472	172.512	390.055	1.166027	0.089604	0.089269	398.416	48746.9	0.083474	0.223177	1785.2	94274.7
1200	2.000000	1.168431	7.37678e+06	-55589.1	1105.82	-29741.1	0.000000	0.000000	7.185533	412.147	NaN	0.000000	0.001525	0.001664	28.0832	92.2005	0.001650	55878	7.020575	167.873	409.6	1.168184	0.091673	0.091427	412.147	55878	0.086141	0.235876	1747.31	105117
1200	2.000000	1.170551	7.37678e+06	-55589.1	1105.82	-29741.1	0.000000	0.000000	7.188497	432.646	NaN	0.000000	0.001513	0.001677	28.0828	95.421	0.001733	55045.9	8.623655	167.59	433.511	1.170124	0.093794	0.093366	432.646	55045.9	0.087899	0.244426	1770.05	101724
1200	2.000000	1.172467	7.37678e+06	-55589.1	1105.82	-29741.1	0.000000	0.000000	7.191183	451.38	NaN	0.000000	0.001566	0.001668	28.0832	97.1038	0.001918	50621.5	6.160526	170.792	450.017	1.171985	0.095709	0.095228	451.38	50621.5	0.089022	0.249959	1805.82	92506.9
1200	2.000000	1.174581	7.37678e+06	-55589.1	1105.82	-29741.1	0.000000	0.000000	7.193739	462.106	NaN	0.000000	0.001566	0.001663	28.0831	98.6688	0.001792	55065.6	4.940048	171.819	464.964	1.174061	0.097824	0.097304	462.106	55065.6	0.091530	0.262533	1760.18	98188.7
1200	2.000000	1.176444	7.37678e+06	-55589.1	1105.82	-29741.1	0.000000	0.000000	7.196621	486.886	NaN	0.000000	0.001550	0.001705	28.0829	99.5851	0.001821	54684.6	3.550043	172.665	484.66	1.176008	0.099686	0.099251	486.886	54684.6	0.093009	0.270081	1802.74	96137.1
1200	2.000000	1.178392	7.37678e+06	-55589.1	1105.82	-29741.1	0.000000	0.000000	7.199368	506.317	NaN	0.000000	0.001549	0.001715	28.0831	103.152	0.001884	54749.3	4.793888	170.993	501.79	1.178070	0.101634	0.101313	506.317	54749.3	0.094699	0.278829	1815.87	94728.9
1200	2.000000	1.180578	7.37678e+06	-55589.1	1105.82	-29741.1	0.000000	0.000000	7.202078	519.039	NaN	0.000000	0.001541	0.001689	28.0829	104.463	0.001837	56863.3	3.207119	172.757	524.637	1.180170	0.103821	0.103413	519.039	56863.3	0.096975	0.290821	1784.74	96336.8
1200	2.000000	1.182450	7.37678e+06	-55589.1	1105.82	-29741.1	0.000000	0.000000	7.204844	540.778	NaN	0.000000	0.001547	0.001675	28.0836	105.812	0.001680	62985.1	4.727307	170.298	539.703	1.182140	0.105692	0.105382	540.778	62985.1	0.099253	0.303056	1784.41	104532
1200	2.000000	1.183402	7.37678e+06	-55589.1	1105.82	-29741.1	0.000000	0.000000	7.206166	549.78	NaN	0.000000	0.001515	0.001697	28.083	106.151	0.001841	57648.7	4.715277	170.911	545.162	1.183119	0.106644	0.106362	549.78	57648.7	0.099492	0.304351	1806.4	95471.8