File: remote_trans/data/nanoindenter/0828-1/data/Data_2025-08-06,11h17m57s/2025-07-22_16-23-58_1_461.txt
2025-07-22, 16:23:58, 1
Index	Phase	Displacement	Time	Pos X	Pos Y	Pos Z	Rot A	Rot B	Piezo Z	Force A	Force B	Gripper	Voltage A	Voltage B	Temperature	Amplitude force	Amplitude pos	Stiffness	Phase shift	Phase excitation	Force A raw	Displacement raw	HMax	HMax raw	Real Force	Real Stiffness	Contact Depth	Area	Hardness	Reduced Mod.
[#]	[#]	[um]	[s]	[um]	[um]	[um]	[m°]	[m°]	[um]	[uN]	[uN]	[V]	[V]	[V]	[°C]	[uN]	[um]	[N/m]	[°]	[°]	[uN]	[um]	[um]	[um]	[uN]	[N/m]	[um]	[um^2]	[MPa]	[MPa]
461	1.000000	0.002462	7.36957e+06	-54039.1	1005.82	-29744.7	0.000000	0.000000	6.002820	-0.039336	NaN	0.000000	0.001638	0.001668	28.0832	0.057079	0.001012	56.385	174.92	-164.116	-0.040953	0.001194	-1.069983	-1.071251	-0.039336	56.385	-1.069460	-1.949550E+14	2.017707E-16	NaN
461	1.000000	0.010416	7.36957e+06	-54039.1	1005.82	-29744.7	0.000000	0.000000	6.010777	0.042485	NaN	0.000000	0.001635	0.001682	28.0825	0.070225	0.001002	70.0984	120.008	-164.45	0.098197	0.009094	-1.062029	-1.063351	0.042485	70.0984	-1.062484	-1.571091E+14	-2.704165E-16	NaN
461	1.000000	0.018376	7.36957e+06	-54039.1	1005.82	-29744.7	0.000000	0.000000	6.018733	-0.068166	NaN	0.000000	0.001633	0.001663	28.0825	0.061788	0.001715	36.0345	72.8795	-166.751	0.010287	0.017066	-1.054069	-1.055380	-0.068166	36.0345	-1.052650	-1.158886E+14	5.882043E-16	NaN
461	1.000000	0.026448	7.36957e+06	-54039.1	1005.82	-29744.7	0.000000	0.000000	6.026808	0.015807	NaN	0.000000	0.001588	0.001676	28.0823	0.034886	0.002032	17.1694	-129.463	-165.633	-0.070807	0.025128	-1.045997	-1.047318	0.015807	17.1694	-1.046688	-9.635706E+13	-1.640440E-16	NaN
461	1.000000	0.034391	7.36957e+06	-54039.1	1005.82	-29744.7	0.000000	0.000000	6.034751	0.018086	NaN	0.000000	0.001573	0.001697	28.0823	0.069437	0.001877	36.9981	156.074	-165.981	0.085410	0.033057	-1.038054	-1.039389	0.018086	36.9981	-1.038421	-7.459869E+13	-2.424465E-16	NaN
461	1.000000	0.042386	7.36957e+06	-54039.1	1005.82	-29744.7	0.000000	0.000000	6.042744	-0.044503	NaN	0.000000	0.001572	0.001671	28.0823	0.052736	0.002124	24.828	50.1735	-164.362	0.037671	0.041079	-1.030059	-1.031367	-0.044503	24.828	-1.028715	-5.523223E+13	8.057343E-16	NaN
461	1.000000	0.050393	7.36957e+06	-54039.1	1005.82	-29744.7	0.000000	0.000000	6.050750	-0.054434	NaN	0.000000	0.001567	0.001684	28.0824	0.017321	0.002005	8.640072	65.2947	-163.884	0.027558	0.049111	-1.022052	-1.023335	-0.054434	8.640072	-1.017327	-3.881368E+13	1.402451E-15	NaN
461	1.000000	0.058349	7.36957e+06	-54039.1	1005.82	-29744.7	0.000000	0.000000	6.058707	-0.024633	NaN	0.000000	0.001562	0.001656	28.0825	0.121295	0.002036	59.5655	-179.321	-166.198	0.026699	0.057093	-1.014097	-1.015353	-0.024633	59.5655	-1.013787	-3.478109E+13	7.082328E-16	NaN
461	1.000000	0.066362	7.36957e+06	-54039.1	1005.82	-29744.7	0.000000	0.000000	6.066722	0.027251	NaN	0.000000	0.001558	0.001705	28.0823	0.113586	0.001930	58.8446	69.5855	-166.237	-0.018948	0.065132	-1.006084	-1.007313	0.027251	58.8446	-1.006431	-2.769141E+13	-9.841043E-16	NaN
461	1.000000	0.074395	7.36957e+06	-54039.1	1005.82	-29744.7	0.000000	0.000000	6.074756	0.031961	NaN	0.000000	0.001562	0.001728	28.0823	0.071591	0.001977	36.2102	-166.131	-164.89	0.069929	0.073132	-0.998050	-0.999314	0.031961	36.2102	-0.998712	-2.179864E+13	-1.466173E-15	NaN
461	1.000000	0.082433	7.36957e+06	-54039.1	1005.82	-29744.7	0.000000	0.000000	6.082792	-0.002035	NaN	0.000000	0.001550	0.001723	28.0824	0.092352	0.002040	45.2671	164.26	-168.915	-0.025887	0.081181	-0.990012	-0.991265	-0.002035	45.2671	-0.989979	-1.662740E+13	1.223798E-16	NaN
461	1.000000	0.090388	7.36957e+06	-54039.1	1005.82	-29744.7	0.000000	0.000000	6.090746	-0.023341	NaN	0.000000	0.001561	0.001718	28.0822	0.095863	0.002013	47.6164	58.5506	-162.956	-0.083194	0.089129	-0.982057	-0.983317	-0.023341	47.6164	-0.981690	-1.285807E+13	1.815253E-15	NaN
461	1.000000	0.098404	7.36957e+06	-54039.1	1005.82	-29744.7	0.000000	0.000000	6.098764	0.002802	NaN	0.000000	0.001543	0.001706	28.0823	0.044964	0.002103	21.3859	-86.2866	-165.566	0.002207	0.097099	-0.974041	-0.975347	0.002802	21.3859	-0.974139	-1.017292E+13	-2.754789E-16	NaN
461	1.000000	0.106429	7.36957e+06	-54039.1	1005.82	-29744.7	0.000000	0.000000	6.106789	0.020750	NaN	0.000000	0.001540	0.001722	28.0811	0.103042	0.002006	51.3726	-41.6006	-168.952	0.002918	0.105115	-0.966017	-0.967330	0.020750	51.3726	-0.966319	-7.980996E+12	-2.599974E-15	NaN
461	1.000000	0.114404	7.36957e+06	-54039.1	1005.82	-29744.7	0.000000	0.000000	6.114764	0.017095	NaN	0.000000	0.001543	0.001721	28.081	0.116774	0.001922	60.7471	97.2416	-163.235	0.010796	0.113150	-0.958042	-0.959296	0.017095	60.7471	-0.958253	-6.213131E+12	-2.751486E-15	NaN
461	1.000000	0.122382	7.36957e+06	-54039.1	1005.82	-29744.7	0.000000	0.000000	6.122739	-0.047865	NaN	0.000000	0.001566	0.001703	28.0814	0.120746	0.001965	61.4585	-92.1712	-165.702	-0.009089	0.121079	-0.950063	-0.951366	-0.047865	61.4585	-0.949479	-4.731568E+12	1.011606E-14	NaN
461	1.000000	0.130422	7.36957e+06	-54039.1	1005.82	-29744.7	0.000000	0.000000	6.130781	0.005372	NaN	0.000000	0.001539	0.001728	28.0809	0.065062	0.002172	29.9532	80.2585	-164.941	0.059209	0.129139	-0.942024	-0.943306	0.005372	29.9532	-0.942159	-3.769274E+12	-1.425241E-15	NaN
461	1.000000	0.138397	7.36957e+06	-54039.1	1005.82	-29744.7	0.000000	0.000000	6.138756	-0.007120	NaN	0.000000	0.001570	0.001713	28.0809	0.052442	0.002081	25.197	-176.985	-165.36	-0.048773	0.137107	-0.934048	-0.935339	-0.007120	25.197	-0.933836	-2.910501E+12	2.446346E-15	NaN
461	1.000000	0.146414	7.36957e+06	-54039.1	1005.82	-29744.7	0.000000	0.000000	6.146774	0.006800	NaN	0.000000	0.001560	0.001687	28.0812	0.047776	0.002023	23.6214	46.5783	-165.224	-0.039650	0.145105	-0.926032	-0.927341	0.006800	23.6214	-0.926247	-2.299041E+12	-2.957672E-15	NaN
461	1.000000	0.154450	7.36957e+06	-54039.1	1005.82	-29744.7	0.000000	0.000000	6.154809	0.004881	NaN	0.000000	0.001552	0.001689	28.0811	0.082000	0.002026	40.4805	-2.397752	-164.165	-0.018447	0.153149	-0.917996	-0.919296	0.004881	40.4805	-0.918086	-1.783880E+12	-2.736343E-15	NaN
461	1.000000	0.162445	7.36957e+06	-54039.1	1005.82	-29744.7	0.000000	0.000000	6.162801	-0.078418	NaN	0.000000	0.001559	0.001723	28.081	0.089479	0.002024	44.2142	177.727	-162.514	-0.043616	0.161124	-0.910000	-0.911322	-0.078418	44.2142	-0.908670	-1.331066E+12	5.891369E-14	NaN
461	1.000000	0.170445	7.36957e+06	-54039.1	1005.82	-29744.7	0.000000	0.000000	6.170801	-0.068589	NaN	0.000000	0.001490	0.001699	28.0813	0.118492	0.002061	57.4994	-70.8252	-165.363	0.019206	0.169072	-0.902001	-0.903373	-0.068589	57.4994	-0.901106	-1.051986E+12	6.519919E-14	NaN
461	1.000000	0.178429	7.36957e+06	-54039.1	1005.82	-29744.7	0.000000	0.000000	6.178786	-0.058034	NaN	0.000000	0.001567	0.001718	28.0809	0.099948	0.001916	52.1579	96.3378	-163.472	-0.038628	0.177104	-0.894017	-0.895342	-0.058034	52.1579	-0.893182	-8.221079E+11	7.059152E-14	NaN
461	1.000000	0.186462	7.36957e+06	-54039.1	1005.82	-29744.7	0.000000	0.000000	6.186822	0.019926	NaN	0.000000	0.001600	0.001715	28.0809	0.123029	0.001875	65.6305	132.791	-164.528	0.015710	0.185148	-0.885984	-0.887298	0.019926	65.6305	-0.886212	-6.617593E+11	-3.011126E-14	NaN
461	1.000000	0.194481	7.36957e+06	-54039.1	1005.82	-29744.7	0.000000	0.000000	6.194839	-0.027061	NaN	0.000000	0.001588	0.001693	28.0812	0.123129	0.001929	63.8336	154.795	-167.002	-0.001911	0.193119	-0.877965	-0.879327	-0.027061	63.8336	-0.877647	-5.068583E+11	5.338880E-14	NaN
461	1.000000	0.202498	7.36957e+06	-54039.1	1005.82	-29744.7	0.000000	0.000000	6.202858	0.015233	NaN	0.000000	0.001570	0.001700	28.0811	0.090678	0.001913	47.4037	146.695	-167.56	-0.004934	0.201170	-0.869948	-0.871276	0.015233	47.4037	-0.870189	-4.017892E+11	-3.791305E-14	NaN
461	1.000000	0.210432	7.36957e+06	-54039.1	1005.82	-29744.7	0.000000	0.000000	6.210790	-0.041362	NaN	0.000000	0.001570	0.001670	28.0812	0.088213	0.001903	46.3505	-134.235	-165.693	-0.065793	0.209122	-0.862014	-0.863324	-0.041362	46.3505	-0.861344	-3.050111E+11	1.356067E-13	NaN
461	1.000000	0.218478	7.36957e+06	-54039.1	1005.82	-29744.7	0.000000	0.000000	6.218837	-0.004404	NaN	0.000000	0.001570	0.001705	28.0811	0.034746	0.001999	17.3844	-22.3143	-164.448	5.434788E-5	0.217127	-0.853968	-0.855318	-0.004404	17.3844	-0.853778	-2.409309E+11	1.827920E-14	NaN
461	1.000000	0.226488	7.36957e+06	-54039.1	1005.82	-29744.7	0.000000	0.000000	6.226848	0.001779	NaN	0.000000	0.001563	0.001715	28.0811	0.089221	0.001903	46.8802	-145.53	-167.286	-0.074852	0.225158	-0.845957	-0.847288	0.001779	46.8802	-0.845986	-1.889621E+11	-9.413062E-15	NaN
461	1.000000	0.234473	7.36957e+06	-54039.1	1005.82	-29744.7	0.000000	0.000000	6.234832	-0.006586	NaN	0.000000	0.001587	0.001663	28.081	0.143178	0.001931	74.1418	-84.4231	-167.155	0.008281	0.233135	-0.837973	-0.839311	-0.006586	74.1418	-0.837906	-1.468671E+11	4.484061E-14	NaN
461	1.000000	0.242443	7.36957e+06	-54039.1	1005.82	-29744.7	0.000000	0.000000	6.242801	-0.045953	NaN	0.000000	0.001604	0.001707	28.0823	0.100745	0.001957	51.4737	142.639	-165.306	-0.036755	0.241184	-0.830002	-0.831261	-0.045953	51.4737	-0.829333	-1.123925E+11	4.088627E-13	NaN
461	1.000000	0.250507	7.36957e+06	-54039.1	1005.82	-29744.7	0.000000	0.000000	6.250865	-0.026611	NaN	0.000000	0.001577	0.001676	28.0825	0.078679	0.001968	39.9708	117.951	-158.655	-0.022928	0.249139	-0.821939	-0.823307	-0.026611	39.9708	-0.821440	-8.784801E+10	3.029224E-13	NaN
461	1.000000	0.258454	7.36957e+06	-54039.1	1005.82	-29744.7	0.000000	0.000000	6.258811	-0.071020	NaN	0.000000	0.001597	0.001690	28.0824	0.043659	0.002004	21.7811	-89.0719	-161.565	-0.040728	0.257193	-0.813991	-0.815253	-0.071020	21.7811	-0.811546	-6.449706E+10	1.101128E-12	NaN
461	1.000000	0.266488	7.36957e+06	-54039.1	1005.82	-29744.7	0.000000	0.000000	6.266850	0.053248	NaN	0.000000	0.001580	0.001678	28.0826	0.079183	0.002095	37.8014	53.9654	-164.215	-0.036343	0.265182	-0.805957	-0.807263	0.053248	37.8014	-0.807014	-5.598248E+10	-9.511489E-13	NaN
461	1.000000	0.274458	7.36957e+06	-54039.1	1005.82	-29744.7	0.000000	0.000000	6.274817	-0.002006	NaN	0.000000	0.001585	0.001685	28.0824	0.114038	0.002053	55.552	-81.1974	-164.492	-0.097645	0.273133	-0.797987	-0.799312	-0.002006	55.552	-0.797960	-4.218649E+10	4.755733E-14	NaN
461	1.000000	0.282474	7.36957e+06	-54039.1	1005.82	-29744.7	0.000000	0.000000	6.282832	-0.026587	NaN	0.000000	0.001548	0.001718	28.0824	0.191149	0.002044	93.5012	118.393	-166.148	-0.050693	0.281198	-0.789971	-0.791247	-0.026587	93.5012	-0.789758	-3.264357E+10	8.144483E-13	NaN
461	1.000000	0.290487	7.36957e+06	-54039.1	1005.82	-29744.7	0.000000	0.000000	6.290844	-0.061694	NaN	0.000000	0.001533	0.001688	28.0825	0.033113	0.001936	17.1048	12.8822	-166.048	-0.051198	0.289157	-0.781959	-0.783288	-0.061694	17.1048	-0.779254	-2.350115E+10	2.625139E-12	NaN
461	1.000000	0.298505	7.36957e+06	-54039.1	1005.82	-29744.7	0.000000	0.000000	6.298861	-0.076976	NaN	0.000000	0.001541	0.001695	28.0821	0.042534	0.002115	20.1097	27.4413	-164.047	-0.031092	0.297150	-0.773941	-0.775295	-0.076976	20.1097	-0.771070	-1.819080E+10	4.231600E-12	NaN
461	1.000000	0.306502	7.36957e+06	-54039.1	1005.82	-29744.7	0.000000	0.000000	6.306862	0.017104	NaN	0.000000	0.001514	0.001734	28.0825	0.063876	0.001968	32.4603	-122.274	-164.349	0.066043	0.305191	-0.765944	-0.767255	0.017104	32.4603	-0.766339	-1.568647E+10	-1.090369E-12	NaN
461	1.000000	0.314488	7.36957e+06	-54039.1	1005.82	-29744.7	0.000000	0.000000	6.314847	-0.003236	NaN	0.000000	0.001548	0.001697	28.0822	0.039244	0.002048	19.1588	100.261	-167.269	-0.054135	0.313172	-0.757957	-0.759274	-0.003236	19.1588	-0.757831	-1.201679E+10	2.693155E-13	NaN
461	1.000000	0.322521	7.36957e+06	-54039.1	1005.82	-29744.7	0.000000	0.000000	6.322881	0.006255	NaN	0.000000	0.001521	0.001742	28.0822	0.079289	0.002030	39.0684	1.101652	-166.244	0.041457	0.321216	-0.749924	-0.751229	0.006255	39.0684	-0.750044	-9.415085E+9	-6.643803E-13	NaN
461	1.000000	0.330513	7.36957e+06	-54039.1	1005.82	-29744.7	0.000000	0.000000	6.330871	-0.048981	NaN	0.000000	0.001559	0.001696	28.0823	0.008465	0.001962	4.313553	157.625	-166.64	-0.116702	0.329160	-0.741932	-0.743286	-0.048981	4.313553	-0.733416	-5.589309E+9	8.763317E-12	NaN
461	1.000000	0.338492	7.36957e+06	-54039.1	1005.82	-29744.7	0.000000	0.000000	6.338853	0.018830	NaN	0.000000	0.001522	0.001733	28.082	0.067371	0.001821	37.0009	92.9453	-162.397	0.050614	0.337177	-0.733953	-0.735269	0.018830	37.0009	-0.734335	-5.752787E+9	-3.273114E-12	NaN
461	1.000000	0.346544	7.36957e+06	-54039.1	1005.82	-29744.7	0.000000	0.000000	6.346903	-0.005635	NaN	0.000000	0.001518	0.001685	28.0822	0.075604	0.001957	38.6244	-147.79	-163.538	-0.016574	0.345171	-0.725902	-0.727274	-0.005635	38.6244	-0.725792	-4.399987E+9	1.280776E-12	NaN
461	1.000000	0.354528	7.36957e+06	-54039.1	1005.82	-29744.7	0.000000	0.000000	6.354887	-0.008547	NaN	0.000000	0.001568	0.001700	28.0824	0.012651	0.002053	6.161398	31.1792	-165.511	-0.030154	0.353145	-0.717917	-0.719300	-0.008547	6.161398	-0.716877	-3.325673E+9	2.569897E-12	NaN
461	1.000000	0.362532	7.36957e+06	-54039.1	1005.82	-29744.7	0.000000	0.000000	6.362890	-0.020433	NaN	0.000000	0.001558	0.001722	28.0824	0.056809	0.001949	29.1414	31.5207	-166.815	-0.081693	0.361232	-0.709913	-0.711214	-0.020433	29.1414	-0.709388	-2.628396E+9	7.774035E-12	NaN
461	1.000000	0.370508	7.36957e+06	-54039.1	1005.82	-29744.7	0.000000	0.000000	6.370868	-0.002923	NaN	0.000000	0.001578	0.001805	28.0824	0.048344	0.001926	25.0966	151.674	-164.008	-0.036434	0.369256	-0.701937	-0.703190	-0.002923	25.0966	-0.701850	-2.073910E+9	1.409511E-12	NaN
461	1.000000	0.378515	7.36957e+06	-54039.1	1005.82	-29744.7	0.000000	0.000000	6.378874	-0.015572	NaN	0.000000	0.001530	0.001726	28.0809	0.081595	0.002095	38.9416	-85.8755	-163.959	-0.029454	0.377198	-0.693930	-0.695248	-0.015572	38.9416	-0.693630	-1.601480E+9	9.723747E-12	NaN
461	1.000000	0.386537	7.36957e+06	-54039.1	1005.82	-29744.7	0.000000	0.000000	6.386895	-0.029837	NaN	0.000000	0.001548	0.001771	28.0812	0.122613	0.002090	58.6634	131.859	-163.762	0.051712	0.385277	-0.685909	-0.687169	-0.029837	58.6634	-0.685527	-1.241037E+9	2.404177E-11	NaN
461	1.000000	0.394530	7.36957e+06	-54039.1	1005.82	-29744.7	0.000000	0.000000	6.394887	-0.052709	NaN	0.000000	0.001533	0.001741	28.081	0.037127	0.002016	18.4123	-141.418	-163.845	-0.033332	0.393228	-0.677916	-0.679217	-0.052709	18.4123	-0.675768	-9.126929E+8	5.775136E-11	NaN
461	1.000000	0.402527	7.36957e+06	-54039.1	1005.82	-29744.7	0.000000	0.000000	6.402885	-0.049988	NaN	0.000000	0.001525	0.001806	28.0809	0.050951	0.002050	24.855	-23.7928	-167.601	-0.098310	0.401269	-0.669918	-0.671176	-0.049988	24.855	-0.668410	-7.238058E+8	6.906334E-11	NaN
461	1.000000	0.410548	7.36957e+06	-54039.1	1005.82	-29744.7	0.000000	0.000000	6.410906	-0.012932	NaN	0.000000	0.001556	0.001789	28.0811	0.070487	0.001922	36.6669	-73.7165	-163.047	0.062540	0.409271	-0.661898	-0.663174	-0.012932	36.6669	-0.661633	-5.845769E+8	2.212243E-11	NaN
461	1.000000	0.418551	7.36957e+06	-54039.1	1005.82	-29744.7	0.000000	0.000000	6.418911	0.021863	NaN	0.000000	0.001546	0.001773	28.0808	0.081184	0.002023	40.1318	-116.708	-160.294	-0.024403	0.417261	-0.653895	-0.655184	0.021863	40.1318	-0.654304	-4.638990E+8	-4.712918E-11	NaN
461	1.000000	0.426557	7.36957e+06	-54039.1	1005.82	-29744.7	0.000000	0.000000	6.426916	0.000635	NaN	0.000000	0.001569	0.001776	28.0807	0.053953	0.002063	26.1554	-149.561	-162.643	-0.004941	0.425250	-0.645889	-0.647195	0.000635	26.1554	-0.645907	-3.558887E+8	-1.785088E-12	NaN
461	1.000000	0.434573	7.36957e+06	-54039.1	1005.82	-29744.7	0.000000	0.000000	6.434932	-0.003167	NaN	0.000000	0.001576	0.001778	28.0806	0.009833	0.001955	5.029910	-118.66	-165.641	0.048575	0.433240	-0.637872	-0.639205	-0.003167	5.029910	-0.637400	-2.720285E+8	1.164271E-11	NaN
461	1.000000	0.442552	7.36957e+06	-54039.1	1005.82	-29744.7	0.000000	0.000000	6.442914	0.059174	NaN	0.000000	0.001575	0.001768	28.0808	0.045332	0.001929	23.4951	-113.234	-167.047	0.028607	0.441244	-0.629893	-0.631201	0.059174	23.4951	-0.631782	-2.277700E+8	-2.597970E-10	NaN
461	1.000000	0.450566	7.36957e+06	-54039.1	1005.82	-29744.7	0.000000	0.000000	6.450923	-0.041102	NaN	0.000000	0.001545	0.001724	28.0809	0.017978	0.001966	9.146444	75.3043	-165.981	-0.032756	0.449271	-0.621880	-0.623175	-0.041102	9.146444	-0.618509	-1.496731E+8	2.746089E-10	NaN
461	1.000000	0.458557	7.36957e+06	-54039.1	1005.82	-29744.7	0.000000	0.000000	6.458914	-0.045318	NaN	0.000000	0.001580	0.001749	28.081	0.056597	0.002087	27.1202	28.0833	-167.627	-0.004866	0.457275	-0.613889	-0.615171	-0.045318	27.1202	-0.612635	-1.242708E+8	3.646683E-10	NaN
461	1.000000	0.466560	7.36957e+06	-54039.1	1005.82	-29744.7	0.000000	0.000000	6.466919	-0.028414	NaN	0.000000	0.001576	0.001752	28.081	0.118767	0.001935	61.3738	57.6848	-166.249	-0.080710	0.465250	-0.605885	-0.607195	-0.028414	61.3738	-0.605538	-9.924473E+7	2.862997E-10	NaN
461	1.000000	0.474544	7.36957e+06	-54039.1	1005.82	-29744.7	0.000000	0.000000	6.474902	-0.030835	NaN	0.000000	0.001558	0.001764	28.0811	0.079389	0.001947	40.7693	158.467	-162.685	-0.027741	0.473218	-0.597901	-0.599227	-0.030835	40.7693	-0.597334	-7.651369E+7	4.029975E-10	NaN
461	1.000000	0.482577	7.36957e+06	-54039.1	1005.82	-29744.7	0.000000	0.000000	6.482939	0.083072	NaN	0.000000	0.001607	0.001771	28.0808	0.127373	0.002006	63.4991	-39.4876	-165.628	0.048407	0.481254	-0.589869	-0.591192	0.083072	63.4991	-0.590850	-6.228555E+7	-1.333731E-9	NaN
461	1.000000	0.490597	7.36957e+06	-54039.1	1005.82	-29744.7	0.000000	0.000000	6.490958	0.040413	NaN	0.000000	0.001571	0.001808	28.0809	0.054568	0.001961	27.8266	-91.8895	-161.839	-0.032836	0.489277	-0.581849	-0.583168	0.040413	27.8266	-0.582938	-4.844706E+7	-8.341705E-10	NaN
461	1.000000	0.498610	7.36957e+06	-54039.1	1005.82	-29744.7	0.000000	0.000000	6.498968	-0.031397	NaN	0.000000	0.001612	0.001816	28.0812	0.069324	0.002044	33.9132	-114.386	-163.939	-0.023539	0.497312	-0.573835	-0.575134	-0.031397	33.9132	-0.573141	-3.548330E+7	8.848474E-10	NaN
461	1.000000	0.506582	7.36957e+06	-54039.1	1005.82	-29744.7	0.000000	0.000000	6.506941	0.002214	NaN	0.000000	0.001639	0.001786	28.0811	0.109760	0.002130	51.5426	-104.368	-165.925	-0.043033	0.505227	-0.565864	-0.567218	0.002214	51.5426	-0.565896	-2.817817E+7	-7.857301E-11	NaN
461	1.000000	0.514574	7.36957e+06	-54039.1	1005.82	-29744.7	0.000000	0.000000	6.514929	-0.106292	NaN	0.000000	0.001606	0.001802	28.0824	0.027116	0.002027	13.3792	22.7116	-162.751	-0.066214	0.513315	-0.557872	-0.559130	-0.106292	13.3792	-0.551913	-1.804902E+7	5.889048E-9	NaN
461	1.000000	0.522585	7.36957e+06	-54039.1	1005.82	-29744.7	0.000000	0.000000	6.522944	-0.007817	NaN	0.000000	0.001631	0.001727	28.082	0.061656	0.001975	31.2197	-67.2262	-164.897	-0.055620	0.521306	-0.549861	-0.551140	-0.007817	31.2197	-0.549673	-1.680448E+7	4.651862E-10	NaN
461	1.000000	0.530577	7.36957e+06	-54039.1	1005.82	-29744.7	0.000000	0.000000	6.530933	-0.072318	NaN	0.000000	0.001663	0.001767	28.0821	0.027617	0.001986	13.9052	-93.6473	-165.492	-0.074758	0.529265	-0.541869	-0.543181	-0.072318	13.9052	-0.537968	-1.156573E+7	6.252777E-9	NaN
461	1.000000	0.538624	7.36957e+06	-54039.1	1005.82	-29744.7	0.000000	0.000000	6.538983	0.000758	NaN	0.000000	0.001637	0.001764	28.0823	0.087085	0.002059	42.2957	156.448	-165.378	0.022087	0.537256	-0.533821	-0.535189	0.000758	42.2957	-0.533835	-1.013487E+7	-7.478632E-11	NaN
461	1.000000	0.546592	7.36957e+06	-54039.1	1005.82	-29744.7	0.000000	0.000000	6.546952	0.012489	NaN	0.000000	0.001632	0.001748	28.0822	0.136754	0.002081	65.7151	-133.015	-162.598	-0.036846	0.545345	-0.525853	-0.527101	0.012489	65.7151	-0.525996	-7.88769e+06	-1.583404E-9	NaN
461	1.000000	0.554623	7.36957e+06	-54039.1	1005.82	-29744.7	0.000000	0.000000	6.554981	-0.038399	NaN	0.000000	0.001597	0.001739	28.0826	0.050916	0.001978	25.7439	71.2146	-168.233	-0.065945	0.553355	-0.517822	-0.519091	-0.038399	25.7439	-0.516704	-5.85788e+06	6.555022E-9	NaN
461	1.000000	0.562621	7.36957e+06	-54039.1	1005.82	-29744.7	0.000000	0.000000	6.562979	-0.027174	NaN	0.000000	0.001597	0.001776	28.0822	0.038939	0.001950	19.97	170.766	-169.282	-0.040904	0.561258	-0.509824	-0.511187	-0.027174	19.97	-0.508804	-4.54729e+06	5.975857E-9	NaN
461	1.000000	0.570608	7.36957e+06	-54039.1	1005.82	-29744.7	0.000000	0.000000	6.570968	0.022109	NaN	0.000000	0.001609	0.001775	28.0823	0.051971	0.001937	26.8279	155.783	-166.917	-0.016764	0.569330	-0.501838	-0.503116	0.022109	26.8279	-0.502456	-3.70912e+06	-5.960658E-9	NaN
461	1.000000	0.578561	7.36957e+06	-54039.1	1005.82	-29744.7	0.000000	0.000000	6.578920	-0.029402	NaN	0.000000	0.001608	0.001755	28.082	0.113462	0.001982	57.2486	-93.8448	-166.629	0.040147	0.577295	-0.493884	-0.495150	-0.029402	57.2486	-0.493499	-2.78146e+06	1.057076E-8	NaN
461	1.000000	0.586589	7.36957e+06	-54039.1	1005.82	-29744.7	0.000000	0.000000	6.586948	-0.020227	NaN	0.000000	0.001591	0.001789	28.0821	0.006973	0.001914	3.642306	-106.331	-165.432	-0.024624	0.585316	-0.485856	-0.487129	-0.020227	3.642306	-0.481691	-1.90195e+06	1.063498E-8	NaN
461	1.000000	0.594632	7.36957e+06	-54039.1	1005.82	-29744.7	0.000000	0.000000	6.594988	-0.081534	NaN	0.000000	0.001637	0.001762	28.0822	0.112891	0.001995	56.5876	-52.4137	-165.886	0.063715	0.593305	-0.477814	-0.479141	-0.081534	56.5876	-0.476733	-1.62098e+06	5.029894E-8	NaN
461	1.000000	0.602663	7.36957e+06	-54039.1	1005.82	-29744.7	0.000000	0.000000	6.603022	-0.030823	NaN	0.000000	0.001586	0.001775	28.0822	0.053155	0.002025	26.2541	48.4988	-165.84	0.065392	0.601336	-0.469782	-0.471110	-0.030823	26.2541	-0.468901	-1.25892e+06	2.448384E-8	NaN
461	1.000000	0.610638	7.36957e+06	-54039.1	1005.82	-29744.7	0.000000	0.000000	6.610997	-0.008989	NaN	0.000000	0.001623	0.001767	28.0824	0.032161	0.002046	15.7214	114.997	-165.828	-0.023049	0.609272	-0.461807	-0.463174	-0.008989	15.7214	-0.461379	-987162	9.106248E-9	NaN
461	1.000000	0.618636	7.36957e+06	-54039.1	1005.82	-29744.7	0.000000	0.000000	6.618991	-0.092533	NaN	0.000000	0.001601	0.001762	28.0822	0.103022	0.001958	52.6162	-77.5369	-162.74	-0.097110	0.617282	-0.453810	-0.455164	-0.092533	52.6162	-0.452491	-740301	1.249933E-7	NaN
461	1.000000	0.626640	7.36957e+06	-54039.1	1005.82	-29744.7	0.000000	0.000000	6.626997	-0.060068	NaN	0.000000	0.001601	0.001785	28.0821	0.014471	0.002065	7.008659	48.7443	-162.895	0.065843	0.625273	-0.445806	-0.447172	-0.060068	7.008659	-0.439378	-483708	1.241819E-7	NaN
461	1.000000	0.634636	7.36957e+06	-54039.1	1005.82	-29744.7	0.000000	0.000000	6.634994	-0.047872	NaN	0.000000	0.001600	0.001788	28.082	0.041646	0.001974	21.0929	-129.638	-164.45	-0.058078	0.633348	-0.437809	-0.439098	-0.047872	21.0929	-0.436107	-434903	1.100741E-7	NaN
461	1.000000	0.642632	7.36957e+06	-54039.1	1005.82	-29744.7	0.000000	0.000000	6.642991	0.012628	NaN	0.000000	0.001628	0.001805	28.0821	0.039583	0.001926	20.5525	-71.3903	-164.543	-0.075792	0.641324	-0.429814	-0.431121	0.012628	20.5525	-0.430275	-359707	-3.510621E-8	NaN
461	1.000000	0.650661	7.36957e+06	-54039.1	1005.82	-29744.7	0.000000	0.000000	6.651021	0.001210	NaN	0.000000	0.001607	0.001735	28.0809	0.074358	0.002025	36.7263	-32.7774	-162.39	0.005069	0.649315	-0.421784	-0.423131	0.001210	36.7263	-0.421809	-272937	-4.431783E-9	NaN
461	1.000000	0.658638	7.36957e+06	-54039.1	1005.82	-29744.7	0.000000	0.000000	6.658994	-0.062195	NaN	0.000000	0.001625	0.001783	28.0812	0.027043	0.002126	12.7201	-173.828	-162.586	-0.063430	0.657359	-0.413808	-0.415087	-0.062195	12.7201	-0.410141	-186381	3.336991E-7	NaN
461	1.000000	0.666629	7.36957e+06	-54039.1	1005.82	-29744.7	0.000000	0.000000	6.666987	-0.026986	NaN	0.000000	0.001597	0.001747	28.0809	0.170112	0.001954	87.0781	177.014	-162.601	-0.049623	0.665372	-0.405817	-0.407073	-0.026986	87.0781	-0.405584	-160535	1.680996E-7	NaN
461	1.000000	0.674651	7.36957e+06	-54039.1	1005.82	-29744.7	0.000000	0.000000	6.675010	-0.008783	NaN	0.000000	0.001620	0.001764	28.0809	0.060557	0.001930	31.3784	168.32	-165.665	-0.022323	0.673389	-0.397794	-0.399057	-0.008783	31.3784	-0.397584	-123462	7.113696E-8	NaN
461	1.000000	0.682676	7.36957e+06	-54039.1	1005.82	-29744.7	0.000000	0.000000	6.683035	0.002512	NaN	0.000000	0.001603	0.001754	28.0811	0.100002	0.002049	48.8096	-152.958	-165.873	-0.003012	0.681384	-0.389770	-0.391061	0.002512	48.8096	-0.389808	-95593	-2.628205E-8	NaN
461	1.000000	0.690627	7.36957e+06	-54039.1	1005.82	-29744.7	0.000000	0.000000	6.690985	-0.035503	NaN	0.000000	0.001585	0.001770	28.0809	0.027238	0.002023	13.4662	128.84	-163.319	0.012443	0.689432	-0.381819	-0.383014	-0.035503	13.4662	-0.379841	-68803.3	5.160128E-7	NaN
461	1.000000	0.698631	7.36957e+06	-54039.1	1005.82	-29744.7	0.000000	0.000000	6.698990	-0.003623	NaN	0.000000	0.001588	0.001746	28.0812	0.080945	0.001969	41.1191	41.5979	-166.625	-0.050980	0.697374	-0.373815	-0.375072	-0.003623	41.1191	-0.373749	-56244.6	6.440950E-8	NaN
461	1.000000	0.706673	7.36957e+06	-54039.1	1005.82	-29744.7	0.000000	0.000000	6.707032	0.011882	NaN	0.000000	0.001570	0.001771	28.0811	0.046808	0.001986	23.5653	-66.3988	-163.375	-0.006351	0.705372	-0.365773	-0.367073	0.011882	23.5653	-0.366151	-43717.9	-2.717928E-7	NaN
461	1.000000	0.714691	7.36957e+06	-54039.1	1005.82	-29744.7	0.000000	0.000000	6.715048	-0.058239	NaN	0.000000	0.001589	0.001726	28.0808	0.082557	0.001900	43.4611	-76.1795	-169.23	-0.044939	0.713344	-0.357755	-0.359101	-0.058239	43.4611	-0.356750	-31976.6	1.821301E-6	NaN
461	1.000000	0.722674	7.36957e+06	-54039.1	1005.82	-29744.7	0.000000	0.000000	6.723030	-0.072850	NaN	0.000000	0.001625	0.001737	28.0808	0.037491	0.001963	19.0961	-20.0974	-167.372	-0.100979	0.721396	-0.349771	-0.351049	-0.072850	19.0961	-0.346910	-23021.3	3.164480E-6	NaN
461	1.000000	0.730697	7.36957e+06	-54039.1	1005.82	-29744.7	0.000000	0.000000	6.731055	-0.024383	NaN	0.000000	0.001557	0.001756	28.0808	0.099104	0.001969	50.3409	175.787	-164.597	-0.034158	0.729403	-0.341749	-0.343043	-0.024383	50.3409	-0.341386	-19131.4	1.274507E-6	NaN
461	1.000000	0.738671	7.36957e+06	-54039.1	1005.82	-29744.7	0.000000	0.000000	6.739029	-0.042738	NaN	0.000000	0.001556	0.001735	28.0808	0.061813	0.002222	27.8147	107.015	-166.514	-0.036557	0.737381	-0.333774	-0.335064	-0.042738	27.8147	-0.332622	-14250.2	2.999096E-6	NaN
461	1.000000	0.746694	7.36957e+06	-54039.1	1005.82	-29744.7	0.000000	0.000000	6.747053	0.003963	NaN	0.000000	0.001596	0.001725	28.0808	0.075360	0.001973	38.1886	-35.5571	-164.665	-0.004150	0.745387	-0.325752	-0.327059	0.003963	38.1886	-0.325830	-11332.2	-3.497451E-7	NaN
461	1.000000	0.754695	7.36957e+06	-54039.1	1005.82	-29744.7	0.000000	0.000000	6.755053	-0.034666	NaN	0.000000	0.001535	0.001744	28.0808	0.020122	0.001939	10.3753	-89.4888	-166.992	-0.054688	0.753437	-0.317751	-0.319009	-0.034666	10.3753	-0.315245	-7917.02	4.378722E-6	NaN
461	1.000000	0.762678	7.36957e+06	-54039.1	1005.82	-29744.7	0.000000	0.000000	6.763033	-0.106265	NaN	0.000000	0.001526	0.001745	28.081	0.188882	0.001919	98.4126	68.6508	-160.757	-0.173733	0.761349	-0.309768	-0.311097	-0.106265	98.4126	-0.308958	-6391.86	1.662499E-5	NaN
461	1.000000	0.770695	7.36957e+06	-54039.1	1005.82	-29744.7	0.000000	0.000000	6.771057	0.067825	NaN	0.000000	0.001532	0.001758	28.0806	0.050721	0.001868	27.1492	156.289	-167.316	0.040749	0.769342	-0.301750	-0.303104	0.067825	27.1492	-0.303624	-5327.53	-1.273109E-5	NaN
461	1.000000	0.778654	7.36957e+06	-54039.1	1005.82	-29744.7	0.000000	0.000000	6.779012	-0.031828	NaN	0.000000	0.001550	0.001776	28.0806	0.125025	0.001993	62.7369	5.136281	-164.426	-0.060403	0.777367	-0.293792	-0.295079	-0.031828	62.7369	-0.293411	-3752.75	8.481131E-6	NaN
461	1.000000	0.786702	7.36957e+06	-54039.1	1005.82	-29744.7	0.000000	0.000000	6.787059	-0.056775	NaN	0.000000	0.001552	0.001759	28.0819	0.134179	0.002024	66.2938	44.9198	-162.65	-0.080460	0.785390	-0.285743	-0.287055	-0.056775	66.2938	-0.285101	-2816.97	2.015467E-5	NaN
461	1.000000	0.794700	7.36957e+06	-54039.1	1005.82	-29744.7	0.000000	0.000000	6.795058	-0.031865	NaN	0.000000	0.001566	0.001736	28.0821	0.017145	0.002084	8.225691	123.081	-162.002	0.015834	0.793456	-0.277746	-0.278989	-0.031865	8.225691	-0.274840	-1972.35	1.615574E-5	NaN
461	1.000000	0.802704	7.36957e+06	-54039.1	1005.82	-29744.7	0.000000	0.000000	6.803065	0.045742	NaN	0.000000	0.001562	0.001713	28.0825	0.096807	0.001919	50.4423	-176.776	-167.961	0.046153	0.801356	-0.269741	-0.271090	0.045742	50.4423	-0.270421	-1690.25	-2.706229E-5	NaN
461	1.000000	0.810685	7.36957e+06	-54039.1	1005.82	-29744.7	0.000000	0.000000	6.811042	-0.044479	NaN	0.000000	0.001572	0.001725	28.082	0.106007	0.001816	58.3897	37.3777	-166.31	-0.047025	0.809417	-0.261761	-0.263028	-0.044479	58.3897	-0.261190	-1222.2	3.639224E-5	NaN
461	1.000000	0.818686	7.36957e+06	-54039.1	1005.82	-29744.7	0.000000	0.000000	6.819046	0.015030	NaN	0.000000	0.001572	0.001747	28.0822	0.048546	0.002021	24.0264	164.754	-165.416	-0.004706	0.817397	-0.253760	-0.255049	0.015030	24.0264	-0.254229	-955.52	-1.572978E-5	NaN
461	1.000000	0.826735	7.36957e+06	-54039.1	1005.82	-29744.7	0.000000	0.000000	6.827093	-0.045270	NaN	0.000000	0.001560	0.001741	28.082	0.098432	0.002145	45.8854	-104.233	-164.66	-0.028652	0.825440	-0.245710	-0.247006	-0.045270	45.8854	-0.244970	-687.05	6.589084E-5	NaN
461	1.000000	0.834691	7.36957e+06	-54039.1	1005.82	-29744.7	0.000000	0.000000	6.835051	0.018737	NaN	0.000000	0.001589	0.001739	28.0823	0.014560	0.002118	6.875431	128.891	-165.049	0.014714	0.833406	-0.237754	-0.239039	0.018737	6.875431	-0.239798	-570.687	-3.283244E-5	NaN
461	1.000000	0.842720	7.36957e+06	-54039.1	1005.82	-29744.7	0.000000	0.000000	6.843081	0.034825	NaN	0.000000	0.001559	0.001740	28.0824	0.050617	0.001856	27.2792	122.941	-165.693	0.025537	0.841396	-0.229726	-0.231049	0.034825	27.2792	-0.230683	-410.487	-8.483861E-5	NaN
461	1.000000	0.850708	7.36957e+06	-54039.1	1005.82	-29744.7	0.000000	0.000000	6.851067	-0.029445	NaN	0.000000	0.001544	0.001756	28.0821	0.064117	0.001970	32.5533	118.455	-163.258	-0.000489	0.849433	-0.221737	-0.223013	-0.029445	32.5533	-0.221059	-288.792	0.000102	NaN
461	1.000000	0.858737	7.36957e+06	-54039.1	1005.82	-29744.7	0.000000	0.000000	6.859097	0.012723	NaN	0.000000	0.001572	0.001755	28.0821	0.140849	0.002081	67.6823	131.081	-168.791	0.024574	0.857448	-0.213708	-0.214997	0.012723	67.6823	-0.213849	-221.303	-5.749130E-5	NaN
461	1.000000	0.866743	7.36957e+06	-54039.1	1005.82	-29744.7	0.000000	0.000000	6.867103	0.015531	NaN	0.000000	0.001560	0.001749	28.0818	0.027054	0.001972	13.7167	-14.5357	-165.693	0.084200	0.865388	-0.205703	-0.207057	0.015531	13.7167	-0.206552	-168.594	-9.212221E-5	NaN
461	1.000000	0.874760	7.36957e+06	-54039.1	1005.82	-29744.7	0.000000	0.000000	6.875118	-0.037948	NaN	0.000000	0.001562	0.001768	28.082	0.089732	0.001956	45.8754	-53.0934	-164.521	0.029244	0.873403	-0.197685	-0.199043	-0.037948	45.8754	-0.197065	-117.856	0.000322	NaN
461	1.000000	0.882713	7.36957e+06	-54039.1	1005.82	-29744.7	0.000000	0.000000	6.883071	-0.028097	NaN	0.000000	0.001590	0.001784	28.0819	0.042345	0.001917	22.0923	22.9839	-163.785	0.047115	0.881383	-0.189733	-0.191063	-0.028097	22.0923	-0.188779	-85.8235	0.000327	NaN
461	1.000000	0.890749	7.36957e+06	-54039.1	1005.82	-29744.7	0.000000	0.000000	6.891111	0.064626	NaN	0.000000	0.001608	0.001753	28.0821	0.141975	0.002011	70.5944	-159.138	-167.147	-0.014190	0.889454	-0.181697	-0.182991	0.064626	70.5944	-0.182383	-66.9764	-0.000965	NaN
461	1.000000	0.898729	7.36957e+06	-54039.1	1005.82	-29744.7	0.000000	0.000000	6.899086	-0.044342	NaN	0.000000	0.001566	0.001761	28.0819	0.057891	0.002105	27.5083	-14.3777	-163.823	-0.078458	0.897441	-0.173717	-0.175004	-0.044342	27.5083	-0.172508	-45.3993	0.000977	NaN
461	1.000000	0.906721	7.36957e+06	-54039.1	1005.82	-29744.7	0.000000	0.000000	6.907080	0.000587	NaN	0.000000	0.001546	0.001760	28.082	0.051460	0.001936	26.5831	-63.4599	-168.581	-0.033589	0.905400	-0.165725	-0.167046	0.000587	26.5831	-0.165741	-34.619	-1.697036E-5	NaN
461	1.000000	0.914736	7.36957e+06	-54039.1	1005.82	-29744.7	0.000000	0.000000	6.915093	-0.058221	NaN	0.000000	0.001541	0.001788	28.0822	0.085892	0.001999	42.962	109.697	-165.253	-0.043950	0.913419	-0.157709	-0.159026	-0.058221	42.962	-0.156693	-23.9319	0.002433	NaN
461	1.000000	0.922761	7.36957e+06	-54039.1	1005.82	-29744.7	0.000000	0.000000	6.923120	-0.009694	NaN	0.000000	0.001558	0.001777	28.0806	0.036057	0.001914	18.8401	-16.1631	-165.492	-0.050301	0.921422	-0.149685	-0.151023	-0.009694	18.8401	-0.149299	-17.5876	0.000551	NaN
461	1.000000	0.930776	7.36957e+06	-54039.1	1005.82	-29744.7	0.000000	0.000000	6.931131	-0.085103	NaN	0.000000	0.001588	0.001766	28.0811	0.053008	0.002149	24.6713	-169.984	-162.774	-0.083732	0.929464	-0.141670	-0.142981	-0.085103	24.6713	-0.139083	-11.3688	0.007486	NaN
461	1.000000	0.938767	7.36957e+06	-54039.1	1005.82	-29744.7	0.000000	0.000000	6.939126	0.006937	NaN	0.000000	0.001554	0.001787	28.0806	0.053704	0.001922	27.9347	-177.184	-163.161	0.084035	0.937482	-0.133679	-0.134964	0.006937	27.9347	-0.133865	-9.048545	-0.000767	NaN
461	1.000000	0.946791	7.36957e+06	-54039.1	1005.82	-29744.7	0.000000	0.000000	6.947149	-0.019996	NaN	0.000000	0.001593	0.001791	28.0809	0.024185	0.002093	11.5568	29.0452	-163.015	-0.010647	0.945491	-0.125655	-0.126955	-0.019996	11.5568	-0.124357	-5.905427	0.003386	NaN
461	1.000000	0.954769	7.36957e+06	-54039.1	1005.82	-29744.7	0.000000	0.000000	6.955126	-0.053311	NaN	0.000000	0.001595	0.001782	28.0808	0.033138	0.002084	15.8983	-39.4556	-165.597	-0.065444	0.953468	-0.117677	-0.118978	-0.053311	15.8983	-0.115162	-3.849794	0.013848	NaN
461	1.000000	0.962795	7.36957e+06	-54039.1	1005.82	-29744.7	0.000000	0.000000	6.963155	0.030402	NaN	0.000000	0.001502	0.001772	28.0809	0.058879	0.001922	30.6384	30.9932	-164.801	-0.050486	0.961437	-0.109651	-0.111008	0.030402	30.6384	-0.110395	-3.063328	-0.009924	NaN
461	1.000000	0.970799	7.36957e+06	-54039.1	1005.82	-29744.7	0.000000	0.000000	6.971159	0.015197	NaN	0.000000	0.001487	0.001792	28.0822	0.037446	0.002026	18.48	6.358115	-163.345	-0.016599	0.969443	-0.101646	-0.103003	0.015197	18.48	-0.102263	-2.049458	-0.007415	NaN
461	1.000000	0.978781	7.36957e+06	-54039.1	1005.82	-29744.7	0.000000	0.000000	6.979139	-0.045024	NaN	0.000000	0.001520	0.001758	28.081	0.112838	0.001940	58.1629	-178.921	-164.634	-0.025577	0.977457	-0.093664	-0.094988	-0.045024	58.1629	-0.093084	-1.274985	0.035313	NaN
461	1.000000	0.986773	7.36957e+06	-54039.1	1005.82	-29744.7	0.000000	0.000000	6.987130	-0.045743	NaN	0.000000	0.001530	0.001753	28.0813	0.018388	0.002042	9.004532	-68.1727	-163.836	-0.099208	0.985461	-0.085673	-0.086984	-0.045743	9.004532	-0.081863	-0.688618	0.066427	NaN
461	1.000000	0.994796	7.36957e+06	-54039.1	1005.82	-29744.7	0.000000	0.000000	6.995153	-0.055741	NaN	0.000000	0.001537	0.001762	28.0812	0.099676	0.002039	48.8905	-129.584	-168.086	0.044690	0.993489	-0.077649	-0.078956	-0.055741	48.8905	-0.076794	-0.513627	0.108524	NaN
461	1.000000	1.002812	7.36957e+06	-54039.1	1005.82	-29744.7	0.000000	0.000000	7.003171	-0.015057	NaN	0.000000	0.001496	0.001745	28.0811	0.172159	0.002024	85.0602	129.783	-165.429	-0.015161	1.001476	-0.069634	-0.070969	-0.015057	85.0602	-0.069501	-0.330749	0.045524	NaN
461	1.000000	1.010781	7.36957e+06	-54039.1	1005.82	-29744.7	0.000000	0.000000	7.011142	0.041680	NaN	0.000000	0.001488	0.001754	28.0815	0.066626	0.001927	34.5773	122.854	-164.931	0.012102	1.009505	-0.061664	-0.062940	0.041680	34.5773	-0.062568	-0.213089	-0.195601	NaN
461	1.000000	1.018791	7.36957e+06	-54039.1	1005.82	-29744.7	0.000000	0.000000	7.019151	0.010086	NaN	0.000000	0.001495	0.001757	28.0811	0.096347	0.001943	49.5785	117.676	-165.012	-0.007952	1.017480	-0.053654	-0.054965	0.010086	49.5785	-0.053807	-0.118704	-0.084966	NaN
461	1.000000	1.026824	7.36957e+06	-54039.1	1005.82	-29744.7	0.000000	0.000000	7.027183	-0.009435	NaN	0.000000	0.001555	0.001789	28.0814	0.035206	0.001924	18.2974	114.891	-166.573	0.029150	1.025405	-0.045621	-0.047041	-0.009435	18.2974	-0.045234	-0.065338	0.144402	NaN
461	1.000000	1.034827	7.36957e+06	-54039.1	1005.82	-29744.7	0.000000	0.000000	7.035185	-0.033130	NaN	0.000000	0.001542	0.001762	28.0812	0.066318	0.002055	32.2648	-134.96	-167.78	-0.058826	1.033468	-0.037619	-0.038977	-0.033130	32.2648	-0.036848	-0.036336	0.911779	NaN
461	1.000000	1.042827	7.36957e+06	-54039.1	1005.82	-29744.7	0.000000	0.000000	7.043185	-0.022903	NaN	0.000000	0.001518	0.001759	28.0811	0.108336	0.002169	49.9359	78.9485	-166.376	-0.015934	1.041432	-0.029619	-0.031013	-0.022903	49.9359	-0.029275	-0.021971	1.042397	NaN
461	1.000000	1.050789	7.36957e+06	-54039.1	1005.82	-29744.7	0.000000	0.000000	7.051148	-0.013292	NaN	0.000000	0.001522	0.001764	28.0814	0.034582	0.001822	18.9803	-174.87	-162.899	-0.014060	1.049490	-0.021656	-0.022956	-0.013292	18.9803	-0.021131	-0.013420	0.990447	NaN
461	1.000000	1.058809	7.36957e+06	-54039.1	1005.82	-29744.7	0.000000	0.000000	7.059165	-0.082789	NaN	0.000000	0.001534	0.001802	28.0823	0.043681	0.001922	22.7279	-46.1657	-164.489	-0.019067	1.057531	-0.013637	-0.014914	-0.082789	22.7279	-0.010905	-0.006904	11.9916	NaN
461	1.000000	1.066796	7.36957e+06	-54039.1	1005.82	-29744.7	0.000000	0.000000	7.067152	-0.074524	NaN	0.000000	0.001518	0.001760	28.0826	0.072964	0.001882	38.7792	-120.133	-160.721	-0.055960	1.065509	-0.005650	-0.006937	-0.074524	38.7792	-0.004209	-0.002913	25.579	NaN
461	1.000000	1.074823	7.36957e+06	-54039.1	1005.82	-29744.7	0.000000	0.000000	7.075184	0.035112	NaN	0.000000	0.001540	0.001742	28.0821	0.121171	0.002010	60.2776	24.4601	-166.722	-0.012353	1.073540	0.002378	0.001094	0.035112	60.2776	0.001941	0.001507	23.2987	1418.62
461	1.000000	1.082807	7.36957e+06	-54039.1	1005.82	-29744.7	0.000000	0.000000	7.083366	4.865987	NaN	0.000000	0.001560	0.001734	28.0823	5.843940	0.001810	3228.42	12.3649	-171.021	3.833859	1.081518	0.010361	0.009073	4.865987	3228.42	0.009231	0.008339	583.507	32299.9
461	2.000000	1.087449	7.36957e+06	-54039.1	1005.82	-29744.7	0.000000	0.000000	7.088217	9.931847	NaN	0.000000	0.001501	0.001793	28.0825	9.847789	0.001689	5830.17	11.9692	-176.335	10.5403	1.087112	0.015003	0.014667	9.931847	5830.17	0.013726	0.013623	729.033	45636.6
461	2.000000	1.089340	7.36957e+06	-54039.1	1005.82	-29744.7	0.000000	0.000000	7.090283	14.2026	NaN	0.000000	0.001519	0.001763	28.0822	11.9417	0.001610	7417.61	2.082456	-168.6	12.6569	1.089061	0.016894	0.016615	14.2026	7417.61	0.015458	0.015901	893.168	53742.8
461	2.000000	1.091429	7.36957e+06	-54039.1	1005.82	-29744.7	0.000000	0.000000	7.092457	16.2749	NaN	0.000000	0.001508	0.001742	28.0825	15.2535	0.001730	8816.64	7.392582	-175.607	16.3115	1.091095	0.018983	0.018650	16.2749	8816.64	0.017599	0.018908	860.731	58580.1
461	2.000000	1.093362	7.36957e+06	-54039.1	1005.82	-29744.7	0.000000	0.000000	7.094599	21.3412	NaN	0.000000	0.001552	0.001779	28.0823	17.618	0.001623	10853	7.575191	-178.548	20.6243	1.092995	0.020916	0.020550	21.3412	10853	0.019441	0.021672	984.738	67355.9
461	2.000000	1.095348	7.36957e+06	-54039.1	1005.82	-29744.7	0.000000	0.000000	7.096822	27.1069	NaN	0.000000	0.001578	0.001783	28.0827	21.123	0.001872	11281.4	6.602185	-177.512	26.9113	1.095054	0.022902	0.022608	27.1069	11281.4	0.021100	0.024301	1115.48	66119.3
461	2.000000	1.097344	7.36957e+06	-54039.1	1005.82	-29744.7	0.000000	0.000000	7.099028	32.2045	NaN	0.000000	0.001540	0.001788	28.0825	22.479	0.001684	13350.9	6.742610	-178.229	32.3184	1.097003	0.024899	0.024558	32.2045	13350.9	0.023090	0.027632	1165.49	73380.3
461	2.000000	1.099359	7.36957e+06	-54039.1	1005.82	-29744.7	0.000000	0.000000	7.101122	34.1179	NaN	0.000000	0.001577	0.001778	28.0824	25.2842	0.001780	14202.6	6.208948	-179.058	35.6938	1.099064	0.026914	0.026618	34.1179	14202.6	0.025112	0.031220	1092.84	73439.1
461	2.000000	1.101364	7.36957e+06	-54039.1	1005.82	-29744.7	0.000000	0.000000	7.103453	42.0454	NaN	0.000000	0.001569	0.001803	28.0825	27.3445	0.001705	16034.1	5.494184	-178.34	42.7174	1.100996	0.028919	0.028550	42.0454	16034.1	0.026952	0.034663	1212.99	78684
461	2.000000	1.103290	7.36957e+06	-54039.1	1005.82	-29744.7	0.000000	0.000000	7.105587	47.1317	NaN	0.000000	0.001538	0.001837	28.0825	29.1431	0.001742	16734	4.256029	-178.059	45.5964	1.102976	0.030844	0.030531	47.1317	16734	0.028732	0.038156	1235.24	78269.3
461	2.000000	1.105343	7.36957e+06	-54039.1	1005.82	-29744.7	0.000000	0.000000	7.107843	52.0513	NaN	0.000000	0.001572	0.001755	28.0826	32.6326	0.001804	18090.5	8.897906	176.278	52.6517	1.105017	0.032898	0.032572	52.0513	18090.5	0.030740	0.042291	1230.8	80371.5
461	2.000000	1.107285	7.36957e+06	-54039.1	1005.82	-29744.7	0.000000	0.000000	7.110189	61.8778	NaN	0.000000	0.001567	0.001752	28.0822	33.433	0.001713	19517.8	3.598955	-179.578	60.2739	1.107025	0.034839	0.034580	61.8778	19517.8	0.032461	0.046000	1345.18	83143.3
461	2.000000	1.109263	7.36957e+06	-54039.1	1005.82	-29744.7	0.000000	0.000000	7.112299	65.0766	NaN	0.000000	0.001544	0.001756	28.0823	36.177	0.001813	19949	3.282901	-179.065	62.7544	1.108930	0.036817	0.036484	65.0766	19949	0.034371	0.050291	1293.99	81273.3
461	2.000000	1.111390	7.36957e+06	-54039.1	1005.82	-29744.7	0.000000	0.000000	7.114664	70.8747	NaN	0.000000	0.001541	0.001728	28.0823	39.3318	0.001878	20939.4	7.443224	177.518	74.4982	1.111004	0.038944	0.038558	70.8747	20939.4	0.036406	0.055070	1286.99	81522.9
461	2.000000	1.113255	7.36957e+06	-54039.1	1005.82	-29744.7	0.000000	0.000000	7.116789	77.1849	NaN	0.000000	0.001571	0.001711	28.0811	40.0245	0.001843	21722.4	3.442335	179.728	75.9842	1.112914	0.040809	0.040469	77.1849	21722.4	0.038144	0.059321	1301.15	81485.2
461	2.000000	1.115235	7.36957e+06	-54039.1	1005.82	-29744.7	0.000000	0.000000	7.119128	85.9248	NaN	0.000000	0.001546	0.001722	28.0814	42.3427	0.001816	23316	6.278087	176.405	82.8399	1.114964	0.042789	0.042518	85.9248	23316	0.040025	0.064094	1340.61	84143.2
461	2.000000	1.117253	7.36957e+06	-54039.1	1005.82	-29744.7	0.000000	0.000000	7.121507	94.6859	NaN	0.000000	0.001537	0.001718	28.081	42.5984	0.001726	24680.5	2.277138	-179.813	93.4852	1.116963	0.044807	0.044518	94.6859	24680.5	0.041930	0.069110	1370.07	85774.1
461	2.000000	1.119283	7.36957e+06	-54039.1	1005.82	-29744.7	0.000000	0.000000	7.123938	104.448	NaN	0.000000	0.001573	0.001711	28.0811	46.3828	0.001908	24312.7	7.679310	175.945	103.365	1.118857	0.046837	0.046412	104.448	24312.7	0.043615	0.073705	1417.11	81819.9
461	2.000000	1.121284	7.36957e+06	-54039.1	1005.82	-29744.7	0.000000	0.000000	7.126172	110.1	NaN	0.000000	0.001566	0.001771	28.081	48.0107	0.001763	27227.3	7.077066	174.287	109.078	1.121036	0.048838	0.048591	110.1	27227.3	0.045805	0.079890	1378.14	88009.9
461	2.000000	1.123235	7.36957e+06	-54039.1	1005.82	-29744.7	0.000000	0.000000	7.128438	117.768	NaN	0.000000	0.001560	0.001750	28.0811	49.6653	0.001826	27201.8	4.935473	176.356	117.338	1.123031	0.050789	0.050585	117.768	27201.8	0.047542	0.084968	1386.03	85259.2
461	2.000000	1.125279	7.36957e+06	-54039.1	1005.82	-29744.7	0.000000	0.000000	7.130890	127.682	NaN	0.000000	0.001547	0.001763	28.0814	51.8081	0.001707	30355.2	5.261904	175.459	126.646	1.124964	0.052833	0.052519	127.682	30355.2	0.049678	0.091422	1396.63	91723.6
461	2.000000	1.127263	7.36957e+06	-54039.1	1005.82	-29744.7	0.000000	0.000000	7.133279	137.523	NaN	0.000000	0.001547	0.001746	28.0809	53.1661	0.001776	29931.9	5.623595	174.909	136.329	1.126947	0.054818	0.054501	137.523	29931.9	0.051372	0.096700	1422.16	87941.5
461	2.000000	1.129280	7.36957e+06	-54039.1	1005.82	-29744.7	0.000000	0.000000	7.135548	143.646	NaN	0.000000	0.001566	0.001756	28.0812	54.388	0.001816	29950.5	3.841393	178.29	143.698	1.128953	0.056834	0.056507	143.646	29950.5	0.053237	0.102681	1398.95	85394.9
461	2.000000	1.131316	7.36957e+06	-54039.1	1005.82	-29744.7	0.000000	0.000000	7.138095	156.073	NaN	0.000000	0.001555	0.001734	28.081	56.9098	0.001785	31875.8	7.417193	174.536	157.117	1.130847	0.058871	0.058402	156.073	31875.8	0.055199	0.109157	1429.81	88147.3
461	2.000000	1.133218	7.36957e+06	-54039.1	1005.82	-29744.7	0.000000	0.000000	7.140428	166.548	NaN	0.000000	0.001534	0.001758	28.081	59.0385	0.001814	32540	7.348563	172.507	166.173	1.132891	0.060773	0.060445	166.548	32540	0.056934	0.115043	1447.7	87651.5
461	2.000000	1.135286	7.36957e+06	-54039.1	1005.82	-29744.7	0.000000	0.000000	7.142628	169.751	NaN	0.000000	0.001550	0.001751	28.0812	61.2841	0.001935	31674.3	4.424548	176.163	170.304	1.135020	0.062841	0.062575	169.751	31674.3	0.058821	0.121615	1395.8	82982.3
461	2.000000	1.137323	7.36957e+06	-54039.1	1005.82	-29744.7	0.000000	0.000000	7.145104	180.414	NaN	0.000000	0.001589	0.001710	28.0811	62.453	0.001674	37296.9	7.635917	171.269	185.776	1.136925	0.064878	0.064479	180.414	37296.9	0.061250	0.130328	1384.3	94389.9
461	2.000000	1.139167	7.36957e+06	-54039.1	1005.82	-29744.7	0.000000	0.000000	7.147563	195.372	NaN	0.000000	0.001541	0.001740	28.081	64.4278	0.001925	33462.7	5.165836	174.71	191.463	1.138906	0.066722	0.066460	195.372	33462.7	0.062343	0.134343	1454.28	83411.5
461	2.000000	1.141220	7.36957e+06	-54039.1	1005.82	-29744.7	0.000000	0.000000	7.150132	207.931	NaN	0.000000	0.001576	0.001744	28.0811	65.7346	0.001852	35495.9	5.202395	174.784	206.391	1.140853	0.068774	0.068408	207.931	35495.9	0.064381	0.141984	1464.47	86066.1
461	2.000000	1.143206	7.36957e+06	-54039.1	1005.82	-29744.7	0.000000	0.000000	7.152639	220.609	NaN	0.000000	0.001558	0.001727	28.0811	66.2051	0.001734	38170.2	2.053864	177.133	217.22	1.142918	0.070760	0.070473	220.609	38170.2	0.066426	0.149852	1472.18	90087.8
461	2.000000	1.145228	7.36957e+06	-54039.1	1005.82	-29744.7	0.000000	0.000000	7.154603	219.169	NaN	0.000000	0.001538	0.001751	28.0813	69.5529	0.001785	38966.8	1.880958	176.514	218.034	1.145161	0.072783	0.072715	219.169	38966.8	0.068564	0.158297	1384.54	89481
461	2.000000	1.147227	7.36957e+06	-54039.1	1005.82	-29744.7	0.000000	0.000000	7.157865	249.89	NaN	0.000000	0.001547	0.001768	28.0819	70.7909	0.001807	39176.6	5.898037	173.781	247.734	1.146773	0.074781	0.074327	249.89	39176.6	0.069997	0.164076	1523.01	88364.5
461	2.000000	1.149165	7.36957e+06	-54039.1	1005.82	-29744.7	0.000000	0.000000	7.160072	256.418	NaN	0.000000	0.001542	0.001734	28.0823	73.5203	0.001802	40789.5	3.928389	174.185	250.191	1.148850	0.076720	0.076404	256.418	40789.5	0.072005	0.172340	1487.86	89769.4
461	2.000000	1.151269	7.36957e+06	-54039.1	1005.82	-29744.7	0.000000	0.000000	7.162739	270.115	NaN	0.000000	0.001529	0.001736	28.0822	76.1901	0.001831	41604.5	7.499235	171.889	269.172	1.150783	0.078823	0.078337	270.115	41604.5	0.073954	0.180543	1496.12	89458.7
461	2.000000	1.153221	7.36957e+06	-54039.1	1005.82	-29744.7	0.000000	0.000000	7.165021	278.148	NaN	0.000000	0.001536	0.001783	28.0825	76.628	0.001700	45085.4	2.084662	175.435	274.9	1.152942	0.080775	0.080496	278.148	45085.4	0.076148	0.189994	1463.98	94501.5
461	2.000000	1.155225	7.36957e+06	-54039.1	1005.82	-29744.7	0.000000	0.000000	7.167804	297.085	NaN	0.000000	0.001541	0.001794	28.0825	79.7281	0.001821	43770.6	5.211299	173.3	297.713	1.154881	0.082779	0.082435	297.085	43770.6	0.077689	0.196764	1509.85	90153.6
461	2.000000	1.157150	7.36957e+06	-54039.1	1005.82	-29744.7	0.000000	0.000000	7.170311	311.218	NaN	0.000000	0.001545	0.001762	28.0823	78.5832	0.001663	47253.5	2.055532	175.105	305.302	1.156897	0.084705	0.084451	311.218	47253.5	0.079765	0.206064	1510.29	95105.6
461	2.000000	1.159172	7.36957e+06	-54039.1	1005.82	-29744.7	0.000000	0.000000	7.172422	313.394	NaN	0.000000	0.001505	0.001755	28.0826	81.8233	0.001755	46632.4	2.025426	174.858	309.936	1.159028	0.086727	0.086582	313.394	46632.4	0.081686	0.214847	1458.68	91917
461	2.000000	1.161148	7.36957e+06	-54039.1	1005.82	-29744.7	0.000000	0.000000	7.175160	331.912	NaN	0.000000	0.001512	0.001782	28.0824	83.9204	0.001749	47989.9	3.294926	174.188	324.827	1.160805	0.088702	0.088359	331.912	47989.9	0.083515	0.223368	1485.94	92771
461	2.000000	1.163287	7.36957e+06	-54039.1	1005.82	-29744.7	0.000000	0.000000	7.177736	342.546	NaN	0.000000	0.001510	0.001754	28.0825	86.2452	0.001799	47939.6	4.851390	173.348	344.134	1.162770	0.090842	0.090325	342.546	47939.6	0.085482	0.232709	1472	90794.8
461	2.000000	1.165225	7.36957e+06	-54039.1	1005.82	-29744.7	0.000000	0.000000	7.179943	349.088	NaN	0.000000	0.001510	0.001811	28.0826	88.1469	0.001718	51308.6	3.229621	173.04	346.942	1.165030	0.092779	0.092585	349.088	51308.6	0.087676	0.243335	1434.6	95030.2
461	2.000000	1.167186	7.36957e+06	-54039.1	1005.82	-29744.7	0.000000	0.000000	7.182721	368.947	NaN	0.000000	0.001522	0.001763	28.0826	89.7506	0.001765	50838.1	4.078943	172.793	364.61	1.166761	0.094740	0.094315	368.947	50838.1	0.089297	0.251327	1467.99	92649.5
461	2.000000	1.169098	7.36957e+06	-54039.1	1005.82	-29744.7	0.000000	0.000000	7.185115	380.644	NaN	0.000000	0.001547	0.001784	28.083	91.6951	0.001762	52027.3	4.833209	171.406	373.025	1.168777	0.096653	0.096331	380.644	52027.3	0.091165	0.260689	1460.15	93098.7
461	2.000000	1.171180	7.36957e+06	-54039.1	1005.82	-29744.7	0.000000	0.000000	7.187726	393.529	NaN	0.000000	0.001557	0.001775	28.0828	93.5237	0.001774	52712.7	2.272563	174.433	389.708	1.170929	0.098734	0.098484	393.529	52712.7	0.093135	0.270732	1453.57	92559
461	2.000000	1.173241	7.36957e+06	-54039.1	1005.82	-29744.7	0.000000	0.000000	7.190460	409.89	NaN	0.000000	0.001511	0.001792	28.0825	95.0609	0.001786	53212.7	5.230633	171.705	411.282	1.172901	0.100795	0.100455	409.89	53212.7	0.095018	0.280499	1461.29	91795.8
461	2.000000	1.175165	7.36957e+06	-54039.1	1005.82	-29744.7	0.000000	0.000000	7.192855	421.337	NaN	0.000000	0.001541	0.001826	28.0826	98.835	0.001765	55994.5	3.745654	172.041	419.17	1.174998	0.102719	0.102552	421.337	55994.5	0.097076	0.291358	1446.11	94777.4
461	2.000000	1.177185	7.36957e+06	-54039.1	1005.82	-29744.7	0.000000	0.000000	7.195690	441.162	NaN	0.000000	0.001548	0.001789	28.0826	98.8202	0.001816	54404.4	2.801085	173.335	437.021	1.176823	0.104739	0.104377	441.162	54404.4	0.098658	0.299835	1471.35	90775.1
461	2.000000	1.179172	7.36957e+06	-54039.1	1005.82	-29744.7	0.000000	0.000000	7.198370	457.989	NaN	0.000000	0.001575	0.001778	28.0828	100.613	0.001700	59167.4	0.588743	175.039	454.501	1.178846	0.106727	0.106400	457.989	59167.4	0.100921	0.312167	1467.13	96752.5
461	2.000000	1.181130	7.36957e+06	-54039.1	1005.82	-29744.7	0.000000	0.000000	7.200863	471.004	NaN	0.000000	0.001549	0.001759	28.0822	103.615	0.001819	56972	3.059898	173.211	463.965	1.180839	0.108684	0.108394	471.004	56972	0.102484	0.320813	1468.16	91898.6
461	2.000000	1.183289	7.36957e+06	-54039.1	1005.82	-29744.7	0.000000	0.000000	7.203535	483.459	NaN	0.000000	0.001563	0.001754	28.0812	105.092	0.001832	57358.3	2.550317	173.625	489.141	1.182866	0.110844	0.110420	483.459	57358.3	0.104522	0.332261	1455.06	90913.8
461	2.000000	1.184633	7.36957e+06	-54039.1	1005.82	-29744.7	0.000000	0.000000	7.205636	501.892	NaN	0.000000	0.001517	0.001770	28.0816	107.349	0.001817	59067.9	7.782707	-11.6558	496.203	1.184192	0.112187	0.111746	501.892	59067.9	0.105814	0.339614	1477.83	92604.5