File: remote_trans/data/nanoindenter/0828-1/data/Data_2025-08-06,11h17m57s/2025-07-22_16-23-58_1_660.txt
2025-07-22, 16:23:58, 1
Index	Phase	Displacement	Time	Pos X	Pos Y	Pos Z	Rot A	Rot B	Piezo Z	Force A	Force B	Gripper	Voltage A	Voltage B	Temperature	Amplitude force	Amplitude pos	Stiffness	Phase shift	Phase excitation	Force A raw	Displacement raw	HMax	HMax raw	Real Force	Real Stiffness	Contact Depth	Area	Hardness	Reduced Mod.
[#]	[#]	[um]	[s]	[um]	[um]	[um]	[m°]	[m°]	[um]	[uN]	[uN]	[V]	[V]	[V]	[°C]	[uN]	[um]	[N/m]	[°]	[°]	[uN]	[um]	[um]	[um]	[uN]	[N/m]	[um]	[um^2]	[MPa]	[MPa]
660	1.000000	0.002500	7.37151e+06	-44089.1	1005.82	-29776.8	0.000000	0.000000	6.002816	0.043227	NaN	0.000000	0.001549	0.001720	28.0826	0.016320	0.000907	17.9839	21.6756	-164.498	0.064562	0.001205	-1.144853	-1.146148	0.043227	17.9839	-1.146655	-2.118251E+15	-2.040713E-17	NaN
660	1.000000	0.012516	7.37151e+06	-44089.1	1005.82	-29776.8	0.000000	0.000000	6.012833	0.074733	NaN	0.000000	0.001551	0.001645	28.0824	0.054682	0.001216	44.9636	-15.9199	17.3162	-0.020464	0.011113	-1.134837	-1.136239	0.074733	44.9636	-1.136083	-1.528314E+15	-4.889918E-17	NaN
660	1.000000	0.022442	7.37151e+06	-44089.1	1005.82	-29776.8	0.000000	0.000000	6.022755	-0.034399	NaN	0.000000	0.001597	0.001728	28.0825	0.116837	0.001779	65.6821	49.0644	-168.44	-0.166040	0.021137	-1.124910	-1.126215	-0.034399	65.6821	-1.124517	-1.069241E+15	3.217177E-17	NaN
660	1.000000	0.032458	7.37151e+06	-44089.1	1005.82	-29776.8	0.000000	0.000000	6.032775	0.052673	NaN	0.000000	0.001582	0.001681	28.0826	0.041530	0.001921	21.6233	-58.0242	15.4105	0.075759	0.031112	-1.114894	-1.116240	0.052673	21.6233	-1.116721	-8.403870E+14	-6.267681E-17	NaN
660	1.000000	0.042428	7.37151e+06	-44089.1	1005.82	-29776.8	0.000000	0.000000	6.042741	-0.041219	NaN	0.000000	0.001542	0.001678	28.0829	0.051910	0.002084	24.9137	162.629	-165.235	0.013639	0.041155	-1.104924	-1.106197	-0.041219	24.9137	-1.103683	-5.617064E+14	7.338259E-17	NaN
660	1.000000	0.052400	7.37151e+06	-44089.1	1005.82	-29776.8	0.000000	0.000000	6.052717	0.050509	NaN	0.000000	0.001574	0.001698	28.0831	0.044011	0.001980	22.2224	136.835	16.3323	0.092730	0.051026	-1.094953	-1.096326	0.050509	22.2224	-1.096657	-4.520565E+14	-1.117324E-16	NaN
660	1.000000	0.062419	7.37151e+06	-44089.1	1005.82	-29776.8	0.000000	0.000000	6.062731	-0.064300	NaN	0.000000	0.001539	0.001702	28.0828	0.039162	0.001964	19.9357	87.4629	-166.81	-0.010069	0.061089	-1.084933	-1.086264	-0.064300	19.9357	-1.082514	-2.919367E+14	2.202537E-16	NaN
660	1.000000	0.072447	7.37151e+06	-44089.1	1005.82	-29776.8	0.000000	0.000000	6.072762	0.004618	NaN	0.000000	0.001550	0.001713	28.0827	0.063955	0.001916	33.3817	-173.834	13.7712	-0.083410	0.071071	-1.074905	-1.076281	0.004618	33.3817	-1.075009	-2.314629E+14	-1.995236E-17	NaN
660	1.000000	0.082445	7.37151e+06	-44089.1	1005.82	-29776.8	0.000000	0.000000	6.082760	0.010642	NaN	0.000000	0.001583	0.001733	28.0829	0.031032	0.002006	15.4702	-83.3328	-165.785	-0.017769	0.081131	-1.064907	-1.066221	0.010642	15.4702	-1.065423	-1.720675E+14	-6.184705E-17	NaN
660	1.000000	0.092438	7.37151e+06	-44089.1	1005.82	-29776.8	0.000000	0.000000	6.092754	0.023974	NaN	0.000000	0.001590	0.001668	28.0824	0.093582	0.002109	44.3655	141.635	13.6775	0.003038	0.091087	-1.054914	-1.056266	0.023974	44.3655	-1.055319	-1.258679E+14	-1.904680E-16	NaN
660	1.000000	0.102449	7.37151e+06	-44089.1	1005.82	-29776.8	0.000000	0.000000	6.102764	0.019072	NaN	0.000000	0.001571	0.001685	28.0827	0.060577	0.002059	29.4146	110.276	-166.42	0.062946	0.101167	-1.044904	-1.046186	0.019072	29.4146	-1.045390	-9.256326E+13	-2.060465E-16	NaN
660	1.000000	0.112436	7.37151e+06	-44089.1	1005.82	-29776.8	0.000000	0.000000	6.112750	-0.029635	NaN	0.000000	0.001567	0.001671	28.0817	0.082727	0.001866	44.3336	-168.99	12.6584	-0.126735	0.111104	-1.034916	-1.036249	-0.029635	44.3336	-1.034415	-6.589602E+13	4.497225E-16	NaN
660	1.000000	0.122429	7.37151e+06	-44089.1	1005.82	-29776.8	0.000000	0.000000	6.122745	0.019247	NaN	0.000000	0.001608	0.001698	28.0816	0.026850	0.001964	13.6685	5.133622	-169.886	0.055670	0.121184	-1.024923	-1.026168	0.019247	13.6685	-1.025979	-5.074519E+13	-3.792968E-16	NaN
660	1.000000	0.132487	7.37151e+06	-44089.1	1005.82	-29776.8	0.000000	0.000000	6.132801	-0.007225	NaN	0.000000	0.001563	0.001647	28.0813	0.017451	0.001978	8.820594	-58.5954	18.8168	-0.008212	0.131145	-1.014865	-1.016207	-0.007225	8.820594	-1.014251	-3.528543E+13	2.047461E-16	NaN
660	1.000000	0.142470	7.37151e+06	-44089.1	1005.82	-29776.8	0.000000	0.000000	6.142785	-0.006349	NaN	0.000000	0.001572	0.001696	28.0814	0.091188	0.001921	47.4694	-33.2401	-164.184	0.019848	0.141155	-1.004882	-1.006198	-0.006349	47.4694	-1.004782	-2.631130E+13	2.412862E-16	NaN
660	1.000000	0.152471	7.37151e+06	-44089.1	1005.82	-29776.8	0.000000	0.000000	6.152786	0.014600	NaN	0.000000	0.001578	0.001698	28.0814	0.077136	0.002120	36.3809	-174.581	12.9709	0.009134	0.151114	-0.994881	-0.996239	0.014600	36.3809	-0.995182	-1.953882E+13	-7.472191E-16	NaN
660	1.000000	0.162467	7.37151e+06	-44089.1	1005.82	-29776.8	0.000000	0.000000	6.162782	0.006918	NaN	0.000000	0.001564	0.001730	28.0815	0.049452	0.001763	28.0515	-43.1579	-168.565	0.038514	0.161167	-0.984885	-0.986185	0.006918	28.0515	-0.985070	-1.427954E+13	-4.844486E-16	NaN
660	1.000000	0.172499	7.37151e+06	-44089.1	1005.82	-29776.8	0.000000	0.000000	6.172811	-0.058909	NaN	0.000000	0.001574	0.001677	28.0814	0.054137	0.001968	27.5097	-45.0454	15.188	-0.106596	0.171129	-0.974853	-0.976223	-0.058909	27.5097	-0.973247	-9.895120E+12	5.953349E-15	NaN
660	1.000000	0.182503	7.37151e+06	-44089.1	1005.82	-29776.8	0.000000	0.000000	6.182818	0.000609	NaN	0.000000	0.001570	0.001697	28.0814	0.039939	0.002105	18.9694	154.837	-166.428	-0.109156	0.181136	-0.964849	-0.966216	0.000609	18.9694	-0.964873	-7.630593E+12	-7.975588E-17	NaN
660	1.000000	0.192490	7.37151e+06	-44089.1	1005.82	-29776.8	0.000000	0.000000	6.192805	0.019554	NaN	0.000000	0.001549	0.001685	28.0814	0.034405	0.002097	16.4081	-133.462	12.9926	-0.019675	0.191178	-0.954863	-0.956174	0.019554	16.4081	-0.955757	-5.749832E+12	-3.400778E-15	NaN
660	1.000000	0.202468	7.37151e+06	-44089.1	1005.82	-29776.8	0.000000	0.000000	6.202782	-0.028600	NaN	0.000000	0.001531	0.001735	28.0816	0.028282	0.001951	14.4976	2.518306	-168.852	0.075936	0.201264	-0.944884	-0.946088	-0.028600	14.4976	-0.943404	-3.917984E+12	7.299717E-15	NaN
660	1.000000	0.212522	7.37151e+06	-44089.1	1005.82	-29776.8	0.000000	0.000000	6.212836	-0.009518	NaN	0.000000	0.001550	0.001726	28.0811	0.057150	0.002071	27.5968	-174.9	10.4553	-0.101220	0.211133	-0.934830	-0.936219	-0.009518	27.5968	-0.934571	-2.977763E+12	3.196431E-15	NaN
660	1.000000	0.222511	7.37151e+06	-44089.1	1005.82	-29776.8	0.000000	0.000000	6.222827	0.029640	NaN	0.000000	0.001541	0.001754	28.0812	0.023426	0.002011	11.6495	109.239	-164.01	0.030748	0.221179	-0.924842	-0.926173	0.029640	11.6495	-0.926750	-2.335219E+12	-1.269250E-14	NaN
660	1.000000	0.232501	7.37151e+06	-44089.1	1005.82	-29776.8	0.000000	0.000000	6.232813	-0.066166	NaN	0.000000	0.001540	0.001690	28.0813	0.077173	0.002100	36.7492	32.2663	14.1894	-0.077956	0.231104	-0.914851	-0.916248	-0.066166	36.7492	-0.913501	-1.546834E+12	4.277506E-14	NaN
660	1.000000	0.242542	7.37151e+06	-44089.1	1005.82	-29776.8	0.000000	0.000000	6.242854	-0.060555	NaN	0.000000	0.001542	0.001689	28.082	0.024122	0.001994	12.0989	-30.2357	-163.286	-0.032296	0.241216	-0.904810	-0.906136	-0.060555	12.0989	-0.901057	-1.050373E+12	5.765121E-14	NaN
660	1.000000	0.252525	7.37151e+06	-44089.1	1005.82	-29776.8	0.000000	0.000000	6.252838	-0.046068	NaN	0.000000	0.001522	0.001685	28.0825	0.063106	0.001920	32.8685	8.687674	12.9298	-0.031158	0.251158	-0.894827	-0.896194	-0.046068	32.8685	-0.893776	-8.374387E+11	5.501107E-14	NaN
660	1.000000	0.262522	7.37151e+06	-44089.1	1005.82	-29776.8	0.000000	0.000000	6.262837	-0.001534	NaN	0.000000	0.001519	0.001666	28.0826	0.067853	0.001949	34.8118	93.7236	-166.596	0.039143	0.261192	-0.884830	-0.886161	-0.001534	34.8118	-0.884797	-6.332530E+11	2.422340E-15	NaN
660	1.000000	0.272529	7.37151e+06	-44089.1	1005.82	-29776.8	0.000000	0.000000	6.272844	0.029058	NaN	0.000000	0.001549	0.001672	28.0827	0.070306	0.002029	34.6559	140.199	12.8241	-0.000170	0.271196	-0.874824	-0.876156	0.029058	34.6559	-0.875453	-4.733738E+11	-6.138394E-14	NaN
660	1.000000	0.282538	7.37151e+06	-44089.1	1005.82	-29776.8	0.000000	0.000000	6.282852	-0.018485	NaN	0.000000	0.001558	0.001703	28.0826	0.019725	0.002012	9.801872	-56.4002	-168.164	-0.049805	0.281223	-0.864814	-0.866129	-0.018485	9.801872	-0.863400	-3.251866E+11	5.684455E-14	NaN
660	1.000000	0.292566	7.37151e+06	-44089.1	1005.82	-29776.8	0.000000	0.000000	6.292881	-0.000736	NaN	0.000000	0.001556	0.001711	28.0824	0.051225	0.001991	25.7348	116.271	13.9931	-0.058635	0.291201	-0.854786	-0.856151	-0.000736	25.7348	-0.854764	-2.484551E+11	2.963902E-15	NaN
660	1.000000	0.302526	7.37151e+06	-44089.1	1005.82	-29776.8	0.000000	0.000000	6.302838	-0.064086	NaN	0.000000	0.001575	0.001728	28.0827	0.028795	0.001950	14.7664	-17.5394	-168.969	-0.038750	0.301215	-0.844826	-0.846137	-0.064086	14.7664	-0.841571	-1.646560E+11	3.892110E-13	NaN
660	1.000000	0.312545	7.37151e+06	-44089.1	1005.82	-29776.8	0.000000	0.000000	6.312861	0.021355	NaN	0.000000	0.001578	0.001699	28.0826	0.104472	0.002056	50.816	-44.9553	13.5323	0.053291	0.311147	-0.834807	-0.836205	0.021355	50.816	-0.835122	-1.346497E+11	-1.585951E-13	NaN
660	1.000000	0.322549	7.37151e+06	-44089.1	1005.82	-29776.8	0.000000	0.000000	6.322864	0.012950	NaN	0.000000	0.001570	0.001724	28.0827	0.078587	0.001963	40.0291	-95.022	-167.264	0.024417	0.321233	-0.824804	-0.826119	0.012950	40.0291	-0.825046	-9.831777E+10	-1.317183E-13	NaN
660	1.000000	0.332556	7.37151e+06	-44089.1	1005.82	-29776.8	0.000000	0.000000	6.332869	-0.029290	NaN	0.000000	0.001596	0.001720	28.0827	0.075757	0.001967	38.5178	-55.7142	12.9294	-0.022237	0.331152	-0.814797	-0.816200	-0.029290	38.5178	-0.814226	-7.013048E+10	4.176486E-13	NaN
660	1.000000	0.342583	7.37151e+06	-44089.1	1005.82	-29776.8	0.000000	0.000000	6.342898	0.006536	NaN	0.000000	0.001556	0.001721	28.083	0.029017	0.001997	14.532	78.3625	-166.454	-0.072434	0.341256	-0.804770	-0.806097	0.006536	14.532	-0.805107	-5.274466E+10	-1.239247E-13	NaN
660	1.000000	0.352550	7.37151e+06	-44089.1	1005.82	-29776.8	0.000000	0.000000	6.352863	-0.060997	NaN	0.000000	0.001553	0.001736	28.0826	0.028430	0.001898	14.9788	11.8461	15.1868	-0.033134	0.351262	-0.794802	-0.796091	-0.060997	14.9788	-0.791748	-3.473918E+10	1.755855E-12	NaN
660	1.000000	0.362588	7.37151e+06	-44089.1	1005.82	-29776.8	0.000000	0.000000	6.362903	0.009268	NaN	0.000000	0.001568	0.001698	28.083	0.100925	0.001960	51.4819	166.31	-167.099	-0.008333	0.361231	-0.784764	-0.786121	0.009268	51.4819	-0.784899	-2.804133E+10	-3.305029E-13	NaN
660	1.000000	0.372569	7.37151e+06	-44089.1	1005.82	-29776.8	0.000000	0.000000	6.372881	-0.059808	NaN	0.000000	0.001589	0.001663	28.0826	0.093519	0.002061	45.3816	-25.1311	12.7373	-0.096791	0.371200	-0.774783	-0.776153	-0.059808	45.3816	-0.773795	-1.981045E+10	3.019005E-12	NaN
660	1.000000	0.382554	7.37151e+06	-44089.1	1005.82	-29776.8	0.000000	0.000000	6.382869	0.002278	NaN	0.000000	0.001540	0.001705	28.0816	0.045781	0.001906	24.0178	-116.061	-169.705	0.067673	0.381286	-0.764799	-0.766067	0.002278	24.0178	-0.764870	-1.498100E+10	-1.520673E-13	NaN
660	1.000000	0.392547	7.37151e+06	-44089.1	1005.82	-29776.8	0.000000	0.000000	6.392865	0.067616	NaN	0.000000	0.001559	0.001705	28.0812	0.027507	0.002081	13.2164	-37.1526	15.7626	0.109363	0.391200	-0.754805	-0.756153	0.067616	13.2164	-0.758642	-1.232615E+10	-5.485594E-12	NaN
660	1.000000	0.402603	7.37151e+06	-44089.1	1005.82	-29776.8	0.000000	0.000000	6.402918	0.005878	NaN	0.000000	0.001553	0.001741	28.0815	0.107367	0.001980	54.2393	-52.1736	-166.373	0.018743	0.401255	-0.744749	-0.746097	0.005878	54.2393	-0.744831	-7.995435E+9	-7.351489E-13	NaN
660	1.000000	0.412608	7.37151e+06	-44089.1	1005.82	-29776.8	0.000000	0.000000	6.412922	-0.020496	NaN	0.000000	0.001543	0.001718	28.0813	0.051092	0.001984	25.7493	78.1013	11.1263	-0.003731	0.411232	-0.734745	-0.736120	-0.020496	25.7493	-0.734148	-5.719112E+9	3.583740E-12	NaN
660	1.000000	0.422592	7.37151e+06	-44089.1	1005.82	-29776.8	0.000000	0.000000	6.422905	-0.024260	NaN	0.000000	0.001560	0.001736	28.0817	0.072254	0.001987	36.371	6.638618	-165.615	0.013604	0.421293	-0.724760	-0.726059	-0.024260	36.371	-0.724260	-4.193395E+9	5.785210E-12	NaN
660	1.000000	0.432582	7.37151e+06	-44089.1	1005.82	-29776.8	0.000000	0.000000	6.432894	-0.055497	NaN	0.000000	0.001580	0.001710	28.0815	0.055273	0.001987	27.8156	-163.943	12.5964	-0.097017	0.431250	-0.714770	-0.716103	-0.055497	27.8156	-0.713274	-2.969787E+9	1.868711E-11	NaN
660	1.000000	0.442627	7.37151e+06	-44089.1	1005.82	-29776.8	0.000000	0.000000	6.442940	-0.050551	NaN	0.000000	0.001581	0.001763	28.0815	0.082785	0.001938	42.7236	-63.588	-166.695	-0.025882	0.441291	-0.704725	-0.706061	-0.050551	42.7236	-0.703838	-2.207658E+9	2.289822E-11	NaN
660	1.000000	0.452615	7.37151e+06	-44089.1	1005.82	-29776.8	0.000000	0.000000	6.452928	-0.054099	NaN	0.000000	0.001540	0.001758	28.0816	0.076024	0.001942	39.1474	157.165	13.6798	-0.056382	0.451253	-0.694737	-0.696099	-0.054099	39.1474	-0.693701	-1.605035E+9	3.370571E-11	NaN
660	1.000000	0.462605	7.37151e+06	-44089.1	1005.82	-29776.8	0.000000	0.000000	6.462918	-0.045832	NaN	0.000000	0.001537	0.001749	28.0815	0.028587	0.001975	14.4754	52.0184	-167.285	-0.058699	0.461282	-0.684747	-0.686070	-0.045832	14.4754	-0.682372	-1.123685E+9	4.078715E-11	NaN
660	1.000000	0.472615	7.37151e+06	-44089.1	1005.82	-29776.8	0.000000	0.000000	6.472930	-0.000725	NaN	0.000000	0.001594	0.001722	28.0815	0.116865	0.002000	58.4421	-9.996331	11.8251	-0.017358	0.471242	-0.674737	-0.676110	-0.000725	58.4421	-0.674728	-8.832502E+8	8.208224E-13	NaN
660	1.000000	0.482614	7.37151e+06	-44089.1	1005.82	-29776.8	0.000000	0.000000	6.482927	-0.057598	NaN	0.000000	0.001553	0.001719	28.0815	0.100162	0.001999	50.1	-95.8884	-168.991	-0.066718	0.481283	-0.664738	-0.666070	-0.057598	50.1	-0.663876	-6.274046E+8	9.180325E-11	NaN
660	1.000000	0.492631	7.37151e+06	-44089.1	1005.82	-29776.8	0.000000	0.000000	6.492946	0.008454	NaN	0.000000	0.001568	0.001757	28.0818	0.121223	0.002081	58.2611	132.655	14.4864	0.053362	0.491326	-0.654721	-0.656026	0.008454	58.2611	-0.654830	-4.716650E+8	-1.792300E-11	NaN
660	1.000000	0.502614	7.37151e+06	-44089.1	1005.82	-29776.8	0.000000	0.000000	6.502926	-0.057041	NaN	0.000000	0.001593	0.001734	28.0815	0.062437	0.002037	30.6453	140.213	-169.525	-0.008540	0.501330	-0.644738	-0.646022	-0.057041	30.6453	-0.643342	-3.282034E+8	1.737984E-10	NaN
660	1.000000	0.512624	7.37151e+06	-44089.1	1005.82	-29776.8	0.000000	0.000000	6.512942	0.061672	NaN	0.000000	0.001684	0.001750	28.0816	0.055454	0.002008	27.618	160.63	13.1115	0.071043	0.511286	-0.634728	-0.636067	0.061672	27.618	-0.636403	-2.635871E+8	-2.339708E-10	NaN
660	1.000000	0.522620	7.37151e+06	-44089.1	1005.82	-29776.8	0.000000	0.000000	6.522935	0.003894	NaN	0.000000	0.001657	0.001717	28.0826	0.090231	0.001995	45.2324	-173.055	-165.517	0.002090	0.521309	-0.624732	-0.626043	0.003894	45.2324	-0.624797	-1.826220E+8	-2.132469E-11	NaN
660	1.000000	0.532629	7.37151e+06	-44089.1	1005.82	-29776.8	0.000000	0.000000	6.532942	-0.050264	NaN	0.000000	0.001663	0.001700	28.0829	0.046973	0.001855	25.3273	-138.843	14.5963	-0.015979	0.531308	-0.614723	-0.616045	-0.050264	25.3273	-0.613235	-1.266520E+8	3.968705E-10	NaN
660	1.000000	0.542654	7.37151e+06	-44089.1	1005.82	-29776.8	0.000000	0.000000	6.542970	0.026368	NaN	0.000000	0.001676	0.001737	28.0827	0.062331	0.002076	30.0275	155.713	-166.51	-0.025855	0.541299	-0.604698	-0.606054	0.026368	30.0275	-0.605357	-9.867688E+7	-2.672194E-10	NaN
660	1.000000	0.552636	7.37151e+06	-44089.1	1005.82	-29776.8	0.000000	0.000000	6.552952	0.030391	NaN	0.000000	0.001634	0.001733	28.0828	0.017691	0.002009	8.803948	-51.8151	12.6429	-0.025684	0.551275	-0.594717	-0.596077	0.030391	8.803948	-0.597306	-7.644460E+7	-3.975569E-10	NaN
660	1.000000	0.562648	7.37151e+06	-44089.1	1005.82	-29776.8	0.000000	0.000000	6.562965	0.059061	NaN	0.000000	0.001643	0.001684	28.0831	0.106137	0.001856	57.1783	-176.019	-167.396	-0.000372	0.561343	-0.584704	-0.586010	0.059061	57.1783	-0.585479	-5.251910E+7	-1.124565E-9	NaN
660	1.000000	0.572658	7.37151e+06	-44089.1	1005.82	-29776.8	0.000000	0.000000	6.572971	-0.025412	NaN	0.000000	0.001636	0.001733	28.0827	0.047450	0.002077	22.8508	-18.291	10.7737	-0.061241	0.571270	-0.574694	-0.576083	-0.025412	22.8508	-0.573860	-3.630448E+7	6.999550E-10	NaN
660	1.000000	0.582643	7.37151e+06	-44089.1	1005.82	-29776.8	0.000000	0.000000	6.582960	0.059973	NaN	0.000000	0.001632	0.001715	28.0824	0.132860	0.002090	63.5825	-104.981	-166.111	0.083170	0.581361	-0.564709	-0.565991	0.059973	63.5825	-0.565416	-2.775126E+7	-2.161082E-9	NaN
660	1.000000	0.592659	7.37151e+06	-44089.1	1005.82	-29776.8	0.000000	0.000000	6.592974	0.012095	NaN	0.000000	0.001629	0.001723	28.0828	0.044771	0.002073	21.5922	-52.5571	12.3666	-0.045042	0.591340	-0.554693	-0.556012	0.012095	21.5922	-0.555113	-1.998753E+7	-6.051036E-10	NaN
660	1.000000	0.602666	7.37151e+06	-44089.1	1005.82	-29776.8	0.000000	0.000000	6.602980	-0.014783	NaN	0.000000	0.001563	0.001671	28.0828	0.095544	0.001859	51.3965	177.275	-166.148	0.023814	0.601384	-0.544687	-0.545968	-0.014783	51.3965	-0.544471	-1.423462E+7	1.038512E-9	NaN
660	1.000000	0.612676	7.37151e+06	-44089.1	1005.82	-29776.8	0.000000	0.000000	6.612988	-0.068882	NaN	0.000000	0.001600	0.001729	28.0826	0.118286	0.002033	58.1897	-109.246	16.0722	-0.074346	0.611328	-0.534676	-0.536024	-0.068882	58.1897	-0.533788	-1.011980E+7	6.806627E-9	NaN
660	1.000000	0.622657	7.37151e+06	-44089.1	1005.82	-29776.8	0.000000	0.000000	6.622971	-0.025175	NaN	0.000000	0.001568	0.001732	28.0825	0.058712	0.002009	29.2243	156.737	-163.126	-0.001005	0.621405	-0.524695	-0.525948	-0.025175	29.2243	-0.524049	-7.41128e+06	3.396844E-9	NaN
660	1.000000	0.632658	7.37151e+06	-44089.1	1005.82	-29776.8	0.000000	0.000000	6.632971	-0.038812	NaN	0.000000	0.001564	0.001696	28.0825	0.005677	0.001864	3.045817	17.048	11.7751	-0.071617	0.631356	-0.514695	-0.515996	-0.038812	3.045817	-0.505137	-4.0426e+06	9.600869E-9	NaN
660	1.000000	0.642681	7.37151e+06	-44089.1	1005.82	-29776.8	0.000000	0.000000	6.642995	-0.003378	NaN	0.000000	0.001603	0.001701	28.0826	0.071704	0.002037	35.2079	-121.749	-166.898	0.002214	0.641449	-0.504672	-0.505903	-0.003378	35.2079	-0.504600	-3.97343e+06	8.500534E-10	NaN
660	1.000000	0.652684	7.37151e+06	-44089.1	1005.82	-29776.8	0.000000	0.000000	6.652997	-0.042487	NaN	0.000000	0.001613	0.001665	28.0818	0.122105	0.002054	59.4339	-139.526	13.2776	-0.071610	0.651298	-0.494668	-0.496054	-0.042487	59.4339	-0.494132	-2.83865e+06	1.496725E-8	NaN
660	1.000000	0.662682	7.37151e+06	-44089.1	1005.82	-29776.8	0.000000	0.000000	6.662997	-0.011129	NaN	0.000000	0.001615	0.001720	28.0814	0.041419	0.001870	22.1455	-118.389	-164.708	-0.010905	0.661363	-0.484670	-0.485989	-0.011129	22.1455	-0.484293	-2.06824e+06	5.380717E-9	NaN
660	1.000000	0.672674	7.37151e+06	-44089.1	1005.82	-29776.8	0.000000	0.000000	6.672988	-0.029515	NaN	0.000000	0.001575	0.001693	28.0815	0.044961	0.002105	21.3556	151.262	14.1932	0.026550	0.671319	-0.474678	-0.476033	-0.029515	21.3556	-0.473642	-1.46711e+06	2.011812E-8	NaN
660	1.000000	0.682702	7.37151e+06	-44089.1	1005.82	-29776.8	0.000000	0.000000	6.683016	-0.008690	NaN	0.000000	0.001605	0.001687	28.0814	0.101603	0.001891	53.741	-8.942803	-165.329	-0.085788	0.681366	-0.464650	-0.465986	-0.008690	53.741	-0.464529	-1.09304e+06	7.950094E-9	NaN
660	1.000000	0.692727	7.37151e+06	-44089.1	1005.82	-29776.8	0.000000	0.000000	6.693040	-0.031029	NaN	0.000000	0.001617	0.001684	28.0814	0.080747	0.001971	40.978	-75.6985	12.7671	0.007748	0.691324	-0.454626	-0.456028	-0.031029	40.978	-0.454058	-778859	3.983958E-8	NaN
660	1.000000	0.702716	7.37151e+06	-44089.1	1005.82	-29776.8	0.000000	0.000000	6.703029	-0.045399	NaN	0.000000	0.001596	0.001692	28.0816	0.119407	0.001937	61.6607	-84.9029	-170.529	-0.040517	0.701391	-0.444636	-0.445961	-0.045399	61.6607	-0.444084	-563600	8.055167E-8	NaN
660	1.000000	0.712681	7.37151e+06	-44089.1	1005.82	-29776.8	0.000000	0.000000	6.712995	-0.027903	NaN	0.000000	0.001581	0.001725	28.0816	0.098704	0.001946	50.7104	165.648	14.1905	-0.012537	0.711275	-0.434671	-0.436077	-0.027903	50.7104	-0.434258	-409519	6.813632E-8	NaN
660	1.000000	0.722700	7.37151e+06	-44089.1	1005.82	-29776.8	0.000000	0.000000	6.723012	-0.063713	NaN	0.000000	0.001590	0.001694	28.0814	0.066296	0.002077	31.9257	-117.871	-162.885	-0.029844	0.721398	-0.424652	-0.425954	-0.063713	31.9257	-0.423155	-285198	2.233987E-7	NaN
660	1.000000	0.732737	7.37151e+06	-44089.1	1005.82	-29776.8	0.000000	0.000000	6.733051	-0.001627	NaN	0.000000	0.001569	0.001678	28.0814	0.081986	0.002041	40.1635	-30.5084	13.0038	0.022562	0.731402	-0.414615	-0.415951	-0.001627	40.1635	-0.414585	-215557	7.547764E-9	NaN
660	1.000000	0.742711	7.37151e+06	-44089.1	1005.82	-29776.8	0.000000	0.000000	6.743024	-0.054062	NaN	0.000000	0.001590	0.001723	28.0816	0.090179	0.001991	45.291	135.462	-168.691	-0.009046	0.741417	-0.404641	-0.405935	-0.054062	45.291	-0.403746	-151141	3.576900E-7	NaN
660	1.000000	0.752768	7.37151e+06	-44089.1	1005.82	-29776.8	0.000000	0.000000	6.753081	-0.034030	NaN	0.000000	0.001585	0.001671	28.0816	0.020792	0.002002	10.3881	34.7353	12.405	0.020372	0.751348	-0.394584	-0.396004	-0.034030	10.3881	-0.392128	-103179	3.298135E-7	NaN
660	1.000000	0.762761	7.37151e+06	-44089.1	1005.82	-29776.8	0.000000	0.000000	6.763073	-0.045554	NaN	0.000000	0.001581	0.001708	28.0816	0.036867	0.001813	20.3297	76.7307	-163.907	-0.129937	0.761432	-0.384592	-0.385921	-0.045554	20.3297	-0.382911	-76146	5.982409E-7	NaN
660	1.000000	0.772732	7.37151e+06	-44089.1	1005.82	-29776.8	0.000000	0.000000	6.773048	0.035007	NaN	0.000000	0.001583	0.001685	28.0814	0.124724	0.001964	63.4918	-163.409	12.3306	-0.038685	0.771361	-0.374620	-0.375991	0.035007	63.4918	-0.375034	-58689.3	-5.964833E-7	NaN
660	1.000000	0.782747	7.37151e+06	-44089.1	1005.82	-29776.8	0.000000	0.000000	6.783062	0.014963	NaN	0.000000	0.001615	0.001704	28.0817	0.027343	0.002094	13.0592	-88.7694	-165.371	0.032496	0.781472	-0.364605	-0.365880	0.014963	13.0592	-0.365465	-42732.2	-3.501466E-7	NaN
660	1.000000	0.792741	7.37151e+06	-44089.1	1005.82	-29776.8	0.000000	0.000000	6.793054	-0.025244	NaN	0.000000	0.001630	0.001683	28.0827	0.063149	0.002079	30.3726	26.4592	15.2625	0.029222	0.791432	-0.354611	-0.355920	-0.025244	30.3726	-0.353988	-29163.3	8.656083E-7	NaN
660	1.000000	0.802739	7.37151e+06	-44089.1	1005.82	-29776.8	0.000000	0.000000	6.803053	-0.016075	NaN	0.000000	0.001596	0.001709	28.083	0.021140	0.001945	10.8706	134.74	-169.714	0.039852	0.801454	-0.344614	-0.345899	-0.016075	10.8706	-0.343505	-20540	7.826380E-7	NaN
660	1.000000	0.812726	7.37151e+06	-44089.1	1005.82	-29776.8	0.000000	0.000000	6.813042	0.014163	NaN	0.000000	0.001572	0.001687	28.0826	0.102692	0.002035	50.4679	-2.806446	13.7834	0.057220	0.811345	-0.334626	-0.336008	0.014163	50.4679	-0.334836	-15353.2	-9.225095E-7	NaN
660	1.000000	0.822743	7.37151e+06	-44089.1	1005.82	-29776.8	0.000000	0.000000	6.823056	-0.032473	NaN	0.000000	0.001557	0.001678	28.0831	0.127802	0.002083	61.3439	161.88	-163.632	0.005371	0.821428	-0.324609	-0.325924	-0.032473	61.3439	-0.324212	-10729.3	3.026541E-6	NaN
660	1.000000	0.832760	7.37151e+06	-44089.1	1005.82	-29776.8	0.000000	0.000000	6.833071	-0.093954	NaN	0.000000	0.001546	0.001699	28.0826	0.169209	0.001876	90.2138	-72.7166	12.0902	-0.013060	0.831405	-0.314593	-0.315947	-0.093954	90.2138	-0.313811	-7540.53	1.245987E-5	NaN
660	1.000000	0.842745	7.37151e+06	-44089.1	1005.82	-29776.8	0.000000	0.000000	6.843057	-0.057766	NaN	0.000000	0.001628	0.001700	28.083	0.064196	0.002077	30.912	19.7543	-166.18	-0.041817	0.841468	-0.304608	-0.305885	-0.057766	30.912	-0.303206	-5251.89	1.099915E-5	NaN
660	1.000000	0.852777	7.37151e+06	-44089.1	1005.82	-29776.8	0.000000	0.000000	6.853090	-0.052507	NaN	0.000000	0.001574	0.001707	28.0826	0.054928	0.002051	26.7768	57.0162	16.7551	-0.019209	0.851394	-0.294575	-0.295958	-0.052507	26.7768	-0.293104	-3713.3	1.414017E-5	NaN
660	1.000000	0.862771	7.37151e+06	-44089.1	1005.82	-29776.8	0.000000	0.000000	6.863086	0.014847	NaN	0.000000	0.001587	0.001688	28.083	0.038687	0.001962	19.7144	75.8683	-165.602	0.020371	0.861496	-0.284581	-0.285857	0.014847	19.7144	-0.285146	-2821.37	-5.262288E-6	NaN
660	1.000000	0.872774	7.37151e+06	-44089.1	1005.82	-29776.8	0.000000	0.000000	6.873087	-0.053161	NaN	0.000000	0.001591	0.001743	28.0824	0.183153	0.002006	91.2815	-97.2096	12.276	-0.131089	0.871404	-0.274578	-0.275949	-0.053161	91.2815	-0.274141	-1924.85	2.761840E-5	NaN
660	1.000000	0.882786	7.37151e+06	-44089.1	1005.82	-29776.8	0.000000	0.000000	6.883103	0.042054	NaN	0.000000	0.001543	0.001673	28.0826	0.104980	0.002064	50.8582	134.101	-172.595	0.027859	0.881492	-0.264566	-0.265860	0.042054	50.8582	-0.265186	-1406.78	-2.989373E-5	NaN
660	1.000000	0.892770	7.37151e+06	-44089.1	1005.82	-29776.8	0.000000	0.000000	6.893085	0.002723	NaN	0.000000	0.001615	0.001691	28.0824	0.059069	0.001962	30.1009	-18.6183	13.7246	0.008138	0.891377	-0.254582	-0.255975	0.002723	30.1009	-0.254650	-969.901	-2.807744E-6	NaN
660	1.000000	0.902781	7.37151e+06	-44089.1	1005.82	-29776.8	0.000000	0.000000	6.903099	0.070527	NaN	0.000000	0.001642	0.001704	28.0826	0.059970	0.002039	29.4067	-23.7454	-165.733	-0.022585	0.901480	-0.244571	-0.245872	0.070527	29.4067	-0.246370	-722.319	-9.763954E-5	NaN
660	1.000000	0.912796	7.37151e+06	-44089.1	1005.82	-29776.8	0.000000	0.000000	6.913111	0.019638	NaN	0.000000	0.001621	0.001693	28.0822	0.056905	0.002060	27.6195	28.9834	13.7636	0.024639	0.911401	-0.234556	-0.235951	0.019638	27.6195	-0.235090	-481.567	-4.077995E-5	NaN
660	1.000000	0.922799	7.37151e+06	-44089.1	1005.82	-29776.8	0.000000	0.000000	6.923115	0.027749	NaN	0.000000	0.001578	0.001683	28.0823	0.003782	0.001927	1.962385	155.325	-164.106	0.060769	0.921499	-0.224553	-0.225854	0.027749	1.962385	-0.235158	-482.759	-5.747916E-5	NaN
660	1.000000	0.932797	7.37151e+06	-44089.1	1005.82	-29776.8	0.000000	0.000000	6.933111	-0.032344	NaN	0.000000	0.001569	0.001685	28.0812	0.021370	0.002017	10.5932	-161.122	12.9912	-0.006817	0.931447	-0.214555	-0.215905	-0.032344	10.5932	-0.212265	-208.662	0.000155	NaN
660	1.000000	0.942793	7.37151e+06	-44089.1	1005.82	-29776.8	0.000000	0.000000	6.943109	0.048119	NaN	0.000000	0.001576	0.001657	28.081	0.084456	0.001957	43.1606	8.033007	-170.253	0.054805	0.941541	-0.204560	-0.205811	0.048119	43.1606	-0.205396	-161.441	-0.000298	NaN
660	1.000000	0.952824	7.37151e+06	-44089.1	1005.82	-29776.8	0.000000	0.000000	6.953139	0.005536	NaN	0.000000	0.001584	0.001641	28.081	0.041056	0.001919	21.3937	-37.8851	15.2483	0.024020	0.951460	-0.194528	-0.195892	0.005536	21.3937	-0.194722	-107.796	-5.136037E-5	NaN
660	1.000000	0.962807	7.37151e+06	-44089.1	1005.82	-29776.8	0.000000	0.000000	6.963123	0.030443	NaN	0.000000	0.001561	0.001672	28.0811	0.098034	0.002093	46.835	174.981	-168.798	0.049126	0.961481	-0.184545	-0.185871	0.030443	46.835	-0.185032	-74.2472	-0.000410	NaN
660	1.000000	0.972836	7.37151e+06	-44089.1	1005.82	-29776.8	0.000000	0.000000	6.973147	-0.076469	NaN	0.000000	0.001573	0.001703	28.0812	0.165019	0.001942	84.9829	-81.872	11.7628	-0.003795	0.971426	-0.174516	-0.175926	-0.076469	84.9829	-0.173842	-47.8686	0.001597	NaN
660	1.000000	0.982830	7.37151e+06	-44089.1	1005.82	-29776.8	0.000000	0.000000	6.983142	-0.065846	NaN	0.000000	0.001540	0.001663	28.0811	0.066495	0.002007	33.1329	46.8299	-165.973	0.016640	0.981572	-0.164523	-0.165781	-0.065846	33.1329	-0.163032	-31.0221	0.002123	NaN
660	1.000000	0.992830	7.37151e+06	-44089.1	1005.82	-29776.8	0.000000	0.000000	6.993145	0.004953	NaN	0.000000	0.001572	0.001681	28.0812	0.044452	0.002057	21.6081	172.82	12.024	0.041412	0.991449	-0.154523	-0.155903	0.004953	21.6081	-0.154694	-22.0333	-0.000225	NaN
660	1.000000	1.002812	7.37151e+06	-44089.1	1005.82	-29776.8	0.000000	0.000000	7.003124	-0.061406	NaN	0.000000	0.001592	0.001718	28.0812	0.114909	0.002072	55.4686	-135.425	-167.664	-0.064495	1.001542	-0.144540	-0.145810	-0.061406	55.4686	-0.143710	-13.8756	0.004425	NaN
660	1.000000	1.012804	7.37151e+06	-44089.1	1005.82	-29776.8	0.000000	0.000000	7.013120	0.034573	NaN	0.000000	0.001561	0.001676	28.0812	0.125382	0.001936	64.7597	-14.3748	11.2274	0.037622	1.011483	-0.134549	-0.135869	0.034573	64.7597	-0.134949	-9.491151	-0.003643	NaN
660	1.000000	1.022819	7.37151e+06	-44089.1	1005.82	-29776.8	0.000000	0.000000	7.023133	-0.033960	NaN	0.000000	0.001577	0.001626	28.081	0.117023	0.001885	62.071	-111.404	-166.652	-0.021680	1.021527	-0.124533	-0.125825	-0.033960	62.071	-0.124123	-5.842585	0.005812	NaN
660	1.000000	1.032839	7.37151e+06	-44089.1	1005.82	-29776.8	0.000000	0.000000	7.033154	0.014829	NaN	0.000000	0.001573	0.001602	28.0812	0.074695	0.002104	35.4958	76.6346	10.974	0.053362	1.031404	-0.114513	-0.115948	0.014829	35.4958	-0.114827	-3.789059	-0.003914	NaN
660	1.000000	1.042867	7.37151e+06	-44089.1	1005.82	-29776.8	0.000000	0.000000	7.043184	0.051411	NaN	0.000000	0.001531	0.001616	28.0813	0.076062	0.001936	39.2892	-115.5	-164.49	0.020196	1.041509	-0.104485	-0.105843	0.051411	39.2892	-0.105467	-2.405725	-0.021370	NaN
660	1.000000	1.052854	7.37151e+06	-44089.1	1005.82	-29776.8	0.000000	0.000000	7.053166	-0.058863	NaN	0.000000	0.001586	0.001614	28.0811	0.109178	0.001949	56.0203	83.8256	12.0403	-0.013362	1.051455	-0.094499	-0.095897	-0.058863	56.0203	-0.093711	-1.318033	0.044660	NaN
660	1.000000	1.062854	7.37151e+06	-44089.1	1005.82	-29776.8	0.000000	0.000000	7.063170	0.009762	NaN	0.000000	0.001549	0.001647	28.0822	0.089940	0.002092	42.99	-171.342	-166.632	-0.085543	1.061573	-0.084498	-0.085779	0.009762	42.99	-0.084668	-0.806564	-0.012103	NaN
660	1.000000	1.072854	7.37151e+06	-44089.1	1005.82	-29776.8	0.000000	0.000000	7.073168	-0.011111	NaN	0.000000	0.001587	0.001608	28.0824	0.051237	0.002081	24.6167	-92.5376	12.1853	-0.070517	1.071544	-0.074498	-0.075809	-0.011111	24.6167	-0.074160	-0.439260	0.025294	NaN
660	1.000000	1.082826	7.37151e+06	-44089.1	1005.82	-29776.8	0.000000	0.000000	7.083137	-0.076579	NaN	0.000000	0.001549	0.001645	28.0825	0.048087	0.001995	24.1078	-55.6593	-167.135	0.005337	1.081560	-0.064526	-0.065792	-0.076579	24.1078	-0.062144	-0.207287	0.369437	NaN
660	1.000000	1.092890	7.37151e+06	-44089.1	1005.82	-29776.8	0.000000	0.000000	7.093205	0.002917	NaN	0.000000	0.001567	0.001608	28.0826	0.057505	0.001933	29.7497	-38.4639	15.0246	-0.064197	1.091530	-0.054462	-0.055822	0.002917	29.7497	-0.054535	-0.124765	-0.023384	NaN
660	1.000000	1.102872	7.37151e+06	-44089.1	1005.82	-29776.8	0.000000	0.000000	7.103187	0.013500	NaN	0.000000	0.001595	0.001648	28.0824	0.115037	0.002046	56.2322	63.7588	-164.28	0.014951	1.101554	-0.044481	-0.045798	0.013500	56.2322	-0.044661	-0.062751	-0.215138	NaN
660	1.000000	1.112877	7.37151e+06	-44089.1	1005.82	-29776.8	0.000000	0.000000	7.113188	-0.093824	NaN	0.000000	0.001558	0.001612	28.083	0.130824	0.002073	63.0967	97.4529	11.7566	-0.010584	1.111499	-0.034475	-0.035853	-0.093824	63.0967	-0.033360	-0.028678	3.271577	NaN
660	1.000000	1.122884	7.37151e+06	-44089.1	1005.82	-29776.8	0.000000	0.000000	7.123199	0.005743	NaN	0.000000	0.001554	0.001632	28.0825	0.037117	0.002063	17.9913	26.4301	-165.41	-0.030376	1.121552	-0.024468	-0.025800	0.005743	17.9913	-0.024707	-0.016576	-0.346437	NaN
660	1.000000	1.132879	7.37151e+06	-44089.1	1005.82	-29776.8	0.000000	0.000000	7.133192	-0.027555	NaN	0.000000	0.001526	0.001607	28.0827	0.076338	0.001770	43.1392	-143.365	15.1326	-0.030835	1.131553	-0.014473	-0.015800	-0.027555	43.1392	-0.013994	-0.008680	3.174553	NaN
660	1.000000	1.142883	7.37151e+06	-44089.1	1005.82	-29776.8	0.000000	0.000000	7.143199	0.016659	NaN	0.000000	0.001542	0.001624	28.0823	0.161815	0.001872	86.4429	-2.271493	-168.582	0.061827	1.141575	-0.004469	-0.005777	0.016659	86.4429	-0.004614	-0.003173	-5.250989	NaN
660	2.000000	1.152619	7.37151e+06	-44089.1	1005.82	-29776.8	0.000000	0.000000	7.153283	8.503387	NaN	0.000000	0.001544	0.001641	28.0832	7.755230	0.001664	4660.55	9.367976	10.7904	7.508703	1.151520	0.005267	0.004167	8.503387	4660.55	0.003898	0.003150	2699.57	75868.5
660	2.000000	1.155475	7.37151e+06	-44089.1	1005.82	-29776.8	0.000000	0.000000	7.156269	11.6515	NaN	0.000000	0.001545	0.001595	28.0823	11.6495	0.001845	6314.33	4.634897	-170.576	11.3234	1.155214	0.008123	0.007861	11.6515	6314.33	0.006739	0.005777	2016.93	75902.1
660	2.000000	1.157930	7.37151e+06	-44089.1	1005.82	-29776.8	0.000000	0.000000	7.158923	16.5062	NaN	0.000000	0.001570	0.001608	28.0826	14.2856	0.001712	8346.75	7.493746	4.084578	14.7668	1.157579	0.010578	0.010227	16.5062	8346.75	0.009095	0.008193	2014.72	84250.7
660	2.000000	1.160361	7.37151e+06	-44089.1	1005.82	-29776.8	0.000000	0.000000	7.161595	22.3872	NaN	0.000000	0.001580	0.001635	28.0823	16.8759	0.001644	10263.9	4.295201	-176.342	20.8606	1.160109	0.013008	0.012756	22.3872	10263.9	0.011372	0.010747	2083.11	90457.2
660	2.000000	1.162924	7.37151e+06	-44089.1	1005.82	-29776.8	0.000000	0.000000	7.164346	26.944	NaN	0.000000	0.001573	0.001619	28.0829	20.4305	0.001830	11165.7	5.935711	2.332281	26.2312	1.162562	0.015572	0.015210	26.944	11165.7	0.013762	0.013670	1971.08	87253
660	2.000000	1.165367	7.37151e+06	-44089.1	1005.82	-29776.8	0.000000	0.000000	7.166983	31.6516	NaN	0.000000	0.001542	0.001637	28.0811	23.084	0.001825	12650.8	8.314673	178.925	30.3228	1.165069	0.018015	0.017717	31.6516	12650.8	0.016138	0.016833	1880.29	89085.4
660	2.000000	1.167906	7.37151e+06	-44089.1	1005.82	-29776.8	0.000000	0.000000	7.169796	38.3188	NaN	0.000000	0.001578	0.001600	28.0813	25.2898	0.001699	14889.1	9.972448	-4.123254	36.6438	1.167513	0.020554	0.020161	38.3188	14889.1	0.018624	0.020426	1876	95181.6
660	2.000000	1.170340	7.37151e+06	-44089.1	1005.82	-29776.8	0.000000	0.000000	7.172574	46.6954	NaN	0.000000	0.001571	0.001619	28.0812	27.7057	0.001573	17618.2	7.761716	175.629	45.1882	1.170067	0.022987	0.022714	46.6954	17618.2	0.021000	0.024137	1934.57	103607
660	2.000000	1.172913	7.37151e+06	-44089.1	1005.82	-29776.8	0.000000	0.000000	7.175408	53.0417	NaN	0.000000	0.001592	0.001629	28.0819	30.8079	0.001787	17242.8	6.534481	-1.553790	53.6314	1.172496	0.025561	0.025144	53.0417	17242.8	0.023254	0.027915	1900.09	94288.9
660	2.000000	1.175360	7.37151e+06	-44089.1	1005.82	-29776.8	0.000000	0.000000	7.178036	57.4563	NaN	0.000000	0.001569	0.001653	28.0812	33.1469	0.001802	18394.6	3.948503	178.698	55.8039	1.175118	0.028008	0.027766	57.4563	18394.6	0.025665	0.032237	1782.32	93602.3
660	2.000000	1.177900	7.37151e+06	-44089.1	1005.82	-29776.8	0.000000	0.000000	7.181067	69.3831	NaN	0.000000	0.001580	0.001645	28.082	35.394	0.001761	20099.7	5.208985	-1.386112	67.9275	1.177470	0.030548	0.030117	69.3831	20099.7	0.027959	0.036619	1894.7	95963.7
660	2.000000	1.180298	7.37151e+06	-44089.1	1005.82	-29776.8	0.000000	0.000000	7.183830	78.2699	NaN	0.000000	0.001545	0.001620	28.0811	37.5483	0.001791	20970.1	7.297782	175.343	74.8223	1.179948	0.032946	0.032595	78.2699	20970.1	0.030147	0.041048	1906.77	94563.8
660	2.000000	1.182861	7.37151e+06	-44089.1	1005.82	-29776.8	0.000000	0.000000	7.186654	84.6169	NaN	0.000000	0.001557	0.001603	28.0812	40.6701	0.001821	22332.9	5.014701	-3.919973	83.0846	1.182530	0.035509	0.035178	84.6169	22332.9	0.032667	0.046453	1821.56	94669.8
660	2.000000	1.185358	7.37151e+06	-44089.1	1005.82	-29776.8	0.000000	0.000000	7.189535	93.9652	NaN	0.000000	0.001542	0.001635	28.0809	42.5634	0.001836	23184	1.078530	-179.319	92.9492	1.185050	0.038005	0.037698	93.9652	23184	0.034966	0.051666	1818.7	93187.7
660	2.000000	1.187864	7.37151e+06	-44089.1	1005.82	-29776.8	0.000000	0.000000	7.192420	103.197	NaN	0.000000	0.001548	0.001644	28.0817	44.4585	0.001917	23192.4	3.784869	-1.699708	101.216	1.187548	0.040511	0.040195	103.197	23192.4	0.037174	0.056929	1812.73	88807.7
660	2.000000	1.190305	7.37151e+06	-44089.1	1005.82	-29776.8	0.000000	0.000000	7.195303	113.926	NaN	0.000000	0.001569	0.001627	28.0809	46.6485	0.001642	28417	5.535604	173.393	109.842	1.190028	0.042953	0.042676	113.926	28417	0.039946	0.063889	1783.19	102716
660	2.000000	1.192876	7.37151e+06	-44089.1	1005.82	-29776.8	0.000000	0.000000	7.198217	122.297	NaN	0.000000	0.001578	0.001637	28.0813	49.8858	0.001850	26964.2	3.700020	-3.025916	123.101	1.192560	0.045523	0.045208	122.297	26964.2	0.042122	0.069626	1756.47	93362.6
660	2.000000	1.195336	7.37151e+06	-44089.1	1005.82	-29776.8	0.000000	0.000000	7.201259	136.46	NaN	0.000000	0.001550	0.001618	28.0809	52.3416	0.001801	29056.2	3.837682	174.994	135.29	1.194998	0.047983	0.047646	136.46	29056.2	0.044461	0.076065	1793.99	96254.4
660	2.000000	1.197841	7.37151e+06	-44089.1	1005.82	-29776.8	0.000000	0.000000	7.204354	150.8	NaN	0.000000	0.001582	0.001608	28.081	53.7607	0.001681	31972.7	3.521758	-4.250296	146.809	1.197384	0.050488	0.050032	150.8	31972.7	0.046951	0.083222	1812.02	101259
660	2.000000	1.200303	7.37151e+06	-44089.1	1005.82	-29776.8	0.000000	0.000000	7.207124	158.29	NaN	0.000000	0.001595	0.001632	28.0824	55.969	0.001717	32588	4.221310	174.036	155.623	1.200066	0.052951	0.052713	158.29	32588	0.049308	0.090286	1753.21	99088.1
660	2.000000	1.202832	7.37151e+06	-44089.1	1005.82	-29776.8	0.000000	0.000000	7.210230	172.324	NaN	0.000000	0.001530	0.001614	28.0821	58.0551	0.001662	34922	2.809071	-5.416318	169.067	1.202480	0.055480	0.055128	172.324	34922	0.051779	0.097991	1758.58	101925
660	2.000000	1.205389	7.37151e+06	-44089.1	1005.82	-29776.8	0.000000	0.000000	7.212843	173.701	NaN	0.000000	0.001543	0.001617	28.0821	61.2953	0.001773	34579.7	0.920930	176.466	173.971	1.205152	0.058037	0.057800	173.701	34579.7	0.054269	0.106064	1637.69	97008.5
660	2.000000	1.207805	7.37151e+06	-44089.1	1005.82	-29776.8	0.000000	0.000000	7.216231	197.337	NaN	0.000000	0.001534	0.001631	28.0823	62.9725	0.001804	34907.3	2.826247	-4.421202	193.142	1.207429	0.060453	0.060077	197.337	34907.3	0.056213	0.112580	1752.86	95051.4
660	2.000000	1.210269	7.37151e+06	-44089.1	1005.82	-29776.8	0.000000	0.000000	7.219267	211.263	NaN	0.000000	0.001544	0.001644	28.0824	63.8587	0.001756	36376.1	-1.514717	179.343	206.277	1.209954	0.062917	0.062602	211.263	36376.1	0.058561	0.120699	1750.33	95661.7
660	2.000000	1.212797	7.37151e+06	-44089.1	1005.82	-29776.8	0.000000	0.000000	7.222294	223.389	NaN	0.000000	0.001566	0.001622	28.0824	68.5263	0.001915	35778.3	7.369960	-9.306566	219.468	1.212437	0.065445	0.065085	223.389	35778.3	0.060762	0.128555	1737.69	91169.3
660	2.000000	1.215260	7.37151e+06	-44089.1	1005.82	-29776.8	0.000000	0.000000	7.225333	237.42	NaN	0.000000	0.001580	0.001611	28.0826	68.7685	0.001805	38090.1	4.166768	173.181	233.768	1.214971	0.067907	0.067619	237.42	38090.1	0.063232	0.137654	1724.76	93797.5
660	2.000000	1.217779	7.37151e+06	-44089.1	1005.82	-29776.8	0.000000	0.000000	7.228525	253.778	NaN	0.000000	0.001546	0.001620	28.0826	70.3991	0.001690	41646.1	4.850915	-8.014020	247.882	1.217395	0.070427	0.070043	253.778	41646.1	0.065857	0.147642	1718.87	99024.3
660	2.000000	1.220316	7.37151e+06	-44089.1	1005.82	-29776.8	0.000000	0.000000	7.231625	267.477	NaN	0.000000	0.001567	0.001616	28.0825	73.7472	0.001779	41457.5	10.0708	166.921	266.946	1.219913	0.072963	0.072561	267.477	41457.5	0.068124	0.156542	1708.66	95732.9
660	2.000000	1.222807	7.37151e+06	-44089.1	1005.82	-29776.8	0.000000	0.000000	7.234856	285.489	NaN	0.000000	0.001533	0.001666	28.0824	76.1038	0.001801	42257.7	2.710271	-5.746567	283.441	1.222355	0.075455	0.075003	285.489	42257.7	0.070388	0.165668	1723.26	94855
660	2.000000	1.225352	7.37151e+06	-44089.1	1005.82	-29776.8	0.000000	0.000000	7.237832	295.959	NaN	0.000000	0.001553	0.001606	28.0824	79.7069	0.001827	43625.9	4.863917	171.679	298.785	1.225066	0.078000	0.077714	295.959	43625.9	0.072912	0.176135	1680.3	94971.9
660	2.000000	1.227815	7.37151e+06	-44089.1	1005.82	-29776.8	0.000000	0.000000	7.241189	317.712	NaN	0.000000	0.001534	0.001614	28.0827	80.5297	0.001897	42450.8	2.624033	-4.788657	313.737	1.227351	0.080463	0.079998	317.712	42450.8	0.074850	0.184375	1723.18	90325.1
660	2.000000	1.230295	7.37151e+06	-44089.1	1005.82	-29776.8	0.000000	0.000000	7.244124	328.765	NaN	0.000000	0.001550	0.001622	28.0825	83.6113	0.001890	44250	5.267067	171.227	329.08	1.230033	0.082943	0.082680	328.765	44250	0.077371	0.195357	1682.89	91468.4
660	2.000000	1.232890	7.37151e+06	-44089.1	1005.82	-29776.8	0.000000	0.000000	7.247205	340.604	NaN	0.000000	0.001531	0.001633	28.0814	86.071	0.001802	47760.6	4.135382	-8.590711	343.564	1.232609	0.085538	0.085257	340.604	47760.6	0.080189	0.207988	1637.61	95680.5
660	2.000000	1.235422	7.37151e+06	-44089.1	1005.82	-29776.8	0.000000	0.000000	7.250523	359.715	NaN	0.000000	0.001507	0.001666	28.081	89.2427	0.001806	49422.7	5.160994	170.711	365.691	1.234987	0.088070	0.087635	359.715	49422.7	0.082611	0.219139	1641.49	96458.2
660	2.000000	1.237749	7.37151e+06	-44089.1	1005.82	-29776.8	0.000000	0.000000	7.253890	385.046	NaN	0.000000	0.001586	0.001615	28.0815	88.7357	0.001815	48902.6	2.939561	-5.985192	377.749	1.237355	0.090396	0.090003	385.046	48902.6	0.084491	0.227980	1688.94	93574.4
660	2.000000	1.240238	7.37151e+06	-44089.1	1005.82	-29776.8	0.000000	0.000000	7.257000	400.122	NaN	0.000000	0.001577	0.001615	28.0812	91.4394	0.001708	53520.8	3.395791	171.681	397.197	1.239975	0.092886	0.092623	400.122	53520.8	0.087279	0.241394	1657.55	99525
660	2.000000	1.242768	7.37151e+06	-44089.1	1005.82	-29776.8	0.000000	0.000000	7.260743	429.658	NaN	0.000000	0.001529	0.001617	28.0814	92.9978	0.001836	50650.2	7.932939	-11.3663	426.027	1.242379	0.095415	0.095026	429.658	50650.2	0.089053	0.250115	1717.84	92530.3
660	2.000000	1.245172	7.37151e+06	-44089.1	1005.82	-29776.8	0.000000	0.000000	7.263647	441.826	NaN	0.000000	0.001521	0.001626	28.0816	96.3019	0.001830	52630.1	3.980730	171.336	435.237	1.244878	0.097820	0.097526	441.826	52630.1	0.091523	0.262500	1683.15	93851.9
660	2.000000	1.247728	7.37151e+06	-44089.1	1005.82	-29776.8	0.000000	0.000000	7.267104	463.738	NaN	0.000000	0.001540	0.001605	28.0813	99.0491	0.001837	53915.8	7.916910	-12.2617	458.648	1.247383	0.100375	0.100031	463.738	53915.8	0.093925	0.274807	1687.51	93967.1
660	2.000000	1.250175	7.37151e+06	-44089.1	1005.82	-29776.8	0.000000	0.000000	7.270314	482.287	NaN	0.000000	0.001506	0.001594	28.0816	100.583	0.001745	57628.1	4.539376	169.95	474.874	1.249983	0.102823	0.102631	482.287	57628.1	0.096546	0.288543	1671.46	98017.1
660	2.000000	1.251360	7.37151e+06	-44089.1	1005.82	-29776.8	0.000000	0.000000	7.271967	493.689	NaN	0.000000	0.001480	0.001628	28.0819	103.429	0.001806	57258.4	8.944052	165.904	496.672	1.250908	0.104008	0.103556	493.689	57258.4	0.097541	0.293839	1680.14	96506.7