File: remote_trans/data/nanoindenter/0828-1/data/Data_2025-08-06,11h17m57s/2025-07-22_16-23-58_1_1142.txt
2025-07-22, 16:23:58, 1
Index	Phase	Displacement	Time	Pos X	Pos Y	Pos Z	Rot A	Rot B	Piezo Z	Force A	Force B	Gripper	Voltage A	Voltage B	Temperature	Amplitude force	Amplitude pos	Stiffness	Phase shift	Phase excitation	Force A raw	Displacement raw	HMax	HMax raw	Real Force	Real Stiffness	Contact Depth	Area	Hardness	Reduced Mod.
[#]	[#]	[um]	[s]	[um]	[um]	[um]	[m°]	[m°]	[um]	[uN]	[uN]	[V]	[V]	[V]	[°C]	[uN]	[um]	[N/m]	[°]	[°]	[uN]	[um]	[um]	[um]	[uN]	[N/m]	[um]	[um^2]	[MPa]	[MPa]
1142	1.000000	0.002203	7.37623e+06	-57239.1	1055.82	-29737.3	0.000000	0.000000	6.002809	0.015186	NaN	0.000000	0.001572	0.001774	28.0833	0.064400	0.000852	75.5883	-156.224	-165.641	-0.029842	0.000949	-1.025705	-1.026960	0.015186	75.5883	-1.025856	-5.055148E+13	-3.004090E-16	NaN
1142	1.000000	0.010151	7.37623e+06	-57239.1	1055.82	-29737.3	0.000000	0.000000	6.010756	-0.002198	NaN	0.000000	0.001576	0.001746	28.0831	0.075522	0.000927	81.4982	-0.511445	-166.838	-0.107622	0.008811	-1.017757	-1.019097	-0.002198	81.4982	-1.017737	-3.931012E+13	5.591051E-17	NaN
1142	1.000000	0.018182	7.37623e+06	-57239.1	1055.82	-29737.3	0.000000	0.000000	6.018784	-0.063593	NaN	0.000000	0.001598	0.001775	28.083	0.079362	0.001726	45.9786	0.747551	-164.672	-0.050648	0.016848	-1.009726	-1.011061	-0.063593	45.9786	-1.008689	-2.969848E+13	2.141295E-15	NaN
1142	1.000000	0.026185	7.37623e+06	-57239.1	1055.82	-29737.3	0.000000	0.000000	6.026789	-0.008972	NaN	0.000000	0.001608	0.001745	28.0832	0.032427	0.001861	17.4223	-146.764	-165.977	0.016502	0.024848	-1.001723	-1.003061	-0.008972	17.4223	-1.001337	-2.364681E+13	3.794271E-16	NaN
1142	1.000000	0.034147	7.37623e+06	-57239.1	1055.82	-29737.3	0.000000	0.000000	6.034754	0.042347	NaN	0.000000	0.001559	0.001767	28.0832	0.047811	0.001957	24.4283	47.3434	-164.812	0.066549	0.032797	-0.993761	-0.995111	0.042347	24.4283	-0.995061	-1.946572E+13	-2.175459E-15	NaN
1142	1.000000	0.042137	7.37623e+06	-57239.1	1055.82	-29737.3	0.000000	0.000000	6.042744	0.065516	NaN	0.000000	0.001574	0.001779	28.0833	0.024099	0.002037	11.8295	4.315366	-166.725	-0.035424	0.040823	-0.985771	-0.987085	0.065516	11.8295	-0.989925	-1.659975E+13	-3.946823E-15	NaN
1142	1.000000	0.050172	7.37623e+06	-57239.1	1055.82	-29737.3	0.000000	0.000000	6.050776	-0.020569	NaN	0.000000	0.001588	0.001793	28.0833	0.026036	0.002080	12.5169	-127.677	-163.338	-0.021133	0.048860	-0.977736	-0.979048	-0.020569	12.5169	-0.976503	-1.094713E+13	1.878901E-15	NaN
1142	1.000000	0.058106	7.37623e+06	-57239.1	1055.82	-29737.3	0.000000	0.000000	6.058709	-0.057953	NaN	0.000000	0.001596	0.001773	28.0833	0.072819	0.002126	34.2453	155.206	-167.202	-0.065134	0.056830	-0.969802	-0.971078	-0.057953	34.2453	-0.968533	-8.548480E+12	6.779328E-15	NaN
1142	1.000000	0.066115	7.37623e+06	-57239.1	1055.82	-29737.3	0.000000	0.000000	6.066721	0.019080	NaN	0.000000	0.001623	0.001771	28.0816	0.080042	0.001959	40.85	59.0515	-167.219	-0.019977	0.064837	-0.961793	-0.963071	0.019080	40.85	-0.962143	-7.010744E+12	-2.721510E-15	NaN
1142	1.000000	0.074174	7.37623e+06	-57239.1	1055.82	-29737.3	0.000000	0.000000	6.074775	-0.074222	NaN	0.000000	0.001583	0.001748	28.0817	0.045670	0.002036	22.4273	11.6835	-166.697	-0.069555	0.072837	-0.953735	-0.955071	-0.074222	22.4273	-0.951253	-4.999433E+12	1.484618E-14	NaN
1142	1.000000	0.082160	7.37623e+06	-57239.1	1055.82	-29737.3	0.000000	0.000000	6.082764	-0.030519	NaN	0.000000	0.001582	0.001776	28.0819	0.087517	0.002062	42.4452	11.2158	-166.004	-0.041847	0.080887	-0.945748	-0.947022	-0.030519	42.4452	-0.945209	-4.143836E+12	7.364815E-15	NaN
1142	1.000000	0.090154	7.37623e+06	-57239.1	1055.82	-29737.3	0.000000	0.000000	6.090758	-0.010156	NaN	0.000000	0.001627	0.001761	28.0819	0.047775	0.002098	22.7757	142.47	-166.161	0.038561	0.088867	-0.937755	-0.939041	-0.010156	22.7757	-0.937420	-3.253355E+12	3.121633E-15	NaN
1142	1.000000	0.098199	7.37623e+06	-57239.1	1055.82	-29737.3	0.000000	0.000000	6.098802	-0.041520	NaN	0.000000	0.001646	0.001761	28.082	0.066642	0.001988	33.5182	-124.186	-168.561	-0.043956	0.096872	-0.929709	-0.931036	-0.041520	33.5182	-0.928780	-2.487327E+12	1.669254E-14	NaN
1142	1.000000	0.106165	7.37623e+06	-57239.1	1055.82	-29737.3	0.000000	0.000000	6.106769	-0.012845	NaN	0.000000	0.001659	0.001758	28.0815	0.131222	0.001836	71.4846	-100.449	-164.852	0.019414	0.104868	-0.921743	-0.923040	-0.012845	71.4846	-0.921608	-1.990313E+12	6.453786E-15	NaN
1142	1.000000	0.114170	7.37623e+06	-57239.1	1055.82	-29737.3	0.000000	0.000000	6.114776	0.012676	NaN	0.000000	0.001618	0.001749	28.0817	0.085943	0.001986	43.2683	-37.0194	-168.364	-0.056393	0.112898	-0.913738	-0.915011	0.012676	43.2683	-0.913958	-1.568967E+12	-8.079295E-15	NaN
1142	1.000000	0.122173	7.37623e+06	-57239.1	1055.82	-29737.3	0.000000	0.000000	6.122777	-0.005039	NaN	0.000000	0.001587	0.001740	28.0816	0.057496	0.001989	28.9066	106.095	-165.952	-0.077715	0.120852	-0.905736	-0.907057	-0.005039	28.9066	-0.905605	-1.210019E+12	4.164058E-15	NaN
1142	1.000000	0.130150	7.37623e+06	-57239.1	1055.82	-29737.3	0.000000	0.000000	6.130752	-0.068446	NaN	0.000000	0.001602	0.001763	28.0815	0.049034	0.002065	23.7418	175.226	-167.224	-0.006177	0.128895	-0.897758	-0.899014	-0.068446	23.7418	-0.895596	-8.862484E+11	7.723145E-14	NaN
1142	1.000000	0.138180	7.37623e+06	-57239.1	1055.82	-29737.3	0.000000	0.000000	6.138784	-0.005444	NaN	0.000000	0.001548	0.001793	28.0818	0.036323	0.001899	19.127	122.081	-165.506	0.019513	0.136874	-0.889728	-0.891034	-0.005444	19.127	-0.889515	-7.334263E+11	7.422099E-15	NaN
1142	1.000000	0.146231	7.37623e+06	-57239.1	1055.82	-29737.3	0.000000	0.000000	6.146837	0.034927	NaN	0.000000	0.001593	0.001820	28.0814	0.026599	0.002053	12.9532	81.9801	-164.935	0.029843	0.144873	-0.881677	-0.883035	0.034927	12.9532	-0.883699	-6.119731E+11	-5.707310E-14	NaN
1142	1.000000	0.154191	7.37623e+06	-57239.1	1055.82	-29737.3	0.000000	0.000000	6.154792	-0.082288	NaN	0.000000	0.001594	0.001839	28.0819	0.017795	0.002015	8.830236	-26.9427	-165.936	-0.013765	0.152859	-0.873717	-0.875049	-0.082288	8.830236	-0.866728	-3.607246E+11	2.281177E-13	NaN
1142	1.000000	0.162196	7.37623e+06	-57239.1	1055.82	-29737.3	0.000000	0.000000	6.162802	0.024746	NaN	0.000000	0.001585	0.001761	28.0815	0.048113	0.002012	23.9171	-121.948	-164.411	0.023452	0.160879	-0.865712	-0.867029	0.024746	23.9171	-0.866488	-3.580340E+11	-6.911691E-14	NaN
1142	1.000000	0.170215	7.37623e+06	-57239.1	1055.82	-29737.3	0.000000	0.000000	6.170817	-0.057211	NaN	0.000000	0.001624	0.001739	28.0816	0.067077	0.001922	34.8949	11.2437	-164.102	0.028653	0.168891	-0.857694	-0.859017	-0.057211	34.8949	-0.856464	-2.619742E+11	2.183834E-13	NaN
1142	1.000000	0.178189	7.37623e+06	-57239.1	1055.82	-29737.3	0.000000	0.000000	6.178793	-0.008929	NaN	0.000000	0.001594	0.001756	28.0816	0.086815	0.001998	43.4434	162.022	-165.954	-0.012350	0.176883	-0.849719	-0.851025	-0.008929	43.4434	-0.849565	-2.112748E+11	4.226341E-14	NaN
1142	1.000000	0.186188	7.37623e+06	-57239.1	1055.82	-29737.3	0.000000	0.000000	6.186792	-0.011031	NaN	0.000000	0.001582	0.001740	28.0815	0.074859	0.001974	37.9258	-149.744	-166.731	-0.011178	0.184901	-0.841721	-0.843008	-0.011031	37.9258	-0.841502	-1.643037E+11	6.713905E-14	NaN
1142	1.000000	0.194206	7.37623e+06	-57239.1	1055.82	-29737.3	0.000000	0.000000	6.194809	-0.046118	NaN	0.000000	0.001611	0.001743	28.0825	0.103394	0.002003	51.6128	-151.14	-166.054	-0.049322	0.192888	-0.833702	-0.835021	-0.046118	51.6128	-0.833032	-1.261479E+11	3.655851E-13	NaN
1142	1.000000	0.202212	7.37623e+06	-57239.1	1055.82	-29737.3	0.000000	0.000000	6.202816	-0.018838	NaN	0.000000	0.001591	0.001764	28.0828	0.096207	0.001965	48.9567	58.6901	-168.561	-0.052108	0.200909	-0.825696	-0.826999	-0.018838	48.9567	-0.825407	-9.943255E+10	1.894521E-13	NaN
1142	1.000000	0.210205	7.37623e+06	-57239.1	1055.82	-29737.3	0.000000	0.000000	6.210806	-0.070893	NaN	0.000000	0.001594	0.001740	28.083	0.147325	0.002026	72.7115	-156.839	-168.17	-0.013885	0.208920	-0.817704	-0.818988	-0.070893	72.7115	-0.816972	-7.641020E+10	9.277987E-13	NaN
1142	1.000000	0.218228	7.37623e+06	-57239.1	1055.82	-29737.3	0.000000	0.000000	6.218830	-0.070268	NaN	0.000000	0.001571	0.001727	28.0828	0.020421	0.002026	10.0793	-177.412	-164.925	-0.027029	0.216883	-0.809680	-0.811026	-0.070268	10.0793	-0.804452	-5.167532E+10	1.359797E-12	NaN
1142	1.000000	0.226216	7.37623e+06	-57239.1	1055.82	-29737.3	0.000000	0.000000	6.226821	0.015462	NaN	0.000000	0.001580	0.001738	28.0829	0.034652	0.002080	16.6607	159.478	-165.123	0.010856	0.224890	-0.801692	-0.803018	0.015462	16.6607	-0.802388	-4.844862E+10	-3.191476E-13	NaN
1142	1.000000	0.234219	7.37623e+06	-57239.1	1055.82	-29737.3	0.000000	0.000000	6.234825	0.023181	NaN	0.000000	0.001571	0.001745	28.0834	0.065971	0.002056	32.0935	-179.147	-166.291	-0.045762	0.232905	-0.793689	-0.795003	0.023181	32.0935	-0.794231	-3.754388E+10	-6.174324E-13	NaN
1142	1.000000	0.242211	7.37623e+06	-57239.1	1055.82	-29737.3	0.000000	0.000000	6.242811	-0.101886	NaN	0.000000	0.001591	0.001720	28.0829	0.053850	0.001894	28.4308	152.825	-167.468	-0.047019	0.240904	-0.785698	-0.787004	-0.101886	28.4308	-0.783010	-2.643194E+10	3.854658E-12	NaN
1142	1.000000	0.250253	7.37623e+06	-57239.1	1055.82	-29737.3	0.000000	0.000000	6.250856	-0.041589	NaN	0.000000	0.001570	0.001706	28.0832	0.058311	0.002059	28.3267	171.464	-169.537	0.043504	0.248912	-0.777656	-0.778996	-0.041589	28.3267	-0.776554	-2.159764E+10	1.925621E-12	NaN
1142	1.000000	0.258194	7.37623e+06	-57239.1	1055.82	-29737.3	0.000000	0.000000	6.258797	-0.031080	NaN	0.000000	0.001566	0.001746	28.0832	0.133474	0.002205	60.5291	-77.8631	-165.411	-0.030362	0.256965	-0.769714	-0.770943	-0.031080	60.5291	-0.769329	-1.722607E+10	1.804253E-12	NaN
1142	1.000000	0.266221	7.37623e+06	-57239.1	1055.82	-29737.3	0.000000	0.000000	6.266824	-0.053093	NaN	0.000000	0.001617	0.001733	28.0829	0.035543	0.001911	18.595	110.673	-164.508	-0.004217	0.264938	-0.761687	-0.762970	-0.053093	18.595	-0.759546	-1.268008E+10	4.187140E-12	NaN
1142	1.000000	0.274198	7.37623e+06	-57239.1	1055.82	-29737.3	0.000000	0.000000	6.274803	-0.000778	NaN	0.000000	0.001597	0.001718	28.083	0.073537	0.002089	35.2003	-156.07	-167.975	-0.031663	0.272875	-0.753710	-0.755033	-0.000778	35.2003	-0.753694	-1.055586E+10	7.374018E-14	NaN
1142	1.000000	0.282251	7.37623e+06	-57239.1	1055.82	-29737.3	0.000000	0.000000	6.282851	-0.111936	NaN	0.000000	0.001578	0.001732	28.0829	0.038706	0.001885	20.536	134.453	-164.042	-0.014792	0.280911	-0.745657	-0.746997	-0.111936	20.536	-0.741569	-7.218248E+9	1.550739E-11	NaN
1142	1.000000	0.290225	7.37623e+06	-57239.1	1055.82	-29737.3	0.000000	0.000000	6.290827	-0.041559	NaN	0.000000	0.001556	0.001698	28.0833	0.069956	0.001896	36.8962	-34.3732	-166.709	-0.028577	0.288911	-0.737684	-0.738997	-0.041559	36.8962	-0.736839	-6.222973E+9	6.678260E-12	NaN
1142	1.000000	0.298251	7.37623e+06	-57239.1	1055.82	-29737.3	0.000000	0.000000	6.298855	-0.028224	NaN	0.000000	0.001592	0.001726	28.0829	0.099030	0.001865	53.0964	42.2171	-169.547	-0.028094	0.296891	-0.729657	-0.731017	-0.028224	53.0964	-0.729259	-4.905714E+9	5.753348E-12	NaN
1142	1.000000	0.306258	7.37623e+06	-57239.1	1055.82	-29737.3	0.000000	0.000000	6.306863	0.022220	NaN	0.000000	0.001533	0.001738	28.0828	0.053727	0.002002	26.8405	140.432	-165.398	-0.009767	0.304975	-0.721651	-0.722933	0.022220	26.8405	-0.722271	-3.939573E+9	-5.640250E-12	NaN
1142	1.000000	0.314239	7.37623e+06	-57239.1	1055.82	-29737.3	0.000000	0.000000	6.314846	0.045312	NaN	0.000000	0.001547	0.001716	28.0829	0.110721	0.002047	54.0889	70.5949	-164.193	-0.053126	0.312904	-0.713669	-0.715005	0.045312	54.0889	-0.714297	-3.066795E+9	-1.477494E-11	NaN
1142	1.000000	0.322264	7.37623e+06	-57239.1	1055.82	-29737.3	0.000000	0.000000	6.322867	-0.051163	NaN	0.000000	0.001567	0.001738	28.0828	0.081573	0.002001	40.7731	-98.5358	-167.026	-0.036411	0.320905	-0.705644	-0.707004	-0.051163	40.7731	-0.704703	-2.268547E+9	2.255339E-11	NaN
1142	1.000000	0.330240	7.37623e+06	-57239.1	1055.82	-29737.3	0.000000	0.000000	6.330843	-0.034583	NaN	0.000000	0.001588	0.001700	28.083	0.037605	0.002102	17.8931	124.582	-165.178	-0.113987	0.328910	-0.697669	-0.698998	-0.034583	17.8931	-0.696219	-1.737354E+9	1.990580E-11	NaN
1142	1.000000	0.338271	7.37623e+06	-57239.1	1055.82	-29737.3	0.000000	0.000000	6.338873	-0.063088	NaN	0.000000	0.001578	0.001731	28.0817	0.034799	0.001993	17.4614	-106.482	-166.133	-0.022710	0.337020	-0.689638	-0.690889	-0.063088	17.4614	-0.686928	-1.296972E+9	4.864272E-11	NaN
1142	1.000000	0.346273	7.37623e+06	-57239.1	1055.82	-29737.3	0.000000	0.000000	6.346878	0.016421	NaN	0.000000	0.001578	0.001722	28.0818	0.090316	0.001894	47.6802	-163.907	-163.886	-0.058031	0.344955	-0.681636	-0.682953	0.016421	47.6802	-0.681894	-1.106899E+9	-1.483488E-11	NaN
1142	1.000000	0.354280	7.37623e+06	-57239.1	1055.82	-29737.3	0.000000	0.000000	6.354881	-0.085727	NaN	0.000000	0.001596	0.001697	28.0816	0.085478	0.002084	41.0127	71.836	-166.883	-0.011739	0.352962	-0.673628	-0.674946	-0.085727	41.0127	-0.672061	-8.120693E+8	1.055657E-10	NaN
1142	1.000000	0.362248	7.37623e+06	-57239.1	1055.82	-29737.3	0.000000	0.000000	6.362849	-0.074156	NaN	0.000000	0.001592	0.001675	28.0816	0.021141	0.002031	10.4103	167.039	-169.229	-0.173035	0.360984	-0.665661	-0.666924	-0.074156	10.4103	-0.660318	-5.608223E+8	1.322279E-10	NaN
1142	1.000000	0.370247	7.37623e+06	-57239.1	1055.82	-29737.3	0.000000	0.000000	6.370853	0.028107	NaN	0.000000	0.001601	0.001688	28.0821	0.028372	0.001963	14.4518	-63.0852	-162.879	0.002902	0.368976	-0.657662	-0.658932	0.028107	14.4518	-0.659120	-5.400293E+8	-5.204803E-11	NaN
1142	1.000000	0.378275	7.37623e+06	-57239.1	1055.82	-29737.3	0.000000	0.000000	6.378876	-0.077195	NaN	0.000000	0.001604	0.001705	28.0815	0.127064	0.001845	68.8776	28.5047	-165.526	-0.090436	0.376933	-0.649633	-0.650975	-0.077195	68.8776	-0.648793	-3.898411E+8	1.980157E-10	NaN
1142	1.000000	0.386310	7.37623e+06	-57239.1	1055.82	-29737.3	0.000000	0.000000	6.386916	0.026404	NaN	0.000000	0.001606	0.001702	28.0818	0.014148	0.002003	7.062017	-67.4999	-170.717	0.022298	0.385027	-0.641598	-0.642881	0.026404	7.062017	-0.644402	-3.393733E+8	-7.780211E-11	NaN
1142	1.000000	0.394314	7.37623e+06	-57239.1	1055.82	-29737.3	0.000000	0.000000	6.394915	-0.085319	NaN	0.000000	0.001617	0.001692	28.0814	0.139304	0.002010	69.306	103.813	-162.767	-0.054821	0.393010	-0.633594	-0.634899	-0.085319	69.306	-0.632671	-2.342598E+8	3.642072E-10	NaN
1142	1.000000	0.402269	7.37623e+06	-57239.1	1055.82	-29737.3	0.000000	0.000000	6.402872	-0.038948	NaN	0.000000	0.001623	0.001734	28.0817	0.095160	0.001992	47.7817	62.5239	-166.11	-0.031799	0.400972	-0.625639	-0.626937	-0.038948	47.7817	-0.625028	-1.839601E+8	2.117204E-10	NaN
1142	1.000000	0.410298	7.37623e+06	-57239.1	1055.82	-29737.3	0.000000	0.000000	6.410903	0.002602	NaN	0.000000	0.001621	0.001688	28.0814	0.107012	0.002047	52.289	102.507	-167.507	-0.028881	0.409032	-0.617610	-0.618876	0.002602	52.289	-0.617647	-1.456441E+8	-1.786336E-11	NaN
1142	1.000000	0.418323	7.37623e+06	-57239.1	1055.82	-29737.3	0.000000	0.000000	6.418927	-0.028663	NaN	0.000000	0.001612	0.001680	28.0814	0.071470	0.001990	35.9129	-77.2603	-168.067	-0.012170	0.417017	-0.609585	-0.610892	-0.028663	35.9129	-0.608987	-1.107059E+8	2.589108E-10	NaN
1142	1.000000	0.426325	7.37623e+06	-57239.1	1055.82	-29737.3	0.000000	0.000000	6.426928	-0.043957	NaN	0.000000	0.001623	0.001762	28.0815	0.051287	0.001982	25.8787	106.826	-166.949	-0.028940	0.424984	-0.601583	-0.602925	-0.043957	25.8787	-0.600309	-8.408511E+7	5.227636E-10	NaN
1142	1.000000	0.434294	7.37623e+06	-57239.1	1055.82	-29737.3	0.000000	0.000000	6.434899	0.015828	NaN	0.000000	0.001639	0.001683	28.0812	0.035478	0.001963	18.0757	-17.4445	-165.108	0.011921	0.432956	-0.593615	-0.594952	0.015828	18.0757	-0.594271	-6.942907E+7	-2.279770E-10	NaN
1142	1.000000	0.442306	7.37623e+06	-57239.1	1055.82	-29737.3	0.000000	0.000000	6.442911	0.020409	NaN	0.000000	0.001657	0.001736	28.0816	0.108034	0.001916	56.3892	62.7852	-167.281	0.010549	0.441014	-0.585603	-0.586894	0.020409	56.3892	-0.585874	-5.318313E+7	-3.837546E-10	NaN
1142	1.000000	0.450294	7.37623e+06	-57239.1	1055.82	-29737.3	0.000000	0.000000	6.450897	-0.041827	NaN	0.000000	0.001607	0.001691	28.0813	0.017890	0.002123	8.425837	-112.575	-163.719	-0.061212	0.449073	-0.577615	-0.578835	-0.041827	8.425837	-0.573892	-3.634045E+7	1.150984E-9	NaN
1142	1.000000	0.458351	7.37623e+06	-57239.1	1055.82	-29737.3	0.000000	0.000000	6.458957	0.016399	NaN	0.000000	0.001585	0.001753	28.0813	0.077573	0.002107	36.8215	44.8649	-165.848	-0.026640	0.457013	-0.569557	-0.570895	0.016399	36.8215	-0.569891	-3.199813E+7	-5.124918E-10	NaN
1142	1.000000	0.466287	7.37623e+06	-57239.1	1055.82	-29737.3	0.000000	0.000000	6.466894	0.047980	NaN	0.000000	0.001599	0.001753	28.0814	0.044675	0.001985	22.5062	-156.115	-171.934	-0.119880	0.465007	-0.561621	-0.562901	0.047980	22.5062	-0.563220	-2.587713E+7	-1.854135E-9	NaN
1142	1.000000	0.474306	7.37623e+06	-57239.1	1055.82	-29737.3	0.000000	0.000000	6.474908	-0.068583	NaN	0.000000	0.001582	0.001776	28.0825	0.065783	0.002030	32.4083	-2.881217	-164.395	0.008832	0.473051	-0.553602	-0.554857	-0.068583	32.4083	-0.552015	-1.810769E+7	3.787515E-9	NaN
1142	1.000000	0.482309	7.37623e+06	-57239.1	1055.82	-29737.3	0.000000	0.000000	6.482913	-0.013296	NaN	0.000000	0.001586	0.001768	28.0827	0.046591	0.001990	23.411	-12.3452	-163.336	0.031543	0.481004	-0.545599	-0.546904	-0.013296	23.411	-0.545173	-1.455735E+7	9.133502E-10	NaN
1142	1.000000	0.490337	7.37623e+06	-57239.1	1055.82	-29737.3	0.000000	0.000000	6.490942	0.013520	NaN	0.000000	0.001585	0.001714	28.0825	0.047274	0.002047	23.0968	95.3346	-168.689	-0.006967	0.489015	-0.537571	-0.538893	0.013520	23.0968	-0.538010	-1.158129E+7	-1.167367E-9	NaN
1142	1.000000	0.498334	7.37623e+06	-57239.1	1055.82	-29737.3	0.000000	0.000000	6.498941	0.057470	NaN	0.000000	0.001594	0.001722	28.0828	0.041143	0.002115	19.4505	-156.358	-159.349	0.046939	0.497032	-0.529574	-0.530876	0.057470	19.4505	-0.531790	-9.49372e+06	-6.053429E-9	NaN
1142	1.000000	0.506305	7.37623e+06	-57239.1	1055.82	-29737.3	0.000000	0.000000	6.506908	-0.021978	NaN	0.000000	0.001679	0.001751	28.0826	0.047518	0.001972	24.0958	124.607	-168.538	-0.082689	0.505042	-0.521604	-0.522866	-0.021978	24.0958	-0.520920	-6.7048e+06	3.277944E-9	NaN
1142	1.000000	0.514335	7.37623e+06	-57239.1	1055.82	-29737.3	0.000000	0.000000	6.514939	-0.023284	NaN	0.000000	0.001641	0.001722	28.0828	0.056527	0.001849	30.5789	69.2823	-167.343	0.058897	0.513018	-0.513573	-0.514890	-0.023284	30.5789	-0.513002	-5.20263e+06	4.475378E-9	NaN
1142	1.000000	0.522357	7.37623e+06	-57239.1	1055.82	-29737.3	0.000000	0.000000	6.522962	-0.002793	NaN	0.000000	0.001641	0.001712	28.0828	0.052973	0.002006	26.4077	-175.272	-164.881	0.013288	0.521054	-0.505551	-0.506855	-0.002793	26.4077	-0.505472	-4.08621e+06	6.835742E-10	NaN
1142	1.000000	0.530334	7.37623e+06	-57239.1	1055.82	-29737.3	0.000000	0.000000	6.530940	0.053117	NaN	0.000000	0.001652	0.001717	28.0826	0.079662	0.002027	39.3085	121.685	-163.874	-0.002498	0.529044	-0.497575	-0.498864	0.053117	39.3085	-0.498588	-3.27582e+06	-1.621495E-8	NaN
1142	1.000000	0.538338	7.37623e+06	-57239.1	1055.82	-29737.3	0.000000	0.000000	6.538937	-0.128954	NaN	0.000000	0.001684	0.001733	28.0828	0.090886	0.002026	44.8601	78.6584	-169.837	-0.086573	0.537042	-0.489570	-0.490867	-0.128954	44.8601	-0.487414	-2.28692e+06	5.638781E-8	NaN
1142	1.000000	0.546363	7.37623e+06	-57239.1	1055.82	-29737.3	0.000000	0.000000	6.546967	-0.026873	NaN	0.000000	0.001679	0.001726	28.0826	0.032051	0.002007	15.9688	-137.039	-164.53	0.014562	0.545023	-0.481545	-0.482886	-0.026873	15.9688	-0.480283	-1.81756e+06	1.478542E-8	NaN
1142	1.000000	0.554372	7.37623e+06	-57239.1	1055.82	-29737.3	0.000000	0.000000	6.554974	-0.061595	NaN	0.000000	0.001676	0.001681	28.0827	0.062100	0.002057	30.1847	-127.755	-164.864	-0.046446	0.553106	-0.473536	-0.474802	-0.061595	30.1847	-0.472006	-1.39166e+06	4.426012E-8	NaN
1142	1.000000	0.562352	7.37623e+06	-57239.1	1055.82	-29737.3	0.000000	0.000000	6.562957	-0.007632	NaN	0.000000	0.001674	0.001719	28.0828	0.025883	0.002066	12.5307	83.1212	-166.614	0.061159	0.561063	-0.465556	-0.466845	-0.007632	12.5307	-0.465099	-1.11338e+06	6.854753E-9	NaN
1142	1.000000	0.570359	7.37623e+06	-57239.1	1055.82	-29737.3	0.000000	0.000000	6.570966	0.040984	NaN	0.000000	0.001615	0.001743	28.0828	0.066326	0.002030	32.6744	165.026	-166.616	-0.047328	0.569068	-0.457549	-0.458841	0.040984	32.6744	-0.458490	-899068	-4.558516E-8	NaN
1142	1.000000	0.578350	7.37623e+06	-57239.1	1055.82	-29737.3	0.000000	0.000000	6.578954	-0.037584	NaN	0.000000	0.001673	0.001722	28.0828	0.091690	0.002064	44.4295	-93.2993	-167.29	-0.020494	0.577079	-0.449558	-0.450829	-0.037584	44.4295	-0.448923	-659448	5.699351E-8	NaN
1142	1.000000	0.586338	7.37623e+06	-57239.1	1055.82	-29737.3	0.000000	0.000000	6.586940	-0.068623	NaN	0.000000	0.001648	0.001752	28.0827	0.068196	0.002107	32.3615	95.5215	-165.379	-0.035958	0.585080	-0.441570	-0.442829	-0.068623	32.3615	-0.439979	-493258	1.391218E-7	NaN
1142	1.000000	0.594374	7.37623e+06	-57239.1	1055.82	-29737.3	0.000000	0.000000	6.594977	-0.053923	NaN	0.000000	0.001645	0.001744	28.0828	0.066186	0.002079	31.836	117.838	-162.688	-0.026733	0.593081	-0.433534	-0.434827	-0.053923	31.836	-0.432264	-383778	1.405061E-7	NaN
1142	1.000000	0.602377	7.37623e+06	-57239.1	1055.82	-29737.3	0.000000	0.000000	6.602981	-0.007650	NaN	0.000000	0.001654	0.001724	28.0828	0.160654	0.002085	77.052	7.538756	-167.678	-0.006016	0.601075	-0.425532	-0.426833	-0.007650	77.052	-0.425457	-307440	2.488328E-8	NaN
1142	1.000000	0.610405	7.37623e+06	-57239.1	1055.82	-29737.3	0.000000	0.000000	6.611008	-0.035502	NaN	0.000000	0.001663	0.001752	28.0817	0.062795	0.001975	31.7892	-61.3422	-166.131	0.023405	0.609073	-0.417503	-0.418835	-0.035502	31.7892	-0.416666	-230731	1.538679E-7	NaN
1142	1.000000	0.618379	7.37623e+06	-57239.1	1055.82	-29737.3	0.000000	0.000000	6.618982	-0.033383	NaN	0.000000	0.001600	0.001757	28.0814	0.036589	0.001848	19.7959	-10.761	-166.76	0.013398	0.617047	-0.409530	-0.410861	-0.033383	19.7959	-0.408265	-175276	1.904596E-7	NaN
1142	1.000000	0.626400	7.37623e+06	-57239.1	1055.82	-29737.3	0.000000	0.000000	6.627001	-0.068912	NaN	0.000000	0.001592	0.001737	28.0816	0.030637	0.001989	15.4034	-69.8582	-163.566	-0.103037	0.625081	-0.401509	-0.402827	-0.068912	15.4034	-0.398153	-125791	5.478263E-7	NaN
1142	1.000000	0.634433	7.37623e+06	-57239.1	1055.82	-29737.3	0.000000	0.000000	6.635036	-0.047474	NaN	0.000000	0.001602	0.001764	28.0817	0.153414	0.002037	75.3153	-137.851	-165.601	0.025413	0.633059	-0.393475	-0.394850	-0.047474	75.3153	-0.393002	-106192	4.470565E-7	NaN
1142	1.000000	0.642426	7.37623e+06	-57239.1	1055.82	-29737.3	0.000000	0.000000	6.643030	-0.016340	NaN	0.000000	0.001570	0.001782	28.0815	0.117184	0.001943	60.3202	101.568	-163.446	0.016646	0.641097	-0.385483	-0.386811	-0.016340	60.3202	-0.385279	-82336.1	1.984596E-7	NaN
1142	1.000000	0.650410	7.37623e+06	-57239.1	1055.82	-29737.3	0.000000	0.000000	6.651012	-0.075545	NaN	0.000000	0.001560	0.001769	28.0816	0.026429	0.002015	13.1141	-17.8494	-168.114	-0.116266	0.649071	-0.377498	-0.378837	-0.075545	13.1141	-0.373178	-55190.5	1.368804E-6	NaN
1142	1.000000	0.658389	7.37623e+06	-57239.1	1055.82	-29737.3	0.000000	0.000000	6.658994	0.009520	NaN	0.000000	0.001609	0.001714	28.0815	0.060252	0.001988	30.3018	-145.126	-165.85	0.036520	0.657109	-0.369520	-0.370800	0.009520	30.3018	-0.369755	-49272.2	-1.932112E-7	NaN
1142	1.000000	0.666415	7.37623e+06	-57239.1	1055.82	-29737.3	0.000000	0.000000	6.667018	-0.019389	NaN	0.000000	0.001567	0.001735	28.0816	0.003887	0.001984	1.958966	-25.1837	-164.798	-0.038850	0.665101	-0.361494	-0.362807	-0.019389	1.958966	-0.354070	-29243.6	6.630338E-7	NaN
1142	1.000000	0.674402	7.37623e+06	-57239.1	1055.82	-29737.3	0.000000	0.000000	6.675006	0.007367	NaN	0.000000	0.001613	0.001752	28.0818	0.020941	0.002011	10.4122	147.796	-169.009	0.005091	0.673063	-0.353507	-0.354846	0.007367	10.4122	-0.354037	-29211.4	-2.521993E-7	NaN
1142	1.000000	0.682412	7.37623e+06	-57239.1	1055.82	-29737.3	0.000000	0.000000	6.683016	-0.019899	NaN	0.000000	0.001602	0.001743	28.0818	0.044016	0.001980	22.2288	150.59	-168.242	-0.044938	0.681087	-0.345496	-0.346822	-0.019899	22.2288	-0.344825	-21468.8	9.268753E-7	NaN
1142	1.000000	0.690386	7.37623e+06	-57239.1	1055.82	-29737.3	0.000000	0.000000	6.690989	-0.031440	NaN	0.000000	0.001591	0.001744	28.0816	0.034662	0.001901	18.2366	17.4673	-170.069	-0.064271	0.689123	-0.337523	-0.338786	-0.031440	18.2366	-0.336230	-16089.8	1.954028E-6	NaN
1142	1.000000	0.698425	7.37623e+06	-57239.1	1055.82	-29737.3	0.000000	0.000000	6.699031	0.029631	NaN	0.000000	0.001573	0.001770	28.0816	0.080370	0.002017	39.8484	-96.8081	-168.287	0.010780	0.697113	-0.329484	-0.330795	0.029631	39.8484	-0.330041	-13063.4	-2.268228E-6	NaN
1142	1.000000	0.706424	7.37623e+06	-57239.1	1055.82	-29737.3	0.000000	0.000000	6.707030	0.016438	NaN	0.000000	0.001634	0.001748	28.0814	0.038805	0.001793	21.6444	-30.1447	-168.127	-0.014981	0.705100	-0.321484	-0.322808	0.016438	21.6444	-0.322053	-9973.47	-1.648197E-6	NaN
1142	1.000000	0.714454	7.37623e+06	-57239.1	1055.82	-29737.3	0.000000	0.000000	6.715059	0.012441	NaN	0.000000	0.001573	0.001749	28.0815	0.048494	0.002011	24.1137	-55.0507	-168.092	0.068669	0.713109	-0.313455	-0.314799	0.012441	24.1137	-0.313842	-7548.25	-1.648177E-6	NaN
1142	1.000000	0.722435	7.37623e+06	-57239.1	1055.82	-29737.3	0.000000	0.000000	6.723037	-0.044854	NaN	0.000000	0.001578	0.001734	28.0816	0.015889	0.001877	8.465138	54.2803	-166.822	-0.071353	0.721149	-0.305474	-0.306760	-0.044854	8.465138	-0.301500	-4953.94	9.054245E-6	NaN
1142	1.000000	0.730411	7.37623e+06	-57239.1	1055.82	-29737.3	0.000000	0.000000	6.731018	0.042719	NaN	0.000000	0.001600	0.001751	28.0815	0.131004	0.001850	70.8091	-100.246	-167.669	0.034696	0.729111	-0.297497	-0.298798	0.042719	70.8091	-0.297950	-4386.26	-9.739233E-6	NaN
1142	1.000000	0.738442	7.37623e+06	-57239.1	1055.82	-29737.3	0.000000	0.000000	6.739048	0.024472	NaN	0.000000	0.001587	0.001783	28.0818	0.066262	0.002023	32.7537	-13.0611	-167.487	0.033768	0.737213	-0.289466	-0.290696	0.024472	32.7537	-0.290026	-3339.62	-7.327770E-6	NaN
1142	1.000000	0.746465	7.37623e+06	-57239.1	1055.82	-29737.3	0.000000	0.000000	6.747071	0.035569	NaN	0.000000	0.001583	0.001729	28.0826	0.037105	0.001907	19.4551	83.8784	-165.67	0.046073	0.745172	-0.281444	-0.282736	0.035569	19.4551	-0.282815	-2602.5	-1.366708E-5	NaN
1142	1.000000	0.754469	7.37623e+06	-57239.1	1055.82	-29737.3	0.000000	0.000000	6.755074	0.003276	NaN	0.000000	0.001597	0.001733	28.0829	0.058413	0.001961	29.7923	23.8393	-167.714	-0.001866	0.753136	-0.273439	-0.274772	0.003276	29.7923	-0.273522	-1883.67	-1.738941E-6	NaN
1142	1.000000	0.762452	7.37623e+06	-57239.1	1055.82	-29737.3	0.000000	0.000000	6.763055	-0.018631	NaN	0.000000	0.001566	0.001759	28.0827	0.149316	0.002007	74.3843	153.08	-164.604	0.055476	0.761066	-0.265457	-0.266843	-0.018631	74.3843	-0.265269	-1410.89	1.320481E-5	NaN
1142	1.000000	0.770478	7.37623e+06	-57239.1	1055.82	-29737.3	0.000000	0.000000	6.771081	-0.038208	NaN	0.000000	0.001562	0.001760	28.0828	0.025861	0.002062	12.5442	-172.953	-164.18	0.038526	0.769113	-0.257430	-0.258795	-0.038208	12.5442	-0.255146	-987.101	3.870723E-5	NaN
1142	1.000000	0.778446	7.37623e+06	-57239.1	1055.82	-29737.3	0.000000	0.000000	6.779052	0.025762	NaN	0.000000	0.001583	0.001755	28.0829	0.066491	0.001987	33.4608	-23.0921	-167.59	-0.084310	0.777139	-0.249462	-0.250769	0.025762	33.4608	-0.250039	-823.33	-3.128970E-5	NaN
1142	1.000000	0.786479	7.37623e+06	-57239.1	1055.82	-29737.3	0.000000	0.000000	6.787083	-0.000828	NaN	0.000000	0.001577	0.001764	28.083	0.057074	0.002019	28.2691	149.832	-170.943	-0.019434	0.785143	-0.241430	-0.242765	-0.000828	28.2691	-0.241408	-604.679	1.369583E-6	NaN
1142	1.000000	0.794451	7.37623e+06	-57239.1	1055.82	-29737.3	0.000000	0.000000	6.795053	-0.057203	NaN	0.000000	0.001576	0.001783	28.083	0.056376	0.002044	27.5752	-89.9262	-164.765	0.063001	0.793092	-0.233458	-0.234816	-0.057203	27.5752	-0.231902	-429.057	0.000133	NaN
1142	1.000000	0.802427	7.37623e+06	-57239.1	1055.82	-29737.3	0.000000	0.000000	6.803032	-0.001498	NaN	0.000000	0.001618	0.001810	28.0828	0.021472	0.001974	10.8798	-173.833	-164.598	-0.021052	0.801155	-0.225481	-0.226753	-0.001498	10.8798	-0.225378	-338.328	4.428926E-6	NaN
1142	1.000000	0.810422	7.37623e+06	-57239.1	1055.82	-29737.3	0.000000	0.000000	6.811025	-0.027729	NaN	0.000000	0.001636	0.001789	28.0829	0.029081	0.001979	14.6917	155.85	-166.542	-0.062939	0.809139	-0.217486	-0.218769	-0.027729	14.6917	-0.216071	-240.286	0.000115	NaN
1142	1.000000	0.818476	7.37623e+06	-57239.1	1055.82	-29737.3	0.000000	0.000000	6.819076	-0.110180	NaN	0.000000	0.001609	0.001800	28.0828	0.078905	0.001931	40.8593	68.2344	-165.441	-0.064668	0.817171	-0.209432	-0.210737	-0.110180	40.8593	-0.207410	-174.098	0.000633	NaN
1142	1.000000	0.826509	7.37623e+06	-57239.1	1055.82	-29737.3	0.000000	0.000000	6.827114	0.014028	NaN	0.000000	0.001637	0.001768	28.083	0.038833	0.002031	19.1225	-89.3378	-164.275	-0.029381	0.825132	-0.201400	-0.202777	0.014028	19.1225	-0.201950	-141.807	-9.892162E-5	NaN
1142	1.000000	0.834458	7.37623e+06	-57239.1	1055.82	-29737.3	0.000000	0.000000	6.835063	-0.001388	NaN	0.000000	0.001644	0.001772	28.0831	0.069240	0.001965	35.2394	-129.019	-162.451	-0.011442	0.833102	-0.193450	-0.194806	-0.001388	35.2394	-0.193421	-102.566	1.353329E-5	NaN
1142	1.000000	0.842477	7.37623e+06	-57239.1	1055.82	-29737.3	0.000000	0.000000	6.843081	-0.021651	NaN	0.000000	0.001615	0.001801	28.0828	0.189470	0.002023	93.6412	-133.634	-164.953	-0.033859	0.841127	-0.185432	-0.186781	-0.021651	93.6412	-0.185258	-74.9	0.000289	NaN
1142	1.000000	0.850457	7.37623e+06	-57239.1	1055.82	-29737.3	0.000000	0.000000	6.851063	0.038159	NaN	0.000000	0.001604	0.001803	28.0831	0.041166	0.002018	20.3984	161.72	-164.497	0.018924	0.849181	-0.177451	-0.178728	0.038159	20.3984	-0.178854	-58.3378	-0.000654	NaN
1142	1.000000	0.858474	7.37623e+06	-57239.1	1055.82	-29737.3	0.000000	0.000000	6.859078	-0.015239	NaN	0.000000	0.001601	0.001782	28.0829	0.160625	0.001997	80.4151	70.7037	-165.828	0.058740	0.857156	-0.169434	-0.170752	-0.015239	80.4151	-0.169292	-39.9309	0.000382	NaN
1142	1.000000	0.866502	7.37623e+06	-57239.1	1055.82	-29737.3	0.000000	0.000000	6.867106	-0.005941	NaN	0.000000	0.001615	0.001784	28.083	0.039996	0.001923	20.7952	-2.836345	-168.812	0.020305	0.865167	-0.161407	-0.162741	-0.005941	20.7952	-0.161192	-28.7835	0.000206	NaN
1142	1.000000	0.874466	7.37623e+06	-57239.1	1055.82	-29737.3	0.000000	0.000000	6.875070	-0.016716	NaN	0.000000	0.001560	0.001767	28.083	0.125107	0.002099	59.5895	-176.137	-162.061	0.011230	0.873194	-0.153442	-0.154714	-0.016716	59.5895	-0.153232	-20.7343	0.000806	NaN
1142	1.000000	0.882522	7.37623e+06	-57239.1	1055.82	-29737.3	0.000000	0.000000	6.883125	-0.033863	NaN	0.000000	0.001545	0.001747	28.0818	0.098145	0.001969	49.8558	18.7749	-168.024	-0.089989	0.881169	-0.145386	-0.146740	-0.033863	49.8558	-0.144877	-14.5843	0.002322	NaN
1142	1.000000	0.890511	7.37623e+06	-57239.1	1055.82	-29737.3	0.000000	0.000000	6.891115	-0.021239	NaN	0.000000	0.001535	0.001746	28.0819	0.152235	0.001891	80.4862	-179.712	-163.715	0.007978	0.889143	-0.137397	-0.138765	-0.021239	80.4862	-0.137199	-10.4743	0.002028	NaN
1142	1.000000	0.898507	7.37623e+06	-57239.1	1055.82	-29737.3	0.000000	0.000000	6.899110	-0.041147	NaN	0.000000	0.001559	0.001752	28.0816	0.094949	0.001911	49.6829	12.5438	-165.866	-0.051041	0.897208	-0.129402	-0.130700	-0.041147	49.6829	-0.128781	-7.215614	0.005703	NaN
1142	1.000000	0.906499	7.37623e+06	-57239.1	1055.82	-29737.3	0.000000	0.000000	6.907100	-0.075535	NaN	0.000000	0.001518	0.001757	28.0818	0.065877	0.002000	32.9356	140.757	-167.034	0.017791	0.905205	-0.121410	-0.122704	-0.075535	32.9356	-0.119689	-4.762234	0.015861	NaN
1142	1.000000	0.914515	7.37623e+06	-57239.1	1055.82	-29737.3	0.000000	0.000000	6.915119	-0.013169	NaN	0.000000	0.001525	0.001747	28.0816	0.014647	0.001967	7.444821	-21.9689	-167.511	-0.001195	0.913220	-0.113393	-0.114688	-0.013169	7.444821	-0.112067	-3.320795	0.003966	NaN
1142	1.000000	0.922512	7.37623e+06	-57239.1	1055.82	-29737.3	0.000000	0.000000	6.923117	0.017404	NaN	0.000000	0.001538	0.001737	28.0818	0.104538	0.002019	51.789	-128.565	-166.379	0.063645	0.921197	-0.105396	-0.106712	0.017404	51.789	-0.105649	-2.427506	-0.007170	NaN
1142	1.000000	0.930517	7.37623e+06	-57239.1	1055.82	-29737.3	0.000000	0.000000	6.931119	-0.050892	NaN	0.000000	0.001530	0.001741	28.0819	0.089729	0.002171	41.3389	-12.6189	-164.739	-0.029268	0.929197	-0.097392	-0.098711	-0.050892	41.3389	-0.096468	-1.523117	0.033413	NaN
1142	1.000000	0.938538	7.37623e+06	-57239.1	1055.82	-29737.3	0.000000	0.000000	6.939141	-0.037230	NaN	0.000000	0.001530	0.001707	28.0817	0.026059	0.001982	13.1451	-74.3514	-167.026	-0.032258	0.937274	-0.089370	-0.090634	-0.037230	13.1451	-0.087246	-0.930374	0.040016	NaN
1142	1.000000	0.946549	7.37623e+06	-57239.1	1055.82	-29737.3	0.000000	0.000000	6.947153	-0.015948	NaN	0.000000	0.001558	0.001709	28.0819	0.075175	0.002128	35.3281	-83.9973	-167.231	-0.035498	0.945250	-0.081359	-0.082659	-0.015948	35.3281	-0.081020	-0.656323	0.024299	NaN
1142	1.000000	0.954541	7.37623e+06	-57239.1	1055.82	-29737.3	0.000000	0.000000	6.955144	-0.041707	NaN	0.000000	0.001567	0.001711	28.0822	0.033490	0.002034	16.465	-84.4402	-162.232	-0.081212	0.953227	-0.073367	-0.074682	-0.041707	16.465	-0.071467	-0.373241	0.111744	NaN
1142	1.000000	0.962525	7.37623e+06	-57239.1	1055.82	-29737.3	0.000000	0.000000	6.963127	-0.047105	NaN	0.000000	0.001523	0.001722	28.0822	0.047387	0.002055	23.0648	-90.0836	-166.258	0.019386	0.961199	-0.065384	-0.066709	-0.047105	23.0648	-0.063852	-0.231529	0.203453	NaN
1142	1.000000	0.970514	7.37623e+06	-57239.1	1055.82	-29737.3	0.000000	0.000000	6.971117	-0.041241	NaN	0.000000	0.001506	0.001716	28.0819	0.076047	0.002184	34.828	75.8147	-166.466	-0.044296	0.969198	-0.057394	-0.058710	-0.041241	34.828	-0.056506	-0.142616	0.289171	NaN
1142	1.000000	0.978554	7.37623e+06	-57239.1	1055.82	-29737.3	0.000000	0.000000	6.979155	-0.096240	NaN	0.000000	0.001551	0.001693	28.0818	0.081882	0.002014	40.6611	-62.3549	-168.708	-0.033233	0.977249	-0.049354	-0.050659	-0.096240	40.6611	-0.047579	-0.077045	1.249138	NaN
1142	1.000000	0.986533	7.37623e+06	-57239.1	1055.82	-29737.3	0.000000	0.000000	6.987139	0.036326	NaN	0.000000	0.001570	0.001705	28.0821	0.050731	0.002017	25.1529	-5.409481	-165.359	-0.003667	0.985221	-0.041375	-0.042688	0.036326	25.1529	-0.042458	-0.053737	-0.675985	NaN
1142	1.000000	0.994536	7.37623e+06	-57239.1	1055.82	-29737.3	0.000000	0.000000	6.995139	-0.040828	NaN	0.000000	0.001580	0.001727	28.0819	0.039781	0.002017	19.7184	111.352	-165.387	-0.015301	0.993230	-0.033372	-0.034678	-0.040828	19.7184	-0.031819	-0.025897	1.576543	NaN
1142	1.000000	1.002500	7.37623e+06	-57239.1	1055.82	-29737.3	0.000000	0.000000	7.003104	-0.011912	NaN	0.000000	0.001559	0.001718	28.0821	0.096089	0.001934	49.675	-141.853	-168.35	0.008569	1.001205	-0.025408	-0.026703	-0.011912	49.675	-0.025228	-0.017104	0.696449	NaN
1142	1.000000	1.010530	7.37623e+06	-57239.1	1055.82	-29737.3	0.000000	0.000000	7.011133	-0.030566	NaN	0.000000	0.001544	0.001701	28.0819	0.048797	0.001849	26.3902	165.222	-164.671	-0.083556	1.009249	-0.017379	-0.018659	-0.030566	26.3902	-0.016510	-0.010200	2.996547	NaN
1142	1.000000	1.018550	7.37623e+06	-57239.1	1055.82	-29737.3	0.000000	0.000000	7.019150	-0.102790	NaN	0.000000	0.001556	0.001693	28.0827	0.064474	0.001936	33.3079	-75.8311	-167.582	0.027029	1.017252	-0.009358	-0.010656	-0.102790	33.3079	-0.007044	-0.004667	22.0267	NaN
1142	1.000000	1.026564	7.37623e+06	-57239.1	1055.82	-29737.3	0.000000	0.000000	7.027179	0.246123	NaN	0.000000	0.001539	0.001689	28.0832	0.671281	0.001988	337.642	7.291672	-165.591	0.021068	1.025231	-0.001344	-0.002678	0.246123	337.642	-0.001891	-0.001364	-180.503	NaN
1142	2.000000	1.033965	7.37623e+06	-57239.1	1055.82	-29737.3	0.000000	0.000000	7.034935	8.882888	NaN	0.000000	0.001542	0.001697	28.0831	8.109750	0.001683	4819.51	10.6882	-173.909	8.320202	1.033132	0.006057	0.005224	8.882888	4819.51	0.004674	0.003838	2314.35	71074.4
1142	2.000000	1.036129	7.37623e+06	-57239.1	1055.82	-29737.3	0.000000	0.000000	7.037192	11.1487	NaN	0.000000	0.001572	0.001691	28.0835	9.560402	0.001609	5940.67	0.736275	-168.401	10.6209	1.035819	0.008220	0.007910	11.1487	5940.67	0.006813	0.005850	1905.88	70965
1142	2.000000	1.038109	7.37623e+06	-57239.1	1055.82	-29737.3	0.000000	0.000000	7.039254	13.1396	NaN	0.000000	0.001536	0.001670	28.0832	11.4062	0.001672	6821.22	1.527459	-169.62	12.7084	1.037787	0.010200	0.009879	13.1396	6821.22	0.008756	0.007831	1677.84	70423.8
1142	2.000000	1.040091	7.37623e+06	-57239.1	1055.82	-29737.3	0.000000	0.000000	7.041271	13.9851	NaN	0.000000	0.001547	0.001666	28.083	13.6634	0.001797	7601.74	9.604146	-178.404	14.4524	1.039823	0.012183	0.011915	13.9851	7601.74	0.010803	0.010087	1386.4	69150.9
1142	2.000000	1.042119	7.37623e+06	-57239.1	1055.82	-29737.3	0.000000	0.000000	7.043467	18.0587	NaN	0.000000	0.001553	0.001685	28.0829	15.9264	0.001757	9065.06	9.399552	-178.123	18.4595	1.041732	0.014211	0.013824	18.0587	9065.06	0.012717	0.012360	1461.08	74496.9
1142	2.000000	1.044062	7.37623e+06	-57239.1	1055.82	-29737.3	0.000000	0.000000	7.045526	20.8843	NaN	0.000000	0.001546	0.001734	28.083	17.3119	0.001795	9641.99	5.209759	-176.909	19.8246	1.043746	0.016154	0.015838	20.8843	9641.99	0.014529	0.014663	1424.32	72750.2
1142	2.000000	1.046068	7.37623e+06	-57239.1	1055.82	-29737.3	0.000000	0.000000	7.047639	23.485	NaN	0.000000	0.001597	0.001745	28.0833	20.6257	0.001924	10721.2	9.419886	179.085	23.1147	1.045714	0.018160	0.017806	23.485	10721.2	0.016517	0.017362	1352.67	74338.8
1142	2.000000	1.048045	7.37623e+06	-57239.1	1055.82	-29737.3	0.000000	0.000000	7.049788	27.6685	NaN	0.000000	0.001570	0.001710	28.0831	20.8948	0.001739	12017.9	4.797762	-177.991	26.7052	1.047752	0.020137	0.019844	27.6685	12017.9	0.018410	0.020106	1376.15	77435.8
1142	2.000000	1.050026	7.37623e+06	-57239.1	1055.82	-29737.3	0.000000	0.000000	7.052001	33.32	NaN	0.000000	0.001553	0.001713	28.0839	23.9833	0.001850	12963.3	6.459452	-179.866	32.221	1.049742	0.022117	0.021833	33.32	12963.3	0.020190	0.022841	1458.78	78366.5
1142	2.000000	1.052072	7.37623e+06	-57239.1	1055.82	-29737.3	0.000000	0.000000	7.054214	37.3806	NaN	0.000000	0.001576	0.001737	28.0831	25.5327	0.001812	14090.7	6.648488	179.169	36.7631	1.051765	0.024163	0.023856	37.3806	14090.7	0.022174	0.026074	1433.66	79726.9
1142	2.000000	1.054041	7.37623e+06	-57239.1	1055.82	-29737.3	0.000000	0.000000	7.056382	42.1926	NaN	0.000000	0.001623	0.001737	28.0831	26.8198	0.001861	14409	4.016964	-177.85	41.2571	1.053653	0.026133	0.025745	42.1926	14409	0.023937	0.029110	1449.42	77158.9
1142	2.000000	1.056061	7.37623e+06	-57239.1	1055.82	-29737.3	0.000000	0.000000	7.058589	46.7365	NaN	0.000000	0.001545	0.001721	28.0834	29.4532	0.001943	15161.5	5.925269	-179.638	46.0832	1.055692	0.028153	0.027784	46.7365	15161.5	0.025841	0.032563	1435.25	76763
1142	2.000000	1.058083	7.37623e+06	-57239.1	1055.82	-29737.3	0.000000	0.000000	7.060827	51.987	NaN	0.000000	0.001537	0.001717	28.0831	30.5587	0.001837	16637.2	2.711952	-178.086	53.3417	1.057724	0.030175	0.029816	51.987	16637.2	0.027831	0.036368	1429.47	79706.5
1142	2.000000	1.060001	7.37623e+06	-57239.1	1055.82	-29737.3	0.000000	0.000000	7.062996	58.0828	NaN	0.000000	0.001538	0.001763	28.0845	31.4987	0.001771	17782.9	3.190002	-178.722	56.389	1.059745	0.032093	0.031836	58.0828	17782.9	0.029643	0.040007	1451.8	81228
1142	2.000000	1.062075	7.37623e+06	-57239.1	1055.82	-29737.3	0.000000	0.000000	7.065315	64.0425	NaN	0.000000	0.001582	0.001710	28.083	33.7727	0.001760	19190	6.874092	178.157	63.8362	1.061594	0.034167	0.033686	64.0425	19190	0.031664	0.044263	1446.87	83335.1
1142	2.000000	1.064014	7.37623e+06	-57239.1	1055.82	-29737.3	0.000000	0.000000	7.067551	71.2738	NaN	0.000000	0.001555	0.001714	28.0825	34.9639	0.001689	20700.5	1.608571	-179.334	68.8102	1.063707	0.036106	0.035799	71.2738	20700.5	0.033524	0.048364	1473.69	85998.7
1142	2.000000	1.066025	7.37623e+06	-57239.1	1055.82	-29737.3	0.000000	0.000000	7.069790	76.8136	NaN	0.000000	0.001556	0.001706	28.0819	38.7025	0.001756	22038.9	6.288751	175.194	77.1118	1.065767	0.038117	0.037859	76.8136	22038.9	0.035503	0.052923	1451.42	87526.4
1142	2.000000	1.067970	7.37623e+06	-57239.1	1055.82	-29737.3	0.000000	0.000000	7.072005	83.3709	NaN	0.000000	0.001567	0.001683	28.0818	39.5968	0.001810	21879.5	4.874926	177.236	82.4014	1.067797	0.040062	0.039888	83.3709	21879.5	0.037204	0.057002	1462.6	83727
1142	2.000000	1.070036	7.37623e+06	-57239.1	1055.82	-29737.3	0.000000	0.000000	7.074484	93.4163	NaN	0.000000	0.001601	0.001709	28.0827	42.4688	0.001855	22893.9	3.285142	179.035	93.5996	1.069659	0.042128	0.041751	93.4163	22893.9	0.039068	0.061641	1515.5	84248.1
1142	2.000000	1.072028	7.37623e+06	-57239.1	1055.82	-29737.3	0.000000	0.000000	7.076914	104.059	NaN	0.000000	0.001546	0.001706	28.0818	44.366	0.001736	25554	7.551136	173.34	103.354	1.071709	0.044120	0.043800	104.059	25554	0.041066	0.066812	1557.49	90324.4
1142	2.000000	1.073966	7.37623e+06	-57239.1	1055.82	-29737.3	0.000000	0.000000	7.079185	112.136	NaN	0.000000	0.001597	0.001678	28.082	45.3325	0.001797	25232.1	3.169018	178.047	110.431	1.073711	0.046058	0.045802	112.136	25232.1	0.042725	0.071260	1573.63	86358.5
1142	2.000000	1.075995	7.37623e+06	-57239.1	1055.82	-29737.3	0.000000	0.000000	7.081387	116.365	NaN	0.000000	0.001591	0.001775	28.0818	48.4087	0.001927	25124.3	5.551382	175.607	114.202	1.075644	0.048086	0.047735	116.365	25124.3	0.044613	0.076492	1521.28	82996.7
1142	2.000000	1.077996	7.37623e+06	-57239.1	1055.82	-29737.3	0.000000	0.000000	7.083765	125.509	NaN	0.000000	0.001547	0.001756	28.0817	48.021	0.001715	28004.2	0.748797	178.686	123.463	1.077662	0.050088	0.049754	125.509	28004.2	0.046726	0.082564	1520.14	89043.2
1142	2.000000	1.080037	7.37623e+06	-57239.1	1055.82	-29737.3	0.000000	0.000000	7.086049	131.432	NaN	0.000000	0.001566	0.001744	28.0822	51.5708	0.001830	28179.2	8.735784	171.858	132.358	1.079675	0.052128	0.051767	131.432	28179.2	0.048630	0.088226	1489.72	86677.1
1142	2.000000	1.082025	7.37623e+06	-57239.1	1055.82	-29737.3	0.000000	0.000000	7.088530	143.405	NaN	0.000000	0.001578	0.001723	28.0816	52.5959	0.001729	30419.7	4.421514	175.163	143.721	1.081646	0.054117	0.053738	143.405	30419.7	0.050581	0.094219	1522.04	90543.9
1142	2.000000	1.083953	7.37623e+06	-57239.1	1055.82	-29737.3	0.000000	0.000000	7.090806	151.851	NaN	0.000000	0.001606	0.001704	28.0819	53.6314	0.001847	29037.8	2.444310	178.15	148.63	1.083682	0.056045	0.055774	151.851	29037.8	0.052123	0.099087	1532.5	84280.7
1142	2.000000	1.085936	7.37623e+06	-57239.1	1055.82	-29737.3	0.000000	0.000000	7.093095	159.311	NaN	0.000000	0.001558	0.001699	28.0818	56.6041	0.001797	31496.5	4.755190	174.145	155.967	1.085646	0.058028	0.057738	159.311	31496.5	0.054234	0.105948	1503.66	88407.5
1142	2.000000	1.087959	7.37623e+06	-57239.1	1055.82	-29737.3	0.000000	0.000000	7.095627	171.674	NaN	0.000000	0.001571	0.001709	28.0817	57.647	0.001730	33318	4.650361	174.349	170.791	1.087627	0.060051	0.059718	171.674	33318	0.056187	0.112490	1526.12	90760.1
1142	2.000000	1.089961	7.37623e+06	-57239.1	1055.82	-29737.3	0.000000	0.000000	7.097979	180.175	NaN	0.000000	0.001568	0.001735	28.0821	60.1476	0.001746	34443.1	4.818623	173.118	177.559	1.089626	0.062053	0.061717	180.175	34443.1	0.058129	0.119186	1511.72	91151.3
1142	2.000000	1.092038	7.37623e+06	-57239.1	1055.82	-29737.3	0.000000	0.000000	7.100340	187.083	NaN	0.000000	0.001584	0.001751	28.0819	62.8243	0.001746	35991.2	5.519719	172.971	188.405	1.091706	0.064130	0.063797	187.083	35991.2	0.060232	0.126640	1477.28	92402.7
1142	2.000000	1.093993	7.37623e+06	-57239.1	1055.82	-29737.3	0.000000	0.000000	7.102962	203.294	NaN	0.000000	0.001543	0.001763	28.0816	63.5733	0.001751	36302.3	2.250724	175.481	201.448	1.093628	0.066085	0.065720	203.294	36302.3	0.061885	0.132654	1532.52	91064.3
1142	2.000000	1.095957	7.37623e+06	-57239.1	1055.82	-29737.3	0.000000	0.000000	7.105167	209.137	NaN	0.000000	0.001536	0.001752	28.0817	67.4578	0.001776	37978.5	5.693467	171.836	208.898	1.095640	0.068049	0.067731	209.137	37978.5	0.063919	0.140235	1491.33	92657.9
1142	2.000000	1.097906	7.37623e+06	-57239.1	1055.82	-29737.3	0.000000	0.000000	7.107654	222.232	NaN	0.000000	0.001524	0.001724	28.082	67.9672	0.001762	38578	5.752590	171.494	217.805	1.097667	0.069997	0.069758	222.232	38578	0.065677	0.146948	1512.32	91945.8
1142	2.000000	1.100036	7.37623e+06	-57239.1	1055.82	-29737.3	0.000000	0.000000	7.110165	231.473	NaN	0.000000	0.001522	0.001719	28.083	71.5074	0.001984	36045.5	6.860248	171.755	233.606	1.099660	0.072128	0.071752	231.473	36045.5	0.067312	0.153325	1509.69	84104.3
1142	2.000000	1.102050	7.37623e+06	-57239.1	1055.82	-29737.3	0.000000	0.000000	7.112626	242.372	NaN	0.000000	0.001544	0.001712	28.0827	72.2159	0.001803	40056.8	6.114844	171.559	247.16	1.101673	0.074141	0.073764	242.372	40056.8	0.069603	0.162478	1491.72	90792.9
1142	2.000000	1.103966	7.37623e+06	-57239.1	1055.82	-29737.3	0.000000	0.000000	7.115320	261.271	NaN	0.000000	0.001564	0.001740	28.083	72.466	0.001725	42011.7	4.744800	173.137	260.054	1.103560	0.076057	0.075651	261.271	42011.7	0.071393	0.169801	1538.69	93148.1
1142	2.000000	1.105982	7.37623e+06	-57239.1	1055.82	-29737.3	0.000000	0.000000	7.117582	267.242	NaN	0.000000	0.001542	0.001727	28.0829	76.0237	0.001873	40598.7	4.559191	172.467	267.648	1.105676	0.078074	0.077767	267.242	40598.7	0.073137	0.177083	1509.14	88144.8
1142	2.000000	1.107965	7.37623e+06	-57239.1	1055.82	-29737.3	0.000000	0.000000	7.120048	278.965	NaN	0.000000	0.001555	0.001709	28.0829	76.5705	0.001838	41660.3	3.106988	173.675	277.456	1.107726	0.080057	0.079818	278.965	41660.3	0.075035	0.185170	1506.53	88452.4
1142	2.000000	1.109971	7.37623e+06	-57239.1	1055.82	-29737.3	0.000000	0.000000	7.122727	295.346	NaN	0.000000	0.001561	0.001697	28.0831	79.8106	0.001829	43625.5	8.259960	168.381	294.836	1.109668	0.082063	0.081760	295.346	43625.5	0.076985	0.193657	1525.09	90572.6
1142	2.000000	1.111989	7.37623e+06	-57239.1	1055.82	-29737.3	0.000000	0.000000	7.125322	309.364	NaN	0.000000	0.001535	0.001759	28.0827	82.3934	0.001673	49262.6	11.1554	164.644	311.018	1.111609	0.084080	0.083700	309.364	49262.6	0.079370	0.204280	1514.41	99581.3
1142	2.000000	1.113904	7.37623e+06	-57239.1	1055.82	-29737.3	0.000000	0.000000	7.127747	321.751	NaN	0.000000	0.001561	0.001730	28.083	81.8127	0.001897	43122.4	1.273666	175.263	316.859	1.113694	0.085996	0.085786	321.751	43122.4	0.080400	0.208945	1539.88	86190.6
1142	2.000000	1.115877	7.37623e+06	-57239.1	1055.82	-29737.3	0.000000	0.000000	7.130386	337.937	NaN	0.000000	0.001556	0.001741	28.083	85.0122	0.001721	49408.8	7.670339	167.644	333.358	1.115543	0.087969	0.087635	337.937	49408.8	0.082839	0.220202	1534.67	96198.2
1142	2.000000	1.117883	7.37623e+06	-57239.1	1055.82	-29737.3	0.000000	0.000000	7.133045	353.811	NaN	0.000000	0.001556	0.001756	28.0829	83.9549	0.001724	48690.2	-0.267523	176.443	349.584	1.117619	0.089975	0.089710	353.811	48690.2	0.084525	0.228141	1550.84	93134.9
1142	2.000000	1.119996	7.37623e+06	-57239.1	1055.82	-29737.3	0.000000	0.000000	7.135784	369.025	NaN	0.000000	0.001526	0.001761	28.083	87.7553	0.001713	51214.6	6.803045	169.175	371.877	1.119570	0.092088	0.091662	369.025	51214.6	0.086684	0.238499	1547.28	95812.9
1142	2.000000	1.122082	7.37623e+06	-57239.1	1055.82	-29737.3	0.000000	0.000000	7.138423	382.457	NaN	0.000000	0.001577	0.001752	28.0828	90.3551	0.001767	51121.8	7.381422	169.258	385.905	1.121564	0.094174	0.093655	382.457	51121.8	0.088563	0.247691	1544.09	93847.7
1142	2.000000	1.123926	7.37623e+06	-57239.1	1055.82	-29737.3	0.000000	0.000000	7.140827	396.096	NaN	0.000000	0.001575	0.001745	28.083	91.4426	0.001773	51577.8	4.902740	170.789	396.11	1.123538	0.096017	0.095629	396.096	51577.8	0.090258	0.256119	1546.53	93114
1142	2.000000	1.125961	7.37623e+06	-57239.1	1055.82	-29737.3	0.000000	0.000000	7.143432	409.918	NaN	0.000000	0.001555	0.001753	28.0829	93.3275	0.001882	49589.4	1.222526	175.079	410.13	1.125649	0.098053	0.097741	409.918	49589.4	0.091853	0.264176	1551.69	88148.6
1142	2.000000	1.127875	7.37623e+06	-57239.1	1055.82	-29737.3	0.000000	0.000000	7.145682	418.119	NaN	0.000000	0.001522	0.001732	28.0831	93.463	0.001688	55377.7	0.313807	174.686	413.884	1.127703	0.099966	0.099795	418.119	55377.7	0.094304	0.276774	1510.69	96171.4
1142	2.000000	1.129889	7.37623e+06	-57239.1	1055.82	-29737.3	0.000000	0.000000	7.148718	442.949	NaN	0.000000	0.001556	0.001709	28.0829	95.9909	0.001845	52023.1	5.548196	170.604	440.365	1.129531	0.101980	0.101623	442.949	52023.1	0.095594	0.283521	1562.32	89264.2
1142	2.000000	1.131878	7.37623e+06	-57239.1	1055.82	-29737.3	0.000000	0.000000	7.151193	454.756	NaN	0.000000	0.001574	0.001717	28.0827	97.1454	0.001695	57296.5	3.333422	172.005	448.373	1.131465	0.103969	0.103557	454.756	57296.5	0.098017	0.296385	1534.34	96155.3
1142	2.000000	1.132480	7.37623e+06	-57239.1	1055.82	-29737.3	0.000000	0.000000	7.151762	453.953	NaN	0.000000	0.001584	0.001717	28.0817	98.1591	0.001669	58801.1	6.352181	-11.7606	455.692	1.132129	0.104572	0.104221	453.953	58801.1	0.098782	0.300506	1510.63	98001.3