File: remote_trans/data/nanoindenter/0828-1/data/Data_2025-08-06,11h17m57s/2025-07-22_16-23-58_1_593.txt
2025-07-22, 16:23:58, 1
Index	Phase	Displacement	Time	Pos X	Pos Y	Pos Z	Rot A	Rot B	Piezo Z	Force A	Force B	Gripper	Voltage A	Voltage B	Temperature	Amplitude force	Amplitude pos	Stiffness	Phase shift	Phase excitation	Force A raw	Displacement raw	HMax	HMax raw	Real Force	Real Stiffness	Contact Depth	Area	Hardness	Reduced Mod.
[#]	[#]	[um]	[s]	[um]	[um]	[um]	[m°]	[m°]	[um]	[uN]	[uN]	[V]	[V]	[V]	[°C]	[uN]	[um]	[N/m]	[°]	[°]	[uN]	[um]	[um]	[um]	[uN]	[N/m]	[um]	[um^2]	[MPa]	[MPa]
593	1.000000	0.002519	7.37085e+06	-47439.1	1005.82	-29765.9	0.000000	0.000000	6.002799	-0.031714	NaN	0.000000	0.001604	0.001782	28.0808	0.057911	0.000934	61.984	177.93	-169.851	0.000912	0.001245	-1.100597	-1.101872	-0.031714	61.984	-1.100214	-5.045854E+14	6.285157E-17	NaN
593	1.000000	0.012587	7.37085e+06	-47439.1	1005.82	-29765.9	0.000000	0.000000	6.012869	0.017761	NaN	0.000000	0.001598	0.001747	28.0809	0.063370	0.001241	51.0811	151.02	15.6458	0.036965	0.011128	-1.090530	-1.091988	0.017761	51.0811	-1.090791	-3.770756E+14	-4.710311E-17	NaN
593	1.000000	0.022485	7.37085e+06	-47439.1	1005.82	-29765.9	0.000000	0.000000	6.022766	-0.007301	NaN	0.000000	0.001593	0.001757	28.0807	0.016514	0.001826	9.043869	103.853	-163.206	0.055417	0.021176	-1.080632	-1.081940	-0.007301	9.043869	-1.080026	-2.703152E+14	2.700910E-17	NaN
593	1.000000	0.032459	7.37085e+06	-47439.1	1005.82	-29765.9	0.000000	0.000000	6.032742	0.025265	NaN	0.000000	0.001598	0.001774	28.0808	0.056092	0.002029	27.6399	-176.855	12.7101	0.001313	0.031075	-1.070657	-1.072042	0.025265	27.6399	-1.071343	-2.066459E+14	-1.222614E-16	NaN
593	1.000000	0.042481	7.37085e+06	-47439.1	1005.82	-29765.9	0.000000	0.000000	6.042762	-0.016406	NaN	0.000000	0.001642	0.001801	28.081	0.034649	0.002008	17.2581	98.7429	-164.679	-0.027877	0.041167	-1.060635	-1.061950	-0.016406	17.2581	-1.059922	-1.451374E+14	1.130366E-16	NaN
593	1.000000	0.052492	7.37085e+06	-47439.1	1005.82	-29765.9	0.000000	0.000000	6.052777	0.089875	NaN	0.000000	0.001640	0.001756	28.081	0.109323	0.001959	55.8069	125.081	16.3408	0.103245	0.051064	-1.050624	-1.052053	0.089875	55.8069	-1.051832	-1.129902E+14	-7.954203E-16	NaN
593	1.000000	0.062484	7.37085e+06	-47439.1	1005.82	-29765.9	0.000000	0.000000	6.062768	0.072715	NaN	0.000000	0.001595	0.001770	28.0795	0.038035	0.001895	20.0689	178.958	-163.991	0.075082	0.061174	-1.040633	-1.041942	0.072715	20.0689	-1.043350	-8.689892E+13	-8.367754E-16	NaN
593	1.000000	0.072491	7.37085e+06	-47439.1	1005.82	-29765.9	0.000000	0.000000	6.072772	0.001865	NaN	0.000000	0.001634	0.001779	28.0793	0.095919	0.002032	47.1967	-65.8095	11.1218	0.030500	0.071127	-1.030626	-1.031990	0.001865	47.1967	-1.030656	-5.865398E+13	-3.179668E-17	NaN
593	1.000000	0.082481	7.37085e+06	-47439.1	1005.82	-29765.9	0.000000	0.000000	6.082761	-0.025729	NaN	0.000000	0.001625	0.001775	28.0798	0.016513	0.002047	8.068647	-156.077	-166.578	0.001359	0.081188	-1.020635	-1.021929	-0.025729	8.068647	-1.018244	-3.993200E+13	6.443130E-16	NaN
593	1.000000	0.092451	7.37085e+06	-47439.1	1005.82	-29765.9	0.000000	0.000000	6.092734	0.033087	NaN	0.000000	0.001624	0.001780	28.0797	0.089290	0.002029	44.0089	-161.939	14.9978	0.042860	0.091140	-1.010665	-1.011977	0.033087	44.0089	-1.011229	-3.213101E+13	-1.029758E-15	NaN
593	1.000000	0.102507	7.37085e+06	-47439.1	1005.82	-29765.9	0.000000	0.000000	6.102793	0.099946	NaN	0.000000	0.001629	0.001812	28.0797	0.128635	0.002018	63.7296	-174.275	-166.522	0.064978	0.101159	-1.000609	-1.001958	0.099946	63.7296	-1.001786	-2.397771E+13	-4.168268E-15	NaN
593	1.000000	0.112452	7.37085e+06	-47439.1	1005.82	-29765.9	0.000000	0.000000	6.112736	0.064920	NaN	0.000000	0.001649	0.001769	28.0798	0.095221	0.002018	47.1775	-81.7428	15.0267	0.045343	0.111080	-0.990664	-0.992037	0.064920	47.1775	-0.991696	-1.753698E+13	-3.701920E-15	NaN
593	1.000000	0.122480	7.37085e+06	-47439.1	1005.82	-29765.9	0.000000	0.000000	6.122762	0.016090	NaN	0.000000	0.001615	0.001738	28.0798	0.034986	0.001859	18.82	151.404	-164.776	-0.004650	0.121212	-0.980637	-0.981905	0.016090	18.82	-0.981278	-1.269484E+13	-1.267421E-15	NaN
593	1.000000	0.132513	7.37085e+06	-47439.1	1005.82	-29765.9	0.000000	0.000000	6.132791	-0.080490	NaN	0.000000	0.001586	0.001743	28.0798	0.077956	0.001941	40.1664	115.395	16.6887	-0.014504	0.131143	-0.970603	-0.971973	-0.080490	40.1664	-0.969100	-8.700323E+12	9.251366E-15	NaN
593	1.000000	0.142478	7.37085e+06	-47439.1	1005.82	-29765.9	0.000000	0.000000	6.142759	0.000473	NaN	0.000000	0.001608	0.001765	28.0796	0.044499	0.002035	21.8617	-33.2891	-166.83	-0.104925	0.141253	-0.960639	-0.961863	0.000473	21.8617	-0.960655	-6.694253E+12	-7.063146E-17	NaN
593	1.000000	0.152476	7.37085e+06	-47439.1	1005.82	-29765.9	0.000000	0.000000	6.152757	-0.004814	NaN	0.000000	0.001633	0.001751	28.0798	0.018556	0.001953	9.499765	109.391	12.821	0.007047	0.151113	-0.950641	-0.952004	-0.004814	9.499765	-0.950261	-4.847782E+12	9.929470E-16	NaN
593	1.000000	0.162491	7.37085e+06	-47439.1	1005.82	-29765.9	0.000000	0.000000	6.162773	0.013251	NaN	0.000000	0.001637	0.001772	28.0797	0.056635	0.002023	27.9986	69.4423	-162.833	0.036403	0.161209	-0.940625	-0.941908	0.013251	27.9986	-0.940980	-3.633818E+12	-3.646519E-15	NaN
593	1.000000	0.172554	7.37085e+06	-47439.1	1005.82	-29765.9	0.000000	0.000000	6.172836	0.033408	NaN	0.000000	0.001614	0.001718	28.0797	0.067353	0.002068	32.5751	51.9134	15.022	0.012913	0.171160	-0.930563	-0.931957	0.033408	32.5751	-0.931332	-2.692602E+12	-1.240722E-14	NaN
593	1.000000	0.182539	7.37085e+06	-47439.1	1005.82	-29765.9	0.000000	0.000000	6.182821	0.030160	NaN	0.000000	0.001589	0.001727	28.0797	0.103709	0.001919	54.0457	147.131	-167.248	0.082047	0.181175	-0.920578	-0.921941	0.030160	54.0457	-0.920996	-1.952803E+12	-1.544469E-14	NaN
593	1.000000	0.192541	7.37085e+06	-47439.1	1005.82	-29765.9	0.000000	0.000000	6.192822	0.001114	NaN	0.000000	0.001566	0.001752	28.0807	0.064637	0.002103	30.741	47.6798	12.0952	0.028088	0.191111	-0.910576	-0.912005	0.001114	30.741	-0.910603	-1.413535E+12	-7.879464E-16	NaN
593	1.000000	0.202546	7.37085e+06	-47439.1	1005.82	-29765.9	0.000000	0.000000	6.202832	0.099855	NaN	0.000000	0.001597	0.001763	28.081	0.021979	0.001965	11.1873	41.1465	-167.268	0.081948	0.201224	-0.900570	-0.901893	0.099855	11.1873	-0.907264	-1.274120E+12	-7.837141E-14	NaN
593	1.000000	0.212529	7.37085e+06	-47439.1	1005.82	-29765.9	0.000000	0.000000	6.212814	0.095225	NaN	0.000000	0.001607	0.001726	28.0808	0.068457	0.001965	34.8336	-51.9005	13.7269	0.064347	0.211186	-0.890587	-0.891930	0.095225	34.8336	-0.892637	-8.082889E+11	-1.178107E-13	NaN
593	1.000000	0.222541	7.37085e+06	-47439.1	1005.82	-29765.9	0.000000	0.000000	6.222820	-0.047844	NaN	0.000000	0.001569	0.001789	28.0807	0.068318	0.001944	35.1352	-104.537	-163.95	0.015886	0.221292	-0.880576	-0.881824	-0.047844	35.1352	-0.879555	-5.378799E+11	8.894898E-14	NaN
593	1.000000	0.232542	7.37085e+06	-47439.1	1005.82	-29765.9	0.000000	0.000000	6.232822	-0.041849	NaN	0.000000	0.001550	0.001757	28.0809	0.061922	0.002000	30.9661	-41.6777	14.3301	0.050687	0.231179	-0.870574	-0.871937	-0.041849	30.9661	-0.869561	-3.940044E+11	1.062133E-13	NaN
593	1.000000	0.242546	7.37085e+06	-47439.1	1005.82	-29765.9	0.000000	0.000000	6.242825	-0.040510	NaN	0.000000	0.001578	0.001744	28.0811	0.031420	0.001913	16.428	54.0898	-164.203	0.020167	0.241271	-0.860571	-0.861846	-0.040510	16.428	-0.858721	-2.810702E+11	1.441287E-13	NaN
593	1.000000	0.252542	7.37085e+06	-47439.1	1005.82	-29765.9	0.000000	0.000000	6.252825	0.044862	NaN	0.000000	0.001574	0.001705	28.0809	0.105146	0.001924	54.651	124.353	13.2063	-0.012287	0.251222	-0.850575	-0.851895	0.044862	54.651	-0.851191	-2.222587E+11	-2.018440E-13	NaN
593	1.000000	0.262601	7.37085e+06	-47439.1	1005.82	-29765.9	0.000000	0.000000	6.262881	-0.028042	NaN	0.000000	0.001643	0.001728	28.0814	0.032803	0.001971	16.6429	-153.302	-164.854	-0.083045	0.261229	-0.840515	-0.841887	-0.028042	16.6429	-0.839252	-1.531629E+11	1.830872E-13	NaN
593	1.000000	0.272569	7.37085e+06	-47439.1	1005.82	-29765.9	0.000000	0.000000	6.272853	0.072781	NaN	0.000000	0.001663	0.001783	28.0811	0.073106	0.001941	37.6677	130.383	14.3885	0.155526	0.271223	-0.830547	-0.831893	0.072781	37.6677	-0.831997	-1.221361E+11	-5.958984E-13	NaN
593	1.000000	0.282561	7.37085e+06	-47439.1	1005.82	-29765.9	0.000000	0.000000	6.282845	0.055772	NaN	0.000000	0.001582	0.001755	28.0812	0.101636	0.001954	52.0176	121.336	-169.329	0.015570	0.281266	-0.820555	-0.821851	0.055772	52.0176	-0.821360	-8.762891E+10	-6.364548E-13	NaN
593	1.000000	0.292542	7.37085e+06	-47439.1	1005.82	-29765.9	0.000000	0.000000	6.292824	0.012893	NaN	0.000000	0.001565	0.001793	28.0811	0.028501	0.001904	14.967	-66.8866	13.1707	0.056583	0.291213	-0.810574	-0.811903	0.012893	14.967	-0.811220	-6.384519E+10	-2.019361E-13	NaN
593	1.000000	0.302561	7.37085e+06	-47439.1	1005.82	-29765.9	0.000000	0.000000	6.302843	0.021259	NaN	0.000000	0.001585	0.001794	28.0815	0.094501	0.001954	48.3729	-74.2709	-166.071	0.090838	0.301211	-0.800555	-0.801906	0.021259	48.3729	-0.800885	-4.622491E+10	-4.599078E-13	NaN
593	1.000000	0.312575	7.37085e+06	-47439.1	1005.82	-29765.9	0.000000	0.000000	6.312857	0.028932	NaN	0.000000	0.001603	0.001780	28.0809	0.081980	0.002011	40.7671	-119.238	16.0002	0.025359	0.311202	-0.790542	-0.791914	0.028932	40.7671	-0.791074	-3.401515E+10	-8.505578E-13	NaN
593	1.000000	0.322579	7.37085e+06	-47439.1	1005.82	-29765.9	0.000000	0.000000	6.322863	0.079028	NaN	0.000000	0.001568	0.001800	28.0812	0.082726	0.002065	40.0653	10.3473	-164.09	-0.017254	0.321260	-0.780538	-0.781857	0.079028	40.0653	-0.782017	-2.562381E+10	-3.084165E-12	NaN
593	1.000000	0.332590	7.37085e+06	-47439.1	1005.82	-29765.9	0.000000	0.000000	6.332870	-0.047411	NaN	0.000000	0.001566	0.001799	28.0798	0.031495	0.001939	16.2469	-0.240747	11.2988	-0.027610	0.331241	-0.770526	-0.771875	-0.047411	16.2469	-0.768338	-1.669943E+10	2.839094E-12	NaN
593	1.000000	0.342579	7.37085e+06	-47439.1	1005.82	-29765.9	0.000000	0.000000	6.342859	-0.034022	NaN	0.000000	0.001636	0.001784	28.08	0.170453	0.002017	84.5116	-60.2523	-164.273	0.081496	0.341250	-0.760538	-0.761867	-0.034022	84.5116	-0.760236	-1.295716E+10	2.625711E-12	NaN
593	1.000000	0.352590	7.37085e+06	-47439.1	1005.82	-29765.9	0.000000	0.000000	6.352872	0.024885	NaN	0.000000	0.001629	0.001772	28.0801	0.046817	0.001981	23.635	-52.4548	13.5578	0.032875	0.351178	-0.750527	-0.751939	0.024885	23.635	-0.751316	-9.797958E+9	-2.539787E-12	NaN
593	1.000000	0.362594	7.37085e+06	-47439.1	1005.82	-29765.9	0.000000	0.000000	6.362876	0.036352	NaN	0.000000	0.001672	0.001783	28.08	0.029468	0.002049	14.3834	123.245	-166.145	0.116908	0.361285	-0.740523	-0.741832	0.036352	14.3834	-0.742418	-7.413007E+9	-4.903801E-12	NaN
593	1.000000	0.372605	7.37085e+06	-47439.1	1005.82	-29765.9	0.000000	0.000000	6.372887	0.020745	NaN	0.000000	0.001639	0.001776	28.0799	0.074190	0.002051	36.1701	177.407	12.976	-0.089116	0.371261	-0.730511	-0.731856	0.020745	36.1701	-0.730942	-5.171777E+9	-4.011248E-12	NaN
593	1.000000	0.382579	7.37085e+06	-47439.1	1005.82	-29765.9	0.000000	0.000000	6.382859	-0.027838	NaN	0.000000	0.001630	0.001786	28.0798	0.054759	0.001881	29.1168	-98.3383	-166.725	-0.030706	0.381310	-0.720538	-0.721807	-0.027838	29.1168	-0.719821	-3.647779E+9	7.631604E-12	NaN
593	1.000000	0.392626	7.37085e+06	-47439.1	1005.82	-29765.9	0.000000	0.000000	6.392909	0.032280	NaN	0.000000	0.001662	0.001764	28.0797	0.049449	0.001916	25.8043	145.691	14.9053	0.100092	0.391272	-0.710490	-0.711845	0.032280	25.8043	-0.711428	-2.802473E+9	-1.151827E-11	NaN
593	1.000000	0.402626	7.37085e+06	-47439.1	1005.82	-29765.9	0.000000	0.000000	6.402909	0.043500	NaN	0.000000	0.001647	0.001823	28.0797	0.158228	0.002075	76.2541	-33.4498	-165.601	0.087843	0.401307	-0.700490	-0.701809	0.043500	76.2541	-0.700918	-2.014044E+9	-2.159822E-11	NaN
593	1.000000	0.412600	7.37085e+06	-47439.1	1005.82	-29765.9	0.000000	0.000000	6.412882	0.021303	NaN	0.000000	0.001654	0.001779	28.0798	0.069943	0.001980	35.3293	-158.366	16.8556	0.081161	0.411269	-0.690516	-0.691848	0.021303	35.3293	-0.690969	-1.472840E+9	-1.446407E-11	NaN
593	1.000000	0.422628	7.37085e+06	-47439.1	1005.82	-29765.9	0.000000	0.000000	6.422910	0.023500	NaN	0.000000	0.001675	0.001753	28.0797	0.030436	0.002109	14.4298	146.035	-164.101	0.072729	0.421267	-0.680488	-0.681849	0.023500	14.4298	-0.681710	-1.100493E+9	-2.135367E-11	NaN
593	1.000000	0.432618	7.37085e+06	-47439.1	1005.82	-29765.9	0.000000	0.000000	6.432898	-0.027393	NaN	0.000000	0.001710	0.001791	28.0799	0.062326	0.002069	30.1276	-1.634971	18.2576	0.034923	0.431296	-0.670499	-0.671820	-0.027393	30.1276	-0.669817	-7.566278E+8	3.620391E-11	NaN
593	1.000000	0.442660	7.37085e+06	-47439.1	1005.82	-29765.9	0.000000	0.000000	6.442940	-0.021363	NaN	0.000000	0.001642	0.001768	28.0798	0.038030	0.001913	19.8845	-95.8363	-164.98	-0.020519	0.441322	-0.660457	-0.661794	-0.021363	19.8845	-0.659651	-5.491422E+8	3.890243E-11	NaN
593	1.000000	0.452649	7.37085e+06	-47439.1	1005.82	-29765.9	0.000000	0.000000	6.452933	0.056076	NaN	0.000000	0.001668	0.001840	28.0798	0.021509	0.001942	11.0777	36.1166	17.6374	0.010192	0.451255	-0.650467	-0.651861	0.056076	11.0777	-0.654264	-4.633170E+8	-1.210312E-10	NaN
593	1.000000	0.462631	7.37085e+06	-47439.1	1005.82	-29765.9	0.000000	0.000000	6.462914	0.045765	NaN	0.000000	0.001644	0.001827	28.0797	0.069773	0.001934	36.0842	-10.2997	-165.298	0.058249	0.461331	-0.640486	-0.641785	0.045765	36.0842	-0.641437	-3.090339E+8	-1.480906E-10	NaN
593	1.000000	0.472653	7.37085e+06	-47439.1	1005.82	-29765.9	0.000000	0.000000	6.472934	0.005016	NaN	0.000000	0.001646	0.001801	28.081	0.053917	0.001976	27.2817	-26.1631	13.8205	-0.081355	0.471307	-0.630464	-0.631809	0.005016	27.2817	-0.630602	-2.194240E+8	-2.285765E-11	NaN
593	1.000000	0.482678	7.37085e+06	-47439.1	1005.82	-29765.9	0.000000	0.000000	6.482959	-0.010449	NaN	0.000000	0.001636	0.001788	28.0811	0.145308	0.001951	74.4744	57.6019	-166.012	0.025062	0.481344	-0.620439	-0.621773	-0.010449	74.4744	-0.620334	-1.585690E+8	6.589385E-11	NaN
593	1.000000	0.492632	7.37085e+06	-47439.1	1005.82	-29765.9	0.000000	0.000000	6.492915	0.037895	NaN	0.000000	0.001611	0.001786	28.0811	0.029215	0.002121	13.7764	165.879	14.8549	-0.012157	0.491299	-0.610484	-0.611818	0.037895	13.7764	-0.612547	-1.239237E+8	-3.057894E-10	NaN
593	1.000000	0.502638	7.37085e+06	-47439.1	1005.82	-29765.9	0.000000	0.000000	6.502920	0.015699	NaN	0.000000	0.001626	0.001778	28.0812	0.037518	0.002209	16.987	-115.163	-166.539	0.059144	0.501352	-0.600479	-0.601765	0.015699	16.987	-0.601172	-8.641694E+7	-1.816645E-10	NaN
593	1.000000	0.512676	7.37085e+06	-47439.1	1005.82	-29765.9	0.000000	0.000000	6.512959	0.048573	NaN	0.000000	0.001577	0.001783	28.0814	0.152715	0.002046	74.6257	-101.236	14.8713	-0.003167	0.511285	-0.590441	-0.591831	0.048573	74.6257	-0.590929	-6.244120E+7	-7.778921E-10	NaN
593	1.000000	0.522663	7.37085e+06	-47439.1	1005.82	-29765.9	0.000000	0.000000	6.522947	0.069836	NaN	0.000000	0.001568	0.001762	28.0812	0.063076	0.002106	29.9567	-157.833	-165.029	0.092310	0.521395	-0.580454	-0.581721	0.069836	29.9567	-0.582202	-4.732762E+7	-1.475596E-9	NaN
593	1.000000	0.532683	7.37085e+06	-47439.1	1005.82	-29765.9	0.000000	0.000000	6.532967	0.063643	NaN	0.000000	0.001578	0.001789	28.0813	0.047949	0.002011	23.8446	45.5576	13.0829	0.098264	0.531321	-0.570434	-0.571796	0.063643	23.8446	-0.572436	-3.469612E+7	-1.834303E-9	NaN
593	1.000000	0.542696	7.37085e+06	-47439.1	1005.82	-29765.9	0.000000	0.000000	6.542979	0.042895	NaN	0.000000	0.001547	0.001766	28.0812	0.124269	0.001891	65.7226	95.9927	-166.147	-0.030857	0.541414	-0.560421	-0.561702	0.042895	65.7226	-0.560910	-2.404186E+7	-1.784193E-9	NaN
593	1.000000	0.552678	7.37085e+06	-47439.1	1005.82	-29765.9	0.000000	0.000000	6.552959	-0.004093	NaN	0.000000	0.001575	0.001767	28.0816	0.085760	0.002108	40.674	-6.240053	14.5323	-0.020663	0.551316	-0.550439	-0.551801	-0.004093	40.674	-0.550363	-1.717862E+7	2.382686E-10	NaN
593	1.000000	0.562659	7.37085e+06	-47439.1	1005.82	-29765.9	0.000000	0.000000	6.562942	0.027671	NaN	0.000000	0.001586	0.001776	28.0811	0.075156	0.001931	38.9128	154.84	-165.749	0.109827	0.561394	-0.540457	-0.541723	0.027671	38.9128	-0.540991	-1.273781E+7	-2.172348E-9	NaN
593	1.000000	0.572683	7.37085e+06	-47439.1	1005.82	-29765.9	0.000000	0.000000	6.572963	-0.019857	NaN	0.000000	0.001557	0.001774	28.0815	0.051713	0.001890	27.3647	-14.2773	12.8427	-0.014094	0.571337	-0.530434	-0.531780	-0.019857	27.3647	-0.529889	-8.93384e+06	2.222692E-9	NaN
593	1.000000	0.582710	7.37085e+06	-47439.1	1005.82	-29765.9	0.000000	0.000000	6.582989	-0.043881	NaN	0.000000	0.001566	0.001771	28.0812	0.056949	0.001962	29.0192	-78.226	-168.772	-0.020157	0.581372	-0.520407	-0.521744	-0.043881	29.0192	-0.519273	-6.36037e+06	6.899074E-9	NaN
593	1.000000	0.592681	7.37085e+06	-47439.1	1005.82	-29765.9	0.000000	0.000000	6.592963	0.019242	NaN	0.000000	0.001570	0.001779	28.0818	0.112650	0.001937	58.1666	173.483	15.8307	0.040021	0.591324	-0.510435	-0.511792	0.019242	58.1666	-0.510684	-4.82988e+06	-3.983979E-9	NaN
593	1.000000	0.602682	7.37085e+06	-47439.1	1005.82	-29765.9	0.000000	0.000000	6.602966	0.071269	NaN	0.000000	0.001579	0.001761	28.0803	0.132335	0.001935	68.378	-134.745	-163.63	0.007054	0.601376	-0.500435	-0.501740	0.071269	68.378	-0.501217	-3.56443e+06	-1.999450E-8	NaN
593	1.000000	0.612693	7.37085e+06	-47439.1	1005.82	-29765.9	0.000000	0.000000	6.612975	0.008943	NaN	0.000000	0.001586	0.001789	28.0803	0.109500	0.001974	55.4719	-148.862	15.3757	-0.051476	0.611329	-0.490423	-0.491787	0.008943	55.4719	-0.490544	-2.52929e+06	-3.535665E-9	NaN
593	1.000000	0.622737	7.37085e+06	-47439.1	1005.82	-29765.9	0.000000	0.000000	6.623020	0.061673	NaN	0.000000	0.001560	0.001773	28.0801	0.073430	0.002042	35.9664	-13.3117	-167.229	0.069993	0.621407	-0.480380	-0.481710	0.061673	35.9664	-0.481666	-1.9004e+06	-3.245239E-8	NaN
593	1.000000	0.632698	7.37085e+06	-47439.1	1005.82	-29765.9	0.000000	0.000000	6.632980	0.019956	NaN	0.000000	0.001540	0.001746	28.0802	0.078671	0.002026	38.8215	-117.046	14.9916	-0.070545	0.631372	-0.470418	-0.471744	0.019956	38.8215	-0.470804	-1.33869e+06	-1.490683E-8	NaN
593	1.000000	0.642686	7.37085e+06	-47439.1	1005.82	-29765.9	0.000000	0.000000	6.642971	0.103397	NaN	0.000000	0.001566	0.001760	28.08	0.091943	0.002056	44.7277	-54.4019	-166.26	1.242678E-5	0.641392	-0.460431	-0.461725	0.103397	44.7277	-0.462165	-1.01258e+06	-1.021121E-7	NaN
593	1.000000	0.652735	7.37085e+06	-47439.1	1005.82	-29765.9	0.000000	0.000000	6.653015	-0.018041	NaN	0.000000	0.001590	0.001764	28.0801	0.078812	0.001997	39.4603	79.8922	11.9247	-0.008618	0.651359	-0.450382	-0.451758	-0.018041	39.4603	-0.450039	-683735	2.638548E-8	NaN
593	1.000000	0.662706	7.37085e+06	-47439.1	1005.82	-29765.9	0.000000	0.000000	6.662988	0.015503	NaN	0.000000	0.001576	0.001750	28.0807	0.045596	0.002135	21.3559	160.332	-167.646	0.031298	0.661483	-0.440410	-0.441633	0.015503	21.3559	-0.440955	-509141	-3.044842E-8	NaN
593	1.000000	0.672719	7.37085e+06	-47439.1	1005.82	-29765.9	0.000000	0.000000	6.673002	0.039647	NaN	0.000000	0.001575	0.001727	28.0801	0.096258	0.002029	47.4414	126.008	14.4143	0.033575	0.671395	-0.430397	-0.431722	0.039647	47.4414	-0.431024	-368592	-1.075643E-7	NaN
593	1.000000	0.682697	7.37085e+06	-47439.1	1005.82	-29765.9	0.000000	0.000000	6.682978	-0.009951	NaN	0.000000	0.001599	0.001762	28.0799	0.061137	0.002038	30.0046	46.1402	-168.061	0.063816	0.681408	-0.420419	-0.421709	-0.009951	30.0046	-0.420170	-258720	3.846075E-8	NaN
593	1.000000	0.692746	7.37085e+06	-47439.1	1005.82	-29765.9	0.000000	0.000000	6.693027	-0.000254	NaN	0.000000	0.001608	0.001772	28.08	0.050839	0.002112	24.067	-169.507	14.0049	0.025753	0.691389	-0.410371	-0.411727	-0.000254	24.067	-0.410363	-187743	1.354502E-9	NaN
593	1.000000	0.702755	7.37085e+06	-47439.1	1005.82	-29765.9	0.000000	0.000000	6.703036	-0.001900	NaN	0.000000	0.001576	0.001766	28.0803	0.044728	0.002152	20.7815	-48.8788	-165.784	0.021961	0.701419	-0.400361	-0.401697	-0.001900	20.7815	-0.400293	-134949	1.407637E-8	NaN
593	1.000000	0.712745	7.37085e+06	-47439.1	1005.82	-29765.9	0.000000	0.000000	6.713027	0.019772	NaN	0.000000	0.001595	0.001778	28.0803	0.117215	0.001976	59.3137	49.3817	15.9067	0.073249	0.711400	-0.390371	-0.391717	0.019772	59.3137	-0.390621	-98187.2	-2.013675E-7	NaN
593	1.000000	0.722724	7.37085e+06	-47439.1	1005.82	-29765.9	0.000000	0.000000	6.723006	0.011646	NaN	0.000000	0.001607	0.001777	28.0801	0.059142	0.001907	31.0072	155.114	-167.041	-0.017560	0.721414	-0.380392	-0.381702	0.011646	31.0072	-0.380674	-70722.4	-1.646759E-7	NaN
593	1.000000	0.732750	7.37085e+06	-47439.1	1005.82	-29765.9	0.000000	0.000000	6.733032	0.023281	NaN	0.000000	0.001615	0.001790	28.08	0.097077	0.001970	49.2677	59.1805	14.4381	-0.013691	0.731399	-0.370366	-0.371717	0.023281	49.2677	-0.370721	-50875.2	-4.576149E-7	NaN
593	1.000000	0.742754	7.37085e+06	-47439.1	1005.82	-29765.9	0.000000	0.000000	6.743036	0.020411	NaN	0.000000	0.001622	0.001786	28.0812	0.027014	0.002017	13.394	-90.7935	-163.505	-0.052442	0.741429	-0.360362	-0.361688	0.020411	13.394	-0.361505	-37462.7	-5.448351E-7	NaN
593	1.000000	0.752763	7.37085e+06	-47439.1	1005.82	-29765.9	0.000000	0.000000	6.753046	0.042654	NaN	0.000000	0.001589	0.001754	28.0813	0.011243	0.002005	5.606577	-54.4233	11.8411	0.057592	0.751372	-0.350353	-0.351744	0.042654	5.606577	-0.356059	-31248.8	-1.364966E-6	NaN
593	1.000000	0.762779	7.37085e+06	-47439.1	1005.82	-29765.9	0.000000	0.000000	6.763064	0.072192	NaN	0.000000	0.001593	0.001768	28.0812	0.082220	0.001957	42.0048	-16.2233	-166.617	0.100531	0.761486	-0.340337	-0.341630	0.072192	42.0048	-0.341626	-19286.3	-3.743185E-6	NaN
593	1.000000	0.772759	7.37085e+06	-47439.1	1005.82	-29765.9	0.000000	0.000000	6.773042	0.047931	NaN	0.000000	0.001570	0.001773	28.0814	0.058085	0.001837	31.6213	-134.814	14.4572	-0.025554	0.771418	-0.330358	-0.331698	0.047931	31.6213	-0.331495	-13719.2	-3.493737E-6	NaN
593	1.000000	0.782748	7.37085e+06	-47439.1	1005.82	-29765.9	0.000000	0.000000	6.783030	0.002497	NaN	0.000000	0.001541	0.001805	28.0813	0.020787	0.001972	10.5405	-173.551	-165.623	0.081645	0.781516	-0.320368	-0.321600	0.002497	10.5405	-0.320546	-9477	-2.634337E-7	NaN
593	1.000000	0.792777	7.37085e+06	-47439.1	1005.82	-29765.9	0.000000	0.000000	6.793059	0.023628	NaN	0.000000	0.001590	0.001778	28.0812	0.087787	0.002017	43.518	-159.119	12.3098	0.046581	0.791348	-0.310339	-0.311769	0.023628	43.518	-0.310747	-6793.63	-3.477940E-6	NaN
593	1.000000	0.802782	7.37085e+06	-47439.1	1005.82	-29765.9	0.000000	0.000000	6.803066	0.063154	NaN	0.000000	0.001575	0.001799	28.0813	0.112568	0.002014	55.9038	-46.8313	-165.098	0.108849	0.801505	-0.300334	-0.301611	0.063154	55.9038	-0.301182	-4900.27	-1.288793E-5	NaN
593	1.000000	0.812767	7.37085e+06	-47439.1	1005.82	-29765.9	0.000000	0.000000	6.813050	0.031303	NaN	0.000000	0.001563	0.001763	28.0812	0.163434	0.001939	84.282	146.75	12.3603	0.066155	0.811409	-0.290349	-0.291708	0.031303	84.282	-0.290628	-3409.6	-9.180727E-6	NaN
593	1.000000	0.822770	7.37085e+06	-47439.1	1005.82	-29765.9	0.000000	0.000000	6.823053	0.038612	NaN	0.000000	0.001600	0.001775	28.0813	0.073488	0.001971	37.2801	135.436	-165.67	-0.008856	0.821501	-0.280346	-0.281615	0.038612	37.2801	-0.281123	-2454.16	-1.573311E-5	NaN
593	1.000000	0.832802	7.37085e+06	-47439.1	1005.82	-29765.9	0.000000	0.000000	6.833084	0.016314	NaN	0.000000	0.001546	0.001789	28.0811	0.059086	0.001951	30.2828	85.6226	16.4925	0.005504	0.831446	-0.270315	-0.271670	0.016314	30.2828	-0.270719	-1707.93	-9.552213E-6	NaN
593	1.000000	0.842798	7.37085e+06	-47439.1	1005.82	-29765.9	0.000000	0.000000	6.843080	0.020341	NaN	0.000000	0.001564	0.001831	28.0816	0.095353	0.002022	47.1683	-47.5797	-161.898	-0.044307	0.841466	-0.260319	-0.261651	0.020341	47.1683	-0.260642	-1198.83	-1.696708E-5	NaN
593	1.000000	0.852793	7.37085e+06	-47439.1	1005.82	-29765.9	0.000000	0.000000	6.853071	-0.070934	NaN	0.000000	0.001576	0.001788	28.0811	0.049384	0.002089	23.645	-165.912	8.560466	-0.088440	0.851487	-0.250324	-0.251630	-0.070934	23.645	-0.248074	-767.618	9.240846E-5	NaN
593	1.000000	0.862795	7.37085e+06	-47439.1	1005.82	-29765.9	0.000000	0.000000	6.863078	0.039333	NaN	0.000000	0.001557	0.001795	28.0813	0.076012	0.002025	37.5379	136.699	-166.775	0.037202	0.861503	-0.240321	-0.241613	0.039333	37.5379	-0.241107	-598.181	-6.575394E-5	NaN
593	1.000000	0.872810	7.37085e+06	-47439.1	1005.82	-29765.9	0.000000	0.000000	6.873091	0.007893	NaN	0.000000	0.001578	0.001836	28.0812	0.043243	0.001910	22.6346	-83.9833	14.9413	0.020006	0.871463	-0.230307	-0.231653	0.007893	22.6346	-0.230568	-408.778	-1.930871E-5	NaN
593	1.000000	0.882846	7.37085e+06	-47439.1	1005.82	-29765.9	0.000000	0.000000	6.883128	0.030653	NaN	0.000000	0.001576	0.001809	28.0804	0.020605	0.002059	10.0056	-172.838	-164.485	0.081077	0.881455	-0.220271	-0.221662	0.030653	10.0056	-0.222568	-305.251	-0.000100	NaN
593	1.000000	0.892805	7.37085e+06	-47439.1	1005.82	-29765.9	0.000000	0.000000	6.893089	0.070686	NaN	0.000000	0.001599	0.001790	28.08	0.033983	0.002116	16.0594	46.3001	15.1337	0.022932	0.891497	-0.210312	-0.211619	0.070686	16.0594	-0.213613	-219.371	-0.000322	NaN
593	1.000000	0.902817	7.37085e+06	-47439.1	1005.82	-29765.9	0.000000	0.000000	6.903099	0.023929	NaN	0.000000	0.001598	0.001823	28.0801	0.053825	0.002023	26.6017	-70.5137	-168.307	0.031327	0.901499	-0.200300	-0.201617	0.023929	26.6017	-0.200975	-136.679	-0.000175	NaN
593	1.000000	0.912831	7.37085e+06	-47439.1	1005.82	-29765.9	0.000000	0.000000	6.913115	0.063529	NaN	0.000000	0.001614	0.001810	28.08	0.079226	0.002123	37.321	-111.364	14.199	0.071854	0.911462	-0.190286	-0.191654	0.063529	37.321	-0.191562	-95.5198	-0.000665	NaN
593	1.000000	0.922818	7.37085e+06	-47439.1	1005.82	-29765.9	0.000000	0.000000	6.923100	0.030207	NaN	0.000000	0.001603	0.001804	28.0803	0.043563	0.001805	24.1343	66.5274	-168.684	0.035533	0.921515	-0.180299	-0.181601	0.030207	24.1343	-0.181238	-64.0467	-0.000472	NaN
593	1.000000	0.932834	7.37085e+06	-47439.1	1005.82	-29765.9	0.000000	0.000000	6.933120	0.119729	NaN	0.000000	0.001580	0.001809	28.0801	0.038242	0.002063	18.5376	-33.8668	15.3063	0.088636	0.931498	-0.170283	-0.171618	0.119729	18.5376	-0.175127	-50.3687	-0.002377	NaN
593	1.000000	0.942823	7.37085e+06	-47439.1	1005.82	-29765.9	0.000000	0.000000	6.943103	-0.042396	NaN	0.000000	0.001609	0.001806	28.0798	0.077238	0.002003	38.569	43.2564	-168.423	-0.010313	0.941500	-0.160293	-0.161616	-0.042396	38.569	-0.159469	-26.8249	0.001580	NaN
593	1.000000	0.952811	7.37085e+06	-47439.1	1005.82	-29765.9	0.000000	0.000000	6.953094	0.031865	NaN	0.000000	0.001615	0.001807	28.0801	0.022567	0.001982	11.3859	153.278	13.9821	-0.002745	0.951483	-0.150305	-0.151634	0.031865	11.3859	-0.152404	-20.0311	-0.001591	NaN
593	1.000000	0.962831	7.37085e+06	-47439.1	1005.82	-29765.9	0.000000	0.000000	6.963116	0.087429	NaN	0.000000	0.001616	0.001792	28.0802	0.050504	0.002118	23.8459	-139.793	-167.389	0.006138	0.961522	-0.140285	-0.141594	0.087429	23.8459	-0.143035	-13.4806	-0.006486	NaN
593	1.000000	0.972844	7.37085e+06	-47439.1	1005.82	-29765.9	0.000000	0.000000	6.973126	0.032199	NaN	0.000000	0.001608	0.001770	28.08	0.040833	0.002069	19.7377	115.563	16.3368	0.053542	0.971482	-0.130273	-0.131635	0.032199	19.7377	-0.131496	-8.146994	-0.003952	NaN
593	1.000000	0.982845	7.37085e+06	-47439.1	1005.82	-29765.9	0.000000	0.000000	6.983127	0.033638	NaN	0.000000	0.001624	0.001788	28.08	0.146901	0.002087	70.3988	-67.3606	-163.701	0.053495	0.981574	-0.120272	-0.121542	0.033638	70.3988	-0.120630	-4.974950	-0.006762	NaN
593	1.000000	0.992889	7.37085e+06	-47439.1	1005.82	-29765.9	0.000000	0.000000	6.993168	-0.046049	NaN	0.000000	0.001627	0.001788	28.0801	0.059041	0.001952	30.252	61.5726	14.7012	0.046455	0.991468	-0.110228	-0.111649	-0.046049	30.252	-0.109086	-2.874531	0.016020	NaN
593	1.000000	1.002874	7.37085e+06	-47439.1	1005.82	-29765.9	0.000000	0.000000	7.003156	0.004583	NaN	0.000000	0.001597	0.001761	28.08	0.105254	0.001998	52.6912	-103.388	-161.998	0.079309	1.001608	-0.100242	-0.101508	0.004583	52.6912	-0.100308	-1.856033	-0.002469	NaN
593	1.000000	1.012861	7.37085e+06	-47439.1	1005.82	-29765.9	0.000000	0.000000	7.013144	0.044074	NaN	0.000000	0.001601	0.001763	28.0811	0.021419	0.002033	10.5377	-34.5697	16.3127	0.131432	1.011506	-0.090256	-0.091610	0.044074	10.5377	-0.093393	-1.296058	-0.034006	NaN
593	1.000000	1.022855	7.37085e+06	-47439.1	1005.82	-29765.9	0.000000	0.000000	7.023137	0.000960	NaN	0.000000	0.001615	0.001814	28.0812	0.065137	0.002022	32.2173	-94.806	-167.977	-0.007040	1.021593	-0.080261	-0.081523	0.000960	32.2173	-0.080283	-0.629165	-0.001526	NaN
593	1.000000	1.032877	7.37085e+06	-47439.1	1005.82	-29765.9	0.000000	0.000000	7.033159	0.032461	NaN	0.000000	0.001576	0.001785	28.0813	0.028516	0.001901	15.0026	-165.563	12.6473	0.007669	1.031517	-0.070240	-0.071600	0.032461	15.0026	-0.071863	-0.382353	-0.084898	NaN
593	1.000000	1.042864	7.37085e+06	-47439.1	1005.82	-29765.9	0.000000	0.000000	7.043142	-0.074953	NaN	0.000000	0.001659	0.001768	28.0813	0.068265	0.002100	32.5022	122.258	-165.688	-0.103095	1.041605	-0.060252	-0.061512	-0.074953	32.5022	-0.058523	-0.163277	0.459055	NaN
593	1.000000	1.052873	7.37085e+06	-47439.1	1005.82	-29765.9	0.000000	0.000000	7.053154	0.003398	NaN	0.000000	0.001685	0.001759	28.0811	0.013943	0.002093	6.660663	68.0469	11.7779	-0.012662	1.051507	-0.050244	-0.051610	0.003398	6.660663	-0.050626	-0.095314	-0.035650	NaN
593	1.000000	1.062900	7.37085e+06	-47439.1	1005.82	-29765.9	0.000000	0.000000	7.063182	0.012083	NaN	0.000000	0.001639	0.001767	28.081	0.109125	0.001998	54.6217	-88.6329	-166.465	0.073687	1.061603	-0.040216	-0.041514	0.012083	54.6217	-0.040382	-0.046448	-0.260133	NaN
593	1.000000	1.072890	7.37085e+06	-47439.1	1005.82	-29765.9	0.000000	0.000000	7.073175	0.089896	NaN	0.000000	0.001657	0.001758	28.0812	0.060488	0.001934	31.2745	-101.717	12.2898	0.078139	1.071586	-0.030227	-0.031530	0.089896	31.2745	-0.032382	-0.026875	-3.344920	NaN
593	1.000000	1.082923	7.37085e+06	-47439.1	1005.82	-29765.9	0.000000	0.000000	7.083206	0.050305	NaN	0.000000	0.001635	0.001777	28.081	0.037041	0.001999	18.5338	-7.194223	-167.963	0.020877	1.081557	-0.020194	-0.021559	0.050305	18.5338	-0.022230	-0.014313	-3.514756	NaN
593	1.000000	1.092901	7.37085e+06	-47439.1	1005.82	-29765.9	0.000000	0.000000	7.093184	0.036232	NaN	0.000000	0.001648	0.001751	28.0811	0.082489	0.001973	41.8079	-166.534	13.8189	0.036987	1.091520	-0.010216	-0.011597	0.036232	41.8079	-0.010866	-0.006881	-5.265191	NaN
593	1.000000	1.102875	7.37085e+06	-47439.1	1005.82	-29765.9	0.000000	0.000000	7.103190	0.820488	NaN	0.000000	0.001663	0.001735	28.0814	1.264936	0.001917	659.879	10.125	-167.388	0.291170	1.101583	-0.000242	-0.001533	0.820488	659.879	-0.001174	-0.000858	-956.138	NaN
593	2.000000	1.111960	7.37085e+06	-47439.1	1005.82	-29765.9	0.000000	0.000000	7.112603	8.800400	NaN	0.000000	0.001654	0.001755	28.0811	8.887630	0.001734	5125.51	7.493516	8.754777	8.134363	1.111339	0.008843	0.008222	8.800400	5125.51	0.007556	0.006589	1335.59	57689.4
593	2.000000	1.114490	7.37085e+06	-47439.1	1005.82	-29765.9	0.000000	0.000000	7.115263	11.958	NaN	0.000000	0.001601	0.001745	28.0812	11.8785	0.001796	6613.84	7.432383	-173.87	11.6893	1.114164	0.011374	0.011048	11.958	6613.84	0.010018	0.009201	1299.64	62995.4
593	2.000000	1.116971	7.37085e+06	-47439.1	1005.82	-29765.9	0.000000	0.000000	7.117919	16.2119	NaN	0.000000	0.001611	0.001734	28.0813	14.0456	0.001637	8578.6	6.964699	3.719852	15.1049	1.116644	0.013855	0.013528	16.2119	8578.6	0.012438	0.012018	1348.92	71493.4
593	2.000000	1.119426	7.37085e+06	-47439.1	1005.82	-29765.9	0.000000	0.000000	7.120545	20.3797	NaN	0.000000	0.001581	0.001753	28.0814	16.2897	0.001629	9999.47	4.419399	-174.814	19.774	1.119159	0.016310	0.016042	20.3797	9999.47	0.014781	0.014995	1359.13	74607.4
593	2.000000	1.121933	7.37085e+06	-47439.1	1005.82	-29765.9	0.000000	0.000000	7.123259	25.4001	NaN	0.000000	0.001569	0.001753	28.08	19.2542	0.001764	10916.7	7.343645	1.779893	24.9332	1.121542	0.018817	0.018426	25.4001	10916.7	0.017072	0.018148	1399.6	74036.8
593	2.000000	1.124398	7.37085e+06	-47439.1	1005.82	-29765.9	0.000000	0.000000	7.125983	31.7228	NaN	0.000000	0.001545	0.001743	28.0802	21.7854	0.001851	11766.7	5.138594	-176.614	30.3966	1.124111	0.021281	0.020995	31.7228	11766.7	0.019259	0.021392	1482.94	73502.6
593	2.000000	1.126899	7.37085e+06	-47439.1	1005.82	-29765.9	0.000000	0.000000	7.128781	38.9452	NaN	0.000000	0.001526	0.001746	28.0801	24.0828	0.001720	13997.7	5.135471	1.543600	37.0265	1.126565	0.023782	0.023449	38.9452	13997.7	0.021696	0.025277	1540.74	80439.2
593	2.000000	1.129366	7.37085e+06	-47439.1	1005.82	-29765.9	0.000000	0.000000	7.131645	48.5871	NaN	0.000000	0.001520	0.001792	28.0802	27.2921	0.001788	15266.1	8.943736	177.282	47.9504	1.129095	0.026250	0.025978	48.5871	15266.1	0.023863	0.028979	1676.63	81933
593	2.000000	1.131910	7.37085e+06	-47439.1	1005.82	-29765.9	0.000000	0.000000	7.134448	54.8798	NaN	0.000000	0.001551	0.001778	28.0805	29.8473	0.001854	16096.5	6.885276	-1.141346	54.8947	1.131507	0.028794	0.028391	54.8798	16096.5	0.026237	0.033304	1647.85	80585.3
593	2.000000	1.134401	7.37085e+06	-47439.1	1005.82	-29765.9	0.000000	0.000000	7.137343	64.7208	NaN	0.000000	0.001575	0.001777	28.0798	32.6786	0.001908	17127.6	5.856438	179.019	63.6672	1.134057	0.031285	0.030941	64.7208	17127.6	0.028451	0.037594	1721.57	80707
593	2.000000	1.136913	7.37085e+06	-47439.1	1005.82	-29765.9	0.000000	0.000000	7.140147	71.8361	NaN	0.000000	0.001544	0.001800	28.0806	34.2839	0.001854	18487.5	8.009486	-3.715848	71.3608	1.136477	0.033796	0.033361	71.8361	18487.5	0.030882	0.042592	1686.62	81844.5
593	2.000000	1.139349	7.37085e+06	-47439.1	1005.82	-29765.9	0.000000	0.000000	7.142975	81.3682	NaN	0.000000	0.001542	0.001784	28.0801	35.9624	0.001811	19860.4	4.889159	177.82	79.2834	1.139056	0.036232	0.035939	81.3682	19860.4	0.033159	0.047547	1711.32	83214.6
593	2.000000	1.141907	7.37085e+06	-47439.1	1005.82	-29765.9	0.000000	0.000000	7.145878	89.7694	NaN	0.000000	0.001564	0.001746	28.0802	38.778	0.001955	19830.8	7.475345	-4.006753	88.9648	1.141503	0.038790	0.038386	89.7694	19830.8	0.035395	0.052670	1704.39	78946.6
593	2.000000	1.144314	7.37085e+06	-47439.1	1005.82	-29765.9	0.000000	0.000000	7.148713	100.169	NaN	0.000000	0.001559	0.001781	28.0798	39.4376	0.001656	23809.6	3.319997	177.957	97.3835	1.144107	0.041197	0.040991	100.169	23809.6	0.038042	0.059065	1695.89	89507.5
593	2.000000	1.146892	7.37085e+06	-47439.1	1005.82	-29765.9	0.000000	0.000000	7.151745	111.181	NaN	0.000000	0.001618	0.001801	28.0801	41.1028	0.001716	23953.2	8.198752	-5.624602	109.028	1.146482	0.043776	0.043365	111.181	23953.2	0.040295	0.064792	1715.97	85975.9
593	2.000000	1.149360	7.37085e+06	-47439.1	1005.82	-29765.9	0.000000	0.000000	7.154579	120.107	NaN	0.000000	0.001554	0.001744	28.08	43.7587	0.001710	25594.6	4.575290	176.675	119.659	1.149052	0.046243	0.045935	120.107	25594.6	0.042724	0.071257	1685.55	87600.6
593	2.000000	1.151845	7.37085e+06	-47439.1	1005.82	-29765.9	0.000000	0.000000	7.157608	133.326	NaN	0.000000	0.001532	0.001763	28.0802	46.237	0.001697	27250.9	6.890793	-5.619728	132.218	1.151367	0.048729	0.048250	133.326	27250.9	0.045060	0.077756	1714.66	89286.5
593	2.000000	1.154331	7.37085e+06	-47439.1	1005.82	-29765.9	0.000000	0.000000	7.160448	141.954	NaN	0.000000	0.001547	0.001770	28.08	50.0892	0.001924	26035.7	6.113322	176.151	140.699	1.154037	0.051214	0.050920	141.954	26035.7	0.047125	0.083734	1695.31	82203.9
593	2.000000	1.156839	7.37085e+06	-47439.1	1005.82	-29765.9	0.000000	0.000000	7.163493	155.016	NaN	0.000000	0.001547	0.001747	28.0816	52.2691	0.001815	28790.9	7.659876	-6.514588	153.904	1.156474	0.053723	0.053358	155.016	28790.9	0.049684	0.091440	1695.27	86988.2
593	2.000000	1.159282	7.37085e+06	-47439.1	1005.82	-29765.9	0.000000	0.000000	7.166566	170.326	NaN	0.000000	0.001531	0.001762	28.0813	52.6779	0.001877	28060.9	2.460454	179.512	165.703	1.158879	0.056166	0.055762	170.326	28060.9	0.051613	0.097465	1747.56	82120.3
593	2.000000	1.161862	7.37085e+06	-47439.1	1005.82	-29765.9	0.000000	0.000000	7.169856	187.6	NaN	0.000000	0.001532	0.001766	28.0814	57.0439	0.001774	32163.3	9.883200	-9.954370	185.399	1.161446	0.058746	0.058330	187.6	32163.3	0.054371	0.106401	1763.14	90086.6
593	2.000000	1.164387	7.37085e+06	-47439.1	1005.82	-29765.9	0.000000	0.000000	7.172944	201.289	NaN	0.000000	0.001555	0.001761	28.081	59.8283	0.001733	34530.4	5.817782	172.923	201.123	1.163970	0.061271	0.060853	201.289	34530.4	0.056899	0.114924	1751.5	93061.4
593	2.000000	1.166825	7.37085e+06	-47439.1	1005.82	-29765.9	0.000000	0.000000	7.176007	216.503	NaN	0.000000	0.001528	0.001797	28.0815	61.1656	0.001763	34691.5	5.812332	-7.000748	213.172	1.166508	0.063708	0.063392	216.503	34691.5	0.059028	0.122344	1769.62	90615.8
593	2.000000	1.169323	7.37085e+06	-47439.1	1005.82	-29765.9	0.000000	0.000000	7.179283	235.417	NaN	0.000000	0.001532	0.001748	28.0814	63.5702	0.001643	38680.9	2.512724	175.714	234.387	1.169005	0.066207	0.065888	235.417	38680.9	0.061642	0.131763	1786.68	97358.4
593	2.000000	1.171813	7.37085e+06	-47439.1	1005.82	-29765.9	0.000000	0.000000	7.182434	251.513	NaN	0.000000	0.001539	0.001755	28.0815	66.8383	0.001754	38100.1	5.180579	-7.027280	249.23	1.171496	0.068696	0.068380	251.513	38100.1	0.063745	0.139580	1801.93	93172.6
593	2.000000	1.174324	7.37085e+06	-47439.1	1005.82	-29765.9	0.000000	0.000000	7.185601	267.472	NaN	0.000000	0.001549	0.001733	28.0813	69.6925	0.001878	37113.7	1.377854	176.924	265.64	1.174005	0.071207	0.070888	267.472	37113.7	0.065802	0.147431	1814.22	88310.6
593	2.000000	1.176831	7.37085e+06	-47439.1	1005.82	-29765.9	0.000000	0.000000	7.188950	287.936	NaN	0.000000	0.001557	0.001759	28.0816	71.9544	0.001793	40121.6	6.414879	-8.468991	284.012	1.176413	0.073714	0.073296	287.936	40121.6	0.068332	0.157368	1829.69	92404.5
593	2.000000	1.179274	7.37085e+06	-47439.1	1005.82	-29765.9	0.000000	0.000000	7.192210	307.806	NaN	0.000000	0.001568	0.001781	28.0812	73.7958	0.001797	41069.6	5.606188	171.905	302.863	1.178918	0.076157	0.075802	307.806	41069.6	0.070536	0.166277	1851.16	92019.1
593	2.000000	1.181759	7.37085e+06	-47439.1	1005.82	-29765.9	0.000000	0.000000	7.195245	321.173	NaN	0.000000	0.001537	0.001800	28.0814	76.477	0.001809	42269.8	3.542374	-6.417555	315.512	1.181513	0.078643	0.078397	321.173	42269.8	0.072944	0.176270	1822.05	91984.3
593	2.000000	1.184283	7.37085e+06	-47439.1	1005.82	-29765.9	0.000000	0.000000	7.198514	339.312	NaN	0.000000	0.001565	0.001766	28.0812	79.6742	0.001797	44326.6	3.970396	172.921	337.269	1.184030	0.081167	0.080913	339.312	44326.6	0.075425	0.186855	1815.91	93688.1
593	2.000000	1.186693	7.37085e+06	-47439.1	1005.82	-29765.9	0.000000	0.000000	7.201774	359.978	NaN	0.000000	0.001554	0.001761	28.0818	80.065	0.001792	44668.7	1.973306	-4.705532	351.462	1.186443	0.083576	0.083326	359.978	44668.7	0.077532	0.196070	1835.97	92166
593	2.000000	1.189226	7.37085e+06	-47439.1	1005.82	-29765.9	0.000000	0.000000	7.205061	378.334	NaN	0.000000	0.001550	0.001797	28.0802	82.6216	0.001750	47207.5	2.968300	173.693	372.66	1.189036	0.086109	0.085919	378.334	47207.5	0.080099	0.207576	1822.63	94666.4
593	2.000000	1.191727	7.37085e+06	-47439.1	1005.82	-29765.9	0.000000	0.000000	7.208466	400.31	NaN	0.000000	0.001550	0.001767	28.08	84.9373	0.001752	48470	4.135558	-7.865620	393.648	1.191404	0.088610	0.088287	400.31	48470	0.082416	0.218229	1834.35	94796
593	2.000000	1.194255	7.37085e+06	-47439.1	1005.82	-29765.9	0.000000	0.000000	7.211814	420.25	NaN	0.000000	0.001555	0.001763	28.08	89.0149	0.001797	49540.1	8.094784	168.132	416.349	1.193846	0.091138	0.090729	420.25	49540.1	0.084776	0.229334	1832.48	94514
593	2.000000	1.196774	7.37085e+06	-47439.1	1005.82	-29765.9	0.000000	0.000000	7.215026	437.126	NaN	0.000000	0.001572	0.001710	28.0803	89.7246	0.001793	50051.8	7.370795	-11.0748	433.447	1.196477	0.093657	0.093360	437.126	50051.8	0.087107	0.240556	1817.15	93236.2
593	2.000000	1.199305	7.37085e+06	-47439.1	1005.82	-29765.9	0.000000	0.000000	7.218383	457.202	NaN	0.000000	0.001596	0.001728	28.0802	90.9252	0.001760	51668.2	5.484619	171.083	457.245	1.198921	0.096189	0.095804	457.202	51668.2	0.089552	0.252593	1810.03	93926
593	2.000000	1.201833	7.37085e+06	-47439.1	1005.82	-29765.9	0.000000	0.000000	7.221622	474.49	NaN	0.000000	0.001588	0.001782	28.0801	93.5484	0.001839	50881.8	0.662122	-4.544140	473.08	1.201472	0.098717	0.098355	474.49	50881.8	0.091723	0.263511	1800.64	90559.9
593	2.000000	1.204263	7.37085e+06	-47439.1	1005.82	-29765.9	0.000000	0.000000	7.224912	495.402	NaN	0.000000	0.001581	0.001753	28.0801	97.3788	0.001922	50671.6	3.513742	172.368	493.173	1.204048	0.101147	0.100931	495.402	50671.6	0.093814	0.274236	1806.48	88404.7
593	2.000000	1.206730	7.37085e+06	-47439.1	1005.82	-29765.9	0.000000	0.000000	7.228487	522.364	NaN	0.000000	0.001554	0.001773	28.0804	97.2876	0.001751	55556.7	1.432895	-5.699521	515.123	1.206372	0.103614	0.103255	522.364	55556.7	0.096562	0.288628	1809.82	94480.1
593	2.000000	1.209220	7.37085e+06	-47439.1	1005.82	-29765.9	0.000000	0.000000	7.232117	550.094	NaN	0.000000	0.001593	0.001743	28.0801	99.3525	0.001714	57982.2	3.013588	172.261	543.999	1.208878	0.106103	0.105761	550.094	57982.2	0.098988	0.301618	1823.81	96458.2
593	2.000000	1.210311	7.37085e+06	-47439.1	1005.82	-29765.9	0.000000	0.000000	7.233433	555.562	NaN	0.000000	0.001582	0.001788	28.0804	101.65	0.001811	56131.7	4.711514	171.068	553.504	1.209991	0.107195	0.106875	555.562	56131.7	0.099772	0.305874	1816.31	92727.8