File: remote_trans/data/nanoindenter/0828-1/data/Data_2025-08-06,11h17m57s/2025-07-22_16-23-58_1_680.txt
2025-07-22, 16:23:58, 1
Index	Phase	Displacement	Time	Pos X	Pos Y	Pos Z	Rot A	Rot B	Piezo Z	Force A	Force B	Gripper	Voltage A	Voltage B	Temperature	Amplitude force	Amplitude pos	Stiffness	Phase shift	Phase excitation	Force A raw	Displacement raw	HMax	HMax raw	Real Force	Real Stiffness	Contact Depth	Area	Hardness	Reduced Mod.
[#]	[#]	[um]	[s]	[um]	[um]	[um]	[m°]	[m°]	[um]	[uN]	[uN]	[V]	[V]	[V]	[°C]	[uN]	[um]	[N/m]	[°]	[°]	[uN]	[um]	[um]	[um]	[uN]	[N/m]	[um]	[um^2]	[MPa]	[MPa]
680	1.000000	0.002619	7.3717e+06	-43089.1	1005.82	-29780.1	0.000000	0.000000	6.002790	0.018742	NaN	0.000000	0.001625	0.001717	28.0828	0.043196	0.000965	44.7858	-43.9273	-163.394	-0.021818	0.001409	-1.239552	-1.240762	0.018742	44.7858	-1.239866	-3.752716E+16	-4.994346E-19	NaN
680	1.000000	0.012687	7.3717e+06	-43089.1	1005.82	-29780.1	0.000000	0.000000	6.012854	-0.066881	NaN	0.000000	0.001613	0.001714	28.0831	0.056441	0.001127	50.0601	-105.735	14.0378	-0.078749	0.011307	-1.229484	-1.230864	-0.066881	50.0601	-1.228482	-2.642534E+16	2.530931E-18	NaN
680	1.000000	0.022573	7.3717e+06	-43089.1	1005.82	-29780.1	0.000000	0.000000	6.022744	0.016291	NaN	0.000000	0.001620	0.001688	28.0827	0.177218	0.001804	98.2475	143.287	-160.446	-0.094606	0.021300	-1.219598	-1.220870	0.016291	98.2475	-1.219722	-2.017360E+16	-8.075538E-19	NaN
680	1.000000	0.032594	7.3717e+06	-43089.1	1005.82	-29780.1	0.000000	0.000000	6.032764	0.009938	NaN	0.000000	0.001607	0.001715	28.0839	0.050378	0.001942	25.9361	-12.1911	17.1604	-0.036541	0.031244	-1.209577	-1.210927	0.009938	25.9361	-1.209864	-1.488767E+16	-6.675293E-19	NaN
680	1.000000	0.042586	7.3717e+06	-43089.1	1005.82	-29780.1	0.000000	0.000000	6.042754	-0.032915	NaN	0.000000	0.001594	0.001688	28.0842	0.152808	0.001875	81.4987	9.037659	-166.619	0.009813	0.041254	-1.199585	-1.200916	-0.032915	81.4987	-1.199282	-1.074324E+16	3.063804E-18	NaN
680	1.000000	0.052608	7.3717e+06	-43089.1	1005.82	-29780.1	0.000000	0.000000	6.052777	-0.025755	NaN	0.000000	0.001582	0.001696	28.0841	0.109624	0.001994	54.967	138.734	13.5966	0.009161	0.051247	-1.189562	-1.190924	-0.025755	54.967	-1.189211	-7.875120E+15	3.270456E-18	NaN
680	1.000000	0.062608	7.3717e+06	-43089.1	1005.82	-29780.2	0.000000	0.000000	6.062776	-0.042984	NaN	0.000000	0.001583	0.001726	28.0844	0.097396	0.002087	46.6675	-141.595	-164.483	-0.048162	0.061278	-1.179563	-1.180893	-0.042984	46.6675	-1.178872	-5.724785E+15	7.508476E-18	NaN
680	1.000000	0.072594	7.3717e+06	-43089.1	1005.82	-29780.2	0.000000	0.000000	6.072763	-0.020997	NaN	0.000000	0.001654	0.001766	28.0839	0.025956	0.001982	13.0979	-31.0495	17.4486	-0.074526	0.071260	-1.169577	-1.170911	-0.020997	13.0979	-1.168374	-4.140984E+15	5.070578E-18	NaN
680	1.000000	0.082612	7.3717e+06	-43089.1	1005.82	-29780.2	0.000000	0.000000	6.082781	-0.001199	NaN	0.000000	0.001655	0.001758	28.0842	0.121648	0.001988	61.1901	-111.029	-163.4	0.003373	0.081322	-1.159559	-1.160848	-0.001199	61.1901	-1.159544	-3.153279E+15	3.801149E-19	NaN
680	1.000000	0.092583	7.3717e+06	-43089.1	1005.82	-29780.2	0.000000	0.000000	6.092752	-0.036022	NaN	0.000000	0.001609	0.001753	28.084	0.105157	0.002022	52.0169	-76.8249	18.3269	-0.069485	0.091218	-1.149587	-1.150953	-0.036022	52.0169	-1.149068	-2.282051E+15	1.578488E-17	NaN
680	1.000000	0.102601	7.3717e+06	-43089.1	1005.82	-29780.2	0.000000	0.000000	6.102769	-0.037963	NaN	0.000000	0.001635	0.001765	28.0839	0.037345	0.002006	18.6127	172.047	-163.221	0.016316	0.101252	-1.139570	-1.140919	-0.037963	18.6127	-1.138040	-1.623501E+15	2.338330E-17	NaN
680	1.000000	0.112596	7.3717e+06	-43089.1	1005.82	-29780.2	0.000000	0.000000	6.112762	-0.099485	NaN	0.000000	0.001644	0.001786	28.0841	0.067822	0.002054	33.0187	-145.046	16.8526	-0.038812	0.111269	-1.129575	-1.130902	-0.099485	33.0187	-1.127315	-1.165754E+15	8.533957E-17	NaN
680	1.000000	0.122626	7.3717e+06	-43089.1	1005.82	-29780.2	0.000000	0.000000	6.122794	-0.031234	NaN	0.000000	0.001620	0.001751	28.0839	0.052720	0.002005	26.2892	-110.132	-158.683	-0.104872	0.121310	-1.119545	-1.120861	-0.031234	26.2892	-1.118654	-8.920994E+14	3.501226E-17	NaN
680	1.000000	0.132613	7.3717e+06	-43089.1	1005.82	-29780.2	0.000000	0.000000	6.132784	0.013276	NaN	0.000000	0.001632	0.001738	28.0839	0.153106	0.001963	77.9879	174.204	16.0153	0.054512	0.131246	-1.109558	-1.110925	0.013276	77.9879	-1.109685	-6.761826E+14	-1.963306E-17	NaN
680	1.000000	0.142623	7.3717e+06	-43089.1	1005.82	-29780.2	0.000000	0.000000	6.142790	-0.047832	NaN	0.000000	0.001645	0.001735	28.0839	0.081286	0.001987	40.9104	-115.515	-163.654	-0.054637	0.141285	-1.099548	-1.100886	-0.047832	40.9104	-1.098671	-4.810973E+14	9.942240E-17	NaN
680	1.000000	0.152626	7.3717e+06	-43089.1	1005.82	-29780.2	0.000000	0.000000	6.152794	-0.039388	NaN	0.000000	0.001656	0.001755	28.0838	0.048881	0.001966	24.8668	151.855	17.8442	-0.124322	0.151240	-1.089545	-1.090931	-0.039388	24.8668	-1.088357	-3.497419E+14	1.126211E-16	NaN
680	1.000000	0.162637	7.3717e+06	-43089.1	1005.82	-29780.2	0.000000	0.000000	6.162805	-0.041630	NaN	0.000000	0.001638	0.001749	28.0847	0.013262	0.002074	6.395198	-172.601	-165.407	-0.038042	0.161290	-1.079533	-1.080881	-0.041630	6.395198	-1.074651	-2.289151E+14	1.818580E-16	NaN
680	1.000000	0.172663	7.3717e+06	-43089.1	1005.82	-29780.2	0.000000	0.000000	6.172832	-0.012882	NaN	0.000000	0.001588	0.001747	28.087	0.015262	0.002021	7.551625	-21.149	16.6014	0.018970	0.171226	-1.069508	-1.070944	-0.012882	7.551625	-1.068228	-1.876669E+14	6.864295E-17	NaN
680	1.000000	0.182668	7.3717e+06	-43089.1	1005.82	-29780.2	0.000000	0.000000	6.182835	-0.073360	NaN	0.000000	0.001639	0.001731	28.0836	0.081836	0.002043	40.0598	-89.9302	-163.735	-0.034103	0.181314	-1.059503	-1.060857	-0.073360	40.0598	-1.058129	-1.373027E+14	5.342967E-16	NaN
680	1.000000	0.192631	7.3717e+06	-43089.1	1005.82	-29780.2	0.000000	0.000000	6.192799	-0.033114	NaN	0.000000	0.001642	0.001748	28.0831	0.047189	0.001992	23.6909	-159.869	17.8839	0.067650	0.191282	-1.049540	-1.050889	-0.033114	23.6909	-1.048492	-1.018920E+14	3.249917E-16	NaN
680	1.000000	0.202620	7.3717e+06	-43089.1	1005.82	-29780.2	0.000000	0.000000	6.202789	-0.028132	NaN	0.000000	0.001659	0.001741	28.0831	0.116879	0.001914	61.0629	71.1982	-166.575	0.011575	0.201314	-1.039551	-1.040857	-0.028132	61.0629	-1.039205	-7.643258E+13	3.680672E-16	NaN
680	1.000000	0.212667	7.3717e+06	-43089.1	1005.82	-29780.2	0.000000	0.000000	6.212835	-0.052302	NaN	0.000000	0.001638	0.001761	28.0827	0.034926	0.001976	17.6762	-125.985	14.5336	-0.109393	0.211314	-1.029503	-1.030857	-0.052302	17.6762	-1.027284	-5.283848E+13	9.898501E-16	NaN
680	1.000000	0.222678	7.3717e+06	-43089.1	1005.82	-29780.2	0.000000	0.000000	6.222846	-0.028595	NaN	0.000000	0.001651	0.001758	28.0827	0.079204	0.002053	38.5883	13.5007	-162.99	0.060924	0.221326	-1.019493	-1.020845	-0.028595	38.5883	-1.018938	-4.079969E+13	7.008539E-16	NaN
680	1.000000	0.232644	7.3717e+06	-43089.1	1005.82	-29780.2	0.000000	0.000000	6.232813	-0.030828	NaN	0.000000	0.001619	0.001732	28.0828	0.018848	0.001968	9.578890	3.952407	17.2809	-0.026801	0.231321	-1.009527	-1.010850	-0.030828	9.578890	-1.007113	-2.828300E+13	1.089969E-15	NaN
680	1.000000	0.242671	7.3717e+06	-43089.1	1005.82	-29780.2	0.000000	0.000000	6.242840	-0.023877	NaN	0.000000	0.001642	0.001692	28.0828	0.056156	0.002110	26.6095	-168.806	-162.814	-0.081935	0.241345	-0.999500	-1.000826	-0.023877	26.6095	-0.998827	-2.187629E+13	1.091437E-15	NaN
680	1.000000	0.252643	7.3717e+06	-43089.1	1005.82	-29780.2	0.000000	0.000000	6.252811	-0.042473	NaN	0.000000	0.001630	0.001709	28.0827	0.054662	0.002029	26.9353	155.666	14.0394	-0.028866	0.251312	-0.989528	-0.990859	-0.042473	26.9353	-0.988345	-1.580612E+13	2.687121E-15	NaN
680	1.000000	0.262639	7.3717e+06	-43089.1	1005.82	-29780.2	0.000000	0.000000	6.262811	0.040548	NaN	0.000000	0.001649	0.001733	28.0826	0.155781	0.001939	80.3335	68.3047	-164.846	-0.039901	0.261384	-0.979531	-0.980787	0.040548	80.3335	-0.979910	-1.216741E+13	-3.332493E-15	NaN
680	1.000000	0.272662	7.3717e+06	-43089.1	1005.82	-29780.2	0.000000	0.000000	6.272830	-0.041262	NaN	0.000000	0.001565	0.001762	28.0828	0.072033	0.001928	37.3549	-56.1011	14.7741	-0.015601	0.271349	-0.969509	-0.970822	-0.041262	37.3549	-0.968681	-8.587858E+12	4.804692E-15	NaN
680	1.000000	0.282691	7.3717e+06	-43089.1	1005.82	-29780.2	0.000000	0.000000	6.282861	0.009083	NaN	0.000000	0.001600	0.001741	28.0827	0.060112	0.002143	28.0451	87.7439	-166.603	0.042226	0.281431	-0.959480	-0.960740	0.009083	28.0451	-0.959723	-6.503319E+12	-1.396603E-15	NaN
680	1.000000	0.292683	7.3717e+06	-43089.1	1005.82	-29780.2	0.000000	0.000000	6.292852	-0.024172	NaN	0.000000	0.001597	0.001749	28.0827	0.082783	0.002117	39.1022	-38.7879	13.8205	-0.119573	0.291276	-0.949488	-0.950895	-0.024172	39.1022	-0.949024	-4.665141E+12	5.181344E-15	NaN
680	1.000000	0.302693	7.3717e+06	-43089.1	1005.82	-29780.2	0.000000	0.000000	6.302861	-0.046293	NaN	0.000000	0.001603	0.001707	28.0838	0.045191	0.001979	22.8358	-15.3471	-161.565	-0.082680	0.301398	-0.939477	-0.940773	-0.046293	22.8358	-0.937957	-3.308066E+12	1.399387E-14	NaN
680	1.000000	0.312679	7.3717e+06	-43089.1	1005.82	-29780.2	0.000000	0.000000	6.312850	0.014569	NaN	0.000000	0.001628	0.001727	28.0844	0.055453	0.002013	27.5503	-121.395	14.4987	-0.010552	0.311322	-0.929491	-0.930849	0.014569	27.5503	-0.929888	-2.574460E+12	-5.658930E-15	NaN
680	1.000000	0.322705	7.3717e+06	-43089.1	1005.82	-29780.2	0.000000	0.000000	6.322873	-0.030628	NaN	0.000000	0.001611	0.001700	28.084	0.131299	0.001988	66.05	2.918641	-159.95	0.024238	0.321370	-0.919466	-0.920801	-0.030628	66.05	-0.919119	-1.842064E+12	1.662712E-14	NaN
680	1.000000	0.332694	7.3717e+06	-43089.1	1005.82	-29780.2	0.000000	0.000000	6.332862	-0.033168	NaN	0.000000	0.001602	0.001717	28.084	0.112497	0.001870	60.1672	123.621	15.985	-0.026768	0.331346	-0.909477	-0.910825	-0.033168	60.1672	-0.909063	-1.347448E+12	2.461535E-14	NaN
680	1.000000	0.342695	7.3717e+06	-43089.1	1005.82	-29780.2	0.000000	0.000000	6.342863	-0.045353	NaN	0.000000	0.001633	0.001690	28.0842	0.022312	0.002121	10.5219	-124.43	-164.548	-0.057324	0.341338	-0.899476	-0.900832	-0.045353	10.5219	-0.896243	-9.042640E+11	5.015507E-14	NaN
680	1.000000	0.352710	7.3717e+06	-43089.1	1005.82	-29780.2	0.000000	0.000000	6.352880	-0.000946	NaN	0.000000	0.001661	0.001671	28.0839	0.109490	0.001968	55.6255	-5.791459	16.0357	-0.034452	0.351407	-0.889461	-0.890764	-0.000946	55.6255	-0.889448	-7.319075E+11	1.293150E-15	NaN
680	1.000000	0.362729	7.3717e+06	-43089.1	1005.82	-29780.2	0.000000	0.000000	6.362897	-0.057268	NaN	0.000000	0.001706	0.001693	28.0838	0.049785	0.002167	22.9785	141.507	-163.487	-0.045244	0.361389	-0.879442	-0.880782	-0.057268	22.9785	-0.877572	-5.056804E+11	1.132486E-13	NaN
680	1.000000	0.372692	7.3717e+06	-43089.1	1005.82	-29780.2	0.000000	0.000000	6.372860	-0.050109	NaN	0.000000	0.001672	0.001708	28.0844	0.079002	0.002066	38.2427	3.338409	16.0325	-0.111413	0.371360	-0.869479	-0.870811	-0.050109	38.2427	-0.868496	-3.811513E+11	1.314682E-13	NaN
680	1.000000	0.382727	7.3717e+06	-43089.1	1005.82	-29780.2	0.000000	0.000000	6.382896	-0.005705	NaN	0.000000	0.001675	0.001716	28.0844	0.061706	0.001992	30.976	63.8063	-164.267	0.017823	0.381392	-0.859444	-0.860779	-0.005705	30.976	-0.859306	-2.862370E+11	1.992964E-14	NaN
680	1.000000	0.392721	7.3717e+06	-43089.1	1005.82	-29780.2	0.000000	0.000000	6.392886	-0.096424	NaN	0.000000	0.001654	0.001650	28.0842	0.063809	0.002091	30.5118	103.748	13.6429	-0.088175	0.391388	-0.849450	-0.850783	-0.096424	30.5118	-0.847080	-1.955225E+11	4.931607E-13	NaN
680	1.000000	0.402738	7.3717e+06	-43089.1	1005.82	-29780.2	0.000000	0.000000	6.402905	-0.068881	NaN	0.000000	0.001636	0.001717	28.0843	0.092724	0.001975	46.9433	96.2668	-163.374	-0.014584	0.401401	-0.839433	-0.840770	-0.068881	46.9433	-0.838332	-1.488335E+11	4.628081E-13	NaN
680	1.000000	0.412753	7.3717e+06	-43089.1	1005.82	-29780.2	0.000000	0.000000	6.412923	-0.001560	NaN	0.000000	0.001635	0.001688	28.0844	0.027698	0.001972	14.0477	-168.714	15.3843	-0.035736	0.411377	-0.829418	-0.830794	-0.001560	14.0477	-0.829334	-1.123991E+11	1.387932E-14	NaN
680	1.000000	0.422733	7.3717e+06	-43089.1	1005.82	-29780.2	0.000000	0.000000	6.422901	-0.030439	NaN	0.000000	0.001609	0.001692	28.0843	0.053245	0.002011	26.481	-140.401	-166.914	0.035085	0.421414	-0.819438	-0.820757	-0.030439	26.481	-0.818576	-8.033480E+10	3.789075E-13	NaN
680	1.000000	0.432744	7.3717e+06	-43089.1	1005.82	-29780.2	0.000000	0.000000	6.432915	0.016628	NaN	0.000000	0.001627	0.001714	28.0841	0.040603	0.002012	20.1846	144.746	15.401	0.011393	0.431405	-0.809427	-0.810765	0.016628	20.1846	-0.810045	-6.154251E+10	-2.701797E-13	NaN
680	1.000000	0.442730	7.3717e+06	-43089.1	1005.82	-29780.2	0.000000	0.000000	6.442899	-0.026537	NaN	0.000000	0.001590	0.001714	28.083	0.085609	0.001925	44.477	156.43	-163.278	-0.091833	0.441457	-0.799441	-0.800714	-0.026537	44.477	-0.798993	-4.357067E+10	6.090535E-13	NaN
680	1.000000	0.452768	7.3717e+06	-43089.1	1005.82	-29780.2	0.000000	0.000000	6.452935	-0.047419	NaN	0.000000	0.001582	0.001747	28.0833	0.097086	0.001990	48.7835	108.865	20.0671	0.043308	0.451415	-0.789403	-0.790756	-0.047419	48.7835	-0.788674	-3.155570E+10	1.502697E-12	NaN
680	1.000000	0.462759	7.3717e+06	-43089.1	1005.82	-29780.2	0.000000	0.000000	6.462927	-0.038105	NaN	0.000000	0.001609	0.001736	28.0828	0.080794	0.001985	40.6922	-59.8791	-161.932	-0.067139	0.461398	-0.779412	-0.780773	-0.038105	40.6922	-0.778710	-2.310441E+10	1.649245E-12	NaN
680	1.000000	0.472759	7.3717e+06	-43089.1	1005.82	-29780.2	0.000000	0.000000	6.472927	-0.037760	NaN	0.000000	0.001623	0.001720	28.0831	0.024995	0.002024	12.3489	-97.7497	16.4997	0.005302	0.471389	-0.769412	-0.770782	-0.037760	12.3489	-0.767119	-1.607429E+10	2.349124E-12	NaN
680	1.000000	0.482767	7.3717e+06	-43089.1	1005.82	-29780.2	0.000000	0.000000	6.482935	-0.042312	NaN	0.000000	0.001628	0.001695	28.083	0.043415	0.001988	21.8399	88.7167	-162.805	-0.036258	0.481495	-0.759404	-0.760676	-0.042312	21.8399	-0.757951	-1.206200E+10	3.507881E-12	NaN
680	1.000000	0.492745	7.3717e+06	-43089.1	1005.82	-29780.2	0.000000	0.000000	6.492913	-0.037595	NaN	0.000000	0.001602	0.001722	28.0834	0.138434	0.001967	70.3789	46.595	13.98	0.014004	0.491391	-0.749426	-0.750780	-0.037595	70.3789	-0.749025	-9.119097E+9	4.122707E-12	NaN
680	1.000000	0.502770	7.3717e+06	-43089.1	1005.82	-29780.2	0.000000	0.000000	6.502938	-0.038425	NaN	0.000000	0.001640	0.001752	28.0829	0.104751	0.001891	55.3903	112.283	-165.259	-0.066522	0.501465	-0.739401	-0.740706	-0.038425	55.3903	-0.738881	-6.634545E+9	5.791703E-12	NaN
680	1.000000	0.512775	7.3717e+06	-43089.1	1005.82	-29780.2	0.000000	0.000000	6.512942	-0.042868	NaN	0.000000	0.001671	0.001776	28.0833	0.087670	0.002011	43.5911	160.809	15.5549	-0.021107	0.511391	-0.729396	-0.730780	-0.042868	43.5911	-0.728659	-4.814246E+9	8.904309E-12	NaN
680	1.000000	0.522782	7.3717e+06	-43089.1	1005.82	-29780.2	0.000000	0.000000	6.522953	0.028749	NaN	0.000000	0.001670	0.001700	28.083	0.017109	0.002106	8.123802	-92.0929	-161.119	0.008688	0.521485	-0.719389	-0.720686	0.028749	8.123802	-0.722043	-3.911405E+9	-7.350137E-12	NaN
680	1.000000	0.532775	7.3717e+06	-43089.1	1005.82	-29780.2	0.000000	0.000000	6.532944	-0.009470	NaN	0.000000	0.001653	0.001719	28.0833	0.057550	0.001994	28.8624	146.347	12.5134	-0.029153	0.531399	-0.709396	-0.710772	-0.009470	28.8624	-0.709150	-2.608821E+9	3.630086E-12	NaN
680	1.000000	0.542774	7.3717e+06	-43089.1	1005.82	-29780.2	0.000000	0.000000	6.542943	-0.009524	NaN	0.000000	0.001640	0.001692	28.0831	0.030914	0.001889	16.3679	98.0768	-163.306	-0.075818	0.541498	-0.699397	-0.700673	-0.009524	16.3679	-0.698961	-1.893807E+9	5.028954E-12	NaN
680	1.000000	0.552840	7.3717e+06	-43089.1	1005.82	-29780.2	0.000000	0.000000	6.553010	0.007815	NaN	0.000000	0.001651	0.001717	28.0832	0.050288	0.001994	25.2237	154.902	18.3865	-0.007140	0.551394	-0.689331	-0.690777	0.007815	25.2237	-0.689563	-1.409130E+9	-5.545732E-12	NaN
680	1.000000	0.562787	7.3717e+06	-43089.1	1005.82	-29780.2	0.000000	0.000000	6.562957	0.019195	NaN	0.000000	0.001667	0.001693	28.0831	0.092152	0.001991	46.2831	15.2738	-165.667	-0.011579	0.561448	-0.679384	-0.680723	0.019195	46.2831	-0.679695	-1.032847E+9	-1.858471E-11	NaN
680	1.000000	0.572801	7.3717e+06	-43089.1	1005.82	-29780.2	0.000000	0.000000	6.572970	-0.013244	NaN	0.000000	0.001632	0.001689	28.0834	0.099248	0.001985	49.9943	50.7637	14.9444	-0.029307	0.571463	-0.669370	-0.670708	-0.013244	49.9943	-0.669171	-7.413904E+8	1.786365E-11	NaN
680	1.000000	0.582791	7.3717e+06	-43089.1	1005.82	-29780.2	0.000000	0.000000	6.582959	-0.050222	NaN	0.000000	0.001644	0.001769	28.0842	0.087103	0.002042	42.6569	17.4117	-162.17	-0.068264	0.581457	-0.659380	-0.660714	-0.050222	42.6569	-0.658497	-5.295163E+8	9.484567E-11	NaN
680	1.000000	0.592804	7.3717e+06	-43089.1	1005.82	-29780.2	0.000000	0.000000	6.592969	-0.133909	NaN	0.000000	0.001645	0.001774	28.0845	0.082252	0.001957	42.0278	-93.4977	14.8874	0.007677	0.591477	-0.649367	-0.650694	-0.133909	42.0278	-0.646977	-3.681183E+8	3.637674E-10	NaN
680	1.000000	0.602806	7.3717e+06	-43089.1	1005.82	-29780.2	0.000000	0.000000	6.602973	-0.055935	NaN	0.000000	0.001629	0.001807	28.0845	0.092925	0.001937	47.9705	111.403	-163.658	-0.090518	0.601536	-0.639365	-0.640635	-0.055935	47.9705	-0.638491	-2.815667E+8	1.986573E-10	NaN
680	1.000000	0.612838	7.3717e+06	-43089.1	1005.82	-29780.2	0.000000	0.000000	6.613005	-0.060175	NaN	0.000000	0.001632	0.001780	28.0845	0.137896	0.002067	66.7083	102.206	15.8215	-0.067125	0.611446	-0.629333	-0.630725	-0.060175	66.7083	-0.628656	-2.063343E+8	2.916403E-10	NaN
680	1.000000	0.622797	7.3717e+06	-43089.1	1005.82	-29780.2	0.000000	0.000000	6.622967	-0.002300	NaN	0.000000	0.001598	0.001798	28.0842	0.130158	0.001959	66.4418	89.7124	-165.264	0.063232	0.621487	-0.619374	-0.620684	-0.002300	66.4418	-0.619348	-1.536987E+8	1.496589E-11	NaN
680	1.000000	0.632844	7.3717e+06	-43089.1	1005.82	-29780.2	0.000000	0.000000	6.633013	-0.016570	NaN	0.000000	0.001616	0.001797	28.0848	0.077481	0.001976	39.2028	163.116	17.7381	-0.089872	0.631498	-0.609327	-0.610673	-0.016570	39.2028	-0.609010	-1.107890E+8	1.495674E-10	NaN
680	1.000000	0.642847	7.3717e+06	-43089.1	1005.82	-29780.2	0.000000	0.000000	6.643016	-0.009250	NaN	0.000000	0.001597	0.001812	28.0843	0.082935	0.001917	43.2575	134.293	-163.201	-0.079310	0.641518	-0.599324	-0.600653	-0.009250	43.2575	-0.599164	-8.108574E+7	1.140809E-10	NaN
680	1.000000	0.652851	7.3717e+06	-43089.1	1005.82	-29780.2	0.000000	0.000000	6.653021	0.002186	NaN	0.000000	0.001615	0.001782	28.0847	0.040854	0.001922	21.2603	78.9698	16.2499	0.033846	0.651453	-0.589320	-0.590718	0.002186	21.2603	-0.589397	-5.947694E+7	-3.675084E-11	NaN
680	1.000000	0.662823	7.3717e+06	-43089.1	1005.82	-29780.2	0.000000	0.000000	6.662990	-0.069944	NaN	0.000000	0.001582	0.001771	28.0844	0.069796	0.001980	35.2495	8.830668	-161.298	-0.077867	0.661548	-0.579348	-0.580623	-0.069944	35.2495	-0.577860	-4.122739E+7	1.696545E-9	NaN
680	1.000000	0.672831	7.3717e+06	-43089.1	1005.82	-29780.2	0.000000	0.000000	6.673001	0.005004	NaN	0.000000	0.001631	0.001786	28.0849	0.090781	0.002029	44.75	-167.776	16.2963	-0.009635	0.671537	-0.569340	-0.570634	0.005004	44.75	-0.569423	-3.152569E+7	-1.587290E-10	NaN
680	1.000000	0.682857	7.3717e+06	-43089.1	1005.82	-29780.2	0.000000	0.000000	6.683025	-0.053962	NaN	0.000000	0.001601	0.001804	28.0847	0.076258	0.002010	37.9409	129.831	-166.534	0.005571	0.681478	-0.559314	-0.560693	-0.053962	37.9409	-0.558247	-2.208653E+7	2.443188E-9	NaN
680	1.000000	0.692861	7.3717e+06	-43089.1	1005.82	-29780.2	0.000000	0.000000	6.693030	-0.032959	NaN	0.000000	0.001638	0.001805	28.0849	0.089193	0.002082	42.8453	130.779	18.7618	-0.134247	0.691447	-0.549310	-0.550724	-0.032959	42.8453	-0.548733	-1.630807E+7	2.021014E-9	NaN
680	1.000000	0.702822	7.3717e+06	-43089.1	1005.82	-29780.2	0.000000	0.000000	6.702992	-0.001104	NaN	0.000000	0.001597	0.001794	28.0847	0.094082	0.001934	48.6505	49.8935	-164.988	-0.019817	0.701583	-0.539349	-0.540588	-0.001104	48.6505	-0.539332	-1.208061E+7	9.139501E-11	NaN
680	1.000000	0.712841	7.37171e+06	-43089.1	1005.82	-29780.2	0.000000	0.000000	6.713008	-0.070751	NaN	0.000000	0.001601	0.001805	28.0837	0.105485	0.002073	50.8798	57.9279	14.3941	-0.067139	0.711480	-0.529330	-0.530691	-0.070751	50.8798	-0.528287	-8.48754e+06	8.335848E-9	NaN
680	1.000000	0.722864	7.37171e+06	-43089.1	1005.82	-29780.2	0.000000	0.000000	6.723031	-0.065892	NaN	0.000000	0.001606	0.001798	28.0833	0.089796	0.002038	44.0523	-51.1759	-163.622	-0.067457	0.721538	-0.519307	-0.520633	-0.065892	44.0523	-0.518185	-6.14268e+06	1.072693E-8	NaN
680	1.000000	0.732850	7.37171e+06	-43089.1	1005.82	-29780.2	0.000000	0.000000	6.733017	-0.083985	NaN	0.000000	0.001585	0.001781	28.0832	0.078930	0.001951	40.4507	36.0068	13.7764	-0.065859	0.731513	-0.509321	-0.510657	-0.083985	40.4507	-0.507763	-4.39802e+06	1.909604E-8	NaN
680	1.000000	0.742874	7.37171e+06	-43089.1	1005.82	-29780.2	0.000000	0.000000	6.743042	-0.043419	NaN	0.000000	0.001618	0.001756	28.0834	0.061858	0.002069	29.9032	47.2111	-161.871	0.002129	0.741544	-0.499296	-0.500627	-0.043419	29.9032	-0.498208	-3.23599e+06	1.341755E-8	NaN
680	1.000000	0.752879	7.37171e+06	-43089.1	1005.82	-29780.2	0.000000	0.000000	6.753045	-0.095219	NaN	0.000000	0.001636	0.001777	28.0832	0.047524	0.001980	23.9981	72.7781	17.3576	-0.052645	0.751512	-0.489292	-0.490659	-0.095219	23.9981	-0.486316	-2.20747e+06	4.313470E-8	NaN
680	1.000000	0.762889	7.37171e+06	-43089.1	1005.82	-29780.2	0.000000	0.000000	6.763056	-0.055797	NaN	0.000000	0.001599	0.001776	28.0833	0.050327	0.001978	25.4432	-2.048179	-161.542	-0.118300	0.761514	-0.479282	-0.480657	-0.055797	25.4432	-0.477637	-1.66894e+06	3.343242E-8	NaN
680	1.000000	0.772912	7.37171e+06	-43089.1	1005.82	-29780.2	0.000000	0.000000	6.773078	-0.112047	NaN	0.000000	0.001647	0.001792	28.0835	0.049851	0.002036	24.49	117.378	12.3263	-0.220716	0.771520	-0.469259	-0.470651	-0.112047	24.49	-0.465827	-1.13988e+06	9.829751E-8	NaN
680	1.000000	0.782888	7.37171e+06	-43089.1	1005.82	-29780.2	0.000000	0.000000	6.783055	-0.050157	NaN	0.000000	0.001654	0.001814	28.0834	0.084751	0.001964	43.1589	158.52	-165.926	0.050971	0.781565	-0.459283	-0.460606	-0.050157	43.1589	-0.458412	-896797	5.592961E-8	NaN
680	1.000000	0.792905	7.37171e+06	-43089.1	1005.82	-29780.2	0.000000	0.000000	6.793077	0.054936	NaN	0.000000	0.001684	0.001802	28.0831	0.089409	0.001995	44.8063	-84.6196	15.22	-0.033489	0.791552	-0.449266	-0.450619	0.054936	44.8063	-0.450186	-687005	-7.996456E-8	NaN
680	1.000000	0.802904	7.37171e+06	-43089.1	1005.82	-29780.2	0.000000	0.000000	6.803071	-0.055343	NaN	0.000000	0.001696	0.001783	28.0833	0.055983	0.002036	27.4956	154.461	-167.484	-0.127130	0.801575	-0.439267	-0.440595	-0.055343	27.4956	-0.437758	-458889	1.206019E-7	NaN
680	1.000000	0.812894	7.37171e+06	-43089.1	1005.82	-29780.2	0.000000	0.000000	6.813063	-0.029121	NaN	0.000000	0.001654	0.001788	28.0833	0.057535	0.001987	28.9532	-24.982	15.1917	-0.105657	0.811503	-0.429276	-0.430668	-0.029121	28.9532	-0.428522	-339742	8.571393E-8	NaN
680	1.000000	0.822916	7.37171e+06	-43089.1	1005.82	-29780.2	0.000000	0.000000	6.823084	-0.036477	NaN	0.000000	0.001693	0.001786	28.0832	0.043625	0.002046	21.3169	-72.7148	-166.997	-0.012899	0.821554	-0.419255	-0.420617	-0.036477	21.3169	-0.417971	-240789	1.514898E-7	NaN
680	1.000000	0.832923	7.37171e+06	-43089.1	1005.82	-29780.2	0.000000	0.000000	6.833093	0.014243	NaN	0.000000	0.001645	0.001818	28.0832	0.071483	0.002011	35.5491	160.083	14.3808	-0.059410	0.831551	-0.409248	-0.410620	0.014243	35.5491	-0.409549	-182804	-7.791554E-8	NaN
680	1.000000	0.842901	7.37171e+06	-43089.1	1005.82	-29780.2	0.000000	0.000000	6.843070	-0.034942	NaN	0.000000	0.001679	0.001736	28.0832	0.227557	0.001939	117.346	-70.8529	-162.993	-0.085900	0.841610	-0.399269	-0.400561	-0.034942	117.346	-0.399046	-129536	2.697471E-7	NaN
680	1.000000	0.852884	7.37171e+06	-43089.1	1005.82	-29780.2	0.000000	0.000000	6.853052	-0.026893	NaN	0.000000	0.001700	0.001758	28.0846	0.102821	0.002062	49.8701	-83.6257	14.5356	-0.050069	0.851577	-0.389287	-0.390594	-0.026893	49.8701	-0.388883	-92722.1	2.900380E-7	NaN
680	1.000000	0.862908	7.37171e+06	-43089.1	1005.82	-29780.2	0.000000	0.000000	6.863076	-0.028032	NaN	0.000000	0.001686	0.001761	28.0846	0.075707	0.002017	37.5407	-175.236	-162.963	-0.046057	0.861621	-0.379263	-0.380550	-0.028032	37.5407	-0.378703	-66263.5	4.230360E-7	NaN
680	1.000000	0.872928	7.37171e+06	-43089.1	1005.82	-29780.2	0.000000	0.000000	6.873097	-0.014928	NaN	0.000000	0.001682	0.001761	28.0846	0.041164	0.001937	21.2563	-112.693	19.258	0.000542	0.871572	-0.369243	-0.370599	-0.014928	21.2563	-0.368717	-47603.7	3.135985E-7	NaN
680	1.000000	0.882912	7.37171e+06	-43089.1	1005.82	-29780.2	0.000000	0.000000	6.883082	-0.001067	NaN	0.000000	0.001699	0.001751	28.0847	0.082263	0.001935	42.5103	-63.6363	-161.345	-0.071706	0.881629	-0.359259	-0.360542	-0.001067	42.5103	-0.359240	-34742.2	3.070073E-8	NaN
680	1.000000	0.892940	7.37171e+06	-43089.1	1005.82	-29780.2	0.000000	0.000000	6.893109	-0.014624	NaN	0.000000	0.001659	0.001761	28.0849	0.091050	0.001943	46.8618	-52.2024	17.3665	-0.027853	0.891576	-0.349231	-0.350594	-0.014624	46.8618	-0.348997	-24685.5	5.924021E-7	NaN
680	1.000000	0.902948	7.37171e+06	-43089.1	1005.82	-29780.2	0.000000	0.000000	6.903117	-0.016512	NaN	0.000000	0.001659	0.001776	28.0846	0.102594	0.001916	53.5598	74.191	-164.24	-0.039133	0.901690	-0.339223	-0.340481	-0.016512	53.5598	-0.338991	-17654.2	9.352967E-7	NaN
680	1.000000	0.912938	7.37171e+06	-43089.1	1005.82	-29780.2	0.000000	0.000000	6.913106	-0.046948	NaN	0.000000	0.001679	0.001752	28.0843	0.058780	0.001984	29.62	131.06	14.5911	-0.016424	0.911615	-0.329233	-0.330556	-0.046948	29.62	-0.328044	-12212.2	3.844329E-6	NaN
680	1.000000	0.922920	7.37171e+06	-43089.1	1005.82	-29780.2	0.000000	0.000000	6.923088	-0.055742	NaN	0.000000	0.001668	0.001813	28.0845	0.088354	0.001875	47.1118	88.1064	-165.067	-0.012230	0.921610	-0.319251	-0.320561	-0.055742	47.1118	-0.318363	-8801.15	6.333502E-6	NaN
680	1.000000	0.932957	7.37171e+06	-43089.1	1005.82	-29780.2	0.000000	0.000000	6.933122	-0.110849	NaN	0.000000	0.001720	0.001754	28.0845	0.105291	0.001886	55.8355	-55.996	16.6635	-0.132913	0.931608	-0.309214	-0.310563	-0.110849	55.8355	-0.307725	-6128.76	1.808670E-5	NaN
680	1.000000	0.942940	7.37171e+06	-43089.1	1005.82	-29780.2	0.000000	0.000000	6.943108	-0.054305	NaN	0.000000	0.001723	0.001758	28.0849	0.035705	0.002048	17.4358	135.675	-165.668	-0.097013	0.941622	-0.299230	-0.300549	-0.054305	17.4358	-0.296895	-4230.21	1.283732E-5	NaN
680	1.000000	0.952955	7.37171e+06	-43089.1	1005.82	-29780.2	0.000000	0.000000	6.953126	0.009819	NaN	0.000000	0.001658	0.001756	28.0846	0.041589	0.001933	21.5208	106.082	12.8571	-0.045752	0.951569	-0.289215	-0.290602	0.009819	21.5208	-0.289558	-3286.05	-2.988136E-6	NaN
680	1.000000	0.962945	7.37171e+06	-43089.1	1005.82	-29780.2	0.000000	0.000000	6.963114	-0.018815	NaN	0.000000	0.001701	0.001726	28.0852	0.090006	0.001994	45.1286	-173.434	-164.059	-0.134958	0.961679	-0.279226	-0.280492	-0.018815	45.1286	-0.278913	-2272.83	8.278141E-6	NaN
680	1.000000	0.972966	7.37171e+06	-43089.1	1005.82	-29780.2	0.000000	0.000000	6.973135	-0.035763	NaN	0.000000	0.001678	0.001752	28.0849	0.153535	0.002054	74.743	-111.42	13.8615	-0.086671	0.971621	-0.269204	-0.270550	-0.035763	74.743	-0.268846	-1599.52	2.235875E-5	NaN
680	1.000000	0.982946	7.37171e+06	-43089.1	1005.82	-29780.2	0.000000	0.000000	6.983113	-0.070387	NaN	0.000000	0.001631	0.001792	28.0847	0.106853	0.002042	52.3401	-100.892	-168.08	-0.017085	0.981709	-0.259225	-0.260462	-0.070387	52.3401	-0.258216	-1100.42	6.396338E-5	NaN
680	1.000000	0.992991	7.37171e+06	-43089.1	1005.82	-29780.2	0.000000	0.000000	6.993161	0.013918	NaN	0.000000	0.001658	0.001762	28.0833	0.090403	0.002004	45.1017	98.762	15.2764	-0.063200	0.991641	-0.249180	-0.250530	0.013918	45.1017	-0.249411	-805.122	-1.728657E-5	NaN
680	1.000000	1.002965	7.37171e+06	-43089.1	1005.82	-29780.2	0.000000	0.000000	7.003133	-0.034412	NaN	0.000000	0.001654	0.001761	28.0837	0.066666	0.001943	34.3035	76.7097	-167.139	-0.142112	1.001645	-0.239206	-0.240526	-0.034412	34.3035	-0.238454	-543.729	6.328937E-5	NaN
680	1.000000	1.012933	7.37171e+06	-43089.1	1005.82	-29780.2	0.000000	0.000000	7.013102	-0.038750	NaN	0.000000	0.001652	0.001784	28.0831	0.078296	0.002059	38.0174	-106.027	16.953	0.007598	1.011598	-0.229237	-0.230573	-0.038750	38.0174	-0.228473	-378.777	0.000102	NaN
680	1.000000	1.023010	7.37171e+06	-43089.1	1005.82	-29780.2	0.000000	0.000000	7.023176	-0.091837	NaN	0.000000	0.001615	0.001760	28.0833	0.141946	0.001956	72.5823	-165.472	-166.421	-0.071578	1.021628	-0.219161	-0.220543	-0.091837	72.5823	-0.218212	-260.053	0.000353	NaN
680	1.000000	1.032977	7.37171e+06	-43089.1	1005.82	-29780.2	0.000000	0.000000	7.033144	-0.059520	NaN	0.000000	0.001579	0.001779	28.0833	0.037318	0.001877	19.8817	101.473	13.0204	-0.087427	1.031668	-0.209194	-0.210503	-0.059520	19.8817	-0.206949	-171.12	0.000348	NaN
680	1.000000	1.043041	7.37171e+06	-43089.1	1005.82	-29780.2	0.000000	0.000000	7.043208	-0.059117	NaN	0.000000	0.001614	0.001783	28.0833	0.115115	0.002098	54.8736	-141.924	-166.817	-0.044290	1.041722	-0.199130	-0.200449	-0.059117	54.8736	-0.198322	-123.619	0.000478	NaN
680	1.000000	1.052995	7.37171e+06	-43089.1	1005.82	-29780.2	0.000000	0.000000	7.053163	-0.031610	NaN	0.000000	0.001604	0.001792	28.0833	0.063015	0.002087	30.197	34.7485	17.4784	-0.019477	1.051630	-0.189176	-0.190540	-0.031610	30.197	-0.188391	-84.5497	0.000374	NaN
680	1.000000	1.063006	7.37171e+06	-43089.1	1005.82	-29780.2	0.000000	0.000000	7.063173	-0.071214	NaN	0.000000	0.001603	0.001788	28.0833	0.146719	0.002013	72.8941	23.3221	-164.681	-0.054435	1.061714	-0.179164	-0.180456	-0.071214	72.8941	-0.178432	-57.3779	0.001241	NaN
680	1.000000	1.073009	7.37171e+06	-43089.1	1005.82	-29780.2	0.000000	0.000000	7.073178	-0.027666	NaN	0.000000	0.001625	0.001778	28.0834	0.112791	0.001880	59.9868	-142.993	16.7146	-0.071966	1.071672	-0.169162	-0.170499	-0.027666	59.9868	-0.168816	-39.1761	0.000706	NaN
680	1.000000	1.082994	7.37171e+06	-43089.1	1005.82	-29780.2	0.000000	0.000000	7.083162	-0.050023	NaN	0.000000	0.001608	0.001778	28.0832	0.095555	0.002045	46.7185	-12.23	-163.975	-0.044489	1.081742	-0.159177	-0.160429	-0.050023	46.7185	-0.158374	-25.6469	0.001950	NaN
680	1.000000	1.093003	7.37171e+06	-43089.1	1005.82	-29780.2	0.000000	0.000000	7.093174	0.035410	NaN	0.000000	0.001602	0.001751	28.0833	0.089505	0.002063	43.3865	121.02	13.5096	0.035993	1.091673	-0.149168	-0.150498	0.035410	43.3865	-0.149780	-17.9468	-0.001973	NaN
680	1.000000	1.102993	7.37171e+06	-43089.1	1005.82	-29780.2	0.000000	0.000000	7.103162	-0.018921	NaN	0.000000	0.001616	0.001751	28.0832	0.041247	0.001934	21.3221	-8.036964	-165.24	-0.062936	1.101728	-0.139178	-0.140443	-0.018921	21.3221	-0.138512	-11.0906	0.001706	NaN
680	1.000000	1.113012	7.37171e+06	-43089.1	1005.82	-29780.2	0.000000	0.000000	7.113183	0.019006	NaN	0.000000	0.001603	0.001787	28.0835	0.045735	0.002087	21.9127	178.186	15.836	-0.003082	1.111650	-0.129158	-0.130521	0.019006	21.9127	-0.129809	-7.556140	-0.002515	NaN
680	1.000000	1.123021	7.37171e+06	-43089.1	1005.82	-29780.2	0.000000	0.000000	7.123189	-0.042910	NaN	0.000000	0.001619	0.001780	28.0847	0.080038	0.001772	45.1754	-116.871	-166.046	-0.010636	1.121690	-0.119150	-0.120481	-0.042910	45.1754	-0.118438	-4.492128	0.009552	NaN
680	1.000000	1.133024	7.37171e+06	-43089.1	1005.82	-29780.2	0.000000	0.000000	7.133195	0.016541	NaN	0.000000	0.001612	0.001758	28.0847	0.102017	0.001988	51.3045	123.573	16.4632	0.077859	1.131692	-0.109147	-0.110479	0.016541	51.3045	-0.109388	-2.917160	-0.005670	NaN
680	1.000000	1.143020	7.37171e+06	-43089.1	1005.82	-29780.2	0.000000	0.000000	7.143188	-0.059462	NaN	0.000000	0.001613	0.001800	28.0849	0.029724	0.002129	13.9617	-9.916674	-163.349	-0.005633	1.141703	-0.099151	-0.100468	-0.059462	13.9617	-0.095956	-1.483021	0.040095	NaN
680	1.000000	1.153011	7.37171e+06	-43089.1	1005.82	-29780.2	0.000000	0.000000	7.153177	-0.109572	NaN	0.000000	0.001676	0.001756	28.0847	0.070129	0.001895	37.0075	95.7557	19.2109	-0.178327	1.151632	-0.089159	-0.090539	-0.109572	37.0075	-0.086939	-0.914780	0.119779	NaN
680	1.000000	1.163057	7.37171e+06	-43089.1	1005.82	-29780.2	0.000000	0.000000	7.163222	-0.114915	NaN	0.000000	0.001684	0.001787	28.0846	0.051371	0.002133	24.0823	-38.1039	-162.018	0.004340	1.161694	-0.079114	-0.080477	-0.114915	24.0823	-0.075535	-0.476796	0.241016	NaN
680	1.000000	1.173052	7.37171e+06	-43089.1	1005.82	-29780.2	0.000000	0.000000	7.173218	-0.094159	NaN	0.000000	0.001671	0.001810	28.085	0.113650	0.001898	59.8934	20.6949	16.9616	-0.157552	1.171684	-0.069119	-0.070487	-0.094159	59.8934	-0.067940	-0.300120	0.313739	NaN
680	1.000000	1.183061	7.37171e+06	-43089.1	1005.82	-29780.2	0.000000	0.000000	7.183227	-0.086356	NaN	0.000000	0.001644	0.001792	28.085	0.082337	0.001998	41.2118	109.232	-163.534	0.011956	1.181732	-0.059110	-0.060439	-0.086356	41.2118	-0.057538	-0.152875	0.564883	NaN
680	1.000000	1.193058	7.37171e+06	-43089.1	1005.82	-29780.2	0.000000	0.000000	7.193224	-0.094555	NaN	0.000000	0.001679	0.001753	28.0848	0.058215	0.002086	27.9062	72.2581	15.64	0.003119	1.191713	-0.049112	-0.050458	-0.094555	27.9062	-0.046571	-0.071780	1.317287	NaN
680	1.000000	1.203053	7.37171e+06	-43089.1	1005.82	-29780.2	0.000000	0.000000	7.203222	-0.020456	NaN	0.000000	0.001661	0.001815	28.0849	0.076846	0.002102	36.5572	80.9749	-165.195	0.082270	1.201774	-0.039117	-0.040397	-0.020456	36.5572	-0.038698	-0.041296	0.495357	NaN
680	1.000000	1.213066	7.37171e+06	-43089.1	1005.82	-29780.2	0.000000	0.000000	7.213230	-0.142640	NaN	0.000000	0.001648	0.001803	28.0851	0.081382	0.001949	41.764	134.236	11.4116	-0.032977	1.211647	-0.029105	-0.030524	-0.142640	41.764	-0.026543	-0.018527	7.698853	NaN
680	1.000000	1.223042	7.37171e+06	-43089.1	1005.82	-29780.2	0.000000	0.000000	7.223211	-0.019424	NaN	0.000000	0.001642	0.001739	28.0849	0.064896	0.002004	32.3812	-23.7464	-160.854	-0.013283	1.221749	-0.019129	-0.020422	-0.019424	32.3812	-0.018679	-0.011622	1.671360	NaN
680	1.000000	1.233063	7.37171e+06	-43089.1	1005.82	-29780.2	0.000000	0.000000	7.233228	-0.113031	NaN	0.000000	0.001674	0.001705	28.0848	0.121458	0.001975	61.5047	118.371	12.2577	-0.094886	1.231684	-0.009108	-0.010487	-0.113031	61.5047	-0.007730	-0.005073	22.2813	NaN
680	1.000000	1.243069	7.37171e+06	-43089.1	1005.82	-29780.2	0.000000	0.000000	7.243452	5.175583	NaN	0.000000	0.001630	0.001747	28.0849	5.845893	0.001868	3129.45	12.1176	-169	4.249201	1.241750	0.000898	-0.000421	5.175583	3129.45	-0.000342	-0.000254	-20387.1	NaN
680	2.000000	1.248177	7.37171e+06	-43089.1	1005.82	-29780.2	0.000000	0.000000	7.248856	12.3845	NaN	0.000000	0.001650	0.001755	28.0862	10.8482	0.001650	6575.73	5.827312	9.336136	12.7064	1.247805	0.006006	0.005634	12.3845	6575.73	0.004593	0.003765	3289.06	97907.1
680	2.000000	1.250568	7.37171e+06	-43089.1	1005.82	-29780.2	0.000000	0.000000	7.251463	17.6434	NaN	0.000000	0.001663	0.001774	28.0836	13.5857	0.001703	7978.14	5.949056	-175.236	17.3459	1.250321	0.008397	0.008150	17.6434	7978.14	0.006739	0.005777	3054.1	95901.5
680	2.000000	1.253072	7.37171e+06	-43089.1	1005.82	-29780.2	0.000000	0.000000	7.254105	21.0087	NaN	0.000000	0.001670	0.001768	28.0844	16.739	0.001772	9445.11	6.326052	3.718238	20.6219	1.252758	0.010901	0.010587	21.0087	9445.11	0.009233	0.008341	2518.6	94484.3
680	2.000000	1.255582	7.37171e+06	-43089.1	1005.82	-29780.2	0.000000	0.000000	7.256797	25.4391	NaN	0.000000	0.001658	0.001761	28.0835	18.8417	0.001865	10102.8	5.856811	-174.828	25.3616	1.255271	0.013411	0.013100	25.4391	10102.8	0.011522	0.010923	2329.03	88318.2
680	2.000000	1.258061	7.37171e+06	-43089.1	1005.82	-29780.2	0.000000	0.000000	7.259633	34.1175	NaN	0.000000	0.001674	0.001715	28.0841	21.328	0.001720	12401.7	4.716721	4.210484	33.2174	1.257637	0.015890	0.015467	34.1175	12401.7	0.013826	0.013752	2480.9	96620.6
680	2.000000	1.260540	7.37171e+06	-43089.1	1005.82	-29780.2	0.000000	0.000000	7.262261	37.739	NaN	0.000000	0.001620	0.001749	28.0834	23.409	0.001823	12841.1	6.719023	-179.161	36.7197	1.260182	0.018369	0.018011	37.739	12841.1	0.016165	0.016871	2236.95	90325.3
680	2.000000	1.263006	7.37171e+06	-43089.1	1005.82	-29780.2	0.000000	0.000000	7.265064	45.9346	NaN	0.000000	0.001671	0.001767	28.0844	25.924	0.001888	13729.4	10.9836	-3.053713	44.1976	1.262618	0.020835	0.020447	45.9346	13729.4	0.018326	0.019980	2299.03	88741.4
680	2.000000	1.265513	7.37171e+06	-43089.1	1005.82	-29780.2	0.000000	0.000000	7.267719	49.5406	NaN	0.000000	0.001664	0.001774	28.0834	28.0129	0.001777	15760.9	5.119124	-178.941	49.323	1.265258	0.023342	0.023087	49.5406	15760.9	0.020985	0.024113	2054.49	92730.9
680	2.000000	1.268006	7.37171e+06	-43089.1	1005.82	-29780.2	0.000000	0.000000	7.270698	61.3707	NaN	0.000000	0.001663	0.001773	28.0835	29.9273	0.001795	16676.8	6.792358	0.727705	58.4989	1.267685	0.025835	0.025514	61.3707	16676.8	0.023075	0.027607	2223.02	91701.3
680	2.000000	1.270478	7.37171e+06	-43089.1	1005.82	-29780.2	0.000000	0.000000	7.273448	68.1368	NaN	0.000000	0.001608	0.001774	28.0835	32.2806	0.001794	17991.6	5.039135	-179.329	65.7252	1.270155	0.028307	0.027984	68.1368	17991.6	0.025466	0.031869	2138	92078.3
680	2.000000	1.272996	7.37171e+06	-43089.1	1005.82	-29780.2	0.000000	0.000000	7.276257	75.2178	NaN	0.000000	0.001673	0.001758	28.0837	35.0651	0.001797	19511.2	4.466809	0.253901	73.6388	1.272675	0.030825	0.030504	75.2178	19511.2	0.027934	0.036570	2056.81	93216.9
680	2.000000	1.275520	7.37171e+06	-43089.1	1005.82	-29780.2	0.000000	0.000000	7.279130	83.7103	NaN	0.000000	0.001611	0.001770	28.0837	36.7736	0.001792	20526.1	0.788821	-176.635	83.8466	1.275244	0.033349	0.033074	83.7103	20526.1	0.030290	0.041348	2024.55	92226.2
680	2.000000	1.277992	7.37171e+06	-43089.1	1005.82	-29780.2	0.000000	0.000000	7.282058	94.8105	NaN	0.000000	0.001636	0.001767	28.084	39.2783	0.001816	21630.6	2.905530	0.624117	91.0095	1.277601	0.035821	0.035430	94.8105	21630.6	0.032533	0.046159	2054.02	91984.9
680	2.000000	1.280421	7.37171e+06	-43089.1	1005.82	-29780.2	0.000000	0.000000	7.284917	105.264	NaN	0.000000	0.001586	0.001791	28.0838	41.1155	0.001803	22800.5	3.627247	-179.914	102.242	1.280167	0.038250	0.037996	105.264	22800.5	0.034787	0.051251	2053.87	92016.2
680	2.000000	1.282944	7.37171e+06	-43089.1	1005.82	-29780.2	0.000000	0.000000	7.287950	117.669	NaN	0.000000	0.001572	0.001794	28.0839	43.9908	0.001949	22573.3	4.080932	0.362543	113.717	1.282663	0.040773	0.040492	117.669	22573.3	0.036864	0.056175	2094.7	87015.5
680	2.000000	1.285466	7.37171e+06	-43089.1	1005.82	-29780.2	0.000000	0.000000	7.291111	133.212	NaN	0.000000	0.001615	0.001858	28.0851	46.2072	0.001774	26049	4.006622	179.251	131.858	1.285168	0.043295	0.042997	133.212	26049	0.039460	0.062640	2126.64	95091.1
680	2.000000	1.288051	7.37171e+06	-43089.1	1005.82	-29780.2	0.000000	0.000000	7.294204	145.565	NaN	0.000000	0.001586	0.001795	28.085	49.0696	0.001838	26696.9	6.459302	-3.043279	145.254	1.287679	0.045880	0.045508	145.565	26696.9	0.041791	0.068739	2117.66	93032
680	2.000000	1.290475	7.37171e+06	-43089.1	1005.82	-29780.2	0.000000	0.000000	7.297133	157.869	NaN	0.000000	0.001575	0.001779	28.0849	51.1422	0.001833	27898.6	4.647531	176.494	156.333	1.290169	0.048304	0.047998	157.869	27898.6	0.044060	0.074941	2106.57	93110
680	2.000000	1.292903	7.37171e+06	-43089.1	1005.82	-29780.2	0.000000	0.000000	7.300082	170.551	NaN	0.000000	0.001575	0.001804	28.0852	53.9836	0.001786	30224.5	1.453538	-0.178197	165.512	1.292581	0.050732	0.050410	170.551	30224.5	0.046500	0.081902	2082.39	96490.8
680	2.000000	1.295462	7.37171e+06	-43089.1	1005.82	-29780.2	0.000000	0.000000	7.303295	186.43	NaN	0.000000	0.001602	0.001793	28.085	57.3742	0.001755	32690.5	3.862809	176.66	184.238	1.295205	0.053292	0.053034	186.43	32690.5	0.049014	0.089391	2085.56	99896
680	2.000000	1.298006	7.37171e+06	-43089.1	1005.82	-29780.2	0.000000	0.000000	7.306395	199.963	NaN	0.000000	0.001658	0.001765	28.0852	59.9179	0.001893	31644	5.005011	-3.612541	198.474	1.297613	0.055835	0.055442	199.963	31644	0.051096	0.095831	2086.62	93392.6
680	2.000000	1.300524	7.37171e+06	-43089.1	1005.82	-29780.2	0.000000	0.000000	7.309424	212.407	NaN	0.000000	0.001579	0.001759	28.0849	63.0904	0.001855	34011.7	9.229021	172.255	214.914	1.300096	0.058353	0.057925	212.407	34011.7	0.053669	0.104092	2040.58	96314.8
680	2.000000	1.302883	7.37171e+06	-43089.1	1005.82	-29780.2	0.000000	0.000000	7.312630	233.024	NaN	0.000000	0.001597	0.001785	28.0853	65.0911	0.001793	36302.4	5.935185	-5.485628	228.095	1.302514	0.060712	0.060343	233.024	36302.4	0.055898	0.111511	2089.69	99322.8
680	2.000000	1.305487	7.37171e+06	-43089.1	1005.82	-29780.2	0.000000	0.000000	7.315584	241.538	NaN	0.000000	0.001582	0.001790	28.085	68.7938	0.001891	36380.3	6.456861	173.342	243.237	1.305242	0.063316	0.063071	241.538	36380.3	0.058337	0.119911	2014.31	95986.4
680	2.000000	1.307924	7.37171e+06	-43089.1	1005.82	-29780.2	0.000000	0.000000	7.318779	259.962	NaN	0.000000	0.001580	0.001790	28.0851	69.2534	0.001732	39988.2	4.627097	-5.301239	255.515	1.307613	0.065754	0.065442	259.962	39988.2	0.060878	0.128975	2015.6	101731
680	2.000000	1.310382	7.37171e+06	-43089.1	1005.82	-29780.2	0.000000	0.000000	7.321926	276.729	NaN	0.000000	0.001594	0.001779	28.0846	70.286	0.001809	38851	3.638404	175.656	273.659	1.310130	0.068211	0.067959	276.729	38851	0.062869	0.136298	2030.33	96146
680	2.000000	1.312974	7.37171e+06	-43089.1	1005.82	-29780.2	0.000000	0.000000	7.325259	294.775	NaN	0.000000	0.001599	0.001777	28.0851	74.0298	0.001802	41085.4	3.102737	-4.541864	293.043	1.312657	0.070803	0.070486	294.775	41085.4	0.065422	0.145966	2019.48	98250.7
680	2.000000	1.315462	7.37171e+06	-43089.1	1005.82	-29780.2	0.000000	0.000000	7.328157	304.734	NaN	0.000000	0.001591	0.001770	28.0846	76.4662	0.001725	44316.8	2.730352	175.667	304.155	1.315276	0.073291	0.073105	304.734	44316.8	0.068134	0.156580	1946.18	102323
680	2.000000	1.317940	7.37171e+06	-43089.1	1005.82	-29780.2	0.000000	0.000000	7.331873	334.849	NaN	0.000000	0.001597	0.001751	28.0839	78.2051	0.001725	45327.2	6.092434	-8.187749	331.357	1.317578	0.075769	0.075407	334.849	45327.2	0.070229	0.165020	2029.15	101945
680	2.000000	1.320457	7.37171e+06	-43089.1	1005.82	-29780.2	0.000000	0.000000	7.334802	344.901	NaN	0.000000	0.001581	0.001746	28.0833	79.7066	0.001766	45130.4	3.883098	173.942	343.542	1.320215	0.078286	0.078045	344.901	45130.4	0.072554	0.174632	1975.01	98668.7
680	2.000000	1.322931	7.37171e+06	-43089.1	1005.82	-29780.2	0.000000	0.000000	7.338294	369.654	NaN	0.000000	0.001575	0.001785	28.0836	82.7463	0.001740	47562.6	7.102519	-9.382969	367.491	1.322563	0.080760	0.080392	369.654	47562.6	0.074931	0.184722	2001.13	101107
680	2.000000	1.325392	7.37171e+06	-43089.1	1005.82	-29780.2	0.000000	0.000000	7.341271	382.215	NaN	0.000000	0.001541	0.001769	28.0835	85.6601	0.001758	48734.9	5.166313	172.041	379.27	1.325170	0.083221	0.082999	382.215	48734.9	0.077339	0.195217	1957.9	100775
680	2.000000	1.327906	7.37171e+06	-43089.1	1005.82	-29780.2	0.000000	0.000000	7.344925	409.955	NaN	0.000000	0.001559	0.001787	28.0838	87.2491	0.001793	48668.9	3.853346	-5.574915	404.006	1.327510	0.085735	0.085339	409.955	48668.9	0.079418	0.204493	2004.74	98329.8
680	2.000000	1.330439	7.37171e+06	-43089.1	1005.82	-29780.2	0.000000	0.000000	7.347864	419.844	NaN	0.000000	0.001609	0.001788	28.0834	89.6608	0.001828	49051.9	3.004694	174.824	419.217	1.330207	0.088268	0.088037	419.844	49051.9	0.081848	0.215597	1947.36	96518
680	2.000000	1.332791	7.37171e+06	-43089.1	1005.82	-29780.2	0.000000	0.000000	7.351375	448.015	NaN	0.000000	0.001582	0.001783	28.0835	92.6803	0.001836	50487.4	5.202482	-7.710691	439.854	1.332480	0.090620	0.090309	448.015	50487.4	0.083965	0.225488	1986.87	97139.1
680	2.000000	1.335403	7.37171e+06	-43089.1	1005.82	-29780.2	0.000000	0.000000	7.354950	471.46	NaN	0.000000	0.001615	0.001788	28.0834	94.9141	0.001783	53220.1	3.007551	174.622	469.942	1.335133	0.093232	0.092963	471.46	53220.1	0.086588	0.238034	1980.64	99661.9
680	2.000000	1.337904	7.37171e+06	-43089.1	1005.82	-29780.2	0.000000	0.000000	7.358410	494.778	NaN	0.000000	0.001645	0.001756	28.0835	96.4684	0.001763	54704.5	4.995272	-6.946343	489.824	1.337520	0.095733	0.095349	494.778	54704.5	0.088950	0.249603	1982.26	100039
680	2.000000	1.340403	7.37171e+06	-43089.1	1005.82	-29780.2	0.000000	0.000000	7.361770	515.726	NaN	0.000000	0.001640	0.001814	28.0835	99.3841	0.001893	52509.2	5.817489	171.646	514.384	1.340048	0.098233	0.097878	515.726	52509.2	0.090866	0.259179	1989.85	94234.3
680	2.000000	1.342822	7.37171e+06	-43089.1	1005.82	-29780.2	0.000000	0.000000	7.364919	533.488	NaN	0.000000	0.001665	0.001773	28.0837	101.115	0.001738	58192.3	4.205153	-7.206310	527.106	1.342581	0.100651	0.100410	533.488	58192.3	0.093776	0.274035	1946.78	101563
680	2.000000	1.345000	7.37171e+06	-43089.1	1005.82	-29780.2	0.000000	0.000000	7.367909	553.246	NaN	0.000000	0.001666	0.001802	28.0834	104.655	0.001780	58795.6	7.936963	-10.7342	554.037	1.344362	0.102829	0.102192	553.246	58795.6	0.095772	0.284454	1944.94	100719