File: remote_trans/data/nanoindenter/0828-1/data/Data_2025-08-06,11h17m57s/2025-07-22_16-23-58_1_109.txt
2025-07-22, 16:23:58, 1
Index	Phase	Displacement	Time	Pos X	Pos Y	Pos Z	Rot A	Rot B	Piezo Z	Force A	Force B	Gripper	Voltage A	Voltage B	Temperature	Amplitude force	Amplitude pos	Stiffness	Phase shift	Phase excitation	Force A raw	Displacement raw	HMax	HMax raw	Real Force	Real Stiffness	Contact Depth	Area	Hardness	Reduced Mod.
[#]	[#]	[um]	[s]	[um]	[um]	[um]	[m°]	[m°]	[um]	[uN]	[uN]	[V]	[V]	[V]	[°C]	[uN]	[um]	[N/m]	[°]	[°]	[uN]	[um]	[um]	[um]	[uN]	[N/m]	[um]	[um^2]	[MPa]	[MPa]
109	1.000000	0.002840	7.3661e+06	-44089.1	955.818	-29777.5	0.000000	0.000000	6.002835	0.083158	NaN	0.000000	0.001636	0.001632	28.0787	0.069985	0.000949	73.7255	93.8194	-166.732	0.048808	0.001579	-1.010481	-1.011742	0.083158	73.7255	-1.011327	-3.222821E+13	-2.580276E-15	NaN
109	1.000000	0.010759	7.3661e+06	-44089.1	955.819	-29777.5	0.000000	0.000000	6.010753	0.072329	NaN	0.000000	0.001625	0.001650	28.0781	0.122285	0.000988	123.765	-118.367	-163.254	0.119764	0.009417	-1.002562	-1.003903	0.072329	123.765	-1.003000	-2.489759E+13	-2.905048E-15	NaN
109	1.000000	0.018781	7.3661e+06	-44089.1	955.818	-29777.5	0.000000	0.000000	6.018773	0.040803	NaN	0.000000	0.001606	0.001630	28.078	0.023294	0.001658	14.0513	-0.694890	-166.092	0.086389	0.017414	-0.994540	-0.995907	0.040803	14.0513	-0.996718	-2.049169E+13	-1.991194E-15	NaN
109	1.000000	0.026797	7.3661e+06	-44089.1	955.819	-29777.5	0.000000	0.000000	6.026792	0.087651	NaN	0.000000	0.001619	0.001636	28.0775	0.056938	0.001846	30.8415	-92.2062	-166.162	0.158208	0.025427	-0.986523	-0.987894	0.087651	30.8415	-0.988655	-1.595856E+13	-5.492442E-15	NaN
109	1.000000	0.034755	7.3661e+06	-44089.1	955.818	-29777.5	0.000000	0.000000	6.034747	0.026181	NaN	0.000000	0.001617	0.001663	28.0778	0.090011	0.002013	44.7155	-88.9424	-164.074	0.032199	0.033451	-0.978566	-0.979870	0.026181	44.7155	-0.979005	-1.183057E+13	-2.212974E-15	NaN
109	1.000000	0.042761	7.3661e+06	-44089.1	955.819	-29777.5	0.000000	0.000000	6.042756	0.099215	NaN	0.000000	0.001647	0.001668	28.0788	0.098208	0.002033	48.3043	-133.527	-164.87	0.115107	0.041477	-0.970559	-0.971843	0.099215	48.3043	-0.972100	-9.549119E+12	-1.038992E-14	NaN
109	1.000000	0.050759	7.3661e+06	-44089.1	955.818	-29777.5	0.000000	0.000000	6.050753	0.065437	NaN	0.000000	0.001630	0.001634	28.0803	0.117341	0.001988	59.0224	-10.8394	-165.852	0.033944	0.049417	-0.962561	-0.963903	0.065437	59.0224	-0.963393	-7.288027E+12	-8.978704E-15	NaN
109	1.000000	0.058748	7.3661e+06	-44089.1	955.818	-29777.5	0.000000	0.000000	6.058740	0.019687	NaN	0.000000	0.001594	0.001643	28.0802	0.035925	0.002037	17.6363	32.3551	-167.092	-0.056987	0.057436	-0.954573	-0.955885	0.019687	17.6363	-0.955410	-5.688294E+12	-3.460943E-15	NaN
109	1.000000	0.066763	7.3661e+06	-44089.1	955.819	-29777.5	0.000000	0.000000	6.066756	0.034466	NaN	0.000000	0.001626	0.001671	28.0794	0.100516	0.002078	48.3797	-28.6196	-167.015	0.007452	0.065498	-0.946557	-0.947823	0.034466	48.3797	-0.947092	-4.393406E+12	-7.844878E-15	NaN
109	1.000000	0.074767	7.3661e+06	-44089.1	955.819	-29777.5	0.000000	0.000000	6.074760	0.047977	NaN	0.000000	0.001618	0.001678	28.0791	0.054567	0.002013	27.1051	42.7429	-167.005	0.004732	0.073483	-0.938554	-0.939837	0.047977	27.1051	-0.939882	-3.511872E+12	-1.366139E-14	NaN
109	1.000000	0.082783	7.3661e+06	-44089.1	955.818	-29777.5	0.000000	0.000000	6.082775	0.010048	NaN	0.000000	0.001567	0.001649	28.078	0.060834	0.001969	30.894	-135.024	-166.709	-0.007880	0.081466	-0.930538	-0.931855	0.010048	30.894	-0.930781	-2.646938E+12	-3.795920E-15	NaN
109	1.000000	0.090772	7.3661e+06	-44089.1	955.818	-29777.5	0.000000	0.000000	6.090765	0.033135	NaN	0.000000	0.001554	0.001661	28.078	0.067970	0.001829	37.1581	139.232	-166.955	0.053051	0.089481	-0.922549	-0.923840	0.033135	37.1581	-0.923217	-2.092396E+12	-1.583601E-14	NaN
109	1.000000	0.098786	7.36611e+06	-44089.1	955.819	-29777.5	0.000000	0.000000	6.098780	0.059824	NaN	0.000000	0.001552	0.001671	28.0777	0.081299	0.002076	39.1583	142.403	-164.362	0.023866	0.097460	-0.914535	-0.915861	0.059824	39.1583	-0.915680	-1.655308E+12	-3.614066E-14	NaN
109	1.000000	0.106746	7.36611e+06	-44089.1	955.818	-29777.5	0.000000	0.000000	6.106735	-0.043512	NaN	0.000000	0.001548	0.001675	28.0781	0.036793	0.001901	19.3576	2.823966	-168.443	0.051689	0.105452	-0.906575	-0.907869	-0.043512	19.3576	-0.904889	-1.183364E+12	3.676981E-14	NaN
109	1.000000	0.114763	7.36611e+06	-44089.1	955.818	-29777.5	0.000000	0.000000	6.114756	0.040085	NaN	0.000000	0.001566	0.001677	28.0799	0.164187	0.001922	85.4067	156.358	-166.228	-0.012301	0.113454	-0.898557	-0.899866	0.040085	85.4067	-0.898909	-9.824891E+11	-4.079893E-14	NaN
109	1.000000	0.122798	7.36611e+06	-44089.1	955.818	-29777.5	0.000000	0.000000	6.122789	-0.003126	NaN	0.000000	0.001574	0.001673	28.0801	0.098380	0.002020	48.7002	-146.885	-166.243	-0.014004	0.121491	-0.890522	-0.891830	-0.003126	48.7002	-0.890474	-7.556565E+11	4.137088E-15	NaN
109	1.000000	0.130801	7.36611e+06	-44089.1	955.819	-29777.5	0.000000	0.000000	6.130797	0.125287	NaN	0.000000	0.001588	0.001661	28.0806	0.064748	0.001937	33.4335	-109.068	-164.304	0.073963	0.129517	-0.882520	-0.883803	0.125287	33.4335	-0.885330	-6.438498E+11	-1.945912E-13	NaN
109	1.000000	0.138796	7.36611e+06	-44089.1	955.818	-29777.5	0.000000	0.000000	6.138789	0.021553	NaN	0.000000	0.001578	0.001653	28.0805	0.047398	0.001967	24.0979	-151.68	-163.308	0.008355	0.137484	-0.874524	-0.875837	0.021553	24.0979	-0.875195	-4.695908E+11	-4.589718E-14	NaN
109	1.000000	0.146785	7.36611e+06	-44089.1	955.818	-29777.5	0.000000	0.000000	6.146779	0.061359	NaN	0.000000	0.001588	0.001701	28.0796	0.028549	0.002106	13.5585	80.5615	-169.065	0.066666	0.145442	-0.866535	-0.867879	0.061359	13.5585	-0.869930	-3.985573E+11	-1.539530E-13	NaN
109	1.000000	0.154806	7.36611e+06	-44089.1	955.818	-29777.5	0.000000	0.000000	6.154801	0.075684	NaN	0.000000	0.001564	0.001707	28.0806	0.034675	0.002045	16.9524	-1.163748	-164.565	0.069708	0.153455	-0.858514	-0.859865	0.075684	16.9524	-0.861863	-3.099778E+11	-2.441609E-13	NaN
109	1.000000	0.162788	7.36611e+06	-44089.1	955.818	-29777.5	0.000000	0.000000	6.162782	0.073352	NaN	0.000000	0.001547	0.001706	28.0786	0.111724	0.002057	54.3029	-163.285	-166.36	0.043330	0.161513	-0.850533	-0.851808	0.073352	54.3029	-0.851546	-2.247355E+11	-3.263917E-13	NaN
109	1.000000	0.170812	7.36611e+06	-44089.1	955.818	-29777.5	0.000000	0.000000	6.170808	0.109246	NaN	0.000000	0.001585	0.001724	28.0795	0.045111	0.001997	22.5902	83.5325	-164.095	0.068422	0.169495	-0.842509	-0.843825	0.109246	22.5902	-0.846136	-1.898479E+11	-5.754390E-13	NaN
109	1.000000	0.178835	7.36611e+06	-44089.1	955.819	-29777.5	0.000000	0.000000	6.178829	0.050072	NaN	0.000000	0.001590	0.001733	28.0784	0.167332	0.002055	81.4446	121.386	-163.514	-0.038297	0.177496	-0.834485	-0.835825	0.050072	81.4446	-0.834946	-1.339112E+11	-3.739190E-13	NaN
109	1.000000	0.186823	7.36611e+06	-44089.1	955.818	-29777.5	0.000000	0.000000	6.186816	0.034158	NaN	0.000000	0.001590	0.001755	28.0794	0.109662	0.001955	56.0879	132.108	-167.867	0.027173	0.185452	-0.826497	-0.827869	0.034158	56.0879	-0.826954	-1.043512E+11	-3.273406E-13	NaN
109	1.000000	0.194815	7.36611e+06	-44089.1	955.818	-29777.5	0.000000	0.000000	6.194811	0.122835	NaN	0.000000	0.001561	0.001711	28.0797	0.055573	0.002021	27.4932	-77.9202	-166.952	0.093702	0.193453	-0.818506	-0.819868	0.122835	27.4932	-0.821857	-8.900002E+10	-1.380166E-12	NaN
109	1.000000	0.202786	7.36611e+06	-44089.1	955.819	-29777.5	0.000000	0.000000	6.202775	-0.052387	NaN	0.000000	0.001615	0.001736	28.0808	0.142606	0.002020	70.6125	-178.884	-164.28	0.028779	0.201478	-0.810534	-0.811842	-0.052387	70.6125	-0.809978	-6.141421E+10	8.530123E-13	NaN
109	1.000000	0.210818	7.36611e+06	-44089.1	955.818	-29777.5	0.000000	0.000000	6.210812	0.072602	NaN	0.000000	0.001585	0.001722	28.079	0.058579	0.001929	30.3635	137.569	-163.974	0.064521	0.209523	-0.802502	-0.803797	0.072602	30.3635	-0.804296	-5.142436E+10	-1.411828E-12	NaN
109	1.000000	0.218834	7.36611e+06	-44089.1	955.819	-29777.5	0.000000	0.000000	6.218829	0.070810	NaN	0.000000	0.001573	0.001733	28.0798	0.063809	0.002104	30.3267	-62.7645	-167.138	0.016193	0.217532	-0.794486	-0.795789	0.070810	30.3267	-0.796237	-3.997428E+10	-1.771388E-12	NaN
109	1.000000	0.226829	7.36611e+06	-44089.1	955.818	-29777.5	0.000000	0.000000	6.226824	0.073540	NaN	0.000000	0.001547	0.001689	28.0794	0.150578	0.002035	73.99	-30.78	-166.643	0.118473	0.225542	-0.786491	-0.787779	0.073540	73.99	-0.787237	-3.016813E+10	-2.437669E-12	NaN
109	1.000000	0.234851	7.36611e+06	-44089.1	955.818	-29777.5	0.000000	0.000000	6.234843	0.015655	NaN	0.000000	0.001577	0.001678	28.0807	0.044497	0.002005	22.19	-56.2862	-165.073	-0.018880	0.233526	-0.778470	-0.779794	0.015655	22.19	-0.778999	-2.331466E+10	-6.714531E-13	NaN
109	1.000000	0.242816	7.36611e+06	-44089.1	955.818	-29777.5	0.000000	0.000000	6.242812	0.104717	NaN	0.000000	0.001557	0.001718	28.0794	0.114363	0.001988	57.5336	148.485	-166.331	0.048553	0.241546	-0.770505	-0.771774	0.104717	57.5336	-0.771870	-1.865196E+10	-5.614285E-12	NaN
109	1.000000	0.250840	7.36611e+06	-44089.1	955.818	-29777.5	0.000000	0.000000	6.250832	0.005222	NaN	0.000000	0.001553	0.001701	28.0785	0.092114	0.002017	45.6641	-7.636394	-166.569	0.007825	0.249556	-0.762480	-0.763764	0.005222	45.6641	-0.762566	-1.393817E+10	-3.746801E-13	NaN
109	1.000000	0.258884	7.36611e+06	-44089.1	955.818	-29777.5	0.000000	0.000000	6.258875	0.013177	NaN	0.000000	0.001549	0.001723	28.0778	0.071275	0.001961	36.3442	-14.984	-164.2	-0.016494	0.257517	-0.754437	-0.755803	0.013177	36.3442	-0.754709	-1.089702E+10	-1.209256E-12	NaN
109	1.000000	0.266868	7.36611e+06	-44089.1	955.819	-29777.5	0.000000	0.000000	6.266861	0.027004	NaN	0.000000	0.001547	0.001723	28.0773	0.115554	0.002048	56.4306	-105.003	-164.964	0.067918	0.265493	-0.746452	-0.747827	0.027004	56.4306	-0.746811	-8.507647E+9	-3.174128E-12	NaN
109	1.000000	0.274821	7.36611e+06	-44089.1	955.818	-29777.5	0.000000	0.000000	6.274816	0.092215	NaN	0.000000	0.001536	0.001676	28.0773	0.047578	0.002048	23.2335	-20.4058	-164.329	0.077225	0.273524	-0.738500	-0.739796	0.092215	23.2335	-0.741477	-7.197287E+9	-1.281241E-11	NaN
109	1.000000	0.282852	7.36611e+06	-44089.1	955.819	-29777.5	0.000000	0.000000	6.282847	0.089277	NaN	0.000000	0.001562	0.001685	28.0785	0.027705	0.002132	12.9972	-174.269	-166.673	0.081692	0.281529	-0.730468	-0.731792	0.089277	12.9972	-0.735620	-5.989474E+9	-1.490561E-11	NaN
109	1.000000	0.290878	7.36611e+06	-44089.1	955.818	-29777.5	0.000000	0.000000	6.290871	0.035607	NaN	0.000000	0.001575	0.001679	28.0785	0.089556	0.002015	44.4538	-125.064	-163.988	0.005783	0.289568	-0.722442	-0.723753	0.035607	44.4538	-0.723043	-4.036145E+9	-8.821992E-12	NaN
109	1.000000	0.298849	7.36611e+06	-44089.1	955.818	-29777.5	0.000000	0.000000	6.298839	-0.022482	NaN	0.000000	0.001596	0.001667	28.0789	0.107012	0.001909	56.0624	-149.99	-166.53	-0.010622	0.297555	-0.714471	-0.715766	-0.022482	56.0624	-0.714171	-3.054624E+9	7.360081E-12	NaN
109	1.000000	0.306876	7.36611e+06	-44089.1	955.818	-29777.5	0.000000	0.000000	6.306872	0.102690	NaN	0.000000	0.001578	0.001694	28.0801	0.041812	0.002031	20.5837	114.745	-163.592	0.042028	0.305558	-0.706444	-0.707762	0.102690	20.5837	-0.710186	-2.695154E+9	-3.810188E-11	NaN
109	1.000000	0.314884	7.36611e+06	-44089.1	955.819	-29777.5	0.000000	0.000000	6.314874	-0.017752	NaN	0.000000	0.001546	0.001669	28.079	0.061415	0.002122	28.9378	-176.815	-168.018	-0.068045	0.313495	-0.698437	-0.699826	-0.017752	28.9378	-0.697977	-1.836111E+9	9.668089E-12	NaN
109	1.000000	0.322878	7.36611e+06	-44089.1	955.818	-29777.5	0.000000	0.000000	6.322871	0.045906	NaN	0.000000	0.001593	0.001685	28.0789	0.069140	0.002045	33.815	-57.8908	-163.695	0.056907	0.321546	-0.690442	-0.691775	0.045906	33.815	-0.691460	-1.495806E+9	-3.069000E-11	NaN
109	1.000000	0.330890	7.36611e+06	-44089.1	955.819	-29777.5	0.000000	0.000000	6.330884	0.068984	NaN	0.000000	0.001586	0.001724	28.0787	0.081847	0.001885	43.4143	47.8653	-168.845	0.100265	0.329557	-0.682431	-0.683764	0.068984	43.4143	-0.683622	-1.168803E+9	-5.902085E-11	NaN
109	1.000000	0.338882	7.36611e+06	-44089.1	955.818	-29777.5	0.000000	0.000000	6.338876	0.060604	NaN	0.000000	0.001589	0.001684	28.0785	0.007510	0.001965	3.821082	178.276	-169.67	0.056404	0.337546	-0.674438	-0.675775	0.060604	3.821082	-0.686334	-1.272937E+9	-4.760989E-11	NaN
109	1.000000	0.346865	7.36611e+06	-44089.1	955.818	-29777.5	0.000000	0.000000	6.346858	0.051566	NaN	0.000000	0.001589	0.001702	28.0787	0.111566	0.001967	56.7296	116.174	-165.21	0.009563	0.345570	-0.666456	-0.667750	0.051566	56.7296	-0.667138	-6.953616E+8	-7.415727E-11	NaN
109	1.000000	0.354889	7.36611e+06	-44089.1	955.818	-29777.5	0.000000	0.000000	6.354884	0.089330	NaN	0.000000	0.001595	0.001680	28.0771	0.070444	0.002062	34.1579	147.18	-168.083	0.010308	0.353578	-0.658431	-0.659743	0.089330	34.1579	-0.660393	-5.621435E+8	-1.589095E-10	NaN
109	1.000000	0.362913	7.36611e+06	-44089.1	955.819	-29777.5	0.000000	0.000000	6.362906	0.042109	NaN	0.000000	0.001568	0.001685	28.0783	0.089535	0.001945	46.0319	81.9306	-167.467	0.015776	0.361586	-0.650407	-0.651735	0.042109	46.0319	-0.651093	-4.192046E+8	-1.004508E-10	NaN
109	1.000000	0.370901	7.36611e+06	-44089.1	955.817	-29777.5	0.000000	0.000000	6.370894	0.040509	NaN	0.000000	0.001543	0.001654	28.0794	0.150448	0.001835	81.9668	-84.9394	-168.192	0.021038	0.369512	-0.642420	-0.643809	0.040509	81.9668	-0.642791	-3.225324E+8	-1.255968E-10	NaN
109	1.000000	0.378886	7.36611e+06	-44089.1	955.818	-29777.5	0.000000	0.000000	6.378880	0.057848	NaN	0.000000	0.001537	0.001642	28.0789	0.049506	0.001911	25.9116	-43.4482	-169.355	0.081211	0.377574	-0.634434	-0.635747	0.057848	25.9116	-0.636109	-2.611487E+8	-2.215140E-10	NaN
109	1.000000	0.386883	7.36611e+06	-44089.1	955.818	-29777.5	0.000000	0.000000	6.386874	-0.003959	NaN	0.000000	0.001572	0.001667	28.0801	0.021629	0.002082	10.3893	14.2387	-166.637	-0.036945	0.385569	-0.626438	-0.627752	-0.003959	10.3893	-0.626152	-1.906193E+8	2.077114E-11	NaN
109	1.000000	0.394915	7.36611e+06	-44089.1	955.818	-29777.5	0.000000	0.000000	6.394907	0.021620	NaN	0.000000	0.001558	0.001665	28.0812	0.106918	0.002054	52.0549	156.873	-168.765	-0.019073	0.393605	-0.618406	-0.619716	0.021620	52.0549	-0.618717	-1.506614E+8	-1.434990E-10	NaN
109	1.000000	0.402931	7.36611e+06	-44089.1	955.818	-29777.5	0.000000	0.000000	6.402924	0.054144	NaN	0.000000	0.001547	0.001679	28.0798	0.065719	0.001962	33.503	-20.992	-169.06	0.086153	0.401626	-0.610390	-0.611694	0.054144	33.503	-0.611602	-1.202684E+8	-4.501895E-10	NaN
109	1.000000	0.410918	7.36611e+06	-44089.1	955.818	-29777.5	0.000000	0.000000	6.410910	0.029921	NaN	0.000000	0.001568	0.001725	28.0791	0.032295	0.001797	17.9669	-16.3265	-162.181	0.053593	0.409603	-0.602403	-0.603718	0.029921	17.9669	-0.603652	-9.348478E+7	-3.200622E-10	NaN
109	1.000000	0.418900	7.36611e+06	-44089.1	955.818	-29777.5	0.000000	0.000000	6.418893	0.033043	NaN	0.000000	0.001571	0.001685	28.0801	0.096367	0.002009	47.9762	145.732	-167.504	0.049140	0.417623	-0.594421	-0.595698	0.033043	47.9762	-0.594937	-7.091126E+7	-4.659704E-10	NaN
109	1.000000	0.426924	7.36611e+06	-44089.1	955.819	-29777.5	0.000000	0.000000	6.426915	-0.009637	NaN	0.000000	0.001580	0.001687	28.0796	0.052508	0.002045	25.673	22.9617	-165.523	-0.052100	0.425570	-0.586396	-0.587751	-0.009637	25.673	-0.586115	-5.359112E+7	1.798214E-10	NaN
109	1.000000	0.434923	7.36611e+06	-44089.1	955.818	-29777.5	0.000000	0.000000	6.434916	0.038835	NaN	0.000000	0.001570	0.001645	28.0796	0.102675	0.002014	50.9826	-90.1956	-164.434	0.049405	0.433586	-0.578398	-0.579735	0.038835	50.9826	-0.578969	-4.270674E+7	-9.093351E-10	NaN
109	1.000000	0.442928	7.36611e+06	-44089.1	955.818	-29777.5	0.000000	0.000000	6.442918	-0.011577	NaN	0.000000	0.001572	0.001668	28.0796	0.130827	0.001871	69.9284	150.622	-167.187	-0.037254	0.441639	-0.570393	-0.571682	-0.011577	69.9284	-0.570269	-3.238505E+7	3.574852E-10	NaN
109	1.000000	0.450939	7.36611e+06	-44089.1	955.818	-29777.5	0.000000	0.000000	6.450932	0.040684	NaN	0.000000	0.001569	0.001620	28.0811	0.110417	0.001923	57.4292	163.374	-166.137	-0.026179	0.449620	-0.562382	-0.563701	0.040684	57.4292	-0.562913	-2.562523E+7	-1.587636E-9	NaN
109	1.000000	0.458942	7.36611e+06	-44089.1	955.819	-29777.5	0.000000	0.000000	6.458936	0.071945	NaN	0.000000	0.001590	0.001604	28.0792	0.044682	0.001892	23.6172	-51.8482	-165.645	0.010835	0.457643	-0.554379	-0.555677	0.071945	23.6172	-0.556664	-2.099978E+7	-3.426004E-9	NaN
109	1.000000	0.466902	7.36611e+06	-44089.1	955.818	-29777.5	0.000000	0.000000	6.466896	0.079623	NaN	0.000000	0.001581	0.001669	28.0795	0.032172	0.002045	15.7325	-40.2769	-167.552	0.100934	0.465649	-0.546419	-0.547671	0.079623	15.7325	-0.550215	-1.709739E+7	-4.657036E-9	NaN
109	1.000000	0.474926	7.36611e+06	-44089.1	955.819	-29777.5	0.000000	0.000000	6.474918	0.006829	NaN	0.000000	0.001554	0.001687	28.0797	0.043880	0.002044	21.468	-137.336	-163.805	-0.001270	0.473597	-0.538394	-0.539724	0.006829	21.468	-0.538633	-1.181400E+7	-5.780488E-10	NaN
109	1.000000	0.482951	7.36611e+06	-44089.1	955.818	-29777.5	0.000000	0.000000	6.482942	7.963870E-5	NaN	0.000000	0.001574	0.001641	28.0781	0.080408	0.002040	39.4195	-14.4815	-166.508	0.034020	0.481629	-0.530369	-0.531691	7.963870E-5	39.4195	-0.530371	-9.07248e+06	-8.778054E-12	NaN
109	1.000000	0.490938	7.36611e+06	-44089.1	955.818	-29777.5	0.000000	0.000000	6.490931	0.054333	NaN	0.000000	0.001574	0.001648	28.0795	0.096722	0.002003	48.2985	100.868	-167.788	0.038601	0.489637	-0.522383	-0.523683	0.054333	48.2985	-0.523226	-7.21866e+06	-7.526810E-9	NaN
109	1.000000	0.498940	7.36611e+06	-44089.1	955.818	-29777.5	0.000000	0.000000	6.498935	0.084976	NaN	0.000000	0.001526	0.001698	28.0782	0.069194	0.002004	34.5292	167.418	-165.345	0.105934	0.497638	-0.514380	-0.515683	0.084976	34.5292	-0.516226	-5.76896e+06	-1.472990E-8	NaN
109	1.000000	0.506952	7.36611e+06	-44089.1	955.818	-29777.5	0.000000	0.000000	6.506945	0.038750	NaN	0.000000	0.001553	0.001633	28.0788	0.097278	0.002071	46.9726	164.785	-165.615	0.042468	0.505654	-0.506368	-0.507666	0.038750	46.9726	-0.506987	-4.28978e+06	-9.033066E-9	NaN
109	1.000000	0.514950	7.36611e+06	-44089.1	955.819	-29777.5	0.000000	0.000000	6.514946	0.131227	NaN	0.000000	0.001528	0.001650	28.0788	0.067349	0.001858	36.2481	168.103	-170.467	0.091519	0.513683	-0.498371	-0.499638	0.131227	36.2481	-0.501086	-3.54951e+06	-3.697040E-8	NaN
109	1.000000	0.522950	7.36611e+06	-44089.1	955.819	-29777.5	0.000000	0.000000	6.522939	-0.058067	NaN	0.000000	0.001525	0.001645	28.0783	0.054354	0.002053	26.4697	90.0402	-169.296	-0.001228	0.521654	-0.490371	-0.491666	-0.058067	26.4697	-0.488726	-2.38551e+06	2.434137E-8	NaN
109	1.000000	0.530950	7.36611e+06	-44089.1	955.819	-29777.5	0.000000	0.000000	6.530944	0.057884	NaN	0.000000	0.001544	0.001647	28.0805	0.015503	0.002091	7.413081	88.3211	-168.459	0.102026	0.529665	-0.482370	-0.483656	0.057884	7.413081	-0.488226	-2.34749e+06	-2.465761E-8	NaN
109	1.000000	0.538948	7.36611e+06	-44089.1	955.819	-29777.5	0.000000	0.000000	6.538941	0.047265	NaN	0.000000	0.001563	0.001658	28.0791	0.033248	0.001918	17.336	63.6678	-165.152	-7.187983E-5	0.537627	-0.474372	-0.475694	0.047265	17.336	-0.476417	-1.60456e+06	-2.945695E-8	NaN
109	1.000000	0.546983	7.36611e+06	-44089.1	955.818	-29777.5	0.000000	0.000000	6.546974	-0.000152	NaN	0.000000	0.001568	0.001654	28.0791	0.055052	0.001866	29.495	-164.499	-167.743	0.007985	0.545672	-0.466338	-0.467649	-0.000152	29.495	-0.466334	-1.1587e+06	1.312621E-10	NaN
109	1.000000	0.554947	7.36611e+06	-44089.1	955.818	-29777.5	0.000000	0.000000	6.554940	0.046554	NaN	0.000000	0.001580	0.001644	28.08	0.061963	0.001946	31.8402	76.5838	-167.789	0.087218	0.553614	-0.458373	-0.459707	0.046554	31.8402	-0.459470	-928041	-5.016363E-8	NaN
109	1.000000	0.563001	7.36611e+06	-44089.1	955.819	-29777.5	0.000000	0.000000	6.562993	0.018057	NaN	0.000000	0.001597	0.001624	28.0783	0.048507	0.001836	26.4192	147.925	-163.47	0.116536	0.561707	-0.450319	-0.451613	0.018057	26.4192	-0.450832	-701543	-2.573831E-8	NaN
109	1.000000	0.571002	7.36611e+06	-44089.1	955.818	-29777.5	0.000000	0.000000	6.570994	0.008479	NaN	0.000000	0.001570	0.001652	28.0788	0.028681	0.001892	15.1605	-134.6	-163.023	0.038260	0.569695	-0.442318	-0.443625	0.008479	15.1605	-0.442738	-539502	-1.571552E-8	NaN
109	1.000000	0.578989	7.36611e+06	-44089.1	955.818	-29777.5	0.000000	0.000000	6.578984	0.078815	NaN	0.000000	0.001649	0.001682	28.077	0.051033	0.001946	26.2219	-64.9619	-164.506	0.080852	0.577647	-0.434331	-0.435674	0.078815	26.2219	-0.436586	-441728	-1.784240E-7	NaN
109	1.000000	0.586970	7.36611e+06	-44089.1	955.818	-29777.5	0.000000	0.000000	6.586962	0.008247	NaN	0.000000	0.001637	0.001637	28.0786	0.116132	0.002145	54.1496	-138.171	-167.323	0.030004	0.585739	-0.426350	-0.427581	0.008247	54.1496	-0.426465	-317705	-2.595805E-8	NaN
109	1.000000	0.594971	7.36611e+06	-44089.1	955.819	-29777.5	0.000000	0.000000	6.594965	0.059387	NaN	0.000000	0.001645	0.001661	28.0784	0.091664	0.002113	43.387	34.3454	-168.217	0.002304	0.593652	-0.418350	-0.419669	0.059387	43.387	-0.419376	-252097	-2.355732E-7	NaN
109	1.000000	0.603001	7.36611e+06	-44089.1	955.818	-29777.5	0.000000	0.000000	6.602994	0.031402	NaN	0.000000	0.001619	0.001623	28.0784	0.006943	0.002082	3.334962	-103.795	-167.348	-0.013556	0.601725	-0.410319	-0.411595	0.031402	3.334962	-0.417382	-236192	-1.329529E-7	NaN
109	1.000000	0.611008	7.36611e+06	-44089.1	955.819	-29777.5	0.000000	0.000000	6.611002	0.059493	NaN	0.000000	0.001639	0.001633	28.0798	0.071975	0.002035	35.3651	13.1547	-165.356	0.048438	0.609689	-0.402312	-0.403632	0.059493	35.3651	-0.403574	-150292	-3.958492E-7	NaN
109	1.000000	0.618986	7.36611e+06	-44089.1	955.818	-29777.5	0.000000	0.000000	6.618979	0.026064	NaN	0.000000	0.001629	0.001642	28.0783	0.043197	0.001800	23.9961	-158.04	-171.973	0.008878	0.617718	-0.394334	-0.395602	0.026064	23.9961	-0.395149	-113963	-2.287080E-7	NaN
109	1.000000	0.627005	7.36611e+06	-44089.1	955.818	-29777.5	0.000000	0.000000	6.627001	0.102941	NaN	0.000000	0.001682	0.001647	28.0788	0.047728	0.002029	23.526	64.1696	-166.367	0.090459	0.625693	-0.386315	-0.387628	0.102941	23.526	-0.389597	-94929.3	-1.084391E-6	NaN
109	1.000000	0.635008	7.36611e+06	-44089.1	955.818	-29777.5	0.000000	0.000000	6.635005	0.123067	NaN	0.000000	0.001606	0.001654	28.0782	0.017982	0.002085	8.624942	-8.205303	-165.608	0.030709	0.633673	-0.378312	-0.379647	0.123067	8.624942	-0.389014	-93122.8	-1.321551E-6	NaN
109	1.000000	0.643003	7.36611e+06	-44089.1	955.818	-29777.5	0.000000	0.000000	6.642995	0.034514	NaN	0.000000	0.001608	0.001686	28.0779	0.085917	0.001982	43.3403	78.2521	-165.303	0.060282	0.641707	-0.370318	-0.371614	0.034514	43.3403	-0.370915	-51204	-6.740435E-7	NaN
109	1.000000	0.651013	7.36611e+06	-44089.1	955.818	-29777.5	0.000000	0.000000	6.651007	0.078859	NaN	0.000000	0.001523	0.001669	28.0768	0.078809	0.002078	37.9177	-179.393	-164.044	0.117413	0.649714	-0.362308	-0.363607	0.078859	37.9177	-0.363868	-40524	-1.945986E-6	NaN
109	1.000000	0.659006	7.36611e+06	-44089.1	955.818	-29777.5	0.000000	0.000000	6.658998	0.013890	NaN	0.000000	0.001553	0.001647	28.0791	0.086398	0.002003	43.1301	159.296	-169.321	0.012111	0.657742	-0.354314	-0.355578	0.013890	43.1301	-0.354556	-29721	-4.673576E-7	NaN
109	1.000000	0.667010	7.36611e+06	-44089.1	955.818	-29777.5	0.000000	0.000000	6.667000	-0.037649	NaN	0.000000	0.001566	0.001631	28.0784	0.091363	0.002028	45.056	146.292	-167.304	-0.030068	0.665759	-0.346310	-0.347561	-0.037649	45.056	-0.345683	-22095.1	1.703952E-6	NaN
109	1.000000	0.675027	7.36611e+06	-44089.1	955.818	-29777.5	0.000000	0.000000	6.675018	-0.017338	NaN	0.000000	0.001547	0.001686	28.0798	0.132947	0.001964	67.6907	12.6172	-167.072	0.035799	0.673751	-0.338293	-0.339569	-0.017338	67.6907	-0.338101	-17134	1.011878E-6	NaN
109	1.000000	0.683051	7.36611e+06	-44089.1	955.818	-29777.5	0.000000	0.000000	6.683044	0.026953	NaN	0.000000	0.001571	0.001659	28.0796	0.018503	0.001980	9.343349	-39.3766	-166.331	0.143415	0.681736	-0.330269	-0.331584	0.026953	9.343349	-0.332433	-14159.7	-1.903469E-6	NaN
109	1.000000	0.691026	7.36611e+06	-44089.1	955.819	-29777.5	0.000000	0.000000	6.691017	-0.013921	NaN	0.000000	0.001570	0.001638	28.0803	0.025721	0.001998	12.8745	-143.091	-167.505	0.002628	0.689727	-0.322294	-0.323593	-0.013921	12.8745	-0.321483	-9782.78	1.422964E-6	NaN
109	1.000000	0.699057	7.36611e+06	-44089.1	955.818	-29777.5	0.000000	0.000000	6.699051	0.066227	NaN	0.000000	0.001640	0.001647	28.0795	0.092554	0.002122	43.6186	-17.1104	-164.654	0.115284	0.697689	-0.314264	-0.315632	0.066227	43.6186	-0.315403	-7959.53	-8.320412E-6	NaN
109	1.000000	0.707042	7.36611e+06	-44089.1	955.818	-29777.5	0.000000	0.000000	6.707035	0.034712	NaN	0.000000	0.001655	0.001678	28.0799	0.089245	0.002065	43.2275	-61.1921	-166.913	-0.033326	0.705716	-0.306279	-0.307605	0.034712	43.2275	-0.306881	-5954.62	-5.829356E-6	NaN
109	1.000000	0.715037	7.36611e+06	-44089.1	955.819	-29777.5	0.000000	0.000000	6.715032	0.090170	NaN	0.000000	0.001643	0.001658	28.0809	0.053457	0.001936	27.6171	-104.264	-166.442	0.052498	0.713735	-0.298284	-0.299586	0.090170	27.6171	-0.300733	-4825.47	-1.868617E-5	NaN
109	1.000000	0.723018	7.36611e+06	-44089.1	955.818	-29777.5	0.000000	0.000000	6.723011	0.044426	NaN	0.000000	0.001641	0.001629	28.0788	0.023910	0.002008	11.9099	-3.736766	-165.003	0.018920	0.721711	-0.290303	-0.291609	0.044426	11.9099	-0.293100	-3712.82	-1.196545E-5	NaN
109	1.000000	0.731044	7.36611e+06	-44089.1	955.818	-29777.5	0.000000	0.000000	6.731040	0.110268	NaN	0.000000	0.001596	0.001621	28.0786	0.099950	0.001981	50.4432	158.787	-167.682	0.084555	0.729791	-0.282276	-0.283529	0.110268	50.4432	-0.283915	-2703.69	-4.078419E-5	NaN
109	1.000000	0.739073	7.36611e+06	-44089.1	955.818	-29777.5	0.000000	0.000000	6.739065	0.006774	NaN	0.000000	0.001589	0.001640	28.0782	0.020958	0.002050	10.2249	-60.9768	-164.132	-0.017373	0.737704	-0.274247	-0.275616	0.006774	10.2249	-0.274744	-1965.73	-3.445903E-6	NaN
109	1.000000	0.747052	7.36611e+06	-44089.1	955.819	-29777.5	0.000000	0.000000	6.747048	0.125904	NaN	0.000000	0.001563	0.001662	28.0792	0.063806	0.001965	32.4791	-56.9406	-165.092	0.072304	0.745748	-0.266269	-0.267572	0.125904	32.4791	-0.269176	-1618.14	-7.780784E-5	NaN
109	1.000000	0.755032	7.36611e+06	-44089.1	955.819	-29777.5	0.000000	0.000000	6.755022	-0.012148	NaN	0.000000	0.001569	0.001663	28.0785	0.034284	0.001942	17.6495	-44.9057	-168.834	0.064702	0.753772	-0.258289	-0.259549	-0.012148	17.6495	-0.257773	-1083.29	1.121361E-5	NaN
109	1.000000	0.763053	7.36611e+06	-44089.1	955.819	-29777.5	0.000000	0.000000	6.763049	0.111615	NaN	0.000000	0.001511	0.001674	28.0806	0.076102	0.002046	37.1873	53.2022	-163.684	0.027634	0.761725	-0.250268	-0.251595	0.111615	37.1873	-0.252519	-899.242	-0.000124	NaN
109	1.000000	0.771075	7.36611e+06	-44089.1	955.818	-29777.5	0.000000	0.000000	6.771067	0.018803	NaN	0.000000	0.001515	0.001669	28.08	0.077964	0.001968	39.6179	-67.6465	-165.382	-0.073103	0.769709	-0.242246	-0.243611	0.018803	39.6179	-0.242602	-631.154	-2.979187E-5	NaN
109	1.000000	0.779064	7.36611e+06	-44089.1	955.819	-29777.5	0.000000	0.000000	6.779058	0.064409	NaN	0.000000	0.001532	0.001676	28.0796	0.096287	0.002040	47.2034	-137.652	-167.82	0.003233	0.777779	-0.234256	-0.235541	0.064409	47.2034	-0.235280	-484.887	-0.000133	NaN
109	1.000000	0.787059	7.36611e+06	-44089.1	955.818	-29777.5	0.000000	0.000000	6.787055	0.115765	NaN	0.000000	0.001551	0.001701	28.0788	0.030391	0.002002	15.1825	167.312	-169.03	0.095449	0.785780	-0.226262	-0.227541	0.115765	15.1825	-0.231980	-430.283	-0.000269	NaN
109	1.000000	0.795039	7.36611e+06	-44089.1	955.817	-29777.5	0.000000	0.000000	6.795034	0.091023	NaN	0.000000	0.001539	0.001655	28.0793	0.087019	0.001994	43.6309	-167.501	-166.319	0.077157	0.793785	-0.218281	-0.219536	0.091023	43.6309	-0.219846	-276.195	-0.000330	NaN
109	1.000000	0.803089	7.36611e+06	-44089.1	955.819	-29777.5	0.000000	0.000000	6.803081	0.016084	NaN	0.000000	0.001563	0.001669	28.0774	0.113449	0.001948	58.226	-53.6915	-164.385	-0.004337	0.801756	-0.210232	-0.211565	0.016084	58.226	-0.210439	-194.95	-8.250536E-5	NaN
109	1.000000	0.811097	7.36611e+06	-44089.1	955.818	-29777.5	0.000000	0.000000	6.811090	0.055370	NaN	0.000000	0.001526	0.001687	28.0781	0.099285	0.001869	53.1226	38.4828	-164.174	0.084414	0.809740	-0.202224	-0.203580	0.055370	53.1226	-0.203006	-147.565	-0.000375	NaN
109	1.000000	0.819098	7.36611e+06	-44089.1	955.818	-29777.5	0.000000	0.000000	6.819090	0.010667	NaN	0.000000	0.001578	0.001667	28.0783	0.027049	0.001865	14.5017	55.4833	-165.482	0.075395	0.817755	-0.194222	-0.195565	0.010667	14.5017	-0.194774	-108.008	-9.875949E-5	NaN
109	1.000000	0.827120	7.36611e+06	-44089.1	955.818	-29777.5	0.000000	0.000000	6.827111	0.000485	NaN	0.000000	0.001530	0.001670	28.0769	0.027938	0.002023	13.8087	112.563	-165.596	0.019177	0.825791	-0.186201	-0.187529	0.000485	13.8087	-0.186227	-77.7664	-6.236178E-6	NaN
109	1.000000	0.835115	7.36611e+06	-44089.1	955.818	-29777.5	0.000000	0.000000	6.835108	0.041476	NaN	0.000000	0.001553	0.001650	28.0765	0.113697	0.002029	56.0363	98.6059	-167.661	0.053185	0.833724	-0.178206	-0.179596	0.041476	56.0363	-0.178761	-58.1248	-0.000714	NaN
109	1.000000	0.843094	7.36611e+06	-44089.1	955.819	-29777.5	0.000000	0.000000	6.843092	0.172021	NaN	0.000000	0.001542	0.001625	28.0779	0.067407	0.001939	34.7671	129.83	-165.103	0.047649	0.841776	-0.170227	-0.171545	0.172021	34.7671	-0.173938	-48.0513	-0.003580	NaN
109	1.000000	0.851097	7.36611e+06	-44089.1	955.818	-29777.5	0.000000	0.000000	6.851090	0.040082	NaN	0.000000	0.001552	0.001660	28.0783	0.017662	0.002036	8.675170	132.548	-168.033	0.047732	0.849793	-0.162224	-0.163528	0.040082	8.675170	-0.165689	-34.5456	-0.001160	NaN
109	1.000000	0.859090	7.36611e+06	-44089.1	955.818	-29777.5	0.000000	0.000000	6.859087	0.151597	NaN	0.000000	0.001561	0.001684	28.0792	0.080207	0.002030	39.5117	-81.4761	-163.848	0.206075	0.857820	-0.154231	-0.155500	0.151597	39.5117	-0.157108	-24.3455	-0.006227	NaN
109	1.000000	0.867099	7.36611e+06	-44089.1	955.819	-29777.5	0.000000	0.000000	6.867091	0.011886	NaN	0.000000	0.001549	0.001676	28.079	0.041159	0.001785	23.0539	-91.8863	-164.841	0.002988	0.865807	-0.146221	-0.147514	0.011886	23.0539	-0.146608	-15.698	-0.000757	NaN
109	1.000000	0.875111	7.36611e+06	-44089.1	955.818	-29777.5	0.000000	0.000000	6.875105	0.066208	NaN	0.000000	0.001551	0.001672	28.078	0.070091	0.001982	35.3717	-13.2683	-167.064	0.081242	0.873819	-0.138210	-0.139501	0.066208	35.3717	-0.139614	-11.6333	-0.005691	NaN
109	1.000000	0.883125	7.36611e+06	-44089.1	955.819	-29777.5	0.000000	0.000000	6.883118	0.038273	NaN	0.000000	0.001535	0.001666	28.079	0.019212	0.002084	9.218834	-87.4724	-166.847	0.008344	0.881790	-0.130196	-0.131531	0.038273	9.218834	-0.133309	-8.829195	-0.004335	NaN
109	1.000000	0.891122	7.36611e+06	-44089.1	955.819	-29777.5	0.000000	0.000000	6.891115	0.055573	NaN	0.000000	0.001534	0.001664	28.0765	0.083250	0.002138	38.9423	116.677	-167.124	0.046516	0.889775	-0.122199	-0.123545	0.055573	38.9423	-0.123269	-5.618620	-0.009891	NaN
109	1.000000	0.899117	7.36611e+06	-44089.1	955.819	-29777.5	0.000000	0.000000	6.899109	0.022398	NaN	0.000000	0.001520	0.001693	28.0774	0.074465	0.002105	35.3712	10.3694	-165.817	-0.002490	0.897831	-0.114204	-0.115490	0.022398	35.3712	-0.114679	-3.762525	-0.005953	NaN
109	1.000000	0.907114	7.36611e+06	-44089.1	955.818	-29777.5	0.000000	0.000000	6.907105	0.006205	NaN	0.000000	0.001568	0.001679	28.0783	0.138568	0.002089	66.3365	137.145	-166.486	0.047320	0.905784	-0.106207	-0.107537	0.006205	66.3365	-0.106277	-2.504232	-0.002478	NaN
109	1.000000	0.915127	7.36611e+06	-44089.1	955.818	-29777.5	0.000000	0.000000	6.915116	-0.043615	NaN	0.000000	0.001568	0.001677	28.0775	0.094526	0.001786	52.9166	-120.772	-168.697	-0.061112	0.913805	-0.098194	-0.099516	-0.043615	52.9166	-0.097576	-1.613163	0.027037	NaN
109	1.000000	0.923144	7.36611e+06	-44089.1	955.818	-29777.5	0.000000	0.000000	6.923135	-0.007437	NaN	0.000000	0.001630	0.001684	28.0782	0.049642	0.001963	25.2862	-15.5858	-162.727	-0.039111	0.921855	-0.090177	-0.091466	-0.007437	25.2862	-0.089956	-1.078411	0.006896	NaN
109	1.000000	0.931136	7.36611e+06	-44089.1	955.818	-29777.5	0.000000	0.000000	6.931129	0.035484	NaN	0.000000	0.001618	0.001664	28.0785	0.116187	0.002149	54.0601	-117.241	-164.807	0.040691	0.929803	-0.082185	-0.083517	0.035484	54.0601	-0.082677	-0.721159	-0.049204	NaN
109	1.000000	0.939130	7.36611e+06	-44089.1	955.818	-29777.5	0.000000	0.000000	6.939120	-0.024272	NaN	0.000000	0.001599	0.001678	28.0792	0.141203	0.002076	68.0067	-171.352	-167.273	0.025781	0.937894	-0.074191	-0.075427	-0.024272	68.0067	-0.073923	-0.433067	0.056047	NaN
109	1.000000	0.947117	7.36611e+06	-44089.1	955.819	-29777.5	0.000000	0.000000	6.947109	0.026044	NaN	0.000000	0.001610	0.001667	28.0801	0.157932	0.001859	84.9534	-120.727	-162.097	0.057559	0.945806	-0.066203	-0.067514	0.026044	84.9534	-0.066433	-0.272986	-0.095406	NaN
109	1.000000	0.955132	7.36611e+06	-44089.1	955.817	-29777.5	0.000000	0.000000	6.955125	0.044510	NaN	0.000000	0.001596	0.001662	28.0791	0.054368	0.001958	27.768	5.787648	-168.768	-0.009125	0.953808	-0.058189	-0.059512	0.044510	27.768	-0.059391	-0.172977	-0.257318	NaN
109	1.000000	0.963135	7.36611e+06	-44089.1	955.818	-29777.5	0.000000	0.000000	6.963128	0.033464	NaN	0.000000	0.001606	0.001645	28.0787	0.101574	0.001914	53.0581	-53.1762	-166.398	-0.060764	0.961830	-0.050186	-0.051490	0.033464	53.0581	-0.050659	-0.095527	-0.350306	NaN
109	1.000000	0.971154	7.36611e+06	-44089.1	955.818	-29777.5	0.000000	0.000000	6.971147	0.042344	NaN	0.000000	0.001617	0.001641	28.0792	0.029897	0.001981	15.0949	-22.4206	-167.536	0.046648	0.969840	-0.042166	-0.043481	0.042344	15.0949	-0.044270	-0.061048	-0.693616	NaN
109	1.000000	0.979155	7.36611e+06	-44089.1	955.819	-29777.5	0.000000	0.000000	6.979146	-0.008537	NaN	0.000000	0.001595	0.001617	28.0796	0.062914	0.001879	33.4863	-29.2303	-164.957	0.067117	0.977865	-0.034165	-0.035456	-0.008537	33.4863	-0.033974	-0.029882	0.285704	NaN
109	1.000000	0.987143	7.36611e+06	-44089.1	955.818	-29777.5	0.000000	0.000000	6.987139	0.124646	NaN	0.000000	0.001640	0.001634	28.079	0.073554	0.002019	36.4304	10.6338	-169.009	0.033271	0.985867	-0.026178	-0.027454	0.124646	36.4304	-0.028744	-0.021245	-5.867206	NaN
109	1.000000	0.995134	7.36611e+06	-44089.1	955.817	-29777.5	0.000000	0.000000	6.995129	0.103232	NaN	0.000000	0.001596	0.001677	28.079	0.115732	0.002034	56.8867	-102.172	-168.705	0.076410	0.993810	-0.018187	-0.019511	0.103232	56.8867	-0.019548	-0.012232	-8.439341	NaN
109	1.000000	1.003140	7.36611e+06	-44089.1	955.818	-29777.5	0.000000	0.000000	7.003134	0.051640	NaN	0.000000	0.001668	0.001640	28.0797	0.111850	0.002009	55.6871	47.5397	-169.071	0.059626	1.001818	-0.010180	-0.011502	0.051640	55.6871	-0.010876	-0.006887	-7.498125	NaN
109	1.000000	1.011153	7.36611e+06	-44089.1	955.818	-29777.5	0.000000	0.000000	7.011143	-0.022524	NaN	0.000000	0.001631	0.001673	28.0801	0.020027	0.001884	10.6274	129.925	-164.25	0.028871	1.009828	-0.002168	-0.003493	-0.022524	10.6274	-0.000578	-0.000427	52.7226	NaN
109	1.000000	1.019122	7.36611e+06	-44089.1	955.819	-29777.5	0.000000	0.000000	7.019307	4.723443	NaN	0.000000	0.001623	0.001618	28.0798	5.578387	0.001815	3073.85	13.8031	-170.993	3.471937	1.017786	0.005802	0.004466	4.723443	3073.85	0.004649	0.003815	1238	45465.9
109	2.000000	1.023812	7.36611e+06	-44089.1	955.818	-29777.5	0.000000	0.000000	7.024217	10.0708	NaN	0.000000	0.001635	0.001651	28.0801	9.839653	0.001638	6006.38	4.617374	-170.776	9.830039	1.023450	0.010491	0.010130	10.0708	6006.38	0.009234	0.008343	1207.17	60081
109	2.000000	1.025682	7.36611e+06	-44089.1	955.818	-29777.5	0.000000	0.000000	7.026176	12.2485	NaN	0.000000	0.001640	0.001642	28.0799	11.8056	0.001769	6674.56	7.333207	-174.305	11.1588	1.025461	0.012361	0.012140	12.2485	6674.56	0.010985	0.010296	1189.58	60096.8
109	2.000000	1.027725	7.36611e+06	-44089.1	955.819	-29777.5	0.000000	0.000000	7.028331	14.9568	NaN	0.000000	0.001631	0.001660	28.079	14.3033	0.001841	7770.54	9.468835	-177.639	15.1113	1.027513	0.014405	0.014193	14.9568	7770.54	0.012961	0.012662	1181.27	63092.7
109	2.000000	1.029688	7.36611e+06	-44089.1	955.818	-29777.5	0.000000	0.000000	7.030398	17.4775	NaN	0.000000	0.001623	0.001669	28.0792	15.1056	0.001677	9006.42	1.538474	-170.737	16.6743	1.029358	0.016368	0.016038	17.4775	9006.42	0.014912	0.015169	1152.2	66811.1
109	2.000000	1.031727	7.36611e+06	-44089.1	955.819	-29777.5	0.000000	0.000000	7.032559	20.4406	NaN	0.000000	0.001652	0.001672	28.0788	17.745	0.001756	10106.5	8.804142	-179.119	22.0222	1.031415	0.018407	0.018094	20.4406	10106.5	0.016890	0.017889	1142.66	69037.5
109	2.000000	1.033715	7.36611e+06	-44089.1	955.818	-29777.5	0.000000	0.000000	7.034725	24.777	NaN	0.000000	0.001642	0.001640	28.0775	19.9602	0.001727	11557	9.821116	179.884	25.6563	1.033341	0.020394	0.020021	24.777	11557	0.018786	0.020671	1198.63	73440.6
109	2.000000	1.035664	7.36611e+06	-44089.1	955.818	-29777.5	0.000000	0.000000	7.036888	29.9892	NaN	0.000000	0.001566	0.001649	28.0777	21.2849	0.001759	12099.8	2.621807	-174.247	28.2465	1.035314	0.022344	0.021993	29.9892	12099.8	0.020485	0.023310	1286.54	72407.1
109	2.000000	1.037643	7.36611e+06	-44089.1	955.818	-29777.5	0.000000	0.000000	7.039009	33.4611	NaN	0.000000	0.001554	0.001628	28.0779	24.2823	0.001809	13421.1	8.734324	178.885	34.1456	1.037371	0.024322	0.024051	33.4611	13421.1	0.022452	0.026543	1260.62	75263.5
109	2.000000	1.039661	7.36611e+06	-44089.1	955.817	-29777.5	0.000000	0.000000	7.041237	38.5483	NaN	0.000000	0.001578	0.001664	28.0789	24.777	0.001609	15399.1	6.758640	179.093	38.0728	1.039374	0.026340	0.026054	38.5483	15399.1	0.024463	0.030046	1282.99	81166.6
109	2.000000	1.041669	7.36611e+06	-44089.1	955.818	-29777.5	0.000000	0.000000	7.043363	41.4227	NaN	0.000000	0.001556	0.001669	28.0789	27.7769	0.001672	16615.8	5.728776	179.1	42.6411	1.041421	0.028348	0.028100	41.4227	16615.8	0.026478	0.033760	1226.97	82621.3
109	2.000000	1.043651	7.36611e+06	-44089.1	955.818	-29777.5	0.000000	0.000000	7.045631	48.382	NaN	0.000000	0.001546	0.001632	28.0786	30.1016	0.001809	16643.1	7.383968	177.803	47.0491	1.043312	0.030330	0.029991	48.382	16643.1	0.028150	0.036996	1307.76	79054.9
109	2.000000	1.045639	7.36611e+06	-44089.1	955.818	-29777.5	0.000000	0.000000	7.047856	54.1414	NaN	0.000000	0.001555	0.001669	28.0785	31.7906	0.001771	17950.2	7.185276	178.583	53.8079	1.045241	0.032319	0.031920	54.1414	17950.2	0.030056	0.040861	1325.02	81131.3
109	2.000000	1.047664	7.36611e+06	-44089.1	955.818	-29777.5	0.000000	0.000000	7.050012	57.3575	NaN	0.000000	0.001617	0.001653	28.0772	34.6376	0.001888	18349.3	6.756088	176.923	57.2118	1.047389	0.034343	0.034068	57.3575	18349.3	0.031999	0.044988	1274.95	79039.4
109	2.000000	1.049597	7.36611e+06	-44089.1	955.817	-29777.5	0.000000	0.000000	7.052406	68.5496	NaN	0.000000	0.001574	0.001677	28.0795	35.2351	0.001808	19486.3	1.526677	-178.135	66.325	1.049286	0.036277	0.035966	68.5496	19486.3	0.033638	0.048623	1409.82	80738.8
109	2.000000	1.051606	7.36611e+06	-44089.1	955.817	-29777.5	0.000000	0.000000	7.054555	71.9549	NaN	0.000000	0.001589	0.001651	28.0789	38.1331	0.001748	21811	2.958318	178.788	71.4383	1.051315	0.038285	0.037994	71.9549	21811	0.035811	0.053652	1341.15	86031.4
109	2.000000	1.053614	7.36611e+06	-44089.1	955.818	-29777.5	0.000000	0.000000	7.056882	79.7253	NaN	0.000000	0.001628	0.001637	28.0774	40.0656	0.001743	22981.9	4.825418	178.106	77.8334	1.053262	0.040293	0.039941	79.7253	22981.9	0.037692	0.058199	1369.88	87036.6
109	2.000000	1.055588	7.36611e+06	-44089.1	955.817	-29777.5	0.000000	0.000000	7.059138	86.5798	NaN	0.000000	0.001634	0.001611	28.0774	41.6178	0.001816	22915.9	2.916617	179.379	83.9471	1.055301	0.042268	0.041980	86.5798	22915.9	0.039434	0.062574	1383.65	83697.7
109	2.000000	1.057593	7.36611e+06	-44089.1	955.817	-29777.5	0.000000	0.000000	7.061426	93.4651	NaN	0.000000	0.001593	0.001674	28.0784	43.534	0.001789	24328.4	2.745649	178.739	91.2908	1.057318	0.044272	0.043998	93.4651	24328.4	0.041391	0.067672	1381.15	85444.4
109	2.000000	1.059573	7.36611e+06	-44089.1	955.818	-29777.5	0.000000	0.000000	7.063622	98.7121	NaN	0.000000	0.001579	0.001643	28.0798	44.2795	0.001753	25252.2	3.633265	177.026	95.5531	1.059250	0.046252	0.045930	98.7121	25252.2	0.043321	0.072891	1354.24	85454.6
109	2.000000	1.061556	7.36611e+06	-44089.1	955.818	-29777.5	0.000000	0.000000	7.065898	105.856	NaN	0.000000	0.001591	0.001647	28.0792	46.2932	0.001830	25302	2.298143	178.592	102.348	1.061348	0.048235	0.048028	105.856	25302	0.045097	0.077864	1359.51	82843.8
109	2.000000	1.063604	7.36611e+06	-44089.1	955.818	-29777.5	0.000000	0.000000	7.068364	116.012	NaN	0.000000	0.001538	0.001658	28.0787	48.2358	0.001798	26826.8	4.914767	175.619	114.687	1.063317	0.050284	0.049996	116.012	26826.8	0.047040	0.083485	1389.61	84827.6
109	2.000000	1.065602	7.36611e+06	-44089.1	955.817	-29777.5	0.000000	0.000000	7.070676	123.653	NaN	0.000000	0.001568	0.001629	28.0789	48.7939	0.001633	29882.2	3.752609	175.695	122.203	1.065291	0.052282	0.051970	123.653	29882.2	0.049178	0.089890	1375.6	91060.5
109	2.000000	1.067610	7.36611e+06	-44089.1	955.818	-29777.5	0.000000	0.000000	7.073127	134.422	NaN	0.000000	0.001579	0.001636	28.0787	52.847	0.001694	31195.3	3.778642	175.993	132.648	1.067205	0.054290	0.053885	134.422	31195.3	0.051058	0.095711	1404.45	92125.9
109	2.000000	1.069584	7.36611e+06	-44089.1	955.818	-29777.5	0.000000	0.000000	7.075417	142.119	NaN	0.000000	0.001580	0.001662	28.0792	54.6962	0.001912	28602.1	7.044700	173.212	139.699	1.069253	0.056263	0.055933	142.119	28602.1	0.052537	0.100415	1415.32	82465.4
109	2.000000	1.071583	7.36611e+06	-44089.1	955.818	-29777.5	0.000000	0.000000	7.077844	152.541	NaN	0.000000	0.001565	0.001621	28.0793	56.4355	0.001878	30043.3	7.796025	172.52	150.903	1.071186	0.058262	0.057866	152.541	30043.3	0.054454	0.106676	1429.95	84040.2
109	2.000000	1.073622	7.36611e+06	-44089.1	955.818	-29777.5	0.000000	0.000000	7.080231	160.987	NaN	0.000000	0.001517	0.001676	28.0792	58.7207	0.001806	32523	7.033309	172.663	160.315	1.073271	0.060302	0.059950	160.987	32523	0.056589	0.113863	1413.86	88058.5
109	2.000000	1.075678	7.36611e+06	-44089.1	955.818	-29777.5	0.000000	0.000000	7.082779	172.969	NaN	0.000000	0.001543	0.001654	28.0788	58.7149	0.001740	33743.3	6.093370	173.547	176.068	1.075198	0.062357	0.061878	172.969	33743.3	0.058513	0.120529	1435.08	88800.3
109	2.000000	1.077598	7.36611e+06	-44089.1	955.819	-29777.5	0.000000	0.000000	7.084981	179.846	NaN	0.000000	0.001519	0.001631	28.0789	61.9655	0.001785	34720.8	3.737088	174.742	179.671	1.077305	0.064277	0.063985	179.846	34720.8	0.060392	0.127219	1413.67	88938
109	2.000000	1.079596	7.36611e+06	-44089.1	955.818	-29777.5	0.000000	0.000000	7.087391	189.861	NaN	0.000000	0.001542	0.001694	28.0803	62.717	0.001787	35100	4.829756	174.369	188.25	1.079233	0.066275	0.065913	189.861	35100	0.062219	0.133884	1418.11	87642.8
109	2.000000	1.081598	7.36611e+06	-44089.1	955.818	-29777.5	0.000000	0.000000	7.089811	200.034	NaN	0.000000	0.001533	0.001681	28.0793	66.5203	0.001726	38546.8	6.137457	171.283	199.462	1.081235	0.068277	0.067915	200.034	38546.8	0.064385	0.142001	1408.69	93458.1
109	2.000000	1.083627	7.36611e+06	-44089.1	955.818	-29777.5	0.000000	0.000000	7.092395	213.512	NaN	0.000000	0.001546	0.001664	28.0814	68.6917	0.001778	38625.1	8.059979	169.857	213.288	1.083267	0.070307	0.069946	213.512	38625.1	0.066161	0.148823	1434.67	91476.1
109	2.000000	1.085616	7.36611e+06	-44089.1	955.818	-29777.5	0.000000	0.000000	7.094898	226.022	NaN	0.000000	0.001557	0.001660	28.0796	69.2611	0.001713	40437.4	2.481574	174.746	226.205	1.085220	0.072296	0.071899	226.022	40437.4	0.068104	0.156460	1444.6	93401.5
109	2.000000	1.087537	7.36611e+06	-44089.1	955.819	-29777.5	0.000000	0.000000	7.097281	237.272	NaN	0.000000	0.001531	0.001652	28.0796	72.6345	0.001777	40867.8	5.216203	172.003	235.61	1.087268	0.074217	0.073948	237.272	40867.8	0.069862	0.163529	1450.95	92333.1
109	2.000000	1.089602	7.36611e+06	-44089.1	955.819	-29777.5	0.000000	0.000000	7.099920	251.215	NaN	0.000000	0.001539	0.001660	28.0788	74.1967	0.001856	39971.7	9.755205	168.399	251.971	1.089210	0.076282	0.075889	251.215	39971.7	0.071568	0.170526	1473.18	88436.3
109	2.000000	1.091586	7.36611e+06	-44089.1	955.819	-29777.5	0.000000	0.000000	7.102389	263.031	NaN	0.000000	0.001557	0.001644	28.0787	75.9244	0.001817	41785.6	6.964130	170.657	263.126	1.091216	0.078266	0.077896	263.031	41785.6	0.073544	0.178804	1471.05	90284
109	2.000000	1.093528	7.36611e+06	-44089.1	955.819	-29777.5	0.000000	0.000000	7.104785	274.097	NaN	0.000000	0.001542	0.001648	28.0791	79.0203	0.001850	42712.5	6.743865	170.061	270.262	1.093221	0.080207	0.079901	274.097	42712.5	0.075394	0.186721	1467.95	90309.2
109	2.000000	1.095575	7.36611e+06	-44089.1	955.819	-29777.5	0.000000	0.000000	7.107535	291.2	NaN	0.000000	0.001558	0.001665	28.0788	79.1715	0.001822	43446.9	3.842195	173.124	291.413	1.095188	0.082254	0.081868	291.2	43446.9	0.077227	0.194723	1495.45	89954.6
109	2.000000	1.097555	7.36611e+06	-44089.1	955.819	-29777.5	0.000000	0.000000	7.109912	300.837	NaN	0.000000	0.001539	0.001642	28.08	80.4495	0.001782	45135.4	2.357850	173.734	297.867	1.097218	0.084234	0.083897	300.837	45135.4	0.079236	0.203673	1477.06	91374.2
109	2.000000	1.099561	7.36611e+06	-44089.1	955.819	-29777.5	0.000000	0.000000	7.112614	317.784	NaN	0.000000	0.001531	0.001665	28.0798	80.6078	0.001695	47554.3	2.123619	174.094	318.942	1.099372	0.086240	0.086051	317.784	47554.3	0.081229	0.212740	1493.77	94197.5
109	2.000000	1.101577	7.36611e+06	-44089.1	955.819	-29777.5	0.000000	0.000000	7.115149	330.384	NaN	0.000000	0.001545	0.001657	28.0793	83.877	0.001834	45735.5	4.115936	172.409	333.325	1.101300	0.088257	0.087979	330.384	45735.5	0.082839	0.220201	1500.37	89046.4
109	2.000000	1.103639	7.36611e+06	-44089.1	955.819	-29777.5	0.000000	0.000000	7.117841	345.728	NaN	0.000000	0.001564	0.001693	28.0781	85.957	0.001895	45359	10.1746	167.522	346.676	1.103183	0.090318	0.089863	345.728	45359	0.084602	0.228505	1513	86694.1
109	2.000000	1.105503	7.36611e+06	-44089.1	955.819	-29777.5	0.000000	0.000000	7.120321	360.714	NaN	0.000000	0.001557	0.001697	28.078	87.5156	0.001753	49927.5	9.077594	167.202	358.276	1.105145	0.092183	0.091825	360.714	49927.5	0.086764	0.238890	1509.96	93328.5
109	2.000000	1.107538	7.36611e+06	-44089.1	955.819	-29777.5	0.000000	0.000000	7.122798	371.478	NaN	0.000000	0.001539	0.001676	28.0786	91.2433	0.001767	51627.1	6.132059	169.946	370.362	1.107233	0.094217	0.093912	371.478	51627.1	0.088821	0.248964	1492.09	94532.8
109	2.000000	1.109619	7.36611e+06	-44089.1	955.819	-29777.5	0.000000	0.000000	7.125305	381.823	NaN	0.000000	0.001507	0.001664	28.078	91.7529	0.001710	53659.6	5.603397	169.933	384.951	1.109200	0.096299	0.095880	381.823	53659.6	0.090962	0.259661	1470.47	96209.4
109	2.000000	1.111627	7.36611e+06	-44089.1	955.819	-29777.5	0.000000	0.000000	7.127861	395.182	NaN	0.000000	0.001532	0.001697	28.0783	94.9574	0.001841	51578	7.107251	168.686	397.764	1.111320	0.098306	0.098000	395.182	51578	0.092560	0.267779	1475.78	91064.6
109	2.000000	1.113625	7.36611e+06	-44089.1	955.819	-29777.5	0.000000	0.000000	7.130437	409.225	NaN	0.000000	0.001558	0.001687	28.0778	96.5374	0.001812	53269.3	3.312805	172.333	412.704	1.113295	0.100305	0.099975	409.225	53269.3	0.094543	0.278020	1471.93	92302.2
109	2.000000	1.115590	7.36611e+06	-44089.1	955.819	-29777.5	0.000000	0.000000	7.132992	423.578	NaN	0.000000	0.001580	0.001671	28.0778	98.2372	0.001765	55667	6.455922	168.692	425.086	1.115239	0.102269	0.101918	423.578	55667	0.096562	0.288629	1467.55	94667.5
109	2.000000	1.117638	7.36611e+06	-44089.1	955.819	-29777.5	0.000000	0.000000	7.135482	434.322	NaN	0.000000	0.001548	0.001669	28.0789	99.6954	0.001761	56623.3	1.167235	173.871	437.101	1.117462	0.104318	0.104141	434.322	56623.3	0.098565	0.299336	1450.95	94556.1
109	2.000000	1.119509	7.36611e+06	-44089.1	955.82	-29777.5	0.000000	0.000000	7.138370	459.061	NaN	0.000000	0.001564	0.001657	28.0791	100.431	0.001830	54867.9	1.178392	174.356	455.815	1.119233	0.106189	0.105912	459.061	54867.9	0.099914	0.306649	1497.02	90525.4
109	2.000000	1.121025	7.36611e+06	-44089.1	955.819	-29777.5	0.000000	0.000000	7.140185	466.368	NaN	0.000000	0.001566	0.001648	28.1008	102.822	0.001745	58912.8	2.948857	-8.596236	461.194	1.120732	0.107704	0.107411	466.368	58912.8	0.101767	0.316832	1471.97	95624.2