File: remote_trans/data/nanoindenter/0828-1/data/Data_2025-08-06,11h17m57s/2025-07-22_16-23-58_1_433.txt
2025-07-22, 16:23:58, 1
Index	Phase	Displacement	Time	Pos X	Pos Y	Pos Z	Rot A	Rot B	Piezo Z	Force A	Force B	Gripper	Voltage A	Voltage B	Temperature	Amplitude force	Amplitude pos	Stiffness	Phase shift	Phase excitation	Force A raw	Displacement raw	HMax	HMax raw	Real Force	Real Stiffness	Contact Depth	Area	Hardness	Reduced Mod.
[#]	[#]	[um]	[s]	[um]	[um]	[um]	[m°]	[m°]	[um]	[uN]	[uN]	[V]	[V]	[V]	[°C]	[uN]	[um]	[N/m]	[°]	[°]	[uN]	[um]	[um]	[um]	[uN]	[N/m]	[um]	[um^2]	[MPa]	[MPa]
433	1.000000	0.002569	7.36929e+06	-55439.1	1005.82	-29741.4	0.000000	0.000000	6.002793	-0.019758	NaN	0.000000	0.001614	0.001682	28.0811	0.057724	0.000989	58.3769	-5.471536	-164.747	0.007999	0.001262	-1.238204	-1.239511	-0.019758	58.3769	-1.237950	-3.537665E+16	5.585098E-19	NaN
433	1.000000	0.012598	7.36929e+06	-55439.1	1005.82	-29741.4	0.000000	0.000000	6.012823	0.005093	NaN	0.000000	0.001584	0.001695	28.0809	0.030954	0.001288	24.0304	24.1655	15.2219	0.037672	0.011176	-1.228175	-1.229597	0.005093	24.0304	-1.228334	-2.630532E+16	-1.936285E-19	NaN
433	1.000000	0.022520	7.36929e+06	-55439.1	1005.82	-29741.4	0.000000	0.000000	6.022750	0.095047	NaN	0.000000	0.001585	0.001652	28.0808	0.025013	0.001808	13.8308	129.754	-161.901	0.137707	0.021189	-1.218252	-1.219584	0.095047	13.8308	-1.223406	-2.259941E+16	-4.205723E-18	NaN
433	1.000000	0.032532	7.36929e+06	-55439.1	1005.82	-29741.4	0.000000	0.000000	6.032761	0.065572	NaN	0.000000	0.001599	0.001674	28.0811	0.090074	0.002029	44.394	-66.8868	12.9833	-0.010084	0.031181	-1.208240	-1.209591	0.065572	44.394	-1.209348	-1.465250E+16	-4.475134E-18	NaN
433	1.000000	0.042558	7.36929e+06	-55439.1	1005.82	-29741.4	0.000000	0.000000	6.042786	0.063938	NaN	0.000000	0.001646	0.001641	28.0812	0.072353	0.001852	39.0621	77.0072	-163.652	0.084400	0.041228	-1.198214	-1.199545	0.063938	39.0621	-1.199442	-1.079636E+16	-5.922163E-18	NaN
433	1.000000	0.052529	7.36929e+06	-55439.1	1005.82	-29741.4	0.000000	0.000000	6.052755	0.035757	NaN	0.000000	0.001651	0.001696	28.0813	0.109452	0.001800	60.7962	67.7246	13.8946	0.124834	0.051169	-1.188244	-1.189604	0.035757	60.7962	-1.188685	-7.748430E+15	-4.614681E-18	NaN
433	1.000000	0.062510	7.36929e+06	-55439.1	1005.82	-29741.4	0.000000	0.000000	6.062740	0.096164	NaN	0.000000	0.001603	0.001660	28.081	0.034129	0.001926	17.7246	149.661	-165.596	0.057526	0.061235	-1.178262	-1.179538	0.096164	17.7246	-1.182332	-6.369501E+15	-1.509751E-17	NaN
433	1.000000	0.072533	7.36929e+06	-55439.1	1005.82	-29741.4	0.000000	0.000000	6.072761	0.072742	NaN	0.000000	0.001608	0.001659	28.0813	0.049054	0.001828	26.832	64.0504	17.2593	0.086260	0.071196	-1.168240	-1.169577	0.072742	26.832	-1.170273	-4.390849E+15	-1.656680E-17	NaN
433	1.000000	0.082550	7.36929e+06	-55439.1	1005.82	-29741.4	0.000000	0.000000	6.082779	0.068991	NaN	0.000000	0.001622	0.001698	28.0812	0.004594	0.002036	2.256862	-51.3884	-166.012	0.075088	0.081173	-1.158222	-1.159599	0.068991	2.256862	-1.181149	-6.141434E+15	-1.123373E-17	NaN
433	1.000000	0.092512	7.36929e+06	-55439.1	1005.82	-29741.4	0.000000	0.000000	6.092742	0.097592	NaN	0.000000	0.001638	0.001699	28.0812	0.034860	0.002062	16.9053	146.717	11.6605	0.075880	0.091193	-1.148260	-1.149580	0.097592	16.9053	-1.152590	-2.544133E+15	-3.835954E-17	NaN
433	1.000000	0.102520	7.36929e+06	-55439.1	1005.82	-29741.4	0.000000	0.000000	6.102747	0.045662	NaN	0.000000	0.001646	0.001650	28.0808	0.016501	0.002112	7.812175	-49.1839	-165.219	-0.051697	0.101250	-1.138253	-1.139523	0.045662	7.812175	-1.142636	-1.871071E+15	-2.440425E-17	NaN
433	1.000000	0.112566	7.36929e+06	-55439.1	1005.82	-29741.4	0.000000	0.000000	6.112792	0.031847	NaN	0.000000	0.001674	0.001672	28.081	0.013455	0.002038	6.602849	103.433	18.8379	0.035253	0.111205	-1.128207	-1.129568	0.031847	6.602849	-1.131824	-1.339962E+15	-2.376728E-17	NaN
433	1.000000	0.122553	7.36929e+06	-55439.1	1005.82	-29741.4	0.000000	0.000000	6.122780	0.045302	NaN	0.000000	0.001669	0.001685	28.0825	0.011214	0.002115	5.302474	161.535	-163.879	0.061888	0.121234	-1.118220	-1.119539	0.045302	5.302474	-1.124627	-1.072878E+15	-4.222431E-17	NaN
433	1.000000	0.132536	7.36929e+06	-55439.1	1005.82	-29741.4	0.000000	0.000000	6.132762	0.027735	NaN	0.000000	0.001613	0.001692	28.0824	0.179914	0.001920	93.7221	57.1892	18.024	0.052370	0.131220	-1.108237	-1.109553	0.027735	93.7221	-1.108459	-6.510386E+14	-4.260153E-17	NaN
433	1.000000	0.142568	7.36929e+06	-55439.1	1005.82	-29741.5	0.000000	0.000000	6.142795	0.038102	NaN	0.000000	0.001652	0.001683	28.0821	0.044396	0.001938	22.9089	46.5152	-166.012	-0.093735	0.141248	-1.098204	-1.099525	0.038102	22.9089	-1.099452	-4.928442E+14	-7.731021E-17	NaN
433	1.000000	0.152552	7.36929e+06	-55439.1	1005.82	-29741.5	0.000000	0.000000	6.152780	0.045960	NaN	0.000000	0.001653	0.001654	28.0822	0.035074	0.002019	17.3749	23.1322	14.534	0.091844	0.151255	-1.088220	-1.089518	0.045960	17.3749	-1.090204	-3.703005E+14	-1.241141E-16	NaN
433	1.000000	0.162585	7.36929e+06	-55439.1	1005.82	-29741.5	0.000000	0.000000	6.162810	-0.032038	NaN	0.000000	0.001638	0.001690	28.0823	0.137443	0.002012	68.2971	124.89	-164.224	-0.032397	0.161251	-1.078187	-1.079522	-0.032038	68.2971	-1.077835	-2.526061E+14	1.268306E-16	NaN
433	1.000000	0.172581	7.36929e+06	-55439.1	1005.82	-29741.5	0.000000	0.000000	6.172812	0.127881	NaN	0.000000	0.001635	0.001675	28.0821	0.028942	0.002016	14.3583	52.9713	14.5051	0.135154	0.171239	-1.068191	-1.069534	0.127881	14.3583	-1.074871	-2.304758E+14	-5.548577E-16	NaN
433	1.000000	0.182550	7.36929e+06	-55439.1	1005.82	-29741.5	0.000000	0.000000	6.182777	0.020904	NaN	0.000000	0.001624	0.001641	28.0822	0.024521	0.001960	12.5087	-137.189	-169.244	0.008964	0.181261	-1.058222	-1.059512	0.020904	12.5087	-1.059476	-1.431449E+14	-1.460332E-16	NaN
433	1.000000	0.192604	7.36929e+06	-55439.1	1005.82	-29741.5	0.000000	0.000000	6.192834	0.091762	NaN	0.000000	0.001607	0.001680	28.0823	0.031910	0.001903	16.7697	13.653	14.2123	0.119842	0.191184	-1.048168	-1.049588	0.091762	16.7697	-1.052272	-1.145398E+14	-8.011347E-16	NaN
433	1.000000	0.202571	7.36929e+06	-55439.1	1005.82	-29741.5	0.000000	0.000000	6.202799	0.055178	NaN	0.000000	0.001607	0.001693	28.0819	0.123947	0.002089	59.3206	-1.238665	-163.169	0.032379	0.201269	-1.038201	-1.039504	0.055178	59.3206	-1.038899	-7.571152E+13	-7.287873E-16	NaN
433	1.000000	0.212582	7.36929e+06	-55439.1	1005.82	-29741.5	0.000000	0.000000	6.212810	0.065573	NaN	0.000000	0.001644	0.001711	28.0819	0.080320	0.002051	39.1644	-31.1378	16.7141	0.006451	0.211215	-1.028191	-1.029558	0.065573	39.1644	-1.029446	-5.649807E+13	-1.160615E-15	NaN
433	1.000000	0.222575	7.36929e+06	-55439.1	1005.82	-29741.5	0.000000	0.000000	6.222803	0.045203	NaN	0.000000	0.001624	0.001690	28.082	0.075645	0.002068	36.5752	-104.164	-165.255	0.057238	0.221284	-1.018197	-1.019489	0.045203	36.5752	-1.019124	-4.103616E+13	-1.101531E-15	NaN
433	1.000000	0.232613	7.36929e+06	-55439.1	1005.82	-29741.5	0.000000	0.000000	6.232843	0.094907	NaN	0.000000	0.001648	0.001669	28.0819	0.053341	0.002001	26.6593	107.117	16.8075	0.109242	0.231273	-1.008159	-1.009499	0.094907	26.6593	-1.010829	-3.173534E+13	-2.990588E-15	NaN
433	1.000000	0.242591	7.36929e+06	-55439.1	1005.82	-29741.5	0.000000	0.000000	6.242816	-0.005507	NaN	0.000000	0.001669	0.001681	28.0816	0.113867	0.002029	56.1083	-97.5122	-167.434	0.019385	0.241277	-0.998182	-0.999496	-0.005507	56.1083	-0.998108	-2.139440E+13	2.574154E-16	NaN
433	1.000000	0.252580	7.36929e+06	-55439.1	1005.82	-29741.5	0.000000	0.000000	6.252805	-0.000179	NaN	0.000000	0.001684	0.001641	28.0821	0.042829	0.002036	21.0391	-73.5587	14.0456	0.000937	0.251249	-0.988193	-0.989523	-0.000179	21.0391	-0.988186	-1.572846E+13	1.135896E-17	NaN
433	1.000000	0.262632	7.36929e+06	-55439.1	1005.82	-29741.5	0.000000	0.000000	6.262858	0.017591	NaN	0.000000	0.001657	0.001667	28.0806	0.097820	0.001932	50.6264	117.47	-165.073	0.040181	0.261304	-0.978140	-0.979469	0.017591	50.6264	-0.978401	-1.161093E+13	-1.515011E-15	NaN
433	1.000000	0.272642	7.36929e+06	-55439.1	1005.82	-29741.5	0.000000	0.000000	6.272870	0.066436	NaN	0.000000	0.001673	0.001662	28.0804	0.036149	0.002012	17.9684	-107.456	14.7467	0.043866	0.271318	-0.968131	-0.969454	0.066436	17.9684	-0.970904	-9.201171E+12	-7.220335E-15	NaN
433	1.000000	0.282630	7.36929e+06	-55439.1	1005.82	-29741.5	0.000000	0.000000	6.282859	0.068074	NaN	0.000000	0.001735	0.001681	28.0809	0.076571	0.002125	36.0382	-66.6713	-164.033	0.083380	0.281289	-0.958142	-0.959484	0.068074	36.0382	-0.959559	-6.470256E+12	-1.052107E-14	NaN
433	1.000000	0.292615	7.36929e+06	-55439.1	1005.82	-29741.5	0.000000	0.000000	6.292841	0.012474	NaN	0.000000	0.001615	0.001728	28.0807	0.083435	0.001989	41.9394	64.8322	13.3416	0.117647	0.291293	-0.948157	-0.949479	0.012474	41.9394	-0.948380	-4.572784E+12	-2.727946E-15	NaN
433	1.000000	0.302641	7.36929e+06	-55439.1	1005.82	-29741.5	0.000000	0.000000	6.302873	0.159544	NaN	0.000000	0.001620	0.001737	28.0819	0.106789	0.001942	55.001	-74.5756	-163.193	0.159887	0.301323	-0.938132	-0.939449	0.159544	55.001	-0.940308	-3.558668E+12	-4.483238E-14	NaN
433	1.000000	0.312620	7.36929e+06	-55439.1	1005.82	-29741.5	0.000000	0.000000	6.312846	0.034468	NaN	0.000000	0.001625	0.001698	28.0805	0.105758	0.002036	51.9392	49.398	17.3778	-0.021577	0.311292	-0.928153	-0.929481	0.034468	51.9392	-0.928651	-2.477348E+12	-1.391340E-14	NaN
433	1.000000	0.322631	7.36929e+06	-55439.1	1005.82	-29741.5	0.000000	0.000000	6.322860	0.071986	NaN	0.000000	0.001565	0.001695	28.0812	0.111216	0.001971	56.4331	89.5407	-163.983	0.111723	0.321279	-0.918141	-0.919493	0.071986	56.4331	-0.919098	-1.840878E+12	-3.910399E-14	NaN
433	1.000000	0.332659	7.36929e+06	-55439.1	1005.82	-29741.5	0.000000	0.000000	6.332887	0.042348	NaN	0.000000	0.001607	0.001631	28.0805	0.041034	0.001998	20.5329	12.8564	15.0993	-0.010463	0.331208	-0.908113	-0.909564	0.042348	20.5329	-0.909660	-1.372684E+12	-3.085028E-14	NaN
433	1.000000	0.342693	7.36929e+06	-55439.1	1005.82	-29741.5	0.000000	0.000000	6.342921	0.058839	NaN	0.000000	0.001587	0.001644	28.0811	0.109371	0.001937	56.4504	-173.073	-164.878	0.113587	0.341313	-0.898079	-0.899460	0.058839	56.4504	-0.898861	-9.810165E+11	-5.997788E-14	NaN
433	1.000000	0.352655	7.36929e+06	-55439.1	1005.82	-29741.5	0.000000	0.000000	6.352883	0.063242	NaN	0.000000	0.001583	0.001666	28.0804	0.011838	0.001937	6.112744	-85.1486	12.9277	-0.029681	0.351281	-0.888117	-0.889492	0.063242	6.112744	-0.895877	-8.940224E+11	-7.073888E-14	NaN
433	1.000000	0.362655	7.36929e+06	-55439.1	1005.82	-29741.5	0.000000	0.000000	6.362881	0.027410	NaN	0.000000	0.001606	0.001680	28.0804	0.002935	0.002025	1.449602	-97.5457	-168.066	0.019634	0.361346	-0.878118	-0.879426	0.027410	1.449602	-0.892299	-7.998308E+11	-3.427030E-14	NaN
433	1.000000	0.372683	7.36929e+06	-55439.1	1005.82	-29741.5	0.000000	0.000000	6.372911	0.078344	NaN	0.000000	0.001618	0.001662	28.0806	0.042740	0.001997	21.4027	-172.828	11.9354	0.098960	0.371275	-0.868090	-0.869497	0.078344	21.4027	-0.870835	-4.099611E+11	-1.911018E-13	NaN
433	1.000000	0.382641	7.36929e+06	-55439.1	1005.82	-29741.5	0.000000	0.000000	6.382870	0.074561	NaN	0.000000	0.001653	0.001630	28.0806	0.019634	0.001923	10.2075	148.742	-165.912	0.133093	0.381332	-0.858131	-0.859441	0.074561	10.2075	-0.863610	-3.273237E+11	-2.277901E-13	NaN
433	1.000000	0.392668	7.36929e+06	-55439.1	1005.82	-29741.5	0.000000	0.000000	6.392898	0.108968	NaN	0.000000	0.001632	0.001662	28.0818	0.095423	0.001991	47.9225	1.613997	15.1335	0.078253	0.391337	-0.848105	-0.849436	0.108968	47.9225	-0.849810	-2.128947E+11	-5.118386E-13	NaN
433	1.000000	0.402676	7.36929e+06	-55439.1	1005.82	-29741.5	0.000000	0.000000	6.402906	0.097174	NaN	0.000000	0.001591	0.001683	28.0818	0.050844	0.001938	26.2302	172.727	-164.795	0.023525	0.401377	-0.838096	-0.839395	0.097174	26.2302	-0.840875	-1.611187E+11	-6.031202E-13	NaN
433	1.000000	0.412672	7.36929e+06	-55439.1	1005.82	-29741.5	0.000000	0.000000	6.412901	0.086182	NaN	0.000000	0.001595	0.001616	28.082	0.099850	0.002067	48.3149	-47.1176	16.1497	0.057449	0.411276	-0.828101	-0.829496	0.086182	48.3149	-0.829439	-1.127653E+11	-7.642611E-13	NaN
433	1.000000	0.422690	7.36929e+06	-55439.1	1005.82	-29741.5	0.000000	0.000000	6.422918	0.066365	NaN	0.000000	0.001586	0.001607	28.0818	0.074648	0.002067	36.1173	100.452	-167.331	0.055781	0.421373	-0.818083	-0.819399	0.066365	36.1173	-0.819461	-8.258452E+10	-8.035968E-13	NaN
433	1.000000	0.432679	7.36929e+06	-55439.1	1005.82	-29741.5	0.000000	0.000000	6.432905	0.019168	NaN	0.000000	0.001599	0.001633	28.0816	0.052619	0.001861	28.2799	143.436	13.6224	0.044773	0.431305	-0.808094	-0.809468	0.019168	28.2799	-0.808602	-5.883135E+10	-3.258139E-13	NaN
433	1.000000	0.442700	7.36929e+06	-55439.1	1005.82	-29741.5	0.000000	0.000000	6.442928	0.044748	NaN	0.000000	0.001607	0.001649	28.0817	0.069846	0.001905	36.6585	-7.323566	-166.417	0.088775	0.441365	-0.798072	-0.799407	0.044748	36.6585	-0.798988	-4.356329E+10	-1.027197E-12	NaN
433	1.000000	0.452704	7.36929e+06	-55439.1	1005.82	-29741.5	0.000000	0.000000	6.452932	0.053932	NaN	0.000000	0.001583	0.001639	28.0819	0.037901	0.002050	18.4848	143.353	14.4424	0.091303	0.451324	-0.788069	-0.789449	0.053932	18.4848	-0.790257	-3.315672E+10	-1.626575E-12	NaN
433	1.000000	0.462712	7.36929e+06	-55439.1	1005.82	-29741.5	0.000000	0.000000	6.462936	-0.022940	NaN	0.000000	0.001673	0.001606	28.0818	0.094767	0.001973	48.0354	-158.404	-167.68	-0.071009	0.461362	-0.778061	-0.779411	-0.022940	48.0354	-0.777702	-2.238767E+10	1.024655E-12	NaN
433	1.000000	0.472689	7.36929e+06	-55439.1	1005.82	-29741.5	0.000000	0.000000	6.472917	0.050362	NaN	0.000000	0.001610	0.001675	28.0817	0.019100	0.001955	9.770257	-178.104	12.4933	0.070415	0.471379	-0.768083	-0.769394	0.050362	9.770257	-0.771949	-1.869857E+10	-2.693373E-12	NaN
433	1.000000	0.482719	7.36929e+06	-55439.1	1005.82	-29741.5	0.000000	0.000000	6.482942	-0.047474	NaN	0.000000	0.001632	0.001640	28.082	0.068564	0.001884	36.3994	-105.333	-162.674	-0.004805	0.481341	-0.758054	-0.759431	-0.047474	36.3994	-0.757075	-1.173581E+10	4.045192E-12	NaN
433	1.000000	0.492689	7.3693e+06	-55439.1	1005.82	-29741.5	0.000000	0.000000	6.492917	0.039205	NaN	0.000000	0.001626	0.001686	28.0818	0.087067	0.002032	42.8489	-81.0875	15.2258	0.138661	0.491346	-0.748083	-0.749427	0.039205	42.8489	-0.748769	-9.046219E+9	-4.333839E-12	NaN
433	1.000000	0.502711	7.3693e+06	-55439.1	1005.82	-29741.5	0.000000	0.000000	6.502938	0.043865	NaN	0.000000	0.001608	0.001726	28.0819	0.032517	0.002007	16.1993	92.7468	-164.096	-0.003978	0.501352	-0.738061	-0.739421	0.043865	16.1993	-0.740092	-6.891481E+9	-6.365070E-12	NaN
433	1.000000	0.512724	7.3693e+06	-55439.1	1005.82	-29741.5	0.000000	0.000000	6.512950	0.008305	NaN	0.000000	0.001639	0.001673	28.0818	0.060228	0.002080	28.9493	-69.3038	17.488	0.058378	0.511394	-0.728049	-0.729379	0.008305	28.9493	-0.728264	-4.754910E+9	-1.746534E-12	NaN
433	1.000000	0.522708	7.3693e+06	-55439.1	1005.82	-29741.5	0.000000	0.000000	6.522938	0.094245	NaN	0.000000	0.001704	0.001695	28.0822	0.080779	0.001891	42.7148	-175.974	-162.693	0.052522	0.521390	-0.718064	-0.719383	0.094245	42.7148	-0.719719	-3.636162E+9	-2.591867E-11	NaN
433	1.000000	0.532725	7.3693e+06	-55439.1	1005.82	-29741.5	0.000000	0.000000	6.532953	0.071768	NaN	0.000000	0.001632	0.001697	28.0806	0.030539	0.002010	15.1963	-43.2496	16.9443	0.004975	0.531344	-0.708048	-0.709429	0.071768	15.1963	-0.711590	-2.816733E+9	-2.547905E-11	NaN
433	1.000000	0.542757	7.3693e+06	-55439.1	1005.82	-29741.5	0.000000	0.000000	6.542985	0.062027	NaN	0.000000	0.001647	0.001638	28.0806	0.068168	0.001994	34.19	142.767	-166.617	-0.007030	0.541423	-0.698015	-0.699350	0.062027	34.19	-0.699376	-1.918712E+9	-3.232723E-11	NaN
433	1.000000	0.552734	7.3693e+06	-55439.1	1005.82	-29741.5	0.000000	0.000000	6.552962	0.066395	NaN	0.000000	0.001657	0.001642	28.0812	0.059218	0.002117	27.9776	105.49	14.0188	0.026144	0.551333	-0.688038	-0.689440	0.066395	27.9776	-0.689818	-1.420473E+9	-4.674148E-11	NaN
433	1.000000	0.562751	7.3693e+06	-55439.1	1005.82	-29741.5	0.000000	0.000000	6.562980	0.091262	NaN	0.000000	0.001645	0.001635	28.0808	0.073068	0.001929	37.8809	164.959	-162.251	0.041243	0.561393	-0.678022	-0.679380	0.091262	37.8809	-0.679829	-1.037200E+9	-8.798908E-11	NaN
433	1.000000	0.572768	7.3693e+06	-55439.1	1005.82	-29741.5	0.000000	0.000000	6.572997	0.088331	NaN	0.000000	0.001638	0.001644	28.0809	0.025917	0.001910	13.5662	-62.6459	15.6677	0.002877	0.571327	-0.668004	-0.669446	0.088331	13.5662	-0.672888	-8.335094E+8	-1.059743E-10	NaN
433	1.000000	0.582755	7.3693e+06	-55439.1	1005.82	-29741.5	0.000000	0.000000	6.582983	0.067120	NaN	0.000000	0.001645	0.001652	28.0808	0.031104	0.002026	15.353	-154.022	-164.728	0.049872	0.581498	-0.658018	-0.659275	0.067120	15.353	-0.661297	-5.784040E+8	-1.160432E-10	NaN
433	1.000000	0.592766	7.3693e+06	-55439.1	1005.82	-29741.5	0.000000	0.000000	6.592993	0.044612	NaN	0.000000	0.001628	0.001628	28.0814	0.051522	0.002003	25.7171	153.61	14.716	0.033718	0.591386	-0.648007	-0.649386	0.044612	25.7171	-0.649308	-3.962292E+8	-1.125903E-10	NaN
433	1.000000	0.602761	7.3693e+06	-55439.1	1005.82	-29741.5	0.000000	0.000000	6.602991	0.098191	NaN	0.000000	0.001637	0.001675	28.0807	0.028495	0.002048	13.9105	113.742	-163.945	0.090309	0.601482	-0.638011	-0.639291	0.098191	13.9105	-0.643306	-3.278210E+8	-2.995275E-10	NaN
433	1.000000	0.612747	7.3693e+06	-55439.1	1005.82	-29741.5	0.000000	0.000000	6.612973	0.026617	NaN	0.000000	0.001638	0.001639	28.081	0.148522	0.002050	72.4431	-97.5582	17.1481	0.027811	0.611459	-0.628026	-0.629313	0.026617	72.4431	-0.628301	-2.040304E+8	-1.304578E-10	NaN
433	1.000000	0.622779	7.3693e+06	-55439.1	1005.82	-29741.5	0.000000	0.000000	6.623007	0.070377	NaN	0.000000	0.001616	0.001649	28.0807	0.018531	0.001869	9.915198	78.4379	-164.234	0.043398	0.621433	-0.617994	-0.619339	0.070377	9.915198	-0.623317	-1.742699E+8	-4.038372E-10	NaN
433	1.000000	0.632758	7.3693e+06	-55439.1	1005.82	-29741.5	0.000000	0.000000	6.632984	0.023044	NaN	0.000000	0.001624	0.001644	28.0811	0.136360	0.001972	69.1389	151.235	14.0801	0.032936	0.631409	-0.608015	-0.609364	0.023044	69.1389	-0.608265	-1.082032E+8	-2.129721E-10	NaN
433	1.000000	0.642779	7.3693e+06	-55439.1	1005.82	-29741.5	0.000000	0.000000	6.643008	0.069771	NaN	0.000000	0.001652	0.001683	28.0807	0.081635	0.001905	42.8528	-171.196	-163.005	0.090770	0.641441	-0.597993	-0.599331	0.069771	42.8528	-0.599214	-8.121582E+7	-8.590815E-10	NaN
433	1.000000	0.652771	7.3693e+06	-55439.1	1005.82	-29741.5	0.000000	0.000000	6.652998	0.043630	NaN	0.000000	0.001614	0.001671	28.081	0.024005	0.001986	12.0863	118.142	16.9842	-0.028208	0.651424	-0.588001	-0.589349	0.043630	12.0863	-0.590709	-6.200653E+7	-7.036308E-10	NaN
433	1.000000	0.662782	7.3693e+06	-55439.1	1005.82	-29741.5	0.000000	0.000000	6.663010	0.058652	NaN	0.000000	0.001613	0.001648	28.0811	0.106372	0.002163	49.1709	-13.2479	-167.05	0.017533	0.661430	-0.577990	-0.579343	0.058652	49.1709	-0.578885	-4.259268E+7	-1.377049E-9	NaN
433	1.000000	0.672775	7.3693e+06	-55439.1	1005.82	-29741.5	0.000000	0.000000	6.673004	0.067919	NaN	0.000000	0.001594	0.001635	28.0821	0.062955	0.001899	33.1572	-123.278	13.7136	0.098454	0.671432	-0.567997	-0.569340	0.067919	33.1572	-0.569533	-3.163626E+7	-2.146867E-9	NaN
433	1.000000	0.682793	7.3693e+06	-55439.1	1005.82	-29741.5	0.000000	0.000000	6.683025	0.155934	NaN	0.000000	0.001592	0.001660	28.0818	0.024492	0.002050	11.9474	177.533	-164.676	0.073881	0.681476	-0.557979	-0.559297	0.155934	11.9474	-0.567768	-2.990828E+7	-5.213735E-9	NaN
433	1.000000	0.692785	7.3693e+06	-55439.1	1005.82	-29741.5	0.000000	0.000000	6.693014	0.077394	NaN	0.000000	0.001558	0.001645	28.0818	0.116469	0.002052	56.7673	-46.6829	13.0186	0.103656	0.691417	-0.547988	-0.549355	0.077394	56.7673	-0.549010	-1.645299E+7	-4.703952E-9	NaN
433	1.000000	0.702791	7.3693e+06	-55439.1	1005.82	-29741.5	0.000000	0.000000	6.703021	0.094614	NaN	0.000000	0.001594	0.001650	28.082	0.095813	0.001917	49.9929	-139.204	-163.85	0.104272	0.701549	-0.537981	-0.539223	0.094614	49.9929	-0.539401	-1.210730E+7	-7.814637E-9	NaN
433	1.000000	0.712800	7.3693e+06	-55439.1	1005.82	-29741.5	0.000000	0.000000	6.713028	0.040452	NaN	0.000000	0.001569	0.001677	28.0818	0.014257	0.001993	7.152254	-178.874	17.3255	0.113225	0.711458	-0.527972	-0.529315	0.040452	7.152254	-0.532214	-9.62318e+06	-4.203609E-9	NaN
433	1.000000	0.722777	7.3693e+06	-55439.1	1005.82	-29741.5	0.000000	0.000000	6.723006	0.075294	NaN	0.000000	0.001569	0.001644	28.0821	0.094688	0.001949	48.5719	89.7716	-165.536	0.059059	0.721492	-0.517995	-0.519280	0.075294	48.5719	-0.519158	-6.33702e+06	-1.188155E-8	NaN
433	1.000000	0.732819	7.3693e+06	-55439.1	1005.82	-29741.5	0.000000	0.000000	6.733046	0.055281	NaN	0.000000	0.001595	0.001628	28.0818	0.102093	0.002028	50.3331	179.008	14.502	0.104874	0.731462	-0.507954	-0.509310	0.055281	50.3331	-0.508778	-4.54347e+06	-1.216712E-8	NaN
433	1.000000	0.742807	7.3693e+06	-55439.1	1005.82	-29741.5	0.000000	0.000000	6.743032	-0.013155	NaN	0.000000	0.001582	0.001653	28.0819	0.057111	0.001975	28.9203	-156.789	-163.334	-0.069556	0.741484	-0.497966	-0.499289	-0.013155	28.9203	-0.497624	-3.17593e+06	4.142248E-9	NaN
433	1.000000	0.752807	7.3693e+06	-55439.1	1005.82	-29741.5	0.000000	0.000000	6.753035	0.046262	NaN	0.000000	0.001601	0.001699	28.0818	0.053662	0.001919	27.9598	92.7108	12.0442	-0.007200	0.751484	-0.487965	-0.489289	0.046262	27.9598	-0.489206	-2.42271e+06	-1.909520E-8	NaN
433	1.000000	0.762831	7.3693e+06	-55439.1	1005.82	-29741.5	0.000000	0.000000	6.763058	0.048083	NaN	0.000000	0.001578	0.001656	28.0818	0.099836	0.002089	47.7909	-171.179	-164.677	0.004569	0.761512	-0.477942	-0.479261	0.048083	47.7909	-0.478696	-1.72693e+06	-2.784297E-8	NaN
433	1.000000	0.772821	7.3693e+06	-55439.1	1005.82	-29741.5	0.000000	0.000000	6.773047	0.014519	NaN	0.000000	0.001609	0.001648	28.0819	0.046879	0.002039	22.988	-25.3096	12.5769	0.064994	0.771440	-0.467952	-0.469332	0.014519	22.988	-0.468426	-1.23972e+06	-1.171155E-8	NaN
433	1.000000	0.782852	7.3693e+06	-55439.1	1005.82	-29741.5	0.000000	0.000000	6.783076	-0.032159	NaN	0.000000	0.001613	0.001651	28.082	0.068753	0.001925	35.7091	-155.894	-167.526	0.124040	0.781506	-0.457920	-0.459267	-0.032159	35.7091	-0.457245	-863559	3.723951E-8	NaN
433	1.000000	0.792819	7.3693e+06	-55439.1	1005.82	-29741.5	0.000000	0.000000	6.793045	0.003682	NaN	0.000000	0.001604	0.001652	28.0819	0.095078	0.002012	47.2614	92.7576	16.6295	0.116170	0.791494	-0.447953	-0.449279	0.003682	47.2614	-0.448012	-640231	-5.751368E-9	NaN
433	1.000000	0.802834	7.3693e+06	-55439.1	1005.82	-29741.5	0.000000	0.000000	6.803059	-0.013763	NaN	0.000000	0.001638	0.001659	28.0809	0.107851	0.002015	53.5266	-106.894	-166.925	0.052382	0.801590	-0.437939	-0.439182	-0.013763	53.5266	-0.437746	-458716	3.000310E-8	NaN
433	1.000000	0.812869	7.3693e+06	-55439.1	1005.82	-29741.5	0.000000	0.000000	6.813095	0.013067	NaN	0.000000	0.001616	0.001605	28.0808	0.037663	0.002002	18.8099	2.677364	16.0911	0.055213	0.811487	-0.427904	-0.429286	0.013067	18.8099	-0.428425	-338665	-3.858429E-8	NaN
433	1.000000	0.822844	7.3693e+06	-55439.1	1005.82	-29741.5	0.000000	0.000000	6.823072	0.074094	NaN	0.000000	0.001613	0.001623	28.0806	0.027984	0.002157	12.9713	17.9745	-165.262	0.093545	0.821503	-0.417929	-0.419270	0.074094	12.9713	-0.422213	-276560	-2.679117E-7	NaN
433	1.000000	0.832847	7.3693e+06	-55439.1	1005.82	-29741.5	0.000000	0.000000	6.833073	0.020492	NaN	0.000000	0.001628	0.001636	28.0805	0.053052	0.002025	26.1981	113.386	16.7148	0.086319	0.831454	-0.407925	-0.409319	0.020492	26.1981	-0.408512	-176701	-1.159703E-7	NaN
433	1.000000	0.842841	7.3693e+06	-55439.1	1005.82	-29741.5	0.000000	0.000000	6.843072	0.130891	NaN	0.000000	0.001621	0.001645	28.0804	0.079616	0.002036	39.1033	132.65	-167.526	0.052032	0.841524	-0.397932	-0.399248	0.130891	39.1033	-0.400442	-135612	-9.651822E-7	NaN
433	1.000000	0.852847	7.3693e+06	-55439.1	1005.82	-29741.5	0.000000	0.000000	6.853074	0.029440	NaN	0.000000	0.001610	0.001653	28.0806	0.097262	0.002021	48.1214	-126.916	15.1513	-0.010908	0.851477	-0.387926	-0.389296	0.029440	48.1214	-0.388384	-91211.9	-3.227638E-7	NaN
433	1.000000	0.862891	7.3693e+06	-55439.1	1005.82	-29741.5	0.000000	0.000000	6.863122	0.116348	NaN	0.000000	0.001618	0.001600	28.0805	0.076128	0.001951	39.027	130.839	-164.742	0.082337	0.861553	-0.377881	-0.379220	0.116348	39.027	-0.380117	-69433.7	-1.675668E-6	NaN
433	1.000000	0.872885	7.3693e+06	-55439.1	1005.82	-29741.5	0.000000	0.000000	6.873114	0.070182	NaN	0.000000	0.001682	0.001667	28.0804	0.095246	0.002093	45.5047	-126.764	15.3885	0.119860	0.871511	-0.367887	-0.369262	0.070182	45.5047	-0.369044	-48123.2	-1.458385E-6	NaN
433	1.000000	0.882848	7.3693e+06	-55439.1	1005.82	-29741.5	0.000000	0.000000	6.883077	0.094293	NaN	0.000000	0.001619	0.001656	28.0806	0.087074	0.002038	42.7281	-98.4543	-166.235	0.075363	0.881586	-0.357925	-0.359187	0.094293	42.7281	-0.359580	-35137.8	-2.683530E-6	NaN
433	1.000000	0.892902	7.3693e+06	-55439.1	1005.82	-29741.5	0.000000	0.000000	6.893130	0.077906	NaN	0.000000	0.001662	0.001684	28.0804	0.029578	0.001918	15.4172	142.99	14.7267	0.050571	0.891540	-0.347871	-0.349233	0.077906	15.4172	-0.351661	-26983.5	-2.887185E-6	NaN
433	1.000000	0.902885	7.3693e+06	-55439.1	1005.82	-29741.5	0.000000	0.000000	6.903114	0.097422	NaN	0.000000	0.001637	0.001651	28.0806	0.068734	0.001882	36.5226	130.11	-166.095	0.142423	0.901587	-0.337888	-0.339186	0.097422	36.5226	-0.339889	-18194.1	-5.354609E-6	NaN
433	1.000000	0.912871	7.3693e+06	-55439.1	1005.82	-29741.5	0.000000	0.000000	6.913098	0.039181	NaN	0.000000	0.001634	0.001620	28.0807	0.042945	0.002207	19.4544	-80.5824	17.1722	-0.006050	0.911587	-0.327901	-0.329185	0.039181	19.4544	-0.329412	-12789	-3.063636E-6	NaN
433	1.000000	0.922884	7.3693e+06	-55439.1	1005.82	-29741.5	0.000000	0.000000	6.923112	0.064774	NaN	0.000000	0.001615	0.001617	28.0809	0.051726	0.001995	25.9232	-72.7341	-165.764	0.002971	0.921535	-0.317889	-0.319237	0.064774	25.9232	-0.319763	-9228.85	-7.018599E-6	NaN
433	1.000000	0.932882	7.3693e+06	-55439.1	1005.82	-29741.5	0.000000	0.000000	6.933107	-0.010820	NaN	0.000000	0.001628	0.001601	28.0806	0.090644	0.001879	48.2455	-65.1324	15.4975	0.052550	0.931545	-0.307890	-0.309228	-0.010820	48.2455	-0.307722	-6128.05	1.765604E-6	NaN
433	1.000000	0.942865	7.3693e+06	-55439.1	1005.82	-29741.5	0.000000	0.000000	6.943093	0.059221	NaN	0.000000	0.001629	0.001625	28.082	0.070275	0.001797	39.1105	4.346890	-161.747	0.056375	0.941564	-0.297908	-0.299208	0.059221	39.1105	-0.299043	-4553.98	-1.300424E-5	NaN
433	1.000000	0.952898	7.3693e+06	-55439.1	1005.82	-29741.5	0.000000	0.000000	6.953126	0.060844	NaN	0.000000	0.001592	0.001673	28.0816	0.007396	0.002106	3.511504	-158.769	17.1751	0.016377	0.951557	-0.287875	-0.289216	0.060844	3.511504	-0.300870	-4848.28	-1.254968E-5	NaN
433	1.000000	0.962901	7.3693e+06	-55439.1	1005.82	-29741.5	0.000000	0.000000	6.963129	0.061254	NaN	0.000000	0.001638	0.001616	28.082	0.065426	0.002028	32.2668	-130.691	-161.53	0.038020	0.961653	-0.277871	-0.279120	0.061254	32.2668	-0.279295	-2303.19	-2.659537E-5	NaN
433	1.000000	0.972907	7.3693e+06	-55439.1	1005.82	-29741.5	0.000000	0.000000	6.973135	0.061844	NaN	0.000000	0.001616	0.001616	28.0818	0.086490	0.002016	42.8991	71.2997	14.0871	0.050831	0.971565	-0.267865	-0.269208	0.061844	42.8991	-0.268946	-1605.18	-3.852791E-5	NaN
433	1.000000	0.982891	7.3693e+06	-55439.1	1005.82	-29741.5	0.000000	0.000000	6.983120	0.080492	NaN	0.000000	0.001625	0.001615	28.0819	0.038731	0.001905	20.3302	8.933867	-167.363	0.098296	0.981616	-0.257881	-0.259156	0.080492	20.3302	-0.260851	-1207.69	-6.665005E-5	NaN
433	1.000000	0.992912	7.3693e+06	-55439.1	1005.82	-29741.5	0.000000	0.000000	6.993137	-0.012259	NaN	0.000000	0.001628	0.001609	28.082	0.040602	0.002031	19.9907	-123.171	14.9879	-0.010072	0.991571	-0.247861	-0.249202	-0.012259	19.9907	-0.247401	-749.403	1.635900E-5	NaN
433	1.000000	1.002932	7.3693e+06	-55439.1	1005.82	-29741.5	0.000000	0.000000	7.003157	-0.006248	NaN	0.000000	0.001645	0.001622	28.0817	0.030186	0.001955	15.4395	66.2505	-162.802	0.024706	1.001596	-0.237841	-0.239177	-0.006248	15.4395	-0.237537	-526.057	1.187667E-5	NaN
433	1.000000	1.012912	7.3693e+06	-55439.1	1005.82	-29741.5	0.000000	0.000000	7.013140	0.060825	NaN	0.000000	0.001598	0.001618	28.0818	0.078075	0.001933	40.3916	132.645	10.7868	0.064344	1.011550	-0.227860	-0.229222	0.060825	40.3916	-0.228990	-385.969	-0.000158	NaN
433	1.000000	1.022895	7.3693e+06	-55439.1	1005.82	-29741.5	0.000000	0.000000	7.023123	0.056408	NaN	0.000000	0.001631	0.001625	28.0818	0.045995	0.001904	24.1517	-96.5477	-165.998	0.101354	1.021609	-0.217878	-0.219163	0.056408	24.1517	-0.219629	-274.002	-0.000206	NaN
433	1.000000	1.032926	7.3693e+06	-55439.1	1005.82	-29741.5	0.000000	0.000000	7.033153	0.022859	NaN	0.000000	0.001621	0.001669	28.0822	0.024160	0.001824	13.2468	126.505	16.2744	-0.033073	1.031564	-0.207846	-0.209209	0.022859	13.2468	-0.209140	-185.733	-0.000123	NaN
433	1.000000	1.042937	7.3693e+06	-55439.1	1005.82	-29741.5	0.000000	0.000000	7.043164	0.025870	NaN	0.000000	0.001628	0.001614	28.0814	0.117257	0.002096	55.9382	148.278	-165.202	0.025616	1.041658	-0.197835	-0.199114	0.025870	55.9382	-0.198182	-122.966	-0.000210	NaN
433	1.000000	1.052906	7.3693e+06	-55439.1	1005.82	-29741.5	0.000000	0.000000	7.053135	0.101582	NaN	0.000000	0.001619	0.001639	28.0817	0.015646	0.002052	7.625384	55.1716	16.8956	0.114362	1.051593	-0.187867	-0.189179	0.101582	7.625384	-0.197858	-121.462	-0.000836	NaN
433	1.000000	1.062927	7.3693e+06	-55439.1	1005.82	-29741.5	0.000000	0.000000	7.063157	0.105337	NaN	0.000000	0.001596	0.001635	28.0816	0.064654	0.002015	32.0848	-17.822	-167.408	0.135575	1.061667	-0.177845	-0.179106	0.105337	32.0848	-0.180308	-61.7587	-0.001706	NaN
433	1.000000	1.072937	7.3693e+06	-55439.1	1005.82	-29741.5	0.000000	0.000000	7.073168	0.151310	NaN	0.000000	0.001599	0.001612	28.0814	0.086725	0.001947	44.5407	112.053	18.5317	0.153331	1.071569	-0.167836	-0.169203	0.151310	44.5407	-0.170384	-41.7135	-0.003627	NaN
433	1.000000	1.082946	7.3693e+06	-55439.1	1005.82	-29741.5	0.000000	0.000000	7.083175	0.083992	NaN	0.000000	0.001634	0.001649	28.0803	0.084221	0.002001	42.0948	-101.384	-162.916	0.058247	1.081633	-0.157827	-0.159139	0.083992	42.0948	-0.159323	-26.6655	-0.003150	NaN
433	1.000000	1.092947	7.3693e+06	-55439.1	1005.82	-29741.5	0.000000	0.000000	7.093175	0.056579	NaN	0.000000	0.001634	0.001621	28.0805	0.031053	0.002098	14.7993	-140.684	16.6726	0.134005	1.091609	-0.147825	-0.149163	0.056579	14.7993	-0.150693	-18.6478	-0.003034	NaN
433	1.000000	1.102942	7.3693e+06	-55439.1	1005.82	-29741.5	0.000000	0.000000	7.103169	0.038660	NaN	0.000000	0.001620	0.001629	28.0807	0.074676	0.001867	39.9876	12.9016	-165.791	0.022311	1.101660	-0.137830	-0.139112	0.038660	39.9876	-0.138556	-11.1115	-0.003479	NaN
433	1.000000	1.112938	7.3693e+06	-55439.1	1005.82	-29741.5	0.000000	0.000000	7.113169	0.136759	NaN	0.000000	0.001638	0.001673	28.0804	0.069712	0.001924	36.2335	101.475	12.1377	0.064339	1.111567	-0.127835	-0.129206	0.136759	36.2335	-0.130666	-7.851083	-0.017419	NaN
433	1.000000	1.122974	7.3693e+06	-55439.1	1005.82	-29741.5	0.000000	0.000000	7.123204	0.120460	NaN	0.000000	0.001647	0.001683	28.0807	0.063414	0.002112	30.0299	170.867	-166.389	0.128907	1.121662	-0.117799	-0.119111	0.120460	30.0299	-0.120807	-5.015926	-0.024015	NaN
433	1.000000	1.132942	7.3693e+06	-55439.1	1005.82	-29741.5	0.000000	0.000000	7.133171	0.088842	NaN	0.000000	0.001616	0.001730	28.0805	0.006288	0.001928	3.260669	-179.176	15.2029	0.049298	1.131644	-0.107830	-0.109129	0.088842	3.260669	-0.128265	-7.050358	-0.012601	NaN
433	1.000000	1.142989	7.3693e+06	-55439.1	1005.82	-29741.5	0.000000	0.000000	7.143215	0.022668	NaN	0.000000	0.001594	0.001690	28.0808	0.043688	0.001924	22.7048	-119.84	-166.647	0.057846	1.141655	-0.097784	-0.099118	0.022668	22.7048	-0.098532	-1.694779	-0.013375	NaN
433	1.000000	1.153002	7.3693e+06	-55439.1	1005.82	-29741.5	0.000000	0.000000	7.153230	0.057995	NaN	0.000000	0.001629	0.001680	28.0805	0.039789	0.001912	20.8155	-103.949	14.7988	0.074514	1.151618	-0.087770	-0.089154	0.057995	20.8155	-0.089860	-1.072826	-0.054058	NaN
433	1.000000	1.162963	7.3693e+06	-55439.1	1005.82	-29741.5	0.000000	0.000000	7.163191	0.052805	NaN	0.000000	0.001622	0.001638	28.0805	0.045652	0.001951	23.3953	-179.597	-167.385	0.094744	1.161637	-0.077809	-0.079135	0.052805	23.3953	-0.079502	-0.601474	-0.087793	NaN
433	1.000000	1.173026	7.3693e+06	-55439.1	1005.82	-29741.5	0.000000	0.000000	7.173257	0.131360	NaN	0.000000	0.001636	0.001654	28.0806	0.042790	0.002181	19.623	-60.9069	14.109	-0.027447	1.171609	-0.067746	-0.069163	0.131360	19.623	-0.072767	-0.403927	-0.325207	NaN
433	1.000000	1.182989	7.3693e+06	-55439.1	1005.82	-29741.5	0.000000	0.000000	7.183218	0.094441	NaN	0.000000	0.001643	0.001628	28.0805	0.103175	0.002053	50.2461	145.171	-167.656	0.178501	1.181623	-0.057784	-0.059150	0.094441	50.2461	-0.059194	-0.170728	-0.553164	NaN
433	1.000000	1.192983	7.3693e+06	-55439.1	1005.82	-29741.5	0.000000	0.000000	7.193210	0.054980	NaN	0.000000	0.001633	0.001665	28.0806	0.096078	0.001873	51.3049	-56.5345	17.669	0.073804	1.191590	-0.047790	-0.049183	0.054980	51.3049	-0.048594	-0.082719	-0.664661	NaN
433	1.000000	1.202988	7.3693e+06	-55439.1	1005.82	-29741.5	0.000000	0.000000	7.203215	0.031380	NaN	0.000000	0.001620	0.001653	28.0805	0.008426	0.002029	4.152798	23.6066	-165.711	0.061820	1.201689	-0.037784	-0.039083	0.031380	4.152798	-0.043451	-0.057628	-0.544528	NaN
433	1.000000	1.213018	7.3693e+06	-55439.1	1005.82	-29741.5	0.000000	0.000000	7.213244	0.007878	NaN	0.000000	0.001606	0.001665	28.082	0.118475	0.002054	57.6792	-147.414	17.1117	-0.031525	1.211683	-0.027755	-0.029089	0.007878	57.6792	-0.027857	-0.020095	-0.392015	NaN
433	1.000000	1.222994	7.3693e+06	-55439.1	1005.82	-29741.5	0.000000	0.000000	7.223224	0.103537	NaN	0.000000	0.001654	0.001640	28.0817	0.051835	0.002058	25.1923	-69.9077	-167.684	0.095597	1.221741	-0.017778	-0.019032	0.103537	25.1923	-0.020861	-0.013210	-7.837901	NaN
433	1.000000	1.232996	7.3693e+06	-55439.1	1005.82	-29741.5	0.000000	0.000000	7.233218	-0.074957	NaN	0.000000	0.001601	0.001591	28.0817	0.052327	0.002016	25.9552	176.887	13.9162	-0.025865	1.231637	-0.007777	-0.009136	-0.074957	25.9552	-0.005611	-0.003797	19.7403	NaN
433	1.000000	1.242980	7.3693e+06	-55439.1	1005.82	-29741.5	0.000000	0.000000	7.243215	0.247688	NaN	0.000000	0.001634	0.001622	28.0817	0.334245	0.001888	177.003	21.0161	-163.648	0.052714	1.241732	0.002207	0.000959	0.247688	177.003	0.001157	0.000885	279.934	5436.63
433	2.000000	1.252742	7.3693e+06	-55439.1	1005.82	-29741.5	0.000000	0.000000	7.253318	8.520974	NaN	0.000000	0.001672	0.001652	28.0819	8.441078	0.001647	5124.43	8.438961	10.2048	6.926991	1.251660	0.011969	0.010887	8.520974	5124.43	0.010722	0.009995	852.522	46830.3
433	2.000000	1.255630	7.3693e+06	-55439.1	1005.82	-29741.5	0.000000	0.000000	7.256296	10.7049	NaN	0.000000	0.001648	0.001641	28.0818	11.0285	0.001580	6979.24	4.467017	-171.8	10.5615	1.255275	0.014858	0.014503	10.7049	6979.24	0.013707	0.013600	787.135	54678.2
433	2.000000	1.258057	7.3693e+06	-55439.1	1005.82	-29741.5	0.000000	0.000000	7.258874	14.3784	NaN	0.000000	0.001652	0.001612	28.0816	13.6282	0.001730	7879.51	5.337138	8.428224	14.0061	1.257757	0.017284	0.016985	14.3784	7879.51	0.015916	0.016526	870.056	56000.4
433	2.000000	1.260546	7.3693e+06	-55439.1	1005.82	-29741.5	0.000000	0.000000	7.261566	19.3093	NaN	0.000000	0.001634	0.001655	28.0821	17.2081	0.001797	9578.64	6.938907	-176.025	18.8508	1.260313	0.019773	0.019541	19.3093	9578.64	0.018261	0.019883	971.128	62062.8
433	2.000000	1.263057	7.3693e+06	-55439.1	1005.82	-29741.5	0.000000	0.000000	7.264253	23.5979	NaN	0.000000	0.001653	0.001668	28.082	19.5141	0.001764	11061.6	8.476199	2.574168	21.928	1.262666	0.022285	0.021893	23.5979	11061.6	0.020685	0.023630	998.658	65745
433	2.000000	1.265545	7.3693e+06	-55439.1	1005.82	-29741.5	0.000000	0.000000	7.266906	27.5975	NaN	0.000000	0.001643	0.001655	28.082	21.6944	0.001746	12428.3	6.931037	-178.106	27.2103	1.265174	0.024773	0.024402	27.5975	12428.3	0.023107	0.027662	997.668	68272.3
433	2.000000	1.268032	7.3693e+06	-55439.1	1005.82	-29741.5	0.000000	0.000000	7.269627	33.2847	NaN	0.000000	0.001648	0.001633	28.0819	24.7913	0.001760	14084.8	4.337546	3.486135	32.3208	1.267649	0.027259	0.026876	33.2847	14084.8	0.025487	0.031907	1043.16	72040.7
433	2.000000	1.270517	7.3693e+06	-55439.1	1005.82	-29741.5	0.000000	0.000000	7.272340	38.8477	NaN	0.000000	0.001628	0.001687	28.0824	27.77	0.001753	15842.3	7.292678	179.982	37.8812	1.270212	0.029744	0.029440	38.8477	15842.3	0.027905	0.036513	1063.93	75746.8
433	2.000000	1.273006	7.3693e+06	-55439.1	1005.82	-29741.5	0.000000	0.000000	7.275084	45.0467	NaN	0.000000	0.001625	0.001643	28.0817	29.7951	0.001796	16594.1	5.985731	2.128363	43.4881	1.272729	0.032233	0.031956	45.0467	16594.1	0.030197	0.041154	1094.6	74735
433	2.000000	1.275445	7.3693e+06	-55439.1	1005.82	-29741.5	0.000000	0.000000	7.277880	53.7043	NaN	0.000000	0.001604	0.001650	28.0824	32.6691	0.001782	18328.5	7.007971	178.487	51.22	1.275150	0.034673	0.034377	53.7043	18328.5	0.032475	0.046030	1166.73	78051.3
433	2.000000	1.277999	7.3693e+06	-55439.1	1005.82	-29741.5	0.000000	0.000000	7.280653	59.0382	NaN	0.000000	0.001629	0.001659	28.0806	35.0963	0.001714	20475.4	6.472486	-2.326490	57.4298	1.277605	0.037226	0.036833	59.0382	20475.4	0.035064	0.051894	1137.66	82119.5
433	2.000000	1.280537	7.3693e+06	-55439.1	1005.82	-29741.5	0.000000	0.000000	7.283381	63.6548	NaN	0.000000	0.001607	0.001669	28.081	37.8937	0.001835	20646.7	2.514896	-177.919	63.6668	1.280210	0.039764	0.039437	63.6548	20646.7	0.037452	0.057610	1104.93	78591.6
433	2.000000	1.283038	7.3693e+06	-55439.1	1005.82	-29741.5	0.000000	0.000000	7.286172	70.7125	NaN	0.000000	0.001656	0.001680	28.0807	40.3755	0.001748	23104	6.269073	-2.676795	68.528	1.282633	0.042265	0.041861	70.7125	23104	0.039970	0.063950	1105.75	83471.9
433	2.000000	1.285476	7.3693e+06	-55439.1	1005.82	-29741.5	0.000000	0.000000	7.288929	78.4643	NaN	0.000000	0.001649	0.001673	28.0807	42.3494	0.001679	25220	5.726767	176.672	76.822	1.285222	0.044703	0.044449	78.4643	25220	0.042370	0.070296	1116.21	86906.8
433	2.000000	1.287973	7.3693e+06	-55439.1	1005.82	-29741.5	0.000000	0.000000	7.291780	87.0656	NaN	0.000000	0.001688	0.001637	28.0807	45.9566	0.001896	24238.1	5.329463	-2.194257	84.532	1.287668	0.047200	0.046895	87.0656	24238.1	0.044506	0.076191	1142.73	80226.8
433	2.000000	1.290451	7.3693e+06	-55439.1	1005.82	-29741.5	0.000000	0.000000	7.294516	93.3346	NaN	0.000000	0.001676	0.001630	28.0814	47.4301	0.001760	26955.4	5.064214	177.052	91.4074	1.290182	0.049679	0.049409	93.3346	26955.4	0.047082	0.083606	1116.36	85172.4
433	2.000000	1.293025	7.3693e+06	-55439.1	1005.82	-29741.5	0.000000	0.000000	7.297660	107.193	NaN	0.000000	0.001674	0.001634	28.0806	50.0628	0.001779	28145.8	9.000615	-7.043509	106.085	1.292643	0.052252	0.051870	107.193	28145.8	0.049396	0.090555	1183.72	85453.4
433	2.000000	1.295453	7.3693e+06	-55439.1	1005.82	-29741.5	0.000000	0.000000	7.300558	118.624	NaN	0.000000	0.001684	0.001615	28.0808	52.7459	0.001838	28704.7	6.011141	175.081	117.198	1.295137	0.054680	0.054364	118.624	28704.7	0.051581	0.097362	1218.38	84048.6
433	2.000000	1.297991	7.3693e+06	-55439.1	1005.82	-29741.5	0.000000	0.000000	7.303369	125.26	NaN	0.000000	0.001687	0.001645	28.0808	55.3253	0.001866	29656.3	7.252216	-6.357237	124.456	1.297711	0.057219	0.056938	125.26	29656.3	0.054051	0.105344	1189.06	83480.8
433	2.000000	1.300398	7.3693e+06	-55439.1	1005.82	-29741.5	0.000000	0.000000	7.306279	137.485	NaN	0.000000	0.001691	0.001675	28.0813	56.9524	0.001795	31733.8	3.999601	176.45	133.747	1.300142	0.059625	0.059369	137.485	31733.8	0.056376	0.113134	1215.24	86198.3
433	2.000000	1.302919	7.3693e+06	-55439.1	1005.82	-29741.5	0.000000	0.000000	7.309201	147.234	NaN	0.000000	0.001678	0.001661	28.0804	58.638	0.001749	33535.7	4.808635	-4.444501	142.124	1.302697	0.062146	0.061924	147.234	33535.7	0.058853	0.121728	1209.53	87818.1
433	2.000000	1.305432	7.3693e+06	-55439.1	1005.82	-29741.5	0.000000	0.000000	7.312216	159.441	NaN	0.000000	0.001647	0.001584	28.0808	62.2565	0.001821	34187.9	8.628609	171.555	158.928	1.305105	0.064659	0.064333	159.441	34187.9	0.061161	0.130005	1226.42	86629.3
433	2.000000	1.307906	7.3693e+06	-55439.1	1005.82	-29741.5	0.000000	0.000000	7.315272	173.565	NaN	0.000000	0.001622	0.001641	28.0805	64.7778	0.001834	35319.2	5.599464	-5.688733	167.105	1.307597	0.067134	0.066825	173.565	35319.2	0.063448	0.138462	1253.52	86719.8
433	2.000000	1.310464	7.3693e+06	-55439.1	1005.82	-29741.5	0.000000	0.000000	7.318362	186.498	NaN	0.000000	0.001556	0.001629	28.0817	66.8816	0.001797	37214.1	4.792211	174.514	183.526	1.310192	0.069691	0.069420	186.498	37214.1	0.065933	0.147938	1260.65	88397.7
433	2.000000	1.312928	7.3693e+06	-55439.1	1005.82	-29741.5	0.000000	0.000000	7.321644	206.407	NaN	0.000000	0.001591	0.001558	28.0817	68.2008	0.001737	39267.7	3.969095	-4.330019	201.524	1.312509	0.072155	0.071737	206.407	39267.7	0.068213	0.156893	1315.59	90574.5
433	2.000000	1.315446	7.3693e+06	-55439.1	1005.82	-29741.5	0.000000	0.000000	7.324429	212.878	NaN	0.000000	0.001630	0.001609	28.0822	71.207	0.001721	41384.4	5.404022	172.931	213.056	1.315217	0.074674	0.074445	212.878	41384.4	0.070816	0.167423	1271.5	92406.6
433	2.000000	1.317848	7.3693e+06	-55439.1	1005.82	-29741.5	0.000000	0.000000	7.327729	234.711	NaN	0.000000	0.001607	0.001651	28.0817	74.6909	0.001741	42908	6.649106	-8.221592	226.325	1.317527	0.077075	0.076754	234.711	42908	0.072973	0.176390	1330.64	93341.4
433	2.000000	1.320473	7.3693e+06	-55439.1	1005.82	-29741.5	0.000000	0.000000	7.330896	247.906	NaN	0.000000	0.001628	0.001668	28.0824	77.7783	0.001837	42346.7	6.691954	172.713	248.957	1.320154	0.079700	0.079381	247.906	42346.7	0.075309	0.186354	1330.3	89623.9
433	2.000000	1.322867	7.3693e+06	-55439.1	1005.82	-29741.5	0.000000	0.000000	7.333743	258.892	NaN	0.000000	0.001596	0.001664	28.0816	78.9022	0.001816	43437.4	5.493140	-6.837010	252.3	1.322578	0.082095	0.081805	258.892	43437.4	0.077625	0.196480	1317.65	89531.9
433	2.000000	1.325488	7.3693e+06	-55439.1	1005.82	-29741.5	0.000000	0.000000	7.336932	272.686	NaN	0.000000	0.001610	0.001643	28.0821	81.2661	0.001739	46732.4	2.207746	175.563	274.164	1.325164	0.084716	0.084391	272.686	46732.4	0.080340	0.208673	1306.76	93467
433	2.000000	1.327859	7.3693e+06	-55439.1	1005.82	-29741.5	0.000000	0.000000	7.340117	292.495	NaN	0.000000	0.001628	0.001661	28.0816	84.4302	0.001886	44761.7	3.369343	-5.275697	286.661	1.327457	0.087086	0.086685	292.495	44761.7	0.082185	0.217158	1346.92	87759.1
433	2.000000	1.330379	7.3693e+06	-55439.1	1005.82	-29741.5	0.000000	0.000000	7.343321	309.11	NaN	0.000000	0.001611	0.001664	28.0819	86.3939	0.001771	48773.9	4.906865	172.9	305.671	1.330102	0.089607	0.089330	309.11	48773.9	0.084853	0.229703	1345.7	92977.5
433	2.000000	1.332950	7.3693e+06	-55439.1	1005.82	-29741.5	0.000000	0.000000	7.346281	318.581	NaN	0.000000	0.001609	0.001666	28.0819	88.1788	0.001747	50487.8	4.677762	-7.669821	314.721	1.332708	0.092177	0.091935	318.581	50487.8	0.087445	0.242203	1315.35	93728.1
433	2.000000	1.335408	7.3693e+06	-55439.1	1005.82	-29741.5	0.000000	0.000000	7.349717	342.342	NaN	0.000000	0.001626	0.001631	28.0821	88.9461	0.001666	53398.3	0.108146	176.392	340.826	1.335233	0.094635	0.094460	342.342	53398.3	0.089827	0.253965	1347.99	96808.6
433	2.000000	1.337911	7.3693e+06	-55439.1	1005.82	-29741.5	0.000000	0.000000	7.353116	364.122	NaN	0.000000	0.001629	0.001632	28.0818	93.951	0.001730	54311.9	7.484534	-11.1147	359.554	1.337537	0.097139	0.096764	364.122	54311.9	0.092111	0.265485	1371.53	96304.9
433	2.000000	1.340407	7.3693e+06	-55439.1	1005.82	-29741.5	0.000000	0.000000	7.356221	378.921	NaN	0.000000	0.001626	0.001616	28.0819	96.6707	0.001744	55435.8	3.408235	173.04	376.685	1.340132	0.099635	0.099360	378.921	55435.8	0.094508	0.277838	1363.82	96087.6
433	2.000000	1.342868	7.3693e+06	-55439.1	1005.82	-29741.5	0.000000	0.000000	7.359229	392.241	NaN	0.000000	0.001644	0.001611	28.0817	97.7949	0.001680	58222.8	3.484749	-7.711064	385.885	1.342706	0.102095	0.101934	392.241	58222.8	0.097042	0.291179	1347.08	98579.4
433	2.000000	1.345373	7.3693e+06	-55439.1	1005.82	-29741.5	0.000000	0.000000	7.362807	418.306	NaN	0.000000	0.001634	0.001644	28.0809	100.263	0.001770	56647.2	1.435240	175.21	416.095	1.345128	0.104601	0.104356	418.306	56647.2	0.099062	0.302022	1385.02	94174.3
433	2.000000	1.347843	7.3693e+06	-55439.1	1005.82	-29741.5	0.000000	0.000000	7.365775	430.438	NaN	0.000000	0.001641	0.001639	28.0805	103.171	0.001836	56186.8	4.384645	-8.113642	424.098	1.347707	0.107070	0.106934	430.438	56186.8	0.101324	0.314386	1369.14	91553.6
433	2.000000	1.350336	7.3693e+06	-55439.1	1005.82	-29741.5	0.000000	0.000000	7.369604	462.897	NaN	0.000000	0.001612	0.001643	28.0806	105.698	0.001727	61194.4	5.952832	169.864	458.55	1.350119	0.109564	0.109346	462.897	61194.4	0.103890	0.328692	1408.3	97519.2
433	2.000000	1.351440	7.3693e+06	-55439.1	1005.82	-29741.5	0.000000	0.000000	7.371077	471.86	NaN	0.000000	0.001581	0.001620	28.0807	105.968	0.001695	62521.4	7.068044	168.915	472.779	1.351028	0.110667	0.110256	471.86	62521.4	0.105007	0.335011	1408.49	98689.7