File: remote_trans/data/nanoindenter/0828-1/data/Data_2025-08-06,11h17m57s/2025-07-22_16-23-58_1_311.txt
2025-07-22, 16:23:58, 1
Index	Phase	Displacement	Time	Pos X	Pos Y	Pos Z	Rot A	Rot B	Piezo Z	Force A	Force B	Gripper	Voltage A	Voltage B	Temperature	Amplitude force	Amplitude pos	Stiffness	Phase shift	Phase excitation	Force A raw	Displacement raw	HMax	HMax raw	Real Force	Real Stiffness	Contact Depth	Area	Hardness	Reduced Mod.
[#]	[#]	[um]	[s]	[um]	[um]	[um]	[m°]	[m°]	[um]	[uN]	[uN]	[V]	[V]	[V]	[°C]	[uN]	[um]	[N/m]	[°]	[°]	[uN]	[um]	[um]	[um]	[uN]	[N/m]	[um]	[um^2]	[MPa]	[MPa]
311	1.000000	0.002463	7.36811e+06	-54189.1	955.817	-29744.5	0.000000	0.000000	6.002808	-0.082527	NaN	0.000000	0.001570	0.001733	28.0811	0.098031	0.000813	120.506	112.064	-162.263	-0.030345	0.001179	-1.094845	-1.096130	-0.082527	120.506	-1.094332	-4.207009E+14	1.961664E-16	NaN
311	1.000000	0.012491	7.36811e+06	-54189.1	955.818	-29744.5	0.000000	0.000000	6.012841	0.024322	NaN	0.000000	0.001538	0.001727	28.0811	0.058007	0.001267	45.7666	-71.821	12.8416	0.043775	0.011106	-1.084817	-1.086203	0.024322	45.7666	-1.085216	-3.173713E+14	-7.663712E-17	NaN
311	1.000000	0.022410	7.36811e+06	-54189.1	955.817	-29744.5	0.000000	0.000000	6.022757	-0.030863	NaN	0.000000	0.001534	0.001687	28.0812	0.092139	0.001711	53.8372	126.936	-165.659	0.023308	0.021085	-1.074898	-1.076224	-0.030863	53.8372	-1.074468	-2.276229E+14	1.355873E-16	NaN
311	1.000000	0.032411	7.36811e+06	-54189.1	955.818	-29744.5	0.000000	0.000000	6.032757	-0.058226	NaN	0.000000	0.001502	0.001695	28.0809	0.020343	0.001941	10.4817	176.875	11.2425	0.056272	0.031059	-1.064898	-1.066250	-0.058226	10.4817	-1.060732	-1.488172E+14	3.912606E-16	NaN
311	1.000000	0.042414	7.36811e+06	-54189.1	955.817	-29744.5	0.000000	0.000000	6.042763	-0.001452	NaN	0.000000	0.001576	0.001755	28.0812	0.016764	0.002011	8.336655	55.8913	-166.323	-0.030106	0.041135	-1.054894	-1.056173	-0.001452	8.336655	-1.054764	-1.237214E+14	1.173564E-17	NaN
311	1.000000	0.052407	7.36811e+06	-54189.1	955.818	-29744.5	0.000000	0.000000	6.052757	0.050356	NaN	0.000000	0.001589	0.001669	28.081	0.100372	0.002022	49.6401	-29.7482	14.4238	-0.040702	0.051025	-1.044902	-1.046284	0.050356	49.6401	-1.045663	-9.334882E+13	-5.394410E-16	NaN
311	1.000000	0.062435	7.36811e+06	-54189.1	955.818	-29744.5	0.000000	0.000000	6.062783	-0.012422	NaN	0.000000	0.001568	0.001664	28.0808	0.041306	0.001956	21.1171	-34.3094	-163.912	0.072990	0.061136	-1.034873	-1.036173	-0.012422	21.1171	-1.034432	-6.593129E+13	1.884025E-16	NaN
311	1.000000	0.072377	7.36811e+06	-54189.1	955.818	-29744.5	0.000000	0.000000	6.072724	-0.029621	NaN	0.000000	0.001615	0.001665	28.0806	0.108519	0.001963	55.2762	-15.4873	14.2922	-0.002873	0.071081	-1.024931	-1.026228	-0.029621	55.2762	-1.024530	-4.851682E+13	6.105393E-16	NaN
311	1.000000	0.082434	7.36811e+06	-54189.1	955.818	-29744.5	0.000000	0.000000	6.082781	-0.034733	NaN	0.000000	0.001637	0.001687	28.081	0.132075	0.002141	61.6927	26.6592	-164.786	-0.004387	0.081072	-1.014874	-1.016236	-0.034733	61.6927	-1.014452	-3.550562E+13	9.782397E-16	NaN
311	1.000000	0.092395	7.36811e+06	-54189.1	955.818	-29744.5	0.000000	0.000000	6.092745	0.033589	NaN	0.000000	0.001610	0.001677	28.0809	0.097254	0.001986	48.9668	-172.861	16.9943	0.061532	0.091087	-1.004913	-1.006222	0.033589	48.9668	-1.005428	-2.684352E+13	-1.251290E-15	NaN
311	1.000000	0.102425	7.36811e+06	-54189.1	955.818	-29744.5	0.000000	0.000000	6.102773	-0.015169	NaN	0.000000	0.001651	0.001683	28.0809	0.069403	0.001991	34.8523	86.2069	-164.926	-0.073208	0.101125	-0.994884	-0.996183	-0.015169	34.8523	-0.994557	-1.916390E+13	7.915252E-16	NaN
311	1.000000	0.112426	7.36811e+06	-54189.1	955.818	-29744.5	0.000000	0.000000	6.112774	-0.005440	NaN	0.000000	0.001661	0.001688	28.0796	0.023147	0.001908	12.1341	-164.69	12.3798	-0.009161	0.111115	-0.984882	-0.986193	-0.005440	12.1341	-0.984546	-1.404921E+13	3.872209E-16	NaN
311	1.000000	0.122435	7.36811e+06	-54189.1	955.819	-29744.5	0.000000	0.000000	6.122782	-0.017543	NaN	0.000000	0.001619	0.001705	28.08	0.115057	0.002044	56.2804	117.228	-165.461	-0.047079	0.121134	-0.974874	-0.976175	-0.017543	56.2804	-0.974640	-1.033218E+13	1.697886E-15	NaN
311	1.000000	0.132424	7.36811e+06	-54189.1	955.818	-29744.5	0.000000	0.000000	6.132773	0.017684	NaN	0.000000	0.001642	0.001700	28.0794	0.051790	0.002128	24.3401	168.065	13.655	-0.062872	0.131075	-0.964885	-0.966233	0.017684	24.3401	-0.965429	-7.763562E+12	-2.277880E-15	NaN
311	1.000000	0.142448	7.36811e+06	-54189.1	955.819	-29744.5	0.000000	0.000000	6.142793	-0.059098	NaN	0.000000	0.001661	0.001711	28.0798	0.046808	0.002009	23.2991	-70.2252	-166.158	-0.054381	0.141112	-0.954861	-0.956196	-0.059098	23.2991	-0.952959	-5.271402E+12	1.121114E-14	NaN
311	1.000000	0.152417	7.36811e+06	-54189.1	955.817	-29744.5	0.000000	0.000000	6.152764	-0.032031	NaN	0.000000	0.001691	0.001725	28.0798	0.025322	0.002051	12.3473	175.162	16.6744	-0.018496	0.151095	-0.944891	-0.946214	-0.032031	12.3473	-0.942946	-3.862568E+12	8.292575E-15	NaN
311	1.000000	0.162474	7.36811e+06	-54189.1	955.818	-29744.5	0.000000	0.000000	6.162823	0.019657	NaN	0.000000	0.001655	0.001733	28.0799	0.149940	0.002021	74.1892	-28.4512	-166.094	0.084220	0.161130	-0.934834	-0.936179	0.019657	74.1892	-0.935033	-3.020778E+12	-6.507397E-15	NaN
311	1.000000	0.172464	7.36811e+06	-54189.1	955.817	-29744.5	0.000000	0.000000	6.172809	-0.078361	NaN	0.000000	0.001632	0.001758	28.0798	0.061847	0.002006	30.8299	-68.2817	13.1277	-0.016224	0.171079	-0.924845	-0.926229	-0.078361	30.8299	-0.922938	-2.074330E+12	3.777673E-14	NaN
311	1.000000	0.182439	7.36811e+06	-54189.1	955.817	-29744.5	0.000000	0.000000	6.182787	0.005181	NaN	0.000000	0.001651	0.001759	28.0802	0.058223	0.001979	29.4194	15.3016	-165.1	0.006363	0.181137	-0.914870	-0.916171	0.005181	29.4194	-0.915002	-1.620767E+12	-3.196848E-15	NaN
311	1.000000	0.192471	7.36811e+06	-54189.1	955.817	-29744.5	0.000000	0.000000	6.192816	-0.069341	NaN	0.000000	0.001609	0.001728	28.0798	0.128335	0.002134	60.1492	130.998	14.9524	0.055319	0.191088	-0.904838	-0.906221	-0.069341	60.1492	-0.903973	-1.150137E+12	6.028970E-14	NaN
311	1.000000	0.202485	7.36811e+06	-54189.1	955.818	-29744.5	0.000000	0.000000	6.202833	-0.023496	NaN	0.000000	0.001594	0.001742	28.0801	0.030584	0.002007	15.2396	-120.132	-166.3	0.035881	0.201146	-0.894823	-0.896163	-0.023496	15.2396	-0.893667	-8.346044E+11	2.815198E-14	NaN
311	1.000000	0.212451	7.36811e+06	-54189.1	955.818	-29744.5	0.000000	0.000000	6.212798	-0.049020	NaN	0.000000	0.001594	0.001771	28.0798	0.054821	0.001914	28.638	-8.057481	14.9678	-0.006016	0.211086	-0.884857	-0.886223	-0.049020	28.638	-0.883573	-6.095778E+11	8.041703E-14	NaN
311	1.000000	0.222503	7.36811e+06	-54189.1	955.818	-29744.5	0.000000	0.000000	6.222847	-0.103601	NaN	0.000000	0.001613	0.001757	28.0803	0.010577	0.001890	5.595472	-15.2896	-162.992	-0.044157	0.221120	-0.874806	-0.876188	-0.103601	5.595472	-0.860919	-3.009971E+11	3.441922E-13	NaN
311	1.000000	0.232467	7.36811e+06	-54189.1	955.818	-29744.5	0.000000	0.000000	6.232814	-0.041476	NaN	0.000000	0.001619	0.001772	28.0797	0.060882	0.001936	31.4522	127.078	12.1517	-0.063699	0.231132	-0.864841	-0.866176	-0.041476	31.4522	-0.863852	-3.298042E+11	1.257591E-13	NaN
311	1.000000	0.242487	7.36811e+06	-54189.1	955.816	-29744.5	0.000000	0.000000	6.242835	-0.003931	NaN	0.000000	0.001636	0.001749	28.081	0.071741	0.001987	36.1026	45.9027	-163.579	-0.014689	0.241191	-0.854821	-0.856118	-0.003931	36.1026	-0.854739	-2.482618E+11	1.583510E-14	NaN
311	1.000000	0.252506	7.36811e+06	-54189.1	955.819	-29744.5	0.000000	0.000000	6.252851	-0.076619	NaN	0.000000	0.001594	0.001698	28.0808	0.044828	0.002020	22.1956	-136.241	16.0521	-0.019997	0.251114	-0.844802	-0.846194	-0.076619	22.1956	-0.842213	-1.679874E+11	4.561017E-13	NaN
311	1.000000	0.262484	7.36811e+06	-54189.1	955.817	-29744.5	0.000000	0.000000	6.262833	0.034967	NaN	0.000000	0.001625	0.001719	28.0811	0.048265	0.002066	23.3652	-118.343	-166.824	0.005622	0.261157	-0.834825	-0.836152	0.034967	23.3652	-0.835947	-1.381605E+11	-2.530894E-13	NaN
311	1.000000	0.272499	7.36811e+06	-54189.1	955.818	-29744.5	0.000000	0.000000	6.272846	-0.034654	NaN	0.000000	0.001646	0.001679	28.0813	0.014522	0.002039	7.122506	-86.0237	17.6721	-0.030084	0.271170	-0.824810	-0.826139	-0.034654	7.122506	-0.821161	-8.708642E+10	3.979314E-13	NaN
311	1.000000	0.282531	7.36811e+06	-54189.1	955.818	-29744.5	0.000000	0.000000	6.282877	-0.050948	NaN	0.000000	0.001576	0.001684	28.0809	0.058114	0.001995	29.1242	92.2228	-165.495	0.014898	0.281244	-0.814778	-0.816064	-0.050948	29.1242	-0.813466	-6.848377E+10	7.439395E-13	NaN
311	1.000000	0.292507	7.36811e+06	-54189.1	955.818	-29744.5	0.000000	0.000000	6.292854	-0.030110	NaN	0.000000	0.001597	0.001681	28.0807	0.034574	0.002000	17.2841	-160.631	13.0849	-0.012340	0.291139	-0.804801	-0.806169	-0.030110	17.2841	-0.803495	-5.015319E+10	6.003695E-13	NaN
311	1.000000	0.302488	7.36811e+06	-54189.1	955.818	-29744.5	0.000000	0.000000	6.302835	-0.031787	NaN	0.000000	0.001602	0.001706	28.0809	0.073918	0.002100	35.1928	105.613	-164.448	0.012711	0.301155	-0.794820	-0.796154	-0.031787	35.1928	-0.794143	-3.744081E+10	8.489919E-13	NaN
311	1.000000	0.312526	7.36811e+06	-54189.1	955.818	-29744.5	0.000000	0.000000	6.312871	-0.068832	NaN	0.000000	0.001632	0.001699	28.0808	0.056652	0.001854	30.5501	-14.7513	12.329	-0.047736	0.311155	-0.784783	-0.786154	-0.068832	30.5501	-0.783093	-2.650055E+10	2.597392E-12	NaN
311	1.000000	0.322511	7.36811e+06	-54189.1	955.818	-29744.5	0.000000	0.000000	6.322858	-0.018862	NaN	0.000000	0.001608	0.001695	28.0808	0.074381	0.002025	36.7317	-157.161	-166.609	-0.010327	0.321211	-0.774798	-0.776098	-0.018862	36.7317	-0.774412	-2.019725E+10	9.338763E-13	NaN
311	1.000000	0.332565	7.36811e+06	-54189.1	955.818	-29744.5	0.000000	0.000000	6.332914	0.014431	NaN	0.000000	0.001628	0.001660	28.0808	0.025182	0.002058	12.2357	-55.5904	13.8771	-0.066718	0.331216	-0.764744	-0.766093	0.014431	12.2357	-0.765628	-1.534122E+10	-9.406749E-13	NaN
311	1.000000	0.342525	7.36811e+06	-54189.1	955.819	-29744.5	0.000000	0.000000	6.342873	-0.002738	NaN	0.000000	0.001638	0.001688	28.0811	0.169966	0.002131	79.7673	-85.1419	-165.04	0.112662	0.341224	-0.754783	-0.756085	-0.002738	79.7673	-0.754757	-1.091366E+10	2.508415E-13	NaN
311	1.000000	0.352538	7.36811e+06	-54189.1	955.817	-29744.5	0.000000	0.000000	6.352883	-0.061655	NaN	0.000000	0.001652	0.001663	28.0807	0.106620	0.002107	50.6019	-38.6656	12.348	-0.066960	0.351178	-0.744771	-0.746130	-0.061655	50.6019	-0.743857	-7.755059E+9	7.950291E-12	NaN
311	1.000000	0.362546	7.36811e+06	-54189.1	955.818	-29744.5	0.000000	0.000000	6.362895	0.032453	NaN	0.000000	0.001630	0.001652	28.0807	0.035964	0.001990	18.0723	-36.4156	-166.233	0.001607	0.361227	-0.734763	-0.736081	0.032453	18.0723	-0.736110	-6.082244E+9	-5.335701E-12	NaN
311	1.000000	0.372549	7.36811e+06	-54189.1	955.817	-29744.5	0.000000	0.000000	6.372894	-0.082386	NaN	0.000000	0.001615	0.001699	28.0807	0.039909	0.001958	20.3811	-150.361	16.3297	-0.010735	0.371174	-0.724760	-0.726134	-0.082386	20.3811	-0.721728	-3.872910E+9	2.127227E-11	NaN
311	1.000000	0.382538	7.36811e+06	-54189.1	955.818	-29744.5	0.000000	0.000000	6.382888	0.044244	NaN	0.000000	0.001640	0.001669	28.0795	0.072146	0.002151	33.5331	48.8937	-165.773	-0.005511	0.381212	-0.714770	-0.716096	0.044244	33.5331	-0.715760	-3.210999E+9	-1.377878E-11	NaN
311	1.000000	0.392550	7.36811e+06	-54189.1	955.818	-29744.5	0.000000	0.000000	6.392897	-0.048278	NaN	0.000000	0.001617	0.001686	28.0792	0.093768	0.002091	44.8431	127.574	13.8746	-0.073139	0.391142	-0.704758	-0.706166	-0.048278	44.8431	-0.703951	-2.215532E+9	2.179077E-11	NaN
311	1.000000	0.402521	7.36811e+06	-54189.1	955.818	-29744.5	0.000000	0.000000	6.402867	-0.056585	NaN	0.000000	0.001583	0.001705	28.0794	0.012013	0.001918	6.263864	-73.6258	-166.761	-0.004646	0.401217	-0.694788	-0.696092	-0.056585	6.263864	-0.688013	-1.342015E+9	4.216385E-11	NaN
311	1.000000	0.412572	7.36811e+06	-54189.1	955.818	-29744.5	0.000000	0.000000	6.412921	0.023565	NaN	0.000000	0.001595	0.001672	28.0793	0.116781	0.001934	60.3815	113.258	13.1768	-0.025039	0.411165	-0.684737	-0.686144	0.023565	60.3815	-0.685029	-1.221728E+9	-1.928811E-11	NaN
311	1.000000	0.422542	7.36811e+06	-54189.1	955.818	-29744.5	0.000000	0.000000	6.422890	-0.005045	NaN	0.000000	0.001571	0.001667	28.0795	0.119420	0.001945	61.3933	148.131	-167.878	-0.040864	0.421311	-0.674767	-0.675998	-0.005045	61.3933	-0.674705	-8.826337E+8	5.715842E-12	NaN
311	1.000000	0.432575	7.36811e+06	-54189.1	955.817	-29744.5	0.000000	0.000000	6.432921	-0.055442	NaN	0.000000	0.001600	0.001693	28.0794	0.049052	0.002019	24.3008	-81.2873	10.1053	-0.093696	0.431222	-0.664734	-0.666087	-0.055442	24.3008	-0.663023	-6.107527E+8	9.077619E-11	NaN
311	1.000000	0.442568	7.36811e+06	-54189.1	955.818	-29744.5	0.000000	0.000000	6.442917	0.035284	NaN	0.000000	0.001623	0.001680	28.0791	0.027798	0.001992	13.9521	12.8942	-166.169	0.004814	0.441269	-0.654741	-0.656039	0.035284	13.9521	-0.656638	-4.993513E+8	-7.066016E-11	NaN
311	1.000000	0.452554	7.36811e+06	-54189.1	955.818	-29744.5	0.000000	0.000000	6.452903	0.015514	NaN	0.000000	0.001629	0.001702	28.0797	0.011452	0.001956	5.854891	72.8195	16.1365	0.051639	0.451176	-0.644754	-0.646133	0.015514	5.854891	-0.646742	-3.653930E+8	-4.245741E-11	NaN
311	1.000000	0.462569	7.36811e+06	-54189.1	955.818	-29744.5	0.000000	0.000000	6.462913	-0.102883	NaN	0.000000	0.001598	0.001696	28.0792	0.032455	0.002149	15.1029	-134.583	-163	-0.003054	0.461274	-0.634740	-0.636035	-0.102883	15.1029	-0.629631	-2.127909E+8	4.834933E-10	NaN
311	1.000000	0.472574	7.36811e+06	-54189.1	955.818	-29744.5	0.000000	0.000000	6.472921	-0.031000	NaN	0.000000	0.001581	0.001666	28.0795	0.106838	0.002029	52.6555	87.3336	14.0979	0.027914	0.471178	-0.624735	-0.626131	-0.031000	52.6555	-0.624293	-1.797345E+8	1.724785E-10	NaN
311	1.000000	0.482589	7.36811e+06	-54189.1	955.817	-29744.5	0.000000	0.000000	6.482936	-0.037342	NaN	0.000000	0.001590	0.001730	28.0793	0.111554	0.001861	59.9496	118.33	-162.382	-0.055311	0.481263	-0.614720	-0.616046	-0.037342	59.9496	-0.614252	-1.308002E+8	2.854878E-10	NaN
311	1.000000	0.492591	7.36811e+06	-54189.1	955.817	-29744.5	0.000000	0.000000	6.492940	0.014774	NaN	0.000000	0.001654	0.001664	28.0795	0.101974	0.001937	52.6584	72.0569	12.1408	0.054308	0.491209	-0.604718	-0.606100	0.014774	52.6584	-0.604928	-9.734581E+7	-1.517709E-10	NaN
311	1.000000	0.502596	7.36811e+06	-54189.1	955.819	-29744.5	0.000000	0.000000	6.502944	-0.007067	NaN	0.000000	0.001672	0.001687	28.0791	0.027138	0.001948	13.9324	-77.1073	-164.615	-0.088852	0.501319	-0.594713	-0.595990	-0.007067	13.9324	-0.594332	-6.956336E+7	1.015952E-10	NaN
311	1.000000	0.512611	7.36811e+06	-54189.1	955.818	-29744.5	0.000000	0.000000	6.512958	-0.029550	NaN	0.000000	0.001651	0.001678	28.0795	0.047030	0.002036	23.094	129.566	10.8881	0.016639	0.511238	-0.584698	-0.586070	-0.029550	23.094	-0.583738	-4.969434E+7	5.946342E-10	NaN
311	1.000000	0.522611	7.36811e+06	-54189.1	955.818	-29744.5	0.000000	0.000000	6.522956	-0.071271	NaN	0.000000	0.001621	0.001667	28.0806	0.066295	0.001930	34.3513	-90.9991	-164.47	-0.040893	0.521351	-0.574698	-0.575957	-0.071271	34.3513	-0.573142	-3.548396E+7	2.008539E-9	NaN
311	1.000000	0.532611	7.36811e+06	-54189.1	955.817	-29744.5	0.000000	0.000000	6.532958	-0.030385	NaN	0.000000	0.001677	0.001708	28.0807	0.095081	0.002051	46.3504	-79.422	17.2236	0.053155	0.531214	-0.564698	-0.566094	-0.030385	46.3504	-0.564206	-2.670224E+7	1.137930E-9	NaN
311	1.000000	0.542619	7.36811e+06	-54189.1	955.818	-29744.5	0.000000	0.000000	6.542966	-0.025830	NaN	0.000000	0.001651	0.001697	28.0804	0.093424	0.002170	43.0476	-8.918488	-165.279	-0.047599	0.541339	-0.554689	-0.555969	-0.025830	43.0476	-0.554239	-1.943832E+7	1.328826E-9	NaN
311	1.000000	0.552632	7.36811e+06	-54189.1	955.817	-29744.5	0.000000	0.000000	6.552980	-0.016071	NaN	0.000000	0.001711	0.001703	28.0806	0.085575	0.001993	42.9387	135.128	12.65	0.029900	0.551234	-0.544676	-0.546075	-0.016071	42.9387	-0.544396	-1.420053E+7	1.131736E-9	NaN
311	1.000000	0.562639	7.36811e+06	-54189.1	955.817	-29744.5	0.000000	0.000000	6.562984	-0.077444	NaN	0.000000	0.001704	0.001723	28.0805	0.044692	0.002031	22.0054	135.258	-165.409	-0.028020	0.561276	-0.534670	-0.536033	-0.077444	22.0054	-0.532030	-9.56674e+06	8.095155E-9	NaN
311	1.000000	0.572646	7.36811e+06	-54189.1	955.818	-29744.5	0.000000	0.000000	6.572994	-0.004779	NaN	0.000000	0.001713	0.001698	28.0804	0.109868	0.002012	54.6083	169.823	13.7333	-0.048311	0.571247	-0.524663	-0.526061	-0.004779	54.6083	-0.524597	-7.54239e+06	6.336721E-10	NaN
311	1.000000	0.582635	7.36811e+06	-54189.1	955.818	-29744.5	0.000000	0.000000	6.582982	-0.025092	NaN	0.000000	0.001686	0.001686	28.0804	0.112526	0.001987	56.6404	-176.815	-165.985	-0.084293	0.581353	-0.514674	-0.515955	-0.025092	56.6404	-0.514342	-5.43087e+06	4.620262E-9	NaN
311	1.000000	0.592652	7.36811e+06	-54189.1	955.818	-29744.5	0.000000	0.000000	6.592998	-0.042896	NaN	0.000000	0.001690	0.001698	28.0804	0.052516	0.002015	26.0648	76.7639	16.6119	-0.060807	0.591311	-0.504657	-0.505998	-0.042896	26.0648	-0.503423	-3.82609e+06	1.121147E-8	NaN
311	1.000000	0.602607	7.36811e+06	-54189.1	955.817	-29744.5	0.000000	0.000000	6.602953	-0.060956	NaN	0.000000	0.001689	0.001690	28.0804	0.069425	0.001845	37.622	-118.106	-165.639	-0.058908	0.601326	-0.494702	-0.495983	-0.060956	37.622	-0.493487	-2.78036e+06	2.192378E-8	NaN
311	1.000000	0.612637	7.36811e+06	-54189.1	955.818	-29744.5	0.000000	0.000000	6.612985	0.002583	NaN	0.000000	0.001654	0.001710	28.0806	0.050040	0.002049	24.4164	148.502	16.6364	-0.018370	0.611288	-0.484672	-0.486020	0.002583	24.4164	-0.484751	-2.09897e+06	-1.230555E-9	NaN
311	1.000000	0.622657	7.36811e+06	-54189.1	955.818	-29744.5	0.000000	0.000000	6.623003	-0.059227	NaN	0.000000	0.001683	0.001726	28.0804	0.035522	0.002043	17.3877	176.31	-165.45	-0.017253	0.621365	-0.474652	-0.475943	-0.059227	17.3877	-0.472097	-1.39577e+06	4.243293E-8	NaN
311	1.000000	0.632642	7.36811e+06	-54189.1	955.817	-29744.5	0.000000	0.000000	6.632988	-0.068540	NaN	0.000000	0.001631	0.001730	28.0805	0.078607	0.002018	38.9574	62.9341	14.6514	-0.058559	0.631318	-0.464666	-0.465991	-0.068540	38.9574	-0.463347	-1.05204e+06	6.514901E-8	NaN
311	1.000000	0.642651	7.36811e+06	-54189.1	955.818	-29744.5	0.000000	0.000000	6.643001	0.035959	NaN	0.000000	0.001628	0.001710	28.0808	0.035304	0.001823	19.3679	-50.9849	-166.873	-0.067450	0.641294	-0.454658	-0.456014	0.035959	19.3679	-0.456050	-830781	-4.328386E-8	NaN
311	1.000000	0.652693	7.36811e+06	-54189.1	955.818	-29744.5	0.000000	0.000000	6.653039	-0.042952	NaN	0.000000	0.001626	0.001693	28.0793	0.045733	0.001831	24.9827	-43.3259	14.9744	-0.008007	0.651320	-0.444616	-0.445989	-0.042952	24.9827	-0.443326	-549908	7.810711E-8	NaN
311	1.000000	0.662653	7.36811e+06	-54189.1	955.817	-29744.5	0.000000	0.000000	6.663002	0.011963	NaN	0.000000	0.001637	0.001705	28.0793	0.034821	0.001978	17.6066	-109.198	-167.06	-0.032795	0.661323	-0.434656	-0.435986	0.011963	17.6066	-0.435165	-421784	-2.836379E-8	NaN
311	1.000000	0.672671	7.36811e+06	-54189.1	955.818	-29744.5	0.000000	0.000000	6.673020	0.027215	NaN	0.000000	0.001601	0.001693	28.0793	0.141654	0.001991	71.1548	147.135	13.7962	0.043115	0.671338	-0.424638	-0.425970	0.027215	71.1548	-0.424925	-302148	-9.007221E-8	NaN
311	1.000000	0.682669	7.36811e+06	-54189.1	955.817	-29744.5	0.000000	0.000000	6.683017	-0.020326	NaN	0.000000	0.001614	0.001691	28.0792	0.067125	0.001931	34.7698	-127.777	-166.604	-0.063640	0.681408	-0.414639	-0.415901	-0.020326	34.7698	-0.414201	-212865	9.548775E-8	NaN
311	1.000000	0.692680	7.36811e+06	-54189.1	955.818	-29744.5	0.000000	0.000000	6.693027	-0.036633	NaN	0.000000	0.001639	0.001672	28.0792	0.023081	0.002101	10.9874	-159.003	11.7759	-0.027062	0.691329	-0.404628	-0.405980	-0.036633	10.9874	-0.402128	-143327	2.555900E-7	NaN
311	1.000000	0.702676	7.36811e+06	-54189.1	955.818	-29744.5	0.000000	0.000000	6.703025	0.003278	NaN	0.000000	0.001617	0.001706	28.0793	0.027517	0.002050	13.4227	76.5163	-168.888	-0.056423	0.701372	-0.394632	-0.395937	0.003278	13.4227	-0.394815	-112720	-2.907835E-8	NaN
311	1.000000	0.712655	7.36811e+06	-54189.1	955.818	-29744.5	0.000000	0.000000	6.713002	-0.035358	NaN	0.000000	0.001637	0.001701	28.079	0.075820	0.002178	34.8048	-95.3852	10.8626	-0.036702	0.711296	-0.384653	-0.386012	-0.035358	34.8048	-0.383892	-78650.6	4.495626E-7	NaN
311	1.000000	0.722671	7.36811e+06	-54189.1	955.819	-29744.5	0.000000	0.000000	6.723018	-0.049284	NaN	0.000000	0.001647	0.001681	28.0795	0.063869	0.001934	33.0308	16.1799	-166.342	-0.054226	0.721381	-0.374637	-0.375928	-0.049284	33.0308	-0.373518	-55816.5	8.829649E-7	NaN
311	1.000000	0.732736	7.36811e+06	-54189.1	955.818	-29744.5	0.000000	0.000000	6.733083	-0.027571	NaN	0.000000	0.001673	0.001669	28.0792	0.052166	0.001919	27.1822	160.064	16.1875	-0.000275	0.731308	-0.364573	-0.366001	-0.027571	27.1822	-0.363812	-40449.5	6.816049E-7	NaN
311	1.000000	0.742679	7.36811e+06	-54189.1	955.818	-29744.5	0.000000	0.000000	6.743027	0.008990	NaN	0.000000	0.001670	0.001687	28.0792	0.066940	0.002013	33.2469	-56.8682	-166.666	0.044391	0.741404	-0.354630	-0.355905	0.008990	33.2469	-0.354833	-29996.7	-2.997150E-7	NaN
311	1.000000	0.752690	7.36811e+06	-54189.1	955.818	-29744.5	0.000000	0.000000	6.753038	-0.005483	NaN	0.000000	0.001667	0.001687	28.0793	0.142437	0.002008	70.9316	-30.2973	13.5368	0.019878	0.751333	-0.344619	-0.345976	-0.005483	70.9316	-0.344561	-21279.9	2.576795E-7	NaN
311	1.000000	0.762715	7.36811e+06	-54189.1	955.818	-29744.5	0.000000	0.000000	6.763062	-0.041878	NaN	0.000000	0.001648	0.001686	28.0793	0.059467	0.001939	30.6661	55.7058	-164.894	-0.043167	0.761358	-0.334593	-0.335951	-0.041878	30.6661	-0.333569	-14712.2	2.846488E-6	NaN
311	1.000000	0.772693	7.36811e+06	-54189.1	955.818	-29744.5	0.000000	0.000000	6.773039	-0.053548	NaN	0.000000	0.001671	0.001730	28.0792	0.144226	0.001872	77.0586	72.0824	11.4048	-0.065348	0.771346	-0.324616	-0.325963	-0.053548	77.0586	-0.324095	-10686.6	5.010752E-6	NaN
311	1.000000	0.782700	7.36811e+06	-54189.1	955.818	-29744.5	0.000000	0.000000	6.783046	-0.041747	NaN	0.000000	0.001659	0.001711	28.079	0.069578	0.001977	35.1912	-142.983	-167.396	-0.067436	0.781421	-0.314609	-0.315888	-0.041747	35.1912	-0.313719	-7516.84	5.553825E-6	NaN
311	1.000000	0.792711	7.36811e+06	-54189.1	955.818	-29744.5	0.000000	0.000000	6.793059	-0.020076	NaN	0.000000	0.001643	0.001686	28.0807	0.087948	0.002035	43.2209	178.656	13.8097	0.064899	0.791310	-0.304597	-0.305999	-0.020076	43.2209	-0.304249	-5442.6	3.688704E-6	NaN
311	1.000000	0.802721	7.36811e+06	-54189.1	955.818	-29744.5	0.000000	0.000000	6.803069	0.009156	NaN	0.000000	0.001644	0.001700	28.0805	0.007020	0.001838	3.820403	-169.356	-164.915	0.055508	0.801398	-0.294588	-0.295910	0.009156	3.820403	-0.296385	-4156.83	-2.202569E-6	NaN
311	1.000000	0.812769	7.36811e+06	-54189.1	955.818	-29744.5	0.000000	0.000000	6.813116	-0.025599	NaN	0.000000	0.001632	0.001709	28.0805	0.048874	0.001938	25.2156	103.789	14.4825	0.057413	0.811356	-0.284540	-0.285953	-0.025599	25.2156	-0.283779	-2690.91	9.513316E-6	NaN
311	1.000000	0.822705	7.36811e+06	-54189.1	955.818	-29744.5	0.000000	0.000000	6.823052	-0.044345	NaN	0.000000	0.001624	0.001694	28.0804	0.039204	0.002021	19.3999	-111.369	-163.205	-0.087126	0.821471	-0.274603	-0.275837	-0.044345	19.3999	-0.272889	-1842.5	2.406779E-5	NaN
311	1.000000	0.832731	7.36811e+06	-54189.1	955.818	-29744.5	0.000000	0.000000	6.833078	-0.020365	NaN	0.000000	0.001598	0.001722	28.0807	0.049917	0.002052	24.3282	-174.955	14.944	-0.068095	0.831345	-0.264578	-0.265964	-0.020365	24.3282	-0.263950	-1346.95	1.511946E-5	NaN
311	1.000000	0.842756	7.36811e+06	-54189.1	955.818	-29744.5	0.000000	0.000000	6.843104	-0.018490	NaN	0.000000	0.001634	0.001663	28.0804	0.101309	0.001995	50.7726	114.91	-165.092	-0.007428	0.841480	-0.254552	-0.255828	-0.018490	50.7726	-0.254279	-957.228	1.931643E-5	NaN
311	1.000000	0.852746	7.36811e+06	-54189.1	955.819	-29744.5	0.000000	0.000000	6.853092	-0.054274	NaN	0.000000	0.001621	0.001713	28.0805	0.068795	0.001943	35.4007	45.7303	11.7869	0.006252	0.851394	-0.244563	-0.245914	-0.054274	35.4007	-0.243413	-649.777	8.352744E-5	NaN
311	1.000000	0.862744	7.36811e+06	-54189.1	955.819	-29744.5	0.000000	0.000000	6.863092	0.006277	NaN	0.000000	0.001609	0.001683	28.0807	0.086067	0.002017	42.6669	47.4566	-165.489	-0.045330	0.861492	-0.234565	-0.235817	0.006277	42.6669	-0.234675	-474.401	-1.323230E-5	NaN
311	1.000000	0.872761	7.36811e+06	-54189.1	955.818	-29744.5	0.000000	0.000000	6.873110	0.018782	NaN	0.000000	0.001581	0.001707	28.0805	0.014189	0.001960	7.239478	13.6684	11.6309	0.017157	0.871388	-0.224548	-0.225921	0.018782	7.239478	-0.226494	-352.403	-5.329636E-5	NaN
311	1.000000	0.882770	7.36811e+06	-54189.1	955.817	-29744.5	0.000000	0.000000	6.883117	-0.029587	NaN	0.000000	0.001654	0.001696	28.0807	0.024989	0.001931	12.9384	87.5973	-167.4	-0.093910	0.881428	-0.214539	-0.215881	-0.029587	12.9384	-0.212823	-213.037	0.000139	NaN
311	1.000000	0.892759	7.36811e+06	-54189.1	955.818	-29744.5	0.000000	0.000000	6.893103	-0.103809	NaN	0.000000	0.001632	0.001713	28.0804	0.019152	0.001946	9.842322	68.9596	13.5228	-0.119971	0.891416	-0.204549	-0.205893	-0.103809	9.842322	-0.196639	-115.962	0.000895	NaN
311	1.000000	0.902764	7.36811e+06	-54189.1	955.818	-29744.5	0.000000	0.000000	6.903111	-0.013638	NaN	0.000000	0.001613	0.001701	28.0809	0.065705	0.001938	33.8955	-5.927642	-164.454	-0.115356	0.901446	-0.194545	-0.195863	-0.013638	33.8955	-0.194243	-105.841	0.000129	NaN
311	1.000000	0.912774	7.36811e+06	-54189.1	955.818	-29744.5	0.000000	0.000000	6.913120	-0.040880	NaN	0.000000	0.001604	0.001681	28.0805	0.081366	0.001981	41.063	-131.54	15.3358	-0.009567	0.911401	-0.184535	-0.185908	-0.040880	41.063	-0.183788	-70.7428	0.000578	NaN
311	1.000000	0.922770	7.36811e+06	-54189.1	955.818	-29744.5	0.000000	0.000000	6.923116	-0.069999	NaN	0.000000	0.001601	0.001670	28.0803	0.045352	0.002129	21.3039	-87.6649	-163.263	-0.062018	0.921517	-0.174538	-0.175792	-0.069999	21.3039	-0.172074	-44.6219	0.001569	NaN
311	1.000000	0.932787	7.36811e+06	-54189.1	955.817	-29744.5	0.000000	0.000000	6.933133	-0.051280	NaN	0.000000	0.001624	0.001714	28.0794	0.053927	0.002110	25.5536	-86.1327	12.7071	0.001733	0.931399	-0.164522	-0.165909	-0.051280	25.5536	-0.163017	-31.0029	0.001654	NaN
311	1.000000	0.942773	7.36811e+06	-54189.1	955.818	-29744.5	0.000000	0.000000	6.943124	0.066265	NaN	0.000000	0.001641	0.001672	28.0793	0.103500	0.002115	48.9295	-101.081	-164.462	0.048814	0.941465	-0.154535	-0.155843	0.066265	48.9295	-0.155551	-22.829	-0.002903	NaN
311	1.000000	0.952760	7.36811e+06	-54189.1	955.817	-29744.5	0.000000	0.000000	6.953108	0.006793	NaN	0.000000	0.001649	0.001658	28.0794	0.046069	0.001911	24.106	46.6957	15.9647	-0.011624	0.951435	-0.144549	-0.145873	0.006793	24.106	-0.144760	-14.5122	-0.000468	NaN
311	1.000000	0.962800	7.36811e+06	-54189.1	955.817	-29744.5	0.000000	0.000000	6.963146	-0.038670	NaN	0.000000	0.001634	0.001632	28.0791	0.076249	0.001847	41.272	150.521	-165.498	-0.090561	0.961440	-0.134509	-0.135869	-0.038670	41.272	-0.133806	-9.025091	0.004285	NaN
311	1.000000	0.972771	7.36811e+06	-54189.1	955.818	-29744.5	0.000000	0.000000	6.973119	0.005173	NaN	0.000000	0.001611	0.001699	28.0795	0.052427	0.001942	26.9958	82.653	13.6511	0.007031	0.971349	-0.124538	-0.125959	0.005173	26.9958	-0.124682	-5.993660	-0.000863	NaN
311	1.000000	0.982801	7.36811e+06	-54189.1	955.818	-29744.5	0.000000	0.000000	6.983147	-0.052205	NaN	0.000000	0.001646	0.001686	28.0791	0.106813	0.002100	50.8514	89.2622	-169.388	-0.073335	0.981572	-0.114507	-0.115737	-0.052205	50.8514	-0.113737	-3.597548	0.014511	NaN
311	1.000000	0.992808	7.36811e+06	-54189.1	955.818	-29744.5	0.000000	0.000000	6.993158	0.049101	NaN	0.000000	0.001660	0.001723	28.0792	0.029442	0.002059	14.2977	-141.251	14.0885	0.034787	0.991456	-0.104501	-0.105853	0.049101	14.2977	-0.107076	-2.604946	-0.018849	NaN
311	1.000000	1.002817	7.36811e+06	-54189.1	955.818	-29744.5	0.000000	0.000000	7.003166	0.027065	NaN	0.000000	0.001626	0.001672	28.0793	0.067910	0.002181	31.1343	68.3675	-166.891	-0.080216	1.001474	-0.094492	-0.095835	0.027065	31.1343	-0.095144	-1.421302	-0.019042	NaN
311	1.000000	1.012812	7.36811e+06	-54189.1	955.819	-29744.5	0.000000	0.000000	7.013159	-0.028639	NaN	0.000000	0.001645	0.001664	28.0795	0.064360	0.001923	33.4733	81.034	12.1764	-0.028002	1.011464	-0.084497	-0.085845	-0.028639	33.4733	-0.083855	-0.770681	0.037160	NaN
311	1.000000	1.022813	7.36811e+06	-54189.1	955.818	-29744.5	0.000000	0.000000	7.023156	-0.111000	NaN	0.000000	0.001661	0.001698	28.0793	0.053126	0.001980	26.8311	-163.46	-169.842	-0.041271	1.021520	-0.074496	-0.075788	-0.111000	26.8311	-0.071393	-0.371566	0.298735	NaN
311	1.000000	1.032827	7.36811e+06	-54189.1	955.819	-29744.5	0.000000	0.000000	7.033175	-0.002333	NaN	0.000000	0.001632	0.001706	28.0794	0.166228	0.002013	82.5764	-125.614	14.251	-0.022778	1.031457	-0.064481	-0.065851	-0.002333	82.5764	-0.064460	-0.240752	0.009692	NaN
311	1.000000	1.042801	7.36811e+06	-54189.1	955.82	-29744.5	0.000000	0.000000	7.043147	-0.040108	NaN	0.000000	0.001651	0.001687	28.0794	0.087695	0.002022	43.3651	-152.718	-163.903	0.045728	1.041483	-0.054508	-0.055825	-0.040108	43.3651	-0.053814	-0.118762	0.337720	NaN
311	1.000000	1.052849	7.36811e+06	-54189.1	955.819	-29744.5	0.000000	0.000000	7.053197	0.002544	NaN	0.000000	0.001617	0.001680	28.0797	0.120278	0.002003	60.049	176.469	14.8894	-0.031424	1.051491	-0.044460	-0.045817	0.002544	60.049	-0.044491	-0.062007	-0.041026	NaN
311	1.000000	1.062800	7.36811e+06	-54189.1	955.819	-29744.5	0.000000	0.000000	7.063150	0.022997	NaN	0.000000	0.001641	0.001714	28.0806	0.067512	0.001968	34.296	-98.6318	-164.699	0.035815	1.061525	-0.034508	-0.035783	0.022997	34.296	-0.035011	-0.032049	-0.717566	NaN
311	1.000000	1.072838	7.36811e+06	-54189.1	955.82	-29744.5	0.000000	0.000000	7.073184	-0.034420	NaN	0.000000	0.001673	0.001730	28.0806	0.024490	0.001932	12.6761	5.757990	14.1277	-0.020803	1.071488	-0.024471	-0.025820	-0.034420	12.6761	-0.022434	-0.014486	2.376118	NaN
311	1.000000	1.082812	7.36811e+06	-54189.1	955.821	-29744.5	0.000000	0.000000	7.083161	0.024467	NaN	0.000000	0.001670	0.001697	28.081	0.053160	0.001949	27.2814	85.6926	-165.458	0.006776	1.081509	-0.014496	-0.015800	0.024467	27.2814	-0.015169	-0.009377	-2.609303	NaN
311	1.000000	1.092836	7.36811e+06	-54189.1	955.82	-29744.5	0.000000	0.000000	7.093187	0.089892	NaN	0.000000	0.001629	0.001676	28.0804	0.035603	0.001916	18.5806	98.6882	13.2601	0.003980	1.091488	-0.004473	-0.005821	0.089892	18.5806	-0.008102	-0.005291	-16.9892	NaN
311	1.000000	1.102792	7.36811e+06	-54189.1	955.82	-29744.5	0.000000	0.000000	7.103347	5.037519	NaN	0.000000	0.001617	0.001658	28.0807	5.446438	0.001759	3095.47	9.011460	-169.954	3.609078	1.101510	0.005483	0.004202	5.037519	3095.47	0.004262	0.003470	1451.67	48009.4
311	2.000000	1.108038	7.36811e+06	-54189.1	955.819	-29744.5	0.000000	0.000000	7.108761	9.108046	NaN	0.000000	0.001615	0.001690	28.0807	10.2411	0.001706	6001.94	9.059692	5.080203	9.597356	1.107604	0.010730	0.010296	9.108046	6001.94	0.009591	0.008731	1043.19	58685.9
311	2.000000	1.110485	7.36811e+06	-54189.1	955.818	-29744.5	0.000000	0.000000	7.111350	12.5819	NaN	0.000000	0.001651	0.001676	28.0811	12.993	0.001730	7512.17	7.437264	-174.14	12.9322	1.110153	0.013176	0.012844	12.5819	7512.17	0.011920	0.011394	1104.24	64297.9
311	2.000000	1.112957	7.36811e+06	-54189.1	955.82	-29744.5	0.000000	0.000000	7.113958	15.8792	NaN	0.000000	0.001681	0.001693	28.0807	15.0972	0.001697	8895.85	5.665103	6.504103	15.6986	1.112614	0.015648	0.015306	15.8792	8895.85	0.014310	0.014376	1104.59	67787
311	2.000000	1.115440	7.36811e+06	-54189.1	955.819	-29744.5	0.000000	0.000000	7.116610	19.9794	NaN	0.000000	0.001733	0.001694	28.0805	17.5427	0.001669	10512.2	4.014894	-175.323	19.5721	1.115148	0.018132	0.017839	19.9794	10512.2	0.016706	0.017628	1133.38	72337.1
311	2.000000	1.117929	7.36811e+06	-54189.1	955.82	-29744.5	0.000000	0.000000	7.119303	24.9372	NaN	0.000000	0.001679	0.001678	28.0807	20.9711	0.001724	12162.7	8.963215	-1.228799	24.4601	1.117587	0.020620	0.020279	24.9372	12162.7	0.019083	0.021121	1180.68	76461.7
311	2.000000	1.120389	7.36811e+06	-54189.1	955.821	-29744.5	0.000000	0.000000	7.122047	31.8479	NaN	0.000000	0.001669	0.001688	28.0807	23.4146	0.001795	13041.5	7.808075	-179.825	32.5915	1.120052	0.023080	0.022744	31.8479	13041.5	0.021249	0.024543	1297.66	76057.4
311	2.000000	1.122927	7.36811e+06	-54189.1	955.82	-29744.5	0.000000	0.000000	7.124782	36.6421	NaN	0.000000	0.001691	0.001669	28.0807	25.7595	0.001771	14542.7	7.703889	-0.827158	34.9469	1.122552	0.025618	0.025243	36.6421	14542.7	0.023729	0.028743	1274.81	78370.3
311	2.000000	1.125400	7.36811e+06	-54189.1	955.82	-29744.5	0.000000	0.000000	7.127430	40.8882	NaN	0.000000	0.001694	0.001697	28.0807	28.558	0.001839	15525.2	7.185610	178.668	42.4361	1.125161	0.028092	0.027852	40.8882	15525.2	0.026117	0.033078	1236.11	77990
311	2.000000	1.127888	7.36811e+06	-54189.1	955.818	-29744.5	0.000000	0.000000	7.130227	48.4049	NaN	0.000000	0.001676	0.001720	28.0811	31.1141	0.001814	17148.6	7.963219	-3.191791	48.4	1.127500	0.030579	0.030191	48.4049	17148.6	0.028462	0.037617	1286.8	80781.6
311	2.000000	1.130336	7.36811e+06	-54189.1	955.819	-29744.5	0.000000	0.000000	7.132976	55.7235	NaN	0.000000	0.001679	0.001709	28.0795	33.226	0.001749	19001.7	1.864469	-179.059	52.8903	1.130065	0.033027	0.032756	55.7235	19001.7	0.030828	0.042477	1311.86	84234.6
311	2.000000	1.132856	7.36811e+06	-54189.1	955.819	-29744.5	0.000000	0.000000	7.135838	64.043	NaN	0.000000	0.001659	0.001722	28.0793	35.1743	0.001769	19884.3	5.409808	-2.320569	61.8417	1.132553	0.035547	0.035245	64.043	19884.3	0.033131	0.047484	1348.72	83369.8
311	2.000000	1.135426	7.36811e+06	-54189.1	955.82	-29744.5	0.000000	0.000000	7.138609	68.9244	NaN	0.000000	0.001699	0.001686	28.0792	37.692	0.001912	19714.2	8.854797	175.938	70.6842	1.135060	0.038117	0.037752	68.9244	19714.2	0.035495	0.052904	1302.81	78307.9
311	2.000000	1.137849	7.36811e+06	-54189.1	955.82	-29744.5	0.000000	0.000000	7.141396	77.7783	NaN	0.000000	0.001661	0.001665	28.0797	40.3794	0.001805	22371.3	4.640095	-2.449041	76.2323	1.137431	0.040540	0.040123	77.7783	22371.3	0.037933	0.058795	1322.88	84293.8
311	2.000000	1.140359	7.36811e+06	-54189.1	955.818	-29744.5	0.000000	0.000000	7.144183	84.5034	NaN	0.000000	0.001630	0.001644	28.0793	43.1739	0.001796	24041	3.461927	177.575	83.7664	1.140079	0.043050	0.042770	84.5034	24041	0.040414	0.065102	1298.02	86085.4
311	2.000000	1.142886	7.36811e+06	-54189.1	955.82	-29744.5	0.000000	0.000000	7.147319	99.3081	NaN	0.000000	0.001670	0.001658	28.0796	44.514	0.001775	25081.5	6.484452	-4.032096	97.3986	1.142426	0.045577	0.045118	99.3081	25081.5	0.042608	0.070942	1399.86	86035.2
311	2.000000	1.145335	7.36811e+06	-54189.1	955.82	-29744.5	0.000000	0.000000	7.150105	107.493	NaN	0.000000	0.001614	0.001678	28.0793	46.8576	0.001741	26920.8	2.319954	178.851	104.81	1.144979	0.048026	0.047670	107.493	26920.8	0.045032	0.077677	1383.84	88249.8
311	2.000000	1.147822	7.36811e+06	-54189.1	955.82	-29744.5	0.000000	0.000000	7.152888	114.691	NaN	0.000000	0.001655	0.001657	28.0795	50.8897	0.001828	27842.7	3.625926	-3.376712	111.586	1.147459	0.050514	0.050151	114.691	27842.7	0.047424	0.084618	1355.39	87448.5
311	2.000000	1.150359	7.36811e+06	-54189.1	955.819	-29744.5	0.000000	0.000000	7.155987	128.373	NaN	0.000000	0.001642	0.001683	28.0791	53.126	0.001806	29418.3	2.364251	177.188	125.415	1.150038	0.053050	0.052730	128.373	29418.3	0.049777	0.091725	1399.53	88745.4
311	2.000000	1.152855	7.36811e+06	-54189.1	955.819	-29744.5	0.000000	0.000000	7.158872	137.813	NaN	0.000000	0.001642	0.001700	28.0793	55.2908	0.001837	30094	7.322282	-7.316973	136.731	1.152403	0.055546	0.055095	137.813	30094	0.052112	0.099053	1391.31	87361.5
311	2.000000	1.155341	7.36811e+06	-54189.1	955.819	-29744.5	0.000000	0.000000	7.161862	150.071	NaN	0.000000	0.001648	0.001669	28.0791	56.5505	0.001792	31555.6	6.838921	173.206	151.089	1.155002	0.058032	0.057694	150.071	31555.6	0.054465	0.106713	1406.31	88255.5
311	2.000000	1.157863	7.36811e+06	-54189.1	955.82	-29744.5	0.000000	0.000000	7.164778	159.654	NaN	0.000000	0.001646	0.001688	28.0792	58.9367	0.001710	34470.7	2.917412	-4.402124	158.876	1.157499	0.060554	0.060190	159.654	34470.7	0.057081	0.115549	1381.7	92649
311	2.000000	1.160353	7.36811e+06	-54189.1	955.819	-29744.5	0.000000	0.000000	7.167586	167.364	NaN	0.000000	0.001652	0.001656	28.0789	62.4068	0.001712	36450.8	3.146034	174.505	168.074	1.160133	0.063045	0.062824	167.364	36450.8	0.059601	0.124381	1345.57	94428.4
311	2.000000	1.162852	7.36811e+06	-54189.1	955.819	-29744.5	0.000000	0.000000	7.170900	187.188	NaN	0.000000	0.001644	0.001659	28.0795	63.587	0.001719	37001.5	2.988598	-4.507098	186.05	1.162438	0.065543	0.065129	187.188	37001.5	0.061749	0.132155	1416.43	92993.2
311	2.000000	1.165303	7.36811e+06	-54189.1	955.82	-29744.5	0.000000	0.000000	7.174012	203.246	NaN	0.000000	0.001645	0.001684	28.0803	66.6414	0.001835	36307.8	6.185848	172.053	200.452	1.164865	0.067995	0.067556	203.246	36307.8	0.063796	0.139772	1454.12	88728.6
311	2.000000	1.167719	7.36811e+06	-54189.1	955.819	-29744.5	0.000000	0.000000	7.176978	216.63	NaN	0.000000	0.001623	0.001694	28.0802	67.3016	0.001651	40768	-0.523208	-2.314816	209.595	1.167434	0.070410	0.070125	216.63	40768	0.066425	0.149849	1445.65	96220.1
311	2.000000	1.170309	7.36812e+06	-54189.1	955.822	-29744.5	0.000000	0.000000	7.179733	220.639	NaN	0.000000	0.001617	0.001693	28.0803	71.6735	0.001783	40190.9	0.166572	176.731	217.887	1.170138	0.073000	0.072829	220.639	40190.9	0.068883	0.159573	1382.69	91922.6
311	2.000000	1.172804	7.36812e+06	-54189.1	955.819	-29744.5	0.000000	0.000000	7.183379	248.626	NaN	0.000000	0.001626	0.001672	28.0803	73.9	0.001776	41605.8	3.895549	-6.531055	246.501	1.172447	0.075495	0.075138	248.626	41605.8	0.071013	0.168234	1477.86	92676.8
311	2.000000	1.175332	7.36812e+06	-54189.1	955.819	-29744.5	0.000000	0.000000	7.186471	262.325	NaN	0.000000	0.001645	0.001684	28.0801	76.4137	0.001835	41633.3	3.730004	172.874	263.71	1.175105	0.078023	0.077796	262.325	41633.3	0.073298	0.177761	1475.71	90218.4
311	2.000000	1.177747	7.36812e+06	-54189.1	955.819	-29744.5	0.000000	0.000000	7.189513	277.578	NaN	0.000000	0.001627	0.001681	28.0803	78.3352	0.001764	44411.9	-0.420219	-3.113971	272.765	1.177444	0.080438	0.080136	277.578	44411.9	0.075751	0.188265	1474.41	93516.6
311	2.000000	1.180214	7.36812e+06	-54189.1	955.819	-29744.5	0.000000	0.000000	7.192792	297.305	NaN	0.000000	0.001641	0.001707	28.0805	82.2281	0.001892	43464.1	4.060978	172.981	292.014	1.179941	0.082906	0.082633	297.305	43464.1	0.077775	0.197148	1508.03	89435
311	2.000000	1.182792	7.36812e+06	-54189.1	955.821	-29744.5	0.000000	0.000000	7.195966	311.796	NaN	0.000000	0.001625	0.001685	28.0801	83.0283	0.001841	45106.3	3.502631	-7.061177	309.202	1.182530	0.085484	0.085221	311.796	45106.3	0.080299	0.208489	1495.5	90254.5
311	2.000000	1.185228	7.36812e+06	-54189.1	955.821	-29744.5	0.000000	0.000000	7.198934	324.732	NaN	0.000000	0.001616	0.001701	28.0807	84.5363	0.001751	48276.1	4.808672	171.042	321.735	1.184972	0.087920	0.087663	324.732	48276.1	0.082875	0.220368	1473.59	93957.3
311	2.000000	1.187787	7.36812e+06	-54189.1	955.819	-29744.5	0.000000	0.000000	7.202576	351.071	NaN	0.000000	0.001615	0.001705	28.0803	87.2387	0.001789	48750.9	4.054280	-7.919083	349.535	1.187350	0.090478	0.090042	351.071	48750.9	0.085077	0.230771	1521.3	92718.3
311	2.000000	1.190348	7.36812e+06	-54189.1	955.821	-29744.5	0.000000	0.000000	7.205437	358.374	NaN	0.000000	0.001640	0.001687	28.0807	89.7702	0.001763	50928.6	0.021808	175.389	359.309	1.190132	0.093039	0.092823	358.374	50928.6	0.087761	0.243750	1470.25	94245.9
311	2.000000	1.192795	7.36812e+06	-54189.1	955.82	-29744.5	0.000000	0.000000	7.209045	386.585	NaN	0.000000	0.001609	0.001688	28.0803	92.4047	0.001781	51890.2	4.053275	-7.725693	381.956	1.192324	0.095487	0.095016	386.585	51890.2	0.089899	0.254326	1520.04	94007.6
311	2.000000	1.195324	7.36812e+06	-54189.1	955.82	-29744.5	0.000000	0.000000	7.211958	395.926	NaN	0.000000	0.001620	0.001673	28.081	95.523	0.001808	52832.8	6.023824	169.808	397.781	1.194998	0.098016	0.097690	395.926	52832.8	0.092395	0.266938	1483.21	93426.7
311	2.000000	1.197687	7.36812e+06	-54189.1	955.819	-29744.5	0.000000	0.000000	7.215178	416.771	NaN	0.000000	0.001604	0.001707	28.0791	97.7791	0.001793	54528.2	5.196202	-9.787068	409.352	1.197309	0.100378	0.100000	416.771	54528.2	0.094646	0.278554	1496.19	94393
311	2.000000	1.200236	7.36812e+06	-54189.1	955.819	-29744.5	0.000000	0.000000	7.218686	440.065	NaN	0.000000	0.001550	0.001661	28.0793	100.688	0.001773	56789.6	3.709763	171.598	438.504	1.199980	0.102927	0.102672	440.065	56789.6	0.097116	0.291569	1509.3	96088.5
311	2.000000	1.202855	7.36812e+06	-54189.1	955.819	-29744.5	0.000000	0.000000	7.222231	462.591	NaN	0.000000	0.001594	0.001729	28.0793	102.794	0.001805	56944.4	6.154654	-10.5773	462.579	1.202397	0.105546	0.105089	462.591	56944.4	0.099453	0.304143	1520.97	94337.8
311	2.000000	1.204787	7.36812e+06	-54189.1	955.819	-29744.5	0.000000	0.000000	7.224936	481.385	NaN	0.000000	0.001577	0.001681	28.0796	104.844	0.001848	56737.4	4.331528	-8.895747	480.216	1.204427	0.107478	0.107118	481.385	56737.4	0.101115	0.313231	1536.84	92621.1