File: remote_trans/data/nanoindenter/0828-1/data/Data_2025-08-06,11h17m57s/2025-07-22_16-23-58_1_493.txt
2025-07-22, 16:23:58, 1
Index	Phase	Displacement	Time	Pos X	Pos Y	Pos Z	Rot A	Rot B	Piezo Z	Force A	Force B	Gripper	Voltage A	Voltage B	Temperature	Amplitude force	Amplitude pos	Stiffness	Phase shift	Phase excitation	Force A raw	Displacement raw	HMax	HMax raw	Real Force	Real Stiffness	Contact Depth	Area	Hardness	Reduced Mod.
[#]	[#]	[um]	[s]	[um]	[um]	[um]	[m°]	[m°]	[um]	[uN]	[uN]	[V]	[V]	[V]	[°C]	[uN]	[um]	[N/m]	[°]	[°]	[uN]	[um]	[um]	[um]	[uN]	[N/m]	[um]	[um^2]	[MPa]	[MPa]
493	1.000000	0.002586	7.36988e+06	-52439.1	1005.82	-29749.2	0.000000	0.000000	6.002824	0.036265	NaN	0.000000	0.001609	0.001845	28.0829	0.105649	0.001070	98.732	141.184	-167.921	0.042939	0.001267	-1.062775	-1.064094	0.036265	98.732	-1.063051	-1.598897E+14	-2.268148E-16	NaN
493	1.000000	0.010536	7.36988e+06	-52439.1	1005.82	-29749.2	0.000000	0.000000	6.010773	0.026017	NaN	0.000000	0.001639	0.001804	28.0828	0.050844	0.000852	59.7044	128.091	-163.884	-0.006196	0.009131	-1.054826	-1.056230	0.026017	59.7044	-1.055152	-1.252189E+14	-2.077723E-16	NaN
493	1.000000	0.018534	7.36988e+06	-52439.1	1005.82	-29749.2	0.000000	0.000000	6.018773	0.076648	NaN	0.000000	0.001652	0.001814	28.083	0.039229	0.001589	24.6922	-131.762	-162.726	0.025455	0.017158	-1.046827	-1.048203	0.076648	24.6922	-1.049156	-1.040071E+14	-7.369537E-16	NaN
493	1.000000	0.026530	7.36988e+06	-52439.1	1005.82	-29749.2	0.000000	0.000000	6.026768	0.022285	NaN	0.000000	0.001657	0.001761	28.0833	0.048799	0.001854	26.3229	-159.907	-164.164	-0.006939	0.025209	-1.038831	-1.040152	0.022285	26.3229	-1.039466	-7.705226E+13	-2.892168E-16	NaN
493	1.000000	0.034520	7.36988e+06	-52439.1	1005.82	-29749.2	0.000000	0.000000	6.034758	0.036344	NaN	0.000000	0.001600	0.001794	28.0833	0.039240	0.001806	21.7223	111.015	-167.77	0.066744	0.033161	-1.030841	-1.032200	0.036344	21.7223	-1.032096	-6.132910E+13	-5.926007E-16	NaN
493	1.000000	0.042508	7.36988e+06	-52439.1	1005.82	-29749.3	0.000000	0.000000	6.042744	-0.023088	NaN	0.000000	0.001627	0.001775	28.0836	0.045074	0.002099	21.4761	-144.082	-164.549	-0.095120	0.041207	-1.022853	-1.024154	-0.023088	21.4761	-1.022047	-4.492493E+13	5.139220E-16	NaN
493	1.000000	0.050514	7.36988e+06	-52439.1	1005.82	-29749.3	0.000000	0.000000	6.050749	-0.029506	NaN	0.000000	0.001648	0.001788	28.0834	0.075469	0.002087	36.1598	-145.44	-162.539	-0.034720	0.049158	-1.014847	-1.016203	-0.029506	36.1598	-1.014235	-3.526828E+13	8.366214E-16	NaN
493	1.000000	0.058518	7.36988e+06	-52439.1	1005.82	-29749.3	0.000000	0.000000	6.058752	-0.044626	NaN	0.000000	0.001641	0.001806	28.0823	0.146345	0.001978	73.9842	8.909471	-166.358	-0.015455	0.057202	-1.006843	-1.008159	-0.044626	73.9842	-1.006391	-2.765700E+13	1.613564E-15	NaN
493	1.000000	0.066503	7.36988e+06	-52439.1	1005.82	-29749.3	0.000000	0.000000	6.066741	0.021690	NaN	0.000000	0.001598	0.001820	28.0818	0.065724	0.002092	31.4155	-19.3505	-165.775	0.080224	0.065172	-0.998858	-1.000189	0.021690	31.4155	-0.999376	-2.225165E+13	-9.747511E-16	NaN
493	1.000000	0.074487	7.36988e+06	-52439.1	1005.82	-29749.3	0.000000	0.000000	6.074723	-0.020296	NaN	0.000000	0.001616	0.001780	28.0822	0.114866	0.002004	57.3052	-142.539	-163.953	0.005024	0.073138	-0.990874	-0.992223	-0.020296	57.3052	-0.990609	-1.695539E+13	1.197019E-15	NaN
493	1.000000	0.082498	7.36988e+06	-52439.1	1005.82	-29749.3	0.000000	0.000000	6.082733	-0.055961	NaN	0.000000	0.001610	0.001814	28.0822	0.027417	0.002013	13.6188	179.735	-165.23	0.013473	0.081241	-0.982863	-0.984120	-0.055961	13.6188	-0.979781	-1.211881E+13	4.617735E-15	NaN
493	1.000000	0.090546	7.36988e+06	-52439.1	1005.82	-29749.3	0.000000	0.000000	6.090781	-0.059230	NaN	0.000000	0.001640	0.001807	28.0824	0.071701	0.002015	35.5808	-132.027	-166.483	-0.003216	0.089207	-0.974815	-0.976154	-0.059230	35.5808	-0.973566	-9.993577E+12	5.926776E-15	NaN
493	1.000000	0.098514	7.36988e+06	-52439.1	1005.82	-29749.3	0.000000	0.000000	6.098751	0.017807	NaN	0.000000	0.001634	0.001824	28.0825	0.051167	0.002033	25.1736	120.665	-161.904	-0.097877	0.097206	-0.966847	-0.968155	0.017807	25.1736	-0.967378	-8.247430E+12	-2.159157E-15	NaN
493	1.000000	0.106532	7.36988e+06	-52439.1	1005.82	-29749.3	0.000000	0.000000	6.106765	-0.071201	NaN	0.000000	0.001618	0.001800	28.0822	0.118938	0.001829	65.026	-87.4646	-163.518	-0.068217	0.105228	-0.958829	-0.960133	-0.071201	65.026	-0.958008	-6.166144E+12	1.154717E-14	NaN
493	1.000000	0.114535	7.36988e+06	-52439.1	1005.82	-29749.3	0.000000	0.000000	6.114771	-0.019283	NaN	0.000000	0.001577	0.001768	28.0824	0.070444	0.001927	36.5576	161.265	-163.883	-0.024010	0.113250	-0.950826	-0.952111	-0.019283	36.5576	-0.950430	-4.873362E+12	3.956871E-15	NaN
493	1.000000	0.122547	7.36988e+06	-52439.1	1005.82	-29749.3	0.000000	0.000000	6.122786	0.068371	NaN	0.000000	0.001605	0.001836	28.0823	0.139143	0.002008	69.278	73.3112	-161.696	-0.033087	0.121267	-0.942814	-0.944094	0.068371	69.278	-0.943555	-3.936321E+12	-1.736930E-14	NaN
493	1.000000	0.130566	7.36988e+06	-52439.1	1005.82	-29749.3	0.000000	0.000000	6.130803	-0.003321	NaN	0.000000	0.001614	0.001792	28.0825	0.041197	0.002118	19.4475	20.3158	-164.887	0.020884	0.129242	-0.934795	-0.936119	-0.003321	19.4475	-0.934667	-2.986584E+12	1.111889E-15	NaN
493	1.000000	0.138571	7.36988e+06	-52439.1	1005.82	-29749.3	0.000000	0.000000	6.138807	-0.022608	NaN	0.000000	0.001607	0.001804	28.0824	0.068239	0.001980	34.4585	77.6931	-163.416	0.022761	0.137265	-0.926790	-0.928096	-0.022608	34.4585	-0.926298	-2.302652E+12	9.818440E-15	NaN
493	1.000000	0.146536	7.36988e+06	-52439.1	1005.82	-29749.3	0.000000	0.000000	6.146771	-0.032423	NaN	0.000000	0.001616	0.001754	28.0822	0.140132	0.001902	73.6839	-122.301	-165.785	0.008427	0.145209	-0.918825	-0.920152	-0.032423	73.6839	-0.918495	-1.806710E+12	1.794598E-14	NaN
493	1.000000	0.154552	7.36988e+06	-52439.1	1005.82	-29749.3	0.000000	0.000000	6.154788	-0.000898	NaN	0.000000	0.001623	0.001780	28.0822	0.082129	0.001943	42.2786	-153.362	-163.673	0.009439	0.153227	-0.910809	-0.912134	-0.000898	42.2786	-0.910793	-1.421937E+12	6.314838E-16	NaN
493	1.000000	0.162554	7.36988e+06	-52439.1	1005.82	-29749.3	0.000000	0.000000	6.162790	-0.016403	NaN	0.000000	0.001627	0.001786	28.082	0.066619	0.001998	33.3444	179.807	-165.669	0.057545	0.161254	-0.902807	-0.904107	-0.016403	33.3444	-0.902438	-1.096504E+12	1.495914E-14	NaN
493	1.000000	0.170585	7.36988e+06	-52439.1	1005.82	-29749.3	0.000000	0.000000	6.170821	-0.004648	NaN	0.000000	0.001621	0.001766	28.0822	0.119238	0.001993	59.8233	-154.314	-164.578	-0.025901	0.169254	-0.894776	-0.896107	-0.004648	59.8233	-0.894718	-8.623537E+11	5.390457E-15	NaN
493	1.000000	0.178554	7.36988e+06	-52439.1	1005.82	-29749.3	0.000000	0.000000	6.178792	0.039540	NaN	0.000000	0.001618	0.001812	28.0821	0.014854	0.001995	7.445049	-57.9508	-166.196	0.030509	0.177181	-0.886807	-0.888180	0.039540	7.445049	-0.890790	-7.631239E+11	-5.181307E-14	NaN
493	1.000000	0.186559	7.36988e+06	-52439.1	1005.82	-29749.3	0.000000	0.000000	6.186797	0.012792	NaN	0.000000	0.001655	0.001786	28.0821	0.099966	0.002117	47.2102	-51.0693	-165.417	0.095255	0.185284	-0.878802	-0.880077	0.012792	47.2102	-0.879005	-5.287504E+11	-2.419272E-14	NaN
493	1.000000	0.194574	7.36988e+06	-52439.1	1005.82	-29749.3	0.000000	0.000000	6.194812	0.020154	NaN	0.000000	0.001591	0.001800	28.0835	0.089345	0.001990	44.8867	173.48	-166.045	0.039439	0.193244	-0.870787	-0.872117	0.020154	44.8867	-0.871123	-4.136591E+11	-4.872106E-14	NaN
493	1.000000	0.202585	7.36988e+06	-52439.1	1005.82	-29749.3	0.000000	0.000000	6.202820	-0.051454	NaN	0.000000	0.001578	0.001782	28.0832	0.020627	0.002015	10.2381	-157.573	-161.043	0.073386	0.201269	-0.862776	-0.864092	-0.051454	10.2381	-0.859007	-2.835803E+11	1.814433E-13	NaN
493	1.000000	0.210590	7.36988e+06	-52439.1	1005.82	-29749.3	0.000000	0.000000	6.210827	0.001667	NaN	0.000000	0.001587	0.001805	28.0831	0.191291	0.002060	92.8509	87.6775	-163.687	-0.007190	0.209276	-0.854771	-0.856085	0.001667	92.8509	-0.854784	-2.486081E+11	-6.705476E-15	NaN
493	1.000000	0.218566	7.36988e+06	-52439.1	1005.82	-29749.3	0.000000	0.000000	6.218804	0.040788	NaN	0.000000	0.001611	0.001756	28.083	0.046583	0.002105	22.1269	-139.718	-164.758	0.010459	0.217312	-0.846795	-0.848050	0.040788	22.1269	-0.848178	-2.023304E+11	-2.015892E-13	NaN
493	1.000000	0.226556	7.36988e+06	-52439.1	1005.82	-29749.3	0.000000	0.000000	6.226796	0.082266	NaN	0.000000	0.001587	0.001778	28.0827	0.105625	0.001998	52.8634	-170.103	-166.305	0.030438	0.225290	-0.838805	-0.840071	0.082266	52.8634	-0.839972	-1.566441E+11	-5.251749E-13	NaN
493	1.000000	0.234591	7.36988e+06	-52439.1	1005.82	-29749.3	0.000000	0.000000	6.234827	-0.024555	NaN	0.000000	0.001607	0.001783	28.0832	0.053807	0.001966	27.3715	16.5837	-164.46	-0.045849	0.233287	-0.830770	-0.832074	-0.024555	27.3715	-0.830097	-1.151071E+11	2.133204E-13	NaN
493	1.000000	0.242607	7.36988e+06	-52439.1	1005.82	-29749.3	0.000000	0.000000	6.242840	-0.090595	NaN	0.000000	0.001578	0.001828	28.0829	0.081133	0.001882	43.1089	-114.384	-164.379	-0.014726	0.241241	-0.822754	-0.824120	-0.090595	43.1089	-0.821178	-8.713412E+10	1.039717E-12	NaN
493	1.000000	0.250593	7.36988e+06	-52439.1	1005.82	-29749.3	0.000000	0.000000	6.250829	-0.003863	NaN	0.000000	0.001594	0.001802	28.0832	0.102717	0.002008	51.1449	-108.485	-164.243	-0.063858	0.249283	-0.814768	-0.816078	-0.003863	51.1449	-0.814712	-7.120118E+10	5.425689E-14	NaN
493	1.000000	0.258581	7.36988e+06	-52439.1	1005.82	-29749.3	0.000000	0.000000	6.258819	0.021777	NaN	0.000000	0.001563	0.001790	28.0837	0.062454	0.001909	32.721	-169.951	-166.609	0.053012	0.257259	-0.806780	-0.808102	0.021777	32.721	-0.807279	-5.644870E+10	-3.857924E-13	NaN
493	1.000000	0.266587	7.36988e+06	-52439.1	1005.82	-29749.3	0.000000	0.000000	6.266825	0.021167	NaN	0.000000	0.001562	0.001810	28.0833	0.147746	0.002118	69.7666	-105.063	-163.356	0.057368	0.265278	-0.798774	-0.800083	0.021167	69.7666	-0.799001	-4.358191E+10	-4.856886E-13	NaN
493	1.000000	0.274579	7.36988e+06	-52439.1	1005.82	-29749.3	0.000000	0.000000	6.274815	-0.017493	NaN	0.000000	0.001579	0.001755	28.0833	0.013004	0.002004	6.488615	52.6843	-164.71	0.025108	0.273314	-0.790782	-0.792047	-0.017493	6.488615	-0.788760	-3.164081E+10	5.528516E-13	NaN
493	1.000000	0.282612	7.36988e+06	-52439.1	1005.82	-29749.3	0.000000	0.000000	6.282847	-0.032107	NaN	0.000000	0.001609	0.001772	28.0831	0.025733	0.001938	13.2751	22.3536	-165.565	-0.036141	0.281304	-0.782749	-0.784057	-0.032107	13.2751	-0.780935	-2.477061E+10	1.296183E-12	NaN
493	1.000000	0.290595	7.36988e+06	-52439.1	1005.82	-29749.3	0.000000	0.000000	6.290828	-0.096706	NaN	0.000000	0.001518	0.001799	28.0833	0.044705	0.001965	22.7524	31.5114	-163.538	-0.067759	0.289298	-0.774766	-0.776063	-0.096706	22.7524	-0.771578	-1.848239E+10	5.232339E-12	NaN
493	1.000000	0.298627	7.36988e+06	-52439.1	1005.82	-29749.3	0.000000	0.000000	6.298861	-0.074863	NaN	0.000000	0.001557	0.001764	28.0833	0.125580	0.001990	63.1065	120.202	-162.224	-0.025385	0.297252	-0.766734	-0.768109	-0.074863	63.1065	-0.765844	-1.544524E+10	4.847025E-12	NaN
493	1.000000	0.306612	7.36988e+06	-52439.1	1005.82	-29749.3	0.000000	0.000000	6.306848	-0.027394	NaN	0.000000	0.001579	0.001796	28.0832	0.025716	0.002168	11.8644	-171.261	-164.581	0.048488	0.305331	-0.758749	-0.760030	-0.027394	11.8644	-0.757017	-1.171435E+10	2.338475E-12	NaN
493	1.000000	0.314618	7.36988e+06	-52439.1	1005.82	-29749.3	0.000000	0.000000	6.314856	0.032133	NaN	0.000000	0.001610	0.001780	28.0833	0.103912	0.002143	48.4814	-66.6128	-163.698	0.037534	0.313329	-0.750743	-0.752032	0.032133	48.4814	-0.751240	-9.774491E+9	-3.287481E-12	NaN
493	1.000000	0.322619	7.36988e+06	-52439.1	1005.82	-29749.3	0.000000	0.000000	6.322857	0.025941	NaN	0.000000	0.001597	0.001804	28.0832	0.042314	0.002017	20.9753	-92.9886	-164.597	-0.001960	0.321297	-0.742742	-0.744064	0.025941	20.9753	-0.743669	-7.709519E+9	-3.364803E-12	NaN
493	1.000000	0.330638	7.36988e+06	-52439.1	1005.82	-29749.3	0.000000	0.000000	6.330875	0.012600	NaN	0.000000	0.001624	0.001787	28.0822	0.011681	0.002019	5.786656	-38.923	-162.065	0.050300	0.329337	-0.734723	-0.736024	0.012600	5.786656	-0.736356	-6.129468E+9	-2.055619E-12	NaN
493	1.000000	0.338627	7.36988e+06	-52439.1	1005.82	-29749.3	0.000000	0.000000	6.338864	0.019048	NaN	0.000000	0.001570	0.001786	28.0821	0.006810	0.001994	3.415077	-123.089	-166.062	0.027103	0.337376	-0.726734	-0.727985	0.019048	3.415077	-0.730917	-5.167876E+9	-3.685757E-12	NaN
493	1.000000	0.346651	7.36988e+06	-52439.1	1005.82	-29749.3	0.000000	0.000000	6.346888	0.003916	NaN	0.000000	0.001587	0.001794	28.0822	0.020569	0.002070	9.938123	-115.762	-169.534	-0.059522	0.345362	-0.718710	-0.719999	0.003916	9.938123	-0.719005	-3.555570E+9	-1.101276E-12	NaN
493	1.000000	0.354675	7.36988e+06	-52439.1	1005.82	-29749.3	0.000000	0.000000	6.354911	-0.014567	NaN	0.000000	0.001599	0.001802	28.082	0.128029	0.002091	61.2296	19.3103	-162.291	-0.004970	0.353345	-0.710686	-0.712016	-0.014567	61.2296	-0.710507	-2.722537E+9	5.350569E-12	NaN
493	1.000000	0.362625	7.36988e+06	-52439.1	1005.82	-29749.3	0.000000	0.000000	6.362862	0.001475	NaN	0.000000	0.001581	0.001806	28.082	0.093712	0.002001	46.8269	22.2265	-162.126	0.023806	0.361376	-0.702736	-0.703985	0.001475	46.8269	-0.702759	-2.134072E+9	-6.913169E-13	NaN
493	1.000000	0.370653	7.36988e+06	-52439.1	1005.82	-29749.3	0.000000	0.000000	6.370893	0.086142	NaN	0.000000	0.001619	0.001823	28.082	0.041762	0.001970	21.1947	-82.7325	-167.316	-0.025984	0.369369	-0.694709	-0.695992	0.086142	21.1947	-0.697757	-1.823450E+9	-4.724142E-11	NaN
493	1.000000	0.378602	7.36988e+06	-52439.1	1005.82	-29749.3	0.000000	0.000000	6.378842	0.067805	NaN	0.000000	0.001589	0.001813	28.082	0.018524	0.001969	9.406926	-36.9368	-164.442	0.019140	0.377320	-0.686759	-0.688041	0.067805	9.406926	-0.692165	-1.529326E+9	-4.433641E-11	NaN
493	1.000000	0.386642	7.36988e+06	-52439.1	1005.82	-29749.3	0.000000	0.000000	6.386880	0.023260	NaN	0.000000	0.001600	0.001799	28.0821	0.078900	0.002089	37.7666	146.959	-163.071	0.051695	0.385311	-0.678719	-0.680050	0.023260	37.7666	-0.679181	-1.016246E+9	-2.288784E-11	NaN
493	1.000000	0.394644	7.36988e+06	-52439.1	1005.82	-29749.3	0.000000	0.000000	6.394881	-0.010770	NaN	0.000000	0.001597	0.001810	28.0819	0.089976	0.001986	45.2961	-174.249	-166.903	0.005292	0.393355	-0.670717	-0.672006	-0.010770	45.2961	-0.670538	-7.740290E+8	1.391416E-11	NaN
493	1.000000	0.402641	7.36988e+06	-52439.1	1005.82	-29749.3	0.000000	0.000000	6.402874	-0.075764	NaN	0.000000	0.001571	0.001793	28.0821	0.039016	0.002003	19.4766	179.947	-162.239	-0.004869	0.401361	-0.662721	-0.664000	-0.075764	19.4766	-0.659803	-5.517855E+8	1.373077E-10	NaN
493	1.000000	0.410672	7.36988e+06	-52439.1	1005.82	-29749.3	0.000000	0.000000	6.410907	-0.046269	NaN	0.000000	0.001592	0.001801	28.0819	0.082423	0.001995	41.3249	65.0848	-161.288	-0.000674	0.409369	-0.654689	-0.655992	-0.046269	41.3249	-0.653849	-4.572923E+8	1.011807E-10	NaN
493	1.000000	0.418668	7.36988e+06	-52439.1	1005.82	-29749.3	0.000000	0.000000	6.418905	0.009981	NaN	0.000000	0.001568	0.001801	28.082	0.082039	0.001880	43.649	8.892856	-164.374	-0.043645	0.417368	-0.646693	-0.647993	0.009981	43.649	-0.646864	-3.668145E+8	-2.720896E-11	NaN
493	1.000000	0.426653	7.36988e+06	-52439.1	1005.82	-29749.3	0.000000	0.000000	6.426886	-0.089078	NaN	0.000000	0.001601	0.001807	28.082	0.123073	0.001909	64.4779	114.931	-164.351	-0.067496	0.425352	-0.638708	-0.640009	-0.089078	64.4779	-0.637671	-2.743708E+8	3.246645E-10	NaN
493	1.000000	0.434699	7.36988e+06	-52439.1	1005.82	-29749.3	0.000000	0.000000	6.434936	0.022073	NaN	0.000000	0.001596	0.001838	28.0818	0.118532	0.001976	59.9948	-29.4517	-164.783	-0.003962	0.433357	-0.630662	-0.632004	0.022073	59.9948	-0.630938	-2.217728E+8	-9.953008E-11	NaN
493	1.000000	0.442664	7.36988e+06	-52439.1	1005.82	-29749.3	0.000000	0.000000	6.442900	0.002036	NaN	0.000000	0.001589	0.001822	28.0826	0.070839	0.002049	34.5727	173.355	-167.852	-0.029981	0.441374	-0.622697	-0.623987	0.002036	34.5727	-0.622742	-1.711247E+8	-1.189960E-11	NaN
493	1.000000	0.450675	7.36988e+06	-52439.1	1005.82	-29749.3	0.000000	0.000000	6.450912	0.014209	NaN	0.000000	0.001618	0.001796	28.0817	0.050288	0.001985	25.3307	-137.984	-163.93	0.013534	0.449410	-0.614686	-0.615951	0.014209	25.3307	-0.615106	-1.343862E+8	-1.057310E-10	NaN
493	1.000000	0.458684	7.36988e+06	-52439.1	1005.82	-29749.3	0.000000	0.000000	6.458922	0.046553	NaN	0.000000	0.001628	0.001817	28.0819	0.050943	0.001945	26.1891	88.6087	-163.538	0.065820	0.457391	-0.606677	-0.607970	0.046553	26.1891	-0.608010	-1.073342E+8	-4.337232E-10	NaN
493	1.000000	0.466684	7.36988e+06	-52439.1	1005.82	-29749.3	0.000000	0.000000	6.466920	-0.013628	NaN	0.000000	0.001630	0.001866	28.083	0.036618	0.002065	17.7294	144.379	-167.747	0.028125	0.465359	-0.598677	-0.600002	-0.013628	17.7294	-0.598101	-7.839701E+7	1.738337E-10	NaN
493	1.000000	0.474707	7.36988e+06	-52439.1	1005.82	-29749.3	0.000000	0.000000	6.474943	-0.020284	NaN	0.000000	0.001608	0.001811	28.083	0.047952	0.002135	22.4617	151.819	-162.855	-0.011501	0.473372	-0.590654	-0.591989	-0.020284	22.4617	-0.589976	-6.058174E+7	3.348222E-10	NaN
493	1.000000	0.482700	7.36988e+06	-52439.1	1005.82	-29749.3	0.000000	0.000000	6.482939	0.062000	NaN	0.000000	0.001590	0.001831	28.0834	0.101602	0.001924	52.7965	107.258	-167.053	0.062657	0.481405	-0.582661	-0.583956	0.062000	52.7965	-0.583542	-4.938510E+7	-1.255436E-9	NaN
493	1.000000	0.490710	7.36988e+06	-52439.1	1005.82	-29749.3	0.000000	0.000000	6.490947	-0.011537	NaN	0.000000	0.001615	0.001842	28.083	0.035111	0.002048	17.1436	115.387	-166.639	-0.029077	0.489385	-0.574651	-0.575976	-0.011537	17.1436	-0.574146	-3.663561E+7	3.148986E-10	NaN
493	1.000000	0.498670	7.36988e+06	-52439.1	1005.82	-29749.3	0.000000	0.000000	6.498905	-0.039476	NaN	0.000000	0.001632	0.001835	28.0836	0.097872	0.001934	50.6149	-60.9566	-163.461	0.038381	0.497358	-0.566691	-0.568003	-0.039476	50.6149	-0.566106	-2.836699E+7	1.391603E-9	NaN
493	1.000000	0.506667	7.36988e+06	-52439.1	1005.82	-29749.3	0.000000	0.000000	6.506902	-0.043817	NaN	0.000000	0.001615	0.001822	28.0832	0.026108	0.002099	12.4411	46.859	-164.603	-0.024666	0.505379	-0.558694	-0.559982	-0.043817	12.4411	-0.556052	-2.059462E+7	2.127585E-9	NaN
493	1.000000	0.514708	7.36988e+06	-52439.1	1005.82	-29749.3	0.000000	0.000000	6.514944	0.005695	NaN	0.000000	0.001599	0.001839	28.0831	0.040865	0.002005	20.3859	-154.282	-159.189	-0.022712	0.513366	-0.550653	-0.551995	0.005695	20.3859	-0.550863	-1.745452E+7	-3.262843E-10	NaN
493	1.000000	0.522726	7.36988e+06	-52439.1	1005.82	-29749.3	0.000000	0.000000	6.522964	0.010568	NaN	0.000000	0.001588	0.001797	28.0833	0.100514	0.001973	50.9342	-108.675	-163.454	-0.042724	0.521401	-0.542635	-0.543960	0.010568	50.9342	-0.542790	-1.349112E+7	-7.833056E-10	NaN
493	1.000000	0.530668	7.36988e+06	-52439.1	1005.82	-29749.3	0.000000	0.000000	6.530905	0.012404	NaN	0.000000	0.001633	0.001799	28.0829	0.034610	0.001995	17.347	95.094	-166.722	0.025189	0.529444	-0.534693	-0.535917	0.012404	17.347	-0.535230	-1.059689E+7	-1.170515E-9	NaN
493	1.000000	0.538739	7.36988e+06	-52439.1	1005.82	-29749.3	0.000000	0.000000	6.538974	-0.046027	NaN	0.000000	0.001604	0.001816	28.0834	0.097677	0.001884	51.8414	-72.2796	-165.593	0.043601	0.537433	-0.526622	-0.527928	-0.046027	51.8414	-0.525956	-7.87757e+06	5.842846E-9	NaN
493	1.000000	0.546731	7.36988e+06	-52439.1	1005.82	-29749.3	0.000000	0.000000	6.546969	0.033526	NaN	0.000000	0.001601	0.001823	28.0831	0.055378	0.002083	26.5856	-83.321	-165.329	-0.019844	0.545392	-0.518630	-0.519969	0.033526	26.5856	-0.519576	-6.42237e+06	-5.220210E-9	NaN
493	1.000000	0.554734	7.36988e+06	-52439.1	1005.82	-29749.3	0.000000	0.000000	6.554970	0.002315	NaN	0.000000	0.001594	0.001819	28.0833	0.115489	0.001924	60.0201	150.733	-160.453	-0.028598	0.553411	-0.510627	-0.511950	0.002315	60.0201	-0.510656	-4.82567e+06	-4.797136E-10	NaN
493	1.000000	0.562739	7.36988e+06	-52439.1	1005.82	-29749.3	0.000000	0.000000	6.562975	-0.008996	NaN	0.000000	0.001587	0.001795	28.0832	0.088348	0.001977	44.6988	-157.91	-163.958	0.023933	0.561419	-0.502622	-0.503942	-0.008996	44.6988	-0.502471	-3.71097e+06	2.424222E-9	NaN
493	1.000000	0.570715	7.36988e+06	-52439.1	1005.82	-29749.3	0.000000	0.000000	6.570952	0.025295	NaN	0.000000	0.001589	0.001825	28.0832	0.147951	0.002041	72.4768	-142.043	-165.04	-0.003974	0.569440	-0.494646	-0.495921	0.025295	72.4768	-0.494908	-2.91038e+06	-8.691157E-9	NaN
493	1.000000	0.578725	7.36988e+06	-52439.1	1005.82	-29749.3	0.000000	0.000000	6.578960	-0.038028	NaN	0.000000	0.001570	0.001822	28.0833	0.105146	0.001967	53.4486	166.892	-161.999	-0.017938	0.577395	-0.486636	-0.487966	-0.038028	53.4486	-0.486103	-2.19235e+06	1.734587E-8	NaN
493	1.000000	0.586746	7.36988e+06	-52439.1	1005.82	-29749.3	0.000000	0.000000	6.586984	0.025134	NaN	0.000000	0.001595	0.001806	28.0832	0.045205	0.002127	21.2522	78.4031	-166.258	0.018056	0.585412	-0.478615	-0.479949	0.025134	21.2522	-0.479502	-1.77237e+06	-1.418101E-8	NaN
493	1.000000	0.594746	7.36988e+06	-52439.1	1005.82	-29749.3	0.000000	0.000000	6.594984	0.013263	NaN	0.000000	0.001648	0.001774	28.0835	0.035110	0.002111	16.6285	-19.1391	-165.734	-0.013416	0.593419	-0.470615	-0.471942	0.013263	16.6285	-0.471213	-1.35649e+06	-9.777331E-9	NaN
493	1.000000	0.602720	7.36988e+06	-52439.1	1005.82	-29749.3	0.000000	0.000000	6.602956	-0.013037	NaN	0.000000	0.001594	0.001802	28.0821	0.075172	0.002028	37.071	-177.893	-166.207	-0.087491	0.601383	-0.462641	-0.463978	-0.013037	37.071	-0.462377	-1.01957e+06	1.278655E-8	NaN
493	1.000000	0.610733	7.36988e+06	-52439.1	1005.82	-29749.3	0.000000	0.000000	6.610970	0.013822	NaN	0.000000	0.001553	0.001812	28.0823	0.042888	0.001968	21.7923	-175.43	-163.48	0.044330	0.609426	-0.454628	-0.455935	0.013822	21.7923	-0.455104	-805709	-1.715491E-8	NaN
493	1.000000	0.618751	7.36988e+06	-52439.1	1005.82	-29749.3	0.000000	0.000000	6.618988	-0.000159	NaN	0.000000	0.001576	0.001819	28.082	0.037413	0.002050	18.2497	-96.6091	-161.078	-0.006692	0.617338	-0.446610	-0.448023	-0.000159	18.2497	-0.446604	-611639	2.591807E-10	NaN
493	1.000000	0.626783	7.36988e+06	-52439.1	1005.82	-29749.3	0.000000	0.000000	6.627018	-0.029390	NaN	0.000000	0.001610	0.001749	28.0821	0.070063	0.002023	34.6352	87.7448	-165.132	0.008347	0.625420	-0.438578	-0.439941	-0.029390	34.6352	-0.437942	-461642	6.366356E-8	NaN
493	1.000000	0.634755	7.36988e+06	-52439.1	1005.82	-29749.3	0.000000	0.000000	6.634993	0.021425	NaN	0.000000	0.001621	0.001768	28.0822	0.088540	0.001941	45.6109	66.0727	-166.541	-0.028382	0.633458	-0.430606	-0.431903	0.021425	45.6109	-0.430958	-367801	-5.825151E-8	NaN
493	1.000000	0.642758	7.36988e+06	-52439.1	1005.82	-29749.3	0.000000	0.000000	6.642993	-0.041680	NaN	0.000000	0.001596	0.001754	28.0821	0.052206	0.001987	26.2776	-24.1655	-163.337	-0.026484	0.641476	-0.422603	-0.423885	-0.041680	26.2776	-0.421413	-269433	1.546966E-7	NaN
493	1.000000	0.650766	7.36988e+06	-52439.1	1005.82	-29749.3	0.000000	0.000000	6.651002	-0.003758	NaN	0.000000	0.001608	0.001794	28.0823	0.108356	0.002140	50.6226	-89.5075	-165.297	0.009531	0.649474	-0.414595	-0.415887	-0.003758	50.6226	-0.414539	-215235	1.745781E-8	NaN
493	1.000000	0.658758	7.36988e+06	-52439.1	1005.82	-29749.3	0.000000	0.000000	6.658994	-0.000819	NaN	0.000000	0.001577	0.001782	28.0821	0.077724	0.001904	40.8279	-52.0965	-163.411	-0.035964	0.657458	-0.406604	-0.407903	-0.000819	40.8279	-0.406588	-165907	4.938928E-9	NaN
493	1.000000	0.666781	7.36988e+06	-52439.1	1005.82	-29749.3	0.000000	0.000000	6.667017	-0.004120	NaN	0.000000	0.001577	0.001820	28.0824	0.069064	0.001997	34.5796	82.7227	-163.589	-0.013670	0.665463	-0.398580	-0.399898	-0.004120	34.5796	-0.398491	-127195	3.239421E-8	NaN
493	1.000000	0.674785	7.36988e+06	-52439.1	1005.82	-29749.3	0.000000	0.000000	6.675023	0.024827	NaN	0.000000	0.001598	0.001824	28.0821	0.009903	0.002032	4.873403	103.811	-164.88	0.048026	0.673492	-0.390576	-0.391869	0.024827	4.873403	-0.394397	-111178	-2.233065E-7	NaN
493	1.000000	0.682781	7.36988e+06	-52439.1	1005.82	-29749.3	0.000000	0.000000	6.683019	0.043186	NaN	0.000000	0.001608	0.001807	28.082	0.045830	0.002056	22.2885	172.433	-164.856	-0.000284	0.681427	-0.382580	-0.383934	0.043186	22.2885	-0.384034	-79020.1	-5.465183E-7	NaN
493	1.000000	0.690793	7.36988e+06	-52439.1	1005.82	-29749.3	0.000000	0.000000	6.691031	0.036740	NaN	0.000000	0.001567	0.001814	28.082	0.045917	0.002131	21.5515	56.0769	-163.65	0.048823	0.689436	-0.374568	-0.375925	0.036740	21.5515	-0.375846	-60288.7	-6.093968E-7	NaN
493	1.000000	0.698763	7.36988e+06	-52439.1	1005.82	-29749.3	0.000000	0.000000	6.699000	-0.002625	NaN	0.000000	0.001586	0.001809	28.0821	0.066529	0.002021	32.9157	-77.5519	-166.666	0.045619	0.697516	-0.366598	-0.367846	-0.002625	32.9157	-0.366538	-44283.2	5.926709E-8	NaN
493	1.000000	0.706784	7.36988e+06	-52439.1	1005.82	-29749.3	0.000000	0.000000	6.707023	0.055639	NaN	0.000000	0.001602	0.001810	28.0823	0.066353	0.001998	33.203	141.299	-168.072	0.071304	0.705409	-0.358577	-0.359952	0.055639	33.203	-0.359834	-35435.8	-1.570140E-6	NaN
493	1.000000	0.714785	7.36988e+06	-52439.1	1005.82	-29749.3	0.000000	0.000000	6.715020	-0.032530	NaN	0.000000	0.001554	0.001823	28.082	0.016113	0.002063	7.810741	-0.502373	-163.115	-0.014275	0.713452	-0.350577	-0.351909	-0.032530	7.810741	-0.347453	-23443.1	1.387598E-6	NaN
493	1.000000	0.722782	7.36988e+06	-52439.1	1005.82	-29749.3	0.000000	0.000000	6.723020	0.035800	NaN	0.000000	0.001552	0.001791	28.082	0.033784	0.002002	16.874	-119.558	-165.351	0.013676	0.721506	-0.342579	-0.343855	0.035800	16.874	-0.344170	-21003	-1.704522E-6	NaN
493	1.000000	0.730825	7.36988e+06	-52439.1	1005.82	-29749.3	0.000000	0.000000	6.731060	-0.043239	NaN	0.000000	0.001561	0.001801	28.0822	0.006235	0.001888	3.302243	74.0864	-166.795	0.055828	0.729536	-0.334536	-0.335825	-0.043239	3.302243	-0.324715	-10913.4	3.961995E-6	NaN
493	1.000000	0.738808	7.36988e+06	-52439.1	1005.82	-29749.3	0.000000	0.000000	6.739041	-0.069104	NaN	0.000000	0.001559	0.001820	28.0833	0.039641	0.001906	20.7932	-147.548	-161.586	-0.052944	0.737482	-0.326554	-0.327879	-0.069104	20.7932	-0.324061	-10674.5	6.473791E-6	NaN
493	1.000000	0.746822	7.36988e+06	-52439.1	1005.82	-29749.3	0.000000	0.000000	6.747058	-0.000449	NaN	0.000000	0.001538	0.001795	28.0832	0.036204	0.002061	17.5681	-134.411	-164.615	0.067100	0.745468	-0.318539	-0.319893	-0.000449	17.5681	-0.318520	-8848.05	5.075382E-8	NaN
493	1.000000	0.754815	7.36988e+06	-52439.1	1005.82	-29749.3	0.000000	0.000000	6.755052	0.005733	NaN	0.000000	0.001569	0.001780	28.0834	0.055103	0.002007	27.4547	119.437	-166.183	-0.044333	0.753501	-0.310546	-0.311860	0.005733	27.4547	-0.310703	-6783.45	-8.450814E-7	NaN
493	1.000000	0.762803	7.36988e+06	-52439.1	1005.82	-29749.3	0.000000	0.000000	6.763040	0.001084	NaN	0.000000	0.001566	0.001767	28.0836	0.080865	0.002012	40.1885	163.382	-161.57	0.017250	0.761482	-0.302558	-0.303879	0.001084	40.1885	-0.302578	-5140.3	-2.109647E-7	NaN
493	1.000000	0.770832	7.36988e+06	-52439.1	1005.82	-29749.3	0.000000	0.000000	6.771069	0.010549	NaN	0.000000	0.001574	0.001793	28.0835	0.018393	0.001983	9.277382	135.713	-168.552	0.045269	0.769531	-0.294529	-0.295830	0.010549	9.277382	-0.295382	-4015.95	-2.626824E-6	NaN
493	1.000000	0.778812	7.36988e+06	-52439.1	1005.82	-29749.3	0.000000	0.000000	6.779049	0.003478	NaN	0.000000	0.001557	0.001797	28.0832	0.020525	0.001873	10.9589	-96.4285	-167.154	-0.006209	0.777505	-0.286549	-0.287856	0.003478	10.9589	-0.286787	-2986.15	-1.164638E-6	NaN
493	1.000000	0.786830	7.36988e+06	-52439.1	1005.82	-29749.3	0.000000	0.000000	6.787066	-0.011813	NaN	0.000000	0.001565	0.001807	28.0833	0.101686	0.002007	50.6546	-141.552	-165.414	0.017303	0.785534	-0.278532	-0.279827	-0.011813	50.6546	-0.278357	-2229.27	5.298992E-6	NaN
493	1.000000	0.794812	7.36988e+06	-52439.1	1005.82	-29749.3	0.000000	0.000000	6.795053	0.109560	NaN	0.000000	0.001605	0.001748	28.0837	0.105449	0.002000	52.7345	15.4218	-163.306	0.123235	0.793521	-0.270549	-0.271840	0.109560	52.7345	-0.272107	-1792.86	-6.110932E-5	NaN
493	1.000000	0.802800	7.36988e+06	-52439.1	1005.82	-29749.3	0.000000	0.000000	6.803038	0.050996	NaN	0.000000	0.001601	0.001797	28.0837	0.094692	0.002004	47.2464	-53.9263	-165.057	-0.011768	0.801483	-0.262561	-0.263878	0.050996	47.2464	-0.263371	-1319.8	-3.863887E-5	NaN
493	1.000000	0.810842	7.36988e+06	-52439.1	1005.82	-29749.3	0.000000	0.000000	6.811083	0.099416	NaN	0.000000	0.001546	0.001771	28.0835	0.096346	0.001925	50.0566	-118.425	-168.057	0.039463	0.809544	-0.254519	-0.255817	0.099416	50.0566	-0.256008	-1017.72	-9.768480E-5	NaN
493	1.000000	0.818830	7.36988e+06	-52439.1	1005.82	-29749.3	0.000000	0.000000	6.819068	0.039410	NaN	0.000000	0.001586	0.001762	28.0831	0.072399	0.002079	34.8217	-61.6336	-162.998	0.069989	0.817560	-0.246531	-0.247801	0.039410	34.8217	-0.247380	-748.853	-5.262703E-5	NaN
493	1.000000	0.826832	7.36988e+06	-52439.1	1005.82	-29749.3	0.000000	0.000000	6.827069	0.005063	NaN	0.000000	0.001565	0.001790	28.0835	0.074554	0.001975	37.7484	-79.4515	-168.023	-0.091071	0.825522	-0.238529	-0.239840	0.005063	37.7484	-0.238630	-547.189	-9.252244E-6	NaN
493	1.000000	0.834848	7.36988e+06	-52439.1	1005.82	-29749.3	0.000000	0.000000	6.835082	-0.074563	NaN	0.000000	0.001581	0.001766	28.0832	0.080027	0.002158	37.0876	178.367	-164.252	-0.082024	0.833576	-0.230513	-0.231785	-0.074563	37.0876	-0.229005	-386.186	0.000193	NaN
493	1.000000	0.842845	7.36988e+06	-52439.1	1005.82	-29749.3	0.000000	0.000000	6.843083	0.034947	NaN	0.000000	0.001560	0.001796	28.0833	0.075962	0.001928	39.4032	-54.1651	-165.983	0.059097	0.841538	-0.222516	-0.223823	0.034947	39.4032	-0.223182	-312.191	-0.000112	NaN
493	1.000000	0.850844	7.36988e+06	-52439.1	1005.82	-29749.3	0.000000	0.000000	6.851080	-0.012106	NaN	0.000000	0.001582	0.001770	28.0834	0.084178	0.001943	43.3334	-16.2591	-161.807	-0.040796	0.849566	-0.214517	-0.215795	-0.012106	43.3334	-0.214308	-225.1	5.378038E-5	NaN
493	1.000000	0.858855	7.36988e+06	-52439.1	1005.82	-29749.3	0.000000	0.000000	6.859091	-0.024760	NaN	0.000000	0.001580	0.001802	28.0836	0.046152	0.002013	22.931	-152.29	-164.498	-0.119986	0.857530	-0.206506	-0.207831	-0.024760	22.931	-0.205696	-163.271	0.000152	NaN
493	1.000000	0.866856	7.36988e+06	-52439.1	1005.82	-29749.3	0.000000	0.000000	6.867093	0.025268	NaN	0.000000	0.001548	0.001753	28.0834	0.061639	0.001951	31.595	94.2435	-165.339	-0.001232	0.865493	-0.198505	-0.199868	0.025268	31.595	-0.199105	-127.345	-0.000198	NaN
493	1.000000	0.874867	7.36988e+06	-52439.1	1005.82	-29749.3	0.000000	0.000000	6.875103	-0.012025	NaN	0.000000	0.001562	0.001783	28.0821	0.037991	0.002021	18.8024	143.643	-165.074	0.008475	0.873545	-0.190494	-0.191816	-0.012025	18.8024	-0.190014	-90.0044	0.000134	NaN
493	1.000000	0.882864	7.36988e+06	-52439.1	1005.82	-29749.3	0.000000	0.000000	6.883098	-0.045874	NaN	0.000000	0.001582	0.001773	28.0821	0.060593	0.001874	32.3388	124.813	-165.587	0.037773	0.881504	-0.182497	-0.183857	-0.045874	32.3388	-0.181433	-64.539	0.000711	NaN
493	1.000000	0.890837	7.36988e+06	-52439.1	1005.82	-29749.3	0.000000	0.000000	6.891072	-0.039876	NaN	0.000000	0.001572	0.001761	28.0827	0.071036	0.001970	36.0525	-44.0756	-165.471	0.016362	0.889531	-0.174524	-0.175830	-0.039876	36.0525	-0.173694	-47.5899	0.000838	NaN
493	1.000000	0.898853	7.36988e+06	-52439.1	1005.82	-29749.3	0.000000	0.000000	6.899088	-0.061981	NaN	0.000000	0.001593	0.001783	28.0832	0.100745	0.002035	49.5002	-70.0321	-164.493	0.000313	0.897523	-0.166508	-0.167838	-0.061981	49.5002	-0.165568	-34.3781	0.001803	NaN
493	1.000000	0.906865	7.36988e+06	-52439.1	1005.82	-29749.3	0.000000	0.000000	6.907103	0.042632	NaN	0.000000	0.001594	0.001755	28.0822	0.062952	0.001956	32.1777	87.034	-166.777	0.022701	0.905527	-0.158496	-0.159834	0.042632	32.1777	-0.159490	-26.8485	-0.001588	NaN
493	1.000000	0.914873	7.36988e+06	-52439.1	1005.82	-29749.3	0.000000	0.000000	6.915109	-0.005651	NaN	0.000000	0.001586	0.001790	28.0825	0.070285	0.002057	34.1745	91.7985	-164.921	0.051455	0.913544	-0.150488	-0.151817	-0.005651	34.1745	-0.150364	-18.3928	0.000307	NaN
493	1.000000	0.922884	7.36988e+06	-52439.1	1005.82	-29749.3	0.000000	0.000000	6.923124	0.071528	NaN	0.000000	0.001584	0.001762	28.0821	0.073840	0.002005	36.832	-17.6984	-165.554	0.056093	0.921554	-0.142477	-0.143807	0.071528	36.832	-0.143933	-14.0088	-0.005106	NaN
493	1.000000	0.930857	7.36988e+06	-52439.1	1005.82	-29749.3	0.000000	0.000000	6.931095	0.030102	NaN	0.000000	0.001626	0.001773	28.082	0.058422	0.002027	28.8277	144.626	-163.529	0.050107	0.929552	-0.134504	-0.135809	0.030102	28.8277	-0.135287	-9.633287	-0.003125	NaN
493	1.000000	0.938884	7.36988e+06	-52439.1	1005.82	-29749.3	0.000000	0.000000	6.939119	-0.059334	NaN	0.000000	0.001694	0.001774	28.0821	0.052604	0.001895	27.7546	-53.0637	-165.691	0.059376	0.937591	-0.126477	-0.127770	-0.059334	27.7546	-0.124873	-6.046242	0.009813	NaN
493	1.000000	0.946898	7.36988e+06	-52439.1	1005.82	-29749.3	0.000000	0.000000	6.947134	-0.014496	NaN	0.000000	0.001652	0.001777	28.0819	0.140302	0.002081	67.4214	-90.9794	-165.041	-0.032802	0.945625	-0.118463	-0.119736	-0.014496	67.4214	-0.118302	-4.463612	0.003248	NaN
493	1.000000	0.954894	7.36988e+06	-52439.1	1005.82	-29749.3	0.000000	0.000000	6.955130	-0.009708	NaN	0.000000	0.001644	0.001750	28.0822	0.039835	0.002082	19.1312	70.9125	-165.198	-0.005546	0.953555	-0.110467	-0.111806	-0.009708	19.1312	-0.110087	-3.017867	0.003217	NaN
493	1.000000	0.962914	7.36988e+06	-52439.1	1005.82	-29749.3	0.000000	0.000000	6.963151	0.023419	NaN	0.000000	0.001649	0.001741	28.082	0.057353	0.002071	27.6878	93.7622	-167.441	-0.024260	0.961575	-0.102447	-0.103786	0.023419	27.6878	-0.103082	-2.135656	-0.010966	NaN
493	1.000000	0.970920	7.36988e+06	-52439.1	1005.82	-29749.3	0.000000	0.000000	6.971158	0.046781	NaN	0.000000	0.001673	0.001765	28.082	0.088393	0.002021	43.733	87.2346	-165.738	-0.032975	0.969563	-0.094441	-0.095798	0.046781	43.733	-0.095244	-1.428779	-0.032742	NaN
493	1.000000	0.978886	7.36988e+06	-52439.1	1005.82	-29749.3	0.000000	0.000000	6.979122	0.004524	NaN	0.000000	0.001670	0.001825	28.0821	0.095202	0.001873	50.8199	-44.6594	-162.75	-0.004231	0.977566	-0.086475	-0.087795	0.004524	50.8199	-0.086542	-0.895001	-0.005054	NaN
493	1.000000	0.986920	7.36988e+06	-52439.1	1005.82	-29749.3	0.000000	0.000000	6.987158	0.036509	NaN	0.000000	0.001644	0.001816	28.0821	0.041595	0.001940	21.4355	-25.586	-162.88	0.058736	0.985623	-0.078441	-0.079738	0.036509	21.4355	-0.079718	-0.609020	-0.059946	NaN
493	1.000000	0.994885	7.36988e+06	-52439.1	1005.82	-29749.3	0.000000	0.000000	6.995119	-0.065818	NaN	0.000000	0.001694	0.001819	28.0822	0.015202	0.002033	7.475670	-155.433	-163.447	0.005465	0.993572	-0.070476	-0.071789	-0.065818	7.475670	-0.063873	-0.231839	0.283894	NaN
493	1.000000	1.002904	7.36988e+06	-52439.1	1005.82	-29749.3	0.000000	0.000000	7.003138	-0.054204	NaN	0.000000	0.001646	0.001808	28.0819	0.134808	0.002133	63.1929	177.357	-166.209	0.027538	1.001572	-0.062457	-0.063789	-0.054204	63.1929	-0.061814	-0.202875	0.267180	NaN
493	1.000000	1.010890	7.36988e+06	-52439.1	1005.82	-29749.3	0.000000	0.000000	7.011126	-0.020471	NaN	0.000000	0.001683	0.001772	28.0831	0.125831	0.002036	61.816	25.9627	-163.212	-0.007310	1.009605	-0.054471	-0.055756	-0.020471	61.816	-0.054222	-0.122126	0.167620	NaN
493	1.000000	1.018906	7.36988e+06	-52439.1	1005.82	-29749.3	0.000000	0.000000	7.019142	-0.017282	NaN	0.000000	0.001641	0.001799	28.0836	0.045823	0.002076	22.0769	68.9111	-163.857	-0.026610	1.017594	-0.046455	-0.047768	-0.017282	22.0769	-0.045868	-0.068315	0.252972	NaN
493	1.000000	1.026916	7.36988e+06	-52439.1	1005.82	-29749.3	0.000000	0.000000	7.027154	0.030618	NaN	0.000000	0.001682	0.001759	28.0831	0.077693	0.002071	37.5073	-33.3284	-165.761	0.034949	1.025583	-0.038445	-0.039778	0.030618	37.5073	-0.039057	-0.042341	-0.723141	NaN
493	1.000000	1.034893	7.36988e+06	-52439.1	1005.82	-29749.3	0.000000	0.000000	7.035129	-0.005625	NaN	0.000000	0.001673	0.001790	28.0831	0.039152	0.002015	19.4292	-88.6314	-168.1	-0.002226	1.033640	-0.030469	-0.031721	-0.005625	19.4292	-0.030251	-0.023388	0.240533	NaN
493	1.000000	1.042922	7.36988e+06	-52439.1	1005.82	-29749.3	0.000000	0.000000	7.043156	-0.071859	NaN	0.000000	0.001694	0.001788	28.0832	0.083717	0.002052	40.8046	139.462	-164.874	-0.018596	1.041624	-0.022439	-0.023737	-0.071859	40.8046	-0.021118	-0.013410	5.358537	NaN
493	1.000000	1.050929	7.36988e+06	-52439.1	1005.82	-29749.3	0.000000	0.000000	7.051162	-0.088489	NaN	0.000000	0.001642	0.001799	28.0831	0.110564	0.002007	55.0789	-77.2964	-162.182	0.038142	1.049608	-0.014432	-0.015753	-0.088489	55.0789	-0.013227	-0.008234	10.7473	NaN
493	1.000000	1.058903	7.36988e+06	-52439.1	1005.82	-29749.3	0.000000	0.000000	7.059145	0.119394	NaN	0.000000	0.001649	0.001755	28.0833	0.252232	0.002052	122.908	-9.928619	-162.684	-0.033660	1.057576	-0.006458	-0.007785	0.119394	122.908	-0.007186	-0.004752	-25.1276	NaN
493	1.000000	1.066901	7.36988e+06	-52439.1	1005.82	-29749.3	0.000000	0.000000	7.067403	6.459640	NaN	0.000000	0.001659	0.001817	28.0836	6.896929	0.001498	4605.57	8.642049	-168.928	4.822235	1.065614	0.001540	0.000253	6.459640	4605.57	0.000488	0.000368	17543.1	219283
493	2.000000	1.070483	7.36988e+06	-52439.1	1005.82	-29749.3	0.000000	0.000000	7.071135	10.0899	NaN	0.000000	0.001647	0.001764	28.0834	10.2598	0.001635	6273.93	3.908708	-169.567	8.977759	1.070177	0.005122	0.004816	10.0899	6273.93	0.003916	0.003166	3187.38	101880
493	2.000000	1.072515	7.36988e+06	-52439.1	1005.82	-29749.3	0.000000	0.000000	7.073272	12.6565	NaN	0.000000	0.001647	0.001793	28.0832	13.2075	0.001793	7366.85	9.094448	-174.649	12.8443	1.072195	0.007153	0.006834	12.6565	7366.85	0.005865	0.004937	2563.8	95794.4
493	2.000000	1.074465	7.36988e+06	-52439.1	1005.82	-29749.3	0.000000	0.000000	7.075379	16.4498	NaN	0.000000	0.001606	0.001825	28.0833	15.2402	0.001658	9193.23	6.602146	-174.885	15.8073	1.074184	0.009104	0.008823	16.4498	9193.23	0.007762	0.006799	2419.45	101864
493	2.000000	1.076467	7.36988e+06	-52439.1	1005.82	-29749.3	0.000000	0.000000	7.077487	19.0336	NaN	0.000000	0.001612	0.001814	28.0831	17.7922	0.001928	9228.93	6.575237	-173.405	18.3294	1.076117	0.011106	0.010756	19.0336	9228.93	0.009559	0.008696	2188.8	90420.4
493	2.000000	1.078444	7.36988e+06	-52439.1	1005.82	-29749.3	0.000000	0.000000	7.079617	22.7854	NaN	0.000000	0.001610	0.001804	28.0831	19.9537	0.001751	11393.8	7.146534	-177.374	21.6211	1.078156	0.013083	0.012795	22.7854	11393.8	0.011583	0.010994	2072.51	99280.3
493	2.000000	1.080474	7.36988e+06	-52439.1	1005.82	-29749.3	0.000000	0.000000	7.081824	27.0699	NaN	0.000000	0.001607	0.001812	28.0841	21.3717	0.001725	12386.8	4.675620	-175.699	26.1931	1.080151	0.015113	0.014790	27.0699	12386.8	0.013474	0.013304	2034.71	98115.9
493	2.000000	1.082468	7.36988e+06	-52439.1	1005.82	-29749.3	0.000000	0.000000	7.083950	30.2933	NaN	0.000000	0.001615	0.001807	28.0832	24.3214	0.001743	13951.1	5.657857	-177.745	30.685	1.082144	0.017107	0.016783	30.2933	13951.1	0.015478	0.015928	1901.85	100994
493	2.000000	1.084413	7.36988e+06	-52439.1	1005.82	-29749.3	0.000000	0.000000	7.086152	36.5388	NaN	0.000000	0.001612	0.001771	28.0835	25.0146	0.001570	15930.2	3.710668	-178.419	34.6588	1.084158	0.019052	0.018797	36.5388	15930.2	0.017332	0.018522	1972.77	106944
493	2.000000	1.086425	7.36988e+06	-52439.1	1005.82	-29749.3	0.000000	0.000000	7.088401	42.2909	NaN	0.000000	0.001608	0.001839	28.0832	27.901	0.001768	15785.3	4.675322	-177.085	40.7847	1.086041	0.021064	0.020680	42.2909	15785.3	0.019055	0.021079	2006.31	99334.8
493	2.000000	1.088440	7.36988e+06	-52439.1	1005.82	-29749.3	0.000000	0.000000	7.090514	44.6878	NaN	0.000000	0.001649	0.001805	28.0826	29.7442	0.001686	17636.8	3.913906	-177.05	44.8079	1.088164	0.023079	0.022803	44.6878	17636.8	0.021178	0.024428	1829.38	103098
493	2.000000	1.090445	7.36988e+06	-52439.1	1005.82	-29749.3	0.000000	0.000000	7.092678	48.5426	NaN	0.000000	0.001669	0.001846	28.0828	31.6105	0.001836	17218.7	7.134012	-179.278	49.1562	1.090051	0.025084	0.024690	48.5426	17218.7	0.022969	0.027425	1770.03	94995.7
493	2.000000	1.092436	7.36988e+06	-52439.1	1005.82	-29749.3	0.000000	0.000000	7.094986	56.2477	NaN	0.000000	0.001628	0.001827	28.082	33.9565	0.001721	19725.5	6.328051	179.085	56.1307	1.092044	0.027075	0.026683	56.2477	19725.5	0.024936	0.030900	1820.31	102523
493	2.000000	1.094407	7.36988e+06	-52439.1	1005.82	-29749.3	0.000000	0.000000	7.097099	59.6926	NaN	0.000000	0.001644	0.001793	28.0819	34.7264	0.001860	18674.3	1.447839	-175.824	58.2221	1.094154	0.029046	0.028793	59.6926	18674.3	0.026649	0.034084	1751.34	92415.1
493	2.000000	1.096394	7.36988e+06	-52439.1	1005.82	-29749.3	0.000000	0.000000	7.099302	64.9494	NaN	0.000000	0.001598	0.001804	28.0821	37.0435	0.001769	20943.7	4.712573	179.752	63.7371	1.096101	0.031033	0.030740	64.9494	20943.7	0.028707	0.038107	1704.4	98022.4
493	2.000000	1.098375	7.36988e+06	-52439.1	1005.82	-29749.3	0.000000	0.000000	7.101588	72.3666	NaN	0.000000	0.001606	0.001778	28.0822	39.3274	0.001729	22745.5	7.207069	176.76	69.1217	1.098064	0.033014	0.032703	72.3666	22745.5	0.030628	0.042056	1720.74	101335
493	2.000000	1.100380	7.36988e+06	-52439.1	1005.82	-29749.3	0.000000	0.000000	7.103827	78.0542	NaN	0.000000	0.001544	0.001816	28.0822	40.7231	0.001891	21534.2	5.821501	179.488	75.6663	1.100076	0.035019	0.034715	78.0542	21534.2	0.032300	0.045647	1709.97	92087.1
493	2.000000	1.102444	7.36988e+06	-52439.1	1005.82	-29749.3	0.000000	0.000000	7.106130	83.8671	NaN	0.000000	0.001580	0.001794	28.0822	43.1611	0.001841	23444	5.383449	178.355	85.1361	1.102079	0.037083	0.036718	83.8671	23444	0.034400	0.050359	1665.39	95448
493	2.000000	1.104410	7.36988e+06	-52439.1	1005.82	-29749.3	0.000000	0.000000	7.108422	91.8139	NaN	0.000000	0.001588	0.001774	28.0821	44.2477	0.001664	26584.7	8.575572	174.098	92.0658	1.104135	0.039049	0.038774	91.8139	26584.7	0.036458	0.055196	1663.41	103384
493	2.000000	1.106330	7.36988e+06	-52439.1	1005.82	-29749.3	0.000000	0.000000	7.110701	100.548	NaN	0.000000	0.001578	0.001765	28.0824	47.4142	0.001799	26349.1	6.111140	175.662	97.018	1.106092	0.040968	0.040731	100.548	26349.1	0.038106	0.059226	1697.69	98919.4
493	2.000000	1.108436	7.36988e+06	-52439.1	1005.82	-29749.3	0.000000	0.000000	7.113255	111.405	NaN	0.000000	0.001666	0.001781	28.0822	49.3392	0.001810	27262.4	7.993952	174.534	111.661	1.108124	0.043075	0.042763	111.405	27262.4	0.040010	0.064055	1739.2	98414.6
493	2.000000	1.110434	7.36988e+06	-52439.1	1005.82	-29749.3	0.000000	0.000000	7.115623	120.426	NaN	0.000000	0.001688	0.001775	28.0825	50.5659	0.001752	28866.3	6.454154	175.695	122.03	1.110015	0.045073	0.044654	120.426	28866.3	0.041944	0.069149	1741.55	100293
493	2.000000	1.112417	7.36988e+06	-52439.1	1005.82	-29749.3	0.000000	0.000000	7.117913	127.89	NaN	0.000000	0.001668	0.001747	28.0824	53.7879	0.001840	29238.1	7.257781	174.103	128.127	1.112058	0.047056	0.046697	127.89	29238.1	0.043775	0.074148	1724.79	98100.7
493	2.000000	1.114334	7.36988e+06	-52439.1	1005.82	-29749.3	0.000000	0.000000	7.120412	142.018	NaN	0.000000	0.001699	0.001762	28.0821	53.5726	0.001653	32407.3	3.707111	177.197	139.188	1.114030	0.048973	0.048669	142.018	32407.3	0.045686	0.079548	1785.3	104979
493	2.000000	1.116299	7.36988e+06	-52439.1	1005.82	-29749.3	0.000000	0.000000	7.122716	150.277	NaN	0.000000	0.001637	0.001792	28.0823	56.2968	0.001721	32715.5	4.763991	176.832	146.578	1.115939	0.050938	0.050578	150.277	32715.5	0.047493	0.084821	1771.7	102630
493	2.000000	1.118407	7.36988e+06	-52439.1	1005.82	-29749.3	0.000000	0.000000	7.125134	157.816	NaN	0.000000	0.001632	0.001783	28.0822	59.3629	0.001833	32380.5	6.424225	174.972	157.553	1.118092	0.053046	0.052731	157.816	32380.5	0.049391	0.090539	1743.08	98319.6
493	2.000000	1.120346	7.36988e+06	-52439.1	1005.82	-29749.3	0.000000	0.000000	7.127471	167.499	NaN	0.000000	0.001633	0.001791	28.0823	60.6195	0.001766	34335.1	3.762395	176.64	164.766	1.120106	0.054985	0.054745	167.499	34335.1	0.051326	0.096555	1734.75	100954
493	2.000000	1.122422	7.36988e+06	-52439.1	1005.82	-29749.3	0.000000	0.000000	7.129903	176.144	NaN	0.000000	0.001603	0.001757	28.0826	63.1851	0.001732	36482.8	7.784284	173.03	176.691	1.121967	0.057061	0.056606	176.144	36482.8	0.053440	0.103341	1704.49	103687
493	2.000000	1.124392	7.36988e+06	-52439.1	1005.82	-29749.3	0.000000	0.000000	7.132268	185.74	NaN	0.000000	0.001614	0.001788	28.0832	64.8226	0.001828	35451.9	6.902863	173.973	184.831	1.124069	0.059031	0.058708	185.74	35451.9	0.055102	0.108832	1706.68	98182.7
493	2.000000	1.126401	7.36988e+06	-52439.1	1005.82	-29749.3	0.000000	0.000000	7.134853	199.743	NaN	0.000000	0.001626	0.001745	28.0836	68.2228	0.001792	38069.6	9.333931	171.098	199.218	1.125875	0.061040	0.060514	199.743	38069.6	0.057105	0.115633	1727.39	102285
493	2.000000	1.128377	7.36988e+06	-52439.1	1005.82	-29749.3	0.000000	0.000000	7.137237	209.683	NaN	0.000000	0.001603	0.001784	28.0834	70.4726	0.001818	38770.7	9.446915	170.208	207.311	1.128040	0.063016	0.062679	209.683	38770.7	0.058960	0.122105	1717.24	101370
493	2.000000	1.130364	7.36988e+06	-52439.1	1005.82	-29749.3	0.000000	0.000000	7.139578	218.27	NaN	0.000000	0.001600	0.001796	28.0835	70.4655	0.001552	45407.8	2.731715	174.983	217.276	1.130093	0.065003	0.064732	218.27	45407.8	0.061398	0.130868	1667.86	114680
493	2.000000	1.132367	7.36988e+06	-52439.1	1005.82	-29749.3	0.000000	0.000000	7.142099	230.872	NaN	0.000000	0.001572	0.001784	28.0833	76.0536	0.001851	41091.3	4.999757	173.981	231.802	1.132079	0.067006	0.066718	230.872	41091.3	0.062792	0.136011	1697.45	101797
493	2.000000	1.134409	7.36988e+06	-52439.1	1005.82	-29749.3	0.000000	0.000000	7.144551	240.834	NaN	0.000000	0.001625	0.001770	28.0834	76.1041	0.001837	41426.7	3.005860	175.944	244.241	1.134130	0.069048	0.068769	240.834	41426.7	0.064688	0.143154	1682.34	100035
493	2.000000	1.136323	7.36988e+06	-52439.1	1005.82	-29749.3	0.000000	0.000000	7.147127	256.947	NaN	0.000000	0.001634	0.001772	28.0836	78.2047	0.001815	43087.5	4.446445	174.645	254.241	1.135998	0.070962	0.070637	256.947	43087.5	0.066489	0.150101	1711.82	101609
493	2.000000	1.138391	7.36988e+06	-52439.1	1005.82	-29749.3	0.000000	0.000000	7.149688	268.929	NaN	0.000000	0.001643	0.001756	28.0833	79.6622	0.001885	42262.1	3.142155	176.661	272.526	1.138012	0.073030	0.072651	268.929	42262.1	0.068258	0.157072	1712.14	97425.9
493	2.000000	1.140352	7.36988e+06	-52439.1	1005.82	-29749.3	0.000000	0.000000	7.152167	281.532	NaN	0.000000	0.001646	0.001761	28.0835	81.1575	0.001692	47954.6	7.752778	170.104	281.117	1.140053	0.074991	0.074691	281.532	47954.6	0.070588	0.166487	1691.01	107377
493	2.000000	1.142280	7.36988e+06	-52439.1	1005.82	-29749.3	0.000000	0.000000	7.154488	291.09	NaN	0.000000	0.001638	0.001780	28.0834	83.9257	0.001718	48848.2	3.286819	174.618	286.154	1.142034	0.076919	0.076673	291.09	48848.2	0.072449	0.174194	1671.07	106931
493	2.000000	1.144354	7.36988e+06	-52439.1	1005.82	-29749.3	0.000000	0.000000	7.157209	306.825	NaN	0.000000	0.001627	0.001809	28.0834	84.833	0.001716	49440.6	3.112788	174.641	306.89	1.144049	0.078993	0.078688	306.825	49440.6	0.074338	0.182181	1684.18	105829
493	2.000000	1.146323	7.36988e+06	-52439.1	1005.82	-29749.3	0.000000	0.000000	7.159739	320.435	NaN	0.000000	0.001617	0.001801	28.0834	87.754	0.001771	49553.4	4.373900	173.226	318.036	1.146069	0.080962	0.080708	320.435	49553.4	0.076112	0.189837	1687.95	103910
493	2.000000	1.148513	7.36988e+06	-52439.1	1005.82	-29749.3	0.000000	0.000000	7.162229	327.734	NaN	0.000000	0.001616	0.001775	28.0835	90.0546	0.001740	51750.3	5.132088	172.774	336.373	1.148113	0.083152	0.082752	327.734	51750.3	0.078402	0.199937	1639.19	105740
493	2.000000	1.150300	7.36988e+06	-52439.1	1005.82	-29749.3	0.000000	0.000000	7.164947	350.37	NaN	0.000000	0.001613	0.001769	28.0836	90.8351	0.001704	53317.7	5.750712	171.493	347.377	1.149990	0.084939	0.084629	350.37	53317.7	0.080010	0.207176	1691.17	107022
493	2.000000	1.152246	7.36988e+06	-52439.1	1005.82	-29749.3	0.000000	0.000000	7.167233	358.656	NaN	0.000000	0.001615	0.001779	28.0832	93.1422	0.001780	52329.7	1.911165	175.087	352.942	1.152079	0.086885	0.086718	358.656	52329.7	0.081745	0.215117	1667.26	103082
493	2.000000	1.154328	7.36988e+06	-52439.1	1005.82	-29749.3	0.000000	0.000000	7.169982	374.854	NaN	0.000000	0.001625	0.001780	28.0837	94.5726	0.001777	53234.5	6.596504	170.716	373.621	1.153905	0.088967	0.088544	374.854	53234.5	0.083686	0.224172	1672.17	102725
493	2.000000	1.156264	7.36988e+06	-52439.1	1005.82	-29749.3	0.000000	0.000000	7.172556	390.372	NaN	0.000000	0.001616	0.001777	28.0832	97.0732	0.001713	56685.1	2.453327	174.187	385.802	1.156023	0.090903	0.090662	390.372	56685.1	0.085738	0.233936	1668.72	107076
493	2.000000	1.158404	7.36988e+06	-52439.1	1005.82	-29749.3	0.000000	0.000000	7.175513	410.256	NaN	0.000000	0.001588	0.001801	28.0822	99.37	0.001833	54224.2	2.469205	175.434	411.033	1.157921	0.093043	0.092560	410.256	54224.2	0.087368	0.241828	1696.48	100743
493	2.000000	1.160303	7.36988e+06	-52439.1	1005.82	-29749.3	0.000000	0.000000	7.177835	420.54	NaN	0.000000	0.001578	0.001749	28.0822	102.62	0.001790	57328.2	6.602412	169.894	416.861	1.159981	0.094942	0.094620	420.54	57328.2	0.089440	0.252036	1668.57	104330
493	2.000000	1.162287	7.36988e+06	-52439.1	1005.82	-29749.3	0.000000	0.000000	7.180524	437.674	NaN	0.000000	0.001618	0.001812	28.0822	104.763	0.001799	58244.3	2.044561	174.402	433.507	1.161962	0.096926	0.096601	437.674	58244.3	0.091290	0.261320	1674.86	104098
493	2.000000	1.164339	7.36988e+06	-52439.1	1005.82	-29749.3	0.000000	0.000000	7.183294	455.12	NaN	0.000000	0.001618	0.001835	28.0826	106.414	0.001845	57678.6	4.454338	172.167	456.053	1.164020	0.098978	0.098659	455.12	57678.6	0.093060	0.270346	1683.47	101351
493	2.000000	1.166210	7.36988e+06	-52439.1	1005.82	-29749.3	0.000000	0.000000	7.185770	469.833	NaN	0.000000	0.001606	0.001758	28.0822	109.059	0.001787	61016.7	8.575893	167.97	463.196	1.165919	0.100849	0.100558	469.833	61016.7	0.095074	0.280792	1673.24	105203
493	2.000000	1.167227	7.36988e+06	-52439.1	1005.82	-29749.3	0.000000	0.000000	7.187281	481.859	NaN	0.000000	0.001588	0.001767	28.0823	108.453	0.001681	64508.5	4.484599	171.416	475.856	1.166954	0.101866	0.101593	481.859	64508.5	0.096263	0.287046	1678.68	110006