File: remote_trans/data/nanoindenter/0828-1/data/Data_2025-08-06,11h17m57s/2025-07-22_16-23-58_1_1140.txt
2025-07-22, 16:23:58, 1
Index	Phase	Displacement	Time	Pos X	Pos Y	Pos Z	Rot A	Rot B	Piezo Z	Force A	Force B	Gripper	Voltage A	Voltage B	Temperature	Amplitude force	Amplitude pos	Stiffness	Phase shift	Phase excitation	Force A raw	Displacement raw	HMax	HMax raw	Real Force	Real Stiffness	Contact Depth	Area	Hardness	Reduced Mod.
[#]	[#]	[um]	[s]	[um]	[um]	[um]	[m°]	[m°]	[um]	[uN]	[uN]	[V]	[V]	[V]	[°C]	[uN]	[um]	[N/m]	[°]	[°]	[uN]	[um]	[um]	[um]	[uN]	[N/m]	[um]	[um^2]	[MPa]	[MPa]
1140	1.000000	0.002888	7.37621e+06	-57139.1	1055.82	-29737.3	0.000000	0.000000	6.002812	-0.014985	NaN	0.000000	0.001684	0.001739	28.0841	0.053612	0.001032	51.9464	110.475	-164.327	0.065123	0.001660	-1.075590	-1.076819	-0.014985	51.9464	-1.075374	-2.340876E+14	6.401510E-17	NaN
1140	1.000000	0.012957	7.37621e+06	-57139.1	1055.82	-29737.3	0.000000	0.000000	6.012880	-0.030842	NaN	0.000000	0.001642	0.001722	28.0842	0.171840	0.001256	136.865	-19.943	22.2979	0.032660	0.011512	-1.065522	-1.066967	-0.030842	136.865	-1.065353	-1.716914E+14	1.796367E-16	NaN
1140	1.000000	0.022809	7.37621e+06	-57139.1	1055.82	-29737.3	0.000000	0.000000	6.022734	0.029707	NaN	0.000000	0.001672	0.001724	28.0841	0.113950	0.001681	67.776	117.333	-169.148	-0.068439	0.021459	-1.055669	-1.057019	0.029707	67.776	-1.055998	-1.285403E+14	-2.311120E-16	NaN
1140	1.000000	0.032833	7.37621e+06	-57139.1	1055.82	-29737.3	0.000000	0.000000	6.032757	0.002741	NaN	0.000000	0.001653	0.001696	28.0839	0.032301	0.002015	16.034	93.6187	13.9869	-0.025713	0.031443	-1.045645	-1.047035	0.002741	16.034	-1.045774	-9.366940E+13	-2.925822E-17	NaN
1140	1.000000	0.042826	7.37621e+06	-57139.1	1055.82	-29737.3	0.000000	0.000000	6.042749	-0.030309	NaN	0.000000	0.001620	0.001721	28.0847	0.036154	0.001908	18.9442	-64.7007	-161.229	-0.015117	0.041516	-1.035653	-1.036962	-0.030309	18.9442	-1.034453	-6.597348E+13	4.594090E-16	NaN
1140	1.000000	0.052828	7.37621e+06	-57139.1	1055.82	-29737.3	0.000000	0.000000	6.052753	0.020426	NaN	0.000000	0.001582	0.001724	28.084	0.058992	0.002030	29.056	110.759	16.1895	0.052708	0.051446	-1.025651	-1.027032	0.020426	29.056	-1.026178	-5.105820E+13	-4.000481E-16	NaN
1140	1.000000	0.062811	7.37621e+06	-57139.1	1055.82	-29737.3	0.000000	0.000000	6.062735	-0.026521	NaN	0.000000	0.001584	0.001707	28.0829	0.103540	0.002099	49.3341	-104.666	-163.965	-0.071973	0.061496	-1.015667	-1.016982	-0.026521	49.3341	-1.015264	-3.641003E+13	7.283847E-16	NaN
1140	1.000000	0.072819	7.37621e+06	-57139.1	1055.82	-29737.3	0.000000	0.000000	6.072741	-0.054726	NaN	0.000000	0.001632	0.001699	28.0827	0.077273	0.001991	38.8158	46.5047	16.9423	-0.091755	0.071521	-1.005660	-1.006958	-0.054726	38.8158	-1.004602	-2.616528E+13	2.091533E-15	NaN
1140	1.000000	0.082839	7.37621e+06	-57139.1	1055.82	-29737.3	0.000000	0.000000	6.082764	0.015432	NaN	0.000000	0.001647	0.001718	28.0833	0.111749	0.002057	54.3295	-77.7193	-164.735	0.041931	0.081524	-0.995639	-0.996954	0.015432	54.3295	-0.995852	-1.994899E+13	-7.735745E-16	NaN
1140	1.000000	0.092828	7.37621e+06	-57139.1	1055.82	-29737.3	0.000000	0.000000	6.092751	-0.020924	NaN	0.000000	0.001652	0.001723	28.0826	0.052285	0.002102	24.8739	-35.0822	14.1701	-0.026056	0.091463	-0.985651	-0.987015	-0.020924	24.8739	-0.985020	-1.425712E+13	1.467643E-15	NaN
1140	1.000000	0.102840	7.37621e+06	-57139.1	1055.82	-29737.3	0.000000	0.000000	6.102764	0.009073	NaN	0.000000	0.001650	0.001711	28.0827	0.054664	0.002056	26.5851	143.184	-166.879	0.102574	0.101557	-0.975639	-0.976921	0.009073	26.5851	-0.975895	-1.074232E+13	-8.445881E-16	NaN
1140	1.000000	0.112834	7.37621e+06	-57139.1	1055.82	-29737.3	0.000000	0.000000	6.112761	0.079616	NaN	0.000000	0.001657	0.001716	28.0825	0.094729	0.001949	48.5917	123.738	17.252	0.115908	0.111494	-0.965645	-0.966984	0.079616	48.5917	-0.966873	-8.119400E+12	-9.805609E-15	NaN
1140	1.000000	0.122848	7.37621e+06	-57139.1	1055.82	-29737.3	0.000000	0.000000	6.122773	0.024166	NaN	0.000000	0.001644	0.001723	28.0829	0.072566	0.002007	36.1574	-97.1238	-161.318	0.011245	0.121517	-0.955630	-0.956962	0.024166	36.1574	-0.956132	-5.817198E+12	-4.154288E-15	NaN
1140	1.000000	0.132843	7.37621e+06	-57139.1	1055.82	-29737.3	0.000000	0.000000	6.132769	0.038089	NaN	0.000000	0.001647	0.001701	28.0825	0.137089	0.002110	64.9613	95.0254	15.8531	0.085257	0.131481	-0.945635	-0.946997	0.038089	64.9613	-0.946075	-4.256866E+12	-8.947669E-15	NaN
1140	1.000000	0.142843	7.37621e+06	-57139.1	1055.82	-29737.4	0.000000	0.000000	6.142769	0.040636	NaN	0.000000	0.001647	0.001689	28.0823	0.051631	0.001983	26.035	-50.1601	-167.879	0.006887	0.141558	-0.935636	-0.936920	0.040636	26.035	-0.936806	-3.191883E+12	-1.273106E-14	NaN
1140	1.000000	0.152843	7.37621e+06	-57139.1	1055.82	-29737.4	0.000000	0.000000	6.152769	0.044894	NaN	0.000000	0.001647	0.001716	28.0828	0.114681	0.001970	58.2001	143.195	18.2529	-0.009670	0.151511	-0.925636	-0.926967	0.044894	58.2001	-0.926214	-2.296667E+12	-1.954748E-14	NaN
1140	1.000000	0.162907	7.37621e+06	-57139.1	1055.82	-29737.4	0.000000	0.000000	6.162831	-0.025102	NaN	0.000000	0.001658	0.001733	28.0827	0.042089	0.001932	21.7863	46.1798	-165.769	-0.059072	0.161557	-0.915571	-0.916921	-0.025102	21.7863	-0.914707	-1.605945E+12	1.563038E-14	NaN
1140	1.000000	0.172842	7.37621e+06	-57139.1	1055.82	-29737.4	0.000000	0.000000	6.172767	0.015872	NaN	0.000000	0.001662	0.001709	28.0829	0.037402	0.002034	18.3925	161.648	14.2527	0.004820	0.171521	-0.905636	-0.906957	0.015872	18.3925	-0.906283	-1.235835E+12	-1.284329E-14	NaN
1140	1.000000	0.182887	7.37621e+06	-57139.1	1055.82	-29737.4	0.000000	0.000000	6.182811	-0.007397	NaN	0.000000	0.001678	0.001722	28.0828	0.071874	0.002065	34.8117	136.948	-164.131	-0.013454	0.181511	-0.895591	-0.896968	-0.007397	34.8117	-0.895432	-8.817177E+11	8.388910E-15	NaN
1140	1.000000	0.192911	7.37621e+06	-57139.1	1055.82	-29737.4	0.000000	0.000000	6.192837	0.058354	NaN	0.000000	0.001672	0.001743	28.0833	0.089181	0.002046	43.598	158.949	14.2955	0.003216	0.191566	-0.885568	-0.886912	0.058354	43.598	-0.886572	-6.692175E+11	-8.719736E-14	NaN
1140	1.000000	0.202893	7.37621e+06	-57139.1	1055.82	-29737.4	0.000000	0.000000	6.202814	-0.063394	NaN	0.000000	0.001662	0.001756	28.0842	0.067420	0.001945	34.6548	-79.3867	-166.926	0.003853	0.201617	-0.875586	-0.876861	-0.063394	34.6548	-0.874214	-4.554562E+11	1.391889E-13	NaN
1140	1.000000	0.212880	7.37621e+06	-57139.1	1055.82	-29737.4	0.000000	0.000000	6.212803	-0.037305	NaN	0.000000	0.001664	0.001748	28.0842	0.072180	0.001954	36.947	80.1388	15.416	-0.006519	0.211597	-0.865598	-0.866881	-0.037305	36.947	-0.864841	-3.401246E+11	1.096798E-13	NaN
1140	1.000000	0.222906	7.37621e+06	-57139.1	1055.82	-29737.4	0.000000	0.000000	6.222829	-0.052072	NaN	0.000000	0.001660	0.001733	28.0841	0.094785	0.002102	45.1008	114.223	-163.781	-0.018581	0.221612	-0.855572	-0.856867	-0.052072	45.1008	-0.854706	-2.480024E+11	2.099645E-13	NaN
1140	1.000000	0.232883	7.37621e+06	-57139.1	1055.82	-29737.4	0.000000	0.000000	6.232808	0.012501	NaN	0.000000	0.001636	0.001766	28.0842	0.030066	0.001885	15.9464	75.7947	14.8704	-0.043988	0.231535	-0.845595	-0.846943	0.012501	15.9464	-0.846183	-1.901290E+11	-6.575221E-14	NaN
1140	1.000000	0.242883	7.37621e+06	-57139.1	1055.82	-29737.4	0.000000	0.000000	6.242808	0.030144	NaN	0.000000	0.001699	0.001750	28.084	0.068892	0.002009	34.2958	131.857	-165.888	-0.021770	0.241628	-0.835596	-0.836851	0.030144	34.2958	-0.836255	-1.394921E+11	-2.160995E-13	NaN
1140	1.000000	0.252920	7.37621e+06	-57139.1	1055.82	-29737.4	0.000000	0.000000	6.252839	-0.117140	NaN	0.000000	0.001639	0.001737	28.0842	0.028454	0.002113	13.4654	158.338	16.2603	-0.085699	0.251537	-0.825559	-0.826941	-0.117140	13.4654	-0.819034	-8.149131E+10	1.437457E-12	NaN
1140	1.000000	0.262874	7.37621e+06	-57139.1	1055.82	-29737.4	0.000000	0.000000	6.262799	0.013212	NaN	0.000000	0.001628	0.001716	28.0844	0.019175	0.002037	9.411326	13.2402	-163.36	0.035154	0.261655	-0.815604	-0.816823	0.013212	9.411326	-0.816657	-7.566182E+10	-1.746196E-13	NaN
1140	1.000000	0.272927	7.37621e+06	-57139.1	1055.82	-29737.4	0.000000	0.000000	6.272851	-0.009207	NaN	0.000000	0.001626	0.001737	28.0844	0.028824	0.001919	15.023	15.3203	13.7994	0.020945	0.271555	-0.805551	-0.806923	-0.009207	15.023	-0.805091	-5.271865E+10	1.746380E-13	NaN
1140	1.000000	0.282909	7.37621e+06	-57139.1	1055.82	-29737.4	0.000000	0.000000	6.282835	0.043182	NaN	0.000000	0.001609	0.001725	28.0843	0.056300	0.001990	28.2971	-122.068	-162.763	-0.030600	0.281677	-0.795569	-0.796801	0.043182	28.2971	-0.796714	-4.057443E+10	-1.064268E-12	NaN
1140	1.000000	0.292921	7.37621e+06	-57139.1	1055.82	-29737.4	0.000000	0.000000	6.292844	-0.024058	NaN	0.000000	0.001643	0.001734	28.0842	0.075135	0.002079	36.1484	-84.4149	10.7113	0.025312	0.291487	-0.785558	-0.786992	-0.024058	36.1484	-0.785058	-2.818122E+10	8.536918E-13	NaN
1140	1.000000	0.302928	7.37621e+06	-57139.1	1055.82	-29737.4	0.000000	0.000000	6.302850	-0.041560	NaN	0.000000	0.001654	0.001779	28.0843	0.087743	0.001997	43.9457	-1.765439	-165.503	-0.030000	0.301653	-0.775550	-0.776825	-0.041560	43.9457	-0.774841	-2.047009E+10	2.030283E-12	NaN
1140	1.000000	0.312928	7.37621e+06	-57139.1	1055.82	-29737.4	0.000000	0.000000	6.312852	-0.008593	NaN	0.000000	0.001670	0.001787	28.0839	0.044707	0.001970	22.6937	46.9112	15.1265	-0.001769	0.311591	-0.765550	-0.766887	-0.008593	22.6937	-0.765266	-1.516825E+10	5.664986E-13	NaN
1140	1.000000	0.322926	7.37621e+06	-57139.1	1055.82	-29737.4	0.000000	0.000000	6.322850	-0.002958	NaN	0.000000	0.001643	0.001750	28.0838	0.051889	0.001852	28.016	-46.9345	-164.16	0.070210	0.321648	-0.755552	-0.756831	-0.002958	28.016	-0.755473	-1.116119E+10	2.650196E-13	NaN
1140	1.000000	0.332933	7.37621e+06	-57139.1	1055.82	-29737.4	0.000000	0.000000	6.332854	-0.084701	NaN	0.000000	0.001630	0.001770	28.0827	0.126786	0.001964	64.5468	163.54	16.9028	-0.113909	0.331636	-0.745545	-0.746842	-0.084701	64.5468	-0.744561	-7.928086E+9	1.068372E-11	NaN
1140	1.000000	0.342963	7.37621e+06	-57139.1	1055.82	-29737.4	0.000000	0.000000	6.342885	-0.063347	NaN	0.000000	0.001645	0.001770	28.0822	0.026814	0.001948	13.7644	60.6081	-166.224	-0.034564	0.341696	-0.735515	-0.736783	-0.063347	13.7644	-0.732064	-5.357131E+9	1.182477E-11	NaN
1140	1.000000	0.352944	7.37621e+06	-57139.1	1055.82	-29737.4	0.000000	0.000000	6.352870	0.038452	NaN	0.000000	0.001622	0.001759	28.0824	0.108132	0.001927	56.1203	-144.726	11.0218	-0.002007	0.351592	-0.725534	-0.726887	0.038452	56.1203	-0.726048	-4.435501E+9	-8.669044E-12	NaN
1140	1.000000	0.362948	7.37621e+06	-57139.1	1055.82	-29737.4	0.000000	0.000000	6.362868	-0.103606	NaN	0.000000	0.001670	0.001719	28.0824	0.044181	0.001994	22.1572	-104.171	-165.619	-0.063342	0.361706	-0.715530	-0.716772	-0.103606	22.1572	-0.712023	-2.855319E+9	3.628518E-11	NaN
1140	1.000000	0.372979	7.37621e+06	-57139.1	1055.82	-29737.4	0.000000	0.000000	6.372902	-0.051170	NaN	0.000000	0.001644	0.001740	28.0828	0.129585	0.002062	62.8507	-114.845	14.4436	-0.025089	0.371598	-0.705499	-0.706880	-0.051170	62.8507	-0.704888	-2.281788E+9	2.242520E-11	NaN
1140	1.000000	0.382974	7.37621e+06	-57139.1	1055.82	-29737.4	0.000000	0.000000	6.382898	-0.011556	NaN	0.000000	0.001616	0.001777	28.0825	0.078858	0.002055	38.3817	-97.2715	-161.646	0.004354	0.381696	-0.695504	-0.696782	-0.011556	38.3817	-0.695279	-1.686718E+9	6.850892E-12	NaN
1140	1.000000	0.392967	7.37621e+06	-57139.1	1055.82	-29737.4	0.000000	0.000000	6.392892	0.023016	NaN	0.000000	0.001631	0.001731	28.0825	0.034101	0.002008	16.9831	-59.544	15.4573	0.083536	0.391611	-0.685511	-0.686868	0.023016	16.9831	-0.686528	-1.280739E+9	-1.797122E-11	NaN
1140	1.000000	0.402951	7.37621e+06	-57139.1	1055.82	-29737.4	0.000000	0.000000	6.402879	0.084169	NaN	0.000000	0.001638	0.001707	28.0825	0.057187	0.001998	28.6205	-60.6442	-162.885	0.064568	0.401672	-0.675527	-0.676806	0.084169	28.6205	-0.677733	-9.709418E+8	-8.668819E-11	NaN
1140	1.000000	0.412983	7.37621e+06	-57139.1	1055.82	-29737.4	0.000000	0.000000	6.412902	-0.125718	NaN	0.000000	0.001619	0.001756	28.0826	0.025971	0.001984	13.0933	-84.2763	16.8027	-0.124734	0.411684	-0.665496	-0.666794	-0.125718	13.0933	-0.658294	-5.261450E+8	2.389413E-10	NaN
1140	1.000000	0.422994	7.37621e+06	-57139.1	1055.82	-29737.4	0.000000	0.000000	6.422920	0.035079	NaN	0.000000	0.001620	0.001760	28.0826	0.099273	0.001894	52.4152	-35.6203	-165.823	0.108983	0.421690	-0.655484	-0.656789	0.035079	52.4152	-0.655986	-4.891930E+8	-7.170712E-11	NaN
1140	1.000000	0.432992	7.37621e+06	-57139.1	1055.82	-29737.4	0.000000	0.000000	6.432917	0.017295	NaN	0.000000	0.001653	0.001754	28.0824	0.042330	0.001921	22.0385	-1.634567	19.3023	0.002410	0.431655	-0.645486	-0.646824	0.017295	22.0385	-0.646075	-3.577819E+8	-4.833966E-11	NaN
1140	1.000000	0.442996	7.37621e+06	-57139.1	1055.82	-29737.4	0.000000	0.000000	6.442918	-0.046009	NaN	0.000000	0.001630	0.001740	28.0828	0.010445	0.002034	5.134359	43.4498	-166.203	0.044300	0.441711	-0.635483	-0.636767	-0.046009	5.134359	-0.628762	-2.070233E+8	2.222399E-10	NaN
1140	1.000000	0.453007	7.37621e+06	-57139.1	1055.82	-29737.4	0.000000	0.000000	6.452934	0.074673	NaN	0.000000	0.001742	0.001751	28.0824	0.006927	0.001820	3.806476	-170.49	13.8286	0.076183	0.451641	-0.625472	-0.626838	0.074673	3.806476	-0.640185	-2.970458E+8	-2.513847E-10	NaN
1140	1.000000	0.462993	7.37621e+06	-57139.1	1055.82	-29737.4	0.000000	0.000000	6.462918	0.019965	NaN	0.000000	0.001703	0.001749	28.0823	0.063182	0.002102	30.0532	-161.178	-163.781	0.067000	0.461674	-0.615485	-0.616804	0.019965	30.0532	-0.615983	-1.381695E+8	-1.444944E-10	NaN
1140	1.000000	0.473019	7.37621e+06	-57139.1	1055.82	-29737.4	0.000000	0.000000	6.472944	0.007622	NaN	0.000000	0.001705	0.001740	28.0839	0.052206	0.002033	25.6839	118.212	12.6146	0.008209	0.471670	-0.605459	-0.606808	0.007622	25.6839	-0.605682	-9.969940E+7	-7.644527E-11	NaN
1140	1.000000	0.483017	7.37621e+06	-57139.1	1055.82	-29737.4	0.000000	0.000000	6.482941	-0.010444	NaN	0.000000	0.001697	0.001781	28.084	0.025911	0.001869	13.8614	31.3993	-165.783	-0.013659	0.481662	-0.595461	-0.596817	-0.010444	13.8614	-0.594896	-7.081834E+7	1.474812E-10	NaN
1140	1.000000	0.493001	7.37621e+06	-57139.1	1055.82	-29737.4	0.000000	0.000000	6.492925	-0.006267	NaN	0.000000	0.001669	0.001750	28.0836	0.021008	0.002060	10.1971	-176.325	18.3908	-0.006953	0.491600	-0.585478	-0.586878	-0.006267	10.1971	-0.585017	-5.175398E+7	1.210856E-10	NaN
1140	1.000000	0.503034	7.37621e+06	-57139.1	1055.82	-29737.4	0.000000	0.000000	6.502960	0.042286	NaN	0.000000	0.001668	0.001727	28.0838	0.063489	0.002074	30.6153	-153.491	-162.572	-0.004463	0.501712	-0.575444	-0.576767	0.042286	30.6153	-0.576480	-3.945816E+7	-1.071676E-9	NaN
1140	1.000000	0.512997	7.37621e+06	-57139.1	1055.82	-29737.4	0.000000	0.000000	6.512918	-0.066362	NaN	0.000000	0.001632	0.001777	28.0839	0.086893	0.002041	42.5771	31.4276	13.6937	-0.007378	0.511657	-0.565482	-0.566821	-0.066362	42.5771	-0.564313	-2.679318E+7	2.476821E-9	NaN
1140	1.000000	0.523003	7.37621e+06	-57139.1	1055.82	-29737.4	0.000000	0.000000	6.522927	-0.013128	NaN	0.000000	0.001673	0.001724	28.0835	0.015980	0.001953	8.181037	-148.578	-165.027	0.016897	0.521753	-0.555475	-0.556725	-0.013128	8.181037	-0.554272	-1.945854E+7	6.746588E-10	NaN
1140	1.000000	0.533008	7.37621e+06	-57139.1	1055.82	-29737.4	0.000000	0.000000	6.532933	0.022921	NaN	0.000000	0.001670	0.001696	28.0835	0.050613	0.002004	25.2602	82.9881	13.1086	0.121621	0.531643	-0.545470	-0.546835	0.022921	25.2602	-0.546151	-1.501853E+7	-1.526211E-9	NaN
1140	1.000000	0.543024	7.37621e+06	-57139.1	1055.82	-29737.4	0.000000	0.000000	6.542949	0.016664	NaN	0.000000	0.001651	0.001697	28.0836	0.084689	0.002033	41.6627	-98.1952	-164.392	-0.037397	0.541708	-0.535454	-0.536770	0.016664	41.6627	-0.535754	-1.077587E+7	-1.546386E-9	NaN
1140	1.000000	0.553014	7.37621e+06	-57139.1	1055.82	-29737.4	0.000000	0.000000	6.552936	-0.044783	NaN	0.000000	0.001634	0.001673	28.0837	0.118080	0.002007	58.8315	145.988	16.8913	-0.037433	0.551722	-0.525465	-0.526756	-0.044783	58.8315	-0.524894	-7.61439e+06	5.881369E-9	NaN
1140	1.000000	0.563020	7.37621e+06	-57139.1	1055.82	-29737.4	0.000000	0.000000	6.562945	0.003998	NaN	0.000000	0.001630	0.001666	28.0837	0.025629	0.002072	12.3671	150.354	-165.712	-0.007591	0.561747	-0.515458	-0.516731	0.003998	12.3671	-0.515701	-5.67265e+06	-7.048009E-10	NaN
1140	1.000000	0.573003	7.37621e+06	-57139.1	1055.82	-29737.4	0.000000	0.000000	6.572927	-0.001987	NaN	0.000000	0.001617	0.001678	28.0836	0.086986	0.002100	41.4203	1.616440	13.5649	-0.030290	0.571654	-0.505475	-0.506824	-0.001987	41.4203	-0.505439	-4.08196e+06	4.866758E-10	NaN
1140	1.000000	0.583027	7.37621e+06	-57139.1	1055.82	-29737.4	0.000000	0.000000	6.582953	0.023986	NaN	0.000000	0.001667	0.001636	28.0842	0.001712	0.001888	0.906827	-77.3411	-165.366	0.000691	0.581771	-0.495451	-0.496707	0.023986	0.906827	-0.515289	-5.59832e+06	-4.284542E-9	NaN
1140	1.000000	0.592993	7.37621e+06	-57139.1	1055.82	-29737.4	0.000000	0.000000	6.592920	0.065094	NaN	0.000000	0.001651	0.001655	28.0838	0.092311	0.002004	46.0713	-13.6729	17.0669	0.089950	0.591711	-0.485485	-0.486767	0.065094	46.0713	-0.486545	-2.22378e+06	-2.927162E-8	NaN
1140	1.000000	0.603075	7.37621e+06	-57139.1	1055.82	-29737.4	0.000000	0.000000	6.603002	0.043301	NaN	0.000000	0.001689	0.001668	28.0834	0.062693	0.002059	30.4488	-26.0842	-158.04	0.045154	0.601700	-0.475403	-0.476778	0.043301	30.4488	-0.476469	-1.60726e+06	-2.694068E-8	NaN
1140	1.000000	0.613053	7.37621e+06	-57139.1	1055.82	-29737.4	0.000000	0.000000	6.612978	0.013940	NaN	0.000000	0.001659	0.001711	28.0825	0.080044	0.002140	37.4084	11.8558	13.7839	-0.002454	0.611648	-0.465426	-0.466831	0.013940	37.4084	-0.465705	-1.13539e+06	-1.227771E-8	NaN
1140	1.000000	0.623044	7.37621e+06	-57139.1	1055.82	-29737.4	0.000000	0.000000	6.622967	-0.023321	NaN	0.000000	0.001719	0.001727	28.0825	0.127690	0.002071	61.665	43.0415	-166.372	-0.110765	0.621740	-0.455435	-0.456738	-0.023321	61.665	-0.455151	-806938	2.890096E-8	NaN
1140	1.000000	0.633054	7.37621e+06	-57139.1	1055.82	-29737.4	0.000000	0.000000	6.632979	0.012224	NaN	0.000000	0.001735	0.001676	28.0825	0.079250	0.002037	38.9145	107.53	16.8618	-0.091237	0.631664	-0.445424	-0.446815	0.012224	38.9145	-0.445659	-593182	-2.060813E-8	NaN
1140	1.000000	0.643052	7.37621e+06	-57139.1	1055.82	-29737.4	0.000000	0.000000	6.642980	0.093355	NaN	0.000000	0.001707	0.001668	28.0825	0.082790	0.002003	41.3359	-158.662	-164.971	0.108478	0.641739	-0.435426	-0.436739	0.093355	41.3359	-0.437120	-449470	-2.076993E-7	NaN
1140	1.000000	0.653087	7.37621e+06	-57139.1	1055.82	-29737.4	0.000000	0.000000	6.653012	0.014066	NaN	0.000000	0.001746	0.001680	28.0823	0.050188	0.001976	25.4037	159.607	16.8594	0.060675	0.651708	-0.425391	-0.426770	0.014066	25.4037	-0.425806	-310960	-4.523567E-8	NaN
1140	1.000000	0.663088	7.37621e+06	-57139.1	1055.82	-29737.4	0.000000	0.000000	6.663015	0.055054	NaN	0.000000	0.001744	0.001648	28.0826	0.030870	0.001961	15.7419	-100.179	-168.221	0.048819	0.661783	-0.415390	-0.416695	0.055054	15.7419	-0.418013	-241117	-2.283288E-7	NaN
1140	1.000000	0.673078	7.37621e+06	-57139.1	1055.82	-29737.4	0.000000	0.000000	6.673002	-0.001235	NaN	0.000000	0.001719	0.001677	28.0828	0.039524	0.001988	19.8776	-128.611	17.5876	0.035424	0.671776	-0.405401	-0.406703	-0.001235	19.8776	-0.405354	-159328	7.752091E-9	NaN
1140	1.000000	0.683087	7.37621e+06	-57139.1	1055.82	-29737.4	0.000000	0.000000	6.683011	-0.014548	NaN	0.000000	0.001713	0.001657	28.0826	0.013969	0.002123	6.578528	-30.6368	-164.477	-0.011043	0.681805	-0.395391	-0.396673	-0.014548	6.578528	-0.393732	-108774	1.337459E-7	NaN
1140	1.000000	0.693101	7.37621e+06	-57139.1	1055.82	-29737.4	0.000000	0.000000	6.693023	-0.059766	NaN	0.000000	0.001704	0.001737	28.0826	0.065026	0.002159	30.1176	-161.751	15.7429	-0.025966	0.691794	-0.385377	-0.386685	-0.059766	30.1176	-0.383889	-78644.3	7.599587E-7	NaN
1140	1.000000	0.703102	7.37621e+06	-57139.1	1055.82	-29737.4	0.000000	0.000000	6.703027	0.035542	NaN	0.000000	0.001731	0.001672	28.083	0.099767	0.001939	51.454	55.1904	-163.152	0.017870	0.701797	-0.375377	-0.376682	0.035542	51.454	-0.375895	-60385.5	-5.885854E-7	NaN
1140	1.000000	0.713113	7.37621e+06	-57139.1	1055.82	-29737.4	0.000000	0.000000	6.713041	0.080243	NaN	0.000000	0.001713	0.001679	28.0826	0.085199	0.002022	42.1321	102.15	13.4334	0.091665	0.711682	-0.365365	-0.366796	0.080243	42.1321	-0.366794	-44660.6	-1.796720E-6	NaN
1140	1.000000	0.723098	7.37621e+06	-57139.1	1055.82	-29737.4	0.000000	0.000000	6.723023	0.012946	NaN	0.000000	0.001727	0.001657	28.0826	0.145360	0.002029	71.6287	-139.723	-162.252	0.000612	0.721769	-0.355380	-0.356710	0.012946	71.6287	-0.355516	-30687.9	-4.218751E-7	NaN
1140	1.000000	0.733082	7.37621e+06	-57139.1	1055.82	-29737.4	0.000000	0.000000	6.733007	0.012862	NaN	0.000000	0.001722	0.001717	28.0826	0.028190	0.001994	14.1399	-152.031	18.2557	-0.051763	0.731757	-0.345396	-0.346721	0.012862	14.1399	-0.346078	-22389	-5.744627E-7	NaN
1140	1.000000	0.743085	7.37621e+06	-57139.1	1055.82	-29737.4	0.000000	0.000000	6.743011	0.042644	NaN	0.000000	0.001752	0.001665	28.0838	0.013722	0.001981	6.927118	33.0032	-165.693	0.031013	0.741837	-0.335394	-0.336642	0.042644	6.927118	-0.340011	-18268.8	-2.334277E-6	NaN
1140	1.000000	0.753093	7.37621e+06	-57139.1	1055.82	-29737.4	0.000000	0.000000	6.753017	-0.014678	NaN	0.000000	0.001693	0.001685	28.0838	0.024073	0.001983	12.142	163.389	12.851	-0.011329	0.751723	-0.325385	-0.326755	-0.014678	12.142	-0.324479	-10826.4	1.355733E-6	NaN
1140	1.000000	0.763161	7.37621e+06	-57139.1	1055.82	-29737.4	0.000000	0.000000	6.763086	0.022440	NaN	0.000000	0.001698	0.001650	28.0839	0.024774	0.002097	11.8157	-28.5624	-168.442	0.097492	0.761843	-0.315317	-0.316635	0.022440	11.8157	-0.316742	-8329.85	-2.693956E-6	NaN
1140	1.000000	0.773099	7.37621e+06	-57139.1	1055.82	-29737.4	0.000000	0.000000	6.773023	0.010389	NaN	0.000000	0.001747	0.001639	28.0841	0.130277	0.002180	59.7693	-126.985	15.4756	-0.081164	0.771795	-0.305380	-0.306684	0.010389	59.7693	-0.305510	-5682.3	-1.828245E-6	NaN
1140	1.000000	0.783142	7.37621e+06	-57139.1	1055.82	-29737.4	0.000000	0.000000	6.783068	0.033626	NaN	0.000000	0.001659	0.001667	28.0841	0.050078	0.002023	24.7525	115.155	-163.861	0.033288	0.781824	-0.295336	-0.296654	0.033626	24.7525	-0.296355	-4152.55	-8.097623E-6	NaN
1140	1.000000	0.793132	7.37621e+06	-57139.1	1055.82	-29737.4	0.000000	0.000000	6.793057	-0.000991	NaN	0.000000	0.001652	0.001650	28.0841	0.164149	0.002175	75.4676	131.612	13.9288	0.017932	0.791785	-0.285346	-0.286693	-0.000991	75.4676	-0.285336	-2840.01	3.489855E-7	NaN
1140	1.000000	0.803151	7.37621e+06	-57139.1	1055.82	-29737.4	0.000000	0.000000	6.803076	-0.002379	NaN	0.000000	0.001640	0.001662	28.0841	0.102430	0.001823	56.1875	-90.9978	-162.42	0.028451	0.801774	-0.275327	-0.276704	-0.002379	56.1875	-0.275295	-2003.87	1.187157E-6	NaN
1140	1.000000	0.813122	7.37621e+06	-57139.1	1055.82	-29737.4	0.000000	0.000000	6.813047	0.013639	NaN	0.000000	0.001695	0.001666	28.0842	0.073963	0.001912	38.6853	71.221	11.9138	-0.016826	0.811824	-0.265356	-0.266655	0.013639	38.6853	-0.265620	-1428.42	-9.548094E-6	NaN
1140	1.000000	0.823170	7.37621e+06	-57139.1	1055.82	-29737.4	0.000000	0.000000	6.823093	-0.024161	NaN	0.000000	0.001657	0.001633	28.084	0.084308	0.001976	42.6752	-68.3538	-163.3	-0.011258	0.821853	-0.255309	-0.256625	-0.024161	42.6752	-0.254884	-977.978	2.470500E-5	NaN
1140	1.000000	0.833146	7.37621e+06	-57139.1	1055.82	-29737.4	0.000000	0.000000	6.833070	-0.012023	NaN	0.000000	0.001658	0.001662	28.0841	0.015681	0.002090	7.501718	113.215	14.3827	0.016635	0.831795	-0.245332	-0.246683	-0.012023	7.501718	-0.244130	-666.704	1.803320E-5	NaN
1140	1.000000	0.843148	7.37621e+06	-57139.1	1055.82	-29737.4	0.000000	0.000000	6.843072	0.006887	NaN	0.000000	0.001630	0.001655	28.0842	0.071771	0.001961	36.6045	22.1562	-161.324	-0.002781	0.841825	-0.235331	-0.236654	0.006887	36.6045	-0.235472	-488.262	-1.410549E-5	NaN
1140	1.000000	0.853168	7.37621e+06	-57139.1	1055.82	-29737.4	0.000000	0.000000	6.853091	-0.027723	NaN	0.000000	0.001670	0.001658	28.0839	0.098527	0.001960	50.2655	110.626	17.7592	0.025042	0.851859	-0.225311	-0.226619	-0.027723	50.2655	-0.224897	-332.427	8.339588E-5	NaN
1140	1.000000	0.863153	7.37621e+06	-57139.1	1055.82	-29737.4	0.000000	0.000000	6.863077	-0.004829	NaN	0.000000	0.001677	0.001657	28.0839	0.082679	0.001993	41.4821	23.0654	-163.933	0.031847	0.861826	-0.215325	-0.216652	-0.004829	41.4821	-0.215238	-232.992	2.072660E-5	NaN
1140	1.000000	0.873172	7.37621e+06	-57139.1	1055.82	-29737.4	0.000000	0.000000	6.873098	0.046718	NaN	0.000000	0.001645	0.001695	28.0843	0.068472	0.001957	34.9887	-128.703	13.9314	0.012982	0.871790	-0.205307	-0.206688	0.046718	34.9887	-0.206308	-167.061	-0.000280	NaN
1140	1.000000	0.883152	7.37621e+06	-57139.1	1055.82	-29737.4	0.000000	0.000000	6.883076	-0.001897	NaN	0.000000	0.001652	0.001692	28.0828	0.070201	0.001856	37.8238	58.574	-165.049	0.047324	0.881919	-0.195327	-0.196559	-0.001897	37.8238	-0.195289	-110.152	1.721966E-5	NaN
1140	1.000000	0.893161	7.37621e+06	-57139.1	1055.82	-29737.4	0.000000	0.000000	6.893086	0.019749	NaN	0.000000	0.001645	0.001673	28.0826	0.115886	0.001874	61.8522	-86.1354	16.4962	0.017845	0.891857	-0.185317	-0.186622	0.019749	61.8522	-0.185557	-75.7721	-0.000261	NaN
1140	1.000000	0.903183	7.37621e+06	-57139.1	1055.82	-29737.4	0.000000	0.000000	6.903106	-0.021808	NaN	0.000000	0.001646	0.001625	28.0826	0.125337	0.001961	63.9096	-154.639	-164.416	-0.025756	0.901854	-0.175296	-0.176625	-0.021808	63.9096	-0.175040	-50.195	0.000434	NaN
1140	1.000000	0.913194	7.37621e+06	-57139.1	1055.82	-29737.4	0.000000	0.000000	6.913120	0.040968	NaN	0.000000	0.001642	0.001666	28.0827	0.097391	0.001968	49.4778	103.739	14.7903	0.044985	0.911810	-0.165284	-0.166669	0.040968	49.4778	-0.165905	-34.8488	-0.001176	NaN
1140	1.000000	0.923148	7.37621e+06	-57139.1	1055.82	-29737.4	0.000000	0.000000	6.923073	0.012999	NaN	0.000000	0.001683	0.001662	28.0827	0.117200	0.001983	59.1112	98.1828	-166.337	0.025310	0.921882	-0.155331	-0.156596	0.012999	59.1112	-0.155496	-22.7768	-0.000571	NaN
1140	1.000000	0.933180	7.37621e+06	-57139.1	1055.82	-29737.4	0.000000	0.000000	6.933105	0.026225	NaN	0.000000	0.001661	0.001692	28.0825	0.168995	0.002060	82.0194	-100.992	16.836	-0.037164	0.931882	-0.145299	-0.146596	0.026225	82.0194	-0.145539	-15.0011	-0.001748	NaN
1140	1.000000	0.943157	7.37621e+06	-57139.1	1055.82	-29737.4	0.000000	0.000000	6.943085	0.090325	NaN	0.000000	0.001654	0.001664	28.0827	0.023437	0.002044	11.4641	-29.467	-166.149	0.068563	0.941889	-0.135321	-0.136590	0.090325	11.4641	-0.141231	-12.4749	-0.007241	NaN
1140	1.000000	0.953205	7.37621e+06	-57139.1	1055.82	-29737.4	0.000000	0.000000	6.953131	0.035809	NaN	0.000000	0.001607	0.001689	28.0826	0.032106	0.002077	15.4608	-6.214035	10.3013	0.112493	0.951831	-0.125274	-0.126648	0.035809	15.4608	-0.127011	-6.662363	-0.005375	NaN
1140	1.000000	0.963201	7.37621e+06	-57139.1	1055.82	-29737.4	0.000000	0.000000	6.963128	0.074675	NaN	0.000000	0.001653	0.001663	28.0828	0.042776	0.002046	20.9076	125.061	-162.373	0.103854	0.961911	-0.115278	-0.116567	0.074675	20.9076	-0.117956	-4.391996	-0.017002	NaN
1140	1.000000	0.973210	7.37621e+06	-57139.1	1055.82	-29737.4	0.000000	0.000000	6.973131	-0.062273	NaN	0.000000	0.001644	0.001659	28.0826	0.122365	0.002048	59.7402	51.156	10.5946	-0.038054	0.971789	-0.105269	-0.106689	-0.062273	59.7402	-0.104487	-2.291268	0.027178	NaN
1140	1.000000	0.983210	7.37621e+06	-57139.1	1055.82	-29737.4	0.000000	0.000000	6.983130	-0.092240	NaN	0.000000	0.001638	0.001641	28.0831	0.034825	0.002083	16.7165	166.408	-166.054	-0.088040	0.981869	-0.095268	-0.096609	-0.092240	16.7165	-0.091130	-1.148792	0.080293	NaN
1140	1.000000	0.993213	7.37621e+06	-57139.1	1055.82	-29737.4	0.000000	0.000000	6.993136	-0.011091	NaN	0.000000	0.001665	0.001671	28.0822	0.036607	0.001943	18.8413	173.308	15.423	-0.060541	0.991831	-0.085266	-0.086647	-0.011091	18.8413	-0.084824	-0.813625	0.013631	NaN
1140	1.000000	1.003241	7.37621e+06	-57139.1	1055.82	-29737.4	0.000000	0.000000	7.003164	-0.044191	NaN	0.000000	0.001678	0.001676	28.0829	0.052423	0.002053	25.5344	-119.347	-162.575	-0.023628	1.001951	-0.075237	-0.076528	-0.044191	25.5344	-0.073939	-0.433481	0.101945	NaN
1140	1.000000	1.013220	7.37621e+06	-57139.1	1055.82	-29737.4	0.000000	0.000000	7.013145	0.012885	NaN	0.000000	0.001676	0.001655	28.083	0.015239	0.001934	7.877401	128.991	18.0343	-0.031477	1.011878	-0.065258	-0.066600	0.012885	7.877401	-0.066485	-0.273873	-0.047047	NaN
1140	1.000000	1.023211	7.37621e+06	-57139.1	1055.82	-29737.4	0.000000	0.000000	7.023133	-0.059478	NaN	0.000000	0.001671	0.001630	28.084	0.088743	0.001870	47.4652	-42.0822	-165.058	-0.137662	1.021932	-0.055267	-0.056546	-0.059478	47.4652	-0.054327	-0.123005	0.483539	NaN
1140	1.000000	1.033246	7.37621e+06	-57139.1	1055.82	-29737.4	0.000000	0.000000	7.033172	0.040457	NaN	0.000000	0.001629	0.001637	28.0839	0.059321	0.001911	31.0365	165.78	14.8581	-0.027077	1.031867	-0.045232	-0.046611	0.040457	31.0365	-0.046210	-0.069981	-0.578113	NaN
1140	1.000000	1.043239	7.37621e+06	-57139.1	1055.82	-29737.4	0.000000	0.000000	7.043162	-0.031090	NaN	0.000000	0.001636	0.001654	28.0839	0.051572	0.002022	25.5023	-62.1489	-167.579	0.083919	1.041974	-0.035240	-0.036505	-0.031090	25.5023	-0.034325	-0.030596	1.016140	NaN
1140	1.000000	1.053248	7.37621e+06	-57139.1	1055.82	-29737.4	0.000000	0.000000	7.053173	0.003511	NaN	0.000000	0.001663	0.001678	28.084	0.026985	0.002010	13.4259	58.8606	14.0238	-0.011029	1.051894	-0.025230	-0.026584	0.003511	13.4259	-0.025426	-0.017309	-0.202848	NaN
1140	1.000000	1.063220	7.37621e+06	-57139.1	1055.82	-29737.4	0.000000	0.000000	7.063146	0.032872	NaN	0.000000	0.001691	0.001660	28.0842	0.072165	0.001943	37.1349	-146.714	-164.246	0.007589	1.061912	-0.015258	-0.016566	0.032872	37.1349	-0.015922	-0.009835	-3.342344	NaN
1140	1.000000	1.073270	7.37621e+06	-57139.1	1055.82	-29737.4	0.000000	0.000000	7.073191	-0.079447	NaN	0.000000	0.001683	0.001696	28.0843	0.092981	0.002035	45.684	-153.564	12.9028	-0.048180	1.071880	-0.005209	-0.006598	-0.079447	45.684	-0.003904	-0.002717	29.2429	NaN
1140	1.000000	1.083243	7.37621e+06	-57139.1	1055.82	-29737.4	0.000000	0.000000	7.083292	3.033254	NaN	0.000000	0.001663	0.001659	28.084	3.900864	0.001920	2031.97	11.3461	-169.761	1.689681	1.081919	0.004765	0.003441	3.033254	2031.97	0.003645	0.002930	1035.21	34296.5
1140	2.000000	1.090419	7.37621e+06	-57139.1	1055.82	-29737.4	0.000000	0.000000	7.090710	8.906366	NaN	0.000000	0.001663	0.001685	28.0839	9.556152	0.001666	5736.39	7.435533	9.507130	8.337269	1.090069	0.011941	0.011591	8.906366	5736.39	0.010776	0.010057	885.596	52261.2
1140	2.000000	1.092843	7.37621e+06	-57139.1	1055.82	-29737.4	0.000000	0.000000	7.093224	11.1071	NaN	0.000000	0.001704	0.001701	28.0841	11.5454	0.001602	7206.39	5.991198	-172.273	11.0846	1.092607	0.014365	0.014129	11.1071	7206.39	0.013209	0.012970	856.341	57811.6
1140	2.000000	1.095365	7.37621e+06	-57139.1	1055.82	-29737.4	0.000000	0.000000	7.095808	12.6154	NaN	0.000000	0.001663	0.001717	28.084	13.9392	0.001884	7398.57	11.9923	4.053078	12.4416	1.094986	0.016887	0.016507	12.6154	7398.57	0.015608	0.016104	783.351	53265.9
1140	2.000000	1.097822	7.37621e+06	-57139.1	1055.82	-29737.4	0.000000	0.000000	7.098481	17.8426	NaN	0.000000	0.001666	0.001685	28.084	16.7105	0.001831	9128.91	10.357	-175.079	17.9701	1.097480	0.019344	0.019002	17.8426	9128.91	0.017878	0.019317	923.663	60009.5
1140	2.000000	1.100342	7.37621e+06	-57139.1	1055.82	-29737.4	0.000000	0.000000	7.101115	20.6213	NaN	0.000000	0.001651	0.001669	28.0842	18.1631	0.001704	10660.6	5.016450	6.998015	19.5079	1.100020	0.021864	0.021542	20.6213	10660.6	0.020413	0.023196	889.009	63951.2
1140	2.000000	1.102802	7.37621e+06	-57139.1	1055.82	-29737.4	0.000000	0.000000	7.103783	25.679	NaN	0.000000	0.001666	0.001689	28.084	20.9817	0.001658	12658.5	3.948079	-175.154	24.0446	1.102495	0.024324	0.024017	25.679	12658.5	0.022803	0.027139	946.204	70203.5
1140	2.000000	1.105304	7.37621e+06	-57139.1	1055.82	-29737.4	0.000000	0.000000	7.106475	30.3068	NaN	0.000000	0.001661	0.001671	28.0828	24.5085	0.001877	13060.1	7.345583	2.952377	28.8228	1.104883	0.026826	0.026405	30.3068	13060.1	0.025085	0.031171	972.285	67584.4
1140	2.000000	1.107777	7.37621e+06	-57139.1	1055.82	-29737.4	0.000000	0.000000	7.109174	35.8014	NaN	0.000000	0.001677	0.001656	28.0827	27.2053	0.001750	15546.2	11.723	175.008	34.5161	1.107435	0.029298	0.028957	35.8014	15546.2	0.027571	0.035860	998.377	75005.6
1140	2.000000	1.110274	7.37621e+06	-57139.1	1055.82	-29737.4	0.000000	0.000000	7.111919	41.7992	NaN	0.000000	0.001685	0.001672	28.0828	28.7754	0.001896	15177.2	8.113623	1.146344	39.183	1.109911	0.031796	0.031433	41.7992	15177.2	0.029731	0.040187	1040.11	69170.6
1140	2.000000	1.112809	7.37621e+06	-57139.1	1055.82	-29737.4	0.000000	0.000000	7.114591	45.1581	NaN	0.000000	0.001695	0.001697	28.0826	31.5645	0.001935	16316	5.629906	-177.337	47.5096	1.112520	0.034331	0.034042	45.1581	16316	0.032255	0.045547	991.456	69848.3
1140	2.000000	1.115322	7.37621e+06	-57139.1	1055.82	-29737.4	0.000000	0.000000	7.117352	51.1918	NaN	0.000000	0.001690	0.001675	28.0826	34.1219	0.001743	19578.2	7.488079	-1.976949	53.0456	1.114984	0.036843	0.036506	51.1918	19578.2	0.034882	0.051472	994.549	78842.2
1140	2.000000	1.117775	7.37621e+06	-57139.1	1055.82	-29737.4	0.000000	0.000000	7.120290	62.9724	NaN	0.000000	0.001649	0.001654	28.0825	37.2047	0.001800	20669.1	3.673474	-179.172	61.611	1.117458	0.039297	0.038979	62.9724	20669.1	0.037012	0.056534	1113.89	79422.1
1140	2.000000	1.120300	7.37621e+06	-57139.1	1055.82	-29737.4	0.000000	0.000000	7.123080	69.4122	NaN	0.000000	0.001674	0.001678	28.0828	39.0641	0.001718	22733.1	7.019255	-2.817371	67.7275	1.120022	0.041822	0.041544	69.4122	22733.1	0.039532	0.062823	1104.88	82865.2
1140	2.000000	1.122722	7.37621e+06	-57139.1	1055.82	-29737.4	0.000000	0.000000	7.125912	79.3719	NaN	0.000000	0.001682	0.001652	28.0827	40.8259	0.001690	24155.5	-0.169283	-177.401	77.4022	1.122466	0.044244	0.043987	79.3719	24155.5	0.041780	0.068708	1155.2	84194.5
1140	2.000000	1.125267	7.37621e+06	-57139.1	1055.82	-29737.4	0.000000	0.000000	7.129065	94.1415	NaN	0.000000	0.001650	0.001682	28.0826	43.4196	0.001793	24214.1	4.543621	-0.614710	91.9199	1.124849	0.046789	0.046371	94.1415	24214.1	0.043873	0.074420	1265	81095.3
1140	2.000000	1.127743	7.37621e+06	-57139.1	1055.82	-29737.4	0.000000	0.000000	7.131873	102.221	NaN	0.000000	0.001663	0.001696	28.0827	46.385	0.001754	26439.6	5.363353	177.066	100.712	1.127473	0.049265	0.048994	102.221	26439.6	0.046365	0.081511	1254.09	84609.7
1140	2.000000	1.130212	7.37621e+06	-57139.1	1055.82	-29737.4	0.000000	0.000000	7.134990	117.981	NaN	0.000000	0.001665	0.001695	28.0828	48.6014	0.001657	29331.3	3.440066	-2.372482	112.458	1.129857	0.051733	0.051378	117.981	29331.3	0.048717	0.088487	1333.31	90087.5
1140	2.000000	1.132708	7.37621e+06	-57139.1	1055.82	-29737.4	0.000000	0.000000	7.138018	130.889	NaN	0.000000	0.001725	0.001682	28.0827	50.8112	0.001730	29371.8	1.689248	179.646	128.166	1.132394	0.054230	0.053916	130.889	29371.8	0.050888	0.095177	1375.22	86983.6
1140	2.000000	1.135189	7.37621e+06	-57139.1	1055.82	-29737.4	0.000000	0.000000	7.141147	146.633	NaN	0.000000	0.001724	0.001675	28.0829	54.8767	0.001846	29731.8	9.421973	-7.664722	145.108	1.134722	0.056711	0.056243	146.633	29731.8	0.053012	0.101951	1438.28	85074.6
1140	2.000000	1.137737	7.37621e+06	-57139.1	1055.82	-29737.4	0.000000	0.000000	7.144180	158.425	NaN	0.000000	0.001695	0.001672	28.0826	56.8855	0.001737	32754.2	5.165445	174.672	158.311	1.137469	0.059259	0.058991	158.425	32754.2	0.055631	0.110610	1432.28	89979.3
1140	2.000000	1.140224	7.37621e+06	-57139.1	1055.82	-29737.4	0.000000	0.000000	7.147496	178.587	NaN	0.000000	0.001684	0.001683	28.084	58.758	0.001836	32011.5	6.418942	-5.133785	174.591	1.139809	0.061746	0.061330	178.587	32011.5	0.057562	0.117210	1523.64	85427.2
1140	2.000000	1.142697	7.37621e+06	-57139.1	1055.82	-29737.4	0.000000	0.000000	7.150699	196.342	NaN	0.000000	0.001694	0.001649	28.0839	59.9847	0.001793	33449.6	1.823362	178.316	191.556	1.142298	0.064218	0.063820	196.342	33449.6	0.059816	0.125149	1568.86	86387.4
1140	2.000000	1.145276	7.37621e+06	-57139.1	1055.82	-29737.4	0.000000	0.000000	7.153779	208.509	NaN	0.000000	0.001690	0.001645	28.0839	62.5065	0.001765	35424.4	3.261097	-2.465329	208.133	1.144719	0.066798	0.066241	208.509	35424.4	0.062383	0.134493	1550.33	88252.3
1140	2.000000	1.147692	7.37621e+06	-57139.1	1055.82	-29737.4	0.000000	0.000000	7.157286	235.026	NaN	0.000000	0.001692	0.001662	28.0839	65.1704	0.001697	38394.6	5.816168	174.097	232.218	1.147359	0.069213	0.068881	235.026	38394.6	0.064622	0.142904	1644.64	92794.4
1140	2.000000	1.150197	7.37621e+06	-57139.1	1055.82	-29737.4	0.000000	0.000000	7.160514	252.59	NaN	0.000000	0.001686	0.001674	28.0839	67.0467	0.001738	38572.7	3.640513	-3.461535	247.694	1.149828	0.071718	0.071350	252.59	38572.7	0.066807	0.151343	1668.99	90588.3
1140	2.000000	1.152729	7.37621e+06	-57139.1	1055.82	-29737.4	0.000000	0.000000	7.163496	263.524	NaN	0.000000	0.001717	0.001609	28.0839	70.9234	0.001790	39621.7	5.221769	173.771	261.853	1.152414	0.074251	0.073936	263.524	39621.7	0.069262	0.161100	1635.78	90190
1140	2.000000	1.155160	7.37621e+06	-57139.1	1055.82	-29737.4	0.000000	0.000000	7.167071	291.342	NaN	0.000000	0.001709	0.001690	28.084	74.4127	0.001757	42346.5	6.287609	-7.567392	285.336	1.154804	0.076681	0.076326	291.342	42346.5	0.071521	0.170332	1710.44	93743.8
1140	2.000000	1.157776	7.37621e+06	-57139.1	1055.82	-29737.4	0.000000	0.000000	7.170247	304.943	NaN	0.000000	0.001718	0.001733	28.0842	77.5459	0.001821	42585.3	3.900725	174.917	307.365	1.157378	0.079298	0.078899	304.943	42585.3	0.073927	0.180428	1690.11	91596.9
1140	2.000000	1.160211	7.37621e+06	-57139.1	1055.82	-29737.4	0.000000	0.000000	7.173571	326.564	NaN	0.000000	0.001717	0.001707	28.0848	78.8705	0.001871	42152.4	4.312955	-4.731291	323.339	1.159918	0.081733	0.081440	326.564	42152.4	0.075922	0.189010	1727.76	88583.7
1140	2.000000	1.162676	7.37621e+06	-57139.1	1055.82	-29737.4	0.000000	0.000000	7.176979	349.474	NaN	0.000000	0.001687	0.001728	28.0842	81.6499	0.001862	43847.4	5.778182	172.781	349.451	1.162351	0.084198	0.083873	349.474	43847.4	0.078220	0.199125	1755.05	89774.8
1140	2.000000	1.165075	7.37621e+06	-57139.1	1055.82	-29737.4	0.000000	0.000000	7.180377	373.764	NaN	0.000000	0.001700	0.001702	28.084	83.6529	0.001759	47551.2	4.892942	-7.187844	366.303	1.164828	0.086596	0.086350	373.764	47551.2	0.080701	0.210323	1777.1	94731
1140	2.000000	1.167644	7.37621e+06	-57139.1	1055.82	-29737.4	0.000000	0.000000	7.183832	395.299	NaN	0.000000	0.001713	0.001671	28.0842	87.9532	0.001901	46268.2	6.871112	171.005	391.316	1.167450	0.089165	0.088972	395.299	46268.2	0.082758	0.219821	1798.28	90161.6
1140	2.000000	1.170129	7.37621e+06	-57139.1	1055.82	-29737.4	0.000000	0.000000	7.187624	427.053	NaN	0.000000	0.001690	0.001684	28.084	89.3513	0.001807	49460.9	6.558215	-8.370256	420.976	1.169659	0.091650	0.091180	427.053	49460.9	0.085175	0.231236	1846.83	93973.9
1140	2.000000	1.172705	7.37621e+06	-57139.1	1055.82	-29737.4	0.000000	0.000000	7.191028	447.16	NaN	0.000000	0.001673	0.001697	28.0836	90.5016	0.001755	51580.9	4.102550	173.204	447.079	1.172286	0.094227	0.093808	447.16	51580.9	0.087725	0.243574	1835.83	95487.6
1140	2.000000	1.175128	7.37621e+06	-57139.1	1055.82	-29737.4	0.000000	0.000000	7.194291	467.599	NaN	0.000000	0.001735	0.001664	28.0829	91.709	0.001723	53216.4	2.249853	-4.493313	460.873	1.174798	0.096650	0.096319	467.599	53216.4	0.090060	0.255130	1832.79	96258.2
1140	2.000000	1.177744	7.37621e+06	-57139.1	1055.82	-29737.4	0.000000	0.000000	7.197468	481.215	NaN	0.000000	0.001760	0.001671	28.0832	95.8259	0.001805	53098.2	1.586660	175.576	481.866	1.177452	0.099266	0.098973	481.215	53098.2	0.092469	0.267315	1800.18	93829.9
1140	2.000000	1.180255	7.37621e+06	-57139.1	1055.82	-29737.4	0.000000	0.000000	7.200926	504.248	NaN	0.000000	0.001733	0.001672	28.0827	98.9009	0.001733	57065.8	9.226630	-12.5387	505.155	1.179938	0.101777	0.101460	504.248	57065.8	0.095149	0.281186	1793.29	98322.4
1140	2.000000	1.182625	7.37621e+06	-57139.1	1055.82	-29737.4	0.000000	0.000000	7.204675	537.784	NaN	0.000000	0.001703	0.001653	28.0828	99.7172	0.001776	56138.9	6.606800	170.03	533.703	1.182390	0.104147	0.103912	537.784	56138.9	0.096962	0.290750	1849.64	95121
1140	2.000000	1.185175	7.37621e+06	-57139.1	1055.82	-29737.4	0.000000	0.000000	7.208221	561.978	NaN	0.000000	0.001687	0.001684	28.0832	103.758	0.001893	54804.3	8.358233	-11.6667	557.013	1.184774	0.106697	0.106295	561.978	54804.3	0.099006	0.301717	1862.6	91156.6
1140	2.000000	1.187568	7.37621e+06	-57139.1	1055.82	-29737.4	0.000000	0.000000	7.211648	587.086	NaN	0.000000	0.001636	0.001704	28.0828	104.899	0.001914	54807.8	4.620511	172.545	580.491	1.187255	0.109090	0.108777	587.086	54807.8	0.101056	0.312909	1876.22	89517.3