File: remote_trans/data/nanoindenter/0828-1/data/Data_2025-08-06,11h17m57s/2025-07-22_16-23-58_1_293.txt
2025-07-22, 16:23:58, 1
Index	Phase	Displacement	Time	Pos X	Pos Y	Pos Z	Rot A	Rot B	Piezo Z	Force A	Force B	Gripper	Voltage A	Voltage B	Temperature	Amplitude force	Amplitude pos	Stiffness	Phase shift	Phase excitation	Force A raw	Displacement raw	HMax	HMax raw	Real Force	Real Stiffness	Contact Depth	Area	Hardness	Reduced Mod.
[#]	[#]	[um]	[s]	[um]	[um]	[um]	[m°]	[m°]	[um]	[uN]	[uN]	[V]	[V]	[V]	[°C]	[uN]	[um]	[N/m]	[°]	[°]	[uN]	[um]	[um]	[um]	[uN]	[N/m]	[um]	[um^2]	[MPa]	[MPa]
293	1.000000	0.002621	7.36792e+06	-53289.1	955.819	-29746.5	0.000000	0.000000	6.002846	-0.003366	NaN	0.000000	0.001578	0.001694	28.0783	0.097384	0.001002	97.2102	146.953	-169.414	-0.001319	0.001360	-1.699305	-1.700565	-0.003366	97.2102	-1.699279	-4.975747E+22	6.765110E-26	NaN
293	1.000000	0.014564	7.36792e+06	-53289.1	955.819	-29746.5	0.000000	0.000000	6.014789	-0.019288	NaN	0.000000	0.001614	0.001691	28.0801	0.104315	0.001650	63.2103	162.415	-165.636	0.081474	0.013392	-1.687361	-1.688534	-0.019288	63.2103	-1.687132	-3.431540E+22	5.620654E-25	NaN
293	1.000000	0.026564	7.36792e+06	-53289.1	955.819	-29746.5	0.000000	0.000000	6.026792	0.054595	NaN	0.000000	0.001670	0.001664	28.0813	0.033267	0.001975	16.8427	-21.0561	-169.032	0.037720	0.025199	-1.675361	-1.676727	0.054595	16.8427	-1.677792	-2.578631E+22	-2.117192E-24	NaN
293	1.000000	0.038544	7.36792e+06	-53289.1	955.818	-29746.5	0.000000	0.000000	6.038769	-0.007347	NaN	0.000000	0.001628	0.001698	28.0797	0.123361	0.001959	62.9616	155.608	-164.669	-0.008073	0.037263	-1.663382	-1.664662	-0.007347	62.9616	-1.663294	-1.654728E+22	4.440092E-25	NaN
293	1.000000	0.050490	7.36792e+06	-53289.1	955.818	-29746.5	0.000000	0.000000	6.050716	0.024986	NaN	0.000000	0.001615	0.001664	28.0799	0.041767	0.001962	21.2829	-101.932	-164.265	0.005376	0.049263	-1.651436	-1.652663	0.024986	21.2829	-1.652317	-1.182559E+22	-2.112857E-24	NaN
293	1.000000	0.062518	7.36792e+06	-53289.1	955.818	-29746.4	0.000000	0.000000	6.062748	0.109442	NaN	0.000000	0.001579	0.001661	28.0794	0.071953	0.002063	34.8827	73.1434	-167.425	0.196518	0.061227	-1.639407	-1.640699	0.109442	34.8827	-1.641760	-8.560601E+21	-1.278442E-23	NaN
293	1.000000	0.074529	7.36792e+06	-53289.1	955.819	-29746.4	0.000000	0.000000	6.074758	0.072019	NaN	0.000000	0.001630	0.001671	28.0795	0.051104	0.002054	24.8846	85.4129	-166.372	0.093339	0.073238	-1.627397	-1.628688	0.072019	24.8846	-1.629567	-5.893908E+21	-1.221924E-23	NaN
293	1.000000	0.086555	7.36792e+06	-53289.1	955.817	-29746.4	0.000000	0.000000	6.086783	0.070979	NaN	0.000000	0.001615	0.001658	28.0793	0.034027	0.002045	16.6429	-144.125	-167.465	0.107596	0.085227	-1.615371	-1.616699	0.070979	16.6429	-1.618569	-4.208963E+21	-1.686367E-23	NaN
293	1.000000	0.098526	7.36792e+06	-53289.1	955.818	-29746.4	0.000000	0.000000	6.098755	0.086662	NaN	0.000000	0.001656	0.001656	28.0795	0.105797	0.002010	52.6408	-26.2753	-168.998	0.096573	0.097220	-1.603399	-1.604706	0.086662	52.6408	-1.604634	-2.746991E+21	-3.154781E-23	NaN
293	1.000000	0.110534	7.36792e+06	-53289.1	955.819	-29746.4	0.000000	0.000000	6.110762	0.063429	NaN	0.000000	0.001652	0.001684	28.08	0.044474	0.001958	22.7193	142.849	-167.437	0.080762	0.109234	-1.591392	-1.592692	0.063429	22.7193	-1.593486	-1.952464E+21	-3.248665E-23	NaN
293	1.000000	0.122571	7.36792e+06	-53289.1	955.818	-29746.4	0.000000	0.000000	6.122799	0.071069	NaN	0.000000	0.001665	0.001678	28.0793	0.090644	0.001818	49.8617	153.281	-166.657	0.066145	0.121263	-1.579355	-1.580663	0.071069	49.8617	-1.580424	-1.308662E+21	-5.430648E-23	NaN
293	1.000000	0.134570	7.36792e+06	-53289.1	955.819	-29746.4	0.000000	0.000000	6.134797	0.057323	NaN	0.000000	0.001619	0.001692	28.0793	0.086052	0.002074	41.4952	130.443	-166.425	-0.001951	0.133285	-1.567356	-1.568640	0.057323	41.4952	-1.568392	-9.052061E+20	-6.332566E-23	NaN
293	1.000000	0.146556	7.36792e+06	-53289.1	955.818	-29746.4	0.000000	0.000000	6.146784	0.063200	NaN	0.000000	0.001579	0.001679	28.0795	0.013053	0.001905	6.851003	-83.0121	-168.3	0.120018	0.145296	-1.555370	-1.556630	0.063200	6.851003	-1.562289	-7.508159E+20	-8.417478E-23	NaN
293	1.000000	0.158536	7.36792e+06	-53289.1	955.818	-29746.4	0.000000	0.000000	6.158764	0.060993	NaN	0.000000	0.001599	0.001647	28.0791	0.051629	0.002046	25.239	4.931482	-164.523	0.040292	0.157283	-1.543390	-1.544643	0.060993	25.239	-1.545203	-4.447782E+20	-1.371322E-22	NaN
293	1.000000	0.170556	7.36792e+06	-53289.1	955.818	-29746.4	0.000000	0.000000	6.170785	0.079239	NaN	0.000000	0.001574	0.001670	28.078	0.055077	0.001991	27.6606	52.7359	-167.406	0.060226	0.169261	-1.531369	-1.532665	0.079239	27.6606	-1.533518	-3.108917E+20	-2.548772E-22	NaN
293	1.000000	0.182573	7.36792e+06	-53289.1	955.818	-29746.4	0.000000	0.000000	6.182803	0.112400	NaN	0.000000	0.001617	0.001634	28.0777	0.121161	0.001954	61.9936	-144.453	-166.398	0.054238	0.181267	-1.519352	-1.520658	0.112400	61.9936	-1.520712	-2.099542E+20	-5.353568E-22	NaN
293	1.000000	0.194580	7.36792e+06	-53289.1	955.819	-29746.4	0.000000	0.000000	6.194809	0.085518	NaN	0.000000	0.001586	0.001642	28.0783	0.070053	0.001857	37.7301	45.5835	-164.572	0.141386	0.193252	-1.507346	-1.508674	0.085518	37.7301	-1.509046	-1.468192E+20	-5.824730E-22	NaN
293	1.000000	0.206614	7.36792e+06	-53289.1	955.818	-29746.4	0.000000	0.000000	6.206844	0.095106	NaN	0.000000	0.001613	0.001679	28.0782	0.094161	0.002100	44.8469	15.2496	-168.301	0.104419	0.205274	-1.495311	-1.496652	0.095106	44.8469	-1.496902	-1.011700E+20	-9.400661E-22	NaN
293	1.000000	0.218594	7.36792e+06	-53289.1	955.819	-29746.4	0.000000	0.000000	6.218824	0.099926	NaN	0.000000	0.001592	0.001655	28.0775	0.052530	0.001916	27.4139	54.8603	-168.242	0.012342	0.217295	-1.483331	-1.484631	0.099926	27.4139	-1.486065	-7.256162E+19	-1.377125E-21	NaN
293	1.000000	0.230589	7.36792e+06	-53289.1	955.819	-29746.4	0.000000	0.000000	6.230816	0.038510	NaN	0.000000	0.001612	0.001587	28.078	0.084494	0.001999	42.2578	33.0198	-161.478	0.121234	0.229262	-1.471337	-1.472664	0.038510	42.2578	-1.472020	-4.716225E+19	-8.165363E-22	NaN
293	1.000000	0.242600	7.36792e+06	-53289.1	955.819	-29746.4	0.000000	0.000000	6.242828	0.057680	NaN	0.000000	0.001616	0.001646	28.078	0.036047	0.002046	17.6161	163.446	-169.32	0.051693	0.241278	-1.459326	-1.460647	0.057680	17.6161	-1.461782	-3.444783E+19	-1.674419E-21	NaN
293	1.000000	0.254597	7.36792e+06	-53289.1	955.818	-29746.4	0.000000	0.000000	6.254823	0.032567	NaN	0.000000	0.001561	0.001691	28.0779	0.149539	0.002062	72.5169	-109.3	-166.759	0.120407	0.253296	-1.447329	-1.448630	0.032567	72.5169	-1.447666	-2.233769E+19	-1.457947E-21	NaN
293	1.000000	0.266613	7.36792e+06	-53289.1	955.818	-29746.4	0.000000	0.000000	6.266839	0.013726	NaN	0.000000	0.001565	0.001617	28.0779	0.115014	0.002050	56.1062	-167.199	-163.299	0.023564	0.265302	-1.435313	-1.436623	0.013726	56.1062	-1.435496	-1.537505E+19	-8.927519E-22	NaN
293	1.000000	0.278629	7.36792e+06	-53289.1	955.819	-29746.4	0.000000	0.000000	6.278858	0.089124	NaN	0.000000	0.001573	0.001649	28.078	0.186243	0.001970	94.5434	164.899	-166.849	0.138110	0.277290	-1.423296	-1.424636	0.089124	94.5434	-1.424003	-1.080403E+19	-8.249141E-21	NaN
293	1.000000	0.290629	7.36792e+06	-53289.1	955.819	-29746.4	0.000000	0.000000	6.290855	0.016332	NaN	0.000000	0.001607	0.001646	28.0782	0.012186	0.002066	5.899461	-58.3371	-163.826	0.096640	0.289303	-1.411297	-1.412623	0.016332	5.899461	-1.413373	-7.795331E+18	-2.095134E-21	NaN
293	1.000000	0.302621	7.36792e+06	-53289.1	955.819	-29746.4	0.000000	0.000000	6.302849	0.075442	NaN	0.000000	0.001596	0.001675	28.0788	0.040752	0.002014	20.2335	136.907	-167.348	0.183857	0.301316	-1.399305	-1.400610	0.075442	20.2335	-1.402102	-5.514402E+18	-1.368089E-20	NaN
293	1.000000	0.314606	7.36792e+06	-53289.1	955.819	-29746.4	0.000000	0.000000	6.314837	0.129831	NaN	0.000000	0.001554	0.001627	28.0797	0.169953	0.002066	82.2675	39.6829	-164.377	0.174498	0.313326	-1.387320	-1.388599	0.129831	82.2675	-1.388503	-3.631572E+18	-3.575054E-20	NaN
293	1.000000	0.326638	7.36792e+06	-53289.1	955.819	-29746.4	0.000000	0.000000	6.326864	0.011559	NaN	0.000000	0.001549	0.001661	28.0793	0.076981	0.002023	38.053	120.297	-168.959	0.085619	0.325342	-1.375288	-1.376584	0.011559	38.053	-1.375515	-2.436680E+18	-4.743773E-21	NaN
293	1.000000	0.338642	7.36792e+06	-53289.1	955.818	-29746.4	0.000000	0.000000	6.338869	0.048551	NaN	0.000000	0.001575	0.001575	28.0796	0.025859	0.001978	13.0729	-139.231	-166.487	0.067167	0.337322	-1.363284	-1.364604	0.048551	13.0729	-1.366070	-1.822793E+18	-2.663555E-20	NaN
293	1.000000	0.350655	7.36792e+06	-53289.1	955.818	-29746.4	0.000000	0.000000	6.350881	0.031842	NaN	0.000000	0.001571	0.001651	28.0791	0.077012	0.002001	38.4791	-156.625	-165.763	0.037943	0.349322	-1.351271	-1.352604	0.031842	38.4791	-1.351892	-1.178919E+18	-2.700955E-20	NaN
293	1.000000	0.362631	7.36792e+06	-53289.1	955.818	-29746.4	0.000000	0.000000	6.362855	-0.023523	NaN	0.000000	0.001578	0.001651	28.0792	0.049740	0.001829	27.1926	-162.928	-166.678	-0.001703	0.361314	-1.339295	-1.340611	-0.023523	27.1926	-1.338646	-7.845717E+17	2.998258E-20	NaN
293	1.000000	0.374649	7.36792e+06	-53289.1	955.819	-29746.4	0.000000	0.000000	6.374875	-0.001960	NaN	0.000000	0.001581	0.001646	28.0793	0.084335	0.002065	40.8379	70.5794	-165.981	-0.019802	0.373354	-1.327276	-1.328572	-0.001960	40.8379	-1.327241	-5.524786E+17	3.547493E-21	NaN
293	1.000000	0.386678	7.36792e+06	-53289.1	955.818	-29746.4	0.000000	0.000000	6.386905	0.045997	NaN	0.000000	0.001645	0.001656	28.0794	0.109682	0.001968	55.7235	-18.617	-165.832	0.014847	0.385372	-1.315248	-1.316554	0.045997	55.7235	-1.315867	-3.893979E+17	-1.181234E-19	NaN
293	1.000000	0.398673	7.36792e+06	-53289.1	955.818	-29746.4	0.000000	0.000000	6.398902	0.095300	NaN	0.000000	0.001620	0.001618	28.0795	0.052479	0.002043	25.6867	163.165	-165.57	0.068760	0.397395	-1.303253	-1.304531	0.095300	25.6867	-1.306035	-2.877683E+17	-3.311706E-19	NaN
293	1.000000	0.410668	7.36792e+06	-53289.1	955.818	-29746.4	0.000000	0.000000	6.410898	0.095580	NaN	0.000000	0.001613	0.001618	28.0791	0.091147	0.002004	45.4889	135.414	-164.978	0.096682	0.409352	-1.291257	-1.292574	0.095580	45.4889	-1.292833	-1.916997E+17	-4.985942E-19	NaN
293	1.000000	0.422682	7.36792e+06	-53289.1	955.818	-29746.4	0.000000	0.000000	6.422907	-0.008722	NaN	0.000000	0.001598	0.001639	28.0794	0.039336	0.002033	19.3446	42.8425	-168.35	0.077948	0.421357	-1.279244	-1.280568	-0.008722	19.3446	-1.278906	-1.248698E+17	6.984810E-20	NaN
293	1.000000	0.434690	7.36792e+06	-53289.1	955.819	-29746.4	0.000000	0.000000	6.434917	0.046797	NaN	0.000000	0.001582	0.001683	28.0794	0.109849	0.001988	55.2605	138.626	-162.883	0.065073	0.433407	-1.267236	-1.268519	0.046797	55.2605	-1.267871	-8.890537E+16	-5.263717E-19	NaN
293	1.000000	0.446680	7.36792e+06	-53289.1	955.819	-29746.4	0.000000	0.000000	6.446905	-0.007312	NaN	0.000000	0.001619	0.001690	28.078	0.059438	0.001945	30.5532	-108.746	-169.42	-0.046092	0.445381	-1.255246	-1.256544	-0.007312	30.5532	-1.255066	-5.993566E+16	1.220030E-19	NaN
293	1.000000	0.458692	7.36792e+06	-53289.1	955.819	-29746.4	0.000000	0.000000	6.458919	0.052628	NaN	0.000000	0.001630	0.001690	28.0781	0.017995	0.002016	8.925595	-168	-169.538	0.127787	0.457449	-1.243234	-1.244477	0.052628	8.925595	-1.247656	-4.770580E+16	-1.103183E-18	NaN
293	1.000000	0.470700	7.36792e+06	-53289.1	955.818	-29746.4	0.000000	0.000000	6.470926	0.016888	NaN	0.000000	0.001640	0.001678	28.0782	0.040874	0.001950	20.9584	-171.475	-165.633	-0.011510	0.469388	-1.231226	-1.232538	0.016888	20.9584	-1.231830	-2.929763E+16	-5.764180E-19	NaN
293	1.000000	0.482689	7.36792e+06	-53289.1	955.818	-29746.4	0.000000	0.000000	6.482915	0.020792	NaN	0.000000	0.001635	0.001676	28.0786	0.013933	0.002061	6.760941	-63.7588	-165.493	0.069454	0.481397	-1.219237	-1.220529	0.020792	6.760941	-1.221543	-2.133839E+16	-9.743858E-19	NaN
293	1.000000	0.494722	7.36792e+06	-53289.1	955.819	-29746.4	0.000000	0.000000	6.494950	0.055778	NaN	0.000000	0.001708	0.001681	28.0786	0.080685	0.001837	43.916	-150.209	-165.723	-0.009958	0.493367	-1.207204	-1.208559	0.055778	43.916	-1.208157	-1.412411E+16	-3.949166E-18	NaN
293	1.000000	0.506744	7.36792e+06	-53289.1	955.819	-29746.4	0.000000	0.000000	6.506970	0.020824	NaN	0.000000	0.001660	0.001629	28.0782	0.117823	0.002106	55.9448	65.4001	-164.814	0.084302	0.505386	-1.195182	-1.196540	0.020824	55.9448	-1.195461	-9.549077E+15	-2.180744E-18	NaN
293	1.000000	0.518706	7.36792e+06	-53289.1	955.819	-29746.4	0.000000	0.000000	6.518935	0.079540	NaN	0.000000	0.001708	0.001682	28.0782	0.093986	0.002097	44.8285	-171.532	-168.585	0.178481	0.517368	-1.183220	-1.184558	0.079540	44.8285	-1.184550	-6.820702E+15	-1.166154E-17	NaN
293	1.000000	0.530710	7.36792e+06	-53289.1	955.818	-29746.4	0.000000	0.000000	6.530936	0.006979	NaN	0.000000	0.001698	0.001650	28.0782	0.084683	0.001853	45.7028	-20.3934	-166.45	0.003541	0.529425	-1.171215	-1.172501	0.006979	45.7028	-1.171330	-4.536347E+15	-1.538408E-18	NaN
293	1.000000	0.542725	7.36792e+06	-53289.1	955.819	-29746.4	0.000000	0.000000	6.542953	0.055258	NaN	0.000000	0.001601	0.001617	28.0785	0.092735	0.002031	45.6593	-174.484	-164.703	0.017571	0.541425	-1.159200	-1.160501	0.055258	45.6593	-1.160108	-3.208612E+15	-1.722182E-17	NaN
293	1.000000	0.554747	7.36792e+06	-53289.1	955.818	-29746.4	0.000000	0.000000	6.554974	0.047241	NaN	0.000000	0.001617	0.001606	28.0783	0.063213	0.001907	33.1512	-36.0191	-166.181	0.070913	0.553444	-1.147179	-1.148481	0.047241	33.1512	-1.148248	-2.224975E+15	-2.123211E-17	NaN
293	1.000000	0.566740	7.36793e+06	-53289.1	955.819	-29746.4	0.000000	0.000000	6.566966	0.016983	NaN	0.000000	0.001636	0.001609	28.0782	0.119601	0.002016	59.3278	173.019	-167.75	0.007960	0.565408	-1.135186	-1.136517	0.016983	59.3278	-1.135401	-1.496444E+15	-1.134904E-17	NaN
293	1.000000	0.578758	7.36793e+06	-53289.1	955.819	-29746.4	0.000000	0.000000	6.578987	0.077058	NaN	0.000000	0.001605	0.001607	28.0791	0.011736	0.002098	5.594452	165.644	-166.797	0.066975	0.577393	-1.123167	-1.124533	0.077058	5.594452	-1.133498	-1.411029E+15	-5.461119E-17	NaN
293	1.000000	0.590734	7.36793e+06	-53289.1	955.818	-29746.4	0.000000	0.000000	6.590962	0.074257	NaN	0.000000	0.001613	0.001672	28.0804	0.010758	0.002001	5.376253	14.7564	-166.564	0.134455	0.589429	-1.111192	-1.112497	0.074257	5.376253	-1.121551	-9.756186E+14	-7.611296E-17	NaN
293	1.000000	0.602768	7.36793e+06	-53289.1	955.819	-29746.4	0.000000	0.000000	6.602993	-0.007829	NaN	0.000000	0.001649	0.001655	28.0795	0.092132	0.001983	46.4549	28.0068	-166.054	-0.117011	0.601497	-1.099158	-1.100428	-0.007829	46.4549	-1.099031	-4.864772E+14	1.609263E-17	NaN
293	1.000000	0.614778	7.36793e+06	-53289.1	955.818	-29746.4	0.000000	0.000000	6.615006	0.063868	NaN	0.000000	0.001669	0.001640	28.0796	0.107657	0.001937	55.5739	-78.6786	-166.649	0.031889	0.613463	-1.087148	-1.088463	0.063868	55.5739	-1.088010	-3.460125E+14	-1.845822E-16	NaN
293	1.000000	0.626789	7.36793e+06	-53289.1	955.818	-29746.4	0.000000	0.000000	6.627016	0.040202	NaN	0.000000	0.001614	0.001638	28.0799	0.021070	0.002072	10.1706	107.587	-169.744	0.016824	0.625461	-1.075137	-1.076465	0.040202	10.1706	-1.078101	-2.546926E+14	-1.578471E-16	NaN
293	1.000000	0.638749	7.36793e+06	-53289.1	955.818	-29746.4	0.000000	0.000000	6.638975	0.001098	NaN	0.000000	0.001620	0.001645	28.0794	0.015821	0.002077	7.616532	-146.037	-165.399	0.076919	0.637404	-1.063177	-1.064522	0.001098	7.616532	-1.063285	-1.610497E+14	-6.816347E-18	NaN
293	1.000000	0.650773	7.36793e+06	-53289.1	955.819	-29746.4	0.000000	0.000000	6.651001	0.050274	NaN	0.000000	0.001621	0.001658	28.0797	0.071377	0.001992	35.8381	121.463	-166.081	0.062719	0.649435	-1.051153	-1.052490	0.050274	35.8381	-1.052205	-1.143016E+14	-4.398372E-16	NaN
293	1.000000	0.662762	7.36793e+06	-53289.1	955.819	-29746.4	0.000000	0.000000	6.662990	0.046332	NaN	0.000000	0.001613	0.001598	28.0796	0.103385	0.002007	51.5129	-169.158	-165.735	0.027105	0.661478	-1.039163	-1.040447	0.046332	51.5129	-1.039838	-7.794516E+13	-5.944202E-16	NaN
293	1.000000	0.674764	7.36793e+06	-53289.1	955.819	-29746.4	0.000000	0.000000	6.674991	0.033661	NaN	0.000000	0.001634	0.001610	28.0798	0.018015	0.001997	9.019428	164.355	-163.177	0.069669	0.673405	-1.027162	-1.028521	0.033661	9.019428	-1.029961	-5.740523E+13	-5.863789E-16	NaN
293	1.000000	0.686802	7.36793e+06	-53289.1	955.818	-29746.4	0.000000	0.000000	6.687028	0.015267	NaN	0.000000	0.001638	0.001634	28.08	0.115164	0.001962	58.703	-174.85	-165.776	0.009919	0.685478	-1.015123	-1.016448	0.015267	58.703	-1.015319	-3.647197E+13	-4.186052E-16	NaN
293	1.000000	0.698788	7.36793e+06	-53289.1	955.819	-29746.4	0.000000	0.000000	6.699014	0.011678	NaN	0.000000	0.001611	0.001646	28.0793	0.125126	0.001936	64.6335	38.1941	-163.942	0.014872	0.697455	-1.003138	-1.004471	0.011678	64.6335	-1.003273	-2.510935E+13	-4.650985E-16	NaN
293	1.000000	0.710820	7.36793e+06	-53289.1	955.818	-29746.4	0.000000	0.000000	6.711046	0.016397	NaN	0.000000	0.001646	0.001675	28.0795	0.055053	0.001931	28.5162	-80.8946	-167.76	0.017241	0.709499	-0.991106	-0.992427	0.016397	28.5162	-0.991537	-1.745081E+13	-9.396371E-16	NaN
293	1.000000	0.722801	7.36793e+06	-53289.1	955.818	-29746.4	0.000000	0.000000	6.723030	0.070263	NaN	0.000000	0.001610	0.001656	28.0784	0.052027	0.001887	27.5651	-120.911	-165.154	0.052567	0.721487	-0.979124	-0.980438	0.070263	27.5651	-0.981036	-1.259992E+13	-5.576431E-15	NaN
293	1.000000	0.734828	7.36793e+06	-53289.1	955.818	-29746.4	0.000000	0.000000	6.735054	0.011506	NaN	0.000000	0.001606	0.001664	28.0784	0.052312	0.002022	25.8677	-111.576	-164.261	0.038114	0.733531	-0.967097	-0.968394	0.011506	25.8677	-0.967431	-8.261126E+12	-1.392749E-15	NaN
293	1.000000	0.746768	7.36793e+06	-53289.1	955.818	-29746.4	0.000000	0.000000	6.746992	-0.045454	NaN	0.000000	0.001643	0.001618	28.0783	0.072885	0.002014	36.1979	91.2541	-169.053	-0.018864	0.745485	-0.955157	-0.956441	-0.045454	36.1979	-0.954216	-5.481210E+12	8.292729E-15	NaN
293	1.000000	0.758827	7.36793e+06	-53289.1	955.819	-29746.4	0.000000	0.000000	6.759052	0.004409	NaN	0.000000	0.001599	0.001627	28.0783	0.023608	0.002010	11.7478	9.594203	-166.436	-0.041415	0.757461	-0.943099	-0.944464	0.004409	11.7478	-0.943380	-3.915094E+12	-1.126091E-15	NaN
293	1.000000	0.770846	7.36793e+06	-53289.1	955.819	-29746.4	0.000000	0.000000	6.771074	0.039304	NaN	0.000000	0.001641	0.001632	28.0788	0.084268	0.002088	40.3653	179.06	-168.459	0.030420	0.769532	-0.931079	-0.932393	0.039304	40.3653	-0.931810	-2.732870E+12	-1.438203E-14	NaN
293	1.000000	0.782794	7.36793e+06	-53289.1	955.819	-29746.4	0.000000	0.000000	6.783025	0.114535	NaN	0.000000	0.001633	0.001627	28.0784	0.039868	0.001855	21.4887	-63.4083	-167.903	0.061848	0.781491	-0.919131	-0.920435	0.114535	21.4887	-0.923129	-2.086638E+12	-5.488955E-14	NaN
293	1.000000	0.794835	7.36793e+06	-53289.1	955.818	-29746.4	0.000000	0.000000	6.795062	0.046097	NaN	0.000000	0.001633	0.001611	28.0781	0.012886	0.001938	6.649739	-75.4215	-167.234	0.077200	0.793505	-0.907091	-0.908421	0.046097	6.649739	-0.912290	-1.489674E+12	-3.094468E-14	NaN
293	1.000000	0.806853	7.36793e+06	-53289.1	955.818	-29746.4	0.000000	0.000000	6.807080	0.044097	NaN	0.000000	0.001663	0.001605	28.0781	0.060433	0.001991	30.3454	46.6146	-167.204	-0.055695	0.805493	-0.895073	-0.896433	0.044097	30.3454	-0.896163	-9.020203E+11	-4.888677E-14	NaN
293	1.000000	0.818835	7.36793e+06	-53289.1	955.818	-29746.4	0.000000	0.000000	6.819065	0.124349	NaN	0.000000	0.001658	0.001627	28.0781	0.055355	0.002008	27.5703	-164.548	-166.04	0.096491	0.817496	-0.883091	-0.884430	0.124349	27.5703	-0.886474	-6.671827E+11	-1.863787E-13	NaN
293	1.000000	0.830856	7.36793e+06	-53289.1	955.818	-29746.4	0.000000	0.000000	6.831083	0.019870	NaN	0.000000	0.001636	0.001652	28.0782	0.058475	0.001897	30.823	5.386914	-163.136	0.007750	0.829483	-0.871069	-0.872443	0.019870	30.823	-0.871553	-4.192290E+11	-4.739575E-14	NaN
293	1.000000	0.842858	7.36793e+06	-53289.1	955.819	-29746.4	0.000000	0.000000	6.843085	0.024650	NaN	0.000000	0.001610	0.001623	28.0782	0.046759	0.002049	22.8221	177.029	-164.634	0.083761	0.841522	-0.859068	-0.860403	0.024650	22.8221	-0.859878	-2.913845E+11	-8.459780E-14	NaN
293	1.000000	0.854864	7.36793e+06	-53289.1	955.819	-29746.4	0.000000	0.000000	6.855089	-0.008821	NaN	0.000000	0.001640	0.001639	28.0797	0.089608	0.002017	44.4256	150.68	-164.834	-0.015649	0.853569	-0.847062	-0.848356	-0.008821	44.4256	-0.846913	-1.945047E+11	4.535247E-14	NaN
293	1.000000	0.866855	7.36793e+06	-53289.1	955.819	-29746.4	0.000000	0.000000	6.867081	0.031164	NaN	0.000000	0.001635	0.001644	28.0796	0.060555	0.001998	30.3025	105.729	-164.511	0.090047	0.865584	-0.835071	-0.836341	0.031164	30.3025	-0.835842	-1.377089E+11	-2.263046E-13	NaN
293	1.000000	0.878888	7.36793e+06	-53289.1	955.817	-29746.4	0.000000	0.000000	6.879116	0.059534	NaN	0.000000	0.001638	0.001655	28.0796	0.130565	0.001917	68.105	86.9073	-164.949	0.060988	0.877583	-0.823037	-0.824342	0.059534	68.105	-0.823693	-9.425088E+10	-6.316524E-13	NaN
293	1.000000	0.890875	7.36793e+06	-53289.1	955.819	-29746.4	0.000000	0.000000	6.891099	-0.020084	NaN	0.000000	0.001638	0.001657	28.0794	0.062673	0.001948	32.1662	44.2485	-168.401	0.067150	0.889576	-0.811051	-0.812350	-0.020084	32.1662	-0.810583	-6.258631E+10	3.208992E-13	NaN
293	1.000000	0.902888	7.36793e+06	-53289.1	955.817	-29746.4	0.000000	0.000000	6.903118	0.108135	NaN	0.000000	0.001629	0.001625	28.0794	0.038353	0.001943	19.7433	-16.7741	-170.565	-0.003678	0.901613	-0.799037	-0.800313	0.108135	19.7433	-0.803145	-4.960791E+10	-2.179792E-12	NaN
293	1.000000	0.914892	7.36793e+06	-53289.1	955.817	-29746.4	0.000000	0.000000	6.915119	0.031256	NaN	0.000000	0.001629	0.001633	28.0796	0.063822	0.001986	32.1363	95.7776	-164.856	0.107388	0.913578	-0.787034	-0.788348	0.031256	32.1363	-0.787763	-3.066928E+10	-1.019145E-12	NaN
293	1.000000	0.926902	7.36793e+06	-53289.1	955.819	-29746.4	0.000000	0.000000	6.927128	0.019794	NaN	0.000000	0.001626	0.001616	28.0794	0.035558	0.002002	17.7603	57.4422	-166.234	0.033458	0.925580	-0.775024	-0.776345	0.019794	17.7603	-0.775859	-2.113298E+10	-9.366179E-13	NaN
293	1.000000	0.938882	7.36793e+06	-53289.1	955.819	-29746.4	0.000000	0.000000	6.939110	0.056711	NaN	0.000000	0.001633	0.001607	28.0795	0.148106	0.002035	72.7742	1.166800	-166.686	-0.045116	0.937593	-0.763044	-0.764333	0.056711	72.7742	-0.763628	-1.440971E+10	-3.935602E-12	NaN
293	1.000000	0.950911	7.36793e+06	-53289.1	955.818	-29746.4	0.000000	0.000000	6.951140	0.090610	NaN	0.000000	0.001643	0.001624	28.0794	0.044985	0.002011	22.3709	-136.846	-167.058	0.115564	0.949595	-0.751015	-0.752331	0.090610	22.3709	-0.754053	-1.067534E+10	-8.487783E-12	NaN
293	1.000000	0.962873	7.36793e+06	-53289.1	955.818	-29746.4	0.000000	0.000000	6.963102	0.097519	NaN	0.000000	0.001595	0.001640	28.0795	0.051011	0.002005	25.4433	84.0855	-163.513	-0.001738	0.961557	-0.739053	-0.740368	0.097519	25.4433	-0.741927	-7.299742E+9	-1.335921E-11	NaN
293	1.000000	0.974908	7.36793e+06	-53289.1	955.82	-29746.4	0.000000	0.000000	6.975135	0.039742	NaN	0.000000	0.001569	0.001587	28.0795	0.090610	0.001997	45.3723	-26.7159	-167.289	0.086529	0.973580	-0.727017	-0.728345	0.039742	45.3723	-0.727674	-4.667757E+9	-8.514172E-12	NaN
293	1.000000	0.986900	7.36793e+06	-53289.1	955.819	-29746.4	0.000000	0.000000	6.987129	0.084530	NaN	0.000000	0.001621	0.001639	28.0797	0.024885	0.002076	11.9857	-62.4757	-161.978	0.063487	0.985574	-0.715026	-0.716352	0.084530	11.9857	-0.720315	-3.704865E+9	-2.281593E-11	NaN
293	1.000000	0.998915	7.36793e+06	-53289.1	955.819	-29746.4	0.000000	0.000000	6.999140	-0.000302	NaN	0.000000	0.001602	0.001614	28.0784	0.038791	0.001986	19.5307	-75.1015	-166.736	0.112917	0.997574	-0.703011	-0.704351	-0.000302	19.5307	-0.703000	-2.150254E+9	1.403330E-13	NaN
293	1.000000	1.010935	7.36793e+06	-53289.1	955.818	-29746.4	0.000000	0.000000	7.011158	-0.062799	NaN	0.000000	0.001650	0.001591	28.0782	0.054778	0.001982	27.6435	129.321	-165.19	-0.008674	1.009627	-0.690991	-0.692298	-0.062799	27.6435	-0.689287	-1.396931E+9	4.495485E-11	NaN
293	1.000000	1.022944	7.36793e+06	-53289.1	955.819	-29746.4	0.000000	0.000000	7.023171	0.034898	NaN	0.000000	0.001642	0.001654	28.078	0.099612	0.001984	50.2001	50.0958	-169.399	0.081457	1.021595	-0.678981	-0.680331	0.034898	50.2001	-0.679503	-1.026607E+9	-3.399356E-11	NaN
293	1.000000	1.034933	7.36793e+06	-53289.1	955.818	-29746.4	0.000000	0.000000	7.035162	0.081585	NaN	0.000000	0.001652	0.001622	28.0782	0.017740	0.002047	8.666074	148.997	-164.484	0.151649	1.033619	-0.666993	-0.668306	0.081585	8.666074	-0.674053	-8.646900E+8	-9.435166E-11	NaN
293	1.000000	1.046947	7.36793e+06	-53289.1	955.818	-29746.4	0.000000	0.000000	7.047172	-0.006039	NaN	0.000000	0.001705	0.001629	28.0782	0.065470	0.002034	32.1859	102.069	-169.11	0.013809	1.045597	-0.654979	-0.656329	-0.006039	32.1859	-0.654838	-4.717949E+8	1.279906E-11	NaN
293	1.000000	1.058955	7.36793e+06	-53289.1	955.819	-29746.4	0.000000	0.000000	7.059184	0.094606	NaN	0.000000	0.001695	0.001603	28.0782	0.060296	0.002108	28.6086	144.014	-169.012	0.082299	1.057616	-0.642971	-0.644309	0.094606	28.6086	-0.645451	-3.508053E+8	-2.696814E-10	NaN
293	1.000000	1.070976	7.36793e+06	-53289.1	955.818	-29746.4	0.000000	0.000000	7.071199	-0.049677	NaN	0.000000	0.001682	0.001679	28.0783	0.061698	0.001937	31.8496	-66.2188	-167.065	0.044651	1.069637	-0.630950	-0.632289	-0.049677	31.8496	-0.629780	-2.137984E+8	2.323560E-10	NaN
293	1.000000	1.082979	7.36793e+06	-53289.1	955.819	-29746.4	0.000000	0.000000	7.083204	-0.008969	NaN	0.000000	0.001665	0.001627	28.0781	0.075599	0.002073	36.4657	-139.604	-168.664	-0.025784	1.081699	-0.618947	-0.620227	-0.008969	36.4657	-0.618762	-1.508746E+8	5.944399E-11	NaN
293	1.000000	1.094935	7.36793e+06	-53289.1	955.819	-29746.4	0.000000	0.000000	7.095164	0.086325	NaN	0.000000	0.001604	0.001630	28.078	0.126870	0.002032	62.4275	2.973198	-163.756	0.003083	1.093624	-0.606990	-0.608302	0.086325	62.4275	-0.608027	-1.073918E+8	-8.038297E-10	NaN
293	1.000000	1.106974	7.36793e+06	-53289.1	955.818	-29746.4	0.000000	0.000000	7.107199	-0.013839	NaN	0.000000	0.001589	0.001625	28.078	0.095380	0.002011	47.4331	118.728	-167.453	0.015978	1.105654	-0.594951	-0.596272	-0.013839	47.4331	-0.594733	-7.045234E+7	1.964357E-10	NaN
293	1.000000	1.118964	7.36793e+06	-53289.1	955.818	-29746.4	0.000000	0.000000	7.119193	0.098670	NaN	0.000000	0.001612	0.001607	28.0781	0.092222	0.002217	41.6057	-95.2292	-166.736	0.159784	1.117606	-0.582962	-0.584320	0.098670	41.6057	-0.584741	-5.130213E+7	-1.923320E-9	NaN
293	1.000000	1.130996	7.36793e+06	-53289.1	955.819	-29746.4	0.000000	0.000000	7.131224	0.075079	NaN	0.000000	0.001573	0.001643	28.0794	0.141659	0.002103	67.3749	-102.684	-164.097	0.076049	1.129617	-0.570930	-0.572309	0.075079	67.3749	-0.571766	-3.396494E+7	-2.210500E-9	NaN
293	1.000000	1.142960	7.36793e+06	-53289.1	955.819	-29746.4	0.000000	0.000000	7.143191	0.125106	NaN	0.000000	0.001604	0.001645	28.0795	0.110576	0.002059	53.6935	76.1793	-167.11	0.110089	1.141655	-0.558966	-0.560271	0.125106	53.6935	-0.560713	-2.389142E+7	-5.236445E-9	NaN
293	1.000000	1.154978	7.36793e+06	-53289.1	955.819	-29746.4	0.000000	0.000000	7.155209	0.142051	NaN	0.000000	0.001606	0.001619	28.0793	0.053445	0.002119	25.2175	-157.72	-169.754	0.084775	1.153731	-0.546948	-0.548195	0.142051	25.2175	-0.551173	-1.762795E+7	-8.058303E-9	NaN
293	1.000000	1.166964	7.36793e+06	-53289.1	955.819	-29746.4	0.000000	0.000000	7.167191	0.022616	NaN	0.000000	0.001577	0.001663	28.0795	0.015508	0.001964	7.895163	-10.3586	-167.148	-0.001647	1.165635	-0.534962	-0.536290	0.022616	7.895163	-0.537110	-1.125299E+7	-2.009760E-9	NaN
293	1.000000	1.178988	7.36793e+06	-53289.1	955.819	-29746.4	0.000000	0.000000	7.179216	0.049647	NaN	0.000000	0.001629	0.001625	28.0796	0.067593	0.001974	34.238	134.691	-161.945	0.068273	1.177692	-0.522937	-0.524233	0.049647	34.238	-0.524025	-7.40556e+06	-6.704055E-9	NaN
293	1.000000	1.190974	7.36793e+06	-53289.1	955.819	-29746.4	0.000000	0.000000	7.191200	0.016586	NaN	0.000000	0.001621	0.001624	28.0796	0.061991	0.002112	29.3508	10.9052	-164.658	0.007540	1.189685	-0.510952	-0.512240	0.016586	29.3508	-0.511376	-4.9383e+06	-3.358613E-9	NaN
293	1.000000	1.203028	7.36793e+06	-53289.1	955.819	-29746.4	0.000000	0.000000	7.203254	0.031704	NaN	0.000000	0.001617	0.001628	28.0797	0.133062	0.001915	69.495	-164.569	-163.348	-0.004429	1.201660	-0.498898	-0.500266	0.031704	69.495	-0.499240	-3.34518e+06	-9.477501E-9	NaN
293	1.000000	1.215024	7.36793e+06	-53289.1	955.819	-29746.4	0.000000	0.000000	7.215253	0.066623	NaN	0.000000	0.001616	0.001628	28.0795	0.130617	0.001916	68.1544	-34.9403	-167.522	0.089071	1.213699	-0.486901	-0.488226	0.066623	68.1544	-0.487634	-2.30319e+06	-2.892650E-8	NaN
293	1.000000	1.227036	7.36793e+06	-53289.1	955.818	-29746.4	0.000000	0.000000	7.227264	0.059886	NaN	0.000000	0.001625	0.001629	28.0799	0.011071	0.001975	5.606910	82.2423	-163.815	0.108320	1.225744	-0.474890	-0.476182	0.059886	5.606910	-0.482901	-1.97754e+06	-3.028331E-8	NaN
293	1.000000	1.239046	7.36793e+06	-53289.1	955.818	-29746.4	0.000000	0.000000	7.239272	0.013892	NaN	0.000000	0.001626	0.001624	28.0795	0.123037	0.002054	59.9017	-45.4887	-166.037	0.044524	1.237672	-0.462880	-0.464253	0.013892	59.9017	-0.463054	-1.04213e+06	-1.333029E-8	NaN
293	1.000000	1.250999	7.36793e+06	-53289.1	955.819	-29746.4	0.000000	0.000000	7.251225	0.004721	NaN	0.000000	0.001623	0.001632	28.0796	0.031552	0.002099	15.034	-3.523713	-165.027	0.032567	1.249693	-0.450926	-0.452233	0.004721	15.034	-0.451162	-709093	-6.657803E-9	NaN
293	1.000000	1.263028	7.36793e+06	-53289.1	955.819	-29746.4	0.000000	0.000000	7.263255	0.033368	NaN	0.000000	0.001607	0.001595	28.0783	0.045347	0.001863	24.343	97.9931	-163.713	0.001144	1.261695	-0.438898	-0.440231	0.033368	24.343	-0.439926	-492398	-6.776542E-8	NaN
293	1.000000	1.275025	7.36793e+06	-53289.1	955.818	-29746.4	0.000000	0.000000	7.275253	0.051830	NaN	0.000000	0.001600	0.001678	28.0783	0.096879	0.002067	46.8771	-25.1713	-169.986	0.037243	1.273737	-0.426901	-0.428189	0.051830	46.8771	-0.427730	-331083	-1.565474E-7	NaN
293	1.000000	1.287012	7.36793e+06	-53289.1	955.82	-29746.4	0.000000	0.000000	7.287241	0.062610	NaN	0.000000	0.001559	0.001646	28.0787	0.022219	0.001944	11.4296	-141.087	-166.416	-0.004085	1.285737	-0.414913	-0.416189	0.062610	11.4296	-0.419022	-249194	-2.512512E-7	NaN
293	1.000000	1.299043	7.36793e+06	-53289.1	955.819	-29746.4	0.000000	0.000000	7.299267	-0.040148	NaN	0.000000	0.001627	0.001642	28.0783	0.026241	0.001961	13.3802	143.156	-165.432	0.081653	1.297703	-0.402883	-0.404223	-0.040148	13.3802	-0.400633	-136463	2.942072E-7	NaN
293	1.000000	1.311037	7.36793e+06	-53289.1	955.819	-29746.4	0.000000	0.000000	7.311262	0.008618	NaN	0.000000	0.001622	0.001671	28.0783	0.018605	0.001978	9.406896	-160.208	-166.052	-0.008445	1.309717	-0.390889	-0.392209	0.008618	9.406896	-0.391576	-101323	-8.505001E-8	NaN
293	1.000000	1.323056	7.36793e+06	-53289.1	955.819	-29746.4	0.000000	0.000000	7.323281	-0.004030	NaN	0.000000	0.001611	0.001665	28.0784	0.086846	0.002019	43.0116	-72.0052	-164.848	0.048098	1.321726	-0.378870	-0.380200	-0.004030	43.0116	-0.378800	-66475.5	6.062360E-8	NaN
293	1.000000	1.335075	7.36793e+06	-53289.1	955.819	-29746.4	0.000000	0.000000	7.335303	0.047474	NaN	0.000000	0.001602	0.001655	28.0781	0.098909	0.001994	49.5935	-103.35	-165.139	0.064242	1.333729	-0.366850	-0.368197	0.047474	49.5935	-0.367568	-45824.1	-1.036002E-6	NaN
293	1.000000	1.347059	7.36793e+06	-53289.1	955.82	-29746.4	0.000000	0.000000	7.347285	0.032689	NaN	0.000000	0.001620	0.001641	28.0783	0.058992	0.001994	29.5856	166.106	-164.222	0.006292	1.345744	-0.354867	-0.356182	0.032689	29.5856	-0.355696	-30872.7	-1.058846E-6	NaN
293	1.000000	1.359038	7.36793e+06	-53289.1	955.819	-29746.4	0.000000	0.000000	7.359262	-0.031775	NaN	0.000000	0.001631	0.001636	28.0781	0.064749	0.001897	34.1403	29.1884	-166.251	0.078587	1.357731	-0.342888	-0.344194	-0.031775	34.1403	-0.342190	-19654.4	1.616668E-6	NaN
293	1.000000	1.371085	7.36793e+06	-53289.1	955.82	-29746.4	0.000000	0.000000	7.371311	0.011672	NaN	0.000000	0.001605	0.001690	28.0784	0.021214	0.002045	10.374	-151.695	-166.462	-0.004440	1.369723	-0.330841	-0.332203	0.011672	10.374	-0.331685	-13807.5	-8.453152E-7	NaN
293	1.000000	1.383055	7.36793e+06	-53289.1	955.819	-29746.4	0.000000	0.000000	7.383282	0.027327	NaN	0.000000	0.001609	0.001649	28.0786	0.083398	0.001945	42.8794	121.812	-166.188	0.074583	1.381718	-0.318870	-0.320208	0.027327	42.8794	-0.319348	-9100.05	-3.002906E-6	NaN
293	1.000000	1.395090	7.36793e+06	-53289.1	955.819	-29746.4	0.000000	0.000000	7.395317	0.053747	NaN	0.000000	0.001609	0.001660	28.0781	0.049127	0.001830	26.8487	25.4191	-168.363	0.055949	1.393757	-0.306836	-0.308169	0.053747	26.8487	-0.308337	-6258.06	-8.588385E-6	NaN
293	1.000000	1.407115	7.36793e+06	-53289.1	955.818	-29746.4	0.000000	0.000000	7.407340	-0.029494	NaN	0.000000	0.001600	0.001654	28.0793	0.069948	0.001922	36.3957	114.119	-166.311	-0.021042	1.405806	-0.294810	-0.296120	-0.029494	36.3957	-0.294203	-3856.35	7.648077E-6	NaN
293	1.000000	1.419128	7.36793e+06	-53289.1	955.819	-29746.4	0.000000	0.000000	7.419354	0.007648	NaN	0.000000	0.001596	0.001673	28.0793	0.099199	0.002012	49.3038	88.6366	-169.907	0.058746	1.417825	-0.282798	-0.284100	0.007648	49.3038	-0.282914	-2611.47	-2.928492E-6	NaN
293	1.000000	1.431115	7.36793e+06	-53289.1	955.819	-29746.4	0.000000	0.000000	7.431345	0.116622	NaN	0.000000	0.001582	0.001655	28.0793	0.097430	0.002071	47.0358	167.436	-167.778	0.081626	1.429805	-0.270811	-0.272121	0.116622	47.0358	-0.272671	-1828.52	-6.377943E-5	NaN
293	1.000000	1.443082	7.36793e+06	-53289.1	955.82	-29746.4	0.000000	0.000000	7.443310	0.053757	NaN	0.000000	0.001613	0.001653	28.0795	0.097140	0.002001	48.5498	9.278026	-164.961	0.006234	1.441803	-0.258843	-0.260122	0.053757	48.5498	-0.259674	-1158.56	-4.639950E-5	NaN
293	1.000000	1.455139	7.36793e+06	-53289.1	955.819	-29746.4	0.000000	0.000000	7.455367	0.059506	NaN	0.000000	0.001592	0.001650	28.0795	0.066374	0.002092	31.7296	140.996	-164.231	0.088744	1.453812	-0.246787	-0.248114	0.059506	31.7296	-0.248193	-770.902	-7.719004E-5	NaN
293	1.000000	1.467123	7.36793e+06	-53289.1	955.818	-29746.4	0.000000	0.000000	7.467348	0.005400	NaN	0.000000	0.001615	0.001658	28.0795	0.056642	0.001998	28.3551	-139.941	-168.209	0.039175	1.465808	-0.234803	-0.236117	0.005400	28.3551	-0.234946	-479.071	-1.127120E-5	NaN
293	1.000000	1.479115	7.36793e+06	-53289.1	955.819	-29746.4	0.000000	0.000000	7.479344	0.068799	NaN	0.000000	0.001580	0.001635	28.0796	0.020690	0.001902	10.8798	-164.042	-166.891	0.048086	1.477740	-0.222810	-0.224185	0.068799	10.8798	-0.227553	-366.288	-0.000188	NaN
293	1.000000	1.491110	7.36793e+06	-53289.1	955.818	-29746.4	0.000000	0.000000	7.491337	0.040243	NaN	0.000000	0.001611	0.001658	28.0793	0.077752	0.002046	38.0073	82.7542	-169.357	-0.065414	1.489798	-0.210816	-0.212127	0.040243	38.0073	-0.211610	-203.638	-0.000198	NaN
293	1.000000	1.503133	7.36793e+06	-53289.1	955.819	-29746.4	0.000000	0.000000	7.503360	0.038923	NaN	0.000000	0.001581	0.001640	28.0793	0.012116	0.002119	5.717107	157.668	-165.461	0.012658	1.501776	-0.198793	-0.200150	0.038923	5.717107	-0.203899	-152.612	-0.000255	NaN
293	1.000000	1.515161	7.36793e+06	-53289.1	955.818	-29746.4	0.000000	0.000000	7.515388	0.045779	NaN	0.000000	0.001630	0.001632	28.0798	0.033322	0.002049	16.266	-175.24	-166.849	-0.004378	1.513830	-0.186765	-0.188096	0.045779	16.266	-0.188876	-86.1455	-0.000531	NaN
293	1.000000	1.527162	7.36793e+06	-53289.1	955.819	-29746.4	0.000000	0.000000	7.527386	-0.047814	NaN	0.000000	0.001644	0.001673	28.0793	0.072623	0.001993	36.4364	-10.8195	-166.401	0.069592	1.525861	-0.174763	-0.176065	-0.047814	36.4364	-0.173779	-47.7501	0.001001	NaN
293	1.000000	1.539140	7.36793e+06	-53289.1	955.82	-29746.4	0.000000	0.000000	7.539366	0.026995	NaN	0.000000	0.001583	0.001699	28.0781	0.005135	0.002134	2.406917	73.3794	-163.401	0.049953	1.537847	-0.162786	-0.164079	0.026995	2.406917	-0.171198	-43.0907	-0.000626	NaN
293	1.000000	1.551151	7.36793e+06	-53289.1	955.819	-29746.4	0.000000	0.000000	7.551379	0.068388	NaN	0.000000	0.001585	0.001653	28.0781	0.100113	0.001936	51.7181	-105.929	-165.785	0.007796	1.549860	-0.150775	-0.152066	0.068388	51.7181	-0.151767	-19.5051	-0.003506	NaN
293	1.000000	1.563117	7.36793e+06	-53289.1	955.819	-29746.4	0.000000	0.000000	7.563341	-0.022967	NaN	0.000000	0.001637	0.001621	28.0785	0.119136	0.001952	61.0395	-157.193	-164.381	0.003475	1.561847	-0.138809	-0.140079	-0.022967	61.0395	-0.138527	-11.0976	0.002070	NaN
293	1.000000	1.575170	7.36793e+06	-53289.1	955.819	-29746.4	0.000000	0.000000	7.575395	-0.024484	NaN	0.000000	0.001614	0.001655	28.0787	0.116207	0.001977	58.7915	-58.1863	-170.687	0.005743	1.573908	-0.126755	-0.128018	-0.024484	58.7915	-0.126443	-6.493366	0.003771	NaN
293	1.000000	1.587182	7.36793e+06	-53289.1	955.819	-29746.4	0.000000	0.000000	7.587410	0.041715	NaN	0.000000	0.001635	0.001656	28.0782	0.069061	0.002092	33.0087	139.063	-162.582	0.011078	1.585900	-0.114743	-0.116025	0.041715	33.0087	-0.115691	-3.947586	-0.010567	NaN
293	1.000000	1.599176	7.36793e+06	-53289.1	955.819	-29746.4	0.000000	0.000000	7.599402	0.027830	NaN	0.000000	0.001622	0.001683	28.0786	0.057446	0.001985	28.946	121.228	-168.768	-0.016041	1.597852	-0.102750	-0.104074	0.027830	28.946	-0.103471	-2.177823	-0.012779	NaN
293	1.000000	1.611185	7.36793e+06	-53289.1	955.82	-29746.4	0.000000	0.000000	7.611414	0.102633	NaN	0.000000	0.001620	0.001631	28.0783	0.052601	0.001893	27.7873	170.653	-166.67	0.093654	1.609869	-0.090741	-0.092057	0.102633	27.7873	-0.093511	-1.304206	-0.078694	NaN
293	1.000000	1.623170	7.36793e+06	-53289.1	955.819	-29746.4	0.000000	0.000000	7.623399	0.064271	NaN	0.000000	0.001599	0.001614	28.0783	0.034578	0.002049	16.8716	-23.9917	-167.346	0.086232	1.621841	-0.078755	-0.080085	0.064271	16.8716	-0.081612	-0.678873	-0.094673	NaN
293	1.000000	1.635188	7.36793e+06	-53289.1	955.82	-29746.4	0.000000	0.000000	7.635417	0.087213	NaN	0.000000	0.001616	0.001610	28.0785	0.114413	0.001953	58.5971	-39.7396	-169.538	0.038389	1.633902	-0.066738	-0.068024	0.087213	58.5971	-0.067854	-0.298512	-0.292160	NaN
293	1.000000	1.647192	7.36793e+06	-53289.1	955.819	-29746.4	0.000000	0.000000	7.647418	0.021749	NaN	0.000000	0.001586	0.001613	28.0782	0.031489	0.002109	14.9336	75.8977	-167.31	0.054520	1.645883	-0.054734	-0.056043	0.021749	14.9336	-0.055826	-0.136208	-0.159673	NaN
293	1.000000	1.659200	7.36793e+06	-53289.1	955.82	-29746.4	0.000000	0.000000	7.659427	0.039080	NaN	0.000000	0.001566	0.001606	28.0785	0.080122	0.001980	40.4608	103.445	-167.749	0.001008	1.657939	-0.042726	-0.043987	0.039080	40.4608	-0.043450	-0.057622	-0.678205	NaN
293	1.000000	1.671262	7.36793e+06	-53289.1	955.82	-29746.4	0.000000	0.000000	7.671487	-0.006953	NaN	0.000000	0.001568	0.001676	28.0791	0.112924	0.002141	52.7405	56.0449	-167.427	0.062707	1.669924	-0.030664	-0.032002	-0.006953	52.7405	-0.030565	-0.023866	0.291321	NaN
293	1.000000	1.683229	7.36793e+06	-53289.1	955.82	-29746.4	0.000000	0.000000	7.683458	0.067227	NaN	0.000000	0.001597	0.001650	28.0796	0.067710	0.001902	35.5963	102.923	-168.656	0.028524	1.681948	-0.018696	-0.019978	0.067227	35.5963	-0.020113	-0.012644	-5.316826	NaN
293	1.000000	1.695221	7.36793e+06	-53289.1	955.82	-29746.4	0.000000	0.000000	7.695449	0.055154	NaN	0.000000	0.001563	0.001622	28.0797	0.110459	0.002078	53.1662	-16.8325	-165.267	0.039165	1.693927	-0.006705	-0.007999	0.055154	53.1662	-0.007483	-0.004927	-11.1938	NaN
293	1.000000	1.707196	7.36793e+06	-53289.1	955.82	-29746.4	0.000000	0.000000	7.707439	0.429687	NaN	0.000000	0.001672	0.001635	28.0797	0.531345	0.001986	267.482	10.9919	-163.592	0.125441	1.705924	0.005270	0.003998	0.429687	267.482	0.004065	0.003296	130.353	4256.5
293	1.000000	1.719115	7.36793e+06	-53289.1	955.819	-29746.4	0.000000	0.000000	7.719714	9.069896	NaN	0.000000	0.001665	0.001621	28.0799	7.991474	0.001698	4707.58	11.0222	-172.848	7.196100	1.717886	0.017189	0.015960	9.069896	4707.58	0.015744	0.016291	556.744	33697.4
293	2.000000	1.722709	7.36793e+06	-53289.1	955.819	-29746.4	0.000000	0.000000	7.723392	11.1327	NaN	0.000000	0.001659	0.001637	28.0799	10.8716	0.001826	5953.4	8.056209	-173.421	10.4662	1.722416	0.020783	0.020490	11.1327	5953.4	0.019381	0.021579	515.918	37027.7
293	2.000000	1.725737	7.36793e+06	-53289.1	955.82	-29746.4	0.000000	0.000000	7.726585	15.1481	NaN	0.000000	0.001645	0.001628	28.0798	13.9682	0.001773	7877.2	7.905559	-176.425	14.7659	1.725386	0.023811	0.023460	15.1481	7877.2	0.022369	0.026402	573.746	44292.1
293	2.000000	1.728698	7.36793e+06	-53289.1	955.819	-29746.4	0.000000	0.000000	7.729733	19.6801	NaN	0.000000	0.001610	0.001654	28.08	16.8636	0.001875	8994.56	7.246400	-177.505	18.9373	1.728417	0.026773	0.026492	19.6801	8994.56	0.025132	0.031256	629.649	46482.4
293	2.000000	1.731655	7.36793e+06	-53289.1	955.82	-29746.4	0.000000	0.000000	7.732969	26.4784	NaN	0.000000	0.001587	0.001643	28.0799	20.1004	0.001761	11415.7	6.158908	-178.913	25.1996	1.731370	0.029729	0.029444	26.4784	11415.7	0.027990	0.036680	721.881	54458.2
293	2.000000	1.734657	7.36793e+06	-53289.1	955.818	-29746.4	0.000000	0.000000	7.736309	34.6848	NaN	0.000000	0.001574	0.001695	28.0798	22.9843	0.001788	12853.9	5.620477	-177.665	34.1713	1.734326	0.032731	0.032400	34.6848	12853.9	0.030707	0.042222	821.487	57153.1
293	2.000000	1.737642	7.36793e+06	-53289.1	955.819	-29746.4	0.000000	0.000000	7.739592	41.9254	NaN	0.000000	0.001565	0.001676	28.0792	26.3023	0.001858	14152.6	6.329342	178.973	40.8129	1.737363	0.035716	0.035438	41.9254	14152.6	0.033495	0.048299	868.041	58835.9
293	2.000000	1.740674	7.36793e+06	-53289.1	955.818	-29746.4	0.000000	0.000000	7.742895	48.523	NaN	0.000000	0.001565	0.001653	28.0797	29.4087	0.001931	15232.5	7.475756	178.454	49.2746	1.740338	0.038748	0.038412	48.523	15232.5	0.036359	0.054957	882.922	59365.1
293	2.000000	1.743643	7.36793e+06	-53289.1	955.819	-29746.4	0.000000	0.000000	7.746263	58.2271	NaN	0.000000	0.001607	0.001672	28.0782	32.2007	0.001871	17208.5	4.424276	179.545	57.574	1.743416	0.041717	0.041490	58.2271	17208.5	0.039179	0.061925	940.292	63180.7
293	2.000000	1.746661	7.36793e+06	-53289.1	955.819	-29746.4	0.000000	0.000000	7.749613	66.2939	NaN	0.000000	0.001616	0.001671	28.0783	34.363	0.001800	19086.5	6.019205	176.876	65.3167	1.746304	0.044735	0.044378	66.2939	19086.5	0.042130	0.069650	951.82	66075.6
293	2.000000	1.749591	7.36793e+06	-53289.1	955.819	-29746.4	0.000000	0.000000	7.752932	75.7525	NaN	0.000000	0.001604	0.001678	28.0783	35.7399	0.001719	20793.7	3.984792	178.189	73.073	1.749343	0.047665	0.047417	75.7525	20793.7	0.044933	0.077397	978.759	68288.1
293	2.000000	1.752600	7.36793e+06	-53289.1	955.821	-29746.4	0.000000	0.000000	7.756303	84.549	NaN	0.000000	0.001622	0.001652	28.0786	39.0829	0.001878	20815.8	6.394748	176.053	83.3058	1.752358	0.050674	0.050432	84.549	20815.8	0.047628	0.085223	992.09	65146.1
293	2.000000	1.755588	7.36793e+06	-53289.1	955.819	-29746.4	0.000000	0.000000	7.759809	97.142	NaN	0.000000	0.001599	0.001677	28.0788	40.8601	0.001755	23286.3	3.811487	177.572	96.3508	1.755372	0.053662	0.053446	97.142	23286.3	0.050533	0.094069	1032.67	69366.5
293	2.000000	1.758617	7.36793e+06	-53289.1	955.819	-29746.4	0.000000	0.000000	7.763240	106.905	NaN	0.000000	0.001594	0.001693	28.0788	43.4239	0.001772	24509.2	2.624288	178.036	104.296	1.758383	0.056691	0.056457	106.905	24509.2	0.053420	0.103276	1035.14	69679
293	2.000000	1.761582	7.36793e+06	-53289.1	955.819	-29746.4	0.000000	0.000000	7.766538	115.008	NaN	0.000000	0.001588	0.001739	28.0785	46.3161	0.001704	27175.3	2.047858	177.576	114.104	1.761393	0.059657	0.059467	115.008	27175.3	0.056483	0.113499	1013.3	73697.4
293	2.000000	1.764639	7.36793e+06	-53289.1	955.82	-29746.4	0.000000	0.000000	7.770214	130.061	NaN	0.000000	0.001576	0.001702	28.0785	50.6435	0.001859	27238.1	7.540069	172.709	128.844	1.764258	0.062713	0.062332	130.061	27238.1	0.059132	0.122714	1059.87	71040
293	2.000000	1.767651	7.36793e+06	-53289.1	955.819	-29746.4	0.000000	0.000000	7.773826	144.633	NaN	0.000000	0.001562	0.001702	28.0786	53.292	0.001820	29274	7.201936	173.608	145.486	1.767267	0.065726	0.065341	144.633	29274	0.062020	0.133152	1086.22	73296.1
293	2.000000	1.770687	7.36793e+06	-53289.1	955.82	-29746.4	0.000000	0.000000	7.777226	153.491	NaN	0.000000	0.001548	0.001717	28.0785	56.2677	0.001918	29332.2	4.558938	175.423	158.867	1.770371	0.068761	0.068445	153.491	29332.2	0.064837	0.143721	1067.98	70690.1
293	2.000000	1.773594	7.36793e+06	-53289.1	955.82	-29746.4	0.000000	0.000000	7.780833	170.508	NaN	0.000000	0.001568	0.001718	28.0789	57.8302	0.001794	32236.6	5.118434	172.871	168.791	1.773369	0.071668	0.071444	170.508	32236.6	0.067702	0.154864	1101.02	74842.4
293	2.000000	1.776584	7.36793e+06	-53289.1	955.819	-29746.4	0.000000	0.000000	7.784529	187.674	NaN	0.000000	0.001615	0.001719	28.08	60.055	0.001892	31733.2	3.118431	176.674	185.702	1.776174	0.074658	0.074248	187.674	31733.2	0.070223	0.164995	1137.45	71375.9
293	2.000000	1.779617	7.36793e+06	-53289.1	955.82	-29746.4	0.000000	0.000000	7.788283	205.195	NaN	0.000000	0.001598	0.001707	28.0796	62.575	0.001838	34037.1	6.764649	171.866	205.028	1.779315	0.077692	0.077389	205.195	34037.1	0.073170	0.177223	1157.84	73869.6
293	2.000000	1.782559	7.36793e+06	-53289.1	955.819	-29746.4	0.000000	0.000000	7.791784	218.812	NaN	0.000000	0.001591	0.001706	28.0798	65.7168	0.001953	33643.5	4.260866	174.391	218.473	1.782242	0.080633	0.080316	218.812	33643.5	0.075755	0.188283	1162.14	70838.3
293	2.000000	1.785597	7.36793e+06	-53289.1	955.82	-29746.4	0.000000	0.000000	7.795500	235.27	NaN	0.000000	0.001633	0.001678	28.0797	68.3179	0.001771	38573.6	4.744763	172.792	234.883	1.785273	0.083672	0.083347	235.27	38573.6	0.079097	0.203051	1158.67	78209.9
293	2.000000	1.788611	7.36793e+06	-53289.1	955.82	-29746.4	0.000000	0.000000	7.799382	256.381	NaN	0.000000	0.001578	0.001679	28.0796	69.7618	0.001711	40779.7	2.787274	174.39	258.694	1.788263	0.086685	0.086337	256.381	40779.7	0.081970	0.216160	1186.07	80136.3
293	2.000000	1.791598	7.36793e+06	-53289.1	955.819	-29746.4	0.000000	0.000000	7.802965	270.89	NaN	0.000000	0.001590	0.001689	28.0796	74.0826	0.001833	40407.9	5.651535	171.255	271.644	1.791275	0.089672	0.089349	270.89	40407.9	0.084644	0.228708	1184.44	77196.6
293	2.000000	1.794553	7.36793e+06	-53289.1	955.82	-29746.4	0.000000	0.000000	7.806477	284.426	NaN	0.000000	0.001590	0.001664	28.0797	75.7478	0.001720	44040.6	4.797123	171.378	281.917	1.794300	0.092627	0.092375	284.426	44040.6	0.087784	0.243860	1166.35	81480.9
293	2.000000	1.797483	7.36793e+06	-53289.1	955.82	-29746.4	0.000000	0.000000	7.810052	300.113	NaN	0.000000	0.001579	0.001695	28.0804	78.6429	0.001722	45656.9	3.858157	172.4	294.805	1.797313	0.095557	0.095388	300.113	45656.9	0.090627	0.257973	1163.35	82128.3
293	2.000000	1.800490	7.36793e+06	-53289.1	955.818	-29746.4	0.000000	0.000000	7.814015	323.353	NaN	0.000000	0.001584	0.001657	28.0797	83.3693	0.001846	45150.8	3.798644	172.845	318.595	1.800279	0.098564	0.098354	323.353	45150.8	0.093193	0.271030	1193.05	79237.2
293	2.000000	1.803611	7.36793e+06	-53289.1	955.819	-29746.4	0.000000	0.000000	7.818071	346.086	NaN	0.000000	0.001603	0.001712	28.0799	84.7145	0.001886	44921.7	1.164548	175.651	347.915	1.803262	0.101685	0.101336	346.086	44921.7	0.095907	0.285165	1213.63	76856.7
293	2.000000	1.806484	7.36793e+06	-53289.1	955.819	-29746.4	0.000000	0.000000	7.822008	371.952	NaN	0.000000	0.001616	0.001663	28.0796	87.5116	0.001834	47711	4.822992	171.735	366.292	1.806095	0.104558	0.104169	371.952	47711	0.098711	0.300123	1239.33	79568.7
293	2.000000	1.809513	7.36793e+06	-53289.1	955.819	-29746.4	0.000000	0.000000	7.825934	393.761	NaN	0.000000	0.001581	0.001722	28.0797	89.421	0.001798	49722.3	4.830719	171.483	389.429	1.809129	0.107587	0.107204	393.761	49722.3	0.101648	0.316171	1245.4	80791.1
293	2.000000	1.812545	7.36793e+06	-53289.1	955.819	-29746.4	0.000000	0.000000	7.829775	413.427	NaN	0.000000	0.001616	0.001712	28.0787	92.3562	0.001861	49621.6	3.694439	172.247	411.82	1.812221	0.110619	0.110295	413.427	49621.6	0.104370	0.331401	1247.51	78753
293	2.000000	1.815458	7.36793e+06	-53289.1	955.819	-29746.4	0.000000	0.000000	7.833366	429.906	NaN	0.000000	0.001621	0.001737	28.0781	95.5158	0.001838	51956.4	4.244910	170.827	424.753	1.815229	0.113532	0.113304	429.906	51956.4	0.107326	0.348317	1234.24	80431.3
293	2.000000	1.818584	7.36793e+06	-53289.1	955.819	-29746.4	0.000000	0.000000	7.837827	462.357	NaN	0.000000	0.001633	0.001723	28.0783	97.4646	0.001628	59879	5.183493	169.97	462.508	1.818118	0.116659	0.116192	462.357	59879	0.110867	0.369101	1252.66	90048.3