File: remote_trans/data/nanoindenter/0828-1/data/Data_2025-08-06,11h17m57s/2025-07-22_16-23-58_1_336.txt
2025-07-22, 16:23:58, 1
Index	Phase	Displacement	Time	Pos X	Pos Y	Pos Z	Rot A	Rot B	Piezo Z	Force A	Force B	Gripper	Voltage A	Voltage B	Temperature	Amplitude force	Amplitude pos	Stiffness	Phase shift	Phase excitation	Force A raw	Displacement raw	HMax	HMax raw	Real Force	Real Stiffness	Contact Depth	Area	Hardness	Reduced Mod.
[#]	[#]	[um]	[s]	[um]	[um]	[um]	[m°]	[m°]	[um]	[uN]	[uN]	[V]	[V]	[V]	[°C]	[uN]	[um]	[N/m]	[°]	[°]	[uN]	[um]	[um]	[um]	[uN]	[N/m]	[um]	[um^2]	[MPa]	[MPa]
336	1.000000	0.002635	7.36835e+06	-55439.1	955.818	-29741.9	0.000000	0.000000	6.002783	0.012419	NaN	0.000000	0.001528	0.001703	28.0799	0.090454	0.000862	104.983	-12.5966	-157.843	0.037178	0.001377	-1.015962	-1.017221	0.012419	104.983	-1.016051	-3.730939E+13	-3.328695E-16	NaN
336	1.000000	0.010613	7.36835e+06	-55439.1	955.818	-29741.9	0.000000	0.000000	6.010759	-0.027333	NaN	0.000000	0.001537	0.001709	28.0796	0.045670	0.000986	46.296	154.488	-159.501	-0.001484	0.009249	-1.007985	-1.009349	-0.027333	46.296	-1.007542	-2.866151E+13	9.536344E-16	NaN
336	1.000000	0.018599	7.36835e+06	-55439.1	955.819	-29741.9	0.000000	0.000000	6.018748	0.023600	NaN	0.000000	0.001509	0.001669	28.0793	0.037833	0.001732	21.8415	15.4745	-168.394	-0.007337	0.017314	-0.999998	-1.001283	0.023600	21.8415	-1.000809	-2.326247E+13	-1.014509E-15	NaN
336	1.000000	0.026624	7.36835e+06	-55439.1	955.818	-29741.9	0.000000	0.000000	6.026772	0.035711	NaN	0.000000	0.001504	0.001682	28.0792	0.107382	0.001768	60.7515	179.733	-162.965	0.039349	0.025287	-0.991974	-0.993311	0.035711	60.7515	-0.992415	-1.793231E+13	-1.991440E-15	NaN
336	1.000000	0.034618	7.36835e+06	-55439.1	955.819	-29741.9	0.000000	0.000000	6.034763	-0.054353	NaN	0.000000	0.001520	0.001709	28.0798	0.043754	0.001991	21.9754	19.9778	-167.061	-0.017006	0.033290	-0.983980	-0.985308	-0.054353	21.9754	-0.982125	-1.303267E+13	4.170497E-15	NaN
336	1.000000	0.042623	7.36835e+06	-55439.1	955.819	-29741.9	0.000000	0.000000	6.042775	0.096333	NaN	0.000000	0.001533	0.001708	28.0795	0.072110	0.002041	35.332	-83.0878	-162.596	0.108143	0.041304	-0.975974	-0.977294	0.096333	35.332	-0.978019	-1.147427E+13	-8.395562E-15	NaN
336	1.000000	0.050630	7.36835e+06	-55439.1	955.819	-29741.9	0.000000	0.000000	6.050778	0.030130	NaN	0.000000	0.001544	0.001684	28.0793	0.060646	0.001868	32.4664	51.2533	-167.481	0.032822	0.049297	-0.967968	-0.969301	0.030130	32.4664	-0.968664	-8.583320E+12	-3.510300E-15	NaN
336	1.000000	0.058591	7.36835e+06	-55439.1	955.818	-29741.9	0.000000	0.000000	6.058739	0.008004	NaN	0.000000	0.001470	0.001709	28.0792	0.050186	0.002049	24.4939	77.8637	-167.485	-0.023238	0.057316	-0.960007	-0.961282	0.008004	24.4939	-0.960252	-6.610977E+12	-1.210778E-15	NaN
336	1.000000	0.066623	7.36835e+06	-55439.1	955.819	-29741.9	0.000000	0.000000	6.066775	0.109602	NaN	0.000000	0.001477	0.001748	28.0794	0.070598	0.001887	37.4188	161.253	-164.788	-0.029229	0.065340	-0.951975	-0.953258	0.109602	37.4188	-0.954172	-5.473744E+12	-2.002318E-14	NaN
336	1.000000	0.074585	7.36835e+06	-55439.1	955.818	-29741.9	0.000000	0.000000	6.074734	0.060782	NaN	0.000000	0.001532	0.001725	28.0793	0.032330	0.001946	16.6136	106.581	-166.888	0.106364	0.073302	-0.944013	-0.945296	0.060782	16.6136	-0.946757	-4.347995E+12	-1.397924E-14	NaN
336	1.000000	0.082592	7.36835e+06	-55439.1	955.82	-29741.9	0.000000	0.000000	6.082739	-0.010173	NaN	0.000000	0.001522	0.001701	28.078	0.069575	0.002011	34.594	-50.2569	-163.649	-0.052745	0.081342	-0.936006	-0.937256	-0.010173	34.594	-0.935785	-3.092236E+12	3.289968E-15	NaN
336	1.000000	0.090637	7.36835e+06	-55439.1	955.819	-29741.9	0.000000	0.000000	6.090787	0.050709	NaN	0.000000	0.001529	0.001721	28.078	0.035921	0.001942	18.4971	77.0041	-164.797	-0.040133	0.089307	-0.927961	-0.929291	0.050709	18.4971	-0.930017	-2.584773E+12	-1.961827E-14	NaN
336	1.000000	0.098611	7.36835e+06	-55439.1	955.818	-29741.9	0.000000	0.000000	6.098761	0.073564	NaN	0.000000	0.001555	0.001690	28.0778	0.042244	0.002059	20.5163	120.303	-164.496	-0.027966	0.097267	-0.919987	-0.921331	0.073564	20.5163	-0.922676	-2.057499E+12	-3.575388E-14	NaN
336	1.000000	0.106642	7.36835e+06	-55439.1	955.819	-29741.9	0.000000	0.000000	6.106793	0.076883	NaN	0.000000	0.001542	0.001707	28.0777	0.079360	0.001998	39.7173	-56.379	-162.64	0.088796	0.105309	-0.911956	-0.913288	0.076883	39.7173	-0.913407	-1.542352E+12	-4.984777E-14	NaN
336	1.000000	0.114639	7.36835e+06	-55439.1	955.819	-29741.9	0.000000	0.000000	6.114785	-0.035389	NaN	0.000000	0.001546	0.001742	28.0778	0.160322	0.002044	78.4462	-176.821	-166.459	0.057248	0.113316	-0.903958	-0.905282	-0.035389	78.4462	-0.903620	-1.137563E+12	3.110909E-14	NaN
336	1.000000	0.122619	7.36835e+06	-55439.1	955.819	-29741.9	0.000000	0.000000	6.122767	0.019017	NaN	0.000000	0.001521	0.001712	28.0777	0.057836	0.001977	29.2526	-54.4686	-166.827	-0.007410	0.121339	-0.895979	-0.897258	0.019017	29.2526	-0.896466	-9.105694E+11	-2.088475E-14	NaN
336	1.000000	0.130658	7.36835e+06	-55439.1	955.819	-29741.9	0.000000	0.000000	6.130807	0.053325	NaN	0.000000	0.001536	0.001700	28.0779	0.140281	0.001799	77.9908	-64.9174	-163.985	0.020030	0.129320	-0.887940	-0.889278	0.053325	77.9908	-0.888453	-7.095808E+11	-7.515025E-14	NaN
336	1.000000	0.138651	7.36835e+06	-55439.1	955.819	-29741.9	0.000000	0.000000	6.138801	0.057071	NaN	0.000000	0.001562	0.001708	28.0778	0.123106	0.001933	63.6822	-78.6073	-166.534	0.066273	0.137301	-0.879947	-0.881297	0.057071	63.6822	-0.880619	-5.560004E+11	-1.026464E-13	NaN
336	1.000000	0.146668	7.36835e+06	-55439.1	955.818	-29741.9	0.000000	0.000000	6.146816	0.016109	NaN	0.000000	0.001551	0.001733	28.0779	0.116180	0.002048	56.7212	113.182	-162.499	-0.007122	0.145349	-0.871930	-0.873249	0.016109	56.7212	-0.872143	-4.270090E+11	-3.772602E-14	NaN
336	1.000000	0.154645	7.36835e+06	-55439.1	955.819	-29741.9	0.000000	0.000000	6.154794	0.039226	NaN	0.000000	0.001553	0.001732	28.0778	0.103831	0.002075	50.0306	-151.148	-164.501	0.030058	0.153307	-0.863953	-0.865290	0.039226	50.0306	-0.864541	-3.369587E+11	-1.164133E-13	NaN
336	1.000000	0.162627	7.36835e+06	-55439.1	955.819	-29741.9	0.000000	0.000000	6.162775	0.026176	NaN	0.000000	0.001508	0.001704	28.0777	0.075143	0.002059	36.5012	89.0416	-165.175	0.027391	0.161317	-0.855971	-0.857281	0.026176	36.5012	-0.856509	-2.623371E+11	-9.978185E-14	NaN
336	1.000000	0.170663	7.36835e+06	-55439.1	955.818	-29741.9	0.000000	0.000000	6.170813	0.069042	NaN	0.000000	0.001548	0.001693	28.0775	0.037071	0.002045	18.1296	-123.038	-165.563	0.136387	0.169336	-0.847935	-0.849262	0.069042	18.1296	-0.850791	-2.195078E+11	-3.145315E-13	NaN
336	1.000000	0.178657	7.36835e+06	-55439.1	955.818	-29741.9	0.000000	0.000000	6.178805	0.018456	NaN	0.000000	0.001518	0.001716	28.0777	0.079008	0.001930	40.9278	-21.5323	-163.594	-0.017303	0.177371	-0.839941	-0.841227	0.018456	40.9278	-0.840279	-1.581526E+11	-1.167000E-13	NaN
336	1.000000	0.186639	7.36835e+06	-55439.1	955.819	-29741.9	0.000000	0.000000	6.186789	0.068914	NaN	0.000000	0.001533	0.001737	28.0775	0.112627	0.002070	54.411	55.0061	-164.209	-0.026233	0.185374	-0.831959	-0.833224	0.068914	54.411	-0.832909	-1.256633E+11	-5.483991E-13	NaN
336	1.000000	0.194649	7.36835e+06	-55439.1	955.819	-29741.9	0.000000	0.000000	6.194798	0.044410	NaN	0.000000	0.001569	0.001742	28.0778	0.094362	0.001958	48.182	32.0316	-164.011	0.036368	0.193404	-0.823949	-0.825194	0.044410	48.182	-0.824640	-9.707984E+10	-4.574627E-13	NaN
336	1.000000	0.202666	7.36835e+06	-55439.1	955.818	-29741.9	0.000000	0.000000	6.202815	0.036284	NaN	0.000000	0.001551	0.001724	28.0776	0.071289	0.002086	34.1699	-70.2875	-162.432	-0.042357	0.201340	-0.815931	-0.817257	0.036284	34.1699	-0.816728	-7.582850E+10	-4.785068E-13	NaN
336	1.000000	0.210660	7.36835e+06	-55439.1	955.818	-29741.9	0.000000	0.000000	6.210809	0.035984	NaN	0.000000	0.001520	0.001738	28.0776	0.015652	0.002066	7.575994	48.2992	-168.999	-0.030788	0.209364	-0.807938	-0.809233	0.035984	7.575994	-0.811500	-6.440561E+10	-5.587024E-13	NaN
336	1.000000	0.218689	7.36835e+06	-55439.1	955.819	-29741.9	0.000000	0.000000	6.218835	-0.012057	NaN	0.000000	0.001543	0.001702	28.0788	0.048602	0.001903	25.541	-3.643820	-163.233	-0.030593	0.217339	-0.799909	-0.801259	-0.012057	25.541	-0.799555	-4.434274E+10	2.719040E-13	NaN
336	1.000000	0.226662	7.36835e+06	-55439.1	955.818	-29741.9	0.000000	0.000000	6.226811	0.025645	NaN	0.000000	0.001536	0.001703	28.079	0.061681	0.001962	31.4432	179.733	-163.38	-0.007419	0.225320	-0.791935	-0.793278	0.025645	31.4432	-0.792547	-3.561824E+10	-7.199839E-13	NaN
336	1.000000	0.234657	7.36835e+06	-55439.1	955.819	-29741.9	0.000000	0.000000	6.234806	0.047585	NaN	0.000000	0.001521	0.001690	28.0792	0.045275	0.002140	21.1558	-50.234	-163.891	0.019458	0.233311	-0.783941	-0.785286	0.047585	21.1558	-0.785628	-2.868772E+10	-1.658711E-12	NaN
336	1.000000	0.242663	7.36835e+06	-55439.1	955.817	-29741.9	0.000000	0.000000	6.242813	0.056452	NaN	0.000000	0.001486	0.001727	28.0789	0.134338	0.001985	67.6753	177.554	-165.897	-0.032844	0.241366	-0.775935	-0.777232	0.056452	67.6753	-0.776560	-2.160161E+10	-2.613329E-12	NaN
336	1.000000	0.250673	7.36835e+06	-55439.1	955.818	-29741.9	0.000000	0.000000	6.250820	-0.003428	NaN	0.000000	0.001545	0.001697	28.0789	0.050574	0.001937	26.1042	173.431	-165.788	0.039401	0.249356	-0.767925	-0.769242	-0.003428	26.1042	-0.767826	-1.643417E+10	2.085625E-13	NaN
336	1.000000	0.258671	7.36835e+06	-55439.1	955.819	-29741.9	0.000000	0.000000	6.258818	-0.013598	NaN	0.000000	0.001522	0.001702	28.0788	0.072199	0.002043	35.3371	113.133	-165.673	0.042207	0.257407	-0.759927	-0.761191	-0.013598	35.3371	-0.759638	-1.271684E+10	1.069278E-12	NaN
336	1.000000	0.266677	7.36835e+06	-55439.1	955.818	-29741.9	0.000000	0.000000	6.266825	0.020465	NaN	0.000000	0.001517	0.001682	28.0791	0.002211	0.001896	1.166227	-132.435	-165.191	-0.048345	0.265369	-0.751921	-0.753228	0.020465	1.166227	-0.765082	-1.508074E+10	-1.357002E-12	NaN
336	1.000000	0.274671	7.36835e+06	-55439.1	955.819	-29741.9	0.000000	0.000000	6.274820	0.038405	NaN	0.000000	0.001521	0.001673	28.0791	0.046517	0.001843	25.2334	-11.8745	-163.138	0.026916	0.273340	-0.743927	-0.745257	0.038405	25.2334	-0.745068	-8.055174E+9	-4.767802E-12	NaN
336	1.000000	0.282716	7.36835e+06	-55439.1	955.819	-29741.9	0.000000	0.000000	6.282862	-0.029469	NaN	0.000000	0.001496	0.001673	28.0789	0.066956	0.002112	31.6954	-142.424	-162.918	-0.029368	0.281377	-0.735881	-0.737221	-0.029469	31.6954	-0.735184	-5.908147E+9	4.987898E-12	NaN
336	1.000000	0.290711	7.36835e+06	-55439.1	955.818	-29741.9	0.000000	0.000000	6.290859	0.013525	NaN	0.000000	0.001514	0.001642	28.0791	0.033770	0.001925	17.5464	-159.689	-166.761	0.071337	0.289380	-0.727887	-0.729218	0.013525	17.5464	-0.728465	-4.785011E+9	-2.826557E-12	NaN
336	1.000000	0.298682	7.36835e+06	-55439.1	955.818	-29741.9	0.000000	0.000000	6.298830	0.003541	NaN	0.000000	0.001511	0.001704	28.0791	0.067077	0.001891	35.4804	141.343	-164.803	-0.010582	0.297367	-0.719915	-0.721231	0.003541	35.4804	-0.719990	-3.667222E+9	-9.655089E-13	NaN
336	1.000000	0.306702	7.36835e+06	-55439.1	955.819	-29741.9	0.000000	0.000000	6.306849	-0.007234	NaN	0.000000	0.001560	0.001676	28.0792	0.053434	0.002025	26.3852	-31.4336	-163.676	-0.048032	0.305396	-0.711896	-0.713202	-0.007234	26.3852	-0.711690	-2.825608E+9	2.560272E-12	NaN
336	1.000000	0.314706	7.36835e+06	-55439.1	955.819	-29741.9	0.000000	0.000000	6.314854	0.023808	NaN	0.000000	0.001527	0.001715	28.0789	0.056678	0.002004	28.2876	-36.7461	-166.2	-0.008907	0.313388	-0.703892	-0.705210	0.023808	28.2876	-0.704523	-2.255747E+9	-1.055423E-11	NaN
336	1.000000	0.322750	7.36835e+06	-55439.1	955.819	-29741.9	0.000000	0.000000	6.322896	-0.038283	NaN	0.000000	0.001528	0.001717	28.079	0.022976	0.002006	11.4562	128.131	-164.451	-0.034516	0.321372	-0.695848	-0.697226	-0.038283	11.4562	-0.693342	-1.587007E+9	2.412260E-11	NaN
336	1.000000	0.330749	7.36835e+06	-55439.1	955.818	-29741.9	0.000000	0.000000	6.330898	0.035462	NaN	0.000000	0.001512	0.001687	28.0788	0.110801	0.002098	52.8004	131.873	-162.569	0.003859	0.329367	-0.687849	-0.689231	0.035462	52.8004	-0.688352	-1.356434E+9	-2.614366E-11	NaN
336	1.000000	0.338705	7.36835e+06	-55439.1	955.819	-29741.9	0.000000	0.000000	6.338854	0.023838	NaN	0.000000	0.001524	0.001696	28.0789	0.046420	0.001939	23.9453	121.813	-163.533	0.044615	0.337372	-0.679892	-0.681226	0.023838	23.9453	-0.680639	-1.064001E+9	-2.240418E-11	NaN
336	1.000000	0.346733	7.36835e+06	-55439.1	955.818	-29741.9	0.000000	0.000000	6.346883	0.050795	NaN	0.000000	0.001548	0.001693	28.0789	0.007498	0.002001	3.747788	55.0088	-170.056	0.069184	0.345399	-0.671864	-0.673199	0.050795	3.747788	-0.682029	-1.111627E+9	-4.569465E-11	NaN
336	1.000000	0.354746	7.36835e+06	-55439.1	955.818	-29741.9	0.000000	0.000000	6.354894	0.020478	NaN	0.000000	0.001604	0.001705	28.0777	0.080050	0.002014	39.7483	82.0792	-165.278	-0.037429	0.353443	-0.663852	-0.665155	0.020478	39.7483	-0.664238	-6.346133E+8	-3.226802E-11	NaN
336	1.000000	0.362742	7.36835e+06	-55439.1	955.819	-29741.9	0.000000	0.000000	6.362891	0.040265	NaN	0.000000	0.001593	0.001717	28.0776	0.035476	0.002102	16.8735	9.354822	-166.137	-0.022568	0.361445	-0.655855	-0.657152	0.040265	16.8735	-0.657645	-5.154755E+8	-7.811144E-11	NaN
336	1.000000	0.370718	7.36835e+06	-55439.1	955.819	-29741.9	0.000000	0.000000	6.370868	0.064243	NaN	0.000000	0.001602	0.001728	28.0774	0.020766	0.001917	10.8306	68.1154	-167.576	0.040950	0.369425	-0.647879	-0.649173	0.064243	10.8306	-0.652328	-4.358596E+8	-1.473927E-10	NaN
336	1.000000	0.378717	7.36835e+06	-55439.1	955.818	-29741.9	0.000000	0.000000	6.378867	0.064416	NaN	0.000000	0.001588	0.001720	28.0776	0.048210	0.001876	25.6978	-66.7534	-166.702	0.053318	0.377405	-0.639881	-0.641193	0.064416	25.6978	-0.641761	-3.122127E+8	-2.063219E-10	NaN
336	1.000000	0.386771	7.36835e+06	-55439.1	955.82	-29741.9	0.000000	0.000000	6.386917	-0.036444	NaN	0.000000	0.001576	0.001736	28.0777	0.044535	0.001890	23.5688	-101.383	-162.42	-0.026784	0.385406	-0.631827	-0.633191	-0.036444	23.5688	-0.630667	-2.198780E+8	1.657443E-10	NaN
336	1.000000	0.394762	7.36835e+06	-55439.1	955.819	-29741.9	0.000000	0.000000	6.394910	0.034703	NaN	0.000000	0.001562	0.001724	28.0774	0.065020	0.001830	35.5257	-24.1302	-169.284	0.041271	0.393404	-0.623836	-0.625194	0.034703	35.5257	-0.624569	-1.813088E+8	-1.914001E-10	NaN
336	1.000000	0.402755	7.36835e+06	-55439.1	955.819	-29741.9	0.000000	0.000000	6.402904	0.036769	NaN	0.000000	0.001595	0.001696	28.0777	0.070946	0.001997	35.52	-97.34	-165.296	0.086156	0.401383	-0.615842	-0.617214	0.036769	35.52	-0.616619	-1.409776E+8	-2.608177E-10	NaN
336	1.000000	0.410729	7.36835e+06	-55439.1	955.819	-29741.9	0.000000	0.000000	6.410875	-0.026368	NaN	0.000000	0.001590	0.001678	28.0774	0.055569	0.002022	27.4886	-126.992	-167.62	0.011113	0.409432	-0.607869	-0.609166	-0.026368	27.4886	-0.607149	-1.044454E+8	2.524559E-10	NaN
336	1.000000	0.418768	7.36835e+06	-55439.1	955.817	-29741.9	0.000000	0.000000	6.418916	0.017277	NaN	0.000000	0.001571	0.001686	28.0775	0.071269	0.001989	35.8373	-49.3564	-167.485	0.034531	0.417474	-0.599830	-0.601123	0.017277	35.8373	-0.600191	-8.377087E+7	-2.062394E-10	NaN
336	1.000000	0.426765	7.36835e+06	-55439.1	955.818	-29741.9	0.000000	0.000000	6.426912	-0.014521	NaN	0.000000	0.001566	0.001716	28.0779	0.064119	0.001913	33.5116	3.382127	-166.898	0.048097	0.425451	-0.591833	-0.593146	-0.014521	33.5116	-0.591508	-6.359913E+7	2.283195E-10	NaN
336	1.000000	0.434776	7.36835e+06	-55439.1	955.82	-29741.9	0.000000	0.000000	6.434921	-0.060490	NaN	0.000000	0.001560	0.001690	28.0774	0.122283	0.002045	59.8063	-68	-164.651	-0.036176	0.433479	-0.583822	-0.585119	-0.060490	59.8063	-0.583063	-4.864050E+7	1.243616E-9	NaN
336	1.000000	0.442750	7.36835e+06	-55439.1	955.82	-29741.9	0.000000	0.000000	6.442899	0.022040	NaN	0.000000	0.001551	0.001668	28.0783	0.080734	0.001932	41.7885	-96.1089	-164.261	-0.054119	0.441463	-0.575847	-0.577134	0.022040	41.7885	-0.576243	-3.916160E+7	-5.627906E-10	NaN
336	1.000000	0.450774	7.36835e+06	-55439.1	955.819	-29741.9	0.000000	0.000000	6.450922	0.030053	NaN	0.000000	0.001548	0.001676	28.0778	0.065821	0.001906	34.5332	122.77	-166.623	-0.038915	0.449475	-0.567824	-0.569123	0.030053	34.5332	-0.568477	-3.059015E+7	-9.824268E-10	NaN
336	1.000000	0.458773	7.36835e+06	-55439.1	955.818	-29741.9	0.000000	0.000000	6.458919	-0.025447	NaN	0.000000	0.001545	0.001696	28.0779	0.055944	0.002034	27.5042	-99.9229	-165.42	0.041933	0.457500	-0.559825	-0.561098	-0.025447	27.5042	-0.559131	-2.271731E+7	1.120142E-9	NaN
336	1.000000	0.466773	7.36835e+06	-55439.1	955.819	-29741.9	0.000000	0.000000	6.466920	-0.015473	NaN	0.000000	0.001567	0.001683	28.0778	0.071971	0.002000	35.9909	-155.66	-167.506	0.081841	0.465479	-0.551824	-0.553119	-0.015473	35.9909	-0.551502	-1.781378E+7	8.685739E-10	NaN
336	1.000000	0.474784	7.36835e+06	-55439.1	955.818	-29741.9	0.000000	0.000000	6.474933	0.042778	NaN	0.000000	0.001588	0.001738	28.0778	0.074183	0.001934	38.3555	-19.2122	-164.789	0.040998	0.473496	-0.543813	-0.545102	0.042778	38.3555	-0.544650	-1.431620E+7	-2.988064E-9	NaN
336	1.000000	0.482751	7.36835e+06	-55439.1	955.819	-29741.9	0.000000	0.000000	6.482900	0.035057	NaN	0.000000	0.001569	0.001677	28.0782	0.023237	0.002089	11.1253	-115.584	-164.224	-0.013878	0.481457	-0.535846	-0.537140	0.035057	11.1253	-0.538210	-1.165532E+7	-3.007833E-9	NaN
336	1.000000	0.490784	7.36835e+06	-55439.1	955.819	-29741.9	0.000000	0.000000	6.490932	0.023438	NaN	0.000000	0.001572	0.001720	28.0785	0.053984	0.002075	26.0203	-4.957615	-164.603	0.031076	0.489486	-0.527814	-0.529111	0.023438	26.0203	-0.528489	-8.54264e+06	-2.743691E-9	NaN
336	1.000000	0.498795	7.36835e+06	-55439.1	955.818	-29741.9	0.000000	0.000000	6.498942	-0.031311	NaN	0.000000	0.001559	0.001674	28.0791	0.029627	0.002046	14.4785	6.499385	-163.511	0.068578	0.497526	-0.519802	-0.521072	-0.031311	14.4785	-0.518180	-6.14166e+06	5.098146E-9	NaN
336	1.000000	0.506784	7.36835e+06	-55439.1	955.819	-29741.9	0.000000	0.000000	6.506930	-0.031098	NaN	0.000000	0.001554	0.001715	28.0791	0.040085	0.001929	20.7841	160.135	-171.051	-0.096103	0.505501	-0.511813	-0.513097	-0.031098	20.7841	-0.510691	-4.83106e+06	6.437126E-9	NaN
336	1.000000	0.514801	7.36835e+06	-55439.1	955.817	-29741.9	0.000000	0.000000	6.514947	-0.014194	NaN	0.000000	0.001560	0.001698	28.0791	0.083291	0.001960	42.4937	35.7161	-163.353	0.021567	0.513422	-0.503797	-0.505175	-0.014194	42.4937	-0.503547	-3.84133e+06	3.695145E-9	NaN
336	1.000000	0.522799	7.36835e+06	-55439.1	955.818	-29741.9	0.000000	0.000000	6.522949	0.081349	NaN	0.000000	0.001552	0.001733	28.0792	0.089385	0.001922	46.5035	-4.984325	-163.623	0.106330	0.521466	-0.495799	-0.497132	0.081349	46.5035	-0.497111	-3.12395e+06	-2.604052E-8	NaN
336	1.000000	0.530806	7.36835e+06	-55439.1	955.82	-29741.9	0.000000	0.000000	6.530953	-0.012644	NaN	0.000000	0.001558	0.001713	28.0791	0.049113	0.001992	24.6504	31.6585	-164.953	0.027487	0.529503	-0.487792	-0.489094	-0.012644	24.6504	-0.487407	-2.2864e+06	5.529929E-9	NaN
336	1.000000	0.538788	7.36835e+06	-55439.1	955.819	-29741.9	0.000000	0.000000	6.538937	0.048502	NaN	0.000000	0.001515	0.001704	28.0792	0.021131	0.001826	11.5707	59.5124	-166.569	0.065355	0.537501	-0.479810	-0.481096	0.048502	11.5707	-0.482954	-1.9809e+06	-2.448486E-8	NaN
336	1.000000	0.546828	7.36835e+06	-55439.1	955.819	-29741.9	0.000000	0.000000	6.546975	0.000736	NaN	0.000000	0.001569	0.001691	28.079	0.140076	0.002074	67.5475	126.877	-168.186	0.041449	0.545447	-0.471770	-0.473151	0.000736	67.5475	-0.471778	-1.38146e+06	-5.328308E-10	NaN
336	1.000000	0.554815	7.36835e+06	-55439.1	955.818	-29741.9	0.000000	0.000000	6.554965	0.052953	NaN	0.000000	0.001547	0.001703	28.0792	0.036743	0.002058	17.8536	155.68	-163.821	-0.044221	0.553513	-0.463783	-0.465085	0.052953	17.8536	-0.466007	-1.14652e+06	-4.618536E-8	NaN
336	1.000000	0.562808	7.36835e+06	-55439.1	955.819	-29741.9	0.000000	0.000000	6.562953	-0.074414	NaN	0.000000	0.001535	0.001684	28.0791	0.005816	0.001951	2.980197	-126.229	-163.595	0.024363	0.561475	-0.455789	-0.457122	-0.074414	2.980197	-0.437062	-448626	1.658714E-7	NaN
336	1.000000	0.570789	7.36835e+06	-55439.1	955.819	-29741.9	0.000000	0.000000	6.570937	0.002499	NaN	0.000000	0.001540	0.001705	28.0794	0.107434	0.001989	54.0259	131.945	-164.083	-0.017479	0.569494	-0.447808	-0.449103	0.002499	54.0259	-0.447843	-636739	-3.925386E-9	NaN
336	1.000000	0.578828	7.36835e+06	-55439.1	955.82	-29741.9	0.000000	0.000000	6.578978	0.072893	NaN	0.000000	0.001493	0.001714	28.0792	0.066932	0.001949	34.3424	107.235	-164.333	0.108947	0.577471	-0.439770	-0.441127	0.072893	34.3424	-0.441362	-515920	-1.412868E-7	NaN
336	1.000000	0.586799	7.36835e+06	-55439.1	955.818	-29741.9	0.000000	0.000000	6.586948	0.027678	NaN	0.000000	0.001481	0.001724	28.079	0.135763	0.001996	68.004	-91.4139	-165.509	0.065222	0.585471	-0.431798	-0.433127	0.027678	68.004	-0.432104	-381779	-7.249864E-8	NaN
336	1.000000	0.594847	7.36835e+06	-55439.1	955.82	-29741.9	0.000000	0.000000	6.594996	0.046456	NaN	0.000000	0.001535	0.001688	28.079	0.023151	0.002069	11.1881	132.609	-165.034	-0.007184	0.593516	-0.423751	-0.425082	0.046456	11.1881	-0.426865	-321877	-1.443296E-7	NaN
336	1.000000	0.602866	7.36835e+06	-55439.1	955.819	-29741.9	0.000000	0.000000	6.603017	0.091023	NaN	0.000000	0.001473	0.001749	28.079	0.084004	0.002034	41.2932	86.114	-163.24	0.070816	0.601567	-0.415732	-0.417031	0.091023	41.2932	-0.417385	-236219	-3.853318E-7	NaN
336	1.000000	0.610867	7.36835e+06	-55439.1	955.819	-29741.9	0.000000	0.000000	6.611014	0.004620	NaN	0.000000	0.001447	0.001691	28.0789	0.049045	0.001969	24.9127	-165.192	-160.465	0.102506	0.609495	-0.407731	-0.409103	0.004620	24.9127	-0.407870	-173022	-2.670345E-8	NaN
336	1.000000	0.618862	7.36835e+06	-55439.1	955.818	-29741.9	0.000000	0.000000	6.619010	0.015948	NaN	0.000000	0.001456	0.001734	28.0789	0.085722	0.001992	43.0426	106.268	-163.362	-0.044661	0.617551	-0.399736	-0.401046	0.015948	43.0426	-0.400014	-133717	-1.192686E-7	NaN
336	1.000000	0.626838	7.36835e+06	-55439.1	955.819	-29741.9	0.000000	0.000000	6.626988	0.075786	NaN	0.000000	0.001471	0.001699	28.0787	0.048399	0.001994	24.27	68.1682	-165.309	-0.066539	0.625565	-0.391760	-0.393033	0.075786	24.27	-0.394102	-110105	-6.883096E-7	NaN
336	1.000000	0.634854	7.36835e+06	-55439.1	955.818	-29741.9	0.000000	0.000000	6.635002	0.004768	NaN	0.000000	0.001501	0.001695	28.0776	0.027892	0.002007	13.8959	-40.9024	-163.413	0.010245	0.633583	-0.383743	-0.385015	0.004768	13.8959	-0.384001	-78934.3	-6.040796E-8	NaN
336	1.000000	0.642884	7.36835e+06	-55439.1	955.818	-29741.9	0.000000	0.000000	6.643031	-0.023711	NaN	0.000000	0.001499	0.001711	28.0775	0.120918	0.002042	59.2134	-161.826	-167.47	0.016513	0.641534	-0.375714	-0.377063	-0.023711	59.2134	-0.375413	-59430.8	3.989662E-7	NaN
336	1.000000	0.650856	7.36835e+06	-55439.1	955.818	-29741.9	0.000000	0.000000	6.651003	-0.011808	NaN	0.000000	0.001488	0.001684	28.0777	0.118824	0.002010	59.1139	-79.8768	-163.545	0.010763	0.649543	-0.367742	-0.369055	-0.011808	59.1139	-0.367592	-45859.6	2.574884E-7	NaN
336	1.000000	0.658867	7.36835e+06	-55439.1	955.819	-29741.9	0.000000	0.000000	6.659017	0.045845	NaN	0.000000	0.001508	0.001686	28.0778	0.075310	0.001911	39.4134	-103.279	-161.845	0.092238	0.657608	-0.359730	-0.360989	0.045845	39.4134	-0.360603	-36354.4	-1.261056E-6	NaN
336	1.000000	0.666888	7.36835e+06	-55439.1	955.819	-29741.9	0.000000	0.000000	6.667034	-0.022938	NaN	0.000000	0.001533	0.001714	28.0778	0.029397	0.002150	13.6708	-120.158	-162.903	0.010104	0.665515	-0.351710	-0.353083	-0.022938	13.6708	-0.350452	-25915.2	8.850995E-7	NaN
336	1.000000	0.674862	7.36835e+06	-55439.1	955.819	-29741.9	0.000000	0.000000	6.675009	0.007404	NaN	0.000000	0.001544	0.001727	28.0779	0.063916	0.002007	31.8521	-56.1962	-163.67	0.017452	0.673554	-0.343736	-0.345044	0.007404	31.8521	-0.343910	-20821.1	-3.555916E-7	NaN
336	1.000000	0.682860	7.36835e+06	-55439.1	955.819	-29741.9	0.000000	0.000000	6.683006	-0.028507	NaN	0.000000	0.001525	0.001677	28.0777	0.052218	0.002040	25.6027	-70.9054	-162.371	0.022939	0.681505	-0.335737	-0.337092	-0.028507	25.6027	-0.334902	-15387.3	1.852616E-6	NaN
336	1.000000	0.690850	7.36835e+06	-55439.1	955.818	-29741.9	0.000000	0.000000	6.690997	-0.007398	NaN	0.000000	0.001511	0.001709	28.0784	0.122276	0.002027	60.3094	-134.791	-165.677	-0.000560	0.689581	-0.327748	-0.329017	-0.007398	60.3094	-0.327656	-12053.2	6.137386E-7	NaN
336	1.000000	0.698873	7.36835e+06	-55439.1	955.819	-29741.9	0.000000	0.000000	6.699019	-0.030982	NaN	0.000000	0.001510	0.001719	28.0777	0.050655	0.001966	25.7663	-42.4687	-165.112	-0.009817	0.697597	-0.319725	-0.321000	-0.030982	25.7663	-0.318823	-8939.41	3.465827E-6	NaN
336	1.000000	0.706890	7.36835e+06	-55439.1	955.82	-29741.9	0.000000	0.000000	6.707037	0.008470	NaN	0.000000	0.001549	0.001664	28.0777	0.056736	0.002096	27.0724	130.045	-164.034	0.055054	0.705568	-0.311708	-0.313030	0.008470	27.0724	-0.311943	-7076.02	-1.197007E-6	NaN
336	1.000000	0.714879	7.36835e+06	-55439.1	955.819	-29741.9	0.000000	0.000000	6.715029	0.076599	NaN	0.000000	0.001498	0.001656	28.078	0.052540	0.002002	26.2416	-141.381	-165.366	-0.000745	0.713561	-0.303719	-0.305037	0.076599	26.2416	-0.305908	-5760.11	-1.329819E-5	NaN
336	1.000000	0.722891	7.36835e+06	-55439.1	955.819	-29741.9	0.000000	0.000000	6.723037	-0.032745	NaN	0.000000	0.001535	0.001719	28.0777	0.083943	0.001999	42.0005	110.853	-163.307	-0.012682	0.721607	-0.295707	-0.296990	-0.032745	42.0005	-0.295122	-3980.22	8.227030E-6	NaN
336	1.000000	0.730875	7.36835e+06	-55439.1	955.818	-29741.9	0.000000	0.000000	6.731027	0.102609	NaN	0.000000	0.001511	0.001747	28.0782	0.121072	0.001975	61.3093	-26.3008	-164.735	0.106145	0.729559	-0.287723	-0.289039	0.102609	61.3093	-0.288978	-3220.93	-3.185698E-5	NaN
336	1.000000	0.738860	7.36835e+06	-55439.1	955.818	-29741.9	0.000000	0.000000	6.739005	-0.038842	NaN	0.000000	0.001533	0.001727	28.0776	0.064553	0.002104	30.6814	-98.992	-166.78	-0.014220	0.737557	-0.279738	-0.281041	-0.038842	30.6814	-0.278789	-2263.01	1.716366E-5	NaN
336	1.000000	0.746879	7.36835e+06	-55439.1	955.819	-29741.9	0.000000	0.000000	6.747027	0.014714	NaN	0.000000	0.001508	0.001722	28.0776	0.068820	0.001975	34.8496	55.6514	-169.144	0.015603	0.745600	-0.271718	-0.272997	0.014714	34.8496	-0.272035	-1788.35	-8.227714E-6	NaN
336	1.000000	0.754868	7.36835e+06	-55439.1	955.819	-29741.9	0.000000	0.000000	6.755017	0.042658	NaN	0.000000	0.001506	0.001697	28.0779	0.099996	0.001982	50.4436	5.334490	-160.571	0.040262	0.753580	-0.263730	-0.265017	0.042658	50.4436	-0.264364	-1366.72	-3.121180E-5	NaN
336	1.000000	0.762932	7.36835e+06	-55439.1	955.818	-29741.9	0.000000	0.000000	6.763079	-0.009797	NaN	0.000000	0.001526	0.001718	28.078	0.113119	0.002016	56.1004	-92.1415	-164.679	0.012817	0.761545	-0.255665	-0.257052	-0.009797	56.1004	-0.255534	-1000.79	9.789064E-6	NaN
336	1.000000	0.770929	7.36835e+06	-55439.1	955.818	-29741.9	0.000000	0.000000	6.771079	0.055765	NaN	0.000000	0.001534	0.001732	28.0795	0.083869	0.001950	43.0124	139.721	-163.513	0.024241	0.769583	-0.247668	-0.249015	0.055765	43.0124	-0.248641	-783.303	-7.119252E-5	NaN
336	1.000000	0.778928	7.36835e+06	-55439.1	955.819	-29741.9	0.000000	0.000000	6.779078	0.070204	NaN	0.000000	0.001521	0.001724	28.079	0.024322	0.002006	12.1238	-116.1	-163.556	0.042279	0.777595	-0.239670	-0.241002	0.070204	12.1238	-0.244013	-663.899	-0.000106	NaN
336	1.000000	0.786895	7.36835e+06	-55439.1	955.819	-29741.9	0.000000	0.000000	6.787043	-0.003849	NaN	0.000000	0.001522	0.001751	28.0794	0.010756	0.002098	5.126872	143.469	-165.223	0.023401	0.785588	-0.231702	-0.233010	-0.003849	5.126872	-0.231139	-417.343	9.223636E-6	NaN
336	1.000000	0.794896	7.36835e+06	-55439.1	955.818	-29741.9	0.000000	0.000000	6.795044	0.023730	NaN	0.000000	0.001535	0.001750	28.0793	0.051010	0.001991	25.6235	168.275	-167.401	-0.040126	0.793571	-0.223702	-0.225026	0.023730	25.6235	-0.224397	-326.398	-7.270306E-5	NaN
336	1.000000	0.802910	7.36835e+06	-55439.1	955.818	-29741.9	0.000000	0.000000	6.803057	0.005955	NaN	0.000000	0.001523	0.001750	28.0791	0.065903	0.002153	30.6109	-125.734	-162.489	-0.047230	0.801596	-0.215688	-0.217002	0.005955	30.6109	-0.215834	-238.187	-2.500016E-5	NaN
336	1.000000	0.810945	7.36835e+06	-55439.1	955.819	-29741.9	0.000000	0.000000	6.811094	0.034427	NaN	0.000000	0.001515	0.001734	28.0794	0.067922	0.001973	34.4276	-127.515	-163.651	0.011719	0.809577	-0.207653	-0.209021	0.034427	34.4276	-0.208403	-180.684	-0.000191	NaN
336	1.000000	0.818919	7.36835e+06	-55439.1	955.819	-29741.9	0.000000	0.000000	6.819069	0.059886	NaN	0.000000	0.001542	0.001705	28.0795	0.070569	0.001957	36.0555	28.8462	-166.677	0.000938	0.817625	-0.199679	-0.200973	0.059886	36.0555	-0.200925	-136.422	-0.000439	NaN
336	1.000000	0.826898	7.36835e+06	-55439.1	955.819	-29741.9	0.000000	0.000000	6.827046	0.006691	NaN	0.000000	0.001539	0.001695	28.0798	0.074240	0.002024	36.6784	108.34	-162.922	0.059475	0.825607	-0.191700	-0.192990	0.006691	36.6784	-0.191837	-96.5294	-6.931770E-5	NaN
336	1.000000	0.834927	7.36835e+06	-55439.1	955.818	-29741.9	0.000000	0.000000	6.835075	0.017449	NaN	0.000000	0.001523	0.001698	28.0796	0.043019	0.002129	20.2057	-111.103	-159.996	0.050784	0.833624	-0.183671	-0.184974	0.017449	20.2057	-0.184318	-72.2166	-0.000242	NaN
336	1.000000	0.842895	7.36835e+06	-55439.1	955.819	-29741.9	0.000000	0.000000	6.843041	-0.030320	NaN	0.000000	0.001535	0.001725	28.0795	0.063022	0.002116	29.7831	129.895	-166.073	0.025177	0.841676	-0.175703	-0.176921	-0.030320	29.7831	-0.174939	-49.9959	0.000606	NaN
336	1.000000	0.850930	7.36835e+06	-55439.1	955.818	-29741.9	0.000000	0.000000	6.851079	0.043481	NaN	0.000000	0.001505	0.001710	28.0795	0.012100	0.001811	6.681425	-122.53	-165.436	-0.010704	0.849639	-0.167668	-0.168958	0.043481	6.681425	-0.172548	-45.4721	-0.000956	NaN
336	1.000000	0.858945	7.36835e+06	-55439.1	955.819	-29741.9	0.000000	0.000000	6.859092	-0.001857	NaN	0.000000	0.001519	0.001729	28.0792	0.061878	0.001955	31.6448	-170.876	-165.687	0.023598	0.857640	-0.159653	-0.160957	-0.001857	31.6448	-0.159609	-26.9796	6.881413E-5	NaN
336	1.000000	0.866944	7.36835e+06	-55439.1	955.819	-29741.9	0.000000	0.000000	6.867092	0.009026	NaN	0.000000	0.001526	0.001709	28.0797	0.107529	0.002064	52.1087	-107.635	-165.148	0.019624	0.865658	-0.151653	-0.152940	0.009026	52.1087	-0.151783	-19.5186	-0.000462	NaN
336	1.000000	0.874945	7.36835e+06	-55439.1	955.818	-29741.9	0.000000	0.000000	6.875091	-0.042947	NaN	0.000000	0.001528	0.001734	28.0794	0.072409	0.002001	36.1828	155.79	-165.936	-0.040435	0.873676	-0.143653	-0.144922	-0.042947	36.1828	-0.142762	-13.3239	0.003223	NaN
336	1.000000	0.882963	7.36835e+06	-55439.1	955.819	-29741.9	0.000000	0.000000	6.883109	-0.019180	NaN	0.000000	0.001494	0.001731	28.0794	0.041433	0.001848	22.4197	26.2765	-164.295	-0.012107	0.881641	-0.135635	-0.136956	-0.019180	22.4197	-0.134993	-9.509662	0.002017	NaN
336	1.000000	0.890976	7.36835e+06	-55439.1	955.819	-29741.9	0.000000	0.000000	6.891126	0.055646	NaN	0.000000	0.001499	0.001677	28.0792	0.102721	0.001973	52.0751	-165.325	-168.47	0.021704	0.889706	-0.127621	-0.128892	0.055646	52.0751	-0.128423	-7.100499	-0.007837	NaN
336	1.000000	0.898971	7.36835e+06	-55439.1	955.82	-29741.9	0.000000	0.000000	6.899119	0.015883	NaN	0.000000	0.001498	0.001712	28.079	0.098130	0.002075	47.2981	95.8285	-163.434	-0.046647	0.897692	-0.119627	-0.120906	0.015883	47.2981	-0.119878	-4.804275	-0.003306	NaN
336	1.000000	0.906971	7.36835e+06	-55439.1	955.819	-29741.9	0.000000	0.000000	6.907119	0.006206	NaN	0.000000	0.001511	0.001712	28.0779	0.062591	0.001966	31.8395	164.542	-168.209	0.005657	0.905631	-0.111626	-0.112967	0.006206	31.8395	-0.111772	-3.274102	-0.001896	NaN
336	1.000000	0.914979	7.36835e+06	-55439.1	955.819	-29741.9	0.000000	0.000000	6.915127	0.019060	NaN	0.000000	0.001530	0.001679	28.0779	0.030209	0.001911	15.8104	58.7656	-166.099	0.044486	0.913686	-0.103619	-0.104911	0.019060	15.8104	-0.104523	-2.295426	-0.008303	NaN
336	1.000000	0.922990	7.36835e+06	-55439.1	955.819	-29741.9	0.000000	0.000000	6.923135	-0.054644	NaN	0.000000	0.001531	0.001695	28.0783	0.056655	0.002092	27.0848	107.124	-163.301	-0.052528	0.921658	-0.095607	-0.096940	-0.054644	27.0848	-0.094094	-1.344999	0.040628	NaN
336	1.000000	0.930983	7.36835e+06	-55439.1	955.819	-29741.9	0.000000	0.000000	6.931131	0.011320	NaN	0.000000	0.001513	0.001700	28.078	0.096567	0.002066	46.7513	62.0193	-163.765	0.013066	0.929680	-0.087615	-0.088917	0.011320	46.7513	-0.087796	-0.958884	-0.011805	NaN
336	1.000000	0.938971	7.36835e+06	-55439.1	955.818	-29741.9	0.000000	0.000000	6.939118	-0.006136	NaN	0.000000	0.001511	0.001731	28.0782	0.149256	0.002093	71.3282	-114.637	-161.304	-0.034118	0.937690	-0.079626	-0.080908	-0.006136	71.3282	-0.079562	-0.603552	0.010166	NaN
336	1.000000	0.946960	7.36835e+06	-55439.1	955.818	-29741.9	0.000000	0.000000	6.947105	-0.052297	NaN	0.000000	0.001534	0.001715	28.0781	0.039545	0.002053	19.2575	136.684	-165.189	-0.005797	0.945665	-0.071638	-0.072933	-0.052297	19.2575	-0.069601	-0.332808	0.157138	NaN
336	1.000000	0.954973	7.36835e+06	-55439.1	955.82	-29741.9	0.000000	0.000000	6.955120	-0.000732	NaN	0.000000	0.001509	0.001697	28.0781	0.057393	0.002085	27.528	52.3697	-165.722	0.066673	0.953659	-0.063625	-0.064939	-0.000732	27.528	-0.063605	-0.227871	0.003214	NaN
336	1.000000	0.962973	7.36835e+06	-55439.1	955.819	-29741.9	0.000000	0.000000	6.963121	0.027804	NaN	0.000000	0.001527	0.001707	28.0784	0.050740	0.001859	27.2989	-121.95	-166.658	-0.017952	0.961705	-0.055625	-0.056893	0.027804	27.2989	-0.056389	-0.141490	-0.196509	NaN
336	1.000000	0.970996	7.36835e+06	-55439.1	955.82	-29741.9	0.000000	0.000000	6.971142	-0.028420	NaN	0.000000	0.001481	0.001727	28.0782	0.048948	0.002126	23.0279	96.5411	-163.312	0.042102	0.969668	-0.047602	-0.048930	-0.028420	23.0279	-0.046676	-0.072313	0.393015	NaN
336	1.000000	0.978995	7.36835e+06	-55439.1	955.819	-29741.9	0.000000	0.000000	6.979141	-0.028301	NaN	0.000000	0.001475	0.001745	28.0784	0.087507	0.001899	46.0853	117.876	-166.501	-0.031508	0.977665	-0.039603	-0.040933	-0.028301	46.0853	-0.039142	-0.042593	0.664467	NaN
336	1.000000	0.987010	7.36835e+06	-55439.1	955.819	-29741.9	0.000000	0.000000	6.987158	0.007237	NaN	0.000000	0.001485	0.001731	28.0782	0.035623	0.001914	18.611	72.8473	-165.949	-0.070214	0.985615	-0.031588	-0.032983	0.007237	18.611	-0.031879	-0.026000	-0.278347	NaN
336	1.000000	0.995004	7.36835e+06	-55439.1	955.82	-29741.9	0.000000	0.000000	6.995156	0.111031	NaN	0.000000	0.001472	0.001712	28.0781	0.094602	0.001960	48.2667	156.046	-167.189	-0.032695	0.993664	-0.023593	-0.024933	0.111031	48.2667	-0.025319	-0.017197	-6.456235	NaN
336	1.000000	1.002965	7.36835e+06	-55439.1	955.819	-29741.9	0.000000	0.000000	7.003112	-0.008348	NaN	0.000000	0.001504	0.001699	28.0785	0.082288	0.002036	40.4064	105.297	-165.334	0.025530	1.001723	-0.015632	-0.016874	-0.008348	40.4064	-0.015477	-0.009563	0.872952	NaN
336	1.000000	1.010986	7.36836e+06	-55439.1	955.819	-29741.9	0.000000	0.000000	7.011135	0.057523	NaN	0.000000	0.001476	0.001717	28.0784	0.078395	0.002126	36.8688	-105.934	-166.618	-0.018458	1.009673	-0.007612	-0.008925	0.057523	36.8688	-0.008782	-0.005687	-10.1147	NaN
336	1.000000	1.019017	7.36836e+06	-55439.1	955.819	-29741.9	0.000000	0.000000	7.019170	0.149088	NaN	0.000000	0.001493	0.001728	28.0786	0.358824	0.001948	184.179	3.911675	-164.388	0.110864	1.017761	0.000419	-0.000836	0.149088	184.179	-0.000188	-0.000140	-1064.08	NaN
336	1.000000	1.027017	7.36836e+06	-55439.1	955.819	-29741.9	0.000000	0.000000	7.027436	6.606342	NaN	0.000000	0.001460	0.001742	28.0781	7.124833	0.001623	4390.52	11.9297	-170.902	5.644900	1.025658	0.008419	0.007061	6.606342	4390.52	0.007291	0.006323	1044.84	50446.8
336	2.000000	1.030615	7.36836e+06	-55439.1	955.819	-29741.9	0.000000	0.000000	7.031164	9.762630	NaN	0.000000	0.001470	0.001733	28.078	10.0454	0.001544	6504.87	3.656117	-170.573	9.638600	1.030300	0.012017	0.011702	9.762630	6504.87	0.010892	0.010190	958.103	58875.4
336	2.000000	1.032565	7.36836e+06	-55439.1	955.818	-29741.9	0.000000	0.000000	7.033193	11.6782	NaN	0.000000	0.001459	0.001727	28.08	12.7572	0.001729	7378.79	6.612351	-174.198	10.7666	1.032371	0.013967	0.013773	11.6782	7378.79	0.012780	0.012438	938.901	60447.8
336	2.000000	1.034538	7.36836e+06	-55439.1	955.818	-29741.9	0.000000	0.000000	7.035284	14.5594	NaN	0.000000	0.001496	0.001745	28.0793	14.4279	0.001707	8454.27	5.694765	-173.792	13.543	1.034207	0.015940	0.015609	14.5594	8454.27	0.014648	0.014819	982.461	63450.5
336	2.000000	1.036546	7.36836e+06	-55439.1	955.818	-29741.9	0.000000	0.000000	7.037392	16.9854	NaN	0.000000	0.001474	0.001739	28.0794	16.4123	0.001731	9479.5	6.147973	-174.275	16.5462	1.036259	0.017948	0.017661	16.9854	9479.5	0.016604	0.017485	971.452	65498.5
336	2.000000	1.038573	7.36836e+06	-55439.1	955.819	-29741.9	0.000000	0.000000	7.039578	20.8428	NaN	0.000000	0.001500	0.001703	28.0792	18.1712	0.001833	9912.51	6.220801	-172.973	22.1551	1.038216	0.019975	0.019618	20.8428	9912.51	0.018398	0.020087	1037.61	63899.2
336	2.000000	1.040511	7.36836e+06	-55439.1	955.82	-29741.9	0.000000	0.000000	7.041654	24.2029	NaN	0.000000	0.001512	0.001718	28.0792	19.8072	0.001633	12127.3	7.974574	-178.057	24.398	1.040160	0.021914	0.021562	24.2029	12127.3	0.020417	0.023201	1043.16	72740.7
336	2.000000	1.042498	7.36836e+06	-55439.1	955.819	-29741.9	0.000000	0.000000	7.043813	28.3697	NaN	0.000000	0.001499	0.001707	28.0799	22.8037	0.001799	12675.7	6.415916	-178.007	27.3385	1.042256	0.023901	0.023658	28.3697	12675.7	0.022222	0.026155	1084.67	71608.7
336	2.000000	1.044507	7.36836e+06	-55439.1	955.819	-29741.9	0.000000	0.000000	7.045963	31.8108	NaN	0.000000	0.001453	0.001730	28.0791	24.0602	0.001775	13555.9	8.218914	-179.855	31.9023	1.044164	0.025910	0.025566	31.8108	13555.9	0.024150	0.029487	1078.82	72125.5
336	2.000000	1.046490	7.36836e+06	-55439.1	955.819	-29741.9	0.000000	0.000000	7.048075	34.9397	NaN	0.000000	0.001452	0.001713	28.0795	25.7965	0.001852	13926.4	7.706182	-179.104	34.9535	1.046169	0.027893	0.027571	34.9397	13926.4	0.026011	0.032880	1062.63	70168.4
336	2.000000	1.048521	7.36836e+06	-55439.1	955.818	-29741.9	0.000000	0.000000	7.050325	40.2748	NaN	0.000000	0.001504	0.001707	28.0791	28.1253	0.001841	15278.7	10.3132	177.479	40.6012	1.048126	0.029923	0.029528	40.2748	15278.7	0.027946	0.036594	1100.59	72972.1
336	2.000000	1.050461	7.36836e+06	-55439.1	955.818	-29741.9	0.000000	0.000000	7.052537	46.8868	NaN	0.000000	0.001487	0.001743	28.0792	28.7704	0.001742	16514.6	7.180002	179.118	45.0057	1.050096	0.031863	0.031498	46.8868	16514.6	0.029734	0.040195	1166.5	75259
336	2.000000	1.052494	7.36836e+06	-55439.1	955.819	-29741.9	0.000000	0.000000	7.054741	51.0468	NaN	0.000000	0.001467	0.001786	28.0794	31.311	0.001820	17206.8	8.156678	178.333	49.7554	1.052153	0.033896	0.033555	51.0468	17206.8	0.031671	0.044278	1152.87	74710.2
336	2.000000	1.054442	7.36836e+06	-55439.1	955.819	-29741.9	0.000000	0.000000	7.056895	56.037	NaN	0.000000	0.001463	0.001767	28.0791	32.0979	0.001643	19535.6	2.144763	-178.226	53.4292	1.054237	0.035845	0.035639	56.037	19535.6	0.033693	0.048747	1149.55	80840.1
336	2.000000	1.056445	7.36836e+06	-55439.1	955.819	-29741.9	0.000000	0.000000	7.059242	64.4089	NaN	0.000000	0.001464	0.001751	28.0794	35.0912	0.001752	20026.8	7.392853	177.571	63.1917	1.056153	0.037848	0.037555	64.4089	20026.8	0.035435	0.052765	1220.68	79654.8
336	2.000000	1.058468	7.36836e+06	-55439.1	955.818	-29741.9	0.000000	0.000000	7.061536	71.0021	NaN	0.000000	0.001482	0.001724	28.0793	37.3896	0.001841	20309	4.844913	-179.313	69.9159	1.058085	0.039870	0.039487	71.0021	20309	0.037248	0.057110	1243.25	77643.7
336	2.000000	1.060496	7.36836e+06	-55439.1	955.817	-29741.9	0.000000	0.000000	7.063841	77.721	NaN	0.000000	0.001470	0.001731	28.0792	39.5569	0.001714	23078.8	4.967204	178.794	77.25	1.060180	0.041899	0.041583	77.721	23078.8	0.039373	0.062418	1245.17	84397.8
336	2.000000	1.062480	7.36836e+06	-55439.1	955.819	-29741.9	0.000000	0.000000	7.066140	85.3845	NaN	0.000000	0.001499	0.001743	28.0794	42.115	0.001791	23520.6	5.302706	178.175	85.1159	1.062152	0.043883	0.043555	85.3845	23520.6	0.041160	0.067060	1273.25	82982.9
336	2.000000	1.064447	7.36836e+06	-55439.1	955.819	-29741.9	0.000000	0.000000	7.068480	94.4678	NaN	0.000000	0.001493	0.001736	28.0791	42.0994	0.001699	24777.2	0.799529	-178.248	92.6878	1.064130	0.045849	0.045533	94.4678	24777.2	0.042990	0.071983	1312.37	84374.4
336	2.000000	1.066498	7.36836e+06	-55439.1	955.818	-29741.9	0.000000	0.000000	7.070855	102.327	NaN	0.000000	0.001513	0.001774	28.0781	46.3246	0.001941	23862.9	6.940872	176.826	102.995	1.066132	0.047901	0.047534	102.327	23862.9	0.044685	0.076695	1334.21	78725.2
336	2.000000	1.068512	7.36836e+06	-55439.1	955.818	-29741.9	0.000000	0.000000	7.073134	108.749	NaN	0.000000	0.001455	0.001772	28.0779	47.7641	0.001952	24464.2	4.953196	179.08	109.241	1.068138	0.049915	0.049541	108.749	24464.2	0.046581	0.082138	1323.98	77988.6
336	2.000000	1.070456	7.36836e+06	-55439.1	955.819	-29741.9	0.000000	0.000000	7.075517	119.43	NaN	0.000000	0.001490	0.001757	28.0781	48.7742	0.001787	27296.6	6.631848	174.941	118.054	1.070103	0.051859	0.051506	119.43	27296.6	0.048577	0.088066	1356.14	84038
336	2.000000	1.072494	7.36836e+06	-55439.1	955.819	-29741.9	0.000000	0.000000	7.078005	130.376	NaN	0.000000	0.001457	0.001741	28.0778	50.086	0.001718	29154.8	3.882197	178.289	130.431	1.072050	0.053896	0.053452	130.376	29154.8	0.050542	0.094097	1385.55	86834.9
336	2.000000	1.074440	7.36836e+06	-55439.1	955.819	-29741.9	0.000000	0.000000	7.080297	138.785	NaN	0.000000	0.001497	0.001742	28.0778	52.1039	0.001897	27462.3	7.729475	174.298	139.341	1.074160	0.055843	0.055562	138.785	27462.3	0.052052	0.098862	1403.82	79798.5
336	2.000000	1.076405	7.36836e+06	-55439.1	955.819	-29741.9	0.000000	0.000000	7.082571	146.3	NaN	0.000000	0.001501	0.001765	28.0779	54.0128	0.001754	30799	5.669567	175.929	144.489	1.076112	0.057807	0.057515	146.3	30799	0.054245	0.105984	1380.41	86435.1
336	2.000000	1.078455	7.36836e+06	-55439.1	955.818	-29741.9	0.000000	0.000000	7.084930	153.821	NaN	0.000000	0.001539	0.001729	28.0778	55.9119	0.001769	31604.7	1.481774	179.919	153.297	1.078250	0.059857	0.059652	153.821	31604.7	0.056207	0.112559	1366.58	86066.5
336	2.000000	1.080359	7.36836e+06	-55439.1	955.819	-29741.9	0.000000	0.000000	7.087359	166.566	NaN	0.000000	0.001568	0.001731	28.078	58.4058	0.001761	33158.9	7.977606	172.419	162.622	1.080137	0.061762	0.061539	166.566	33158.9	0.057994	0.118714	1403.08	87926.9
336	2.000000	1.082488	7.36836e+06	-55439.1	955.819	-29741.9	0.000000	0.000000	7.089702	171.775	NaN	0.000000	0.001546	0.001742	28.0778	63.0615	0.001874	33656.7	6.027733	174.001	173.218	1.082215	0.063890	0.063618	171.775	33656.7	0.060063	0.126033	1362.94	86617.1
336	2.000000	1.084447	7.36836e+06	-55439.1	955.818	-29741.9	0.000000	0.000000	7.092244	185.963	NaN	0.000000	0.001578	0.001785	28.0777	63.8171	0.001888	33803.4	5.135250	175.776	185.583	1.084077	0.065849	0.065479	185.963	33803.4	0.061723	0.132059	1408.19	84986.6
336	2.000000	1.086459	7.36836e+06	-55439.1	955.819	-29741.9	0.000000	0.000000	7.094562	193.384	NaN	0.000000	0.001577	0.001772	28.0779	65.9874	0.001847	35734.1	7.537982	172.218	196.2	1.086129	0.067861	0.067531	193.384	35734.1	0.063802	0.139795	1383.34	87319.3
336	2.000000	1.088468	7.36836e+06	-55439.1	955.818	-29741.9	0.000000	0.000000	7.096930	202.122	NaN	0.000000	0.001568	0.001784	28.078	67.0686	0.001776	37769.3	4.596559	175.594	201.557	1.088052	0.069870	0.069454	202.122	37769.3	0.065857	0.147643	1368.99	89805.9
336	2.000000	1.090369	7.36836e+06	-55439.1	955.819	-29741.9	0.000000	0.000000	7.099346	214.634	NaN	0.000000	0.001585	0.001772	28.0779	68.5343	0.001842	37214.5	6.371334	173.245	211.71	1.090073	0.071772	0.071475	214.634	37214.5	0.067446	0.153854	1395.04	86682.2
336	2.000000	1.092422	7.36836e+06	-55439.1	955.819	-29741.9	0.000000	0.000000	7.101973	228.604	NaN	0.000000	0.001510	0.001760	28.0779	70.702	0.001786	39579.6	2.123625	176.976	227.999	1.092065	0.073824	0.073467	228.604	39579.6	0.069492	0.162028	1410.89	89835.7
336	2.000000	1.094387	7.36836e+06	-55439.1	955.821	-29741.9	0.000000	0.000000	7.104426	240.441	NaN	0.000000	0.001527	0.001761	28.078	71.4085	0.001831	38990.2	2.905852	176.606	238.624	1.094121	0.075790	0.075524	240.441	38990.2	0.071164	0.168857	1423.93	86689.9
336	2.000000	1.096411	7.36836e+06	-55439.1	955.821	-29741.9	0.000000	0.000000	7.107030	254.551	NaN	0.000000	0.001478	0.001752	28.0782	75.0322	0.001799	41704.6	3.745116	175.432	252.456	1.095922	0.077814	0.077324	254.551	41704.6	0.073236	0.177500	1434.09	90439.5
336	2.000000	1.098429	7.36836e+06	-55439.1	955.82	-29741.9	0.000000	0.000000	7.109403	263.167	NaN	0.000000	0.001514	0.001755	28.0781	75.8479	0.001714	44251.1	2.735494	175.83	260.818	1.098139	0.079831	0.079541	263.167	44251.1	0.075371	0.186620	1410.17	93587.6
336	2.000000	1.100405	7.36836e+06	-55439.1	955.819	-29741.9	0.000000	0.000000	7.111906	276.009	NaN	0.000000	0.001478	0.001714	28.0792	78.2594	0.001704	45917.1	8.033685	170.078	275.477	1.100099	0.081807	0.081502	276.009	45917.1	0.077299	0.195039	1415.15	94992.1
336	2.000000	1.102391	7.36836e+06	-55439.1	955.82	-29741.9	0.000000	0.000000	7.114489	290.506	NaN	0.000000	0.001483	0.001720	28.0793	81.5375	0.001802	45242	8.067231	169.627	287.508	1.102049	0.083793	0.083451	290.506	45242	0.078977	0.202512	1434.51	91852.2
336	2.000000	1.104424	7.36836e+06	-55439.1	955.819	-29741.9	0.000000	0.000000	7.116689	294.567	NaN	0.000000	0.001517	0.001740	28.0794	81.8258	0.001766	46323.5	4.899766	172.517	293.122	1.104184	0.085826	0.085586	294.567	46323.5	0.081057	0.211952	1389.79	91929.8
336	2.000000	1.106443	7.36836e+06	-55439.1	955.819	-29741.9	0.000000	0.000000	7.119345	310.059	NaN	0.000000	0.001492	0.001831	28.0794	83.4516	0.001813	46040.9	2.258189	175.588	309.769	1.106226	0.087845	0.087628	310.059	46040.9	0.082794	0.219992	1409.41	89683.7
336	2.000000	1.108427	7.36836e+06	-55439.1	955.82	-29741.9	0.000000	0.000000	7.122120	329.262	NaN	0.000000	0.001529	0.001741	28.0791	86.7203	0.001896	45729.8	6.396640	171.98	327.742	1.108001	0.089830	0.089404	329.262	45729.8	0.084430	0.227689	1446.11	87559.3
336	2.000000	1.110370	7.36836e+06	-55439.1	955.819	-29741.9	0.000000	0.000000	7.124681	344.286	NaN	0.000000	0.001523	0.001717	28.0789	86.6177	0.001743	49686.5	3.589510	174.372	340.42	1.110003	0.091773	0.091405	344.286	49686.5	0.086576	0.237976	1446.72	93056.1
336	2.000000	1.112396	7.36836e+06	-55439.1	955.819	-29741.9	0.000000	0.000000	7.127542	364.599	NaN	0.000000	0.001516	0.001797	28.0792	90.0946	0.001825	49357.5	8.840973	168.736	362.111	1.112075	0.093798	0.093477	364.599	49357.5	0.088258	0.246187	1480.98	90885.3
336	2.000000	1.114302	7.36836e+06	-55439.1	955.819	-29741.9	0.000000	0.000000	7.129646	369.406	NaN	0.000000	0.001531	0.001726	28.0794	90.3163	0.001830	49356.7	5.146000	172.288	363.339	1.114039	0.095705	0.095441	369.406	49356.7	0.090091	0.255287	1447.02	89249.2
336	2.000000	1.116394	7.36836e+06	-55439.1	955.819	-29741.9	0.000000	0.000000	7.132426	386.125	NaN	0.000000	0.001504	0.001725	28.0792	92.8656	0.001701	54587.8	5.794145	171.014	383.689	1.116052	0.097796	0.097454	386.125	54587.8	0.092491	0.267428	1443.85	96441.9
336	2.000000	1.118424	7.36836e+06	-55439.1	955.82	-29741.9	0.000000	0.000000	7.134943	397.952	NaN	0.000000	0.001509	0.001697	28.0794	95.8346	0.001895	50564.3	5.946553	171.615	396.264	1.118229	0.099827	0.099632	397.952	50564.3	0.093924	0.274804	1448.13	88126.3
336	2.000000	1.120349	7.36836e+06	-55439.1	955.82	-29741.9	0.000000	0.000000	7.137905	423.161	NaN	0.000000	0.001495	0.001726	28.0792	96.7204	0.001817	53222.8	7.477082	169.735	419.231	1.119999	0.101752	0.101401	423.161	53222.8	0.095789	0.284541	1487.17	91158.7
336	2.000000	1.122380	7.36836e+06	-55439.1	955.82	-29741.9	0.000000	0.000000	7.140638	440.251	NaN	0.000000	0.001533	0.001783	28.079	99.1496	0.001759	56370.9	6.679890	170.329	438.766	1.122035	0.103782	0.103437	440.251	56370.9	0.097925	0.295893	1487.87	94680.5
336	2.000000	1.124380	7.36836e+06	-55439.1	955.82	-29741.9	0.000000	0.000000	7.143201	453.926	NaN	0.000000	0.001480	0.001708	28.0795	100.258	0.001822	55030.2	4.546659	172.254	453.464	1.124177	0.105783	0.105579	453.926	55030.2	0.099596	0.304919	1488.68	91050.6
336	2.000000	1.126331	7.36836e+06	-55439.1	955.82	-29741.9	0.000000	0.000000	7.146054	475.872	NaN	0.000000	0.001521	0.001726	28.0793	103.379	0.001895	54564	6.981035	170.083	473.736	1.126057	0.107733	0.107459	475.872	54564	0.101192	0.313656	1517.18	89012.8
336	2.000000	1.127405	7.36836e+06	-55439.1	955.821	-29741.9	0.000000	0.000000	7.147238	478.524	NaN	0.000000	0.001497	0.001740	28.0792	102.195	0.001621	63063.7	3.176452	172.758	477.575	1.127168	0.108808	0.108571	478.524	63063.7	0.103117	0.324348	1475.34	101169