File: remote_trans/data/nanoindenter/0828-1/data/Data_2025-08-06,11h17m57s/2025-07-22_16-23-58_1_6.txt
2025-07-22, 16:23:58, 1
Index	Phase	Displacement	Time	Pos X	Pos Y	Pos Z	Rot A	Rot B	Piezo Z	Force A	Force B	Gripper	Voltage A	Voltage B	Temperature	Amplitude force	Amplitude pos	Stiffness	Phase shift	Phase excitation	Force A raw	Displacement raw	HMax	HMax raw	Real Force	Real Stiffness	Contact Depth	Area	Hardness	Reduced Mod.
[#]	[#]	[um]	[s]	[um]	[um]	[um]	[m°]	[m°]	[um]	[uN]	[uN]	[V]	[V]	[V]	[°C]	[uN]	[um]	[N/m]	[°]	[°]	[uN]	[um]	[um]	[um]	[uN]	[N/m]	[um]	[um^2]	[MPa]	[MPa]
6.000000	1.000000	0.002195	7.3651e+06	-38939.1	955.818	-29796.4	0.000000	0.000000	6.002812	0.009775	NaN	0.000000	0.001553	0.001642	28.0866	0.086379	0.001000	86.3577	-170.74	-165.726	0.001903	0.000936	-1.026675	-1.027934	0.009775	86.3577	-1.026760	-5.198690E+13	-1.880234E-16	NaN
6.000000	1.000000	0.010213	7.3651e+06	-38939.1	955.819	-29796.4	0.000000	0.000000	6.010829	0.006162	NaN	0.000000	0.001590	0.001654	28.0852	0.114324	0.000907	126.114	86.771	-161.79	0.068650	0.008865	-1.018657	-1.020005	0.006162	126.114	-1.018694	-4.049271E+13	-1.521785E-16	NaN
6.000000	1.000000	0.018140	7.3651e+06	-38939.1	955.819	-29796.4	0.000000	0.000000	6.018756	-0.011406	NaN	0.000000	0.001585	0.001653	28.085	0.070677	0.001847	38.2605	-166.653	-160.103	-0.011925	0.016877	-1.010730	-1.011993	-0.011406	38.2605	-1.010506	-3.141940E+13	3.630191E-16	NaN
6.000000	1.000000	0.026155	7.3651e+06	-38939.1	955.818	-29796.4	0.000000	0.000000	6.026766	-0.135656	NaN	0.000000	0.001588	0.001676	28.0854	0.090901	0.001898	47.8939	-158.743	-162.265	-0.085581	0.024855	-1.002715	-1.004015	-0.135656	47.8939	-1.000590	-2.310564E+13	5.871102E-15	NaN
6.000000	1.000000	0.034146	7.3651e+06	-38939.1	955.819	-29796.4	0.000000	0.000000	6.034761	-0.008686	NaN	0.000000	0.001609	0.001661	28.0828	0.043169	0.001933	22.334	80.1604	-166.399	0.021647	0.032872	-0.994725	-0.995999	-0.008686	22.334	-0.994433	-1.909021E+13	4.550137E-16	NaN
6.000000	1.000000	0.042130	7.3651e+06	-38939.1	955.819	-29796.4	0.000000	0.000000	6.042749	0.062707	NaN	0.000000	0.001581	0.001692	28.083	0.030807	0.001900	16.2164	-70.1944	-164.571	0.119656	0.040853	-0.986740	-0.988017	0.062707	16.2164	-0.989640	-1.645368E+13	-3.811117E-15	NaN
6.000000	1.000000	0.050148	7.3651e+06	-38939.1	955.818	-29796.4	0.000000	0.000000	6.050764	0.020610	NaN	0.000000	0.001603	0.001662	28.0829	0.090121	0.001988	45.343	-135.395	-165.001	0.040051	0.048804	-0.978722	-0.980066	0.020610	45.343	-0.979063	-1.185199E+13	-1.738947E-15	NaN
6.000000	1.000000	0.058124	7.3651e+06	-38939.1	955.818	-29796.4	0.000000	0.000000	6.058740	0.009674	NaN	0.000000	0.001615	0.001638	28.0821	0.025694	0.002003	12.8295	-6.603831	-165.819	0.015091	0.056843	-0.970746	-0.972027	0.009674	12.8295	-0.971312	-9.318386E+12	-1.038136E-15	NaN
6.000000	1.000000	0.066147	7.3651e+06	-38939.1	955.819	-29796.4	0.000000	0.000000	6.066765	0.057131	NaN	0.000000	0.001590	0.001681	28.0815	0.041080	0.002024	20.296	147.455	-163.769	0.015710	0.064886	-0.962724	-0.963984	0.057131	20.296	-0.964835	-7.621579E+12	-7.495945E-15	NaN
6.000000	1.000000	0.074145	7.3651e+06	-38939.1	955.818	-29796.4	0.000000	0.000000	6.074763	0.049488	NaN	0.000000	0.001591	0.001689	28.0842	0.078423	0.002025	38.7368	-138.358	-163.917	0.032306	0.072827	-0.954725	-0.956043	0.049488	38.7368	-0.955684	-5.736831E+12	-8.626447E-15	NaN
6.000000	1.000000	0.082145	7.3651e+06	-38939.1	955.818	-29796.4	0.000000	0.000000	6.082762	0.029844	NaN	0.000000	0.001575	0.001654	28.0848	0.045958	0.002002	22.9524	130.699	-165.135	-0.079096	0.080883	-0.946725	-0.947987	0.029844	22.9524	-0.947700	-4.477217E+12	-6.665805E-15	NaN
6.000000	1.000000	0.090186	7.3651e+06	-38939.1	955.818	-29796.4	0.000000	0.000000	6.090800	-0.024797	NaN	0.000000	0.001577	0.001662	28.0837	0.036284	0.002062	17.5965	4.369857	-163.799	0.068621	0.088861	-0.938685	-0.940009	-0.024797	17.5965	-0.937628	-3.274386E+12	7.573149E-15	NaN
6.000000	1.000000	0.098176	7.3651e+06	-38939.1	955.818	-29796.4	0.000000	0.000000	6.098794	0.068530	NaN	0.000000	0.001599	0.001637	28.0846	0.076892	0.001856	41.4368	46.022	-162.505	-0.013330	0.096876	-0.930695	-0.931995	0.068530	41.4368	-0.931935	-2.743542E+12	-2.497861E-14	NaN
6.000000	1.000000	0.106189	7.3651e+06	-38939.1	955.817	-29796.4	0.000000	0.000000	6.106805	-0.005201	NaN	0.000000	0.001597	0.001611	28.0858	0.044870	0.002013	22.2944	160.295	-161.781	-0.016169	0.104915	-0.922681	-0.923956	-0.005201	22.2944	-0.922506	-2.046652E+12	2.541155E-15	NaN
6.000000	1.000000	0.114159	7.3651e+06	-38939.1	955.819	-29796.4	0.000000	0.000000	6.114774	-0.010360	NaN	0.000000	0.001592	0.001629	28.0845	0.165413	0.002002	82.6245	71.1834	-165.611	0.020031	0.112872	-0.914711	-0.915998	-0.010360	82.6245	-0.914617	-1.601473E+12	6.468914E-15	NaN
6.000000	1.000000	0.122162	7.3651e+06	-38939.1	955.818	-29796.4	0.000000	0.000000	6.122782	0.085332	NaN	0.000000	0.001566	0.001658	28.0847	0.135839	0.001976	68.7487	19.6443	-164.178	0.054372	0.120862	-0.906708	-0.908008	0.085332	68.7487	-0.907639	-1.289048E+12	-6.619763E-14	NaN
6.000000	1.000000	0.130140	7.3651e+06	-38939.1	955.819	-29796.4	0.000000	0.000000	6.130757	0.018480	NaN	0.000000	0.001576	0.001616	28.0843	0.051571	0.001878	27.4626	36.7908	-166.281	-0.059687	0.128884	-0.898730	-0.899986	0.018480	27.4626	-0.899235	-9.924835E+11	-1.861980E-14	NaN
6.000000	1.000000	0.138180	7.3651e+06	-38939.1	955.818	-29796.4	0.000000	0.000000	6.138795	-0.011438	NaN	0.000000	0.001549	0.001617	28.0855	0.102631	0.002139	47.9734	110.316	-166.248	-0.079941	0.136882	-0.890691	-0.891988	-0.011438	47.9734	-0.890512	-7.565436E+11	1.511880E-14	NaN
6.000000	1.000000	0.146176	7.3651e+06	-38939.1	955.818	-29796.4	0.000000	0.000000	6.146794	0.063467	NaN	0.000000	0.001549	0.001627	28.0831	0.040747	0.001902	21.4236	8.563192	-165.105	-0.000895	0.144904	-0.882694	-0.883966	0.063467	21.4236	-0.884916	-6.356023E+11	-9.985284E-14	NaN
6.000000	1.000000	0.154193	7.3651e+06	-38939.1	955.819	-29796.4	0.000000	0.000000	6.154808	-0.020028	NaN	0.000000	0.001557	0.001653	28.0869	0.008663	0.001892	4.579483	-82.0827	-159.947	0.003905	0.152815	-0.874677	-0.876056	-0.020028	4.579483	-0.871397	-4.171960E+11	4.800626E-14	NaN
6.000000	1.000000	0.162178	7.3651e+06	-38939.1	955.818	-29796.4	0.000000	0.000000	6.162795	0.040111	NaN	0.000000	0.001534	0.001606	28.0845	0.111382	0.001905	58.4719	148.171	-166.688	0.070086	0.160850	-0.866693	-0.868021	0.040111	58.4719	-0.867207	-3.661479E+11	-1.095475E-13	NaN
6.000000	1.000000	0.170195	7.3651e+06	-38939.1	955.817	-29796.4	0.000000	0.000000	6.170812	0.048386	NaN	0.000000	0.001552	0.001681	28.0839	0.015238	0.002007	7.593634	-57.3259	-166.424	0.037700	0.168879	-0.858676	-0.859991	0.048386	7.593634	-0.863455	-3.257445E+11	-1.485405E-13	NaN
6.000000	1.000000	0.178192	7.3651e+06	-38939.1	955.818	-29796.4	0.000000	0.000000	6.178807	-0.035558	NaN	0.000000	0.001530	0.001648	28.0845	0.055728	0.001988	28.0319	38.6156	-165.589	-0.005092	0.176837	-0.850678	-0.852033	-0.035558	28.0319	-0.849727	-2.123420E+11	1.674563E-13	NaN
6.000000	1.000000	0.186202	7.3651e+06	-38939.1	955.818	-29796.4	0.000000	0.000000	6.186819	0.018595	NaN	0.000000	0.001527	0.001583	28.0849	0.029399	0.001938	15.1732	122.859	-162.224	0.012821	0.184872	-0.842668	-0.843998	0.018595	15.1732	-0.843587	-1.753419E+11	-1.060518E-13	NaN
6.000000	1.000000	0.194208	7.3651e+06	-38939.1	955.819	-29796.4	0.000000	0.000000	6.194821	-0.068795	NaN	0.000000	0.001523	0.001669	28.0828	0.030679	0.002034	15.084	108.144	-162.944	-0.080554	0.192862	-0.834662	-0.836008	-0.068795	15.084	-0.831241	-1.192906E+11	5.767046E-13	NaN
6.000000	1.000000	0.202206	7.3651e+06	-38939.1	955.819	-29796.4	0.000000	0.000000	6.202822	0.001254	NaN	0.000000	0.001524	0.001650	28.0825	0.050691	0.002029	24.9814	-106.351	-165.527	0.026882	0.200879	-0.826665	-0.827991	0.001254	24.9814	-0.826702	-1.035337E+11	-1.211266E-14	NaN
6.000000	1.000000	0.210219	7.3651e+06	-38939.1	955.818	-29796.4	0.000000	0.000000	6.210834	-0.016425	NaN	0.000000	0.001544	0.001635	28.0837	0.068470	0.002086	32.8266	33.183	-164.127	-0.010864	0.208881	-0.818651	-0.819990	-0.016425	32.8266	-0.818276	-7.958419E+10	2.063894E-13	NaN
6.000000	1.000000	0.218236	7.3651e+06	-38939.1	955.818	-29796.4	0.000000	0.000000	6.218851	-0.016206	NaN	0.000000	0.001520	0.001618	28.0842	0.056186	0.002004	28.0304	0.661317	-162.802	0.034140	0.216949	-0.810634	-0.811921	-0.016206	28.0304	-0.810201	-6.184330E+10	2.620544E-13	NaN
6.000000	1.000000	0.226220	7.3651e+06	-38939.1	955.818	-29796.4	0.000000	0.000000	6.226836	-0.013084	NaN	0.000000	0.001558	0.001631	28.0839	0.057446	0.001869	30.7315	-98.3373	-166.109	0.008647	0.224928	-0.802650	-0.803942	-0.013084	30.7315	-0.802331	-4.836116E+10	2.705468E-13	NaN
6.000000	1.000000	0.234186	7.3651e+06	-38939.1	955.819	-29796.4	0.000000	0.000000	6.234802	-0.005531	NaN	0.000000	0.001569	0.001597	28.0837	0.153227	0.001903	80.5178	84.3362	-167.042	0.001858	0.232898	-0.794684	-0.795972	-0.005531	80.5178	-0.794632	-3.801801E+10	1.454745E-13	NaN
6.000000	1.000000	0.242238	7.3651e+06	-38939.1	955.818	-29796.4	0.000000	0.000000	6.242856	0.045211	NaN	0.000000	0.001551	0.001638	28.0833	0.083479	0.001958	42.6396	99.0773	-165.443	0.040855	0.240951	-0.786632	-0.787919	0.045211	42.6396	-0.787427	-3.034870E+10	-1.489721E-12	NaN
6.000000	1.000000	0.250261	7.3651e+06	-38939.1	955.819	-29796.4	0.000000	0.000000	6.250876	-0.013249	NaN	0.000000	0.001551	0.001659	28.084	0.073133	0.001994	36.6742	74.8552	-164.304	-0.077027	0.248945	-0.778609	-0.779925	-0.013249	36.6742	-0.778338	-2.283745E+10	5.801252E-13	NaN
6.000000	1.000000	0.258246	7.3651e+06	-38939.1	955.818	-29796.4	0.000000	0.000000	6.258862	0.010819	NaN	0.000000	0.001572	0.001661	28.0839	0.069297	0.001995	34.7328	-6.467555	-166.214	0.035707	0.256922	-0.770624	-0.771948	0.010819	34.7328	-0.770858	-1.807035E+10	-5.987132E-13	NaN
6.000000	1.000000	0.266218	7.3651e+06	-38939.1	955.818	-29796.4	0.000000	0.000000	6.266834	0.001850	NaN	0.000000	0.001520	0.001670	28.0849	0.143749	0.001930	74.4789	138.666	-165.242	-0.025268	0.264929	-0.762652	-0.763942	0.001850	74.4789	-0.762671	-1.398405E+10	-1.322647E-13	NaN
6.000000	1.000000	0.274241	7.3651e+06	-38939.1	955.818	-29796.4	0.000000	0.000000	6.274856	-0.018809	NaN	0.000000	0.001541	0.001676	28.0852	0.034155	0.001900	17.9726	-162.941	-166.009	-0.028962	0.272906	-0.754629	-0.755965	-0.018809	17.9726	-0.753844	-1.060577E+10	1.773429E-12	NaN
6.000000	1.000000	0.282229	7.3651e+06	-38939.1	955.819	-29796.4	0.000000	0.000000	6.282843	-0.040100	NaN	0.000000	0.001558	0.001650	28.0843	0.045976	0.001987	23.1344	-99.5155	-165.303	-0.012311	0.280934	-0.746641	-0.747936	-0.040100	23.1344	-0.745341	-8.124407E+9	4.935734E-12	NaN
6.000000	1.000000	0.290231	7.3651e+06	-38939.1	955.818	-29796.4	0.000000	0.000000	6.290848	0.008902	NaN	0.000000	0.001523	0.001645	28.0837	0.082978	0.001939	42.7861	-79.2429	-164.956	0.092344	0.288948	-0.738639	-0.739922	0.008902	42.7861	-0.738795	-6.616675E+9	-1.345340E-12	NaN
6.000000	1.000000	0.298212	7.3651e+06	-38939.1	955.817	-29796.4	0.000000	0.000000	6.298828	0.011132	NaN	0.000000	0.001530	0.001651	28.0849	0.115596	0.001897	60.9433	58.9606	-161.344	-0.019841	0.296947	-0.730658	-0.731923	0.011132	60.9433	-0.730795	-5.148053E+9	-2.162363E-12	NaN
6.000000	1.000000	0.306212	7.3651e+06	-38939.1	955.819	-29796.4	0.000000	0.000000	6.306825	-0.050471	NaN	0.000000	0.001538	0.001660	28.0854	0.050513	0.002033	24.8428	-136.669	-164.905	-0.064697	0.304902	-0.722659	-0.723969	-0.050471	24.8428	-0.721135	-3.801454E+9	1.327679E-11	NaN
6.000000	1.000000	0.314266	7.3651e+06	-38939.1	955.818	-29796.4	0.000000	0.000000	6.314885	0.061807	NaN	0.000000	0.001547	0.001656	28.0864	0.055293	0.002065	26.7703	141.797	-161.926	0.031236	0.312936	-0.714604	-0.715935	0.061807	26.7703	-0.716335	-3.269557E+9	-1.890371E-11	NaN
6.000000	1.000000	0.322259	7.3651e+06	-38939.1	955.818	-29796.4	0.000000	0.000000	6.322877	0.035097	NaN	0.000000	0.001524	0.001694	28.0862	0.014261	0.002280	6.254721	-12.8002	-162.284	-0.001365	0.321016	-0.706611	-0.707855	0.035097	6.254721	-0.710819	-2.749357E+9	-1.276567E-11	NaN
6.000000	1.000000	0.330271	7.3651e+06	-38939.1	955.819	-29796.4	0.000000	0.000000	6.330885	-0.030269	NaN	0.000000	0.001520	0.001686	28.0873	0.035652	0.002007	17.7616	30.1915	-165.637	0.012831	0.328957	-0.698599	-0.699913	-0.030269	17.7616	-0.697321	-1.798644E+9	1.682861E-11	NaN
6.000000	1.000000	0.338279	7.3651e+06	-38939.1	955.818	-29796.4	0.000000	0.000000	6.338892	-0.054192	NaN	0.000000	0.001542	0.001655	28.0856	0.081330	0.001951	41.677	48.6948	-167.5	-0.081876	0.336976	-0.690591	-0.691895	-0.054192	41.677	-0.689616	-1.411475E+9	3.839397E-11	NaN
6.000000	1.000000	0.346285	7.3651e+06	-38939.1	955.818	-29796.4	0.000000	0.000000	6.346901	0.024037	NaN	0.000000	0.001536	0.001660	28.0863	0.072568	0.001944	37.322	152.453	-163.932	0.027663	0.344957	-0.682586	-0.683914	0.024037	37.322	-0.683069	-1.148596E+9	-2.092694E-11	NaN
6.000000	1.000000	0.354260	7.3651e+06	-38939.1	955.818	-29796.4	0.000000	0.000000	6.354879	0.081707	NaN	0.000000	0.001511	0.001644	28.0845	0.083077	0.001965	42.2782	-97.3474	-163.756	-0.023312	0.352970	-0.674611	-0.675900	0.081707	42.2782	-0.676060	-9.211175E+8	-8.870437E-11	NaN
6.000000	1.000000	0.362304	7.3651e+06	-38939.1	955.818	-29796.4	0.000000	0.000000	6.362919	-0.021255	NaN	0.000000	0.001496	0.001678	28.083	0.051919	0.001902	27.2925	-20.7971	-164.353	-0.024387	0.360979	-0.666566	-0.667891	-0.021255	27.2925	-0.665982	-6.704886E+8	3.170057E-11	NaN
6.000000	1.000000	0.370266	7.3651e+06	-38939.1	955.819	-29796.4	0.000000	0.000000	6.370880	-0.044174	NaN	0.000000	0.001518	0.001641	28.0841	0.051739	0.001947	26.5773	-15.405	-166.339	-0.030376	0.369044	-0.658604	-0.659826	-0.044174	26.5773	-0.657357	-5.108166E+8	8.647637E-11	NaN
6.000000	1.000000	0.378281	7.3651e+06	-38939.1	955.818	-29796.4	0.000000	0.000000	6.378900	0.063658	NaN	0.000000	0.001469	0.001644	28.0842	0.018622	0.002034	9.157053	106.615	-161.056	-0.021938	0.376998	-0.650589	-0.651872	0.063658	9.157053	-0.655803	-4.863683E+8	-1.308845E-10	NaN
6.000000	1.000000	0.386278	7.3651e+06	-38939.1	955.819	-29796.4	0.000000	0.000000	6.386893	-0.024779	NaN	0.000000	0.001479	0.001625	28.0853	0.024521	0.001996	12.2846	-97.7015	-165.823	-0.028001	0.384987	-0.642592	-0.643884	-0.024779	12.2846	-0.641080	-3.055630E+8	8.109226E-11	NaN
6.000000	1.000000	0.394274	7.3651e+06	-38939.1	955.818	-29796.4	0.000000	0.000000	6.394891	0.031635	NaN	0.000000	0.001494	0.001646	28.0867	0.132156	0.002014	65.6246	-98.3892	-165.31	0.030316	0.392999	-0.634596	-0.635871	0.031635	65.6246	-0.634958	-2.518214E+8	-1.256262E-10	NaN
6.000000	1.000000	0.402281	7.3651e+06	-38939.1	955.819	-29796.4	0.000000	0.000000	6.402897	-0.002977	NaN	0.000000	0.001464	0.001659	28.087	0.065087	0.001997	32.5928	64.6306	-164.114	0.007865	0.401037	-0.626589	-0.627833	-0.002977	32.5928	-0.626521	-1.928568E+8	1.543758E-11	NaN
6.000000	1.000000	0.410264	7.3651e+06	-38939.1	955.818	-29796.4	0.000000	0.000000	6.410880	-0.000329	NaN	0.000000	0.001447	0.001655	28.0852	0.037509	0.002139	17.5396	76.9803	-167.119	-0.017772	0.408987	-0.618606	-0.619883	-0.000329	17.5396	-0.618592	-1.500639E+8	2.191708E-12	NaN
6.000000	1.000000	0.418292	7.3651e+06	-38939.1	955.818	-29796.4	0.000000	0.000000	6.418904	-0.074499	NaN	0.000000	0.001471	0.001600	28.0844	0.093739	0.002040	45.9601	109.17	-165.085	-0.096147	0.416966	-0.610578	-0.611904	-0.074499	45.9601	-0.609363	-1.120331E+8	6.649735E-10	NaN
6.000000	1.000000	0.426289	7.3651e+06	-38939.1	955.819	-29796.4	0.000000	0.000000	6.426904	-0.019182	NaN	0.000000	0.001473	0.001639	28.0841	0.110284	0.001895	58.207	-162.642	-161.084	-0.050891	0.424972	-0.602582	-0.603898	-0.019182	58.207	-0.602334	-8.966165E+7	2.139414E-10	NaN
6.000000	1.000000	0.434314	7.3651e+06	-38939.1	955.819	-29796.4	0.000000	0.000000	6.434930	0.017139	NaN	0.000000	0.001485	0.001655	28.0839	0.020991	0.001971	10.6493	33.2357	-163.484	-0.054562	0.432982	-0.594556	-0.595889	0.017139	10.6493	-0.595763	-7.279490E+7	-2.354407E-10	NaN
6.000000	1.000000	0.442316	7.3651e+06	-38939.1	955.819	-29796.4	0.000000	0.000000	6.442933	0.039893	NaN	0.000000	0.001483	0.001650	28.0847	0.033692	0.002010	16.7591	6.001779	-165.027	0.029231	0.440993	-0.586555	-0.587878	0.039893	16.7591	-0.588340	-5.751426E+7	-6.936111E-10	NaN
6.000000	1.000000	0.450308	7.3651e+06	-38939.1	955.819	-29796.4	0.000000	0.000000	6.450927	0.065313	NaN	0.000000	0.001552	0.001655	28.0844	0.091622	0.002115	43.3298	22.3553	-163.033	0.132090	0.448928	-0.578562	-0.579942	0.065313	43.3298	-0.579693	-4.370020E+7	-1.494576E-9	NaN
6.000000	1.000000	0.458287	7.3651e+06	-38939.1	955.819	-29796.4	0.000000	0.000000	6.458903	0.006366	NaN	0.000000	0.001581	0.001683	28.0842	0.040270	0.002049	19.6519	-98.5128	-167.334	0.012889	0.457006	-0.570583	-0.571864	0.006366	19.6519	-0.570826	-3.296427E+7	-1.931130E-10	NaN
6.000000	1.000000	0.466312	7.3651e+06	-38939.1	955.817	-29796.4	0.000000	0.000000	6.466929	0.032687	NaN	0.000000	0.001499	0.001662	28.087	0.129342	0.001911	67.6833	-178.509	-163.513	-0.016552	0.465001	-0.562558	-0.563869	0.032687	67.6833	-0.562920	-2.563115E+7	-1.275301E-9	NaN
6.000000	1.000000	0.474339	7.3651e+06	-38939.1	955.818	-29796.4	0.000000	0.000000	6.474955	0.002469	NaN	0.000000	0.001536	0.001714	28.0832	0.107204	0.001974	54.3163	-135.854	-161.891	-0.017603	0.473033	-0.554531	-0.555837	0.002469	54.3163	-0.554566	-1.964148E+7	-1.257141E-10	NaN
6.000000	1.000000	0.482335	7.3651e+06	-38939.1	955.817	-29796.4	0.000000	0.000000	6.482952	0.017236	NaN	0.000000	0.001527	0.001713	28.084	0.115895	0.002157	53.7373	-27.6655	-166.603	0.014194	0.481000	-0.546535	-0.547870	0.017236	53.7373	-0.546776	-1.532092E+7	-1.125028E-9	NaN
6.000000	1.000000	0.490346	7.3651e+06	-38939.1	955.818	-29796.4	0.000000	0.000000	6.490965	0.056853	NaN	0.000000	0.001569	0.001724	28.0851	0.058183	0.002095	27.7754	7.222410	-166.028	0.121802	0.489021	-0.538524	-0.539849	0.056853	27.7754	-0.540059	-1.236449E+7	-4.598106E-9	NaN
6.000000	1.000000	0.498330	7.3651e+06	-38939.1	955.818	-29796.4	0.000000	0.000000	6.498947	0.031738	NaN	0.000000	0.001565	0.001708	28.0854	0.059507	0.001915	31.082	-92.0847	-163.103	0.049861	0.496994	-0.530541	-0.531876	0.031738	31.082	-0.531306	-9.34798e+06	-3.395132E-9	NaN
6.000000	1.000000	0.506341	7.3651e+06	-38939.1	955.819	-29796.4	0.000000	0.000000	6.506956	-0.012992	NaN	0.000000	0.001561	0.001734	28.0837	0.071800	0.002074	34.6152	149.885	-165.682	-0.076001	0.505052	-0.522529	-0.523818	-0.012992	34.6152	-0.522248	-6.99602e+06	1.856991E-9	NaN
6.000000	1.000000	0.514339	7.3651e+06	-38939.1	955.818	-29796.4	0.000000	0.000000	6.514956	0.028156	NaN	0.000000	0.001559	0.001759	28.0837	0.030952	0.001987	15.577	118.601	-165.726	-0.009744	0.513009	-0.514531	-0.515861	0.028156	15.577	-0.515886	-5.7065e+06	-4.934011E-9	NaN
6.000000	1.000000	0.522338	7.3651e+06	-38939.1	955.818	-29796.4	0.000000	0.000000	6.522953	-0.003931	NaN	0.000000	0.001543	0.001775	28.084	0.080933	0.002165	37.386	90.6881	-164.914	-0.052963	0.521036	-0.506532	-0.507834	-0.003931	37.386	-0.506454	-4.21701e+06	9.322745E-10	NaN
6.000000	1.000000	0.530342	7.3651e+06	-38939.1	955.818	-29796.4	0.000000	0.000000	6.530956	-0.055958	NaN	0.000000	0.001518	0.001763	28.0841	0.035377	0.002004	17.6562	-98.7425	-165.504	0.008988	0.529006	-0.498528	-0.499865	-0.055958	17.6562	-0.496151	-3.02902e+06	1.847406E-8	NaN
6.000000	1.000000	0.538339	7.3651e+06	-38939.1	955.818	-29796.4	0.000000	0.000000	6.538956	0.016052	NaN	0.000000	0.001545	0.001709	28.0832	0.033282	0.002074	16.046	175.667	-162.784	0.094399	0.537029	-0.490531	-0.491841	0.016052	16.046	-0.491281	-2.58997e+06	-6.197599E-9	NaN
6.000000	1.000000	0.546321	7.3651e+06	-38939.1	955.818	-29796.4	0.000000	0.000000	6.546940	0.087372	NaN	0.000000	0.001535	0.001727	28.0855	0.058057	0.001909	30.4171	-62.3185	-164.03	0.095383	0.545089	-0.482549	-0.483781	0.087372	30.4171	-0.484704	-2.09579e+06	-4.168937E-8	NaN
6.000000	1.000000	0.554341	7.3651e+06	-38939.1	955.819	-29796.4	0.000000	0.000000	6.554956	-0.007422	NaN	0.000000	0.001513	0.001707	28.0872	0.052093	0.002052	25.3849	-111.415	-166.488	-0.019580	0.553054	-0.474529	-0.475817	-0.007422	25.3849	-0.474310	-1.4991e+06	4.950639E-9	NaN
6.000000	1.000000	0.562371	7.3651e+06	-38939.1	955.818	-29796.4	0.000000	0.000000	6.562989	0.068617	NaN	0.000000	0.001535	0.001722	28.0869	0.033988	0.002023	16.7971	122.123	-165.048	-0.049956	0.561036	-0.466500	-0.467834	0.068617	16.7971	-0.469563	-1.28612e+06	-5.335162E-8	NaN
6.000000	1.000000	0.570375	7.3651e+06	-38939.1	955.818	-29796.4	0.000000	0.000000	6.570994	0.064092	NaN	0.000000	0.001542	0.001718	28.0858	0.042860	0.001844	23.2472	10.8623	-164.663	0.107214	0.569033	-0.458495	-0.459837	0.064092	23.2472	-0.460563	-961447	-6.666200E-8	NaN
6.000000	1.000000	0.578377	7.3651e+06	-38939.1	955.818	-29796.4	0.000000	0.000000	6.578991	-0.023972	NaN	0.000000	0.001525	0.001723	28.0855	0.060894	0.001847	32.9707	-170.311	-163.478	-0.081748	0.577064	-0.450494	-0.451806	-0.023972	32.9707	-0.449948	-681736	3.516327E-8	NaN
6.000000	1.000000	0.586378	7.3651e+06	-38939.1	955.818	-29796.4	0.000000	0.000000	6.586995	0.034769	NaN	0.000000	0.001563	0.001697	28.0873	0.031995	0.002027	15.7872	-174.781	-164.367	0.047366	0.585024	-0.442492	-0.443846	0.034769	15.7872	-0.444144	-564705	-6.157080E-8	NaN
6.000000	1.000000	0.594388	7.3651e+06	-38939.1	955.818	-29796.4	0.000000	0.000000	6.595005	0.023380	NaN	0.000000	0.001553	0.001723	28.0844	0.073081	0.002038	35.8538	-47.3155	-161.059	0.078850	0.593044	-0.434482	-0.435826	0.023380	35.8538	-0.434971	-419127	-5.578358E-8	NaN
6.000000	1.000000	0.602416	7.3651e+06	-38939.1	955.818	-29796.4	0.000000	0.000000	6.603035	0.076994	NaN	0.000000	0.001566	0.001712	28.0858	0.076840	0.002027	37.9135	-168.824	-161.519	0.089299	0.601087	-0.426454	-0.427783	0.076994	37.9135	-0.427977	-333760	-2.306859E-7	NaN
6.000000	1.000000	0.610389	7.3651e+06	-38939.1	955.819	-29796.4	0.000000	0.000000	6.611005	0.018146	NaN	0.000000	0.001529	0.001681	28.0857	0.111330	0.002061	54.0146	178.619	-164.412	-0.123616	0.609074	-0.418481	-0.419796	0.018146	54.0146	-0.418733	-246859	-7.350926E-8	NaN
6.000000	1.000000	0.618381	7.3651e+06	-38939.1	955.817	-29796.4	0.000000	0.000000	6.618995	-0.043066	NaN	0.000000	0.001544	0.001677	28.0859	0.032821	0.001970	16.6611	-161.834	-164.379	-0.009022	0.617049	-0.410489	-0.411821	-0.043066	16.6611	-0.408550	-176922	2.434165E-7	NaN
6.000000	1.000000	0.626390	7.3651e+06	-38939.1	955.818	-29796.4	0.000000	0.000000	6.627006	-0.001048	NaN	0.000000	0.001536	0.001717	28.085	0.131405	0.002050	64.1092	-51.0206	-164.049	-0.089716	0.625069	-0.402480	-0.403801	-0.001048	64.1092	-0.402468	-144937	7.233720E-9	NaN
6.000000	1.000000	0.634415	7.3651e+06	-38939.1	955.818	-29796.4	0.000000	0.000000	6.635031	0.008966	NaN	0.000000	0.001547	0.001688	28.0866	0.056456	0.002036	27.7312	5.945061	-164.765	0.063697	0.633067	-0.394455	-0.395803	0.008966	27.7312	-0.394697	-112283	-7.985002E-8	NaN
6.000000	1.000000	0.642377	7.3651e+06	-38939.1	955.818	-29796.4	0.000000	0.000000	6.642991	-0.035177	NaN	0.000000	0.001530	0.001714	28.088	0.041404	0.002051	20.1851	39.0929	-163.562	-0.046727	0.641072	-0.386494	-0.387798	-0.035177	20.1851	-0.385187	-82084.5	4.285475E-7	NaN
6.000000	1.000000	0.650378	7.3651e+06	-38939.1	955.818	-29796.4	0.000000	0.000000	6.650992	-0.041700	NaN	0.000000	0.001529	0.001691	28.0866	0.088556	0.002034	43.5369	139.431	-165.449	0.023529	0.649097	-0.378492	-0.379773	-0.041700	43.5369	-0.377774	-64257.8	6.489413E-7	NaN
6.000000	1.000000	0.658421	7.3651e+06	-38939.1	955.819	-29796.4	0.000000	0.000000	6.659037	-0.008667	NaN	0.000000	0.001536	0.001687	28.0869	0.117967	0.001991	59.2438	81.4133	-163.216	0.056530	0.657090	-0.370449	-0.371780	-0.008667	59.2438	-0.370339	-50235.3	1.725308E-7	NaN
6.000000	1.000000	0.666420	7.3651e+06	-38939.1	955.818	-29796.4	0.000000	0.000000	6.667036	0.010340	NaN	0.000000	0.001567	0.001671	28.0841	0.049807	0.002036	24.4586	-46.2612	-165.274	0.067233	0.665086	-0.362450	-0.363784	0.010340	24.4586	-0.362767	-39068.5	-2.646695E-7	NaN
6.000000	1.000000	0.674420	7.3651e+06	-38939.1	955.819	-29796.4	0.000000	0.000000	6.675036	0.009782	NaN	0.000000	0.001560	0.001721	28.0853	0.048931	0.001918	25.5129	59.0498	-161.655	-0.010318	0.673096	-0.354450	-0.355774	0.009782	25.5129	-0.354738	-29902.1	-3.271325E-7	NaN
6.000000	1.000000	0.682410	7.3651e+06	-38939.1	955.818	-29796.4	0.000000	0.000000	6.683025	-0.011736	NaN	0.000000	0.001540	0.001697	28.084	0.057303	0.001925	29.761	-101.179	-165.561	-0.006902	0.681089	-0.346461	-0.347781	-0.011736	29.761	-0.346165	-22454	5.226809E-7	NaN
6.000000	1.000000	0.690383	7.36511e+06	-38939.1	955.817	-29796.4	0.000000	0.000000	6.691000	0.039097	NaN	0.000000	0.001548	0.001707	28.0844	0.048755	0.002139	22.7905	-110.383	-164.566	0.060661	0.689117	-0.338487	-0.339754	0.039097	22.7905	-0.339774	-18124.1	-2.157180E-6	NaN
6.000000	1.000000	0.698426	7.36511e+06	-38939.1	955.818	-29796.4	0.000000	0.000000	6.699046	0.107840	NaN	0.000000	0.001534	0.001707	28.0842	0.014330	0.001893	7.568351	65.5597	-164.328	0.220041	0.697107	-0.330444	-0.331763	0.107840	7.568351	-0.341131	-18968.6	-5.685202E-6	NaN
6.000000	1.000000	0.706425	7.36511e+06	-38939.1	955.818	-29796.4	0.000000	0.000000	6.707037	-0.082752	NaN	0.000000	0.001522	0.001739	28.0841	0.049507	0.002044	24.2196	37.021	-160.498	-0.074371	0.705117	-0.322445	-0.323754	-0.082752	24.2196	-0.319883	-9266.42	8.930290E-6	NaN
6.000000	1.000000	0.714424	7.36511e+06	-38939.1	955.818	-29796.4	0.000000	0.000000	6.715040	-0.005048	NaN	0.000000	0.001559	0.001696	28.0853	0.103222	0.002003	51.5274	-72.1495	-166.1	-0.011771	0.713146	-0.314446	-0.315724	-0.005048	51.5274	-0.314372	-7685.67	6.567741E-7	NaN
6.000000	1.000000	0.722422	7.36511e+06	-38939.1	955.818	-29796.4	0.000000	0.000000	6.723039	0.033408	NaN	0.000000	0.001509	0.001703	28.086	0.062946	0.001977	31.8395	165.675	-165.278	0.006300	0.721104	-0.306448	-0.307766	0.033408	31.8395	-0.307235	-6027.07	-5.543004E-6	NaN
6.000000	1.000000	0.730464	7.36511e+06	-38939.1	955.818	-29796.4	0.000000	0.000000	6.731079	-0.026652	NaN	0.000000	0.001548	0.001699	28.0852	0.104738	0.001899	55.1514	28.6409	-161.604	0.067789	0.729109	-0.298406	-0.299761	-0.026652	55.1514	-0.298044	-4400.47	6.056685E-6	NaN
6.000000	1.000000	0.738449	7.36511e+06	-38939.1	955.819	-29796.4	0.000000	0.000000	6.739064	-0.031397	NaN	0.000000	0.001535	0.001713	28.0857	0.138364	0.002114	65.4551	-55.3519	-166.999	-0.054972	0.737145	-0.290421	-0.291725	-0.031397	65.4551	-0.290061	-3343.62	9.390240E-6	NaN
6.000000	1.000000	0.746421	7.36511e+06	-38939.1	955.818	-29796.4	0.000000	0.000000	6.747036	-0.012974	NaN	0.000000	0.001538	0.001696	28.0851	0.192195	0.002095	91.7461	121.818	-162.82	-0.004803	0.745136	-0.282449	-0.283734	-0.012974	91.7461	-0.282343	-2560.29	5.067275E-6	NaN
6.000000	1.000000	0.754441	7.36511e+06	-38939.1	955.818	-29796.4	0.000000	0.000000	6.755057	0.010010	NaN	0.000000	0.001518	0.001706	28.0848	0.125883	0.002109	59.6916	152.064	-163.949	0.031092	0.753188	-0.274429	-0.275682	0.010010	59.6916	-0.274555	-1952.8	-5.126207E-6	NaN
6.000000	1.000000	0.762427	7.36511e+06	-38939.1	955.818	-29796.4	0.000000	0.000000	6.763042	-0.018143	NaN	0.000000	0.001540	0.001673	28.0864	0.076846	0.001891	40.6478	79.1691	-164.02	-0.067051	0.761129	-0.266444	-0.267741	-0.018143	40.6478	-0.266109	-1453.13	1.248562E-5	NaN
6.000000	1.000000	0.770435	7.36511e+06	-38939.1	955.818	-29796.4	0.000000	0.000000	6.771051	0.015302	NaN	0.000000	0.001507	0.001706	28.0847	0.012865	0.002023	6.358625	168.399	-165.325	0.006702	0.769133	-0.258435	-0.259737	0.015302	6.358625	-0.260240	-1181.95	-1.294622E-5	NaN
6.000000	1.000000	0.778477	7.36511e+06	-38939.1	955.819	-29796.4	0.000000	0.000000	6.779092	-0.028740	NaN	0.000000	0.001540	0.001686	28.0841	0.071097	0.001987	35.7727	-17.5947	-164.698	-0.011914	0.777081	-0.250393	-0.251790	-0.028740	35.7727	-0.249791	-816.069	3.521725E-5	NaN
6.000000	1.000000	0.786463	7.36511e+06	-38939.1	955.818	-29796.4	0.000000	0.000000	6.787081	0.059168	NaN	0.000000	0.001537	0.001737	28.0847	0.088209	0.002102	41.967	-173.552	-164.03	0.103131	0.785124	-0.242407	-0.243746	0.059168	41.967	-0.243465	-650.988	-9.088940E-5	NaN
6.000000	1.000000	0.794453	7.36511e+06	-38939.1	955.819	-29796.4	0.000000	0.000000	6.795072	0.061560	NaN	0.000000	0.001526	0.001754	28.0854	0.154021	0.001996	77.1654	-66.1991	-167.052	0.063580	0.793099	-0.234417	-0.235772	0.061560	77.1654	-0.235015	-480.273	-0.000128	NaN
6.000000	1.000000	0.802472	7.36511e+06	-38939.1	955.818	-29796.4	0.000000	0.000000	6.803087	-0.032162	NaN	0.000000	0.001544	0.001695	28.0846	0.107644	0.001961	54.8819	-114.444	-164.972	0.012627	0.801166	-0.226398	-0.227704	-0.032162	54.8819	-0.225958	-345.579	9.306725E-5	NaN
6.000000	1.000000	0.810457	7.36511e+06	-38939.1	955.818	-29796.4	0.000000	0.000000	6.811074	0.030525	NaN	0.000000	0.001537	0.001724	28.0854	0.048874	0.002078	23.5191	123.145	-163.109	0.057704	0.809155	-0.218413	-0.219715	0.030525	23.5191	-0.219387	-271.564	-0.000112	NaN
6.000000	1.000000	0.818489	7.36511e+06	-38939.1	955.817	-29796.4	0.000000	0.000000	6.819105	0.006186	NaN	0.000000	0.001552	0.001736	28.0851	0.042090	0.001921	21.9131	-165.808	-162.117	-0.021097	0.817153	-0.210382	-0.211717	0.006186	21.9131	-0.210593	-196.076	-3.154972E-5	NaN
6.000000	1.000000	0.826463	7.36511e+06	-38939.1	955.818	-29796.4	0.000000	0.000000	6.827081	0.065720	NaN	0.000000	0.001573	0.001698	28.086	0.050668	0.002016	25.1388	-171.272	-163.9	0.095466	0.825146	-0.202407	-0.203724	0.065720	25.1388	-0.204368	-155.326	-0.000423	NaN
6.000000	1.000000	0.834458	7.36511e+06	-38939.1	955.818	-29796.4	0.000000	0.000000	6.835075	0.018203	NaN	0.000000	0.001540	0.001675	28.0843	0.012913	0.002038	6.337297	0.341112	-164.703	-0.007989	0.833152	-0.194412	-0.195718	0.018203	6.337297	-0.196566	-115.642	-0.000157	NaN
6.000000	1.000000	0.842483	7.36511e+06	-38939.1	955.819	-29796.4	0.000000	0.000000	6.843100	0.027339	NaN	0.000000	0.001543	0.001729	28.0864	0.152253	0.001934	78.7301	102.495	-163.689	-0.045519	0.841213	-0.186387	-0.187658	0.027339	78.7301	-0.186648	-79.0433	-0.000346	NaN
6.000000	1.000000	0.850443	7.36511e+06	-38939.1	955.818	-29796.4	0.000000	0.000000	6.851059	0.009738	NaN	0.000000	0.001544	0.001741	28.086	0.018476	0.001942	9.513222	154.308	-161.951	-0.072915	0.849180	-0.178428	-0.179690	0.009738	9.513222	-0.179195	-59.1243	-0.000165	NaN
6.000000	1.000000	0.858489	7.36511e+06	-38939.1	955.818	-29796.4	0.000000	0.000000	6.859101	-0.074645	NaN	0.000000	0.001575	0.001718	28.0852	0.020496	0.002092	9.796144	50.8083	-163.776	0.054200	0.857190	-0.170381	-0.171681	-0.074645	9.796144	-0.164667	-33.1473	0.002252	NaN
6.000000	1.000000	0.866494	7.36511e+06	-38939.1	955.819	-29796.4	0.000000	0.000000	6.867109	-0.009564	NaN	0.000000	0.001529	0.001703	28.0858	0.092025	0.002029	45.3628	-152.447	-164.6	-0.052073	0.865208	-0.162376	-0.163662	-0.009564	45.3628	-0.162218	-30.012	0.000319	NaN
6.000000	1.000000	0.874480	7.36511e+06	-38939.1	955.818	-29796.4	0.000000	0.000000	6.875096	-0.006646	NaN	0.000000	0.001570	0.001688	28.0874	0.012471	0.001926	6.475894	-177.274	-166.36	-0.055487	0.873151	-0.154390	-0.155720	-0.006646	6.475894	-0.153621	-21.0723	0.000315	NaN
6.000000	1.000000	0.882519	7.36511e+06	-38939.1	955.819	-29796.4	0.000000	0.000000	6.883136	0.028606	NaN	0.000000	0.001534	0.001692	28.0869	0.034492	0.002023	17.0531	-175.564	-163.68	-0.052848	0.881218	-0.146352	-0.147652	0.028606	17.0531	-0.147610	-16.3782	-0.001747	NaN
6.000000	1.000000	0.890482	7.36511e+06	-38939.1	955.819	-29796.4	0.000000	0.000000	6.891098	0.001442	NaN	0.000000	0.001552	0.001684	28.0855	0.061821	0.001973	31.326	108	-165.751	0.008567	0.889179	-0.138388	-0.139691	0.001442	31.326	-0.138422	-11.0473	-0.000130	NaN
6.000000	1.000000	0.898477	7.36511e+06	-38939.1	955.818	-29796.4	0.000000	0.000000	6.899094	0.031569	NaN	0.000000	0.001506	0.001713	28.0856	0.112421	0.001929	58.2813	-118.423	-162.457	0.056409	0.897176	-0.130394	-0.131694	0.031569	58.2813	-0.130800	-7.898157	-0.003997	NaN
6.000000	1.000000	0.906505	7.36511e+06	-38939.1	955.818	-29796.4	0.000000	0.000000	6.907119	-0.037802	NaN	0.000000	0.001514	0.001679	28.0866	0.057656	0.001979	29.1338	152.975	-164.364	-0.031863	0.905209	-0.122365	-0.123661	-0.037802	29.1338	-0.121392	-5.153455	0.007335	NaN
6.000000	1.000000	0.914504	7.36511e+06	-38939.1	955.818	-29796.4	0.000000	0.000000	6.915121	0.040126	NaN	0.000000	0.001541	0.001680	28.0853	0.018168	0.002010	9.039896	-96.1664	-164.686	0.098795	0.913209	-0.114367	-0.115661	0.040126	9.039896	-0.117696	-4.338615	-0.009249	NaN
6.000000	1.000000	0.922499	7.36511e+06	-38939.1	955.819	-29796.4	0.000000	0.000000	6.923116	0.016210	NaN	0.000000	0.001515	0.001699	28.0859	0.075567	0.001932	39.1049	65.5579	-163.8	-0.021878	0.921198	-0.106371	-0.107672	0.016210	39.1049	-0.106682	-2.554762	-0.006345	NaN
6.000000	1.000000	0.930486	7.36511e+06	-38939.1	955.817	-29796.4	0.000000	0.000000	6.931101	-0.018077	NaN	0.000000	0.001540	0.001710	28.0847	0.058380	0.002032	28.7372	83.4373	-165.37	0.106213	0.929212	-0.098384	-0.099658	-0.018077	28.7372	-0.097913	-1.641504	0.011013	NaN
6.000000	1.000000	0.938527	7.36511e+06	-38939.1	955.818	-29796.4	0.000000	0.000000	6.939143	0.026467	NaN	0.000000	0.001532	0.001727	28.0857	0.125254	0.001931	64.8745	-72.9545	-165.465	0.045145	0.937207	-0.090344	-0.091663	0.026467	64.8745	-0.090650	-1.119517	-0.023642	NaN
6.000000	1.000000	0.946525	7.36511e+06	-38939.1	955.819	-29796.4	0.000000	0.000000	6.947141	0.005940	NaN	0.000000	0.001548	0.001686	28.0866	0.032502	0.001963	16.5616	-83.1892	-163.43	-0.014888	0.945168	-0.082346	-0.083702	0.005940	16.5616	-0.082615	-0.718625	-0.008266	NaN
6.000000	1.000000	0.954474	7.36511e+06	-38939.1	955.818	-29796.4	0.000000	0.000000	6.955090	0.012713	NaN	0.000000	0.001529	0.001721	28.0879	0.014901	0.002097	7.104830	50.9693	-161.981	0.005324	0.953196	-0.074397	-0.075675	0.012713	7.104830	-0.075739	-0.482591	-0.026344	NaN
6.000000	1.000000	0.962523	7.36511e+06	-38939.1	955.818	-29796.4	0.000000	0.000000	6.963138	-0.006739	NaN	0.000000	0.001531	0.001707	28.0856	0.084754	0.002053	41.293	-2.398888	-166.909	0.048775	0.961173	-0.066347	-0.067697	-0.006739	41.293	-0.066225	-0.269408	0.025014	NaN
6.000000	1.000000	0.970542	7.36511e+06	-38939.1	955.818	-29796.4	0.000000	0.000000	6.971156	-0.036271	NaN	0.000000	0.001538	0.001719	28.0852	0.030709	0.001962	15.6495	-93.4762	-168.139	-0.024531	0.969252	-0.058329	-0.059618	-0.036271	15.6495	-0.056590	-0.143430	0.252883	NaN
6.000000	1.000000	0.978510	7.36511e+06	-38939.1	955.818	-29796.4	0.000000	0.000000	6.979128	0.043973	NaN	0.000000	0.001523	0.001698	28.0862	0.016528	0.002079	7.951194	15.6814	-161.487	0.074202	0.977243	-0.050360	-0.051627	0.043973	7.951194	-0.054507	-0.124527	-0.353118	NaN
6.000000	1.000000	0.986540	7.36511e+06	-38939.1	955.819	-29796.4	0.000000	0.000000	6.987157	0.042392	NaN	0.000000	0.001507	0.001717	28.0847	0.100913	0.002050	49.2368	177.191	-165.998	0.041630	0.985274	-0.042331	-0.043596	0.042392	49.2368	-0.042976	-0.055732	-0.760651	NaN
6.000000	1.000000	0.994542	7.36511e+06	-38939.1	955.819	-29796.4	0.000000	0.000000	6.995162	0.113895	NaN	0.000000	0.001545	0.001721	28.0846	0.079593	0.002107	37.7749	57.7224	-166.933	0.078509	0.993220	-0.034329	-0.035650	0.113895	37.7749	-0.036590	-0.035696	-3.190725	NaN
6.000000	1.000000	1.002528	7.36511e+06	-38939.1	955.818	-29796.4	0.000000	0.000000	7.003144	0.003624	NaN	0.000000	0.001576	0.001721	28.0844	0.050658	0.001878	26.9758	-120.69	-165.348	-0.012778	1.001208	-0.026342	-0.027662	0.003624	26.9758	-0.026443	-0.018414	-0.196795	NaN
6.000000	1.000000	1.010544	7.36511e+06	-38939.1	955.819	-29796.4	0.000000	0.000000	7.011160	0.013939	NaN	0.000000	0.001542	0.001697	28.0834	0.037201	0.001884	19.7464	-24.3915	-166.527	-0.031354	1.009237	-0.018326	-0.019633	0.013939	19.7464	-0.018856	-0.011744	-1.186924	NaN
6.000000	1.000000	1.018565	7.36511e+06	-38939.1	955.82	-29796.4	0.000000	0.000000	7.019184	0.061769	NaN	0.000000	0.001564	0.001696	28.0836	0.080927	0.001967	41.1466	143.698	-164.622	0.090333	1.017273	-0.010305	-0.011597	0.061769	41.1466	-0.011431	-0.007204	-8.574580	NaN
6.000000	1.000000	1.026547	7.36511e+06	-38939.1	955.819	-29796.4	0.000000	0.000000	7.027167	0.088036	NaN	0.000000	0.001625	0.001743	28.0868	0.024437	0.002007	12.1759	7.770307	-165.791	0.072788	1.025281	-0.002323	-0.003589	0.088036	12.1759	-0.007746	-0.005082	-17.3221	NaN
6.000000	1.000000	1.034532	7.36511e+06	-38939.1	955.819	-29796.4	0.000000	0.000000	7.035326	4.355828	NaN	0.000000	0.001625	0.001678	28.0864	5.184202	0.001805	2871.65	14.5783	-173.007	3.237017	1.033173	0.005661	0.004303	4.355828	2871.65	0.004524	0.003703	1176.32	43115.4
6.000000	2.000000	1.039232	7.36511e+06	-38939.1	955.819	-29796.4	0.000000	0.000000	7.040225	9.177597	NaN	0.000000	0.001603	0.001697	28.0872	9.849112	0.001745	5644.88	9.016117	-173.49	8.561676	1.038934	0.010362	0.010064	9.177597	5644.88	0.009142	0.008244	1113.26	56801.8
6.000000	2.000000	1.041240	7.36511e+06	-38939.1	955.819	-29796.4	0.000000	0.000000	7.042354	12.1278	NaN	0.000000	0.001572	0.001715	28.0852	11.6507	0.001683	6922.34	4.573133	-171.983	11.5451	1.040888	0.012369	0.012018	12.1278	6922.34	0.011055	0.010378	1168.61	62082.4
6.000000	2.000000	1.043201	7.36511e+06	-38939.1	955.818	-29796.4	0.000000	0.000000	7.044475	16.0088	NaN	0.000000	0.001600	0.001709	28.0861	14.2055	0.001661	8552.26	3.029158	-173.846	15.1114	1.042890	0.014331	0.014020	16.0088	8552.26	0.012927	0.012619	1268.6	69556.3
6.000000	2.000000	1.045226	7.36511e+06	-38939.1	955.818	-29796.4	0.000000	0.000000	7.046610	18.6912	NaN	0.000000	0.001560	0.001708	28.0856	16.3918	0.001793	9140.68	5.594930	-174.28	18.8429	1.044911	0.016356	0.016041	18.6912	9140.68	0.014822	0.015049	1242.05	68077.4
6.000000	2.000000	1.047170	7.36511e+06	-38939.1	955.819	-29796.4	0.000000	0.000000	7.048717	22.6619	NaN	0.000000	0.001559	0.001696	28.0848	18.1861	0.001717	10594.1	2.965143	-174.129	20.9565	1.046837	0.018300	0.017966	22.6619	10594.1	0.016696	0.017614	1286.61	72930.9
6.000000	2.000000	1.049182	7.36511e+06	-38939.1	955.818	-29796.4	0.000000	0.000000	7.050863	25.9297	NaN	0.000000	0.001597	0.001716	28.0855	21.3901	0.001836	11650.8	7.825930	-179.611	25.5795	1.048857	0.020312	0.019987	25.9297	11650.8	0.018643	0.020454	1267.71	74428.9
6.000000	2.000000	1.051169	7.36511e+06	-38939.1	955.818	-29796.4	0.000000	0.000000	7.053007	29.7509	NaN	0.000000	0.001573	0.001729	28.0869	22.3104	0.001758	12689.4	9.779289	178.611	29.548	1.050842	0.022299	0.021972	29.7509	12689.4	0.020540	0.023398	1271.51	75791.8
6.000000	2.000000	1.053147	7.36511e+06	-38939.1	955.818	-29796.4	0.000000	0.000000	7.055174	34.3275	NaN	0.000000	0.001581	0.001717	28.0869	24.5973	0.001806	13618.4	2.889910	-176.051	34.2633	1.052864	0.024277	0.023993	34.3275	13618.4	0.022387	0.026432	1298.69	76529.6
6.000000	2.000000	1.055198	7.36511e+06	-38939.1	955.818	-29796.4	0.000000	0.000000	7.057642	44.4918	NaN	0.000000	0.001622	0.001684	28.0852	27.3047	0.001644	16604.2	8.586474	176.683	44.7753	1.054813	0.026328	0.025943	44.4918	16604.2	0.024318	0.029787	1493.65	87896.9
6.000000	2.000000	1.057159	7.36511e+06	-38939.1	955.818	-29796.4	0.000000	0.000000	7.059819	49.7556	NaN	0.000000	0.001590	0.001703	28.0872	29.2182	0.001700	17184.1	4.931352	179.608	49.6586	1.056773	0.028288	0.027903	49.7556	17184.1	0.026117	0.033079	1504.16	86322.7
6.000000	2.000000	1.059219	7.36511e+06	-38939.1	955.819	-29796.4	0.000000	0.000000	7.062006	52.8474	NaN	0.000000	0.001567	0.001689	28.0868	32.5234	0.001964	16562	6.574475	-179.501	56.0688	1.058944	0.030349	0.030074	52.8474	16562	0.027955	0.036612	1443.43	79081.2
6.000000	2.000000	1.061104	7.36511e+06	-38939.1	955.82	-29796.4	0.000000	0.000000	7.064221	60.8794	NaN	0.000000	0.001586	0.001662	28.0873	32.9662	0.001865	17671.6	2.854539	-177.605	57.9999	1.060813	0.032234	0.031943	60.8794	17671.6	0.029650	0.040021	1521.17	80705.6
6.000000	2.000000	1.063087	7.36511e+06	-38939.1	955.819	-29796.4	0.000000	0.000000	7.066576	69.9115	NaN	0.000000	0.001585	0.001690	28.0871	35.6064	0.001817	19592	6.233429	178.017	68.9378	1.062840	0.034217	0.033970	69.9115	19592	0.031541	0.043998	1588.97	85336.6
6.000000	2.000000	1.065143	7.36511e+06	-38939.1	955.82	-29796.4	0.000000	0.000000	7.068719	72.0437	NaN	0.000000	0.001567	0.001664	28.0871	38.1793	0.001974	19338	10.3442	175.509	70.9079	1.064692	0.036273	0.035821	72.0437	19338	0.033479	0.048263	1492.73	80422.4
6.000000	2.000000	1.067234	7.36511e+06	-38939.1	955.82	-29796.4	0.000000	0.000000	7.071108	79.305	NaN	0.000000	0.001584	0.001683	28.0862	39.2525	0.001813	21647.5	5.004838	179.004	83.6946	1.066770	0.038363	0.037899	79.305	21647.5	0.035616	0.053189	1490.99	85756.6
6.000000	2.000000	1.069163	7.36511e+06	-38939.1	955.818	-29796.4	0.000000	0.000000	7.073205	83.3731	NaN	0.000000	0.001592	0.001687	28.0863	41.0219	0.001759	23320	2.539922	179.899	85.8271	1.068902	0.040293	0.040032	83.3731	23320	0.037612	0.058002	1437.42	88467
6.000000	2.000000	1.071110	7.36511e+06	-38939.1	955.819	-29796.4	0.000000	0.000000	7.075626	94.9011	NaN	0.000000	0.001600	0.001675	28.0879	41.8441	0.001831	22848.8	7.773011	176.225	94.2918	1.070751	0.042240	0.041881	94.9011	22848.8	0.039125	0.061786	1535.96	83982.9
6.000000	2.000000	1.073108	7.36511e+06	-38939.1	955.819	-29796.4	0.000000	0.000000	7.077920	102.102	NaN	0.000000	0.001596	0.001690	28.0869	45.3679	0.001904	23831.3	4.688067	177.71	100.945	1.072792	0.044238	0.043922	102.102	23831.3	0.041025	0.066704	1530.68	84303.7
6.000000	2.000000	1.075166	7.36511e+06	-38939.1	955.818	-29796.4	0.000000	0.000000	7.080397	112.33	NaN	0.000000	0.001585	0.001727	28.0866	47.0458	0.001912	24608.1	4.340733	178.329	112.262	1.074718	0.046295	0.045848	112.33	24608.1	0.042872	0.071660	1567.53	83986.8
6.000000	2.000000	1.077141	7.36511e+06	-38939.1	955.819	-29796.4	0.000000	0.000000	7.082601	117.87	NaN	0.000000	0.001610	0.001667	28.0863	48.0959	0.001752	27446.7	6.433155	174.101	119.889	1.076784	0.048271	0.047913	117.87	27446.7	0.045050	0.077730	1516.4	89943.1
6.000000	2.000000	1.079053	7.36511e+06	-38939.1	955.818	-29796.4	0.000000	0.000000	7.084926	127.938	NaN	0.000000	0.001590	0.001679	28.0887	50.1651	0.001857	27018	4.046103	177.298	124.482	1.078767	0.050183	0.049897	127.938	27018	0.046632	0.082287	1554.79	86052.2
6.000000	2.000000	1.081105	7.36511e+06	-38939.1	955.819	-29796.4	0.000000	0.000000	7.087347	136.915	NaN	0.000000	0.001597	0.001654	28.0873	51.7886	0.001770	29262	6.572958	173.709	135.587	1.080737	0.052235	0.051867	136.915	29262	0.048726	0.088516	1546.78	89859.9
6.000000	2.000000	1.083110	7.36511e+06	-38939.1	955.819	-29796.4	0.000000	0.000000	7.089589	142.666	NaN	0.000000	0.001596	0.001675	28.0882	54.3634	0.001734	31352.8	6.137229	174.13	144.644	1.082827	0.054240	0.053957	142.666	31352.8	0.050827	0.094988	1501.94	92942.9
6.000000	2.000000	1.085157	7.36511e+06	-38939.1	955.819	-29796.4	0.000000	0.000000	7.092255	157.752	NaN	0.000000	0.001611	0.001671	28.0861	56.6584	0.001791	31633.9	5.239038	175.768	159.095	1.084772	0.056287	0.055902	157.752	31633.9	0.052547	0.100447	1570.51	91192.3
6.000000	2.000000	1.087035	7.36511e+06	-38939.1	955.818	-29796.4	0.000000	0.000000	7.094605	169.232	NaN	0.000000	0.001610	0.001685	28.0855	57.7349	0.001792	32221.9	3.117135	176.738	165.922	1.086786	0.058165	0.057916	169.232	32221.9	0.054226	0.105922	1597.71	90454.8
6.000000	2.000000	1.089071	7.36511e+06	-38939.1	955.818	-29796.4	0.000000	0.000000	7.097028	178.649	NaN	0.000000	0.001603	0.001682	28.0846	59.9478	0.001732	34611.2	6.411410	173.226	176.313	1.088653	0.060201	0.059783	178.649	34611.2	0.056330	0.112978	1581.27	94079.2
6.000000	2.000000	1.091003	7.36511e+06	-38939.1	955.818	-29796.4	0.000000	0.000000	7.099471	191.068	NaN	0.000000	0.001614	0.001702	28.0848	60.7885	0.001744	34862.3	5.358574	173.932	185.42	1.090767	0.062133	0.061897	191.068	34862.3	0.058023	0.118814	1608.13	92405.2
6.000000	2.000000	1.093064	7.36511e+06	-38939.1	955.818	-29796.4	0.000000	0.000000	7.101981	202.001	NaN	0.000000	0.001591	0.001690	28.0863	64.0739	0.001783	35940.7	7.802828	171.882	201.401	1.092670	0.064194	0.063799	202.001	35940.7	0.059978	0.125731	1606.61	92605.7
6.000000	2.000000	1.095060	7.36511e+06	-38939.1	955.818	-29796.4	0.000000	0.000000	7.104568	216.392	NaN	0.000000	0.001559	0.001717	28.0848	66.0951	0.001914	34541.5	6.310865	174.687	213.964	1.094743	0.066190	0.065873	216.392	34541.5	0.061491	0.131210	1649.2	87122.5
6.000000	2.000000	1.097027	7.36511e+06	-38939.1	955.818	-29796.4	0.000000	0.000000	7.107021	228.243	NaN	0.000000	0.001594	0.001695	28.0865	66.6323	0.001702	39157.7	6.146630	173.192	225.466	1.096636	0.068156	0.067765	228.243	39157.7	0.063785	0.139729	1633.47	95707.8
6.000000	2.000000	1.099070	7.36511e+06	-38939.1	955.818	-29796.4	0.000000	0.000000	7.109306	234.112	NaN	0.000000	0.001599	0.001698	28.0858	70.8489	0.001837	38562.5	5.342295	173.557	232.69	1.098767	0.070200	0.069896	234.112	38562.5	0.065647	0.146831	1594.44	91945.3
6.000000	2.000000	1.100928	7.36511e+06	-38939.1	955.818	-29796.4	0.000000	0.000000	7.111700	247.146	NaN	0.000000	0.001559	0.001657	28.0861	70.2537	0.001705	41194	2.974055	174.924	239.718	1.100713	0.072058	0.071842	247.146	41194	0.067558	0.154297	1601.76	95813.9
6.000000	2.000000	1.103050	7.36511e+06	-38939.1	955.818	-29796.4	0.000000	0.000000	7.114439	262.179	NaN	0.000000	0.001597	0.001734	28.0877	72.7263	0.001782	40808.2	-0.232223	179.24	260.836	1.102684	0.074180	0.073814	262.179	40808.2	0.069361	0.161499	1623.41	92776.2
6.000000	2.000000	1.105077	7.36511e+06	-38939.1	955.818	-29796.4	0.000000	0.000000	7.116893	272.564	NaN	0.000000	0.001595	0.001683	28.0846	75.6389	0.001845	40997.3	7.652560	171.189	271.205	1.104721	0.076207	0.075851	272.564	40997.3	0.071220	0.169088	1611.97	91090.3
6.000000	2.000000	1.107003	7.36511e+06	-38939.1	955.818	-29796.4	0.000000	0.000000	7.119524	289.724	NaN	0.000000	0.001592	0.001682	28.0848	77.197	0.001808	42689.3	7.215928	171.062	286.611	1.106735	0.078133	0.077865	289.724	42689.3	0.073043	0.176686	1639.77	92788
6.000000	2.000000	1.109039	7.36511e+06	-38939.1	955.817	-29796.4	0.000000	0.000000	7.122156	304.223	NaN	0.000000	0.001607	0.001685	28.0856	78.6738	0.001767	44513.8	4.413227	173.687	300.3	1.108679	0.080168	0.079809	304.223	44513.8	0.075043	0.185203	1642.64	94502.6
6.000000	2.000000	1.111050	7.36511e+06	-38939.1	955.818	-29796.4	0.000000	0.000000	7.124407	310.051	NaN	0.000000	0.001615	0.001654	28.0842	79.4583	0.001631	48704.6	4.676447	172.531	309.931	1.110837	0.082180	0.081967	310.051	48704.6	0.077405	0.195510	1585.86	100637
6.000000	2.000000	1.113065	7.36511e+06	-38939.1	955.819	-29796.4	0.000000	0.000000	7.127000	324.117	NaN	0.000000	0.001608	0.001690	28.0849	83.611	0.001864	44848.3	10.1217	168.512	323.526	1.112641	0.084195	0.083771	324.117	44848.3	0.078775	0.201602	1607.71	91258.2
6.000000	2.000000	1.115085	7.36511e+06	-38939.1	955.819	-29796.4	0.000000	0.000000	7.129554	337.119	NaN	0.000000	0.001591	0.001700	28.0861	84.1883	0.001737	48475.8	4.795795	172.541	336.452	1.114824	0.086215	0.085954	337.119	48475.8	0.080999	0.211687	1592.54	96261
6.000000	2.000000	1.117113	7.36511e+06	-38939.1	955.819	-29796.4	0.000000	0.000000	7.132363	356.125	NaN	0.000000	0.001574	0.001705	28.0872	86.1776	0.001848	46623.2	9.871080	169.612	358.062	1.116569	0.088243	0.087699	356.125	46623.2	0.082514	0.218686	1628.47	91088.7
6.000000	2.000000	1.119039	7.36511e+06	-38939.1	955.818	-29796.4	0.000000	0.000000	7.134712	366.413	NaN	0.000000	0.001591	0.001733	28.0863	89.7563	0.001820	49318.3	8.045206	169.311	366.102	1.118727	0.090169	0.089857	366.413	49318.3	0.084597	0.228483	1603.68	94265.9
6.000000	2.000000	1.121024	7.36511e+06	-38939.1	955.817	-29796.4	0.000000	0.000000	7.137510	386.2	NaN	0.000000	0.001601	0.001731	28.0879	89.5155	0.001780	50296.2	7.434016	170.302	384.635	1.120694	0.092154	0.091823	386.2	50296.2	0.086395	0.237100	1628.85	94371.7
6.000000	2.000000	1.122894	7.36511e+06	-38939.1	955.818	-29796.4	0.000000	0.000000	7.140031	402.057	NaN	0.000000	0.001627	0.001704	28.0866	92.3752	0.001808	51093.7	8.628959	168.538	394.667	1.122655	0.094024	0.093785	402.057	51093.7	0.088122	0.245519	1637.58	94210.2
6.000000	2.000000	1.125232	7.36511e+06	-38939.1	955.819	-29796.4	0.000000	0.000000	7.142803	412.607	NaN	0.000000	0.001590	0.001714	28.0901	93.4472	0.001683	55529	4.200588	172.974	422.354	1.124708	0.096362	0.095838	412.607	55529	0.090789	0.258789	1594.38	99728.7
6.000000	2.000000	1.126953	7.36511e+06	-38939.1	955.818	-29796.4	0.000000	0.000000	7.145546	437.482	NaN	0.000000	0.001583	0.001706	28.0865	94.3455	0.001799	52436.4	0.754581	176.293	432.543	1.126747	0.098083	0.097877	437.482	52436.4	0.091826	0.264035	1656.91	93234.3
6.000000	2.000000	1.129051	7.36511e+06	-38939.1	955.818	-29796.4	0.000000	0.000000	7.148547	459.462	NaN	0.000000	0.001600	0.001701	28.0875	97.9312	0.001852	52867.9	6.845119	170.841	459.425	1.128649	0.100181	0.099779	459.462	52867.9	0.093663	0.273453	1680.22	92368.5
6.000000	2.000000	1.131103	7.36511e+06	-38939.1	955.819	-29796.4	0.000000	0.000000	7.151100	471.651	NaN	0.000000	0.001626	0.001665	28.0863	98.1481	0.001696	57858.6	4.028891	171.898	473.102	1.130757	0.102233	0.101887	471.651	57858.6	0.096119	0.286283	1647.5	98796.9
6.000000	2.000000	1.132889	7.36511e+06	-38939.1	955.819	-29796.4	0.000000	0.000000	7.153744	492.508	NaN	0.000000	0.001591	0.001698	28.0864	101.166	0.001805	56044.6	3.836945	173.08	481.498	1.132584	0.104019	0.103714	492.508	56044.6	0.097428	0.293237	1679.56	94557.8
6.000000	2.000000	1.135099	7.36511e+06	-38939.1	955.818	-29796.4	0.000000	0.000000	7.156949	516.733	NaN	0.000000	0.001590	0.001656	28.0868	102.66	0.001749	58688.6	6.268159	171.436	517.442	1.134584	0.106229	0.105714	516.733	58688.6	0.099626	0.305079	1693.77	97078
6.000000	2.000000	1.136497	7.36511e+06	-38939.1	955.818	-29796.4	0.000000	0.000000	7.158727	525.985	NaN	0.000000	0.001606	0.001695	28.1269	104.837	0.001734	60466.9	6.494866	-10.3989	519.553	1.136088	0.107627	0.107218	525.985	60466.9	0.101103	0.313166	1679.58	98719.8