File: remote_trans/data/nanoindenter/0828-1/data/Data_2025-08-06,11h17m57s/2025-07-22_16-23-58_1_536.txt
2025-07-22, 16:23:58, 1
Index	Phase	Displacement	Time	Pos X	Pos Y	Pos Z	Rot A	Rot B	Piezo Z	Force A	Force B	Gripper	Voltage A	Voltage B	Temperature	Amplitude force	Amplitude pos	Stiffness	Phase shift	Phase excitation	Force A raw	Displacement raw	HMax	HMax raw	Real Force	Real Stiffness	Contact Depth	Area	Hardness	Reduced Mod.
[#]	[#]	[um]	[s]	[um]	[um]	[um]	[m°]	[m°]	[um]	[uN]	[uN]	[V]	[V]	[V]	[°C]	[uN]	[um]	[N/m]	[°]	[°]	[uN]	[um]	[um]	[um]	[uN]	[N/m]	[um]	[um^2]	[MPa]	[MPa]
536	1.000000	0.003399	7.37029e+06	-50289.1	1005.82	-29756.2	0.000000	0.000000	6.002820	-0.019351	NaN	0.000000	0.001643	0.001815	28.0804	0.060996	0.000813	75.0517	-0.602311	-166.308	0.007451	0.002120	-1.112553	-1.113832	-0.019351	75.0517	-1.112360	-7.344418E+14	2.634780E-17	NaN
536	1.000000	0.013456	7.37029e+06	-50289.1	1005.82	-29756.2	0.000000	0.000000	6.012880	0.053647	NaN	0.000000	0.001636	0.001787	28.0802	0.028918	0.001259	22.9739	-95.1144	21.9923	0.007314	0.012010	-1.102496	-1.103942	0.053647	22.9739	-1.104248	-5.715906E+14	-9.385500E-17	NaN
536	1.000000	0.023324	7.37029e+06	-50289.1	1005.82	-29756.2	0.000000	0.000000	6.022748	0.048662	NaN	0.000000	0.001644	0.001823	28.0801	0.100810	0.001641	61.4348	-30.0034	-170.214	0.058311	0.022012	-1.092628	-1.093940	0.048662	61.4348	-1.093222	-4.065153E+14	-1.197046E-16	NaN
536	1.000000	0.033330	7.37029e+06	-50289.1	1005.82	-29756.2	0.000000	0.000000	6.032751	-0.037621	NaN	0.000000	0.001611	0.001785	28.0801	0.069494	0.001876	37.0403	39.7075	14.3461	-0.048381	0.032027	-1.082622	-1.083925	-0.037621	37.0403	-1.081861	-2.860934E+14	1.314973E-16	NaN
536	1.000000	0.043340	7.37029e+06	-50289.1	1005.82	-29756.2	0.000000	0.000000	6.042765	0.058590	NaN	0.000000	0.001666	0.001783	28.0803	0.167027	0.002000	83.512	146.87	-170.417	-0.008191	0.042000	-1.072612	-1.073952	0.058590	83.512	-1.073138	-2.184461E+14	-2.682129E-16	NaN
536	1.000000	0.053358	7.37029e+06	-50289.1	1005.82	-29756.2	0.000000	0.000000	6.052781	0.010670	NaN	0.000000	0.001600	0.001785	28.0803	0.082238	0.001970	41.7451	38.2007	9.095176	0.121649	0.051978	-1.062594	-1.063974	0.010670	41.7451	-1.062786	-1.585824E+14	-6.728182E-17	NaN
536	1.000000	0.063344	7.37029e+06	-50289.1	1005.82	-29756.2	0.000000	0.000000	6.062768	0.030229	NaN	0.000000	0.001636	0.001815	28.0805	0.088986	0.001926	46.2092	-91.2612	-166.334	0.064678	0.061966	-1.052608	-1.053986	0.030229	46.2092	-1.053098	-1.175063E+14	-2.572540E-16	NaN
536	1.000000	0.073335	7.37029e+06	-50289.1	1005.82	-29756.2	0.000000	0.000000	6.072761	0.066986	NaN	0.000000	0.001567	0.001808	28.0803	0.080235	0.002007	39.9865	-152.388	13.0809	-0.017718	0.071967	-1.042617	-1.043985	0.066986	39.9865	-1.043873	-8.831721E+13	-7.584740E-16	NaN
536	1.000000	0.083340	7.37029e+06	-50289.1	1005.82	-29756.2	0.000000	0.000000	6.082763	0.010484	NaN	0.000000	0.001601	0.001814	28.08	0.082793	0.001969	42.0454	153.478	-163.791	-0.082779	0.082047	-1.032612	-1.033905	0.010484	42.0454	-1.032799	-6.268009E+13	-1.672569E-16	NaN
536	1.000000	0.093365	7.37029e+06	-50289.1	1005.82	-29756.2	0.000000	0.000000	6.092787	-0.019717	NaN	0.000000	0.001582	0.001808	28.08	0.115783	0.002084	55.5692	35.1297	15.6861	0.015633	0.092014	-1.022587	-1.023938	-0.019717	55.5692	-1.022321	-4.530871E+13	4.351678E-16	NaN
536	1.000000	0.103358	7.37029e+06	-50289.1	1005.82	-29756.2	0.000000	0.000000	6.102782	0.030913	NaN	0.000000	0.001633	0.001767	28.08	0.042863	0.002079	20.6182	-46.2172	-166.562	0.082362	0.102121	-1.012594	-1.013831	0.030913	20.6182	-1.013718	-3.470769E+13	-8.906651E-16	NaN
536	1.000000	0.113331	7.37029e+06	-50289.1	1005.82	-29756.2	0.000000	0.000000	6.112752	-0.038267	NaN	0.000000	0.001607	0.001780	28.0801	0.139634	0.002089	66.8478	140.48	16.3672	0.084483	0.112018	-1.002621	-1.003934	-0.038267	66.8478	-1.002192	-2.428177E+13	1.575971E-15	NaN
536	1.000000	0.123348	7.37029e+06	-50289.1	1005.82	-29756.2	0.000000	0.000000	6.122771	0.003482	NaN	0.000000	0.001621	0.001819	28.0807	0.063447	0.001914	33.1575	-139.778	-165.247	0.100009	0.122036	-0.992604	-0.993916	0.003482	33.1575	-0.992683	-1.808183E+13	-1.925523E-16	NaN
536	1.000000	0.133364	7.37029e+06	-50289.1	1005.82	-29756.2	0.000000	0.000000	6.132785	-0.024384	NaN	0.000000	0.001616	0.001791	28.0812	0.049373	0.001923	25.6725	158.008	13.213	0.039384	0.131991	-0.982589	-0.983961	-0.024384	25.6725	-0.981876	-1.293260E+13	1.885446E-15	NaN
536	1.000000	0.143344	7.37029e+06	-50289.1	1005.82	-29756.2	0.000000	0.000000	6.142768	0.019563	NaN	0.000000	0.001611	0.001794	28.081	0.056807	0.002103	27.0166	67.3605	-167.303	0.015046	0.142045	-0.972608	-0.973907	0.019563	27.0166	-0.973151	-9.865580E+12	-1.982974E-15	NaN
536	1.000000	0.153371	7.37029e+06	-50289.1	1005.82	-29756.2	0.000000	0.000000	6.152794	-0.004521	NaN	0.000000	0.001623	0.001833	28.0809	0.157673	0.002096	75.229	115.251	14.6051	0.002942	0.152028	-0.962581	-0.963924	-0.004521	75.229	-0.962536	-7.096615E+12	6.371029E-16	NaN
536	1.000000	0.163358	7.37029e+06	-50289.1	1005.82	-29756.2	0.000000	0.000000	6.162780	-0.027148	NaN	0.000000	0.001614	0.001791	28.0811	0.050660	0.002006	25.256	-84.6224	-163.961	-0.109318	0.162010	-0.952594	-0.953942	-0.027148	25.256	-0.951787	-5.083142E+12	5.340791E-15	NaN
536	1.000000	0.173354	7.37029e+06	-50289.1	1005.82	-29756.2	0.000000	0.000000	6.172777	0.008830	NaN	0.000000	0.001619	0.001816	28.0811	0.134482	0.001954	68.8369	49.877	15.2344	0.017417	0.171988	-0.942598	-0.943964	0.008830	68.8369	-0.942694	-3.832479E+12	-2.304024E-15	NaN
536	1.000000	0.183377	7.37029e+06	-50289.1	1005.82	-29756.2	0.000000	0.000000	6.182800	0.006587	NaN	0.000000	0.001634	0.001791	28.0813	0.085656	0.001970	43.4907	-4.251549	-163.409	-0.052329	0.182080	-0.932575	-0.933872	0.006587	43.4907	-0.932688	-2.808536E+12	-2.345445E-15	NaN
536	1.000000	0.193404	7.37029e+06	-50289.1	1005.82	-29756.2	0.000000	0.000000	6.192825	-0.031866	NaN	0.000000	0.001600	0.001823	28.0811	0.089732	0.002150	41.7374	139.081	13.1119	-0.083668	0.191995	-0.922548	-0.923957	-0.031866	41.7374	-0.921975	-2.013135E+12	1.582887E-14	NaN
536	1.000000	0.203407	7.37029e+06	-50289.1	1005.82	-29756.2	0.000000	0.000000	6.202830	0.028178	NaN	0.000000	0.001620	0.001831	28.0812	0.033018	0.002009	16.4338	107.746	-165.356	0.012046	0.202076	-0.912545	-0.913876	0.028178	16.4338	-0.913831	-1.562820E+12	-1.802995E-14	NaN
536	1.000000	0.213397	7.37029e+06	-50289.1	1005.82	-29756.2	0.000000	0.000000	6.212821	0.045636	NaN	0.000000	0.001614	0.001834	28.0811	0.072063	0.001981	36.3749	112.174	12.2102	-0.070897	0.212025	-0.902555	-0.903927	0.045636	36.3749	-0.903496	-1.133200E+12	-4.027172E-14	NaN
536	1.000000	0.223416	7.37029e+06	-50289.1	1005.82	-29756.2	0.000000	0.000000	6.222838	-0.010749	NaN	0.000000	0.001593	0.001804	28.0814	0.031954	0.001870	17.0908	91.4132	-166.753	-0.068889	0.222144	-0.892536	-0.893808	-0.010749	17.0908	-0.892064	-7.940005E+11	1.353775E-14	NaN
536	1.000000	0.233420	7.37029e+06	-50289.1	1005.82	-29756.2	0.000000	0.000000	6.232843	-0.000551	NaN	0.000000	0.001605	0.001771	28.0809	0.067647	0.001856	36.4428	93.8538	12.0783	0.008526	0.232030	-0.882532	-0.883922	-0.000551	36.4428	-0.882520	-5.899191E+11	9.333952E-16	NaN
536	1.000000	0.243408	7.37029e+06	-50289.1	1005.82	-29756.2	0.000000	0.000000	6.242827	-0.093447	NaN	0.000000	0.001572	0.001823	28.0811	0.145266	0.002044	71.071	-116.986	-166.776	-0.056038	0.242107	-0.872544	-0.873845	-0.093447	71.071	-0.871558	-4.192936E+11	2.228682E-13	NaN
536	1.000000	0.253437	7.37029e+06	-50289.1	1005.82	-29756.2	0.000000	0.000000	6.252857	-0.047422	NaN	0.000000	0.001594	0.001805	28.0812	0.023090	0.002005	11.514	105.992	17.8387	-0.130104	0.252044	-0.862515	-0.863908	-0.047422	11.514	-0.859426	-2.873119E+11	1.650554E-13	NaN
536	1.000000	0.263408	7.37029e+06	-50289.1	1005.82	-29756.2	0.000000	0.000000	6.262830	-0.011813	NaN	0.000000	0.001628	0.001828	28.0803	0.090538	0.002128	42.5552	-118.653	-169.368	-0.043157	0.262127	-0.852544	-0.853825	-0.011813	42.5552	-0.852335	-2.303356E+11	5.128609E-14	NaN
536	1.000000	0.273401	7.37029e+06	-50289.1	1005.82	-29756.2	0.000000	0.000000	6.272823	-0.017318	NaN	0.000000	0.001599	0.001795	28.08	0.069802	0.002018	34.5939	-100.256	16.6166	-0.069853	0.272085	-0.842551	-0.843867	-0.017318	34.5939	-0.842175	-1.677882E+11	1.032130E-13	NaN
536	1.000000	0.283423	7.37029e+06	-50289.1	1005.82	-29756.2	0.000000	0.000000	6.282847	0.042985	NaN	0.000000	0.001574	0.001757	28.0803	0.078808	0.001913	41.1926	50.6885	-164.504	-0.005789	0.282092	-0.832529	-0.833860	0.042985	41.1926	-0.833312	-1.272532E+11	-3.377934E-13	NaN
536	1.000000	0.293428	7.37029e+06	-50289.1	1005.82	-29756.2	0.000000	0.000000	6.292852	0.036143	NaN	0.000000	0.001587	0.001770	28.0802	0.121456	0.001958	62.0403	-150.798	16.2805	-0.075139	0.292140	-0.822524	-0.823812	0.036143	62.0403	-0.822961	-9.212252E+10	-3.923356E-13	NaN
536	1.000000	0.303428	7.37029e+06	-50289.1	1005.82	-29756.2	0.000000	0.000000	6.302852	0.039540	NaN	0.000000	0.001580	0.001805	28.0804	0.104839	0.001957	53.5787	159.676	-165.875	-0.037850	0.302111	-0.812524	-0.813842	0.039540	53.5787	-0.813077	-6.765770E+10	-5.844120E-13	NaN
536	1.000000	0.313439	7.37029e+06	-50289.1	1005.82	-29756.2	0.000000	0.000000	6.312862	0.005912	NaN	0.000000	0.001582	0.001779	28.0802	0.089959	0.002033	44.2439	119.028	16.9449	0.017239	0.312087	-0.802513	-0.803865	0.005912	44.2439	-0.802613	-4.879046E+10	-1.211731E-13	NaN
536	1.000000	0.323456	7.37029e+06	-50289.1	1005.82	-29756.2	0.000000	0.000000	6.322879	0.015087	NaN	0.000000	0.001572	0.001782	28.0803	0.018246	0.001957	9.323355	70.7437	-164.688	0.043396	0.322117	-0.792496	-0.793835	0.015087	9.323355	-0.793709	-3.693665E+10	-4.084505E-13	NaN
536	1.000000	0.333433	7.37029e+06	-50289.1	1005.82	-29756.2	0.000000	0.000000	6.332854	-0.031665	NaN	0.000000	0.001584	0.001788	28.0801	0.053454	0.001925	27.7727	106.077	14.908	-0.090073	0.332041	-0.782519	-0.783911	-0.031665	27.7727	-0.781664	-2.534182E+10	1.249524E-12	NaN
536	1.000000	0.343436	7.37029e+06	-50289.1	1005.82	-29756.2	0.000000	0.000000	6.342858	-0.021588	NaN	0.000000	0.001597	0.001762	28.0801	0.129245	0.001924	67.1779	153.026	-163.814	-0.008435	0.342125	-0.772516	-0.773827	-0.021588	67.1779	-0.772275	-1.889019E+10	1.142828E-12	NaN
536	1.000000	0.353483	7.37029e+06	-50289.1	1005.82	-29756.2	0.000000	0.000000	6.352904	-0.048758	NaN	0.000000	0.001605	0.001770	28.08	0.025098	0.002111	11.8882	-58.8644	12.4506	-0.042865	0.352067	-0.762469	-0.763885	-0.048758	11.8882	-0.759393	-1.261957E+10	3.863684E-12	NaN
536	1.000000	0.363450	7.37029e+06	-50289.1	1005.82	-29756.2	0.000000	0.000000	6.362873	0.011618	NaN	0.000000	0.001660	0.001801	28.0804	0.168359	0.002005	83.9842	66.5515	-165.86	0.050796	0.362127	-0.752502	-0.753825	0.011618	83.9842	-0.752605	-1.020193E+10	-1.138761E-12	NaN
536	1.000000	0.373457	7.37029e+06	-50289.1	1005.82	-29756.2	0.000000	0.000000	6.372878	-0.027393	NaN	0.000000	0.001661	0.001804	28.08	0.093292	0.002076	44.9274	-127.231	13.8364	-0.035004	0.372087	-0.742495	-0.743865	-0.027393	44.9274	-0.742038	-7.325113E+9	3.739535E-12	NaN
536	1.000000	0.383452	7.37029e+06	-50289.1	1005.82	-29756.2	0.000000	0.000000	6.382875	-0.002460	NaN	0.000000	0.001663	0.001818	28.0802	0.057549	0.002073	27.7601	-165.707	-163.327	-0.018236	0.382155	-0.732500	-0.733797	-0.002460	27.7601	-0.732433	-5.419618E+9	4.539594E-13	NaN
536	1.000000	0.393473	7.37029e+06	-50289.1	1005.82	-29756.2	0.000000	0.000000	6.392898	0.069488	NaN	0.000000	0.001683	0.001816	28.0798	0.083824	0.001947	43.0468	18.0652	17.3053	-0.004935	0.392112	-0.722479	-0.723840	0.069488	43.0468	-0.723690	-4.119014E+9	-1.686998E-11	NaN
536	1.000000	0.403448	7.37029e+06	-50289.1	1005.82	-29756.2	0.000000	0.000000	6.402868	-0.072619	NaN	0.000000	0.001627	0.001824	28.0815	0.098053	0.001923	50.9821	-35.5771	-166.265	-0.071815	0.402189	-0.712504	-0.713763	-0.072619	50.9821	-0.711436	-2.803101E+9	2.590675E-11	NaN
536	1.000000	0.413471	7.37029e+06	-50289.1	1005.82	-29756.2	0.000000	0.000000	6.412895	0.032155	NaN	0.000000	0.001611	0.001859	28.0812	0.108749	0.001958	55.5312	-178.319	14.7217	0.032960	0.412142	-0.702481	-0.703810	0.032155	55.5312	-0.702915	-2.144573E+9	-1.499348E-11	NaN
536	1.000000	0.423494	7.37029e+06	-50289.1	1005.82	-29756.2	0.000000	0.000000	6.422917	0.018447	NaN	0.000000	0.001606	0.001779	28.0813	0.086852	0.001999	43.451	41.7128	-162.782	-0.041689	0.422133	-0.692458	-0.693819	0.018447	43.451	-0.692777	-1.559047E+9	-1.183229E-11	NaN
536	1.000000	0.433501	7.37029e+06	-50289.1	1005.82	-29756.2	0.000000	0.000000	6.432926	0.042627	NaN	0.000000	0.001630	0.001738	28.0813	0.069982	0.002083	33.589	22.5109	10.3886	0.076707	0.432154	-0.682451	-0.683798	0.042627	33.589	-0.683402	-1.160731E+9	-3.672436E-11	NaN
536	1.000000	0.443486	7.37029e+06	-50289.1	1005.82	-29756.2	0.000000	0.000000	6.442909	-0.005485	NaN	0.000000	0.001625	0.001759	28.0814	0.159685	0.002006	79.5862	-170.52	-165.514	-0.022036	0.442130	-0.672466	-0.673822	-0.005485	79.5862	-0.672414	-8.211609E+8	6.679663E-12	NaN
536	1.000000	0.453483	7.37029e+06	-50289.1	1005.82	-29756.2	0.000000	0.000000	6.452906	0.002953	NaN	0.000000	0.001588	0.001812	28.0811	0.056568	0.002003	28.2378	36.7439	12.4567	0.047445	0.452111	-0.662469	-0.663841	0.002953	28.2378	-0.662547	-6.016688E+8	-4.907571E-12	NaN
536	1.000000	0.463520	7.37029e+06	-50289.1	1005.82	-29756.2	0.000000	0.000000	6.462941	-0.041585	NaN	0.000000	0.001614	0.001755	28.0816	0.109859	0.002065	53.2046	-91.9984	-167.137	-0.016809	0.462145	-0.652432	-0.653807	-0.041585	53.2046	-0.651846	-4.292764E+8	9.687154E-11	NaN
536	1.000000	0.473497	7.37029e+06	-50289.1	1005.82	-29756.2	0.000000	0.000000	6.472921	0.022904	NaN	0.000000	0.001554	0.001774	28.0814	0.009703	0.001939	5.003071	160.009	13.487	0.000957	0.472161	-0.642455	-0.643791	0.022904	5.003071	-0.645888	-3.556812E+8	-6.439418E-11	NaN
536	1.000000	0.483507	7.37029e+06	-50289.1	1005.82	-29756.2	0.000000	0.000000	6.482931	0.034079	NaN	0.000000	0.001573	0.001758	28.0814	0.041416	0.002027	20.4326	95.3126	-167.117	0.053196	0.482242	-0.632445	-0.633710	0.034079	20.4326	-0.633696	-2.419721E+8	-1.408381E-10	NaN
536	1.000000	0.493512	7.37029e+06	-50289.1	1005.82	-29756.2	0.000000	0.000000	6.492932	-0.043325	NaN	0.000000	0.001559	0.001784	28.0812	0.088385	0.001955	45.2088	123.399	15.3752	0.009294	0.492199	-0.622440	-0.623753	-0.043325	45.2088	-0.621722	-1.656894E+8	2.614805E-10	NaN
536	1.000000	0.503533	7.37029e+06	-50289.1	1005.82	-29756.2	0.000000	0.000000	6.502958	0.058988	NaN	0.000000	0.001629	0.001782	28.0814	0.080880	0.002154	37.5414	104.172	-167.734	0.017002	0.502214	-0.612419	-0.613738	0.058988	37.5414	-0.613598	-1.281171E+8	-4.604260E-10	NaN
536	1.000000	0.513506	7.37029e+06	-50289.1	1005.82	-29756.2	0.000000	0.000000	6.512928	-0.018776	NaN	0.000000	0.001616	0.001780	28.0814	0.074428	0.002032	36.6283	158.11	14.2493	-0.020538	0.512144	-0.602446	-0.603808	-0.018776	36.6283	-0.602062	-8.888939E+7	2.112338E-10	NaN
536	1.000000	0.523547	7.37029e+06	-50289.1	1005.82	-29756.2	0.000000	0.000000	6.522969	-0.016782	NaN	0.000000	0.001621	0.001795	28.0814	0.115694	0.002030	56.9871	175.84	-164.109	-0.011951	0.522149	-0.592405	-0.593804	-0.016782	56.9871	-0.592184	-6.497914E+7	2.582622E-10	NaN
536	1.000000	0.533552	7.37029e+06	-50289.1	1005.82	-29756.2	0.000000	0.000000	6.532973	-0.027099	NaN	0.000000	0.001602	0.001780	28.0802	0.020695	0.002047	10.1085	85.4213	15.8941	-0.043179	0.532195	-0.582400	-0.583757	-0.027099	10.1085	-0.580390	-4.467923E+7	6.065149E-10	NaN
536	1.000000	0.543532	7.37029e+06	-50289.1	1005.82	-29756.2	0.000000	0.000000	6.542959	0.102958	NaN	0.000000	0.001610	0.001815	28.0802	0.100721	0.001952	51.6035	-95.621	-164.344	0.034383	0.542220	-0.572420	-0.573732	0.102958	51.6035	-0.573917	-3.636942E+7	-2.830901E-9	NaN
536	1.000000	0.553538	7.37029e+06	-50289.1	1005.82	-29756.2	0.000000	0.000000	6.552960	-0.018147	NaN	0.000000	0.001605	0.001802	28.08	0.117962	0.001922	61.3796	-166.068	15.3497	0.019832	0.552170	-0.562414	-0.563782	-0.018147	61.3796	-0.562192	-2.504376E+7	7.245955E-10	NaN
536	1.000000	0.563551	7.37029e+06	-50289.1	1005.82	-29756.2	0.000000	0.000000	6.562973	-0.020976	NaN	0.000000	0.001607	0.001769	28.08	0.178673	0.001991	89.7214	178.564	-166.865	-0.054889	0.562252	-0.552401	-0.553700	-0.020976	89.7214	-0.552225	-1.822941E+7	1.150685E-9	NaN
536	1.000000	0.573544	7.37029e+06	-50289.1	1005.82	-29756.2	0.000000	0.000000	6.572965	-0.037862	NaN	0.000000	0.001634	0.001813	28.08	0.066315	0.002034	32.596	89.4522	16.6886	0.053095	0.572201	-0.542408	-0.543751	-0.037862	32.596	-0.541537	-1.296209E+7	2.921005E-9	NaN
536	1.000000	0.583566	7.37029e+06	-50289.1	1005.82	-29756.2	0.000000	0.000000	6.582989	-0.000922	NaN	0.000000	0.001614	0.001781	28.0804	0.025949	0.002002	12.9647	13.6468	-164.821	0.053523	0.582202	-0.532386	-0.533750	-0.000922	12.9647	-0.532333	-9.65973e+06	9.540930E-11	NaN
536	1.000000	0.593546	7.37029e+06	-50289.1	1005.82	-29756.2	0.000000	0.000000	6.592968	-0.017463	NaN	0.000000	0.001632	0.001781	28.0802	0.020022	0.002013	9.946199	124.544	12.5727	-0.037638	0.592184	-0.522406	-0.523768	-0.017463	9.946199	-0.521089	-6.74127e+06	2.590503E-9	NaN
536	1.000000	0.603540	7.37029e+06	-50289.1	1005.82	-29756.2	0.000000	0.000000	6.602963	0.019414	NaN	0.000000	0.001640	0.001783	28.08	0.104351	0.001940	53.7762	-153.153	-165.097	0.033792	0.602276	-0.512412	-0.513676	0.019414	53.7762	-0.512683	-5.14967e+06	-3.770018E-9	NaN
536	1.000000	0.613594	7.3703e+06	-50289.1	1005.82	-29756.2	0.000000	0.000000	6.613017	-2.613641E-5	NaN	0.000000	0.001580	0.001747	28.0803	0.051278	0.001967	26.067	168.769	14.1333	0.070853	0.612193	-0.502358	-0.503759	-2.613641E-5	26.067	-0.502357	-3.69739e+06	7.068879E-12	NaN
536	1.000000	0.623565	7.3703e+06	-50289.1	1005.82	-29756.2	0.000000	0.000000	6.622986	-0.032578	NaN	0.000000	0.001580	0.001785	28.0801	0.083819	0.002090	40.0969	-26.7621	-165.831	-0.018036	0.622283	-0.492387	-0.493669	-0.032578	40.0969	-0.491778	-2.6317e+06	1.237906E-8	NaN
536	1.000000	0.633568	7.3703e+06	-50289.1	1005.82	-29756.2	0.000000	0.000000	6.632990	-0.016405	NaN	0.000000	0.001613	0.001829	28.0801	0.050059	0.001895	26.4126	-147.234	14.5053	0.034145	0.632202	-0.482384	-0.483750	-0.016405	26.4126	-0.481918	-1.91593e+06	8.562455E-9	NaN
536	1.000000	0.643570	7.3703e+06	-50289.1	1005.82	-29756.2	0.000000	0.000000	6.642994	0.042661	NaN	0.000000	0.001609	0.001798	28.0802	0.160087	0.001974	81.0809	-157.206	-168.902	0.057754	0.642302	-0.472382	-0.473650	0.042661	81.0809	-0.472777	-1.42672e+06	-2.990132E-8	NaN
536	1.000000	0.653588	7.3703e+06	-50289.1	1005.82	-29756.2	0.000000	0.000000	6.653008	-0.069417	NaN	0.000000	0.001620	0.001800	28.0801	0.119719	0.002044	58.5826	-78.8369	14.9396	-0.073026	0.652201	-0.462364	-0.463751	-0.069417	58.5826	-0.461475	-990260	7.009971E-8	NaN
536	1.000000	0.663566	7.3703e+06	-50289.1	1005.82	-29756.2	0.000000	0.000000	6.662990	0.033738	NaN	0.000000	0.001614	0.001781	28.0804	0.091941	0.002195	41.8843	-126.784	-165.032	0.013782	0.662290	-0.452386	-0.453662	0.033738	41.8843	-0.452990	-752383	-4.484150E-8	NaN
536	1.000000	0.673625	7.3703e+06	-50289.1	1005.82	-29756.2	0.000000	0.000000	6.673042	-0.139498	NaN	0.000000	0.001634	0.001780	28.0814	0.048439	0.001965	24.6555	-34.6094	14.3291	-0.001531	0.672209	-0.442327	-0.443743	-0.139498	24.6555	-0.438084	-463783	3.007823E-7	NaN
536	1.000000	0.683578	7.3703e+06	-50289.1	1005.82	-29756.2	0.000000	0.000000	6.682998	-0.049593	NaN	0.000000	0.001626	0.001778	28.0813	0.021107	0.002079	10.1518	110.328	-164.309	-0.062489	0.682336	-0.432374	-0.433616	-0.049593	10.1518	-0.428711	-341835	1.450778E-7	NaN
536	1.000000	0.693592	7.3703e+06	-50289.1	1005.82	-29756.2	0.000000	0.000000	6.693017	0.060942	NaN	0.000000	0.001609	0.001785	28.0814	0.015229	0.001948	7.819539	94.523	13.6869	-0.014590	0.692245	-0.422360	-0.423707	0.060942	7.819539	-0.428205	-336247	-1.812415E-7	NaN
536	1.000000	0.703581	7.3703e+06	-50289.1	1005.82	-29756.2	0.000000	0.000000	6.703005	0.031990	NaN	0.000000	0.001641	0.001770	28.0812	0.096792	0.001953	49.567	6.516855	-165.631	0.055031	0.702293	-0.412371	-0.413659	0.031990	49.567	-0.412855	-203696	-1.570475E-7	NaN
536	1.000000	0.713563	7.3703e+06	-50289.1	1005.82	-29756.2	0.000000	0.000000	6.712985	-0.015547	NaN	0.000000	0.001620	0.001770	28.0811	0.060750	0.001981	30.673	-113.202	15.1563	-0.042242	0.712267	-0.402389	-0.403685	-0.015547	30.673	-0.402009	-142770	1.088932E-7	NaN
536	1.000000	0.723601	7.3703e+06	-50289.1	1005.82	-29756.2	0.000000	0.000000	6.723023	-0.030858	NaN	0.000000	0.001648	0.001782	28.0814	0.008568	0.002086	4.107860	72.4993	-165.023	-0.008923	0.722322	-0.392351	-0.393630	-0.030858	4.107860	-0.386717	-86333.2	3.574244E-7	NaN
536	1.000000	0.733600	7.3703e+06	-50289.1	1005.82	-29756.2	0.000000	0.000000	6.733023	0.011290	NaN	0.000000	0.001579	0.001738	28.0812	0.076746	0.002085	36.807	-102.382	12.8227	0.014547	0.732204	-0.382352	-0.383748	0.011290	36.807	-0.382582	-75323.4	-1.498880E-7	NaN
536	1.000000	0.743613	7.3703e+06	-50289.1	1005.82	-29756.2	0.000000	0.000000	6.743035	0.003129	NaN	0.000000	0.001601	0.001778	28.0811	0.023038	0.002022	11.3959	101.706	-168.512	0.027752	0.742273	-0.372339	-0.373679	0.003129	11.3959	-0.372545	-54046.5	-5.789596E-8	NaN
536	1.000000	0.753674	7.3703e+06	-50289.1	1005.82	-29756.2	0.000000	0.000000	6.753094	-0.052029	NaN	0.000000	0.001624	0.001757	28.0813	0.019560	0.002012	9.723257	-89.9675	15.3504	0.057082	0.752244	-0.362279	-0.363708	-0.052029	9.723257	-0.358265	-33632.7	1.546973E-6	NaN
536	1.000000	0.763610	7.3703e+06	-50289.1	1005.82	-29756.2	0.000000	0.000000	6.763034	0.015985	NaN	0.000000	0.001574	0.001784	28.0815	0.142031	0.002108	67.3787	-174.36	-163.321	0.013835	0.762365	-0.352342	-0.353587	0.015985	67.3787	-0.352520	-27768.4	-5.756422E-7	NaN
536	1.000000	0.773661	7.3703e+06	-50289.1	1005.82	-29756.2	0.000000	0.000000	6.773082	-0.019129	NaN	0.000000	0.001621	0.001791	28.0813	0.063984	0.002126	30.0896	128.733	14.6889	-0.009846	0.772251	-0.342291	-0.343701	-0.019129	30.0896	-0.341814	-19408.5	9.856091E-7	NaN
536	1.000000	0.783623	7.3703e+06	-50289.1	1005.82	-29756.2	0.000000	0.000000	6.783047	0.038877	NaN	0.000000	0.001616	0.001790	28.0813	0.035888	0.002019	17.776	-129.546	-162.351	-0.016458	0.782312	-0.332329	-0.333640	0.038877	17.776	-0.333970	-14911.8	-2.607111E-6	NaN
536	1.000000	0.793615	7.3703e+06	-50289.1	1005.82	-29756.2	0.000000	0.000000	6.793036	-0.040102	NaN	0.000000	0.001588	0.001773	28.0812	0.088625	0.001986	44.6214	-74.1673	15.2512	-0.023745	0.792252	-0.322337	-0.323700	-0.040102	44.6214	-0.321663	-9842.56	4.074311E-6	NaN
536	1.000000	0.803650	7.3703e+06	-50289.1	1005.82	-29756.2	0.000000	0.000000	6.803072	-0.009212	NaN	0.000000	0.001594	0.001787	28.0812	0.054415	0.002087	26.0784	-153.81	-165.909	-0.014858	0.802356	-0.312302	-0.313596	-0.009212	26.0784	-0.312037	-7098.87	1.297721E-6	NaN
536	1.000000	0.813624	7.3703e+06	-50289.1	1005.82	-29756.2	0.000000	0.000000	6.813047	0.000941	NaN	0.000000	0.001609	0.001781	28.0798	0.039538	0.001980	19.9664	105.175	14.6297	0.027961	0.812339	-0.302328	-0.303613	0.000941	19.9664	-0.302363	-5102.62	-1.845110E-7	NaN
536	1.000000	0.823657	7.3703e+06	-50289.1	1005.82	-29756.2	0.000000	0.000000	6.823080	0.017287	NaN	0.000000	0.001606	0.001767	28.0798	0.103219	0.001860	55.4988	84.7264	-166.033	-0.061703	0.822346	-0.292295	-0.293606	0.017287	55.4988	-0.292529	-3640.46	-4.748633E-6	NaN
536	1.000000	0.833648	7.3703e+06	-50289.1	1005.82	-29756.2	0.000000	0.000000	6.833069	-0.035699	NaN	0.000000	0.001583	0.001777	28.0799	0.100937	0.001843	54.7573	138.266	18.1637	-0.000730	0.832306	-0.282304	-0.283646	-0.035699	54.7573	-0.281815	-2513.85	1.420101E-5	NaN
536	1.000000	0.843671	7.3703e+06	-50289.1	1005.82	-29756.2	0.000000	0.000000	6.843099	0.128390	NaN	0.000000	0.001622	0.001742	28.08	0.097338	0.001924	50.5917	38.832	-164.597	-0.007896	0.842341	-0.272281	-0.273611	0.128390	50.5917	-0.274184	-1927.74	-6.660120E-5	NaN
536	1.000000	0.853673	7.3703e+06	-50289.1	1005.82	-29756.2	0.000000	0.000000	6.853096	0.017900	NaN	0.000000	0.001617	0.001776	28.0798	0.090390	0.002051	44.0666	152.876	14.4019	-0.026158	0.852250	-0.262279	-0.263702	0.017900	44.0666	-0.262584	-1283.74	-1.394396E-5	NaN
536	1.000000	0.863668	7.3703e+06	-50289.1	1005.82	-29756.2	0.000000	0.000000	6.863091	0.027516	NaN	0.000000	0.001677	0.001751	28.0803	0.075298	0.002057	36.6062	76.888	-165.381	0.005861	0.862401	-0.252284	-0.253552	0.027516	36.6062	-0.252848	-909.823	-3.024317E-5	NaN
536	1.000000	0.873664	7.3703e+06	-50289.1	1005.82	-29756.2	0.000000	0.000000	6.873087	-0.007319	NaN	0.000000	0.001653	0.001733	28.0801	0.090410	0.002049	44.1257	134.296	17.3317	0.014755	0.872374	-0.242288	-0.243578	-0.007319	44.1257	-0.242163	-621.302	1.177953E-5	NaN
536	1.000000	0.883670	7.3703e+06	-50289.1	1005.82	-29756.2	0.000000	0.000000	6.883093	0.011388	NaN	0.000000	0.001635	0.001770	28.08	0.030766	0.001985	15.4974	-150.537	-164.207	-0.074171	0.882358	-0.232282	-0.233594	0.011388	15.4974	-0.232833	-443.795	-2.566156E-5	NaN
536	1.000000	0.893657	7.3703e+06	-50289.1	1005.82	-29756.2	0.000000	0.000000	6.893080	0.007777	NaN	0.000000	0.001586	0.001764	28.0797	0.071212	0.001945	36.611	30.4392	15.0358	-0.017037	0.892371	-0.222295	-0.223581	0.007777	36.611	-0.222454	-303.973	-2.558355E-5	NaN
536	1.000000	0.903707	7.3703e+06	-50289.1	1005.82	-29756.2	0.000000	0.000000	6.903131	0.041171	NaN	0.000000	0.001536	0.001739	28.0801	0.022550	0.001994	11.3103	118.657	-165.521	0.058447	0.902400	-0.212245	-0.213552	0.041171	11.3103	-0.214975	-230.738	-0.000178	NaN
536	1.000000	0.913705	7.3703e+06	-50289.1	1005.82	-29756.2	0.000000	0.000000	6.913125	-0.058770	NaN	0.000000	0.001587	0.001785	28.0799	0.085214	0.002007	42.4554	-135.523	13.3943	-0.113350	0.912360	-0.202247	-0.203592	-0.058770	42.4554	-0.201209	-137.895	0.000426	NaN
536	1.000000	0.923669	7.3703e+06	-50289.1	1005.82	-29756.2	0.000000	0.000000	6.923094	0.052717	NaN	0.000000	0.001583	0.001742	28.0799	0.126392	0.002000	63.1841	-165.019	-164.638	0.025621	0.922405	-0.192283	-0.193547	0.052717	63.1841	-0.192908	-100.576	-0.000524	NaN
536	1.000000	0.933687	7.3703e+06	-50289.1	1005.82	-29756.2	0.000000	0.000000	6.933109	-0.018375	NaN	0.000000	0.001562	0.001753	28.0797	0.105868	0.001938	54.6267	93.6396	16.2903	-0.043194	0.932331	-0.182265	-0.183621	-0.018375	54.6267	-0.182013	-66.0159	0.000278	NaN
536	1.000000	0.943710	7.3703e+06	-50289.1	1005.82	-29756.2	0.000000	0.000000	6.943131	-0.043213	NaN	0.000000	0.001567	0.001736	28.0812	0.063563	0.002113	30.0758	-140.146	-168.173	0.000840	0.942398	-0.172242	-0.173554	-0.043213	30.0758	-0.171164	-43.0331	0.001004	NaN
536	1.000000	0.953695	7.3703e+06	-50289.1	1005.82	-29756.2	0.000000	0.000000	6.953117	-0.021025	NaN	0.000000	0.001568	0.001766	28.0809	0.175303	0.002034	86.2016	-31.6034	15.0575	0.046816	0.952332	-0.162257	-0.163620	-0.021025	86.2016	-0.162074	-29.8363	0.000705	NaN
536	1.000000	0.963687	7.3703e+06	-50289.1	1005.82	-29756.2	0.000000	0.000000	6.963105	-0.097665	NaN	0.000000	0.001579	0.001768	28.0811	0.105558	0.001972	53.5363	3.079168	-163.996	-0.049298	0.962397	-0.152265	-0.153556	-0.097665	53.5363	-0.150897	-18.808	0.005193	NaN
536	1.000000	0.973702	7.3703e+06	-50289.1	1005.82	-29756.2	0.000000	0.000000	6.973126	0.025218	NaN	0.000000	0.001618	0.001731	28.081	0.027493	0.002031	13.5343	-133.914	11.4157	-0.022847	0.972342	-0.142250	-0.143610	0.025218	13.5343	-0.143647	-13.8386	-0.001822	NaN
536	1.000000	0.983718	7.3703e+06	-50289.1	1005.82	-29756.2	0.000000	0.000000	6.983136	-0.102956	NaN	0.000000	0.001591	0.001765	28.0811	0.090545	0.002038	44.4301	-116.63	-163.66	-0.045845	0.982393	-0.132234	-0.133559	-0.102956	44.4301	-0.130496	-7.791792	0.013213	NaN
536	1.000000	0.993716	7.3703e+06	-50289.1	1005.82	-29756.2	0.000000	0.000000	6.993141	0.056976	NaN	0.000000	0.001607	0.001773	28.0809	0.092098	0.002057	44.7641	-120.145	15.9174	-0.028777	0.992391	-0.122236	-0.123561	0.056976	44.7641	-0.123190	-5.598361	-0.010177	NaN
536	1.000000	1.003703	7.3703e+06	-50289.1	1005.82	-29756.2	0.000000	0.000000	7.003124	-0.040531	NaN	0.000000	0.001586	0.001750	28.081	0.079810	0.001919	41.5886	30.3114	-165.112	-0.027110	1.002406	-0.112249	-0.113546	-0.040531	41.5886	-0.111518	-3.234181	0.012532	NaN
536	1.000000	1.013738	7.3703e+06	-50289.1	1005.82	-29756.2	0.000000	0.000000	7.013158	-0.051743	NaN	0.000000	0.001573	0.001783	28.0811	0.089987	0.001949	46.175	92.6414	16.5473	-0.092198	1.012419	-0.102214	-0.103533	-0.051743	46.175	-0.101374	-1.959382	0.026408	NaN
536	1.000000	1.023715	7.3703e+06	-50289.1	1005.82	-29756.2	0.000000	0.000000	7.023135	-0.048751	NaN	0.000000	0.001595	0.001804	28.081	0.013503	0.001757	7.685103	40.149	-167.04	-0.142773	1.022424	-0.092237	-0.093528	-0.048751	7.685103	-0.087480	-0.942381	0.051732	NaN
536	1.000000	1.033722	7.3703e+06	-50289.1	1005.82	-29756.2	0.000000	0.000000	7.033145	0.000605	NaN	0.000000	0.001588	0.001812	28.081	0.103790	0.001743	59.5367	-104.788	16.3705	-0.002820	1.032396	-0.082230	-0.083556	0.000605	59.5367	-0.082237	-0.703432	-0.000860	NaN
536	1.000000	1.043726	7.3703e+06	-50289.1	1005.82	-29756.2	0.000000	0.000000	7.043149	0.008981	NaN	0.000000	0.001568	0.001814	28.081	0.043463	0.002013	21.5909	-77.9216	-167.738	0.025464	1.042402	-0.072226	-0.073550	0.008981	21.5909	-0.072538	-0.398362	-0.022546	NaN
536	1.000000	1.053751	7.3703e+06	-50289.1	1005.82	-29756.2	0.000000	0.000000	7.053172	-0.054795	NaN	0.000000	0.001571	0.001803	28.0813	0.010846	0.002081	5.211408	-30.5905	15.2362	-0.141168	1.052384	-0.062201	-0.063568	-0.054795	5.211408	-0.054315	-0.122899	0.445853	NaN
536	1.000000	1.063749	7.3703e+06	-50289.1	1005.82	-29756.2	0.000000	0.000000	7.063168	-0.087777	NaN	0.000000	0.001564	0.001775	28.0813	0.114520	0.002145	53.378	172.071	-163.268	-0.077794	1.062442	-0.052203	-0.053510	-0.087777	53.378	-0.050970	-0.097612	0.899240	NaN
536	1.000000	1.073752	7.3703e+06	-50289.1	1005.82	-29756.2	0.000000	0.000000	7.073176	0.039710	NaN	0.000000	0.001613	0.001792	28.0811	0.112026	0.001986	56.4037	142.943	13.6753	0.063880	1.072362	-0.042200	-0.043590	0.039710	56.4037	-0.042728	-0.054767	-0.725076	NaN
536	1.000000	1.083739	7.3703e+06	-50289.1	1005.82	-29756.2	0.000000	0.000000	7.083163	0.041026	NaN	0.000000	0.001567	0.001795	28.0796	0.123214	0.002035	60.5409	-104.597	-163.498	-0.012519	1.082469	-0.032213	-0.033483	0.041026	60.5409	-0.032721	-0.027485	-1.492703	NaN
536	1.000000	1.093763	7.3703e+06	-50289.1	1005.82	-29756.2	0.000000	0.000000	7.093186	-0.000892	NaN	0.000000	0.001565	0.001772	28.0799	0.057356	0.001927	29.7639	-179.792	15.3718	-0.001076	1.092477	-0.022189	-0.023476	-0.000892	29.7639	-0.022166	-0.014259	0.062566	NaN
536	1.000000	1.103767	7.3703e+06	-50289.1	1005.82	-29756.2	0.000000	0.000000	7.103193	0.081751	NaN	0.000000	0.001575	0.001805	28.0798	0.054901	0.001927	28.4944	144.234	-167.217	0.037810	1.102419	-0.012185	-0.013533	0.081751	28.4944	-0.014337	-0.008881	-9.204688	NaN
536	1.000000	1.113756	7.3703e+06	-50289.1	1005.82	-29756.2	0.000000	0.000000	7.113211	0.799742	NaN	0.000000	0.001564	0.001819	28.0799	1.395509	0.001835	760.654	9.316523	10.3199	0.186872	1.112387	-0.002196	-0.003565	0.799742	760.654	-0.002984	-0.002110	-379.003	NaN
536	2.000000	1.122358	7.3703e+06	-50289.1	1005.82	-29756.2	0.000000	0.000000	7.122120	8.278181	NaN	0.000000	0.001560	0.001789	28.08	9.323886	0.001777	5247.86	8.257549	-169.636	8.448334	1.121940	0.006406	0.005988	8.278181	5247.86	0.005222	0.004337	1908.6	72802.4
536	2.000000	1.124848	7.3703e+06	-50289.1	1005.82	-29756.2	0.000000	0.000000	7.124773	12.2116	NaN	0.000000	0.001573	0.001795	28.08	11.7854	0.001655	7120.07	9.505578	3.492446	11.0269	1.124425	0.008896	0.008473	12.2116	7120.07	0.007610	0.006644	1838.04	79808.3
536	2.000000	1.127296	7.3703e+06	-50289.1	1005.82	-29756.2	0.000000	0.000000	7.127340	15.1158	NaN	0.000000	0.001536	0.001788	28.0799	14.0891	0.001659	8493.36	5.938525	-172.804	14.6468	1.127011	0.011344	0.011059	15.1158	8493.36	0.010010	0.009192	1644.43	80936.5
536	2.000000	1.129801	7.3703e+06	-50289.1	1005.82	-29756.2	0.000000	0.000000	7.129968	18.0959	NaN	0.000000	0.001532	0.001816	28.08	17.2721	0.001703	10140.7	10.6472	-0.040762	17.6181	1.129469	0.013849	0.013517	18.0959	10140.7	0.012511	0.012108	1494.55	84199.3
536	2.000000	1.132295	7.3703e+06	-50289.1	1005.82	-29756.2	0.000000	0.000000	7.132716	24.2889	NaN	0.000000	0.001576	0.001812	28.0801	19.5512	0.001713	11415.5	5.430655	-175.387	24.885	1.131943	0.016343	0.015991	24.2889	11415.5	0.014747	0.014949	1624.77	85301.8
536	2.000000	1.134782	7.3703e+06	-50289.1	1005.82	-29756.2	0.000000	0.000000	7.135405	29.1951	NaN	0.000000	0.001558	0.001821	28.0801	22.5276	0.001792	12571	7.975926	0.905014	27.101	1.134432	0.018830	0.018479	29.1951	12571	0.017088	0.018172	1606.61	85201
536	2.000000	1.137208	7.3703e+06	-50289.1	1005.82	-29756.2	0.000000	0.000000	7.138066	34.897	NaN	0.000000	0.001544	0.001875	28.0799	24.9109	0.001714	14533.9	7.319185	179.001	32.5676	1.136988	0.021256	0.021036	34.897	14533.9	0.019455	0.021694	1608.61	90154.6
536	2.000000	1.139747	7.3703e+06	-50289.1	1005.82	-29756.2	0.000000	0.000000	7.140918	42.5113	NaN	0.000000	0.001579	0.001864	28.08	27.658	0.001804	15328	5.794690	1.764527	41.6912	1.139386	0.023795	0.023434	42.5113	15328	0.021715	0.025309	1679.66	88027.1
536	2.000000	1.142199	7.3703e+06	-50289.1	1005.82	-29756.2	0.000000	0.000000	7.143657	49.4855	NaN	0.000000	0.001559	0.001795	28.0802	29.9351	0.001775	16863.9	1.066050	-175.332	46.8345	1.141988	0.026247	0.026036	49.4855	16863.9	0.024047	0.029304	1688.7	90005.2
536	2.000000	1.144779	7.3703e+06	-50289.1	1005.82	-29756.2	0.000000	0.000000	7.146605	58.45	NaN	0.000000	0.001537	0.001789	28.0803	32.6215	0.001823	17890.4	6.004448	0.196548	57.6212	1.144402	0.028827	0.028450	58.45	17890.4	0.026377	0.033568	1741.24	89213.7
536	2.000000	1.147186	7.3703e+06	-50289.1	1005.82	-29756.2	0.000000	0.000000	7.149376	67.2991	NaN	0.000000	0.001539	0.001795	28.0811	34.6976	0.001746	19874.4	4.393763	-179.913	65.471	1.146938	0.031234	0.030986	67.2991	19874.4	0.028694	0.038080	1767.29	93049.8
536	2.000000	1.149724	7.3703e+06	-50289.1	1005.82	-29756.2	0.000000	0.000000	7.152292	76.4965	NaN	0.000000	0.001587	0.001833	28.0813	37.7613	0.001650	22889	7.102818	-4.254215	74.8776	1.149412	0.033772	0.033460	76.4965	22889	0.031265	0.043406	1762.33	100375
536	2.000000	1.152218	7.3703e+06	-50289.1	1005.82	-29756.2	0.000000	0.000000	7.155092	83.9374	NaN	0.000000	0.001564	0.001788	28.0814	41.0701	0.001868	21987.3	3.203679	-179.618	81.7871	1.152006	0.036266	0.036054	83.9374	21987.3	0.033403	0.048093	1745.32	91602
536	2.000000	1.154781	7.3703e+06	-50289.1	1005.82	-29756.2	0.000000	0.000000	7.158148	95.928	NaN	0.000000	0.001609	0.001771	28.0815	42.1871	0.001657	25455.6	4.088054	-1.143329	95.5104	1.154369	0.038829	0.038417	95.928	25455.6	0.036003	0.054106	1772.95	99984.4
536	2.000000	1.157226	7.3703e+06	-50289.1	1005.82	-29756.2	0.000000	0.000000	7.161053	107.115	NaN	0.000000	0.001612	0.001768	28.0814	44.3384	0.001811	24479.2	0.408346	-177.787	104.994	1.156912	0.041274	0.040960	107.115	24479.2	0.037992	0.058941	1817.32	92121.6
536	2.000000	1.159783	7.3703e+06	-50289.1	1005.82	-29756.2	0.000000	0.000000	7.164025	117.185	NaN	0.000000	0.001566	0.001785	28.0812	48.2866	0.001933	24986	8.654129	-5.053122	119.29	1.159306	0.043831	0.043354	117.185	24986	0.040314	0.064842	1807.25	89648.5
536	2.000000	1.162177	7.3703e+06	-50289.1	1005.82	-29756.2	0.000000	0.000000	7.166896	128.81	NaN	0.000000	0.001556	0.001795	28.0824	49.5861	0.001809	27404.4	3.152269	178.734	125.929	1.161865	0.046225	0.045913	128.81	27404.4	0.042700	0.071192	1809.35	93838.2
536	2.000000	1.164790	7.3703e+06	-50289.1	1005.82	-29756.2	0.000000	0.000000	7.169858	137.298	NaN	0.000000	0.001559	0.001790	28.0815	52.1828	0.001716	30401.5	8.704898	-6.783105	139.142	1.164343	0.048838	0.048391	137.298	30401.5	0.045451	0.078872	1740.76	98902.1
536	2.000000	1.167172	7.3703e+06	-50289.1	1005.82	-29756.2	0.000000	0.000000	7.172725	149.076	NaN	0.000000	0.001566	0.001776	28.0812	53.6984	0.001695	31679.3	2.067771	178.567	146.479	1.166941	0.051220	0.050989	149.076	31679.3	0.047691	0.085410	1745.42	99036.3
536	2.000000	1.169701	7.3703e+06	-50289.1	1005.82	-29756.2	0.000000	0.000000	7.175629	158.202	NaN	0.000000	0.001587	0.001795	28.0812	57.4738	0.001732	33174.9	9.077271	-9.405793	156.237	1.169373	0.053749	0.053421	158.202	33174.9	0.050173	0.092948	1702.05	99417.6
536	2.000000	1.172157	7.3703e+06	-50289.1	1005.82	-29756.2	0.000000	0.000000	7.178692	172.964	NaN	0.000000	0.001590	0.001791	28.0812	60.2214	0.001837	32779.1	5.236215	174.52	168.684	1.171853	0.056205	0.055900	172.964	32779.1	0.052247	0.099486	1738.58	94949.1
536	2.000000	1.174740	7.3703e+06	-50289.1	1005.82	-29756.2	0.000000	0.000000	7.181786	185.402	NaN	0.000000	0.001624	0.001802	28.0812	61.0403	0.001808	33760.8	2.240277	-1.147281	184.158	1.174337	0.058788	0.058384	185.402	33760.8	0.054669	0.107389	1726.45	94125.4
536	2.000000	1.177177	7.3703e+06	-50289.1	1005.82	-29756.2	0.000000	0.000000	7.184557	193.505	NaN	0.000000	0.001584	0.001805	28.0812	64.2533	0.001931	33273.1	5.051011	175.122	190.941	1.176909	0.061225	0.060957	193.505	33273.1	0.056863	0.114801	1685.57	89721
536	2.000000	1.179649	7.3703e+06	-50289.1	1005.82	-29756.2	0.000000	0.000000	7.187517	205.394	NaN	0.000000	0.001603	0.001838	28.0803	65.1213	0.001849	35219.3	2.740190	-3.044096	199.18	1.179316	0.063697	0.063364	205.394	35219.3	0.059323	0.123391	1664.57	91603.4
536	2.000000	1.182125	7.3703e+06	-50289.1	1005.82	-29756.2	0.000000	0.000000	7.190565	219.295	NaN	0.000000	0.001566	0.001785	28.0799	67.6947	0.001812	37365.6	4.992989	173.899	215.461	1.181961	0.066173	0.066009	219.295	37365.6	0.061771	0.132236	1658.36	93879.2
536	2.000000	1.184654	7.3703e+06	-50289.1	1005.82	-29756.2	0.000000	0.000000	7.194010	241.57	NaN	0.000000	0.001597	0.001795	28.08	68.851	0.001783	38611.6	5.219774	-5.784696	236.771	1.184309	0.068702	0.068357	241.57	38611.6	0.064009	0.140577	1718.42	94088
536	2.000000	1.187214	7.3703e+06	-50289.1	1005.82	-29756.2	0.000000	0.000000	7.196965	251.192	NaN	0.000000	0.001586	0.001791	28.0797	71.3985	0.001762	40521	6.592623	172.251	252.534	1.186962	0.071262	0.071010	251.192	40521	0.066612	0.150581	1668.16	95404.5
536	2.000000	1.189636	7.3703e+06	-50289.1	1005.82	-29756.2	0.000000	0.000000	7.200188	270.663	NaN	0.000000	0.001577	0.001799	28.0799	72.6933	0.001615	45016.4	2.821786	-4.295729	264.358	1.189180	0.073684	0.073228	270.663	45016.4	0.069175	0.160746	1683.79	102583
536	2.000000	1.192210	7.3703e+06	-50289.1	1005.82	-29756.2	0.000000	0.000000	7.203064	277.998	NaN	0.000000	0.001576	0.001825	28.0796	77.5158	0.001759	44071.1	3.801458	174.004	278.233	1.191993	0.076258	0.076041	277.998	44071.1	0.071527	0.170353	1631.89	97555.4
536	2.000000	1.194811	7.3703e+06	-50289.1	1005.82	-29756.2	0.000000	0.000000	7.206442	296.908	NaN	0.000000	0.001606	0.001830	28.0798	78.8946	0.001676	47064.8	2.956676	-5.362467	299.016	1.194492	0.078859	0.078540	296.908	47064.8	0.074127	0.181281	1637.83	100993
536	2.000000	1.197190	7.3703e+06	-50289.1	1005.82	-29756.2	0.000000	0.000000	7.209603	315.909	NaN	0.000000	0.001619	0.001791	28.0797	81.8792	0.001834	44639.4	3.783581	173.96	314.176	1.196846	0.081238	0.080894	315.909	44639.4	0.075930	0.189045	1671.07	93801.3
536	2.000000	1.199562	7.3703e+06	-50289.1	1005.82	-29756.2	0.000000	0.000000	7.212533	329.471	NaN	0.000000	0.001623	0.001780	28.0802	83.9717	0.001853	45325.7	5.982905	-8.169982	321.376	1.199287	0.083610	0.083335	329.471	45325.7	0.078158	0.198848	1656.89	92866
536	2.000000	1.202207	7.3703e+06	-50289.1	1005.82	-29756.2	0.000000	0.000000	7.215896	346.947	NaN	0.000000	0.001609	0.001812	28.0797	86.1423	0.001757	49025.1	4.612438	172.919	347.667	1.201935	0.086255	0.085983	346.947	49025.1	0.080947	0.211449	1640.81	97406.7
536	2.000000	1.204697	7.3703e+06	-50289.1	1005.82	-29756.2	0.000000	0.000000	7.219340	370.133	NaN	0.000000	0.001594	0.001786	28.0798	87.5963	0.001785	49072.6	3.650074	-5.586565	367.559	1.204288	0.088745	0.088336	370.133	49072.6	0.083088	0.221366	1672.04	95292.1
536	2.000000	1.207185	7.3703e+06	-50289.1	1005.82	-29756.2	0.000000	0.000000	7.222316	382.003	NaN	0.000000	0.001594	0.001834	28.0799	90.4179	0.001793	50430.1	6.061906	171.311	384.611	1.206893	0.091233	0.090941	382.003	50430.1	0.085552	0.233043	1639.2	95443.1
536	2.000000	1.209562	7.3703e+06	-50289.1	1005.82	-29756.2	0.000000	0.000000	7.225528	402.324	NaN	0.000000	0.001601	0.001799	28.0798	92.7697	0.001791	51787.1	4.300514	-7.391967	393.761	1.209219	0.093610	0.093267	402.324	51787.1	0.087783	0.243857	1649.84	95813.6
536	2.000000	1.212331	7.3703e+06	-50289.1	1005.82	-29756.2	0.000000	0.000000	7.228848	415.7	NaN	0.000000	0.001632	0.001799	28.0796	96.9707	0.001746	55530.2	7.606124	169.336	425.005	1.211943	0.096379	0.095991	415.7	55530.2	0.090765	0.258666	1607.09	99754.5
536	2.000000	1.214594	7.3703e+06	-50289.1	1005.82	-29756.2	0.000000	0.000000	7.232578	451.382	NaN	0.000000	0.001617	0.001803	28.0812	96.8769	0.001818	53296.4	2.949830	-4.946937	444.389	1.214281	0.098642	0.098329	451.382	53296.4	0.092290	0.266400	1694.38	94341.6
536	2.000000	1.217168	7.3703e+06	-50289.1	1005.82	-29756.2	0.000000	0.000000	7.235938	470.5	NaN	0.000000	0.001627	0.001795	28.0813	98.7292	0.001766	55894.3	2.912093	173.963	471.39	1.216722	0.101216	0.100770	470.5	55894.3	0.094903	0.279898	1680.97	96525.3
536	2.000000	1.219669	7.3703e+06	-50289.1	1005.82	-29756.2	0.000000	0.000000	7.239299	491.407	NaN	0.000000	0.001570	0.001793	28.0811	101.727	0.001821	55854.1	2.447205	-5.671028	491.31	1.219324	0.103717	0.103372	491.407	55854.1	0.097119	0.291585	1685.29	94502.9
536	2.000000	1.220072	7.3703e+06	-50289.1	1005.82	-29756.2	0.000000	0.000000	7.239992	498.469	NaN	0.000000	0.001576	0.001777	28.0812	100.899	0.001807	55824.7	-0.559848	177.561	492.32	1.219785	0.104120	0.103833	498.469	55824.7	0.097423	0.293208	1700.05	94191.5