File: remote_trans/data/nanoindenter/0828-1/data/Data_2025-08-06,11h17m57s/2025-07-22_16-23-58_1_361.txt
2025-07-22, 16:23:58, 1
Index	Phase	Displacement	Time	Pos X	Pos Y	Pos Z	Rot A	Rot B	Piezo Z	Force A	Force B	Gripper	Voltage A	Voltage B	Temperature	Amplitude force	Amplitude pos	Stiffness	Phase shift	Phase excitation	Force A raw	Displacement raw	HMax	HMax raw	Real Force	Real Stiffness	Contact Depth	Area	Hardness	Reduced Mod.
[#]	[#]	[um]	[s]	[um]	[um]	[um]	[m°]	[m°]	[um]	[uN]	[uN]	[V]	[V]	[V]	[°C]	[uN]	[um]	[N/m]	[°]	[°]	[uN]	[um]	[um]	[um]	[uN]	[N/m]	[um]	[um^2]	[MPa]	[MPa]
361	1.000000	0.002527	7.36859e+06	-56689.1	955.818	-29738.1	0.000000	0.000000	6.002797	0.000184	NaN	0.000000	0.001670	0.001752	28.0798	0.012655	0.000783	16.1562	-168.834	-163.935	-0.002142	0.001230	-1.714764	-1.716061	0.000184	16.1562	-1.714773	-7.992252E+22	-2.303828E-27	NaN
361	1.000000	0.014544	7.36859e+06	-56689.1	955.818	-29738	0.000000	0.000000	6.014812	-0.052439	NaN	0.000000	0.001661	0.001716	28.0796	0.103059	0.001767	58.3241	161.171	-161.661	-0.001873	0.013337	-1.702748	-1.703955	-0.052439	58.3241	-1.702073	-5.419743E+22	9.675485E-25	NaN
361	1.000000	0.026492	7.36859e+06	-56689.1	955.819	-29738	0.000000	0.000000	6.026760	-0.030995	NaN	0.000000	0.001617	0.001670	28.0798	0.020256	0.001872	10.8218	89.862	-162.002	-0.033753	0.025158	-1.690800	-1.692134	-0.030995	10.8218	-1.688652	-3.594824E+22	8.622135E-25	NaN
361	1.000000	0.038484	7.36859e+06	-56689.1	955.818	-29738	0.000000	0.000000	6.038756	0.035390	NaN	0.000000	0.001568	0.001675	28.0796	0.112041	0.001932	57.9872	-69.9006	-167.565	0.023101	0.037162	-1.678808	-1.680130	0.035390	57.9872	-1.679265	-2.697497E+22	-1.311945E-24	NaN
361	1.000000	0.050466	7.36859e+06	-56689.1	955.817	-29738	0.000000	0.000000	6.050736	-0.015315	NaN	0.000000	0.001560	0.001660	28.0796	0.082801	0.002129	38.8831	-6.827114	-164.657	0.014029	0.049114	-1.666825	-1.668178	-0.015315	38.8831	-1.666530	-1.826942E+22	8.382807E-25	NaN
361	1.000000	0.062481	7.36859e+06	-56689.1	955.818	-29738	0.000000	0.000000	6.062750	-0.030151	NaN	0.000000	0.001539	0.001672	28.0795	0.075488	0.002115	35.6852	57.7321	-164.163	-0.072125	0.061140	-1.654810	-1.656152	-0.030151	35.6852	-1.654177	-1.251828E+22	2.408576E-24	NaN
361	1.000000	0.074503	7.36859e+06	-56689.1	955.817	-29738	0.000000	0.000000	6.074774	0.021086	NaN	0.000000	0.001582	0.001633	28.0794	0.109151	0.002030	53.7737	79.4161	-166.07	0.042758	0.073167	-1.642789	-1.644124	0.021086	53.7737	-1.643083	-8.914193E+21	-2.365408E-24	NaN
361	1.000000	0.086515	7.36859e+06	-56689.1	955.819	-29738	0.000000	0.000000	6.086782	-0.074252	NaN	0.000000	0.001557	0.001672	28.0794	0.017359	0.002000	8.677816	-108.644	-166.779	-0.076098	0.085190	-1.630776	-1.632102	-0.074252	8.677816	-1.624359	-5.025225E+21	1.477586E-23	NaN
361	1.000000	0.098498	7.36859e+06	-56689.1	955.818	-29738	0.000000	0.000000	6.098767	-0.018872	NaN	0.000000	0.001572	0.001656	28.0784	0.098406	0.002122	46.3832	-4.923925	-162.998	-0.003184	0.097198	-1.618794	-1.620094	-0.018872	46.3832	-1.618489	-4.198611E+21	4.494714E-24	NaN
361	1.000000	0.110495	7.36859e+06	-56689.1	955.818	-29738	0.000000	0.000000	6.110768	0.076838	NaN	0.000000	0.001580	0.001695	28.0785	0.030431	0.001987	15.3161	71.7287	-168.916	0.021716	0.109208	-1.606797	-1.608084	0.076838	15.3161	-1.610560	-3.293530E+21	-2.332988E-23	NaN
361	1.000000	0.122515	7.36859e+06	-56689.1	955.818	-29738	0.000000	0.000000	6.122784	-0.038774	NaN	0.000000	0.001564	0.001711	28.0786	0.090878	0.001949	46.6273	-96.94	-164.49	-0.003226	0.121239	-1.594776	-1.596052	-0.038774	46.6273	-1.594153	-1.992744E+21	1.945771E-23	NaN
361	1.000000	0.134509	7.36859e+06	-56689.1	955.819	-29738	0.000000	0.000000	6.134780	0.019337	NaN	0.000000	0.001576	0.001678	28.0784	0.133879	0.001914	69.9311	-130.092	-169.394	0.024118	0.133206	-1.582783	-1.584086	0.019337	69.9311	-1.582990	-1.415688E+21	-1.365884E-23	NaN
361	1.000000	0.146552	7.36859e+06	-56689.1	955.818	-29738	0.000000	0.000000	6.146823	0.034478	NaN	0.000000	0.001567	0.001719	28.0785	0.080258	0.001908	42.0629	16.2819	-163.397	0.007544	0.145156	-1.570740	-1.572135	0.034478	42.0629	-1.571355	-9.912075E+20	-3.478373E-23	NaN
361	1.000000	0.158535	7.36859e+06	-56689.1	955.819	-29738	0.000000	0.000000	6.158805	0.009132	NaN	0.000000	0.001584	0.001705	28.0783	0.054571	0.002036	26.8037	-45.5607	-165.363	-0.016138	0.157199	-1.558757	-1.560093	0.009132	26.8037	-1.559013	-6.791055E+20	-1.344698E-23	NaN
361	1.000000	0.170532	7.36859e+06	-56689.1	955.819	-29738	0.000000	0.000000	6.170801	-0.005225	NaN	0.000000	0.001597	0.001725	28.0783	0.048635	0.001965	24.7464	48.3811	-164.729	0.068792	0.169207	-1.546760	-1.548085	-0.005225	24.7464	-1.546602	-4.642655E+20	1.125392E-23	NaN
361	1.000000	0.182535	7.36859e+06	-56689.1	955.818	-29738	0.000000	0.000000	6.182803	-0.053637	NaN	0.000000	0.001574	0.001708	28.0784	0.058956	0.002067	28.5223	48.074	-165.826	0.004428	0.181242	-1.534757	-1.536050	-0.053637	28.5223	-1.533346	-3.092631E+20	1.734349E-22	NaN
361	1.000000	0.194534	7.36859e+06	-56689.1	955.819	-29738	0.000000	0.000000	6.194805	0.037204	NaN	0.000000	0.001584	0.001682	28.0785	0.066713	0.001965	33.9424	-166.838	-164.648	-0.137351	0.193233	-1.522758	-1.524058	0.037204	33.9424	-1.523580	-2.292495E+20	-1.622865E-22	NaN
361	1.000000	0.206536	7.36859e+06	-56689.1	955.819	-29738	0.000000	0.000000	6.206807	0.025820	NaN	0.000000	0.001577	0.001681	28.0787	0.063442	0.002055	30.8748	-100.658	-161.995	0.039681	0.205228	-1.510755	-1.512063	0.025820	30.8748	-1.511383	-1.577240E+20	-1.637031E-22	NaN
361	1.000000	0.218555	7.36859e+06	-56689.1	955.818	-29738	0.000000	0.000000	6.218827	0.026458	NaN	0.000000	0.001606	0.001720	28.0782	0.049228	0.002058	23.9232	103.666	-164.919	-0.052569	0.217211	-1.498736	-1.500081	0.026458	23.9232	-1.499566	-1.097816E+20	-2.410048E-22	NaN
361	1.000000	0.230545	7.36859e+06	-56689.1	955.818	-29738	0.000000	0.000000	6.230813	-0.059100	NaN	0.000000	0.001634	0.001693	28.0795	0.036611	0.001917	19.094	17.1405	-165.779	-0.009838	0.229243	-1.486746	-1.488049	-0.059100	19.094	-1.484425	-6.900105E+19	8.565098E-22	NaN
361	1.000000	0.242581	7.36859e+06	-56689.1	955.819	-29738	0.000000	0.000000	6.242852	0.025325	NaN	0.000000	0.001595	0.001704	28.0796	0.068713	0.001960	35.0606	-27.0283	-161.521	0.025705	0.241242	-1.474711	-1.476050	0.025325	35.0606	-1.475253	-5.207871E+19	-4.862769E-22	NaN
361	1.000000	0.254563	7.36859e+06	-56689.1	955.817	-29738	0.000000	0.000000	6.254831	-0.034368	NaN	0.000000	0.001618	0.001703	28.0793	0.043518	0.002023	21.515	122.6	-166.96	0.036021	0.253260	-1.462729	-1.464032	-0.034368	21.515	-1.461531	-3.418384E+19	1.005400E-21	NaN
361	1.000000	0.266574	7.36859e+06	-56689.1	955.818	-29738	0.000000	0.000000	6.266845	0.019278	NaN	0.000000	0.001609	0.001705	28.0795	0.055686	0.001986	28.0336	93.365	-167.028	-0.011948	0.265255	-1.450718	-1.452036	0.019278	28.0336	-1.451233	-2.492216E+19	-7.735468E-22	NaN
361	1.000000	0.278550	7.36859e+06	-56689.1	955.818	-29738	0.000000	0.000000	6.278823	0.058641	NaN	0.000000	0.001632	0.001713	28.0793	0.123478	0.002052	60.1654	141.058	-164.919	0.024557	0.277270	-1.438742	-1.440022	0.058641	60.1654	-1.439473	-1.737098E+19	-3.375821E-21	NaN
361	1.000000	0.290583	7.36859e+06	-56689.1	955.818	-29738	0.000000	0.000000	6.290851	-0.046853	NaN	0.000000	0.001593	0.001703	28.0795	0.112857	0.001877	60.1177	117.531	-161.778	-0.024037	0.289272	-1.426709	-1.428020	-0.046853	60.1177	-1.426124	-1.153091E+19	4.063227E-21	NaN
361	1.000000	0.302577	7.36859e+06	-56689.1	955.819	-29738	0.000000	0.000000	6.302845	-0.045461	NaN	0.000000	0.001645	0.001697	28.0793	0.064057	0.002040	31.3934	10.8011	-163.822	-0.111933	0.301296	-1.414715	-1.415996	-0.045461	31.3934	-1.413629	-7.856757E+18	5.786181E-21	NaN
361	1.000000	0.314570	7.36859e+06	-56689.1	955.818	-29738	0.000000	0.000000	6.314840	0.015236	NaN	0.000000	0.001577	0.001702	28.0793	0.044410	0.002016	22.0318	168.472	-165.511	0.071940	0.313275	-1.402722	-1.404016	0.015236	22.0318	-1.403241	-5.710739E+18	-2.667879E-21	NaN
361	1.000000	0.326622	7.36859e+06	-56689.1	955.818	-29738	0.000000	0.000000	6.326890	-0.058237	NaN	0.000000	0.001541	0.001728	28.0794	0.056117	0.002039	27.5279	50.8084	-160.939	-0.068426	0.325283	-1.390669	-1.392009	-0.058237	27.5279	-1.389083	-3.696785E+18	1.575341E-20	NaN
361	1.000000	0.338566	7.36859e+06	-56689.1	955.818	-29738	0.000000	0.000000	6.338835	-0.020567	NaN	0.000000	0.001583	0.001723	28.0796	0.044180	0.002026	21.8073	-3.667719	-164.49	-0.131140	0.337293	-1.378726	-1.379999	-0.020567	21.8073	-1.378019	-2.631491E+18	7.815852E-21	NaN
361	1.000000	0.350586	7.36859e+06	-56689.1	955.819	-29738	0.000000	0.000000	6.350855	-0.023573	NaN	0.000000	0.001567	0.001708	28.0795	0.047699	0.001968	24.2324	75.9257	-164.367	-0.005314	0.349288	-1.366705	-1.368004	-0.023573	24.2324	-1.365976	-1.817542E+18	1.296958E-20	NaN
361	1.000000	0.362597	7.36859e+06	-56689.1	955.82	-29738	0.000000	0.000000	6.362864	-0.063400	NaN	0.000000	0.001562	0.001720	28.0794	0.052217	0.002050	25.4668	36.9711	-165.577	0.029628	0.361283	-1.354695	-1.356009	-0.063400	25.4668	-1.352828	-1.213341E+18	5.225201E-20	NaN
361	1.000000	0.374647	7.36859e+06	-56689.1	955.819	-29738	0.000000	0.000000	6.374916	-0.013005	NaN	0.000000	0.001588	0.001727	28.0781	0.108873	0.002040	53.3691	150.703	-161.345	0.011347	0.373294	-1.342645	-1.343998	-0.013005	53.3691	-1.342462	-8.822476E+17	1.474035E-20	NaN
361	1.000000	0.386590	7.36859e+06	-56689.1	955.818	-29738	0.000000	0.000000	6.386863	0.050132	NaN	0.000000	0.001617	0.001765	28.0784	0.063227	0.002126	29.7361	-158.379	-164.345	-0.005169	0.385337	-1.330701	-1.331955	0.050132	29.7361	-1.331966	-6.388837E+17	-7.846889E-20	NaN
361	1.000000	0.398604	7.36859e+06	-56689.1	955.818	-29738	0.000000	0.000000	6.398873	-0.031632	NaN	0.000000	0.001560	0.001759	28.0782	0.078525	0.002041	38.4688	-17.1483	-163.305	-0.135215	0.397284	-1.318687	-1.320008	-0.031632	38.4688	-1.318071	-4.167098E+17	7.590952E-20	NaN
361	1.000000	0.410618	7.36859e+06	-56689.1	955.818	-29738	0.000000	0.000000	6.410890	0.047777	NaN	0.000000	0.001548	0.001695	28.0781	0.067829	0.001919	35.3394	1.385936	-165.091	0.037577	0.409336	-1.306674	-1.307956	0.047777	35.3394	-1.307688	-3.027749E+17	-1.577956E-19	NaN
361	1.000000	0.422636	7.36859e+06	-56689.1	955.818	-29738	0.000000	0.000000	6.422904	-0.058966	NaN	0.000000	0.001569	0.001714	28.078	0.102393	0.002237	45.7655	-149.789	-165.642	-0.076009	0.421348	-1.294656	-1.295943	-0.058966	45.7655	-1.293689	-1.968171E+17	2.995996E-19	NaN
361	1.000000	0.434627	7.36859e+06	-56689.1	955.818	-29738	0.000000	0.000000	6.434896	-0.019938	NaN	0.000000	0.001610	0.001739	28.0783	0.007527	0.002076	3.625678	-85.5286	-167.346	-0.052186	0.433301	-1.282665	-1.283990	-0.019938	3.625678	-1.278540	-1.234731E+17	1.614750E-19	NaN
361	1.000000	0.446641	7.36859e+06	-56689.1	955.818	-29738	0.000000	0.000000	6.446913	0.034138	NaN	0.000000	0.001604	0.001777	28.078	0.084031	0.001828	45.9574	-15.7928	-166.535	0.030328	0.445359	-1.270650	-1.271933	0.034138	45.9574	-1.271207	-9.852260E+16	-3.464953E-19	NaN
361	1.000000	0.458647	7.36859e+06	-56689.1	955.819	-29738	0.000000	0.000000	6.458916	-0.039398	NaN	0.000000	0.001599	0.001740	28.078	0.121345	0.002073	58.5301	-33.9055	-164.604	-0.026987	0.457321	-1.258644	-1.259970	-0.039398	58.5301	-1.258140	-6.588545E+16	5.979753E-19	NaN
361	1.000000	0.470629	7.36859e+06	-56689.1	955.818	-29738	0.000000	0.000000	6.470899	-0.008178	NaN	0.000000	0.001564	0.001724	28.0786	0.039567	0.001941	20.3881	132.75	-165.999	-0.073487	0.469356	-1.246663	-1.247935	-0.008178	20.3881	-1.246362	-4.584118E+16	1.783965E-19	NaN
361	1.000000	0.482666	7.36859e+06	-56689.1	955.818	-29738	0.000000	0.000000	6.482939	0.064772	NaN	0.000000	0.001593	0.001710	28.0784	0.041530	0.001995	20.8193	-126.081	-162.272	-0.077186	0.481356	-1.234625	-1.235936	0.064772	20.8193	-1.236959	-3.431257E+16	-1.887705E-18	NaN
361	1.000000	0.494657	7.36859e+06	-56689.1	955.819	-29738	0.000000	0.000000	6.494927	0.000262	NaN	0.000000	0.001619	0.001733	28.0784	0.055454	0.002078	26.6845	110.959	-168.741	-0.010418	0.493360	-1.222634	-1.223931	0.000262	26.6845	-1.222642	-2.207310E+16	-1.186036E-20	NaN
361	1.000000	0.506670	7.36859e+06	-56689.1	955.818	-29738	0.000000	0.000000	6.506941	0.015970	NaN	0.000000	0.001566	0.001768	28.0794	0.064883	0.002113	30.7001	-104.955	-165.018	0.007535	0.505373	-1.210622	-1.211919	0.015970	30.7001	-1.211012	-1.542374E+16	-1.035438E-18	NaN
361	1.000000	0.518671	7.36859e+06	-56689.1	955.818	-29738	0.000000	0.000000	6.518940	-0.024841	NaN	0.000000	0.001572	0.001716	28.0795	0.049632	0.002080	23.8563	-162.276	-164.806	-0.081146	0.517367	-1.198621	-1.199925	-0.024841	23.8563	-1.197840	-1.027588E+16	2.417379E-18	NaN
361	1.000000	0.530697	7.36859e+06	-56689.1	955.818	-29738	0.000000	0.000000	6.530966	-0.045990	NaN	0.000000	0.001592	0.001719	28.0794	0.074651	0.002196	34.0003	102.816	-163.244	-0.012827	0.529411	-1.186594	-1.187881	-0.045990	34.0003	-1.185580	-7.040757E+15	6.531958E-18	NaN
361	1.000000	0.542689	7.36859e+06	-56689.1	955.819	-29738	0.000000	0.000000	6.542958	-0.011859	NaN	0.000000	0.001582	0.001703	28.0794	0.015508	0.002030	7.640321	118.171	-163.987	0.032201	0.541367	-1.174603	-1.175925	-0.011859	7.640321	-1.173439	-4.841342E+15	2.449586E-18	NaN
361	1.000000	0.554694	7.36859e+06	-56689.1	955.819	-29738	0.000000	0.000000	6.554963	-0.028910	NaN	0.000000	0.001573	0.001745	28.0795	0.034413	0.002026	16.9868	102.914	-164.065	-0.046712	0.553412	-1.162597	-1.163880	-0.028910	16.9868	-1.161321	-3.331005E+15	8.678979E-18	NaN
361	1.000000	0.566725	7.36859e+06	-56689.1	955.818	-29738	0.000000	0.000000	6.566997	0.033648	NaN	0.000000	0.001582	0.001749	28.0795	0.040456	0.002014	20.0917	101.817	-164.229	0.060876	0.565379	-1.150566	-1.151913	0.033648	20.0917	-1.151822	-2.484576E+15	-1.354294E-17	NaN
361	1.000000	0.578718	7.36859e+06	-56689.1	955.818	-29738	0.000000	0.000000	6.578989	0.029506	NaN	0.000000	0.001614	0.001713	28.0797	0.039718	0.002112	18.8085	101.375	-162.654	0.054993	0.577432	-1.138574	-1.139860	0.029506	18.8085	-1.139750	-1.711555E+15	-1.723911E-17	NaN
361	1.000000	0.590733	7.36859e+06	-56689.1	955.818	-29738	0.000000	0.000000	6.591001	-0.057216	NaN	0.000000	0.001613	0.001714	28.0794	0.010325	0.001965	5.254546	107.243	-163.618	-0.066336	0.589369	-1.126559	-1.127922	-0.057216	5.254546	-1.118392	-8.849072E+14	6.465767E-17	NaN
361	1.000000	0.602696	7.36859e+06	-56689.1	955.819	-29738	0.000000	0.000000	6.602967	0.021124	NaN	0.000000	0.001633	0.001763	28.0794	0.033633	0.001794	18.7492	57.0897	-162.796	0.033479	0.601427	-1.114596	-1.115864	0.021124	18.7492	-1.115441	-8.077921E+14	-2.615004E-17	NaN
361	1.000000	0.614727	7.36859e+06	-56689.1	955.819	-29738	0.000000	0.000000	6.614994	-0.073104	NaN	0.000000	0.001575	0.001699	28.0796	0.080751	0.002052	39.3534	-179.02	-164.612	-0.125204	0.613411	-1.102565	-1.103881	-0.073104	39.3534	-1.101172	-5.197520E+14	1.406518E-16	NaN
361	1.000000	0.626722	7.36859e+06	-56689.1	955.819	-29738	0.000000	0.000000	6.626994	0.044747	NaN	0.000000	0.001608	0.001712	28.0795	0.062296	0.002028	30.7203	-137.008	-162.702	-0.003975	0.625387	-1.090570	-1.091905	0.044747	30.7203	-1.091662	-3.873714E+14	-1.155133E-16	NaN
361	1.000000	0.638735	7.36859e+06	-56689.1	955.819	-29738	0.000000	0.000000	6.639004	-0.013554	NaN	0.000000	0.001588	0.001689	28.0782	0.037185	0.002096	17.7418	74.9959	-166.402	-0.097170	0.637374	-1.078557	-1.079918	-0.013554	17.7418	-1.077984	-2.537705E+14	5.341010E-17	NaN
361	1.000000	0.650711	7.36859e+06	-56689.1	955.818	-29738	0.000000	0.000000	6.650981	-0.010894	NaN	0.000000	0.001605	0.001706	28.0782	0.030553	0.001945	15.7109	-111.771	-162.633	-0.025476	0.649410	-1.066581	-1.067882	-0.010894	15.7109	-1.066061	-1.754940E+14	6.207471E-17	NaN
361	1.000000	0.662737	7.36859e+06	-56689.1	955.818	-29738	0.000000	0.000000	6.663005	-0.034898	NaN	0.000000	0.001584	0.001667	28.0783	0.102198	0.001983	51.531	-174.425	-164.302	0.001529	0.661410	-1.054555	-1.055881	-0.034898	51.531	-1.054047	-1.210087E+14	2.883912E-16	NaN
361	1.000000	0.674737	7.36859e+06	-56689.1	955.819	-29738	0.000000	0.000000	6.675003	-0.102286	NaN	0.000000	0.001591	0.001687	28.0785	0.061560	0.002037	30.2164	-161.708	-161.86	-0.073240	0.673468	-1.042555	-1.043824	-0.102286	30.2164	-1.040016	-7.837634E+13	1.305057E-15	NaN
361	1.000000	0.686743	7.36859e+06	-56689.1	955.817	-29738	0.000000	0.000000	6.687011	-0.049183	NaN	0.000000	0.001577	0.001712	28.0783	0.059237	0.001951	30.3614	122.902	-164.158	-0.056692	0.685405	-1.030549	-1.031886	-0.049183	30.3614	-1.029334	-5.630138E+13	8.735721E-16	NaN
361	1.000000	0.698756	7.36859e+06	-56689.1	955.819	-29738	0.000000	0.000000	6.699025	-0.049574	NaN	0.000000	0.001604	0.001714	28.0785	0.104408	0.001938	53.8677	50.2155	-164.024	0.032032	0.697454	-1.018535	-1.019838	-0.049574	53.8677	-1.017845	-3.944170E+13	1.256887E-15	NaN
361	1.000000	0.710768	7.36859e+06	-56689.1	955.819	-29738	0.000000	0.000000	6.711039	0.023514	NaN	0.000000	0.001584	0.001714	28.0782	0.057105	0.002032	28.1074	-19.2125	-163.779	-0.075857	0.709448	-1.006523	-1.007844	0.023514	28.1074	-1.007151	-2.831613E+13	-8.304148E-16	NaN
361	1.000000	0.722743	7.36859e+06	-56689.1	955.819	-29738	0.000000	0.000000	6.723010	-0.068241	NaN	0.000000	0.001573	0.001704	28.0787	0.089131	0.001844	48.3264	159.993	-164.817	-0.063555	0.721461	-0.994549	-0.995831	-0.068241	48.3264	-0.993490	-1.854002E+13	3.680724E-15	NaN
361	1.000000	0.734755	7.36859e+06	-56689.1	955.818	-29738	0.000000	0.000000	6.735024	-0.032535	NaN	0.000000	0.001609	0.001728	28.0784	0.064157	0.001892	33.9138	-56.6565	-166.834	0.025864	0.733432	-0.982536	-0.983860	-0.032535	33.9138	-0.981817	-1.290886E+13	2.520375E-15	NaN
361	1.000000	0.746764	7.36859e+06	-56689.1	955.818	-29738	0.000000	0.000000	6.747032	-0.056194	NaN	0.000000	0.001659	0.001735	28.0785	0.063621	0.001991	31.9582	-169.811	-163.406	-0.112142	0.745495	-0.970527	-0.971797	-0.056194	31.9582	-0.969208	-8.729613E+12	6.437169E-15	NaN
361	1.000000	0.758766	7.36859e+06	-56689.1	955.818	-29738	0.000000	0.000000	6.759035	-0.025628	NaN	0.000000	0.001635	0.001749	28.0788	0.042950	0.001988	21.6078	175.248	-166.233	-0.005404	0.757472	-0.958526	-0.959819	-0.025628	21.6078	-0.957636	-6.095336E+12	4.204598E-15	NaN
361	1.000000	0.770776	7.36859e+06	-56689.1	955.817	-29738	0.000000	0.000000	6.771043	-0.064538	NaN	0.000000	0.001613	0.001779	28.0787	0.052350	0.002000	26.1811	33.2731	-164.171	-0.026596	0.769478	-0.946516	-0.947814	-0.064538	26.1811	-0.944667	-4.074755E+12	1.583852E-14	NaN
361	1.000000	0.782792	7.36859e+06	-56689.1	955.819	-29738	0.000000	0.000000	6.783062	0.001177	NaN	0.000000	0.001645	0.001745	28.0799	0.074508	0.001925	38.6972	156.396	-166.406	-0.037248	0.781519	-0.934499	-0.935773	0.001177	38.6972	-0.934522	-2.973206E+12	-3.957563E-16	NaN
361	1.000000	0.794782	7.36859e+06	-56689.1	955.819	-29738	0.000000	0.000000	6.795051	-0.017710	NaN	0.000000	0.001669	0.001730	28.08	0.046558	0.002045	22.7653	156.286	-162.824	-0.079904	0.793456	-0.922510	-0.923836	-0.017710	22.7653	-0.921927	-2.010097E+12	8.810747E-15	NaN
361	1.000000	0.806815	7.36859e+06	-56689.1	955.818	-29738	0.000000	0.000000	6.807085	-0.003254	NaN	0.000000	0.001637	0.001844	28.0798	0.012503	0.001943	6.436179	-178.16	-164.96	-0.066700	0.805467	-0.910477	-0.911825	-0.003254	6.436179	-0.910098	-1.391505E+12	2.338536E-15	NaN
361	1.000000	0.818787	7.36859e+06	-56689.1	955.817	-29738	0.000000	0.000000	6.819056	-0.043877	NaN	0.000000	0.001660	0.001761	28.0798	0.027699	0.002027	13.6624	-73.4454	-165.373	-0.031379	0.817484	-0.898504	-0.899807	-0.043877	13.6624	-0.896096	-9.001285E+11	4.874513E-14	NaN
361	1.000000	0.830791	7.36859e+06	-56689.1	955.82	-29738	0.000000	0.000000	6.831056	-0.123019	NaN	0.000000	0.001595	0.001756	28.0797	0.060046	0.002090	28.7332	168.891	-165.079	-0.164775	0.829517	-0.886501	-0.887774	-0.123019	28.7332	-0.883290	-6.042220E+11	2.035998E-13	NaN
361	1.000000	0.842809	7.36859e+06	-56689.1	955.819	-29738	0.000000	0.000000	6.843078	-0.020915	NaN	0.000000	0.001533	0.001757	28.0808	0.060925	0.001934	31.5051	-42.7799	-164.101	-0.082103	0.841524	-0.874483	-0.875768	-0.020915	31.5051	-0.873985	-4.522216E+11	4.624872E-14	NaN
361	1.000000	0.854839	7.36859e+06	-56689.1	955.819	-29738	0.000000	0.000000	6.855107	-0.046966	NaN	0.000000	0.001603	0.001759	28.0798	0.073487	0.001955	37.5975	18.2426	-164.038	-0.036845	0.853578	-0.862453	-0.863714	-0.046966	37.5975	-0.861516	-3.066491E+11	1.531596E-13	NaN
361	1.000000	0.866824	7.36859e+06	-56689.1	955.82	-29738	0.000000	0.000000	6.867092	-0.042727	NaN	0.000000	0.001559	0.001731	28.08	0.058973	0.002016	29.2584	115.566	-167.863	-0.030346	0.865510	-0.850468	-0.851782	-0.042727	29.2584	-0.849373	-2.100106E+11	2.034496E-13	NaN
361	1.000000	0.878829	7.36859e+06	-56689.1	955.819	-29738	0.000000	0.000000	6.879098	-0.037454	NaN	0.000000	0.001575	0.001693	28.08	0.104819	0.002022	51.8287	-59.1299	-165.849	-0.044705	0.877535	-0.838463	-0.839757	-0.037454	51.8287	-0.837921	-1.469336E+11	2.549032E-13	NaN
361	1.000000	0.890805	7.36859e+06	-56689.1	955.818	-29738	0.000000	0.000000	6.891073	-0.055696	NaN	0.000000	0.001581	0.001722	28.0798	0.021913	0.002115	10.3631	-87.047	-162.979	-0.108158	0.889552	-0.826487	-0.827740	-0.055696	10.3631	-0.822456	-9.067978E+10	6.142055E-13	NaN
361	1.000000	0.902821	7.36859e+06	-56689.1	955.819	-29738	0.000000	0.000000	6.903095	0.111362	NaN	0.000000	0.001610	0.001718	28.08	0.081140	0.001978	41.0124	-116.936	-162.648	0.133617	0.901579	-0.814471	-0.815713	0.111362	41.0124	-0.816507	-7.530889E+10	-1.478733E-12	NaN
361	1.000000	0.914814	7.36859e+06	-56689.1	955.818	-29738	0.000000	0.000000	6.915080	-0.098885	NaN	0.000000	0.001593	0.001652	28.0789	0.045023	0.002018	22.3086	-24.681	-164.251	-0.015386	0.913552	-0.802478	-0.803739	-0.098885	22.3086	-0.799154	-4.378986E+10	2.258181E-12	NaN
361	1.000000	0.926860	7.36859e+06	-56689.1	955.818	-29738	0.000000	0.000000	6.927129	-0.020220	NaN	0.000000	0.001570	0.001754	28.0788	0.085642	0.002033	42.1259	78.3648	-161.262	-0.059935	0.925497	-0.790432	-0.791794	-0.020220	42.1259	-0.790072	-3.296557E+10	6.133637E-13	NaN
361	1.000000	0.938853	7.36859e+06	-56689.1	955.819	-29738	0.000000	0.000000	6.939122	-0.016577	NaN	0.000000	0.001551	0.001751	28.0789	0.053092	0.002046	25.9509	8.518595	-162.183	-0.011476	0.937579	-0.778439	-0.779713	-0.016577	25.9509	-0.777960	-2.256886E+10	7.344969E-13	NaN
361	1.000000	0.950846	7.36859e+06	-56689.1	955.818	-29738	0.000000	0.000000	6.951118	0.046278	NaN	0.000000	0.001629	0.001764	28.0787	0.065403	0.001986	32.9331	135.097	-165.149	-0.067914	0.949555	-0.766445	-0.767737	0.046278	32.9331	-0.767499	-1.626687E+10	-2.844904E-12	NaN
361	1.000000	0.962864	7.3686e+06	-56689.1	955.819	-29738	0.000000	0.000000	6.963132	-0.057823	NaN	0.000000	0.001638	0.001762	28.0788	0.096438	0.001940	49.7141	30.2078	-162.985	-0.033334	0.961527	-0.754427	-0.755765	-0.057823	49.7141	-0.753555	-1.051007E+10	5.501647E-12	NaN
361	1.000000	0.974887	7.3686e+06	-56689.1	955.818	-29738	0.000000	0.000000	6.975156	-0.018482	NaN	0.000000	0.001652	0.001745	28.0785	0.103769	0.001819	57.061	49.5032	-162.064	-0.025166	0.973506	-0.742405	-0.743785	-0.018482	57.061	-0.742162	-7.353555E+9	2.513352E-12	NaN
361	1.000000	0.986856	7.3686e+06	-56689.1	955.818	-29738	0.000000	0.000000	6.987124	-0.033937	NaN	0.000000	0.001635	0.001721	28.0786	0.048619	0.001941	25.0432	-171.861	-165.037	-0.104416	0.985566	-0.730436	-0.731726	-0.033937	25.0432	-0.729420	-4.930602E+9	6.882995E-12	NaN
361	1.000000	0.998855	7.3686e+06	-56689.1	955.819	-29738	0.000000	0.000000	6.999124	-0.015690	NaN	0.000000	0.001644	0.001763	28.0784	0.081289	0.001969	41.2821	-0.969305	-165.457	-0.042490	0.997543	-0.718437	-0.719749	-0.015690	41.2821	-0.718152	-3.461542E+9	4.532540E-12	NaN
361	1.000000	1.010888	7.3686e+06	-56689.1	955.819	-29738	0.000000	0.000000	7.011157	-0.025582	NaN	0.000000	0.001583	0.001720	28.0786	0.028117	0.001891	14.872	-156.123	-166.973	0.033207	1.009548	-0.706404	-0.707744	-0.025582	14.872	-0.705114	-2.298024E+9	1.113230E-11	NaN
361	1.000000	1.022868	7.3686e+06	-56689.1	955.819	-29738	0.000000	0.000000	7.023137	-0.025436	NaN	0.000000	0.001589	0.001729	28.0784	0.089199	0.002019	44.1846	110.169	-164.144	0.015508	1.021556	-0.694424	-0.695736	-0.025436	44.1846	-0.693992	-1.619830E+9	1.570258E-11	NaN
361	1.000000	1.034895	7.3686e+06	-56689.1	955.818	-29738	0.000000	0.000000	7.035163	-0.046489	NaN	0.000000	0.001643	0.001738	28.0786	0.111231	0.002201	50.5403	-129.481	-165.522	0.029286	1.033597	-0.682397	-0.683695	-0.046489	50.5403	-0.681707	-1.100389E+9	4.224746E-11	NaN
361	1.000000	1.046924	7.3686e+06	-56689.1	955.819	-29738	0.000000	0.000000	7.047192	-0.052977	NaN	0.000000	0.001689	0.001715	28.0795	0.010441	0.001878	5.560342	30.2735	-163.177	-0.092200	1.045559	-0.670367	-0.671733	-0.052977	5.560342	-0.663222	-6.146017E+8	8.619682E-11	NaN
361	1.000000	1.058886	7.3686e+06	-56689.1	955.819	-29738	0.000000	0.000000	7.059155	-0.025174	NaN	0.000000	0.001691	0.001762	28.0797	0.023000	0.001942	11.8441	-53.3494	-165.863	-0.039096	1.057626	-0.658406	-0.659666	-0.025174	11.8441	-0.656811	-5.020965E+8	5.013778E-11	NaN
361	1.000000	1.070898	7.3686e+06	-56689.1	955.818	-29738	0.000000	0.000000	7.071166	-0.054120	NaN	0.000000	0.001652	0.001733	28.08	0.122338	0.001973	62.0146	-127.632	-163.214	-0.043471	1.069574	-0.646393	-0.647718	-0.054120	62.0146	-0.645739	-3.540052E+8	1.528804E-10	NaN
361	1.000000	1.082906	7.3686e+06	-56689.1	955.818	-29738	0.000000	0.000000	7.083175	-0.018984	NaN	0.000000	0.001669	0.001702	28.0795	0.074500	0.002080	35.8213	-165.596	-164.739	-0.122921	1.081617	-0.634386	-0.635675	-0.018984	35.8213	-0.633989	-2.442245E+8	7.773004E-11	NaN
361	1.000000	1.094917	7.3686e+06	-56689.1	955.819	-29738	0.000000	0.000000	7.095185	-0.060870	NaN	0.000000	0.001664	0.001697	28.0797	0.049492	0.002039	24.2673	153.221	-161.663	-0.065758	1.093557	-0.622375	-0.623735	-0.060870	24.2673	-0.620494	-1.593738E+8	3.819302E-10	NaN
361	1.000000	1.106918	7.3686e+06	-56689.1	955.819	-29738	0.000000	0.000000	7.107187	-0.019031	NaN	0.000000	0.001639	0.001749	28.0796	0.006609	0.002083	3.172712	174.139	-164.073	-0.077454	1.105604	-0.610373	-0.611688	-0.019031	3.172712	-0.605875	-1.003104E+8	1.897181E-10	NaN
361	1.000000	1.118906	7.3686e+06	-56689.1	955.818	-29738	0.000000	0.000000	7.119177	0.021668	NaN	0.000000	0.001615	0.001743	28.0796	0.025912	0.002112	12.2702	-165.45	-163.527	0.062884	1.117600	-0.598386	-0.599692	0.021668	12.2702	-0.599710	-8.250250E+7	-2.626399E-10	NaN
361	1.000000	1.130923	7.3686e+06	-56689.1	955.819	-29738	0.000000	0.000000	7.131191	-0.057404	NaN	0.000000	0.001595	0.001736	28.0802	0.008915	0.002086	4.273131	1.316666	-157.887	-0.007572	1.129628	-0.586369	-0.587663	-0.057404	4.273131	-0.576294	-3.922481E+7	1.463453E-9	NaN
361	1.000000	1.142916	7.3686e+06	-56689.1	955.819	-29738	0.000000	0.000000	7.143186	-0.007585	NaN	0.000000	0.001611	0.001708	28.0798	0.052491	0.001856	28.2872	-165.154	-165.804	-0.019393	1.141609	-0.574375	-0.575682	-0.007585	28.2872	-0.574174	-3.666876E+7	2.068384E-10	NaN
361	1.000000	1.154925	7.3686e+06	-56689.1	955.819	-29738	0.000000	0.000000	7.155194	-0.031828	NaN	0.000000	0.001597	0.001744	28.0794	0.140723	0.002025	69.503	73.1093	-166.303	-0.008784	1.153623	-0.562367	-0.563669	-0.031828	69.503	-0.562023	-2.490957E+7	1.277739E-9	NaN
361	1.000000	1.166929	7.3686e+06	-56689.1	955.819	-29738	0.000000	0.000000	7.167202	0.076257	NaN	0.000000	0.001587	0.001742	28.0796	0.077822	0.001993	39.0454	150.416	-163.802	0.098592	1.165624	-0.550363	-0.551668	0.076257	39.0454	-0.551828	-1.799992E+7	-4.236532E-9	NaN
361	1.000000	1.178918	7.3686e+06	-56689.1	955.819	-29738	0.000000	0.000000	7.179186	-0.046610	NaN	0.000000	0.001608	0.001745	28.0797	0.079856	0.002034	39.2627	-141.134	-163.561	-0.051364	1.177602	-0.538374	-0.539690	-0.046610	39.2627	-0.537483	-1.138809E+7	4.092847E-9	NaN
361	1.000000	1.190932	7.3686e+06	-56689.1	955.818	-29738	0.000000	0.000000	7.191202	-0.020195	NaN	0.000000	0.001584	0.001743	28.0803	0.080164	0.001860	43.0928	150.577	-164.527	-0.065221	1.189653	-0.526359	-0.527639	-0.020195	43.0928	-0.526008	-7.89073e+06	2.559347E-9	NaN
361	1.000000	1.202973	7.3686e+06	-56689.1	955.82	-29738	0.000000	0.000000	7.203243	-0.003991	NaN	0.000000	0.001597	0.001712	28.0788	0.132657	0.002048	64.7719	42.5825	-165.359	0.092712	1.201690	-0.514318	-0.515602	-0.003991	64.7719	-0.514272	-5.41878e+06	7.365436E-10	NaN
361	1.000000	1.214944	7.3686e+06	-56689.1	955.818	-29738	0.000000	0.000000	7.215213	-0.033110	NaN	0.000000	0.001627	0.001701	28.0787	0.072273	0.002004	36.0623	-32.7251	-165.597	-0.095591	1.213631	-0.502348	-0.503661	-0.033110	36.0623	-0.501659	-3.61542e+06	9.158030E-9	NaN
361	1.000000	1.226949	7.3686e+06	-56689.1	955.819	-29738	0.000000	0.000000	7.227219	-0.009217	NaN	0.000000	0.001620	0.001728	28.0787	0.021728	0.002012	10.7987	-7.482944	-162.777	-0.013844	1.225683	-0.490342	-0.491609	-0.009217	10.7987	-0.489702	-2.46168e+06	3.744170E-9	NaN
361	1.000000	1.238963	7.3686e+06	-56689.1	955.819	-29738	0.000000	0.000000	7.239231	-0.046666	NaN	0.000000	0.001594	0.001719	28.0785	0.021041	0.002038	10.325	174.811	-162.587	-0.085786	1.237665	-0.478329	-0.479627	-0.046666	10.325	-0.474939	-1.52983e+06	3.050393E-8	NaN
361	1.000000	1.250973	7.3686e+06	-56689.1	955.821	-29738	0.000000	0.000000	7.251243	-0.005672	NaN	0.000000	0.001576	0.001692	28.0787	0.084453	0.002093	40.3538	-158.371	-165.783	0.028967	1.249662	-0.466318	-0.467630	-0.005672	40.3538	-0.466213	-1.15418e+06	4.914464E-9	NaN
361	1.000000	1.262981	7.3686e+06	-56689.1	955.819	-29738	0.000000	0.000000	7.263253	0.044952	NaN	0.000000	0.001604	0.001739	28.0787	0.023700	0.002093	11.326	-132.458	-165.011	0.085438	1.261709	-0.454311	-0.455583	0.044952	11.326	-0.457288	-864753	-5.198204E-8	NaN
361	1.000000	1.274976	7.3686e+06	-56689.1	955.82	-29738	0.000000	0.000000	7.275244	-0.060806	NaN	0.000000	0.001619	0.001713	28.0788	0.012585	0.001936	6.498675	-147.349	-165.211	-0.073988	1.273682	-0.442315	-0.443610	-0.060806	6.498675	-0.435298	-423609	1.435418E-7	NaN
361	1.000000	1.286990	7.3686e+06	-56689.1	955.819	-29738	0.000000	0.000000	7.287262	0.057562	NaN	0.000000	0.001619	0.001712	28.0786	0.134860	0.002022	66.683	93.8208	-166.055	0.033856	1.285651	-0.430302	-0.431641	0.057562	66.683	-0.430949	-367696	-1.565477E-7	NaN
361	1.000000	1.298972	7.3686e+06	-56689.1	955.82	-29738	0.000000	0.000000	7.299242	0.000617	NaN	0.000000	0.001600	0.001732	28.0787	0.092017	0.002073	44.3884	-169.16	-164.249	0.095833	1.297742	-0.418320	-0.419549	0.000617	44.3884	-0.418330	-243629	-2.532301E-9	NaN
361	1.000000	1.311018	7.3686e+06	-56689.1	955.82	-29738	0.000000	0.000000	7.311287	-0.014549	NaN	0.000000	0.001606	0.001748	28.0787	0.121595	0.001977	61.4916	-17.4562	-168.072	-0.008846	1.309677	-0.406274	-0.407614	-0.014549	61.4916	-0.406096	-163253	8.912001E-8	NaN
361	1.000000	1.323026	7.3686e+06	-56689.1	955.82	-29738	0.000000	0.000000	7.323295	-0.033943	NaN	0.000000	0.001594	0.001715	28.0803	0.053278	0.001874	28.4296	-74.9241	-166.21	-0.038555	1.321697	-0.394265	-0.395595	-0.033943	28.4296	-0.393370	-107484	3.157980E-7	NaN
361	1.000000	1.334978	7.3686e+06	-56689.1	955.819	-29738	0.000000	0.000000	7.335249	0.014358	NaN	0.000000	0.001611	0.001717	28.08	0.036882	0.002042	18.0648	-111.956	-165.259	-0.018060	1.333688	-0.382314	-0.383604	0.014358	18.0648	-0.382910	-76142.7	-1.885729E-7	NaN
361	1.000000	1.347020	7.3686e+06	-56689.1	955.819	-29738	0.000000	0.000000	7.347291	0.009424	NaN	0.000000	0.001579	0.001731	28.0802	0.068518	0.001988	34.4632	-121.325	-166.72	0.011316	1.345727	-0.370271	-0.371564	0.009424	34.4632	-0.370476	-50464.6	-1.867403E-7	NaN
361	1.000000	1.359039	7.3686e+06	-56689.1	955.82	-29738	0.000000	0.000000	7.359309	-0.003607	NaN	0.000000	0.001578	0.001711	28.0801	0.129819	0.001971	65.8583	117.348	-163.636	-0.077644	1.357651	-0.358252	-0.359641	-0.003607	65.8583	-0.358211	-33572.1	1.074298E-7	NaN
361	1.000000	1.371038	7.3686e+06	-56689.1	955.819	-29738	0.000000	0.000000	7.371308	-0.016196	NaN	0.000000	0.001574	0.001704	28.0797	0.039863	0.001985	20.0787	5.010560	-164.213	0.023546	1.369731	-0.346253	-0.347561	-0.016196	20.0787	-0.345648	-22069.2	7.338814E-7	NaN
361	1.000000	1.383043	7.3686e+06	-56689.1	955.819	-29738	0.000000	0.000000	7.383312	-0.030441	NaN	0.000000	0.001597	0.001720	28.0798	0.079832	0.002155	37.0498	-63.7026	-163.412	-0.059125	1.381737	-0.334248	-0.335555	-0.030441	37.0498	-0.333632	-14743.4	2.064695E-6	NaN
361	1.000000	1.395077	7.3686e+06	-56689.1	955.819	-29738	0.000000	0.000000	7.395344	-0.058827	NaN	0.000000	0.001620	0.001706	28.0799	0.061838	0.001943	31.8248	-127.688	-167.426	-0.019612	1.393782	-0.322215	-0.323509	-0.058827	31.8248	-0.320829	-9568.22	6.148190E-6	NaN
361	1.000000	1.407050	7.3686e+06	-56689.1	955.819	-29738	0.000000	0.000000	7.407318	-0.062807	NaN	0.000000	0.001581	0.001715	28.08	0.019749	0.002028	9.737468	-64.5436	-166.839	-0.065608	1.405713	-0.310241	-0.311578	-0.062807	9.737468	-0.305404	-5661.72	1.109319E-5	NaN
361	1.000000	1.419034	7.3686e+06	-56689.1	955.82	-29738	0.000000	0.000000	7.419302	-0.054684	NaN	0.000000	0.001544	0.001750	28.0801	0.082321	0.002040	40.362	-121.288	-164.282	-0.045262	1.417742	-0.298257	-0.299550	-0.054684	40.362	-0.297241	-4280.87	1.277394E-5	NaN
361	1.000000	1.431059	7.3686e+06	-56689.1	955.821	-29738	0.000000	0.000000	7.431328	-0.028170	NaN	0.000000	0.001570	0.001737	28.0798	0.108118	0.001970	54.8851	27.0978	-161.961	0.003460	1.429758	-0.286232	-0.287534	-0.028170	54.8851	-0.285848	-2890.71	9.744923E-6	NaN
361	1.000000	1.443046	7.3686e+06	-56689.1	955.821	-29738	0.000000	0.000000	7.443314	-0.036721	NaN	0.000000	0.001555	0.001687	28.08	0.068741	0.001911	35.9669	102.204	-166.116	0.018950	1.441787	-0.274246	-0.275505	-0.036721	35.9669	-0.273480	-1880.95	1.952257E-5	NaN
361	1.000000	1.455063	7.3686e+06	-56689.1	955.82	-29738	0.000000	0.000000	7.455332	-0.015681	NaN	0.000000	0.001527	0.001681	28.0798	0.087649	0.001943	45.1172	-83.6547	-164.758	-0.015364	1.453786	-0.262229	-0.263506	-0.015681	45.1172	-0.261968	-1256.19	1.248301E-5	NaN
361	1.000000	1.467066	7.3686e+06	-56689.1	955.819	-29738	0.000000	0.000000	7.467335	-0.029785	NaN	0.000000	0.001587	0.001730	28.0786	0.056834	0.002071	27.4419	157.686	-164.487	-0.057686	1.465799	-0.250226	-0.251493	-0.029785	27.4419	-0.249412	-805.133	3.699422E-5	NaN
361	1.000000	1.479087	7.3686e+06	-56689.1	955.819	-29738	0.000000	0.000000	7.479359	0.029556	NaN	0.000000	0.001612	0.001718	28.0786	0.080963	0.002070	39.105	-157.82	-168.075	-0.033935	1.477779	-0.238204	-0.239513	0.029556	39.105	-0.238771	-549.981	-5.373920E-5	NaN
361	1.000000	1.491074	7.3686e+06	-56689.1	955.819	-29738	0.000000	0.000000	7.491344	-0.019245	NaN	0.000000	0.001613	0.001706	28.0785	0.076604	0.002077	36.8824	96.6782	-165.753	-0.025028	1.489776	-0.226217	-0.227516	-0.019245	36.8824	-0.225826	-343.913	5.595812E-5	NaN
361	1.000000	1.503107	7.3686e+06	-56689.1	955.819	-29738	0.000000	0.000000	7.503377	-0.004198	NaN	0.000000	0.001601	0.001721	28.0788	0.077655	0.001939	40.0516	-81.0713	-166.365	0.042284	1.501802	-0.214185	-0.215490	-0.004198	40.0516	-0.214106	-223.424	1.878889E-5	NaN
361	1.000000	1.515088	7.3686e+06	-56689.1	955.82	-29738	0.000000	0.000000	7.515360	0.041792	NaN	0.000000	0.001588	0.001717	28.0787	0.065993	0.001880	35.1017	130.766	-166.171	0.005218	1.513827	-0.202204	-0.203465	0.041792	35.1017	-0.203097	-148.07	-0.000282	NaN
361	1.000000	1.527127	7.3686e+06	-56689.1	955.819	-29738	0.000000	0.000000	7.527397	-0.016502	NaN	0.000000	0.001621	0.001717	28.0787	0.041892	0.001943	21.5561	5.712317	-163.952	0.009540	1.525805	-0.190164	-0.191487	-0.016502	21.5561	-0.189590	-88.5479	0.000186	NaN
361	1.000000	1.539112	7.3686e+06	-56689.1	955.82	-29738	0.000000	0.000000	7.539382	-0.010260	NaN	0.000000	0.001601	0.001738	28.0787	0.022609	0.002004	11.2817	-91.0311	-164.541	-0.072670	1.537810	-0.178180	-0.179482	-0.010260	11.2817	-0.177498	-55.3084	0.000186	NaN
361	1.000000	1.551130	7.3686e+06	-56689.1	955.82	-29738	0.000000	0.000000	7.551401	0.026707	NaN	0.000000	0.001644	0.001739	28.0787	0.170198	0.002003	84.9727	133.436	-164.843	-0.055708	1.549792	-0.166162	-0.167500	0.026707	84.9727	-0.166397	-35.5469	-0.000751	NaN
361	1.000000	1.563110	7.3686e+06	-56689.1	955.82	-29738	0.000000	0.000000	7.563377	-0.059331	NaN	0.000000	0.001614	0.001705	28.079	0.094231	0.001899	49.6218	17.8912	-163.439	-0.010020	1.561815	-0.154182	-0.155477	-0.059331	49.6218	-0.153285	-20.7803	0.002855	NaN
361	1.000000	1.575084	7.3686e+06	-56689.1	955.821	-29738	0.000000	0.000000	7.575352	-0.053987	NaN	0.000000	0.001614	0.001729	28.079	0.089827	0.002044	43.9394	82.8431	-163.695	-0.071168	1.573793	-0.142207	-0.143499	-0.053987	43.9394	-0.141286	-12.5047	0.004317	NaN
361	1.000000	1.587133	7.3686e+06	-56689.1	955.82	-29738	0.000000	0.000000	7.587403	0.016801	NaN	0.000000	0.001605	0.001731	28.0787	0.052638	0.001963	26.8191	-68.4313	-162.604	0.018491	1.585794	-0.130159	-0.131497	0.016801	26.8191	-0.130629	-7.838130	-0.002143	NaN
361	1.000000	1.599165	7.3686e+06	-56689.1	955.821	-29738	0.000000	0.000000	7.599433	-0.038527	NaN	0.000000	0.001596	0.001681	28.0798	0.056471	0.002037	27.7261	-138.337	-165.055	0.004664	1.597867	-0.118127	-0.119425	-0.038527	27.7261	-0.117085	-4.215852	0.009139	NaN
361	1.000000	1.611116	7.3686e+06	-56689.1	955.82	-29738	0.000000	0.000000	7.611382	-0.101242	NaN	0.000000	0.001588	0.001720	28.0797	0.022292	0.002111	10.5589	-74.4154	-163.25	-0.072551	1.609824	-0.106176	-0.107468	-0.101242	10.5589	-0.098985	-1.734630	0.058365	NaN
361	1.000000	1.623115	7.3686e+06	-56689.1	955.821	-29738	0.000000	0.000000	7.623383	-0.049486	NaN	0.000000	0.001595	0.001728	28.0799	0.063192	0.001972	32.0383	-144.734	-164.326	-0.069489	1.621844	-0.094176	-0.095447	-0.049486	32.0383	-0.093018	-1.270559	0.038948	NaN
361	1.000000	1.635144	7.3686e+06	-56689.1	955.821	-29738	0.000000	0.000000	7.635413	-0.020927	NaN	0.000000	0.001578	0.001723	28.08	0.054921	0.002011	27.3075	-166.692	-162.466	-0.014939	1.633833	-0.082148	-0.083458	-0.020927	27.3075	-0.081573	-0.677364	0.030894	NaN
361	1.000000	1.647171	7.3686e+06	-56689.1	955.821	-29738	0.000000	0.000000	7.647439	-0.061492	NaN	0.000000	0.001645	0.001709	28.0803	0.088444	0.002010	44.0018	-90.785	-167.221	0.011029	1.645803	-0.070120	-0.071488	-0.061492	44.0018	-0.069072	-0.322073	0.190925	NaN
361	1.000000	1.659151	7.3686e+06	-56689.1	955.82	-29738	0.000000	0.000000	7.659423	0.043076	NaN	0.000000	0.001629	0.001737	28.0801	0.120347	0.001946	61.8527	78.4538	-163.736	0.030874	1.657855	-0.058141	-0.059437	0.043076	61.8527	-0.058663	-0.164812	-0.261364	NaN
361	1.000000	1.671162	7.3686e+06	-56689.1	955.821	-29738	0.000000	0.000000	7.671430	-0.039903	NaN	0.000000	0.001689	0.001734	28.08	0.017991	0.002134	8.432349	-81.8663	-161.856	-0.134817	1.669869	-0.046130	-0.047423	-0.039903	8.432349	-0.042581	-0.054202	0.736193	NaN
361	1.000000	1.683165	7.3686e+06	-56689.1	955.82	-29738	0.000000	0.000000	7.683430	-0.107934	NaN	0.000000	0.001661	0.001768	28.0799	0.100560	0.001929	52.1431	51.7207	-167.131	-0.011603	1.681887	-0.034127	-0.035405	-0.107934	52.1431	-0.032574	-0.027219	3.965433	NaN
361	1.000000	1.695208	7.3686e+06	-56689.1	955.819	-29738	0.000000	0.000000	7.695479	0.011990	NaN	0.000000	0.001716	0.001741	28.0799	0.119855	0.001895	63.2539	105.83	-165.349	0.029000	1.693891	-0.022084	-0.023401	0.011990	63.2539	-0.022226	-0.014310	-0.837928	NaN
361	1.000000	1.707194	7.3686e+06	-56689.1	955.821	-29738	0.000000	0.000000	7.707462	-0.055059	NaN	0.000000	0.001699	0.001733	28.08	0.086384	0.002112	40.8956	-119.402	-164.309	-0.021999	1.705936	-0.010097	-0.011355	-0.055059	40.8956	-0.009088	-0.005864	9.389953	NaN
361	1.000000	1.719181	7.3686e+06	-56689.1	955.82	-29738	0.000000	0.000000	7.719450	-0.042906	NaN	0.000000	0.001694	0.001706	28.0799	0.051827	0.002089	24.8133	43.2357	-165.185	-0.016047	1.717886	0.001890	0.000595	-0.042906	24.8133	0.003187	0.002538	-16.9085	450.041
361	1.000000	1.731164	7.3686e+06	-56689.1	955.82	-29738	0.000000	0.000000	7.731646	5.166947	NaN	0.000000	0.001642	0.001747	28.0789	5.079223	0.001680	3023.78	13.0833	-168.243	4.618743	1.729829	0.013872	0.012537	5.166947	3023.78	0.012590	0.012205	423.35	25006.7
361	2.000000	1.737740	7.3686e+06	-56689.1	955.821	-29738	0.000000	0.000000	7.738308	7.247548	NaN	0.000000	0.001604	0.001729	28.0786	9.119716	0.001737	5249.68	12.9717	-174.312	7.142464	1.737420	0.020448	0.020129	7.247548	5249.68	0.019412	0.021627	335.109	32614
361	2.000000	1.740656	7.3686e+06	-56689.1	955.82	-29738	0.000000	0.000000	7.741465	13.0979	NaN	0.000000	0.001586	0.001733	28.0788	13.2451	0.001727	7668.4	6.303765	-173.737	12.1721	1.740332	0.023364	0.023041	13.0979	7668.4	0.022083	0.025922	505.286	43515.6
361	2.000000	1.743684	7.3686e+06	-56689.1	955.822	-29738	0.000000	0.000000	7.744538	14.192	NaN	0.000000	0.001620	0.001728	28.0786	15.4959	0.001748	8863.29	5.425156	-173.971	14.0616	1.743368	0.026393	0.026076	14.192	8863.29	0.025192	0.031365	452.473	45723.8
361	2.000000	1.746652	7.3686e+06	-56689.1	955.821	-29738	0.000000	0.000000	7.747823	21.8933	NaN	0.000000	0.001617	0.001714	28.0785	18.9843	0.001722	11022.3	0.565021	-170.976	20.3574	1.746334	0.029360	0.029042	21.8933	11022.3	0.027870	0.036445	600.718	52750.1
361	2.000000	1.749628	7.3686e+06	-56689.1	955.821	-29738	0.000000	0.000000	7.750897	24.2803	NaN	0.000000	0.001630	0.001709	28.08	22.1898	0.001749	12687.4	3.817009	-175.322	23.2602	1.749410	0.032337	0.032118	24.2803	12687.4	0.030901	0.042633	569.521	56140.3
361	2.000000	1.752635	7.3686e+06	-56689.1	955.821	-29738	0.000000	0.000000	7.754021	27.1321	NaN	0.000000	0.001613	0.001697	28.0784	25.2205	0.001881	13408.6	6.500160	-177.498	26.8899	1.752275	0.035343	0.034983	27.1321	13408.6	0.033826	0.049047	553.185	55315.7
361	2.000000	1.755595	7.3686e+06	-56689.1	955.822	-29738	0.000000	0.000000	7.757225	33.0449	NaN	0.000000	0.001603	0.001720	28.0786	27.9938	0.001808	15486	4.902951	-177.772	31.0351	1.755350	0.038304	0.038059	33.0449	15486	0.036703	0.055786	592.347	59903.1
361	2.000000	1.758692	7.3686e+06	-56689.1	955.822	-29738	0.000000	0.000000	7.760618	40.24	NaN	0.000000	0.001612	0.001696	28.0785	30.5595	0.001835	16655.4	6.923370	-177.041	41.1526	1.758226	0.041401	0.040934	40.24	16655.4	0.039589	0.062970	639.039	60640.5
361	2.000000	1.761622	7.3686e+06	-56689.1	955.821	-29738	0.000000	0.000000	7.763848	47.5272	NaN	0.000000	0.001596	0.001673	28.0787	33.4855	0.001749	19143.7	6.160655	179.686	47.8633	1.761290	0.044331	0.043998	47.5272	19143.7	0.042469	0.070564	673.537	65842.7
361	2.000000	1.764566	7.3686e+06	-56689.1	955.823	-29738	0.000000	0.000000	7.766996	52.5063	NaN	0.000000	0.001611	0.001727	28.0788	35.0751	0.001646	21305.3	5.496447	177.786	50.1992	1.764309	0.047274	0.047017	52.5063	21305.3	0.045426	0.078800	666.321	69342.1
361	2.000000	1.767598	7.3686e+06	-56689.1	955.822	-29738	0.000000	0.000000	7.770444	62.6187	NaN	0.000000	0.001570	0.001756	28.0784	39.002	0.001740	22412.2	11.948	171.699	63.0351	1.767236	0.050306	0.049944	62.6187	22412.2	0.048211	0.086963	720.059	69437
361	2.000000	1.770553	7.3686e+06	-56689.1	955.824	-29738	0.000000	0.000000	7.773905	74.9161	NaN	0.000000	0.001608	0.001752	28.08	41.4302	0.001734	23886.5	4.394189	178.252	72.0054	1.770299	0.053261	0.053008	74.9161	23886.5	0.050909	0.095244	786.572	70714.4
361	2.000000	1.773691	7.3686e+06	-56689.1	955.823	-29738	0.000000	0.000000	7.777033	74.6497	NaN	0.000000	0.001625	0.001666	28.0796	43.5884	0.001671	26079.5	2.718118	-179.57	78.8993	1.773272	0.056400	0.055980	74.6497	26079.5	0.054253	0.106011	704.172	73180.9
361	2.000000	1.776497	7.3686e+06	-56689.1	955.823	-29738	0.000000	0.000000	7.780036	79.4658	NaN	0.000000	0.001621	0.001754	28.0797	48.2266	0.001965	24541	6.070447	176.311	74.8738	1.776219	0.059205	0.058927	79.4658	24541	0.056777	0.114505	693.997	66260.5
361	2.000000	1.779564	7.3686e+06	-56689.1	955.823	-29738	0.000000	0.000000	7.783565	90.6836	NaN	0.000000	0.001607	0.001722	28.0795	49.5409	0.001823	27181.5	6.274464	175.518	88.342	1.779343	0.062273	0.062052	90.6836	27181.5	0.059771	0.124987	725.546	70244.9
361	2.000000	1.782611	7.3686e+06	-56689.1	955.823	-29738	0.000000	0.000000	7.787016	100.507	NaN	0.000000	0.001607	0.001731	28.0796	51.9566	0.001797	28914.1	7.499396	174.259	100.236	1.782382	0.065319	0.065091	100.507	28914.1	0.062712	0.135712	740.591	71709.1
361	2.000000	1.785609	7.3686e+06	-56689.1	955.822	-29738	0.000000	0.000000	7.790534	113.128	NaN	0.000000	0.001582	0.001715	28.0803	55.5599	0.001812	30659.1	4.271091	176.987	114.009	1.785270	0.068318	0.067978	113.128	30659.1	0.065550	0.146460	772.413	73193.5
361	2.000000	1.788645	7.3686e+06	-56689.1	955.822	-29738	0.000000	0.000000	7.794163	127.563	NaN	0.000000	0.001618	0.001701	28.0795	57.6676	0.001724	33445	5.886221	174.673	130.44	1.788273	0.071353	0.070981	127.563	33445	0.068493	0.158011	807.306	76870.7
361	2.000000	1.791539	7.3686e+06	-56689.1	955.821	-29738	0.000000	0.000000	7.797748	144.347	NaN	0.000000	0.001612	0.001717	28.0796	58.8571	0.001726	34102.2	4.793335	175.216	141.187	1.791198	0.074247	0.073906	144.347	34102.2	0.071072	0.168478	856.77	75907.5
361	2.000000	1.794613	7.3686e+06	-56689.1	955.821	-29738	0.000000	0.000000	7.801222	154.064	NaN	0.000000	0.001612	0.001718	28.0796	61.4851	0.001828	33634.6	6.959569	174.646	154.426	1.794105	0.077321	0.076813	154.064	33634.6	0.073886	0.180254	854.708	72379.7
361	2.000000	1.797542	7.3686e+06	-56689.1	955.824	-29738	0.000000	0.000000	7.804657	166.376	NaN	0.000000	0.001648	0.001740	28.0796	64.6404	0.001697	38086.6	4.859601	174.38	164.354	1.797207	0.080250	0.079916	166.376	38086.6	0.076974	0.193610	859.338	79082.8
361	2.000000	1.800503	7.3686e+06	-56689.1	955.823	-29738	0.000000	0.000000	7.807916	173.634	NaN	0.000000	0.001591	0.001696	28.08	68.4314	0.001753	39040.3	2.680215	175.926	170.152	1.800222	0.083211	0.082930	173.634	39040.3	0.079875	0.206563	840.587	78480.2
361	2.000000	1.803452	7.3686e+06	-56689.1	955.822	-29738	0.000000	0.000000	7.811754	195.209	NaN	0.000000	0.001589	0.001695	28.0783	70.61	0.001763	40054.8	0.904125	178.127	189.171	1.803215	0.086161	0.085923	195.209	40054.8	0.082506	0.218646	892.809	78263
361	2.000000	1.806620	7.3686e+06	-56689.1	955.821	-29738	0.000000	0.000000	7.815441	207.851	NaN	0.000000	0.001620	0.001754	28.0782	75.6169	0.001846	40971.1	7.850077	171.265	212.503	1.806201	0.089328	0.088909	207.851	40971.1	0.085523	0.232905	892.428	77564.3
361	2.000000	1.809629	7.3686e+06	-56689.1	955.822	-29738	0.000000	0.000000	7.819238	226.999	NaN	0.000000	0.001605	0.001710	28.0785	77.6019	0.001799	43143.5	7.077871	172.323	230.763	1.809210	0.092337	0.091918	226.999	43143.5	0.088391	0.246845	919.603	79337.2
361	2.000000	1.812500	7.3686e+06	-56689.1	955.822	-29738	0.000000	0.000000	7.822790	243.554	NaN	0.000000	0.001590	0.001720	28.0786	80.6222	0.001769	45574.3	2.819195	175.232	239.812	1.812103	0.095208	0.094812	243.554	45574.3	0.091200	0.260864	933.645	81524.2
361	2.000000	1.815555	7.3686e+06	-56689.1	955.822	-29738	0.000000	0.000000	7.826489	259.194	NaN	0.000000	0.001594	0.001699	28.0785	82.3671	0.001840	44773.9	5.291280	174.404	260.644	1.815094	0.098264	0.097802	259.194	44773.9	0.093922	0.274792	943.235	78036.1
361	2.000000	1.818520	7.3686e+06	-56689.1	955.822	-29738	0.000000	0.000000	7.830084	274.501	NaN	0.000000	0.001610	0.001749	28.0784	85.8903	0.001846	46525.7	4.932065	173.111	272.913	1.818207	0.101229	0.100915	274.501	46525.7	0.096804	0.289910	946.849	78946.8
361	2.000000	1.821490	7.3686e+06	-56689.1	955.822	-29738	0.000000	0.000000	7.833362	282.006	NaN	0.000000	0.001588	0.001731	28.0784	87.6005	0.001761	49748.5	5.802166	171.282	279.558	1.821319	0.104198	0.104028	282.006	49748.5	0.099947	0.306827	919.105	82055.2
361	2.000000	1.824502	7.3686e+06	-56689.1	955.822	-29738	0.000000	0.000000	7.837646	312.917	NaN	0.000000	0.001627	0.001741	28.0785	89.9072	0.001859	48358.9	8.043921	170.397	312.152	1.824107	0.107210	0.106815	312.917	48358.9	0.102357	0.320106	977.54	78091.2
361	2.000000	1.827605	7.3686e+06	-56689.1	955.822	-29738	0.000000	0.000000	7.841573	332.958	NaN	0.000000	0.001581	0.001765	28.078	91.9241	0.001715	53606.7	8.446132	169.231	335.761	1.827162	0.110313	0.109870	332.958	53606.7	0.105655	0.338701	983.042	84155.7
361	2.000000	1.830531	7.3686e+06	-56689.1	955.823	-29738	0.000000	0.000000	7.844801	340.279	NaN	0.000000	0.001598	0.001770	28.0783	95.1515	0.001740	54696.9	6.011840	171.697	340.737	1.830109	0.113239	0.112817	340.279	54696.9	0.108573	0.355569	956.998	83805.8
361	2.000000	1.833526	7.3686e+06	-56689.1	955.824	-29738	0.000000	0.000000	7.848530	358.13	NaN	0.000000	0.001625	0.001741	28.0782	98.1091	0.001811	54187.5	-0.586804	177.563	358.066	1.833237	0.116234	0.115945	358.13	54187.5	0.111277	0.371544	963.898	81220.8
361	2.000000	1.834641	7.3686e+06	-56689.1	955.823	-29738	0.000000	0.000000	7.850088	368.884	NaN	0.000000	0.001578	0.001741	28.0785	99.3844	0.001861	53389.7	7.874653	170.694	372.922	1.834061	0.117350	0.116770	368.884	53389.7	0.112168	0.376875	978.795	79456.9