File: remote_trans/data/nanoindenter/0828-1/data/Data_2025-08-06,11h17m57s/2025-07-22_16-23-58_1_369.txt
2025-07-22, 16:23:58, 1
Index	Phase	Displacement	Time	Pos X	Pos Y	Pos Z	Rot A	Rot B	Piezo Z	Force A	Force B	Gripper	Voltage A	Voltage B	Temperature	Amplitude force	Amplitude pos	Stiffness	Phase shift	Phase excitation	Force A raw	Displacement raw	HMax	HMax raw	Real Force	Real Stiffness	Contact Depth	Area	Hardness	Reduced Mod.
[#]	[#]	[um]	[s]	[um]	[um]	[um]	[m°]	[m°]	[um]	[uN]	[uN]	[V]	[V]	[V]	[°C]	[uN]	[um]	[N/m]	[°]	[°]	[uN]	[um]	[um]	[um]	[uN]	[N/m]	[um]	[um^2]	[MPa]	[MPa]
369	1.000000	0.002639	7.36867e+06	-57089.1	955.818	-29737.2	0.000000	0.000000	6.002777	0.038395	NaN	0.000000	0.001658	0.001722	28.0793	0.073422	0.000984	74.6384	-42.2128	-163.311	-0.018785	0.001351	-1.746012	-1.747300	0.038395	74.6384	-1.746398	-2.102043E+23	-1.826543E-25	NaN
369	1.000000	0.014671	7.36867e+06	-57089.1	955.817	-29737.2	0.000000	0.000000	6.014806	-0.033028	NaN	0.000000	0.001698	0.001733	28.0794	0.042743	0.001678	25.4655	74.9919	-167.211	0.001305	0.013527	-1.733980	-1.735124	-0.033028	25.4655	-1.733007	-1.395841E+23	2.366154E-25	NaN
369	1.000000	0.026660	7.36867e+06	-57089.1	955.818	-29737.2	0.000000	0.000000	6.026797	0.011037	NaN	0.000000	0.001676	0.001706	28.0792	0.057935	0.001816	31.905	-169.941	-163.738	-0.071296	0.025310	-1.721991	-1.723341	0.011037	31.905	-1.722250	-1.004565E+23	-1.098665E-25	NaN
369	1.000000	0.038611	7.36867e+06	-57089.1	955.819	-29737.2	0.000000	0.000000	6.038746	-0.038338	NaN	0.000000	0.001664	0.001697	28.079	0.063229	0.001857	34.0439	-54.5021	-164.409	0.019280	0.037324	-1.710040	-1.711327	-0.038338	34.0439	-1.709195	-6.738834E+22	5.689092E-25	NaN
369	1.000000	0.050610	7.36867e+06	-57089.1	955.817	-29737.2	0.000000	0.000000	6.050747	0.022917	NaN	0.000000	0.001656	0.001709	28.0795	0.073953	0.001824	40.5409	-126.655	-163.062	0.010220	0.049319	-1.698041	-1.699332	0.022917	40.5409	-1.698465	-4.853429E+22	-4.721773E-25	NaN
369	1.000000	0.062626	7.36867e+06	-57089.1	955.819	-29737.2	0.000000	0.000000	6.062765	0.051506	NaN	0.000000	0.001672	0.001720	28.0804	0.063068	0.002018	31.2585	-178.98	-165.019	0.043090	0.061286	-1.686025	-1.687365	0.051506	31.2585	-1.687261	-3.445033E+22	-1.495079E-24	NaN
369	1.000000	0.074629	7.36867e+06	-57089.1	955.818	-29737.2	0.000000	0.000000	6.074766	0.020700	NaN	0.000000	0.001641	0.001754	28.0803	0.055161	0.002061	26.7649	-116.199	-166.379	0.021750	0.073325	-1.674022	-1.675327	0.020700	26.7649	-1.674603	-2.338845E+22	-8.850727E-25	NaN
369	1.000000	0.086609	7.36867e+06	-57089.1	955.818	-29737.2	0.000000	0.000000	6.086743	-0.062327	NaN	0.000000	0.001682	0.001730	28.0803	0.053506	0.001943	27.5429	153.216	-167.087	-0.024247	0.085313	-1.662042	-1.663338	-0.062327	27.5429	-1.660345	-1.511924E+22	4.122394E-24	NaN
369	1.000000	0.098658	7.36867e+06	-57089.1	955.819	-29737.2	0.000000	0.000000	6.098791	-0.070966	NaN	0.000000	0.001645	0.001727	28.0804	0.061463	0.002036	30.1905	178.588	-164.845	-0.160819	0.097291	-1.649993	-1.651360	-0.070966	30.1905	-1.648230	-1.043535E+22	6.800497E-24	NaN
369	1.000000	0.110628	7.36867e+06	-57089.1	955.818	-29737.2	0.000000	0.000000	6.110764	-0.020517	NaN	0.000000	0.001619	0.001697	28.0806	0.075660	0.002064	36.6563	43.329	-165.835	-0.018209	0.109339	-1.638023	-1.639312	-0.020517	36.6563	-1.637603	-7.537681E+21	2.721886E-24	NaN
369	1.000000	0.122635	7.36867e+06	-57089.1	955.818	-29737.2	0.000000	0.000000	6.122772	0.029879	NaN	0.000000	0.001641	0.001723	28.0807	0.076284	0.002102	36.2893	-125.028	-165.681	-0.037717	0.121360	-1.626016	-1.627291	0.029879	36.2893	-1.626634	-5.387720E+21	-5.545669E-24	NaN
369	1.000000	0.134650	7.36867e+06	-57089.1	955.817	-29737.2	0.000000	0.000000	6.134786	0.005009	NaN	0.000000	0.001669	0.001711	28.0801	0.020286	0.002049	9.898174	123.021	-165.68	-0.035193	0.133360	-1.614001	-1.615291	0.005009	9.898174	-1.614381	-3.702360E+21	-1.352807E-24	NaN
369	1.000000	0.146614	7.36867e+06	-57089.1	955.819	-29737.2	0.000000	0.000000	6.146749	-0.011683	NaN	0.000000	0.001692	0.001718	28.0802	0.022755	0.002002	11.3664	84.3451	-166.356	0.013482	0.145347	-1.602038	-1.603304	-0.011683	11.3664	-1.601267	-2.477837E+21	4.714802E-24	NaN
369	1.000000	0.158627	7.36867e+06	-57089.1	955.817	-29737.2	0.000000	0.000000	6.158765	0.029079	NaN	0.000000	0.001653	0.001741	28.0803	0.055926	0.002086	26.8051	-161.841	-165.319	0.030099	0.157344	-1.590024	-1.591307	0.029079	26.8051	-1.590838	-1.800347E+21	-1.615204E-23	NaN
369	1.000000	0.170670	7.36867e+06	-57089.1	955.818	-29737.1	0.000000	0.000000	6.170804	-0.056573	NaN	0.000000	0.001643	0.001770	28.0803	0.024499	0.001869	13.1116	40.4538	-164.523	-0.006218	0.169352	-1.577981	-1.579299	-0.056573	13.1116	-1.574745	-1.099706E+21	5.144408E-23	NaN
369	1.000000	0.182647	7.36867e+06	-57089.1	955.819	-29737.1	0.000000	0.000000	6.182786	0.070615	NaN	0.000000	0.001607	0.001731	28.0805	0.013091	0.001961	6.676785	-28.9562	-161.78	0.085314	0.181352	-1.566004	-1.567299	0.070615	6.676785	-1.573936	-1.072786E+21	-6.582410E-23	NaN
369	1.000000	0.194682	7.36867e+06	-57089.1	955.818	-29737.1	0.000000	0.000000	6.194817	-0.021930	NaN	0.000000	0.001637	0.001767	28.0793	0.032080	0.001930	16.6229	160.981	-165.303	0.002642	0.193385	-1.553969	-1.555266	-0.021930	16.6229	-1.552980	-5.644819E+20	3.884969E-23	NaN
369	1.000000	0.206686	7.36867e+06	-57089.1	955.818	-29737.1	0.000000	0.000000	6.206825	0.070732	NaN	0.000000	0.001606	0.001740	28.079	0.038406	0.002196	17.4855	-146.491	-167.896	0.085745	0.205346	-1.541965	-1.543305	0.070732	17.4855	-1.544999	-4.420086E+20	-1.600241E-22	NaN
369	1.000000	0.218671	7.36867e+06	-57089.1	955.819	-29737.1	0.000000	0.000000	6.218805	-0.046230	NaN	0.000000	0.001627	0.001722	28.0793	0.103446	0.001845	56.0605	-33.4552	-165.331	-0.014740	0.217359	-1.529981	-1.531292	-0.046230	56.0605	-1.529362	-2.737070E+20	1.689022E-22	NaN
369	1.000000	0.230693	7.36867e+06	-57089.1	955.819	-29737.1	0.000000	0.000000	6.230827	-0.054635	NaN	0.000000	0.001669	0.001739	28.0792	0.064171	0.002111	30.3996	-118.692	-166.884	-0.053734	0.229434	-1.517958	-1.519217	-0.054635	30.3996	-1.516610	-1.851411E+20	2.950994E-22	NaN
369	1.000000	0.242723	7.36867e+06	-57089.1	955.819	-29737.1	0.000000	0.000000	6.242859	0.009710	NaN	0.000000	0.001652	0.001732	28.0791	0.088464	0.001930	45.8415	70.1637	-166.409	-0.061521	0.241379	-1.505928	-1.507272	0.009710	45.8415	-1.506087	-1.340856E+20	-7.241912E-23	NaN
369	1.000000	0.254720	7.36867e+06	-57089.1	955.818	-29737.1	0.000000	0.000000	6.254855	-0.039935	NaN	0.000000	0.001676	0.001742	28.0791	0.067580	0.001946	34.7206	-55.6726	-162.034	-0.056331	0.253390	-1.493931	-1.495261	-0.039935	34.7206	-1.493068	-8.994744E+19	4.439869E-22	NaN
369	1.000000	0.266694	7.36867e+06	-57089.1	955.819	-29737.1	0.000000	0.000000	6.266827	-0.081715	NaN	0.000000	0.001658	0.001720	28.079	0.092507	0.001974	46.8582	-128.445	-162.979	0.003401	0.265424	-1.481957	-1.483227	-0.081715	46.8582	-1.480650	-6.145549E+19	1.329656E-21	NaN
369	1.000000	0.278708	7.36867e+06	-57089.1	955.819	-29737.1	0.000000	0.000000	6.278841	-0.093144	NaN	0.000000	0.001639	0.001740	28.0789	0.060820	0.002039	29.8259	92.9873	-166.187	-0.102253	0.277357	-1.469943	-1.471294	-0.093144	29.8259	-1.467601	-4.118149E+19	2.261803E-21	NaN
369	1.000000	0.290718	7.36867e+06	-57089.1	955.817	-29737.1	0.000000	0.000000	6.290854	-0.008057	NaN	0.000000	0.001689	0.001732	28.079	0.069057	0.002096	32.9534	132.247	-163.904	-0.050069	0.289425	-1.457933	-1.459227	-0.008057	32.9534	-1.457749	-3.043889E+19	2.646949E-22	NaN
369	1.000000	0.302723	7.36867e+06	-57089.1	955.818	-29737.1	0.000000	0.000000	6.302859	-0.011054	NaN	0.000000	0.001664	0.001750	28.0791	0.070330	0.002030	34.6367	-157.497	-164.763	0.027646	0.301395	-1.445928	-1.447256	-0.011054	34.6367	-1.445688	-2.102225E+19	5.258016E-22	NaN
369	1.000000	0.314721	7.36867e+06	-57089.1	955.819	-29737.1	0.000000	0.000000	6.314856	-0.038580	NaN	0.000000	0.001662	0.001753	28.0793	0.101146	0.001969	51.3708	72.0411	-164.575	-0.008264	0.313446	-1.433930	-1.435205	-0.038580	51.3708	-1.433367	-1.440210E+19	2.678745E-21	NaN
369	1.000000	0.326763	7.36867e+06	-57089.1	955.819	-29737.1	0.000000	0.000000	6.326898	-0.038172	NaN	0.000000	0.001637	0.001710	28.0805	0.125877	0.002158	58.3413	134.332	-168.729	0.043524	0.325432	-1.421888	-1.423220	-0.038172	58.3413	-1.421397	-9.973186E+18	3.827470E-21	NaN
369	1.000000	0.338718	7.36867e+06	-57089.1	955.818	-29737.1	0.000000	0.000000	6.338851	-0.071852	NaN	0.000000	0.001645	0.001722	28.0803	0.098733	0.001837	53.7424	105.765	-169.018	-0.036808	0.337469	-1.409933	-1.411182	-0.071852	53.7424	-1.408931	-6.801140E+18	1.056466E-20	NaN
369	1.000000	0.350734	7.36867e+06	-57089.1	955.82	-29737.1	0.000000	0.000000	6.350869	-0.025528	NaN	0.000000	0.001599	0.001746	28.0802	0.026333	0.002173	12.1161	-172.688	-165.416	0.055476	0.349452	-1.397917	-1.399199	-0.025528	12.1161	-1.396337	-4.619597E+18	5.525920E-21	NaN
369	1.000000	0.362765	7.36867e+06	-57089.1	955.818	-29737.1	0.000000	0.000000	6.362902	0.019208	NaN	0.000000	0.001674	0.001717	28.0801	0.074455	0.001899	39.2019	-68.8762	-166.048	0.010664	0.361423	-1.385886	-1.387229	0.019208	39.2019	-1.386254	-3.389112E+18	-5.667670E-21	NaN
369	1.000000	0.374764	7.36867e+06	-57089.1	955.818	-29737.1	0.000000	0.000000	6.374902	0.044665	NaN	0.000000	0.001647	0.001790	28.0801	0.052946	0.002010	26.3427	19.5095	-166.639	0.028143	0.373456	-1.373887	-1.375195	0.044665	26.3427	-1.375159	-2.410131E+18	-1.853210E-20	NaN
369	1.000000	0.386777	7.36867e+06	-57089.1	955.818	-29737.1	0.000000	0.000000	6.386914	0.011453	NaN	0.000000	0.001649	0.001763	28.0802	0.061619	0.001923	32.0354	83.0136	-169.452	0.005413	0.385458	-1.361874	-1.363193	0.011453	32.0354	-1.362142	-1.615535E+18	-7.089163E-21	NaN
369	1.000000	0.398762	7.36867e+06	-57089.1	955.818	-29737.1	0.000000	0.000000	6.398896	-0.056496	NaN	0.000000	0.001637	0.001800	28.0803	0.045672	0.001962	23.2732	121.185	-167.328	-0.098325	0.397436	-1.349889	-1.351215	-0.056496	23.2732	-1.348068	-1.048184E+18	5.389900E-20	NaN
369	1.000000	0.410765	7.36867e+06	-57089.1	955.819	-29737.1	0.000000	0.000000	6.410902	0.015942	NaN	0.000000	0.001616	0.001761	28.0801	0.091726	0.002071	44.3011	76.8975	-169.697	-0.072621	0.409441	-1.337886	-1.339211	0.015942	44.3011	-1.338156	-7.728450E+17	-2.062767E-20	NaN
369	1.000000	0.422724	7.36867e+06	-57089.1	955.818	-29737.1	0.000000	0.000000	6.422859	-0.042675	NaN	0.000000	0.001609	0.001776	28.0802	0.029813	0.002112	14.1149	-3.286495	-163.526	-0.012193	0.421371	-1.325927	-1.327280	-0.042675	14.1149	-1.323659	-4.948615E+17	8.623721E-20	NaN
369	1.000000	0.434758	7.36867e+06	-57089.1	955.819	-29737.1	0.000000	0.000000	6.434893	-0.034464	NaN	0.000000	0.001638	0.001759	28.0803	0.062449	0.001908	32.7374	153.364	-166.772	0.031391	0.433499	-1.313893	-1.315153	-0.034464	32.7374	-1.313103	-3.576633E+17	9.635995E-20	NaN
369	1.000000	0.446785	7.36867e+06	-57089.1	955.818	-29737.1	0.000000	0.000000	6.446922	-0.002985	NaN	0.000000	0.001644	0.001764	28.0804	0.035293	0.002039	17.3067	44.9643	-163.75	-0.008577	0.445461	-1.301866	-1.303190	-0.002985	17.3067	-1.301736	-2.521148E+17	1.184031E-20	NaN
369	1.000000	0.458783	7.36867e+06	-57089.1	955.818	-29737.1	0.000000	0.000000	6.458918	-0.018674	NaN	0.000000	0.001699	0.001768	28.0805	0.019175	0.001951	9.829338	120.843	-169.571	-0.054169	0.457453	-1.289868	-1.291198	-0.018674	9.829338	-1.288444	-1.674757E+17	1.115014E-19	NaN
369	1.000000	0.470797	7.36867e+06	-57089.1	955.818	-29737.1	0.000000	0.000000	6.470932	-0.023481	NaN	0.000000	0.001691	0.001734	28.079	0.063903	0.002000	31.9573	169.777	-162.587	-0.016780	0.469494	-1.277855	-1.279158	-0.023481	31.9573	-1.277304	-1.188607E+17	1.975466E-19	NaN
369	1.000000	0.482801	7.36867e+06	-57089.1	955.819	-29737.1	0.000000	0.000000	6.482936	-0.027975	NaN	0.000000	0.001706	0.001745	28.0793	0.007912	0.002050	3.859381	-101.639	-166.473	-0.029058	0.481514	-1.265850	-1.267137	-0.027975	3.859381	-1.260414	-7.066442E+16	3.958839E-19	NaN
369	1.000000	0.494804	7.36867e+06	-57089.1	955.818	-29737.1	0.000000	0.000000	6.494939	-0.041895	NaN	0.000000	0.001649	0.001758	28.079	0.103350	0.002019	51.2011	11.3025	-166.928	-0.049295	0.493513	-1.253847	-1.255138	-0.041895	51.2011	-1.253233	-5.664567E+16	7.396044E-19	NaN
369	1.000000	0.506817	7.36867e+06	-57089.1	955.818	-29737.1	0.000000	0.000000	6.506952	-0.031530	NaN	0.000000	0.001654	0.001747	28.0788	0.115572	0.001994	57.9681	114.018	-165.363	-0.031137	0.505455	-1.241834	-1.243196	-0.031530	57.9681	-1.241426	-3.937548E+16	8.007454E-19	NaN
369	1.000000	0.518830	7.36867e+06	-57089.1	955.819	-29737.1	0.000000	0.000000	6.518967	0.015063	NaN	0.000000	0.001665	0.001732	28.0793	0.105801	0.001998	52.9583	-104.081	-167.742	0.001197	0.517468	-1.229821	-1.231183	0.015063	52.9583	-1.230034	-2.772030E+16	-5.434022E-19	NaN
369	1.000000	0.530854	7.36867e+06	-57089.1	955.818	-29737.1	0.000000	0.000000	6.530989	-0.047927	NaN	0.000000	0.001673	0.001729	28.0791	0.040473	0.002119	19.0982	177.426	-167.272	-0.051699	0.529476	-1.217797	-1.219175	-0.047927	19.0982	-1.215915	-1.793986E+16	2.671561E-18	NaN
369	1.000000	0.542822	7.36867e+06	-57089.1	955.819	-29737.1	0.000000	0.000000	6.542957	-0.021545	NaN	0.000000	0.001710	0.001699	28.0793	0.072363	0.002014	35.9226	-100.82	-169.143	-0.110371	0.541490	-1.205830	-1.207161	-0.021545	35.9226	-1.205380	-1.296529E+16	1.661765E-18	NaN
369	1.000000	0.554827	7.36867e+06	-57089.1	955.819	-29737.1	0.000000	0.000000	6.554964	0.010911	NaN	0.000000	0.001676	0.001743	28.0791	0.089310	0.001839	48.5578	-158.486	-165.106	0.086261	0.553593	-1.193824	-1.195058	0.010911	48.5578	-1.193993	-9.126449E+15	-1.195515E-18	NaN
369	1.000000	0.566826	7.36867e+06	-57089.1	955.818	-29737.1	0.000000	0.000000	6.566963	0.006604	NaN	0.000000	0.001599	0.001759	28.0791	0.083113	0.002042	40.6985	-4.129385	-167.786	-0.057448	0.565483	-1.181825	-1.183168	0.006604	40.6985	-1.181947	-6.294364E+15	-1.049134E-18	NaN
369	1.000000	0.578828	7.36867e+06	-57089.1	955.818	-29737.1	0.000000	0.000000	6.578962	-0.059310	NaN	0.000000	0.001594	0.001747	28.0795	0.023277	0.002013	11.5662	-126.615	-163.961	-0.027858	0.577504	-1.169823	-1.171147	-0.059310	11.5662	-1.165977	-3.845715E+15	1.542245E-17	NaN
369	1.000000	0.590857	7.36867e+06	-57089.1	955.818	-29737.1	0.000000	0.000000	6.590991	-0.032723	NaN	0.000000	0.001612	0.001732	28.079	0.078068	0.002071	37.7036	76.7364	-165.731	-0.045830	0.589542	-1.157795	-1.159109	-0.032723	37.7036	-1.157144	-2.928080E+15	1.117556E-17	NaN
369	1.000000	0.602850	7.36867e+06	-57089.1	955.819	-29737.1	0.000000	0.000000	6.602988	0.032557	NaN	0.000000	0.001642	0.001767	28.0805	0.097619	0.002127	45.9032	-138.093	-165.017	0.028005	0.601532	-1.145801	-1.147119	0.032557	45.9032	-1.146333	-2.097284E+15	-1.552330E-17	NaN
369	1.000000	0.614857	7.36867e+06	-57089.1	955.819	-29737.1	0.000000	0.000000	6.614991	-0.052244	NaN	0.000000	0.001636	0.001740	28.0805	0.058588	0.001863	31.4494	146.634	-161.993	-0.044403	0.613477	-1.133794	-1.135174	-0.052244	31.4494	-1.132548	-1.370254E+15	3.812688E-17	NaN
369	1.000000	0.626825	7.36867e+06	-57089.1	955.819	-29737.1	0.000000	0.000000	6.626960	-0.023114	NaN	0.000000	0.001639	0.001713	28.0805	0.015374	0.001832	8.393661	132.671	-163.643	0.025336	0.625576	-1.121826	-1.123075	-0.023114	8.393661	-1.119761	-9.231276E+14	2.503841E-17	NaN
369	1.000000	0.638870	7.36867e+06	-57089.1	955.817	-29737.1	0.000000	0.000000	6.639008	0.033138	NaN	0.000000	0.001601	0.001768	28.0805	0.060412	0.002056	29.3856	-114.477	-160.46	0.091425	0.637612	-1.109781	-1.111039	0.033138	29.3856	-1.110627	-6.961468E+14	-4.760143E-17	NaN
369	1.000000	0.650870	7.36867e+06	-57089.1	955.819	-29737.1	0.000000	0.000000	6.651008	0.031565	NaN	0.000000	0.001639	0.001751	28.0805	0.075350	0.001923	39.1872	-46.9601	-166.89	0.017690	0.649538	-1.097781	-1.099113	0.031565	39.1872	-1.098385	-4.768562E+14	-6.619369E-17	NaN
369	1.000000	0.662889	7.36867e+06	-57089.1	955.818	-29737.1	0.000000	0.000000	6.663025	0.004985	NaN	0.000000	0.001661	0.001737	28.0804	0.038454	0.001915	20.0846	-65.3268	-166.843	-0.038431	0.661597	-1.085762	-1.087054	0.004985	20.0846	-1.085949	-3.246453E+14	-1.535435E-17	NaN
369	1.000000	0.674872	7.36867e+06	-57089.1	955.818	-29737.1	0.000000	0.000000	6.675005	-0.080607	NaN	0.000000	0.001667	0.001740	28.0805	0.145436	0.001956	74.3582	112.393	-165.691	-0.027393	0.673612	-1.073779	-1.075039	-0.080607	74.3582	-1.072966	-2.172852E+14	3.709733E-16	NaN
369	1.000000	0.686889	7.36867e+06	-57089.1	955.818	-29737.1	0.000000	0.000000	6.687024	-0.040952	NaN	0.000000	0.001659	0.001744	28.0805	0.081119	0.001730	46.8936	-77.1035	-168.246	-0.022275	0.685613	-1.061762	-1.063038	-0.040952	46.8936	-1.061107	-1.505549E+14	2.720047E-16	NaN
369	1.000000	0.698921	7.36867e+06	-57089.1	955.818	-29737.1	0.000000	0.000000	6.699053	-0.089519	NaN	0.000000	0.001662	0.001716	28.0805	0.033027	0.002020	16.3479	133.688	-168.07	-0.059297	0.697600	-1.049730	-1.051051	-0.089519	16.3479	-1.045623	-9.323449E+13	9.601531E-16	NaN
369	1.000000	0.710895	7.36867e+06	-57089.1	955.818	-29737.1	0.000000	0.000000	6.711027	-0.101337	NaN	0.000000	0.001628	0.001749	28.0808	0.113331	0.001999	56.6837	135.904	-166.105	-0.060922	0.709567	-1.037756	-1.039084	-0.101337	56.6837	-1.036415	-7.010681E+13	1.445465E-15	NaN
369	1.000000	0.722892	7.36867e+06	-57089.1	955.818	-29737.1	0.000000	0.000000	6.723027	-0.035312	NaN	0.000000	0.001643	0.001759	28.0807	0.048151	0.002038	23.6248	-112.397	-166.008	-0.013782	0.721619	-1.025759	-1.027032	-0.035312	23.6248	-1.024638	-4.868019E+13	7.253809E-16	NaN
369	1.000000	0.734899	7.36867e+06	-57089.1	955.818	-29737.1	0.000000	0.000000	6.735039	0.093167	NaN	0.000000	0.001594	0.001708	28.0796	0.086949	0.001954	44.5035	-153.702	-165.165	0.039006	0.733552	-1.013752	-1.015099	0.093167	44.5035	-1.015322	-3.647623E+13	-2.554175E-15	NaN
369	1.000000	0.746890	7.36867e+06	-57089.1	955.817	-29737.1	0.000000	0.000000	6.747024	-0.050582	NaN	0.000000	0.001643	0.001722	28.079	0.143037	0.002123	67.3894	86.1563	-166.252	-0.135471	0.745595	-1.001761	-1.003056	-0.050582	67.3894	-1.001198	-2.354490E+13	2.148324E-15	NaN
369	1.000000	0.758894	7.36867e+06	-57089.1	955.818	-29737.1	0.000000	0.000000	6.759031	0.026888	NaN	0.000000	0.001649	0.001735	28.0792	0.085812	0.001952	43.9514	-128.657	-166.539	-0.103179	0.757592	-0.989757	-0.991060	0.026888	43.9514	-0.990216	-1.675021E+13	-1.605259E-15	NaN
369	1.000000	0.770931	7.36867e+06	-57089.1	955.818	-29737.1	0.000000	0.000000	6.771066	-0.039906	NaN	0.000000	0.001667	0.001757	28.0794	0.068033	0.001922	35.3987	-109.379	-166.274	-0.007730	0.769557	-0.977720	-0.979094	-0.039906	35.3987	-0.976874	-1.107382E+13	3.603633E-15	NaN
369	1.000000	0.782905	7.36867e+06	-57089.1	955.819	-29737.1	0.000000	0.000000	6.783038	-0.073994	NaN	0.000000	0.001679	0.001734	28.079	0.133449	0.002008	66.4662	117.162	-166.341	-0.085747	0.781586	-0.965746	-0.967065	-0.073994	66.4662	-0.964912	-7.639757E+12	9.685375E-15	NaN
369	1.000000	0.794919	7.36867e+06	-57089.1	955.818	-29737.1	0.000000	0.000000	6.795053	-0.054006	NaN	0.000000	0.001656	0.001737	28.0789	0.057064	0.001940	29.4189	171.572	-163.256	0.055106	0.793613	-0.953732	-0.955038	-0.054006	29.4189	-0.952355	-5.173584E+12	1.043881E-14	NaN
369	1.000000	0.806942	7.36867e+06	-57089.1	955.818	-29737.1	0.000000	0.000000	6.807075	-0.071577	NaN	0.000000	0.001645	0.001763	28.0792	0.087468	0.002043	42.815	168.042	-164.962	-0.098247	0.805617	-0.941709	-0.943034	-0.071577	42.815	-0.940456	-3.575071E+12	2.002119E-14	NaN
369	1.000000	0.818939	7.36867e+06	-57089.1	955.819	-29737.1	0.000000	0.000000	6.819073	-0.045003	NaN	0.000000	0.001655	0.001752	28.0791	0.054200	0.001993	27.192	121.447	-164.263	-0.145406	0.817612	-0.929712	-0.931039	-0.045003	27.192	-0.928471	-2.463534E+12	1.826765E-14	NaN
369	1.000000	0.830919	7.36867e+06	-57089.1	955.819	-29737.1	0.000000	0.000000	6.831054	-0.021864	NaN	0.000000	0.001688	0.001750	28.0794	0.065947	0.002038	32.3592	-124.707	-165.436	-0.052658	0.829639	-0.917732	-0.919012	-0.021864	32.3592	-0.917226	-1.736788E+12	1.258902E-14	NaN
369	1.000000	0.842930	7.36867e+06	-57089.1	955.818	-29737.1	0.000000	0.000000	6.843063	-0.074891	NaN	0.000000	0.001642	0.001728	28.0791	0.050536	0.001977	25.5674	-141.899	-168.804	-0.073709	0.841610	-0.905721	-0.907042	-0.074891	25.5674	-0.903524	-1.134182E+12	6.603044E-14	NaN
369	1.000000	0.854945	7.36867e+06	-57089.1	955.818	-29737.1	0.000000	0.000000	6.855082	0.014339	NaN	0.000000	0.001635	0.001751	28.079	0.075913	0.002070	36.6738	125.767	-163.098	-0.017007	0.853672	-0.893706	-0.894979	0.014339	36.6738	-0.893999	-8.432709E+11	-1.700400E-14	NaN
369	1.000000	0.866993	7.36867e+06	-57089.1	955.818	-29737.1	0.000000	0.000000	6.867128	-0.032002	NaN	0.000000	0.001637	0.001732	28.0792	0.048111	0.001941	24.7913	-49.4525	-165.899	0.077387	0.865639	-0.881658	-0.883013	-0.032002	24.7913	-0.880690	-5.572375E+11	5.743018E-14	NaN
369	1.000000	0.878966	7.36867e+06	-57089.1	955.818	-29737.1	0.000000	0.000000	6.879100	-0.061641	NaN	0.000000	0.001627	0.001715	28.0803	0.058055	0.001911	30.3862	105.071	-167.497	-0.040822	0.877668	-0.869685	-0.870983	-0.061641	30.3862	-0.868164	-3.772219E+11	1.634074E-13	NaN
369	1.000000	0.890939	7.36867e+06	-57089.1	955.818	-29737.1	0.000000	0.000000	6.891075	-0.008906	NaN	0.000000	0.001656	0.001716	28.0805	0.094845	0.002037	46.5647	-41.302	-166.113	-0.040686	0.889662	-0.857712	-0.858989	-0.008906	46.5647	-0.857568	-2.711478E+11	3.284457E-14	NaN
369	1.000000	0.902956	7.36867e+06	-57089.1	955.819	-29737.1	0.000000	0.000000	6.903094	0.054289	NaN	0.000000	0.001616	0.001715	28.0806	0.065528	0.002030	32.2845	-15.2648	-166.967	0.050250	0.901676	-0.845695	-0.846975	0.054289	32.2845	-0.846957	-1.947704E+11	-2.787329E-13	NaN
369	1.000000	0.914966	7.36867e+06	-57089.1	955.818	-29737.1	0.000000	0.000000	6.915101	-0.015650	NaN	0.000000	0.001619	0.001713	28.0805	0.017399	0.002055	8.465929	-23.2428	-165.886	0.005533	0.913641	-0.833685	-0.835010	-0.015650	8.465929	-0.832299	-1.232945E+11	1.269290E-13	NaN
369	1.000000	0.926983	7.36867e+06	-57089.1	955.818	-29737.1	0.000000	0.000000	6.927119	-0.024529	NaN	0.000000	0.001698	0.001704	28.0806	0.087102	0.002030	42.914	-165.32	-167.377	-0.003760	0.925635	-0.821668	-0.823016	-0.024529	42.914	-0.821239	-8.729988E+10	2.809685E-13	NaN
369	1.000000	0.939003	7.36867e+06	-57089.1	955.819	-29737.1	0.000000	0.000000	6.939140	0.014778	NaN	0.000000	0.001677	0.001714	28.0805	0.008818	0.001982	4.449374	161.431	-167.798	-0.028357	0.937668	-0.809648	-0.810983	0.014778	4.449374	-0.812139	-6.570407E+10	-2.249108E-13	NaN
369	1.000000	0.950975	7.36868e+06	-57089.1	955.818	-29737.1	0.000000	0.000000	6.951112	0.028168	NaN	0.000000	0.001688	0.001683	28.0804	0.024829	0.002073	11.9749	77.5524	-165.658	0.005342	0.949707	-0.797676	-0.798944	0.028168	11.9749	-0.799440	-4.418417E+10	-6.375123E-13	NaN
369	1.000000	0.963017	7.36868e+06	-57089.1	955.819	-29737.1	0.000000	0.000000	6.963155	0.053669	NaN	0.000000	0.001692	0.001745	28.0804	0.003014	0.001961	1.536609	-94.5608	-163.689	-0.046963	0.961686	-0.785634	-0.786965	0.053669	1.536609	-0.811830	-6.507175E+10	-8.247645E-13	NaN
369	1.000000	0.975008	7.36868e+06	-57089.1	955.818	-29737.1	0.000000	0.000000	6.975146	0.063022	NaN	0.000000	0.001707	0.001724	28.0805	0.121024	0.002009	60.2263	-35.541	-170.656	0.126043	0.973646	-0.773643	-0.775006	0.063022	60.2263	-0.774428	-2.020724E+10	-3.118764E-12	NaN
369	1.000000	0.987014	7.36868e+06	-57089.1	955.818	-29737.1	0.000000	0.000000	6.987147	-0.062891	NaN	0.000000	0.001661	0.001743	28.0805	0.011589	0.001887	6.140566	-145.307	-164.206	-0.074958	0.985645	-0.761638	-0.763006	-0.062891	6.140566	-0.753956	-1.064304E+10	5.909113E-12	NaN
369	1.000000	0.999004	7.36868e+06	-57089.1	955.818	-29737.1	0.000000	0.000000	6.999136	-0.099912	NaN	0.000000	0.001680	0.001745	28.0805	0.051406	0.001950	26.3639	-161.308	-166.563	-0.080878	0.997737	-0.749647	-0.750914	-0.099912	26.3639	-0.746805	-8.506019E+9	1.174604E-11	NaN
369	1.000000	1.011003	7.36868e+06	-57089.1	955.818	-29737.1	0.000000	0.000000	7.011137	-0.059722	NaN	0.000000	0.001690	0.001732	28.0794	0.071772	0.001946	36.8781	-39.5846	-164.991	-0.092774	1.009695	-0.737648	-0.738956	-0.059722	36.8781	-0.736434	-6.144358E+9	9.719848E-12	NaN
369	1.000000	1.023014	7.36868e+06	-57089.1	955.818	-29737.1	0.000000	0.000000	7.023150	-0.015062	NaN	0.000000	0.001717	0.001738	28.0793	0.042334	0.001979	21.387	79.0554	-167.589	0.005763	1.021727	-0.725637	-0.726924	-0.015062	21.387	-0.725109	-4.306622E+9	3.497467E-12	NaN
369	1.000000	1.035010	7.36868e+06	-57089.1	955.818	-29737.1	0.000000	0.000000	7.035144	-0.045998	NaN	0.000000	0.001675	0.001745	28.0792	0.015114	0.002143	7.053103	-66.1336	-165.052	-0.036837	1.033722	-0.713641	-0.714929	-0.045998	7.053103	-0.708750	-2.576268E+9	1.785464E-11	NaN
369	1.000000	1.047043	7.36868e+06	-57089.1	955.818	-29737.1	0.000000	0.000000	7.047179	0.012593	NaN	0.000000	0.001705	0.001767	28.0793	0.081752	0.001999	40.8925	-104.229	-164.105	-0.104889	1.045676	-0.701608	-0.702975	0.012593	40.8925	-0.701839	-2.073237E+9	-6.074056E-12	NaN
369	1.000000	1.059014	7.36868e+06	-57089.1	955.819	-29737.1	0.000000	0.000000	7.059147	-0.072209	NaN	0.000000	0.001690	0.001759	28.0793	0.056510	0.001992	28.3651	-67.6687	-168.737	-0.090697	1.057668	-0.689637	-0.690983	-0.072209	28.3651	-0.687728	-1.330050E+9	5.429053E-11	NaN
369	1.000000	1.071030	7.36868e+06	-57089.1	955.818	-29737.1	0.000000	0.000000	7.071163	-0.057400	NaN	0.000000	0.001700	0.001727	28.079	0.154955	0.001952	79.3663	11.1237	-166.586	-0.074055	1.069735	-0.677622	-0.678916	-0.057400	79.3663	-0.677079	-9.511629E+8	6.034759E-11	NaN
369	1.000000	1.083027	7.36868e+06	-57089.1	955.819	-29737.1	0.000000	0.000000	7.083162	-0.017710	NaN	0.000000	0.001711	0.001728	28.079	0.098359	0.001963	50.0957	-134.343	-168.052	-0.026172	1.081734	-0.665624	-0.666917	-0.017710	50.0957	-0.665359	-6.574496E+8	2.693691E-11	NaN
369	1.000000	1.095045	7.36868e+06	-57089.1	955.819	-29737.1	0.000000	0.000000	7.095180	-0.038432	NaN	0.000000	0.001711	0.001746	28.0791	0.039717	0.001874	21.1975	104.462	-166.204	-0.011825	1.093743	-0.653606	-0.654908	-0.038432	21.1975	-0.652246	-4.347371E+8	8.840200E-11	NaN
369	1.000000	1.107043	7.36868e+06	-57089.1	955.818	-29737.1	0.000000	0.000000	7.107175	-0.102660	NaN	0.000000	0.001661	0.001719	28.0791	0.027594	0.001910	14.4443	20.9743	-169.762	-0.024505	1.105719	-0.641608	-0.642932	-0.102660	14.4443	-0.636277	-2.625439E+8	3.910211E-10	NaN
369	1.000000	1.119066	7.36868e+06	-57089.1	955.818	-29737.1	0.000000	0.000000	7.119201	-0.037458	NaN	0.000000	0.001673	0.001742	28.0792	0.037443	0.001980	18.9116	-133.448	-166.832	0.026943	1.117712	-0.629585	-0.630939	-0.037458	18.9116	-0.628099	-2.027298E+8	1.847678E-10	NaN
369	1.000000	1.131039	7.36868e+06	-57089.1	955.818	-29737.1	0.000000	0.000000	7.131174	-0.009117	NaN	0.000000	0.001726	0.001725	28.0791	0.010863	0.002134	5.089509	164.874	-164.069	0.002773	1.129712	-0.617612	-0.618939	-0.009117	5.089509	-0.616269	-1.394248E+8	6.539101E-11	NaN
369	1.000000	1.143078	7.36868e+06	-57089.1	955.818	-29737.1	0.000000	0.000000	7.143214	0.015768	NaN	0.000000	0.001707	0.001715	28.0793	0.084081	0.001975	42.5634	-53.1798	-165.438	0.042716	1.141692	-0.605574	-0.606959	0.015768	42.5634	-0.605851	-1.002359E+8	-1.573090E-10	NaN
369	1.000000	1.155050	7.36868e+06	-57089.1	955.82	-29737.1	0.000000	0.000000	7.155181	-0.116630	NaN	0.000000	0.001705	0.001732	28.0804	0.006553	0.001923	3.408148	-71.9272	-166.476	-0.046397	1.153774	-0.593601	-0.594877	-0.116630	3.408148	-0.567936	-3.006806E+7	3.878877E-9	NaN
369	1.000000	1.167085	7.36868e+06	-57089.1	955.818	-29737.1	0.000000	0.000000	7.167221	0.003990	NaN	0.000000	0.001687	0.001693	28.0802	0.146479	0.001991	73.5667	17.7838	-166.915	-0.022687	1.165720	-0.581566	-0.582931	0.003990	73.5667	-0.581607	-4.644097E+7	-8.592524E-11	NaN
369	1.000000	1.179051	7.36868e+06	-57089.1	955.818	-29737.1	0.000000	0.000000	7.179188	-0.003175	NaN	0.000000	0.001693	0.001710	28.0804	0.069344	0.001935	35.833	118.444	-163.049	0.012411	1.177728	-0.569600	-0.570923	-0.003175	35.833	-0.569533	-3.163600E+7	1.003687E-10	NaN
369	1.000000	1.191070	7.36868e+06	-57089.1	955.818	-29737.1	0.000000	0.000000	7.191206	-0.018825	NaN	0.000000	0.001702	0.001727	28.0802	0.058422	0.002010	29.06	-13.5236	-167.977	0.035545	1.189792	-0.557581	-0.558859	-0.018825	29.06	-0.557095	-2.129037E+7	8.842167E-10	NaN
369	1.000000	1.203083	7.36868e+06	-57089.1	955.818	-29737.1	0.000000	0.000000	7.203217	-0.071015	NaN	0.000000	0.001669	0.001705	28.0802	0.085101	0.002077	40.9817	-112.015	-167.747	-0.051871	1.201775	-0.545568	-0.546876	-0.071015	40.9817	-0.544268	-1.414281E+7	5.021307E-9	NaN
369	1.000000	1.215095	7.36868e+06	-57089.1	955.819	-29737.1	0.000000	0.000000	7.215230	-0.025493	NaN	0.000000	0.001642	0.001699	28.0806	0.132773	0.001998	66.4481	-98.6794	-165.678	-0.047429	1.213783	-0.533556	-0.534868	-0.025493	66.4481	-0.533268	-9.95304e+06	2.561329E-9	NaN
369	1.000000	1.227076	7.36868e+06	-57089.1	955.82	-29737.1	0.000000	0.000000	7.227215	0.071175	NaN	0.000000	0.001632	0.001720	28.0803	0.069777	0.001979	35.2548	110.941	-165.412	0.032640	1.225755	-0.521575	-0.522896	0.071175	35.2548	-0.523089	-7.18713e+06	-9.903116E-9	NaN
369	1.000000	1.239096	7.36868e+06	-57089.1	955.819	-29737.1	0.000000	0.000000	7.239232	-0.015235	NaN	0.000000	0.001642	0.001767	28.0804	0.050888	0.001873	27.17	146.388	-165.972	0.027526	1.237748	-0.509555	-0.510903	-0.015235	27.17	-0.509134	-4.59576e+06	3.314979E-9	NaN
369	1.000000	1.251102	7.36868e+06	-57089.1	955.819	-29737.1	0.000000	0.000000	7.251240	0.031260	NaN	0.000000	0.001593	0.001753	28.0804	0.061085	0.001996	30.6035	160.945	-167.229	-0.026486	1.249799	-0.497549	-0.498852	0.031260	30.6035	-0.498315	-3.2472e+06	-9.626606E-9	NaN
369	1.000000	1.263133	7.36868e+06	-57089.1	955.82	-29737.1	0.000000	0.000000	7.263270	0.002894	NaN	0.000000	0.001611	0.001722	28.0803	0.111966	0.001896	59.0461	22.2357	-165.142	-0.075663	1.261820	-0.485518	-0.486831	0.002894	59.0461	-0.485555	-2.15401e+06	-1.343591E-9	NaN
369	1.000000	1.275142	7.36868e+06	-57089.1	955.82	-29737.1	0.000000	0.000000	7.275280	0.045027	NaN	0.000000	0.001644	0.001699	28.0801	0.046588	0.002098	22.201	8.922730	-167.376	-0.010454	1.273790	-0.473509	-0.474861	0.045027	22.201	-0.475030	-1.53436e+06	-2.934580E-8	NaN
369	1.000000	1.287142	7.36868e+06	-57089.1	955.82	-29737.1	0.000000	0.000000	7.287279	0.012375	NaN	0.000000	0.001627	0.001694	28.0789	0.040915	0.002067	19.7921	-106.35	-166.585	-0.068070	1.285812	-0.461509	-0.462839	0.012375	19.7921	-0.461978	-1.00648e+06	-1.229565E-8	NaN
369	1.000000	1.299128	7.36868e+06	-57089.1	955.82	-29737.1	0.000000	0.000000	7.299265	0.006610	NaN	0.000000	0.001628	0.001686	28.079	0.113096	0.001975	57.2772	-21.6044	-168.675	0.012511	1.297818	-0.449523	-0.450833	0.006610	57.2772	-0.449609	-674278	-9.803186E-9	NaN
369	1.000000	1.311154	7.36868e+06	-57089.1	955.82	-29737.1	0.000000	0.000000	7.311288	-0.037032	NaN	0.000000	0.001589	0.001689	28.0794	0.064902	0.001953	33.2397	-97.7087	-168.171	-0.015132	1.309830	-0.437497	-0.438821	-0.037032	33.2397	-0.436662	-442825	8.362597E-8	NaN
369	1.000000	1.323137	7.36868e+06	-57089.1	955.819	-29737.1	0.000000	0.000000	7.323275	0.054145	NaN	0.000000	0.001616	0.001682	28.079	0.063528	0.001955	32.4907	-67.5835	-166.276	0.020700	1.321784	-0.425514	-0.426867	0.054145	32.4907	-0.426764	-320823	-1.687680E-7	NaN
369	1.000000	1.335133	7.36868e+06	-57089.1	955.82	-29737.1	0.000000	0.000000	7.335269	-0.002720	NaN	0.000000	0.001562	0.001673	28.079	0.080849	0.002151	37.5909	-51.5903	-165.688	0.050601	1.333796	-0.413518	-0.414855	-0.002720	37.5909	-0.413464	-207798	1.309167E-8	NaN
369	1.000000	1.347157	7.36868e+06	-57089.1	955.819	-29737.1	0.000000	0.000000	7.347293	-0.025192	NaN	0.000000	0.001598	0.001672	28.0786	0.106039	0.001994	53.1825	73.182	-166.399	-0.024599	1.345849	-0.401494	-0.402802	-0.025192	53.1825	-0.401138	-138748	1.815652E-7	NaN
369	1.000000	1.359154	7.36868e+06	-57089.1	955.82	-29737.1	0.000000	0.000000	7.359289	-0.032269	NaN	0.000000	0.001599	0.001678	28.079	0.112970	0.001977	57.1439	14.6501	-168.109	0.011936	1.357897	-0.389497	-0.390754	-0.032269	57.1439	-0.389073	-93306.2	3.458391E-7	NaN
369	1.000000	1.371173	7.36868e+06	-57089.1	955.82	-29737.1	0.000000	0.000000	7.371306	-0.093909	NaN	0.000000	0.001585	0.001639	28.0788	0.123556	0.001937	63.7784	-95.4024	-166.203	-0.014032	1.369876	-0.377478	-0.378775	-0.093909	63.7784	-0.376374	-61349.8	1.530717E-6	NaN
369	1.000000	1.383182	7.36868e+06	-57089.1	955.82	-29737.1	0.000000	0.000000	7.383318	-0.022161	NaN	0.000000	0.001584	0.001699	28.0787	0.084221	0.002095	40.2095	-37.4748	-163.766	-0.038178	1.381838	-0.365469	-0.366813	-0.022161	40.2095	-0.365056	-42155.6	5.256889E-7	NaN
369	1.000000	1.395149	7.36868e+06	-57089.1	955.821	-29737.1	0.000000	0.000000	7.395288	0.068703	NaN	0.000000	0.001577	0.001651	28.0786	0.094398	0.001956	48.2632	-80.9193	-165.691	0.020025	1.393833	-0.353502	-0.354818	0.068703	48.2632	-0.354569	-29734.4	-2.310551E-6	NaN
369	1.000000	1.407173	7.36868e+06	-57089.1	955.82	-29737.1	0.000000	0.000000	7.407311	0.028052	NaN	0.000000	0.001659	0.001694	28.0789	0.009093	0.002045	4.447089	-115.195	-168.423	0.032632	1.405867	-0.341478	-0.342784	0.028052	4.447089	-0.346209	-22487	-1.247477E-6	NaN
369	1.000000	1.419182	7.36868e+06	-57089.1	955.821	-29737.1	0.000000	0.000000	7.419315	-0.066246	NaN	0.000000	0.001667	0.001675	28.0803	0.060184	0.001999	30.1101	-65.3843	-168.555	-0.000785	1.417888	-0.329469	-0.330763	-0.066246	30.1101	-0.327819	-12119.9	5.465944E-6	NaN
369	1.000000	1.431204	7.36868e+06	-57089.1	955.82	-29737.1	0.000000	0.000000	7.431342	0.045214	NaN	0.000000	0.001638	0.001679	28.0803	0.044275	0.002063	21.4609	91.3663	-167.166	0.053439	1.429868	-0.317448	-0.318783	0.045214	21.4609	-0.319028	-9001.67	-5.022893E-6	NaN
369	1.000000	1.443209	7.36868e+06	-57089.1	955.82	-29737.1	0.000000	0.000000	7.443344	-0.021841	NaN	0.000000	0.001675	0.001712	28.0805	0.038670	0.001874	20.6312	-165.412	-171.463	-0.003638	1.441871	-0.305443	-0.306780	-0.021841	20.6312	-0.304649	-5517.45	3.958582E-6	NaN
369	1.000000	1.455179	7.36868e+06	-57089.1	955.82	-29737.1	0.000000	0.000000	7.455314	-0.028951	NaN	0.000000	0.001670	0.001638	28.0802	0.046149	0.002047	22.5419	147.872	-164.573	-0.021864	1.453877	-0.293472	-0.294775	-0.028951	22.5419	-0.292509	-3638.01	7.957996E-6	NaN
369	1.000000	1.467199	7.36868e+06	-57089.1	955.819	-29737.1	0.000000	0.000000	7.467336	0.014474	NaN	0.000000	0.001708	0.001678	28.0803	0.116102	0.002030	57.1968	151.184	-167.829	-0.033967	1.465884	-0.281452	-0.282767	0.014474	57.1968	-0.281642	-2498.78	-5.792619E-6	NaN
369	1.000000	1.479232	7.36868e+06	-57089.1	955.82	-29737.1	0.000000	0.000000	7.479367	-0.015792	NaN	0.000000	0.001745	0.001686	28.0801	0.111032	0.002029	54.7282	-6.577547	-164.653	-0.106467	1.477880	-0.269419	-0.270771	-0.015792	54.7282	-0.269203	-1619.66	9.750486E-6	NaN
369	1.000000	1.491207	7.36868e+06	-57089.1	955.821	-29737.1	0.000000	0.000000	7.491346	0.049120	NaN	0.000000	0.001660	0.001642	28.08	0.049307	0.001955	25.22	17.077	-166.668	0.029730	1.489926	-0.257444	-0.258725	0.049120	25.22	-0.258905	-1127.51	-4.356477E-5	NaN
369	1.000000	1.503226	7.36868e+06	-57089.1	955.82	-29737.1	0.000000	0.000000	7.503364	0.057219	NaN	0.000000	0.001686	0.001664	28.0802	0.050510	0.001914	26.3833	-149.257	-162.524	-0.038610	1.501927	-0.245425	-0.246724	0.057219	26.3833	-0.247052	-740.134	-7.730868E-5	NaN
369	1.000000	1.515228	7.36868e+06	-57089.1	955.819	-29737.1	0.000000	0.000000	7.515363	-0.032165	NaN	0.000000	0.001654	0.001637	28.0802	0.099950	0.002053	48.6753	148.554	-165.968	0.022519	1.513904	-0.233423	-0.234747	-0.032165	48.6753	-0.232927	-445.31	7.223100E-5	NaN
369	1.000000	1.527210	7.36868e+06	-57089.1	955.821	-29737.1	0.000000	0.000000	7.527345	-0.014941	NaN	0.000000	0.001708	0.001716	28.0803	0.086489	0.001964	44.0263	-155.639	-165.717	-0.055742	1.525873	-0.221441	-0.222778	-0.014941	44.0263	-0.221187	-290.155	5.149179E-5	NaN
369	1.000000	1.539229	7.36868e+06	-57089.1	955.82	-29737.1	0.000000	0.000000	7.539363	-0.047839	NaN	0.000000	0.001712	0.001649	28.0803	0.058123	0.002129	27.2993	71.7473	-169.903	6.402077E-5	1.537933	-0.209422	-0.210718	-0.047839	27.2993	-0.208108	-178.704	0.000268	NaN
369	1.000000	1.551255	7.36868e+06	-57089.1	955.82	-29737.1	0.000000	0.000000	7.551391	-0.004479	NaN	0.000000	0.001706	0.001660	28.0802	0.077189	0.002012	38.3578	166.825	-162.11	0.060293	1.549962	-0.197397	-0.198690	-0.004479	38.3578	-0.197309	-118.954	3.765571E-5	NaN
369	1.000000	1.563276	7.36868e+06	-57089.1	955.821	-29737.1	0.000000	0.000000	7.563411	-0.029801	NaN	0.000000	0.001679	0.001653	28.0792	0.094310	0.002024	46.6019	-106.287	-167.694	0.010563	1.561953	-0.185375	-0.186698	-0.029801	46.6019	-0.184895	-73.8522	0.000404	NaN
369	1.000000	1.575231	7.36868e+06	-57089.1	955.819	-29737.1	0.000000	0.000000	7.575370	0.053004	NaN	0.000000	0.001666	0.001664	28.0788	0.078670	0.001885	41.7342	178.809	-165.249	0.118446	1.573927	-0.173420	-0.174724	0.053004	41.7342	-0.174372	-48.8864	-0.001084	NaN
369	1.000000	1.587266	7.36868e+06	-57089.1	955.82	-29737.1	0.000000	0.000000	7.587400	-0.066674	NaN	0.000000	0.001696	0.001663	28.0791	0.062625	0.002038	30.7224	72.7622	-167.339	-0.036121	1.585936	-0.161385	-0.162716	-0.066674	30.7224	-0.159757	-27.1438	0.002456	NaN
369	1.000000	1.599258	7.36868e+06	-57089.1	955.82	-29737.1	0.000000	0.000000	7.599393	-0.043571	NaN	0.000000	0.001592	0.001706	28.0788	0.105685	0.002028	52.1139	122.805	-166.804	0.032224	1.597920	-0.149393	-0.150731	-0.043571	52.1139	-0.148766	-17.197	0.002534	NaN
369	1.000000	1.611284	7.36868e+06	-57089.1	955.82	-29737.1	0.000000	0.000000	7.611419	-0.048734	NaN	0.000000	0.001623	0.001679	28.0789	0.117899	0.002213	53.2764	-127.329	-164.791	-0.022078	1.609927	-0.137367	-0.138724	-0.048734	53.2764	-0.136681	-10.2397	0.004759	NaN
369	1.000000	1.623275	7.36868e+06	-57089.1	955.821	-29737.1	0.000000	0.000000	7.623407	-0.105449	NaN	0.000000	0.001624	0.001674	28.0791	0.071928	0.001951	36.8716	-116.182	-165.017	-0.082572	1.621995	-0.125376	-0.126656	-0.105449	36.8716	-0.123231	-5.608913	0.018800	NaN
369	1.000000	1.635282	7.36868e+06	-57089.1	955.821	-29737.1	0.000000	0.000000	7.635420	0.024621	NaN	0.000000	0.001623	0.001741	28.0789	0.081135	0.001944	41.7388	78.4882	-169.336	0.006375	1.633955	-0.113369	-0.114696	0.024621	41.7388	-0.113811	-3.610207	-0.006820	NaN
369	1.000000	1.647271	7.36868e+06	-57089.1	955.821	-29737.1	0.000000	0.000000	7.647405	-0.064671	NaN	0.000000	0.001586	0.001697	28.0794	0.106677	0.001911	55.8256	-151.14	-164.242	-0.012444	1.645989	-0.101380	-0.102662	-0.064671	55.8256	-0.100511	-1.875365	0.034484	NaN
369	1.000000	1.659302	7.36868e+06	-57089.1	955.821	-29737.1	0.000000	0.000000	7.659439	-0.002189	NaN	0.000000	0.001594	0.001704	28.0791	0.087002	0.002077	41.8951	112.7	-168.792	-0.014744	1.658030	-0.089349	-0.090621	-0.002189	41.8951	-0.089310	-1.041319	0.002102	NaN
369	1.000000	1.671331	7.36868e+06	-57089.1	955.821	-29737.1	0.000000	0.000000	7.671467	-0.003582	NaN	0.000000	0.001591	0.001738	28.0788	0.082880	0.001968	42.1202	-111.332	-164.996	-0.081294	1.669986	-0.077320	-0.078665	-0.003582	42.1202	-0.077256	-0.527755	0.006787	NaN
369	1.000000	1.683306	7.36868e+06	-57089.1	955.821	-29737.1	0.000000	0.000000	7.683443	0.011723	NaN	0.000000	0.001595	0.001694	28.0788	0.031665	0.002152	14.7143	70.679	-164.82	0.026630	1.681982	-0.065345	-0.066669	0.011723	14.7143	-0.065943	-0.264629	-0.044300	NaN
369	1.000000	1.695327	7.36868e+06	-57089.1	955.82	-29737.1	0.000000	0.000000	7.695461	-0.040053	NaN	0.000000	0.001621	0.001702	28.0801	0.089382	0.001929	46.3246	105.388	-167.67	-0.018129	1.694017	-0.053325	-0.054634	-0.040053	46.3246	-0.052676	-0.109834	0.364667	NaN
369	1.000000	1.707344	7.36868e+06	-57089.1	955.821	-29737.1	0.000000	0.000000	7.707478	-0.059236	NaN	0.000000	0.001609	0.001676	28.0802	0.061971	0.001967	31.5056	137.567	-166.09	-0.126660	1.706023	-0.041307	-0.042628	-0.059236	31.5056	-0.039897	-0.044898	1.319364	NaN
369	1.000000	1.719335	7.36868e+06	-57089.1	955.821	-29737.1	0.000000	0.000000	7.719472	0.019552	NaN	0.000000	0.001622	0.001739	28.0803	0.144676	0.001977	73.1734	39.9297	-166.405	0.037887	1.717997	-0.029316	-0.030654	0.019552	73.1734	-0.029516	-0.022312	-0.876319	NaN
369	1.000000	1.731306	7.36868e+06	-57089.1	955.82	-29737.1	0.000000	0.000000	7.731442	-0.002305	NaN	0.000000	0.001628	0.001730	28.0805	0.110572	0.001953	56.6155	-172.164	-165.33	-0.029756	1.730042	-0.017345	-0.018609	-0.002305	56.6155	-0.017314	-0.010713	0.215168	NaN
369	1.000000	1.743330	7.36868e+06	-57089.1	955.819	-29737.1	0.000000	0.000000	7.743467	0.032070	NaN	0.000000	0.001606	0.001731	28.0805	0.077017	0.002007	38.376	145.262	-165.467	-0.025656	1.741990	-0.005321	-0.006661	0.032070	38.376	-0.005948	-0.004005	-8.008319	NaN
369	2.000000	1.754708	7.36868e+06	-57089.1	955.822	-29737.1	0.000000	0.000000	7.755310	11.3002	NaN	0.000000	0.001651	0.001745	28.0803	8.989293	0.001588	5660.01	5.764806	-174.211	9.614628	1.753930	0.006057	0.005279	11.3002	5660.01	0.004560	0.003735	3025.21	84610.8
369	2.000000	1.757839	7.36868e+06	-57089.1	955.821	-29737.1	0.000000	0.000000	7.758753	18.9164	NaN	0.000000	0.001625	0.001720	28.0802	12.8688	0.001792	7180.97	6.652453	-176.818	17.9963	1.757537	0.009187	0.008886	18.9164	7180.97	0.007212	0.006244	3029.46	83027.3
369	2.000000	1.760758	7.36868e+06	-57089.1	955.82	-29737.1	0.000000	0.000000	7.762222	32.2727	NaN	0.000000	0.001641	0.001724	28.0802	16.4408	0.001730	9505.61	4.328436	-175.037	30.1426	1.760466	0.012107	0.011815	32.2727	9505.61	0.009560	0.008697	3710.88	93126.7
369	2.000000	1.763764	7.36868e+06	-57089.1	955.821	-29737.1	0.000000	0.000000	7.765825	46.7891	NaN	0.000000	0.001636	0.001744	28.0801	20.5402	0.001812	11336.9	5.586546	-178.085	44.4967	1.763444	0.015113	0.014793	46.7891	11336.9	0.012017	0.011511	4064.81	96541.9
369	2.000000	1.766783	7.36868e+06	-57089.1	955.822	-29737.1	0.000000	0.000000	7.769336	58.7442	NaN	0.000000	0.001669	0.001742	28.0802	23.9012	0.001725	13858.3	2.688270	-177.671	58.2774	1.766647	0.018132	0.017995	58.7442	13858.3	0.014952	0.015222	3859.15	102623
369	2.000000	1.769804	7.36868e+06	-57089.1	955.822	-29737.1	0.000000	0.000000	7.773079	76.2813	NaN	0.000000	0.001684	0.001701	28.0803	26.88	0.001794	14980.9	2.513296	-177.173	76.3204	1.769565	0.021153	0.020914	76.2813	14980.9	0.017334	0.018525	4117.67	100560
369	2.000000	1.772782	7.36868e+06	-57089.1	955.822	-29737.1	0.000000	0.000000	7.776793	94.1583	NaN	0.000000	0.001653	0.001722	28.08	30.3537	0.001721	17635	5.473779	178.664	90.5471	1.772359	0.024131	0.023708	94.1583	17635	0.020127	0.022742	4140.32	106840
369	2.000000	1.775781	7.36868e+06	-57089.1	955.823	-29737.1	0.000000	0.000000	7.780487	111.049	NaN	0.000000	0.001615	0.001727	28.08	32.8903	0.001785	18425.3	7.355912	176.939	110.643	1.775423	0.027130	0.026772	111.049	18425.3	0.022610	0.026811	4141.97	102810
369	2.000000	1.778709	7.36868e+06	-57089.1	955.821	-29737.1	0.000000	0.000000	7.783803	120.481	NaN	0.000000	0.001591	0.001722	28.0792	34.8768	0.001735	20101.8	-0.685204	-177.139	117.741	1.778419	0.030058	0.029767	120.481	20101.8	0.025563	0.032048	3759.41	102591
369	2.000000	1.781677	7.36868e+06	-57089.1	955.822	-29737.1	0.000000	0.000000	7.787561	139.718	NaN	0.000000	0.001581	0.001706	28.079	38.6263	0.001648	23433.6	5.822384	174.845	136.771	1.781397	0.033026	0.032746	139.718	23433.6	0.028554	0.037800	3696.27	110120
369	2.000000	1.784714	7.36868e+06	-57089.1	955.822	-29737.1	0.000000	0.000000	7.791309	156.964	NaN	0.000000	0.001592	0.001725	28.0795	40.8235	0.001747	23364.9	2.016695	179.67	154.553	1.784398	0.036063	0.035747	156.964	23364.9	0.031025	0.042895	3659.29	103071
369	2.000000	1.787921	7.36868e+06	-57089.1	955.823	-29737.1	0.000000	0.000000	7.794964	167.88	NaN	0.000000	0.001588	0.001730	28.079	44.8473	0.001853	24206.8	4.251109	178.204	178.13	1.787553	0.039270	0.038902	167.88	24206.8	0.034068	0.049599	3384.74	99305.3
369	2.000000	1.790733	7.36868e+06	-57089.1	955.822	-29737.1	0.000000	0.000000	7.798841	193.739	NaN	0.000000	0.001583	0.001691	28.079	47.3704	0.001753	27023.6	3.489428	176.953	194.388	1.790401	0.042082	0.041750	193.739	27023.6	0.036705	0.055791	3472.59	104528
369	2.000000	1.793752	7.36868e+06	-57089.1	955.822	-29737.1	0.000000	0.000000	7.802742	215.202	NaN	0.000000	0.001566	0.001730	28.0791	51.3031	0.001916	26778.2	6.560964	174.817	216.878	1.793399	0.045101	0.044748	215.202	26778.2	0.039073	0.061655	3490.41	98530
369	2.000000	1.796741	7.36868e+06	-57089.1	955.822	-29737.1	0.000000	0.000000	7.806269	228.26	NaN	0.000000	0.001606	0.001707	28.0788	53.7402	0.001738	30913.7	7.245489	172.841	229.249	1.796369	0.048090	0.047718	228.26	30913.7	0.042552	0.070790	3224.47	106155
369	2.000000	1.799691	7.36868e+06	-57089.1	955.821	-29737.1	0.000000	0.000000	7.810103	249.77	NaN	0.000000	0.001659	0.001741	28.0796	55.6887	0.001785	31191.4	3.909270	174.909	246.374	1.799415	0.051039	0.050764	249.77	31191.4	0.045034	0.077683	3215.24	102246
369	2.000000	1.802711	7.36868e+06	-57089.1	955.822	-29737.1	0.000000	0.000000	7.814188	275.638	NaN	0.000000	0.001648	0.001735	28.0788	57.9419	0.001809	32035	5.300592	173.597	274.052	1.802358	0.054060	0.053707	275.638	32035	0.047607	0.085159	3236.75	100296
369	2.000000	1.805598	7.36868e+06	-57089.1	955.821	-29737.1	0.000000	0.000000	7.817732	291.599	NaN	0.000000	0.001658	0.001717	28.0792	59.509	0.001736	34283.1	5.493347	173.046	284.405	1.805207	0.056947	0.056556	291.599	34283.1	0.050568	0.094176	3096.31	102066
369	2.000000	1.808841	7.36868e+06	-57089.1	955.822	-29737.1	0.000000	0.000000	7.821986	316.195	NaN	0.000000	0.001662	0.001734	28.0803	62.2303	0.001765	35263.1	10.3251	170.19	321.678	1.808324	0.060189	0.059673	316.195	35263.1	0.053464	0.103421	3057.35	100182
369	2.000000	1.811701	7.36868e+06	-57089.1	955.821	-29737.1	0.000000	0.000000	7.825661	335.988	NaN	0.000000	0.001672	0.001733	28.0802	64.7002	0.001798	35983	3.693687	174.776	335.917	1.811291	0.063050	0.062640	335.988	35983	0.056047	0.112017	2999.44	98226.6
369	2.000000	1.814629	7.36868e+06	-57089.1	955.822	-29737.1	0.000000	0.000000	7.829313	353.58	NaN	0.000000	0.001709	0.001728	28.0805	67.4683	0.001869	36101.9	1.497701	176.537	349.488	1.814279	0.065978	0.065628	353.58	36101.9	0.058633	0.120951	2923.32	94841.3
369	2.000000	1.817617	7.36868e+06	-57089.1	955.822	-29737.1	0.000000	0.000000	7.833564	384.274	NaN	0.000000	0.001692	0.001716	28.0798	68.9193	0.001747	39447.9	4.342175	172.702	379.514	1.817393	0.068966	0.068742	384.274	39447.9	0.061660	0.131829	2914.94	99264
369	2.000000	1.820639	7.36868e+06	-57089.1	955.822	-29737.1	0.000000	0.000000	7.837335	402.489	NaN	0.000000	0.001727	0.001729	28.0802	71.8223	0.001834	39171.8	2.312048	175.31	399.826	1.820320	0.071988	0.071669	402.489	39171.8	0.064281	0.141607	2842.31	95105.4
369	2.000000	1.823730	7.36868e+06	-57089.1	955.822	-29737.1	0.000000	0.000000	7.840732	409.92	NaN	0.000000	0.001657	0.001747	28.0801	74.2488	0.001800	41247.6	0.041074	176.914	411.146	1.823518	0.075079	0.074867	409.92	41247.6	0.067625	0.154563	2652.12	95855.9
369	2.000000	1.826691	7.36868e+06	-57089.1	955.821	-29737.1	0.000000	0.000000	7.844532	430.33	NaN	0.000000	0.001643	0.001719	28.0802	78.4419	0.001776	44174	7.488347	168.429	428.943	1.826433	0.078040	0.077782	430.33	44174	0.070734	0.167085	2575.52	98735
369	2.000000	1.829594	7.36868e+06	-57089.1	955.822	-29737.1	0.000000	0.000000	7.848846	464.613	NaN	0.000000	0.001655	0.001753	28.0802	81.0769	0.001864	43498	6.015268	170.165	457.381	1.829323	0.080942	0.080672	464.613	43498	0.072931	0.176217	2636.6	94671.3
369	2.000000	1.832583	7.36868e+06	-57089.1	955.823	-29737.1	0.000000	0.000000	7.852571	482.519	NaN	0.000000	0.001601	0.001745	28.08	81.7498	0.001812	45107	4.679606	171.387	475.517	1.832225	0.083932	0.083574	482.519	45107	0.075909	0.188951	2553.68	94807.6
369	2.000000	1.835663	7.36868e+06	-57089.1	955.822	-29737.1	0.000000	0.000000	7.856346	499.388	NaN	0.000000	0.001602	0.001718	28.0804	82.979	0.001889	43925.2	1.368471	175.268	498.65	1.835433	0.087012	0.086782	499.388	43925.2	0.078485	0.200306	2493.13	89668.7
369	2.000000	1.838588	7.36868e+06	-57089.1	955.821	-29737.1	0.000000	0.000000	7.860276	523.826	NaN	0.000000	0.001616	0.001730	28.0804	86.0033	0.001910	45022.7	4.853677	171.331	519.757	1.838362	0.089936	0.089711	523.826	45022.7	0.081210	0.212656	2463.26	89200.2
369	2.000000	1.841619	7.36868e+06	-57089.1	955.821	-29737.1	0.000000	0.000000	7.863387	525.773	NaN	0.000000	0.001618	0.001711	28.0788	87.5147	0.001883	46474.3	2.991291	173.139	522.34	1.841432	0.092968	0.092781	525.773	46474.3	0.084483	0.227942	2306.61	88935.2
369	2.000000	1.844702	7.36868e+06	-57089.1	955.822	-29737.1	0.000000	0.000000	7.867471	550.08	NaN	0.000000	0.001666	0.001702	28.0788	89.673	0.001834	48882.5	4.233638	171.476	551.718	1.844326	0.096051	0.095675	550.08	48882.5	0.087611	0.243016	2263.56	90596.1
369	2.000000	1.847643	7.36868e+06	-57089.1	955.822	-29737.1	0.000000	0.000000	7.870854	560.844	NaN	0.000000	0.001713	0.001712	28.0787	90.9155	0.001773	51283.6	5.583280	169.215	557.204	1.847404	0.098992	0.098753	560.844	51283.6	0.090790	0.258792	2167.16	92103.5
369	2.000000	1.850660	7.36868e+06	-57089.1	955.821	-29737.1	0.000000	0.000000	7.874816	583.793	NaN	0.000000	0.001644	0.001712	28.0788	93.0606	0.001873	49680.9	3.481053	172.162	583.69	1.850428	0.102009	0.101777	583.793	49680.9	0.093196	0.271044	2153.87	87185.2
369	2.000000	1.853103	7.36868e+06	-57089.1	955.822	-29737.1	0.000000	0.000000	7.878123	604.787	NaN	0.000000	0.001616	0.001703	28.0789	95.9977	0.001900	50535.4	4.520437	-9.103481	600.228	1.852730	0.104452	0.104078	604.787	50535.4	0.095477	0.282901	2137.8	86806.3