File: remote_trans/data/nanoindenter/0828-1/data/Data_2025-08-06,11h17m57s/2025-07-22_16-23-58_1_225.txt
2025-07-22, 16:23:58, 1
Index	Phase	Displacement	Time	Pos X	Pos Y	Pos Z	Rot A	Rot B	Piezo Z	Force A	Force B	Gripper	Voltage A	Voltage B	Temperature	Amplitude force	Amplitude pos	Stiffness	Phase shift	Phase excitation	Force A raw	Displacement raw	HMax	HMax raw	Real Force	Real Stiffness	Contact Depth	Area	Hardness	Reduced Mod.
[#]	[#]	[um]	[s]	[um]	[um]	[um]	[m°]	[m°]	[um]	[uN]	[uN]	[V]	[V]	[V]	[°C]	[uN]	[um]	[N/m]	[°]	[°]	[uN]	[um]	[um]	[um]	[uN]	[N/m]	[um]	[um^2]	[MPa]	[MPa]
225	1.000000	0.003019	7.36724e+06	-49889.1	955.819	-29757.2	0.000000	0.000000	6.002811	0.030242	NaN	0.000000	0.001580	0.001673	28.0773	0.038594	0.000883	43.7319	-34.3638	-160.948	0.014048	0.001734	-1.705674	-1.706958	0.030242	43.7319	-1.706192	-6.147448E+22	-4.919496E-25	NaN
225	1.000000	0.015058	7.36724e+06	-49889.1	955.819	-29757.2	0.000000	0.000000	6.014844	-0.107883	NaN	0.000000	0.001559	0.001728	28.0771	0.074402	0.001608	46.2799	12.3369	-166.327	-0.065085	0.013847	-1.693634	-1.694846	-0.107883	46.2799	-1.691886	-3.968666E+22	2.718361E-24	NaN
225	1.000000	0.026997	7.36724e+06	-49889.1	955.818	-29757.2	0.000000	0.000000	6.026788	0.031221	NaN	0.000000	0.001613	0.001684	28.0773	0.105878	0.001788	59.2237	-124.553	-166.368	-0.018970	0.025676	-1.681696	-1.683016	0.031221	59.2237	-1.682091	-2.941086E+22	-1.061537E-24	NaN
225	1.000000	0.038947	7.36724e+06	-49889.1	955.819	-29757.2	0.000000	0.000000	6.038734	-0.101095	NaN	0.000000	0.001582	0.001705	28.0775	0.045940	0.001869	24.5734	-89.8346	-166.579	-0.058758	0.037597	-1.669745	-1.671095	-0.101095	24.5734	-1.666659	-1.834200E+22	5.511661E-24	NaN
225	1.000000	0.050942	7.36724e+06	-49889.1	955.818	-29757.2	0.000000	0.000000	6.050729	-0.082655	NaN	0.000000	0.001608	0.001687	28.0776	0.052724	0.002044	25.797	68.4292	-165.145	-0.057031	0.049708	-1.657751	-1.658984	-0.082655	25.797	-1.655348	-1.297508E+22	6.370294E-24	NaN
225	1.000000	0.062969	7.36724e+06	-49889.1	955.818	-29757.2	0.000000	0.000000	6.062757	-0.051430	NaN	0.000000	0.001591	0.001733	28.0777	0.091610	0.001869	49.0084	-78.0529	-165.263	-0.012817	0.061658	-1.645723	-1.647034	-0.051430	49.0084	-1.644936	-9.434574E+21	5.451243E-24	NaN
225	1.000000	0.074948	7.36724e+06	-49889.1	955.817	-29757.2	0.000000	0.000000	6.074735	-0.064753	NaN	0.000000	0.001586	0.001686	28.0774	0.041861	0.001919	21.8161	-108.607	-165.671	-0.019881	0.073677	-1.633745	-1.635016	-0.064753	21.8161	-1.631519	-6.256740E+21	1.034939E-23	NaN
225	1.000000	0.086954	7.36724e+06	-49889.1	955.818	-29757.2	0.000000	0.000000	6.086744	0.006349	NaN	0.000000	0.001661	0.001708	28.0774	0.123810	0.001935	63.9964	168.845	-169.096	-0.034331	0.085679	-1.621739	-1.623013	0.006349	63.9964	-1.621813	-4.648433E+21	-1.365805E-24	NaN
225	1.000000	0.098961	7.36724e+06	-49889.1	955.818	-29757.2	0.000000	0.000000	6.098752	-0.003050	NaN	0.000000	0.001578	0.001699	28.0775	0.053969	0.002095	25.7641	-132.501	-162.385	-0.024164	0.097717	-1.609731	-1.610975	-0.003050	25.7641	-1.609642	-3.202321E+21	9.523802E-25	NaN
225	1.000000	0.110979	7.36724e+06	-49889.1	955.818	-29757.2	0.000000	0.000000	6.110766	-0.077424	NaN	0.000000	0.001630	0.001720	28.0775	0.042254	0.002040	20.7105	145.843	-164.91	-0.095730	0.109713	-1.597713	-1.598979	-0.077424	20.7105	-1.594910	-2.039475E+21	3.796270E-23	NaN
225	1.000000	0.122972	7.36724e+06	-49889.1	955.818	-29757.2	0.000000	0.000000	6.122762	-0.026284	NaN	0.000000	0.001580	0.001686	28.0776	0.119081	0.002069	57.5526	-142.57	-165.851	-0.023409	0.121661	-1.585720	-1.587031	-0.026284	57.5526	-1.585377	-1.523084E+21	1.725710E-23	NaN
225	1.000000	0.134978	7.36724e+06	-49889.1	955.819	-29757.2	0.000000	0.000000	6.134767	-0.037980	NaN	0.000000	0.001616	0.001697	28.0762	0.070530	0.002034	34.679	-110.245	-168.156	-0.088213	0.133682	-1.573714	-1.575010	-0.037980	34.679	-1.572893	-1.039032E+21	3.655302E-23	NaN
225	1.000000	0.146999	7.36724e+06	-49889.1	955.818	-29757.2	0.000000	0.000000	6.146790	0.008850	NaN	0.000000	0.001587	0.001704	28.0763	0.065146	0.001924	33.8665	-21.7854	-165.514	-0.003706	0.145694	-1.561693	-1.562998	0.008850	33.8665	-1.561889	-7.416723E+20	-1.193256E-23	NaN
225	1.000000	0.159016	7.36724e+06	-49889.1	955.818	-29757.2	0.000000	0.000000	6.158804	-0.045623	NaN	0.000000	0.001584	0.001675	28.0763	0.074966	0.002166	34.6121	49.8746	-168.28	-0.042824	0.157711	-1.549677	-1.550981	-0.045623	34.6121	-1.548688	-4.949180E+20	9.218242E-23	NaN
225	1.000000	0.171005	7.36724e+06	-49889.1	955.819	-29757.2	0.000000	0.000000	6.170792	-0.074002	NaN	0.000000	0.001576	0.001670	28.076	0.043920	0.001946	22.5651	72.9222	-165.826	-0.055154	0.169696	-1.537688	-1.538996	-0.074002	22.5651	-1.535228	-3.276238E+20	2.258758E-22	NaN
225	1.000000	0.183010	7.36724e+06	-49889.1	955.818	-29757.2	0.000000	0.000000	6.182798	-0.057939	NaN	0.000000	0.001624	0.001721	28.0759	0.044278	0.002141	20.682	-107.232	-167.342	-0.071040	0.181753	-1.525683	-1.526939	-0.057939	20.682	-1.523582	-2.292602E+20	2.527195E-22	NaN
225	1.000000	0.195005	7.36724e+06	-49889.1	955.817	-29757.2	0.000000	0.000000	6.194792	-0.079202	NaN	0.000000	0.001598	0.001679	28.0761	0.065174	0.001947	33.4787	8.046905	-166.433	-0.106257	0.193713	-1.513687	-1.514980	-0.079202	33.4787	-1.511913	-1.603095E+20	4.940583E-22	NaN
225	1.000000	0.206990	7.36724e+06	-49889.1	955.819	-29757.2	0.000000	0.000000	6.206778	-0.064666	NaN	0.000000	0.001606	0.001735	28.0759	0.031603	0.002109	14.9818	4.881373	-167.486	-0.030579	0.205698	-1.501702	-1.502995	-0.064666	14.9818	-1.498465	-1.061372E+20	6.092668E-22	NaN
225	1.000000	0.219053	7.36724e+06	-49889.1	955.819	-29757.2	0.000000	0.000000	6.218842	-0.028411	NaN	0.000000	0.001574	0.001669	28.0763	0.026657	0.002033	13.1088	-53.9285	-162.986	0.007083	0.217743	-1.489639	-1.490949	-0.028411	13.1088	-1.488014	-7.703066E+19	3.688259E-22	NaN
225	1.000000	0.231048	7.36724e+06	-49889.1	955.818	-29757.2	0.000000	0.000000	6.230835	-0.075769	NaN	0.000000	0.001639	0.001740	28.0762	0.028573	0.002107	13.5609	2.932272	-164.437	0.015028	0.229733	-1.477645	-1.478959	-0.075769	13.5609	-1.473454	-4.928299E+19	1.537435E-21	NaN
225	1.000000	0.243046	7.36725e+06	-49889.1	955.817	-29757.2	0.000000	0.000000	6.242833	-0.085604	NaN	0.000000	0.001565	0.001721	28.0764	0.042076	0.001969	21.3721	71.7455	-165.631	-0.021490	0.241718	-1.465646	-1.466974	-0.085604	21.3721	-1.462642	-3.536928E+19	2.420304E-21	NaN
225	1.000000	0.255060	7.36725e+06	-49889.1	955.818	-29757.2	0.000000	0.000000	6.254846	-0.089677	NaN	0.000000	0.001599	0.001736	28.0763	0.108716	0.002119	51.3138	-144.228	-169.47	-0.033806	0.253746	-1.453633	-1.454947	-0.089677	51.3138	-1.452322	-2.576889E+19	3.480048E-21	NaN
225	1.000000	0.267067	7.36725e+06	-49889.1	955.818	-29757.2	0.000000	0.000000	6.266857	-0.012959	NaN	0.000000	0.001607	0.001734	28.0774	0.064040	0.001897	33.7616	118.633	-164.315	-0.045687	0.265703	-1.441626	-1.442989	-0.012959	33.7616	-1.441338	-1.839455E+19	7.045112E-22	NaN
225	1.000000	0.279052	7.36725e+06	-49889.1	955.818	-29757.2	0.000000	0.000000	6.278838	-0.120386	NaN	0.000000	0.001563	0.001758	28.0774	0.032314	0.001995	16.1938	-137.769	-164.977	-0.072642	0.277736	-1.429640	-1.430957	-0.120386	16.1938	-1.424064	-1.082428E+19	1.112183E-20	NaN
225	1.000000	0.291066	7.36725e+06	-49889.1	955.818	-29757.2	0.000000	0.000000	6.290852	-0.119610	NaN	0.000000	0.001587	0.001717	28.0775	0.093390	0.001932	48.3405	29.2482	-166.395	-0.140475	0.289689	-1.417626	-1.419004	-0.119610	48.3405	-1.415770	-8.390689E+18	1.425509E-20	NaN
225	1.000000	0.303085	7.36725e+06	-49889.1	955.818	-29757.2	0.000000	0.000000	6.302875	-0.033332	NaN	0.000000	0.001597	0.001739	28.0776	0.063954	0.002175	29.4033	-116.564	-167.091	-0.097503	0.301745	-1.405607	-1.406947	-0.033332	29.4033	-1.404757	-5.982926E+18	5.571187E-21	NaN
225	1.000000	0.315061	7.36725e+06	-49889.1	955.819	-29757.2	0.000000	0.000000	6.314847	-0.091305	NaN	0.000000	0.001579	0.001705	28.0776	0.073737	0.001934	38.131	-44.4894	-169.791	-0.208535	0.313748	-1.393632	-1.394944	-0.091305	38.131	-1.391836	-4.023066E+18	2.269542E-20	NaN
225	1.000000	0.327045	7.36725e+06	-49889.1	955.817	-29757.2	0.000000	0.000000	6.326832	-0.071920	NaN	0.000000	0.001578	0.001687	28.0777	0.024792	0.002117	11.7103	-112.367	-164.879	-0.074616	0.325784	-1.381648	-1.382908	-0.071920	11.7103	-1.377041	-2.553654E+18	2.816349E-20	NaN
225	1.000000	0.339100	7.36725e+06	-49889.1	955.818	-29757.2	0.000000	0.000000	6.338887	-0.076188	NaN	0.000000	0.001566	0.001690	28.0778	0.053603	0.001932	27.7512	32.1698	-167.808	-0.049733	0.337796	-1.369593	-1.370896	-0.076188	27.7512	-1.367534	-1.906681E+18	3.995842E-20	NaN
225	1.000000	0.351105	7.36725e+06	-49889.1	955.818	-29757.2	0.000000	0.000000	6.350894	-0.047262	NaN	0.000000	0.001591	0.001692	28.0781	0.142411	0.002012	70.7902	-43.8043	-163.1	-0.022465	0.349728	-1.357587	-1.358964	-0.047262	70.7902	-1.357086	-1.383031E+18	3.417264E-20	NaN
225	1.000000	0.363096	7.36725e+06	-49889.1	955.818	-29757.2	0.000000	0.000000	6.362885	-0.032214	NaN	0.000000	0.001593	0.001672	28.0775	0.111222	0.002015	55.1958	-21.0586	-167.126	-0.073690	0.361763	-1.345596	-1.346929	-0.032214	55.1958	-1.345159	-9.585027E+17	3.360903E-20	NaN
225	1.000000	0.375124	7.36725e+06	-49889.1	955.818	-29757.2	0.000000	0.000000	6.374913	-0.026916	NaN	0.000000	0.001572	0.001671	28.0776	0.025409	0.002161	11.7569	116.124	-166.232	-0.062873	0.373858	-1.333569	-1.334834	-0.026916	11.7569	-1.331852	-6.366487E+17	4.227712E-20	NaN
225	1.000000	0.387099	7.36725e+06	-49889.1	955.819	-29757.2	0.000000	0.000000	6.386887	-0.046675	NaN	0.000000	0.001597	0.001721	28.0773	0.055312	0.002141	25.8315	173.92	-167.566	-0.059907	0.385786	-1.321594	-1.322906	-0.046675	25.8315	-1.320238	-4.454398E+17	1.047836E-19	NaN
225	1.000000	0.399093	7.36725e+06	-49889.1	955.819	-29757.2	0.000000	0.000000	6.398880	-0.084906	NaN	0.000000	0.001602	0.001723	28.0766	0.010977	0.001944	5.645102	-127.834	-165.366	-0.137243	0.397807	-1.309599	-1.310885	-0.084906	5.645102	-1.298319	-2.269486E+17	3.741209E-19	NaN
225	1.000000	0.411123	7.36725e+06	-49889.1	955.818	-29757.2	0.000000	0.000000	6.410910	-0.078125	NaN	0.000000	0.001585	0.001702	28.0764	0.059623	0.001920	31.0544	-124.256	-165.1	-0.088512	0.409752	-1.297570	-1.298941	-0.078125	31.0544	-1.295683	-2.092689E+17	3.733235E-19	NaN
225	1.000000	0.423127	7.36725e+06	-49889.1	955.818	-29757.2	0.000000	0.000000	6.422920	0.054694	NaN	0.000000	0.001623	0.001682	28.0763	0.018152	0.001970	9.212500	-39.0549	-165.201	-0.047538	0.421819	-1.285565	-1.286873	0.054694	9.212500	-1.290018	-1.757880E+17	-3.111341E-19	NaN
225	1.000000	0.435088	7.36725e+06	-49889.1	955.818	-29757.2	0.000000	0.000000	6.434877	-0.056002	NaN	0.000000	0.001572	0.001691	28.0763	0.009376	0.001961	4.780606	34.7865	-164.928	-0.071977	0.433837	-1.273604	-1.274855	-0.056002	4.780606	-1.264818	-8.092877E+16	6.919932E-19	NaN
225	1.000000	0.447128	7.36725e+06	-49889.1	955.818	-29757.2	0.000000	0.000000	6.446916	-0.059163	NaN	0.000000	0.001677	0.001698	28.0766	0.026337	0.001981	13.2952	10.698	-166.535	0.020655	0.445846	-1.261564	-1.262846	-0.059163	13.2952	-1.258227	-6.606205E+16	8.955702E-19	NaN
225	1.000000	0.459141	7.36725e+06	-49889.1	955.818	-29757.2	0.000000	0.000000	6.458931	0.003409	NaN	0.000000	0.001656	0.001743	28.0764	0.100244	0.002070	48.4305	129.595	-162.308	0.016439	0.457869	-1.249552	-1.250823	0.003409	48.4305	-1.249604	-5.065587E+16	-6.729356E-20	NaN
225	1.000000	0.471127	7.36725e+06	-49889.1	955.819	-29757.2	0.000000	0.000000	6.470915	-0.066901	NaN	0.000000	0.001694	0.001692	28.0764	0.076102	0.001969	38.6588	-49.1748	-165.549	-0.048986	0.469855	-1.237565	-1.238837	-0.066901	38.6588	-1.236267	-3.358922E+16	1.991726E-18	NaN
225	1.000000	0.483160	7.36725e+06	-49889.1	955.819	-29757.2	0.000000	0.000000	6.482947	-0.079246	NaN	0.000000	0.001661	0.001692	28.0764	0.068853	0.001932	35.6368	-145.781	-164.932	-0.086040	0.481785	-1.225533	-1.226908	-0.079246	35.6368	-1.223865	-2.292101E+16	3.457336E-18	NaN
225	1.000000	0.495140	7.36725e+06	-49889.1	955.818	-29757.2	0.000000	0.000000	6.494926	-0.110086	NaN	0.000000	0.001690	0.001729	28.0766	0.025812	0.002069	12.4778	-154.775	-167.251	-0.021571	0.493866	-1.213552	-1.214827	-0.110086	12.4778	-1.206935	-1.360226E+16	8.093201E-18	NaN
225	1.000000	0.507143	7.36725e+06	-49889.1	955.818	-29757.2	0.000000	0.000000	6.506933	-0.024786	NaN	0.000000	0.001664	0.001724	28.0763	0.125392	0.001952	64.2508	-164.028	-169.457	-0.035640	0.505884	-1.201549	-1.202808	-0.024786	64.2508	-1.201260	-1.141865E+16	2.170699E-18	NaN
225	1.000000	0.519170	7.36725e+06	-49889.1	955.818	-29757.2	0.000000	0.000000	6.518963	0.062101	NaN	0.000000	0.001590	0.001720	28.0767	0.093401	0.001965	47.5266	76.6922	-163.534	0.031258	0.517870	-1.189522	-1.190823	0.062101	47.5266	-1.190502	-8.195100E+15	-7.577783E-18	NaN
225	1.000000	0.531137	7.36725e+06	-49889.1	955.817	-29757.2	0.000000	0.000000	6.530924	-0.098521	NaN	0.000000	0.001604	0.001721	28.0769	0.098637	0.001954	50.4681	57.6166	-168.798	-0.154940	0.529876	-1.177555	-1.178816	-0.098521	50.4681	-1.176091	-5.254135E+15	1.875117E-17	NaN
225	1.000000	0.543173	7.36725e+06	-49889.1	955.818	-29757.2	0.000000	0.000000	6.542963	-0.022778	NaN	0.000000	0.001602	0.001705	28.0779	0.130270	0.002000	65.1472	-161.204	-166.823	-0.077787	0.541872	-1.165519	-1.166821	-0.022778	65.1472	-1.165257	-3.761204E+15	6.055951E-18	NaN
225	1.000000	0.555165	7.36725e+06	-49889.1	955.818	-29757.2	0.000000	0.000000	6.554954	-0.025610	NaN	0.000000	0.001583	0.001697	28.0778	0.047643	0.002069	23.0216	-64.9127	-165.287	-0.010090	0.553865	-1.153528	-1.154828	-0.025610	23.0216	-1.152693	-2.552277E+15	1.003408E-17	NaN
225	1.000000	0.567184	7.36725e+06	-49889.1	955.818	-29757.2	0.000000	0.000000	6.566976	0.024535	NaN	0.000000	0.001597	0.001673	28.0776	0.060534	0.001994	30.3569	177.862	-165.246	-0.003242	0.565845	-1.141508	-1.142847	0.024535	30.3569	-1.142114	-1.841152E+15	-1.332604E-17	NaN
225	1.000000	0.579176	7.36725e+06	-49889.1	955.818	-29757.2	0.000000	0.000000	6.578965	-0.033960	NaN	0.000000	0.001599	0.001723	28.0776	0.078152	0.002049	38.1333	123.647	-164.4	-0.058684	0.577906	-1.129516	-1.130786	-0.033960	38.1333	-1.128849	-1.222298E+15	2.778381E-17	NaN
225	1.000000	0.591188	7.36725e+06	-49889.1	955.818	-29757.2	0.000000	0.000000	6.590980	0.024335	NaN	0.000000	0.001606	0.001722	28.0776	0.021530	0.001899	11.339	165.293	-167.246	-0.051014	0.589901	-1.117504	-1.118792	0.024335	11.339	-1.119114	-9.048619E+14	-2.689399E-17	NaN
225	1.000000	0.603226	7.36725e+06	-49889.1	955.818	-29757.2	0.000000	0.000000	6.603014	-0.065562	NaN	0.000000	0.001600	0.001706	28.0777	0.132686	0.002191	60.5622	135.987	-163.45	-0.023642	0.601892	-1.105466	-1.106800	-0.065562	60.5622	-1.104654	-5.788118E+14	1.132692E-16	NaN
225	1.000000	0.615210	7.36725e+06	-49889.1	955.817	-29757.2	0.000000	0.000000	6.614996	-0.098743	NaN	0.000000	0.001610	0.001690	28.0778	0.131332	0.001977	66.4183	-117.774	-169.03	-0.086815	0.613893	-1.093483	-1.094800	-0.098743	66.4183	-1.092368	-3.959166E+14	2.494040E-16	NaN
225	1.000000	0.627223	7.36725e+06	-49889.1	955.819	-29757.2	0.000000	0.000000	6.627015	0.029630	NaN	0.000000	0.001605	0.001712	28.0778	0.018874	0.001907	9.895721	174.161	-164.232	-0.029384	0.625896	-1.081469	-1.082797	0.029630	9.895721	-1.083715	-3.029779E+14	-9.779526E-17	NaN
225	1.000000	0.639202	7.36725e+06	-49889.1	955.818	-29757.2	0.000000	0.000000	6.638989	-0.079290	NaN	0.000000	0.001631	0.001694	28.0778	0.044361	0.001838	24.1301	-167.861	-164.528	-0.073339	0.637862	-1.069490	-1.070830	-0.079290	24.1301	-1.067026	-1.808134E+14	4.385167E-16	NaN
225	1.000000	0.651219	7.36725e+06	-49889.1	955.818	-29757.2	0.000000	0.000000	6.651009	0.006596	NaN	0.000000	0.001592	0.001722	28.0773	0.010265	0.002033	5.048661	-167.878	-164.346	-0.076222	0.649867	-1.057474	-1.058826	0.006596	5.048661	-1.058454	-1.386881E+14	-4.755687E-17	NaN
225	1.000000	0.663202	7.36725e+06	-49889.1	955.818	-29757.2	0.000000	0.000000	6.662991	-0.050409	NaN	0.000000	0.001595	0.001717	28.0777	0.024199	0.002089	11.5837	-133.994	-168.107	-0.021846	0.661848	-1.045490	-1.046845	-0.050409	11.5837	-1.042226	-8.392694E+13	6.006254E-16	NaN
225	1.000000	0.675232	7.36725e+06	-49889.1	955.818	-29757.2	0.000000	0.000000	6.675021	-0.045668	NaN	0.000000	0.001601	0.001719	28.0765	0.026865	0.001967	13.6558	-115.735	-164.655	0.003843	0.673912	-1.033460	-1.034781	-0.045668	13.6558	-1.030952	-5.919532E+13	7.714807E-16	NaN
225	1.000000	0.687221	7.36725e+06	-49889.1	955.818	-29757.2	0.000000	0.000000	6.687009	-0.062048	NaN	0.000000	0.001561	0.001688	28.0764	0.086610	0.001933	44.8092	-68.7587	-165.292	-0.068278	0.685937	-1.021471	-1.022755	-0.062048	44.8092	-1.020433	-4.273419E+13	1.451943E-15	NaN
225	1.000000	0.699234	7.36725e+06	-49889.1	955.819	-29757.2	0.000000	0.000000	6.699020	-0.134287	NaN	0.000000	0.001602	0.001685	28.0766	0.017096	0.001927	8.871524	-135.024	-165.255	-0.138445	0.697910	-1.009458	-1.010782	-0.134287	8.871524	-0.998105	-2.139230E+13	6.277352E-15	NaN
225	1.000000	0.711238	7.36725e+06	-49889.1	955.817	-29757.2	0.000000	0.000000	6.711028	-0.020202	NaN	0.000000	0.001608	0.001678	28.0766	0.074314	0.002037	36.4781	-67.9271	-171.148	-0.077853	0.709903	-0.997454	-0.998789	-0.020202	36.4781	-0.997039	-2.069680E+13	9.760880E-16	NaN
225	1.000000	0.723262	7.36725e+06	-49889.1	955.819	-29757.2	0.000000	0.000000	6.723052	0.004228	NaN	0.000000	0.001663	0.001667	28.0766	0.052776	0.002248	23.4734	122.679	-163.607	-0.083000	0.721897	-0.985431	-0.986796	0.004228	23.4734	-0.985566	-1.450067E+13	-2.915497E-16	NaN
225	1.000000	0.735232	7.36725e+06	-49889.1	955.819	-29757.2	0.000000	0.000000	6.735020	-0.070894	NaN	0.000000	0.001680	0.001666	28.0766	0.070036	0.002066	33.907	87.68	-163.67	-0.115304	0.733889	-0.973460	-0.974803	-0.070894	33.907	-0.971892	-9.487664E+12	7.472202E-15	NaN
225	1.000000	0.747251	7.36725e+06	-49889.1	955.819	-29757.2	0.000000	0.000000	6.747038	-0.069093	NaN	0.000000	0.001651	0.001664	28.0764	0.021673	0.001985	10.919	115.735	-167.323	0.039587	0.745988	-0.961442	-0.962704	-0.069093	10.919	-0.956696	-5.919995E+12	1.167120E-14	NaN
225	1.000000	0.759279	7.36725e+06	-49889.1	955.818	-29757.2	0.000000	0.000000	6.759068	-0.035266	NaN	0.000000	0.001657	0.001672	28.0765	0.050053	0.001943	25.7636	-62.9173	-165.149	-0.010555	0.757925	-0.949414	-0.950767	-0.035266	25.7636	-0.948387	-4.573751E+12	7.710486E-15	NaN
225	1.000000	0.771251	7.36725e+06	-49889.1	955.819	-29757.2	0.000000	0.000000	6.771038	-0.089723	NaN	0.000000	0.001659	0.001666	28.0763	0.116260	0.001977	58.8092	126.585	-169.699	0.034603	0.769991	-0.937441	-0.938701	-0.089723	58.8092	-0.936297	-3.141770E+12	2.855815E-14	NaN
225	1.000000	0.783258	7.36725e+06	-49889.1	955.819	-29757.2	0.000000	0.000000	6.783046	-0.045394	NaN	0.000000	0.001625	0.001640	28.0765	0.032457	0.002000	16.2313	135.971	-164.693	-0.069632	0.781978	-0.925435	-0.926715	-0.045394	16.2313	-0.923337	-2.100202E+12	2.161392E-14	NaN
225	1.000000	0.795314	7.36725e+06	-49889.1	955.818	-29757.2	0.000000	0.000000	6.795104	-0.023096	NaN	0.000000	0.001680	0.001663	28.077	0.039760	0.002066	19.2476	-65.5668	-169.207	0.058761	0.794019	-0.913378	-0.914673	-0.023096	19.2476	-0.912478	-1.498429E+12	1.541332E-14	NaN
225	1.000000	0.807254	7.36725e+06	-49889.1	955.819	-29757.2	0.000000	0.000000	6.807044	-0.024899	NaN	0.000000	0.001611	0.001647	28.0767	0.038330	0.002032	18.8665	-129.063	-163.756	-0.035234	0.805932	-0.901438	-0.902760	-0.024899	18.8665	-0.900449	-1.030687E+12	2.415774E-14	NaN
225	1.000000	0.819280	7.36725e+06	-49889.1	955.817	-29757.2	0.000000	0.000000	6.819069	-0.036764	NaN	0.000000	0.001630	0.001657	28.0781	0.047983	0.001902	25.2337	-136.839	-162.207	-0.080164	0.817919	-0.889412	-0.890773	-0.036764	25.2337	-0.888319	-7.066362E+11	5.202612E-14	NaN
225	1.000000	0.831287	7.36725e+06	-49889.1	955.817	-29757.2	0.000000	0.000000	6.831075	-0.059533	NaN	0.000000	0.001576	0.001663	28.0778	0.061084	0.002032	30.0565	21.9647	-166.419	-0.093961	0.829951	-0.877406	-0.878741	-0.059533	30.0565	-0.875920	-4.803178E+11	1.239446E-13	NaN
225	1.000000	0.843281	7.36725e+06	-49889.1	955.818	-29757.2	0.000000	0.000000	6.843069	-0.060971	NaN	0.000000	0.001609	0.001648	28.0776	0.035943	0.002023	17.764	-167.194	-165.549	-0.052194	0.842015	-0.865411	-0.866677	-0.060971	17.764	-0.862837	-3.195368E+11	1.908091E-13	NaN
225	1.000000	0.855276	7.36725e+06	-49889.1	955.818	-29757.2	0.000000	0.000000	6.855066	-0.012470	NaN	0.000000	0.001587	0.001691	28.0778	0.076807	0.001961	39.1673	46.69	-162.301	-0.132167	0.853981	-0.853416	-0.854711	-0.012470	39.1673	-0.853177	-2.364617E+11	5.273565E-14	NaN
225	1.000000	0.867314	7.36725e+06	-49889.1	955.818	-29757.2	0.000000	0.000000	6.867104	-0.023094	NaN	0.000000	0.001589	0.001639	28.0778	0.067526	0.002030	33.2626	-156.445	-169.733	-0.031770	0.865990	-0.841378	-0.842702	-0.023094	33.2626	-0.840858	-1.610311E+11	1.434162E-13	NaN
225	1.000000	0.879332	7.36725e+06	-49889.1	955.818	-29757.2	0.000000	0.000000	6.879121	-0.035161	NaN	0.000000	0.001576	0.001656	28.078	0.082564	0.001919	43.0342	-113.193	-161.657	-0.009261	0.877985	-0.829360	-0.830707	-0.035161	43.0342	-0.828747	-1.103587E+11	3.186038E-13	NaN
225	1.000000	0.891316	7.36725e+06	-49889.1	955.818	-29757.2	0.000000	0.000000	6.891105	-0.028071	NaN	0.000000	0.001571	0.001669	28.0781	0.024236	0.002112	11.4742	-172.57	-162.162	0.027744	0.889981	-0.817377	-0.818712	-0.028071	11.4742	-0.815542	-7.307141E+10	3.841650E-13	NaN
225	1.000000	0.903342	7.36725e+06	-49889.1	955.818	-29757.2	0.000000	0.000000	6.903131	-0.027775	NaN	0.000000	0.001597	0.001656	28.0783	0.088887	0.002080	42.7328	-37.8634	-164.434	-0.012732	0.902003	-0.805351	-0.806689	-0.027775	42.7328	-0.804863	-5.234451E+10	5.306282E-13	NaN
225	1.000000	0.915317	7.36725e+06	-49889.1	955.817	-29757.2	0.000000	0.000000	6.915108	0.012771	NaN	0.000000	0.001566	0.001688	28.0781	0.080163	0.002122	37.7793	30.5916	-166.232	0.020597	0.914027	-0.793375	-0.794665	0.012771	37.7793	-0.793629	-3.684380E+10	-3.466227E-13	NaN
225	1.000000	0.927330	7.36725e+06	-49889.1	955.819	-29757.2	0.000000	0.000000	6.927115	-0.131133	NaN	0.000000	0.001585	0.001680	28.0781	0.007108	0.001922	3.697611	-25.4919	-165.275	-0.053372	0.926031	-0.781362	-0.782661	-0.131133	3.697611	-0.754764	-1.091582E+10	1.201316E-11	NaN
225	1.000000	0.939315	7.36725e+06	-49889.1	955.818	-29757.2	0.000000	0.000000	6.939102	-0.091753	NaN	0.000000	0.001607	0.001710	28.0779	0.109806	0.002000	54.9122	148.42	-165.132	-0.028255	0.938023	-0.769378	-0.770669	-0.091753	54.9122	-0.768124	-1.658833E+10	5.531197E-12	NaN
225	1.000000	0.951348	7.36725e+06	-49889.1	955.818	-29757.2	0.000000	0.000000	6.951135	-0.092843	NaN	0.000000	0.001621	0.001738	28.0769	0.098550	0.002044	48.2154	85.5667	-167.773	-0.085329	0.950050	-0.757344	-0.758643	-0.092843	48.2154	-0.755900	-1.131147E+10	8.207898E-12	NaN
225	1.000000	0.963347	7.36725e+06	-49889.1	955.817	-29757.2	0.000000	0.000000	6.963136	-0.034318	NaN	0.000000	0.001632	0.001649	28.0769	0.114263	0.001901	60.0916	14.6365	-165.159	-0.088594	0.962032	-0.745345	-0.746660	-0.034318	60.0916	-0.744917	-8.017141E+9	4.280615E-12	NaN
225	1.000000	0.975354	7.36725e+06	-49889.1	955.818	-29757.2	0.000000	0.000000	6.975143	-0.019884	NaN	0.000000	0.001597	0.001668	28.0767	0.065672	0.001941	33.8392	-94.7775	-169.517	-0.015437	0.974032	-0.733339	-0.734660	-0.019884	33.8392	-0.732898	-5.499204E+9	3.615763E-12	NaN
225	1.000000	0.987341	7.36725e+06	-49889.1	955.817	-29757.2	0.000000	0.000000	6.987129	-0.056792	NaN	0.000000	0.001612	0.001675	28.0769	0.053275	0.002037	26.1505	-173.566	-167.05	-0.030513	0.986061	-0.721352	-0.722631	-0.056792	26.1505	-0.719723	-3.636591E+9	1.561678E-11	NaN
225	1.000000	0.999365	7.36725e+06	-49889.1	955.818	-29757.2	0.000000	0.000000	6.999153	-0.055893	NaN	0.000000	0.001590	0.001661	28.077	0.048077	0.001912	25.1466	122.008	-166.06	-0.049586	0.998014	-0.709327	-0.710678	-0.055893	25.1466	-0.707660	-2.489536E+9	2.245106E-11	NaN
225	1.000000	1.011363	7.36725e+06	-49889.1	955.818	-29757.2	0.000000	0.000000	7.011153	-0.009279	NaN	0.000000	0.001586	0.001721	28.077	0.102153	0.001976	51.7088	-99.8355	-165.327	-0.001553	1.010015	-0.697329	-0.698677	-0.009279	51.7088	-0.697195	-1.791504E+9	5.179241E-12	NaN
225	1.000000	1.023354	7.36725e+06	-49889.1	955.818	-29757.2	0.000000	0.000000	7.023142	-0.060330	NaN	0.000000	0.001597	0.001671	28.077	0.079592	0.001947	40.8725	124.733	-168.406	-0.080457	1.022047	-0.685338	-0.686646	-0.060330	40.8725	-0.684231	-1.191421E+9	5.063705E-11	NaN
225	1.000000	1.035376	7.36725e+06	-49889.1	955.819	-29757.2	0.000000	0.000000	7.035166	-0.013041	NaN	0.000000	0.001571	0.001646	28.0767	0.093835	0.002055	45.6513	158.152	-165.751	0.001670	1.034068	-0.673316	-0.674625	-0.013041	45.6513	-0.673102	-8.391476E+8	1.554091E-11	NaN
225	1.000000	1.047376	7.36725e+06	-49889.1	955.819	-29757.2	0.000000	0.000000	7.047167	0.012312	NaN	0.000000	0.001589	0.001672	28.077	0.092979	0.002011	46.2263	-104.054	-170.22	-0.017567	1.046043	-0.661316	-0.662649	0.012312	46.2263	-0.661516	-5.824138E+8	-2.114022E-11	NaN
225	1.000000	1.059398	7.36725e+06	-49889.1	955.818	-29757.2	0.000000	0.000000	7.059187	-0.029677	NaN	0.000000	0.001598	0.001699	28.0768	0.102744	0.001999	51.3926	-139.391	-164.174	-0.102772	1.058059	-0.649294	-0.650634	-0.029677	51.3926	-0.648861	-3.906841E+8	7.596166E-11	NaN
225	1.000000	1.071384	7.36725e+06	-49889.1	955.819	-29757.2	0.000000	0.000000	7.071173	-0.029851	NaN	0.000000	0.001617	0.001687	28.0767	0.080316	0.001994	40.2715	-58.3714	-169.728	0.046289	1.070067	-0.637308	-0.638625	-0.029851	40.2715	-0.636752	-2.665164E+8	1.120040E-10	NaN
225	1.000000	1.083400	7.36725e+06	-49889.1	955.818	-29757.2	0.000000	0.000000	7.083188	-0.054705	NaN	0.000000	0.001603	0.001707	28.0784	0.068023	0.001950	34.8789	155.317	-168.842	-0.048689	1.082119	-0.625292	-0.626573	-0.054705	34.8789	-0.624116	-1.787309E+8	3.060746E-10	NaN
225	1.000000	1.095398	7.36725e+06	-49889.1	955.817	-29757.2	0.000000	0.000000	7.095188	-0.012136	NaN	0.000000	0.001613	0.001674	28.078	0.098182	0.002076	47.2909	-138.749	-167.826	-0.052528	1.094086	-0.613295	-0.614607	-0.012136	47.2909	-0.613102	-1.261211E+8	9.622851E-11	NaN
225	1.000000	1.107403	7.36725e+06	-49889.1	955.818	-29757.2	0.000000	0.000000	7.107192	-0.036923	NaN	0.000000	0.001573	0.001644	28.0784	0.032500	0.001981	16.4087	-63.675	-167.382	-0.081536	1.106064	-0.601289	-0.602628	-0.036923	16.4087	-0.599602	-8.221961E+7	4.490801E-10	NaN
225	1.000000	1.119407	7.36725e+06	-49889.1	955.817	-29757.2	0.000000	0.000000	7.119197	-0.023089	NaN	0.000000	0.001624	0.001667	28.0779	0.064926	0.002013	32.2481	60.1335	-167.813	-0.073701	1.118097	-0.589285	-0.590595	-0.023089	32.2481	-0.588748	-5.826480E+7	3.962772E-10	NaN
225	1.000000	1.131385	7.36725e+06	-49889.1	955.818	-29757.2	0.000000	0.000000	7.131173	-0.069476	NaN	0.000000	0.001622	0.001669	28.0779	0.150253	0.001899	79.1202	27.6022	-166.505	-0.118587	1.130130	-0.577307	-0.578562	-0.069476	79.1202	-0.576648	-3.966976E+7	1.751360E-9	NaN
225	1.000000	1.143427	7.36725e+06	-49889.1	955.818	-29757.2	0.000000	0.000000	7.143217	-0.018736	NaN	0.000000	0.001650	0.001669	28.078	0.074086	0.002105	35.1982	131.552	-166.945	-0.023030	1.142141	-0.565265	-0.566552	-0.018736	35.1982	-0.564866	-2.726921E+7	6.870605E-10	NaN
225	1.000000	1.155419	7.36725e+06	-49889.1	955.817	-29757.2	0.000000	0.000000	7.155208	-0.028434	NaN	0.000000	0.001637	0.001660	28.0777	0.043420	0.001984	21.8837	-118.587	-166.307	-0.140827	1.154104	-0.553273	-0.554588	-0.028434	21.8837	-0.552299	-1.827225E+7	1.556117E-9	NaN
225	1.000000	1.167432	7.36725e+06	-49889.1	955.818	-29757.2	0.000000	0.000000	7.167221	-0.015532	NaN	0.000000	0.001644	0.001685	28.0777	0.075611	0.002000	37.8074	134.041	-164.484	0.041953	1.166063	-0.541261	-0.542629	-0.015532	37.8074	-0.540953	-1.272240E+7	1.220826E-9	NaN
225	1.000000	1.179397	7.36725e+06	-49889.1	955.818	-29757.2	0.000000	0.000000	7.179184	-0.077649	NaN	0.000000	0.001653	0.001701	28.0779	0.112653	0.001982	56.852	-116.59	-165.826	-0.048584	1.178118	-0.529296	-0.530574	-0.077649	56.852	-0.528271	-8.48331e+06	9.153123E-9	NaN
225	1.000000	1.191447	7.36725e+06	-49889.1	955.818	-29757.2	0.000000	0.000000	7.191236	-0.035682	NaN	0.000000	0.001640	0.001668	28.0781	0.136190	0.002023	67.3081	-62.468	-164.078	-0.107025	1.190091	-0.517245	-0.518601	-0.035682	67.3081	-0.516848	-5.88499e+06	6.063184E-9	NaN
225	1.000000	1.203416	7.36725e+06	-49889.1	955.818	-29757.2	0.000000	0.000000	7.203205	-0.042702	NaN	0.000000	0.001641	0.001673	28.078	0.057551	0.002011	28.6179	-12.1868	-169.268	-0.057600	1.202107	-0.505277	-0.506585	-0.042702	28.6179	-0.504157	-3.91741e+06	1.090045E-8	NaN
225	1.000000	1.215454	7.36725e+06	-49889.1	955.818	-29757.2	0.000000	0.000000	7.215247	0.062155	NaN	0.000000	0.001625	0.001659	28.0778	0.031036	0.002102	14.7634	-60.5993	-165.434	0.060104	1.214183	-0.493238	-0.494509	0.062155	14.7634	-0.496396	-3.05296e+06	-2.035896E-8	NaN
225	1.000000	1.227505	7.36725e+06	-49889.1	955.819	-29757.2	0.000000	0.000000	7.227296	0.002374	NaN	0.000000	0.001658	0.001662	28.0766	0.104744	0.001884	55.6045	101.914	-169.831	-0.001394	1.226171	-0.481187	-0.482521	0.002374	55.6045	-0.481219	-1.87323e+06	-1.267380E-9	NaN
225	1.000000	1.239458	7.36725e+06	-49889.1	955.819	-29757.2	0.000000	0.000000	7.239248	-0.020068	NaN	0.000000	0.001624	0.001701	28.0768	0.122957	0.001948	63.1335	-145.468	-165.904	0.039216	1.238165	-0.469234	-0.470527	-0.020068	63.1335	-0.468996	-1.26276e+06	1.589213E-8	NaN
225	1.000000	1.251463	7.36725e+06	-49889.1	955.819	-29757.2	0.000000	0.000000	7.251250	-0.091088	NaN	0.000000	0.001617	0.001662	28.0766	0.091689	0.002040	44.94	-68.9047	-164.542	-0.061710	1.250101	-0.457229	-0.458592	-0.091088	44.94	-0.455709	-821663	1.108578E-7	NaN
225	1.000000	1.263441	7.36725e+06	-49889.1	955.818	-29757.2	0.000000	0.000000	7.263229	-0.070848	NaN	0.000000	0.001623	0.001670	28.0767	0.114646	0.002051	55.9007	-104.683	-167.581	-0.048949	1.262173	-0.445251	-0.446519	-0.070848	55.9007	-0.444301	-567589	1.248222E-7	NaN
225	1.000000	1.275492	7.36725e+06	-49889.1	955.818	-29757.2	0.000000	0.000000	7.275281	-0.022220	NaN	0.000000	0.001659	0.001664	28.0768	0.027677	0.002091	13.2372	-161.022	-166.48	-0.049717	1.274149	-0.433200	-0.434544	-0.022220	13.2372	-0.431941	-379771	5.850972E-8	NaN
225	1.000000	1.287464	7.36725e+06	-49889.1	955.817	-29757.2	0.000000	0.000000	7.287251	-0.097577	NaN	0.000000	0.001655	0.001680	28.0769	0.026536	0.001919	13.8252	-91.4065	-164.326	-0.117836	1.286180	-0.421228	-0.422512	-0.097577	13.8252	-0.415935	-225282	4.331326E-7	NaN
225	1.000000	1.299486	7.36725e+06	-49889.1	955.818	-29757.2	0.000000	0.000000	7.299275	-0.046666	NaN	0.000000	0.001642	0.001671	28.0768	0.032428	0.002057	15.7681	70.8978	-164.283	-0.082588	1.298166	-0.409206	-0.410526	-0.046666	15.7681	-0.406986	-168084	2.776317E-7	NaN
225	1.000000	1.311464	7.36725e+06	-49889.1	955.819	-29757.2	0.000000	0.000000	7.311249	-0.137931	NaN	0.000000	0.001607	0.001676	28.0766	0.077565	0.001821	42.5919	-172.871	-166.976	-0.171104	1.310193	-0.397229	-0.398499	-0.137931	42.5919	-0.394800	-112661	1.224304E-6	NaN
225	1.000000	1.323483	7.36725e+06	-49889.1	955.817	-29757.2	0.000000	0.000000	7.323270	-0.097008	NaN	0.000000	0.001557	0.001712	28.0767	0.068625	0.002201	31.1789	52.9312	-166.801	-0.109504	1.322142	-0.385209	-0.386550	-0.097008	31.1789	-0.382876	-76057.4	1.275457E-6	NaN
225	1.000000	1.335470	7.36725e+06	-49889.1	955.818	-29757.2	0.000000	0.000000	7.335260	-0.016085	NaN	0.000000	0.001532	0.001673	28.0768	0.078352	0.001893	41.3901	-23.8511	-164.667	0.040830	1.334178	-0.373223	-0.374514	-0.016085	41.3901	-0.372931	-54741.7	2.938315E-7	NaN
225	1.000000	1.347526	7.36725e+06	-49889.1	955.818	-29757.2	0.000000	0.000000	7.347316	-0.018805	NaN	0.000000	0.001561	0.001703	28.0766	0.029401	0.002041	14.4027	-65.7678	-162.392	-0.033049	1.346134	-0.361167	-0.362559	-0.018805	14.4027	-0.360187	-35855.2	5.244844E-7	NaN
225	1.000000	1.359514	7.36725e+06	-49889.1	955.819	-29757.2	0.000000	0.000000	7.359302	-0.047252	NaN	0.000000	0.001528	0.001721	28.0781	0.095820	0.002041	46.9573	-93.1864	-166.231	-0.067751	1.358156	-0.349179	-0.350536	-0.047252	46.9573	-0.348424	-24217.1	1.951166E-6	NaN
225	1.000000	1.371528	7.36725e+06	-49889.1	955.818	-29757.2	0.000000	0.000000	7.371319	0.010210	NaN	0.000000	0.001527	0.001720	28.0778	0.015909	0.002066	7.699513	46.0425	-165.857	-0.004821	1.370156	-0.337164	-0.338537	0.010210	7.699513	-0.338158	-17167.2	-5.947238E-7	NaN
225	1.000000	1.383516	7.36725e+06	-49889.1	955.819	-29757.2	0.000000	0.000000	7.383304	-0.067384	NaN	0.000000	0.001561	0.001677	28.0781	0.019434	0.002054	9.460037	-176.116	-166.969	-0.113693	1.382210	-0.325176	-0.326483	-0.067384	9.460037	-0.319834	-9251.22	7.283743E-6	NaN
225	1.000000	1.395519	7.36725e+06	-49889.1	955.819	-29757.2	0.000000	0.000000	7.395308	-0.049796	NaN	0.000000	0.001549	0.001660	28.0782	0.112580	0.001941	57.9871	-95.1166	-166.896	-0.060342	1.394194	-0.313173	-0.314498	-0.049796	57.9871	-0.312529	-7218.67	6.898232E-6	NaN
225	1.000000	1.407531	7.36725e+06	-49889.1	955.819	-29757.2	0.000000	0.000000	7.407321	0.010033	NaN	0.000000	0.001572	0.001672	28.0778	0.075285	0.002052	36.6903	-50.4756	-165.885	-0.022084	1.406220	-0.301162	-0.302473	0.010033	36.6903	-0.301367	-4931.46	-2.034481E-6	NaN
225	1.000000	1.419522	7.36725e+06	-49889.1	955.818	-29757.2	0.000000	0.000000	7.419310	-0.059872	NaN	0.000000	0.001536	0.001653	28.078	0.069902	0.002017	34.6504	-124.578	-166.787	-0.060038	1.418197	-0.289170	-0.290495	-0.059872	34.6504	-0.287875	-3100.53	1.931017E-5	NaN
225	1.000000	1.431552	7.36725e+06	-49889.1	955.819	-29757.2	0.000000	0.000000	7.431342	-0.024365	NaN	0.000000	0.001600	0.001643	28.078	0.044760	0.001973	22.6862	-87.8646	-161.066	-0.043534	1.430227	-0.277140	-0.278465	-0.024365	22.6862	-0.276334	-2077.76	1.172657E-5	NaN
225	1.000000	1.443538	7.36725e+06	-49889.1	955.819	-29757.2	0.000000	0.000000	7.443328	-0.025537	NaN	0.000000	0.001578	0.001683	28.0779	0.086343	0.002026	42.6143	179.887	-164.722	-0.006288	1.442211	-0.265154	-0.266482	-0.025537	42.6143	-0.264704	-1383.17	1.846247E-5	NaN
225	1.000000	1.455570	7.36725e+06	-49889.1	955.819	-29757.2	0.000000	0.000000	7.455358	-0.077789	NaN	0.000000	0.001635	0.001688	28.078	0.133995	0.001923	69.6949	-131.179	-164.906	-0.110208	1.454213	-0.253122	-0.254480	-0.077789	69.6949	-0.252285	-891.802	8.722711E-5	NaN
225	1.000000	1.467561	7.36725e+06	-49889.1	955.819	-29757.2	0.000000	0.000000	7.467349	-0.063860	NaN	0.000000	0.001628	0.001714	28.078	0.081916	0.001897	43.1748	-83.9725	-165.096	-0.105365	1.466241	-0.241131	-0.242451	-0.063860	43.1748	-0.240022	-575.297	0.000111	NaN
225	1.000000	1.479580	7.36725e+06	-49889.1	955.82	-29757.2	0.000000	0.000000	7.479367	-0.098067	NaN	0.000000	0.001641	0.001687	28.0781	0.116141	0.002032	57.1524	-41.3272	-166.751	-0.008150	1.478230	-0.229112	-0.230463	-0.098067	57.1524	-0.227825	-369.941	0.000265	NaN
225	1.000000	1.491574	7.36725e+06	-49889.1	955.819	-29757.2	0.000000	0.000000	7.491362	-0.058438	NaN	0.000000	0.001620	0.001671	28.0772	0.082396	0.002066	39.8801	29.3659	-166.219	-0.038231	1.490250	-0.217118	-0.218443	-0.058438	39.8801	-0.216019	-239.827	0.000244	NaN
225	1.000000	1.503585	7.36725e+06	-49889.1	955.82	-29757.2	0.000000	0.000000	7.503376	0.013587	NaN	0.000000	0.001666	0.001674	28.0768	0.032569	0.001852	17.5887	139.298	-166.823	0.012249	1.502211	-0.205107	-0.206482	0.013587	17.5887	-0.205686	-163.211	-8.324762E-5	NaN
225	1.000000	1.515590	7.36725e+06	-49889.1	955.82	-29757.2	0.000000	0.000000	7.515377	-0.078232	NaN	0.000000	0.001667	0.001726	28.0766	0.017278	0.002042	8.460456	-82.6948	-166.989	-0.059506	1.514310	-0.193103	-0.194383	-0.078232	8.460456	-0.186168	-77.5872	0.001008	NaN
225	1.000000	1.527557	7.36725e+06	-49889.1	955.822	-29757.2	0.000000	0.000000	7.527344	-0.089164	NaN	0.000000	0.001561	0.001648	28.0766	0.057000	0.001946	29.2897	-72.1202	-163.528	-0.040616	1.526213	-0.181135	-0.182480	-0.089164	29.2897	-0.178852	-58.3327	0.001529	NaN
225	1.000000	1.539586	7.36725e+06	-49889.1	955.822	-29757.2	0.000000	0.000000	7.539371	-0.133281	NaN	0.000000	0.001612	0.001699	28.0765	0.114207	0.001966	58.0976	-170.034	-163.89	-0.167176	1.538319	-0.169106	-0.170374	-0.133281	58.0976	-0.167386	-36.9903	0.003603	NaN
225	1.000000	1.551626	7.36725e+06	-49889.1	955.822	-29757.2	0.000000	0.000000	7.551417	0.021033	NaN	0.000000	0.001565	0.001708	28.0768	0.092100	0.002014	45.7199	44.2003	-167.808	-0.013392	1.550289	-0.157067	-0.158403	0.021033	45.7199	-0.157412	-24.6517	-0.000853	NaN
225	1.000000	1.563601	7.36725e+06	-49889.1	955.821	-29757.2	0.000000	0.000000	7.563390	-0.028648	NaN	0.000000	0.001578	0.001707	28.0766	0.068729	0.001991	34.5154	-106.987	-164.533	-0.099559	1.562289	-0.145091	-0.146403	-0.028648	34.5154	-0.144469	-14.333	0.001999	NaN
225	1.000000	1.575611	7.36725e+06	-49889.1	955.819	-29757.2	0.000000	0.000000	7.575400	-0.056071	NaN	0.000000	0.001572	0.001680	28.0768	0.025686	0.002001	12.84	68.9574	-166.191	-0.063975	1.574297	-0.133081	-0.134395	-0.056071	12.84	-0.129806	-7.555069	0.007422	NaN
225	1.000000	1.587624	7.36725e+06	-49889.1	955.819	-29757.2	0.000000	0.000000	7.587412	-0.072336	NaN	0.000000	0.001562	0.001693	28.0767	0.069386	0.002095	33.1125	-48.4893	-162.658	-0.086333	1.586260	-0.121068	-0.122432	-0.072336	33.1125	-0.119430	-4.705002	0.015374	NaN
225	1.000000	1.599586	7.36725e+06	-49889.1	955.819	-29757.2	0.000000	0.000000	7.599375	-0.039193	NaN	0.000000	0.001561	0.001679	28.077	0.076838	0.001978	38.8486	93.4922	-172.775	-0.094846	1.598317	-0.109106	-0.110376	-0.039193	38.8486	-0.108350	-2.772912	0.014134	NaN
225	1.000000	1.611644	7.36725e+06	-49889.1	955.82	-29757.2	0.000000	0.000000	7.611434	-0.021678	NaN	0.000000	0.001566	0.001695	28.0767	0.131032	0.001935	67.7022	92.9897	-166.969	-0.027482	1.610302	-0.097048	-0.098390	-0.021678	67.7022	-0.096808	-1.550231	0.013984	NaN
225	1.000000	1.623636	7.36725e+06	-49889.1	955.819	-29757.2	0.000000	0.000000	7.623423	-0.097081	NaN	0.000000	0.001537	0.001700	28.0764	0.058380	0.001966	29.6926	-42.7052	-166.315	-0.075855	1.622319	-0.085056	-0.086373	-0.097081	29.6926	-0.082604	-0.718196	0.135173	NaN
225	1.000000	1.635641	7.36725e+06	-49889.1	955.82	-29757.2	0.000000	0.000000	7.635429	-0.046667	NaN	0.000000	0.001599	0.001713	28.0776	0.147474	0.002027	72.7611	63.6511	-169.739	-0.007612	1.634306	-0.073052	-0.074386	-0.046667	72.7611	-0.072571	-0.399153	0.116915	NaN
225	1.000000	1.647648	7.36725e+06	-49889.1	955.82	-29757.2	0.000000	0.000000	7.647438	-0.026132	NaN	0.000000	0.001609	0.001691	28.078	0.037052	0.001943	19.0678	-151.118	-162.854	-0.054717	1.646351	-0.061044	-0.062341	-0.026132	19.0678	-0.060016	-0.180283	0.144952	NaN
225	1.000000	1.659668	7.36725e+06	-49889.1	955.821	-29757.2	0.000000	0.000000	7.659453	-0.128047	NaN	0.000000	0.001668	0.001715	28.0776	0.011422	0.001992	5.735357	74.3667	-168.715	-0.099552	1.658360	-0.049025	-0.050333	-0.128047	5.735357	-0.032280	-0.026694	4.796762	NaN
225	1.000000	1.671644	7.36725e+06	-49889.1	955.821	-29757.2	0.000000	0.000000	7.671429	-0.144414	NaN	0.000000	0.001644	0.001709	28.0778	0.015960	0.001945	8.205873	114.349	-167.879	-0.144687	1.670350	-0.037048	-0.038342	-0.144414	8.205873	-0.023849	-0.015749	9.169989	NaN
225	1.000000	1.683643	7.36725e+06	-49889.1	955.821	-29757.2	0.000000	0.000000	7.683433	-0.019130	NaN	0.000000	0.001599	0.001710	28.0777	0.023389	0.001907	12.2628	-102.134	-168.903	-0.076570	1.682363	-0.025049	-0.026329	-0.019130	12.2628	-0.023879	-0.015777	1.212494	NaN
225	1.000000	1.695689	7.36725e+06	-49889.1	955.821	-29757.2	0.000000	0.000000	7.695480	0.011036	NaN	0.000000	0.001611	0.001710	28.0778	0.049855	0.001880	26.52	50.3089	-164.476	-0.016050	1.694383	-0.013003	-0.014309	0.011036	26.52	-0.013315	-0.008285	-1.332102	NaN
225	1.000000	1.707677	7.36725e+06	-49889.1	955.82	-29757.2	0.000000	0.000000	7.707469	0.018627	NaN	0.000000	0.001591	0.001710	28.0779	0.104410	0.001908	54.7149	-8.877523	-167.625	-0.040292	1.706361	-0.001015	-0.002332	0.018627	54.7149	-0.001270	-0.000927	-20.1027	NaN
225	2.000000	1.719084	7.36725e+06	-49889.1	955.821	-29757.2	0.000000	0.000000	7.719260	9.372208	NaN	0.000000	0.001610	0.001750	28.0778	8.851694	0.001594	5552.85	8.905057	-172.917	8.498659	1.718312	0.010392	0.009619	9.372208	5552.85	0.009126	0.008226	1139.32	55936
225	2.000000	1.722206	7.36725e+06	-49889.1	955.821	-29757.2	0.000000	0.000000	7.722518	12.6812	NaN	0.000000	0.001625	0.001722	28.078	11.6811	0.001597	7315.45	6.003118	-173.955	12.0821	1.721840	0.013513	0.013148	12.6812	7315.45	0.012213	0.011747	1079.57	61667.9
225	2.000000	1.725192	7.36725e+06	-49889.1	955.82	-29757.2	0.000000	0.000000	7.725661	16.505	NaN	0.000000	0.001621	0.001713	28.0777	14.8874	0.001771	8406.28	4.250974	-173.233	15.7284	1.724883	0.016500	0.016191	16.505	8406.28	0.015027	0.015322	1077.22	62047.2
225	2.000000	1.728189	7.36725e+06	-49889.1	955.82	-29757.2	0.000000	0.000000	7.728830	20.6822	NaN	0.000000	0.001601	0.001729	28.0777	18.0177	0.001835	9820.27	8.397829	-177.845	20.6178	1.727954	0.019497	0.019262	20.6822	9820.27	0.017917	0.019375	1067.47	64458.1
225	2.000000	1.731182	7.36725e+06	-49889.1	955.819	-29757.2	0.000000	0.000000	7.732102	27.4752	NaN	0.000000	0.001664	0.001699	28.0772	21.4892	0.001723	12474.9	6.383034	-178.305	27.5559	1.730854	0.022490	0.022162	27.4752	12474.9	0.020838	0.023876	1150.75	73761.6
225	2.000000	1.734170	7.36725e+06	-49889.1	955.82	-29757.2	0.000000	0.000000	7.735352	33.8415	NaN	0.000000	0.001609	0.001733	28.0767	24.4219	0.001791	13637.1	8.027663	178.297	32.9428	1.733818	0.025478	0.025126	33.8415	13637.1	0.023617	0.028547	1185.46	73741.8
225	2.000000	1.737155	7.36725e+06	-49889.1	955.82	-29757.2	0.000000	0.000000	7.738729	43.3768	NaN	0.000000	0.001658	0.001733	28.0767	27.4399	0.001835	14953.5	2.409164	-176.19	42.4928	1.736837	0.028463	0.028144	43.3768	14953.5	0.026287	0.033399	1298.75	74756.9
225	2.000000	1.740160	7.36725e+06	-49889.1	955.82	-29757.2	0.000000	0.000000	7.741823	45.5339	NaN	0.000000	0.001648	0.001721	28.0764	30.6822	0.001929	15905.1	6.458645	179.797	47.0866	1.739902	0.031468	0.031209	45.5339	15905.1	0.029321	0.039348	1157.21	73256.8
225	2.000000	1.743177	7.36725e+06	-49889.1	955.821	-29757.2	0.000000	0.000000	7.745231	55.0557	NaN	0.000000	0.001639	0.001744	28.0764	32.7545	0.001751	18701.1	4.178329	179.954	56.3857	1.742887	0.034485	0.034195	55.0557	18701.1	0.032277	0.045595	1207.5	80017
225	2.000000	1.746170	7.36725e+06	-49889.1	955.821	-29757.2	0.000000	0.000000	7.748741	67.6186	NaN	0.000000	0.001648	0.001737	28.0768	35.3612	0.001783	19829.2	2.942791	-179.665	65.7738	1.745760	0.037478	0.037068	67.6186	19829.2	0.034920	0.051561	1311.43	79784.3
225	2.000000	1.749149	7.36725e+06	-49889.1	955.821	-29757.2	0.000000	0.000000	7.752045	75.5213	NaN	0.000000	0.001652	0.001754	28.0764	38.0793	0.001771	21499.4	3.969476	178.789	76.3467	1.748852	0.040456	0.040160	75.5213	21499.4	0.037822	0.058520	1290.52	81198.2
225	2.000000	1.752062	7.36725e+06	-49889.1	955.82	-29757.2	0.000000	0.000000	7.755505	88.8285	NaN	0.000000	0.001671	0.001757	28.0766	40.6419	0.001808	22476.7	5.423871	177.204	85.5991	1.751693	0.043369	0.043001	88.8285	22476.7	0.040405	0.065080	1364.92	80497.6
225	2.000000	1.755122	7.36725e+06	-49889.1	955.821	-29757.2	0.000000	0.000000	7.758712	92.4088	NaN	0.000000	0.001643	0.001738	28.0764	42.5568	0.001765	24108	2.993558	178.327	91.704	1.754889	0.046429	0.046197	92.4088	24108	0.043555	0.073537	1256.63	81223.6
225	2.000000	1.758145	7.36725e+06	-49889.1	955.821	-29757.2	0.000000	0.000000	7.762329	106.852	NaN	0.000000	0.001642	0.001791	28.0767	46.4549	0.001869	24860.2	4.317853	176.75	107.29	1.757862	0.049453	0.049170	106.852	24860.2	0.046229	0.081115	1317.3	79749.4
225	2.000000	1.761112	7.36725e+06	-49889.1	955.821	-29757.2	0.000000	0.000000	7.765949	122.721	NaN	0.000000	0.001685	0.001773	28.0777	48.7458	0.001867	26102.8	9.185171	171.747	122.413	1.760738	0.052420	0.052046	122.721	26102.8	0.048894	0.089025	1378.5	79929
225	2.000000	1.764053	7.36725e+06	-49889.1	955.821	-29757.2	0.000000	0.000000	7.769317	133.101	NaN	0.000000	0.001689	0.001755	28.0766	50.8607	0.001867	27240.2	4.124545	176.385	129.393	1.763843	0.055361	0.055151	133.101	27240.2	0.051696	0.097728	1361.96	79611.5
225	2.000000	1.767061	7.36725e+06	-49889.1	955.821	-29757.2	0.000000	0.000000	7.773019	149.986	NaN	0.000000	0.001687	0.001700	28.0777	52.4479	0.001713	30609.7	5.745322	174.292	147.674	1.766687	0.058369	0.057994	149.986	30609.7	0.054694	0.107472	1395.59	85306.9
225	2.000000	1.770098	7.36725e+06	-49889.1	955.821	-29757.2	0.000000	0.000000	7.776231	154.221	NaN	0.000000	0.001688	0.001736	28.0777	56.7497	0.001761	32233.8	2.540944	176.324	154.853	1.769927	0.061406	0.061235	154.221	32233.8	0.057818	0.118100	1305.85	85695.8
225	2.000000	1.773184	7.36725e+06	-49889.1	955.821	-29757.2	0.000000	0.000000	7.780062	172.344	NaN	0.000000	0.001670	0.001719	28.0779	60.703	0.001868	32487.8	5.964194	173.47	174.779	1.772770	0.064492	0.064077	172.344	32487.8	0.060513	0.127656	1350.07	83075.4
225	2.000000	1.776093	7.36725e+06	-49889.1	955.822	-29757.2	0.000000	0.000000	7.783308	180.565	NaN	0.000000	0.001711	0.001754	28.0779	63.0435	0.001877	33588.5	4.989054	174.152	177.725	1.775837	0.067400	0.067145	180.565	33588.5	0.063368	0.138164	1306.89	82559.5
225	2.000000	1.779107	7.36725e+06	-49889.1	955.821	-29757.2	0.000000	0.000000	7.787033	197.856	NaN	0.000000	0.001681	0.001786	28.0778	66.1564	0.001871	35356.3	10.0339	169.17	197.992	1.778719	0.070414	0.070026	197.856	35356.3	0.066217	0.149041	1327.53	83673.2
225	2.000000	1.782052	7.36725e+06	-49889.1	955.821	-29757.2	0.000000	0.000000	7.791053	223.994	NaN	0.000000	0.001671	0.001752	28.0778	65.6588	0.001724	38081	0.378559	177.649	221.762	1.781752	0.073360	0.073059	223.994	38081	0.068948	0.159835	1401.41	87025.3
225	2.000000	1.785074	7.36725e+06	-49889.1	955.821	-29757.2	0.000000	0.000000	7.794502	234.366	NaN	0.000000	0.001593	0.001722	28.0778	69.1317	0.001818	38035.6	5.644710	172.068	233.556	1.784784	0.076382	0.076092	234.366	38035.6	0.071761	0.171324	1367.96	83956.3
225	2.000000	1.788017	7.36725e+06	-49889.1	955.822	-29757.2	0.000000	0.000000	7.798264	254.296	NaN	0.000000	0.001595	0.001759	28.0776	71.0289	0.001747	40659.1	4.754789	173.156	251.338	1.787679	0.079324	0.078987	254.296	40659.1	0.074634	0.183446	1386.22	86731.5
225	2.000000	1.791061	7.36725e+06	-49889.1	955.821	-29757.2	0.000000	0.000000	7.802203	276.058	NaN	0.000000	0.001621	0.001740	28.078	74.1004	0.001741	42573	4.682080	172.658	273.89	1.790724	0.082369	0.082031	276.058	42573	0.077505	0.195952	1408.8	87868.2
225	2.000000	1.794103	7.36725e+06	-49889.1	955.821	-29757.2	0.000000	0.000000	7.805585	284.33	NaN	0.000000	0.001619	0.001731	28.0779	77.2259	0.001755	44011.2	1.816008	175.416	285.014	1.793750	0.085411	0.085058	284.33	44011.2	0.080566	0.209703	1355.87	87808
225	2.000000	1.797015	7.36725e+06	-49889.1	955.821	-29757.2	0.000000	0.000000	7.809367	305.489	NaN	0.000000	0.001608	0.001732	28.0777	80.7429	0.001864	43327.7	6.123551	171.301	301.978	1.796662	0.088323	0.087970	305.489	43327.7	0.083035	0.221117	1381.57	84183.6
225	2.000000	1.800045	7.36725e+06	-49889.1	955.82	-29757.2	0.000000	0.000000	7.813151	323.832	NaN	0.000000	0.001553	0.001714	28.0766	81.9524	0.001779	46060.2	0.239749	176.592	321.836	1.799780	0.091353	0.091087	323.832	46060.2	0.086080	0.235579	1374.62	86702.4
225	2.000000	1.803046	7.36725e+06	-49889.1	955.821	-29757.2	0.000000	0.000000	7.817024	345.041	NaN	0.000000	0.001558	0.001728	28.0764	86.4294	0.001847	46801.2	5.081027	171.458	344.189	1.802764	0.094353	0.094072	345.041	46801.2	0.088824	0.248981	1385.81	85693.5
225	2.000000	1.806012	7.36725e+06	-49889.1	955.82	-29757.2	0.000000	0.000000	7.820877	366.617	NaN	0.000000	0.001603	0.001726	28.0764	88.3513	0.001769	49931	3.641281	172.654	363.367	1.805776	0.097319	0.097084	366.617	49931	0.091813	0.263968	1388.87	88790.8
225	2.000000	1.809041	7.36725e+06	-49889.1	955.82	-29757.2	0.000000	0.000000	7.824831	389.102	NaN	0.000000	0.001604	0.001723	28.0767	89.9891	0.001853	48555.7	3.237578	173.406	386.817	1.808710	0.100349	0.100017	389.102	48555.7	0.094338	0.276954	1404.93	84296.4
225	2.000000	1.811961	7.36725e+06	-49889.1	955.822	-29757.2	0.000000	0.000000	7.828522	407.823	NaN	0.000000	0.001601	0.001724	28.0766	93.2181	0.001864	50001.4	1.184955	175.303	402.886	1.811727	0.103269	0.103035	407.823	50001.4	0.097152	0.291762	1397.79	84574.7
225	2.000000	1.814917	7.36725e+06	-49889.1	955.821	-29757.2	0.000000	0.000000	7.832152	424.25	NaN	0.000000	0.001600	0.001733	28.077	96.7661	0.001833	52800.1	3.504336	172.085	416.598	1.814751	0.106224	0.106059	424.25	52800.1	0.100198	0.308200	1376.54	86894.2
225	2.000000	1.817481	7.36725e+06	-49889.1	955.821	-29757.2	0.000000	0.000000	7.835637	446.627	NaN	0.000000	0.001588	0.001784	28.0765	99.0679	0.001851	53511.9	1.817360	-6.031485	441.492	1.817239	0.108789	0.108546	446.627	53511.9	0.102529	0.321066	1391.07	86283.2