File: remote_trans/data/nanoindenter/0828-1/data/Data_2025-08-06,11h17m57s/2025-07-22_16-23-58_1_787.txt
2025-07-22, 16:23:58, 1
Index	Phase	Displacement	Time	Pos X	Pos Y	Pos Z	Rot A	Rot B	Piezo Z	Force A	Force B	Gripper	Voltage A	Voltage B	Temperature	Amplitude force	Amplitude pos	Stiffness	Phase shift	Phase excitation	Force A raw	Displacement raw	HMax	HMax raw	Real Force	Real Stiffness	Contact Depth	Area	Hardness	Reduced Mod.
[#]	[#]	[um]	[s]	[um]	[um]	[um]	[m°]	[m°]	[um]	[uN]	[uN]	[V]	[V]	[V]	[°C]	[uN]	[um]	[N/m]	[°]	[°]	[uN]	[um]	[um]	[um]	[uN]	[N/m]	[um]	[um^2]	[MPa]	[MPa]
787	1.000000	0.002748	7.37275e+06	-39489.1	1055.82	-29793.5	0.000000	0.000000	6.002803	-0.070265	NaN	0.000000	0.001534	0.001781	28.0838	0.118994	0.000992	119.975	125.296	-163.932	-0.095013	0.001451	-1.127825	-1.129122	-0.070265	119.975	-1.127386	-1.168311E+15	6.014242E-17	NaN
787	1.000000	0.012799	7.37275e+06	-39489.1	1055.82	-29793.5	0.000000	0.000000	6.012853	-0.085425	NaN	0.000000	0.001570	0.001759	28.0838	0.098908	0.001364	72.5073	174.039	16.6882	-0.065811	0.011364	-1.117775	-1.119209	-0.085425	72.5073	-1.116891	-8.448106E+14	1.011178E-16	NaN
787	1.000000	0.022678	7.37275e+06	-39489.1	1055.82	-29793.5	0.000000	0.000000	6.022737	0.005540	NaN	0.000000	0.001553	0.001770	28.0837	0.067916	0.001648	41.1996	-117.524	-164.978	-0.026730	0.021422	-1.107895	-1.109151	0.005540	41.1996	-1.107996	-6.417866E+14	-8.632070E-18	NaN
787	1.000000	0.032694	7.37275e+06	-39489.1	1055.82	-29793.5	0.000000	0.000000	6.032749	-0.081454	NaN	0.000000	0.001558	0.001771	28.0837	0.057107	0.001911	29.8775	90.2054	17.2758	-0.056917	0.031291	-1.097879	-1.099282	-0.081454	29.8775	-1.095834	-4.406995E+14	1.848290E-16	NaN
787	1.000000	0.042700	7.37275e+06	-39489.1	1055.82	-29793.5	0.000000	0.000000	6.042756	-0.055099	NaN	0.000000	0.001567	0.001759	28.0834	0.062933	0.002127	29.5865	-175.601	-165.609	0.006816	0.041369	-1.087873	-1.089204	-0.055099	29.5865	-1.086477	-3.299899E+14	1.669721E-16	NaN
787	1.000000	0.052701	7.37275e+06	-39489.1	1055.82	-29793.6	0.000000	0.000000	6.052756	-0.066805	NaN	0.000000	0.001584	0.001772	28.0837	0.058669	0.001868	31.412	81.0712	13.6657	-0.044939	0.051320	-1.077872	-1.079254	-0.066805	31.412	-1.076277	-2.407223E+14	2.775186E-16	NaN
787	1.000000	0.062695	7.37275e+06	-39489.1	1055.82	-29793.6	0.000000	0.000000	6.062754	0.028729	NaN	0.000000	0.001541	0.001763	28.0838	0.044508	0.001999	22.2644	-11.5878	-168.686	-0.050768	0.061455	-1.067879	-1.069118	0.028729	22.2644	-1.068846	-1.912887E+14	-1.501887E-16	NaN
787	1.000000	0.072699	7.37275e+06	-39489.1	1055.82	-29793.6	0.000000	0.000000	6.072753	-0.103830	NaN	0.000000	0.001600	0.001800	28.0826	0.117099	0.001911	61.2727	82.0094	14.163	-0.019673	0.071366	-1.057874	-1.059207	-0.103830	61.2727	-1.056603	-1.309698E+14	7.927792E-16	NaN
787	1.000000	0.082717	7.37275e+06	-39489.1	1055.82	-29793.6	0.000000	0.000000	6.082769	-0.143176	NaN	0.000000	0.001572	0.001822	28.0827	0.093375	0.002042	45.7303	26.0846	-160.834	-0.130987	0.081367	-1.047856	-1.049207	-0.143176	45.7303	-1.045508	-9.290268E+13	1.541137E-15	NaN
787	1.000000	0.092732	7.37275e+06	-39489.1	1055.82	-29793.6	0.000000	0.000000	6.092789	-0.035118	NaN	0.000000	0.001578	0.001828	28.0824	0.187760	0.001935	97.0439	-132.464	16.3196	-0.081620	0.091360	-1.037841	-1.039213	-0.035118	97.0439	-1.037570	-7.265844E+13	4.833250E-16	NaN
787	1.000000	0.102715	7.37275e+06	-39489.1	1055.82	-29793.6	0.000000	0.000000	6.102772	-0.018994	NaN	0.000000	0.001609	0.001773	28.0824	0.044414	0.002109	21.0599	-3.829197	-165.925	-0.018456	0.101404	-1.027858	-1.029169	-0.018994	21.0599	-1.027182	-5.267130E+13	3.606157E-16	NaN
787	1.000000	0.112729	7.37275e+06	-39489.1	1055.82	-29793.6	0.000000	0.000000	6.112783	-0.099779	NaN	0.000000	0.001601	0.001790	28.0824	0.095071	0.001957	48.5888	-177.632	12.6155	-0.162237	0.111342	-1.017844	-1.019232	-0.099779	48.5888	-1.016304	-3.760317E+13	2.653481E-15	NaN
787	1.000000	0.122730	7.37275e+06	-39489.1	1055.82	-29793.6	0.000000	0.000000	6.122786	-0.038902	NaN	0.000000	0.001624	0.001750	28.0827	0.085818	0.001980	43.3358	120.276	-165.61	0.002006	0.121429	-1.007844	-1.009144	-0.038902	43.3358	-1.007170	-2.833317E+13	1.373006E-15	NaN
787	1.000000	0.132734	7.37275e+06	-39489.1	1055.82	-29793.6	0.000000	0.000000	6.132788	-0.082103	NaN	0.000000	0.001580	0.001762	28.0826	0.165805	0.002091	79.2922	-154.411	19.7336	-0.016030	0.131364	-0.997840	-0.999209	-0.082103	79.2922	-0.997063	-2.071217E+13	3.964006E-15	NaN
787	1.000000	0.142735	7.37275e+06	-39489.1	1055.82	-29793.6	0.000000	0.000000	6.142790	-0.088321	NaN	0.000000	0.001589	0.001781	28.0827	0.024595	0.002040	12.0575	-152.982	-165.865	-0.113652	0.141398	-0.987838	-0.989175	-0.088321	12.0575	-0.982344	-1.312177E+13	6.730864E-15	NaN
787	1.000000	0.152731	7.37275e+06	-39489.1	1055.82	-29793.6	0.000000	0.000000	6.152789	-0.005291	NaN	0.000000	0.001614	0.001780	28.0831	0.033223	0.002050	16.2097	-58.7934	13.5851	-0.105122	0.151361	-0.977842	-0.979212	-0.005291	16.2097	-0.977597	-1.132505E+13	4.671896E-16	NaN
787	1.000000	0.162712	7.37275e+06	-39489.1	1055.82	-29793.6	0.000000	0.000000	6.162770	-0.002640	NaN	0.000000	0.001592	0.001795	28.0827	0.078830	0.001924	40.9751	-161.26	-165.48	-0.051032	0.161451	-0.967862	-0.969122	-0.002640	40.9751	-0.967813	-8.359715E+12	3.158221E-16	NaN
787	1.000000	0.172729	7.37275e+06	-39489.1	1055.82	-29793.6	0.000000	0.000000	6.172785	-0.045804	NaN	0.000000	0.001609	0.001776	28.0823	0.028115	0.002034	13.8252	-57.5834	14.699	-0.054254	0.171459	-0.957844	-0.959114	-0.045804	13.8252	-0.955360	-5.679408E+12	8.065003E-15	NaN
787	1.000000	0.182752	7.37275e+06	-39489.1	1055.82	-29793.6	0.000000	0.000000	6.182809	-0.040844	NaN	0.000000	0.001582	0.001773	28.0827	0.032170	0.001962	16.3934	-56.0219	-164.054	-0.103563	0.181395	-0.947821	-0.949178	-0.040844	16.3934	-0.945952	-4.240667E+12	9.631617E-15	NaN
787	1.000000	0.192763	7.37275e+06	-39489.1	1055.82	-29793.6	0.000000	0.000000	6.192816	-0.130548	NaN	0.000000	0.001610	0.001784	28.0826	0.139893	0.002057	68.0178	68.4118	15.1223	-0.082929	0.191399	-0.937810	-0.939174	-0.130548	68.0178	-0.936371	-3.148996E+12	4.145694E-14	NaN
787	1.000000	0.202772	7.37275e+06	-39489.1	1055.82	-29793.6	0.000000	0.000000	6.202826	-0.103774	NaN	0.000000	0.001584	0.001792	28.0826	0.068528	0.002118	32.3482	9.577227	-165.545	-0.117732	0.201432	-0.927801	-0.929141	-0.103774	32.3482	-0.925395	-2.238931E+12	4.634971E-14	NaN
787	1.000000	0.212742	7.37275e+06	-39489.1	1055.82	-29793.6	0.000000	0.000000	6.212797	-0.069095	NaN	0.000000	0.001604	0.001827	28.0835	0.066523	0.001934	34.4025	2.590874	13.7292	-0.126292	0.211382	-0.917831	-0.919192	-0.069095	34.4025	-0.916325	-1.688822E+12	4.091286E-14	NaN
787	1.000000	0.222761	7.37275e+06	-39489.1	1055.82	-29793.6	0.000000	0.000000	6.222816	-0.088177	NaN	0.000000	0.001609	0.001775	28.0838	0.043701	0.001986	22.0082	-48.2277	-166.016	-0.028125	0.221424	-0.907812	-0.909149	-0.088177	22.0082	-0.904807	-1.180362E+12	7.470347E-14	NaN
787	1.000000	0.232769	7.37275e+06	-39489.1	1055.82	-29793.6	0.000000	0.000000	6.232824	-0.084204	NaN	0.000000	0.001601	0.001801	28.0835	0.070673	0.002012	35.1222	176.577	14.5364	-0.109042	0.231439	-0.897804	-0.899134	-0.084204	35.1222	-0.896006	-8.976320E+11	9.380687E-14	NaN
787	1.000000	0.242779	7.37275e+06	-39489.1	1055.82	-29793.6	0.000000	0.000000	6.242833	-0.099588	NaN	0.000000	0.001606	0.001745	28.0838	0.089780	0.001942	46.2286	-162.388	-168.3	-0.083740	0.241465	-0.887794	-0.889108	-0.099588	46.2286	-0.886179	-6.610810E+11	1.506438E-13	NaN
787	1.000000	0.252775	7.37275e+06	-39489.1	1055.82	-29793.6	0.000000	0.000000	6.252831	-0.069780	NaN	0.000000	0.001601	0.001784	28.0838	0.061635	0.001877	32.8416	-58.191	14.6931	-0.055602	0.251438	-0.877798	-0.879135	-0.069780	32.8416	-0.876204	-4.845897E+11	1.439982E-13	NaN
787	1.000000	0.262812	7.37275e+06	-39489.1	1055.82	-29793.6	0.000000	0.000000	6.262870	0.000745	NaN	0.000000	0.001600	0.001812	28.0839	0.086303	0.001975	43.6902	133.481	-164.757	-0.057880	0.261485	-0.867761	-0.869089	0.000745	43.6902	-0.867774	-3.726746E+11	-1.999430E-15	NaN
787	1.000000	0.272767	7.37275e+06	-39489.1	1055.82	-29793.6	0.000000	0.000000	6.272824	-0.023488	NaN	0.000000	0.001594	0.001775	28.0836	0.085067	0.001992	42.6951	165.347	16.8	-0.014133	0.271439	-0.857806	-0.859134	-0.023488	42.6951	-0.857394	-2.696746E+11	8.709897E-14	NaN
787	1.000000	0.282775	7.37275e+06	-39489.1	1055.82	-29793.6	0.000000	0.000000	6.282830	-0.093858	NaN	0.000000	0.001582	0.001743	28.0836	0.080781	0.002117	38.1559	164.605	-167.935	-0.050227	0.281475	-0.847798	-0.849098	-0.093858	38.1559	-0.845953	-1.887682E+11	4.972128E-13	NaN
787	1.000000	0.292834	7.37275e+06	-39489.1	1055.82	-29793.6	0.000000	0.000000	6.292891	-0.047156	NaN	0.000000	0.001581	0.001799	28.0836	0.146175	0.002051	71.2561	-157.112	13.125	-0.096463	0.291469	-0.837739	-0.839104	-0.047156	71.2561	-0.837243	-1.438577E+11	3.277984E-13	NaN
787	1.000000	0.302808	7.37275e+06	-39489.1	1055.82	-29793.6	0.000000	0.000000	6.302863	-0.086147	NaN	0.000000	0.001567	0.001780	28.0836	0.108329	0.002028	53.4265	-173.24	-166.203	-0.132377	0.301548	-0.827765	-0.829026	-0.086147	53.4265	-0.826556	-1.030617E+11	8.358735E-13	NaN
787	1.000000	0.312805	7.37275e+06	-39489.1	1055.82	-29793.6	0.000000	0.000000	6.312864	0.019747	NaN	0.000000	0.001625	0.001810	28.0838	0.039807	0.002142	18.5831	134.567	13.1606	-0.030278	0.311462	-0.817768	-0.819112	0.019747	18.5831	-0.818565	-8.030686E+10	-2.458974E-13	NaN
787	1.000000	0.322798	7.37275e+06	-39489.1	1055.82	-29793.6	0.000000	0.000000	6.322855	-0.034456	NaN	0.000000	0.001610	0.001821	28.0838	0.049875	0.002022	24.6674	-98.8149	-165.953	-0.068827	0.321494	-0.807775	-0.809079	-0.034456	24.6674	-0.806727	-5.548351E+10	6.210129E-13	NaN
787	1.000000	0.332814	7.37275e+06	-39489.1	1055.82	-29793.6	0.000000	0.000000	6.332867	-0.140975	NaN	0.000000	0.001603	0.001809	28.084	0.085908	0.001945	44.1582	19.8298	14.388	-0.087404	0.331487	-0.797759	-0.799086	-0.140975	44.1582	-0.795364	-3.889833E+10	3.624194E-12	NaN
787	1.000000	0.342819	7.37275e+06	-39489.1	1055.82	-29793.6	0.000000	0.000000	6.342875	-0.071820	NaN	0.000000	0.001594	0.001818	28.0828	0.104493	0.001964	53.2094	-22.9806	-163.288	-0.103403	0.341533	-0.787754	-0.789041	-0.071820	53.2094	-0.786741	-2.970459E+10	2.417817E-12	NaN
787	1.000000	0.352818	7.37275e+06	-39489.1	1055.82	-29793.6	0.000000	0.000000	6.352872	-0.113732	NaN	0.000000	0.001555	0.001788	28.0824	0.118376	0.002058	57.5277	-114.055	13.8426	-0.020331	0.351437	-0.777755	-0.779136	-0.113732	57.5277	-0.776272	-2.140762E+10	5.312701E-12	NaN
787	1.000000	0.362799	7.37276e+06	-39489.1	1055.82	-29793.6	0.000000	0.000000	6.362857	-0.012477	NaN	0.000000	0.001559	0.001825	28.0826	0.015881	0.001923	8.258288	-69.0123	-163.256	-0.045233	0.361522	-0.767774	-0.769051	-0.012477	8.258288	-0.766641	-1.583553E+10	7.878880E-13	NaN
787	1.000000	0.372851	7.37276e+06	-39489.1	1055.82	-29793.6	0.000000	0.000000	6.372904	-0.134713	NaN	0.000000	0.001594	0.001785	28.0824	0.028974	0.002071	13.9872	-49.1547	14.2024	-0.180700	0.371469	-0.757722	-0.759104	-0.134713	13.9872	-0.750499	-9.550192E+9	1.410583E-11	NaN
787	1.000000	0.382839	7.37276e+06	-39489.1	1055.82	-29793.6	0.000000	0.000000	6.382893	-0.113424	NaN	0.000000	0.001612	0.001784	28.0823	0.032101	0.001962	16.3625	-126.202	-169.389	-0.030219	0.381549	-0.747734	-0.749024	-0.113424	16.3625	-0.742535	-7.440100E+9	1.524493E-11	NaN
787	1.000000	0.392807	7.37276e+06	-39489.1	1055.82	-29793.6	0.000000	0.000000	6.392863	-0.051193	NaN	0.000000	0.001603	0.001780	28.0822	0.061391	0.001986	30.9176	-144.212	16.6045	-0.103446	0.391515	-0.737767	-0.739059	-0.051193	30.9176	-0.736525	-6.161914E+9	8.307988E-12	NaN
787	1.000000	0.402832	7.37276e+06	-39489.1	1055.82	-29793.6	0.000000	0.000000	6.402887	-0.073039	NaN	0.000000	0.001559	0.001790	28.0826	0.083901	0.002039	41.1558	-62.7662	-163.151	-0.037857	0.401531	-0.727742	-0.729042	-0.073039	41.1558	-0.726411	-4.486241E+9	1.628057E-11	NaN
787	1.000000	0.412860	7.37276e+06	-39489.1	1055.82	-29793.6	0.000000	0.000000	6.412916	-0.051541	NaN	0.000000	0.001523	0.001768	28.0826	0.010167	0.002078	4.892282	35.7287	11.7831	-0.064370	0.411482	-0.717714	-0.719091	-0.051541	4.892282	-0.709812	-2.663703E+9	1.934921E-11	NaN
787	1.000000	0.422854	7.37276e+06	-39489.1	1055.82	-29793.6	0.000000	0.000000	6.422910	-0.050537	NaN	0.000000	0.001564	0.001776	28.0824	0.134315	0.001959	68.5706	-67.463	-166.181	0.003405	0.421480	-0.707719	-0.709094	-0.050537	68.5706	-0.707167	-2.451190E+9	2.061747E-11	NaN
787	1.000000	0.432851	7.37276e+06	-39489.1	1055.82	-29793.6	0.000000	0.000000	6.432909	-0.006003	NaN	0.000000	0.001550	0.001786	28.0825	0.056350	0.002095	26.8989	-103.878	16.5342	-0.039618	0.431560	-0.697722	-0.699013	-0.006003	26.8989	-0.697554	-1.811885E+9	3.313288E-12	NaN
787	1.000000	0.442874	7.37276e+06	-39489.1	1055.82	-29793.6	0.000000	0.000000	6.442932	-0.012081	NaN	0.000000	0.001561	0.001788	28.0825	0.055317	0.002009	27.5361	-70.8158	-166.489	-0.010387	0.441525	-0.687699	-0.689048	-0.012081	27.5361	-0.687370	-1.315133E+9	9.185988E-12	NaN
787	1.000000	0.452878	7.37276e+06	-39489.1	1055.82	-29793.6	0.000000	0.000000	6.452932	-0.098356	NaN	0.000000	0.001572	0.001814	28.0825	0.121025	0.002074	58.3573	104.316	15.1174	-0.037165	0.451509	-0.677695	-0.679065	-0.098356	58.3573	-0.676431	-9.319527E+8	1.055380E-10	NaN
787	1.000000	0.462861	7.37276e+06	-39489.1	1055.82	-29793.6	0.000000	0.000000	6.462915	-0.111131	NaN	0.000000	0.001585	0.001792	28.0826	0.038662	0.002010	19.2318	127.178	-163.424	-0.104701	0.461521	-0.667712	-0.669053	-0.111131	19.2318	-0.663378	-6.176399E+8	1.799280E-10	NaN
787	1.000000	0.472874	7.37276e+06	-39489.1	1055.82	-29793.6	0.000000	0.000000	6.472929	-0.088430	NaN	0.000000	0.001532	0.001789	28.0835	0.071308	0.002016	35.3654	32.0032	16.1304	-0.063674	0.471508	-0.657699	-0.659065	-0.088430	35.3654	-0.655824	-4.866886E+8	1.816974E-10	NaN
787	1.000000	0.482880	7.37276e+06	-39489.1	1055.82	-29793.6	0.000000	0.000000	6.482937	-0.044136	NaN	0.000000	0.001578	0.001768	28.0836	0.091340	0.002021	45.1977	82.6803	-162.436	-0.028055	0.481550	-0.647693	-0.649023	-0.044136	45.1977	-0.646961	-3.679284E+8	1.199591E-10	NaN
787	1.000000	0.492873	7.37276e+06	-39489.1	1055.82	-29793.6	0.000000	0.000000	6.492927	-0.124747	NaN	0.000000	0.001577	0.001785	28.0842	0.123671	0.001878	65.8685	69.3403	14.2007	-0.120600	0.491479	-0.637700	-0.639095	-0.124747	65.8685	-0.636279	-2.625622E+8	4.751136E-10	NaN
787	1.000000	0.502872	7.37276e+06	-39489.1	1055.82	-29793.6	0.000000	0.000000	6.502924	-0.147509	NaN	0.000000	0.001548	0.001756	28.0835	0.053730	0.002030	26.4743	-107.56	-163.906	-0.110581	0.501564	-0.627702	-0.629009	-0.147509	26.4743	-0.623523	-1.754075E+8	8.409515E-10	NaN
787	1.000000	0.512915	7.37276e+06	-39489.1	1055.82	-29793.6	0.000000	0.000000	6.512970	-0.078112	NaN	0.000000	0.001555	0.001768	28.084	0.052173	0.001930	27.0393	-66.4758	16.6357	-0.061051	0.511565	-0.617659	-0.619008	-0.078112	27.0393	-0.615492	-1.360368E+8	5.741961E-10	NaN
787	1.000000	0.522894	7.37276e+06	-39489.1	1055.82	-29793.6	0.000000	0.000000	6.522950	-0.035425	NaN	0.000000	0.001573	0.001788	28.0835	0.072075	0.002034	35.4282	169.31	-162.9	0.055482	0.521563	-0.607680	-0.609010	-0.035425	35.4282	-0.606930	-1.037202E+8	3.415481E-10	NaN
787	1.000000	0.532904	7.37276e+06	-39489.1	1055.82	-29793.6	0.000000	0.000000	6.532959	-0.075102	NaN	0.000000	0.001600	0.001780	28.0835	0.003600	0.001963	1.834311	-73.4077	13.2707	-0.053871	0.531529	-0.597670	-0.599044	-0.075102	1.834311	-0.566962	-2.915097E+7	2.576321E-9	NaN
787	1.000000	0.542909	7.37276e+06	-39489.1	1055.82	-29793.6	0.000000	0.000000	6.542963	-0.095333	NaN	0.000000	0.001609	0.001773	28.0836	0.019543	0.001923	10.1605	-61.8907	-163.676	-0.114207	0.541569	-0.587664	-0.589004	-0.095333	10.1605	-0.580627	-4.501782E+7	2.117670E-9	NaN
787	1.000000	0.552886	7.37276e+06	-39489.1	1055.82	-29793.6	0.000000	0.000000	6.552940	-0.096618	NaN	0.000000	0.001597	0.001775	28.084	0.039029	0.002040	19.1354	-55.2996	13.2163	-0.082874	0.551596	-0.577687	-0.578977	-0.096618	19.1354	-0.573901	-3.635090E+7	2.657914E-9	NaN
787	1.000000	0.562907	7.37276e+06	-39489.1	1055.82	-29793.6	0.000000	0.000000	6.562963	-0.046073	NaN	0.000000	0.001605	0.001810	28.0835	0.003046	0.001914	1.591227	117.9	-166.858	-0.016777	0.561569	-0.567667	-0.569004	-0.046073	1.591227	-0.545951	-1.492296E+7	3.087398E-9	NaN
787	1.000000	0.572907	7.37276e+06	-39489.1	1055.82	-29793.6	0.000000	0.000000	6.572961	-0.090272	NaN	0.000000	0.001552	0.001756	28.0836	0.029678	0.001870	15.8689	-6.880020	13.9271	-0.070154	0.571558	-0.557666	-0.559015	-0.090272	15.8689	-0.553400	-1.892502E+7	4.770006E-9	NaN
787	1.000000	0.582913	7.37276e+06	-39489.1	1055.82	-29793.6	0.000000	0.000000	6.582968	-0.076954	NaN	0.000000	0.001571	0.001783	28.0838	0.087103	0.002038	42.7419	52.2704	-164.738	-0.067139	0.581615	-0.547660	-0.548958	-0.076954	42.7419	-0.546310	-1.509508E+7	5.097967E-9	NaN
787	1.000000	0.592896	7.37276e+06	-39489.1	1055.82	-29793.6	0.000000	0.000000	6.592954	0.005294	NaN	0.000000	0.001541	0.001788	28.0836	0.076179	0.001885	40.4173	-125.942	13.0633	-0.008054	0.591539	-0.537678	-0.539035	0.005294	40.4173	-0.537776	-1.149493E+7	-4.605432E-10	NaN
787	1.000000	0.602930	7.37276e+06	-39489.1	1055.82	-29793.6	0.000000	0.000000	6.602985	-0.085203	NaN	0.000000	0.001590	0.001809	28.0838	0.071188	0.001921	37.0544	-144.811	-161.733	-0.142440	0.601622	-0.527643	-0.528951	-0.085203	37.0544	-0.525919	-7.86828e+06	1.082869E-8	NaN
787	1.000000	0.612935	7.37276e+06	-39489.1	1055.82	-29793.6	0.000000	0.000000	6.612991	-0.049017	NaN	0.000000	0.001598	0.001754	28.0838	0.122834	0.002120	57.9308	167.63	14.3616	-0.136361	0.611561	-0.517638	-0.519012	-0.049017	57.9308	-0.517004	-5.91449e+06	8.287669E-9	NaN
787	1.000000	0.622911	7.37276e+06	-39489.1	1055.82	-29793.6	0.000000	0.000000	6.622968	-0.034331	NaN	0.000000	0.001580	0.001796	28.0827	0.048248	0.002020	23.8885	125.32	-169.73	-0.075873	0.621587	-0.507662	-0.508986	-0.034331	23.8885	-0.506584	-4.23475e+06	8.106992E-9	NaN
787	1.000000	0.632954	7.37276e+06	-39489.1	1055.82	-29793.6	0.000000	0.000000	6.633007	-0.123084	NaN	0.000000	0.001569	0.001778	28.0823	0.023903	0.002019	11.8403	164.472	14.1228	-0.132921	0.631579	-0.497619	-0.498994	-0.123084	11.8403	-0.489823	-2.47126e+06	4.980621E-8	NaN
787	1.000000	0.642938	7.37276e+06	-39489.1	1055.82	-29793.6	0.000000	0.000000	6.642994	-0.050486	NaN	0.000000	0.001576	0.001797	28.0822	0.044039	0.002221	19.8326	160.749	-165.637	-0.028483	0.641668	-0.487635	-0.488905	-0.050486	19.8326	-0.485726	-2.16591e+06	2.330954E-8	NaN
787	1.000000	0.652959	7.37276e+06	-39489.1	1055.82	-29793.6	0.000000	0.000000	6.653015	-0.053437	NaN	0.000000	0.001603	0.001809	28.0823	0.033268	0.002044	16.277	-136.371	12.6721	-0.029641	0.651628	-0.477614	-0.478945	-0.053437	16.277	-0.475152	-1.54039e+06	3.469039E-8	NaN
787	1.000000	0.662971	7.37276e+06	-39489.1	1055.82	-29793.6	0.000000	0.000000	6.663027	-0.049804	NaN	0.000000	0.001557	0.001817	28.0822	0.161649	0.002078	77.7919	133.526	-162.761	-0.112100	0.661584	-0.467602	-0.468989	-0.049804	77.7919	-0.467122	-1.1886e+06	4.190182E-8	NaN
787	1.000000	0.672949	7.37276e+06	-39489.1	1055.82	-29793.6	0.000000	0.000000	6.673006	-0.027417	NaN	0.000000	0.001581	0.001793	28.0822	0.081661	0.001931	42.2903	150.341	13.0678	-0.052589	0.671580	-0.457625	-0.458993	-0.027417	42.2903	-0.457139	-860585	3.185900E-8	NaN
787	1.000000	0.682944	7.37276e+06	-39489.1	1055.82	-29793.6	0.000000	0.000000	6.683001	-0.026361	NaN	0.000000	0.001600	0.001766	28.0822	0.062881	0.002003	31.3904	-29.1128	-162.065	-0.009216	0.681671	-0.447629	-0.448902	-0.026361	31.3904	-0.446999	-619543	4.254892E-8	NaN
787	1.000000	0.692970	7.37276e+06	-39489.1	1055.82	-29793.6	0.000000	0.000000	6.693025	-0.068258	NaN	0.000000	0.001612	0.001838	28.0822	0.129549	0.002000	64.7879	24.1385	16.1804	0.011322	0.691609	-0.437604	-0.438964	-0.068258	64.7879	-0.436813	-445013	1.533831E-7	NaN
787	1.000000	0.702957	7.37276e+06	-39489.1	1055.82	-29793.6	0.000000	0.000000	6.703009	-0.136384	NaN	0.000000	0.001567	0.001811	28.082	0.049041	0.002083	23.542	-128.119	-165.55	-0.060712	0.701628	-0.427617	-0.428946	-0.136384	23.542	-0.423272	-286284	4.763940E-7	NaN
787	1.000000	0.712963	7.37276e+06	-39489.1	1055.82	-29793.6	0.000000	0.000000	6.713019	-0.046703	NaN	0.000000	0.001568	0.001804	28.0819	0.043508	0.002021	21.5318	-50.3546	16.8629	-0.102238	0.711604	-0.417610	-0.418969	-0.046703	21.5318	-0.415984	-225643	2.069757E-7	NaN
787	1.000000	0.722976	7.37276e+06	-39489.1	1055.82	-29793.6	0.000000	0.000000	6.723032	-0.062189	NaN	0.000000	0.001559	0.001806	28.0821	0.050835	0.001962	25.9133	-175.085	-163.989	-0.038595	0.721694	-0.407597	-0.408879	-0.062189	25.9133	-0.405797	-161659	3.846930E-7	NaN
787	1.000000	0.733008	7.37276e+06	-39489.1	1055.82	-29793.6	0.000000	0.000000	6.733064	-0.062914	NaN	0.000000	0.001597	0.001798	28.0821	0.081200	0.002052	39.5718	111.63	13.0439	-0.048257	0.731599	-0.397565	-0.398975	-0.062914	39.5718	-0.396372	-118640	5.302961E-7	NaN
787	1.000000	0.742977	7.37276e+06	-39489.1	1055.82	-29793.6	0.000000	0.000000	6.743032	-0.066428	NaN	0.000000	0.001556	0.001811	28.0823	0.129668	0.001997	64.9302	165.136	-164.673	-0.001228	0.741656	-0.387596	-0.388918	-0.066428	64.9302	-0.386829	-86653.4	7.665994E-7	NaN
787	1.000000	0.753027	7.37276e+06	-39489.1	1055.82	-29793.6	0.000000	0.000000	6.753082	-0.070619	NaN	0.000000	0.001573	0.001815	28.0832	0.091351	0.001996	45.7612	-118.431	15.1364	-0.059640	0.751645	-0.377546	-0.378928	-0.070619	45.7612	-0.376389	-61381	1.150502E-6	NaN
787	1.000000	0.762997	7.37276e+06	-39489.1	1055.82	-29793.6	0.000000	0.000000	6.763053	-0.043500	NaN	0.000000	0.001580	0.001811	28.0837	0.074071	0.002057	36.0136	-37.9223	-159.399	-0.084513	0.761635	-0.367576	-0.368938	-0.043500	36.0136	-0.366670	-44478.2	9.780045E-7	NaN
787	1.000000	0.772987	7.37276e+06	-39489.1	1055.82	-29793.6	0.000000	0.000000	6.773045	-0.015707	NaN	0.000000	0.001614	0.001797	28.0833	0.034868	0.001950	17.8841	54.6799	14.3417	-0.003173	0.771623	-0.357586	-0.358950	-0.015707	17.8841	-0.356927	-32166.2	4.882990E-7	NaN
787	1.000000	0.782997	7.37276e+06	-39489.1	1055.82	-29793.6	0.000000	0.000000	6.783054	-0.011700	NaN	0.000000	0.001601	0.001846	28.0833	0.041194	0.001910	21.5656	-43.2686	-161.126	0.001044	0.781671	-0.347577	-0.348902	-0.011700	21.5656	-0.347170	-23221.9	5.038267E-7	NaN
787	1.000000	0.793015	7.37276e+06	-39489.1	1055.82	-29793.6	0.000000	0.000000	6.793070	-0.084452	NaN	0.000000	0.001552	0.001743	28.0831	0.051147	0.002011	25.4277	144.218	15.6756	-0.172162	0.791673	-0.337558	-0.338900	-0.084452	25.4277	-0.335067	-15472.9	5.458083E-6	NaN
787	1.000000	0.802994	7.37276e+06	-39489.1	1055.82	-29793.6	0.000000	0.000000	6.803051	-0.026087	NaN	0.000000	0.001588	0.001785	28.0839	0.094125	0.001969	47.8025	-66.9275	-165.689	0.068515	0.801692	-0.327579	-0.328881	-0.026087	47.8025	-0.327170	-11857.1	2.200135E-6	NaN
787	1.000000	0.812998	7.37276e+06	-39489.1	1055.82	-29793.6	0.000000	0.000000	6.813053	-0.076309	NaN	0.000000	0.001573	0.001740	28.0838	0.058446	0.001899	30.7729	-116.612	16.3349	-0.094260	0.811646	-0.317575	-0.318927	-0.076309	30.7729	-0.315716	-8044.65	9.485699E-6	NaN
787	1.000000	0.823034	7.37276e+06	-39489.1	1055.82	-29793.6	0.000000	0.000000	6.823089	-0.058978	NaN	0.000000	0.001562	0.001738	28.0837	0.032359	0.002034	15.9071	-138.261	-166.684	-0.040320	0.821741	-0.307540	-0.308833	-0.058978	15.9071	-0.304759	-5538.28	1.064920E-5	NaN
787	1.000000	0.833009	7.37276e+06	-39489.1	1055.82	-29793.6	0.000000	0.000000	6.833065	-0.057510	NaN	0.000000	0.001582	0.001789	28.0835	0.117192	0.002144	54.6532	-162.006	16.8148	-0.026309	0.831655	-0.297564	-0.298918	-0.057510	54.6532	-0.296775	-4212.91	1.365089E-5	NaN
787	1.000000	0.843013	7.37276e+06	-39489.1	1055.82	-29793.6	0.000000	0.000000	6.843074	0.059141	NaN	0.000000	0.001579	0.001787	28.0839	0.054233	0.001904	28.4806	-11.7406	-164.837	0.058098	0.841667	-0.287560	-0.288907	0.059141	28.4806	-0.289117	-3236.48	-1.827334E-5	NaN
787	1.000000	0.853036	7.37276e+06	-39489.1	1055.82	-29793.6	0.000000	0.000000	6.853090	-0.108584	NaN	0.000000	0.001585	0.001761	28.0833	0.055396	0.001992	27.8097	97.128	18.3922	-0.054973	0.851648	-0.277537	-0.278925	-0.108584	27.8097	-0.274608	-1956.46	5.550041E-5	NaN
787	1.000000	0.863043	7.37276e+06	-39489.1	1055.82	-29793.6	0.000000	0.000000	6.863101	-0.013503	NaN	0.000000	0.001587	0.001767	28.0834	0.080966	0.002013	40.2182	-72.6971	-164.189	0.044576	0.861691	-0.267530	-0.268882	-0.013503	40.2182	-0.267278	-1513.99	8.918822E-6	NaN
787	1.000000	0.873040	7.37276e+06	-39489.1	1055.82	-29793.6	0.000000	0.000000	6.873097	-0.031730	NaN	0.000000	0.001597	0.001780	28.0837	0.041140	0.002102	19.5726	159.081	14.6204	-0.021759	0.871669	-0.257534	-0.258905	-0.031730	19.5726	-0.256318	-1028.94	3.083813E-5	NaN
787	1.000000	0.883017	7.37276e+06	-39489.1	1055.82	-29793.6	0.000000	0.000000	6.883075	-0.002349	NaN	0.000000	0.001614	0.001781	28.0839	0.138801	0.002080	66.7338	16.2944	-165.823	-0.039970	0.881756	-0.247557	-0.248818	-0.002349	66.7338	-0.247530	-752.875	3.120106E-6	NaN
787	1.000000	0.893014	7.37276e+06	-39489.1	1055.82	-29793.6	0.000000	0.000000	6.893071	-0.027792	NaN	0.000000	0.001607	0.001788	28.0824	0.033747	0.001830	18.4454	-47.4785	13.3479	-0.062861	0.891663	-0.237559	-0.238910	-0.027792	18.4454	-0.236429	-505.445	5.498467E-5	NaN
787	1.000000	0.903048	7.37276e+06	-39489.1	1055.82	-29793.6	0.000000	0.000000	6.903104	-0.036685	NaN	0.000000	0.001570	0.001796	28.0828	0.065261	0.001947	33.5179	57.9253	-167.944	0.030840	0.901709	-0.227526	-0.228864	-0.036685	33.5179	-0.226705	-355.128	0.000103	NaN
787	1.000000	0.913040	7.37276e+06	-39489.1	1055.82	-29793.6	0.000000	0.000000	6.913094	-0.106294	NaN	0.000000	0.001582	0.001815	28.0825	0.064453	0.002070	31.129	-100.063	12.5919	-0.079855	0.911693	-0.217533	-0.218880	-0.106294	31.129	-0.214972	-230.709	0.000461	NaN
787	1.000000	0.923044	7.37276e+06	-39489.1	1055.82	-29793.6	0.000000	0.000000	6.923098	-0.110602	NaN	0.000000	0.001571	0.001802	28.0825	0.028833	0.001890	15.2562	-117.347	-164.704	-0.098249	0.921748	-0.207529	-0.208825	-0.110602	15.2562	-0.202092	-142.569	0.000776	NaN
787	1.000000	0.933075	7.37276e+06	-39489.1	1055.82	-29793.6	0.000000	0.000000	6.933129	-0.100706	NaN	0.000000	0.001602	0.001793	28.0822	0.019503	0.002005	9.727697	7.685130	13.3857	-0.082498	0.931690	-0.197498	-0.198883	-0.100706	9.727697	-0.189733	-89.0378	0.001131	NaN
787	1.000000	0.943057	7.37276e+06	-39489.1	1055.82	-29793.6	0.000000	0.000000	6.943111	-0.089755	NaN	0.000000	0.001585	0.001817	28.0824	0.112621	0.002076	54.2588	66.5767	-159.867	-0.014096	0.941734	-0.187517	-0.188840	-0.089755	54.2588	-0.186276	-77.9133	0.001152	NaN
787	1.000000	0.953098	7.37276e+06	-39489.1	1055.82	-29793.6	0.000000	0.000000	6.953154	-0.051912	NaN	0.000000	0.001604	0.001817	28.0823	0.099261	0.002025	49.0205	-81.7839	12.4604	-0.081620	0.951749	-0.177475	-0.178825	-0.051912	49.0205	-0.176681	-53.5564	0.000969	NaN
787	1.000000	0.963084	7.37276e+06	-39489.1	1055.82	-29793.6	0.000000	0.000000	6.963141	-0.042613	NaN	0.000000	0.001598	0.001812	28.0825	0.067836	0.001969	34.458	21.7448	-161.255	-0.079339	0.961764	-0.167489	-0.168809	-0.042613	34.458	-0.166562	-35.7831	0.001191	NaN
787	1.000000	0.973070	7.37276e+06	-39489.1	1055.82	-29793.6	0.000000	0.000000	6.973125	-0.065848	NaN	0.000000	0.001594	0.001811	28.0823	0.055255	0.001922	28.7515	161.691	12.9567	-0.035646	0.971742	-0.157503	-0.158831	-0.065848	28.7515	-0.155786	-23.0519	0.002857	NaN
787	1.000000	0.983055	7.37276e+06	-39489.1	1055.82	-29793.6	0.000000	0.000000	6.983109	-0.091909	NaN	0.000000	0.001665	0.001782	28.0824	0.101223	0.001909	53.0179	-58.8285	-167.887	-0.081020	0.981807	-0.147519	-0.148767	-0.091909	53.0179	-0.146219	-15.4408	0.005952	NaN
787	1.000000	0.993088	7.37276e+06	-39489.1	1055.82	-29793.6	0.000000	0.000000	6.993144	-0.037844	NaN	0.000000	0.001656	0.001752	28.0823	0.128885	0.001961	65.7221	148.301	18.3511	-0.027709	0.991733	-0.137486	-0.138840	-0.037844	65.7221	-0.137054	-10.408	0.003636	NaN
787	1.000000	1.003097	7.37276e+06	-39489.1	1055.82	-29793.6	0.000000	0.000000	7.003152	-0.055284	NaN	0.000000	0.001665	0.001785	28.0822	0.038028	0.002057	18.4875	40.5393	-165.464	-0.109344	1.001755	-0.127477	-0.128818	-0.055284	18.4875	-0.125234	-6.146414	0.008995	NaN
787	1.000000	1.013086	7.37276e+06	-39489.1	1055.82	-29793.6	0.000000	0.000000	7.013142	-0.044552	NaN	0.000000	0.001585	0.001797	28.0822	0.121076	0.002082	58.1617	-100.674	13.5212	0.010850	1.011736	-0.117487	-0.118837	-0.044552	58.1617	-0.116913	-4.181881	0.010654	NaN
787	1.000000	1.023099	7.37276e+06	-39489.1	1055.82	-29793.6	0.000000	0.000000	7.023156	-0.027599	NaN	0.000000	0.001592	0.001770	28.0827	0.068974	0.002038	33.8456	-30.6568	-166.911	-0.072107	1.021770	-0.107474	-0.108803	-0.027599	33.8456	-0.106863	-2.577651	0.010707	NaN
787	1.000000	1.033082	7.37276e+06	-39489.1	1055.82	-29793.6	0.000000	0.000000	7.033139	-0.038242	NaN	0.000000	0.001600	0.001817	28.0836	0.086480	0.001792	48.2543	-18.5952	15.8824	-0.084387	1.031742	-0.097491	-0.098831	-0.038242	48.2543	-0.096897	-1.557425	0.024555	NaN
787	1.000000	1.043104	7.37276e+06	-39489.1	1055.82	-29793.6	0.000000	0.000000	7.043162	0.004379	NaN	0.000000	0.001623	0.001799	28.0836	0.032910	0.002131	15.4401	-12.4208	-164.293	-0.082176	1.041785	-0.087469	-0.088788	0.004379	15.4401	-0.087682	-0.952902	-0.004596	NaN
787	1.000000	1.053099	7.37276e+06	-39489.1	1055.82	-29793.6	0.000000	0.000000	7.053159	0.032187	NaN	0.000000	0.001616	0.001778	28.0838	0.028085	0.002004	14.0128	165.214	14.719	0.024727	1.051665	-0.077474	-0.078908	0.032187	14.0128	-0.079197	-0.590944	-0.054468	NaN
787	1.000000	1.063129	7.37276e+06	-39489.1	1055.82	-29793.6	0.000000	0.000000	7.063182	-0.105818	NaN	0.000000	0.001614	0.001809	28.084	0.053585	0.001917	27.9535	60.8961	-167.342	-0.099214	1.061801	-0.067445	-0.068772	-0.105818	27.9535	-0.064605	-0.243006	0.435453	NaN
787	1.000000	1.073111	7.37276e+06	-39489.1	1055.82	-29793.6	0.000000	0.000000	7.073165	-0.119152	NaN	0.000000	0.001607	0.001797	28.0837	0.051868	0.001932	26.8486	84.5564	14.492	-0.079540	1.071699	-0.057462	-0.058874	-0.119152	26.8486	-0.054133	-0.121386	0.981595	NaN
787	1.000000	1.083122	7.37276e+06	-39489.1	1055.82	-29793.6	0.000000	0.000000	7.083176	-0.112521	NaN	0.000000	0.001610	0.001771	28.0835	0.042894	0.002040	21.0297	-3.255037	-168.205	-0.039795	1.081827	-0.047451	-0.048746	-0.112521	21.0297	-0.043438	-0.057573	1.954420	NaN
787	1.000000	1.093131	7.37276e+06	-39489.1	1055.82	-29793.6	0.000000	0.000000	7.093184	-0.139619	NaN	0.000000	0.001624	0.001797	28.0838	0.025777	0.002010	12.8254	151.696	13.849	-0.049853	1.091745	-0.037442	-0.038829	-0.139619	12.8254	-0.029277	-0.021975	6.353645	NaN
787	1.000000	1.103129	7.37276e+06	-39489.1	1055.82	-29793.6	0.000000	0.000000	7.103182	-0.125142	NaN	0.000000	0.001616	0.001814	28.0836	0.033084	0.001927	17.1673	100.934	-166.095	-0.127109	1.101788	-0.027444	-0.028785	-0.125142	17.1673	-0.021977	-0.014102	8.874080	NaN
787	1.000000	1.113141	7.37276e+06	-39489.1	1055.82	-29793.6	0.000000	0.000000	7.113198	-0.029661	NaN	0.000000	0.001570	0.001817	28.0835	0.085890	0.002024	42.4344	46.3025	12.2001	-0.014102	1.111753	-0.017433	-0.018820	-0.029661	42.4344	-0.016908	-0.010452	2.837857	NaN
787	1.000000	1.123131	7.37276e+06	-39489.1	1055.82	-29793.6	0.000000	0.000000	7.123186	-0.091044	NaN	0.000000	0.001570	0.001810	28.0836	0.086795	0.002022	42.9348	45.4691	-165.99	-0.071075	1.121853	-0.007442	-0.008720	-0.091044	42.9348	-0.005851	-0.003945	23.0769	NaN
787	1.000000	1.133138	7.37276e+06	-39489.1	1055.82	-29793.6	0.000000	0.000000	7.133367	4.141292	NaN	0.000000	0.001574	0.001764	28.084	5.211797	0.001907	2733.24	14.6311	10.4327	2.968128	1.131749	0.002565	0.001175	4.141292	2733.24	0.001429	0.001098	3771.26	75357.4
787	2.000000	1.138739	7.37276e+06	-39489.1	1055.82	-29793.6	0.000000	0.000000	7.139189	9.536535	NaN	0.000000	0.001591	0.001787	28.0835	10.2685	0.001707	6014.34	7.134504	-171.879	9.446603	1.138471	0.008166	0.007897	9.536535	6014.34	0.006977	0.006011	1586.59	70875.8
787	2.000000	1.141213	7.37276e+06	-39489.1	1055.82	-29793.6	0.000000	0.000000	7.141845	13.9585	NaN	0.000000	0.001631	0.001797	28.0837	13.8764	0.001812	7659.85	4.855671	8.930738	13.1199	1.140771	0.010640	0.010197	13.9585	7659.85	0.009273	0.008385	1664.75	76427.4
787	2.000000	1.143687	7.37276e+06	-39489.1	1055.82	-29793.6	0.000000	0.000000	7.144478	17.8382	NaN	0.000000	0.001573	0.001762	28.0826	16.6246	0.001737	9572.68	3.954661	-174.999	16.6689	1.143358	0.013114	0.012784	17.8382	9572.68	0.011716	0.011152	1599.54	82818.5
787	2.000000	1.146192	7.37276e+06	-39489.1	1055.82	-29793.6	0.000000	0.000000	7.147234	23.9458	NaN	0.000000	0.001587	0.001763	28.0825	18.6203	0.001718	10836.1	3.137947	6.293066	22.511	1.145867	0.015618	0.015294	23.9458	10836.1	0.013961	0.013925	1719.65	83897.7
787	2.000000	1.148653	7.37276e+06	-39489.1	1055.82	-29793.6	0.000000	0.000000	7.149982	30.9236	NaN	0.000000	0.001609	0.001757	28.0822	21.5727	0.001712	12600.4	8.330457	179.944	29.6268	1.148299	0.018079	0.017726	30.9236	12600.4	0.016239	0.016973	1821.93	88364.2
787	2.000000	1.151161	7.37276e+06	-39489.1	1055.82	-29793.6	0.000000	0.000000	7.152637	34.5115	NaN	0.000000	0.001591	0.001743	28.0824	24.3119	0.001734	14021.7	6.076553	1.110371	34.4207	1.150846	0.020587	0.020273	34.5115	14021.7	0.018741	0.020603	1675.06	89249.6
787	2.000000	1.153670	7.37276e+06	-39489.1	1055.82	-29793.6	0.000000	0.000000	7.155497	43.0354	NaN	0.000000	0.001581	0.001783	28.0824	27.6532	0.001720	16075.2	4.626773	-178.469	42.4668	1.153347	0.023097	0.022774	43.0354	16075.2	0.021089	0.024283	1772.27	94250.2
787	2.000000	1.156151	7.37276e+06	-39489.1	1055.82	-29793.6	0.000000	0.000000	7.158397	53.2453	NaN	0.000000	0.001566	0.001757	28.0826	29.3914	0.001797	16352.7	3.827151	3.666480	51.5854	1.155781	0.025578	0.025208	53.2453	16352.7	0.023136	0.027712	1921.41	89749.4
787	2.000000	1.158635	7.37276e+06	-39489.1	1055.82	-29793.6	0.000000	0.000000	7.161268	62.666	NaN	0.000000	0.001575	0.001779	28.0823	32.0369	0.001652	19391.6	3.641516	-179.662	62.3691	1.158329	0.028061	0.027756	62.666	19391.6	0.025638	0.032186	1947	98753.8
787	2.000000	1.161083	7.37276e+06	-39489.1	1055.82	-29793.6	0.000000	0.000000	7.164045	70.6686	NaN	0.000000	0.001568	0.001768	28.0825	35.5809	0.001764	20167	1.935445	2.085491	68.0812	1.160798	0.030510	0.030225	70.6686	20167	0.027882	0.036468	1937.85	96485.2
787	2.000000	1.163598	7.37276e+06	-39489.1	1055.82	-29793.6	0.000000	0.000000	7.166982	80.9261	NaN	0.000000	0.001604	0.001748	28.0826	38.7606	0.001805	21470.9	3.771772	-179.953	79.6962	1.163300	0.033025	0.032727	80.9261	21470.9	0.030198	0.041156	1966.34	96696
787	2.000000	1.166119	7.37276e+06	-39489.1	1055.82	-29793.6	0.000000	0.000000	7.169869	89.8332	NaN	0.000000	0.001551	0.001749	28.0824	40.8044	0.001894	21544.7	4.286323	-0.470807	88.1761	1.165809	0.035546	0.035236	89.8332	21544.7	0.032419	0.045906	1956.88	91870.8
787	2.000000	1.168638	7.37276e+06	-39489.1	1055.82	-29793.6	0.000000	0.000000	7.172602	95.0444	NaN	0.000000	0.001586	0.001785	28.0824	42.3265	0.001818	23284.9	5.208732	178.148	94.9794	1.168328	0.038065	0.037755	95.0444	23284.9	0.035004	0.051755	1836.44	93513.4
787	2.000000	1.171063	7.37276e+06	-39489.1	1055.82	-29793.6	0.000000	0.000000	7.175517	106.982	NaN	0.000000	0.001572	0.001785	28.083	45.1506	0.001790	25225.7	2.598595	-0.507677	103.97	1.170674	0.040490	0.040101	106.982	25225.7	0.037309	0.057259	1868.4	96315.4
787	2.000000	1.173514	7.37276e+06	-39489.1	1055.82	-29793.6	0.000000	0.000000	7.178327	115.703	NaN	0.000000	0.001577	0.001766	28.0827	49.0292	0.001863	26323.7	3.037992	178.329	111.725	1.173379	0.042941	0.042806	115.703	26323.7	0.039644	0.063113	1833.28	95732.8
787	2.000000	1.176073	7.37276e+06	-39489.1	1055.82	-29793.6	0.000000	0.000000	7.181500	130.649	NaN	0.000000	0.001563	0.001743	28.0827	50.669	0.001851	27367.4	3.983943	-2.554438	125.162	1.175760	0.045500	0.045186	130.649	27367.4	0.041919	0.069083	1891.19	95131
787	2.000000	1.178516	7.37276e+06	-39489.1	1055.82	-29793.6	0.000000	0.000000	7.184455	143.108	NaN	0.000000	0.001547	0.001785	28.0837	52.8144	0.001866	28299.2	0.644342	-179.275	138.527	1.178312	0.047943	0.047739	143.108	28299.2	0.044150	0.075193	1903.2	94288.4
787	2.000000	1.181077	7.37276e+06	-39489.1	1055.82	-29793.6	0.000000	0.000000	7.187529	155.58	NaN	0.000000	0.001550	0.001769	28.0841	55.3149	0.001910	28962.6	3.519698	-2.733143	152.601	1.180788	0.050504	0.050215	155.58	28962.6	0.046475	0.081831	1901.24	92502.5
787	2.000000	1.183602	7.37276e+06	-39489.1	1055.82	-29793.6	0.000000	0.000000	7.190528	167.124	NaN	0.000000	0.001573	0.001789	28.0839	57.4169	0.001713	33509.6	11.4549	168.962	167.739	1.183243	0.053029	0.052670	167.124	33509.6	0.049288	0.090226	1852.27	101924
787	2.000000	1.186105	7.37276e+06	-39489.1	1055.82	-29793.6	0.000000	0.000000	7.193745	184.497	NaN	0.000000	0.001607	0.001780	28.0839	57.9321	0.001800	32191.4	4.120580	-3.052057	182.765	1.185650	0.055532	0.055077	184.497	32191.4	0.051233	0.096263	1916.6	94794.7
787	2.000000	1.188562	7.37276e+06	-39489.1	1055.82	-29793.6	0.000000	0.000000	7.196704	196.71	NaN	0.000000	0.001604	0.001772	28.0841	60.4864	0.001881	32153.7	6.935229	174.765	195.327	1.188196	0.057989	0.057623	196.71	32153.7	0.053401	0.103214	1905.85	91439.8
787	2.000000	1.191017	7.37276e+06	-39489.1	1055.82	-29793.6	0.000000	0.000000	7.199806	212.455	NaN	0.000000	0.001685	0.001782	28.0837	62.3101	0.001718	36268.5	6.842111	-7.477309	206.866	1.190645	0.060444	0.060071	212.455	36268.5	0.056050	0.112028	1896.44	99001.1
787	2.000000	1.193537	7.37276e+06	-39489.1	1055.82	-29793.6	0.000000	0.000000	7.202711	221.839	NaN	0.000000	0.001650	0.001799	28.0838	65.3534	0.001807	36167.1	3.977983	174.753	219.478	1.193377	0.062964	0.062804	221.839	36167.1	0.058363	0.120005	1848.58	95386.5
787	2.000000	1.196041	7.37276e+06	-39489.1	1055.82	-29793.6	0.000000	0.000000	7.205939	239.443	NaN	0.000000	0.001604	0.001798	28.0838	66.0506	0.001730	38181.1	3.306586	-3.937793	233.804	1.195786	0.065468	0.065213	239.443	38181.1	0.060765	0.128564	1862.44	97288.6
787	2.000000	1.198526	7.37276e+06	-39489.1	1055.82	-29793.6	0.000000	0.000000	7.209113	256.214	NaN	0.000000	0.001602	0.001787	28.0837	68.0245	0.001634	41629.7	6.198536	172.586	254.072	1.198236	0.067953	0.067662	256.214	41629.7	0.063337	0.138046	1856	102368
787	2.000000	1.201049	7.37276e+06	-39489.1	1055.82	-29793.6	0.000000	0.000000	7.212167	269.145	NaN	0.000000	0.001612	0.001787	28.0839	73.1049	0.001786	40940.8	8.343272	-9.747964	266.618	1.200629	0.070475	0.070055	269.145	40940.8	0.065545	0.146439	1837.93	97746.4
787	2.000000	1.203470	7.37276e+06	-39489.1	1055.82	-29793.6	0.000000	0.000000	7.215451	290.133	NaN	0.000000	0.001625	0.001825	28.0836	73.8527	0.001755	42078.8	1.361367	177.91	286.328	1.203177	0.072897	0.072604	290.133	42078.8	0.067726	0.154960	1872.32	97662.2
787	2.000000	1.206096	7.37276e+06	-39489.1	1055.82	-29793.6	0.000000	0.000000	7.218897	310.092	NaN	0.000000	0.001635	0.001769	28.0837	77.1448	0.001848	41752.1	9.917031	-10.3264	308.418	1.205606	0.075523	0.075032	310.092	41752.1	0.069952	0.163895	1892.02	94225.6
787	2.000000	1.208510	7.37276e+06	-39489.1	1055.82	-29793.6	0.000000	0.000000	7.221665	318.697	NaN	0.000000	0.001634	0.001798	28.0835	79.8101	0.001866	42767	4.289399	174.18	317.587	1.208177	0.077937	0.077604	318.697	42767	0.072348	0.173770	1834.01	93733.3
787	2.000000	1.211141	7.37276e+06	-39489.1	1055.82	-29793.6	0.000000	0.000000	7.225043	336.881	NaN	0.000000	0.001602	0.001809	28.0837	82.7221	0.001921	43052	8.157494	-9.656438	339.406	1.210579	0.080568	0.080006	336.881	43052	0.074699	0.183727	1833.59	91765.6
787	2.000000	1.213473	7.37276e+06	-39489.1	1055.82	-29793.6	0.000000	0.000000	7.228167	356.162	NaN	0.000000	0.001612	0.001789	28.0821	82.5558	0.001731	47698.9	0.945238	176.335	350.732	1.213243	0.082899	0.082670	356.162	47698.9	0.077299	0.195041	1826.09	98677.6
787	2.000000	1.216178	7.37276e+06	-39489.1	1055.82	-29793.6	0.000000	0.000000	7.231588	373.599	NaN	0.000000	0.001611	0.001805	28.0822	84.8675	0.001698	49979.3	3.067113	-5.658278	374.297	1.215795	0.085604	0.085222	373.599	49979.3	0.079998	0.207120	1803.78	100335
787	2.000000	1.218452	7.37276e+06	-39489.1	1055.82	-29793.6	0.000000	0.000000	7.234731	394.716	NaN	0.000000	0.001609	0.001854	28.0824	87.3045	0.001747	49987.2	5.018360	172.196	389.531	1.218230	0.087879	0.087657	394.716	49987.2	0.081957	0.216099	1826.55	98243.9
787	2.000000	1.221023	7.37276e+06	-39489.1	1055.82	-29793.6	0.000000	0.000000	7.238380	420.945	NaN	0.000000	0.001623	0.001874	28.0824	89.9731	0.001777	50628.4	5.349667	-8.108598	417.327	1.220710	0.090450	0.090137	420.945	50628.4	0.084214	0.226668	1857.1	97156.7
787	2.000000	1.223504	7.37276e+06	-39489.1	1055.82	-29793.6	0.000000	0.000000	7.241158	428.19	NaN	0.000000	0.001615	0.001880	28.0822	92.4709	0.001653	55927.9	5.024904	170.788	424.849	1.223343	0.092930	0.092769	428.19	55927.9	0.087188	0.240951	1777.08	104097
787	2.000000	1.226078	7.37276e+06	-39489.1	1055.82	-29793.6	0.000000	0.000000	7.244950	457.824	NaN	0.000000	0.001586	0.001881	28.0823	95.2137	0.001878	50705.3	6.751808	-8.843381	457.39	1.225680	0.095505	0.095107	457.824	50705.3	0.088733	0.248529	1842.13	92926.2
787	2.000000	1.228434	7.37276e+06	-39489.1	1055.82	-29793.6	0.000000	0.000000	7.247695	467.289	NaN	0.000000	0.001568	0.001859	28.0823	96.1206	0.001720	55885.6	0.344446	175.959	459.708	1.228224	0.097861	0.097650	467.289	55885.6	0.091590	0.262836	1777.87	99593.3
787	2.000000	1.230976	7.37276e+06	-39489.1	1055.82	-29793.6	0.000000	0.000000	7.251594	500.336	NaN	0.000000	0.001606	0.001862	28.0821	100.514	0.001748	57502.2	6.063396	-9.358580	494.878	1.230675	0.100402	0.100102	500.336	57502.2	0.093876	0.274557	1822.34	100263
787	2.000000	1.233428	7.37276e+06	-39489.1	1055.82	-29793.6	0.000000	0.000000	7.254640	514.775	NaN	0.000000	0.001560	0.001846	28.0822	104.51	0.001947	53675.1	4.356663	172.297	508.452	1.233200	0.102855	0.102627	514.775	53675.1	0.095662	0.283876	1813.38	92041
787	2.000000	1.235383	7.37276e+06	-39489.1	1055.82	-29793.6	0.000000	0.000000	7.257425	534.969	NaN	0.000000	0.001548	0.001836	28.0825	104.029	0.001695	61356.7	2.830320	172.918	525.379	1.235137	0.104809	0.104564	534.969	61356.7	0.098270	0.297748	1796.72	102733