File: remote_trans/data/nanoindenter/0828-1/data/Data_2025-08-06,11h17m57s/2025-07-22_16-23-58_1_380.txt
2025-07-22, 16:23:58, 1
Index	Phase	Displacement	Time	Pos X	Pos Y	Pos Z	Rot A	Rot B	Piezo Z	Force A	Force B	Gripper	Voltage A	Voltage B	Temperature	Amplitude force	Amplitude pos	Stiffness	Phase shift	Phase excitation	Force A raw	Displacement raw	HMax	HMax raw	Real Force	Real Stiffness	Contact Depth	Area	Hardness	Reduced Mod.
[#]	[#]	[um]	[s]	[um]	[um]	[um]	[m°]	[m°]	[um]	[uN]	[uN]	[V]	[V]	[V]	[°C]	[uN]	[um]	[N/m]	[°]	[°]	[uN]	[um]	[um]	[um]	[uN]	[N/m]	[um]	[um^2]	[MPa]	[MPa]
380	1.000000	0.002598	7.36878e+06	-57639.1	955.818	-29736.9	0.000000	0.000000	6.002788	-0.051482	NaN	0.000000	0.001597	0.001705	28.0815	0.003480	0.000834	4.173829	-54.8235	-164.467	-0.055867	0.001376	-1.081084	-1.082306	-0.051482	4.173829	-1.071833	-2.098042E+14	2.453796E-16	NaN
380	1.000000	0.012632	7.36878e+06	-57639.1	955.819	-29736.9	0.000000	0.000000	6.012820	-0.094034	NaN	0.000000	0.001674	0.001689	28.0815	0.129233	0.001248	103.517	-128.482	16.7151	-0.113837	0.011224	-1.071050	-1.072458	-0.094034	103.517	-1.070369	-2.005159E+14	4.689578E-16	NaN
380	1.000000	0.022575	7.36878e+06	-57639.1	955.818	-29736.9	0.000000	0.000000	6.022768	0.032159	NaN	0.000000	0.001675	0.001709	28.0817	0.059164	0.001749	33.8183	88.8938	-164.533	-4.645161E-6	0.021303	-1.061108	-1.062379	0.032159	33.8183	-1.061821	-1.539179E+14	-2.089341E-16	NaN
380	1.000000	0.032553	7.36878e+06	-57639.1	955.819	-29736.9	0.000000	0.000000	6.032743	-0.047208	NaN	0.000000	0.001705	0.001674	28.0814	0.071076	0.002034	34.9478	-23.817	13.2735	0.031064	0.031167	-1.051130	-1.052515	-0.047208	34.9478	-1.050117	-1.071471E+14	4.405934E-16	NaN
380	1.000000	0.042558	7.36878e+06	-57639.1	955.818	-29736.9	0.000000	0.000000	6.042749	-0.012865	NaN	0.000000	0.001693	0.001691	28.0815	0.082382	0.001981	41.5847	163.886	-163.02	-0.030738	0.041223	-1.041124	-1.042460	-0.012865	41.5847	-1.040892	-8.053161E+13	1.597539E-16	NaN
380	1.000000	0.052584	7.36878e+06	-57639.1	955.82	-29736.9	0.000000	0.000000	6.052776	0.005038	NaN	0.000000	0.001666	0.001696	28.0815	0.088531	0.002025	43.7085	-28.2729	13.4315	-0.023108	0.051238	-1.031098	-1.032445	0.005038	43.7085	-1.031185	-5.962319E+13	-8.449827E-17	NaN
380	1.000000	0.062574	7.36878e+06	-57639.1	955.819	-29736.9	0.000000	0.000000	6.062765	-0.038031	NaN	0.000000	0.001693	0.001721	28.0814	0.090389	0.001964	46.0123	122.316	-161.852	0.011031	0.061251	-1.021108	-1.022432	-0.038031	46.0123	-1.020488	-4.280727E+13	8.884230E-16	NaN
380	1.000000	0.072579	7.36878e+06	-57639.1	955.818	-29736.9	0.000000	0.000000	6.072770	-0.037957	NaN	0.000000	0.001668	0.001721	28.0814	0.011350	0.002043	5.556731	-103.975	16.1621	-0.060848	0.071233	-1.011103	-1.012449	-0.037957	5.556731	-1.005980	-2.730670E+13	1.390034E-15	NaN
380	1.000000	0.082576	7.36878e+06	-57639.1	955.819	-29736.9	0.000000	0.000000	6.082769	0.032019	NaN	0.000000	0.001640	0.001669	28.0814	0.058135	0.001950	29.8119	-161.357	-164.008	-0.029730	0.081208	-1.001107	-1.002474	0.032019	29.8119	-1.001912	-2.407200E+13	-1.330120E-15	NaN
380	1.000000	0.092568	7.36878e+06	-57639.1	955.818	-29736.9	0.000000	0.000000	6.092760	0.004257	NaN	0.000000	0.001649	0.001656	28.0813	0.057425	0.002034	28.2335	73.61	18.5291	-0.043647	0.091240	-0.991114	-0.992442	0.004257	28.2335	-0.991228	-1.728398E+13	-2.463097E-16	NaN
380	1.000000	0.102586	7.36878e+06	-57639.1	955.818	-29736.9	0.000000	0.000000	6.102779	0.023402	NaN	0.000000	0.001675	0.001711	28.0812	0.077723	0.001903	40.8376	-90.8797	-167.553	0.025714	0.101276	-0.981096	-0.982406	0.023402	40.8376	-0.981526	-1.279297E+13	-1.829271E-15	NaN
380	1.000000	0.112573	7.36878e+06	-57639.1	955.818	-29736.9	0.000000	0.000000	6.112766	0.016255	NaN	0.000000	0.001643	0.001676	28.0814	0.135674	0.001976	68.6729	-162.403	16.6659	0.053633	0.111214	-0.971109	-0.972468	0.016255	68.6729	-0.971286	-9.311064E+12	-1.745748E-15	NaN
380	1.000000	0.122601	7.36878e+06	-57639.1	955.818	-29736.9	0.000000	0.000000	6.122796	0.073735	NaN	0.000000	0.001607	0.001685	28.0815	0.065686	0.002131	30.8196	-149.651	-162.154	0.047690	0.121274	-0.961081	-0.962408	0.073735	30.8196	-0.962876	-7.171975E+12	-1.028104E-14	NaN
380	1.000000	0.132567	7.36878e+06	-57639.1	955.818	-29736.9	0.000000	0.000000	6.132756	-0.071155	NaN	0.000000	0.001629	0.001687	28.0813	0.030765	0.002028	15.1719	-43.9622	14.0607	-0.017047	0.131247	-0.951115	-0.952435	-0.071155	15.1719	-0.947598	-4.463025E+12	1.594329E-14	NaN
380	1.000000	0.142580	7.36878e+06	-57639.1	955.818	-29736.9	0.000000	0.000000	6.142772	0.004370	NaN	0.000000	0.001578	0.001660	28.0801	0.095562	0.002107	45.3584	125.442	-165.41	0.022345	0.141329	-0.941102	-0.942353	0.004370	45.3584	-0.941175	-3.655809E+12	-1.195451E-15	NaN
380	1.000000	0.152591	7.36878e+06	-57639.1	955.819	-29736.9	0.000000	0.000000	6.152779	-0.076864	NaN	0.000000	0.001596	0.001648	28.0805	0.057155	0.001969	29.0211	143.615	13.3352	-0.009550	0.151264	-0.931092	-0.932419	-0.076864	29.0211	-0.929105	-2.512578E+12	3.059171E-14	NaN
380	1.000000	0.162609	7.36878e+06	-57639.1	955.818	-29736.9	0.000000	0.000000	6.162801	0.003944	NaN	0.000000	0.001564	0.001677	28.0802	0.061442	0.001894	32.4458	174.093	-163.837	0.054950	0.161295	-0.921073	-0.922387	0.003944	32.4458	-0.921164	-1.963036E+12	-2.009272E-15	NaN
380	1.000000	0.172607	7.36878e+06	-57639.1	955.819	-29736.9	0.000000	0.000000	6.172799	-0.004763	NaN	0.000000	0.001598	0.001689	28.0804	0.014870	0.002018	7.368169	-156.142	14.0149	-0.083274	0.171261	-0.911075	-0.912421	-0.004763	7.368169	-0.910590	-1.412986E+12	3.370587E-15	NaN
380	1.000000	0.182618	7.36878e+06	-57639.1	955.819	-29736.9	0.000000	0.000000	6.182809	-0.018326	NaN	0.000000	0.001600	0.001669	28.0803	0.048917	0.001963	24.9255	155.081	-161.359	-0.040448	0.181219	-0.901064	-0.902463	-0.018326	24.9255	-0.900513	-1.032754E+12	1.774516E-14	NaN
380	1.000000	0.192603	7.36878e+06	-57639.1	955.819	-29736.9	0.000000	0.000000	6.192793	-0.044985	NaN	0.000000	0.001609	0.001678	28.0806	0.030685	0.002085	14.7161	157.579	16.7852	-0.009524	0.191219	-0.891079	-0.892463	-0.044985	14.7161	-0.888787	-7.169884E+11	6.274108E-14	NaN
380	1.000000	0.202647	7.36878e+06	-57639.1	955.818	-29736.9	0.000000	0.000000	6.202839	0.010130	NaN	0.000000	0.001595	0.001688	28.0804	0.029142	0.001985	14.682	74.254	-168.404	-0.077098	0.201337	-0.881035	-0.882346	0.010130	14.682	-0.881553	-5.724074E+11	-1.769714E-14	NaN
380	1.000000	0.212591	7.36878e+06	-57639.1	955.819	-29736.9	0.000000	0.000000	6.212784	0.037346	NaN	0.000000	0.001596	0.001683	28.0813	0.085451	0.002003	42.6607	1.661635	14.2839	0.026033	0.211263	-0.871092	-0.872419	0.037346	42.6607	-0.871748	-4.217888E+11	-8.854184E-14	NaN
380	1.000000	0.222643	7.36878e+06	-57639.1	955.818	-29736.9	0.000000	0.000000	6.222835	-0.016155	NaN	0.000000	0.001620	0.001643	28.0801	0.045064	0.002043	22.06	-125.011	-164.297	-0.029196	0.221282	-0.861039	-0.862400	-0.016155	22.06	-0.860490	-2.969948E+11	5.439333E-14	NaN
380	1.000000	0.232616	7.36878e+06	-57639.1	955.819	-29736.9	0.000000	0.000000	6.232808	-0.022168	NaN	0.000000	0.001577	0.001649	28.0805	0.152098	0.001956	77.7498	-22.5057	16.9642	-0.033358	0.231274	-0.851066	-0.852408	-0.022168	77.7498	-0.850852	-2.199242E+11	1.007991E-13	NaN
380	1.000000	0.242647	7.36878e+06	-57639.1	955.817	-29736.9	0.000000	0.000000	6.242840	0.022832	NaN	0.000000	0.001566	0.001644	28.08	0.036386	0.002056	17.6975	104.583	-161.046	0.028099	0.241347	-0.841035	-0.842335	0.022832	17.6975	-0.842003	-1.668874E+11	-1.368085E-13	NaN
380	1.000000	0.252648	7.36878e+06	-57639.1	955.819	-29736.9	0.000000	0.000000	6.252840	-0.005292	NaN	0.000000	0.001623	0.001658	28.0802	0.035539	0.002047	17.3634	-102.335	15.7977	-0.016272	0.251296	-0.831034	-0.832386	-0.005292	17.3634	-0.830805	-1.176791E+11	4.496950E-14	NaN
380	1.000000	0.262673	7.36878e+06	-57639.1	955.817	-29736.9	0.000000	0.000000	6.262865	0.001473	NaN	0.000000	0.001690	0.001641	28.0801	0.047501	0.001965	24.1678	35.7853	-163.691	0.000182	0.261286	-0.821010	-0.822396	0.001473	24.1678	-0.821055	-8.680052E+10	-1.697464E-14	NaN
380	1.000000	0.272671	7.36878e+06	-57639.1	955.818	-29736.9	0.000000	0.000000	6.272862	-0.009237	NaN	0.000000	0.001696	0.001656	28.0816	0.076228	0.002022	37.7025	158.564	14.7192	0.027989	0.271261	-0.811011	-0.812421	-0.009237	37.7025	-0.810828	-6.306658E+10	1.464667E-13	NaN
380	1.000000	0.282636	7.36878e+06	-57639.1	955.819	-29736.9	0.000000	0.000000	6.282829	0.015817	NaN	0.000000	0.001648	0.001676	28.081	0.043560	0.002023	21.529	156.963	-163.515	-0.007727	0.281314	-0.801046	-0.802368	0.015817	21.529	-0.801597	-4.726478E+10	-3.346438E-13	NaN
380	1.000000	0.292659	7.36878e+06	-57639.1	955.818	-29736.9	0.000000	0.000000	6.292851	0.006084	NaN	0.000000	0.001689	0.001669	28.0813	0.115987	0.002040	56.8454	-139.434	15.7412	0.023658	0.291323	-0.791023	-0.792359	0.006084	56.8454	-0.791103	-3.404608E+10	-1.786887E-13	NaN
380	1.000000	0.302651	7.36878e+06	-57639.1	955.819	-29736.9	0.000000	0.000000	6.302843	0.002462	NaN	0.000000	0.001631	0.001655	28.0812	0.051445	0.001905	27.0005	-99.3145	-165.77	-0.030607	0.301378	-0.781031	-0.782304	0.002462	27.0005	-0.781100	-2.489848E+10	-9.886542E-14	NaN
380	1.000000	0.312652	7.36878e+06	-57639.1	955.818	-29736.9	0.000000	0.000000	6.312843	-0.029547	NaN	0.000000	0.001677	0.001670	28.0811	0.078841	0.002014	39.1537	-59.3427	14.4614	-0.050477	0.311249	-0.771030	-0.772433	-0.029547	39.1537	-0.770464	-1.784905E+10	1.655400E-12	NaN
380	1.000000	0.322725	7.36878e+06	-57639.1	955.819	-29736.9	0.000000	0.000000	6.322919	0.053473	NaN	0.000000	0.001658	0.001684	28.0811	0.137486	0.002080	66.0909	-147.686	-164.842	0.072889	0.321398	-0.760957	-0.762284	0.053473	66.0909	-0.761564	-1.350761E+10	-3.958705E-12	NaN
380	1.000000	0.332669	7.36878e+06	-57639.1	955.817	-29736.9	0.000000	0.000000	6.332861	0.000290	NaN	0.000000	0.001680	0.001648	28.0812	0.095719	0.001995	47.9761	28.2183	18.4914	0.039990	0.331296	-0.751013	-0.752386	0.000290	47.9761	-0.751017	-9.706599E+9	-2.988208E-14	NaN
380	1.000000	0.342683	7.36878e+06	-57639.1	955.818	-29736.9	0.000000	0.000000	6.342876	0.021092	NaN	0.000000	0.001719	0.001673	28.0813	0.039841	0.002006	19.8612	-167.554	-161.725	0.021496	0.341384	-0.740999	-0.742298	0.021092	19.8612	-0.741796	-7.269651E+9	-2.901424E-12	NaN
380	1.000000	0.352678	7.36878e+06	-57639.1	955.819	-29736.9	0.000000	0.000000	6.352867	-0.068415	NaN	0.000000	0.001703	0.001663	28.081	0.109806	0.001935	56.7538	152.693	15.7918	-0.044680	0.351295	-0.731005	-0.732387	-0.068415	56.7538	-0.730100	-5.037055E+9	1.358229E-11	NaN
380	1.000000	0.362700	7.36878e+06	-57639.1	955.818	-29736.9	0.000000	0.000000	6.362893	0.006689	NaN	0.000000	0.001697	0.001660	28.0812	0.084740	0.001972	42.9817	154.331	-165.887	-0.011556	0.361411	-0.720982	-0.722271	0.006689	42.9817	-0.721099	-3.797124E+9	-1.761609E-12	NaN
380	1.000000	0.372713	7.36878e+06	-57639.1	955.818	-29736.9	0.000000	0.000000	6.372903	-0.051234	NaN	0.000000	0.001708	0.001681	28.0811	0.087577	0.001994	43.9102	12.3762	13.5463	-0.052031	0.371326	-0.710969	-0.712356	-0.051234	43.9102	-0.710094	-2.687384E+9	1.906468E-11	NaN
380	1.000000	0.382696	7.36878e+06	-57639.1	955.818	-29736.9	0.000000	0.000000	6.382886	-0.045757	NaN	0.000000	0.001723	0.001665	28.0814	0.054011	0.002028	26.6351	168.037	-162.967	-0.078110	0.381397	-0.700986	-0.702285	-0.045757	26.6351	-0.699698	-1.938238E+9	2.360736E-11	NaN
380	1.000000	0.392695	7.36878e+06	-57639.1	955.818	-29736.9	0.000000	0.000000	6.392888	0.039032	NaN	0.000000	0.001672	0.001689	28.0814	0.007004	0.002005	3.493352	-120.798	11.9618	0.065157	0.391338	-0.690988	-0.692345	0.039032	3.493352	-0.699367	-1.918196E+9	-2.034816E-11	NaN
380	1.000000	0.402670	7.36878e+06	-57639.1	955.818	-29736.9	0.000000	0.000000	6.402864	0.048374	NaN	0.000000	0.001628	0.001687	28.0814	0.116706	0.002133	54.7047	-77.253	-167.143	0.041468	0.401424	-0.681012	-0.682258	0.048374	54.7047	-0.681675	-1.099292E+9	-4.400467E-11	NaN
380	1.000000	0.412726	7.36878e+06	-57639.1	955.819	-29736.9	0.000000	0.000000	6.412917	-0.025499	NaN	0.000000	0.001659	0.001664	28.0802	0.113597	0.002157	52.6564	-96.2798	15.517	-0.024774	0.411320	-0.670956	-0.672362	-0.025499	52.6564	-0.670593	-7.753669E+8	3.288614E-11	NaN
380	1.000000	0.422701	7.36878e+06	-57639.1	955.818	-29736.9	0.000000	0.000000	6.422893	0.013306	NaN	0.000000	0.001633	0.001697	28.08	0.133222	0.002119	62.8754	170.592	-165.413	-0.041210	0.421437	-0.660981	-0.662246	0.013306	62.8754	-0.661140	-5.755503E+8	-2.311805E-11	NaN
380	1.000000	0.432738	7.36878e+06	-57639.1	955.819	-29736.9	0.000000	0.000000	6.432926	-0.108405	NaN	0.000000	0.001668	0.001662	28.0799	0.020396	0.001910	10.6799	114.129	15.787	-0.046870	0.431333	-0.650944	-0.652349	-0.108405	10.6799	-0.643331	-3.280876E+8	3.304135E-10	NaN
380	1.000000	0.442740	7.36878e+06	-57639.1	955.818	-29736.9	0.000000	0.000000	6.442932	-0.007043	NaN	0.000000	0.001644	0.001681	28.0801	0.054617	0.002036	26.8253	-141.23	-167.921	0.005793	0.441416	-0.640942	-0.642266	-0.007043	26.8253	-0.640745	-3.023489E+8	2.329419E-11	NaN
380	1.000000	0.452690	7.36878e+06	-57639.1	955.818	-29736.9	0.000000	0.000000	6.452881	-0.009461	NaN	0.000000	0.001641	0.001635	28.0801	0.084466	0.002068	40.8469	71.4713	15.2021	-0.026935	0.451312	-0.630993	-0.632371	-0.009461	40.8469	-0.630819	-2.209377E+8	4.282128E-11	NaN
380	1.000000	0.462734	7.36878e+06	-57639.1	955.819	-29736.9	0.000000	0.000000	6.462925	-0.026803	NaN	0.000000	0.001654	0.001677	28.08	0.038653	0.001992	19.4087	17.0567	-164.137	-0.021837	0.461421	-0.620948	-0.622261	-0.026803	19.4087	-0.619913	-1.564706E+8	1.712976E-10	NaN
380	1.000000	0.472756	7.36878e+06	-57639.1	955.818	-29736.9	0.000000	0.000000	6.472947	-0.022936	NaN	0.000000	0.001668	0.001672	28.0797	0.131947	0.001971	66.9589	153.112	14.7614	-4.561256E-5	0.471350	-0.610926	-0.612332	-0.022936	66.9589	-0.610669	-1.167677E+8	1.964233E-10	NaN
380	1.000000	0.482726	7.36878e+06	-57639.1	955.818	-29736.9	0.000000	0.000000	6.482918	0.001494	NaN	0.000000	0.001598	0.001664	28.08	0.096835	0.001975	49.0341	-51.3043	-165.42	0.025342	0.481414	-0.600956	-0.602268	0.001494	49.0341	-0.600979	-8.588995E+7	-1.739954E-11	NaN
380	1.000000	0.492752	7.36878e+06	-57639.1	955.818	-29736.9	0.000000	0.000000	6.492942	-0.045839	NaN	0.000000	0.001574	0.001654	28.0802	0.085959	0.002192	39.2064	120.347	16.6948	-0.097283	0.491376	-0.590931	-0.592306	-0.045839	39.2064	-0.590054	-6.073073E+7	7.547859E-10	NaN
380	1.000000	0.502738	7.36878e+06	-57639.1	955.818	-29736.9	0.000000	0.000000	6.502929	-0.017752	NaN	0.000000	0.001616	0.001672	28.0798	0.030678	0.001975	15.5359	174.733	-165.15	-0.055589	0.501437	-0.580944	-0.582245	-0.017752	15.5359	-0.580087	-4.425155E+7	4.011619E-10	NaN
380	1.000000	0.512744	7.36878e+06	-57639.1	955.818	-29736.9	0.000000	0.000000	6.512935	-0.028402	NaN	0.000000	0.001614	0.001699	28.0799	0.115385	0.002083	55.3828	19.3741	12.3474	-0.103854	0.511408	-0.570938	-0.572275	-0.028402	55.3828	-0.570554	-3.268000E+7	8.691020E-10	NaN
380	1.000000	0.522785	7.36878e+06	-57639.1	955.819	-29736.9	0.000000	0.000000	6.522975	-0.054449	NaN	0.000000	0.001614	0.001631	28.0801	0.086668	0.002001	43.3195	45.4221	-166.47	-0.100650	0.521437	-0.560897	-0.562245	-0.054449	43.3195	-0.559954	-2.332080E+7	2.334764E-9	NaN
380	1.000000	0.532757	7.36878e+06	-57639.1	955.818	-29736.9	0.000000	0.000000	6.532950	0.015309	NaN	0.000000	0.001629	0.001646	28.0801	0.072793	0.001990	36.5727	76.4249	13.9774	0.063703	0.531396	-0.550925	-0.552286	0.015309	36.5727	-0.551239	-1.766515E+7	-8.666053E-10	NaN
380	1.000000	0.542754	7.36878e+06	-57639.1	955.819	-29736.9	0.000000	0.000000	6.542945	-0.020090	NaN	0.000000	0.001615	0.001666	28.0803	0.112015	0.002006	55.8368	-130.746	-165.091	0.015169	0.541483	-0.540928	-0.542199	-0.020090	55.8368	-0.540658	-1.260343E+7	1.593987E-9	NaN
380	1.000000	0.552748	7.36878e+06	-57639.1	955.818	-29736.9	0.000000	0.000000	6.552940	0.001970	NaN	0.000000	0.001592	0.001645	28.0811	0.052414	0.001966	26.6566	179.116	19.2626	0.047703	0.551397	-0.530934	-0.532285	0.001970	26.6566	-0.530990	-9.25372e+06	-2.128717E-10	NaN
380	1.000000	0.562736	7.36878e+06	-57639.1	955.818	-29736.9	0.000000	0.000000	6.562928	-0.013999	NaN	0.000000	0.001626	0.001672	28.0813	0.049731	0.001889	26.3277	87.1486	-167.787	0.030618	0.561504	-0.520946	-0.522179	-0.013999	26.3277	-0.520547	-6.62534e+06	2.112886E-9	NaN
380	1.000000	0.572788	7.36878e+06	-57639.1	955.819	-29736.9	0.000000	0.000000	6.572977	-0.070199	NaN	0.000000	0.001614	0.001646	28.0812	0.065512	0.002059	31.822	-10.1949	14.8695	-0.039461	0.571452	-0.510894	-0.512230	-0.070199	31.822	-0.509240	-4.61132e+06	1.522319E-8	NaN
380	1.000000	0.582770	7.36878e+06	-57639.1	955.818	-29736.9	0.000000	0.000000	6.582961	-0.016115	NaN	0.000000	0.001617	0.001592	28.0812	0.069686	0.002101	33.1718	-92.7831	-166.425	-0.017391	0.581503	-0.500912	-0.502179	-0.016115	33.1718	-0.500548	-3.48871e+06	4.619248E-9	NaN
380	1.000000	0.592805	7.36878e+06	-57639.1	955.818	-29736.9	0.000000	0.000000	6.592995	-0.054219	NaN	0.000000	0.001653	0.001636	28.0812	0.117597	0.001937	60.7186	-151.655	13.4086	-0.100606	0.591408	-0.490877	-0.492275	-0.054219	60.7186	-0.490207	-2.502e+06	2.167039E-8	NaN
380	1.000000	0.602820	7.36878e+06	-57639.1	955.818	-29736.9	0.000000	0.000000	6.603009	-0.081489	NaN	0.000000	0.001663	0.001654	28.0814	0.067814	0.002040	33.2453	116.127	-162.252	-0.047664	0.601462	-0.480862	-0.482220	-0.081489	33.2453	-0.479024	-1.74526e+06	4.669163E-8	NaN
380	1.000000	0.612777	7.36878e+06	-57639.1	955.818	-29736.9	0.000000	0.000000	6.612969	-0.014129	NaN	0.000000	0.001718	0.001631	28.0812	0.053178	0.002056	25.8686	61.014	14.2909	-0.061665	0.611445	-0.470905	-0.472237	-0.014129	25.8686	-0.470495	-1.32542e+06	1.066003E-8	NaN
380	1.000000	0.622791	7.36878e+06	-57639.1	955.818	-29736.9	0.000000	0.000000	6.622980	-0.079381	NaN	0.000000	0.001732	0.001588	28.0814	0.154840	0.001968	78.6875	-100.12	-166.801	-0.020536	0.621437	-0.460891	-0.462245	-0.079381	78.6875	-0.460135	-948227	8.371477E-8	NaN
380	1.000000	0.632802	7.36878e+06	-57639.1	955.818	-29736.9	0.000000	0.000000	6.632993	-0.016316	NaN	0.000000	0.001724	0.001605	28.0813	0.109584	0.001981	55.3248	-50.1275	17.8202	-0.055343	0.631431	-0.450880	-0.452251	-0.016316	55.3248	-0.450659	-697630	2.338781E-8	NaN
380	1.000000	0.642796	7.36878e+06	-57639.1	955.818	-29736.9	0.000000	0.000000	6.642987	-0.023224	NaN	0.000000	0.001724	0.001620	28.0814	0.033112	0.001985	16.6803	-93.8426	-161.604	-0.085284	0.641474	-0.440886	-0.442208	-0.023224	16.6803	-0.439842	-491052	4.729453E-8	NaN
380	1.000000	0.652803	7.36878e+06	-57639.1	955.819	-29736.9	0.000000	0.000000	6.652991	-0.082551	NaN	0.000000	0.001706	0.001635	28.0813	0.064281	0.001894	33.9327	93.5634	15.9241	-0.073064	0.651493	-0.430879	-0.432189	-0.082551	33.9327	-0.429055	-345691	2.387993E-7	NaN
380	1.000000	0.662809	7.36878e+06	-57639.1	955.818	-29736.9	0.000000	0.000000	6.662998	-0.090970	NaN	0.000000	0.001725	0.001640	28.0815	0.100256	0.001952	51.349	165.146	-166.759	-0.163012	0.661545	-0.420873	-0.422138	-0.090970	51.349	-0.419544	-253483	3.588793E-7	NaN
380	1.000000	0.672832	7.36878e+06	-57639.1	955.818	-29736.9	0.000000	0.000000	6.673023	-0.025805	NaN	0.000000	0.001711	0.001626	28.0813	0.058076	0.001871	31.0387	105.408	14.5457	-0.052346	0.671432	-0.410851	-0.412250	-0.025805	31.0387	-0.410227	-186909	1.380631E-7	NaN
380	1.000000	0.682841	7.36878e+06	-57639.1	955.819	-29736.9	0.000000	0.000000	6.683029	-0.083566	NaN	0.000000	0.001716	0.001655	28.0801	0.068645	0.002023	33.9388	117.013	-164.562	-0.043117	0.681496	-0.400842	-0.402186	-0.083566	33.9388	-0.398995	-129318	6.462036E-7	NaN
380	1.000000	0.692800	7.36878e+06	-57639.1	955.818	-29736.9	0.000000	0.000000	6.692987	-0.117676	NaN	0.000000	0.001752	0.001660	28.0801	0.055577	0.002133	26.0584	-45.8674	13.7262	-0.176986	0.691482	-0.390882	-0.392200	-0.117676	26.0584	-0.387495	-88577.5	1.328507E-6	NaN
380	1.000000	0.702818	7.36878e+06	-57639.1	955.819	-29736.9	0.000000	0.000000	6.703008	-0.042494	NaN	0.000000	0.001661	0.001654	28.0802	0.083436	0.001862	44.821	40.5785	-163.559	-0.048616	0.701549	-0.380864	-0.382133	-0.042494	44.821	-0.380153	-69516	6.112838E-7	NaN
380	1.000000	0.712857	7.36878e+06	-57639.1	955.819	-29736.9	0.000000	0.000000	6.713046	-0.071238	NaN	0.000000	0.001684	0.001656	28.0803	0.033796	0.002043	16.5398	-48.947	18.1226	-0.131914	0.711525	-0.370825	-0.372157	-0.071238	16.5398	-0.367595	-45864.1	1.553247E-6	NaN
380	1.000000	0.722868	7.36878e+06	-57639.1	955.819	-29736.9	0.000000	0.000000	6.723056	-0.102295	NaN	0.000000	0.001672	0.001665	28.0802	0.087371	0.002002	43.6414	17.7239	-166.469	-0.094792	0.721523	-0.360814	-0.362159	-0.102295	43.6414	-0.359056	-34530.4	2.962452E-6	NaN
380	1.000000	0.732841	7.36878e+06	-57639.1	955.819	-29736.9	0.000000	0.000000	6.733032	-0.023213	NaN	0.000000	0.001627	0.001639	28.0804	0.067055	0.001908	35.1532	171.137	16.5824	-0.023521	0.731522	-0.350841	-0.352161	-0.023213	35.1532	-0.350346	-25823.9	8.988839E-7	NaN
380	1.000000	0.742853	7.36878e+06	-57639.1	955.819	-29736.9	0.000000	0.000000	6.743044	-0.025274	NaN	0.000000	0.001680	0.001640	28.0802	0.057515	0.001982	29.0131	146.966	-163.995	-0.078358	0.741584	-0.340829	-0.342099	-0.025274	29.0131	-0.340176	-18370.4	1.375774E-6	NaN
380	1.000000	0.752831	7.36878e+06	-57639.1	955.819	-29736.9	0.000000	0.000000	6.753024	0.012119	NaN	0.000000	0.001688	0.001646	28.0805	0.078679	0.001956	40.2292	129.169	16.4429	0.003329	0.751493	-0.330851	-0.332190	0.012119	40.2292	-0.331077	-13527.4	-8.958803E-7	NaN
380	1.000000	0.762840	7.36878e+06	-57639.1	955.818	-29736.9	0.000000	0.000000	6.763031	-0.031637	NaN	0.000000	0.001675	0.001624	28.0801	0.013985	0.001879	7.441501	-171.559	-165.026	0.000400	0.761556	-0.320842	-0.322127	-0.031637	7.441501	-0.317653	-8591.64	3.682335E-6	NaN
380	1.000000	0.772869	7.36878e+06	-57639.1	955.818	-29736.9	0.000000	0.000000	6.773057	-0.084127	NaN	0.000000	0.001679	0.001602	28.0803	0.033690	0.002102	16.0264	-33.8416	14.4679	-0.072670	0.771537	-0.310813	-0.312145	-0.084127	16.0264	-0.306877	-5953.75	1.413002E-5	NaN
380	1.000000	0.782864	7.36878e+06	-57639.1	955.818	-29736.9	0.000000	0.000000	6.783053	-0.077560	NaN	0.000000	0.001651	0.001646	28.0802	0.112371	0.001994	56.3432	98.8397	-168.014	-0.041858	0.781610	-0.300818	-0.302072	-0.077560	56.3432	-0.299785	-4671.34	1.660327E-5	NaN
380	1.000000	0.792879	7.36878e+06	-57639.1	955.818	-29736.9	0.000000	0.000000	6.793070	-0.027271	NaN	0.000000	0.001664	0.001611	28.0802	0.096976	0.002088	46.4394	-31.6933	16.1849	-0.011279	0.791504	-0.290803	-0.292178	-0.027271	46.4394	-0.290363	-3378.57	8.071813E-6	NaN
380	1.000000	0.802891	7.36878e+06	-57639.1	955.818	-29736.9	0.000000	0.000000	6.803078	-0.133809	NaN	0.000000	0.001679	0.001629	28.0801	0.149251	0.002090	71.4218	-101.122	-165.638	-0.206212	0.801548	-0.280791	-0.282135	-0.133809	71.4218	-0.279386	-2310.46	5.791442E-5	NaN
380	1.000000	0.812895	7.36878e+06	-57639.1	955.819	-29736.9	0.000000	0.000000	6.813088	0.001846	NaN	0.000000	0.001647	0.001626	28.0802	0.075905	0.001951	38.896	-63.3354	17.222	0.019107	0.811512	-0.270787	-0.272171	0.001846	38.896	-0.270822	-1714.12	-1.076824E-6	NaN
380	1.000000	0.822866	7.36878e+06	-57639.1	955.818	-29736.9	0.000000	0.000000	6.823055	-0.070084	NaN	0.000000	0.001623	0.001633	28.0815	0.121767	0.002033	59.8831	-152.276	-164.349	-0.078446	0.821554	-0.260817	-0.262128	-0.070084	59.8831	-0.259939	-1169.45	5.992882E-5	NaN
380	1.000000	0.832880	7.36878e+06	-57639.1	955.818	-29736.9	0.000000	0.000000	6.833069	-0.073602	NaN	0.000000	0.001668	0.001644	28.0813	0.132097	0.001967	67.1696	51.7474	15.8887	0.008882	0.831496	-0.250802	-0.252186	-0.073602	67.1696	-0.249980	-821.602	8.958342E-5	NaN
380	1.000000	0.842862	7.36878e+06	-57639.1	955.819	-29736.9	0.000000	0.000000	6.843054	-0.003059	NaN	0.000000	0.001621	0.001634	28.0815	0.090899	0.001837	49.4847	143.003	-166.126	-0.080428	0.841575	-0.240820	-0.242107	-0.003059	49.4847	-0.240773	-591.055	5.175814E-6	NaN
380	1.000000	0.852904	7.36878e+06	-57639.1	955.819	-29736.9	0.000000	0.000000	6.853095	-0.025148	NaN	0.000000	0.001611	0.001626	28.0813	0.023176	0.002042	11.3499	114.67	18.2662	-0.066965	0.851536	-0.230778	-0.232146	-0.025148	11.3499	-0.229116	-387.753	6.485671E-5	NaN
380	1.000000	0.862888	7.36878e+06	-57639.1	955.818	-29736.9	0.000000	0.000000	6.863079	-0.032003	NaN	0.000000	0.001637	0.001592	28.0816	0.033082	0.001901	17.3989	158.965	-164.338	-0.101361	0.861643	-0.220794	-0.222040	-0.032003	17.3989	-0.219415	-271.842	0.000118	NaN
380	1.000000	0.872890	7.36878e+06	-57639.1	955.819	-29736.9	0.000000	0.000000	6.873081	-0.019477	NaN	0.000000	0.001632	0.001617	28.0813	0.105908	0.002000	52.9474	-143.069	13.4881	-0.049414	0.871492	-0.210793	-0.212191	-0.019477	52.9474	-0.210517	-195.517	9.961615E-5	NaN
380	1.000000	0.882936	7.36878e+06	-57639.1	955.818	-29736.9	0.000000	0.000000	6.883130	0.036558	NaN	0.000000	0.001629	0.001634	28.0814	0.080586	0.002075	38.8316	138.457	-165.925	0.012399	0.881631	-0.200746	-0.202051	0.036558	38.8316	-0.201452	-139.166	-0.000263	NaN
380	1.000000	0.892890	7.36878e+06	-57639.1	955.819	-29736.9	0.000000	0.000000	6.893082	0.012472	NaN	0.000000	0.001637	0.001621	28.0814	0.077231	0.002004	38.5358	-145.373	17.8638	-0.012788	0.891525	-0.190792	-0.192157	0.012472	38.5358	-0.191035	-93.6058	-0.000133	NaN
380	1.000000	0.902912	7.36878e+06	-57639.1	955.818	-29736.9	0.000000	0.000000	6.903104	-0.010278	NaN	0.000000	0.001654	0.001609	28.0818	0.056544	0.001903	29.7055	-160.428	-165.458	0.004512	0.901589	-0.180770	-0.182093	-0.010278	29.7055	-0.180510	-62.2506	0.000165	NaN
380	1.000000	0.912908	7.36878e+06	-57639.1	955.819	-29736.9	0.000000	0.000000	6.913100	4.278889E-5	NaN	0.000000	0.001638	0.001643	28.0813	0.073535	0.001995	36.8674	-55.091	18.465	-0.064023	0.911576	-0.170774	-0.172106	4.278889E-5	36.8674	-0.170775	-42.3698	-1.009890E-6	NaN
380	1.000000	0.922915	7.36878e+06	-57639.1	955.819	-29736.9	0.000000	0.000000	6.923107	-0.007813	NaN	0.000000	0.001621	0.001631	28.0813	0.023716	0.002030	11.6818	39.104	-165.734	-0.001595	0.921587	-0.160767	-0.162095	-0.007813	11.6818	-0.160266	-27.7145	0.000282	NaN
380	1.000000	0.932948	7.36878e+06	-57639.1	955.819	-29736.9	0.000000	0.000000	6.933139	-0.037392	NaN	0.000000	0.001611	0.001630	28.0818	0.068152	0.002045	33.3245	-101.645	17.9107	-0.123746	0.931568	-0.150734	-0.152114	-0.037392	33.3245	-0.149893	-18.0321	0.002074	NaN
380	1.000000	0.942894	7.36878e+06	-57639.1	955.818	-29736.9	0.000000	0.000000	6.943087	0.027306	NaN	0.000000	0.001632	0.001652	28.0814	0.102904	0.001905	54.0277	143.474	-160.927	0.053537	0.941594	-0.140788	-0.142088	0.027306	54.0277	-0.141167	-12.4408	-0.002195	NaN
380	1.000000	0.952904	7.36878e+06	-57639.1	955.818	-29736.9	0.000000	0.000000	6.953098	0.051790	NaN	0.000000	0.001656	0.001633	28.0812	0.025805	0.002090	12.3451	33.0632	13.1635	0.119455	0.951569	-0.130778	-0.132113	0.051790	12.3451	-0.133924	-9.072333	-0.005709	NaN
380	1.000000	0.962967	7.36878e+06	-57639.1	955.818	-29736.9	0.000000	0.000000	6.963158	-0.022747	NaN	0.000000	0.001585	0.001621	28.0798	0.050924	0.002056	24.7708	45.1396	-168.58	-0.053448	0.961639	-0.120716	-0.122043	-0.022747	24.7708	-0.120027	-4.837527	0.004702	NaN
380	1.000000	0.972956	7.36878e+06	-57639.1	955.817	-29736.9	0.000000	0.000000	6.973147	-0.015176	NaN	0.000000	0.001601	0.001634	28.0801	0.092867	0.002082	44.6094	155.714	16.3857	0.034589	0.971551	-0.110726	-0.112131	-0.015176	44.6094	-0.110471	-3.074628	0.004936	NaN
380	1.000000	0.982954	7.36878e+06	-57639.1	955.818	-29736.9	0.000000	0.000000	6.983146	-0.010470	NaN	0.000000	0.001619	0.001656	28.0797	0.094471	0.001998	47.2796	97.6136	-164.273	-0.045053	0.981610	-0.100728	-0.102072	-0.010470	47.2796	-0.100562	-1.880229	0.005568	NaN
380	1.000000	0.992917	7.36878e+06	-57639.1	955.818	-29736.9	0.000000	0.000000	6.993109	-0.020438	NaN	0.000000	0.001597	0.001639	28.0797	0.052526	0.002049	25.6398	-124.507	18.4787	-0.007392	0.991574	-0.090765	-0.092108	-0.020438	25.6398	-0.090167	-1.090765	0.018738	NaN
380	1.000000	1.002958	7.36878e+06	-57639.1	955.818	-29736.9	0.000000	0.000000	7.003150	-0.003904	NaN	0.000000	0.001602	0.001611	28.0797	0.060470	0.002096	28.8521	32.3084	-164.212	-0.033562	1.001687	-0.080724	-0.081995	-0.003904	28.8521	-0.080622	-0.641531	0.006085	NaN
380	1.000000	1.012974	7.36878e+06	-57639.1	955.817	-29736.9	0.000000	0.000000	7.013163	-0.077853	NaN	0.000000	0.001603	0.001602	28.08	0.032444	0.001897	17.103	-128.681	16.6136	-0.047178	1.011581	-0.070708	-0.072102	-0.077853	17.103	-0.067294	-0.288219	0.270116	NaN
380	1.000000	1.022947	7.36878e+06	-57639.1	955.818	-29736.9	0.000000	0.000000	7.023138	-0.032218	NaN	0.000000	0.001635	0.001612	28.0796	0.029325	0.001940	15.1196	82.485	-164.159	-0.038433	1.021702	-0.060735	-0.061980	-0.032218	15.1196	-0.059137	-0.170087	0.189418	NaN
380	1.000000	1.032967	7.36878e+06	-57639.1	955.818	-29736.9	0.000000	0.000000	7.033157	-0.026439	NaN	0.000000	0.001623	0.001627	28.0797	0.065377	0.001900	34.412	128.748	16.2277	-0.055813	1.031649	-0.050716	-0.052033	-0.026439	34.412	-0.050139	-0.092141	0.286936	NaN
380	1.000000	1.042971	7.36878e+06	-57639.1	955.818	-29736.9	0.000000	0.000000	7.043162	-0.020385	NaN	0.000000	0.001598	0.001584	28.0795	0.042488	0.002005	21.187	-158.884	-163.13	-0.062352	1.041640	-0.040711	-0.042042	-0.020385	21.187	-0.039989	-0.045189	0.451116	NaN
380	1.000000	1.052972	7.36878e+06	-57639.1	955.819	-29736.9	0.000000	0.000000	7.053166	0.049115	NaN	0.000000	0.001598	0.001614	28.0799	0.056076	0.002062	27.1946	52.4945	17.2516	-0.020676	1.051645	-0.030710	-0.032038	0.049115	27.1946	-0.032064	-0.026318	-1.866227	NaN
380	1.000000	1.062964	7.36878e+06	-57639.1	955.819	-29736.9	0.000000	0.000000	7.063233	1.887415	NaN	0.000000	0.001597	0.001647	28.0795	1.336302	0.001977	675.794	14.0434	-165.655	1.701662	1.061662	-0.020718	-0.022020	1.887415	675.794	-0.022813	-0.014812	-127.422	NaN
380	1.000000	1.072965	7.36878e+06	-57639.1	955.818	-29736.9	0.000000	0.000000	7.073292	3.283035	NaN	0.000000	0.001566	0.001630	28.0796	1.752452	0.002087	839.713	13.712	13.4513	3.097646	1.071530	-0.010718	-0.012152	3.283035	839.713	-0.013650	-0.008479	-387.202	NaN
380	1.000000	1.082950	7.36878e+06	-57639.1	955.817	-29736.9	0.000000	0.000000	7.083350	5.051874	NaN	0.000000	0.001633	0.001627	28.0796	2.465705	0.001872	1317.17	13.7453	-165.857	4.877165	1.081670	-0.000732	-0.002012	5.051874	1317.17	-0.003609	-0.002524	-2001.6	NaN
380	2.000000	1.092676	7.36878e+06	-57639.1	955.817	-29736.9	0.000000	0.000000	7.093224	8.664648	NaN	0.000000	0.001636	0.001621	28.0813	6.404928	0.001792	3573.28	13.7829	9.193633	7.315254	1.091579	0.008993	0.007897	8.664648	3573.28	0.007175	0.006207	1395.89	41437.3
380	2.000000	1.095540	7.36878e+06	-57639.1	955.818	-29736.9	0.000000	0.000000	7.096228	12.0314	NaN	0.000000	0.001602	0.001613	28.0808	10.0152	0.001701	5886.45	9.492394	-174.598	11.1485	1.095268	0.011858	0.011585	12.0314	5886.45	0.010325	0.009545	1260.45	55046.8
380	2.000000	1.098025	7.36878e+06	-57639.1	955.818	-29736.9	0.000000	0.000000	7.099021	19.5494	NaN	0.000000	0.001613	0.001632	28.081	13.5696	0.001731	7840.99	3.141618	9.707952	17.8919	1.097626	0.014342	0.013944	19.5494	7840.99	0.012472	0.012061	1620.89	65231.1
380	2.000000	1.100533	7.36878e+06	-57639.1	955.818	-29736.9	0.000000	0.000000	7.101947	29.6846	NaN	0.000000	0.001598	0.001659	28.0811	17.0334	0.001739	9796.72	4.224245	-174.137	28.4712	1.100238	0.016851	0.016556	29.6846	9796.72	0.014579	0.014728	2015.58	73754.4
380	2.000000	1.103039	7.36878e+06	-57639.1	955.817	-29736.9	0.000000	0.000000	7.104897	40.4957	NaN	0.000000	0.001546	0.001648	28.081	19.7101	0.001693	11643.7	8.747774	-0.148577	38.4599	1.102650	0.019357	0.018968	40.4957	11643.7	0.016748	0.017688	2289.43	79987.9
380	2.000000	1.105484	7.36878e+06	-57639.1	955.817	-29736.9	0.000000	0.000000	7.107884	53.6557	NaN	0.000000	0.001604	0.001624	28.0807	21.5512	0.001700	12674.5	4.231715	-176.422	51.827	1.105192	0.021802	0.021509	53.6557	12674.5	0.018627	0.020430	2626.29	81015.5
380	2.000000	1.107985	7.36878e+06	-57639.1	955.817	-29736.9	0.000000	0.000000	7.110977	68.0465	NaN	0.000000	0.001626	0.001654	28.0811	24.1817	0.001699	14235.2	2.577928	4.003098	66.3433	1.107634	0.024303	0.023952	68.0465	14235.2	0.020718	0.023683	2873.24	84512.5
380	2.000000	1.110438	7.36878e+06	-57639.1	955.818	-29736.9	0.000000	0.000000	7.114132	85.1127	NaN	0.000000	0.001609	0.001636	28.081	27.4503	0.001857	14780.7	4.901038	-178.353	82.6833	1.110111	0.026756	0.026429	85.1127	14780.7	0.022437	0.026518	3209.66	82927.8
380	2.000000	1.112964	7.36878e+06	-57639.1	955.817	-29736.9	0.000000	0.000000	7.117385	102.792	NaN	0.000000	0.001628	0.001643	28.081	28.994	0.001804	16072.5	5.406969	-0.344634	99.5219	1.112590	0.029282	0.028908	102.792	16072.5	0.024485	0.030085	3416.7	84660.3
380	2.000000	1.115427	7.36878e+06	-57639.1	955.818	-29736.9	0.000000	0.000000	7.120485	118.255	NaN	0.000000	0.001616	0.001638	28.0809	30.2272	0.001807	16731.1	0.749048	-176.337	115.766	1.115175	0.031745	0.031493	118.255	16731.1	0.026444	0.033695	3509.63	83275.8
380	2.000000	1.117904	7.36878e+06	-57639.1	955.817	-29736.9	0.000000	0.000000	7.123839	139.582	NaN	0.000000	0.001625	0.001613	28.0814	32.3108	0.001749	18476.2	1.180381	3.116932	136.557	1.117662	0.034221	0.033980	139.582	18476.2	0.028555	0.037803	3692.39	86821.1
380	2.000000	1.120405	7.36878e+06	-57639.1	955.818	-29736.9	0.000000	0.000000	7.127085	157.665	NaN	0.000000	0.001593	0.001620	28.0811	35.3459	0.001853	19070	3.997058	179.745	154.015	1.120082	0.036723	0.036399	157.665	19070	0.030523	0.041834	3768.86	85184.6
380	2.000000	1.122987	7.36878e+06	-57639.1	955.818	-29736.9	0.000000	0.000000	7.130536	178.825	NaN	0.000000	0.001618	0.001657	28.0814	36.3036	0.001903	19080.7	3.441120	2.345048	176.392	1.122573	0.039304	0.038890	178.825	19080.7	0.032275	0.045592	3922.29	81643.8
380	2.000000	1.125388	7.36878e+06	-57639.1	955.817	-29736.9	0.000000	0.000000	7.133426	190.683	NaN	0.000000	0.001586	0.001657	28.0809	38.193	0.001822	20961.7	3.865091	179.801	186.703	1.125131	0.041706	0.041449	190.683	20961.7	0.034883	0.051475	3704.4	84411.5
380	2.000000	1.127929	7.36878e+06	-57639.1	955.817	-29736.9	0.000000	0.000000	7.136982	215.357	NaN	0.000000	0.001599	0.001627	28.0801	40.8014	0.001821	22403.9	6.561702	-3.962059	212.353	1.127568	0.044246	0.043886	215.357	22403.9	0.037037	0.056596	3805.19	86041.2
380	2.000000	1.130494	7.36878e+06	-57639.1	955.817	-29736.9	0.000000	0.000000	7.140206	231.381	NaN	0.000000	0.001719	0.001651	28.0799	43.532	0.001890	23029.4	5.808529	178.157	233.385	1.130138	0.046811	0.046456	231.381	23029.4	0.039276	0.062170	3721.72	84384.7
380	2.000000	1.132975	7.36878e+06	-57639.1	955.818	-29736.9	0.000000	0.000000	7.143365	247.855	NaN	0.000000	0.001689	0.001655	28.0801	44.5862	0.001777	25091.8	6.365488	-4.397785	248.058	1.132525	0.049293	0.048842	247.855	25091.8	0.041884	0.068989	3592.68	87280.4
380	2.000000	1.135445	7.36878e+06	-57639.1	955.818	-29736.9	0.000000	0.000000	7.146783	270.885	NaN	0.000000	0.001701	0.001658	28.0798	45.7	0.001796	25448.5	4.594666	176.795	269.408	1.135081	0.051763	0.051399	270.885	25448.5	0.043779	0.074160	3652.72	85378.9
380	2.000000	1.137924	7.36878e+06	-57639.1	955.818	-29736.9	0.000000	0.000000	7.150142	292.263	NaN	0.000000	0.001679	0.001701	28.0803	47.7465	0.001828	26121.5	2.296879	-0.845596	289.142	1.137478	0.054242	0.053796	292.263	26121.5	0.045851	0.080020	3652.36	84366.7
380	2.000000	1.140393	7.36878e+06	-57639.1	955.816	-29736.9	0.000000	0.000000	7.153155	305.51	NaN	0.000000	0.001691	0.001722	28.0799	50.7218	0.001917	26458.2	3.182531	177.26	302.799	1.140153	0.056711	0.056471	305.51	26458.2	0.048051	0.086483	3532.6	82199.2
380	2.000000	1.142898	7.36878e+06	-57639.1	955.817	-29736.9	0.000000	0.000000	7.156516	326.304	NaN	0.000000	0.001721	0.001725	28.08	52.0564	0.001841	28281.6	4.739038	-4.062255	322.226	1.142541	0.059215	0.058858	326.304	28281.6	0.050562	0.094159	3465.47	84206.7
380	2.000000	1.145367	7.36878e+06	-57639.1	955.817	-29736.9	0.000000	0.000000	7.159913	348.859	NaN	0.000000	0.001714	0.001719	28.0799	53.5285	0.001892	28294.6	4.800982	175.846	344.661	1.145086	0.061685	0.061404	348.859	28294.6	0.052438	0.100096	3485.23	81708.5
380	2.000000	1.148012	7.36878e+06	-57639.1	955.817	-29736.9	0.000000	0.000000	7.162836	355.618	NaN	0.000000	0.001731	0.001688	28.0803	55.0265	0.001784	30841.2	5.240283	-5.685274	358.211	1.147841	0.064330	0.064159	355.618	30841.2	0.055682	0.110781	3210.1	84658.7
380	2.000000	1.150387	7.36879e+06	-57639.1	955.817	-29736.9	0.000000	0.000000	7.166396	384.414	NaN	0.000000	0.001696	0.001700	28.0799	57.3928	0.001653	34710.2	2.975596	175.681	381.35	1.150107	0.066705	0.066425	384.414	34710.2	0.058399	0.120129	3200.01	91496.9
380	2.000000	1.152888	7.36879e+06	-57639.1	955.817	-29736.9	0.000000	0.000000	7.169869	408.038	NaN	0.000000	0.001699	0.001708	28.0797	58.9676	0.001784	33053	3.912125	-5.005128	403.519	1.152551	0.069206	0.068869	408.038	33053	0.059947	0.125619	3248.22	85203.4
380	2.000000	1.155392	7.36879e+06	-57639.1	955.817	-29736.9	0.000000	0.000000	7.173380	432.525	NaN	0.000000	0.001662	0.001673	28.0799	61.3935	0.001890	32479.8	4.412386	174.752	431.362	1.155091	0.071710	0.071409	432.525	32479.8	0.061722	0.132056	3275.31	81659.5
380	2.000000	1.157821	7.36879e+06	-57639.1	955.817	-29736.9	0.000000	0.000000	7.176302	444.492	NaN	0.000000	0.001694	0.001704	28.08	62.5732	0.001803	34703.9	3.123708	-4.888935	439.25	1.157511	0.074139	0.073829	444.492	34703.9	0.064533	0.142563	3117.86	83974.5
380	2.000000	1.160370	7.36879e+06	-57639.1	955.817	-29736.9	0.000000	0.000000	7.179705	465.248	NaN	0.000000	0.001688	0.001703	28.0807	64.6936	0.001842	35118.7	2.262018	176.188	464.248	1.160086	0.076688	0.076404	465.248	35118.7	0.066752	0.151127	3078.53	82535.5
380	2.000000	1.162876	7.36879e+06	-57639.1	955.818	-29736.9	0.000000	0.000000	7.182935	482.852	NaN	0.000000	0.001699	0.001721	28.0811	65.7653	0.001891	34777.5	2.210802	-3.755229	478.476	1.162541	0.079193	0.078859	482.852	34777.5	0.068780	0.159162	3033.71	79643.6
380	2.000000	1.165366	7.36879e+06	-57639.1	955.817	-29736.9	0.000000	0.000000	7.186313	504.433	NaN	0.000000	0.001713	0.001727	28.0813	66.8372	0.001799	37145.3	2.564881	175.325	500.986	1.165083	0.081684	0.081401	504.433	37145.3	0.071499	0.170237	2963.11	82252.5
380	2.000000	1.167852	7.36879e+06	-57639.1	955.817	-29736.9	0.000000	0.000000	7.189292	516.417	NaN	0.000000	0.001688	0.001719	28.0815	69.9674	0.001829	38258.9	4.736121	-7.355762	510.925	1.167498	0.084170	0.083816	516.417	38258.9	0.074047	0.180937	2854.12	82175.3
380	2.000000	1.170470	7.36879e+06	-57639.1	955.817	-29736.9	0.000000	0.000000	7.192714	535.966	NaN	0.000000	0.001640	0.001724	28.0812	72.9056	0.001856	39275.6	5.651463	172.177	539.13	1.170245	0.086788	0.086563	535.966	39275.6	0.076553	0.191761	2794.97	81943.9
380	2.000000	1.172858	7.36879e+06	-57639.1	955.818	-29736.9	0.000000	0.000000	7.196218	563.067	NaN	0.000000	0.001674	0.001736	28.0811	73.9383	0.001805	40974.1	2.271348	-4.290422	558.099	1.172517	0.089176	0.088835	563.067	40974.1	0.078870	0.202029	2787.06	83286.7
380	2.000000	1.175315	7.36879e+06	-57639.1	955.818	-29736.9	0.000000	0.000000	7.198854	567.433	NaN	0.000000	0.001688	0.001738	28.081	74.7748	0.001755	42595.1	2.176220	174.801	561.709	1.175025	0.091632	0.091343	567.433	42595.1	0.081641	0.214640	2643.65	83999.7
380	2.000000	1.177967	7.36879e+06	-57639.1	955.817	-29736.9	0.000000	0.000000	7.202279	586.217	NaN	0.000000	0.001696	0.001713	28.0813	79.2157	0.001882	42081.5	6.866731	-8.957202	587.505	1.177524	0.094285	0.093842	586.217	42081.5	0.083837	0.224884	2606.75	81074.6
380	2.000000	1.180524	7.36879e+06	-57639.1	955.816	-29736.9	0.000000	0.000000	7.205384	599.53	NaN	0.000000	0.001669	0.001692	28.0812	81.4788	0.001979	41180.4	9.631365	170.259	606.084	1.180054	0.096842	0.096372	599.53	41180.4	0.085923	0.234826	2553.09	77640.9
380	2.000000	1.182744	7.36879e+06	-57639.1	955.816	-29736.9	0.000000	0.000000	7.208277	615.892	NaN	0.000000	0.001656	0.001655	28.0812	80.5549	0.001641	49084.6	4.052881	-8.661427	607.43	1.182367	0.099062	0.098685	615.892	49084.6	0.089651	0.253088	2433.51	89142.1
380	2.000000	1.185367	7.36879e+06	-57639.1	955.817	-29736.9	0.000000	0.000000	7.211485	630.112	NaN	0.000000	0.001715	0.001668	28.0813	82.6599	0.001738	47547.5	6.418981	169.929	629.074	1.185122	0.101685	0.101439	630.112	47547.5	0.091746	0.263629	2390.15	84606.6
380	2.000000	1.187842	7.36879e+06	-57639.1	955.817	-29736.9	0.000000	0.000000	7.215045	656.482	NaN	0.000000	0.001686	0.001659	28.0814	84.2026	0.001829	46031	3.130259	-5.938267	654.479	1.187576	0.104160	0.103894	656.482	46031	0.093464	0.272424	2409.78	80575.1
380	2.000000	1.190279	7.36879e+06	-57639.1	955.816	-29736.9	0.000000	0.000000	7.217938	667.545	NaN	0.000000	0.001696	0.001635	28.0814	88.0247	0.001906	46174	5.508562	171.476	662.238	1.189982	0.106597	0.106300	667.545	46174	0.095754	0.284361	2347.52	79110.7
380	2.000000	1.191833	7.36879e+06	-57639.1	955.816	-29736.9	0.000000	0.000000	7.219843	676.095	NaN	0.000000	0.001586	0.001678	28.0819	88.1868	0.001847	47749.8	5.982228	-9.592140	671.274	1.191592	0.108151	0.107910	676.095	47749.8	0.097531	0.293787	2301.31	80487.5