File: remote_trans/data/nanoindenter/0828-1/data/Data_2025-08-06,11h17m57s/2025-07-22_16-23-58_1_736.txt
2025-07-22, 16:23:58, 1
Index	Phase	Displacement	Time	Pos X	Pos Y	Pos Z	Rot A	Rot B	Piezo Z	Force A	Force B	Gripper	Voltage A	Voltage B	Temperature	Amplitude force	Amplitude pos	Stiffness	Phase shift	Phase excitation	Force A raw	Displacement raw	HMax	HMax raw	Real Force	Real Stiffness	Contact Depth	Area	Hardness	Reduced Mod.
[#]	[#]	[um]	[s]	[um]	[um]	[um]	[m°]	[m°]	[um]	[uN]	[uN]	[V]	[V]	[V]	[°C]	[uN]	[um]	[N/m]	[°]	[°]	[uN]	[um]	[um]	[um]	[uN]	[N/m]	[um]	[um^2]	[MPa]	[MPa]
736	1.000000	0.002305	7.37225e+06	-40289.1	1005.82	-29790.6	0.000000	0.000000	6.002830	-0.049331	NaN	0.000000	0.001623	0.001711	28.0828	0.057976	0.000951	60.9556	-123.219	-162.67	-0.036491	0.001001	-1.066029	-1.067333	-0.049331	60.9556	-1.065422	-1.720612E+14	2.867058E-16	NaN
736	1.000000	0.010225	7.37225e+06	-40289.1	1005.82	-29790.6	0.000000	0.000000	6.010750	-0.033170	NaN	0.000000	0.001596	0.001750	28.0824	0.053900	0.000888	60.6931	83.0833	-157.774	0.027363	0.008914	-1.058110	-1.059420	-0.033170	60.6931	-1.057700	-1.354902E+14	2.448126E-16	NaN
736	1.000000	0.018225	7.37225e+06	-40289.1	1005.82	-29790.6	0.000000	0.000000	6.018750	-0.036424	NaN	0.000000	0.001597	0.001753	28.0822	0.102717	0.001766	58.1711	-113.912	-164.018	0.023148	0.016920	-1.050109	-1.051414	-0.036424	58.1711	-1.049640	-1.055772E+14	3.450003E-16	NaN
736	1.000000	0.026244	7.37225e+06	-40289.1	1005.82	-29790.6	0.000000	0.000000	6.026771	-0.003103	NaN	0.000000	0.001610	0.001758	28.0828	0.053760	0.001792	30.006	114.014	-164.254	-0.012473	0.024895	-1.042090	-1.043439	-0.003103	30.006	-1.042012	-8.337335E+13	3.721550E-17	NaN
736	1.000000	0.034199	7.37225e+06	-40289.1	1005.82	-29790.6	0.000000	0.000000	6.034723	-0.058894	NaN	0.000000	0.001593	0.001771	28.0815	0.012826	0.001902	6.743473	100.516	-161.965	-0.083444	0.032929	-1.034135	-1.035405	-0.058894	6.743473	-1.027585	-5.333321E+13	1.104268E-15	NaN
736	1.000000	0.042229	7.37225e+06	-40289.1	1005.82	-29790.6	0.000000	0.000000	6.042755	-0.016478	NaN	0.000000	0.001588	0.001753	28.081	0.095790	0.001974	48.5239	-24.1517	-163.82	-0.001264	0.040946	-1.026105	-1.027388	-0.016478	48.5239	-1.025850	-5.054275E+13	3.260215E-16	NaN
736	1.000000	0.050216	7.37225e+06	-40289.1	1005.82	-29790.6	0.000000	0.000000	6.050743	0.015903	NaN	0.000000	0.001626	0.001735	28.0812	0.019135	0.001942	9.853322	-28.1359	-164.611	-0.013465	0.048873	-1.018118	-1.019461	0.015903	9.853322	-1.019329	-4.129734E+13	-3.850897E-16	NaN
736	1.000000	0.058233	7.37225e+06	-40289.1	1005.82	-29790.6	0.000000	0.000000	6.058758	-0.019369	NaN	0.000000	0.001602	0.001769	28.0812	0.035407	0.001888	18.7521	-93.1539	-162.693	-0.061255	0.056904	-1.010102	-1.011431	-0.019369	18.7521	-1.009327	-3.029166E+13	6.394083E-16	NaN
736	1.000000	0.066257	7.37225e+06	-40289.1	1005.82	-29790.6	0.000000	0.000000	6.066783	-0.022167	NaN	0.000000	0.001596	0.001747	28.0816	0.117536	0.002005	58.6296	-129.988	-162.085	-0.079152	0.064939	-1.002077	-1.003395	-0.022167	58.6296	-1.001793	-2.398349E+13	9.242606E-16	NaN
736	1.000000	0.074220	7.37225e+06	-40289.1	1005.82	-29790.6	0.000000	0.000000	6.074746	-0.016240	NaN	0.000000	0.001643	0.001766	28.0812	0.067145	0.002059	32.6162	2.797485	-164.723	-0.011033	0.072910	-0.994114	-0.995425	-0.016240	32.6162	-0.993741	-1.868474E+13	8.691379E-16	NaN
736	1.000000	0.082211	7.37225e+06	-40289.1	1005.82	-29790.6	0.000000	0.000000	6.082738	-0.002763	NaN	0.000000	0.001597	0.001731	28.0816	0.091647	0.001938	47.2934	-128.253	-159.726	-0.034923	0.080933	-0.986123	-0.987401	-0.002763	47.2934	-0.986079	-1.473334E+13	1.875379E-16	NaN
736	1.000000	0.090267	7.37225e+06	-40289.1	1005.82	-29790.6	0.000000	0.000000	6.090793	-0.011604	NaN	0.000000	0.001623	0.001735	28.0811	0.056840	0.001893	30.025	-102.024	-168.483	-0.055849	0.088965	-0.978068	-0.979370	-0.011604	30.025	-0.977778	-1.138858E+13	1.018928E-15	NaN
736	1.000000	0.098256	7.37225e+06	-40289.1	1005.82	-29790.6	0.000000	0.000000	6.098783	0.021105	NaN	0.000000	0.001594	0.001759	28.0814	0.077593	0.001954	39.7153	70.0251	-161.863	0.065657	0.096949	-0.970079	-0.971385	0.021105	39.7153	-0.970477	-9.080201E+12	-2.324277E-15	NaN
736	1.000000	0.106262	7.37225e+06	-40289.1	1005.82	-29790.6	0.000000	0.000000	6.106786	-0.052845	NaN	0.000000	0.001594	0.001686	28.0817	0.065555	0.002024	32.3932	136.791	-166.139	-0.161100	0.104921	-0.962072	-0.963413	-0.052845	32.3932	-0.960849	-6.734600E+12	7.846748E-15	NaN
736	1.000000	0.114257	7.37225e+06	-40289.1	1005.82	-29790.6	0.000000	0.000000	6.114780	-0.082466	NaN	0.000000	0.001607	0.001711	28.0812	0.029245	0.002128	13.7407	76.6039	-163.169	-0.040607	0.112983	-0.954078	-0.955352	-0.082466	13.7407	-0.949576	-4.745867E+12	1.737640E-14	NaN
736	1.000000	0.122260	7.37225e+06	-40289.1	1005.82	-29790.6	0.000000	0.000000	6.122786	-0.031753	NaN	0.000000	0.001608	0.001707	28.0823	0.044901	0.001992	22.5382	-122.45	-162.105	-0.064515	0.120956	-0.946074	-0.947378	-0.031753	22.5382	-0.945017	-4.119297E+12	7.708370E-15	NaN
736	1.000000	0.130252	7.37225e+06	-40289.1	1005.82	-29790.6	0.000000	0.000000	6.130779	0.015741	NaN	0.000000	0.001610	0.001731	28.0814	0.137866	0.002027	68.0236	179.735	-165.87	0.009889	0.128944	-0.938082	-0.939391	0.015741	68.0236	-0.938256	-3.338903E+12	-4.714333E-15	NaN
736	1.000000	0.138219	7.37225e+06	-40289.1	1005.82	-29790.6	0.000000	0.000000	6.138743	-0.068487	NaN	0.000000	0.001569	0.001708	28.0814	0.149408	0.002118	70.5307	-65.6104	-164.393	-0.098494	0.136924	-0.930115	-0.931410	-0.068487	70.5307	-0.929387	-2.534676E+12	2.702006E-14	NaN
736	1.000000	0.146264	7.37225e+06	-40289.1	1005.82	-29790.6	0.000000	0.000000	6.146791	0.005027	NaN	0.000000	0.001610	0.001719	28.0815	0.076461	0.001875	40.7774	-158.885	-167.078	-0.025755	0.144934	-0.922070	-0.923400	0.005027	40.7774	-0.922162	-2.024883E+12	-2.482610E-15	NaN
736	1.000000	0.154225	7.37225e+06	-40289.1	1005.82	-29790.6	0.000000	0.000000	6.154751	-0.025097	NaN	0.000000	0.001633	0.001725	28.0813	0.094944	0.001914	49.6129	55.7278	-167.892	0.040973	0.152943	-0.914109	-0.915391	-0.025097	49.6129	-0.913730	-1.557886E+12	1.610954E-14	NaN
736	1.000000	0.162276	7.37225e+06	-40289.1	1005.82	-29790.6	0.000000	0.000000	6.162802	0.001347	NaN	0.000000	0.001596	0.001708	28.0816	0.039509	0.002062	19.1618	167.879	-163.282	0.074407	0.160979	-0.906059	-0.907355	0.001347	19.1618	-0.906111	-1.229241E+12	-1.096180E-15	NaN
736	1.000000	0.170273	7.37225e+06	-40289.1	1005.82	-29790.6	0.000000	0.000000	6.170799	-0.005765	NaN	0.000000	0.001592	0.001744	28.0821	0.078779	0.002163	36.424	-96.6406	-165.092	-0.009130	0.168932	-0.898061	-0.899402	-0.005765	36.424	-0.897943	-9.533789E+11	6.046402E-15	NaN
736	1.000000	0.178267	7.37225e+06	-40289.1	1005.82	-29790.6	0.000000	0.000000	6.178794	-0.004533	NaN	0.000000	0.001606	0.001718	28.0831	0.091167	0.001942	46.9423	55.9601	-164.979	-0.088305	0.176949	-0.890067	-0.891386	-0.004533	46.9423	-0.889995	-7.444631E+11	6.088313E-15	NaN
736	1.000000	0.186257	7.37225e+06	-40289.1	1005.82	-29790.6	0.000000	0.000000	6.186784	-0.011778	NaN	0.000000	0.001604	0.001718	28.0825	0.060280	0.001997	30.1868	141.055	-164.202	-0.001576	0.185043	-0.882077	-0.883291	-0.011778	30.1868	-0.881784	-5.765482E+11	2.042800E-14	NaN
736	1.000000	0.194281	7.37225e+06	-40289.1	1005.82	-29790.6	0.000000	0.000000	6.194806	-0.051117	NaN	0.000000	0.001619	0.001711	28.0826	0.010008	0.002104	4.756136	48.3853	-166.851	0.002733	0.192992	-0.874053	-0.875343	-0.051117	4.756136	-0.865992	-3.525460E+11	1.449941E-13	NaN
736	1.000000	0.202274	7.37225e+06	-40289.1	1005.82	-29790.6	0.000000	0.000000	6.202800	-0.013573	NaN	0.000000	0.001636	0.001744	28.0829	0.042962	0.001871	22.9569	-36.5653	-163.16	-0.011606	0.200983	-0.866060	-0.867351	-0.013573	22.9569	-0.865617	-3.484472E+11	3.895175E-14	NaN
736	1.000000	0.210297	7.37225e+06	-40289.1	1005.82	-29790.6	0.000000	0.000000	6.210821	-0.077567	NaN	0.000000	0.001589	0.001744	28.0826	0.051932	0.001928	26.9334	-81.8511	-160.765	0.037865	0.208932	-0.858037	-0.859403	-0.077567	26.9334	-0.855877	-2.572238E+11	3.015531E-13	NaN
736	1.000000	0.218312	7.37225e+06	-40289.1	1005.82	-29790.6	0.000000	0.000000	6.218837	-0.039452	NaN	0.000000	0.001594	0.001723	28.0827	0.055702	0.002033	27.404	-73.3716	-162.935	-0.077391	0.216998	-0.850022	-0.851337	-0.039452	27.404	-0.848943	-2.072143E+11	1.903904E-13	NaN
736	1.000000	0.226293	7.37225e+06	-40289.1	1005.82	-29790.6	0.000000	0.000000	6.226821	0.017875	NaN	0.000000	0.001605	0.001724	28.0827	0.078692	0.001931	40.757	-79.6663	-164.729	-0.024349	0.224943	-0.842041	-0.843391	0.017875	40.757	-0.842370	-1.688095E+11	-1.058905E-13	NaN
736	1.000000	0.234297	7.37225e+06	-40289.1	1005.82	-29790.6	0.000000	0.000000	6.234822	-0.045109	NaN	0.000000	0.001623	0.001707	28.0828	0.050338	0.001913	26.3157	126.654	-164.901	-0.119561	0.233010	-0.834037	-0.835324	-0.045109	26.3157	-0.832752	-1.250486E+11	3.607356E-13	NaN
736	1.000000	0.242272	7.37225e+06	-40289.1	1005.82	-29790.6	0.000000	0.000000	6.242799	0.016233	NaN	0.000000	0.001598	0.001721	28.0828	0.136987	0.002056	66.631	-83.3269	-164.508	0.059982	0.241020	-0.826062	-0.827314	0.016233	66.631	-0.826245	-1.020665E+11	-1.590400E-13	NaN
736	1.000000	0.250309	7.37225e+06	-40289.1	1005.82	-29790.6	0.000000	0.000000	6.250837	0.027139	NaN	0.000000	0.001588	0.001706	28.0828	0.102548	0.002014	50.9266	-98.4372	-165.157	-0.007228	0.248996	-0.818025	-0.819338	0.027139	50.9266	-0.818425	-7.995557E+10	-3.394284E-13	NaN
736	1.000000	0.258291	7.37225e+06	-40289.1	1005.82	-29790.6	0.000000	0.000000	6.258817	0.001370	NaN	0.000000	0.001607	0.001718	28.0828	0.063589	0.001994	31.8968	121.083	-164.411	0.036225	0.257032	-0.810044	-0.811303	0.001370	31.8968	-0.810076	-6.160303E+10	-2.224537E-14	NaN
736	1.000000	0.266282	7.37226e+06	-40289.1	1005.82	-29790.6	0.000000	0.000000	6.266810	0.038001	NaN	0.000000	0.001592	0.001684	28.0826	0.068273	0.002132	32.0263	-151.353	-166.053	0.057248	0.264954	-0.802052	-0.803380	0.038001	32.0263	-0.802942	-4.929393E+10	-7.709083E-13	NaN
736	1.000000	0.274328	7.37226e+06	-40289.1	1005.82	-29790.6	0.000000	0.000000	6.274855	-0.001992	NaN	0.000000	0.001602	0.001734	28.0832	0.080609	0.001893	42.5834	-113.567	-164.615	-0.020808	0.273001	-0.794006	-0.795333	-0.001992	42.5834	-0.793971	-3.723972E+10	5.348076E-14	NaN
736	1.000000	0.282321	7.37226e+06	-40289.1	1005.82	-29790.6	0.000000	0.000000	6.282848	0.008146	NaN	0.000000	0.001597	0.001737	28.0828	0.080147	0.001989	40.2991	134.685	-165.806	0.027993	0.281091	-0.786013	-0.787244	0.008146	40.2991	-0.786165	-2.917342E+10	-2.792270E-13	NaN
736	1.000000	0.290351	7.37226e+06	-40289.1	1005.82	-29790.6	0.000000	0.000000	6.290874	-0.088498	NaN	0.000000	0.001583	0.001720	28.0827	0.062135	0.002109	29.4682	-95.3438	-165.929	-0.095405	0.289014	-0.777984	-0.779320	-0.088498	29.4682	-0.775731	-2.104836E+10	4.204502E-12	NaN
736	1.000000	0.298327	7.37226e+06	-40289.1	1005.82	-29790.6	0.000000	0.000000	6.298853	-0.006082	NaN	0.000000	0.001601	0.001741	28.0829	0.024210	0.002021	11.981	-22.6047	-163.057	-0.126548	0.297010	-0.770007	-0.771325	-0.006082	11.981	-0.769626	-1.738710E+10	3.498093E-13	NaN
736	1.000000	0.306349	7.37226e+06	-40289.1	1005.82	-29790.6	0.000000	0.000000	6.306875	-0.023080	NaN	0.000000	0.001595	0.001747	28.0824	0.074276	0.001963	37.8312	-124.208	-166.734	0.028345	0.304993	-0.761985	-0.763341	-0.023080	37.8312	-0.761527	-1.349212E+10	1.710664E-12	NaN
736	1.000000	0.314363	7.37226e+06	-40289.1	1005.82	-29790.6	0.000000	0.000000	6.314888	-0.023661	NaN	0.000000	0.001571	0.001754	28.0816	0.039464	0.001963	20.1048	55.9477	-163.106	-0.020308	0.313065	-0.753971	-0.755269	-0.023661	20.1048	-0.753089	-1.035764E+10	2.284437E-12	NaN
736	1.000000	0.322305	7.37226e+06	-40289.1	1005.82	-29790.6	0.000000	0.000000	6.322832	0.012363	NaN	0.000000	0.001577	0.001736	28.0816	0.095535	0.002041	46.803	-160.915	-164.829	-0.002085	0.321029	-0.746029	-0.747305	0.012363	46.803	-0.746227	-8.353283E+9	-1.480062E-12	NaN
736	1.000000	0.330344	7.37226e+06	-40289.1	1005.82	-29790.6	0.000000	0.000000	6.330868	-0.053320	NaN	0.000000	0.001599	0.001754	28.0815	0.058125	0.002048	28.3758	144.78	-166.25	-0.011531	0.329025	-0.737991	-0.739310	-0.053320	28.3758	-0.736581	-6.172896E+9	8.637686E-12	NaN
736	1.000000	0.338320	7.37226e+06	-40289.1	1005.82	-29790.6	0.000000	0.000000	6.338849	0.061189	NaN	0.000000	0.001621	0.001736	28.0815	0.108010	0.002177	49.6228	-60.0391	-161.858	0.108257	0.337049	-0.730014	-0.731285	0.061189	49.6228	-0.730939	-5.171373E+9	-1.183220E-11	NaN
736	1.000000	0.346339	7.37226e+06	-40289.1	1005.82	-29790.6	0.000000	0.000000	6.346862	-0.097036	NaN	0.000000	0.001615	0.001740	28.0814	0.074053	0.001893	39.1125	173.102	-166.256	-0.057871	0.345018	-0.721995	-0.723316	-0.097036	39.1125	-0.720134	-3.683856E+9	2.634074E-11	NaN
736	1.000000	0.354351	7.37226e+06	-40289.1	1005.82	-29790.6	0.000000	0.000000	6.354877	-0.014113	NaN	0.000000	0.001650	0.001745	28.0818	0.068047	0.001916	35.5123	169.976	-167.403	0.032957	0.353002	-0.713983	-0.715332	-0.014113	35.5123	-0.713685	-3.008411E+9	4.691153E-12	NaN
736	1.000000	0.362371	7.37226e+06	-40289.1	1005.82	-29790.6	0.000000	0.000000	6.362899	0.038417	NaN	0.000000	0.001598	0.001715	28.0814	0.103433	0.002041	50.6775	-78.2557	-160.795	0.032529	0.361065	-0.705964	-0.707269	0.038417	50.6775	-0.706532	-2.402810E+9	-1.598850E-11	NaN
736	1.000000	0.370362	7.37226e+06	-40289.1	1005.82	-29790.6	0.000000	0.000000	6.370886	-0.047125	NaN	0.000000	0.001583	0.001735	28.0817	0.118927	0.001971	60.3267	83.9524	-165.58	-0.092220	0.369045	-0.697973	-0.699289	-0.047125	60.3267	-0.697387	-1.802349E+9	2.614617E-11	NaN
736	1.000000	0.378340	7.37226e+06	-40289.1	1005.82	-29790.6	0.000000	0.000000	6.378869	0.050551	NaN	0.000000	0.001598	0.001725	28.0814	0.174671	0.001951	89.5361	131.812	-161.989	0.021689	0.377052	-0.689994	-0.691282	0.050551	89.5361	-0.690418	-1.447530E+9	-3.492197E-11	NaN
736	1.000000	0.386363	7.37226e+06	-40289.1	1005.82	-29790.6	0.000000	0.000000	6.386889	0.004370	NaN	0.000000	0.001585	0.001732	28.0815	0.013444	0.001925	6.984962	-108.42	-164.969	0.032449	0.385025	-0.681972	-0.683309	0.004370	6.984962	-0.682441	-1.126124E+9	-3.880891E-12	NaN
736	1.000000	0.394393	7.37226e+06	-40289.1	1005.82	-29790.6	0.000000	0.000000	6.394920	-0.000509	NaN	0.000000	0.001608	0.001756	28.0819	0.040016	0.002057	19.4534	169.318	-164.136	-0.096290	0.393060	-0.673941	-0.675274	-0.000509	19.4534	-0.673921	-8.611008E+8	5.906116E-13	NaN
736	1.000000	0.402357	7.37226e+06	-40289.1	1005.82	-29790.6	0.000000	0.000000	6.402883	-0.026963	NaN	0.000000	0.001577	0.001732	28.0815	0.050669	0.001947	26.0266	-3.891286	-168.43	0.017256	0.401054	-0.665977	-0.667280	-0.026963	26.0266	-0.665200	-6.541606E+8	4.121826E-11	NaN
736	1.000000	0.410397	7.37226e+06	-40289.1	1005.82	-29790.6	0.000000	0.000000	6.410922	-0.047920	NaN	0.000000	0.001628	0.001741	28.0816	0.137500	0.001861	73.8731	132.775	-166.421	0.072499	0.409045	-0.657937	-0.659289	-0.047920	73.8731	-0.657451	-5.123258E+8	9.353486E-11	NaN
736	1.000000	0.418378	7.37226e+06	-40289.1	1005.82	-29790.6	0.000000	0.000000	6.418903	-0.038525	NaN	0.000000	0.001588	0.001741	28.0817	0.048769	0.002015	24.2049	150.931	-164.565	0.034729	0.417001	-0.649956	-0.651333	-0.038525	24.2049	-0.648762	-3.894630E+8	9.891909E-11	NaN
736	1.000000	0.426370	7.37226e+06	-40289.1	1005.82	-29790.6	0.000000	0.000000	6.426895	-0.027422	NaN	0.000000	0.001573	0.001742	28.0815	0.067942	0.001826	37.2131	30.1367	-166.473	0.018919	0.425028	-0.641964	-0.643306	-0.027422	37.2131	-0.641412	-3.087868E+8	8.880702E-11	NaN
736	1.000000	0.434354	7.37226e+06	-40289.1	1005.82	-29790.6	0.000000	0.000000	6.434880	-0.019059	NaN	0.000000	0.001608	0.001739	28.0818	0.064240	0.001981	32.422	34.2254	-166.905	-0.010992	0.433059	-0.633980	-0.635275	-0.019059	32.422	-0.633539	-2.407786E+8	7.915459E-11	NaN
736	1.000000	0.442377	7.37226e+06	-40289.1	1005.82	-29790.6	0.000000	0.000000	6.442898	-0.131991	NaN	0.000000	0.001612	0.001724	28.0816	0.064508	0.001968	32.7771	-0.342279	-166.135	-0.156384	0.441031	-0.625958	-0.627303	-0.131991	32.7771	-0.622937	-1.721887E+8	7.665485E-10	NaN
736	1.000000	0.450362	7.37226e+06	-40289.1	1005.82	-29790.6	0.000000	0.000000	6.450887	-0.036560	NaN	0.000000	0.001608	0.001753	28.0828	0.120408	0.002011	59.8679	-11.043	-162.675	-0.025437	0.449101	-0.617972	-0.619233	-0.036560	59.8679	-0.617514	-1.450312E+8	2.520820E-10	NaN
736	1.000000	0.458403	7.37226e+06	-40289.1	1005.82	-29790.6	0.000000	0.000000	6.458929	-0.023232	NaN	0.000000	0.001642	0.001760	28.083	0.044603	0.001952	22.8495	40.6112	-160.398	0.002057	0.457066	-0.609931	-0.611269	-0.023232	22.8495	-0.609168	-1.113447E+8	2.086531E-10	NaN
736	1.000000	0.466410	7.37226e+06	-40289.1	1005.82	-29790.6	0.000000	0.000000	6.466936	-0.002117	NaN	0.000000	0.001644	0.001730	28.0829	0.052069	0.001999	26.0437	163.077	-164.586	-0.018672	0.465054	-0.601925	-0.603280	-0.002117	26.0437	-0.601864	-8.833308E+7	2.397169E-11	NaN
736	1.000000	0.474415	7.37226e+06	-40289.1	1005.82	-29790.6	0.000000	0.000000	6.474941	-0.028011	NaN	0.000000	0.001606	0.001728	28.0828	0.022856	0.001882	12.1471	-30.279	-161.916	-0.077580	0.473042	-0.593919	-0.595292	-0.028011	12.1471	-0.592189	-6.499026E+7	4.310083E-10	NaN
736	1.000000	0.482408	7.37226e+06	-40289.1	1005.82	-29790.6	0.000000	0.000000	6.482933	-0.028964	NaN	0.000000	0.001586	0.001707	28.0827	0.013648	0.001983	6.884033	163.301	-162.51	0.040191	0.481055	-0.585927	-0.587279	-0.028964	6.884033	-0.582771	-4.819083E+7	6.010193E-10	NaN
736	1.000000	0.490370	7.37226e+06	-40289.1	1005.82	-29790.6	0.000000	0.000000	6.490897	0.017748	NaN	0.000000	0.001610	0.001721	28.083	0.092216	0.002274	40.5523	20.4231	-163.331	-0.032623	0.489145	-0.577965	-0.579190	0.017748	40.5523	-0.578293	-4.179884E+7	-4.246031E-10	NaN
736	1.000000	0.498400	7.37226e+06	-40289.1	1005.82	-29790.6	0.000000	0.000000	6.498925	-0.050747	NaN	0.000000	0.001635	0.001721	28.0829	0.004983	0.002005	2.484699	-64.0456	-163.071	-0.005765	0.497070	-0.569934	-0.571265	-0.050747	2.484699	-0.554616	-1.967329E+7	2.579482E-9	NaN
736	1.000000	0.506392	7.37226e+06	-40289.1	1005.82	-29790.6	0.000000	0.000000	6.506920	0.023611	NaN	0.000000	0.001640	0.001735	28.0828	0.042458	0.001978	21.4627	-135.307	-166.295	-0.085677	0.505079	-0.561942	-0.563255	0.023611	21.4627	-0.562767	-2.550668E+7	-9.256905E-10	NaN
736	1.000000	0.514397	7.37226e+06	-40289.1	1005.82	-29790.6	0.000000	0.000000	6.514922	-0.021490	NaN	0.000000	0.001662	0.001708	28.0828	0.027052	0.001951	13.8679	-79.9087	-166.744	-0.000272	0.513112	-0.553938	-0.555222	-0.021490	13.8679	-0.552775	-1.855197E+7	1.158369E-9	NaN
736	1.000000	0.522420	7.37226e+06	-40289.1	1005.82	-29790.6	0.000000	0.000000	6.522949	0.045651	NaN	0.000000	0.001663	0.001728	28.0828	0.046371	0.001992	23.2756	-68.1996	-168.997	0.031782	0.521133	-0.545914	-0.547201	0.045651	23.2756	-0.547385	-1.562176E+7	-2.922294E-9	NaN
736	1.000000	0.530441	7.37226e+06	-40289.1	1005.82	-29790.6	0.000000	0.000000	6.530966	-0.043092	NaN	0.000000	0.001644	0.001734	28.0828	0.157401	0.001944	80.9619	-150.168	-162.722	-0.022373	0.529084	-0.537893	-0.539250	-0.043092	80.9619	-0.537494	-1.139186E+7	3.782705E-9	NaN
736	1.000000	0.538424	7.37226e+06	-40289.1	1005.82	-29790.6	0.000000	0.000000	6.538946	-0.099838	NaN	0.000000	0.001633	0.001753	28.0827	0.104843	0.002042	51.3501	80.2501	-164.497	0.012197	0.537154	-0.529911	-0.531180	-0.099838	51.3501	-0.528452	-8.53258e+06	1.170083E-8	NaN
736	1.000000	0.546405	7.37226e+06	-40289.1	1005.82	-29790.6	0.000000	0.000000	6.546928	-0.084825	NaN	0.000000	0.001611	0.001709	28.0824	0.041100	0.001942	21.1587	69.0459	-162.61	0.055034	0.545167	-0.521929	-0.523168	-0.084825	21.1587	-0.518922	-6.28935e+06	1.348711E-8	NaN
736	1.000000	0.554434	7.37226e+06	-40289.1	1005.82	-29790.6	0.000000	0.000000	6.554958	-0.070229	NaN	0.000000	0.001619	0.001717	28.0826	0.116260	0.002006	57.9493	-144.912	-163.963	-0.046390	0.553068	-0.513900	-0.515266	-0.070229	57.9493	-0.512991	-5.20074e+06	1.350365E-8	NaN
736	1.000000	0.562442	7.37226e+06	-40289.1	1005.82	-29790.6	0.000000	0.000000	6.562966	-0.063571	NaN	0.000000	0.001644	0.001700	28.0828	0.096217	0.001980	48.5892	45.6364	-164.504	-0.055251	0.561144	-0.505892	-0.507190	-0.063571	48.5892	-0.504911	-4.01331e+06	1.584010E-8	NaN
736	1.000000	0.570459	7.37226e+06	-40289.1	1005.82	-29790.6	0.000000	0.000000	6.570985	-0.012110	NaN	0.000000	0.001621	0.001710	28.0828	0.038698	0.002066	18.7293	154.93	-166.212	0.029261	0.569112	-0.497876	-0.499222	-0.012110	18.7293	-0.497391	-3.15217e+06	3.841711E-9	NaN
736	1.000000	0.578452	7.37226e+06	-40289.1	1005.82	-29790.6	0.000000	0.000000	6.578978	-0.020247	NaN	0.000000	0.001611	0.001693	28.0823	0.050989	0.002058	24.7716	-32.9299	-165.312	-0.038712	0.577156	-0.489882	-0.491178	-0.020247	24.7716	-0.489269	-2.42761e+06	8.340496E-9	NaN
736	1.000000	0.586439	7.37226e+06	-40289.1	1005.82	-29790.6	0.000000	0.000000	6.586967	0.024223	NaN	0.000000	0.001627	0.001738	28.0813	0.078183	0.001987	39.3461	172.361	-163.814	-0.034996	0.585057	-0.481895	-0.483277	0.024223	39.3461	-0.482357	-1.94319e+06	-1.246565E-8	NaN
736	1.000000	0.594452	7.37226e+06	-40289.1	1005.82	-29790.6	0.000000	0.000000	6.594979	-0.004157	NaN	0.000000	0.001590	0.001758	28.0812	0.064553	0.002026	31.8569	171.869	-165.132	-0.036345	0.593140	-0.473882	-0.475194	-0.004157	31.8569	-0.473784	-1.47387e+06	2.820761E-9	NaN
736	1.000000	0.602424	7.37226e+06	-40289.1	1005.82	-29790.6	0.000000	0.000000	6.602950	-0.018970	NaN	0.000000	0.001631	0.001727	28.0816	0.060987	0.002006	30.4052	121.726	-167.254	0.015111	0.601162	-0.465910	-0.467172	-0.018970	30.4052	-0.465442	-1.12578e+06	1.685052E-8	NaN
736	1.000000	0.610428	7.37226e+06	-40289.1	1005.82	-29790.6	0.000000	0.000000	6.610953	-0.049256	NaN	0.000000	0.001635	0.001724	28.0815	0.070813	0.001988	35.6229	-68.3202	-163.385	-0.009973	0.609211	-0.457906	-0.459124	-0.049256	35.6229	-0.456869	-853111	5.773701E-8	NaN
736	1.000000	0.618485	7.37226e+06	-40289.1	1005.82	-29790.6	0.000000	0.000000	6.619009	-0.077423	NaN	0.000000	0.001626	0.001731	28.0817	0.066022	0.002076	31.7995	27.4436	-162.635	-0.069811	0.617188	-0.449849	-0.451146	-0.077423	31.7995	-0.448023	-640467	1.208854E-7	NaN
736	1.000000	0.626463	7.37226e+06	-40289.1	1005.82	-29790.6	0.000000	0.000000	6.626988	-0.021619	NaN	0.000000	0.001559	0.001730	28.0819	0.071125	0.002061	34.5112	-165.819	-160.936	-0.037745	0.625213	-0.441872	-0.443121	-0.021619	34.5112	-0.441402	-516589	4.184873E-8	NaN
736	1.000000	0.634497	7.37226e+06	-40289.1	1005.82	-29790.6	0.000000	0.000000	6.635024	-0.000189	NaN	0.000000	0.001623	0.001710	28.0814	0.079248	0.001948	40.6778	-153.926	-163.598	-0.025303	0.633249	-0.433837	-0.435086	-0.000189	40.6778	-0.433834	-403900	4.680446E-10	NaN
736	1.000000	0.642476	7.37226e+06	-40289.1	1005.82	-29790.6	0.000000	0.000000	6.643003	0.020549	NaN	0.000000	0.001668	0.001694	28.0817	0.088222	0.002023	43.613	16.2718	-163.901	-0.032147	0.641179	-0.425858	-0.427155	0.020549	43.613	-0.426212	-315095	-6.521402E-8	NaN
736	1.000000	0.650486	7.37226e+06	-40289.1	1005.82	-29790.6	0.000000	0.000000	6.651009	-0.088194	NaN	0.000000	0.001605	0.001728	28.0811	0.094097	0.001823	51.6234	22.7607	-165.367	-0.097281	0.649200	-0.417848	-0.419135	-0.088194	51.6234	-0.416567	-229987	3.834744E-7	NaN
736	1.000000	0.658503	7.37226e+06	-40289.1	1005.82	-29790.6	0.000000	0.000000	6.659031	0.027394	NaN	0.000000	0.001624	0.001745	28.0816	0.111821	0.001971	56.7398	-95.3945	-160.632	0.007995	0.657106	-0.409831	-0.411228	0.027394	56.7398	-0.410193	-186701	-1.467246E-7	NaN
736	1.000000	0.666483	7.37226e+06	-40289.1	1005.82	-29790.6	0.000000	0.000000	6.667011	0.033018	NaN	0.000000	0.001610	0.001715	28.0816	0.083598	0.002016	41.4574	-163.509	-165.156	-0.002581	0.665180	-0.401851	-0.403155	0.033018	41.4574	-0.402449	-144844	-2.279546E-7	NaN
736	1.000000	0.674474	7.37226e+06	-40289.1	1005.82	-29790.6	0.000000	0.000000	6.674999	-0.054241	NaN	0.000000	0.001600	0.001708	28.0814	0.012412	0.001968	6.306152	-143.155	-168.47	-0.127624	0.673187	-0.393860	-0.395147	-0.054241	6.306152	-0.387409	-88326.4	6.140929E-7	NaN
736	1.000000	0.682461	7.37226e+06	-40289.1	1005.82	-29790.6	0.000000	0.000000	6.682981	-0.143097	NaN	0.000000	0.001629	0.001677	28.0817	0.039305	0.002034	19.32	-142.529	-165.627	-0.098186	0.681163	-0.385874	-0.387171	-0.143097	19.32	-0.380318	-69897.2	2.047256E-6	NaN
736	1.000000	0.690504	7.37226e+06	-40289.1	1005.82	-29790.6	0.000000	0.000000	6.691029	-0.036161	NaN	0.000000	0.001599	0.001725	28.0815	0.033356	0.001899	17.5627	-16.5034	-160.7	-0.057342	0.689186	-0.377831	-0.379148	-0.036161	17.5627	-0.376286	-61173.1	5.911183E-7	NaN
736	1.000000	0.698510	7.37226e+06	-40289.1	1005.82	-29790.6	0.000000	0.000000	6.699036	-0.014721	NaN	0.000000	0.001610	0.001689	28.0816	0.111044	0.001990	55.7958	-77.118	-167.598	-0.027485	0.697166	-0.369824	-0.371168	-0.014721	55.7958	-0.369626	-49062.2	3.000457E-7	NaN
736	1.000000	0.706520	7.37226e+06	-40289.1	1005.82	-29790.6	0.000000	0.000000	6.707046	0.000991	NaN	0.000000	0.001613	0.001752	28.0817	0.035124	0.001912	18.3683	-65.1961	-165.311	-0.000936	0.705166	-0.361815	-0.363168	0.000991	18.3683	-0.361855	-37901	-2.614140E-8	NaN
736	1.000000	0.714498	7.37226e+06	-40289.1	1005.82	-29790.6	0.000000	0.000000	6.715024	-0.012691	NaN	0.000000	0.001610	0.001705	28.0815	0.023885	0.002016	11.848	99.4029	-163.997	-0.018032	0.713190	-0.353836	-0.355145	-0.012691	11.848	-0.353033	-28248.1	4.492711E-7	NaN
736	1.000000	0.722543	7.37226e+06	-40289.1	1005.82	-29790.6	0.000000	0.000000	6.723070	0.013725	NaN	0.000000	0.001626	0.001690	28.0831	0.019549	0.002044	9.564154	164.276	-162.175	0.005964	0.721195	-0.345791	-0.347139	0.013725	9.564154	-0.346868	-22988.4	-5.970395E-7	NaN
736	1.000000	0.730519	7.37226e+06	-40289.1	1005.82	-29790.6	0.000000	0.000000	6.731043	-0.056438	NaN	0.000000	0.001610	0.001772	28.083	0.046255	0.002000	23.1267	63.4044	-162.736	-0.068334	0.729208	-0.337815	-0.339127	-0.056438	23.1267	-0.335985	-15957.9	3.536695E-6	NaN
736	1.000000	0.738548	7.37226e+06	-40289.1	1005.82	-29790.6	0.000000	0.000000	6.739075	-0.003560	NaN	0.000000	0.001631	0.001689	28.0826	0.045544	0.001975	23.0547	-81.2007	-163.799	0.017889	0.737207	-0.329786	-0.331127	-0.003560	23.0547	-0.329670	-12901	2.759223E-7	NaN
736	1.000000	0.746514	7.37226e+06	-40289.1	1005.82	-29790.6	0.000000	0.000000	6.747039	-0.033697	NaN	0.000000	0.001628	0.001699	28.0829	0.099368	0.002061	48.2146	-130.793	-167.47	-0.032557	0.745236	-0.321821	-0.323098	-0.033697	48.2146	-0.321297	-9721.11	3.466416E-6	NaN
736	1.000000	0.754533	7.37226e+06	-40289.1	1005.82	-29790.6	0.000000	0.000000	6.755056	-0.093612	NaN	0.000000	0.001595	0.001736	28.0829	0.045124	0.002080	21.6964	106.588	-163.019	-0.141256	0.753157	-0.313801	-0.315177	-0.093612	21.6964	-0.310565	-6751.75	1.386486E-5	NaN
736	1.000000	0.762560	7.37226e+06	-40289.1	1005.82	-29790.6	0.000000	0.000000	6.763086	-0.007081	NaN	0.000000	0.001623	0.001692	28.0826	0.024944	0.002035	12.2582	-85.1139	-161.55	-0.005724	0.761160	-0.305775	-0.307174	-0.007081	12.2582	-0.305341	-5649.63	1.253443E-6	NaN
736	1.000000	0.770512	7.37226e+06	-40289.1	1005.82	-29790.6	0.000000	0.000000	6.771039	0.013746	NaN	0.000000	0.001624	0.001741	28.0827	0.059182	0.001945	30.4267	139.677	-167.99	0.011475	0.769192	-0.297822	-0.299142	0.013746	30.4267	-0.298161	-4418.22	-3.111242E-6	NaN
736	1.000000	0.778532	7.37226e+06	-40289.1	1005.82	-29790.6	0.000000	0.000000	6.779057	-0.049657	NaN	0.000000	0.001635	0.001718	28.0827	0.081789	0.001928	42.4288	-103.86	-167.591	-0.009843	0.777218	-0.289802	-0.291116	-0.049657	42.4288	-0.288924	-3215	1.544532E-5	NaN
736	1.000000	0.786548	7.37226e+06	-40289.1	1005.82	-29790.6	0.000000	0.000000	6.787072	-0.070750	NaN	0.000000	0.001622	0.001774	28.0829	0.021906	0.002020	10.8446	-34.1868	-164.571	-0.005343	0.785239	-0.281786	-0.283096	-0.070750	10.8446	-0.276893	-2118.57	3.339527E-5	NaN
736	1.000000	0.794548	7.37226e+06	-40289.1	1005.82	-29790.6	0.000000	0.000000	6.795074	-0.004216	NaN	0.000000	0.001634	0.001760	28.0829	0.013550	0.002051	6.605903	-137.89	-168.022	-0.104115	0.793248	-0.273786	-0.275086	-0.004216	6.605903	-0.273308	-1869.64	2.254832E-6	NaN
736	1.000000	0.802545	7.37226e+06	-40289.1	1005.82	-29790.6	0.000000	0.000000	6.803069	-0.052981	NaN	0.000000	0.001622	0.001764	28.0829	0.067517	0.001910	35.352	35.3495	-161.756	-0.040340	0.801225	-0.265789	-0.267109	-0.052981	35.352	-0.264665	-1381.27	3.835644E-5	NaN
736	1.000000	0.810534	7.37226e+06	-40289.1	1005.82	-29790.6	0.000000	0.000000	6.811057	-0.077426	NaN	0.000000	0.001636	0.001734	28.0829	0.048222	0.002033	23.7237	-83.9701	-165.927	-0.045620	0.809181	-0.257801	-0.259153	-0.077426	23.7237	-0.255353	-994.37	7.786413E-5	NaN
736	1.000000	0.818562	7.37226e+06	-40289.1	1005.82	-29790.6	0.000000	0.000000	6.819085	-0.070862	NaN	0.000000	0.001613	0.001755	28.083	0.035458	0.002007	17.6636	-131.52	-165.311	-0.074282	0.817228	-0.249773	-0.251106	-0.070862	17.6636	-0.246764	-732.552	9.673273E-5	NaN
736	1.000000	0.826562	7.37226e+06	-40289.1	1005.82	-29790.6	0.000000	0.000000	6.827089	-0.013450	NaN	0.000000	0.001602	0.001738	28.0828	0.064442	0.002072	31.0945	118.655	-165.428	0.031195	0.825266	-0.241772	-0.243069	-0.013450	31.0945	-0.241447	-605.541	2.221108E-5	NaN
736	1.000000	0.834552	7.37226e+06	-40289.1	1005.82	-29790.6	0.000000	0.000000	6.835077	-0.039491	NaN	0.000000	0.001638	0.001723	28.0829	0.110053	0.002065	53.2946	-60.4648	-165.278	-0.051827	0.833203	-0.233782	-0.235132	-0.039491	53.2946	-0.233226	-450.165	8.772466E-5	NaN
736	1.000000	0.842566	7.37226e+06	-40289.1	1005.82	-29790.6	0.000000	0.000000	6.843090	-0.046601	NaN	0.000000	0.001631	0.001687	28.0828	0.106982	0.001964	54.4851	-173.163	-161.224	-0.042269	0.841232	-0.225769	-0.227103	-0.046601	54.4851	-0.225127	-335.24	0.000139	NaN
736	1.000000	0.850573	7.37226e+06	-40289.1	1005.82	-29790.6	0.000000	0.000000	6.851099	0.000105	NaN	0.000000	0.001624	0.001738	28.0828	0.079210	0.001902	41.6534	-68.2464	-163.864	0.070477	0.849258	-0.217762	-0.219077	0.000105	41.6534	-0.217764	-255.791	-4.098695E-7	NaN
736	1.000000	0.858545	7.37226e+06	-40289.1	1005.82	-29790.6	0.000000	0.000000	6.859072	-0.001105	NaN	0.000000	0.001634	0.001699	28.0816	0.074740	0.001908	39.1639	-70.417	-162.671	-0.002589	0.857235	-0.209789	-0.211100	-0.001105	39.1639	-0.209768	-190.134	5.813167E-6	NaN
736	1.000000	0.866586	7.37226e+06	-40289.1	1005.82	-29790.6	0.000000	0.000000	6.867112	-0.017463	NaN	0.000000	0.001612	0.001694	28.0816	0.048977	0.001996	24.5375	-14.8547	-164.46	0.057254	0.865297	-0.201749	-0.203037	-0.017463	24.5375	-0.201215	-137.925	0.000127	NaN
736	1.000000	0.874598	7.37226e+06	-40289.1	1005.82	-29790.6	0.000000	0.000000	6.875124	-0.004448	NaN	0.000000	0.001611	0.001703	28.0815	0.074572	0.002096	35.5742	44.6452	-170.351	-0.029455	0.873261	-0.193737	-0.195073	-0.004448	35.5742	-0.193643	-103.441	4.300248E-5	NaN
736	1.000000	0.882602	7.37226e+06	-40289.1	1005.82	-29790.6	0.000000	0.000000	6.883128	-0.014975	NaN	0.000000	0.001641	0.001697	28.0814	0.104695	0.001973	53.0738	-147.95	-164.586	0.036674	0.881304	-0.185733	-0.187030	-0.014975	53.0738	-0.185521	-75.6678	0.000198	NaN
736	1.000000	0.890572	7.37226e+06	-40289.1	1005.82	-29790.6	0.000000	0.000000	6.891099	0.016801	NaN	0.000000	0.001623	0.001699	28.0815	0.092064	0.001972	46.6857	-84.9005	-163.51	-0.008907	0.889263	-0.177762	-0.179071	0.016801	46.6857	-0.178032	-56.4839	-0.000297	NaN
736	1.000000	0.898575	7.37226e+06	-40289.1	1005.82	-29790.6	0.000000	0.000000	6.899098	-0.091488	NaN	0.000000	0.001649	0.001730	28.0813	0.118477	0.001994	59.4177	29.6312	-166.467	-0.085632	0.897266	-0.169759	-0.171068	-0.091488	59.4177	-0.168605	-38.8459	0.002355	NaN
736	1.000000	0.906585	7.37226e+06	-40289.1	1005.82	-29790.6	0.000000	0.000000	6.907111	-0.020281	NaN	0.000000	0.001623	0.001761	28.0815	0.138940	0.002032	68.3718	137.765	-161.811	0.023941	0.905265	-0.161749	-0.163069	-0.020281	68.3718	-0.161527	-29.1786	0.000695	NaN
736	1.000000	0.914545	7.37226e+06	-40289.1	1005.82	-29790.6	0.000000	0.000000	6.915068	-0.095843	NaN	0.000000	0.001641	0.001740	28.0815	0.108168	0.001941	55.7238	38.5351	-164.593	-0.068352	0.913248	-0.153789	-0.155086	-0.095843	55.7238	-0.152499	-20.111	0.004766	NaN
736	1.000000	0.922569	7.37226e+06	-40289.1	1005.82	-29790.6	0.000000	0.000000	6.923090	-0.139049	NaN	0.000000	0.001622	0.001718	28.0815	0.080210	0.002068	38.7831	130.02	-168.06	-0.113281	0.921278	-0.145766	-0.147057	-0.139049	38.7831	-0.143077	-13.5046	0.010296	NaN
736	1.000000	0.930614	7.37226e+06	-40289.1	1005.82	-29790.6	0.000000	0.000000	6.931140	-0.022889	NaN	0.000000	0.001631	0.001718	28.0825	0.022471	0.002071	10.8524	-172.027	-168.682	0.058173	0.929348	-0.137720	-0.138987	-0.022889	10.8524	-0.136138	-9.999476	0.002289	NaN
736	1.000000	0.938581	7.37226e+06	-40289.1	1005.82	-29790.6	0.000000	0.000000	6.939106	-0.055544	NaN	0.000000	0.001664	0.001704	28.0819	0.002168	0.001930	1.123622	-102.744	-167.513	-0.025083	0.937309	-0.129753	-0.131025	-0.055544	1.123622	-0.092679	-1.247857	0.044511	NaN
736	1.000000	0.946610	7.37226e+06	-40289.1	1005.82	-29790.6	0.000000	0.000000	6.947136	-0.012276	NaN	0.000000	0.001606	0.001700	28.082	0.032812	0.001939	16.9223	158.364	-164.306	0.005371	0.945277	-0.121724	-0.123057	-0.012276	16.9223	-0.121180	-5.103194	0.002405	NaN
736	1.000000	0.954593	7.37226e+06	-40289.1	1005.82	-29790.6	0.000000	0.000000	6.955119	-0.022866	NaN	0.000000	0.001650	0.001710	28.0818	0.064159	0.001936	33.1464	2.706442	-165.035	-0.078249	0.953230	-0.113741	-0.115104	-0.022866	33.1464	-0.113224	-3.510337	0.006514	NaN
736	1.000000	0.962629	7.37226e+06	-40289.1	1005.82	-29790.6	0.000000	0.000000	6.963154	-0.044255	NaN	0.000000	0.001633	0.001699	28.0817	0.064018	0.002100	30.4834	134.218	-162.153	-0.043576	0.961288	-0.105705	-0.107046	-0.044255	30.4834	-0.104617	-2.306120	0.019190	NaN
736	1.000000	0.970592	7.37226e+06	-40289.1	1005.82	-29790.6	0.000000	0.000000	6.971117	-0.046033	NaN	0.000000	0.001643	0.001710	28.0819	0.070467	0.002118	33.2673	129.236	-163.844	-0.112990	0.969300	-0.097742	-0.099034	-0.046033	33.2673	-0.096704	-1.541911	0.029854	NaN
736	1.000000	0.978646	7.37226e+06	-40289.1	1005.82	-29790.6	0.000000	0.000000	6.979175	0.056465	NaN	0.000000	0.001621	0.001701	28.0818	0.056496	0.001971	28.6641	-24.5971	-163.972	0.002120	0.977300	-0.089689	-0.091035	0.056465	28.6641	-0.091166	-1.151014	-0.049057	NaN
736	1.000000	0.986617	7.37226e+06	-40289.1	1005.82	-29790.6	0.000000	0.000000	6.987141	-0.043819	NaN	0.000000	0.001617	0.001721	28.0817	0.088661	0.001980	44.7749	104.569	-164.917	-0.037767	0.985321	-0.081718	-0.083014	-0.043819	44.7749	-0.080984	-0.654942	0.066905	NaN
736	1.000000	0.994587	7.37226e+06	-40289.1	1005.82	-29790.6	0.000000	0.000000	6.995112	-0.040439	NaN	0.000000	0.001607	0.001713	28.0832	0.064709	0.001963	32.9559	-13.4439	-163.802	-0.046244	0.993276	-0.073747	-0.075058	-0.040439	32.9559	-0.072827	-0.405391	0.099753	NaN
736	1.000000	1.002619	7.37226e+06	-40289.1	1005.82	-29790.6	0.000000	0.000000	7.003145	-0.009125	NaN	0.000000	0.001610	0.001697	28.083	0.048938	0.002028	24.1308	-106.888	-164.524	0.026792	1.001308	-0.065715	-0.067026	-0.009125	24.1308	-0.065432	-0.256171	0.035620	NaN
736	1.000000	1.010605	7.37226e+06	-40289.1	1005.82	-29790.6	0.000000	0.000000	7.011132	0.003784	NaN	0.000000	0.001629	0.001715	28.0832	0.072194	0.002055	35.1304	69.906	-165.066	-0.071449	1.009298	-0.057729	-0.059036	0.003784	35.1304	-0.057810	-0.155680	-0.024305	NaN
736	1.000000	1.018619	7.37226e+06	-40289.1	1005.82	-29790.6	0.000000	0.000000	7.019145	-0.021645	NaN	0.000000	0.001646	0.001709	28.0831	0.084689	0.002016	42.0102	-33.1469	-167.591	0.033419	1.017307	-0.049715	-0.051028	-0.021645	42.0102	-0.049329	-0.087080	0.248562	NaN
736	1.000000	1.026598	7.37226e+06	-40289.1	1005.82	-29790.6	0.000000	0.000000	7.027124	-0.001143	NaN	0.000000	0.001625	0.001704	28.0832	0.064550	0.002014	32.0558	-161.548	-166.866	-0.026092	1.025299	-0.041736	-0.043036	-0.001143	32.0558	-0.041710	-0.050981	0.022423	NaN
736	1.000000	1.034662	7.37226e+06	-40289.1	1005.82	-29790.6	0.000000	0.000000	7.035189	0.014416	NaN	0.000000	0.001656	0.001725	28.0834	0.050727	0.001947	26.0478	-52.7711	-163.463	0.006801	1.033348	-0.033673	-0.034987	0.014416	26.0478	-0.034088	-0.030111	-0.478750	NaN
736	1.000000	1.042624	7.37226e+06	-40289.1	1005.82	-29790.6	0.000000	0.000000	7.043169	0.457753	NaN	0.000000	0.001644	0.001723	28.0832	0.626537	0.002167	289.185	18.1741	-164.984	0.237331	1.041288	-0.025711	-0.027046	0.457753	289.185	-0.026898	-0.018935	-24.1746	NaN
736	1.000000	1.050624	7.37226e+06	-40289.1	1005.82	-29790.6	0.000000	0.000000	7.051270	2.912414	NaN	0.000000	0.001611	0.001709	28.0832	1.771886	0.002029	873.163	8.078513	-166.789	2.301625	1.049325	-0.017711	-0.019009	2.912414	873.163	-0.020212	-0.012718	-228.999	NaN
736	1.000000	1.058644	7.37226e+06	-40289.1	1005.82	-29790.6	0.000000	0.000000	7.059380	5.101938	NaN	0.000000	0.001606	0.001707	28.0829	2.689364	0.001966	1367.67	11.1647	-163.435	5.267522	1.057345	-0.009690	-0.010990	5.101938	1367.67	-0.012488	-0.007808	-653.438	NaN
736	1.000000	1.066646	7.37226e+06	-40289.1	1005.82	-29790.6	0.000000	0.000000	7.067450	6.763769	NaN	0.000000	0.001624	0.001723	28.0828	3.931264	0.002010	1956.16	16.1107	-171.039	6.242868	1.065321	-0.001689	-0.003013	6.763769	1956.16	-0.004282	-0.002961	-2284.6	NaN
736	2.000000	1.074079	7.37226e+06	-40289.1	1005.82	-29790.6	0.000000	0.000000	7.074916	7.555772	NaN	0.000000	0.001637	0.001767	28.083	5.762516	0.001886	3054.9	13.2202	-171.491	8.002498	1.073318	0.005745	0.004984	7.555772	3054.9	0.003890	0.003142	2404.47	49789.9
736	2.000000	1.076221	7.37226e+06	-40289.1	1005.82	-29790.6	0.000000	0.000000	7.077090	8.341059	NaN	0.000000	0.001592	0.001735	28.0832	6.559027	0.001820	3604.72	6.862556	-168.802	8.329735	1.075956	0.007886	0.007622	8.341059	3604.72	0.006151	0.005208	1601.48	45634.6
736	2.000000	1.078195	7.37226e+06	-40289.1	1005.82	-29790.6	0.000000	0.000000	7.079105	9.328988	NaN	0.000000	0.001644	0.001737	28.0831	8.122363	0.001705	4763.95	8.357925	-172.439	9.013136	1.077902	0.009861	0.009568	9.328988	4763.95	0.008392	0.007449	1252.4	50430.7
736	2.000000	1.080172	7.37226e+06	-40289.1	1005.82	-29790.6	0.000000	0.000000	7.081140	10.7563	NaN	0.000000	0.001661	0.001693	28.0829	9.773288	0.001907	5124.91	8.428123	-172.625	10.8535	1.079898	0.011837	0.011564	10.7563	5124.91	0.010263	0.009475	1135.17	48101.5
736	2.000000	1.082184	7.37226e+06	-40289.1	1005.82	-29790.6	0.000000	0.000000	7.083233	12.7109	NaN	0.000000	0.001614	0.001726	28.0829	11.4167	0.001791	6375.27	8.830682	-174.738	12.1444	1.081919	0.013850	0.013585	12.7109	6375.27	0.012355	0.011918	1066.55	53355
736	2.000000	1.084137	7.37226e+06	-40289.1	1005.82	-29790.6	0.000000	0.000000	7.085273	14.8157	NaN	0.000000	0.001615	0.001762	28.0828	12.7644	0.001863	6852.22	7.977336	-172.969	14.0614	1.083868	0.015803	0.015533	14.8157	6852.22	0.014182	0.014209	1042.67	52519
736	2.000000	1.086174	7.37226e+06	-40289.1	1005.82	-29790.6	0.000000	0.000000	7.087438	17.9434	NaN	0.000000	0.001652	0.001722	28.0832	14.5593	0.001817	8013.14	8.018721	-174.824	18.5246	1.085841	0.017840	0.017507	17.9434	8013.14	0.016160	0.016864	1064.02	56376.6
736	2.000000	1.088145	7.37226e+06	-40289.1	1005.82	-29790.6	0.000000	0.000000	7.089544	21.2344	NaN	0.000000	0.001622	0.001755	28.0818	15.4742	0.001671	9260.94	6.974864	-176.5	20.4443	1.087773	0.019811	0.019439	21.2344	9260.94	0.018091	0.019631	1081.66	60388.4
736	2.000000	1.090153	7.37226e+06	-40289.1	1005.82	-29790.6	0.000000	0.000000	7.091613	22.7026	NaN	0.000000	0.001637	0.001780	28.0816	18.3042	0.001800	10169.9	6.359270	-174.818	23.0499	1.089873	0.021819	0.021539	22.7026	10169.9	0.020145	0.022770	997.022	61574.7
736	2.000000	1.092144	7.37226e+06	-40289.1	1005.82	-29790.6	0.000000	0.000000	7.093876	29.3404	NaN	0.000000	0.001634	0.001753	28.0816	20.615	0.001756	11737	4.357420	-174.971	28.3217	1.091811	0.023810	0.023477	29.3404	11737	0.021935	0.025674	1142.79	66923.8
736	2.000000	1.094169	7.37226e+06	-40289.1	1005.82	-29790.6	0.000000	0.000000	7.095985	31.3823	NaN	0.000000	0.001585	0.001741	28.0814	22.0396	0.001725	12774.3	4.151699	-175.175	32.1823	1.093844	0.025834	0.025510	31.3823	12774.3	0.023992	0.029207	1074.47	68291.3
736	2.000000	1.096154	7.37226e+06	-40289.1	1005.82	-29790.6	0.000000	0.000000	7.098167	36.1738	NaN	0.000000	0.001586	0.001766	28.0816	25.0184	0.001842	13579	6.900592	-177.183	37.3922	1.095840	0.027820	0.027506	36.1738	13579	0.025822	0.032528	1112.09	68788.4
736	2.000000	1.098105	7.37226e+06	-40289.1	1005.82	-29790.6	0.000000	0.000000	7.100315	40.9533	NaN	0.000000	0.001615	0.001769	28.0816	26.0837	0.001643	15874	3.452584	-177.651	39.7016	1.097820	0.029771	0.029486	40.9533	15874	0.027836	0.036377	1125.79	76040.2
736	2.000000	1.100143	7.37226e+06	-40289.1	1005.82	-29790.6	0.000000	0.000000	7.102561	46.0266	NaN	0.000000	0.001580	0.001711	28.0819	27.7668	0.001774	15649.3	2.037717	-175.043	45.0647	1.099777	0.031809	0.031443	46.0266	15649.3	0.029603	0.039925	1152.82	71555.7
736	2.000000	1.102158	7.37226e+06	-40289.1	1005.82	-29790.6	0.000000	0.000000	7.104973	55.6898	NaN	0.000000	0.001596	0.001734	28.0817	30.5008	0.001828	16685	3.961759	-176.895	53.799	1.101782	0.033824	0.033448	55.6898	16685	0.031320	0.043525	1279.5	73068.8
736	2.000000	1.104095	7.37226e+06	-40289.1	1005.82	-29790.6	0.000000	0.000000	7.107084	59.8996	NaN	0.000000	0.001633	0.001724	28.0815	31.6744	0.001756	18034.1	4.547085	-178.407	59.2266	1.103797	0.035761	0.035462	59.8996	18034.1	0.033270	0.047795	1253.27	75366.5
736	2.000000	1.106098	7.37226e+06	-40289.1	1005.82	-29790.6	0.000000	0.000000	7.109346	66.2183	NaN	0.000000	0.001600	0.001708	28.082	34.9992	0.001781	19651.6	4.161071	-179.651	65.0653	1.105795	0.037764	0.037461	66.2183	19651.6	0.035236	0.052298	1266.17	78510.7
736	2.000000	1.108124	7.37226e+06	-40289.1	1005.82	-29790.6	0.000000	0.000000	7.111546	70.4739	NaN	0.000000	0.001587	0.001748	28.0815	36.1088	0.001769	20408.5	3.391277	-178.93	69.0062	1.107774	0.039789	0.039440	70.4739	20408.5	0.037200	0.056992	1236.57	78105.2
736	2.000000	1.110104	7.37226e+06	-40289.1	1005.82	-29790.6	0.000000	0.000000	7.113819	77.5713	NaN	0.000000	0.001609	0.001687	28.0818	38.5431	0.001807	21331.6	6.594193	177.13	76.5025	1.109741	0.041770	0.041407	77.5713	21331.6	0.039043	0.061578	1259.72	78538.8
736	2.000000	1.112130	7.37226e+06	-40289.1	1005.82	-29790.6	0.000000	0.000000	7.116235	87.0712	NaN	0.000000	0.001589	0.001715	28.0814	40.0104	0.001783	22443	7.998601	175.861	87.2076	1.111735	0.043796	0.043401	87.0712	22443	0.040886	0.066339	1312.52	79610.1
736	2.000000	1.114097	7.37226e+06	-40289.1	1005.82	-29790.6	0.000000	0.000000	7.118546	95.451	NaN	0.000000	0.001601	0.001696	28.0812	41.5078	0.001777	23360.4	3.810501	179.318	94.6618	1.113801	0.045762	0.045466	95.451	23360.4	0.042698	0.071186	1340.87	79993.9
736	2.000000	1.116124	7.37226e+06	-40289.1	1005.82	-29790.6	0.000000	0.000000	7.120790	100.719	NaN	0.000000	0.001617	0.001717	28.0817	43.7775	0.001763	24835.5	3.156732	178.873	99.8546	1.115863	0.047790	0.047529	100.719	24835.5	0.044748	0.076874	1310.18	81838.4
736	2.000000	1.118106	7.37226e+06	-40289.1	1005.82	-29790.6	0.000000	0.000000	7.123278	113.042	NaN	0.000000	0.001603	0.001747	28.0813	44.6993	0.001749	25554.4	3.685922	178.453	113.355	1.117749	0.049772	0.049415	113.042	25554.4	0.046454	0.081769	1382.46	81647.9
736	2.000000	1.120076	7.37226e+06	-40289.1	1005.82	-29790.6	0.000000	0.000000	7.125590	121.352	NaN	0.000000	0.001583	0.001728	28.0814	47.2599	0.001869	25285.2	2.382178	-179.509	119.503	1.119691	0.051742	0.051357	121.352	25285.2	0.048143	0.086759	1398.72	78430
736	2.000000	1.122134	7.37226e+06	-40289.1	1005.82	-29790.6	0.000000	0.000000	7.127972	129.262	NaN	0.000000	0.001599	0.001733	28.0826	49.3615	0.001810	27272.5	6.009896	177.547	129.881	1.121722	0.053800	0.053388	129.262	27272.5	0.050245	0.093171	1387.36	81631.2
736	2.000000	1.124047	7.37226e+06	-40289.1	1005.82	-29790.6	0.000000	0.000000	7.130247	138.06	NaN	0.000000	0.001625	0.001745	28.0823	50.3433	0.001712	29405.4	6.249889	174.347	134.793	1.123821	0.055712	0.055487	138.06	29405.4	0.052191	0.099305	1390.26	85253.7
736	2.000000	1.126097	7.37226e+06	-40289.1	1005.82	-29790.6	0.000000	0.000000	7.132624	146.011	NaN	0.000000	0.001592	0.001742	28.083	52.4162	0.001836	28555	0.757413	-179.24	144.314	1.125821	0.057763	0.057486	146.011	28555	0.053928	0.104940	1391.37	80535
736	2.000000	1.128009	7.37226e+06	-40289.1	1005.82	-29790.6	0.000000	0.000000	7.134995	157.201	NaN	0.000000	0.001642	0.001747	28.0826	53.9562	0.001802	29944.5	1.867600	179.37	152.599	1.127686	0.059674	0.059352	157.201	29944.5	0.055737	0.110967	1416.65	82128.4
736	2.000000	1.130015	7.37226e+06	-40289.1	1005.82	-29790.6	0.000000	0.000000	7.137709	174.414	NaN	0.000000	0.001625	0.001741	28.0828	56.323	0.001728	32587.8	2.248093	177.982	170.994	1.129682	0.061681	0.061348	174.414	32587.8	0.057667	0.117575	1483.42	86830
736	2.000000	1.132145	7.37226e+06	-40289.1	1005.82	-29790.6	0.000000	0.000000	7.140275	185.018	NaN	0.000000	0.001667	0.001706	28.0827	59.7971	0.001857	32206.8	9.508531	173.216	186.545	1.131638	0.063811	0.063304	185.018	32206.8	0.059502	0.124029	1491.73	83552.6
736	2.000000	1.134083	7.37226e+06	-40289.1	1005.82	-29790.6	0.000000	0.000000	7.142685	196.522	NaN	0.000000	0.001633	0.001709	28.0825	61.027	0.001920	31792.8	6.348801	174.894	196.148	1.133673	0.065749	0.065339	196.522	31792.8	0.061113	0.129828	1513.71	80615.3
736	2.000000	1.136002	7.37226e+06	-40289.1	1005.82	-29790.6	0.000000	0.000000	7.145231	211.76	NaN	0.000000	0.001635	0.001707	28.0831	61.7644	0.001671	36961.7	1.499463	178.675	207.031	1.135624	0.067667	0.067289	211.76	36961.7	0.063371	0.138171	1532.59	90848.1
736	2.000000	1.138113	7.37226e+06	-40289.1	1005.82	-29790.6	0.000000	0.000000	7.147490	215.359	NaN	0.000000	0.001615	0.001740	28.0825	63.7501	0.001721	37048.4	6.483081	172.76	219.316	1.137720	0.069779	0.069385	215.359	37048.4	0.065419	0.145956	1475.51	88599.7
736	2.000000	1.139984	7.37226e+06	-40289.1	1005.82	-29790.6	0.000000	0.000000	7.150083	232.919	NaN	0.000000	0.001636	0.001706	28.0827	65.7689	0.001779	36963.1	4.787621	174.611	227.818	1.139791	0.071650	0.071457	232.919	36963.1	0.066924	0.151800	1534.38	86677.4
736	2.000000	1.142070	7.37226e+06	-40289.1	1005.82	-29790.6	0.000000	0.000000	7.152879	250.199	NaN	0.000000	0.001624	0.001709	28.0826	67.8733	0.001790	37916.5	3.683484	175.34	248.438	1.141792	0.073736	0.073457	250.199	37916.5	0.068787	0.159188	1571.72	86825.2
736	2.000000	1.143979	7.37226e+06	-40289.1	1005.82	-29790.6	0.000000	0.000000	7.155139	258.745	NaN	0.000000	0.001628	0.001690	28.0824	69.1783	0.001664	41573.5	3.837793	174.399	253.31	1.143761	0.075645	0.075427	258.745	41573.5	0.070977	0.168084	1539.38	92645.9
736	2.000000	1.146059	7.37226e+06	-40289.1	1005.82	-29790.6	0.000000	0.000000	7.157942	276.366	NaN	0.000000	0.001624	0.001656	28.0827	72.7967	0.001670	43599.4	2.065539	176.4	275.264	1.145658	0.077724	0.077324	276.366	43599.4	0.072970	0.176380	1566.88	94848.3
736	2.000000	1.148119	7.37226e+06	-40289.1	1005.82	-29790.6	0.000000	0.000000	7.160325	284.217	NaN	0.000000	0.001591	0.001763	28.0824	73.9651	0.001743	42443.5	3.429532	175.104	285.953	1.147791	0.079784	0.079457	284.217	42443.5	0.074762	0.183997	1544.68	90402
736	2.000000	1.150086	7.37226e+06	-40289.1	1005.82	-29790.6	0.000000	0.000000	7.162866	298.17	NaN	0.000000	0.001597	0.001726	28.0827	76.7559	0.001796	42737	4.881576	174.194	299.796	1.149736	0.081751	0.081402	298.17	42737	0.076519	0.191612	1556.12	89200.4
736	2.000000	1.152034	7.37226e+06	-40289.1	1005.82	-29790.6	0.000000	0.000000	7.165166	306.729	NaN	0.000000	0.001603	0.001778	28.0824	78.9485	0.001798	43904.9	4.111452	174.385	302.741	1.151782	0.083700	0.083448	306.729	43904.9	0.078461	0.200197	1532.14	89651.5
736	2.000000	1.154023	7.37226e+06	-40289.1	1005.82	-29790.6	0.000000	0.000000	7.167625	318.17	NaN	0.000000	0.001628	0.001720	28.0825	80.8396	0.001886	42866.7	6.537285	172.173	314.709	1.153699	0.085689	0.085364	318.17	42866.7	0.080122	0.207684	1531.99	85939.2
736	2.000000	1.156009	7.37226e+06	-40289.1	1005.82	-29790.6	0.000000	0.000000	7.169975	327.029	NaN	0.000000	0.001591	0.001765	28.0814	82.2294	0.001808	45475.1	2.764271	175.613	325.238	1.155674	0.087675	0.087340	327.029	45475.1	0.082281	0.217602	1502.87	89066.7
736	2.000000	1.158039	7.37226e+06	-40289.1	1005.82	-29790.6	0.000000	0.000000	7.172427	337.292	NaN	0.000000	0.001613	0.001720	28.0812	82.3684	0.001719	47911.4	2.419975	175.323	335.352	1.157701	0.089705	0.089367	337.292	47911.4	0.084425	0.227667	1481.51	91740.6
736	2.000000	1.160030	7.37226e+06	-40289.1	1005.82	-29790.6	0.000000	0.000000	7.175033	352.27	NaN	0.000000	0.001602	0.001726	28.0814	85.5411	0.001801	47486.2	3.641667	174.019	352.31	1.159777	0.091696	0.091443	352.27	47486.2	0.086132	0.235832	1493.73	89338.6
736	2.000000	1.162023	7.37226e+06	-40289.1	1005.82	-29790.6	0.000000	0.000000	7.177569	365.484	NaN	0.000000	0.001645	0.001692	28.081	86.9193	0.001851	46950.9	4.501152	173.786	363.177	1.161813	0.093688	0.093479	365.484	46950.9	0.087850	0.244185	1496.75	86807.7
736	2.000000	1.164003	7.37226e+06	-40289.1	1005.82	-29790.6	0.000000	0.000000	7.180340	384.744	NaN	0.000000	0.001602	0.001690	28.081	88.3039	0.001904	46371.4	4.407296	173.969	381.259	1.163557	0.095668	0.095223	384.744	46371.4	0.089446	0.252064	1526.37	84385.5
736	2.000000	1.166073	7.37226e+06	-40289.1	1005.82	-29790.6	0.000000	0.000000	7.182655	390.679	NaN	0.000000	0.001602	0.001688	28.0811	90.6445	0.001872	48414.6	5.884431	171.671	391.012	1.165834	0.097739	0.097499	390.679	48414.6	0.091687	0.263329	1483.62	86198.7
736	2.000000	1.168049	7.37226e+06	-40289.1	1005.82	-29790.6	0.000000	0.000000	7.185338	407.904	NaN	0.000000	0.001635	0.001673	28.0811	90.5495	0.001701	53247.2	5.577110	171.295	406.978	1.167615	0.099714	0.099281	407.904	53247.2	0.093969	0.275036	1483.09	92763
736	2.000000	1.170006	7.37226e+06	-40289.1	1005.82	-29790.6	0.000000	0.000000	7.188005	425.155	NaN	0.000000	0.001653	0.001672	28.0814	93.1673	0.001789	52087.3	4.612617	172.38	422.93	1.169685	0.101672	0.101350	425.155	52087.3	0.095550	0.283289	1500.78	89410.9
736	2.000000	1.172057	7.37226e+06	-40289.1	1005.82	-29790.6	0.000000	0.000000	7.190378	433.005	NaN	0.000000	0.001627	0.001719	28.0815	94.7135	0.001964	48230.3	2.111262	175.997	430.325	1.171773	0.103722	0.103439	433.005	48230.3	0.096989	0.290895	1488.53	81700.6
736	2.000000	1.172495	7.37226e+06	-40289.1	1005.82	-29790.6	0.000000	0.000000	7.190982	437.04	NaN	0.000000	0.001639	0.001720	28.0813	95.8627	0.001865	51393.5	4.641730	-7.094724	433.624	1.172167	0.104161	0.103833	437.04	51393.5	0.097783	0.295133	1480.82	86431.6