File: remote_trans/data/nanoindenter/0828-1/data/Data_2025-08-06,11h17m57s/2025-07-22_16-23-58_1_600.txt
2025-07-22, 16:23:58, 1
Index	Phase	Displacement	Time	Pos X	Pos Y	Pos Z	Rot A	Rot B	Piezo Z	Force A	Force B	Gripper	Voltage A	Voltage B	Temperature	Amplitude force	Amplitude pos	Stiffness	Phase shift	Phase excitation	Force A raw	Displacement raw	HMax	HMax raw	Real Force	Real Stiffness	Contact Depth	Area	Hardness	Reduced Mod.
[#]	[#]	[um]	[s]	[um]	[um]	[um]	[m°]	[m°]	[um]	[uN]	[uN]	[V]	[V]	[V]	[°C]	[uN]	[um]	[N/m]	[°]	[°]	[uN]	[um]	[um]	[um]	[uN]	[N/m]	[um]	[um^2]	[MPa]	[MPa]
600	1.000000	0.002792	7.37092e+06	-47089.1	1005.82	-29767.1	0.000000	0.000000	6.002785	0.039270	NaN	0.000000	0.001573	0.001802	28.0791	0.024987	0.000962	25.9836	167.686	-167.246	0.016345	0.001518	-1.129734	-1.131008	0.039270	25.9836	-1.130868	-1.300951E+15	-3.018548E-17	NaN
600	1.000000	0.012877	7.37092e+06	-47089.1	1005.82	-29767.1	0.000000	0.000000	6.012872	0.090355	NaN	0.000000	0.001599	0.001779	28.0793	0.019334	0.001158	16.7002	-125.402	16.0313	0.031750	0.011448	-1.119650	-1.121079	0.090355	16.7002	-1.123707	-1.042821E+15	-8.664453E-17	NaN
600	1.000000	0.022744	7.37092e+06	-47089.1	1005.82	-29767.1	0.000000	0.000000	6.022739	0.092539	NaN	0.000000	0.001631	0.001756	28.0792	0.055353	0.001742	31.771	113.19	-162.748	0.095964	0.021420	-1.109782	-1.111106	0.092539	31.771	-1.111967	-7.255734E+14	-1.275393E-16	NaN
600	1.000000	0.032773	7.37092e+06	-47089.1	1005.82	-29767.1	0.000000	0.000000	6.032764	-0.012158	NaN	0.000000	0.001626	0.001737	28.0794	0.068423	0.001932	35.4085	-24.4134	12.1933	-0.107464	0.031370	-1.099753	-1.101157	-0.012158	35.4085	-1.099496	-4.935127E+14	2.463632E-17	NaN
600	1.000000	0.042752	7.37092e+06	-47089.1	1005.82	-29767.1	0.000000	0.000000	6.042742	-0.031005	NaN	0.000000	0.001580	0.001770	28.0786	0.047598	0.001990	23.916	-3.573668	-167.614	-0.030316	0.041435	-1.089774	-1.091091	-0.031005	23.916	-1.088802	-3.545844E+14	8.744177E-17	NaN
600	1.000000	0.052766	7.37092e+06	-47089.1	1005.82	-29767.1	0.000000	0.000000	6.052754	-0.073988	NaN	0.000000	0.001613	0.001738	28.0792	0.033008	0.001882	17.5364	-85.8838	14.2158	-0.109384	0.051407	-1.079760	-1.081120	-0.073988	17.5364	-1.076596	-2.431055E+14	3.043433E-16	NaN
600	1.000000	0.062735	7.37092e+06	-47089.1	1005.82	-29767.1	0.000000	0.000000	6.062725	-0.019960	NaN	0.000000	0.001598	0.001783	28.079	0.107145	0.001890	56.6919	-31.8584	-165.403	0.012607	0.061446	-1.069791	-1.071080	-0.019960	56.6919	-1.069527	-1.953600E+14	1.021705E-16	NaN
600	1.000000	0.072766	7.37092e+06	-47089.1	1005.82	-29767.1	0.000000	0.000000	6.072755	-0.040072	NaN	0.000000	0.001624	0.001764	28.0795	0.101576	0.002090	48.609	126.279	14.8841	-0.023218	0.071352	-1.059761	-1.061174	-0.040072	48.609	-1.059142	-1.416754E+14	2.828461E-16	NaN
600	1.000000	0.082779	7.37092e+06	-47089.1	1005.82	-29767.1	0.000000	0.000000	6.082770	-0.012195	NaN	0.000000	0.001560	0.001781	28.0791	0.076200	0.001923	39.6311	-98.865	-164.576	0.074589	0.081421	-1.049747	-1.051105	-0.012195	39.6311	-1.049516	-1.051753E+14	1.159455E-16	NaN
600	1.000000	0.092782	7.37092e+06	-47089.1	1005.82	-29767.1	0.000000	0.000000	6.092770	-0.095422	NaN	0.000000	0.001635	0.001808	28.0794	0.057061	0.002014	28.3252	84.2518	11.5061	-0.064685	0.091454	-1.039744	-1.041072	-0.095422	28.3252	-1.037217	-7.187025E+13	1.327698E-15	NaN
600	1.000000	0.102795	7.37092e+06	-47089.1	1005.82	-29767.1	0.000000	0.000000	6.102783	-0.076099	NaN	0.000000	0.001606	0.001747	28.0792	0.025747	0.001999	12.8827	-82.8457	-167.913	0.015603	0.101537	-1.029731	-1.030989	-0.076099	12.8827	-1.025301	-4.968957E+13	1.531494E-15	NaN
600	1.000000	0.112744	7.37092e+06	-47089.1	1005.82	-29767.1	0.000000	0.000000	6.112734	-0.020120	NaN	0.000000	0.001603	0.001791	28.0807	0.028951	0.002015	14.3712	0.524580	12.8473	0.064941	0.111381	-1.019782	-1.021145	-0.020120	14.3712	-1.018732	-4.054116E+13	4.962743E-16	NaN
600	1.000000	0.122789	7.37092e+06	-47089.1	1005.82	-29767.1	0.000000	0.000000	6.122783	0.068011	NaN	0.000000	0.001621	0.001754	28.0804	0.099408	0.002087	47.6232	-172.806	-165.745	0.031905	0.121501	-1.009737	-1.011025	0.068011	47.6232	-1.010808	-3.171454E+13	-2.144475E-15	NaN
600	1.000000	0.132757	7.37092e+06	-47089.1	1005.82	-29767.1	0.000000	0.000000	6.132745	-0.079618	NaN	0.000000	0.001562	0.001761	28.0808	0.002795	0.001912	1.461617	65.0529	12.1891	-0.090437	0.131421	-0.999769	-1.001105	-0.079618	1.461617	-0.958915	-6.342132E+12	1.255382E-14	NaN
600	1.000000	0.142807	7.37092e+06	-47089.1	1005.82	-29767.1	0.000000	0.000000	6.142797	-0.031419	NaN	0.000000	0.001580	0.001752	28.0805	0.091816	0.001969	46.6207	171.761	-166.681	0.046545	0.141534	-0.989719	-0.990992	-0.031419	46.6207	-0.989214	-1.623763E+13	1.934966E-15	NaN
600	1.000000	0.152819	7.37092e+06	-47089.1	1005.82	-29767.1	0.000000	0.000000	6.152810	-0.004612	NaN	0.000000	0.001563	0.001767	28.0804	0.040786	0.001976	20.6451	177.789	12.33	0.053433	0.151431	-0.979707	-0.981095	-0.004612	20.6451	-0.979539	-1.202827E+13	3.834330E-16	NaN
600	1.000000	0.162800	7.37092e+06	-47089.1	1005.82	-29767.1	0.000000	0.000000	6.162791	-0.005616	NaN	0.000000	0.001565	0.001819	28.0803	0.041869	0.002117	19.776	140.494	-164.332	-0.005644	0.161474	-0.969726	-0.971052	-0.005616	19.776	-0.969513	-8.812462E+12	6.373268E-16	NaN
600	1.000000	0.172796	7.37092e+06	-47089.1	1005.82	-29767.1	0.000000	0.000000	6.172787	-0.025142	NaN	0.000000	0.001592	0.001770	28.0801	0.064720	0.001944	33.2989	-21.0196	14.1816	-0.034633	0.171458	-0.959730	-0.961068	-0.025142	33.2989	-0.959163	-6.391334E+12	3.933716E-15	NaN
600	1.000000	0.182829	7.37092e+06	-47089.1	1005.82	-29767.1	0.000000	0.000000	6.182822	0.020670	NaN	0.000000	0.001579	0.001779	28.0805	0.071816	0.001983	36.2094	130.621	-166.413	-0.031083	0.181532	-0.949697	-0.950994	0.020670	36.2094	-0.950125	-4.827373E+12	-4.281916E-15	NaN
600	1.000000	0.192818	7.37092e+06	-47089.1	1005.82	-29767.1	0.000000	0.000000	6.192806	-0.071849	NaN	0.000000	0.001530	0.001813	28.0803	0.067448	0.002100	32.1127	81.7112	11.1364	-0.004495	0.191481	-0.939708	-0.941045	-0.071849	32.1127	-0.938030	-3.315604E+12	2.167000E-14	NaN
600	1.000000	0.202811	7.37092e+06	-47089.1	1005.82	-29767.1	0.000000	0.000000	6.202800	-0.061680	NaN	0.000000	0.001561	0.001782	28.0804	0.066698	0.001945	34.2849	-154.006	-166.658	0.007464	0.201465	-0.929715	-0.931062	-0.061680	34.2849	-0.928366	-2.455485E+12	2.511917E-14	NaN
600	1.000000	0.212850	7.37092e+06	-47089.1	1005.82	-29767.1	0.000000	0.000000	6.212842	0.027095	NaN	0.000000	0.001550	0.001785	28.0804	0.081366	0.001947	41.7924	-128.978	15.6463	-0.032239	0.211440	-0.919676	-0.921086	0.027095	41.7924	-0.920162	-1.902826E+12	-1.423924E-14	NaN
600	1.000000	0.222817	7.37092e+06	-47089.1	1005.82	-29767.1	0.000000	0.000000	6.222807	-0.015712	NaN	0.000000	0.001544	0.001751	28.0805	0.041786	0.001925	21.7062	126.436	-170.507	-0.036558	0.221498	-0.909710	-0.911028	-0.015712	21.7062	-0.909167	-1.351781E+12	1.162324E-14	NaN
600	1.000000	0.232850	7.37092e+06	-47089.1	1005.82	-29767.1	0.000000	0.000000	6.232840	-0.031046	NaN	0.000000	0.001566	0.001782	28.0802	0.116516	0.002034	57.2815	-2.064182	14.9781	-0.064548	0.231416	-0.899676	-0.901110	-0.031046	57.2815	-0.899269	-9.935540E+11	3.124703E-14	NaN
600	1.000000	0.242854	7.37092e+06	-47089.1	1005.82	-29767.1	0.000000	0.000000	6.242848	0.062855	NaN	0.000000	0.001588	0.001773	28.0803	0.031641	0.001963	16.1178	-138.42	-162.119	-0.041349	0.241536	-0.889672	-0.890990	0.062855	16.1178	-0.892597	-8.072725E+11	-7.786041E-14	NaN
600	1.000000	0.252845	7.37092e+06	-47089.1	1005.82	-29767.1	0.000000	0.000000	6.252835	-0.039807	NaN	0.000000	0.001580	0.001768	28.0792	0.047173	0.002074	22.7413	-117.539	16.0689	-0.056439	0.251466	-0.879681	-0.881060	-0.039807	22.7413	-0.878368	-5.183657E+11	7.679385E-14	NaN
600	1.000000	0.262849	7.37092e+06	-47089.1	1005.82	-29767.1	0.000000	0.000000	6.262837	-0.082451	NaN	0.000000	0.001591	0.001744	28.0793	0.088054	0.001922	45.8204	78.9369	-168.512	-0.084325	0.261510	-0.869677	-0.871016	-0.082451	45.8204	-0.868328	-3.791548E+11	2.174600E-13	NaN
600	1.000000	0.272862	7.37092e+06	-47089.1	1005.82	-29767.1	0.000000	0.000000	6.272851	-0.059777	NaN	0.000000	0.001593	0.001769	28.0793	0.011203	0.002031	5.517503	11.6142	14.0815	0.016658	0.271538	-0.859664	-0.860988	-0.059777	5.517503	-0.851538	-2.246820E+11	2.660525E-13	NaN
600	1.000000	0.282882	7.37092e+06	-47089.1	1005.82	-29767.1	0.000000	0.000000	6.282873	-0.020001	NaN	0.000000	0.001564	0.001770	28.0791	0.033504	0.001994	16.8031	-77.3297	-165.157	-0.024638	0.281571	-0.849644	-0.850955	-0.020001	16.8031	-0.848751	-2.059813E+11	9.710035E-14	NaN
600	1.000000	0.292872	7.37092e+06	-47089.1	1005.82	-29767.1	0.000000	0.000000	6.292863	-0.025607	NaN	0.000000	0.001553	0.001745	28.0794	0.054574	0.001961	27.8294	143.571	13.8494	-0.121188	0.291603	-0.839654	-0.840923	-0.025607	27.8294	-0.838964	-1.517931E+11	1.686953E-13	NaN
600	1.000000	0.302855	7.37092e+06	-47089.1	1005.82	-29767.1	0.000000	0.000000	6.302845	-0.029234	NaN	0.000000	0.001538	0.001791	28.0792	0.058076	0.001915	30.3327	-151.29	-166.182	0.067841	0.301584	-0.829671	-0.830942	-0.029234	30.3327	-0.828948	-1.110531E+11	2.632401E-13	NaN
600	1.000000	0.312882	7.37092e+06	-47089.1	1005.82	-29767.1	0.000000	0.000000	6.312873	-0.008938	NaN	0.000000	0.001539	0.001749	28.0791	0.143442	0.002145	66.8867	-98.6916	15.079	0.043872	0.311464	-0.819644	-0.821063	-0.008938	66.8867	-0.819544	-8.279883E+10	1.079436E-13	NaN
600	1.000000	0.322857	7.37092e+06	-47089.1	1005.82	-29767.1	0.000000	0.000000	6.322849	0.024448	NaN	0.000000	0.001537	0.001778	28.0794	0.022998	0.001999	11.5033	-19.6625	-165.569	-0.032335	0.321537	-0.809669	-0.810989	0.024448	11.5033	-0.811263	-6.393015E+10	-3.824179E-13	NaN
600	1.000000	0.332871	7.37092e+06	-47089.1	1005.82	-29767.1	0.000000	0.000000	6.332862	-0.010397	NaN	0.000000	0.001577	0.001733	28.0791	0.079235	0.001977	40.0763	-46.9473	11.4259	0.018945	0.331507	-0.799655	-0.801019	-0.010397	40.0763	-0.799460	-4.421134E+10	2.351769E-13	NaN
600	1.000000	0.342894	7.37092e+06	-47089.1	1005.82	-29767.1	0.000000	0.000000	6.342889	0.076140	NaN	0.000000	0.001557	0.001759	28.0793	0.055528	0.002015	27.5536	-16.9195	-166.475	0.058081	0.341573	-0.789632	-0.790953	0.076140	27.5536	-0.791704	-3.469188E+10	-2.194752E-12	NaN
600	1.000000	0.352908	7.37092e+06	-47089.1	1005.82	-29767.1	0.000000	0.000000	6.352899	-0.017036	NaN	0.000000	0.001541	0.001766	28.0794	0.052416	0.002095	25.0212	-177.074	13.9886	-0.036506	0.351512	-0.779618	-0.781014	-0.017036	25.0212	-0.779108	-2.339395E+10	7.282285E-13	NaN
600	1.000000	0.362912	7.37092e+06	-47089.1	1005.82	-29767.1	0.000000	0.000000	6.362899	-0.109736	NaN	0.000000	0.001590	0.001775	28.0797	0.156366	0.001963	79.6524	79.7341	-163.751	-0.029992	0.361555	-0.769614	-0.770971	-0.109736	79.6524	-0.768581	-1.682701E+10	6.521426E-12	NaN
600	1.000000	0.372887	7.37092e+06	-47089.1	1005.82	-29767.1	0.000000	0.000000	6.372878	0.002297	NaN	0.000000	0.001567	0.001769	28.0792	0.058114	0.001819	31.955	-141.864	15.5448	-0.014636	0.371589	-0.759639	-0.760937	0.002297	31.955	-0.759693	-1.273879E+10	-1.803298E-13	NaN
600	1.000000	0.382897	7.37092e+06	-47089.1	1005.82	-29767.1	0.000000	0.000000	6.382887	-0.026546	NaN	0.000000	0.001558	0.001803	28.0799	0.051037	0.001956	26.0975	-107.424	-163.247	-0.106702	0.381569	-0.749630	-0.750958	-0.026546	26.0975	-0.748867	-9.073863E+9	2.925499E-12	NaN
600	1.000000	0.392918	7.37092e+06	-47089.1	1005.82	-29767.1	0.000000	0.000000	6.392905	-0.092951	NaN	0.000000	0.001615	0.001837	28.0805	0.018151	0.001996	9.094020	22.5823	11.5791	-0.010994	0.391519	-0.739608	-0.741007	-0.092951	9.094020	-0.731943	-5.336828E+9	1.741682E-11	NaN
600	1.000000	0.402910	7.37092e+06	-47089.1	1005.82	-29767.1	0.000000	0.000000	6.402903	0.034179	NaN	0.000000	0.001622	0.001798	28.0808	0.023198	0.001940	11.956	18.6637	-166.449	0.032884	0.401619	-0.729616	-0.730907	0.034179	11.956	-0.731760	-5.306339E+9	-6.441164E-12	NaN
600	1.000000	0.412940	7.37092e+06	-47089.1	1005.82	-29767.1	0.000000	0.000000	6.412927	-0.100409	NaN	0.000000	0.001632	0.001818	28.0803	0.120842	0.001967	61.4441	165.406	12.811	-0.063323	0.411532	-0.719586	-0.720995	-0.100409	61.4441	-0.718361	-3.484287E+9	2.881773E-11	NaN
600	1.000000	0.422904	7.37092e+06	-47089.1	1005.82	-29767.1	0.000000	0.000000	6.422896	0.024699	NaN	0.000000	0.001651	0.001805	28.0803	0.043551	0.001985	21.9401	-136.934	-168.263	0.007391	0.421580	-0.709622	-0.710946	0.024699	21.9401	-0.710467	-2.719055E+9	-9.083760E-12	NaN
600	1.000000	0.432933	7.37092e+06	-47089.1	1005.82	-29767.1	0.000000	0.000000	6.432924	-0.001619	NaN	0.000000	0.001621	0.001806	28.0802	0.106780	0.002102	50.7993	6.447735	15.0223	0.014469	0.431599	-0.699593	-0.700927	-0.001619	50.7993	-0.699569	-1.930397E+9	8.385735E-13	NaN
600	1.000000	0.442923	7.37092e+06	-47089.1	1005.82	-29767.1	0.000000	0.000000	6.442914	-0.006844	NaN	0.000000	0.001620	0.001819	28.0805	0.066066	0.002081	31.7417	-99.1826	-164.637	-0.048069	0.441595	-0.689603	-0.690931	-0.006844	31.7417	-0.689441	-1.403729E+9	4.875323E-12	NaN
600	1.000000	0.452909	7.37092e+06	-47089.1	1005.82	-29767.1	0.000000	0.000000	6.452901	0.007239	NaN	0.000000	0.001626	0.001840	28.0803	0.061501	0.001965	31.3	171.756	12.8219	0.004082	0.451568	-0.679617	-0.680958	0.007239	31.3	-0.679790	-1.035942E+9	-6.988179E-12	NaN
600	1.000000	0.462947	7.37092e+06	-47089.1	1005.82	-29767.1	0.000000	0.000000	6.462936	-0.067197	NaN	0.000000	0.001636	0.001831	28.0806	0.078159	0.002030	38.5059	-82.9668	-165.459	-0.022420	0.461664	-0.669579	-0.670862	-0.067197	38.5059	-0.668270	-7.206271E+8	9.324780E-11	NaN
600	1.000000	0.472937	7.37092e+06	-47089.1	1005.82	-29767.1	0.000000	0.000000	6.472932	0.079661	NaN	0.000000	0.001639	0.001834	28.0804	0.046673	0.001987	23.4939	101.876	13.6149	0.094931	0.471616	-0.659589	-0.660910	0.079661	23.4939	-0.662132	-5.938440E+8	-1.341446E-10	NaN
600	1.000000	0.482935	7.37092e+06	-47089.1	1005.82	-29767.1	0.000000	0.000000	6.482926	-0.006359	NaN	0.000000	0.001618	0.001826	28.0803	0.056116	0.001965	28.5624	144.9	-165.449	-0.005151	0.481612	-0.649591	-0.650914	-0.006359	28.5624	-0.649424	-3.976828E+8	1.598940E-11	NaN
600	1.000000	0.492944	7.37092e+06	-47089.1	1005.82	-29767.1	0.000000	0.000000	6.492933	-0.063530	NaN	0.000000	0.001640	0.001783	28.0804	0.154287	0.001931	79.882	158.46	9.769765	0.029425	0.491621	-0.639582	-0.640905	-0.063530	79.882	-0.638986	-2.860028E+8	2.221299E-10	NaN
600	1.000000	0.502956	7.37092e+06	-47089.1	1005.82	-29767.1	0.000000	0.000000	6.502948	0.005819	NaN	0.000000	0.001625	0.001783	28.0803	0.075642	0.001989	38.0228	71.3776	-165.078	0.087580	0.501664	-0.629570	-0.630862	0.005819	38.0228	-0.629685	-2.131548E+8	-2.730152E-11	NaN
600	1.000000	0.512966	7.37092e+06	-47089.1	1005.82	-29767.1	0.000000	0.000000	6.512960	0.074081	NaN	0.000000	0.001645	0.001812	28.0804	0.116750	0.002023	57.7022	51.8952	14.5681	0.019674	0.511611	-0.619560	-0.620915	0.074081	57.7022	-0.620523	-1.595219E+8	-4.643931E-10	NaN
600	1.000000	0.522988	7.37092e+06	-47089.1	1005.82	-29767.1	0.000000	0.000000	6.522978	-0.022849	NaN	0.000000	0.001633	0.001786	28.0789	0.129014	0.002027	63.6376	0.000351	-165.026	-0.031710	0.521602	-0.609539	-0.610924	-0.022849	63.6376	-0.609269	-1.117016E+8	2.045525E-10	NaN
600	1.000000	0.532983	7.37092e+06	-47089.1	1005.82	-29767.1	0.000000	0.000000	6.532976	0.023747	NaN	0.000000	0.001675	0.001778	28.0802	0.065838	0.002022	32.5642	-137.936	12.0345	-0.036845	0.531601	-0.599543	-0.600925	0.023747	32.5642	-0.600090	-8.350153E+7	-2.843939E-10	NaN
600	1.000000	0.542992	7.37092e+06	-47089.1	1005.82	-29767.1	0.000000	0.000000	6.542985	0.033693	NaN	0.000000	0.001619	0.001790	28.079	0.030556	0.002049	14.9154	126.721	-168.028	0.010874	0.541627	-0.589534	-0.590899	0.033693	14.9154	-0.591228	-6.303714E+7	-5.344889E-10	NaN
600	1.000000	0.552972	7.37092e+06	-47089.1	1005.82	-29767.1	0.000000	0.000000	6.552963	-0.019413	NaN	0.000000	0.001632	0.001774	28.0792	0.119854	0.002152	55.7031	102.882	15.4465	-0.031196	0.551596	-0.579554	-0.580930	-0.019413	55.7031	-0.579292	-4.314801E+7	4.499218E-10	NaN
600	1.000000	0.562966	7.37092e+06	-47089.1	1005.82	-29767.1	0.000000	0.000000	6.562957	-0.028125	NaN	0.000000	0.001666	0.001739	28.0788	0.075760	0.002000	37.8725	134.144	-166.405	-0.077736	0.561644	-0.569560	-0.570882	-0.028125	37.8725	-0.569003	-3.110655E+7	9.041503E-10	NaN
600	1.000000	0.573004	7.37092e+06	-47089.1	1005.82	-29767.1	0.000000	0.000000	6.572995	-0.003849	NaN	0.000000	0.001659	0.001778	28.0792	0.115576	0.002098	55.0882	-157.241	15.55	0.010938	0.571618	-0.559522	-0.560908	-0.003849	55.0882	-0.559469	-2.296347E+7	1.676127E-10	NaN
600	1.000000	0.582992	7.37092e+06	-47089.1	1005.82	-29767.1	0.000000	0.000000	6.582982	-0.030358	NaN	0.000000	0.001666	0.001851	28.0792	0.096255	0.002015	47.7738	-162.983	-167.656	0.000720	0.581692	-0.549534	-0.550834	-0.030358	47.7738	-0.549058	-1.647800E+7	1.842356E-9	NaN
600	1.000000	0.592989	7.37092e+06	-47089.1	1005.82	-29767.1	0.000000	0.000000	6.592979	-0.013845	NaN	0.000000	0.001572	0.001810	28.0794	0.059399	0.002140	27.7575	120.426	14.0654	0.031735	0.591649	-0.539538	-0.540877	-0.013845	27.7575	-0.539163	-1.201586E+7	1.152253E-9	NaN
600	1.000000	0.602979	7.37092e+06	-47089.1	1005.82	-29767.1	0.000000	0.000000	6.602969	-0.033397	NaN	0.000000	0.001567	0.001782	28.0792	0.048036	0.001885	25.4791	-0.908822	-167.748	0.016425	0.601698	-0.529547	-0.530829	-0.033397	25.4791	-0.528564	-8.56302e+06	3.900153E-9	NaN
600	1.000000	0.613014	7.37092e+06	-47089.1	1005.82	-29767.1	0.000000	0.000000	6.613004	-0.023023	NaN	0.000000	0.001597	0.001804	28.0793	0.105528	0.002176	48.5005	-46.6055	13.2294	-0.057458	0.611696	-0.519512	-0.520831	-0.023023	48.5005	-0.519156	-6.33672e+06	3.633339E-9	NaN
600	1.000000	0.623009	7.37092e+06	-47089.1	1005.82	-29767.1	0.000000	0.000000	6.623001	0.002813	NaN	0.000000	0.001587	0.001808	28.0795	0.062483	0.002054	30.4176	49.8026	-164.57	-0.029752	0.621689	-0.509517	-0.510837	0.002813	30.4176	-0.509586	-4.66285e+06	-6.033536E-10	NaN
600	1.000000	0.633005	7.37092e+06	-47089.1	1005.82	-29767.1	0.000000	0.000000	6.632996	0.002918	NaN	0.000000	0.001584	0.001817	28.0794	0.082024	0.001992	41.1834	-141.817	14.4107	0.055884	0.631710	-0.499521	-0.500816	0.002918	41.1834	-0.499575	-3.3813e+06	-8.630765E-10	NaN
600	1.000000	0.643003	7.37092e+06	-47089.1	1005.82	-29767.1	0.000000	0.000000	6.642995	0.014768	NaN	0.000000	0.001627	0.001832	28.0791	0.082534	0.001905	43.3321	54.8359	-165.481	-0.017286	0.641724	-0.489523	-0.490802	0.014768	43.3321	-0.489779	-2.46774e+06	-5.984398E-9	NaN
600	1.000000	0.652984	7.37092e+06	-47089.1	1005.82	-29767.1	0.000000	0.000000	6.652975	0.004197	NaN	0.000000	0.001609	0.001811	28.0795	0.039339	0.002038	19.3003	119.366	12.7232	-0.004490	0.651632	-0.479542	-0.480894	0.004197	19.3003	-0.479705	-1.78403e+06	-2.352443E-9	NaN
600	1.000000	0.663036	7.37092e+06	-47089.1	1005.82	-29767.1	0.000000	0.000000	6.663029	0.051433	NaN	0.000000	0.001641	0.001802	28.0804	0.173777	0.001921	90.476	68.3379	-165.849	0.015408	0.661766	-0.469490	-0.470760	0.051433	90.476	-0.469917	-1.30088e+06	-3.953715E-8	NaN
600	1.000000	0.673000	7.37092e+06	-47089.1	1005.82	-29767.1	0.000000	0.000000	6.672991	-0.006973	NaN	0.000000	0.001606	0.001804	28.0804	0.062331	0.001983	31.4328	71.5371	14.204	-0.090951	0.671674	-0.459527	-0.460853	-0.006973	31.4328	-0.459360	-924753	7.540346E-9	NaN
600	1.000000	0.682981	7.37092e+06	-47089.1	1005.82	-29767.1	0.000000	0.000000	6.682973	0.019822	NaN	0.000000	0.001634	0.001818	28.0803	0.033363	0.001965	16.9817	-30.3624	-167.641	0.038362	0.681768	-0.449545	-0.450758	0.019822	16.9817	-0.450420	-692245	-2.863468E-8	NaN
600	1.000000	0.693022	7.37092e+06	-47089.1	1005.82	-29767.1	0.000000	0.000000	6.693014	0.018106	NaN	0.000000	0.001605	0.001817	28.0805	0.134072	0.002028	66.1158	132.256	12.7332	0.002748	0.691681	-0.439504	-0.440845	0.018106	66.1158	-0.439709	-488946	-3.703063E-8	NaN
600	1.000000	0.703016	7.37092e+06	-47089.1	1005.82	-29767.1	0.000000	0.000000	6.703007	-0.010162	NaN	0.000000	0.001630	0.001836	28.0803	0.117258	0.001936	60.5648	-30.8499	-166.66	-0.021001	0.701722	-0.429510	-0.430804	-0.010162	60.5648	-0.429385	-349425	2.908128E-8	NaN
600	1.000000	0.712985	7.37092e+06	-47089.1	1005.82	-29767.1	0.000000	0.000000	6.712975	-0.030038	NaN	0.000000	0.001632	0.001789	28.0822	0.078958	0.002036	38.7829	35.5322	11.685	0.058311	0.711685	-0.419541	-0.420841	-0.030038	38.7829	-0.418960	-248693	1.207843E-7	NaN
600	1.000000	0.723033	7.37092e+06	-47089.1	1005.82	-29767.1	0.000000	0.000000	6.723023	-0.013293	NaN	0.000000	0.001634	0.001789	28.0837	0.040699	0.002114	19.2496	-32.8411	-167.223	0.081429	0.721705	-0.409494	-0.410822	-0.013293	19.2496	-0.408976	-179404	7.409412E-8	NaN
600	1.000000	0.733026	7.37092e+06	-47089.1	1005.82	-29767.1	0.000000	0.000000	6.733016	-0.037058	NaN	0.000000	0.001644	0.001819	28.0813	0.085733	0.001957	43.7998	174.66	14.9528	0.039568	0.731714	-0.399500	-0.400812	-0.037058	43.7998	-0.398866	-128770	2.877836E-7	NaN
600	1.000000	0.743048	7.37092e+06	-47089.1	1005.82	-29767.1	0.000000	0.000000	6.743039	-0.011279	NaN	0.000000	0.001628	0.001804	28.0809	0.088730	0.001981	44.7798	-97.7774	-165.424	-0.001432	0.741763	-0.389478	-0.390763	-0.011279	44.7798	-0.389289	-93970.6	1.200258E-7	NaN
600	1.000000	0.753042	7.37092e+06	-47089.1	1005.82	-29767.1	0.000000	0.000000	6.753034	0.018214	NaN	0.000000	0.001579	0.001857	28.0804	0.093947	0.001907	49.2768	-129.652	13.071	-0.046109	0.751749	-0.379484	-0.380777	0.018214	49.2768	-0.379762	-68622.9	-2.654210E-7	NaN
600	1.000000	0.763066	7.37092e+06	-47089.1	1005.82	-29767.1	0.000000	0.000000	6.763054	-0.061862	NaN	0.000000	0.001614	0.001809	28.0802	0.050698	0.001937	26.1717	170.436	-165.462	-0.001057	0.761734	-0.369461	-0.370792	-0.061862	26.1717	-0.367688	-46005.9	1.344651E-6	NaN
600	1.000000	0.773047	7.37092e+06	-47089.1	1005.82	-29767.1	0.000000	0.000000	6.773038	0.000900	NaN	0.000000	0.001579	0.001816	28.0803	0.027497	0.001904	14.4403	19.6669	12.1302	-0.030659	0.771707	-0.359479	-0.360819	0.000900	14.4403	-0.359526	-35074.6	-2.567181E-8	NaN
600	1.000000	0.783059	7.37092e+06	-47089.1	1005.82	-29767.1	0.000000	0.000000	6.783046	-0.122617	NaN	0.000000	0.001616	0.001803	28.0806	0.069807	0.001984	35.1912	-42.4172	-165.076	-0.036323	0.781777	-0.349467	-0.350749	-0.122617	35.1912	-0.346854	-22977.6	5.336386E-6	NaN
600	1.000000	0.793071	7.37092e+06	-47089.1	1005.82	-29767.1	0.000000	0.000000	6.793061	-0.023363	NaN	0.000000	0.001620	0.001822	28.0795	0.013302	0.002051	6.485176	-123.091	13.5629	-0.039202	0.791728	-0.339455	-0.340799	-0.023363	6.485176	-0.336753	-16375.5	1.426691E-6	NaN
600	1.000000	0.803057	7.37092e+06	-47089.1	1005.82	-29767.1	0.000000	0.000000	6.803048	0.000153	NaN	0.000000	0.001647	0.001814	28.0793	0.068265	0.002104	32.4403	-175.874	-170.205	0.033957	0.801781	-0.329469	-0.330745	0.000153	32.4403	-0.329473	-12815.4	-1.191932E-8	NaN
600	1.000000	0.813047	7.37092e+06	-47089.1	1005.82	-29767.1	0.000000	0.000000	6.813037	-0.038479	NaN	0.000000	0.001632	0.001746	28.0793	0.042094	0.002111	19.9386	-26.1844	12.1758	0.053347	0.811688	-0.319479	-0.320838	-0.038479	19.9386	-0.318032	-8702.63	4.421506E-6	NaN
600	1.000000	0.823068	7.37092e+06	-47089.1	1005.82	-29767.1	0.000000	0.000000	6.823056	-0.079587	NaN	0.000000	0.001632	0.001753	28.0795	0.080152	0.001939	41.3438	120.887	-165.158	-0.060150	0.821756	-0.309458	-0.310770	-0.079587	41.3438	-0.308014	-6189.45	1.285847E-5	NaN
600	1.000000	0.833061	7.37092e+06	-47089.1	1005.82	-29767.1	0.000000	0.000000	6.833052	0.004443	NaN	0.000000	0.001632	0.001760	28.0794	0.080958	0.002094	38.6673	21.6092	12.4989	0.004261	0.831726	-0.299466	-0.300800	0.004443	38.6673	-0.299552	-4634.07	-9.586931E-7	NaN
600	1.000000	0.843079	7.37092e+06	-47089.1	1005.82	-29767.1	0.000000	0.000000	6.843071	0.008618	NaN	0.000000	0.001653	0.001754	28.0796	0.093470	0.001884	49.6073	-84.4653	-165.39	0.084541	0.841783	-0.289447	-0.290743	0.008618	49.6073	-0.289577	-3288.25	-2.620951E-6	NaN
600	1.000000	0.853072	7.37092e+06	-47089.1	1005.82	-29767.1	0.000000	0.000000	6.853065	0.030466	NaN	0.000000	0.001646	0.001778	28.0794	0.173279	0.002026	85.5322	81.1179	14.1766	0.005199	0.851770	-0.279454	-0.280756	0.030466	85.5322	-0.279721	-2337.54	-1.303350E-5	NaN
600	1.000000	0.863106	7.37092e+06	-47089.1	1005.82	-29767.1	0.000000	0.000000	6.863096	-0.028618	NaN	0.000000	0.001626	0.001743	28.0793	0.039429	0.002043	19.2992	-138.067	-166.611	0.007376	0.861796	-0.269420	-0.270730	-0.028618	19.2992	-0.268308	-1569.65	1.823191E-5	NaN
600	1.000000	0.873080	7.37092e+06	-47089.1	1005.82	-29767.1	0.000000	0.000000	6.873070	-0.033387	NaN	0.000000	0.001628	0.001748	28.0794	0.055156	0.002071	26.6299	160.377	15.4485	0.030497	0.871771	-0.259446	-0.260755	-0.033387	26.6299	-0.258506	-1111.73	3.003157E-5	NaN
600	1.000000	0.883075	7.37092e+06	-47089.1	1005.82	-29767.1	0.000000	0.000000	6.883067	0.016301	NaN	0.000000	0.001607	0.001772	28.0795	0.044018	0.001987	22.1557	-74.9864	-168.563	0.025680	0.881760	-0.249451	-0.250766	0.016301	22.1557	-0.250003	-822.272	-1.982407E-5	NaN
600	1.000000	0.893143	7.37092e+06	-47089.1	1005.82	-29767.1	0.000000	0.000000	6.893133	-0.052786	NaN	0.000000	0.001646	0.001745	28.0793	0.044834	0.001839	24.3834	44.8106	11.8086	-0.013978	0.891685	-0.239383	-0.240841	-0.052786	24.3834	-0.237759	-530.286	9.954180E-5	NaN
600	1.000000	0.903102	7.37092e+06	-47089.1	1005.82	-29767.1	0.000000	0.000000	6.903095	0.045408	NaN	0.000000	0.001628	0.001803	28.0795	0.137562	0.001984	69.3525	-96.974	-166.749	0.035213	0.901813	-0.229424	-0.230714	0.045408	69.3525	-0.229915	-399.183	-0.000114	NaN
600	1.000000	0.913098	7.37092e+06	-47089.1	1005.82	-29767.1	0.000000	0.000000	6.913088	-0.032761	NaN	0.000000	0.001634	0.001779	28.0794	0.063810	0.002153	29.6438	-148.837	12.3348	0.009031	0.911765	-0.219428	-0.220761	-0.032761	29.6438	-0.218599	-263.798	0.000124	NaN
600	1.000000	0.923145	7.37092e+06	-47089.1	1005.82	-29767.1	0.000000	0.000000	6.923136	-0.027004	NaN	0.000000	0.001650	0.001759	28.0796	0.065539	0.002007	32.6548	75.2076	-167.546	-0.006987	0.921801	-0.209381	-0.210725	-0.027004	32.6548	-0.208760	-183.117	0.000147	NaN
600	1.000000	0.933130	7.37092e+06	-47089.1	1005.82	-29767.1	0.000000	0.000000	6.933120	-0.019210	NaN	0.000000	0.001638	0.001758	28.0804	0.036363	0.002066	17.5976	16.5864	15.6657	0.004230	0.931743	-0.199397	-0.200783	-0.019210	17.5976	-0.198578	-124.825	0.000154	NaN
600	1.000000	0.943106	7.37092e+06	-47089.1	1005.82	-29767.1	0.000000	0.000000	6.943098	0.025966	NaN	0.000000	0.001570	0.001716	28.0805	0.089699	0.002163	41.4655	128.284	-168.443	0.012954	0.941818	-0.189420	-0.190708	0.025966	41.4655	-0.189890	-89.5762	-0.000290	NaN
600	1.000000	0.953137	7.37092e+06	-47089.1	1005.82	-29767.1	0.000000	0.000000	6.953127	-0.038845	NaN	0.000000	0.001591	0.001769	28.0807	0.158507	0.001990	79.6383	-157.975	13.996	-0.092898	0.951726	-0.179389	-0.180800	-0.038845	79.6383	-0.179023	-58.7262	0.000661	NaN
600	1.000000	0.963128	7.37092e+06	-47089.1	1005.82	-29767.1	0.000000	0.000000	6.963117	-0.072907	NaN	0.000000	0.001609	0.001762	28.0808	0.070662	0.002043	34.596	-88.9782	-164.178	-0.058897	0.961866	-0.169398	-0.170660	-0.072907	34.596	-0.167817	-37.6374	0.001937	NaN
600	1.000000	0.973138	7.37092e+06	-47089.1	1005.82	-29767.1	0.000000	0.000000	6.973128	-0.029058	NaN	0.000000	0.001565	0.001787	28.0806	0.037072	0.001878	19.7442	88.9739	13.1041	-0.013194	0.971774	-0.159388	-0.160752	-0.029058	19.7442	-0.158285	-25.5528	0.001137	NaN
600	1.000000	0.983114	7.37092e+06	-47089.1	1005.82	-29767.1	0.000000	0.000000	6.983106	0.017955	NaN	0.000000	0.001601	0.001777	28.0806	0.120871	0.002074	58.2754	-119.778	-166.556	0.005802	0.981832	-0.149412	-0.150694	0.017955	58.2754	-0.149643	-17.8442	-0.001006	NaN
600	1.000000	0.993129	7.37092e+06	-47089.1	1005.82	-29767.1	0.000000	0.000000	6.993119	-0.019404	NaN	0.000000	0.001602	0.001771	28.0808	0.122252	0.001981	61.7272	148.928	14.2957	-0.046063	0.991719	-0.139397	-0.140807	-0.019404	61.7272	-0.139161	-11.4076	0.001701	NaN
600	1.000000	1.003143	7.37092e+06	-47089.1	1005.82	-29767.1	0.000000	0.000000	7.003134	0.008250	NaN	0.000000	0.001625	0.001746	28.0806	0.026918	0.001946	13.8317	142.2	-167.792	-0.032981	1.001880	-0.129383	-0.130647	0.008250	13.8317	-0.129831	-7.563477	-0.001091	NaN
600	1.000000	1.013185	7.37092e+06	-47089.1	1005.82	-29767.1	0.000000	0.000000	7.013177	0.006103	NaN	0.000000	0.001658	0.001784	28.0803	0.124171	0.002074	59.8619	-93.9284	12.8971	0.014350	1.011796	-0.119341	-0.120730	0.006103	59.8619	-0.119418	-4.702336	-0.001298	NaN
600	1.000000	1.023139	7.37092e+06	-47089.1	1005.82	-29767.1	0.000000	0.000000	7.023133	0.057394	NaN	0.000000	0.001637	0.001811	28.0803	0.023365	0.002023	11.5483	30.6353	-165.704	-0.004955	1.021885	-0.109387	-0.110642	0.057394	11.5483	-0.113115	-3.492024	-0.016436	NaN
600	1.000000	1.033168	7.37092e+06	-47089.1	1005.82	-29767.1	0.000000	0.000000	7.033156	-0.058121	NaN	0.000000	0.001626	0.001804	28.0806	0.116730	0.002101	55.5722	50.8614	16.2925	0.014785	1.031832	-0.099359	-0.100694	-0.058121	55.5722	-0.098574	-1.698428	0.034220	NaN
600	1.000000	1.043171	7.37092e+06	-47089.1	1005.82	-29767.1	0.000000	0.000000	7.043158	-0.115220	NaN	0.000000	0.001579	0.001817	28.0802	0.013438	0.001978	6.794907	92.1116	-165.614	-0.121457	1.041855	-0.089355	-0.090671	-0.115220	6.794907	-0.076637	-0.508903	0.226410	NaN
600	1.000000	1.053194	7.37092e+06	-47089.1	1005.82	-29767.1	0.000000	0.000000	7.053186	0.017407	NaN	0.000000	0.001550	0.001835	28.0804	0.174205	0.002067	84.2811	53.7815	15.9524	-0.017969	1.051824	-0.079332	-0.080702	0.017407	84.2811	-0.079487	-0.600948	-0.028966	NaN
600	1.000000	1.063179	7.37092e+06	-47089.1	1005.82	-29767.1	0.000000	0.000000	7.063171	-0.001411	NaN	0.000000	0.001627	0.001818	28.0805	0.128363	0.002050	62.6124	119.052	-164.52	-0.026036	1.061835	-0.069347	-0.070691	-0.001411	62.6124	-0.069330	-0.327264	0.004311	NaN
600	1.000000	1.073183	7.37092e+06	-47089.1	1005.82	-29767.1	0.000000	0.000000	7.073172	-0.074287	NaN	0.000000	0.001556	0.001792	28.0793	0.136638	0.001979	69.0582	135.701	12.779	-0.076387	1.071810	-0.059343	-0.060716	-0.074287	69.0582	-0.058536	-0.163420	0.454579	NaN
600	1.000000	1.083187	7.37092e+06	-47089.1	1005.82	-29767.1	0.000000	0.000000	7.083179	0.009391	NaN	0.000000	0.001525	0.001844	28.0789	0.055777	0.001915	29.1326	-29.7837	-166.617	-0.017429	1.081825	-0.049339	-0.050702	0.009391	29.1326	-0.049581	-0.088625	-0.105966	NaN
600	1.000000	1.093188	7.37092e+06	-47089.1	1005.82	-29767.1	0.000000	0.000000	7.093176	-0.064118	NaN	0.000000	0.001538	0.001821	28.0792	0.097154	0.001946	49.9305	126.006	14.3568	-0.031432	1.091834	-0.039339	-0.040692	-0.064118	49.9305	-0.038375	-0.040381	1.587820	NaN
600	1.000000	1.103204	7.37092e+06	-47089.1	1005.82	-29767.1	0.000000	0.000000	7.103194	-0.036660	NaN	0.000000	0.001554	0.001803	28.0791	0.041451	0.002048	20.2395	-163.371	-165.609	-0.011394	1.101823	-0.029322	-0.030703	-0.036660	20.2395	-0.027964	-0.020229	1.812240	NaN
600	1.000000	1.113207	7.37092e+06	-47089.1	1005.82	-29767.1	0.000000	0.000000	7.113194	-0.082415	NaN	0.000000	0.001550	0.001771	28.0791	0.126145	0.001847	68.3055	-173.739	14.1912	-0.029921	1.111839	-0.019320	-0.020687	-0.082415	68.3055	-0.018415	-0.011441	7.203164	NaN
600	1.000000	1.123216	7.37092e+06	-47089.1	1005.82	-29767.1	0.000000	0.000000	7.123205	-0.053998	NaN	0.000000	0.001577	0.001790	28.079	0.097354	0.002102	46.3107	-114.183	-164.16	-0.022931	1.121927	-0.009311	-0.010599	-0.053998	46.3107	-0.008436	-0.005486	9.842581	NaN
600	1.000000	1.133141	7.37092e+06	-47089.1	1005.82	-29767.1	0.000000	0.000000	7.133213	1.968728	NaN	0.000000	0.001556	0.001779	28.0791	2.714858	0.001990	1363.95	7.118911	10.4366	0.786667	1.131815	0.000615	-0.000712	1.968728	1363.95	-0.000468	-0.000346	-5684.88	NaN
600	2.000000	1.139795	7.37092e+06	-47089.1	1005.82	-29767.1	0.000000	0.000000	7.140201	10.0757	NaN	0.000000	0.001526	0.001810	28.0791	10.3347	0.001642	6292.12	8.679918	-177.121	9.121762	1.139507	0.007269	0.006980	10.0757	6292.12	0.006068	0.005130	1964.23	80265.7
600	2.000000	1.142265	7.37092e+06	-47089.1	1005.82	-29767.1	0.000000	0.000000	7.142838	14.1599	NaN	0.000000	0.001540	0.001810	28.0791	13.1069	0.001678	7810.75	4.557103	6.674696	12.5354	1.141905	0.009738	0.009379	14.1599	7810.75	0.008379	0.007435	1904.56	82762.2
600	2.000000	1.144753	7.37092e+06	-47089.1	1005.82	-29767.1	0.000000	0.000000	7.145569	20.0756	NaN	0.000000	0.001568	0.001807	28.079	16.3609	0.001749	9352.13	6.254535	-176.889	19.941	1.144456	0.012227	0.011930	20.0756	9352.13	0.010617	0.009875	2032.97	85983.6
600	2.000000	1.147254	7.37092e+06	-47089.1	1005.82	-29767.1	0.000000	0.000000	7.148251	24.4525	NaN	0.000000	0.001528	0.001806	28.0792	18.2447	0.001803	10118.1	3.378694	5.706200	22.8346	1.146962	0.014728	0.014436	24.4525	10118.1	0.012916	0.012605	1939.86	82337
600	2.000000	1.149736	7.37092e+06	-47089.1	1005.82	-29767.1	0.000000	0.000000	7.150905	28.6278	NaN	0.000000	0.001511	0.001829	28.0789	21.0735	0.001729	12189.9	7.466607	179.096	27.8593	1.149421	0.017210	0.016895	28.6278	12189.9	0.015449	0.015889	1801.77	88354.7
600	2.000000	1.152235	7.37092e+06	-47089.1	1005.82	-29767.1	0.000000	0.000000	7.153693	35.6745	NaN	0.000000	0.001547	0.001824	28.0793	23.0586	0.001819	12677.7	2.605420	4.442083	34.3888	1.151813	0.019709	0.019287	35.6745	12677.7	0.017599	0.018908	1886.7	84233.9
600	2.000000	1.154680	7.37092e+06	-47089.1	1005.82	-29767.1	0.000000	0.000000	7.156480	43.9793	NaN	0.000000	0.001538	0.001856	28.0801	25.8007	0.001821	14172.1	7.423527	177.786	42.6259	1.154377	0.022154	0.021851	43.9793	14172.1	0.019827	0.022271	1974.74	86763.9
600	2.000000	1.157198	7.37092e+06	-47089.1	1005.82	-29767.1	0.000000	0.000000	7.159189	48.6428	NaN	0.000000	0.001572	0.001814	28.0808	28.1068	0.001888	14888.5	8.260589	-1.874292	46.4426	1.156735	0.024672	0.024209	48.6428	14888.5	0.022222	0.026155	1859.81	84110.6
600	2.000000	1.159678	7.37092e+06	-47089.1	1005.82	-29767.1	0.000000	0.000000	7.161894	54.1155	NaN	0.000000	0.001564	0.001793	28.0803	30.1539	0.001812	16638.2	3.017656	-179.005	52.8979	1.159398	0.027152	0.026872	54.1155	16638.2	0.024712	0.030494	1774.62	87050.5
600	2.000000	1.162181	7.37092e+06	-47089.1	1005.82	-29767.1	0.000000	0.000000	7.164806	64.0516	NaN	0.000000	0.001542	0.001737	28.0804	33.6403	0.001785	18850.6	3.638014	-0.758578	62.3442	1.161854	0.029655	0.029328	64.0516	18850.6	0.027107	0.034960	1832.14	92111.1
600	2.000000	1.164724	7.37092e+06	-47089.1	1005.82	-29767.1	0.000000	0.000000	7.167594	70.0295	NaN	0.000000	0.001535	0.001756	28.0804	36.5974	0.001849	19792.7	6.388074	177.294	70.7612	1.164410	0.032197	0.031884	70.0295	19792.7	0.029544	0.039804	1759.38	90639.7
600	2.000000	1.167224	7.37092e+06	-47089.1	1005.82	-29767.1	0.000000	0.000000	7.170543	80.955	NaN	0.000000	0.001550	0.001743	28.0807	38.5814	0.001795	21493	8.101140	-4.699588	81.2144	1.166770	0.034698	0.034243	80.955	21493	0.031873	0.044715	1810.48	92863.5
600	2.000000	1.169660	7.37093e+06	-47089.1	1005.82	-29767.1	0.000000	0.000000	7.173445	92.2903	NaN	0.000000	0.001588	0.001776	28.0804	40.1753	0.001687	23818.1	1.106674	-179.528	90.6669	1.169331	0.037134	0.036805	92.2903	23818.1	0.034227	0.049962	1847.2	97355.1
600	2.000000	1.172150	7.37093e+06	-47089.1	1005.82	-29767.1	0.000000	0.000000	7.176407	103.758	NaN	0.000000	0.001559	0.001777	28.0805	43.1801	0.001768	24423.9	3.784462	-2.312833	100.939	1.171852	0.039624	0.039326	103.758	24423.9	0.036437	0.055146	1881.51	95023.6
600	2.000000	1.174629	7.37093e+06	-47089.1	1005.82	-29767.1	0.000000	0.000000	7.179234	112.233	NaN	0.000000	0.001570	0.001760	28.0803	45.9418	0.001775	25885.4	5.831685	175.474	110.558	1.174393	0.042103	0.041867	112.233	25885.4	0.038851	0.061092	1837.1	95682.9
600	2.000000	1.177167	7.37093e+06	-47089.1	1005.82	-29767.1	0.000000	0.000000	7.182383	127.083	NaN	0.000000	0.001546	0.001759	28.0804	47.8854	0.001856	25796.3	8.084803	-6.067375	123.656	1.176799	0.044641	0.044273	127.083	25796.3	0.040946	0.066496	1911.15	91397.2
600	2.000000	1.179589	7.37093e+06	-47089.1	1005.82	-29767.1	0.000000	0.000000	7.185226	137.331	NaN	0.000000	0.001584	0.001770	28.0804	50.1129	0.001744	28736	2.179906	177.678	134.522	1.179365	0.047063	0.046839	137.331	28736	0.043478	0.073326	1872.87	96955.1
600	2.000000	1.182170	7.37093e+06	-47089.1	1005.82	-29767.1	0.000000	0.000000	7.188262	148.398	NaN	0.000000	0.001548	0.001793	28.0805	54.3395	0.001815	29932.5	6.719323	-6.593862	148.651	1.181756	0.049643	0.049230	148.398	29932.5	0.045925	0.080235	1849.54	96545.9
600	2.000000	1.184623	7.37093e+06	-47089.1	1005.82	-29767.1	0.000000	0.000000	7.191284	162.241	NaN	0.000000	0.001515	0.001778	28.0805	56.0591	0.001906	29416.7	2.540452	177.292	159.105	1.184300	0.052097	0.051774	162.241	29416.7	0.047960	0.086213	1881.85	91533.4
600	2.000000	1.187133	7.37093e+06	-47089.1	1005.82	-29767.1	0.000000	0.000000	7.194354	175.861	NaN	0.000000	0.001533	0.001761	28.0804	58.3527	0.001864	31303.8	5.014117	-5.344626	172.978	1.186795	0.054607	0.054269	175.861	31303.8	0.050394	0.093634	1878.17	93466.1
600	2.000000	1.189605	7.37093e+06	-47089.1	1005.82	-29767.1	0.000000	0.000000	7.197445	190.919	NaN	0.000000	0.001547	0.001754	28.079	60.8399	0.001830	33253.8	5.409145	173.852	190.263	1.189280	0.057079	0.056753	190.919	33253.8	0.052773	0.101176	1887	95515.8
600	2.000000	1.192146	7.37093e+06	-47089.1	1005.82	-29767.1	0.000000	0.000000	7.200501	203.456	NaN	0.000000	0.001560	0.001792	28.0792	63.5591	0.001721	36941.8	4.714203	-6.912929	200.689	1.191694	0.059619	0.059168	203.456	36941.8	0.055489	0.110131	1847.41	101704
600	2.000000	1.194593	7.37093e+06	-47089.1	1005.82	-29767.1	0.000000	0.000000	7.203316	212.389	NaN	0.000000	0.001548	0.001722	28.0794	66.5497	0.001681	39596.1	3.140423	173.777	206.573	1.194327	0.062067	0.061801	212.389	39596.1	0.058044	0.118889	1786.45	104919
600	2.000000	1.197102	7.37093e+06	-47089.1	1005.82	-29767.1	0.000000	0.000000	7.206447	227.526	NaN	0.000000	0.001563	0.001742	28.0791	68.5036	0.001798	38107.3	5.216039	-7.118563	221.967	1.196763	0.064575	0.064237	227.526	38107.3	0.060097	0.126158	1803.5	98022.1
600	2.000000	1.199606	7.37093e+06	-47089.1	1005.82	-29767.1	0.000000	0.000000	7.209560	242.346	NaN	0.000000	0.001542	0.001765	28.0791	69.4975	0.001826	38068.2	2.544191	175.062	240.963	1.199320	0.067080	0.066794	242.346	38068.2	0.062305	0.134204	1805.8	94940.7
600	2.000000	1.202087	7.37093e+06	-47089.1	1005.82	-29767.1	0.000000	0.000000	7.212955	264.552	NaN	0.000000	0.001572	0.001768	28.0793	73.2093	0.001740	42071.8	5.655401	-9.049860	260.668	1.201704	0.069561	0.069178	264.552	42071.8	0.064845	0.143753	1840.33	101381
600	2.000000	1.204553	7.37093e+06	-47089.1	1005.82	-29767.1	0.000000	0.000000	7.215940	277.184	NaN	0.000000	0.001538	0.001781	28.0795	76.5394	0.001850	41377.9	5.576012	171.053	271.9	1.204291	0.072027	0.071765	277.184	41377.9	0.067003	0.152110	1822.27	96931
600	2.000000	1.207087	7.37093e+06	-47089.1	1005.82	-29767.1	0.000000	0.000000	7.219229	295.561	NaN	0.000000	0.001519	0.001803	28.0793	77.3882	0.001864	41511.9	2.675937	-5.410856	289.872	1.206723	0.074561	0.074197	295.561	41511.9	0.069221	0.160933	1836.55	94541.7
600	2.000000	1.209620	7.37093e+06	-47089.1	1005.82	-29767.1	0.000000	0.000000	7.222439	312.01	NaN	0.000000	0.001513	0.001799	28.0795	79.3329	0.001844	43024.2	3.004940	173.754	310.515	1.209317	0.077094	0.076791	312.01	43024.2	0.071655	0.170885	1825.85	95089.8
600	2.000000	1.211976	7.37093e+06	-47089.1	1005.82	-29767.1	0.000000	0.000000	7.226000	341.333	NaN	0.000000	0.001546	0.001754	28.0794	82.3764	0.001818	45313.1	6.511344	-9.960994	331.546	1.211514	0.079450	0.078988	341.333	45313.1	0.073801	0.179892	1897.43	97609.3
600	2.000000	1.214549	7.37093e+06	-47089.1	1005.82	-29767.1	0.000000	0.000000	7.228889	349.026	NaN	0.000000	0.001542	0.001742	28.0794	85.0118	0.001911	44488.6	4.398342	172.182	344.229	1.214335	0.082023	0.081808	349.026	44488.6	0.076139	0.189952	1837.45	93261
600	2.000000	1.217151	7.37093e+06	-47089.1	1005.82	-29767.1	0.000000	0.000000	7.232337	369.594	NaN	0.000000	0.001533	0.001689	28.079	85.5974	0.001721	49738.6	2.757965	-6.837706	367.089	1.216827	0.084625	0.084301	369.594	49738.6	0.079052	0.202848	1822.03	100898
600	2.000000	1.219524	7.37093e+06	-47089.1	1005.82	-29767.1	0.000000	0.000000	7.235342	384.972	NaN	0.000000	0.001512	0.001763	28.0795	87.4916	0.001742	50237.6	4.005725	171.691	380.261	1.219317	0.086998	0.086791	384.972	50237.6	0.081250	0.212840	1808.74	99489.1
600	2.000000	1.222136	7.37093e+06	-47089.1	1005.82	-29767.1	0.000000	0.000000	7.238818	405.98	NaN	0.000000	0.001528	0.001767	28.0792	90.455	0.001724	52455.9	2.323411	-6.055650	406.275	1.221605	0.089610	0.089079	405.98	52455.9	0.083805	0.224735	1806.48	101096
600	2.000000	1.224595	7.37093e+06	-47089.1	1005.82	-29767.1	0.000000	0.000000	7.241822	419.241	NaN	0.000000	0.001647	0.001758	28.0812	94.2859	0.001849	50999.4	5.350771	170.208	416.336	1.224361	0.092069	0.091835	419.241	50999.4	0.085904	0.234732	1786.04	96172.8
600	2.000000	1.227052	7.37093e+06	-47089.1	1005.82	-29767.1	0.000000	0.000000	7.245457	447.884	NaN	0.000000	0.001629	0.001824	28.0806	95.9077	0.001896	50570.9	6.732605	-10.8207	440.507	1.226679	0.094526	0.094153	447.884	50570.9	0.087884	0.244350	1832.96	93469
600	2.000000	1.229569	7.37093e+06	-47089.1	1005.82	-29767.1	0.000000	0.000000	7.248646	464.24	NaN	0.000000	0.001596	0.001803	28.081	96.7678	0.001852	52247.4	3.693277	172.225	462.191	1.229173	0.097043	0.096647	464.24	52247.4	0.090379	0.256726	1808.31	94211.2
600	2.000000	1.232033	7.37093e+06	-47089.1	1005.82	-29767.1	0.000000	0.000000	7.251738	479.535	NaN	0.000000	0.001620	0.001774	28.0802	99.6921	0.001911	52166.7	1.632398	-5.743404	471.997	1.231615	0.099506	0.099089	479.535	52166.7	0.092612	0.268048	1788.99	92057.7
600	2.000000	1.234505	7.37093e+06	-47089.1	1005.82	-29767.1	0.000000	0.000000	7.255277	505.452	NaN	0.000000	0.001583	0.001815	28.0806	101.869	0.001920	53055	3.648010	171.868	499.443	1.234150	0.101979	0.101624	505.452	53055	0.094834	0.279536	1808.18	91681.3
600	2.000000	1.236980	7.37093e+06	-47089.1	1005.82	-29767.1	0.000000	0.000000	7.258352	520.066	NaN	0.000000	0.001522	0.001820	28.0803	101.963	0.001774	57463.3	-0.077155	-5.080714	509.566	1.236752	0.104454	0.104226	520.066	57463.3	0.097666	0.294507	1765.88	96742.1