File: remote_trans/data/nanoindenter/0828-1/data/Data_2025-08-06,11h17m57s/2025-07-22_16-23-58_1_795.txt
2025-07-22, 16:23:58, 1
Index	Phase	Displacement	Time	Pos X	Pos Y	Pos Z	Rot A	Rot B	Piezo Z	Force A	Force B	Gripper	Voltage A	Voltage B	Temperature	Amplitude force	Amplitude pos	Stiffness	Phase shift	Phase excitation	Force A raw	Displacement raw	HMax	HMax raw	Real Force	Real Stiffness	Contact Depth	Area	Hardness	Reduced Mod.
[#]	[#]	[um]	[s]	[um]	[um]	[um]	[m°]	[m°]	[um]	[uN]	[uN]	[V]	[V]	[V]	[°C]	[uN]	[um]	[N/m]	[°]	[°]	[uN]	[um]	[um]	[um]	[uN]	[N/m]	[um]	[um^2]	[MPa]	[MPa]
795	1.000000	0.002653	7.37283e+06	-39889.1	1055.82	-29792.1	0.000000	0.000000	6.002808	-0.100988	NaN	0.000000	0.001662	0.001716	28.083	0.132229	0.001043	126.735	22.674	-163.371	-0.092437	0.001408	-1.146460	-1.147706	-0.100988	126.735	-1.145862	-2.067026E+15	4.885661E-17	NaN
795	1.000000	0.012708	7.37283e+06	-39889.1	1055.82	-29792.1	0.000000	0.000000	6.012863	-0.087204	NaN	0.000000	0.001683	0.001721	28.083	0.098881	0.001292	76.5428	-176.738	22.348	-0.193405	0.011277	-1.136405	-1.137837	-0.087204	76.5428	-1.135551	-1.503376E+15	5.800512E-17	NaN
795	1.000000	0.022585	7.37283e+06	-39889.1	1055.82	-29792.1	0.000000	0.000000	6.022742	-0.054106	NaN	0.000000	0.001668	0.001690	28.0825	0.010080	0.001738	5.800041	110.369	-163.243	0.015725	0.021276	-1.126528	-1.127837	-0.054106	5.800041	-1.119532	-9.166199E+14	5.902817E-17	NaN
795	1.000000	0.032597	7.37283e+06	-39889.1	1055.82	-29792.1	0.000000	0.000000	6.032752	-0.101482	NaN	0.000000	0.001649	0.001703	28.0829	0.092657	0.001952	47.4796	-69.0135	15.5526	-0.121684	0.031158	-1.116516	-1.117956	-0.101482	47.4796	-1.114913	-7.947235E+14	1.276951E-16	NaN
795	1.000000	0.042552	7.37283e+06	-39889.1	1055.82	-29792.1	0.000000	0.000000	6.042709	-0.035570	NaN	0.000000	0.001660	0.001677	28.0827	0.099662	0.001998	49.8733	65.2304	-166.527	-0.044242	0.041254	-1.106562	-1.107860	-0.035570	49.8733	-1.106027	-6.038980E+14	5.890035E-17	NaN
795	1.000000	0.052563	7.37283e+06	-39889.1	1055.82	-29792.1	0.000000	0.000000	6.052719	-0.069079	NaN	0.000000	0.001666	0.001664	28.0829	0.043779	0.002027	21.5975	-177.139	16.6636	0.011678	0.051253	-1.096551	-1.097860	-0.069079	21.5975	-1.094152	-4.183649E+14	1.651172E-16	NaN
795	1.000000	0.062585	7.37283e+06	-39889.1	1055.82	-29792.1	0.000000	0.000000	6.062742	-0.046540	NaN	0.000000	0.001623	0.001690	28.0826	0.107158	0.002058	52.0674	-173.928	-166.904	-0.076446	0.061293	-1.086529	-1.087821	-0.046540	52.0674	-1.085858	-3.237388E+14	1.437592E-16	NaN
795	1.000000	0.072590	7.37283e+06	-39889.1	1055.82	-29792.1	0.000000	0.000000	6.072746	-0.058151	NaN	0.000000	0.001667	0.001668	28.0831	0.113623	0.002007	56.6229	-88.51	13.452	-0.068701	0.071264	-1.076524	-1.077849	-0.058151	56.6229	-1.075753	-2.368528E+14	2.455150E-16	NaN
795	1.000000	0.082600	7.37283e+06	-39889.1	1055.82	-29792.1	0.000000	0.000000	6.082760	0.020361	NaN	0.000000	0.001653	0.001691	28.0827	0.051756	0.001900	27.2448	179.393	-163.444	-0.005423	0.081314	-1.066513	-1.067799	0.020361	27.2448	-1.067074	-1.810814E+14	-1.124432E-16	NaN
795	1.000000	0.092604	7.37283e+06	-39889.1	1055.82	-29792.1	0.000000	0.000000	6.092759	-0.083683	NaN	0.000000	0.001659	0.001701	28.0829	0.112497	0.002002	56.1968	-9.613288	12.421	-0.056044	0.091257	-1.056510	-1.057856	-0.083683	56.1968	-1.055393	-1.261542E+14	6.633390E-16	NaN
795	1.000000	0.102629	7.37283e+06	-39889.1	1055.82	-29792.1	0.000000	0.000000	6.102784	-0.085631	NaN	0.000000	0.001664	0.001668	28.0826	0.087408	0.002006	43.5642	-45.1127	-162.683	-0.032381	0.101297	-1.046485	-1.047816	-0.085631	43.5642	-1.045011	-9.148283E+13	9.360337E-16	NaN
795	1.000000	0.112647	7.37283e+06	-39889.1	1055.82	-29792.1	0.000000	0.000000	6.112802	-0.068728	NaN	0.000000	0.001637	0.001675	28.0828	0.022170	0.002033	10.9034	134.828	15.1135	-0.035421	0.111303	-1.036467	-1.037811	-0.068728	10.9034	-1.031739	-6.065622E+13	1.133080E-15	NaN
795	1.000000	0.122603	7.37283e+06	-39889.1	1055.82	-29792.1	0.000000	0.000000	6.122759	-0.053012	NaN	0.000000	0.001640	0.001725	28.0828	0.048545	0.001916	25.34	-77.2547	-163.427	0.002851	0.121289	-1.026510	-1.027824	-0.053012	25.34	-1.024941	-4.913989E+13	1.078807E-15	NaN
795	1.000000	0.132657	7.37283e+06	-39889.1	1055.82	-29792.1	0.000000	0.000000	6.132811	-0.112263	NaN	0.000000	0.001639	0.001727	28.0826	0.022649	0.001839	12.3132	100.94	14.7058	-0.068212	0.131239	-1.016457	-1.017875	-0.112263	12.3132	-1.009619	-3.056678E+13	3.672726E-15	NaN
795	1.000000	0.142617	7.37283e+06	-39889.1	1055.82	-29792.1	0.000000	0.000000	6.142773	-0.070786	NaN	0.000000	0.001647	0.001730	28.0814	0.029408	0.001997	14.728	162.027	-168.418	-0.104800	0.141307	-1.006496	-1.007807	-0.070786	14.728	-1.002892	-2.481426E+13	2.852615E-15	NaN
795	1.000000	0.152621	7.37283e+06	-39889.1	1055.82	-29792.1	0.000000	0.000000	6.152778	-0.039405	NaN	0.000000	0.001649	0.001723	28.0814	0.085999	0.002057	41.7991	92.6927	16.2761	-0.024217	0.151303	-0.996492	-0.997811	-0.039405	41.7991	-0.995785	-1.990769E+13	1.979389E-15	NaN
795	1.000000	0.162625	7.37283e+06	-39889.1	1055.82	-29792.1	0.000000	0.000000	6.162781	-0.064112	NaN	0.000000	0.001681	0.001722	28.0815	0.067061	0.001856	36.1303	24.1146	-163.972	-0.047769	0.161315	-0.986488	-0.987798	-0.064112	36.1303	-0.985157	-1.431816E+13	4.477668E-15	NaN
795	1.000000	0.172654	7.37283e+06	-39889.1	1055.82	-29792.1	0.000000	0.000000	6.172811	-0.029459	NaN	0.000000	0.001667	0.001723	28.0814	0.142724	0.002034	70.1843	57.2282	14.1709	0.046568	0.171300	-0.976459	-0.977813	-0.029459	70.1843	-0.976145	-1.082592E+13	2.721198E-15	NaN
795	1.000000	0.182638	7.37283e+06	-39889.1	1055.82	-29792.1	0.000000	0.000000	6.182795	-0.032815	NaN	0.000000	0.001618	0.001759	28.0819	0.056806	0.002062	27.5547	142.941	-163.755	0.002510	0.181298	-0.966475	-0.967815	-0.032815	27.5547	-0.965582	-7.800426E+12	4.206856E-15	NaN
795	1.000000	0.192649	7.37283e+06	-39889.1	1055.82	-29792.1	0.000000	0.000000	6.192808	0.008502	NaN	0.000000	0.001682	0.001747	28.0816	0.041764	0.001954	21.3718	32.4378	14.681	-0.057148	0.191300	-0.956465	-0.957814	0.008502	21.3718	-0.956763	-5.932343E+12	-1.433241E-15	NaN
795	1.000000	0.202673	7.37283e+06	-39889.1	1055.82	-29792.1	0.000000	0.000000	6.202828	-0.069837	NaN	0.000000	0.001679	0.001718	28.0814	0.017378	0.002003	8.676732	179.781	-167.558	-0.085946	0.201371	-0.946441	-0.947742	-0.069837	8.676732	-0.940404	-3.569358E+12	1.956559E-14	NaN
795	1.000000	0.212637	7.37283e+06	-39889.1	1055.82	-29792.1	0.000000	0.000000	6.212794	-0.017708	NaN	0.000000	0.001634	0.001738	28.0815	0.051644	0.002092	24.69	116.329	16.0597	0.001952	0.211326	-0.936477	-0.937787	-0.017708	24.69	-0.935939	-3.107019E+12	5.699447E-15	NaN
795	1.000000	0.222639	7.37283e+06	-39889.1	1055.82	-29792.1	0.000000	0.000000	6.222797	-0.014993	NaN	0.000000	0.001622	0.001773	28.0818	0.040528	0.001989	20.3762	-129.477	-163.629	-0.018769	0.221301	-0.926474	-0.927812	-0.014993	20.3762	-0.925922	-2.275922E+12	6.587774E-15	NaN
795	1.000000	0.232674	7.37283e+06	-39889.1	1055.82	-29792.1	0.000000	0.000000	6.232833	0.001664	NaN	0.000000	0.001587	0.001741	28.0817	0.107593	0.002140	50.2666	53.9713	12.8506	-0.030218	0.231322	-0.916439	-0.917791	0.001664	50.2666	-0.916464	-1.696143E+12	-9.808632E-16	NaN
795	1.000000	0.242696	7.37283e+06	-39889.1	1055.82	-29792.1	0.000000	0.000000	6.242857	0.042015	NaN	0.000000	0.001603	0.001752	28.0815	0.023095	0.001914	12.0677	86.217	-161.444	-0.050495	0.241324	-0.906417	-0.907789	0.042015	12.0677	-0.909028	-1.345971E+12	-3.121524E-14	NaN
795	1.000000	0.252686	7.37283e+06	-39889.1	1055.82	-29792.1	0.000000	0.000000	6.252841	-0.086404	NaN	0.000000	0.001631	0.001687	28.0817	0.115566	0.001960	58.9558	1.542159	14.3566	-0.112643	0.251265	-0.896428	-0.897848	-0.086404	58.9558	-0.895329	-8.788975E+11	9.830974E-14	NaN
795	1.000000	0.262669	7.37283e+06	-39889.1	1055.82	-29792.1	0.000000	0.000000	6.262825	-0.056019	NaN	0.000000	0.001606	0.001734	28.0816	0.044759	0.001799	24.8753	-86.1352	-163.601	-0.113839	0.261377	-0.886445	-0.887736	-0.056019	24.8753	-0.884756	-6.324353E+11	8.857606E-14	NaN
795	1.000000	0.272685	7.37283e+06	-39889.1	1055.82	-29792.1	0.000000	0.000000	6.272842	-0.055475	NaN	0.000000	0.001613	0.001692	28.0817	0.130330	0.002035	64.0525	171.716	12.6027	-0.006627	0.271358	-0.876428	-0.877756	-0.055475	64.0525	-0.875779	-4.782045E+11	1.160061E-13	NaN
795	1.000000	0.282663	7.37283e+06	-39889.1	1055.82	-29792.1	0.000000	0.000000	6.282818	-0.099130	NaN	0.000000	0.001622	0.001721	28.0828	0.008840	0.001997	4.426876	-141.944	-164.97	-0.058150	0.281348	-0.866450	-0.867766	-0.099130	4.426876	-0.849655	-2.118713E+11	4.678794E-13	NaN
795	1.000000	0.292700	7.37283e+06	-39889.1	1055.82	-29792.1	0.000000	0.000000	6.292856	-0.043535	NaN	0.000000	0.001662	0.001719	28.0831	0.082789	0.001826	45.3411	-176.849	10.3378	-0.037128	0.291364	-0.856414	-0.857750	-0.043535	45.3411	-0.855694	-2.557579E+11	1.702211E-13	NaN
795	1.000000	0.302705	7.37283e+06	-39889.1	1055.82	-29792.1	0.000000	0.000000	6.302861	-0.062891	NaN	0.000000	0.001621	0.001693	28.0829	0.036215	0.002137	16.9479	78.9357	-163.327	0.001209	0.301428	-0.846408	-0.847685	-0.062891	16.9479	-0.843625	-1.755491E+11	3.582515E-13	NaN
795	1.000000	0.312689	7.37283e+06	-39889.1	1055.82	-29792.1	0.000000	0.000000	6.312850	0.044781	NaN	0.000000	0.001609	0.001699	28.0827	0.023270	0.001866	12.468	-63.1911	11.8806	0.059104	0.311379	-0.836424	-0.837735	0.044781	12.468	-0.839118	-1.525254E+11	-2.935948E-13	NaN
795	1.000000	0.322690	7.37283e+06	-39889.1	1055.82	-29792.1	0.000000	0.000000	6.322849	0.001899	NaN	0.000000	0.001626	0.001725	28.0833	0.079177	0.002117	37.3955	-54.715	-166.859	0.033402	0.321344	-0.826423	-0.827769	0.001899	37.3955	-0.826461	-1.027587E+11	-1.848333E-14	NaN
795	1.000000	0.332680	7.37283e+06	-39889.1	1055.82	-29792.1	0.000000	0.000000	6.332838	-0.017278	NaN	0.000000	0.001647	0.001716	28.0834	0.016212	0.001981	8.181841	145.149	14.9361	-0.086715	0.331371	-0.816434	-0.817743	-0.017278	8.181841	-0.814850	-7.150946E+10	2.416117E-13	NaN
795	1.000000	0.342706	7.37283e+06	-39889.1	1055.82	-29792.1	0.000000	0.000000	6.342862	-0.054807	NaN	0.000000	0.001657	0.001718	28.0833	0.092352	0.001886	48.9796	138.478	-165.769	-0.068742	0.341389	-0.806408	-0.807725	-0.054807	48.9796	-0.805568	-5.351064E+10	1.024229E-12	NaN
795	1.000000	0.352732	7.37283e+06	-39889.1	1055.82	-29792.1	0.000000	0.000000	6.352888	-0.068092	NaN	0.000000	0.001677	0.001742	28.0831	0.038736	0.001913	20.2508	-2.058513	12.7474	-0.100739	0.351415	-0.796382	-0.797699	-0.068092	20.2508	-0.793860	-3.711066E+10	1.834826E-12	NaN
795	1.000000	0.362726	7.37283e+06	-39889.1	1055.82	-29792.1	0.000000	0.000000	6.362884	-0.005336	NaN	0.000000	0.001726	0.001709	28.0832	0.038207	0.002012	18.9938	-132.389	-167.694	4.636229E-5	0.361416	-0.786388	-0.787697	-0.005336	18.9938	-0.786177	-2.918470E+10	1.828284E-13	NaN
795	1.000000	0.372703	7.37283e+06	-39889.1	1055.82	-29792.1	0.000000	0.000000	6.372857	-0.111516	NaN	0.000000	0.001770	0.001719	28.0834	0.038646	0.001904	20.3	-79.0396	12.1178	-0.135448	0.371360	-0.776410	-0.777753	-0.111516	20.3	-0.772290	-1.889905E+10	5.900631E-12	NaN
795	1.000000	0.382697	7.37283e+06	-39889.1	1055.82	-29792.1	0.000000	0.000000	6.382851	-0.106053	NaN	0.000000	0.001743	0.001703	28.0833	0.099032	0.002041	48.519	-146.932	-164.722	-0.022635	0.381434	-0.766417	-0.767679	-0.106053	48.519	-0.764777	-1.493776E+10	7.099678E-12	NaN
795	1.000000	0.392735	7.37283e+06	-39889.1	1055.82	-29792.1	0.000000	0.000000	6.392892	-0.016315	NaN	0.000000	0.001750	0.001723	28.0832	0.032771	0.001965	16.6812	95.8574	13.6669	-0.023802	0.391341	-0.756379	-0.757773	-0.016315	16.6812	-0.755645	-1.122154E+10	1.453912E-12	NaN
795	1.000000	0.402749	7.37283e+06	-39889.1	1055.82	-29792.1	0.000000	0.000000	6.402906	-0.048108	NaN	0.000000	0.001755	0.001720	28.0834	0.041981	0.001973	21.2743	15.0656	-167.285	-0.065745	0.401430	-0.746364	-0.747684	-0.048108	21.2743	-0.744668	-7.954815E+9	6.047619E-12	NaN
795	1.000000	0.412737	7.37283e+06	-39889.1	1055.82	-29792.1	0.000000	0.000000	6.412894	-0.040087	NaN	0.000000	0.001736	0.001714	28.082	0.079427	0.001998	39.7552	-91.211	14.0136	0.010279	0.411350	-0.736376	-0.737763	-0.040087	39.7552	-0.735620	-5.989533E+9	6.692766E-12	NaN
795	1.000000	0.422732	7.37283e+06	-39889.1	1055.82	-29792.1	0.000000	0.000000	6.422890	-0.012135	NaN	0.000000	0.001709	0.001733	28.0819	0.078709	0.002023	38.9161	127.33	-167.759	-0.011297	0.421444	-0.726381	-0.727669	-0.012135	38.9161	-0.726147	-4.449337E+9	2.727419E-12	NaN
795	1.000000	0.432793	7.37283e+06	-39889.1	1055.82	-29792.1	0.000000	0.000000	6.432952	0.011857	NaN	0.000000	0.001676	0.001741	28.082	0.060852	0.001974	30.8198	155.426	17.1604	-0.034907	0.431368	-0.716321	-0.717745	0.011857	30.8198	-0.716609	-3.297808E+9	-3.595438E-12	NaN
795	1.000000	0.442759	7.37283e+06	-39889.1	1055.82	-29792.1	0.000000	0.000000	6.442915	-0.050222	NaN	0.000000	0.001599	0.001740	28.0824	0.053809	0.002090	25.7517	133.724	-163.384	-0.019129	0.441433	-0.706355	-0.707681	-0.050222	25.7517	-0.704892	-2.282062E+9	2.200728E-11	NaN
795	1.000000	0.452750	7.37283e+06	-39889.1	1055.82	-29792.1	0.000000	0.000000	6.452906	-0.064950	NaN	0.000000	0.001621	0.001733	28.0819	0.070857	0.002051	34.5528	-65.0246	15.9688	-0.039330	0.451369	-0.696363	-0.697744	-0.064950	34.5528	-0.694954	-1.669561E+9	3.890247E-11	NaN
795	1.000000	0.462785	7.37283e+06	-39889.1	1055.82	-29792.1	0.000000	0.000000	6.462941	-0.068335	NaN	0.000000	0.001598	0.001742	28.082	0.067116	0.001994	33.6618	-160.438	-167.008	-0.010422	0.461414	-0.686329	-0.687699	-0.068335	33.6618	-0.684806	-1.213178E+9	5.632703E-11	NaN
795	1.000000	0.472764	7.37283e+06	-39889.1	1055.82	-29792.1	0.000000	0.000000	6.472922	-0.002961	NaN	0.000000	0.001668	0.001705	28.0821	0.127143	0.002002	63.5135	105.772	13.0519	0.012276	0.471344	-0.676350	-0.677769	-0.002961	63.5135	-0.676315	-9.285393E+8	3.188758E-12	NaN
795	1.000000	0.482776	7.37283e+06	-39889.1	1055.82	-29792.1	0.000000	0.000000	6.482934	-0.021477	NaN	0.000000	0.001613	0.001748	28.0823	0.071866	0.001983	36.2356	-176.029	-167.221	0.002188	0.481496	-0.666337	-0.667617	-0.021477	36.2356	-0.665893	-6.686040E+8	3.212150E-11	NaN
795	1.000000	0.492756	7.37283e+06	-39889.1	1055.82	-29792.1	0.000000	0.000000	6.492916	0.038161	NaN	0.000000	0.001598	0.001735	28.0821	0.037158	0.002051	18.1179	-60.2997	14.6252	-0.000107	0.491371	-0.656358	-0.657743	0.038161	18.1179	-0.657938	-5.202545E+8	-7.335106E-11	NaN
795	1.000000	0.502791	7.37283e+06	-39889.1	1055.82	-29792.1	0.000000	0.000000	6.502949	-0.011938	NaN	0.000000	0.001625	0.001723	28.0818	0.077572	0.001886	41.1296	92.1922	-170.362	0.012002	0.501448	-0.646322	-0.647665	-0.011938	41.1296	-0.646105	-3.581178E+8	3.333508E-11	NaN
795	1.000000	0.512790	7.37283e+06	-39889.1	1055.82	-29792.1	0.000000	0.000000	6.512946	-0.049525	NaN	0.000000	0.001575	0.001720	28.0822	0.122434	0.002025	60.4707	-27.9359	14.1016	-0.082228	0.511428	-0.636324	-0.637686	-0.049525	60.4707	-0.635709	-2.578739E+8	1.920494E-10	NaN
795	1.000000	0.522751	7.37283e+06	-39889.1	1055.82	-29792.1	0.000000	0.000000	6.522909	0.001527	NaN	0.000000	0.001559	0.001728	28.0819	0.084136	0.002078	40.4895	175.948	-167.593	-0.020002	0.521475	-0.626363	-0.627638	0.001527	40.4895	-0.626391	-1.920675E+8	-7.951044E-12	NaN
795	1.000000	0.532805	7.37283e+06	-39889.1	1055.82	-29792.1	0.000000	0.000000	6.532963	0.003666	NaN	0.000000	0.001605	0.001701	28.082	0.035102	0.002032	17.2726	-152.182	14.9185	-0.007052	0.531424	-0.616309	-0.617690	0.003666	17.2726	-0.616468	-1.403059E+8	-2.612513E-11	NaN
795	1.000000	0.542793	7.37283e+06	-39889.1	1055.82	-29792.1	0.000000	0.000000	6.542951	-0.009546	NaN	0.000000	0.001590	0.001722	28.0819	0.049380	0.002018	24.4723	-89.8823	-162.55	-0.001519	0.541502	-0.606321	-0.607611	-0.009546	24.4723	-0.606028	-1.007996E+8	9.470352E-11	NaN
795	1.000000	0.552815	7.37283e+06	-39889.1	1055.82	-29792.1	0.000000	0.000000	6.552971	-0.060562	NaN	0.000000	0.001607	0.001719	28.0834	0.091226	0.002002	45.5721	173.491	17.1221	-0.034618	0.551486	-0.596299	-0.597627	-0.060562	45.5721	-0.595302	-7.173681E+7	8.442200E-10	NaN
795	1.000000	0.562803	7.37283e+06	-39889.1	1055.82	-29792.1	0.000000	0.000000	6.562961	-0.016812	NaN	0.000000	0.001547	0.001728	28.0831	0.099410	0.001949	51.0005	166.402	-163.855	-0.028089	0.561548	-0.586311	-0.587566	-0.016812	51.0005	-0.586063	-5.350359E+7	3.142240E-10	NaN
795	1.000000	0.572827	7.37283e+06	-39889.1	1055.82	-29792.1	0.000000	0.000000	6.572986	-0.003828	NaN	0.000000	0.001612	0.001749	28.0838	0.054683	0.001951	28.0301	128.653	13.0956	-0.050694	0.571427	-0.576286	-0.577687	-0.003828	28.0301	-0.576184	-3.908784E+7	9.792489E-11	NaN
795	1.000000	0.582813	7.37283e+06	-39889.1	1055.82	-29792.1	0.000000	0.000000	6.582970	-0.038176	NaN	0.000000	0.001611	0.001736	28.0832	0.052999	0.001972	26.8711	90.2076	-161.65	-0.022819	0.581473	-0.566300	-0.567640	-0.038176	26.8711	-0.565235	-2.759119E+7	1.383635E-9	NaN
795	1.000000	0.592816	7.37283e+06	-39889.1	1055.82	-29792.1	0.000000	0.000000	6.592974	0.007016	NaN	0.000000	0.001599	0.001757	28.0835	0.075344	0.001973	38.1948	169.663	11.6249	-0.017820	0.591474	-0.556298	-0.557639	0.007016	38.1948	-0.556436	-2.084779E+7	-3.365153E-10	NaN
795	1.000000	0.602831	7.37283e+06	-39889.1	1055.82	-29792.1	0.000000	0.000000	6.602987	-0.041558	NaN	0.000000	0.001606	0.001708	28.0832	0.012645	0.002165	5.840893	-10.3879	-167.792	-0.010218	0.601531	-0.546283	-0.547582	-0.041558	5.840893	-0.540947	-1.271995E+7	3.267166E-9	NaN
795	1.000000	0.612824	7.37283e+06	-39889.1	1055.82	-29792.1	0.000000	0.000000	6.612982	-0.009724	NaN	0.000000	0.001584	0.001710	28.0831	0.049954	0.002174	22.9813	102.307	14.4245	0.054290	0.611486	-0.536290	-0.537628	-0.009724	22.9813	-0.535972	-1.085136E+7	8.961458E-10	NaN
795	1.000000	0.622820	7.37283e+06	-39889.1	1055.82	-29792.1	0.000000	0.000000	6.622977	-0.028982	NaN	0.000000	0.001620	0.001681	28.0831	0.044058	0.001948	22.6139	107.876	-167.165	-0.037097	0.621514	-0.526294	-0.527600	-0.028982	22.6139	-0.525332	-7.72203e+06	3.753122E-9	NaN
795	1.000000	0.632817	7.37283e+06	-39889.1	1055.82	-29792.1	0.000000	0.000000	6.632974	-0.048683	NaN	0.000000	0.001599	0.001738	28.0833	0.046590	0.002081	22.386	-78.1019	14.0394	-0.040790	0.631462	-0.516296	-0.517651	-0.048683	22.386	-0.514665	-5.4875e+06	8.871596E-9	NaN
795	1.000000	0.642847	7.37283e+06	-39889.1	1055.82	-29792.1	0.000000	0.000000	6.643005	-0.034264	NaN	0.000000	0.001617	0.001744	28.0832	0.113911	0.001928	59.094	-3.556989	-163.974	-0.035733	0.641547	-0.506266	-0.507567	-0.034264	59.094	-0.505831	-4.13361e+06	8.289237E-9	NaN
795	1.000000	0.652872	7.37283e+06	-39889.1	1055.82	-29792.1	0.000000	0.000000	6.653030	-0.019559	NaN	0.000000	0.001592	0.001750	28.0832	0.051758	0.001965	26.3462	-63.6297	17.407	-0.029807	0.651476	-0.496241	-0.497638	-0.019559	26.3462	-0.495685	-2.98396e+06	6.554613E-9	NaN
795	1.000000	0.662845	7.37283e+06	-39889.1	1055.82	-29792.1	0.000000	0.000000	6.663000	-0.077182	NaN	0.000000	0.001596	0.001735	28.0832	0.064708	0.002039	31.73	-66.3389	-163.156	-0.072480	0.661544	-0.486269	-0.487570	-0.077182	31.73	-0.484444	-2.07836e+06	3.713623E-8	NaN
795	1.000000	0.672849	7.37283e+06	-39889.1	1055.82	-29792.1	0.000000	0.000000	6.673006	-0.034865	NaN	0.000000	0.001596	0.001660	28.083	0.027250	0.001898	14.3604	-95.6897	12.2325	-0.078979	0.671492	-0.476265	-0.477622	-0.034865	14.3604	-0.474444	-1.5056e+06	2.315673E-8	NaN
795	1.000000	0.682842	7.37283e+06	-39889.1	1055.82	-29792.1	0.000000	0.000000	6.682999	-0.047349	NaN	0.000000	0.001585	0.001681	28.0829	0.071713	0.002019	35.512	-164.892	-165.391	-0.041148	0.681536	-0.466271	-0.467578	-0.047349	35.512	-0.465271	-1.11959e+06	4.229193E-8	NaN
795	1.000000	0.692862	7.37283e+06	-39889.1	1055.82	-29792.1	0.000000	0.000000	6.693017	-0.081007	NaN	0.000000	0.001607	0.001677	28.0817	0.097895	0.001994	49.0856	76.9332	14.187	-0.065144	0.691460	-0.456252	-0.457653	-0.081007	49.0856	-0.455014	-803369	1.008343E-7	NaN
795	1.000000	0.702849	7.37283e+06	-39889.1	1055.82	-29792.1	0.000000	0.000000	6.703002	-0.128724	NaN	0.000000	0.001575	0.001673	28.0821	0.042007	0.002008	20.9218	-17.1075	-164.831	-0.031818	0.701587	-0.446264	-0.447526	-0.128724	20.9218	-0.441650	-520771	2.471803E-7	NaN
795	1.000000	0.712886	7.37283e+06	-39889.1	1055.82	-29792.1	0.000000	0.000000	6.713043	-0.036506	NaN	0.000000	0.001544	0.001673	28.0818	0.012085	0.002069	5.841360	72.8296	14.5105	-0.108383	0.711502	-0.436228	-0.437611	-0.036506	5.841360	-0.431541	-374847	9.738918E-8	NaN
795	1.000000	0.722900	7.37283e+06	-39889.1	1055.82	-29792.1	0.000000	0.000000	6.723058	0.003506	NaN	0.000000	0.001551	0.001702	28.0818	0.106777	0.002022	52.8066	98.3633	-165.277	-0.096026	0.721535	-0.426214	-0.427579	0.003506	52.8066	-0.426264	-315629	-1.110721E-8	NaN
795	1.000000	0.732872	7.37283e+06	-39889.1	1055.82	-29792.1	0.000000	0.000000	6.733028	-0.058850	NaN	0.000000	0.001567	0.001672	28.0817	0.080602	0.002074	38.8591	47.1048	14.4601	-0.042814	0.731515	-0.416242	-0.417599	-0.058850	38.8591	-0.415106	-219260	2.684042E-7	NaN
795	1.000000	0.742891	7.37283e+06	-39889.1	1055.82	-29792.1	0.000000	0.000000	6.743047	-0.050114	NaN	0.000000	0.001572	0.001710	28.082	0.071761	0.001907	37.6294	116.783	-170.373	0.059695	0.741568	-0.406222	-0.407545	-0.050114	37.6294	-0.405224	-158647	3.158845E-7	NaN
795	1.000000	0.752894	7.37283e+06	-39889.1	1055.82	-29792.1	0.000000	0.000000	6.753052	-0.006821	NaN	0.000000	0.001664	0.001676	28.0818	0.035719	0.001901	18.7848	-168.847	12.452	0.011703	0.751521	-0.396220	-0.397592	-0.006821	18.7848	-0.395947	-116994	5.830511E-8	NaN
795	1.000000	0.762911	7.37283e+06	-39889.1	1055.82	-29792.1	0.000000	0.000000	6.763067	-0.061306	NaN	0.000000	0.001620	0.001687	28.0819	0.072187	0.002025	35.6509	12.4017	-165.815	0.004716	0.761552	-0.386202	-0.387561	-0.061306	35.6509	-0.384912	-81345.2	7.536569E-7	NaN
795	1.000000	0.772885	7.37283e+06	-39889.1	1055.82	-29792.1	0.000000	0.000000	6.773042	-0.055995	NaN	0.000000	0.001629	0.001653	28.082	0.053891	0.002055	26.227	-159.469	13.6859	-0.054480	0.771559	-0.376228	-0.377555	-0.055995	26.227	-0.374627	-57903.9	9.670251E-7	NaN
795	1.000000	0.782934	7.37283e+06	-39889.1	1055.82	-29792.1	0.000000	0.000000	6.783091	-0.037825	NaN	0.000000	0.001640	0.001674	28.082	0.060112	0.002029	29.6223	-1.670924	-165.366	-0.015317	0.781578	-0.366179	-0.367535	-0.037825	29.6223	-0.365221	-42388.5	8.923367E-7	NaN
795	1.000000	0.792916	7.37283e+06	-39889.1	1055.82	-29792.1	0.000000	0.000000	6.793075	-0.008742	NaN	0.000000	0.001668	0.001633	28.0818	0.033511	0.002021	16.5836	-140.643	14.335	-0.110429	0.791510	-0.356197	-0.357603	-0.008742	16.5836	-0.355802	-30981.8	2.821679E-7	NaN
795	1.000000	0.802891	7.37283e+06	-39889.1	1055.82	-29792.1	0.000000	0.000000	6.803046	-0.088687	NaN	0.000000	0.001642	0.001647	28.0819	0.038404	0.002024	18.9774	-68.8551	-166.647	-0.125683	0.801619	-0.346223	-0.347495	-0.088687	18.9774	-0.342718	-20005.3	4.433198E-6	NaN
795	1.000000	0.812917	7.37283e+06	-39889.1	1055.82	-29792.1	0.000000	0.000000	6.813075	-0.018442	NaN	0.000000	0.001599	0.001665	28.0821	0.136876	0.002115	64.7142	-78.9572	12.438	-0.052478	0.811511	-0.336197	-0.337602	-0.018442	64.7142	-0.335983	-15956.8	1.155763E-6	NaN
795	1.000000	0.822931	7.37283e+06	-39889.1	1055.82	-29792.1	0.000000	0.000000	6.823088	-0.029300	NaN	0.000000	0.001646	0.001687	28.083	0.012205	0.002087	5.849371	144.613	-166.97	-0.073495	0.821619	-0.326182	-0.327495	-0.029300	5.849371	-0.322426	-10099.9	2.901054E-6	NaN
795	1.000000	0.832915	7.37283e+06	-39889.1	1055.82	-29792.1	0.000000	0.000000	6.833072	-0.032377	NaN	0.000000	0.001636	0.001687	28.0831	0.021821	0.002165	10.0796	-30.8193	14.2918	0.011598	0.831568	-0.316198	-0.317546	-0.032377	10.0796	-0.313789	-7534.85	4.296992E-6	NaN
795	1.000000	0.842925	7.37283e+06	-39889.1	1055.82	-29792.1	0.000000	0.000000	6.843082	-0.036368	NaN	0.000000	0.001654	0.001642	28.0832	0.031879	0.002027	15.7302	-162.586	-165.182	0.064443	0.841577	-0.306188	-0.307537	-0.036368	15.7302	-0.304454	-5480.92	6.635334E-6	NaN
795	1.000000	0.852944	7.37283e+06	-39889.1	1055.82	-29792.1	0.000000	0.000000	6.853101	-0.030725	NaN	0.000000	0.001653	0.001646	28.083	0.093092	0.001939	48.0152	-150.759	14.966	-0.070733	0.851536	-0.296170	-0.297578	-0.030725	48.0152	-0.295690	-4058.71	7.570233E-6	NaN
795	1.000000	0.862939	7.37284e+06	-39889.1	1055.82	-29792.1	0.000000	0.000000	6.863095	-0.046074	NaN	0.000000	0.001662	0.001633	28.0829	0.038164	0.001907	20.0104	-79.4729	-164.83	-0.046320	0.861583	-0.286175	-0.287530	-0.046074	20.0104	-0.284448	-2754	1.672990E-5	NaN
795	1.000000	0.872937	7.37284e+06	-39889.1	1055.82	-29792.1	0.000000	0.000000	6.873097	0.028357	NaN	0.000000	0.001669	0.001660	28.083	0.105064	0.002003	52.4632	-173.271	14.0952	0.003699	0.871597	-0.276176	-0.277517	0.028357	52.4632	-0.276582	-2095.75	-1.353074E-5	NaN
795	1.000000	0.882945	7.37284e+06	-39889.1	1055.82	-29792.1	0.000000	0.000000	6.883101	-0.071207	NaN	0.000000	0.001685	0.001666	28.0832	0.094717	0.002051	46.187	41.8872	-164.644	-0.063766	0.881570	-0.266168	-0.267544	-0.071207	46.187	-0.265012	-1398.19	5.092792E-5	NaN
795	1.000000	0.892938	7.37284e+06	-39889.1	1055.82	-29792.1	0.000000	0.000000	6.893093	-0.082271	NaN	0.000000	0.001657	0.001682	28.0831	0.054546	0.002102	25.9463	-152.984	17.6765	-0.074787	0.891587	-0.256175	-0.257527	-0.082271	25.9463	-0.253797	-941.005	8.742908E-5	NaN
795	1.000000	0.902953	7.37284e+06	-39889.1	1055.82	-29792.1	0.000000	0.000000	6.903110	-0.045985	NaN	0.000000	0.001651	0.001681	28.0829	0.127095	0.002064	61.5707	-124.397	-164.624	-0.030832	0.901715	-0.246161	-0.247399	-0.045985	61.5707	-0.245600	-702.716	6.543942E-5	NaN
795	1.000000	0.912965	7.37284e+06	-39889.1	1055.82	-29792.1	0.000000	0.000000	6.913122	-0.049303	NaN	0.000000	0.001648	0.001666	28.0832	0.062241	0.001801	34.56	-140.284	17.1273	0.032088	0.911608	-0.236148	-0.237505	-0.049303	34.56	-0.235078	-481.367	0.000102	NaN
795	1.000000	0.922934	7.37284e+06	-39889.1	1055.82	-29792.1	0.000000	0.000000	6.923091	-0.028905	NaN	0.000000	0.001598	0.001675	28.0837	0.087559	0.001996	43.8619	-169.723	-166.49	-0.082765	0.921640	-0.226180	-0.227474	-0.028905	43.8619	-0.225685	-342.148	8.448156E-5	NaN
795	1.000000	0.932959	7.37284e+06	-39889.1	1055.82	-29792.1	0.000000	0.000000	6.933118	-0.000877	NaN	0.000000	0.001669	0.001669	28.0831	0.169725	0.002009	84.4726	62.5137	14.0699	0.069992	0.931581	-0.216154	-0.217533	-0.000877	84.4726	-0.216146	-240.956	3.640076E-6	NaN
795	1.000000	0.942987	7.37284e+06	-39889.1	1055.82	-29792.1	0.000000	0.000000	6.943144	-0.047666	NaN	0.000000	0.001667	0.001667	28.0833	0.007300	0.002018	3.616662	25.5238	-164.377	-0.074286	0.941686	-0.206126	-0.207427	-0.047666	3.616662	-0.196242	-114.222	0.000417	NaN
795	1.000000	0.952941	7.37284e+06	-39889.1	1055.82	-29792.1	0.000000	0.000000	6.953097	-0.052641	NaN	0.000000	0.001643	0.001654	28.0833	0.033351	0.002006	16.6241	-111.84	10.4019	0.024791	0.951572	-0.196173	-0.197541	-0.052641	16.6241	-0.193798	-104.057	0.000506	NaN
795	1.000000	0.962969	7.37284e+06	-39889.1	1055.82	-29792.1	0.000000	0.000000	6.963125	-0.060232	NaN	0.000000	0.001642	0.001695	28.0822	0.049317	0.001954	25.2345	-72.6049	-166.906	0.021198	0.961675	-0.186144	-0.187438	-0.060232	25.2345	-0.184354	-72.317	0.000833	NaN
795	1.000000	0.972989	7.37284e+06	-39889.1	1055.82	-29792.1	0.000000	0.000000	6.973146	-0.049514	NaN	0.000000	0.001622	0.001653	28.082	0.169773	0.001988	85.4025	64.8058	15.3554	-0.052120	0.971634	-0.176124	-0.177479	-0.049514	85.4025	-0.175689	-51.5015	0.000961	NaN
795	1.000000	0.982984	7.37284e+06	-39889.1	1055.82	-29792.1	0.000000	0.000000	6.983141	-0.032971	NaN	0.000000	0.001652	0.001702	28.0819	0.020344	0.001978	10.2836	-72.0607	-166.469	-0.072570	0.981699	-0.166129	-0.167414	-0.032971	10.2836	-0.163725	-31.9064	0.001033	NaN
795	1.000000	0.992962	7.37284e+06	-39889.1	1055.82	-29792.1	0.000000	0.000000	6.993120	-0.000617	NaN	0.000000	0.001651	0.001707	28.0823	0.043001	0.001936	22.2166	100.446	15.4188	-0.009828	0.991617	-0.156152	-0.157497	-0.000617	22.2166	-0.156131	-23.383	2.640562E-5	NaN
795	1.000000	1.002998	7.37284e+06	-39889.1	1055.82	-29792.1	0.000000	0.000000	7.003156	0.002294	NaN	0.000000	0.001649	0.001723	28.0822	0.084724	0.001928	43.9528	-107.11	-166.264	-0.049648	1.001694	-0.146116	-0.147419	0.002294	43.9528	-0.146155	-15.3993	-0.000149	NaN
795	1.000000	1.013029	7.37284e+06	-39889.1	1055.82	-29792.1	0.000000	0.000000	7.013186	-0.047066	NaN	0.000000	0.001617	0.001725	28.0822	0.084941	0.001931	43.9864	-70.7752	15.5616	-0.066937	1.011668	-0.136084	-0.137446	-0.047066	43.9864	-0.135281	-9.630756	0.004887	NaN
795	1.000000	1.022997	7.37284e+06	-39889.1	1055.82	-29792.1	0.000000	0.000000	7.023153	-0.068656	NaN	0.000000	0.001578	0.001790	28.0819	0.059941	0.002051	29.2279	78.8534	-166.177	-0.053367	1.021672	-0.126117	-0.127441	-0.068656	29.2279	-0.124355	-5.904909	0.011627	NaN
795	1.000000	1.032948	7.37284e+06	-39889.1	1055.82	-29792.1	0.000000	0.000000	7.033104	-0.053475	NaN	0.000000	0.001687	0.001743	28.0823	0.075786	0.002030	37.3359	-142.515	15.1764	-0.020216	1.031589	-0.116165	-0.117524	-0.053475	37.3359	-0.115091	-3.836949	0.013937	NaN
795	1.000000	1.043010	7.37284e+06	-39889.1	1055.82	-29792.1	0.000000	0.000000	7.043167	-0.022403	NaN	0.000000	0.001649	0.001739	28.0819	0.030300	0.002021	14.9902	-93.9224	-165.054	-0.121239	1.041688	-0.106104	-0.107426	-0.022403	14.9902	-0.104983	-2.348590	0.009539	NaN
795	1.000000	1.053010	7.37284e+06	-39889.1	1055.82	-29792.1	0.000000	0.000000	7.053170	0.025366	NaN	0.000000	0.001641	0.001736	28.082	0.067236	0.001928	34.8695	169.658	9.636681	-0.089440	1.051641	-0.096103	-0.097472	0.025366	34.8695	-0.096649	-1.537470	-0.016498	NaN
795	1.000000	1.063036	7.37284e+06	-39889.1	1055.82	-29792.1	0.000000	0.000000	7.063193	-0.052755	NaN	0.000000	0.001638	0.001742	28.0819	0.053986	0.002076	25.9998	154.707	-167.308	-0.055825	1.061696	-0.086077	-0.087418	-0.052755	25.9998	-0.084555	-0.801491	0.065821	NaN
795	1.000000	1.073014	7.37284e+06	-39889.1	1055.82	-29792.1	0.000000	0.000000	7.073171	-0.030830	NaN	0.000000	0.001655	0.001737	28.0819	0.025838	0.002002	12.905	-8.878144	13.2401	-0.054101	1.071643	-0.076100	-0.077471	-0.030830	12.905	-0.074308	-0.443176	0.069565	NaN
795	1.000000	1.083036	7.37284e+06	-39889.1	1055.82	-29792.1	0.000000	0.000000	7.083194	-0.002607	NaN	0.000000	0.001613	0.001710	28.082	0.072336	0.002120	34.1238	-115.561	-166.823	0.023840	1.081737	-0.066077	-0.067377	-0.002607	34.1238	-0.066020	-0.265935	0.009802	NaN
795	1.000000	1.093027	7.37284e+06	-39889.1	1055.82	-29792.1	0.000000	0.000000	7.093185	-0.010003	NaN	0.000000	0.001558	0.001699	28.0824	0.140520	0.002001	70.2223	-31.7564	13.4009	-0.003132	1.091668	-0.056086	-0.057446	-0.010003	70.2223	-0.055979	-0.137630	0.072678	NaN
795	1.000000	1.103011	7.37284e+06	-39889.1	1055.82	-29792.1	0.000000	0.000000	7.103167	-0.078505	NaN	0.000000	0.001573	0.001734	28.0835	0.114245	0.001896	60.2604	-110.068	-162.409	-0.038343	1.101741	-0.046102	-0.047373	-0.078505	60.2604	-0.045125	-0.064836	1.210827	NaN
795	1.000000	1.113013	7.37284e+06	-39889.1	1055.82	-29792.1	0.000000	0.000000	7.113170	-0.037873	NaN	0.000000	0.001587	0.001710	28.0833	0.040974	0.002073	19.7673	131.546	12.4544	0.010882	1.111714	-0.036100	-0.037400	-0.037873	19.7673	-0.034663	-0.031302	1.209921	NaN
795	1.000000	1.123024	7.37284e+06	-39889.1	1055.82	-29792.1	0.000000	0.000000	7.123192	0.218780	NaN	0.000000	0.001615	0.001739	28.0835	0.208386	0.001996	104.402	22.1496	-165.116	0.058488	1.121714	-0.026089	-0.027399	0.218780	104.402	-0.027661	-0.019851	-11.0212	NaN
795	1.000000	1.133042	7.37284e+06	-39889.1	1055.82	-29792.1	0.000000	0.000000	7.133278	1.886614	NaN	0.000000	0.001643	0.001720	28.0833	1.166813	0.001843	633.108	10.0081	12.5697	1.549780	1.131643	-0.016071	-0.017470	1.886614	633.108	-0.018306	-0.011368	-165.956	NaN
795	1.000000	1.143032	7.37284e+06	-39889.1	1055.82	-29792.1	0.000000	0.000000	7.143244	1.300077	NaN	0.000000	0.001615	0.001737	28.0835	0.964638	0.001889	510.713	14.6087	-164.316	1.359081	1.141703	-0.006081	-0.007411	1.300077	510.713	-0.007990	-0.005226	-248.773	NaN
795	2.000000	1.152726	7.37284e+06	-39889.1	1055.82	-29792.1	0.000000	0.000000	7.153226	8.308658	NaN	0.000000	0.001620	0.001719	28.0834	7.441050	0.001775	4191.55	14.8035	2.942334	6.874927	1.151629	0.003613	0.002515	8.308658	4191.55	0.002126	0.001657	5013.65	94071.7
795	2.000000	1.155633	7.37284e+06	-39889.1	1055.82	-29792.1	0.000000	0.000000	7.156297	12.3144	NaN	0.000000	0.001635	0.001721	28.0833	9.928734	0.001781	5576.21	6.252794	-173.347	11.8466	1.155293	0.006519	0.006179	12.3144	5576.21	0.004863	0.004009	3071.89	80465.3
795	2.000000	1.158099	7.37284e+06	-39889.1	1055.82	-29792.1	0.000000	0.000000	7.158881	15.182	NaN	0.000000	0.001593	0.001714	28.0834	11.722	0.001798	6521.21	6.296591	6.458526	14.2005	1.157758	0.008986	0.008645	15.182	6521.21	0.007239	0.006272	2420.72	75233.1
795	2.000000	1.160570	7.37284e+06	-39889.1	1055.82	-29792.1	0.000000	0.000000	7.161590	20.9597	NaN	0.000000	0.001595	0.001694	28.0836	14.1572	0.001804	7848.23	11.3656	178.922	20.1239	1.160220	0.011456	0.011107	20.9597	7848.23	0.009453	0.008580	2442.75	77409
795	2.000000	1.163027	7.37284e+06	-39889.1	1055.82	-29792.1	0.000000	0.000000	7.164339	28.058	NaN	0.000000	0.001575	0.001700	28.0834	17.1429	0.001822	9406.7	10.1187	-0.006742	26.5803	1.162712	0.013914	0.013598	28.058	9406.7	0.011677	0.011105	2526.55	81554.3
795	2.000000	1.165533	7.37284e+06	-39889.1	1055.82	-29792.1	0.000000	0.000000	7.167134	35.1179	NaN	0.000000	0.001603	0.001675	28.0831	19.4919	0.001760	11073	2.397234	-173.635	34.4248	1.165258	0.016419	0.016144	35.1179	11073	0.014041	0.014027	2503.57	85418.6
795	2.000000	1.168066	7.37284e+06	-39889.1	1055.82	-29792.1	0.000000	0.000000	7.170098	45.6025	NaN	0.000000	0.001563	0.001674	28.0835	22.2451	0.001847	12041.6	5.266315	3.006563	44.1841	1.167696	0.018952	0.018583	45.6025	12041.6	0.016112	0.016797	2714.97	84888.1
795	2.000000	1.170560	7.37284e+06	-39889.1	1055.82	-29792.1	0.000000	0.000000	7.172953	54.376	NaN	0.000000	0.001578	0.001693	28.0835	24.0639	0.001714	14039.5	2.808552	-176.148	54.2469	1.170203	0.021447	0.021090	54.376	14039.5	0.018542	0.020302	2678.3	90022.2
795	2.000000	1.173040	7.37284e+06	-39889.1	1055.82	-29792.1	0.000000	0.000000	7.175827	63.9596	NaN	0.000000	0.001532	0.001684	28.0821	26.853	0.001884	14254.9	3.776872	3.018190	62.4401	1.172659	0.023927	0.023546	63.9596	14254.9	0.020561	0.023432	2729.56	85080.7
795	2.000000	1.175540	7.37284e+06	-39889.1	1055.82	-29792.1	0.000000	0.000000	7.178777	74.8975	NaN	0.000000	0.001593	0.001684	28.0817	29.8131	0.001731	17218.6	6.107289	177.561	74.5476	1.175223	0.026427	0.026109	74.8975	17218.6	0.023164	0.027761	2697.98	94418.3
795	2.000000	1.178057	7.37284e+06	-39889.1	1055.82	-29792.1	0.000000	0.000000	7.181770	86.4844	NaN	0.000000	0.001595	0.001671	28.0822	31.781	0.001730	18366.4	6.230679	-1.979253	84.4709	1.177644	0.028944	0.028531	86.4844	18366.4	0.025412	0.031770	2722.2	94143.3
795	2.000000	1.180543	7.37284e+06	-39889.1	1055.82	-29792.1	0.000000	0.000000	7.184577	94.3109	NaN	0.000000	0.001643	0.001716	28.0823	34.5407	0.001765	19567.1	5.795975	176.932	94.231	1.180288	0.031429	0.031175	94.3109	19567.1	0.027814	0.036335	2595.58	93785.7
795	2.000000	1.182994	7.37284e+06	-39889.1	1055.82	-29792.1	0.000000	0.000000	7.187640	109.193	NaN	0.000000	0.001568	0.001720	28.0823	37.951	0.001724	22016.8	7.014548	-5.859995	106.854	1.182646	0.033881	0.033532	109.193	22016.8	0.030161	0.041079	2658.15	99247.5
795	2.000000	1.185534	7.37284e+06	-39889.1	1055.82	-29792.1	0.000000	0.000000	7.190759	123.276	NaN	0.000000	0.001618	0.001721	28.0819	40.8643	0.001849	22101.2	3.985641	178.024	123.261	1.185263	0.036421	0.036150	123.276	22101.2	0.032237	0.045509	2708.84	94654.7
795	2.000000	1.188081	7.37284e+06	-39889.1	1055.82	-29792.1	0.000000	0.000000	7.193830	136.032	NaN	0.000000	0.001580	0.001716	28.0819	43.2247	0.001792	24115.9	6.629704	-4.652456	136.431	1.187638	0.038968	0.038525	136.032	24115.9	0.034737	0.051136	2660.18	97434.6
795	2.000000	1.190516	7.37284e+06	-39889.1	1055.82	-29792.1	0.000000	0.000000	7.196687	146.317	NaN	0.000000	0.001647	0.001722	28.0821	44.5888	0.001732	25740.7	3.173531	177.113	144.983	1.190236	0.041402	0.041122	146.317	25740.7	0.037139	0.056844	2574	98639.7
795	2.000000	1.192946	7.37284e+06	-39889.1	1055.82	-29792.1	0.000000	0.000000	7.199884	164.979	NaN	0.000000	0.001643	0.001704	28.0821	48.5819	0.001808	26864.9	7.878213	-7.078634	161.904	1.192593	0.043832	0.043480	164.979	26864.9	0.039227	0.062045	2659.03	98538.3
795	2.000000	1.195505	7.37284e+06	-39889.1	1055.82	-29792.1	0.000000	0.000000	7.202779	173.157	NaN	0.000000	0.001631	0.001702	28.0822	50.8518	0.001777	28610.2	1.633592	178.279	173.053	1.195249	0.046391	0.046135	173.157	28610.2	0.041852	0.068902	2513.1	99581.4
795	2.000000	1.197994	7.37284e+06	-39889.1	1055.82	-29792.1	0.000000	0.000000	7.205987	190.649	NaN	0.000000	0.001633	0.001732	28.0822	53.7866	0.001870	28770.1	8.909819	-8.721794	187.449	1.197630	0.048881	0.048517	190.649	28770.1	0.043911	0.074525	2558.2	96286.2
795	2.000000	1.200414	7.37284e+06	-39889.1	1055.82	-29792.1	0.000000	0.000000	7.209022	205.623	NaN	0.000000	0.001653	0.001708	28.0822	54.6497	0.001775	30790.2	3.937303	175.334	201.345	1.200154	0.051300	0.051041	205.623	30790.2	0.046291	0.081296	2529.31	98662.3
795	2.000000	1.202925	7.37284e+06	-39889.1	1055.82	-29792.1	0.000000	0.000000	7.212179	221.32	NaN	0.000000	0.001635	0.001726	28.0822	57.6738	0.001769	32599.4	2.312789	-3.278814	215.969	1.202659	0.053812	0.053546	221.32	32599.4	0.048720	0.088497	2500.87	100119
795	2.000000	1.205500	7.37284e+06	-39889.1	1055.82	-29792.1	0.000000	0.000000	7.215150	230.965	NaN	0.000000	0.001625	0.001733	28.0819	61.2595	0.001836	33373	4.621017	174.213	230.375	1.205215	0.056387	0.056102	230.965	33373	0.051196	0.096147	2402.2	98333.2
795	2.000000	1.207973	7.37284e+06	-39889.1	1055.82	-29792.1	0.000000	0.000000	7.218405	249.984	NaN	0.000000	0.001677	0.001697	28.0835	62.4494	0.001839	33962.5	4.176093	-4.751039	245.93	1.207521	0.058860	0.058408	249.984	33962.5	0.053339	0.103014	2426.7	96677.4
795	2.000000	1.210418	7.37284e+06	-39889.1	1055.82	-29792.1	0.000000	0.000000	7.221492	265.625	NaN	0.000000	0.001639	0.001685	28.0833	64.1106	0.001781	36001.4	3.918809	175.075	261.289	1.210090	0.061304	0.060976	265.625	36001.4	0.055771	0.111081	2391.27	98689.9
795	2.000000	1.212986	7.37284e+06	-39889.1	1055.82	-29792.1	0.000000	0.000000	7.224689	280.918	NaN	0.000000	0.001612	0.001732	28.0834	67.3566	0.001825	36913.9	5.879936	-7.453818	278.964	1.212669	0.063872	0.063556	280.918	36913.9	0.058165	0.119310	2354.51	97639.2
795	2.000000	1.215453	7.37284e+06	-39889.1	1055.82	-29792.1	0.000000	0.000000	7.227761	295.661	NaN	0.000000	0.001621	0.001727	28.0832	69.0557	0.001841	37505.6	0.105942	177.97	292.898	1.215099	0.066339	0.065985	295.661	37505.6	0.060427	0.127344	2321.75	96024.2
795	2.000000	1.217975	7.37284e+06	-39889.1	1055.82	-29792.1	0.000000	0.000000	7.230872	309.984	NaN	0.000000	0.001614	0.001743	28.0836	71.6338	0.001819	39372.5	4.412310	-6.677355	306.478	1.217655	0.068861	0.068542	309.984	39372.5	0.062956	0.136622	2268.92	97320.8
795	2.000000	1.220477	7.37284e+06	-39889.1	1055.82	-29792.1	0.000000	0.000000	7.233976	324.616	NaN	0.000000	0.001637	0.001726	28.0833	72.6505	0.001772	41008.9	2.242920	174.882	323.726	1.220316	0.071364	0.071203	324.616	41008.9	0.065427	0.145985	2223.63	98061.3
795	2.000000	1.222940	7.37284e+06	-39889.1	1055.82	-29792.1	0.000000	0.000000	7.237341	346.597	NaN	0.000000	0.001626	0.001693	28.0834	74.8563	0.001763	42447.9	0.120122	-3.075021	344.136	1.222723	0.073826	0.073609	346.597	42447.9	0.067702	0.154866	2238.04	98548.8
795	2.000000	1.225479	7.37284e+06	-39889.1	1055.82	-29792.1	0.000000	0.000000	7.240801	368.976	NaN	0.000000	0.001619	0.001715	28.0833	78.6861	0.001830	43001.5	3.132729	174.594	368.058	1.225132	0.076366	0.076019	368.976	43001.5	0.069931	0.163805	2252.53	97071.7
795	2.000000	1.227928	7.37284e+06	-39889.1	1055.82	-29792.1	0.000000	0.000000	7.244130	390.405	NaN	0.000000	0.001586	0.001736	28.0836	80.0849	0.001702	47048	5.368308	-8.774014	384.941	1.227560	0.078815	0.078446	390.405	47048	0.072591	0.174787	2233.6	102816
795	2.000000	1.230448	7.37284e+06	-39889.1	1055.82	-29792.1	0.000000	0.000000	7.247212	404.08	NaN	0.000000	0.001600	0.001713	28.0833	82.264	0.001763	46661.8	5.305508	171.246	403.213	1.230163	0.081335	0.081050	404.08	46661.8	0.074840	0.184332	2192.13	99296.4
795	2.000000	1.232882	7.37284e+06	-39889.1	1055.82	-29792.1	0.000000	0.000000	7.250495	424.751	NaN	0.000000	0.001589	0.001702	28.0833	84.6128	0.001815	46620	1.801017	-4.823320	418.77	1.232557	0.083769	0.083444	424.751	46620	0.076935	0.193439	2195.79	96844.1
795	2.000000	1.235455	7.37284e+06	-39889.1	1055.82	-29792.1	0.000000	0.000000	7.253725	440.734	NaN	0.000000	0.001634	0.001757	28.0835	86.9222	0.001862	46672.2	2.129337	174.685	439.942	1.235204	0.086342	0.086090	440.734	46672.2	0.079259	0.203780	2162.8	94460.7
795	2.000000	1.238001	7.37284e+06	-39889.1	1055.82	-29792.1	0.000000	0.000000	7.257202	463.379	NaN	0.000000	0.001621	0.001735	28.0836	89.2926	0.001870	47737.8	4.514045	-7.548781	462.071	1.237599	0.088888	0.088485	463.379	47737.8	0.081608	0.214486	2160.41	94175
795	2.000000	1.240412	7.37284e+06	-39889.1	1055.82	-29792.1	0.000000	0.000000	7.260422	483.07	NaN	0.000000	0.001636	0.001748	28.083	90.172	0.001704	52914	3.920343	172.271	482.01	1.240055	0.091299	0.090941	483.07	52914	0.084452	0.227795	2120.64	101291
795	2.000000	1.242911	7.37284e+06	-39889.1	1055.82	-29792.1	0.000000	0.000000	7.263784	504.071	NaN	0.000000	0.001620	0.001752	28.0822	94.5643	0.001836	51500.1	3.534087	-7.270654	499.38	1.242550	0.093798	0.093436	504.071	51500.1	0.086457	0.237400	2123.3	96569.8
795	2.000000	1.245399	7.37284e+06	-39889.1	1055.82	-29792.1	0.000000	0.000000	7.266951	520.594	NaN	0.000000	0.001631	0.001768	28.0825	97.2194	0.001789	54332.2	3.692963	171.94	516.831	1.245113	0.096286	0.095999	520.594	54332.2	0.089100	0.250346	2079.5	99211
795	2.000000	1.247928	7.37284e+06	-39889.1	1055.82	-29792.1	0.000000	0.000000	7.270220	538.616	NaN	0.000000	0.001644	0.001769	28.0822	99.7865	0.001826	54655.1	6.435680	-10.5262	533.714	1.247657	0.098814	0.098544	538.616	54655.1	0.091423	0.261992	2055.85	97557.3
795	2.000000	1.250321	7.37284e+06	-39889.1	1055.82	-29792.1	0.000000	0.000000	7.273428	558.431	NaN	0.000000	0.001582	0.001728	28.0822	101.073	0.001747	57869.9	3.427728	171.631	553.18	1.250284	0.101208	0.101171	558.431	57869.9	0.093970	0.275043	2030.34	100815
795	2.000000	1.251412	7.37284e+06	-39889.1	1055.82	-29792.1	0.000000	0.000000	7.275163	574.098	NaN	0.000000	0.001589	0.001690	28.0822	102.809	0.001705	60311.8	1.183515	174.252	570.55	1.251129	0.102299	0.102015	574.098	60311.8	0.095159	0.281238	2041.32	103906