File: remote_trans/data/nanoindenter/0828-1/data/Data_2025-08-06,11h17m57s/2025-07-22_16-23-58_1_710.txt
2025-07-22, 16:23:58, 1
Index	Phase	Displacement	Time	Pos X	Pos Y	Pos Z	Rot A	Rot B	Piezo Z	Force A	Force B	Gripper	Voltage A	Voltage B	Temperature	Amplitude force	Amplitude pos	Stiffness	Phase shift	Phase excitation	Force A raw	Displacement raw	HMax	HMax raw	Real Force	Real Stiffness	Contact Depth	Area	Hardness	Reduced Mod.
[#]	[#]	[um]	[s]	[um]	[um]	[um]	[m°]	[m°]	[um]	[uN]	[uN]	[V]	[V]	[V]	[°C]	[uN]	[um]	[N/m]	[°]	[°]	[uN]	[um]	[um]	[um]	[uN]	[N/m]	[um]	[um^2]	[MPa]	[MPa]
710	1.000000	0.002902	7.372e+06	-41589.1	1005.82	-29785.7	0.000000	0.000000	6.002782	0.021134	NaN	0.000000	0.001586	0.001712	28.0811	0.068043	0.001063	64.0226	-147.417	-163.537	0.069065	0.001637	-1.089164	-1.090429	0.021134	64.0226	-1.089412	-3.613360E+14	-5.848807E-17	NaN
710	1.000000	0.010893	7.372e+06	-41589.1	1005.82	-29785.7	0.000000	0.000000	6.010776	0.081006	NaN	0.000000	0.001652	0.001733	28.081	0.055224	0.000970	56.9606	123.636	-166.718	0.014408	0.009574	-1.081173	-1.082492	0.081006	56.9606	-1.082239	-2.894643E+14	-2.798494E-16	NaN
710	1.000000	0.018910	7.372e+06	-41589.1	1005.82	-29785.7	0.000000	0.000000	6.018788	-0.041893	NaN	0.000000	0.001641	0.001731	28.0809	0.134090	0.001711	78.3811	167.904	-163.13	-0.009903	0.017551	-1.073155	-1.074515	-0.041893	78.3811	-1.072755	-2.158714E+14	1.940627E-16	NaN
710	1.000000	0.026911	7.372e+06	-41589.1	1005.82	-29785.7	0.000000	0.000000	6.026789	-0.028149	NaN	0.000000	0.001613	0.001682	28.0817	0.048199	0.001871	25.7574	-119.468	-166.758	-0.018670	0.025573	-1.065155	-1.066493	-0.028149	25.7574	-1.064336	-1.663734E+14	1.691916E-16	NaN
710	1.000000	0.034870	7.372e+06	-41589.1	1005.82	-29785.7	0.000000	0.000000	6.034745	-0.103965	NaN	0.000000	0.001625	0.001739	28.0822	0.062890	0.001883	33.4074	40.2656	-167.092	-0.081406	0.033557	-1.057196	-1.058509	-0.103965	33.4074	-1.054862	-1.241001E+14	8.377537E-16	NaN
710	1.000000	0.042868	7.372e+06	-41589.1	1005.82	-29785.7	0.000000	0.000000	6.042750	0.058112	NaN	0.000000	0.001626	0.001754	28.0828	0.059845	0.001953	30.6405	-177.526	-165.249	0.087259	0.041562	-1.049198	-1.050504	0.058112	30.6405	-1.050620	-1.088312E+14	-5.339616E-16	NaN
710	1.000000	0.050865	7.372e+06	-41589.1	1005.82	-29785.7	0.000000	0.000000	6.050746	0.031759	NaN	0.000000	0.001626	0.001736	28.0826	0.035006	0.001966	17.8043	-65.0579	-165.892	0.004188	0.049575	-1.041201	-1.042491	0.031759	17.8043	-1.042539	-8.474242E+13	-3.747738E-16	NaN
710	1.000000	0.058887	7.372e+06	-41589.1	1005.82	-29785.7	0.000000	0.000000	6.058769	0.054788	NaN	0.000000	0.001663	0.001709	28.0824	0.059858	0.001988	30.103	-174.436	-164.249	0.030623	0.057597	-1.033179	-1.034469	0.054788	30.103	-1.034544	-6.615975E+13	-8.281235E-16	NaN
710	1.000000	0.066840	7.372e+06	-41589.1	1005.82	-29785.7	0.000000	0.000000	6.066721	0.040079	NaN	0.000000	0.001641	0.001733	28.0823	0.060104	0.001981	30.3399	53.1395	-165.168	0.013520	0.065543	-1.025226	-1.026523	0.040079	30.3399	-1.026217	-5.111992E+13	-7.840267E-16	NaN
710	1.000000	0.074888	7.372e+06	-41589.1	1005.82	-29785.7	0.000000	0.000000	6.074768	0.023481	NaN	0.000000	0.001618	0.001702	28.0828	0.129859	0.002087	62.2204	87.614	-165.358	-0.053343	0.073569	-1.017178	-1.018497	0.023481	62.2204	-1.017461	-3.897559E+13	-6.024519E-16	NaN
710	1.000000	0.082871	7.372e+06	-41589.1	1005.82	-29785.7	0.000000	0.000000	6.082750	-0.008352	NaN	0.000000	0.001614	0.001675	28.0826	0.173046	0.002039	84.8654	-59.777	-164.137	0.035344	0.081573	-1.009195	-1.010493	-0.008352	84.8654	-1.009121	-3.009935E+13	2.774851E-16	NaN
710	1.000000	0.090890	7.372e+06	-41589.1	1005.82	-29785.7	0.000000	0.000000	6.090771	0.025052	NaN	0.000000	0.001600	0.001700	28.0824	0.073469	0.001966	37.3754	-109.598	-161.86	0.067409	0.089571	-1.001176	-1.002495	0.025052	37.3754	-1.001679	-2.389853E+13	-1.048280E-15	NaN
710	1.000000	0.098898	7.372e+06	-41589.1	1005.82	-29785.7	0.000000	0.000000	6.098777	-0.033739	NaN	0.000000	0.001625	0.001694	28.0824	0.183796	0.002219	82.8147	89.305	-160.194	-0.065749	0.097611	-0.993168	-0.994455	-0.033739	82.8147	-0.992862	-1.818258E+13	1.855560E-15	NaN
710	1.000000	0.106862	7.372e+06	-41589.1	1005.82	-29785.7	0.000000	0.000000	6.106743	0.037635	NaN	0.000000	0.001645	0.001743	28.0822	0.173543	0.001956	88.7165	-109.16	-164.856	0.149763	0.105570	-0.985204	-0.986496	0.037635	88.7165	-0.985522	-1.448110E+13	-2.598890E-15	NaN
710	1.000000	0.114908	7.372e+06	-41589.1	1005.82	-29785.7	0.000000	0.000000	6.114791	0.078126	NaN	0.000000	0.001614	0.001728	28.0826	0.075590	0.001815	41.6546	-133.281	-165.456	0.051615	0.113553	-0.977158	-0.978513	0.078126	41.6546	-0.978565	-1.167013E+13	-6.694542E-15	NaN
710	1.000000	0.122889	7.372e+06	-41589.1	1005.82	-29785.7	0.000000	0.000000	6.122770	0.039394	NaN	0.000000	0.001618	0.001702	28.0823	0.053004	0.002116	25.0491	12.8324	-163.299	-0.025676	0.121579	-0.969177	-0.970487	0.039394	25.0491	-0.970357	-9.046327E+12	-4.354650E-15	NaN
710	1.000000	0.130908	7.372e+06	-41589.1	1005.82	-29785.7	0.000000	0.000000	6.130788	0.009960	NaN	0.000000	0.001614	0.001710	28.0824	0.041631	0.002042	20.3881	-5.886321	-164.459	-0.019239	0.129583	-0.961158	-0.962483	0.009960	20.3881	-0.961524	-6.877245E+12	-1.448301E-15	NaN
710	1.000000	0.138876	7.372e+06	-41589.1	1005.82	-29785.7	0.000000	0.000000	6.138757	0.018363	NaN	0.000000	0.001631	0.001655	28.0827	0.055885	0.002036	27.4553	174.964	-160.495	-0.027983	0.137595	-0.953189	-0.954470	0.018363	27.4553	-0.953691	-5.392664E+12	-3.405164E-15	NaN
710	1.000000	0.146909	7.372e+06	-41589.1	1005.82	-29785.7	0.000000	0.000000	6.146789	0.011825	NaN	0.000000	0.001611	0.001697	28.0826	0.150572	0.001889	79.696	-1.615482	-163.444	0.048479	0.145599	-0.945157	-0.946467	0.011825	79.696	-0.945269	-4.151556E+12	-2.848250E-15	NaN
710	1.000000	0.154921	7.372e+06	-41589.1	1005.82	-29785.7	0.000000	0.000000	6.154799	-0.037826	NaN	0.000000	0.001617	0.001697	28.0825	0.069195	0.001949	35.4991	-76.9207	-161.21	0.008013	0.153650	-0.937145	-0.938416	-0.037826	35.4991	-0.936346	-3.146558E+12	1.202131E-14	NaN
710	1.000000	0.162904	7.372e+06	-41589.1	1005.82	-29785.7	0.000000	0.000000	6.162783	-0.006479	NaN	0.000000	0.001629	0.001690	28.0819	0.037946	0.002083	18.221	176.196	-164.721	0.032780	0.161569	-0.929162	-0.930497	-0.006479	18.221	-0.928895	-2.496256E+12	2.595523E-15	NaN
710	1.000000	0.170942	7.372e+06	-41589.1	1005.82	-29785.7	0.000000	0.000000	6.170823	0.036698	NaN	0.000000	0.001661	0.001721	28.0813	0.123703	0.001929	64.1214	-146.804	-165.538	-0.020462	0.169623	-0.921124	-0.922442	0.036698	64.1214	-0.921554	-1.986923E+12	-1.846999E-14	NaN
710	1.000000	0.178915	7.372e+06	-41589.1	1005.82	-29785.7	0.000000	0.000000	6.178795	0.016566	NaN	0.000000	0.001599	0.001673	28.0813	0.032610	0.002085	15.6397	-127.584	-161.245	-0.017283	0.177616	-0.913151	-0.914449	0.016566	15.6397	-0.913945	-1.568367E+12	-1.056244E-14	NaN
710	1.000000	0.186924	7.372e+06	-41589.1	1005.82	-29785.7	0.000000	0.000000	6.186805	0.018185	NaN	0.000000	0.001652	0.001675	28.0814	0.086750	0.002022	42.9031	-69.0425	-168.425	0.033458	0.185591	-0.905142	-0.906475	0.018185	42.9031	-0.905460	-1.204569E+12	-1.509630E-14	NaN
710	1.000000	0.194927	7.372e+06	-41589.1	1005.82	-29785.7	0.000000	0.000000	6.194808	0.038564	NaN	0.000000	0.001631	0.001654	28.0814	0.027480	0.001983	13.8592	-6.683130	-163.673	0.003838	0.193645	-0.897139	-0.898421	0.038564	13.8592	-0.899226	-9.922275E+11	-3.886657E-14	NaN
710	1.000000	0.202937	7.372e+06	-41589.1	1005.82	-29785.7	0.000000	0.000000	6.202816	-0.027810	NaN	0.000000	0.001618	0.001674	28.081	0.128432	0.001889	67.9997	-125.263	-164.981	0.068688	0.201627	-0.889129	-0.890438	-0.027810	67.9997	-0.888822	-7.177760E+11	3.874465E-14	NaN
710	1.000000	0.210924	7.372e+06	-41589.1	1005.82	-29785.7	0.000000	0.000000	6.210803	-0.003152	NaN	0.000000	0.001638	0.001691	28.0812	0.093200	0.001888	49.3592	-83.3156	-163.923	0.048968	0.209602	-0.881142	-0.882463	-0.003152	49.3592	-0.881094	-5.642949E+11	5.586180E-15	NaN
710	1.000000	0.218896	7.372e+06	-41589.1	1005.82	-29785.7	0.000000	0.000000	6.218775	-0.022947	NaN	0.000000	0.001578	0.001725	28.0811	0.004306	0.002101	2.049664	21.5681	-163.904	0.007639	0.217611	-0.873170	-0.874455	-0.022947	2.049664	-0.864773	-3.394079E+11	6.760880E-14	NaN
710	1.000000	0.226954	7.372e+06	-41589.1	1005.82	-29785.7	0.000000	0.000000	6.226835	0.027477	NaN	0.000000	0.001585	0.001739	28.0813	0.072666	0.002098	34.6408	-105.464	-163.33	0.011449	0.225607	-0.865111	-0.866458	0.027477	34.6408	-0.865706	-3.494196E+11	-7.863673E-14	NaN
710	1.000000	0.234977	7.372e+06	-41589.1	1005.82	-29785.7	0.000000	0.000000	6.234857	0.006361	NaN	0.000000	0.001593	0.001763	28.0814	0.030162	0.001880	16.0456	107.759	-167.345	-0.040469	0.233650	-0.857089	-0.858415	0.006361	16.0456	-0.857386	-2.696117E+11	-2.359281E-14	NaN
710	1.000000	0.242935	7.372e+06	-41589.1	1005.82	-29785.7	0.000000	0.000000	6.242815	-0.010055	NaN	0.000000	0.001576	0.001742	28.081	0.127299	0.002017	63.1167	-102.419	-165.362	-0.059727	0.241666	-0.849130	-0.850400	-0.010055	63.1167	-0.849011	-2.076556E+11	4.842297E-14	NaN
710	1.000000	0.250954	7.372e+06	-41589.1	1005.82	-29785.7	0.000000	0.000000	6.250835	0.027842	NaN	0.000000	0.001604	0.001734	28.0813	0.034265	0.001985	17.2638	95.4712	-167.905	0.058791	0.249624	-0.841112	-0.842442	0.027842	17.2638	-0.842321	-1.685549E+11	-1.651832E-13	NaN
710	1.000000	0.258945	7.372e+06	-41589.1	1005.82	-29785.7	0.000000	0.000000	6.258827	0.040037	NaN	0.000000	0.001625	0.001721	28.081	0.043195	0.002108	20.491	117.181	-165.181	0.124620	0.257682	-0.833121	-0.834384	0.040037	20.491	-0.834586	-1.324145E+11	-3.023581E-13	NaN
710	1.000000	0.266930	7.372e+06	-41589.1	1005.82	-29785.7	0.000000	0.000000	6.266811	0.036382	NaN	0.000000	0.001577	0.001733	28.0813	0.131665	0.001967	66.9422	-101.402	-165.839	0.043946	0.265686	-0.825136	-0.826380	0.036382	66.9422	-0.825543	-9.985561E+10	-3.643472E-13	NaN
710	1.000000	0.274952	7.372e+06	-41589.1	1005.82	-29785.7	0.000000	0.000000	6.274830	-0.063875	NaN	0.000000	0.001562	0.001708	28.0813	0.096869	0.001985	48.8093	-44.085	-164.403	-0.066051	0.273595	-0.817113	-0.818471	-0.063875	48.8093	-0.816132	-7.443067E+10	8.581877E-13	NaN
710	1.000000	0.282972	7.372e+06	-41589.1	1005.82	-29785.7	0.000000	0.000000	6.282849	-0.076033	NaN	0.000000	0.001546	0.001712	28.081	0.074581	0.002025	36.8295	78.5104	-166.101	0.007564	0.281630	-0.809094	-0.810436	-0.076033	36.8295	-0.807545	-5.692012E+10	1.335788E-12	NaN
710	1.000000	0.290967	7.372e+06	-41589.1	1005.82	-29785.7	0.000000	0.000000	6.290845	-0.035635	NaN	0.000000	0.001584	0.001744	28.0815	0.075644	0.001924	39.3094	106.44	-165.202	-0.071576	0.289701	-0.801099	-0.802365	-0.035635	39.3094	-0.800419	-4.555701E+10	7.821997E-13	NaN
710	1.000000	0.298981	7.372e+06	-41589.1	1005.82	-29785.7	0.000000	0.000000	6.298860	-0.003455	NaN	0.000000	0.001595	0.001737	28.0812	0.045107	0.002112	21.3527	129.147	-163.488	0.024211	0.297654	-0.793085	-0.794411	-0.003455	21.3527	-0.792964	-3.608540E+10	9.573897E-14	NaN
710	1.000000	0.306972	7.372e+06	-41589.1	1005.82	-29785.7	0.000000	0.000000	6.306849	-0.070875	NaN	0.000000	0.001547	0.001732	28.0824	0.095706	0.001865	51.3177	-120.185	-164.663	-0.023004	0.305639	-0.785094	-0.786427	-0.070875	51.3177	-0.784058	-2.731328E+10	2.594901E-12	NaN
710	1.000000	0.314986	7.372e+06	-41589.1	1005.82	-29785.7	0.000000	0.000000	6.314865	-0.004635	NaN	0.000000	0.001535	0.001736	28.0826	0.056809	0.001926	29.4994	137.85	-163.072	-0.041969	0.313656	-0.777080	-0.778410	-0.004635	29.4994	-0.776963	-2.187522E+10	2.118827E-13	NaN
710	1.000000	0.322999	7.372e+06	-41589.1	1005.82	-29785.7	0.000000	0.000000	6.322880	0.037966	NaN	0.000000	0.001534	0.001720	28.0824	0.015657	0.002008	7.798798	156.798	-165.643	0.008422	0.321739	-0.769067	-0.770327	0.037966	7.798798	-0.772718	-1.915418E+10	-1.982131E-12	NaN
710	1.000000	0.330975	7.372e+06	-41589.1	1005.82	-29785.7	0.000000	0.000000	6.330855	-0.010844	NaN	0.000000	0.001562	0.001747	28.0827	0.072966	0.001929	37.8236	-94.0076	-165.759	0.020026	0.329697	-0.761091	-0.762369	-0.010844	37.8236	-0.760876	-1.321946E+10	8.202830E-13	NaN
710	1.000000	0.338967	7.372e+06	-41589.1	1005.82	-29785.7	0.000000	0.000000	6.338848	0.038053	NaN	0.000000	0.001573	0.001706	28.0825	0.116012	0.001963	59.0925	-98.5433	-162.97	0.029812	0.337697	-0.753099	-0.754368	0.038053	59.0925	-0.753582	-1.051898E+10	-3.617544E-12	NaN
710	1.000000	0.347011	7.372e+06	-41589.1	1005.82	-29785.7	0.000000	0.000000	6.346891	0.017080	NaN	0.000000	0.001570	0.001725	28.0827	0.044834	0.001923	23.3088	61.4768	-163.438	0.095163	0.345651	-0.745055	-0.746414	0.017080	23.3088	-0.745604	-8.191801E+9	-2.084998E-12	NaN
710	1.000000	0.354997	7.372e+06	-41589.1	1005.82	-29785.7	0.000000	0.000000	6.354877	-0.002756	NaN	0.000000	0.001523	0.001730	28.0826	0.045458	0.001986	22.8843	155.916	-166.043	0.004573	0.353693	-0.737069	-0.738372	-0.002756	22.8843	-0.736979	-6.250268E+9	4.409096E-13	NaN
710	1.000000	0.362994	7.372e+06	-41589.1	1005.82	-29785.7	0.000000	0.000000	6.362876	0.062711	NaN	0.000000	0.001509	0.001745	28.0826	0.035691	0.002070	17.245	-16.6887	-163.739	-0.003256	0.361685	-0.729072	-0.730381	0.062711	17.245	-0.731799	-5.312862E+9	-1.180361E-11	NaN
710	1.000000	0.371001	7.372e+06	-41589.1	1005.82	-29785.7	0.000000	0.000000	6.370880	-0.005519	NaN	0.000000	0.001531	0.001726	28.0827	0.103214	0.002016	51.1863	134.113	-163.166	0.031536	0.369690	-0.721065	-0.722376	-0.005519	51.1863	-0.720984	-3.783524E+9	1.458621E-12	NaN
710	1.000000	0.379031	7.372e+06	-41589.1	1005.82	-29785.7	0.000000	0.000000	6.378910	-0.025982	NaN	0.000000	0.001518	0.001719	28.0826	0.087871	0.001963	44.7723	-12.6604	-162.585	-0.034687	0.377694	-0.713035	-0.714372	-0.025982	44.7723	-0.712600	-2.907517E+9	8.936168E-12	NaN
710	1.000000	0.387005	7.372e+06	-41589.1	1005.82	-29785.7	0.000000	0.000000	6.386887	0.050486	NaN	0.000000	0.001552	0.001724	28.083	0.022693	0.001969	11.5248	131.851	-164.311	0.002461	0.385686	-0.705061	-0.706380	0.050486	11.5248	-0.708346	-2.543792E+9	-1.984681E-11	NaN
710	1.000000	0.395016	7.372e+06	-41589.1	1005.82	-29785.7	0.000000	0.000000	6.394896	0.006343	NaN	0.000000	0.001509	0.001736	28.0827	0.025295	0.002030	12.4588	172.211	-159.668	-0.012813	0.393679	-0.697050	-0.698387	0.006343	12.4588	-0.697432	-1.804895E+9	-3.514288E-12	NaN
710	1.000000	0.403007	7.372e+06	-41589.1	1005.82	-29785.7	0.000000	0.000000	6.402885	-0.026842	NaN	0.000000	0.001541	0.001749	28.0828	0.088770	0.002026	43.8134	-111.439	-166.023	-0.016558	0.401704	-0.689059	-0.690362	-0.026842	43.8134	-0.688600	-1.367031E+9	1.963505E-11	NaN
710	1.000000	0.411026	7.372e+06	-41589.1	1005.82	-29785.7	0.000000	0.000000	6.410904	-0.042435	NaN	0.000000	0.001537	0.001730	28.0823	0.093991	0.002063	45.5526	-62.4487	-162.19	-0.037789	0.409742	-0.681039	-0.682324	-0.042435	45.5526	-0.680341	-1.054060E+9	4.025897E-11	NaN
710	1.000000	0.419003	7.372e+06	-41589.1	1005.82	-29785.7	0.000000	0.000000	6.418885	0.075154	NaN	0.000000	0.001543	0.001737	28.0829	0.120196	0.002033	59.1272	-142.447	-165.442	0.035742	0.417768	-0.673063	-0.674298	0.075154	59.1272	-0.674017	-8.636852E+8	-8.701585E-11	NaN
710	1.000000	0.427054	7.372e+06	-41589.1	1005.82	-29785.7	0.000000	0.000000	6.426935	0.022825	NaN	0.000000	0.001557	0.001724	28.0825	0.042766	0.002092	20.4474	-112.466	-165.419	0.031036	0.425672	-0.665012	-0.666393	0.022825	20.4474	-0.665849	-6.676750E+8	-3.418641E-11	NaN
710	1.000000	0.435017	7.372e+06	-41589.1	1005.82	-29785.7	0.000000	0.000000	6.434896	-0.036732	NaN	0.000000	0.001551	0.001720	28.0824	0.025919	0.002022	12.816	42.5186	-167.065	0.041138	0.433702	-0.657048	-0.658364	-0.036732	12.816	-0.654899	-4.726946E+8	7.770823E-11	NaN
710	1.000000	0.443010	7.372e+06	-41589.1	1005.82	-29785.7	0.000000	0.000000	6.442886	-0.094973	NaN	0.000000	0.001554	0.001734	28.0816	0.081481	0.001982	41.1077	17.5465	-164.643	-0.085303	0.441728	-0.649056	-0.650338	-0.094973	41.1077	-0.647323	-3.721683E+8	2.551881E-10	NaN
710	1.000000	0.451049	7.372e+06	-41589.1	1005.82	-29785.7	0.000000	0.000000	6.450928	-0.026451	NaN	0.000000	0.001572	0.001744	28.0813	0.011371	0.002117	5.371459	-75.4463	-163.041	0.009274	0.449744	-0.641017	-0.642322	-0.026451	5.371459	-0.637323	-2.713695E+8	9.747298E-11	NaN
710	1.000000	0.459028	7.372e+06	-41589.1	1005.82	-29785.7	0.000000	0.000000	6.458907	-0.038072	NaN	0.000000	0.001579	0.001760	28.0816	0.071329	0.002005	35.5764	-131.218	-162.685	-0.046306	0.457718	-0.633037	-0.634348	-0.038072	35.5764	-0.632235	-2.310528E+8	1.647768E-10	NaN
710	1.000000	0.467022	7.372e+06	-41589.1	1005.82	-29785.7	0.000000	0.000000	6.466904	0.054911	NaN	0.000000	0.001552	0.001778	28.0814	0.042937	0.002043	21.0132	144.2	-164.378	0.054170	0.465716	-0.625043	-0.626350	0.054911	21.0132	-0.627003	-1.958234E+8	-2.804099E-10	NaN
710	1.000000	0.475064	7.372e+06	-41589.1	1005.82	-29785.7	0.000000	0.000000	6.474941	-0.066018	NaN	0.000000	0.001584	0.001770	28.0813	0.045694	0.001959	23.3289	5.316317	-162.385	-0.067662	0.473768	-0.617002	-0.618298	-0.066018	23.3289	-0.614879	-1.334236E+8	4.948018E-10	NaN
710	1.000000	0.483072	7.372e+06	-41589.1	1005.82	-29785.7	0.000000	0.000000	6.482949	-0.056995	NaN	0.000000	0.001598	0.001775	28.0815	0.034313	0.002020	16.9903	61.2846	-165.202	-0.001101	0.481772	-0.608994	-0.610294	-0.056995	16.9903	-0.606478	-1.022466E+8	5.574305E-10	NaN
710	1.000000	0.491049	7.372e+06	-41589.1	1005.82	-29785.7	0.000000	0.000000	6.490928	-0.013470	NaN	0.000000	0.001588	0.001785	28.0813	0.041307	0.002064	20.0173	87.6555	-164.242	0.035106	0.489731	-0.601017	-0.602335	-0.013470	20.0173	-0.600512	-8.462801E+7	1.591710E-10	NaN
710	1.000000	0.499040	7.372e+06	-41589.1	1005.82	-29785.7	0.000000	0.000000	6.498918	-0.060150	NaN	0.000000	0.001558	0.001794	28.0815	0.071634	0.002110	33.9529	-1.941857	-167.944	-0.005702	0.497724	-0.593025	-0.594342	-0.060150	33.9529	-0.591697	-6.398177E+7	9.401110E-10	NaN
710	1.000000	0.507048	7.372e+06	-41589.1	1005.82	-29785.7	0.000000	0.000000	6.506928	0.008475	NaN	0.000000	0.001573	0.001764	28.0815	0.031064	0.002158	14.3917	35.3115	-167.251	0.019851	0.505763	-0.585018	-0.586303	0.008475	14.3917	-0.585459	-5.248664E+7	-1.614645E-10	NaN
710	1.000000	0.515085	7.372e+06	-41589.1	1005.82	-29785.7	0.000000	0.000000	6.514965	-0.013529	NaN	0.000000	0.001597	0.001722	28.0819	0.077127	0.002074	37.1878	-66.0496	-165.791	-0.000705	0.513739	-0.576980	-0.578327	-0.013529	37.1878	-0.576708	-3.974453E+7	3.403925E-10	NaN
710	1.000000	0.523107	7.372e+06	-41589.1	1005.82	-29785.7	0.000000	0.000000	6.522985	-0.036357	NaN	0.000000	0.001573	0.001760	28.0817	0.056428	0.002134	26.4473	75.1901	-169.128	0.052116	0.521748	-0.568959	-0.570318	-0.036357	26.4473	-0.567928	-3.006047E+7	1.209479E-9	NaN
710	1.000000	0.531061	7.372e+06	-41589.1	1005.82	-29785.7	0.000000	0.000000	6.530940	2.805536E-5	NaN	0.000000	0.001581	0.001768	28.0813	0.100310	0.002055	48.8164	70.8929	-166.879	0.012108	0.529784	-0.561005	-0.562282	2.805536E-5	48.8164	-0.561006	-2.411509E+7	-1.163395E-12	NaN
710	1.000000	0.539086	7.372e+06	-41589.1	1005.82	-29785.7	0.000000	0.000000	6.538966	0.012054	NaN	0.000000	0.001571	0.001796	28.0816	0.054313	0.001961	27.6929	-82.9055	-163.527	0.064519	0.537758	-0.552980	-0.554307	0.012054	27.6929	-0.553307	-1.886899E+7	-6.388411E-10	NaN
710	1.000000	0.547096	7.372e+06	-41589.1	1005.82	-29785.7	0.000000	0.000000	6.546975	-0.010799	NaN	0.000000	0.001604	0.001795	28.0815	0.054749	0.002135	25.6426	-20.4804	-167.983	-0.056021	0.545681	-0.544970	-0.546385	-0.010799	25.6426	-0.544654	-1.431822E+7	7.541841E-10	NaN
710	1.000000	0.555090	7.372e+06	-41589.1	1005.82	-29785.7	0.000000	0.000000	6.554970	-0.009441	NaN	0.000000	0.001624	0.001773	28.0814	0.120277	0.002057	58.4658	175.861	-161.773	-0.011794	0.553781	-0.536975	-0.538285	-0.009441	58.4658	-0.536854	-1.116148E+7	8.458305E-10	NaN
710	1.000000	0.563097	7.372e+06	-41589.1	1005.82	-29785.7	0.000000	0.000000	6.562974	-0.067134	NaN	0.000000	0.001581	0.001772	28.0813	0.147403	0.002014	73.199	-99.3042	-166.848	-0.074424	0.561723	-0.528969	-0.530343	-0.067134	73.199	-0.528281	-8.48589e+06	7.911248E-9	NaN
710	1.000000	0.571065	7.372e+06	-41589.1	1005.82	-29785.7	0.000000	0.000000	6.570943	-0.035696	NaN	0.000000	0.001615	0.001769	28.0812	0.014752	0.002012	7.330547	-142.565	-163.965	-0.019372	0.569772	-0.521001	-0.522294	-0.035696	7.330547	-0.517349	-5.9803e+06	5.968959E-9	NaN
710	1.000000	0.579079	7.372e+06	-41589.1	1005.82	-29785.7	0.000000	0.000000	6.578959	0.004765	NaN	0.000000	0.001627	0.001781	28.083	0.083263	0.001993	41.7755	-55.0499	-163.731	0.038990	0.577813	-0.512987	-0.514253	0.004765	41.7755	-0.513072	-5.2143e+06	-9.138854E-10	NaN
710	1.000000	0.587083	7.372e+06	-41589.1	1005.82	-29785.7	0.000000	0.000000	6.586961	-0.025752	NaN	0.000000	0.001636	0.001785	28.0828	0.107581	0.001927	55.8411	-136.569	-165.091	0.065224	0.585757	-0.504983	-0.506308	-0.025752	55.8411	-0.504637	-3.97821e+06	6.473297E-9	NaN
710	1.000000	0.595097	7.372e+06	-41589.1	1005.82	-29785.7	0.000000	0.000000	6.594978	0.033290	NaN	0.000000	0.001625	0.001777	28.0829	0.047685	0.001978	24.109	-149.781	-165.522	-0.010288	0.593757	-0.496969	-0.498309	0.033290	24.109	-0.498004	-3.21495e+06	-1.035479E-8	NaN
710	1.000000	0.603107	7.372e+06	-41589.1	1005.82	-29785.7	0.000000	0.000000	6.602986	-0.017332	NaN	0.000000	0.001617	0.001782	28.0827	0.060177	0.001972	30.514	88.1421	-164.969	0.001356	0.601796	-0.488959	-0.490270	-0.017332	30.514	-0.488533	-2.37077e+06	7.310597E-9	NaN
710	1.000000	0.611093	7.372e+06	-41589.1	1005.82	-29785.7	0.000000	0.000000	6.610971	-0.035314	NaN	0.000000	0.001621	0.001789	28.0827	0.066110	0.001965	33.6464	-16.8626	-162.557	-0.037820	0.609821	-0.480973	-0.482245	-0.035314	33.6464	-0.480186	-1.81187e+06	1.949054E-8	NaN
710	1.000000	0.619124	7.372e+06	-41589.1	1005.82	-29785.7	0.000000	0.000000	6.619003	-0.013482	NaN	0.000000	0.001664	0.001817	28.0829	0.053426	0.002045	26.1242	152.125	-163.84	-0.047879	0.617823	-0.472942	-0.474243	-0.013482	26.1242	-0.472555	-1.41655e+06	9.517240E-9	NaN
710	1.000000	0.627105	7.372e+06	-41589.1	1005.82	-29785.7	0.000000	0.000000	6.626988	0.064019	NaN	0.000000	0.001625	0.001773	28.0827	0.008764	0.001871	4.684165	-16.2722	-163.165	0.040085	0.625822	-0.464961	-0.466244	0.064019	4.684165	-0.475211	-1.54333e+06	-4.148136E-8	NaN
710	1.000000	0.635115	7.372e+06	-41589.1	1005.82	-29785.7	0.000000	0.000000	6.634996	0.008900	NaN	0.000000	0.001624	0.001798	28.083	0.090883	0.001917	47.4006	-117.595	-166.458	-0.017912	0.633772	-0.456950	-0.458294	0.008900	47.4006	-0.457091	-859270	-1.035784E-8	NaN
710	1.000000	0.643114	7.372e+06	-41589.1	1005.82	-29785.7	0.000000	0.000000	6.642992	-0.035776	NaN	0.000000	0.001609	0.001809	28.083	0.104069	0.002060	50.5248	-97.469	-166.552	-0.031296	0.641800	-0.448952	-0.450265	-0.035776	50.5248	-0.448421	-648790	5.514340E-8	NaN
710	1.000000	0.651152	7.372e+06	-41589.1	1005.82	-29785.7	0.000000	0.000000	6.651033	0.031179	NaN	0.000000	0.001610	0.001803	28.0829	0.052070	0.002057	25.314	-91.9162	-166.254	0.032964	0.649779	-0.440914	-0.442287	0.031179	25.314	-0.441838	-523955	-5.950788E-8	NaN
710	1.000000	0.659133	7.372e+06	-41589.1	1005.82	-29785.7	0.000000	0.000000	6.659014	0.039552	NaN	0.000000	0.001628	0.001785	28.0828	0.055699	0.001922	28.983	-32.3603	-167.9	-0.036644	0.657824	-0.432933	-0.434242	0.039552	28.983	-0.433956	-405516	-9.753413E-8	NaN
710	1.000000	0.667148	7.372e+06	-41589.1	1005.82	-29785.7	0.000000	0.000000	6.667030	0.058315	NaN	0.000000	0.001584	0.001771	28.0828	0.038810	0.002093	18.5417	143.847	-166.571	0.062610	0.665794	-0.424918	-0.426271	0.058315	18.5417	-0.427277	-326227	-1.787547E-7	NaN
710	1.000000	0.675116	7.372e+06	-41589.1	1005.82	-29785.7	0.000000	0.000000	6.674993	-0.054205	NaN	0.000000	0.001627	0.001786	28.0827	0.054388	0.001985	27.3967	64.0477	-163.495	-0.091319	0.673767	-0.416950	-0.418299	-0.054205	27.3967	-0.415466	-221860	2.443226E-7	NaN
710	1.000000	0.683109	7.372e+06	-41589.1	1005.82	-29785.7	0.000000	0.000000	6.682991	0.061579	NaN	0.000000	0.001629	0.001769	28.0826	0.090026	0.002171	41.4605	-83.4181	-167.953	0.042825	0.681866	-0.408957	-0.410200	0.061579	41.4605	-0.410071	-185956	-3.311512E-7	NaN
710	1.000000	0.691145	7.372e+06	-41589.1	1005.82	-29785.7	0.000000	0.000000	6.691025	-0.006642	NaN	0.000000	0.001635	0.001754	28.083	0.052936	0.002091	25.314	151.186	-161.395	0.028068	0.689831	-0.400921	-0.402235	-0.006642	25.314	-0.400724	-136873	4.852941E-8	NaN
710	1.000000	0.699153	7.372e+06	-41589.1	1005.82	-29785.7	0.000000	0.000000	6.699030	-0.048902	NaN	0.000000	0.001633	0.001761	28.0825	0.083013	0.001947	42.6421	77.022	-168.02	-0.073827	0.697806	-0.392913	-0.394259	-0.048902	42.6421	-0.392053	-102927	4.751125E-7	NaN
710	1.000000	0.707154	7.372e+06	-41589.1	1005.82	-29785.7	0.000000	0.000000	6.707035	0.024497	NaN	0.000000	0.001643	0.001742	28.0825	0.038398	0.002101	18.2761	157.532	-168.788	0.000805	0.705802	-0.384912	-0.386264	0.024497	18.2761	-0.385917	-84086.2	-2.913374E-7	NaN
710	1.000000	0.715136	7.372e+06	-41589.1	1005.82	-29785.7	0.000000	0.000000	6.715013	-0.045611	NaN	0.000000	0.001628	0.001729	28.0814	0.075559	0.001992	37.9293	88.0344	-165.386	-0.027458	0.713854	-0.376930	-0.378212	-0.045611	37.9293	-0.376028	-60653.1	7.519913E-7	NaN
710	1.000000	0.723164	7.372e+06	-41589.1	1005.82	-29785.7	0.000000	0.000000	6.723044	0.000190	NaN	0.000000	0.001618	0.001744	28.0813	0.064466	0.002006	32.1313	-35.5933	-165.875	0.051954	0.721846	-0.368901	-0.370220	0.000190	32.1313	-0.368906	-47903.5	-3.963760E-9	NaN
710	1.000000	0.731165	7.372e+06	-41589.1	1005.82	-29785.7	0.000000	0.000000	6.731045	0.014131	NaN	0.000000	0.001630	0.001736	28.0813	0.085428	0.002099	40.694	-117.965	-165.705	0.037710	0.729848	-0.360901	-0.362218	0.014131	40.694	-0.361162	-37036.9	-3.815335E-7	NaN
710	1.000000	0.739133	7.372e+06	-41589.1	1005.82	-29785.7	0.000000	0.000000	6.739011	-0.032402	NaN	0.000000	0.001616	0.001734	28.0814	0.082569	0.002076	39.7647	106.317	-162.594	-0.047193	0.737843	-0.352933	-0.354223	-0.032402	39.7647	-0.352322	-27585.8	1.174587E-6	NaN
710	1.000000	0.747143	7.372e+06	-41589.1	1005.82	-29785.7	0.000000	0.000000	6.747021	-0.051656	NaN	0.000000	0.001613	0.001748	28.0818	0.021671	0.002074	10.4499	7.303137	-165.768	-0.047127	0.745798	-0.344923	-0.346267	-0.051656	10.4499	-0.341216	-19022.5	2.715504E-6	NaN
710	1.000000	0.755158	7.372e+06	-41589.1	1005.82	-29785.7	0.000000	0.000000	6.755039	0.037624	NaN	0.000000	0.001648	0.001767	28.0812	0.087133	0.002015	43.2414	97.3498	-167.291	0.003678	0.753868	-0.336908	-0.338197	0.037624	43.2414	-0.337561	-16825.9	-2.236084E-6	NaN
710	1.000000	0.763169	7.372e+06	-41589.1	1005.82	-29785.7	0.000000	0.000000	6.763048	-0.027262	NaN	0.000000	0.001637	0.001747	28.0814	0.099346	0.001893	52.4772	126.685	-168.688	-0.090849	0.761890	-0.328897	-0.330176	-0.027262	52.4772	-0.328507	-12404.5	2.197735E-6	NaN
710	1.000000	0.771163	7.372e+06	-41589.1	1005.82	-29785.7	0.000000	0.000000	6.771046	0.074185	NaN	0.000000	0.001612	0.001718	28.0813	0.130832	0.002044	64.0093	100.301	-160.856	0.082520	0.769841	-0.320903	-0.322224	0.074185	64.0093	-0.321772	-9878.85	-7.509527E-6	NaN
710	1.000000	0.779161	7.372e+06	-41589.1	1005.82	-29785.7	0.000000	0.000000	6.779041	-0.007267	NaN	0.000000	0.001618	0.001745	28.0812	0.108903	0.001959	55.5808	-57.4682	-165.127	-0.070045	0.777869	-0.312904	-0.314196	-0.007267	55.5808	-0.312806	-7287.1	9.972307E-7	NaN
710	1.000000	0.787178	7.372e+06	-41589.1	1005.82	-29785.7	0.000000	0.000000	6.787057	-0.006242	NaN	0.000000	0.001606	0.001753	28.0817	0.059704	0.001942	30.7464	-99.5144	-168.451	-0.000993	0.785842	-0.304888	-0.306224	-0.006242	30.7464	-0.304736	-5533.92	1.127884E-6	NaN
710	1.000000	0.795191	7.372e+06	-41589.1	1005.82	-29785.7	0.000000	0.000000	6.795070	-0.027987	NaN	0.000000	0.001605	0.001725	28.0811	0.036507	0.001996	18.2855	136.163	-167.237	-0.058502	0.793859	-0.296875	-0.298207	-0.027987	18.2855	-0.295727	-4063.89	6.886730E-6	NaN
710	1.000000	0.803191	7.372e+06	-41589.1	1005.82	-29785.7	0.000000	0.000000	6.803072	0.047986	NaN	0.000000	0.001658	0.001764	28.0813	0.072638	0.001983	36.6216	170.621	-168.498	0.023304	0.801867	-0.288875	-0.290199	0.047986	36.6216	-0.289858	-3320.26	-1.445245E-5	NaN
710	1.000000	0.811176	7.372e+06	-41589.1	1005.82	-29785.7	0.000000	0.000000	6.811055	-0.022439	NaN	0.000000	0.001635	0.001749	28.0811	0.140445	0.001888	74.3868	-168.575	-168.166	-0.017318	0.809907	-0.280890	-0.282159	-0.022439	74.3868	-0.280663	-2415.33	9.290406E-6	NaN
710	1.000000	0.819211	7.372e+06	-41589.1	1005.82	-29785.7	0.000000	0.000000	6.819091	0.012205	NaN	0.000000	0.001610	0.001751	28.0812	0.077166	0.001979	38.9942	98.88	-170.114	0.008338	0.817862	-0.272855	-0.274204	0.012205	38.9942	-0.273090	-1855.49	-6.577690E-6	NaN
710	1.000000	0.827196	7.372e+06	-41589.1	1005.82	-29785.7	0.000000	0.000000	6.827078	0.055111	NaN	0.000000	0.001634	0.001755	28.0813	0.072646	0.002109	34.4429	-93.963	-168.451	0.069205	0.825915	-0.264870	-0.266151	0.055111	34.4429	-0.266070	-1451.14	-3.797801E-5	NaN
710	1.000000	0.835211	7.372e+06	-41589.1	1005.82	-29785.7	0.000000	0.000000	6.835090	-0.004701	NaN	0.000000	0.001711	0.001703	28.081	0.088257	0.002057	42.9074	-106.678	-166.621	0.013888	0.833920	-0.256855	-0.258146	-0.004701	42.9074	-0.256773	-1045.66	4.495512E-6	NaN
710	1.000000	0.843203	7.372e+06	-41589.1	1005.82	-29785.7	0.000000	0.000000	6.843082	-0.024549	NaN	0.000000	0.001697	0.001696	28.0812	0.042301	0.002018	20.9575	49.3582	-165.966	-0.005792	0.841915	-0.248863	-0.250150	-0.024549	20.9575	-0.247984	-765.177	3.208310E-5	NaN
710	1.000000	0.851187	7.372e+06	-41589.1	1005.82	-29785.7	0.000000	0.000000	6.851069	0.040794	NaN	0.000000	0.001715	0.001725	28.0823	0.089255	0.002111	42.2731	-118.441	-168.123	0.010490	0.849897	-0.240879	-0.242169	0.040794	42.2731	-0.241602	-608.92	-6.699372E-5	NaN
710	1.000000	0.859213	7.372e+06	-41589.1	1005.82	-29785.7	0.000000	0.000000	6.859093	0.020570	NaN	0.000000	0.001622	0.001713	28.0823	0.081882	0.002034	40.2556	-21.0309	-169.036	-0.021095	0.857891	-0.232853	-0.234175	0.020570	40.2556	-0.233237	-450.33	-4.567751E-5	NaN
710	1.000000	0.867236	7.372e+06	-41589.1	1005.82	-29785.7	0.000000	0.000000	6.867116	0.019414	NaN	0.000000	0.001647	0.001733	28.0823	0.019805	0.002089	9.481784	138.502	-166.961	-0.056500	0.865935	-0.224830	-0.226130	0.019414	9.481784	-0.226366	-350.759	-5.534851E-5	NaN
710	1.000000	0.875216	7.372e+06	-41589.1	1005.82	-29785.7	0.000000	0.000000	6.875095	-0.006994	NaN	0.000000	0.001648	0.001727	28.0823	0.062937	0.001854	33.9538	-164.485	-167.224	-0.002023	0.873877	-0.216850	-0.218189	-0.006994	33.9538	-0.216695	-245.897	2.844460E-5	NaN
710	1.000000	0.883180	7.372e+06	-41589.1	1005.82	-29785.7	0.000000	0.000000	6.883062	0.057713	NaN	0.000000	0.001610	0.001733	28.0826	0.060152	0.002074	29.0027	93.2444	-166.472	-0.019410	0.881936	-0.208886	-0.210129	0.057713	29.0027	-0.210378	-194.512	-0.000297	NaN
710	1.000000	0.891227	7.372e+06	-41589.1	1005.82	-29785.7	0.000000	0.000000	6.891106	-0.033479	NaN	0.000000	0.001622	0.001741	28.0824	0.054301	0.002123	25.5818	51.6024	-164.47	0.049339	0.889945	-0.200839	-0.202121	-0.033479	25.5818	-0.199857	-131.024	0.000256	NaN
710	1.000000	0.899226	7.372e+06	-41589.1	1005.82	-29785.7	0.000000	0.000000	6.899107	0.032240	NaN	0.000000	0.001644	0.001729	28.0826	0.011852	0.002156	5.496306	124.629	-167.318	-0.004105	0.897938	-0.192840	-0.194128	0.032240	5.496306	-0.197239	-118.639	-0.000272	NaN
710	1.000000	0.907220	7.372e+06	-41589.1	1005.82	-29785.7	0.000000	0.000000	6.907102	0.049552	NaN	0.000000	0.001637	0.001685	28.0844	0.053365	0.001965	27.1606	41.1968	-171.225	0.015047	0.905881	-0.184846	-0.186185	0.049552	27.1606	-0.186214	-77.7276	-0.000638	NaN
710	1.000000	0.915259	7.372e+06	-41589.1	1005.82	-29785.7	0.000000	0.000000	6.915140	0.028623	NaN	0.000000	0.001612	0.001729	28.0866	0.088137	0.001850	47.6515	-17.2747	-165.431	0.042699	0.913920	-0.176807	-0.178146	0.028623	47.6515	-0.177257	-54.7871	-0.000522	NaN
710	1.000000	0.923234	7.372e+06	-41589.1	1005.82	-29785.7	0.000000	0.000000	6.923117	0.073619	NaN	0.000000	0.001635	0.001773	28.0836	0.061303	0.001917	31.9836	39.3947	-165.369	0.095473	0.921892	-0.168832	-0.170174	0.073619	31.9836	-0.170558	-42.0046	-0.001753	NaN
710	1.000000	0.931269	7.372e+06	-41589.1	1005.82	-29785.7	0.000000	0.000000	6.931148	-0.013756	NaN	0.000000	0.001615	0.001770	28.0826	0.044800	0.002065	21.6899	-29.3086	-165.987	-0.031037	0.929933	-0.160797	-0.162133	-0.013756	21.6899	-0.160321	-27.7772	0.000495	NaN
710	1.000000	0.939223	7.372e+06	-41589.1	1005.82	-29785.7	0.000000	0.000000	6.939103	0.025608	NaN	0.000000	0.001638	0.001721	28.083	0.109256	0.001957	55.8404	-50.5616	-166.149	0.005355	0.937921	-0.152843	-0.154145	0.025608	55.8404	-0.153187	-20.6957	-0.001237	NaN
710	1.000000	0.947254	7.372e+06	-41589.1	1005.82	-29785.7	0.000000	0.000000	6.947134	-0.005158	NaN	0.000000	0.001665	0.001757	28.0828	0.107167	0.002024	52.938	116.432	-168.159	0.050668	0.945943	-0.144811	-0.146123	-0.005158	52.938	-0.144738	-14.4985	0.000356	NaN
710	1.000000	0.955247	7.372e+06	-41589.1	1005.82	-29785.7	0.000000	0.000000	6.955127	-0.001676	NaN	0.000000	0.001634	0.001724	28.0827	0.097051	0.002071	46.8609	61.6777	-163.655	-0.012751	0.953974	-0.136819	-0.138092	-0.001676	46.8609	-0.136792	-10.2897	0.000163	NaN
710	1.000000	0.963254	7.372e+06	-41589.1	1005.82	-29785.7	0.000000	0.000000	6.963134	-0.009380	NaN	0.000000	0.001603	0.001722	28.083	0.071611	0.001953	36.6641	42.9813	-170.664	0.016412	0.961969	-0.128812	-0.130097	-0.009380	36.6641	-0.128620	-7.163633	0.001309	NaN
710	1.000000	0.971224	7.372e+06	-41589.1	1005.82	-29785.7	0.000000	0.000000	6.971104	0.013484	NaN	0.000000	0.001621	0.001708	28.0829	0.087279	0.001995	43.7561	-109.199	-163.731	0.078043	0.969960	-0.120842	-0.122105	0.013484	43.7561	-0.121073	-5.077973	-0.002655	NaN
710	1.000000	0.979222	7.372e+06	-41589.1	1005.82	-29785.7	0.000000	0.000000	6.979105	0.075591	NaN	0.000000	0.001631	0.001750	28.0832	0.011288	0.001941	5.814215	33.7088	-165.354	0.009429	0.977900	-0.112844	-0.114165	0.075591	5.814215	-0.122595	-5.447268	-0.013877	NaN
710	1.000000	0.987258	7.372e+06	-41589.1	1005.82	-29785.7	0.000000	0.000000	6.987141	0.080925	NaN	0.000000	0.001623	0.001753	28.0816	0.097199	0.001968	49.383	-123.13	-166.853	0.139854	0.985892	-0.104808	-0.106174	0.080925	49.383	-0.106037	-2.474637	-0.032702	NaN
710	1.000000	0.995260	7.372e+06	-41589.1	1005.82	-29785.7	0.000000	0.000000	6.995141	0.035820	NaN	0.000000	0.001637	0.001754	28.0816	0.045268	0.002056	22.0222	115.79	-164.454	-0.015606	0.993943	-0.096806	-0.098123	0.035820	22.0222	-0.098026	-1.651093	-0.021695	NaN
710	1.000000	1.003285	7.372e+06	-41589.1	1005.82	-29785.7	0.000000	0.000000	7.003166	0.033968	NaN	0.000000	0.001601	0.001761	28.0812	0.138426	0.001954	70.8279	176.681	-167.581	0.047300	1.001909	-0.088781	-0.090157	0.033968	70.8279	-0.089141	-1.031826	-0.032920	NaN
710	1.000000	1.011264	7.372e+06	-41589.1	1005.82	-29785.7	0.000000	0.000000	7.011143	-0.025563	NaN	0.000000	0.001640	0.001754	28.0812	0.029407	0.001867	15.7535	-131.581	-163.958	-0.122875	1.009943	-0.080802	-0.082123	-0.025563	15.7535	-0.079585	-0.604352	0.042298	NaN
710	1.000000	1.019296	7.372e+06	-41589.1	1005.82	-29785.7	0.000000	0.000000	7.019179	0.066412	NaN	0.000000	0.001632	0.001756	28.0814	0.119316	0.001968	60.6162	-23.1724	-165.625	-0.003056	1.017965	-0.072770	-0.074101	0.066412	60.6162	-0.073591	-0.424522	-0.156440	NaN
710	1.000000	1.027254	7.372e+06	-41589.1	1005.82	-29785.7	0.000000	0.000000	7.027134	0.014663	NaN	0.000000	0.001630	0.001695	28.0812	0.047624	0.001922	24.7788	-76.3861	-165.015	0.020312	1.025966	-0.064812	-0.066100	0.014663	24.7788	-0.065256	-0.253316	-0.057884	NaN
710	1.000000	1.035283	7.372e+06	-41589.1	1005.82	-29785.7	0.000000	0.000000	7.035164	0.023322	NaN	0.000000	0.001618	0.001707	28.0815	0.031496	0.001887	16.6942	-125.263	-171.369	0.011925	1.033921	-0.056783	-0.058145	0.023322	16.6942	-0.057831	-0.155897	-0.149597	NaN
710	1.000000	1.043306	7.372e+06	-41589.1	1005.82	-29785.7	0.000000	0.000000	7.043186	0.011384	NaN	0.000000	0.001608	0.001699	28.0813	0.038821	0.002028	19.1444	-11.5145	-165.695	0.024404	1.041978	-0.048760	-0.050087	0.011384	19.1444	-0.049206	-0.086335	-0.131855	NaN
710	1.000000	1.051280	7.372e+06	-41589.1	1005.82	-29785.7	0.000000	0.000000	7.051159	-0.026785	NaN	0.000000	0.001610	0.001693	28.0812	0.083708	0.002264	36.9652	-147.148	-168.281	0.000665	1.049939	-0.040786	-0.042127	-0.026785	36.9652	-0.040242	-0.045995	0.582342	NaN
710	1.000000	1.059285	7.372e+06	-41589.1	1005.82	-29785.7	0.000000	0.000000	7.059165	-0.013767	NaN	0.000000	0.001619	0.001716	28.0811	0.022422	0.002005	11.1837	-116.647	-164.063	0.012026	1.057982	-0.032781	-0.034084	-0.013767	11.1837	-0.031857	-0.025962	0.530261	NaN
710	1.000000	1.067290	7.372e+06	-41589.1	1005.82	-29785.7	0.000000	0.000000	7.067170	-0.000286	NaN	0.000000	0.001594	0.001749	28.0813	0.074937	0.001806	41.5003	10.0601	-166.599	0.080791	1.065970	-0.024775	-0.026095	-0.000286	41.5003	-0.024770	-0.016639	0.017201	NaN
710	1.000000	1.075301	7.372e+06	-41589.1	1005.82	-29785.7	0.000000	0.000000	7.075181	-0.011695	NaN	0.000000	0.001617	0.001723	28.0819	0.089969	0.001966	45.7514	-11.9307	-166.807	0.004159	1.073924	-0.016765	-0.018142	-0.011695	45.7514	-0.016573	-0.010240	1.142133	NaN
710	1.000000	1.083293	7.372e+06	-41589.1	1005.82	-29785.7	0.000000	0.000000	7.083172	-0.012062	NaN	0.000000	0.001588	0.001739	28.0814	0.093765	0.002057	45.5898	-128.873	-165.816	-0.007061	1.081977	-0.008773	-0.010089	-0.012062	45.5898	-0.008575	-0.005567	2.166814	NaN
710	1.000000	1.091266	7.372e+06	-41589.1	1005.82	-29785.7	0.000000	0.000000	7.091258	2.727952	NaN	0.000000	0.001601	0.001773	28.0815	3.650396	0.001869	1952.7	8.804169	-168.989	1.510775	1.089961	-0.000800	-0.002105	2.727952	1952.7	-0.001848	-0.001333	-2045.82	NaN
710	2.000000	1.096943	7.372e+06	-41589.1	1005.82	-29785.7	0.000000	0.000000	7.097185	8.796751	NaN	0.000000	0.001603	0.001740	28.0815	8.958266	0.001680	5333.21	3.761562	-169.75	8.665795	1.096680	0.004877	0.004614	8.796751	5333.21	0.003640	0.002926	3006.42	90079.4
710	2.000000	1.098975	7.372e+06	-41589.1	1005.82	-29785.7	0.000000	0.000000	7.099333	11.6204	NaN	0.000000	0.001645	0.001712	28.0814	11.7979	0.001777	6640.17	13.4621	-178.87	11.5131	1.098622	0.006909	0.006556	11.6204	6640.17	0.005597	0.004685	2480.48	88635.9
710	2.000000	1.100927	7.372e+06	-41589.1	1005.82	-29785.7	0.000000	0.000000	7.101439	15.3995	NaN	0.000000	0.001616	0.001738	28.0822	14.0697	0.001784	7885.73	10.2029	-178.476	15.1979	1.100611	0.008861	0.008545	15.3995	7885.73	0.007396	0.006428	2395.52	89858.9
710	2.000000	1.102901	7.372e+06	-41589.1	1005.82	-29785.7	0.000000	0.000000	7.103551	18.7445	NaN	0.000000	0.001584	0.001728	28.0826	16.8414	0.001871	9002.58	5.888988	-175.792	18.1855	1.102579	0.010835	0.010513	18.7445	9002.58	0.009274	0.008385	2235.41	89821.9
710	2.000000	1.104831	7.372e+06	-41589.1	1005.82	-29785.7	0.000000	0.000000	7.105694	23.9253	NaN	0.000000	0.001630	0.001780	28.0831	18.0453	0.001616	11169.4	7.431176	179.96	22.1181	1.104521	0.012765	0.012455	23.9253	11169.4	0.011159	0.010498	2279.11	99599.3
710	2.000000	1.106847	7.372e+06	-41589.1	1005.82	-29785.7	0.000000	0.000000	7.107787	25.8042	NaN	0.000000	0.001628	0.001755	28.0828	20.2532	0.001779	11384	5.276038	-176.782	25.5247	1.106537	0.014781	0.014471	25.8042	11384	0.013081	0.012811	2014.3	91893.8
710	2.000000	1.108891	7.372e+06	-41589.1	1005.82	-29785.7	0.000000	0.000000	7.110119	32.8098	NaN	0.000000	0.001607	0.001756	28.0825	22.3285	0.001848	12083.6	5.530646	-176.153	33.0373	1.108602	0.016825	0.016536	32.8098	12083.6	0.014789	0.015005	2186.65	90127.9
710	2.000000	1.110828	7.372e+06	-41589.1	1005.82	-29785.7	0.000000	0.000000	7.112255	37.6421	NaN	0.000000	0.001597	0.001754	28.0827	24.6274	0.001780	13835.3	5.805522	179.739	37.6621	1.110606	0.018762	0.018540	37.6421	13835.3	0.016721	0.017650	2132.7	95145.9
710	2.000000	1.112860	7.372e+06	-41589.1	1005.82	-29785.7	0.000000	0.000000	7.114461	41.8767	NaN	0.000000	0.001561	0.001743	28.0826	26.6834	0.001810	14738.5	6.867474	179.492	42.0055	1.112516	0.020794	0.020450	41.8767	14738.5	0.018663	0.020485	2044.27	94082.5
710	2.000000	1.114855	7.372e+06	-41589.1	1005.82	-29785.7	0.000000	0.000000	7.116666	46.9883	NaN	0.000000	0.001591	0.001724	28.0833	27.6933	0.001675	16529.9	6.042657	178.702	46.3846	1.114515	0.022789	0.022449	46.9883	16529.9	0.020657	0.023586	1992.21	98336.8
710	2.000000	1.116769	7.372e+06	-41589.1	1005.82	-29785.7	0.000000	0.000000	7.118749	51.1021	NaN	0.000000	0.001636	0.001771	28.0827	30.1075	0.001745	17255.6	7.904178	175.429	47.9535	1.116558	0.024703	0.024492	51.1021	17255.6	0.022482	0.026594	1921.58	96674.8
710	2.000000	1.118813	7.372e+06	-41589.1	1005.82	-29785.7	0.000000	0.000000	7.121164	60.1124	NaN	0.000000	0.001596	0.001715	28.0826	32.1398	0.001856	17315.8	6.859522	178.669	58.1324	1.118526	0.026747	0.026461	60.1124	17315.8	0.024144	0.029476	2039.34	92146.6
710	2.000000	1.120831	7.372e+06	-41589.1	1005.82	-29785.7	0.000000	0.000000	7.123393	65.2499	NaN	0.000000	0.001569	0.001756	28.0833	33.8024	0.001955	17292.6	5.850141	178.847	64.3244	1.120535	0.028766	0.028469	65.2499	17292.6	0.025936	0.032740	1992.99	87316.3
710	2.000000	1.122763	7.372e+06	-41589.1	1005.82	-29785.7	0.000000	0.000000	7.125625	72.5808	NaN	0.000000	0.001635	0.001740	28.0825	36.4431	0.001886	19322.1	6.684010	176.089	69.2663	1.122498	0.030697	0.030432	72.5808	19322.1	0.027880	0.036463	1990.51	92448
710	2.000000	1.124847	7.372e+06	-41589.1	1005.82	-29785.7	0.000000	0.000000	7.128069	81.3211	NaN	0.000000	0.001571	0.001738	28.0826	36.4003	0.001714	21233.5	0.801637	-179.334	81.0225	1.124557	0.032781	0.032491	81.3211	21233.5	0.029909	0.040555	2005.23	96333
710	2.000000	1.126808	7.372e+06	-41589.1	1005.82	-29785.7	0.000000	0.000000	7.130382	89.8939	NaN	0.000000	0.001626	0.001711	28.0828	39.2266	0.001810	21678.1	4.130560	178.938	89.9069	1.126503	0.034742	0.034437	89.8939	21678.1	0.031632	0.044194	2034.06	94213.1
710	2.000000	1.128838	7.372e+06	-41589.1	1005.82	-29785.7	0.000000	0.000000	7.132711	97.1432	NaN	0.000000	0.001654	0.001755	28.0827	41.575	0.001768	23519.1	4.680181	177.822	96.8692	1.128447	0.036773	0.036381	97.1432	23519.1	0.033675	0.048705	1994.52	97365.9
710	2.000000	1.130827	7.372e+06	-41589.1	1005.82	-29785.7	0.000000	0.000000	7.134971	103.771	NaN	0.000000	0.001668	0.001731	28.0834	43.6371	0.001775	24580.9	8.060635	172.411	104.442	1.130450	0.038761	0.038384	103.771	24580.9	0.035595	0.053140	1952.79	97422.7
710	2.000000	1.132775	7.372e+06	-41589.1	1005.82	-29785.7	0.000000	0.000000	7.137197	110.522	NaN	0.000000	0.001683	0.001713	28.0824	45.3921	0.001792	25333.1	3.492913	176.556	107.25	1.132476	0.040709	0.040411	110.522	25333.1	0.037437	0.057573	1919.68	96460.8
710	2.000000	1.134850	7.372e+06	-41589.1	1005.82	-29785.7	0.000000	0.000000	7.139626	119.137	NaN	0.000000	0.001706	0.001705	28.0824	46.5044	0.001691	27499.7	5.676665	174.031	121.02	1.134534	0.042784	0.042468	119.137	27499.7	0.039535	0.062832	1896.13	100233
710	2.000000	1.136795	7.372e+06	-41589.1	1005.82	-29785.7	0.000000	0.000000	7.141973	128.917	NaN	0.000000	0.001676	0.001710	28.0814	49.3369	0.001778	27740.8	5.458433	174.284	128.217	1.136452	0.044729	0.044386	128.917	27740.8	0.041244	0.067283	1916.05	97710.6
710	2.000000	1.138827	7.372e+06	-41589.1	1005.82	-29785.7	0.000000	0.000000	7.144395	138.407	NaN	0.000000	0.001699	0.001665	28.0813	51.9868	0.001824	28502.5	8.707367	171.925	138.259	1.138493	0.046761	0.046427	138.407	28502.5	0.043119	0.072336	1913.38	96822.7
710	2.000000	1.140822	7.372e+06	-41589.1	1005.82	-29785.7	0.000000	0.000000	7.146895	150.713	NaN	0.000000	0.001610	0.001707	28.0816	52.0179	0.001794	28996.7	4.326674	175.995	150.057	1.140406	0.048756	0.048340	150.713	28996.7	0.044858	0.077183	1952.66	95358.7
710	2.000000	1.142754	7.372e+06	-41589.1	1005.82	-29785.7	0.000000	0.000000	7.149040	155.881	NaN	0.000000	0.001625	0.001717	28.0815	55.4888	0.001845	30068.8	6.811001	172.534	153.774	1.142501	0.050688	0.050435	155.881	30068.8	0.046800	0.082780	1883.07	95482.9
710	2.000000	1.144854	7.372e+06	-41589.1	1005.82	-29785.7	0.000000	0.000000	7.151604	167.171	NaN	0.000000	0.001627	0.001652	28.0811	55.3391	0.001740	31801.7	3.722620	175.528	168.825	1.144470	0.052788	0.052404	167.171	31801.7	0.048846	0.088879	1880.89	97459.4
710	2.000000	1.146761	7.372e+06	-41589.1	1005.82	-29785.7	0.000000	0.000000	7.153868	175.853	NaN	0.000000	0.001620	0.001743	28.0813	57.5302	0.001770	32509.6	2.016695	176.617	173.042	1.146502	0.054695	0.054436	175.853	32509.6	0.050638	0.094396	1862.92	96673.5
710	2.000000	1.148812	7.372e+06	-41589.1	1005.82	-29785.7	0.000000	0.000000	7.156352	186.414	NaN	0.000000	0.001637	0.001724	28.0813	60.7038	0.001904	31875.3	6.251411	173.143	184.79	1.148497	0.056746	0.056431	186.414	31875.3	0.052359	0.099845	1867.02	92164.3
710	2.000000	1.150816	7.372e+06	-41589.1	1005.82	-29785.7	0.000000	0.000000	7.158816	197.578	NaN	0.000000	0.001615	0.001692	28.0818	62.134	0.001946	31929.4	5.209296	174.119	199.326	1.150463	0.058750	0.058398	197.578	31929.4	0.054109	0.105536	1872.15	89797.6
710	2.000000	1.152752	7.372e+06	-41589.1	1005.82	-29785.7	0.000000	0.000000	7.161070	205.309	NaN	0.000000	0.001624	0.001709	28.0816	64.3093	0.001770	36334.1	2.513190	175.449	204.995	1.152553	0.060687	0.060487	205.309	36334.1	0.056449	0.113383	1810.77	98585.7
710	2.000000	1.154790	7.372e+06	-41589.1	1005.82	-29785.7	0.000000	0.000000	7.163619	217.761	NaN	0.000000	0.001603	0.001712	28.0816	65.3385	0.001804	36216.9	4.139823	174.202	216.592	1.154475	0.062724	0.062410	217.761	36216.9	0.058215	0.119484	1822.51	95726
710	2.000000	1.156772	7.372e+06	-41589.1	1005.82	-29785.7	0.000000	0.000000	7.166216	232.708	NaN	0.000000	0.001586	0.001715	28.0817	67.5171	0.001754	38494.6	2.158321	175.505	232.188	1.156423	0.064706	0.064357	232.708	38494.6	0.060172	0.126426	1840.66	98913.1
710	2.000000	1.158770	7.372e+06	-41589.1	1005.82	-29785.7	0.000000	0.000000	7.168570	241.385	NaN	0.000000	0.001576	0.001746	28.0815	70.0827	0.001801	38914.1	6.977977	171.902	238.972	1.158359	0.066704	0.066293	241.385	38914.1	0.062052	0.133270	1811.25	97390.1
710	2.000000	1.160742	7.372e+06	-41589.1	1005.82	-29785.7	0.000000	0.000000	7.171154	256.274	NaN	0.000000	0.001606	0.001751	28.0814	71.596	0.001922	37259.1	4.024816	174.783	255.213	1.160460	0.068676	0.068395	256.274	37259.1	0.063517	0.138723	1847.38	91396.9
710	2.000000	1.162733	7.372e+06	-41589.1	1005.82	-29785.7	0.000000	0.000000	7.173526	265.543	NaN	0.000000	0.001584	0.001705	28.0814	73.8001	0.001853	39834.4	4.623209	172.317	262.706	1.162462	0.070668	0.070396	265.543	39834.4	0.065668	0.146914	1807.48	94951.2
710	2.000000	1.164754	7.372e+06	-41589.1	1005.82	-29785.7	0.000000	0.000000	7.176181	280.968	NaN	0.000000	0.001594	0.001676	28.0816	74.364	0.001754	42396.9	3.698185	173.101	279.153	1.164468	0.072688	0.072403	280.968	42396.9	0.067718	0.154930	1813.52	98410.2
710	2.000000	1.166784	7.372e+06	-41589.1	1005.82	-29785.7	0.000000	0.000000	7.178842	296.326	NaN	0.000000	0.001618	0.001737	28.0815	77.2757	0.001780	43409.2	5.424778	171.518	295.101	1.166391	0.074718	0.074325	296.326	43409.2	0.069598	0.162458	1824.02	98397.5
710	2.000000	1.168729	7.372e+06	-41589.1	1005.82	-29785.7	0.000000	0.000000	7.181380	310.743	NaN	0.000000	0.001573	0.001723	28.0814	79.2596	0.001829	43345.6	5.583452	171.666	306.953	1.168441	0.076663	0.076375	310.743	43345.6	0.071286	0.169360	1834.8	96230.5
710	2.000000	1.170702	7.372e+06	-41589.1	1005.82	-29785.7	0.000000	0.000000	7.183837	322.547	NaN	0.000000	0.001632	0.001730	28.0829	80.4655	0.001716	46890.6	6.595048	169.655	319.218	1.170501	0.078636	0.078435	322.547	46890.6	0.073477	0.178518	1806.81	101395
710	2.000000	1.172721	7.372e+06	-41589.1	1005.82	-29785.7	0.000000	0.000000	7.186375	335.144	NaN	0.000000	0.001610	0.001709	28.0827	83.4009	0.001791	46556.9	1.952036	174.434	332.483	1.172376	0.080655	0.080311	335.144	46556.9	0.075257	0.186126	1800.63	98594.9
710	2.000000	1.174689	7.372e+06	-41589.1	1005.82	-29785.7	0.000000	0.000000	7.188835	347.132	NaN	0.000000	0.001621	0.001724	28.0828	84.1381	0.001744	48240.4	5.106386	170.347	343.786	1.174470	0.082623	0.082404	347.132	48240.4	0.077226	0.194718	1782.74	99880.5
710	2.000000	1.176642	7.372e+06	-41589.1	1005.82	-29785.7	0.000000	0.000000	7.191557	365.833	NaN	0.000000	0.001587	0.001691	28.0829	87.0237	0.001814	47970.1	3.514879	172.714	359.225	1.176354	0.084576	0.084288	365.833	47970.1	0.078857	0.201971	1811.32	97521.4
710	2.000000	1.178776	7.372e+06	-41589.1	1005.82	-29785.7	0.000000	0.000000	7.194434	383.936	NaN	0.000000	0.001605	0.001702	28.0825	89.6307	0.001890	47421.1	7.110663	169.049	383.359	1.178502	0.086710	0.086436	383.936	47421.1	0.080637	0.210031	1827.99	94537.3
710	2.000000	1.180672	7.372e+06	-41589.1	1005.82	-29785.7	0.000000	0.000000	7.197039	401.171	NaN	0.000000	0.001632	0.001681	28.083	90.2986	0.001821	49580.5	4.732847	171.345	395.144	1.180376	0.088607	0.088310	401.171	49580.5	0.082538	0.218798	1833.52	96841.7
710	2.000000	1.182766	7.372e+06	-41589.1	1005.82	-29785.7	0.000000	0.000000	7.199687	414.641	NaN	0.000000	0.001647	0.001726	28.0828	92.1205	0.001700	54199.1	1.543831	173.699	415.296	1.182578	0.090700	0.090512	414.641	54199.1	0.084962	0.230223	1801.04	103203
710	2.000000	1.184713	7.372e+06	-41589.1	1005.82	-29785.7	0.000000	0.000000	7.202262	429.947	NaN	0.000000	0.001617	0.001720	28.0831	93.1172	0.001799	51759.5	2.904230	172.435	427.263	1.184513	0.092647	0.092448	429.947	51759.5	0.086417	0.237208	1812.54	97095.5
710	2.000000	1.186721	7.37201e+06	-41589.1	1005.82	-29785.7	0.000000	0.000000	7.204917	445.659	NaN	0.000000	0.001633	0.001767	28.083	98.1815	0.001894	51831	6.906929	168.693	442.621	1.186355	0.094655	0.094289	445.659	51831	0.088207	0.245936	1812.1	95488.7
710	2.000000	1.188896	7.37201e+06	-41589.1	1005.82	-29785.7	0.000000	0.000000	7.207743	461.508	NaN	0.000000	0.001622	0.001731	28.0826	99.5949	0.001822	54669.8	5.321095	170.142	467.196	1.188389	0.096830	0.096323	461.508	54669.8	0.090499	0.257329	1793.46	98463.7
710	2.000000	1.190702	7.37201e+06	-41589.1	1005.82	-29785.7	0.000000	0.000000	7.210532	485.437	NaN	0.000000	0.001601	0.001780	28.0829	99.7068	0.001851	53855.5	6.654191	169.545	482.6	1.190319	0.098636	0.098253	485.437	53855.5	0.091875	0.264288	1836.78	95711.6
710	2.000000	1.192736	7.37201e+06	-41589.1	1005.82	-29785.7	0.000000	0.000000	7.213052	497.255	NaN	0.000000	0.001619	0.001754	28.0827	103.079	0.001936	53232.5	6.754443	169.79	497.512	1.192330	0.100671	0.100264	497.255	53232.5	0.093665	0.273462	1818.37	93004
710	2.000000	1.194615	7.37201e+06	-41589.1	1005.82	-29785.7	0.000000	0.000000	7.215620	514.028	NaN	0.000000	0.001647	0.001732	28.0833	103.1	0.001832	56291.7	5.273569	170.449	507.259	1.194296	0.102549	0.102231	514.028	56291.7	0.095700	0.284077	1809.46	96493.8