File: remote_trans/data/nanoindenter/0828-1/data/Data_2025-08-06,11h17m57s/2025-07-22_16-23-58_1_1181.txt
2025-07-22, 16:23:58, 1
Index	Phase	Displacement	Time	Pos X	Pos Y	Pos Z	Rot A	Rot B	Piezo Z	Force A	Force B	Gripper	Voltage A	Voltage B	Temperature	Amplitude force	Amplitude pos	Stiffness	Phase shift	Phase excitation	Force A raw	Displacement raw	HMax	HMax raw	Real Force	Real Stiffness	Contact Depth	Area	Hardness	Reduced Mod.
[#]	[#]	[um]	[s]	[um]	[um]	[um]	[m°]	[m°]	[um]	[uN]	[uN]	[V]	[V]	[V]	[°C]	[uN]	[um]	[N/m]	[°]	[°]	[uN]	[um]	[um]	[um]	[uN]	[N/m]	[um]	[um^2]	[MPa]	[MPa]
1181	1.000000	0.002671	7.3766e+06	-56539.1	1105.82	-29738.5	0.000000	0.000000	6.002810	0.046679	NaN	0.000000	0.001572	0.001684	28.0835	0.084513	0.001063	79.5398	-99.4807	-169.997	0.055799	0.001434	-1.116948	-1.118185	0.046679	79.5398	-1.117388	-8.578748E+14	-5.441242E-17	NaN
1181	1.000000	0.012720	7.3766e+06	-56539.1	1105.82	-29738.5	0.000000	0.000000	6.012857	0.032359	NaN	0.000000	0.001571	0.001684	28.0834	0.056219	0.001163	48.3286	-162.119	19.7002	-0.001878	0.011293	-1.106900	-1.108326	0.032359	48.3286	-1.107402	-6.301106E+14	-5.135484E-17	NaN
1181	1.000000	0.022608	7.3766e+06	-56539.1	1105.82	-29738.5	0.000000	0.000000	6.022745	0.001133	NaN	0.000000	0.001594	0.001687	28.0833	0.043714	0.001675	26.0968	-121.812	-166.151	-0.000759	0.021324	-1.097011	-1.098295	0.001133	26.0968	-1.097043	-4.574838E+14	-2.476565E-18	NaN
1181	1.000000	0.032599	7.3766e+06	-56539.1	1105.82	-29738.5	0.000000	0.000000	6.032737	0.030707	NaN	0.000000	0.001625	0.001682	28.0832	0.033574	0.002019	16.6265	130.759	15.2075	0.011410	0.031294	-1.087020	-1.088325	0.030707	16.6265	-1.088405	-3.502640E+14	-8.766916E-17	NaN
1181	1.000000	0.042614	7.3766e+06	-56539.1	1105.82	-29738.5	0.000000	0.000000	6.042750	0.010047	NaN	0.000000	0.001657	0.001664	28.0837	0.011306	0.001978	5.717227	64.2901	-165.094	-0.033239	0.041295	-1.077005	-1.078324	0.010047	5.717227	-1.078323	-2.564484E+14	-3.917884E-17	NaN
1181	1.000000	0.052633	7.3766e+06	-56539.1	1105.82	-29738.5	0.000000	0.000000	6.052771	0.028880	NaN	0.000000	0.001620	0.001681	28.0831	0.020046	0.001969	10.1806	45.6364	13.6304	0.030149	0.051230	-1.066986	-1.068389	0.028880	10.1806	-1.069113	-1.928743E+14	-1.497341E-16	NaN
1181	1.000000	0.062602	7.3766e+06	-56539.1	1105.82	-29738.5	0.000000	0.000000	6.062741	0.043980	NaN	0.000000	0.001646	0.001692	28.0835	0.069469	0.001945	35.7107	3.262160	-165.676	0.081048	0.061300	-1.057017	-1.058319	0.043980	35.7107	-1.057940	-1.365024E+14	-3.221931E-16	NaN
1181	1.000000	0.072622	7.3766e+06	-56539.1	1105.82	-29738.5	0.000000	0.000000	6.072758	-0.006731	NaN	0.000000	0.001670	0.001707	28.0834	0.006356	0.002036	3.122139	146.3	17.235	0.032485	0.071234	-1.046997	-1.048385	-0.006731	3.122139	-1.045380	-9.253440E+13	7.274537E-17	NaN
1181	1.000000	0.082621	7.3766e+06	-56539.1	1105.82	-29738.5	0.000000	0.000000	6.082755	-0.052728	NaN	0.000000	0.001664	0.001723	28.0839	0.075143	0.002091	35.937	88.6777	-169.7	-0.053842	0.081276	-1.036998	-1.038343	-0.052728	35.937	-1.035897	-6.899184E+13	7.642683E-16	NaN
1181	1.000000	0.092630	7.3766e+06	-56539.1	1105.82	-29738.5	0.000000	0.000000	6.092765	-0.024582	NaN	0.000000	0.001640	0.001731	28.0835	0.043841	0.002018	21.724	14.476	11.8773	0.011457	0.091270	-1.026989	-1.028349	-0.024582	21.724	-1.026141	-5.099937E+13	4.820144E-16	NaN
1181	1.000000	0.102634	7.3766e+06	-56539.1	1105.82	-29738.5	0.000000	0.000000	6.102771	0.013339	NaN	0.000000	0.001656	0.001669	28.0836	0.037091	0.001973	18.8037	-93.1131	-166.002	-0.003159	0.101343	-1.016985	-1.018276	0.013339	18.8037	-1.017517	-3.904285E+13	-3.416427E-16	NaN
1181	1.000000	0.112623	7.3766e+06	-56539.1	1105.82	-29738.5	0.000000	0.000000	6.112762	0.059243	NaN	0.000000	0.001609	0.001683	28.0836	0.064040	0.001929	33.2067	-142.97	12.3937	-0.042634	0.111316	-1.006996	-1.008303	0.059243	33.2067	-1.008334	-2.937341E+13	-2.016908E-15	NaN
1181	1.000000	0.122646	7.3766e+06	-56539.1	1105.82	-29738.5	0.000000	0.000000	6.122782	0.006398	NaN	0.000000	0.001589	0.001680	28.0836	0.020538	0.002063	9.954763	71.5879	-164.882	-0.085960	0.121329	-0.996973	-0.998290	0.006398	9.954763	-0.997455	-2.096561E+13	-3.051749E-16	NaN
1181	1.000000	0.132619	7.3766e+06	-56539.1	1105.82	-29738.5	0.000000	0.000000	6.132757	0.033892	NaN	0.000000	0.001637	0.001686	28.0836	0.078308	0.001906	41.0859	93.9741	12.2432	0.033005	0.131321	-0.987000	-0.988298	0.033892	41.0859	-0.987619	-1.545400E+13	-2.193097E-15	NaN
1181	1.000000	0.142650	7.3766e+06	-56539.1	1105.82	-29738.5	0.000000	0.000000	6.142787	0.026376	NaN	0.000000	0.001621	0.001677	28.0822	0.091908	0.002020	45.5095	5.550589	-167.482	-0.043499	0.141346	-0.976969	-0.978273	0.026376	45.5095	-0.977404	-1.125733E+13	-2.343050E-15	NaN
1181	1.000000	0.152606	7.3766e+06	-56539.1	1105.82	-29738.5	0.000000	0.000000	6.152743	0.030526	NaN	0.000000	0.001646	0.001658	28.0822	0.171972	0.001993	86.2967	-24.1135	17.5154	0.012811	0.151270	-0.967013	-0.968349	0.030526	86.2967	-0.967279	-8.222128E+12	-3.712706E-15	NaN
1181	1.000000	0.162626	7.3766e+06	-56539.1	1105.82	-29738.5	0.000000	0.000000	6.162762	0.001566	NaN	0.000000	0.001621	0.001642	28.0823	0.049283	0.001965	25.0776	-158.095	-165.714	0.024795	0.161372	-0.956993	-0.958247	0.001566	25.0776	-0.957040	-5.983591E+12	-2.617596E-16	NaN
1181	1.000000	0.172633	7.3766e+06	-56539.1	1105.82	-29738.5	0.000000	0.000000	6.172773	0.098110	NaN	0.000000	0.001629	0.001659	28.0822	0.049767	0.001999	24.8994	-35.38	14.3389	0.124763	0.171292	-0.946986	-0.948327	0.098110	24.8994	-0.949941	-4.799956E+12	-2.043986E-14	NaN
1181	1.000000	0.182710	7.3766e+06	-56539.1	1105.82	-29738.5	0.000000	0.000000	6.182846	-0.006350	NaN	0.000000	0.001629	0.001687	28.0823	0.028045	0.002105	13.3202	101.465	-167.392	0.105085	0.181389	-0.936909	-0.938230	-0.006350	13.3202	-0.936551	-3.166690E+12	2.005231E-15	NaN
1181	1.000000	0.192647	7.3766e+06	-56539.1	1105.82	-29738.5	0.000000	0.000000	6.192785	0.058313	NaN	0.000000	0.001601	0.001665	28.0825	0.132711	0.001959	67.7536	-93.4783	14.6137	0.093893	0.191337	-0.926972	-0.928282	0.058313	67.7536	-0.927618	-2.399080E+12	-2.430623E-14	NaN
1181	1.000000	0.202701	7.3766e+06	-56539.1	1105.82	-29738.5	0.000000	0.000000	6.202837	-0.011837	NaN	0.000000	0.001669	0.001655	28.0822	0.121864	0.001977	61.6328	-169.447	-164.556	0.016234	0.201383	-0.916918	-0.918236	-0.011837	61.6328	-0.916774	-1.712568E+12	6.911554E-15	NaN
1181	1.000000	0.212684	7.3766e+06	-56539.1	1105.82	-29738.5	0.000000	0.000000	6.212821	0.014428	NaN	0.000000	0.001630	0.001691	28.0821	0.078174	0.001976	39.5669	-127.551	14.43	-0.009685	0.211328	-0.906935	-0.908291	0.014428	39.5669	-0.907208	-1.271908E+12	-1.134338E-14	NaN
1181	1.000000	0.222641	7.3766e+06	-56539.1	1105.82	-29738.5	0.000000	0.000000	6.222780	0.044784	NaN	0.000000	0.001574	0.001711	28.0823	0.050003	0.002017	24.7848	-13.5082	-165.949	-0.025119	0.221413	-0.896978	-0.898206	0.044784	24.7848	-0.898333	-9.650227E+11	-4.640768E-14	NaN
1181	1.000000	0.232687	7.3766e+06	-56539.1	1105.82	-29738.5	0.000000	0.000000	6.232824	0.026976	NaN	0.000000	0.001576	0.001684	28.0823	0.033408	0.001976	16.909	-5.628296	11.691	0.079630	0.231330	-0.886932	-0.888289	0.026976	16.909	-0.888129	-7.024568E+11	-3.840292E-14	NaN
1181	1.000000	0.242692	7.3766e+06	-56539.1	1105.82	-29738.5	0.000000	0.000000	6.242829	0.019694	NaN	0.000000	0.001595	0.001665	28.0824	0.132939	0.002118	62.7746	69.8266	-166.198	0.071506	0.241337	-0.876927	-0.878282	0.019694	62.7746	-0.877162	-4.992579E+11	-3.944591E-14	NaN
1181	1.000000	0.252705	7.3766e+06	-56539.1	1105.82	-29738.5	0.000000	0.000000	6.252840	-0.015742	NaN	0.000000	0.001582	0.001673	28.0822	0.075789	0.002020	37.5252	-87.0643	10.8828	0.056479	0.251312	-0.866914	-0.868307	-0.015742	37.5252	-0.866600	-3.592841E+11	4.381527E-14	NaN
1181	1.000000	0.262694	7.3766e+06	-56539.1	1105.82	-29738.5	0.000000	0.000000	6.262830	-0.004138	NaN	0.000000	0.001615	0.001695	28.0822	0.056099	0.001974	28.4133	-89.6972	-164.809	-0.048970	0.261414	-0.856925	-0.858205	-0.004138	28.4133	-0.856816	-2.648643E+11	1.562344E-14	NaN
1181	1.000000	0.272719	7.3766e+06	-56539.1	1105.82	-29738.5	0.000000	0.000000	6.272857	0.039735	NaN	0.000000	0.001584	0.001617	28.0823	0.037422	0.001990	18.8007	-22.9001	15.9799	0.062175	0.271335	-0.846900	-0.848284	0.039735	18.8007	-0.848485	-2.042783E+11	-1.945132E-13	NaN
1181	1.000000	0.282689	7.3766e+06	-56539.1	1105.82	-29738.5	0.000000	0.000000	6.282825	0.003870	NaN	0.000000	0.001585	0.001649	28.0834	0.041029	0.002013	20.3828	159.985	-164.441	-0.001582	0.281392	-0.836930	-0.838227	0.003870	20.3828	-0.837073	-1.430981E+11	-2.704392E-14	NaN
1181	1.000000	0.292703	7.3766e+06	-56539.1	1105.82	-29738.5	0.000000	0.000000	6.292839	0.010911	NaN	0.000000	0.001587	0.001655	28.0834	0.122978	0.002178	56.4548	106.077	14.6786	-0.075624	0.291374	-0.826916	-0.828245	0.010911	56.4548	-0.827061	-1.047010E+11	-1.042085E-13	NaN
1181	1.000000	0.302736	7.3766e+06	-56539.1	1105.82	-29738.5	0.000000	0.000000	6.302873	0.018358	NaN	0.000000	0.001665	0.001706	28.0845	0.079429	0.002003	39.6534	-152.216	-165.344	0.017484	0.301410	-0.816883	-0.818209	0.018358	39.6534	-0.817231	-7.702877E+10	-2.383309E-13	NaN
1181	1.000000	0.312721	7.3766e+06	-56539.1	1105.82	-29738.5	0.000000	0.000000	6.312857	-0.004158	NaN	0.000000	0.001610	0.001686	28.0837	0.058808	0.001921	30.616	155.374	13.8302	-0.033893	0.311355	-0.806898	-0.808264	-0.004158	30.616	-0.806796	-5.560356E+10	7.477893E-14	NaN
1181	1.000000	0.322749	7.3766e+06	-56539.1	1105.82	-29738.5	0.000000	0.000000	6.322883	-0.041000	NaN	0.000000	0.001627	0.001689	28.0836	0.111419	0.002198	50.6832	-72.5461	-164.695	-0.021059	0.321432	-0.796870	-0.798187	-0.041000	50.6832	-0.796264	-4.000720E+10	1.024816E-12	NaN
1181	1.000000	0.332736	7.3766e+06	-56539.1	1105.82	-29738.5	0.000000	0.000000	6.332873	0.020416	NaN	0.000000	0.001554	0.001694	28.0837	0.054297	0.002059	26.3705	-105.731	12.8797	0.055219	0.331346	-0.786883	-0.788273	0.020416	26.3705	-0.787464	-3.038352E+10	-6.719589E-13	NaN
1181	1.000000	0.342738	7.3766e+06	-56539.1	1105.82	-29738.5	0.000000	0.000000	6.342875	0.026461	NaN	0.000000	0.001591	0.001659	28.0837	0.011908	0.002067	5.762275	-97.3391	-162.572	0.093727	0.341438	-0.776881	-0.778181	0.026461	5.762275	-0.780326	-2.430280E+10	-1.088818E-12	NaN
1181	1.000000	0.352753	7.3766e+06	-56539.1	1105.82	-29738.5	0.000000	0.000000	6.352890	0.012062	NaN	0.000000	0.001602	0.001675	28.0836	0.062703	0.002037	30.7835	-102.387	14.3804	0.055235	0.351372	-0.766866	-0.768247	0.012062	30.7835	-0.767160	-1.609495E+10	-7.493972E-13	NaN
1181	1.000000	0.362745	7.3766e+06	-56539.1	1105.82	-29738.5	0.000000	0.000000	6.362881	-0.012174	NaN	0.000000	0.001600	0.001715	28.0836	0.085157	0.001862	45.7239	64.1895	-165.633	-0.069115	0.361479	-0.756874	-0.758140	-0.012174	45.7239	-0.756674	-1.158915E+10	1.050475E-12	NaN
1181	1.000000	0.372759	7.3766e+06	-56539.1	1105.82	-29738.5	0.000000	0.000000	6.372895	-0.011091	NaN	0.000000	0.001574	0.001693	28.0839	0.057134	0.001960	29.1443	53.9197	16.686	-0.026219	0.371381	-0.746860	-0.748238	-0.011091	29.1443	-0.746574	-8.444647E+9	1.313319E-12	NaN
1181	1.000000	0.382750	7.3766e+06	-56539.1	1105.82	-29738.5	0.000000	0.000000	6.382885	-0.022760	NaN	0.000000	0.001567	0.001695	28.0838	0.085204	0.002091	40.744	32.7086	-167.426	0.014931	0.381496	-0.736869	-0.738123	-0.022760	40.744	-0.736450	-6.147564E+9	3.702324E-12	NaN
1181	1.000000	0.392746	7.3766e+06	-56539.1	1105.82	-29738.5	0.000000	0.000000	6.392880	-0.055003	NaN	0.000000	0.001564	0.001687	28.0835	0.080526	0.001889	42.6301	134.742	9.749153	-0.022531	0.391389	-0.726873	-0.728230	-0.055003	42.6301	-0.725906	-4.415703E+9	1.245614E-11	NaN
1181	1.000000	0.402765	7.3766e+06	-56539.1	1105.82	-29738.5	0.000000	0.000000	6.402902	0.039419	NaN	0.000000	0.001576	0.001681	28.0834	0.046669	0.002034	22.9487	52.6893	-167.342	0.047260	0.401466	-0.716855	-0.718153	0.039419	22.9487	-0.718143	-3.460536E+9	-1.139111E-11	NaN
1181	1.000000	0.412750	7.3766e+06	-56539.1	1105.82	-29738.5	0.000000	0.000000	6.412884	-0.049162	NaN	0.000000	0.001611	0.001739	28.0824	0.076482	0.001982	38.5955	111.292	10.6996	0.012020	0.411399	-0.706869	-0.708220	-0.049162	38.5955	-0.705914	-2.356568E+9	2.086155E-11	NaN
1181	1.000000	0.422770	7.3766e+06	-56539.1	1105.82	-29738.5	0.000000	0.000000	6.422903	-0.072539	NaN	0.000000	0.001598	0.001666	28.0822	0.067325	0.001978	34.0452	-127.843	-162.999	0.044686	0.421496	-0.696849	-0.698123	-0.072539	34.0452	-0.695251	-1.685271E+9	4.304277E-11	NaN
1181	1.000000	0.432763	7.3766e+06	-56539.1	1105.82	-29738.5	0.000000	0.000000	6.432900	0.003872	NaN	0.000000	0.001611	0.001635	28.0821	0.057695	0.002058	28.0349	-112.261	14.3299	-0.080131	0.431418	-0.686856	-0.688201	0.003872	28.0349	-0.686959	-1.298246E+9	-2.982830E-12	NaN
1181	1.000000	0.442773	7.3766e+06	-56539.1	1105.82	-29738.5	0.000000	0.000000	6.442911	0.032444	NaN	0.000000	0.001602	0.001678	28.0822	0.063076	0.001949	32.3559	-153.066	-167.68	0.013708	0.441525	-0.676846	-0.678094	0.032444	32.3559	-0.677598	-9.668240E+8	-3.355773E-11	NaN
1181	1.000000	0.452791	7.3766e+06	-56539.1	1105.82	-29738.5	0.000000	0.000000	6.452926	-0.029575	NaN	0.000000	0.001572	0.001661	28.0825	0.090860	0.002026	44.8484	151.707	13.7038	0.016974	0.451394	-0.666828	-0.668226	-0.029575	44.8484	-0.666334	-6.779604E+8	4.362309E-11	NaN
1181	1.000000	0.462794	7.3766e+06	-56539.1	1105.82	-29738.5	0.000000	0.000000	6.462928	-0.063517	NaN	0.000000	0.001561	0.001682	28.0822	0.115553	0.002049	56.4074	-128.29	-162.973	-0.048877	0.461407	-0.656825	-0.658212	-0.063517	56.4074	-0.655981	-4.891067E+8	1.298640E-10	NaN
1181	1.000000	0.472779	7.3766e+06	-56539.1	1105.82	-29738.5	0.000000	0.000000	6.472914	-0.024650	NaN	0.000000	0.001539	0.001681	28.0822	0.019632	0.001882	10.4334	130.604	15.4491	0.056160	0.471417	-0.646840	-0.648202	-0.024650	10.4334	-0.645068	-3.465840E+8	7.112189E-11	NaN
1181	1.000000	0.482790	7.3766e+06	-56539.1	1105.82	-29738.5	0.000000	0.000000	6.482924	-0.054349	NaN	0.000000	0.001579	0.001670	28.0823	0.048140	0.001883	25.5633	25.077	-166.306	0.034525	0.481461	-0.636829	-0.638158	-0.054349	25.5633	-0.635235	-2.540342E+8	2.139440E-10	NaN
1181	1.000000	0.492811	7.3766e+06	-56539.1	1105.82	-29738.5	0.000000	0.000000	6.492948	0.024424	NaN	0.000000	0.001595	0.001698	28.0825	0.066401	0.001862	35.6661	161.678	10.8719	-0.029595	0.491520	-0.626808	-0.628099	0.024424	35.6661	-0.627322	-1.978059E+8	-1.234744E-10	NaN
1181	1.000000	0.502767	7.3766e+06	-56539.1	1105.82	-29738.5	0.000000	0.000000	6.502907	0.085496	NaN	0.000000	0.001585	0.001674	28.0824	0.085447	0.002058	41.5233	-74.9064	-165.352	0.048678	0.501518	-0.616852	-0.618101	0.085496	41.5233	-0.618397	-1.491392E+8	-5.732653E-10	NaN
1181	1.000000	0.512815	7.3766e+06	-56539.1	1105.82	-29738.5	0.000000	0.000000	6.512950	-0.039252	NaN	0.000000	0.001632	0.001681	28.0824	0.100588	0.001939	51.8651	103.955	13.9041	0.044223	0.511497	-0.606804	-0.608122	-0.039252	51.8651	-0.606236	-1.014665E+8	3.868481E-10	NaN
1181	1.000000	0.522804	7.3766e+06	-56539.1	1105.82	-29738.5	0.000000	0.000000	6.522938	-0.053943	NaN	0.000000	0.001623	0.001698	28.0825	0.064681	0.002104	30.7432	-26.2906	-164.74	0.012294	0.521484	-0.596815	-0.598135	-0.053943	30.7432	-0.595499	-7.218778E+7	7.472566E-10	NaN
1181	1.000000	0.532793	7.3766e+06	-56539.1	1105.82	-29738.5	0.000000	0.000000	6.532930	0.028980	NaN	0.000000	0.001631	0.001715	28.0826	0.081469	0.001907	42.7187	19.3352	13.9145	0.021429	0.531436	-0.586826	-0.588183	0.028980	42.7187	-0.587335	-5.570855E+7	-5.202156E-10	NaN
1181	1.000000	0.542836	7.3766e+06	-56539.1	1105.82	-29738.5	0.000000	0.000000	6.542974	0.022970	NaN	0.000000	0.001623	0.001682	28.0825	0.147852	0.001870	79.0824	31.996	-167.619	0.071052	0.541482	-0.576783	-0.578137	0.022970	79.0824	-0.577000	-4.011624E+7	-5.725955E-10	NaN
1181	1.000000	0.552792	7.3766e+06	-56539.1	1105.82	-29738.5	0.000000	0.000000	6.552926	-0.045754	NaN	0.000000	0.001628	0.001675	28.0834	0.091347	0.002136	42.7736	-119.663	14.6907	-0.036368	0.551445	-0.566827	-0.568174	-0.045754	42.7736	-0.566025	-2.829407E+7	1.617095E-9	NaN
1181	1.000000	0.562818	7.3766e+06	-56539.1	1105.82	-29738.5	0.000000	0.000000	6.562957	0.057959	NaN	0.000000	0.001565	0.001672	28.0839	0.046542	0.001992	23.3652	132.123	-164.23	0.067314	0.561554	-0.556801	-0.558065	0.057959	23.3652	-0.558661	-2.237977E+7	-2.589809E-9	NaN
1181	1.000000	0.572819	7.3766e+06	-56539.1	1105.82	-29738.5	0.000000	0.000000	6.572957	0.058668	NaN	0.000000	0.001607	0.001669	28.0836	0.078535	0.001989	39.475	97.7642	17.5656	0.130413	0.571436	-0.546800	-0.548183	0.058668	39.475	-0.547915	-1.588813E+7	-3.692587E-9	NaN
1181	1.000000	0.582842	7.3766e+06	-56539.1	1105.82	-29738.5	0.000000	0.000000	6.582977	-0.023958	NaN	0.000000	0.001633	0.001665	28.0837	0.075296	0.001995	37.7333	-148.113	-165.434	-0.124472	0.581521	-0.536777	-0.538098	-0.023958	37.7333	-0.536301	-1.096585E+7	2.184817E-9	NaN
1181	1.000000	0.592830	7.3766e+06	-56539.1	1105.82	-29738.5	0.000000	0.000000	6.592968	0.043531	NaN	0.000000	0.001647	0.001682	28.0835	0.146301	0.001924	76.0439	-67.404	14.4602	0.013103	0.591447	-0.526789	-0.528173	0.043531	76.0439	-0.527218	-8.20226e+06	-5.307250E-9	NaN
1181	1.000000	0.602852	7.3766e+06	-56539.1	1105.82	-29738.5	0.000000	0.000000	6.602990	0.044968	NaN	0.000000	0.001643	0.001696	28.0838	0.088210	0.002195	40.1783	33.5971	-168.118	0.063610	0.601555	-0.516767	-0.518064	0.044968	40.1783	-0.517606	-6.02979e+06	-7.457693E-9	NaN
1181	1.000000	0.612842	7.3766e+06	-56539.1	1105.82	-29738.5	0.000000	0.000000	6.612984	0.125345	NaN	0.000000	0.001627	0.001670	28.0833	0.109790	0.002018	54.4024	-127.763	15.3227	0.091035	0.611454	-0.506777	-0.508165	0.125345	54.4024	-0.508505	-4.5039e+06	-2.783032E-8	NaN
1181	1.000000	0.622842	7.3766e+06	-56539.1	1105.82	-29738.5	0.000000	0.000000	6.622980	0.049029	NaN	0.000000	0.001643	0.001666	28.0834	0.076346	0.001973	38.6914	137.141	-163.835	-0.032997	0.621519	-0.496777	-0.498100	0.049029	38.6914	-0.497727	-3.18645e+06	-1.538667E-8	NaN
1181	1.000000	0.632860	7.3766e+06	-56539.1	1105.82	-29738.5	0.000000	0.000000	6.632996	-0.008440	NaN	0.000000	0.001679	0.001672	28.0834	0.038582	0.002004	19.2551	-145.915	13.9139	-0.038995	0.631469	-0.486759	-0.488150	-0.008440	19.2551	-0.486431	-2.21564e+06	3.809195E-9	NaN
1181	1.000000	0.642873	7.3766e+06	-56539.1	1105.82	-29738.5	0.000000	0.000000	6.643009	0.000163	NaN	0.000000	0.001663	0.001677	28.0836	0.054403	0.001943	27.9958	-46.4828	-165.27	0.004530	0.641581	-0.476746	-0.478038	0.000163	27.9958	-0.476750	-1.62189e+06	-1.005439E-10	NaN
1181	1.000000	0.652860	7.3766e+06	-56539.1	1105.82	-29738.5	0.000000	0.000000	6.652996	-0.017958	NaN	0.000000	0.001669	0.001693	28.0834	0.034686	0.002073	16.7318	129.673	12.2969	-0.009857	0.651480	-0.466759	-0.468139	-0.017958	16.7318	-0.465954	-1.14456e+06	1.568970E-8	NaN
1181	1.000000	0.662867	7.3766e+06	-56539.1	1105.82	-29738.5	0.000000	0.000000	6.663004	0.019434	NaN	0.000000	0.001655	0.001672	28.0833	0.029993	0.001941	15.454	178.068	-167.845	-0.057760	0.661598	-0.456752	-0.458022	0.019434	15.454	-0.457696	-876246	-2.217817E-8	NaN
1181	1.000000	0.672923	7.3766e+06	-56539.1	1105.82	-29738.5	0.000000	0.000000	6.673058	-0.024042	NaN	0.000000	0.001699	0.001626	28.0834	0.060568	0.002023	29.9393	98.7246	14.9283	0.000667	0.671523	-0.446696	-0.448096	-0.024042	29.9393	-0.446094	-601607	3.996357E-8	NaN
1181	1.000000	0.682871	7.3766e+06	-56539.1	1105.82	-29738.5	0.000000	0.000000	6.683007	0.004544	NaN	0.000000	0.001689	0.001646	28.0833	0.126257	0.001833	68.8881	165.091	-166.679	0.080076	0.681550	-0.436748	-0.438069	0.004544	68.8881	-0.436798	-444783	-1.021667E-8	NaN
1181	1.000000	0.692895	7.3766e+06	-56539.1	1105.82	-29738.5	0.000000	0.000000	6.693030	-0.045290	NaN	0.000000	0.001682	0.001636	28.082	0.105355	0.001989	52.9648	91.5808	13.7433	0.053448	0.691513	-0.426724	-0.428106	-0.045290	52.9648	-0.426083	-313772	1.443391E-7	NaN
1181	1.000000	0.702842	7.3766e+06	-56539.1	1105.82	-29738.5	0.000000	0.000000	6.702978	-0.020505	NaN	0.000000	0.001683	0.001642	28.0821	0.042865	0.002086	20.5481	-131.727	-170.638	-0.085456	0.701554	-0.416777	-0.418065	-0.020505	20.5481	-0.416028	-225973	9.074068E-8	NaN
1181	1.000000	0.712918	7.3766e+06	-56539.1	1105.82	-29738.5	0.000000	0.000000	6.713053	-0.024093	NaN	0.000000	0.001656	0.001669	28.0821	0.047825	0.002096	22.8155	-153.445	17.9608	-0.025056	0.711561	-0.406701	-0.408058	-0.024093	22.8155	-0.405909	-162254	1.484907E-7	NaN
1181	1.000000	0.722909	7.3766e+06	-56539.1	1105.82	-29738.5	0.000000	0.000000	6.723044	-0.045865	NaN	0.000000	0.001645	0.001662	28.0821	0.121783	0.001946	62.5862	-49.7577	-166.429	-0.080271	0.721541	-0.396710	-0.398078	-0.045865	62.5862	-0.396160	-117816	3.892989E-7	NaN
1181	1.000000	0.732906	7.3766e+06	-56539.1	1105.82	-29738.5	0.000000	0.000000	6.733042	0.004868	NaN	0.000000	0.001696	0.001658	28.082	0.112067	0.001974	56.7803	163.914	16.7972	0.005763	0.731528	-0.386713	-0.388091	0.004868	56.7803	-0.386778	-86506.2	-5.627718E-8	NaN
1181	1.000000	0.742880	7.3766e+06	-56539.1	1105.82	-29738.5	0.000000	0.000000	6.743015	-0.030708	NaN	0.000000	0.001685	0.001661	28.0821	0.045343	0.001978	22.9225	-9.174213	-166.963	-0.030618	0.741568	-0.376739	-0.378051	-0.030708	22.9225	-0.375734	-60064.9	5.112517E-7	NaN
1181	1.000000	0.752911	7.3766e+06	-56539.1	1105.82	-29738.5	0.000000	0.000000	6.753048	0.022296	NaN	0.000000	0.001590	0.001633	28.0822	0.061202	0.001973	31.0166	-81.1175	15.7169	0.065993	0.751523	-0.366708	-0.368096	0.022296	31.0166	-0.367247	-45337.7	-4.917857E-7	NaN
1181	1.000000	0.762920	7.3766e+06	-56539.1	1105.82	-29738.5	0.000000	0.000000	6.763058	0.034355	NaN	0.000000	0.001629	0.001645	28.0821	0.079232	0.001968	40.2688	-168.394	-168.001	-0.022781	0.761583	-0.356699	-0.358036	0.034355	40.2688	-0.357339	-32610.3	-1.053501E-6	NaN
1181	1.000000	0.772886	7.3766e+06	-56539.1	1105.82	-29738.5	0.000000	0.000000	6.773022	-0.000397	NaN	0.000000	0.001590	0.001661	28.082	0.097311	0.001907	51.0368	-123.526	13.9383	0.052047	0.771580	-0.346733	-0.348039	-0.000397	51.0368	-0.346727	-22880.9	1.734150E-8	NaN
1181	1.000000	0.782963	7.3766e+06	-56539.1	1105.82	-29738.5	0.000000	0.000000	6.783099	0.005590	NaN	0.000000	0.001595	0.001633	28.0818	0.074911	0.002057	36.4201	-179.673	-166.202	-0.100747	0.781619	-0.336656	-0.338000	0.005590	36.4201	-0.336771	-16385.4	-3.411755E-7	NaN
1181	1.000000	0.792930	7.3766e+06	-56539.1	1105.82	-29738.5	0.000000	0.000000	6.793067	0.015815	NaN	0.000000	0.001606	0.001643	28.0821	0.075836	0.002040	37.1715	-58.3932	15.623	0.021293	0.791575	-0.326689	-0.328044	0.015815	37.1715	-0.327008	-11792.4	-1.341137E-6	NaN
1181	1.000000	0.802937	7.3766e+06	-56539.1	1105.82	-29738.5	0.000000	0.000000	6.803075	0.031016	NaN	0.000000	0.001629	0.001642	28.0821	0.023149	0.002058	11.2485	-118.138	-163.119	0.046286	0.801655	-0.316682	-0.317964	0.031016	11.2485	-0.318750	-8917.2	-3.478263E-6	NaN
1181	1.000000	0.812900	7.3766e+06	-56539.1	1105.82	-29738.5	0.000000	0.000000	6.813036	-0.024030	NaN	0.000000	0.001609	0.001642	28.0823	0.061989	0.001997	31.0488	103.407	15.9218	0.048363	0.811559	-0.306719	-0.308060	-0.024030	31.0488	-0.306138	-5805.51	4.139092E-6	NaN
1181	1.000000	0.822930	7.3766e+06	-56539.1	1105.82	-29738.5	0.000000	0.000000	6.823065	-0.043920	NaN	0.000000	0.001648	0.001697	28.0831	0.038218	0.002086	18.3223	54.9663	-164.952	-0.038961	0.821644	-0.296689	-0.297975	-0.043920	18.3223	-0.294891	-3948.73	1.112248E-5	NaN
1181	1.000000	0.832920	7.3766e+06	-56539.1	1105.82	-29738.5	0.000000	0.000000	6.833058	0.060735	NaN	0.000000	0.001623	0.001653	28.0834	0.032423	0.002028	15.9914	-52.263	18.3668	-0.008772	0.831568	-0.286699	-0.288051	0.060735	15.9914	-0.289548	-3284.95	-1.848897E-5	NaN
1181	1.000000	0.842933	7.3766e+06	-56539.1	1105.82	-29738.5	0.000000	0.000000	6.843068	-0.016626	NaN	0.000000	0.001629	0.001674	28.083	0.067067	0.001905	35.2111	132.682	-162.85	-0.066440	0.841608	-0.276686	-0.278011	-0.016626	35.2111	-0.276332	-2077.6	8.002471E-6	NaN
1181	1.000000	0.852945	7.3766e+06	-56539.1	1105.82	-29738.5	0.000000	0.000000	6.853081	-0.005377	NaN	0.000000	0.001631	0.001649	28.0833	0.059846	0.001803	33.1977	111.04	13.2064	0.069681	0.851605	-0.266674	-0.268014	-0.005377	33.1977	-0.266553	-1475.95	3.643119E-6	NaN
1181	1.000000	0.862955	7.3766e+06	-56539.1	1105.82	-29738.5	0.000000	0.000000	6.863091	-0.016265	NaN	0.000000	0.001635	0.001661	28.0834	0.078982	0.001858	42.5163	-89.7694	-163.507	-0.061852	0.861616	-0.256664	-0.258003	-0.016265	42.5163	-0.256377	-1031.1	1.577452E-5	NaN
1181	1.000000	0.872945	7.3766e+06	-56539.1	1105.82	-29738.5	0.000000	0.000000	6.873083	0.047692	NaN	0.000000	0.001636	0.001640	28.0833	0.061229	0.002000	30.6125	108.606	16.0926	0.022679	0.871571	-0.246674	-0.248048	0.047692	30.6125	-0.247843	-761.319	-6.264371E-5	NaN
1181	1.000000	0.882921	7.3766e+06	-56539.1	1105.82	-29738.5	0.000000	0.000000	6.883062	0.108200	NaN	0.000000	0.001608	0.001648	28.0832	0.069134	0.002084	33.1751	138.736	-166.531	-0.005705	0.881672	-0.236698	-0.237947	0.108200	33.1751	-0.239144	-557.406	-0.000194	NaN
1181	1.000000	0.892949	7.3766e+06	-56539.1	1105.82	-29738.5	0.000000	0.000000	6.893085	0.008546	NaN	0.000000	0.001605	0.001633	28.0832	0.107773	0.001987	54.2299	154.349	8.562249	-0.000686	0.891554	-0.226670	-0.228065	0.008546	54.2299	-0.226789	-356.216	-2.399031E-5	NaN
1181	1.000000	0.902986	7.3766e+06	-56539.1	1105.82	-29738.5	0.000000	0.000000	6.903121	-0.031439	NaN	0.000000	0.001627	0.001626	28.0833	0.144230	0.002051	70.3224	175.552	-168.492	-0.065440	0.901658	-0.216633	-0.217961	-0.031439	70.3224	-0.216298	-242.312	0.000130	NaN
1181	1.000000	0.912986	7.3766e+06	-56539.1	1105.82	-29738.5	0.000000	0.000000	6.913124	0.047950	NaN	0.000000	0.001590	0.001667	28.0833	0.049903	0.002059	24.2417	20.2736	17.8778	0.041661	0.911640	-0.206633	-0.207979	0.047950	24.2417	-0.208117	-178.764	-0.000268	NaN
1181	1.000000	0.922994	7.3766e+06	-56539.1	1105.82	-29738.5	0.000000	0.000000	6.923133	0.078390	NaN	0.000000	0.001558	0.001644	28.0832	0.088688	0.001904	46.5805	1.840863	-162.344	0.072103	0.921649	-0.196625	-0.197971	0.078390	46.5805	-0.197888	-121.598	-0.000645	NaN
1181	1.000000	0.932954	7.3766e+06	-56539.1	1105.82	-29738.5	0.000000	0.000000	6.933091	0.018048	NaN	0.000000	0.001592	0.001648	28.0835	0.018366	0.002046	8.976222	142.285	16.0495	-0.034225	0.931651	-0.186665	-0.187968	0.018048	8.976222	-0.188173	-83.8404	-0.000215	NaN
1181	1.000000	0.943007	7.3766e+06	-56539.1	1105.82	-29738.5	0.000000	0.000000	6.943143	-0.000265	NaN	0.000000	0.001585	0.001641	28.0834	0.029653	0.002229	13.3002	-147.522	-162.373	0.011364	0.941645	-0.176612	-0.177975	-0.000265	13.3002	-0.176597	-53.38	4.970781E-6	NaN
1181	1.000000	0.953002	7.3766e+06	-56539.1	1105.82	-29738.5	0.000000	0.000000	6.953140	0.020958	NaN	0.000000	0.001624	0.001630	28.0833	0.139744	0.002078	67.2341	155.755	16.7669	-0.012593	0.951602	-0.166617	-0.168017	0.020958	67.2341	-0.166850	-36.2018	-0.000579	NaN
1181	1.000000	0.962993	7.3766e+06	-56539.1	1105.82	-29738.5	0.000000	0.000000	6.963132	0.059946	NaN	0.000000	0.001570	0.001652	28.082	0.053803	0.001983	27.1364	-169.782	-169.252	0.140455	0.961705	-0.156626	-0.157914	0.059946	27.1364	-0.158283	-25.5507	-0.002346	NaN
1181	1.000000	0.973018	7.3766e+06	-56539.1	1105.82	-29738.5	0.000000	0.000000	6.973153	-0.035788	NaN	0.000000	0.001598	0.001647	28.0822	0.058729	0.001926	30.4879	-136.033	17.7794	0.010078	0.971610	-0.146601	-0.148009	-0.035788	30.4879	-0.145721	-15.1179	0.002367	NaN
1181	1.000000	0.982973	7.3766e+06	-56539.1	1105.82	-29738.5	0.000000	0.000000	6.983107	-0.056109	NaN	0.000000	0.001652	0.001668	28.0821	0.091922	0.001861	49.4032	24.0316	-166.88	-0.041920	0.981704	-0.136646	-0.137915	-0.056109	49.4032	-0.135794	-9.849848	0.005696	NaN
1181	1.000000	0.992997	7.3766e+06	-56539.1	1105.82	-29738.5	0.000000	0.000000	6.993133	-0.006025	NaN	0.000000	0.001648	0.001643	28.0823	0.058527	0.002037	28.7341	71.3581	16.134	-0.009729	0.991692	-0.126622	-0.127927	-0.006025	28.7341	-0.126465	-6.499761	0.000927	NaN
1181	1.000000	1.002990	7.3766e+06	-56539.1	1105.82	-29738.5	0.000000	0.000000	7.003127	0.012674	NaN	0.000000	0.001607	0.001671	28.0823	0.087290	0.002065	42.2742	12.2885	-166.49	-0.014204	1.001687	-0.116629	-0.117932	0.012674	42.2742	-0.116854	-4.170352	-0.003039	NaN
1181	1.000000	1.013017	7.3766e+06	-56539.1	1105.82	-29738.5	0.000000	0.000000	7.013152	-0.030638	NaN	0.000000	0.001633	0.001622	28.0824	0.052710	0.001876	28.1037	-101.05	16.0568	-0.091712	1.011648	-0.106602	-0.107971	-0.030638	28.1037	-0.105785	-2.443925	0.012536	NaN
1181	1.000000	1.023006	7.3766e+06	-56539.1	1105.82	-29738.5	0.000000	0.000000	7.023142	0.001716	NaN	0.000000	0.001638	0.001634	28.0822	0.015323	0.001913	8.008984	-110.4	-167.293	0.111156	1.021715	-0.096613	-0.097904	0.001716	8.008984	-0.096774	-1.547502	-0.001109	NaN
1181	1.000000	1.033017	7.3766e+06	-56539.1	1105.82	-29738.5	0.000000	0.000000	7.033154	0.025023	NaN	0.000000	0.001606	0.001638	28.0824	0.142763	0.001993	71.615	-156.334	14.9686	0.026265	1.031635	-0.086603	-0.087984	0.025023	71.615	-0.086865	-0.911049	-0.027466	NaN
1181	1.000000	1.043005	7.3766e+06	-56539.1	1105.82	-29738.5	0.000000	0.000000	7.043142	0.025336	NaN	0.000000	0.001641	0.001660	28.0825	0.071560	0.001876	38.1478	128.891	-167.742	-0.024611	1.041680	-0.076614	-0.077939	0.025336	38.1478	-0.077112	-0.523329	-0.048412	NaN
1181	1.000000	1.053017	7.3766e+06	-56539.1	1105.82	-29738.5	0.000000	0.000000	7.053153	-0.005723	NaN	0.000000	0.001612	0.001613	28.0823	0.075563	0.002035	37.1381	-130.922	15.3861	0.008993	1.051697	-0.066602	-0.067922	-0.005723	37.1381	-0.066486	-0.273898	0.020896	NaN
1181	1.000000	1.063012	7.3766e+06	-56539.1	1105.82	-29738.5	0.000000	0.000000	7.063148	0.000662	NaN	0.000000	0.001668	0.001623	28.0822	0.103064	0.001958	52.6456	-12.4023	-165.57	-0.018619	1.061755	-0.056607	-0.057864	0.000662	52.6456	-0.056616	-0.143681	-0.004604	NaN
1181	1.000000	1.073017	7.3766e+06	-56539.1	1105.82	-29738.5	0.000000	0.000000	7.073155	0.049770	NaN	0.000000	0.001652	0.001646	28.0822	0.070978	0.002025	35.0528	-159.852	15.6518	0.083190	1.071697	-0.046602	-0.047922	0.049770	35.0528	-0.047667	-0.077520	-0.642031	NaN
1181	1.000000	1.083019	7.3766e+06	-56539.1	1105.82	-29738.5	0.000000	0.000000	7.083155	0.010623	NaN	0.000000	0.001624	0.001611	28.0825	0.085737	0.001837	46.6617	131.188	-166.605	0.042988	1.081729	-0.036600	-0.037890	0.010623	46.6617	-0.036771	-0.036143	-0.293926	NaN
1181	1.000000	1.093061	7.3766e+06	-56539.1	1105.82	-29738.5	0.000000	0.000000	7.093196	-0.030776	NaN	0.000000	0.001606	0.001610	28.0824	0.045502	0.002120	21.4641	-21.0381	13.1354	-0.034923	1.091653	-0.026558	-0.027966	-0.030776	21.4641	-0.025482	-0.017368	1.771956	NaN
1181	1.000000	1.103031	7.3766e+06	-56539.1	1105.82	-29738.5	0.000000	0.000000	7.103168	0.018824	NaN	0.000000	0.001598	0.001644	28.0839	0.036528	0.002085	17.518	-108.771	-165.07	0.077065	1.101783	-0.016588	-0.017836	0.018824	17.518	-0.017394	-0.010764	-1.748789	NaN
1181	1.000000	1.113036	7.3766e+06	-56539.1	1105.82	-29738.5	0.000000	0.000000	7.113188	0.395471	NaN	0.000000	0.001607	0.001742	28.0835	0.575093	0.002021	284.498	12.7975	12.7867	0.173323	1.111717	-0.006583	-0.007902	0.395471	284.498	-0.007626	-0.005012	-78.9105	NaN
1181	1.000000	1.123032	7.3766e+06	-56539.1	1105.82	-29738.5	0.000000	0.000000	7.123309	3.430522	NaN	0.000000	0.001590	0.001737	28.0838	2.029409	0.001859	1091.54	16.6692	-170.3	2.988069	1.121753	0.003413	0.002134	3.430522	1091.54	0.001055	0.000805	4260.35	35144.4
1181	2.000000	1.132808	7.3766e+06	-56539.1	1105.82	-29738.5	0.000000	0.000000	7.133292	8.451882	NaN	0.000000	0.001619	0.001715	28.0836	7.100383	0.001837	3864.38	14.0541	3.131847	7.003816	1.131620	0.013189	0.012001	8.451882	3864.38	0.011548	0.010953	771.624	33734.9
1181	2.000000	1.135702	7.3766e+06	-56539.1	1105.82	-29738.5	0.000000	0.000000	7.136178	8.259537	NaN	0.000000	0.001613	0.001723	28.0843	8.103759	0.001761	4600.86	12.9904	-174.641	10.0785	1.135359	0.016083	0.015740	8.259537	4600.86	0.014737	0.014936	552.994	34395
1181	2.000000	1.138104	7.3766e+06	-56539.1	1105.82	-29738.5	0.000000	0.000000	7.138721	11.6709	NaN	0.000000	0.001624	0.001688	28.0835	11.2123	0.001799	6233.38	7.181262	5.249196	11.1775	1.137766	0.018485	0.018147	11.6709	6233.38	0.017081	0.018161	642.621	42259.4
1181	2.000000	1.140610	7.3766e+06	-56539.1	1105.82	-29738.5	0.000000	0.000000	7.141350	14.6823	NaN	0.000000	0.001561	0.001742	28.0838	13.6533	0.001755	7778.8	3.113564	-172.719	14.403	1.140278	0.020990	0.020659	14.6823	7778.8	0.019575	0.021879	671.079	48048
1181	2.000000	1.143087	7.3766e+06	-56539.1	1105.82	-29738.5	0.000000	0.000000	7.143940	17.4308	NaN	0.000000	0.001591	0.001735	28.0835	15.6721	0.001701	9214.87	7.291228	1.593823	15.7688	1.142730	0.023468	0.023111	17.4308	9214.87	0.022049	0.025865	673.909	52348.5
1181	2.000000	1.145599	7.3766e+06	-56539.1	1105.82	-29738.5	0.000000	0.000000	7.146495	18.468	NaN	0.000000	0.001629	0.001753	28.084	17.0845	0.001887	9052.4	6.649697	-174.398	19.1145	1.145309	0.025980	0.025690	18.468	9052.4	0.024450	0.030022	615.15	47732.8
1181	2.000000	1.148106	7.3766e+06	-56539.1	1105.82	-29738.5	0.000000	0.000000	7.149238	24.2147	NaN	0.000000	0.001659	0.001768	28.0837	19.6185	0.001774	11059.5	3.732766	5.555134	24.5919	1.147719	0.028487	0.028100	24.2147	11059.5	0.026845	0.034457	702.75	54433.9
1181	2.000000	1.150547	7.37661e+06	-56539.1	1105.82	-29738.5	0.000000	0.000000	7.151961	31.0722	NaN	0.000000	0.001658	0.001684	28.0837	22.5473	0.001694	13311.5	3.562662	-176.511	30.1654	1.150212	0.030928	0.030593	31.0722	13311.5	0.029177	0.039055	795.595	61540.4
1181	2.000000	1.153057	7.37661e+06	-56539.1	1105.82	-29738.5	0.000000	0.000000	7.154620	34.6875	NaN	0.000000	0.001575	0.001683	28.0837	25.0359	0.001895	13212.8	8.516697	-0.643114	33.0826	1.152712	0.033438	0.033093	34.6875	13212.8	0.031469	0.043843	791.18	57652.8
1181	2.000000	1.155553	7.37661e+06	-56539.1	1105.82	-29738.5	0.000000	0.000000	7.157368	40.7951	NaN	0.000000	0.001567	0.001724	28.0839	27.4197	0.001873	14640.5	4.822120	-178.199	39.6451	1.155221	0.035934	0.035602	40.7951	14640.5	0.033845	0.049090	831.029	60371.6
1181	2.000000	1.158029	7.37661e+06	-56539.1	1105.82	-29738.5	0.000000	0.000000	7.160094	46.8932	NaN	0.000000	0.001577	0.001723	28.0825	30.2568	0.001727	17524.8	9.598789	-5.336866	46.8921	1.157679	0.038410	0.038060	46.8932	17524.8	0.036403	0.055063	851.631	68233.5
1181	2.000000	1.160574	7.37661e+06	-56539.1	1105.82	-29738.5	0.000000	0.000000	7.162935	54.0879	NaN	0.000000	0.001564	0.001709	28.0827	33.0134	0.001922	17174.7	9.712792	176.776	55.5187	1.160197	0.040955	0.040578	54.0879	17174.7	0.038593	0.060443	894.862	63825
1181	2.000000	1.163117	7.37661e+06	-56539.1	1105.82	-29738.5	0.000000	0.000000	7.165778	61.3894	NaN	0.000000	0.001562	0.001709	28.0824	34.8916	0.001701	20510.2	6.911934	-2.267294	63.4272	1.162658	0.043498	0.043039	61.3894	20510.2	0.041253	0.067306	912.095	72229.8
1181	2.000000	1.165509	7.37661e+06	-56539.1	1105.82	-29738.5	0.000000	0.000000	7.168578	71.2924	NaN	0.000000	0.001594	0.001719	28.083	36.2652	0.001607	22571.3	4.974920	176.97	69.2566	1.165210	0.045890	0.045591	71.2924	22571.3	0.043521	0.073444	970.709	76094.5
1181	2.000000	1.168049	7.37661e+06	-56539.1	1105.82	-29738.5	0.000000	0.000000	7.171430	78.8731	NaN	0.000000	0.001594	0.001709	28.0825	39.123	0.001790	21851.1	2.817569	0.423066	80.0735	1.167716	0.048430	0.048097	78.8731	21851.1	0.045723	0.079653	990.207	70736.8
1181	2.000000	1.170571	7.37661e+06	-56539.1	1105.82	-29738.5	0.000000	0.000000	7.174307	87.5082	NaN	0.000000	0.001558	0.001735	28.0828	41.9795	0.001699	24714.2	3.578426	177.679	88.9918	1.170206	0.050952	0.050587	87.5082	24714.2	0.048296	0.087219	1003.31	76456.3
1181	2.000000	1.173069	7.37661e+06	-56539.1	1105.82	-29738.5	0.000000	0.000000	7.177372	101.257	NaN	0.000000	0.001591	0.001699	28.0825	43.6427	0.001782	24486.4	6.955059	-3.818150	99.8456	1.172601	0.053450	0.052982	101.257	24486.4	0.050349	0.093495	1083.02	73165.3
1181	2.000000	1.175501	7.37661e+06	-56539.1	1105.82	-29738.5	0.000000	0.000000	7.179949	104.812	NaN	0.000000	0.001590	0.001730	28.0835	46.65	0.001860	25077.4	1.808892	179.662	103.841	1.175332	0.055882	0.055713	104.812	25077.4	0.052747	0.101094	1036.78	72060
1181	2.000000	1.178028	7.37661e+06	-56539.1	1105.82	-29738.5	0.000000	0.000000	7.182839	113.629	NaN	0.000000	0.001604	0.001725	28.0827	48.6366	0.001734	28050.4	3.220219	-2.889363	113.268	1.177693	0.058409	0.058074	113.629	28050.4	0.055371	0.109733	1035.5	77364.6
1181	2.000000	1.180593	7.37661e+06	-56539.1	1105.82	-29738.5	0.000000	0.000000	7.185952	126.955	NaN	0.000000	0.001618	0.001725	28.0829	52.0033	0.001761	29529.8	3.617116	176.471	130.719	1.180245	0.060974	0.060626	126.955	29529.8	0.057749	0.117861	1077.16	78586.6
1181	2.000000	1.182997	7.37661e+06	-56539.1	1105.82	-29738.5	0.000000	0.000000	7.189166	146.639	NaN	0.000000	0.001639	0.001744	28.0825	54.1181	0.001842	29378.2	5.370191	-4.673967	142.708	1.182531	0.063378	0.062912	146.639	29378.2	0.059634	0.124500	1177.82	76070
1181	2.000000	1.185511	7.37661e+06	-56539.1	1105.82	-29738.5	0.000000	0.000000	7.191961	153.473	NaN	0.000000	0.001594	0.001695	28.0831	56.0142	0.001716	32633.8	5.651812	173.647	150.875	1.185163	0.065892	0.065544	153.473	32633.8	0.062365	0.134424	1141.71	81321
1181	2.000000	1.187929	7.37661e+06	-56539.1	1105.82	-29738.5	0.000000	0.000000	7.194866	165.286	NaN	0.000000	0.001586	0.001718	28.0826	58.4937	0.001778	32903.4	2.709134	-3.420194	160.779	1.187627	0.068310	0.068008	165.286	32903.4	0.064543	0.142600	1159.09	79607.7
1181	2.000000	1.190494	7.37661e+06	-56539.1	1105.82	-29738.5	0.000000	0.000000	7.197832	175.052	NaN	0.000000	0.001588	0.001717	28.0826	60.3435	0.001773	34029.2	-2.538799	-178.207	173.794	1.190212	0.070875	0.070593	175.052	34029.2	0.067017	0.152165	1150.41	79701.7
1181	2.000000	1.192962	7.37661e+06	-56539.1	1105.82	-29738.5	0.000000	0.000000	7.200995	191.929	NaN	0.000000	0.001584	0.001745	28.0838	62.8518	0.001781	35280.7	2.315374	-2.495026	187.901	1.192574	0.073343	0.072955	191.929	35280.7	0.069263	0.161103	1191.34	80308
1181	2.000000	1.195483	7.37661e+06	-56539.1	1105.82	-29738.5	0.000000	0.000000	7.204086	205.817	NaN	0.000000	0.001563	0.001728	28.0841	64.6047	0.001720	37555.8	4.693710	174.784	205.691	1.195087	0.075864	0.075468	205.817	37555.8	0.071753	0.171293	1201.55	82904.8
1181	2.000000	1.197905	7.37661e+06	-56539.1	1105.82	-29738.5	0.000000	0.000000	7.206782	212.445	NaN	0.000000	0.001596	0.001687	28.0836	68.1933	0.001776	38406.5	4.025497	-6.098246	206.573	1.197619	0.078286	0.078000	212.445	38406.5	0.074137	0.181325	1171.63	82404.2
1181	2.000000	1.200490	7.37661e+06	-56539.1	1105.82	-29738.5	0.000000	0.000000	7.209977	227.283	NaN	0.000000	0.001620	0.001696	28.0837	71.3629	0.001783	40034.8	2.747997	175.316	227.631	1.200200	0.080871	0.080581	227.283	40034.8	0.076613	0.192024	1183.61	83470.6
1181	2.000000	1.202909	7.37661e+06	-56539.1	1105.82	-29738.5	0.000000	0.000000	7.212960	240.986	NaN	0.000000	0.001634	0.001721	28.0838	72.5038	0.001770	40971.1	4.688799	-6.971203	234.867	1.202598	0.083290	0.082979	240.986	40971.1	0.078879	0.202069	1192.59	83272.4
1181	2.000000	1.205410	7.37661e+06	-56539.1	1105.82	-29738.5	0.000000	0.000000	7.216082	256.077	NaN	0.000000	0.001665	0.001704	28.0838	74.3542	0.001770	42006.1	4.958667	172.567	253.395	1.205205	0.085791	0.085586	256.077	42006.1	0.081219	0.212695	1203.96	83216
1181	2.000000	1.207903	7.37661e+06	-56539.1	1105.82	-29738.5	0.000000	0.000000	7.219284	273.324	NaN	0.000000	0.001689	0.001729	28.0836	76.4817	0.001739	43992.6	1.593942	-4.041423	269.381	1.207554	0.088284	0.087935	273.324	43992.6	0.083624	0.223883	1220.83	84945.7
1181	2.000000	1.210467	7.37661e+06	-56539.1	1105.82	-29738.5	0.000000	0.000000	7.222244	282.938	NaN	0.000000	0.001659	0.001753	28.0836	80.1685	0.001839	43599	2.497205	174.869	282.361	1.210115	0.090848	0.090496	282.938	43599	0.085981	0.235102	1203.47	82152.6
1181	2.000000	1.212899	7.37661e+06	-56539.1	1105.82	-29738.5	0.000000	0.000000	7.225200	295.684	NaN	0.000000	0.001635	0.001746	28.0839	82.0233	0.001872	43812.5	4.342043	-6.545942	290.486	1.212647	0.093280	0.093028	295.684	43812.5	0.088219	0.245995	1201.99	80706.3
1181	2.000000	1.215415	7.37661e+06	-56539.1	1105.82	-29738.5	0.000000	0.000000	7.228356	311.224	NaN	0.000000	0.001649	0.001745	28.0835	82.7963	0.001754	47194.7	0.404816	176.213	306.46	1.215154	0.095796	0.095535	311.224	47194.7	0.090850	0.259098	1201.18	84709.9
1181	2.000000	1.217879	7.37661e+06	-56539.1	1105.82	-29738.5	0.000000	0.000000	7.231549	328.955	NaN	0.000000	0.001686	0.001735	28.0837	85.0831	0.001767	48139.4	1.489875	-4.483122	321.694	1.217589	0.098260	0.097970	328.955	48139.4	0.093135	0.270730	1215.07	84529.2
1181	2.000000	1.220436	7.37661e+06	-56539.1	1105.82	-29738.5	0.000000	0.000000	7.234561	340.016	NaN	0.000000	0.001692	0.001735	28.0837	89.0721	0.001809	49242.4	4.780191	171.832	337.419	1.220153	0.100817	0.100534	340.016	49242.4	0.095638	0.283749	1198.3	84458.8
1181	2.000000	1.222933	7.37661e+06	-56539.1	1105.82	-29738.5	0.000000	0.000000	7.237906	360.64	NaN	0.000000	0.001677	0.001738	28.0839	90.8124	0.001817	49974	9.248972	-11.9236	355.538	1.222487	0.103314	0.102868	360.64	49974	0.097901	0.295767	1219.33	83954.1
1181	2.000000	1.225460	7.37661e+06	-56539.1	1105.82	-29738.5	0.000000	0.000000	7.241044	375.489	NaN	0.000000	0.001669	0.001715	28.0833	92.1574	0.001804	51084.4	4.115197	172.524	376.603	1.225192	0.105841	0.105573	375.489	51084.4	0.100328	0.308913	1215.52	83973.7
1181	2.000000	1.227962	7.37661e+06	-56539.1	1105.82	-29738.5	0.000000	0.000000	7.244151	390.168	NaN	0.000000	0.001607	0.001742	28.0826	95.7899	0.001812	52865.2	4.015463	-8.048772	388.286	1.227704	0.108343	0.108085	390.168	52865.2	0.102808	0.322621	1209.37	85034.9
1181	2.000000	1.230421	7.37661e+06	-56539.1	1105.82	-29738.5	0.000000	0.000000	7.247443	410.438	NaN	0.000000	0.001607	0.001752	28.0828	96.7024	0.001621	59660.5	-0.918016	176.209	408.005	1.230133	0.110802	0.110514	410.438	59660.5	0.105642	0.338629	1212.06	93669.4
1181	2.000000	1.231398	7.37661e+06	-56539.1	1105.82	-29738.5	0.000000	0.000000	7.248895	421.972	NaN	0.000000	0.001636	0.001734	28.0825	98.8758	0.001789	55254.1	5.728118	170.635	421.607	1.231125	0.111779	0.111506	421.972	55254.1	0.106052	0.340973	1237.55	86452.6