File: remote_trans/data/nanoindenter/0828-1/data/Data_2025-08-06,11h17m57s/2025-07-22_16-23-58_1_72.txt
2025-07-22, 16:23:58, 1
Index	Phase	Displacement	Time	Pos X	Pos Y	Pos Z	Rot A	Rot B	Piezo Z	Force A	Force B	Gripper	Voltage A	Voltage B	Temperature	Amplitude force	Amplitude pos	Stiffness	Phase shift	Phase excitation	Force A raw	Displacement raw	HMax	HMax raw	Real Force	Real Stiffness	Contact Depth	Area	Hardness	Reduced Mod.
[#]	[#]	[um]	[s]	[um]	[um]	[um]	[m°]	[m°]	[um]	[uN]	[uN]	[V]	[V]	[V]	[°C]	[uN]	[um]	[N/m]	[°]	[°]	[uN]	[um]	[um]	[um]	[uN]	[N/m]	[um]	[um^2]	[MPa]	[MPa]
72	1.000000	0.002694	7.36575e+06	-42239.1	955.817	-29784.1	0.000000	0.000000	6.002796	-0.005995	NaN	0.000000	0.001611	0.001688	28.1187	0.053895	0.000938	57.4609	7.354073	-162.982	0.018183	0.001367	-0.966049	-0.967375	-0.005995	57.4609	-0.965970	-7.894997E+12	7.593671E-16	NaN
72	1.000000	0.010648	7.36575e+06	-42239.1	955.819	-29784.1	0.000000	0.000000	6.010748	-0.070533	NaN	0.000000	0.001650	0.001695	28.1193	0.097267	0.000924	105.235	174.628	-168.605	0.034963	0.009343	-0.958094	-0.959399	-0.070533	105.235	-0.957591	-6.086875E+12	1.158770E-14	NaN
72	1.000000	0.018663	7.36575e+06	-42239.1	955.818	-29784.1	0.000000	0.000000	6.018763	-0.053227	NaN	0.000000	0.001631	0.001688	28.1191	0.014843	0.001809	8.204019	-64.8391	-165.542	-0.057326	0.017413	-0.950080	-0.951330	-0.053227	8.204019	-0.945214	-4.144490E+12	1.284294E-14	NaN
72	1.000000	0.026653	7.36575e+06	-42239.1	955.818	-29784.1	0.000000	0.000000	6.026756	0.016130	NaN	0.000000	0.001641	0.001690	28.1191	0.095035	0.001804	52.6804	-94.8621	-165.44	-0.014313	0.025345	-0.942090	-0.943397	0.016130	52.6804	-0.942319	-3.788138E+12	-4.258030E-15	NaN
72	1.000000	0.034634	7.36575e+06	-42239.1	955.819	-29784.1	0.000000	0.000000	6.034738	0.047782	NaN	0.000000	0.001601	0.001705	28.1201	0.098392	0.002040	48.2298	-161.417	-167.382	0.083997	0.033369	-0.934109	-0.935373	0.047782	48.2298	-0.934852	-3.003809E+12	-1.590706E-14	NaN
72	1.000000	0.042642	7.36575e+06	-42239.1	955.818	-29784.1	0.000000	0.000000	6.042743	-0.043694	NaN	0.000000	0.001642	0.001696	28.1198	0.033157	0.001945	17.0476	104.716	-165.929	-0.088739	0.041337	-0.926101	-0.927405	-0.043694	17.0476	-0.924178	-2.155847E+12	2.026774E-14	NaN
72	1.000000	0.050679	7.36575e+06	-42239.1	955.818	-29784.1	0.000000	0.000000	6.050782	-0.004010	NaN	0.000000	0.001656	0.001684	28.1206	0.096945	0.001860	52.1333	152.005	-164.745	-0.039858	0.049381	-0.918063	-0.919361	-0.004010	52.1333	-0.918006	-1.779417E+12	2.253668E-15	NaN
72	1.000000	0.058667	7.36575e+06	-42239.1	955.819	-29784.1	0.000000	0.000000	6.058769	0.000792	NaN	0.000000	0.001659	0.001679	28.1198	0.134354	0.002013	66.7499	66.3379	-166.906	0.023941	0.057351	-0.910076	-0.911391	0.000792	66.7499	-0.910085	-1.390928E+12	-5.690978E-16	NaN
72	1.000000	0.066621	7.36575e+06	-42239.1	955.817	-29784.1	0.000000	0.000000	6.066724	-0.003994	NaN	0.000000	0.001668	0.001690	28.1199	0.062436	0.002034	30.6934	39.9483	-168.762	-0.032540	0.065365	-0.902121	-0.903378	-0.003994	30.6934	-0.902024	-1.082452E+12	3.689844E-15	NaN
72	1.000000	0.074637	7.36575e+06	-42239.1	955.818	-29784.1	0.000000	0.000000	6.074741	0.027296	NaN	0.000000	0.001661	0.001671	28.1184	0.039861	0.002003	19.8995	148.014	-163.474	0.027273	0.073371	-0.894106	-0.895371	0.027296	19.8995	-0.895134	-8.736025E+11	-3.124486E-14	NaN
72	1.000000	0.082682	7.36575e+06	-42239.1	955.818	-29784.1	0.000000	0.000000	6.082783	-0.040437	NaN	0.000000	0.001650	0.001688	28.1186	0.017172	0.001896	9.054560	-129.839	-169.714	-0.030728	0.081312	-0.886060	-0.887430	-0.040437	9.054560	-0.882711	-5.934216E+11	6.814178E-14	NaN
72	1.000000	0.090689	7.36575e+06	-42239.1	955.818	-29784.1	0.000000	0.000000	6.090791	-0.036458	NaN	0.000000	0.001660	0.001675	28.1185	0.133268	0.001940	68.6903	-139.397	-169.96	0.031153	0.089416	-0.878053	-0.879326	-0.036458	68.6903	-0.877655	-5.069812E+11	7.191240E-14	NaN
72	1.000000	0.098649	7.36575e+06	-42239.1	955.818	-29784.1	0.000000	0.000000	6.098751	-0.008456	NaN	0.000000	0.001659	0.001684	28.1186	0.038168	0.001963	19.4477	13.196	-164.89	-0.031997	0.097361	-0.870093	-0.871382	-0.008456	19.4477	-0.869767	-3.965486E+11	2.132452E-14	NaN
72	1.000000	0.106648	7.36575e+06	-42239.1	955.818	-29784.1	0.000000	0.000000	6.106750	-0.026908	NaN	0.000000	0.001683	0.001658	28.1184	0.028416	0.001865	15.2361	160.835	-167.252	-0.004154	0.105363	-0.862094	-0.863379	-0.026908	15.2361	-0.860769	-2.995954E+11	8.981428E-14	NaN
72	1.000000	0.114649	7.36575e+06	-42239.1	955.818	-29784.1	0.000000	0.000000	6.114750	-0.054933	NaN	0.000000	0.001678	0.001673	28.1195	0.023480	0.002000	11.7391	101.762	-166.804	-0.006744	0.113340	-0.854093	-0.855402	-0.054933	11.7391	-0.850583	-2.180907E+11	2.518820E-13	NaN
72	1.000000	0.122666	7.36575e+06	-42239.1	955.818	-29784.1	0.000000	0.000000	6.122768	-0.019399	NaN	0.000000	0.001648	0.001661	28.1195	0.052551	0.001919	27.391	164.274	-164.768	-0.013621	0.121368	-0.846076	-0.847374	-0.019399	27.391	-0.845545	-1.863828E+11	1.040808E-13	NaN
72	1.000000	0.130665	7.36575e+06	-42239.1	955.818	-29784.1	0.000000	0.000000	6.130768	0.011343	NaN	0.000000	0.001671	0.001644	28.1195	0.103717	0.001910	54.2915	-114.476	-168.672	-0.067745	0.129380	-0.838077	-0.839362	0.011343	54.2915	-0.838234	-1.483769E+11	-7.644391E-14	NaN
72	1.000000	0.138685	7.36575e+06	-42239.1	955.818	-29784.1	0.000000	0.000000	6.138784	-0.091896	NaN	0.000000	0.001649	0.001663	28.119	0.096163	0.001985	48.4489	-102.199	-167.66	-0.045947	0.137407	-0.830057	-0.831335	-0.091896	48.4489	-0.828634	-1.099703E+11	8.356408E-13	NaN
72	1.000000	0.146715	7.36575e+06	-42239.1	955.818	-29784.1	0.000000	0.000000	6.146818	-0.002464	NaN	0.000000	0.001632	0.001635	28.1181	0.096807	0.002000	48.3963	-176.707	-164.269	0.053955	0.145350	-0.822027	-0.823392	-0.002464	48.3963	-0.821989	-8.936865E+10	2.757453E-14	NaN
72	1.000000	0.154697	7.36575e+06	-42239.1	955.818	-29784.1	0.000000	0.000000	6.154800	-0.007650	NaN	0.000000	0.001628	0.001639	28.1172	0.033648	0.002098	16.0388	68.7589	-166.25	-0.033658	0.153396	-0.814045	-0.815346	-0.007650	16.0388	-0.813687	-6.895892E+10	1.109413E-13	NaN
72	1.000000	0.162705	7.36575e+06	-42239.1	955.818	-29784.1	0.000000	0.000000	6.162809	0.035109	NaN	0.000000	0.001681	0.001652	28.1169	0.082899	0.001974	42.004	103.775	-168.161	-0.075195	0.161388	-0.806037	-0.807354	0.035109	42.004	-0.806664	-5.537412E+10	-6.340352E-13	NaN
72	1.000000	0.170698	7.36575e+06	-42239.1	955.818	-29784.1	0.000000	0.000000	6.170802	0.025692	NaN	0.000000	0.001668	0.001638	28.117	0.013153	0.001867	7.045228	-73.6991	-167.564	-0.000958	0.169330	-0.798044	-0.799412	0.025692	7.045228	-0.800779	-4.607191E+10	-5.576461E-13	NaN
72	1.000000	0.178719	7.36575e+06	-42239.1	955.818	-29784.1	0.000000	0.000000	6.178823	0.010151	NaN	0.000000	0.001656	0.001657	28.1172	0.061799	0.001997	30.9516	73.8582	-171.187	0.055144	0.177447	-0.790023	-0.791295	0.010151	30.9516	-0.790269	-3.316919E+10	-3.060433E-13	NaN
72	1.000000	0.186703	7.36575e+06	-42239.1	955.818	-29784.1	0.000000	0.000000	6.186804	-0.032890	NaN	0.000000	0.001655	0.001645	28.1173	0.068990	0.001925	35.8412	-19.3885	-163.762	-0.022757	0.185441	-0.782040	-0.783302	-0.032890	35.8412	-0.781352	-2.509556E+10	1.310594E-12	NaN
72	1.000000	0.194670	7.36575e+06	-42239.1	955.817	-29784.1	0.000000	0.000000	6.194773	0.004274	NaN	0.000000	0.001601	0.001621	28.1175	0.119606	0.001984	60.2954	21.5277	-170.061	-0.064283	0.193382	-0.774072	-0.775360	0.004274	60.2954	-0.774125	-2.001652E+10	-2.135310E-13	NaN
72	1.000000	0.202701	7.36575e+06	-42239.1	955.819	-29784.1	0.000000	0.000000	6.202806	0.061994	NaN	0.000000	0.001628	0.001636	28.1183	0.024740	0.001921	12.8814	25.132	-168.987	0.052868	0.201356	-0.766042	-0.767386	0.061994	12.8814	-0.769651	-1.740045E+10	-3.562768E-12	NaN
72	1.000000	0.210697	7.36575e+06	-42239.1	955.819	-29784.1	0.000000	0.000000	6.210799	-0.032999	NaN	0.000000	0.001629	0.001628	28.1178	0.047666	0.002048	23.2767	-105.188	-167.44	0.028045	0.209363	-0.758045	-0.759380	-0.032999	23.2767	-0.756982	-1.170134E+10	2.820121E-12	NaN
72	1.000000	0.218723	7.36575e+06	-42239.1	955.818	-29784.1	0.000000	0.000000	6.218826	-0.005214	NaN	0.000000	0.001618	0.001622	28.1175	0.042987	0.002047	20.9995	-139.522	-165.768	0.012657	0.217400	-0.750019	-0.751342	-0.005214	20.9995	-0.749833	-9.352927E+9	5.574311E-13	NaN
72	1.000000	0.226730	7.36575e+06	-42239.1	955.818	-29784.1	0.000000	0.000000	6.226831	-0.047910	NaN	0.000000	0.001654	0.001650	28.1177	0.039972	0.002099	19.0408	154.321	-165.228	-0.040510	0.225370	-0.742012	-0.743373	-0.047910	19.0408	-0.740125	-6.898588E+9	6.944850E-12	NaN
72	1.000000	0.234733	7.36575e+06	-42239.1	955.818	-29784.1	0.000000	0.000000	6.234834	-0.056388	NaN	0.000000	0.001627	0.001631	28.1171	0.087625	0.002076	42.215	147.919	-164.522	-0.080085	0.233466	-0.734009	-0.735277	-0.056388	42.215	-0.733007	-5.518077E+9	1.021882E-11	NaN
72	1.000000	0.242730	7.36575e+06	-42239.1	955.819	-29784.1	0.000000	0.000000	6.242832	-0.025798	NaN	0.000000	0.001653	0.001603	28.1169	0.027255	0.001874	14.5399	120.253	-165.514	-0.015820	0.241391	-0.726012	-0.727351	-0.025798	14.5399	-0.724681	-4.249186E+9	6.071259E-12	NaN
72	1.000000	0.250748	7.36575e+06	-42239.1	955.817	-29784.1	0.000000	0.000000	6.250850	-0.009704	NaN	0.000000	0.001624	0.001628	28.1167	0.030570	0.001997	15.3088	88.1677	-164.325	0.008921	0.249470	-0.717994	-0.719272	-0.009704	15.3088	-0.717519	-3.393376E+9	2.859770E-12	NaN
72	1.000000	0.258755	7.36575e+06	-42239.1	955.818	-29784.1	0.000000	0.000000	6.258859	0.027799	NaN	0.000000	0.001629	0.001645	28.1165	0.081084	0.002104	38.5367	-174.26	-165.32	-0.007721	0.257438	-0.709988	-0.711304	0.027799	38.5367	-0.710529	-2.724344E+9	-1.020402E-11	NaN
72	1.000000	0.266743	7.36575e+06	-42239.1	955.818	-29784.1	0.000000	0.000000	6.266844	-0.025083	NaN	0.000000	0.001635	0.001647	28.1173	0.040739	0.001948	20.9127	160.345	-164.038	0.007920	0.265403	-0.702000	-0.703339	-0.025083	20.9127	-0.701100	-2.025600E+9	1.238319E-11	NaN
72	1.000000	0.274721	7.36575e+06	-42239.1	955.817	-29784.1	0.000000	0.000000	6.274822	-0.028337	NaN	0.000000	0.001686	0.001638	28.1189	0.060424	0.001977	30.5638	148.604	-166.574	0.027983	0.273393	-0.694022	-0.695349	-0.028337	30.5638	-0.693326	-1.586241E+9	1.786396E-11	NaN
72	1.000000	0.282756	7.36575e+06	-42239.1	955.817	-29784.1	0.000000	0.000000	6.282857	-0.029378	NaN	0.000000	0.001609	0.001649	28.1194	0.085962	0.001976	43.5052	-27.5089	-165.649	-0.036458	0.281375	-0.685987	-0.687367	-0.029378	43.5052	-0.685480	-1.239195E+9	2.370740E-11	NaN
72	1.000000	0.290740	7.36575e+06	-42239.1	955.819	-29784.1	0.000000	0.000000	6.290843	0.012940	NaN	0.000000	0.001568	0.001655	28.1186	0.020183	0.001952	10.339	-116.112	-166.394	0.026906	0.289448	-0.678002	-0.679295	0.012940	10.339	-0.678941	-1.008609E+9	-1.282930E-11	NaN
72	1.000000	0.298767	7.36575e+06	-42239.1	955.818	-29784.1	0.000000	0.000000	6.298868	-0.043642	NaN	0.000000	0.001545	0.001678	28.1184	0.044533	0.001945	22.8956	-147.004	-167.206	-0.057155	0.297431	-0.669976	-0.671311	-0.043642	22.8956	-0.668546	-7.269258E+8	6.003663E-11	NaN
72	1.000000	0.306786	7.36575e+06	-42239.1	955.818	-29784.1	0.000000	0.000000	6.306886	-0.078395	NaN	0.000000	0.001555	0.001631	28.1195	0.044245	0.002019	21.9152	78.0593	-161.896	-0.139443	0.305434	-0.661956	-0.663308	-0.078395	21.9152	-0.659273	-5.426388E+8	1.444702E-10	NaN
72	1.000000	0.314748	7.36575e+06	-42239.1	955.818	-29784.1	0.000000	0.000000	6.314851	-0.006462	NaN	0.000000	0.001552	0.001657	28.1179	0.026317	0.001882	13.9865	21.5093	-166.829	0.013639	0.313493	-0.653994	-0.655249	-0.006462	13.9865	-0.653648	-4.543955E+8	1.422119E-11	NaN
72	1.000000	0.322745	7.36575e+06	-42239.1	955.818	-29784.1	0.000000	0.000000	6.322846	-0.047799	NaN	0.000000	0.001575	0.001636	28.1178	0.064091	0.001875	34.1877	132.44	-168.593	0.010065	0.321419	-0.645997	-0.647323	-0.047799	34.1877	-0.644949	-3.452838E+8	1.384336E-10	NaN
72	1.000000	0.330742	7.36575e+06	-42239.1	955.817	-29784.1	0.000000	0.000000	6.330846	0.023126	NaN	0.000000	0.001578	0.001642	28.1176	0.062387	0.001981	31.4934	-28.6479	-168.807	-0.021244	0.329432	-0.638000	-0.639311	0.023126	31.4934	-0.638551	-2.821019E+8	-8.197588E-11	NaN
72	1.000000	0.338776	7.36575e+06	-42239.1	955.819	-29784.1	0.000000	0.000000	6.338878	-0.033265	NaN	0.000000	0.001553	0.001656	28.1172	0.107660	0.001953	55.1177	10.1801	-168.82	0.021152	0.337487	-0.629966	-0.631255	-0.033265	55.1177	-0.629513	-2.120018E+8	1.569072E-10	NaN
72	1.000000	0.346771	7.36575e+06	-42239.1	955.819	-29784.1	0.000000	0.000000	6.346875	0.029189	NaN	0.000000	0.001589	0.001607	28.1177	0.016265	0.002036	7.987266	-83.7429	-163.817	-0.018674	0.345437	-0.621971	-0.623306	0.029189	7.987266	-0.624712	-1.821309E+8	-1.602652E-10	NaN
72	1.000000	0.354784	7.36575e+06	-42239.1	955.818	-29784.1	0.000000	0.000000	6.354886	-0.009093	NaN	0.000000	0.001578	0.001640	28.1189	0.117655	0.002071	56.8202	89.1572	-165.287	-0.004415	0.353530	-0.613958	-0.615212	-0.009093	56.8202	-0.613838	-1.290959E+8	7.043297E-11	NaN
72	1.000000	0.362790	7.36575e+06	-42239.1	955.818	-29784.1	0.000000	0.000000	6.362890	-0.065325	NaN	0.000000	0.001544	0.001623	28.1185	0.107826	0.002058	52.3857	93.052	-166.325	-0.072519	0.361475	-0.605952	-0.607268	-0.065325	52.3857	-0.605017	-9.762065E+7	6.691763E-10	NaN
72	1.000000	0.370777	7.36575e+06	-42239.1	955.818	-29784.1	0.000000	0.000000	6.370879	-0.027303	NaN	0.000000	0.001552	0.001652	28.1181	0.024907	0.001985	12.5497	-29.492	-167.219	-0.125520	0.369493	-0.597965	-0.599249	-0.027303	12.5497	-0.596333	-7.412325E+7	3.683492E-10	NaN
72	1.000000	0.378791	7.36575e+06	-42239.1	955.818	-29784.1	0.000000	0.000000	6.378889	-0.099539	NaN	0.000000	0.001525	0.001638	28.1184	0.099391	0.001910	52.0504	57.6213	-166.771	-0.026070	0.377534	-0.589952	-0.591208	-0.099539	52.0504	-0.588517	-5.783928E+7	1.720953E-9	NaN
72	1.000000	0.386831	7.36575e+06	-42239.1	955.817	-29784.1	0.000000	0.000000	6.386933	-0.005685	NaN	0.000000	0.001545	0.001667	28.1187	0.070920	0.002045	34.6855	-62.2953	-167.559	-0.074359	0.385509	-0.581911	-0.583233	-0.005685	34.6855	-0.581789	-4.670983E+7	1.217134E-10	NaN
72	1.000000	0.394786	7.36575e+06	-42239.1	955.818	-29784.1	0.000000	0.000000	6.394887	-0.056161	NaN	0.000000	0.001512	0.001642	28.1173	0.040321	0.002039	19.7738	-102.173	-166.302	0.008184	0.393522	-0.573956	-0.575221	-0.056161	19.7738	-0.571826	-3.402990E+7	1.650356E-9	NaN
72	1.000000	0.402789	7.36575e+06	-42239.1	955.818	-29784.1	0.000000	0.000000	6.402892	0.001154	NaN	0.000000	0.001558	0.001659	28.1173	0.033187	0.002120	15.6579	103.225	-166.076	-0.063283	0.401460	-0.565953	-0.567282	0.001154	15.6579	-0.566009	-2.827941E+7	-4.079805E-11	NaN
72	1.000000	0.410799	7.36575e+06	-42239.1	955.818	-29784.1	0.000000	0.000000	6.410897	-0.107149	NaN	0.000000	0.001566	0.001663	28.1164	0.076451	0.002055	37.2001	42.4782	-162.813	-0.032133	0.409520	-0.557944	-0.559223	-0.107149	37.2001	-0.555783	-2.041883E+7	5.247577E-9	NaN
72	1.000000	0.418801	7.36575e+06	-42239.1	955.817	-29784.1	0.000000	0.000000	6.418904	-0.000634	NaN	0.000000	0.001557	0.001684	28.116	0.132222	0.001989	66.4761	-159.161	-168.516	-0.055059	0.417462	-0.549941	-0.551280	-0.000634	66.4761	-0.549934	-1.694493E+7	3.742952E-11	NaN
72	1.000000	0.426820	7.36575e+06	-42239.1	955.819	-29784.1	0.000000	0.000000	6.426923	-0.008204	NaN	0.000000	0.001585	0.001665	28.1156	0.052561	0.001896	27.7255	17.4672	-167.429	0.088382	0.425484	-0.541922	-0.543259	-0.008204	27.7255	-0.541700	-1.302969E+7	6.296092E-10	NaN
72	1.000000	0.434786	7.36575e+06	-42239.1	955.818	-29784.1	0.000000	0.000000	6.434888	-0.009180	NaN	0.000000	0.001595	0.001702	28.1167	0.053670	0.001937	27.7114	-134.569	-164.806	0.055965	0.433546	-0.533956	-0.535196	-0.009180	27.7114	-0.533708	-1.009385E+7	9.094610E-10	NaN
72	1.000000	0.442793	7.36575e+06	-42239.1	955.817	-29784.1	0.000000	0.000000	6.442895	-0.028805	NaN	0.000000	0.001570	0.001652	28.1166	0.022357	0.001934	11.5622	-69.8983	-164.584	0.033858	0.441502	-0.525949	-0.527240	-0.028805	11.5622	-0.524081	-7.41876e+06	3.882786E-9	NaN
72	1.000000	0.450792	7.36575e+06	-42239.1	955.818	-29784.1	0.000000	0.000000	6.450895	-0.000468	NaN	0.000000	0.001619	0.001667	28.1169	0.053853	0.001982	27.1655	156.596	-170.686	-0.059861	0.449480	-0.517950	-0.519262	-0.000468	27.1655	-0.517937	-6.09405e+06	7.685602E-11	NaN
72	1.000000	0.458833	7.36575e+06	-42239.1	955.818	-29784.1	0.000000	0.000000	6.458934	-0.042168	NaN	0.000000	0.001656	0.001690	28.1165	0.094637	0.001960	48.2904	-22.7041	-164.408	0.005457	0.457488	-0.509910	-0.511254	-0.042168	48.2904	-0.509255	-4.61353e+06	9.140147E-9	NaN
72	1.000000	0.466846	7.36575e+06	-42239.1	955.817	-29784.1	0.000000	0.000000	6.466948	-0.032801	NaN	0.000000	0.001580	0.001653	28.116	0.101693	0.001950	52.1578	-152.975	-164.334	-0.113282	0.465435	-0.501896	-0.503307	-0.032801	52.1578	-0.501424	-3.5883e+06	9.141113E-9	NaN
72	1.000000	0.474828	7.36575e+06	-42239.1	955.818	-29784.1	0.000000	0.000000	6.474929	-0.025870	NaN	0.000000	0.001575	0.001686	28.116	0.024703	0.002057	12.0085	-102.415	-169.979	0.062129	0.473503	-0.493915	-0.495239	-0.025870	12.0085	-0.492299	-2.67616e+06	9.666747E-9	NaN
72	1.000000	0.482851	7.36575e+06	-42239.1	955.819	-29784.1	0.000000	0.000000	6.482952	-0.031804	NaN	0.000000	0.001575	0.001670	28.1151	0.078435	0.002129	36.8493	103.836	-167.628	-0.091632	0.481526	-0.485892	-0.487216	-0.031804	36.8493	-0.485244	-2.1326e+06	1.491329E-8	NaN
72	1.000000	0.490841	7.36575e+06	-42239.1	955.819	-29784.1	0.000000	0.000000	6.490942	-0.031873	NaN	0.000000	0.001535	0.001688	28.1149	0.092578	0.002045	45.279	-157.076	-168.841	0.035479	0.489476	-0.477901	-0.479266	-0.031873	45.279	-0.477373	-1.65482e+06	1.926073E-8	NaN
72	1.000000	0.498832	7.36575e+06	-42239.1	955.817	-29784.1	0.000000	0.000000	6.498935	-0.010121	NaN	0.000000	0.001584	0.001656	28.1155	0.153649	0.001955	78.5896	-166.246	-164.442	-0.082487	0.497540	-0.469910	-0.471202	-0.010121	78.5896	-0.469814	-1.29656e+06	7.805844E-9	NaN
72	1.000000	0.506846	7.36575e+06	-42239.1	955.817	-29784.1	0.000000	0.000000	6.506950	0.013330	NaN	0.000000	0.001548	0.001675	28.1154	0.102302	0.002087	49.0295	148.819	-165.069	-0.074469	0.505575	-0.461896	-0.463167	0.013330	49.0295	-0.462100	-1.01046e+06	-1.319186E-8	NaN
72	1.000000	0.514836	7.36575e+06	-42239.1	955.818	-29784.1	0.000000	0.000000	6.514939	0.004773	NaN	0.000000	0.001583	0.001647	28.1166	0.052036	0.001990	26.148	-26.1299	-167.641	0.039399	0.513537	-0.453906	-0.455205	0.004773	26.148	-0.454043	-778488	-6.131219E-9	NaN
72	1.000000	0.522871	7.36575e+06	-42239.1	955.819	-29784.1	0.000000	0.000000	6.522976	0.052810	NaN	0.000000	0.001571	0.001648	28.117	0.098466	0.001897	51.8937	-168.12	-165.914	0.009622	0.521536	-0.445871	-0.447207	0.052810	51.8937	-0.446634	-612253	-8.625595E-8	NaN
72	1.000000	0.530882	7.36575e+06	-42239.1	955.819	-29784.1	0.000000	0.000000	6.530983	-0.037128	NaN	0.000000	0.001591	0.001667	28.1162	0.043148	0.002066	20.8864	65.0782	-166.439	0.020128	0.529549	-0.437860	-0.439193	-0.037128	20.8864	-0.436527	-440885	8.421319E-8	NaN
72	1.000000	0.538871	7.36575e+06	-42239.1	955.818	-29784.1	0.000000	0.000000	6.538972	-0.039604	NaN	0.000000	0.001554	0.001626	28.1164	0.030401	0.002061	14.7494	129.731	-162.94	-0.041568	0.537597	-0.429871	-0.431146	-0.039604	14.7494	-0.427857	-332459	1.191249E-7	NaN
72	1.000000	0.546867	7.36575e+06	-42239.1	955.818	-29784.1	0.000000	0.000000	6.546970	-0.010460	NaN	0.000000	0.001570	0.001631	28.1174	0.051964	0.001890	27.4873	-156.585	-167.576	0.084726	0.545533	-0.421875	-0.423209	-0.010460	27.4873	-0.421590	-270991	3.859751E-8	NaN
72	1.000000	0.554863	7.36575e+06	-42239.1	955.818	-29784.1	0.000000	0.000000	6.554965	-0.033507	NaN	0.000000	0.001572	0.001628	28.1161	0.050071	0.002095	23.8997	-113.838	-164.701	-0.024383	0.553514	-0.413879	-0.415228	-0.033507	23.8997	-0.412828	-203514	1.646430E-7	NaN
72	1.000000	0.562890	7.36575e+06	-42239.1	955.818	-29784.1	0.000000	0.000000	6.562991	-0.038946	NaN	0.000000	0.001573	0.001646	28.1167	0.052556	0.001927	27.2674	-146.381	-165.115	0.036395	0.561564	-0.405852	-0.407179	-0.038946	27.2674	-0.404781	-156362	2.490749E-7	NaN
72	1.000000	0.570861	7.36575e+06	-42239.1	955.818	-29784.1	0.000000	0.000000	6.570965	0.019274	NaN	0.000000	0.001561	0.001629	28.116	0.056197	0.001937	29.0116	99.8658	-168.76	0.028482	0.569589	-0.397881	-0.399153	0.019274	29.0116	-0.398380	-126730	-1.520909E-7	NaN
72	1.000000	0.578908	7.36575e+06	-42239.1	955.818	-29784.1	0.000000	0.000000	6.579009	-0.052576	NaN	0.000000	0.001561	0.001647	28.1166	0.073415	0.002006	36.5904	-0.357515	-166.385	-0.090312	0.577572	-0.389834	-0.391170	-0.052576	36.5904	-0.388756	-92336.7	5.693975E-7	NaN
72	1.000000	0.586899	7.36575e+06	-42239.1	955.819	-29784.1	0.000000	0.000000	6.587002	0.009068	NaN	0.000000	0.001590	0.001634	28.1162	0.033333	0.002095	15.9086	83.0954	-164.477	-0.046703	0.585604	-0.381843	-0.383139	0.009068	15.9086	-0.382271	-74552.6	-1.216283E-7	NaN
72	1.000000	0.594871	7.36575e+06	-42239.1	955.818	-29784.1	0.000000	0.000000	6.594973	-0.018784	NaN	0.000000	0.001581	0.001694	28.1171	0.075136	0.001875	40.0798	-166.599	-164.874	-0.044701	0.593548	-0.373871	-0.375194	-0.018784	40.0798	-0.373519	-55818.9	3.365176E-7	NaN
72	1.000000	0.602890	7.36575e+06	-42239.1	955.817	-29784.1	0.000000	0.000000	6.602992	-0.010896	NaN	0.000000	0.001584	0.001706	28.1178	0.191952	0.002160	88.8633	-124.574	-163.694	-0.029030	0.601556	-0.365852	-0.367186	-0.010896	88.8633	-0.365760	-43154.3	2.524991E-7	NaN
72	1.000000	0.610876	7.36575e+06	-42239.1	955.818	-29784.1	0.000000	0.000000	6.610980	0.028061	NaN	0.000000	0.001584	0.001693	28.1172	0.076807	0.002111	36.3917	-104.389	-167.309	0.043003	0.609589	-0.357866	-0.359153	0.028061	36.3917	-0.358445	-33834.3	-8.293584E-7	NaN
72	1.000000	0.618869	7.36575e+06	-42239.1	955.819	-29784.1	0.000000	0.000000	6.618972	0.000275	NaN	0.000000	0.001602	0.001685	28.1167	0.136235	0.002018	67.5056	-179.592	-166.937	0.006189	0.617545	-0.349873	-0.351197	0.000275	67.5056	-0.349876	-25421.9	-1.083409E-8	NaN
72	1.000000	0.626888	7.36575e+06	-42239.1	955.817	-29784.1	0.000000	0.000000	6.626992	0.021672	NaN	0.000000	0.001596	0.001677	28.1172	0.053776	0.001936	27.7834	177.682	-168.217	0.038250	0.625581	-0.341854	-0.343161	0.021672	27.7834	-0.342439	-19819.3	-1.093490E-6	NaN
72	1.000000	0.634908	7.36575e+06	-42239.1	955.818	-29784.1	0.000000	0.000000	6.635010	-0.016404	NaN	0.000000	0.001598	0.001694	28.1157	0.069126	0.001962	35.2388	-80.0858	-164.448	-0.008251	0.633603	-0.333834	-0.335139	-0.016404	35.2388	-0.333485	-14670.6	1.118147E-6	NaN
72	1.000000	0.642881	7.36575e+06	-42239.1	955.818	-29784.1	0.000000	0.000000	6.642980	-0.075349	NaN	0.000000	0.001601	0.001687	28.1159	0.039434	0.002073	19.0188	46.8654	-168.668	0.054266	0.641619	-0.325862	-0.327124	-0.075349	19.0188	-0.322890	-10260	7.343986E-6	NaN
72	1.000000	0.650908	7.36575e+06	-42239.1	955.819	-29784.1	0.000000	0.000000	6.651011	0.003810	NaN	0.000000	0.001563	0.001678	28.116	0.090453	0.002009	45.0274	-95.6662	-171.404	-0.025204	0.649544	-0.317834	-0.319198	0.003810	45.0274	-0.317898	-8663.16	-4.397756E-7	NaN
72	1.000000	0.658907	7.36575e+06	-42239.1	955.818	-29784.1	0.000000	0.000000	6.659011	0.032238	NaN	0.000000	0.001596	0.001682	28.1152	0.029816	0.001971	15.1247	-24.0138	-163.466	-0.020593	0.657606	-0.309835	-0.311136	0.032238	15.1247	-0.311434	-6954.5	-4.635592E-6	NaN
72	1.000000	0.666913	7.36575e+06	-42239.1	955.818	-29784.1	0.000000	0.000000	6.667013	-0.053426	NaN	0.000000	0.001535	0.001671	28.1165	0.063631	0.002106	30.2118	-62.9261	-167.866	0.013767	0.665598	-0.301830	-0.303144	-0.053426	30.2118	-0.300503	-4787.72	1.115901E-5	NaN
72	1.000000	0.674948	7.36575e+06	-42239.1	955.818	-29784.1	0.000000	0.000000	6.675048	-0.074219	NaN	0.000000	0.001565	0.001681	28.1163	0.072128	0.002124	33.9647	179.565	-167.729	0.062344	0.673595	-0.293794	-0.295148	-0.074219	33.9647	-0.292156	-3593.96	2.065104E-5	NaN
72	1.000000	0.682938	7.36575e+06	-42239.1	955.818	-29784.1	0.000000	0.000000	6.683042	0.014707	NaN	0.000000	0.001561	0.001673	28.1158	0.111385	0.001998	55.7462	48.4684	-165.188	0.027120	0.681654	-0.285804	-0.287088	0.014707	55.7462	-0.286002	-2906.19	-5.060647E-6	NaN
72	1.000000	0.690924	7.36575e+06	-42239.1	955.818	-29784.1	0.000000	0.000000	6.691027	-0.002836	NaN	0.000000	0.001599	0.001676	28.1154	0.058586	0.001950	30.05	136.138	-168.723	-0.065816	0.689630	-0.277818	-0.279112	-0.002836	30.05	-0.277747	-2182.51	1.299512E-6	NaN
72	1.000000	0.698913	7.36575e+06	-42239.1	955.818	-29784.1	0.000000	0.000000	6.699018	0.041985	NaN	0.000000	0.001576	0.001693	28.1151	0.021733	0.001982	10.9624	-127.652	-165.986	0.028974	0.697582	-0.269829	-0.271161	0.041985	10.9624	-0.272701	-1830.48	-2.293685E-5	NaN
72	1.000000	0.706907	7.36575e+06	-42239.1	955.819	-29784.1	0.000000	0.000000	6.707005	-0.115393	NaN	0.000000	0.001578	0.001734	28.1152	0.093201	0.001968	47.3674	100.565	-165.26	-0.014240	0.705612	-0.261836	-0.263130	-0.115393	47.3674	-0.260009	-1172.33	9.843012E-5	NaN
72	1.000000	0.714925	7.36575e+06	-42239.1	955.818	-29784.1	0.000000	0.000000	6.715027	-0.006158	NaN	0.000000	0.001552	0.001707	28.1135	0.045982	0.002100	21.8985	-17.131	-164.985	-0.032056	0.713559	-0.253818	-0.255183	-0.006158	21.8985	-0.253607	-934.656	6.588191E-6	NaN
72	1.000000	0.722910	7.36575e+06	-42239.1	955.818	-29784.1	0.000000	0.000000	6.723011	-0.044986	NaN	0.000000	0.001570	0.001707	28.1142	0.056109	0.001841	30.4708	-133.234	-165.778	-0.068979	0.721651	-0.245833	-0.247092	-0.044986	30.4708	-0.244725	-681.054	6.605284E-5	NaN
72	1.000000	0.730923	7.36575e+06	-42239.1	955.818	-29784.1	0.000000	0.000000	6.731024	-0.052431	NaN	0.000000	0.001563	0.001681	28.1142	0.046896	0.001835	25.5595	31.1606	-167.178	-0.074002	0.729654	-0.237819	-0.239088	-0.052431	25.5595	-0.236281	-502.744	0.000104	NaN
72	1.000000	0.738918	7.36575e+06	-42239.1	955.818	-29784.1	0.000000	0.000000	6.739021	0.001704	NaN	0.000000	0.001609	0.001687	28.1135	0.025553	0.001963	13.0195	118.616	-166.594	0.024945	0.737615	-0.229824	-0.231128	0.001704	13.0195	-0.229922	-399.29	-4.266615E-6	NaN
72	1.000000	0.746946	7.36575e+06	-42239.1	955.818	-29784.1	0.000000	0.000000	6.747049	0.001853	NaN	0.000000	0.001574	0.001703	28.114	0.081590	0.001836	44.4413	167.983	-171.03	-0.067066	0.745612	-0.221796	-0.223130	0.001853	44.4413	-0.221827	-297.06	-6.239411E-6	NaN
72	1.000000	0.754948	7.36575e+06	-42239.1	955.818	-29784.1	0.000000	0.000000	6.755049	-0.052655	NaN	0.000000	0.001602	0.001654	28.1154	0.053990	0.001980	27.271	13.3076	-167.353	-0.032433	0.753617	-0.213794	-0.215125	-0.052655	27.271	-0.212346	-209.29	0.000252	NaN
72	1.000000	0.762953	7.36575e+06	-42239.1	955.818	-29784.1	0.000000	0.000000	6.763056	0.003999	NaN	0.000000	0.001554	0.001653	28.1146	0.053979	0.001937	27.8715	120.41	-169.214	-0.054217	0.761600	-0.205790	-0.207142	0.003999	27.8715	-0.205897	-164.507	-2.431033E-5	NaN
72	1.000000	0.770961	7.36575e+06	-42239.1	955.819	-29784.1	0.000000	0.000000	6.771063	-0.019463	NaN	0.000000	0.001540	0.001665	28.115	0.034129	0.001997	17.0881	143.297	-168.405	0.041592	0.769650	-0.197781	-0.199092	-0.019463	17.0881	-0.196927	-117.238	0.000166	NaN
72	1.000000	0.778981	7.36575e+06	-42239.1	955.818	-29784.1	0.000000	0.000000	6.779083	-0.026879	NaN	0.000000	0.001568	0.001661	28.1147	0.036355	0.001839	19.7738	162.11	-163.413	-0.007470	0.777611	-0.189761	-0.191131	-0.026879	19.7738	-0.188742	-85.7002	0.000314	NaN
72	1.000000	0.786967	7.36575e+06	-42239.1	955.819	-29784.1	0.000000	0.000000	6.787068	-0.024704	NaN	0.000000	0.001578	0.001682	28.1152	0.062965	0.002102	29.9482	25.6774	-168.182	0.037175	0.785694	-0.181776	-0.183048	-0.024704	29.9482	-0.181157	-63.8455	0.000387	NaN
72	1.000000	0.794970	7.36575e+06	-42239.1	955.818	-29784.1	0.000000	0.000000	6.795072	-0.027869	NaN	0.000000	0.001592	0.001685	28.1137	0.060558	0.001979	30.5928	-118.085	-166.069	0.007152	0.793649	-0.173772	-0.175093	-0.027869	30.5928	-0.173089	-46.4602	0.000600	NaN
72	1.000000	0.802955	7.36575e+06	-42239.1	955.817	-29784.1	0.000000	0.000000	6.803058	-0.009352	NaN	0.000000	0.001572	0.001674	28.1133	0.143839	0.002034	70.7246	172.857	-164.299	-0.021125	0.801676	-0.165787	-0.167067	-0.009352	70.7246	-0.165688	-34.5444	0.000271	NaN
72	1.000000	0.810972	7.36575e+06	-42239.1	955.818	-29784.1	0.000000	0.000000	6.811076	0.038501	NaN	0.000000	0.001547	0.001679	28.1139	0.109796	0.002049	53.5871	-53.8966	-164.018	-0.083572	0.809694	-0.157770	-0.159048	0.038501	53.5871	-0.158309	-25.5785	-0.001505	NaN
72	1.000000	0.819005	7.36575e+06	-42239.1	955.818	-29784.1	0.000000	0.000000	6.819107	-0.022401	NaN	0.000000	0.001571	0.001704	28.1142	0.008627	0.002042	4.224912	-17.327	-167.368	-0.074181	0.817688	-0.149738	-0.151054	-0.022401	4.224912	-0.145761	-15.1436	0.001479	NaN
72	1.000000	0.826967	7.36575e+06	-42239.1	955.818	-29784.1	0.000000	0.000000	6.827072	0.055910	NaN	0.000000	0.001643	0.001705	28.1143	0.037283	0.001993	18.7047	-168.922	-165.113	-0.070993	0.825675	-0.141775	-0.143067	0.055910	18.7047	-0.144017	-14.0592	-0.003977	NaN
72	1.000000	0.834998	7.36575e+06	-42239.1	955.817	-29784.1	0.000000	0.000000	6.835099	-0.028460	NaN	0.000000	0.001619	0.001728	28.1155	0.028937	0.002026	14.2829	80.5874	-164.061	-0.021626	0.833665	-0.133745	-0.135078	-0.028460	14.2829	-0.132250	-8.424597	0.003378	NaN
72	1.000000	0.842987	7.36575e+06	-42239.1	955.818	-29784.1	0.000000	0.000000	6.843088	-0.048009	NaN	0.000000	0.001614	0.001695	28.1155	0.146202	0.002039	71.7143	107.906	-166.819	-0.025518	0.841671	-0.125756	-0.127072	-0.048009	71.7143	-0.125253	-6.151860	0.007804	NaN
72	1.000000	0.850981	7.36575e+06	-42239.1	955.818	-29784.1	0.000000	0.000000	6.851084	0.005251	NaN	0.000000	0.001630	0.001694	28.1153	0.016511	0.001735	9.518092	110.023	-165.467	0.031089	0.849666	-0.117761	-0.119077	0.005251	9.518092	-0.118175	-4.437189	-0.001183	NaN
72	1.000000	0.858963	7.36575e+06	-42239.1	955.818	-29784.1	0.000000	0.000000	6.859063	-0.049068	NaN	0.000000	0.001643	0.001702	28.1155	0.020640	0.001902	10.8509	151.71	-168.14	0.015687	0.857699	-0.109780	-0.111043	-0.049068	10.8509	-0.106388	-2.517999	0.019487	NaN
72	1.000000	0.867011	7.36575e+06	-42239.1	955.82	-29784.1	0.000000	0.000000	6.867113	-0.016860	NaN	0.000000	0.001680	0.001695	28.1157	0.075501	0.001872	40.3322	-24.3984	-163.07	0.060172	0.865686	-0.101731	-0.103056	-0.016860	40.3322	-0.101418	-1.963747	0.008586	NaN
72	1.000000	0.874972	7.36575e+06	-42239.1	955.818	-29784.1	0.000000	0.000000	6.875076	0.025966	NaN	0.000000	0.001663	0.001672	28.1141	0.025417	0.002110	12.0437	51.7173	-162.857	0.039164	0.873654	-0.093770	-0.095088	0.025966	12.0437	-0.095387	-1.439566	-0.018037	NaN
72	1.000000	0.882984	7.36575e+06	-42239.1	955.818	-29784.1	0.000000	0.000000	6.883087	-0.006716	NaN	0.000000	0.001646	0.001676	28.1136	0.036889	0.001959	18.829	107.131	-165.182	-0.124529	0.881699	-0.085758	-0.087044	-0.006716	18.829	-0.085491	-0.844378	0.007953	NaN
72	1.000000	0.890991	7.36575e+06	-42239.1	955.817	-29784.1	0.000000	0.000000	6.891093	-0.027201	NaN	0.000000	0.001642	0.001670	28.1144	0.060595	0.001910	31.7288	150.062	-163.216	0.058204	0.889727	-0.077751	-0.079016	-0.027201	31.7288	-0.077108	-0.523196	0.051990	NaN
72	1.000000	0.899001	7.36575e+06	-42239.1	955.818	-29784.1	0.000000	0.000000	6.899105	0.034160	NaN	0.000000	0.001664	0.001710	28.1143	0.068653	0.002020	33.9783	115.28	-164.682	-0.062688	0.897703	-0.069741	-0.071039	0.034160	33.9783	-0.070495	-0.351675	-0.097135	NaN
72	1.000000	0.906993	7.36575e+06	-42239.1	955.819	-29784.1	0.000000	0.000000	6.907092	-0.078515	NaN	0.000000	0.001651	0.001726	28.1141	0.093103	0.001859	50.0739	66.2161	-164.717	-0.033366	0.905697	-0.061749	-0.063045	-0.078515	50.0739	-0.060573	-0.187032	0.419794	NaN
72	1.000000	0.914991	7.36575e+06	-42239.1	955.818	-29784.1	0.000000	0.000000	6.915093	-0.034111	NaN	0.000000	0.001673	0.001650	28.1159	0.115867	0.002035	56.9285	-112.803	-166.66	-0.076397	0.913748	-0.053751	-0.054994	-0.034111	56.9285	-0.053302	-0.114662	0.297492	NaN
72	1.000000	0.923040	7.36575e+06	-42239.1	955.817	-29784.1	0.000000	0.000000	6.923144	0.030432	NaN	0.000000	0.001669	0.001666	28.1155	0.078530	0.001964	39.9948	-57.7456	-162.707	-0.006475	0.921671	-0.045703	-0.047072	0.030432	39.9948	-0.046273	-0.070293	-0.432929	NaN
72	1.000000	0.931013	7.36575e+06	-42239.1	955.817	-29784.1	0.000000	0.000000	6.931113	-0.064322	NaN	0.000000	0.001673	0.001705	28.1153	0.159438	0.002035	78.3598	-60.5889	-166.201	-0.032471	0.929740	-0.037730	-0.039003	-0.064322	78.3598	-0.037114	-0.037006	1.738137	NaN
72	1.000000	0.939011	7.36575e+06	-42239.1	955.818	-29784.1	0.000000	0.000000	6.939112	-0.043525	NaN	0.000000	0.001690	0.001644	28.1151	0.092429	0.002013	45.9211	-93.2407	-167.28	-0.067134	0.937788	-0.029732	-0.030955	-0.043525	45.9211	-0.029021	-0.021620	2.013158	NaN
72	1.000000	0.947051	7.36575e+06	-42239.1	955.819	-29784.1	0.000000	0.000000	6.947152	-0.030011	NaN	0.000000	0.001638	0.001667	28.115	0.040921	0.001882	21.7451	148.704	-163.989	0.020003	0.945732	-0.021692	-0.023010	-0.030011	21.7451	-0.020657	-0.013053	2.299156	NaN
72	1.000000	0.955015	7.36575e+06	-42239.1	955.818	-29784.1	0.000000	0.000000	6.955119	0.044589	NaN	0.000000	0.001567	0.001658	28.1139	0.092359	0.002052	45.0182	19.6427	-165.46	-0.010680	0.953701	-0.013728	-0.015041	0.044589	45.0182	-0.014470	-0.008960	-4.976396	NaN
72	1.000000	0.963024	7.36575e+06	-42239.1	955.818	-29784.1	0.000000	0.000000	6.963126	-0.031957	NaN	0.000000	0.001578	0.001668	28.1132	0.045140	0.001869	24.1507	83.919	-166.677	0.019045	0.961731	-0.005718	-0.007012	-0.031957	24.1507	-0.004726	-0.003244	9.852106	NaN
72	1.000000	0.971021	7.36575e+06	-42239.1	955.818	-29784.1	0.000000	0.000000	6.971151	0.657201	NaN	0.000000	0.001603	0.001692	28.1129	1.292699	0.001877	688.525	5.865371	-166.844	0.070825	0.969720	0.002279	0.000977	0.657201	688.525	0.001563	0.001205	545.573	18124.7
72	2.000000	0.978513	7.36575e+06	-42239.1	955.818	-29784.1	0.000000	0.000000	6.978938	7.826166	NaN	0.000000	0.001582	0.001642	28.1131	7.936104	0.001625	4883.83	11.6758	-173.906	7.506011	0.977715	0.009771	0.008973	7.826166	4883.83	0.008569	0.007634	1025.15	51068.6
72	2.000000	0.980734	7.36575e+06	-42239.1	955.818	-29784.1	0.000000	0.000000	6.981231	9.602828	NaN	0.000000	0.001594	0.001669	28.1128	10.1444	0.001732	5857.82	10.7121	-173.379	10.0873	0.980377	0.011991	0.011634	9.602828	5857.82	0.010762	0.010040	956.414	53411.2
72	2.000000	0.982624	7.36575e+06	-42239.1	955.818	-29784.1	0.000000	0.000000	6.983237	12.3956	NaN	0.000000	0.001576	0.001691	28.114	11.488	0.001725	6658.55	2.791353	-168.147	11.6315	0.982304	0.013882	0.013562	12.3956	6658.55	0.012486	0.012077	1026.36	55356.7
72	2.000000	0.984656	7.36575e+06	-42239.1	955.817	-29784.1	0.000000	0.000000	6.985292	12.9661	NaN	0.000000	0.001554	0.001660	28.1139	13.5681	0.001737	7810.6	11.2054	-177.728	13.4533	0.984367	0.015914	0.015625	12.9661	7810.6	0.014669	0.014846	873.358	58566.5
72	2.000000	0.986615	7.36575e+06	-42239.1	955.818	-29784.1	0.000000	0.000000	6.987401	16.6191	NaN	0.000000	0.001606	0.001663	28.1139	15.5289	0.001718	9037.04	4.539068	-172.775	15.579	0.986243	0.017873	0.017501	16.6191	9037.04	0.016494	0.017329	959.021	62720.5
72	2.000000	0.988605	7.36575e+06	-42239.1	955.818	-29784.1	0.000000	0.000000	6.989521	19.7888	NaN	0.000000	0.001593	0.001646	28.1143	18.0366	0.001815	9937.02	5.182396	-173.14	19.9301	0.988344	0.019862	0.019601	19.7888	9937.02	0.018369	0.020044	987.284	64126.9
72	2.000000	0.990659	7.36575e+06	-42239.1	955.818	-29784.1	0.000000	0.000000	6.991810	25.4966	NaN	0.000000	0.001595	0.001663	28.1138	20.2353	0.001768	11446.1	9.223337	-179.049	25.4767	0.990287	0.021917	0.021545	25.4966	11446.1	0.020246	0.022931	1111.9	69059.1
72	2.000000	0.992570	7.36575e+06	-42239.1	955.818	-29784.1	0.000000	0.000000	6.993968	31.5066	NaN	0.000000	0.001639	0.001672	28.1135	22.2537	0.001776	12528.9	7.608551	-177.513	30.2092	0.992213	0.023828	0.023471	31.5066	12528.9	0.021942	0.025686	1226.6	71422.8
72	2.000000	0.994585	7.36575e+06	-42239.1	955.818	-29784.1	0.000000	0.000000	6.996030	32.6405	NaN	0.000000	0.001647	0.001704	28.1126	24.4744	0.001725	14188	6.436446	-179.569	31.6367	0.994290	0.025843	0.025547	32.6405	14188	0.024118	0.029430	1109.09	75561.3
72	2.000000	0.996568	7.36575e+06	-42239.1	955.818	-29784.1	0.000000	0.000000	6.998402	42.106	NaN	0.000000	0.001630	0.001670	28.1123	26.1818	0.001783	14687.4	5.553711	-178.166	40.9213	0.996210	0.027826	0.027468	42.106	14687.4	0.025676	0.032257	1305.34	74715.2
72	2.000000	0.998575	7.36575e+06	-42239.1	955.818	-29784.1	0.000000	0.000000	7.000528	44.9969	NaN	0.000000	0.001679	0.001691	28.113	28.3248	0.001742	16257.7	6.233487	179.846	44.4142	0.998251	0.029833	0.029509	44.9969	16257.7	0.027757	0.036223	1242.2	78043.6
72	2.000000	1.000573	7.36575e+06	-42239.1	955.818	-29784.1	0.000000	0.000000	7.002891	53.8896	NaN	0.000000	0.001636	0.001663	28.1113	29.4497	0.001698	17348.1	3.200517	-177.507	51.9618	1.000252	0.031831	0.031509	53.8896	17348.1	0.029501	0.039716	1356.87	79532
72	2.000000	1.002538	7.36575e+06	-42239.1	955.817	-29784.1	0.000000	0.000000	7.005003	57.4755	NaN	0.000000	0.001621	0.001591	28.1138	31.4027	0.001761	17827.4	4.127237	-178.221	55.9064	1.002258	0.033796	0.033515	57.4755	17827.4	0.031378	0.043648	1316.8	77961.3
72	2.000000	1.004543	7.36575e+06	-42239.1	955.819	-29784.1	0.000000	0.000000	7.007192	61.9572	NaN	0.000000	0.001643	0.001631	28.1133	33.6894	0.001670	20167.8	5.443219	178.603	60.6017	1.004232	0.035801	0.035490	61.9572	20167.8	0.033497	0.048304	1282.66	83838.2
72	2.000000	1.006586	7.36575e+06	-42239.1	955.817	-29784.1	0.000000	0.000000	7.009619	71.3104	NaN	0.000000	0.001629	0.001654	28.1147	35.0903	0.001664	21092.5	6.624745	178.407	71.7129	1.006252	0.037843	0.037510	71.3104	21092.5	0.035308	0.052465	1359.2	84133.1
72	2.000000	1.008551	7.36575e+06	-42239.1	955.818	-29784.1	0.000000	0.000000	7.011709	74.3344	NaN	0.000000	0.001644	0.001624	28.1149	38.003	0.001847	20573.3	7.039920	177.729	74.6542	1.008239	0.039809	0.039496	74.3344	20573.3	0.037099	0.056746	1309.95	78906
72	2.000000	1.010522	7.36575e+06	-42239.1	955.817	-29784.1	0.000000	0.000000	7.013992	81.9308	NaN	0.000000	0.001641	0.001672	28.1147	39.4947	0.001748	22588.8	3.223986	-178.329	79.7116	1.010198	0.041780	0.041456	81.9308	22588.8	0.039060	0.061621	1329.6	83138.7
72	2.000000	1.012496	7.36575e+06	-42239.1	955.818	-29784.1	0.000000	0.000000	7.016215	88.0058	NaN	0.000000	0.001599	0.001670	28.1134	40.8578	0.001709	23903	0.846251	-178.298	83.9839	1.012215	0.043753	0.043473	88.0058	23903	0.040992	0.066617	1321.06	84612
72	2.000000	1.014475	7.36575e+06	-42239.1	955.819	-29784.1	0.000000	0.000000	7.018415	93.3603	NaN	0.000000	0.001623	0.001665	28.1136	43.9273	0.001778	24706.7	5.000138	177.833	89.6989	1.014221	0.045732	0.045479	93.3603	24706.7	0.042898	0.071733	1301.49	84280.6
72	2.000000	1.016560	7.36575e+06	-42239.1	955.818	-29784.1	0.000000	0.000000	7.020737	99.1369	NaN	0.000000	0.001628	0.001633	28.1142	45.282	0.001939	23353	7.529973	176.072	99.2662	1.016200	0.047817	0.047458	99.1369	23353	0.044633	0.076550	1295.06	77115.8
72	2.000000	1.018538	7.36575e+06	-42239.1	955.817	-29784.1	0.000000	0.000000	7.023132	109.265	NaN	0.000000	0.001633	0.001629	28.1128	47.953	0.001819	26357.4	6.736273	176.323	109.527	1.018146	0.049796	0.049404	109.265	26357.4	0.046687	0.082447	1325.27	83866.2
72	2.000000	1.020570	7.36575e+06	-42239.1	955.817	-29784.1	0.000000	0.000000	7.025338	113.498	NaN	0.000000	0.001607	0.001644	28.1132	49.674	0.001828	27178.9	3.730477	177.432	111.316	1.020338	0.051828	0.051596	113.498	27178.9	0.048696	0.088425	1283.56	83506.2
72	2.000000	1.022461	7.36575e+06	-42239.1	955.818	-29784.1	0.000000	0.000000	7.027745	126.08	NaN	0.000000	0.001635	0.001643	28.1146	50.5221	0.001720	29369.6	3.137980	178.866	123.664	1.022160	0.053719	0.053418	126.08	29369.6	0.050499	0.093962	1341.83	87537.9
72	2.000000	1.024554	7.36575e+06	-42239.1	955.818	-29784.1	0.000000	0.000000	7.030249	136.072	NaN	0.000000	0.001586	0.001646	28.1147	52.9954	0.001912	27718	7.760163	175.941	137.643	1.024143	0.055812	0.055401	136.072	27718	0.052130	0.099110	1372.95	80441
72	2.000000	1.026534	7.36575e+06	-42239.1	955.817	-29784.1	0.000000	0.000000	7.032373	139.584	NaN	0.000000	0.001607	0.001609	28.1143	54.3253	0.001804	30113.1	4.842403	177.115	139.952	1.026183	0.057791	0.057441	139.584	30113.1	0.054315	0.106215	1314.16	84418.2
72	2.000000	1.028542	7.36575e+06	-42239.1	955.817	-29784.1	0.000000	0.000000	7.034657	146.283	NaN	0.000000	0.001560	0.001659	28.1139	56.5393	0.001823	31013.9	5.818125	174.864	145.803	1.028225	0.059799	0.059483	146.283	31013.9	0.056262	0.112746	1297.46	84387.8
72	2.000000	1.030562	7.36575e+06	-42239.1	955.817	-29784.1	0.000000	0.000000	7.037222	159.536	NaN	0.000000	0.001585	0.001632	28.1144	56.7529	0.001659	34218.3	1.955664	179.176	159.479	1.030189	0.061820	0.061447	159.536	34218.3	0.058323	0.119863	1330.98	90300.1
72	2.000000	1.032511	7.36575e+06	-42239.1	955.818	-29784.1	0.000000	0.000000	7.039411	165.391	NaN	0.000000	0.001558	0.001598	28.1132	59.1942	0.001875	31575.5	3.776646	177.663	164.446	1.032213	0.063769	0.063470	165.391	31575.5	0.059840	0.125236	1320.63	81518.8
72	2.000000	1.034530	7.36575e+06	-42239.1	955.818	-29784.1	0.000000	0.000000	7.041947	177.964	NaN	0.000000	0.001595	0.001637	28.1131	60.393	0.001762	34271.4	5.789167	174.864	178.269	1.034155	0.065787	0.065413	177.964	34271.4	0.061893	0.132683	1341.27	85960.3
72	2.000000	1.036497	7.36575e+06	-42239.1	955.817	-29784.1	0.000000	0.000000	7.044358	188.758	NaN	0.000000	0.001546	0.001665	28.1133	61.7187	0.001851	33337.3	5.730572	175.782	187.48	1.036177	0.067755	0.067434	188.758	33337.3	0.063509	0.138690	1361.01	81786.4
72	2.000000	1.038454	7.36575e+06	-42239.1	955.817	-29784.1	0.000000	0.000000	7.046771	199.86	NaN	0.000000	0.001582	0.001672	28.113	65.1869	0.001679	38827.8	6.630686	172.442	196.505	1.038194	0.069712	0.069451	199.86	38827.8	0.065851	0.147621	1353.87	92329.7
72	2.000000	1.040564	7.36575e+06	-42239.1	955.818	-29784.1	0.000000	0.000000	7.049260	209.087	NaN	0.000000	0.001571	0.001657	28.1123	67.2438	0.001853	36280.6	5.052291	174.877	209.612	1.040223	0.071822	0.071481	209.087	36280.6	0.067500	0.154066	1357.13	84449
72	2.000000	1.042472	7.36575e+06	-42239.1	955.818	-29784.1	0.000000	0.000000	7.051473	216.514	NaN	0.000000	0.001565	0.001661	28.1124	68.6877	0.001797	38226.5	4.572823	174.767	211.859	1.042207	0.073729	0.073464	216.514	38226.5	0.069481	0.161985	1336.63	86776.3
72	2.000000	1.044485	7.36575e+06	-42239.1	955.817	-29784.1	0.000000	0.000000	7.053994	228.879	NaN	0.000000	0.001547	0.001651	28.1122	70.8011	0.001785	39661	1.263464	177.378	226.549	1.044291	0.075742	0.075549	228.879	39661	0.071414	0.169889	1347.23	87913.4
72	2.000000	1.046452	7.36575e+06	-42239.1	955.817	-29784.1	0.000000	0.000000	7.056665	245.994	NaN	0.000000	0.001563	0.001677	28.1125	71.6112	0.001768	40510.7	1.410582	177.85	243.616	1.046232	0.077710	0.077489	245.994	40510.7	0.073155	0.177160	1388.54	87934.5
72	2.000000	1.048501	7.36575e+06	-42239.1	955.818	-29784.1	0.000000	0.000000	7.059257	259.223	NaN	0.000000	0.001598	0.001690	28.1126	74.4133	0.001752	42471.4	3.249333	175.755	257.564	1.048095	0.079758	0.079352	259.223	42471.4	0.075181	0.185799	1395.18	90021.8
72	2.000000	1.050515	7.36575e+06	-42239.1	955.818	-29784.1	0.000000	0.000000	7.061606	267.349	NaN	0.000000	0.001567	0.001690	28.1121	77.2773	0.001895	40776.4	4.427638	175.567	265.505	1.050140	0.081773	0.081398	267.349	40776.4	0.076855	0.193087	1384.6	84782.4
72	2.000000	1.052510	7.36575e+06	-42239.1	955.818	-29784.1	0.000000	0.000000	7.064258	283.339	NaN	0.000000	0.001560	0.001628	28.112	77.7539	0.001748	44487.6	3.007112	175.511	282.493	1.052128	0.083768	0.083386	283.339	44487.6	0.078991	0.202575	1398.69	90306.5
72	2.000000	1.054529	7.36575e+06	-42239.1	955.817	-29784.1	0.000000	0.000000	7.066568	290.413	NaN	0.000000	0.001560	0.001655	28.1115	81.5893	0.001801	45294.3	6.079304	172.07	291.168	1.054296	0.085787	0.085553	290.413	45294.3	0.080978	0.211590	1372.53	89964.2
72	2.000000	1.056511	7.36575e+06	-42239.1	955.817	-29784.1	0.000000	0.000000	7.069128	304.469	NaN	0.000000	0.001564	0.001660	28.1115	82.2846	0.001767	46565.7	5.486582	172.558	304.817	1.056202	0.087769	0.087460	304.469	46565.7	0.082865	0.220323	1381.92	90637.9
72	2.000000	1.058466	7.36575e+06	-42239.1	955.818	-29784.1	0.000000	0.000000	7.071719	319.969	NaN	0.000000	0.001566	0.001651	28.1115	84.3273	0.001785	47243.1	4.008596	174.16	318.007	1.058133	0.089723	0.089390	319.969	47243.1	0.084644	0.228705	1399.04	90255.4
72	2.000000	1.060594	7.36575e+06	-42239.1	955.818	-29784.1	0.000000	0.000000	7.074228	329.236	NaN	0.000000	0.001546	0.001639	28.1112	86.8138	0.001772	48997.3	6.424348	172.117	334.385	1.060151	0.091852	0.091409	329.236	48997.3	0.086812	0.239121	1376.86	91545.5
72	2.000000	1.062498	7.36575e+06	-42239.1	955.817	-29784.1	0.000000	0.000000	7.077034	351.178	NaN	0.000000	0.001584	0.001638	28.1119	88.0951	0.001835	48002.2	4.909821	173.39	352.468	1.062194	0.093756	0.093452	351.178	48002.2	0.088269	0.246241	1426.16	88380.2
72	2.000000	1.064482	7.36575e+06	-42239.1	955.817	-29784.1	0.000000	0.000000	7.079165	354.735	NaN	0.000000	0.001563	0.001614	28.1124	89.364	0.001774	50374.1	0.554463	176.459	352.852	1.064330	0.095740	0.095588	354.735	50374.1	0.090459	0.257127	1379.61	90762.6
72	2.000000	1.066427	7.36575e+06	-42239.1	955.817	-29784.1	0.000000	0.000000	7.081762	370.609	NaN	0.000000	0.001595	0.001617	28.1123	90.5091	0.001807	50087.8	4.971748	172.256	366.699	1.066211	0.097685	0.097468	370.609	50087.8	0.092135	0.265612	1395.3	88793.5
72	2.000000	1.068474	7.36575e+06	-42239.1	955.817	-29784.1	0.000000	0.000000	7.084861	396.215	NaN	0.000000	0.001565	0.001617	28.1123	92.0578	0.001633	56379.3	6.156785	170.927	394.485	1.068052	0.099732	0.099310	396.215	56379.3	0.094461	0.277594	1427.32	97765.9
72	2.000000	1.070507	7.36575e+06	-42239.1	955.818	-29784.1	0.000000	0.000000	7.087449	409.72	NaN	0.000000	0.001612	0.001630	28.1123	94.818	0.001777	53358.4	3.676658	174.087	406.923	1.070204	0.101765	0.101461	409.72	53358.4	0.096006	0.285686	1434.16	91207.7
72	2.000000	1.072522	7.36575e+06	-42239.1	955.817	-29784.1	0.000000	0.000000	7.089779	417.382	NaN	0.000000	0.001584	0.001658	28.1107	97.3349	0.001852	52554.3	5.602029	171.881	418.396	1.072100	0.103780	0.103358	417.382	52554.3	0.097824	0.295351	1413.17	88351.2
72	2.000000	1.074516	7.36575e+06	-42239.1	955.817	-29784.1	0.000000	0.000000	7.092154	426.64	NaN	0.000000	0.001610	0.001651	28.1119	98.8887	0.001723	57379.6	2.929286	173.342	426.381	1.074318	0.105774	0.105576	426.64	57379.6	0.100197	0.308196	1384.31	94431.4
72	2.000000	1.076526	7.36575e+06	-42239.1	955.816	-29784.1	0.000000	0.000000	7.095272	453.619	NaN	0.000000	0.001603	0.001643	28.112	100.493	0.001832	54853.9	8.395094	169.237	454.21	1.075992	0.107784	0.107250	453.619	54853.9	0.101582	0.315807	1436.38	89180.5
72	2.000000	1.077039	7.36575e+06	-42239.1	955.816	-29784.1	0.000000	0.000000	7.095617	449.532	NaN	0.000000	0.001589	0.001610	28.1273	101.841	0.001801	56543.5	6.905609	-10.2764	450.502	1.076798	0.108297	0.108056	449.532	56543.5	0.102334	0.319978	1404.88	91326.3