File: remote_trans/data/nanoindenter/0828-1/data/Data_2025-08-06,11h17m57s/2025-07-22_16-23-58_1_1163.txt
2025-07-22, 16:23:58, 1
Index	Phase	Displacement	Time	Pos X	Pos Y	Pos Z	Rot A	Rot B	Piezo Z	Force A	Force B	Gripper	Voltage A	Voltage B	Temperature	Amplitude force	Amplitude pos	Stiffness	Phase shift	Phase excitation	Force A raw	Displacement raw	HMax	HMax raw	Real Force	Real Stiffness	Contact Depth	Area	Hardness	Reduced Mod.
[#]	[#]	[um]	[s]	[um]	[um]	[um]	[m°]	[m°]	[um]	[uN]	[uN]	[V]	[V]	[V]	[°C]	[uN]	[um]	[N/m]	[°]	[°]	[uN]	[um]	[um]	[um]	[uN]	[N/m]	[um]	[um^2]	[MPa]	[MPa]
1163	1.000000	0.002727	7.37643e+06	-57439.1	1105.82	-29736.8	0.000000	0.000000	6.002798	0.020499	NaN	0.000000	0.001590	0.001645	28.0822	0.109539	0.001023	107.123	163.579	-160.614	0.031983	0.001499	-1.033027	-1.034256	0.020499	107.123	-1.033171	-6.340575E+13	-3.233024E-16	NaN
1163	1.000000	0.010707	7.37643e+06	-57439.1	1105.82	-29736.8	0.000000	0.000000	6.010778	0.037524	NaN	0.000000	0.001605	0.001652	28.0827	0.113541	0.000958	118.532	-161.179	-162.877	0.055912	0.009350	-1.025047	-1.026405	0.037524	118.532	-1.025285	-4.966536E+13	-7.555454E-16	NaN
1163	1.000000	0.018678	7.37643e+06	-57439.1	1105.82	-29736.8	0.000000	0.000000	6.018749	0.026630	NaN	0.000000	0.001631	0.001660	28.0824	0.059171	0.001638	36.128	-108.759	-167.817	0.034774	0.017412	-1.017077	-1.018343	0.026630	36.128	-1.017629	-3.917908E+13	-6.797066E-16	NaN
1163	1.000000	0.026722	7.37643e+06	-57439.1	1105.82	-29736.8	0.000000	0.000000	6.026793	0.039487	NaN	0.000000	0.001613	0.001657	28.0822	0.115318	0.001958	58.9053	-137.746	-164.02	0.043279	0.025390	-1.009033	-1.010364	0.039487	58.9053	-1.009536	-3.048826E+13	-1.295150E-15	NaN
1163	1.000000	0.034687	7.37643e+06	-57439.1	1105.82	-29736.8	0.000000	0.000000	6.034756	0.004855	NaN	0.000000	0.001556	0.001669	28.0822	0.138781	0.001948	71.2515	100.215	-166.962	-0.007067	0.033347	-1.001068	-1.002408	0.004855	71.2515	-1.001119	-2.348735E+13	-2.066933E-16	NaN
1163	1.000000	0.042663	7.37643e+06	-57439.1	1105.82	-29736.8	0.000000	0.000000	6.042732	0.012037	NaN	0.000000	0.001599	0.001673	28.0826	0.117269	0.002142	54.7459	178.641	-163.615	-0.025285	0.041331	-0.993092	-0.994423	0.012037	54.7459	-0.993257	-1.840671E+13	-6.539406E-16	NaN
1163	1.000000	0.050669	7.37643e+06	-57439.1	1105.82	-29736.8	0.000000	0.000000	6.050738	0.002186	NaN	0.000000	0.001584	0.001658	28.0823	0.047030	0.001933	24.3314	172.582	-167.317	0.004879	0.049398	-0.985086	-0.986357	0.002186	24.3314	-0.985154	-1.431645E+13	-1.526617E-16	NaN
1163	1.000000	0.058665	7.37643e+06	-57439.1	1105.82	-29736.8	0.000000	0.000000	6.058736	0.034685	NaN	0.000000	0.001586	0.001664	28.0822	0.141165	0.002002	70.5184	10.4602	-165.908	0.013089	0.057369	-0.977090	-0.978386	0.034685	70.5184	-0.977459	-1.127639E+13	-3.075884E-15	NaN
1163	1.000000	0.066668	7.37643e+06	-57439.1	1105.82	-29736.8	0.000000	0.000000	6.066735	-0.050820	NaN	0.000000	0.001580	0.001679	28.0821	0.131771	0.001996	66.0305	-15.808	-165.825	0.021331	0.065374	-0.969087	-0.970381	-0.050820	66.0305	-0.968509	-8.542300E+12	5.949199E-15	NaN
1163	1.000000	0.074651	7.37643e+06	-57439.1	1105.82	-29736.8	0.000000	0.000000	6.074720	0.001557	NaN	0.000000	0.001581	0.001656	28.0823	0.065175	0.002100	31.0286	-17.47	-166.129	-0.022002	0.073355	-0.961104	-0.962399	0.001557	31.0286	-0.961141	-6.796056E+12	-2.291593E-16	NaN
1163	1.000000	0.082694	7.37643e+06	-57439.1	1105.82	-29736.8	0.000000	0.000000	6.082764	0.013388	NaN	0.000000	0.001605	0.001666	28.0826	0.066282	0.001942	34.1272	-167.335	-167.888	0.009402	0.081395	-0.953061	-0.954360	0.013388	34.1272	-0.953355	-5.336678E+12	-2.508695E-15	NaN
1163	1.000000	0.090712	7.37643e+06	-57439.1	1105.82	-29736.8	0.000000	0.000000	6.090779	-0.053490	NaN	0.000000	0.001618	0.001664	28.0822	0.060097	0.001983	30.3023	155.845	-168.676	-0.048492	0.089446	-0.945042	-0.946309	-0.053490	30.3023	-0.943719	-3.956421E+12	1.351989E-14	NaN
1163	1.000000	0.098708	7.37643e+06	-57439.1	1105.82	-29736.8	0.000000	0.000000	6.098776	-0.022580	NaN	0.000000	0.001604	0.001702	28.082	0.091656	0.001939	47.272	-94.1516	-164.373	0.013656	0.097368	-0.937047	-0.938387	-0.022580	47.272	-0.936689	-3.180225E+12	7.100177E-15	NaN
1163	1.000000	0.106700	7.37643e+06	-57439.1	1105.82	-29736.8	0.000000	0.000000	6.106770	0.020086	NaN	0.000000	0.001609	0.001660	28.0823	0.091828	0.002042	44.9734	162.437	-168.388	0.049127	0.105375	-0.929055	-0.930380	0.020086	44.9734	-0.929390	-2.534881E+12	-7.923855E-15	NaN
1163	1.000000	0.114711	7.37643e+06	-57439.1	1105.82	-29736.8	0.000000	0.000000	6.114779	-0.037149	NaN	0.000000	0.001629	0.001658	28.0818	0.087105	0.002081	41.8583	13.9762	-162.435	0.041444	0.113435	-0.921044	-0.922320	-0.037149	41.8583	-0.920378	-1.915629E+12	1.939246E-14	NaN
1163	1.000000	0.122720	7.37643e+06	-57439.1	1105.82	-29736.8	0.000000	0.000000	6.122789	-0.023572	NaN	0.000000	0.001600	0.001688	28.082	0.119683	0.002147	55.7565	-18.0221	-169.355	0.023370	0.121381	-0.913035	-0.914373	-0.023572	55.7565	-0.912718	-1.509617E+12	1.561483E-14	NaN
1163	1.000000	0.130712	7.37643e+06	-57439.1	1105.82	-29736.8	0.000000	0.000000	6.130780	-0.042314	NaN	0.000000	0.001637	0.001672	28.0818	0.071024	0.002111	33.6383	120.87	-168.484	-0.037142	0.129462	-0.905042	-0.906292	-0.042314	33.6383	-0.904099	-1.154643E+12	3.664666E-14	NaN
1163	1.000000	0.138744	7.37643e+06	-57439.1	1105.82	-29736.8	0.000000	0.000000	6.138811	-0.047380	NaN	0.000000	0.001606	0.001692	28.0812	0.070936	0.002001	35.4502	142.433	-165.98	-0.005870	0.137402	-0.897011	-0.898353	-0.047380	35.4502	-0.896008	-8.976878E+11	5.278018E-14	NaN
1163	1.000000	0.146695	7.37643e+06	-57439.1	1105.82	-29736.8	0.000000	0.000000	6.146767	0.061299	NaN	0.000000	0.001636	0.001702	28.0809	0.013881	0.001939	7.158651	108.912	-166.303	-0.033719	0.145454	-0.889060	-0.890301	0.061299	7.158651	-0.895482	-8.831097E+11	-6.941247E-14	NaN
1163	1.000000	0.154706	7.37643e+06	-57439.1	1105.82	-29736.8	0.000000	0.000000	6.154775	-0.016732	NaN	0.000000	0.001585	0.001657	28.0806	0.106121	0.002006	52.9067	-148.776	-165.364	0.031454	0.153413	-0.881049	-0.882341	-0.016732	52.9067	-0.880811	-5.593453E+11	2.991315E-14	NaN
1163	1.000000	0.162739	7.37643e+06	-57439.1	1105.82	-29736.8	0.000000	0.000000	6.162806	-0.035991	NaN	0.000000	0.001604	0.001696	28.0808	0.010355	0.002028	5.106571	-1.681268	-168.84	-0.094956	0.161430	-0.873016	-0.874325	-0.035991	5.106571	-0.867730	-3.721639E+11	9.670679E-14	NaN
1163	1.000000	0.170759	7.37643e+06	-57439.1	1105.82	-29736.8	0.000000	0.000000	6.170830	0.052031	NaN	0.000000	0.001608	0.001661	28.0806	0.052556	0.002101	25.0139	90.3425	-166.077	-0.052393	0.169391	-0.864996	-0.866364	0.052031	25.0139	-0.866556	-3.587936E+11	-1.450157E-13	NaN
1163	1.000000	0.178730	7.37643e+06	-57439.1	1105.82	-29736.8	0.000000	0.000000	6.178798	-0.035236	NaN	0.000000	0.001600	0.001666	28.0808	0.163728	0.002006	81.6125	-144.436	-166.129	-0.027976	0.177430	-0.857025	-0.858325	-0.035236	81.6125	-0.856701	-2.639174E+11	1.335101E-13	NaN
1163	1.000000	0.186737	7.37643e+06	-57439.1	1105.82	-29736.8	0.000000	0.000000	6.186805	-0.041067	NaN	0.000000	0.001577	0.001727	28.0808	0.010752	0.002017	5.329896	-67.3173	-169.961	0.025849	0.185445	-0.849018	-0.850310	-0.041067	5.329896	-0.843239	-1.734487E+11	2.367676E-13	NaN
1163	1.000000	0.194725	7.37643e+06	-57439.1	1105.82	-29736.8	0.000000	0.000000	6.194793	-0.037234	NaN	0.000000	0.001592	0.001745	28.0808	0.062879	0.002115	29.7298	18.6418	-166.147	-0.039052	0.193440	-0.841030	-0.842315	-0.037234	29.7298	-0.840091	-1.572244E+11	2.368213E-13	NaN
1163	1.000000	0.202728	7.37643e+06	-57439.1	1105.82	-29736.8	0.000000	0.000000	6.202797	-0.006042	NaN	0.000000	0.001605	0.001717	28.081	0.014517	0.001909	7.602942	121.109	-168.791	0.011861	0.201410	-0.833027	-0.834345	-0.006042	7.602942	-0.832431	-1.238023E+11	4.880148E-14	NaN
1163	1.000000	0.210745	7.37643e+06	-57439.1	1105.82	-29736.8	0.000000	0.000000	6.210814	-0.006547	NaN	0.000000	0.001617	0.001724	28.0805	0.069376	0.001927	35.9933	49.4976	-166.268	-0.081835	0.209418	-0.825009	-0.826337	-0.006547	35.9933	-0.824873	-9.778788E+10	6.694966E-14	NaN
1163	1.000000	0.218755	7.37643e+06	-57439.1	1105.82	-29736.8	0.000000	0.000000	6.218825	0.016400	NaN	0.000000	0.001586	0.001708	28.0808	0.051571	0.002016	25.5822	84.5627	-164.199	0.005314	0.217399	-0.817000	-0.818355	0.016400	25.5822	-0.817481	-7.763364E+10	-2.112517E-13	NaN
1163	1.000000	0.226722	7.37643e+06	-57439.1	1105.82	-29736.8	0.000000	0.000000	6.226791	-0.002235	NaN	0.000000	0.001601	0.001719	28.0808	0.070052	0.001950	35.9256	174.713	-165.209	-0.011501	0.225452	-0.809033	-0.810302	-0.002235	35.9256	-0.808986	-5.954065E+10	3.753464E-14	NaN
1163	1.000000	0.234758	7.37643e+06	-57439.1	1105.82	-29736.8	0.000000	0.000000	6.234828	0.014578	NaN	0.000000	0.001620	0.001735	28.081	0.049646	0.001938	25.623	-137.291	-169.379	0.082115	0.233454	-0.800997	-0.802301	0.014578	25.623	-0.801423	-4.700900E+10	-3.101018E-13	NaN
1163	1.000000	0.242768	7.37643e+06	-57439.1	1105.82	-29736.8	0.000000	0.000000	6.242837	-0.007663	NaN	0.000000	0.001600	0.001704	28.0807	0.070544	0.002015	35.0049	41.8536	-165.224	0.015190	0.241416	-0.792986	-0.794338	-0.007663	35.0049	-0.792822	-3.592607E+10	2.132977E-13	NaN
1163	1.000000	0.250765	7.37643e+06	-57439.1	1105.82	-29736.8	0.000000	0.000000	6.250834	-0.005181	NaN	0.000000	0.001572	0.001644	28.0806	0.034009	0.001926	17.658	38.9106	-168.215	-0.013529	0.249424	-0.784990	-0.786331	-0.005181	17.658	-0.784769	-2.792770E+10	1.855259E-13	NaN
1163	1.000000	0.258771	7.37643e+06	-57439.1	1105.82	-29736.8	0.000000	0.000000	6.258843	0.068780	NaN	0.000000	0.001578	0.001624	28.0808	0.080358	0.001953	41.1409	-107.39	-167.732	0.050829	0.257442	-0.776984	-0.778313	0.068780	41.1409	-0.778238	-2.276578E+10	-3.021198E-12	NaN
1163	1.000000	0.266738	7.37643e+06	-57439.1	1105.82	-29736.8	0.000000	0.000000	6.266807	-0.009729	NaN	0.000000	0.001599	0.001656	28.0806	0.073192	0.002130	34.359	-61.0675	-164.77	-0.018948	0.265457	-0.769017	-0.770298	-0.009729	34.359	-0.768805	-1.694542E+10	5.741449E-13	NaN
1163	1.000000	0.274797	7.37643e+06	-57439.1	1105.82	-29736.8	0.000000	0.000000	6.274867	0.032163	NaN	0.000000	0.001599	0.001632	28.0814	0.033337	0.001941	17.173	130.242	-164.441	-0.011561	0.273502	-0.760958	-0.762253	0.032163	17.173	-0.762363	-1.384977E+10	-2.322305E-12	NaN
1163	1.000000	0.282784	7.37643e+06	-57439.1	1105.82	-29736.8	0.000000	0.000000	6.282851	-0.053539	NaN	0.000000	0.001618	0.001648	28.082	0.117031	0.002042	57.3199	109.315	-164.486	-0.079185	0.281529	-0.752970	-0.754226	-0.053539	57.3199	-0.752270	-1.009523E+10	5.303441E-12	NaN
1163	1.000000	0.290749	7.37643e+06	-57439.1	1105.82	-29736.8	0.000000	0.000000	6.290819	0.020541	NaN	0.000000	0.001605	0.001645	28.0819	0.125826	0.002117	59.4277	23.302	-168.464	0.003935	0.289403	-0.745006	-0.746352	0.020541	59.4277	-0.745265	-8.105025E+9	-2.534353E-12	NaN
1163	1.000000	0.298793	7.37643e+06	-57439.1	1105.82	-29736.8	0.000000	0.000000	6.298862	-0.005580	NaN	0.000000	0.001640	0.001649	28.0822	0.055759	0.002028	27.5004	127.132	-163.794	-0.075759	0.297454	-0.736962	-0.738300	-0.005580	27.5004	-0.736810	-6.217215E+9	8.975171E-13	NaN
1163	1.000000	0.306771	7.37643e+06	-57439.1	1105.82	-29736.8	0.000000	0.000000	6.306840	-0.007434	NaN	0.000000	0.001589	0.001657	28.0819	0.082210	0.001970	41.7381	-93.0835	-167.888	0.045774	0.305429	-0.728984	-0.730326	-0.007434	41.7381	-0.728851	-4.843306E+9	1.534975E-12	NaN
1163	1.000000	0.314814	7.37643e+06	-57439.1	1105.82	-29736.8	0.000000	0.000000	6.314884	0.013077	NaN	0.000000	0.001605	0.001634	28.082	0.046322	0.002078	22.2872	-6.081437	-164.604	-0.057473	0.313457	-0.720941	-0.722298	0.013077	22.2872	-0.721381	-3.830968E+9	-3.413501E-12	NaN
1163	1.000000	0.322803	7.37643e+06	-57439.1	1105.82	-29736.8	0.000000	0.000000	6.322872	-0.025163	NaN	0.000000	0.001605	0.001703	28.0819	0.047665	0.001892	25.1986	63.4106	-167.858	-0.044448	0.321478	-0.712951	-0.714277	-0.025163	25.1986	-0.712202	-2.871462E+9	8.763011E-12	NaN
1163	1.000000	0.330792	7.37643e+06	-57439.1	1105.82	-29736.8	0.000000	0.000000	6.330861	-0.016274	NaN	0.000000	0.001678	0.001709	28.0822	0.011536	0.001867	6.178022	-6.133485	-169.031	0.043835	0.329468	-0.704963	-0.706287	-0.016274	6.178022	-0.702987	-2.149402E+9	7.571293E-12	NaN
1163	1.000000	0.338828	7.37643e+06	-57439.1	1105.82	-29736.8	0.000000	0.000000	6.338896	-0.021934	NaN	0.000000	0.001593	0.001692	28.082	0.061700	0.002038	30.2812	-75.9525	-166.581	0.001760	0.337477	-0.696927	-0.698278	-0.021934	30.2812	-0.696384	-1.746380E+9	1.255987E-11	NaN
1163	1.000000	0.346823	7.37643e+06	-57439.1	1105.82	-29736.8	0.000000	0.000000	6.346891	-0.025173	NaN	0.000000	0.001597	0.001676	28.0818	0.073303	0.001924	38.1	82.092	-165.616	-0.035165	0.345471	-0.688932	-0.690283	-0.025173	38.1	-0.688436	-1.360017E+9	1.850908E-11	NaN
1163	1.000000	0.354820	7.37643e+06	-57439.1	1105.82	-29736.8	0.000000	0.000000	6.354892	0.061877	NaN	0.000000	0.001584	0.001666	28.0822	0.138676	0.001977	70.1491	44.8457	-162.82	0.035909	0.353529	-0.680935	-0.682226	0.061877	70.1491	-0.681597	-1.096580E+9	-5.642703E-11	NaN
1163	1.000000	0.362785	7.37643e+06	-57439.1	1105.82	-29736.8	0.000000	0.000000	6.362854	-0.003835	NaN	0.000000	0.001600	0.001668	28.082	0.069858	0.002015	34.6694	46.4122	-166.78	0.044496	0.361478	-0.672970	-0.674277	-0.003835	34.6694	-0.672887	-8.334961E+8	4.601544E-12	NaN
1163	1.000000	0.370803	7.37643e+06	-57439.1	1105.82	-29736.8	0.000000	0.000000	6.370870	-0.057511	NaN	0.000000	0.001610	0.001657	28.082	0.023016	0.002019	11.4017	178.451	-166.132	-0.047442	0.369540	-0.664952	-0.666215	-0.057511	11.4017	-0.661169	-5.760797E+8	9.983088E-11	NaN
1163	1.000000	0.378822	7.37643e+06	-57439.1	1105.82	-29736.8	0.000000	0.000000	6.378890	-0.013391	NaN	0.000000	0.001598	0.001687	28.082	0.095094	0.002004	47.4582	-80.6116	-168.732	0.001380	0.377539	-0.656933	-0.658216	-0.013391	47.4582	-0.656721	-5.006737E+8	2.674608E-11	NaN
1163	1.000000	0.386832	7.37643e+06	-57439.1	1105.82	-29736.8	0.000000	0.000000	6.386900	-0.012748	NaN	0.000000	0.001607	0.001661	28.0817	0.017336	0.001974	8.783930	153.505	-165.944	0.006887	0.385498	-0.648923	-0.650257	-0.012748	8.783930	-0.647835	-3.782240E+8	3.370561E-11	NaN
1163	1.000000	0.394852	7.37643e+06	-57439.1	1105.82	-29736.8	0.000000	0.000000	6.394921	0.007641	NaN	0.000000	0.001595	0.001673	28.0824	0.065830	0.002032	32.3997	-50.1414	-165.99	-0.016708	0.393509	-0.640903	-0.642246	0.007641	32.3997	-0.641080	-3.055671E+8	-2.500734E-11	NaN
1163	1.000000	0.402807	7.37643e+06	-57439.1	1105.82	-29736.8	0.000000	0.000000	6.402875	-0.025599	NaN	0.000000	0.001597	0.001659	28.0817	0.107915	0.002183	49.4279	-34.0811	-166.524	-0.037999	0.401571	-0.632948	-0.634184	-0.025599	49.4279	-0.632560	-2.334380E+8	1.096591E-10	NaN
1163	1.000000	0.410854	7.37643e+06	-57439.1	1105.82	-29736.8	0.000000	0.000000	6.410922	-0.020101	NaN	0.000000	0.001634	0.001631	28.0814	0.050217	0.001981	25.3501	121.788	-164.577	0.061601	0.409522	-0.624901	-0.626233	-0.020101	25.3501	-0.624307	-1.798110E+8	1.117896E-10	NaN
1163	1.000000	0.418831	7.37643e+06	-57439.1	1105.82	-29736.8	0.000000	0.000000	6.418898	-0.040451	NaN	0.000000	0.001572	0.001651	28.0805	0.059119	0.002004	29.5072	-31.2452	-166.833	0.057068	0.417562	-0.616924	-0.618193	-0.040451	29.5072	-0.615896	-1.377873E+8	2.935742E-10	NaN
1163	1.000000	0.426857	7.37643e+06	-57439.1	1105.82	-29736.8	0.000000	0.000000	6.426928	0.039490	NaN	0.000000	0.001618	0.001673	28.0808	0.012583	0.002004	6.278179	163.275	-166.509	0.044707	0.425548	-0.608897	-0.610207	0.039490	6.278179	-0.613615	-1.281867E+8	-3.080688E-10	NaN
1163	1.000000	0.434844	7.37643e+06	-57439.1	1105.82	-29736.8	0.000000	0.000000	6.434909	-0.090395	NaN	0.000000	0.001624	0.001656	28.081	0.028903	0.001902	15.1941	83.6308	-168.837	-0.089785	0.433550	-0.600911	-0.602205	-0.090395	15.1941	-0.596449	-7.439540E+7	1.215062E-9	NaN
1163	1.000000	0.442838	7.37643e+06	-57439.1	1105.82	-29736.8	0.000000	0.000000	6.442906	-0.031586	NaN	0.000000	0.001580	0.001674	28.0804	0.043787	0.002021	21.6699	89.4732	-161.95	-0.084497	0.441517	-0.592917	-0.594238	-0.031586	21.6699	-0.591824	-6.424041E+7	4.916856E-10	NaN
1163	1.000000	0.450831	7.37643e+06	-57439.1	1105.82	-29736.8	0.000000	0.000000	6.450900	-0.009960	NaN	0.000000	0.001572	0.001664	28.0806	0.037834	0.002038	18.5627	-24.542	-166.9	0.012343	0.449545	-0.584924	-0.586210	-0.009960	18.5627	-0.584521	-5.094632E+7	1.955091E-10	NaN
1163	1.000000	0.458852	7.37643e+06	-57439.1	1105.82	-29736.8	0.000000	0.000000	6.458920	-0.022559	NaN	0.000000	0.001595	0.001715	28.0805	0.006059	0.001987	3.049624	-174.531	-165.519	-0.021605	0.457534	-0.576903	-0.578221	-0.022559	3.049624	-0.571355	-3.352372E+7	6.729412E-10	NaN
1163	1.000000	0.466815	7.37643e+06	-57439.1	1105.82	-29736.8	0.000000	0.000000	6.466887	0.072425	NaN	0.000000	0.001620	0.001652	28.0807	0.058650	0.001862	31.4916	55.9002	-166.739	0.114735	0.465501	-0.568940	-0.570254	0.072425	31.4916	-0.570665	-3.279565E+7	-2.208373E-9	NaN
1163	1.000000	0.474847	7.37643e+06	-57439.1	1105.82	-29736.8	0.000000	0.000000	6.474915	-0.017140	NaN	0.000000	0.001592	0.001659	28.0809	0.019764	0.002083	9.488849	-56.6206	-165.425	0.022828	0.473559	-0.560908	-0.562195	-0.017140	9.488849	-0.559553	-2.302508E+7	7.444251E-10	NaN
1163	1.000000	0.482833	7.37643e+06	-57439.1	1105.82	-29736.8	0.000000	0.000000	6.482901	-0.035281	NaN	0.000000	0.001613	0.001664	28.0806	0.054173	0.001931	28.0589	-135.681	-165.724	-0.005469	0.481560	-0.552922	-0.554194	-0.035281	28.0589	-0.551979	-1.808664E+7	1.950676E-9	NaN
1163	1.000000	0.490857	7.37643e+06	-57439.1	1105.82	-29736.8	0.000000	0.000000	6.490926	0.004421	NaN	0.000000	0.001594	0.001665	28.0806	0.096019	0.001943	49.4102	22.751	-165.448	-0.036875	0.489552	-0.544898	-0.546203	0.004421	49.4102	-0.544965	-1.446105E+7	-3.056974E-10	NaN
1163	1.000000	0.498871	7.37643e+06	-57439.1	1105.82	-29736.8	0.000000	0.000000	6.498941	-0.001235	NaN	0.000000	0.001582	0.001656	28.0806	0.072772	0.002088	34.858	-139.567	-166.252	-0.018414	0.497515	-0.536884	-0.538240	-0.001235	34.858	-0.536857	-1.116241E+7	1.106504E-10	NaN
1163	1.000000	0.506872	7.37643e+06	-57439.1	1105.82	-29736.8	0.000000	0.000000	6.506943	0.037669	NaN	0.000000	0.001624	0.001686	28.0806	0.054918	0.001973	27.8299	152.32	-168.296	-0.002953	0.505611	-0.528883	-0.530144	0.037669	27.8299	-0.529898	-8.93629e+06	-4.215338E-9	NaN
1163	1.000000	0.514891	7.37643e+06	-57439.1	1105.82	-29736.8	0.000000	0.000000	6.514963	0.057189	NaN	0.000000	0.001585	0.001639	28.0808	0.060011	0.001912	31.38	-88.5537	-166.44	0.041988	0.513586	-0.520864	-0.522169	0.057189	31.38	-0.522231	-6.99224e+06	-8.178964E-9	NaN
1163	1.000000	0.522855	7.37643e+06	-57439.1	1105.82	-29736.8	0.000000	0.000000	6.522926	0.025219	NaN	0.000000	0.001588	0.001622	28.0806	0.069634	0.001990	34.9948	75.4613	-163.419	0.025609	0.521550	-0.512899	-0.514205	0.025219	34.9948	-0.513440	-5.27614e+06	-4.779748E-9	NaN
1163	1.000000	0.530891	7.37643e+06	-57439.1	1105.82	-29736.8	0.000000	0.000000	6.530961	0.007297	NaN	0.000000	0.001599	0.001662	28.0806	0.092947	0.001959	47.4534	154.345	-162.373	0.016232	0.529558	-0.504864	-0.506197	0.007297	47.4534	-0.504979	-4.02209e+06	-1.814348E-9	NaN
1163	1.000000	0.538903	7.37643e+06	-57439.1	1105.82	-29736.8	0.000000	0.000000	6.538974	0.052011	NaN	0.000000	0.001623	0.001670	28.0805	0.042387	0.002141	19.7951	124.875	-166.896	0.100116	0.537631	-0.496852	-0.498124	0.052011	19.7951	-0.498823	-3.30061e+06	-1.575798E-8	NaN
1163	1.000000	0.546866	7.37643e+06	-57439.1	1105.82	-29736.8	0.000000	0.000000	6.546934	-0.046897	NaN	0.000000	0.001638	0.001662	28.0808	0.026001	0.002131	12.2018	77.8272	-163.922	0.054011	0.545526	-0.488889	-0.490229	-0.046897	12.2018	-0.486006	-2.18555e+06	2.145780E-8	NaN
1163	1.000000	0.554885	7.37643e+06	-57439.1	1105.82	-29736.8	0.000000	0.000000	6.554953	-0.026522	NaN	0.000000	0.001649	0.001644	28.0817	0.079502	0.001982	40.1022	85.3937	-169.117	-0.040907	0.553602	-0.480870	-0.482153	-0.026522	40.1022	-0.480374	-1.82288e+06	1.454974E-8	NaN
1163	1.000000	0.562889	7.37643e+06	-57439.1	1105.82	-29736.8	0.000000	0.000000	6.562959	0.014094	NaN	0.000000	0.001616	0.001675	28.0819	0.046719	0.001986	23.5224	-102.708	-165.826	-0.007924	0.561541	-0.472866	-0.474214	0.014094	23.5224	-0.473316	-1.45176e+06	-9.708444E-9	NaN
1163	1.000000	0.570877	7.37643e+06	-57439.1	1105.82	-29736.8	0.000000	0.000000	6.570945	-0.029296	NaN	0.000000	0.001630	0.001617	28.082	0.041805	0.002048	20.4171	-97.8341	-166.988	0.057619	0.569587	-0.464878	-0.466168	-0.029296	20.4171	-0.463802	-1.06763e+06	2.743988E-8	NaN
1163	1.000000	0.578875	7.37643e+06	-57439.1	1105.82	-29736.8	0.000000	0.000000	6.578945	0.014841	NaN	0.000000	0.001651	0.001635	28.0818	0.053430	0.001996	26.7745	66.3174	-166.039	0.056154	0.577527	-0.456880	-0.458228	0.014841	26.7745	-0.457295	-864965	-1.715752E-8	NaN
1163	1.000000	0.586907	7.37643e+06	-57439.1	1105.82	-29736.8	0.000000	0.000000	6.586975	-0.033901	NaN	0.000000	0.001630	0.001655	28.0821	0.040604	0.001932	21.0138	-13.9491	-166.25	-0.037357	0.585571	-0.448847	-0.450184	-0.033901	21.0138	-0.447637	-632504	5.359763E-8	NaN
1163	1.000000	0.594909	7.37643e+06	-57439.1	1105.82	-29736.8	0.000000	0.000000	6.594974	-0.105566	NaN	0.000000	0.001597	0.001639	28.0821	0.089914	0.002029	44.3072	51.2505	-166.017	0.057414	0.593521	-0.440846	-0.442233	-0.105566	44.3072	-0.439059	-478718	2.205191E-7	NaN
1163	1.000000	0.602896	7.37643e+06	-57439.1	1105.82	-29736.8	0.000000	0.000000	6.602964	-0.043479	NaN	0.000000	0.001604	0.001634	28.0821	0.056805	0.002032	27.9569	-41.9525	-165.722	0.041725	0.601608	-0.432858	-0.434146	-0.043479	27.9569	-0.431692	-376697	1.154222E-7	NaN
1163	1.000000	0.610921	7.37643e+06	-57439.1	1105.82	-29736.8	0.000000	0.000000	6.610989	-0.035694	NaN	0.000000	0.001618	0.001640	28.082	0.069274	0.002010	34.4612	178.488	-167.144	0.010764	0.609636	-0.424834	-0.426119	-0.035694	34.4612	-0.424057	-293713	1.215272E-7	NaN
1163	1.000000	0.618930	7.37643e+06	-57439.1	1105.82	-29736.8	0.000000	0.000000	6.618999	-0.012357	NaN	0.000000	0.001587	0.001622	28.082	0.037566	0.001903	19.7367	-160.574	-164.454	-0.009347	0.617610	-0.416825	-0.418144	-0.012357	19.7367	-0.416355	-228402	5.410264E-8	NaN
1163	1.000000	0.626906	7.37643e+06	-57439.1	1105.82	-29736.8	0.000000	0.000000	6.626976	0.021055	NaN	0.000000	0.001611	0.001628	28.0822	0.086425	0.002048	42.2098	-3.353611	-166.966	0.030541	0.625573	-0.408849	-0.410182	0.021055	42.2098	-0.409223	-180865	-1.164125E-7	NaN
1163	1.000000	0.634956	7.37643e+06	-57439.1	1105.82	-29736.8	0.000000	0.000000	6.635026	0.003181	NaN	0.000000	0.001587	0.001663	28.0819	0.061109	0.002091	29.2303	-70.3276	-166.027	0.006694	0.633576	-0.400799	-0.402179	0.003181	29.2303	-0.400880	-137577	-2.312306E-8	NaN
1163	1.000000	0.642939	7.37643e+06	-57439.1	1105.82	-29736.8	0.000000	0.000000	6.643008	-0.022998	NaN	0.000000	0.001603	0.001653	28.0819	0.033180	0.001978	16.7719	161.959	-165.715	-0.064095	0.641603	-0.392815	-0.394152	-0.022998	16.7719	-0.391787	-102029	2.254112E-7	NaN
1163	1.000000	0.650944	7.37643e+06	-57439.1	1105.82	-29736.8	0.000000	0.000000	6.651013	-0.010027	NaN	0.000000	0.001555	0.001659	28.082	0.025417	0.002043	12.4436	70.9924	-162.449	-0.036048	0.649622	-0.384810	-0.386133	-0.010027	12.4436	-0.384206	-79471.3	1.261703E-7	NaN
1163	1.000000	0.658897	7.37643e+06	-57439.1	1105.82	-29736.8	0.000000	0.000000	6.658965	-0.026337	NaN	0.000000	0.001573	0.001652	28.0822	0.049290	0.002113	23.3244	-129.822	-168.109	-0.003882	0.657661	-0.376858	-0.378093	-0.026337	23.3244	-0.376011	-60618.2	4.344705E-7	NaN
1163	1.000000	0.666928	7.37643e+06	-57439.1	1105.82	-29736.8	0.000000	0.000000	6.666998	0.011870	NaN	0.000000	0.001586	0.001661	28.082	0.006440	0.002014	3.198190	125.862	-166.683	0.036171	0.665601	-0.368827	-0.370154	0.011870	3.198190	-0.371610	-52397.6	-2.265411E-7	NaN
1163	1.000000	0.674930	7.37643e+06	-57439.1	1105.82	-29736.8	0.000000	0.000000	6.674998	-0.018080	NaN	0.000000	0.001570	0.001658	28.0817	0.105398	0.001909	55.2135	126.621	-167.128	0.017937	0.673610	-0.360825	-0.362145	-0.018080	55.2135	-0.360580	-36326.5	4.977005E-7	NaN
1163	1.000000	0.682971	7.37643e+06	-57439.1	1105.82	-29736.8	0.000000	0.000000	6.683042	0.043239	NaN	0.000000	0.001565	0.001665	28.0821	0.019629	0.002065	9.505460	12.4679	-164.537	0.079969	0.681618	-0.352784	-0.354137	0.043239	9.505460	-0.356195	-31390.9	-1.377450E-6	NaN
1163	1.000000	0.690940	7.37643e+06	-57439.1	1105.82	-29736.8	0.000000	0.000000	6.691009	-0.019282	NaN	0.000000	0.001609	0.001667	28.0806	0.063726	0.001985	32.107	33.6405	-167.971	-0.034204	0.689667	-0.344815	-0.346088	-0.019282	32.107	-0.344364	-21140.2	9.120912E-7	NaN
1163	1.000000	0.698938	7.37643e+06	-57439.1	1105.82	-29736.8	0.000000	0.000000	6.699008	0.012814	NaN	0.000000	0.001604	0.001664	28.0806	0.057274	0.002091	27.3849	32.7331	-162.593	0.068567	0.697613	-0.336817	-0.338141	0.012814	27.3849	-0.337168	-16605.2	-7.716893E-7	NaN
1163	1.000000	0.706966	7.37643e+06	-57439.1	1105.82	-29736.8	0.000000	0.000000	6.707033	-0.040182	NaN	0.000000	0.001594	0.001691	28.0806	0.108759	0.001967	55.2968	-106.641	-168.539	0.069612	0.705652	-0.328789	-0.330103	-0.040182	55.2968	-0.328244	-12295	3.268196E-6	NaN
1163	1.000000	0.714948	7.37643e+06	-57439.1	1105.82	-29736.8	0.000000	0.000000	6.715014	-0.079909	NaN	0.000000	0.001595	0.001656	28.0807	0.077373	0.001967	39.338	28.6041	-167.055	-0.076028	0.713676	-0.320807	-0.322079	-0.079909	39.338	-0.319284	-9080.13	8.800478E-6	NaN
1163	1.000000	0.722964	7.37643e+06	-57439.1	1105.82	-29736.8	0.000000	0.000000	6.723034	0.017122	NaN	0.000000	0.001621	0.001681	28.0807	0.072490	0.001981	36.5913	-70.9497	-163.047	0.006669	0.721665	-0.312791	-0.314090	0.017122	36.5913	-0.313142	-7370.68	-2.323040E-6	NaN
1163	1.000000	0.730946	7.37643e+06	-57439.1	1105.82	-29736.8	0.000000	0.000000	6.731015	-0.007809	NaN	0.000000	0.001615	0.001653	28.0805	0.078541	0.001911	41.0924	125.239	-166.363	-0.049288	0.729638	-0.304809	-0.306117	-0.007809	41.0924	-0.304666	-5520.79	1.414392E-6	NaN
1163	1.000000	0.738940	7.37643e+06	-57439.1	1105.82	-29736.8	0.000000	0.000000	6.739011	0.044778	NaN	0.000000	0.001559	0.001671	28.0805	0.093288	0.002018	46.2227	141.702	-167.266	0.063044	0.737646	-0.296815	-0.298109	0.044778	46.2227	-0.297541	-4325.23	-1.035266E-5	NaN
1163	1.000000	0.746949	7.37643e+06	-57439.1	1105.82	-29736.8	0.000000	0.000000	6.747017	-0.042472	NaN	0.000000	0.001619	0.001688	28.0804	0.103803	0.002109	49.2247	51.4109	-166.964	-0.144729	0.745608	-0.288806	-0.290147	-0.042472	49.2247	-0.288159	-3131.12	1.356434E-5	NaN
1163	1.000000	0.754971	7.37643e+06	-57439.1	1105.82	-29736.8	0.000000	0.000000	6.755042	0.050237	NaN	0.000000	0.001581	0.001666	28.0807	0.046489	0.002009	23.1438	-113.169	-166.503	0.051523	0.753679	-0.280784	-0.282075	0.050237	23.1438	-0.282412	-2566.41	-1.957493E-5	NaN
1163	1.000000	0.762975	7.37643e+06	-57439.1	1105.82	-29736.8	0.000000	0.000000	6.763043	-0.043281	NaN	0.000000	0.001583	0.001663	28.0806	0.157093	0.002060	76.243	168.547	-166.599	-0.027162	0.761660	-0.272780	-0.274095	-0.043281	76.243	-0.272354	-1808.39	2.393345E-5	NaN
1163	1.000000	0.770974	7.37643e+06	-57439.1	1105.82	-29736.8	0.000000	0.000000	6.771043	-0.003983	NaN	0.000000	0.001603	0.001643	28.0805	0.056544	0.001974	28.6513	-84.9565	-166.83	0.032978	0.769709	-0.264781	-0.266046	-0.003983	28.6513	-0.264677	-1381.83	2.882442E-6	NaN
1163	1.000000	0.778975	7.37643e+06	-57439.1	1105.82	-29736.8	0.000000	0.000000	6.779041	-0.081090	NaN	0.000000	0.001617	0.001647	28.0808	0.095958	0.001910	50.2284	130.077	-167.788	-0.024318	0.777665	-0.256780	-0.258090	-0.081090	50.2284	-0.255569	-1002.03	8.092615E-5	NaN
1163	1.000000	0.786980	7.37643e+06	-57439.1	1105.82	-29736.8	0.000000	0.000000	6.787047	-0.049419	NaN	0.000000	0.001583	0.001690	28.0805	0.053033	0.001844	28.7572	-20.9069	-167.1	-0.017519	0.785639	-0.248775	-0.250116	-0.049419	28.7572	-0.247486	-751.698	6.574255E-5	NaN
1163	1.000000	0.794997	7.37643e+06	-57439.1	1105.82	-29736.8	0.000000	0.000000	6.795064	-0.067807	NaN	0.000000	0.001631	0.001702	28.0806	0.123388	0.002076	59.4327	60.8676	-164.121	-0.056933	0.793701	-0.240758	-0.242054	-0.067807	59.4327	-0.239902	-572.825	0.000118	NaN
1163	1.000000	0.802999	7.37643e+06	-57439.1	1105.82	-29736.8	0.000000	0.000000	6.803070	0.041453	NaN	0.000000	0.001585	0.001671	28.0806	0.033955	0.002036	16.6757	124.669	-169.278	0.004143	0.801690	-0.232756	-0.234065	0.041453	16.6757	-0.234620	-473.455	-8.755386E-5	NaN
1163	1.000000	0.810963	7.37643e+06	-57439.1	1105.82	-29736.8	0.000000	0.000000	6.811031	-0.052960	NaN	0.000000	0.001636	0.001672	28.0805	0.046331	0.001832	25.2848	131.857	-166.117	-0.002262	0.809632	-0.224791	-0.226123	-0.052960	25.2848	-0.223220	-312.637	0.000169	NaN
1163	1.000000	0.818977	7.37643e+06	-57439.1	1105.82	-29736.8	0.000000	0.000000	6.819044	-0.056221	NaN	0.000000	0.001608	0.001668	28.0807	0.023820	0.001945	12.2441	146.083	-165.664	-0.042976	0.817636	-0.216778	-0.218119	-0.056221	12.2441	-0.213334	-217.115	0.000259	NaN
1163	1.000000	0.827028	7.37643e+06	-57439.1	1105.82	-29736.8	0.000000	0.000000	6.827093	-0.104941	NaN	0.000000	0.001610	0.001636	28.0817	0.050415	0.002127	23.7046	85.6046	-167.167	-0.167039	0.825737	-0.208727	-0.210017	-0.104941	23.7046	-0.205407	-161.508	0.000650	NaN
1163	1.000000	0.835013	7.37643e+06	-57439.1	1105.82	-29736.8	0.000000	0.000000	6.835081	-0.035069	NaN	0.000000	0.001581	0.001634	28.0821	0.053856	0.001905	28.2738	-175.891	-167.704	-0.004521	0.833677	-0.200742	-0.202077	-0.035069	28.2738	-0.199812	-130.8	0.000268	NaN
1163	1.000000	0.843029	7.37643e+06	-57439.1	1105.82	-29736.8	0.000000	0.000000	6.843098	-0.012288	NaN	0.000000	0.001568	0.001643	28.0818	0.110547	0.001966	56.2167	162.691	-169.037	-0.013166	0.841709	-0.192726	-0.194045	-0.012288	56.2167	-0.192562	-99.2514	0.000124	NaN
1163	1.000000	0.851001	7.37643e+06	-57439.1	1105.82	-29736.8	0.000000	0.000000	6.851071	0.010186	NaN	0.000000	0.001569	0.001672	28.0819	0.125018	0.002047	61.0616	-171.601	-168.133	-0.029214	0.849722	-0.184754	-0.186033	0.010186	61.0616	-0.184879	-73.8059	-0.000138	NaN
1163	1.000000	0.859027	7.37643e+06	-57439.1	1105.82	-29736.8	0.000000	0.000000	6.859096	0.012638	NaN	0.000000	0.001609	0.001677	28.0819	0.098054	0.002011	48.751	-77.2081	-167.834	0.079788	0.857693	-0.176728	-0.178061	0.012638	48.751	-0.176923	-54.0695	-0.000234	NaN
1163	1.000000	0.867040	7.37643e+06	-57439.1	1105.82	-29736.8	0.000000	0.000000	6.867110	0.017563	NaN	0.000000	0.001576	0.001660	28.0817	0.096904	0.002047	47.3352	164.334	-165.485	0.005551	0.865729	-0.168714	-0.170025	0.017563	47.3352	-0.168993	-39.455	-0.000445	NaN
1163	1.000000	0.875029	7.37643e+06	-57439.1	1105.82	-29736.8	0.000000	0.000000	6.875097	-0.024674	NaN	0.000000	0.001585	0.001663	28.082	0.063480	0.002071	30.6521	165.188	-165.162	-0.008549	0.873679	-0.160726	-0.162076	-0.024674	30.6521	-0.160122	-27.5525	0.000896	NaN
1163	1.000000	0.883027	7.37643e+06	-57439.1	1105.82	-29736.8	0.000000	0.000000	6.883098	0.040876	NaN	0.000000	0.001549	0.001668	28.0817	0.106912	0.001981	53.9772	-108.971	-165.909	-0.029034	0.881784	-0.152727	-0.153971	0.040876	53.9772	-0.153295	-20.7891	-0.001966	NaN
1163	1.000000	0.891020	7.37643e+06	-57439.1	1105.82	-29736.8	0.000000	0.000000	6.891090	0.012568	NaN	0.000000	0.001598	0.001648	28.0818	0.024642	0.002001	12.3139	-45.4139	-165.956	-0.092104	0.889754	-0.144735	-0.146001	0.012568	12.3139	-0.145500	-14.9768	-0.000839	NaN
1163	1.000000	0.899016	7.37643e+06	-57439.1	1105.82	-29736.8	0.000000	0.000000	6.899084	-0.027243	NaN	0.000000	0.001577	0.001698	28.0819	0.082556	0.002070	39.8858	-81.3276	-167.633	-0.009403	0.897718	-0.136739	-0.138037	-0.027243	39.8858	-0.136226	-10.0382	0.002714	NaN
1163	1.000000	0.907043	7.37643e+06	-57439.1	1105.82	-29736.8	0.000000	0.000000	6.907111	-0.041149	NaN	0.000000	0.001640	0.001679	28.0817	0.139658	0.002046	68.2704	-148.423	-166.347	0.008958	0.905670	-0.128711	-0.130085	-0.041149	68.2704	-0.128259	-7.048482	0.005838	NaN
1163	1.000000	0.915057	7.37643e+06	-57439.1	1105.82	-29736.8	0.000000	0.000000	6.915126	-0.023382	NaN	0.000000	0.001646	0.001634	28.0816	0.087073	0.001887	46.1501	10.2243	-166.818	0.016965	0.913711	-0.120697	-0.122044	-0.023382	46.1501	-0.120317	-4.903270	0.004769	NaN
1163	1.000000	0.923047	7.37643e+06	-57439.1	1105.82	-29736.8	0.000000	0.000000	6.923120	0.080992	NaN	0.000000	0.001665	0.001710	28.0818	0.052137	0.002029	25.6984	-173.604	-166.99	0.061005	0.921711	-0.112708	-0.114044	0.080992	25.6984	-0.115071	-3.833312	-0.021129	NaN
1163	1.000000	0.931060	7.37643e+06	-57439.1	1105.82	-29736.8	0.000000	0.000000	6.931128	-0.017780	NaN	0.000000	0.001655	0.001666	28.0821	0.119739	0.001964	60.973	-106.14	-166.413	-0.064053	0.929759	-0.104695	-0.105996	-0.017780	60.973	-0.104476	-2.290057	0.007764	NaN
1163	1.000000	0.939069	7.37643e+06	-57439.1	1105.82	-29736.8	0.000000	0.000000	6.939140	0.023248	NaN	0.000000	0.001551	0.001659	28.0819	0.016868	0.002030	8.308722	-169.35	-165.382	0.024421	0.937700	-0.096685	-0.098055	0.023248	8.308722	-0.098784	-1.716834	-0.013541	NaN
1163	1.000000	0.947033	7.37643e+06	-57439.1	1105.82	-29736.8	0.000000	0.000000	6.947101	-0.045979	NaN	0.000000	0.001570	0.001669	28.0822	0.052622	0.001800	29.2306	-110.016	-166.985	-0.004735	0.945769	-0.088722	-0.089986	-0.045979	29.2306	-0.087542	-0.945605	0.048623	NaN
1163	1.000000	0.955072	7.37643e+06	-57439.1	1105.82	-29736.8	0.000000	0.000000	6.955141	-0.006594	NaN	0.000000	0.001563	0.001699	28.0816	0.039184	0.001969	19.8998	-92.8149	-168.707	0.043308	0.953804	-0.080683	-0.081950	-0.006594	19.8998	-0.080434	-0.634633	0.010391	NaN
1163	1.000000	0.963063	7.37643e+06	-57439.1	1105.82	-29736.8	0.000000	0.000000	6.963130	-0.058705	NaN	0.000000	0.001561	0.001641	28.0804	0.061399	0.002058	29.8414	-18.581	-165.987	-0.026896	0.961766	-0.072692	-0.073989	-0.058705	29.8414	-0.071216	-0.367569	0.159711	NaN
1163	1.000000	0.971090	7.37643e+06	-57439.1	1105.82	-29736.8	0.000000	0.000000	6.971161	0.038509	NaN	0.000000	0.001577	0.001675	28.0805	0.083475	0.001914	43.6076	-73.8284	-161.863	-0.023993	0.969728	-0.064665	-0.066027	0.038509	43.6076	-0.065328	-0.254479	-0.151323	NaN
1163	1.000000	0.979045	7.37643e+06	-57439.1	1105.82	-29736.8	0.000000	0.000000	6.979114	-0.014871	NaN	0.000000	0.001581	0.001651	28.0804	0.078063	0.002053	38.0149	-77.7668	-165.133	-0.044262	0.977726	-0.056710	-0.058029	-0.014871	38.0149	-0.056416	-0.141756	0.104906	NaN
1163	1.000000	0.987031	7.37643e+06	-57439.1	1105.82	-29736.8	0.000000	0.000000	6.987100	-0.028975	NaN	0.000000	0.001516	0.001635	28.0807	0.089075	0.001887	47.2112	91.8342	-166.165	-0.090034	0.985684	-0.048723	-0.050071	-0.028975	47.2112	-0.048263	-0.080827	0.358484	NaN
1163	1.000000	0.995065	7.37643e+06	-57439.1	1105.82	-29736.8	0.000000	0.000000	6.995132	-0.074546	NaN	0.000000	0.001572	0.001645	28.0805	0.097139	0.001961	49.541	58.9788	-165.972	-0.020159	0.993761	-0.040689	-0.041994	-0.074546	49.541	-0.039561	-0.043856	1.699816	NaN
1163	1.000000	1.003080	7.37643e+06	-57439.1	1105.82	-29736.8	0.000000	0.000000	7.003168	0.447021	NaN	0.000000	0.001561	0.001634	28.0808	0.618503	0.002096	295.053	10.3569	-166.941	0.225915	1.001744	-0.032675	-0.034011	0.447021	295.053	-0.033811	-0.029557	-15.124	NaN
1163	1.000000	1.011101	7.37643e+06	-57439.1	1105.82	-29736.8	0.000000	0.000000	7.011240	1.693646	NaN	0.000000	0.001558	0.001644	28.0807	1.029742	0.001930	533.542	15.5188	-166.079	1.680183	1.009775	-0.024654	-0.025980	1.693646	533.542	-0.027035	-0.019096	-88.691	NaN
1163	1.000000	1.019100	7.37643e+06	-57439.1	1105.82	-29736.8	0.000000	0.000000	7.019219	1.219199	NaN	0.000000	0.001572	0.001651	28.0805	0.976721	0.002017	484.26	20.2115	-166.871	1.341899	1.017765	-0.016655	-0.017989	1.219199	484.26	-0.018543	-0.011529	-105.752	NaN
1163	1.000000	1.027095	7.37643e+06	-57439.1	1105.82	-29736.8	0.000000	0.000000	7.027199	0.841647	NaN	0.000000	0.001560	0.001668	28.0805	0.986983	0.002092	471.858	25.3862	-164.378	0.855489	1.025752	-0.008660	-0.010003	0.841647	471.858	-0.009997	-0.006386	-131.799	NaN
1163	1.000000	1.035015	7.37643e+06	-57439.1	1105.82	-29736.8	0.000000	0.000000	7.035325	5.845600	NaN	0.000000	0.001554	0.001688	28.0805	5.845769	0.001711	3415.91	11.8571	-169.806	4.472210	1.033738	-0.000739	-0.002017	5.845600	3415.91	-0.002023	-0.001455	-4017.19	NaN
1163	2.000000	1.039553	7.37643e+06	-57439.1	1105.82	-29736.8	0.000000	0.000000	7.040032	9.951221	NaN	0.000000	0.001580	0.001640	28.0815	9.743214	0.001663	5859.28	5.038235	-169.64	9.384417	1.039308	0.003798	0.003553	9.951221	5859.28	0.002524	0.001983	5017.6	120206
1163	2.000000	1.041594	7.37643e+06	-57439.1	1105.82	-29736.8	0.000000	0.000000	7.042201	13.057	NaN	0.000000	0.001560	0.001683	28.0804	11.6116	0.001673	6939.66	5.756674	-173.532	13.0442	1.041201	0.005839	0.005446	13.057	6939.66	0.004428	0.003618	3609.22	105414
1163	2.000000	1.043485	7.37643e+06	-57439.1	1105.82	-29736.8	0.000000	0.000000	7.044237	16.5857	NaN	0.000000	0.001587	0.001656	28.0804	14.3743	0.001712	8395.27	7.588824	-176.341	14.7763	1.043276	0.007730	0.007521	16.5857	8395.27	0.006249	0.005302	3128.26	105340
1163	2.000000	1.045580	7.37643e+06	-57439.1	1105.82	-29736.8	0.000000	0.000000	7.046506	20.8346	NaN	0.000000	0.001568	0.001695	28.0802	16.9413	0.001702	9955.22	5.090891	-175.569	19.8914	1.045234	0.009825	0.009479	20.8346	9955.22	0.008255	0.007306	2851.63	106409
1163	2.000000	1.047528	7.37643e+06	-57439.1	1105.82	-29736.8	0.000000	0.000000	7.048846	30.3381	NaN	0.000000	0.001574	0.001691	28.0805	19.2558	0.001673	11506.8	3.922244	-176.44	29.2034	1.047173	0.011773	0.011418	30.3381	11506.8	0.009796	0.008955	3387.68	111093
1163	2.000000	1.049521	7.37643e+06	-57439.1	1105.82	-29736.8	0.000000	0.000000	7.050922	32.3655	NaN	0.000000	0.001554	0.001697	28.0812	21.5778	0.001852	11650.4	4.421318	-175.492	32.4131	1.049221	0.013766	0.013466	32.3655	11650.4	0.011682	0.011112	2912.71	100977
1163	2.000000	1.051510	7.37643e+06	-57439.1	1105.82	-29736.8	0.000000	0.000000	7.053176	38.7934	NaN	0.000000	0.001578	0.001665	28.0806	23.3611	0.001773	13173.5	7.522500	-179.857	38.9326	1.051151	0.015755	0.015396	38.7934	13173.5	0.013547	0.013396	2895.9	103989
1163	2.000000	1.053507	7.37643e+06	-57439.1	1105.82	-29736.8	0.000000	0.000000	7.055531	47.5192	NaN	0.000000	0.001605	0.001674	28.082	25.3823	0.001825	13911	3.843180	-176.537	47.0074	1.053145	0.017752	0.017390	47.5192	13911	0.015190	0.015540	3057.96	101956
1163	2.000000	1.055512	7.37643e+06	-57439.1	1105.82	-29736.8	0.000000	0.000000	7.057802	53.9687	NaN	0.000000	0.001633	0.001658	28.082	27.4354	0.001725	15900.4	4.381990	-179.86	52.4053	1.055098	0.019757	0.019343	53.9687	15900.4	0.017212	0.018349	2941.3	107246
1163	2.000000	1.057442	7.37643e+06	-57439.1	1105.82	-29736.8	0.000000	0.000000	7.060045	61.5759	NaN	0.000000	0.001623	0.001674	28.0817	28.8285	0.001756	16420	5.278227	179.702	59.1161	1.057131	0.021687	0.021376	61.5759	16420	0.018875	0.020805	2959.7	104008
1163	2.000000	1.059454	7.37643e+06	-57439.1	1105.82	-29736.8	0.000000	0.000000	7.062364	69.0228	NaN	0.000000	0.001631	0.001660	28.0827	31.6752	0.001701	18624.3	3.303976	-179.483	67.6807	1.059174	0.023699	0.023419	69.0228	18624.3	0.020920	0.024009	2874.93	109817
1163	2.000000	1.061490	7.37643e+06	-57439.1	1105.82	-29736.8	0.000000	0.000000	7.064733	77.1334	NaN	0.000000	0.001624	0.001674	28.0818	33.0167	0.001880	17557.9	5.206803	179.374	76.1432	1.061158	0.025736	0.025403	77.1334	17557.9	0.022441	0.026524	2908.08	98498.2
1163	2.000000	1.063541	7.37643e+06	-57439.1	1105.82	-29736.8	0.000000	0.000000	7.067074	84.1786	NaN	0.000000	0.001576	0.001683	28.0819	35.6556	0.001848	19296.2	9.987099	175.428	86.9156	1.063117	0.027786	0.027362	84.1786	19296.2	0.024515	0.030138	2793.07	101551
1163	2.000000	1.065441	7.37643e+06	-57439.1	1105.82	-29736.8	0.000000	0.000000	7.069313	92.4275	NaN	0.000000	0.001570	0.001727	28.082	37.3678	0.001846	20238	3.725306	179.643	90.4466	1.065140	0.029686	0.029385	92.4275	20238	0.026261	0.033349	2771.52	101251
1163	2.000000	1.067439	7.37643e+06	-57439.1	1105.82	-29736.8	0.000000	0.000000	7.071754	103.177	NaN	0.000000	0.001587	0.001720	28.0818	39.56	0.001851	21378	7.199230	175.078	101.939	1.067176	0.031684	0.031422	103.177	21378	0.028065	0.036828	2801.6	101777
1163	2.000000	1.069453	7.37643e+06	-57439.1	1105.82	-29736.8	0.000000	0.000000	7.074284	115.731	NaN	0.000000	0.001602	0.001706	28.0829	41.8054	0.001871	22349.7	6.151040	176.627	115.414	1.069141	0.033698	0.033386	115.731	22349.7	0.029814	0.040360	2867.47	101641
1163	2.000000	1.071439	7.37643e+06	-57439.1	1105.82	-29736.8	0.000000	0.000000	7.076761	127.661	NaN	0.000000	0.001550	0.001687	28.0818	42.4151	0.001700	24947.7	5.519103	175.533	127.655	1.071150	0.035684	0.035395	127.661	24947.7	0.031846	0.044657	2858.71	107860
1163	2.000000	1.073402	7.37643e+06	-57439.1	1105.82	-29736.8	0.000000	0.000000	7.079134	137.644	NaN	0.000000	0.001565	0.001690	28.0828	44.7862	0.001818	24631.8	2.197428	178.735	134.993	1.073227	0.037647	0.037473	137.644	24631.8	0.033456	0.048211	2855.02	102493
1163	2.000000	1.075502	7.37643e+06	-57439.1	1105.82	-29736.8	0.000000	0.000000	7.081865	152.971	NaN	0.000000	0.001612	0.001692	28.082	47.014	0.001752	26830.2	6.529574	174.717	153.571	1.075090	0.039747	0.039335	152.971	26830.2	0.035471	0.052848	2894.51	106630
1163	2.000000	1.077387	7.37643e+06	-57439.1	1105.82	-29736.8	0.000000	0.000000	7.084352	167.586	NaN	0.000000	0.001601	0.001695	28.082	47.4894	0.001750	27142.5	-0.703365	-178.477	164.825	1.077147	0.041633	0.041392	167.586	27142.5	0.037002	0.056510	2965.6	104318
1163	2.000000	1.079441	7.37643e+06	-57439.1	1105.82	-29736.8	0.000000	0.000000	7.086946	180.722	NaN	0.000000	0.001623	0.001674	28.0821	51.3879	0.001907	26947.7	5.966409	175.412	180.29	1.079011	0.043686	0.043256	180.722	26947.7	0.038657	0.060603	2982.08	100011
1163	2.000000	1.081387	7.37643e+06	-57439.1	1105.82	-29736.8	0.000000	0.000000	7.089402	193.126	NaN	0.000000	0.001592	0.001650	28.0819	51.1619	0.001793	28532.8	1.974898	178.746	188.171	1.081086	0.045632	0.045331	193.126	28532.8	0.040556	0.065472	2949.73	101880
1163	2.000000	1.083363	7.37643e+06	-57439.1	1105.82	-29736.8	0.000000	0.000000	7.091778	202.822	NaN	0.000000	0.001559	0.001667	28.0821	53.8672	0.001698	31716.8	3.171788	175.813	197.45	1.083024	0.047608	0.047269	202.822	31716.8	0.042812	0.071498	2836.73	108372
1163	2.000000	1.085460	7.37643e+06	-57439.1	1105.82	-29736.8	0.000000	0.000000	7.094537	218.915	NaN	0.000000	0.001596	0.001700	28.082	56.9482	0.001776	32059.1	3.862245	175.502	218.325	1.085186	0.049706	0.049431	218.915	32059.1	0.044584	0.076412	2864.94	105961
1163	2.000000	1.087401	7.37643e+06	-57439.1	1105.82	-29736.8	0.000000	0.000000	7.097285	238.541	NaN	0.000000	0.001598	0.001693	28.081	58.9784	0.001847	31926.4	6.275734	172.507	236.32	1.087118	0.051646	0.051364	238.541	31926.4	0.046043	0.080575	2960.48	102760
1163	2.000000	1.089419	7.37643e+06	-57439.1	1105.82	-29736.8	0.000000	0.000000	7.099905	253.167	NaN	0.000000	0.001574	0.001653	28.0808	60.0839	0.001775	33850.5	3.536082	175.683	251.79	1.089103	0.053664	0.053348	253.167	33850.5	0.048055	0.086497	2926.9	105157
1163	2.000000	1.091342	7.37643e+06	-57439.1	1105.82	-29736.8	0.000000	0.000000	7.102325	265.249	NaN	0.000000	0.001572	0.001657	28.0807	60.6993	0.001827	33218.4	1.490265	177.554	259.991	1.091116	0.055587	0.055361	265.249	33218.4	0.049599	0.091177	2909.17	100510
1163	2.000000	1.093350	7.37643e+06	-57439.1	1105.82	-29736.8	0.000000	0.000000	7.104849	277.79	NaN	0.000000	0.001582	0.001693	28.0806	63.5866	0.001874	33927.1	1.744410	176.805	273.512	1.093157	0.057595	0.057402	277.79	33927.1	0.051454	0.096960	2864.98	99545.7
1163	2.000000	1.095452	7.37643e+06	-57439.1	1105.82	-29736.8	0.000000	0.000000	7.107592	293.39	NaN	0.000000	0.001556	0.001678	28.0805	64.7721	0.001797	36044.1	0.465484	177.866	290.493	1.095072	0.059697	0.059317	293.39	36044.1	0.053592	0.103839	2825.44	102195
1163	2.000000	1.097468	7.37643e+06	-57439.1	1105.82	-29736.8	0.000000	0.000000	7.110126	305.952	NaN	0.000000	0.001588	0.001678	28.0807	67.0315	0.001779	37680.6	6.268025	171.417	306.349	1.097217	0.061713	0.061462	305.952	37680.6	0.055624	0.110585	2766.67	103524
1163	2.000000	1.099413	7.37643e+06	-57439.1	1105.82	-29736.8	0.000000	0.000000	7.113064	330.097	NaN	0.000000	0.001555	0.001668	28.0808	69.3045	0.001818	38125.7	5.141584	173.37	328.014	1.098955	0.063659	0.063201	330.097	38125.7	0.057165	0.115839	2849.61	102344
1163	2.000000	1.101335	7.37643e+06	-57439.1	1105.82	-29736.8	0.000000	0.000000	7.115743	348.484	NaN	0.000000	0.001547	0.001663	28.0809	69.6494	0.001801	38665	5.503505	172.179	342.499	1.100943	0.065581	0.065188	348.484	38665	0.058821	0.121614	2865.49	101298
1163	2.000000	1.103370	7.37643e+06	-57439.1	1105.82	-29736.8	0.000000	0.000000	7.118248	359.939	NaN	0.000000	0.001581	0.001690	28.0809	71.079	0.001798	39534.5	4.659188	172.889	355.726	1.102965	0.067615	0.067210	359.939	39534.5	0.060786	0.128643	2797.96	100706
1163	2.000000	1.105454	7.37643e+06	-57439.1	1105.82	-29736.8	0.000000	0.000000	7.120546	365.117	NaN	0.000000	0.001573	0.001666	28.0807	73.931	0.001820	40627.7	7.561318	169.966	364.118	1.105033	0.069700	0.069279	365.117	40627.7	0.062959	0.136634	2672.23	100419
1163	2.000000	1.107434	7.37643e+06	-57439.1	1105.82	-29736.8	0.000000	0.000000	7.123192	381.313	NaN	0.000000	0.001582	0.001665	28.0807	74.9451	0.001790	41870.9	7.210790	170.101	384.741	1.107151	0.071679	0.071397	381.313	41870.9	0.064849	0.143768	2652.28	100892
1163	2.000000	1.109293	7.37643e+06	-57439.1	1105.82	-29736.8	0.000000	0.000000	7.126005	404.489	NaN	0.000000	0.001563	0.001685	28.0808	77.0057	0.001830	42083.6	6.281544	170.991	398.085	1.109081	0.073538	0.073326	404.489	42083.6	0.066330	0.149479	2706	99448.1
1163	2.000000	1.111320	7.37643e+06	-57439.1	1105.82	-29736.8	0.000000	0.000000	7.128372	412.754	NaN	0.000000	0.001584	0.001680	28.0809	76.4206	0.001798	42491.8	1.281274	176.143	408.389	1.111175	0.075565	0.075420	412.754	42491.8	0.068280	0.157161	2626.31	97927.7
1163	2.000000	1.113343	7.37643e+06	-57439.1	1105.82	-29736.8	0.000000	0.000000	7.130520	415.779	NaN	0.000000	0.001565	0.001701	28.0812	79.2355	0.001794	44163.8	2.117555	174.573	412.406	1.113070	0.077588	0.077316	415.779	44163.8	0.070528	0.166240	2501.07	98962.7
1163	2.000000	1.115456	7.37643e+06	-57439.1	1105.82	-29736.8	0.000000	0.000000	7.133549	438.077	NaN	0.000000	0.001571	0.001675	28.0808	82.7468	0.001963	42148.8	6.521242	170.594	438.72	1.115133	0.079701	0.079378	438.077	42148.8	0.071906	0.171926	2548.05	92872.6
1163	2.000000	1.117341	7.37643e+06	-57439.1	1105.82	-29736.8	0.000000	0.000000	7.135933	450.198	NaN	0.000000	0.001548	0.001697	28.0807	82.9346	0.001802	46029.9	2.703358	173.883	447.632	1.116981	0.081586	0.081226	450.198	46029.9	0.074251	0.181808	2476.23	98629.5
1163	2.000000	1.119351	7.37643e+06	-57439.1	1105.82	-29736.8	0.000000	0.000000	7.138770	470.287	NaN	0.000000	0.001556	0.001728	28.0804	85.5989	0.001915	44691	5.126114	171.739	467.493	1.119160	0.083596	0.083405	470.287	44691	0.075704	0.188063	2500.69	94154.7
1163	2.000000	1.121334	7.37643e+06	-57439.1	1105.82	-29736.8	0.000000	0.000000	7.141681	492.829	NaN	0.000000	0.001566	0.001705	28.082	85.4073	0.001902	44893.6	3.217126	174.251	489.379	1.120976	0.085579	0.085221	492.829	44893.6	0.077346	0.195248	2524.12	92825
1163	2.000000	1.123335	7.37643e+06	-57439.1	1105.82	-29736.8	0.000000	0.000000	7.144253	506.695	NaN	0.000000	0.001579	0.001681	28.0823	88.3608	0.001910	46260.8	3.800133	172.369	502.757	1.123140	0.087581	0.087385	506.695	46260.8	0.079366	0.204260	2480.63	93517.9
1163	2.000000	1.125377	7.37643e+06	-57439.1	1105.82	-29736.8	0.000000	0.000000	7.146285	506.474	NaN	0.000000	0.001534	0.001701	28.082	89.1345	0.001792	49735.4	4.789579	170.988	504.359	1.125161	0.089622	0.089406	506.474	49735.4	0.081984	0.216226	2342.34	97720.3
1163	2.000000	1.127575	7.37643e+06	-57439.1	1105.82	-29736.8	0.000000	0.000000	7.149767	537.659	NaN	0.000000	0.001553	0.001672	28.0818	91.5857	0.001834	49927.1	12.192	164.682	547.704	1.127062	0.091821	0.091308	537.659	49927.1	0.083744	0.224447	2395.49	96283.8
1163	2.000000	1.129330	7.37643e+06	-57439.1	1105.82	-29736.8	0.000000	0.000000	7.152236	555.03	NaN	0.000000	0.001540	0.001678	28.082	92.0238	0.001940	47443.7	4.811519	172.123	552.787	1.128915	0.093575	0.093160	555.03	47443.7	0.084801	0.229454	2418.92	90490.9
1163	2.000000	1.131245	7.37643e+06	-57439.1	1105.82	-29736.8	0.000000	0.000000	7.154845	571.899	NaN	0.000000	0.001506	0.001703	28.0818	91.293	0.001728	52846.3	2.063269	173.824	565.855	1.131049	0.095490	0.095294	571.899	52846.3	0.087374	0.241855	2364.64	98177.1
1163	2.000000	1.133238	7.37643e+06	-57439.1	1105.82	-29736.8	0.000000	0.000000	7.156248	557.558	NaN	0.000000	0.001514	0.001716	28.082	93.4647	0.001671	55947	0.836616	174.281	549.172	1.133061	0.097483	0.097306	557.558	55947	0.090009	0.254874	2187.59	101248
1163	2.000000	1.135348	7.37643e+06	-57439.1	1105.82	-29736.8	0.000000	0.000000	7.160016	597.859	NaN	0.000000	0.001521	0.001698	28.082	97.3396	0.001841	52870.4	4.761069	170.926	593.695	1.135038	0.099594	0.099283	597.859	52870.4	0.091113	0.260421	2295.74	94656
1163	2.000000	1.136894	7.37643e+06	-57439.1	1105.82	-29736.8	0.000000	0.000000	7.162003	608.58	NaN	0.000000	0.001528	0.001707	28.0817	98.6488	0.001809	54521.8	2.225629	-6.893914	607.025	1.136656	0.101139	0.100902	608.58	54521.8	0.092767	0.268842	2263.71	96071.7