File: remote_trans/data/nanoindenter/0828-1/data/Data_2025-08-06,11h17m57s/2025-07-22_16-23-58_1_129.txt
2025-07-22, 16:23:58, 1
Index	Phase	Displacement	Time	Pos X	Pos Y	Pos Z	Rot A	Rot B	Piezo Z	Force A	Force B	Gripper	Voltage A	Voltage B	Temperature	Amplitude force	Amplitude pos	Stiffness	Phase shift	Phase excitation	Force A raw	Displacement raw	HMax	HMax raw	Real Force	Real Stiffness	Contact Depth	Area	Hardness	Reduced Mod.
[#]	[#]	[um]	[s]	[um]	[um]	[um]	[m°]	[m°]	[um]	[uN]	[uN]	[V]	[V]	[V]	[°C]	[uN]	[um]	[N/m]	[°]	[°]	[uN]	[um]	[um]	[um]	[uN]	[N/m]	[um]	[um^2]	[MPa]	[MPa]
129	1.000000	0.002434	7.3663e+06	-45089.1	955.818	-29773.5	0.000000	0.000000	6.002793	-0.030615	NaN	0.000000	0.001615	0.001704	28.1165	0.050831	0.000792	64.2178	99.3432	-163.222	-0.033889	0.001166	-1.756658	-1.757927	-0.030615	64.2178	-1.756300	-2.845229E+23	1.076018E-25	NaN
129	1.000000	0.014446	7.3663e+06	-45089.1	955.819	-29773.5	0.000000	0.000000	6.014804	-0.050276	NaN	0.000000	0.001662	0.001657	28.0815	0.140461	0.001726	81.4017	134.877	-166.41	-0.048184	0.013283	-1.744646	-1.745810	-0.050276	81.4017	-1.744183	-1.964406E+23	2.559353E-25	NaN
129	1.000000	0.026435	7.3663e+06	-45089.1	955.819	-29773.5	0.000000	0.000000	6.026791	-0.067914	NaN	0.000000	0.001646	0.001676	28.1176	0.086324	0.002003	43.0945	-33.3797	-169.058	0.089803	0.025072	-1.732658	-1.734020	-0.067914	43.0945	-1.731476	-1.331973E+23	5.098722E-25	NaN
129	1.000000	0.038451	7.3663e+06	-45089.1	955.818	-29773.5	0.000000	0.000000	6.038812	0.048429	NaN	0.000000	0.001642	0.001672	28.0804	0.079378	0.001823	43.5361	-122.546	-164.873	-0.022792	0.037070	-1.720641	-1.722022	0.048429	43.5361	-1.721476	-9.810517E+22	-4.936481E-25	NaN
129	1.000000	0.050395	7.3663e+06	-45089.1	955.818	-29773.5	0.000000	0.000000	6.050752	-0.048153	NaN	0.000000	0.001638	0.001710	28.1169	0.022545	0.002013	11.1972	-137.356	-163.554	-0.055783	0.049080	-1.708698	-1.710012	-0.048153	11.1972	-1.705473	-6.013622E+22	8.007248E-25	NaN
129	1.000000	0.062400	7.3663e+06	-45089.1	955.819	-29773.5	0.000000	0.000000	6.062759	-0.008494	NaN	0.000000	0.001667	0.001681	28.0808	0.080901	0.002095	38.6167	141.473	-164.611	-0.065645	0.061100	-1.696693	-1.697992	-0.008494	38.6167	-1.696528	-4.574159E+22	1.856999E-25	NaN
129	1.000000	0.074428	7.3663e+06	-45089.1	955.819	-29773.5	0.000000	0.000000	6.074784	-0.076383	NaN	0.000000	0.001672	0.001703	28.1157	0.053536	0.001909	28.0469	-137.654	-166.852	-0.082089	0.073080	-1.684665	-1.686012	-0.076383	28.0469	-1.682622	-2.989242E+22	2.555254E-24	NaN
129	1.000000	0.086398	7.3663e+06	-45089.1	955.819	-29773.5	0.000000	0.000000	6.086756	-0.031308	NaN	0.000000	0.001645	0.001676	28.08	0.125144	0.002062	60.6804	140.334	-163.304	-0.072565	0.085099	-1.672694	-1.673994	-0.031308	60.6804	-1.672307	-2.180236E+22	1.435983E-24	NaN
129	1.000000	0.098401	7.3663e+06	-45089.1	955.818	-29773.5	0.000000	0.000000	6.098759	-0.026632	NaN	0.000000	0.001637	0.001730	28.1168	0.039198	0.002033	19.2789	-29.2008	-168.144	-0.025706	0.097087	-1.660691	-1.662006	-0.026632	19.2789	-1.659655	-1.480348E+22	1.799033E-24	NaN
129	1.000000	0.110401	7.3663e+06	-45089.1	955.818	-29773.5	0.000000	0.000000	6.110759	-0.031185	NaN	0.000000	0.001655	0.001719	28.0819	0.036627	0.001949	18.788	-178.156	-168.102	-0.025748	0.109067	-1.648692	-1.650025	-0.031185	18.788	-1.647447	-1.018816E+22	3.060861E-24	NaN
129	1.000000	0.122404	7.3663e+06	-45089.1	955.818	-29773.5	0.000000	0.000000	6.122764	0.011556	NaN	0.000000	0.001634	0.001653	28.1184	0.039228	0.002074	18.9109	-87.6722	-166.317	0.013206	0.121115	-1.636688	-1.637978	0.011556	18.9109	-1.637146	-7.433065E+21	-1.554736E-24	NaN
129	1.000000	0.134405	7.3663e+06	-45089.1	955.819	-29773.5	0.000000	0.000000	6.134761	-0.077217	NaN	0.000000	0.001616	0.001673	28.0805	0.026443	0.002056	12.8592	145.248	-168.835	-0.102406	0.133081	-1.624687	-1.626012	-0.077217	12.8592	-1.620184	-4.422211E+21	1.746128E-23	NaN
129	1.000000	0.146422	7.3663e+06	-45089.1	955.818	-29773.5	0.000000	0.000000	6.146783	0.044431	NaN	0.000000	0.001619	0.001695	28.1172	0.055733	0.002049	27.1936	27.596	-168.191	0.009768	0.145119	-1.612671	-1.613973	0.044431	27.1936	-1.613896	-3.647832E+21	-1.218012E-23	NaN
129	1.000000	0.158444	7.3663e+06	-45089.1	955.818	-29773.5	0.000000	0.000000	6.158802	-0.021163	NaN	0.000000	0.001627	0.001713	28.0799	0.054815	0.002045	26.8058	47.8243	-163.635	0.007741	0.157133	-1.600649	-1.601960	-0.021163	26.8058	-1.600057	-2.387695E+21	8.863415E-24	NaN
129	1.000000	0.170454	7.3663e+06	-45089.1	955.818	-29773.5	0.000000	0.000000	6.170814	0.016183	NaN	0.000000	0.001640	0.001726	28.1177	0.058471	0.002063	28.3483	-72.2296	-166.048	0.043168	0.169166	-1.588638	-1.589926	0.016183	28.3483	-1.589066	-1.705272E+21	-9.489689E-24	NaN
129	1.000000	0.182435	7.3663e+06	-45089.1	955.818	-29773.5	0.000000	0.000000	6.182793	-0.039850	NaN	0.000000	0.001648	0.001698	28.0822	0.031607	0.002073	15.2481	-149.166	-163.441	-0.010303	0.181170	-1.576658	-1.577922	-0.039850	15.2481	-1.574698	-1.098098E+21	3.629046E-23	NaN
129	1.000000	0.194451	7.3663e+06	-45089.1	955.819	-29773.5	0.000000	0.000000	6.194808	-0.043911	NaN	0.000000	0.001634	0.001737	28.119	0.064902	0.002010	32.2919	38.2538	-167.142	-0.064606	0.193144	-1.564642	-1.565948	-0.043911	32.2919	-1.563622	-7.821138E+20	5.614449E-23	NaN
129	1.000000	0.206469	7.3663e+06	-45089.1	955.819	-29773.5	0.000000	0.000000	6.206827	-0.035175	NaN	0.000000	0.001677	0.001713	28.0819	0.044888	0.002063	21.7612	149.484	-164.454	0.019781	0.205136	-1.552624	-1.553957	-0.035175	21.7612	-1.551412	-5.379985E+20	6.538174E-23	NaN
129	1.000000	0.218465	7.3663e+06	-45089.1	955.818	-29773.5	0.000000	0.000000	6.218823	-0.029307	NaN	0.000000	0.001661	0.001711	28.1178	0.009348	0.001979	4.724736	179.143	-166.697	-0.007968	0.217117	-1.540627	-1.541975	-0.029307	4.724736	-1.535975	-3.352129E+20	8.742797E-23	NaN
129	1.000000	0.230497	7.3663e+06	-45089.1	955.819	-29773.5	0.000000	0.000000	6.230856	-0.020757	NaN	0.000000	0.001655	0.001687	28.0805	0.028210	0.001956	14.4202	30.0027	-169.122	-0.010064	0.229130	-1.528595	-1.529963	-0.020757	14.4202	-1.527516	-2.586446E+20	8.025427E-23	NaN
129	1.000000	0.242467	7.3663e+06	-45089.1	955.819	-29773.5	0.000000	0.000000	6.242828	0.025761	NaN	0.000000	0.001645	0.001702	28.1168	0.140775	0.002058	68.3966	-30.5783	-164.783	0.002824	0.241189	-1.516625	-1.517904	0.025761	68.3966	-1.516908	-1.868393E+20	-1.378790E-22	NaN
129	1.000000	0.254492	7.3663e+06	-45089.1	955.818	-29773.5	0.000000	0.000000	6.254851	-0.015235	NaN	0.000000	0.001573	0.001672	28.0811	0.038698	0.001890	20.4738	141.614	-164.842	-0.033180	0.253162	-1.504601	-1.505930	-0.015235	20.4738	-1.504043	-1.259367E+20	1.209709E-22	NaN
129	1.000000	0.266465	7.3663e+06	-45089.1	955.819	-29773.4	0.000000	0.000000	6.266823	-0.010173	NaN	0.000000	0.001585	0.001720	28.1182	0.062175	0.001885	32.9775	168.758	-162.962	0.027032	0.265171	-1.492628	-1.493921	-0.010173	32.9775	-1.492397	-8.811356E+19	1.154576E-22	NaN
129	1.000000	0.278480	7.3663e+06	-45089.1	955.819	-29773.4	0.000000	0.000000	6.278837	-0.072050	NaN	0.000000	0.001560	0.001726	28.0813	0.022772	0.002049	11.1115	155.028	-166.864	-0.064121	0.277176	-1.480612	-1.481917	-0.072050	11.1115	-1.475749	-5.287758E+19	1.362576E-21	NaN
129	1.000000	0.290495	7.3663e+06	-45089.1	955.818	-29773.4	0.000000	0.000000	6.290858	0.075980	NaN	0.000000	0.001561	0.001732	28.1177	0.047931	0.001958	24.4835	-34.0448	-164.63	0.053391	0.289161	-1.468597	-1.469931	0.075980	24.4835	-1.470925	-4.560289E+19	-1.666132E-21	NaN
129	1.000000	0.302503	7.3663e+06	-45089.1	955.818	-29773.4	0.000000	0.000000	6.302862	0.000153	NaN	0.000000	0.001581	0.001740	28.0795	0.142236	0.002072	68.6334	-99.8427	-161.438	0.109621	0.301202	-1.456590	-1.457890	0.000153	68.6334	-1.456591	-2.937609E+19	-5.195581E-24	NaN
129	1.000000	0.314485	7.3663e+06	-45089.1	955.819	-29773.4	0.000000	0.000000	6.314844	-0.018251	NaN	0.000000	0.001607	0.001711	28.1171	0.063400	0.001827	34.6922	55.3168	-168.284	-0.020736	0.313147	-1.444607	-1.445945	-0.018251	34.6922	-1.444213	-2.009130E+19	9.084093E-22	NaN
129	1.000000	0.326518	7.3663e+06	-45089.1	955.819	-29773.4	0.000000	0.000000	6.326879	0.034303	NaN	0.000000	0.001597	0.001735	28.0803	0.008378	0.002049	4.088241	-145.184	-166.836	0.004926	0.325199	-1.432574	-1.433893	0.034303	4.088241	-1.438867	-1.705106E+19	-2.011771E-21	NaN
129	1.000000	0.338517	7.3663e+06	-45089.1	955.818	-29773.4	0.000000	0.000000	6.338878	0.039690	NaN	0.000000	0.001595	0.001691	28.1184	0.060727	0.002071	29.3285	160.053	-164.083	-0.021268	0.337203	-1.420575	-1.421890	0.039690	29.3285	-1.421590	-1.003240E+19	-3.956206E-21	NaN
129	1.000000	0.350516	7.3663e+06	-45089.1	955.819	-29773.4	0.000000	0.000000	6.350875	-0.013934	NaN	0.000000	0.001565	0.001680	28.0806	0.113343	0.002012	56.3452	-66.8155	-166.63	0.001113	0.349286	-1.408576	-1.409807	-0.013934	56.3452	-1.408391	-6.689331E+18	2.083014E-21	NaN
129	1.000000	0.362500	7.3663e+06	-45089.1	955.818	-29773.4	0.000000	0.000000	6.362860	0.030492	NaN	0.000000	0.001583	0.001669	28.1182	0.044585	0.001975	22.5765	-3.844992	-164.699	0.007992	0.361235	-1.396593	-1.397858	0.030492	22.5765	-1.397606	-4.803190E+18	-6.348208E-21	NaN
129	1.000000	0.374552	7.3663e+06	-45089.1	955.818	-29773.4	0.000000	0.000000	6.374913	0.029261	NaN	0.000000	0.001543	0.001729	28.0803	0.116145	0.001947	59.6669	146.119	-166.689	0.040859	0.373250	-1.384540	-1.385842	0.029261	59.6669	-1.384908	-3.251837E+18	-8.998246E-21	NaN
129	1.000000	0.386548	7.3663e+06	-45089.1	955.817	-29773.4	0.000000	0.000000	6.386905	-0.059879	NaN	0.000000	0.001571	0.001679	28.1188	0.199902	0.001948	102.615	-139.44	-165.755	-0.038848	0.385276	-1.372545	-1.373817	-0.059879	102.615	-1.372107	-2.194394E+18	2.728730E-20	NaN
129	1.000000	0.398526	7.3663e+06	-45089.1	955.818	-29773.4	0.000000	0.000000	6.398886	0.001077	NaN	0.000000	0.001595	0.001669	28.081	0.006433	0.002114	3.043387	177.902	-163.338	-0.025842	0.397216	-1.360566	-1.361876	0.001077	3.043387	-1.360832	-1.551752E+18	-6.939081E-22	NaN
129	1.000000	0.410529	7.3663e+06	-45089.1	955.818	-29773.4	0.000000	0.000000	6.410888	-0.009408	NaN	0.000000	0.001577	0.001691	28.1188	0.034064	0.001808	18.841	39.835	-167.811	-0.012233	0.409189	-1.348563	-1.349903	-0.009408	18.841	-1.348189	-1.052082E+18	8.941900E-21	NaN
129	1.000000	0.422538	7.3663e+06	-45089.1	955.818	-29773.4	0.000000	0.000000	6.422896	-0.027391	NaN	0.000000	0.001561	0.001692	28.0824	0.076380	0.001959	38.982	49.1782	-166.808	-0.027214	0.421280	-1.336555	-1.337812	-0.027391	38.982	-1.336028	-7.238859E+17	3.783819E-20	NaN
129	1.000000	0.434555	7.3663e+06	-45089.1	955.819	-29773.4	0.000000	0.000000	6.434916	0.043814	NaN	0.000000	0.001581	0.001725	28.1198	0.081849	0.002036	40.1919	174.934	-167.295	0.011053	0.433217	-1.324538	-1.325875	0.043814	40.1919	-1.325355	-5.213587E+17	-8.403791E-20	NaN
129	1.000000	0.446562	7.3663e+06	-45089.1	955.818	-29773.4	0.000000	0.000000	6.446920	-0.031367	NaN	0.000000	0.001564	0.001721	28.081	0.078536	0.002087	37.6379	-66.21	-164.772	-0.050482	0.445252	-1.312531	-1.313840	-0.031367	37.6379	-1.311906	-3.447259E+17	9.098978E-20	NaN
129	1.000000	0.458562	7.3663e+06	-45089.1	955.818	-29773.4	0.000000	0.000000	6.458920	-0.020677	NaN	0.000000	0.001578	0.001681	28.119	0.090933	0.002079	43.7434	-173.977	-165.487	0.028562	0.457222	-1.300531	-1.301870	-0.020677	43.7434	-1.300176	-2.402990E+17	8.604719E-20	NaN
129	1.000000	0.470576	7.3663e+06	-45089.1	955.818	-29773.4	0.000000	0.000000	6.470934	-0.029122	NaN	0.000000	0.001566	0.001704	28.0812	0.009590	0.002071	4.631042	-173.494	-167.168	-0.046990	0.469287	-1.288516	-1.289806	-0.029122	4.631042	-1.283800	-1.451718E+17	2.006035E-19	NaN
129	1.000000	0.482564	7.3663e+06	-45089.1	955.818	-29773.4	0.000000	0.000000	6.482921	-0.053132	NaN	0.000000	0.001541	0.001652	28.119	0.043061	0.001889	22.7992	-71.431	-165.544	-0.105876	0.481270	-1.276529	-1.277823	-0.053132	22.7992	-1.274781	-1.099791E+17	4.831088E-19	NaN
129	1.000000	0.494598	7.3663e+06	-45089.1	955.818	-29773.4	0.000000	0.000000	6.494955	-0.057473	NaN	0.000000	0.001517	0.001666	28.0813	0.158930	0.001981	80.2172	55.5485	-162.892	-0.041446	0.493300	-1.264495	-1.265792	-0.057473	80.2172	-1.263957	-7.881181E+16	7.292415E-19	NaN
129	1.000000	0.506598	7.3663e+06	-45089.1	955.818	-29773.4	0.000000	0.000000	6.506958	0.001503	NaN	0.000000	0.001507	0.001670	28.1198	0.111581	0.001933	57.7315	-101.456	-165.902	-0.024229	0.505296	-1.252494	-1.253796	0.001503	57.7315	-1.252514	-5.540433E+16	-2.712585E-20	NaN
129	1.000000	0.518568	7.3663e+06	-45089.1	955.818	-29773.4	0.000000	0.000000	6.518929	0.050535	NaN	0.000000	0.001529	0.001681	28.081	0.101352	0.002016	50.2736	73.3362	-164.761	0.025802	0.517270	-1.240525	-1.241822	0.050535	50.2736	-1.241279	-3.919672E+16	-1.289260E-18	NaN
129	1.000000	0.530587	7.3663e+06	-45089.1	955.819	-29773.4	0.000000	0.000000	6.530948	0.042722	NaN	0.000000	0.001546	0.001693	28.1192	0.089854	0.001901	47.26	-158.584	-165.817	-0.026988	0.529281	-1.228506	-1.229811	0.042722	47.26	-1.229184	-2.700328E+16	-1.582091E-18	NaN
129	1.000000	0.542627	7.3663e+06	-45089.1	955.819	-29773.4	0.000000	0.000000	6.542986	-0.013255	NaN	0.000000	0.001578	0.001656	28.0788	0.059926	0.001902	31.5005	-2.191984	-166.958	-0.121013	0.541290	-1.216465	-1.217803	-0.013255	31.5005	-1.216150	-1.807027E+16	7.335352E-19	NaN
129	1.000000	0.554585	7.3663e+06	-45089.1	955.818	-29773.4	0.000000	0.000000	6.554942	-0.042457	NaN	0.000000	0.001599	0.001697	28.118	0.119518	0.001962	60.9167	-165.335	-166.557	0.014368	0.553314	-1.204508	-1.205779	-0.042457	60.9167	-1.203985	-1.241966E+16	3.418564E-18	NaN
129	1.000000	0.566601	7.3663e+06	-45089.1	955.818	-29773.4	0.000000	0.000000	6.566961	0.024093	NaN	0.000000	0.001567	0.001680	28.0784	0.027340	0.002003	13.6478	150.046	-162.665	-0.026881	0.565287	-1.192492	-1.193805	0.024093	13.6478	-1.193816	-9.076787E+15	-2.654323E-18	NaN
129	1.000000	0.578633	7.3663e+06	-45089.1	955.819	-29773.4	0.000000	0.000000	6.578993	0.019081	NaN	0.000000	0.001599	0.001672	28.1197	0.066966	0.002074	32.285	-164.627	-167.815	0.015231	0.577301	-1.180459	-1.181791	0.019081	32.285	-1.180903	-6.094839E+15	-3.130605E-18	NaN
129	1.000000	0.590594	7.3663e+06	-45089.1	955.818	-29773.4	0.000000	0.000000	6.590953	-0.024385	NaN	0.000000	0.001540	0.001686	28.081	0.048139	0.001791	26.8733	-42.9377	-164.242	-0.005959	0.589264	-1.168498	-1.169828	-0.024385	26.8733	-1.167818	-4.070434E+15	5.990746E-18	NaN
129	1.000000	0.602617	7.3663e+06	-45089.1	955.818	-29773.4	0.000000	0.000000	6.602977	0.004332	NaN	0.000000	0.001561	0.001684	28.1195	0.065677	0.001940	33.8474	-143.201	-166.482	0.007197	0.601334	-1.156475	-1.157759	0.004332	33.8474	-1.156571	-2.876793E+15	-1.505978E-18	NaN
129	1.000000	0.614632	7.3663e+06	-45089.1	955.818	-29773.4	0.000000	0.000000	6.614990	-0.015716	NaN	0.000000	0.001521	0.001674	28.0787	0.018019	0.001948	9.251358	118.868	-167.09	0.037459	0.613311	-1.144461	-1.145782	-0.015716	9.251358	-1.143187	-1.903132E+15	8.257712E-18	NaN
129	1.000000	0.626649	7.3663e+06	-45089.1	955.818	-29773.4	0.000000	0.000000	6.627005	-0.086069	NaN	0.000000	0.001506	0.001679	28.1182	0.067892	0.001989	34.1395	-111.687	-164.992	-0.031780	0.625291	-1.132443	-1.133801	-0.086069	34.1395	-1.130552	-1.288340E+15	6.680586E-17	NaN
129	1.000000	0.638638	7.3663e+06	-45089.1	955.818	-29773.4	0.000000	0.000000	6.638998	-0.002061	NaN	0.000000	0.001489	0.001670	28.0789	0.079594	0.001948	40.8516	-88.6955	-166.077	-0.018630	0.637321	-1.120454	-1.121772	-0.002061	40.8516	-1.120416	-9.420139E+14	2.187372E-18	NaN
129	1.000000	0.650622	7.3663e+06	-45089.1	955.819	-29773.4	0.000000	0.000000	6.650982	0.013259	NaN	0.000000	0.001522	0.001636	28.1198	0.022581	0.002112	10.69	-91.2731	-163.403	0.002877	0.649346	-1.108471	-1.109747	0.013259	10.69	-1.109401	-6.702650E+14	-1.978230E-17	NaN
129	1.000000	0.662637	7.3663e+06	-45089.1	955.818	-29773.4	0.000000	0.000000	6.662997	0.009869	NaN	0.000000	0.001511	0.001638	28.0821	0.054654	0.001957	27.9345	-171.713	-166.747	0.070492	0.661348	-1.096456	-1.097745	0.009869	27.9345	-1.096721	-4.529432E+14	-2.178912E-17	NaN
129	1.000000	0.674666	7.3663e+06	-45089.1	955.818	-29773.4	0.000000	0.000000	6.675026	0.027641	NaN	0.000000	0.001497	0.001691	28.1208	0.160025	0.002026	78.9766	-70.1911	-165.714	0.030095	0.673335	-1.084427	-1.085758	0.027641	78.9766	-1.084689	-3.122463E+14	-8.852348E-17	NaN
129	1.000000	0.686655	7.3663e+06	-45089.1	955.818	-29773.4	0.000000	0.000000	6.687016	0.043671	NaN	0.000000	0.001521	0.001693	28.0817	0.154170	0.001875	82.2243	96.1149	-167.873	-0.085910	0.685367	-1.072437	-1.073725	0.043671	82.2243	-1.072836	-2.164131E+14	-2.017941E-16	NaN
129	1.000000	0.698687	7.3663e+06	-45089.1	955.818	-29773.4	0.000000	0.000000	6.699047	0.007374	NaN	0.000000	0.001470	0.001682	28.1197	0.036812	0.001939	18.9811	32.5265	-163.954	0.004856	0.697353	-1.060405	-1.061739	0.007374	18.9811	-1.060696	-1.486553E+14	-4.960163E-17	NaN
129	1.000000	0.710635	7.3663e+06	-45089.1	955.819	-29773.4	0.000000	0.000000	6.710996	0.026365	NaN	0.000000	0.001501	0.001669	28.0793	0.078422	0.002091	37.5056	142.747	-165.525	-0.017858	0.709322	-1.048457	-1.049770	0.026365	37.5056	-1.048984	-1.034573E+14	-2.548387E-16	NaN
129	1.000000	0.722698	7.3663e+06	-45089.1	955.818	-29773.4	0.000000	0.000000	6.723059	0.046768	NaN	0.000000	0.001495	0.001720	28.1204	0.094179	0.001972	47.7677	-86.2881	-164.693	0.000263	0.721312	-1.036395	-1.037780	0.046768	47.7677	-1.037129	-7.167426E+13	-6.525038E-16	NaN
129	1.000000	0.734689	7.3663e+06	-45089.1	955.818	-29773.4	0.000000	0.000000	6.735050	0.031424	NaN	0.000000	0.001496	0.001649	28.0823	0.106117	0.001950	54.4278	154.367	-166.445	0.018696	0.733365	-1.024403	-1.025727	0.031424	54.4278	-1.024836	-4.898025E+13	-6.415597E-16	NaN
129	1.000000	0.746653	7.3663e+06	-45089.1	955.817	-29773.4	0.000000	0.000000	6.747013	0.027921	NaN	0.000000	0.001512	0.001685	28.1215	0.052169	0.001977	26.3916	39.0194	-165.701	0.028340	0.745390	-1.012439	-1.013702	0.027921	26.3916	-1.013233	-3.418949E+13	-8.166597E-16	NaN
129	1.000000	0.758672	7.3663e+06	-45089.1	955.818	-29773.4	0.000000	0.000000	6.759032	0.026339	NaN	0.000000	0.001554	0.001745	28.0822	0.046557	0.001961	23.7445	-88.4938	-166.736	0.046423	0.757401	-1.000421	-1.001691	0.026339	23.7445	-1.001253	-2.358506E+13	-1.116762E-15	NaN
129	1.000000	0.770683	7.3663e+06	-45089.1	955.819	-29773.4	0.000000	0.000000	6.771041	-0.044347	NaN	0.000000	0.001522	0.001720	28.1213	0.119440	0.002004	59.5873	-162.018	-164.606	-0.069545	0.769378	-0.988409	-0.989715	-0.044347	59.5873	-0.987851	-1.556576E+13	2.849031E-15	NaN
129	1.000000	0.782721	7.3663e+06	-45089.1	955.818	-29773.4	0.000000	0.000000	6.783080	-0.004327	NaN	0.000000	0.001519	0.001676	28.0796	0.100511	0.002101	47.8479	134.077	-164.706	0.026710	0.781394	-0.976372	-0.977699	-0.004327	47.8479	-0.976304	-1.087955E+13	3.976989E-16	NaN
129	1.000000	0.794709	7.3663e+06	-45089.1	955.818	-29773.4	0.000000	0.000000	6.795068	-0.014117	NaN	0.000000	0.001532	0.001755	28.1193	0.049343	0.001962	25.1505	29.8581	-167.641	-0.064228	0.793356	-0.964383	-0.965736	-0.014117	25.1505	-0.963962	-7.417987E+12	1.903015E-15	NaN
129	1.000000	0.806729	7.3663e+06	-45089.1	955.818	-29773.4	0.000000	0.000000	6.807089	0.013915	NaN	0.000000	0.001538	0.001716	28.0793	0.117205	0.002104	55.7104	-51.6634	-164.509	0.044146	0.805402	-0.952363	-0.953690	0.013915	55.7104	-0.952550	-5.205007E+12	-2.673468E-15	NaN
129	1.000000	0.818714	7.3663e+06	-45089.1	955.819	-29773.4	0.000000	0.000000	6.819074	0.016141	NaN	0.000000	0.001531	0.001709	28.1204	0.098761	0.001906	51.8109	141.71	-165.303	-0.036451	0.817381	-0.940378	-0.941711	0.016141	51.8109	-0.940612	-3.592493E+12	-4.493060E-15	NaN
129	1.000000	0.830705	7.3663e+06	-45089.1	955.818	-29773.4	0.000000	0.000000	6.831065	0.019478	NaN	0.000000	0.001600	0.001715	28.0797	0.081869	0.002064	39.6592	164.496	-168.563	-0.048292	0.829426	-0.928388	-0.929666	0.019478	39.6592	-0.928756	-2.485452E+12	-7.836904E-15	NaN
129	1.000000	0.842743	7.3663e+06	-45089.1	955.819	-29773.4	0.000000	0.000000	6.843101	-0.023000	NaN	0.000000	0.001599	0.001680	28.12	0.059464	0.002010	29.5905	60.4372	-162.926	-0.023749	0.841470	-0.916350	-0.917623	-0.023000	29.5905	-0.915767	-1.659766E+12	1.385764E-14	NaN
129	1.000000	0.854736	7.3663e+06	-45089.1	955.819	-29773.4	0.000000	0.000000	6.855097	0.041834	NaN	0.000000	0.001554	0.001677	28.08	0.053919	0.001985	27.1672	-97.5597	-166.019	-0.058118	0.853407	-0.904357	-0.905685	0.041834	27.1672	-0.905511	-1.206511E+12	-3.467318E-14	NaN
129	1.000000	0.866738	7.3663e+06	-45089.1	955.818	-29773.4	0.000000	0.000000	6.867097	-0.004852	NaN	0.000000	0.001619	0.001686	28.1197	0.063321	0.001961	32.2834	-152.178	-164.549	-0.086525	0.865418	-0.892354	-0.893674	-0.004852	32.2834	-0.892241	-7.983883E+11	6.076937E-15	NaN
129	1.000000	0.878735	7.3663e+06	-45089.1	955.818	-29773.4	0.000000	0.000000	6.879094	-0.018344	NaN	0.000000	0.001600	0.001711	28.0791	0.099588	0.002057	48.4222	-14.1519	-163.483	0.011222	0.877408	-0.880357	-0.881685	-0.018344	48.4222	-0.880073	-5.466310E+11	3.355886E-14	NaN
129	1.000000	0.890770	7.3663e+06	-45089.1	955.818	-29773.4	0.000000	0.000000	6.891129	-0.012030	NaN	0.000000	0.001597	0.001674	28.1202	0.153398	0.001914	80.1593	138.468	-166.156	-0.009711	0.889409	-0.868322	-0.869683	-0.012030	80.1593	-0.868210	-3.777639E+11	3.184486E-14	NaN
129	1.000000	0.902749	7.3663e+06	-45089.1	955.818	-29773.4	0.000000	0.000000	6.903110	0.051299	NaN	0.000000	0.001602	0.001756	28.0799	0.010708	0.001961	5.461438	-6.294413	-163.412	0.025184	0.901473	-0.856344	-0.857620	0.051299	5.461438	-0.863388	-3.250727E+11	-1.578075E-13	NaN
129	1.000000	0.914755	7.3663e+06	-45089.1	955.819	-29773.4	0.000000	0.000000	6.915113	-0.024735	NaN	0.000000	0.001593	0.001779	28.1201	0.055467	0.001996	27.7949	147.729	-166.873	0.059518	0.913472	-0.844337	-0.845621	-0.024735	27.7949	-0.843670	-1.757960E+11	1.407023E-13	NaN
129	1.000000	0.926760	7.3663e+06	-45089.1	955.818	-29773.4	0.000000	0.000000	6.927119	-0.005133	NaN	0.000000	0.001496	0.001720	28.0806	0.102324	0.002048	49.9715	-169.633	-165.759	0.101114	0.925431	-0.832333	-0.833662	-0.005133	49.9715	-0.832256	-1.231276E+11	4.168823E-14	NaN
129	1.000000	0.938746	7.3663e+06	-45089.1	955.818	-29773.4	0.000000	0.000000	6.939105	-0.000299	NaN	0.000000	0.001531	0.001713	28.1204	0.054515	0.001900	28.6844	75.6199	-167.204	-0.050629	0.937464	-0.820347	-0.821628	-0.000299	28.6844	-0.820339	-8.488072E+10	3.519730E-15	NaN
129	1.000000	0.950747	7.3663e+06	-45089.1	955.818	-29773.4	0.000000	0.000000	6.951104	-0.050154	NaN	0.000000	0.001574	0.001724	28.081	0.108402	0.002070	52.3719	-20.2798	-166.655	0.013664	0.949446	-0.808345	-0.809647	-0.050154	52.3719	-0.807627	-5.706581E+10	8.788864E-13	NaN
129	1.000000	0.962787	7.3663e+06	-45089.1	955.819	-29773.4	0.000000	0.000000	6.963147	0.020013	NaN	0.000000	0.001565	0.001739	28.1207	0.029623	0.002087	14.1923	-13.928	-167.625	-0.102245	0.961458	-0.796306	-0.797634	0.020013	14.1923	-0.797363	-4.140657E+10	-4.833219E-13	NaN
129	1.000000	0.974799	7.3663e+06	-45089.1	955.819	-29773.4	0.000000	0.000000	6.975159	0.013995	NaN	0.000000	0.001549	0.001729	28.0805	0.020582	0.001946	10.5745	29.562	-167.709	0.019063	0.973500	-0.784293	-0.785592	0.013995	10.5745	-0.785286	-2.838247E+10	-4.930982E-13	NaN
129	1.000000	0.986743	7.3663e+06	-45089.1	955.82	-29773.4	0.000000	0.000000	6.987103	0.000550	NaN	0.000000	0.001606	0.001721	28.1222	0.049027	0.002026	24.195	10.189	-164.599	-0.049961	0.985468	-0.772349	-0.773625	0.000550	24.195	-0.772366	-1.894417E+10	-2.905505E-14	NaN
129	1.000000	0.998798	7.3663e+06	-45089.1	955.819	-29773.4	0.000000	0.000000	6.999160	0.061881	NaN	0.000000	0.001606	0.001717	28.0798	0.046348	0.002002	23.1474	-170.667	-166.492	0.077861	0.997509	-0.760294	-0.761583	0.061881	23.1474	-0.762299	-1.382235E+10	-4.476914E-12	NaN
129	1.000000	1.010813	7.3663e+06	-45089.1	955.818	-29773.4	0.000000	0.000000	7.011174	0.037957	NaN	0.000000	0.001657	0.001724	28.1218	0.142753	0.001909	74.7858	81.1743	-170.815	0.023617	1.009449	-0.748280	-0.749644	0.037957	74.7858	-0.748660	-9.015319E+9	-4.210257E-12	NaN
129	1.000000	1.022783	7.3663e+06	-45089.1	955.819	-29773.4	0.000000	0.000000	7.023145	0.075492	NaN	0.000000	0.001618	0.001711	28.0798	0.066769	0.001981	33.7023	173.641	-166.111	0.024420	1.021508	-0.736310	-0.737585	0.075492	33.7023	-0.737990	-6.451676E+9	-1.170114E-11	NaN
129	1.000000	1.034775	7.3663e+06	-45089.1	955.819	-29773.4	0.000000	0.000000	7.035134	-0.002744	NaN	0.000000	0.001627	0.001752	28.1249	0.046116	0.002014	22.8925	-53.2764	-165.979	-0.012924	1.033480	-0.724317	-0.725612	-0.002744	22.8925	-0.724228	-4.189093E+9	6.549942E-13	NaN
129	1.000000	1.046803	7.3663e+06	-45089.1	955.818	-29773.4	0.000000	0.000000	7.047160	-0.046732	NaN	0.000000	0.001614	0.001728	28.0799	0.090012	0.001979	45.4802	21.6108	-165.098	-0.008544	1.045502	-0.712290	-0.713591	-0.046732	45.4802	-0.711519	-2.810471E+9	1.662797E-11	NaN
129	1.000000	1.058807	7.3663e+06	-45089.1	955.818	-29773.4	0.000000	0.000000	7.059164	-0.055731	NaN	0.000000	0.001602	0.001752	28.1227	0.027516	0.001962	14.0218	134.125	-167.344	-0.043013	1.057453	-0.700286	-0.701640	-0.055731	14.0218	-0.697305	-1.797727E+9	3.100092E-11	NaN
129	1.000000	1.070822	7.3663e+06	-45089.1	955.817	-29773.4	0.000000	0.000000	7.071182	0.018771	NaN	0.000000	0.001604	0.001756	28.0804	0.051095	0.001972	25.9103	122.772	-165.072	0.022065	1.069492	-0.688271	-0.689600	0.018771	25.9103	-0.688814	-1.376292E+9	-1.363898E-11	NaN
129	1.000000	1.082799	7.3663e+06	-45089.1	955.818	-29773.4	0.000000	0.000000	7.083158	0.014573	NaN	0.000000	0.001638	0.001769	28.1225	0.092693	0.002192	42.2905	-78.1561	-167.716	0.074006	1.081507	-0.676294	-0.677586	0.014573	42.2905	-0.676552	-9.355103E+8	-1.557743E-11	NaN
129	1.000000	1.094820	7.3663e+06	-45089.1	955.818	-29773.4	0.000000	0.000000	7.095181	0.031121	NaN	0.000000	0.001661	0.001760	28.0789	0.070655	0.001997	35.3724	-74.1242	-168.117	0.011804	1.093510	-0.664272	-0.665582	0.031121	35.3724	-0.664932	-6.486579E+8	-4.797693E-11	NaN
129	1.000000	1.106817	7.3663e+06	-45089.1	955.819	-29773.4	0.000000	0.000000	7.107173	-0.062222	NaN	0.000000	0.001628	0.001736	28.1211	0.092719	0.002006	46.2276	-15.2244	-164.839	-0.048642	1.105536	-0.652276	-0.653557	-0.062222	46.2276	-0.651266	-4.214985E+8	1.476202E-10	NaN
129	1.000000	1.118812	7.3663e+06	-45089.1	955.819	-29773.4	0.000000	0.000000	7.119170	-0.041274	NaN	0.000000	0.001605	0.001706	28.0791	0.042621	0.002025	21.0432	-165.966	-168.912	-0.044510	1.117539	-0.640281	-0.641553	-0.041274	21.0432	-0.638809	-2.844159E+8	1.451189E-10	NaN
129	1.000000	1.130856	7.3663e+06	-45089.1	955.819	-29773.4	0.000000	0.000000	7.131217	0.053933	NaN	0.000000	0.001573	0.001759	28.121	0.055997	0.001866	30.0053	34.3922	-163.743	0.003764	1.129526	-0.628237	-0.629567	0.053933	30.0053	-0.629585	-2.124828E+8	-2.538218E-10	NaN
129	1.000000	1.142858	7.3663e+06	-45089.1	955.819	-29773.4	0.000000	0.000000	7.143217	-0.019050	NaN	0.000000	0.001565	0.001773	28.0804	0.031146	0.001997	15.5946	20.8437	-165.367	0.088179	1.141545	-0.616234	-0.617547	-0.019050	15.5946	-0.615318	-1.352893E+8	1.408085E-10	NaN
129	1.000000	1.154863	7.3663e+06	-45089.1	955.818	-29773.4	0.000000	0.000000	7.155221	-0.028521	NaN	0.000000	0.001605	0.001764	28.1226	0.042089	0.001903	22.1148	130.17	-168.549	0.036939	1.153532	-0.604229	-0.605560	-0.028521	22.1148	-0.603262	-9.233767E+7	3.088770E-10	NaN
129	1.000000	1.166859	7.3663e+06	-45089.1	955.818	-29773.4	0.000000	0.000000	7.167218	-0.010310	NaN	0.000000	0.001614	0.001725	28.0792	0.124959	0.001910	65.4128	-85.0212	-167.563	0.024149	1.165572	-0.592234	-0.593520	-0.010310	65.4128	-0.592115	-6.483769E+7	1.590184E-10	NaN
129	1.000000	1.178846	7.3663e+06	-45089.1	955.818	-29773.4	0.000000	0.000000	7.179203	-0.053497	NaN	0.000000	0.001589	0.001777	28.1214	0.128294	0.001930	66.4671	45.2763	-166.929	-0.018423	1.177571	-0.580246	-0.581521	-0.053497	66.4671	-0.579643	-4.363079E+7	1.226122E-9	NaN
129	1.000000	1.190855	7.3663e+06	-45089.1	955.819	-29773.4	0.000000	0.000000	7.191216	0.030832	NaN	0.000000	0.001612	0.001793	28.0795	0.079533	0.002108	37.7239	43.1021	-165.215	0.019334	1.189531	-0.568237	-0.569561	0.030832	37.7239	-0.568850	-3.095608E+7	-9.959817E-10	NaN
129	1.000000	1.202861	7.3663e+06	-45089.1	955.819	-29773.4	0.000000	0.000000	7.203219	-0.013163	NaN	0.000000	0.001606	0.001792	28.1223	0.048353	0.002000	24.174	-83.3201	-165.484	-0.054248	1.201542	-0.556232	-0.557551	-0.013163	24.174	-0.555823	-2.044496E+7	6.438164E-10	NaN
129	1.000000	1.214909	7.3663e+06	-45089.1	955.818	-29773.4	0.000000	0.000000	7.215265	-0.074464	NaN	0.000000	0.001607	0.001768	28.0805	0.050962	0.001975	25.8099	75.4198	-172.344	-0.033286	1.213501	-0.544184	-0.545591	-0.074464	25.8099	-0.542020	-1.316349E+7	5.656856E-9	NaN
129	1.000000	1.226870	7.3663e+06	-45089.1	955.818	-29773.4	0.000000	0.000000	7.227230	0.006513	NaN	0.000000	0.001562	0.001780	28.1241	0.049850	0.002004	24.8757	176.484	-168.633	0.024471	1.225616	-0.532222	-0.533477	0.006513	24.8757	-0.532419	-9.68634e+06	-6.723570E-10	NaN
129	1.000000	1.238878	7.3663e+06	-45089.1	955.819	-29773.4	0.000000	0.000000	7.239238	0.017385	NaN	0.000000	0.001606	0.001756	28.0811	0.081143	0.002037	39.8317	140.177	-170.428	0.052658	1.237571	-0.520214	-0.521522	0.017385	39.8317	-0.520541	-6.6241e+06	-2.624525E-9	NaN
129	1.000000	1.250867	7.3663e+06	-45089.1	955.819	-29773.4	0.000000	0.000000	7.251226	-0.011554	NaN	0.000000	0.001633	0.001747	28.1225	0.080835	0.001901	42.5235	-87.7531	-166.031	-0.084302	1.249612	-0.508226	-0.509481	-0.011554	42.5235	-0.508022	-4.43464e+06	2.605296E-9	NaN
129	1.000000	1.262915	7.3663e+06	-45089.1	955.818	-29773.4	0.000000	0.000000	7.263276	0.051845	NaN	0.000000	0.001601	0.001715	28.0782	0.075803	0.002149	35.2662	-132.504	-167.115	0.012518	1.261574	-0.496178	-0.497518	0.051845	35.2662	-0.497281	-3.14102e+06	-1.650570E-8	NaN
129	1.000000	1.274886	7.3663e+06	-45089.1	955.82	-29773.4	0.000000	0.000000	7.275242	-0.079102	NaN	0.000000	0.001685	0.001714	28.1221	0.032265	0.001901	16.973	170.843	-165.309	0.021074	1.273628	-0.484206	-0.485465	-0.079102	16.973	-0.480711	-1.8428e+06	4.292503E-8	NaN
129	1.000000	1.286945	7.3663e+06	-45089.1	955.819	-29773.4	0.000000	0.000000	7.287300	-0.089907	NaN	0.000000	0.001667	0.001734	28.0796	0.112454	0.002014	55.8486	-126.334	-165.665	-0.075357	1.285654	-0.472148	-0.473439	-0.089907	55.8486	-0.470940	-1.34461e+06	6.686437E-8	NaN
129	1.000000	1.298905	7.3663e+06	-45089.1	955.82	-29773.4	0.000000	0.000000	7.299259	-0.121710	NaN	0.000000	0.001694	0.001717	28.1243	0.079806	0.002069	38.5732	99.3798	-166.563	-0.167884	1.297598	-0.460188	-0.461495	-0.121710	38.5732	-0.457821	-879815	1.383357E-7	NaN
129	1.000000	1.310928	7.3663e+06	-45089.1	955.819	-29773.4	0.000000	0.000000	7.311288	0.021032	NaN	0.000000	0.001665	0.001751	28.0799	0.132473	0.002059	64.3427	-149.461	-167.836	-0.007368	1.309634	-0.448165	-0.449458	0.021032	64.3427	-0.448410	-648551	-3.242966E-8	NaN
129	1.000000	1.322932	7.3663e+06	-45089.1	955.819	-29773.4	0.000000	0.000000	7.323290	-0.019486	NaN	0.000000	0.001585	0.001753	28.123	0.042388	0.001974	21.4757	-97.8345	-163.625	-0.006091	1.321638	-0.436160	-0.437454	-0.019486	21.4757	-0.435480	-426124	4.572827E-8	NaN
129	1.000000	1.334943	7.3663e+06	-45089.1	955.82	-29773.4	0.000000	0.000000	7.335303	-0.001518	NaN	0.000000	0.001583	0.001741	28.0778	0.014785	0.002036	7.262761	-52.6321	-167.43	0.067404	1.333621	-0.424149	-0.425472	-0.001518	7.262761	-0.423992	-293096	5.178827E-9	NaN
129	1.000000	1.346933	7.3663e+06	-45089.1	955.819	-29773.4	0.000000	0.000000	7.347293	0.017635	NaN	0.000000	0.001647	0.001718	28.121	0.085762	0.001995	42.996	158.904	-169.63	0.031512	1.345645	-0.412160	-0.413448	0.017635	42.996	-0.412467	-201130	-8.767871E-8	NaN
129	1.000000	1.358925	7.3663e+06	-45089.1	955.82	-29773.4	0.000000	0.000000	7.359283	-0.015045	NaN	0.000000	0.001584	0.001759	28.078	0.021483	0.002023	10.6183	-58.282	-164.581	-0.030642	1.357607	-0.400168	-0.401486	-0.015045	10.6183	-0.399105	-129787	1.159218E-7	NaN
129	1.000000	1.370921	7.3663e+06	-45089.1	955.819	-29773.4	0.000000	0.000000	7.371277	-0.067510	NaN	0.000000	0.001574	0.001812	28.1213	0.090536	0.001942	46.6211	152.445	-163.528	-0.046401	1.369623	-0.388172	-0.389469	-0.067510	46.6211	-0.387086	-87389.3	7.725242E-7	NaN
129	1.000000	1.382964	7.3663e+06	-45089.1	955.819	-29773.4	0.000000	0.000000	7.383321	-0.051915	NaN	0.000000	0.001536	0.001782	28.0786	0.066885	0.002156	31.0201	-106.437	-169.475	0.014820	1.381630	-0.376129	-0.377462	-0.051915	31.0201	-0.374873	-58378.3	8.892914E-7	NaN
129	1.000000	1.394966	7.3663e+06	-45089.1	955.818	-29773.4	0.000000	0.000000	7.395325	-0.009157	NaN	0.000000	0.001579	0.001786	28.123	0.172629	0.002025	85.2446	-65.6121	-168.926	0.029444	1.393610	-0.364126	-0.365482	-0.009157	85.2446	-0.364046	-40764.7	2.246191E-7	NaN
129	1.000000	1.406954	7.3663e+06	-45089.1	955.819	-29773.4	0.000000	0.000000	7.407313	-0.013970	NaN	0.000000	0.001576	0.001788	28.0786	0.018864	0.002032	9.284555	-87.4146	-165.418	-0.000292	1.405677	-0.352138	-0.353416	-0.013970	9.284555	-0.351010	-26402.9	5.291243E-7	NaN
129	1.000000	1.418942	7.3663e+06	-45089.1	955.82	-29773.4	0.000000	0.000000	7.419304	0.049941	NaN	0.000000	0.001579	0.001757	28.1215	0.053035	0.001946	27.2583	88.7234	-168.339	-0.032884	1.417689	-0.340150	-0.341403	0.049941	27.2583	-0.341524	-19220.5	-2.598347E-6	NaN
129	1.000000	1.430974	7.3663e+06	-45089.1	955.819	-29773.4	0.000000	0.000000	7.431332	-0.015290	NaN	0.000000	0.001576	0.001755	28.0782	0.077601	0.002098	36.9821	-85.6569	-166.995	0.032033	1.429680	-0.328119	-0.329412	-0.015290	36.9821	-0.327809	-12115.5	1.262024E-6	NaN
129	1.000000	1.442942	7.3663e+06	-45089.1	955.819	-29773.4	0.000000	0.000000	7.443301	-0.007934	NaN	0.000000	0.001545	0.001729	28.1222	0.090063	0.002039	44.16	-149.15	-166.438	0.002769	1.441697	-0.316150	-0.317395	-0.007934	44.16	-0.316016	-8127.02	9.762485E-7	NaN
129	1.000000	1.455007	7.3663e+06	-45089.1	955.819	-29773.4	0.000000	0.000000	7.455368	0.035844	NaN	0.000000	0.001554	0.001753	28.0796	0.084719	0.002129	39.7845	29.6029	-165.683	0.056620	1.453705	-0.304085	-0.305388	0.035844	39.7845	-0.304761	-5538.68	-6.471527E-6	NaN
129	1.000000	1.466976	7.3663e+06	-45089.1	955.819	-29773.4	0.000000	0.000000	7.467335	-0.004878	NaN	0.000000	0.001555	0.001739	28.1239	0.045977	0.002185	21.0431	25.3717	-170.175	0.013743	1.465619	-0.292116	-0.293474	-0.004878	21.0431	-0.291942	-3567.65	1.367377E-6	NaN
129	1.000000	1.479040	7.3663e+06	-45089.1	955.82	-29773.4	0.000000	0.000000	7.479397	-0.042436	NaN	0.000000	0.001579	0.001742	28.0804	0.145598	0.002096	69.472	-36.7238	-168.152	0.008118	1.477673	-0.280053	-0.281419	-0.042436	69.472	-0.279594	-2327.29	1.823388E-5	NaN
129	1.000000	1.490960	7.3663e+06	-45089.1	955.82	-29773.4	0.000000	0.000000	7.491321	0.043067	NaN	0.000000	0.001581	0.001747	28.1241	0.013599	0.001912	7.113689	84.159	-165.073	0.073491	1.489624	-0.268132	-0.269469	0.043067	7.113689	-0.272673	-1828.65	-2.355102E-5	NaN
129	1.000000	1.503000	7.3663e+06	-45089.1	955.82	-29773.4	0.000000	0.000000	7.503358	-0.024283	NaN	0.000000	0.001563	0.001738	28.0785	0.068227	0.001889	36.1202	66.0888	-164.435	-0.046292	1.501667	-0.256093	-0.257425	-0.024283	36.1202	-0.255589	-1002.71	2.421780E-5	NaN
129	1.000000	1.515000	7.3663e+06	-45089.1	955.821	-29773.4	0.000000	0.000000	7.515356	-0.090425	NaN	0.000000	0.001568	0.001767	28.1232	0.061182	0.001974	30.9985	-152.11	-167.029	-0.112587	1.513744	-0.244093	-0.245348	-0.090425	30.9985	-0.241905	-615.567	0.000147	NaN
129	1.000000	1.527036	7.3663e+06	-45089.1	955.82	-29773.4	0.000000	0.000000	7.527394	-0.036103	NaN	0.000000	0.001622	0.001766	28.0793	0.175313	0.002007	87.3712	-149.859	-166.037	-0.075233	1.525651	-0.232056	-0.233442	-0.036103	87.3712	-0.231746	-426.64	8.462112E-5	NaN
129	1.000000	1.539000	7.3663e+06	-45089.1	955.82	-29773.4	0.000000	0.000000	7.539360	0.006986	NaN	0.000000	0.001606	0.001799	28.1244	0.127989	0.002112	60.6045	108.486	-167.252	-0.007046	1.537670	-0.220093	-0.221422	0.006986	60.6045	-0.220179	-279.599	-2.498655E-5	NaN
129	1.000000	1.551039	7.3663e+06	-45089.1	955.82	-29773.4	0.000000	0.000000	7.551399	0.016925	NaN	0.000000	0.001622	0.001806	28.08	0.055063	0.001893	29.0907	-165.884	-165.097	-0.011724	1.549687	-0.208053	-0.209405	0.016925	29.0907	-0.208490	-181.273	-9.336731E-5	NaN
129	1.000000	1.563052	7.3663e+06	-45089.1	955.82	-29773.4	0.000000	0.000000	7.563407	-0.114669	NaN	0.000000	0.001576	0.001776	28.1247	0.107714	0.002062	52.2269	-152.59	-162.789	0.001263	1.561722	-0.196040	-0.197370	-0.114669	52.2269	-0.194394	-106.452	0.001077	NaN
129	1.000000	1.575017	7.3663e+06	-45089.1	955.82	-29773.4	0.000000	0.000000	7.575376	-0.004025	NaN	0.000000	0.001579	0.001784	28.0779	0.102296	0.002001	51.1236	136.24	-166.985	-0.041986	1.573753	-0.184075	-0.185339	-0.004025	51.1236	-0.184016	-71.3734	5.638725E-5	NaN
129	1.000000	1.587043	7.36631e+06	-45089.1	955.821	-29773.4	0.000000	0.000000	7.587404	0.054161	NaN	0.000000	0.001592	0.001779	28.1236	0.124525	0.001970	63.1991	-137.709	-164.949	0.128349	1.585755	-0.172050	-0.173338	0.054161	63.1991	-0.172692	-45.7332	-0.001184	NaN
129	1.000000	1.599028	7.36631e+06	-45089.1	955.82	-29773.4	0.000000	0.000000	7.599387	-0.004972	NaN	0.000000	0.001586	0.001764	28.0794	0.081007	0.002017	40.1687	-109.542	-164.55	-0.027578	1.597748	-0.160064	-0.161344	-0.004972	40.1687	-0.159971	-27.3828	0.000182	NaN
129	1.000000	1.611042	7.36631e+06	-45089.1	955.82	-29773.4	0.000000	0.000000	7.611399	-0.047010	NaN	0.000000	0.001588	0.001749	28.1221	0.114001	0.002061	55.3268	-78.1702	-165.472	-0.052566	1.609776	-0.148051	-0.149317	-0.047010	55.3268	-0.147414	-16.2428	0.002894	NaN
129	1.000000	1.623051	7.36631e+06	-45089.1	955.821	-29773.4	0.000000	0.000000	7.623408	-0.051272	NaN	0.000000	0.001598	0.001734	28.0789	0.069837	0.002053	34.0139	113.914	-168.266	-0.049057	1.621758	-0.136042	-0.137334	-0.051272	34.0139	-0.134911	-9.475385	0.005411	NaN
129	1.000000	1.635076	7.36631e+06	-45089.1	955.821	-29773.4	0.000000	0.000000	7.635434	-0.030380	NaN	0.000000	0.001611	0.001741	28.1237	0.031044	0.001924	16.1359	-26.7021	-167.977	-0.032484	1.633793	-0.124016	-0.125299	-0.030380	16.1359	-0.122604	-5.449580	0.005575	NaN
129	1.000000	1.647069	7.36631e+06	-45089.1	955.82	-29773.4	0.000000	0.000000	7.647429	0.016223	NaN	0.000000	0.001599	0.001734	28.0791	0.031800	0.002002	15.8812	-38.3686	-167.439	-0.006300	1.645768	-0.112024	-0.113325	0.016223	15.8812	-0.112790	-3.438120	-0.004719	NaN
129	1.000000	1.659089	7.36631e+06	-45089.1	955.82	-29773.4	0.000000	0.000000	7.659444	-0.097338	NaN	0.000000	0.001589	0.001734	28.1232	0.055032	0.002070	26.5918	31.5173	-162.507	-0.063024	1.657787	-0.100003	-0.101306	-0.097338	26.5918	-0.097258	-1.586862	0.061340	NaN
129	1.000000	1.671084	7.36631e+06	-45089.1	955.819	-29773.4	0.000000	0.000000	7.671445	0.044953	NaN	0.000000	0.001588	0.001769	28.0774	0.024895	0.001999	12.4544	-170.621	-169.09	0.077095	1.669747	-0.088008	-0.089345	0.044953	12.4544	-0.090716	-1.123490	-0.040012	NaN
129	1.000000	1.683093	7.36631e+06	-45089.1	955.82	-29773.4	0.000000	0.000000	7.683452	0.002497	NaN	0.000000	0.001588	0.001746	28.1224	0.065004	0.002048	31.7463	-64.7616	-166.872	-0.048140	1.681760	-0.076000	-0.077332	0.002497	31.7463	-0.076059	-0.491819	-0.005077	NaN
129	1.000000	1.695122	7.36631e+06	-45089.1	955.82	-29773.4	0.000000	0.000000	7.695484	0.065481	NaN	0.000000	0.001582	0.001745	28.0771	0.068545	0.001938	35.3647	-111.493	-166.149	0.075424	1.693792	-0.063970	-0.065300	0.065481	35.3647	-0.065359	-0.254992	-0.256797	NaN
129	1.000000	1.707090	7.36631e+06	-45089.1	955.82	-29773.4	0.000000	0.000000	7.707447	-0.051751	NaN	0.000000	0.001582	0.001773	28.1239	0.040546	0.002037	19.9039	23.9136	-164.044	-0.065455	1.705802	-0.052003	-0.053291	-0.051751	19.9039	-0.050053	-0.091586	0.565058	NaN
129	1.000000	1.719133	7.36631e+06	-45089.1	955.82	-29773.4	0.000000	0.000000	7.719493	0.009117	NaN	0.000000	0.001615	0.001775	28.0794	0.040307	0.001965	20.5101	7.986086	-167.001	-0.004281	1.717790	-0.039959	-0.041303	0.009117	20.5101	-0.040293	-0.046158	-0.197518	NaN
129	1.000000	1.731115	7.36631e+06	-45089.1	955.82	-29773.4	0.000000	0.000000	7.731472	-0.045150	NaN	0.000000	0.001600	0.001755	28.1238	0.075438	0.002140	35.2501	91.6496	-164.465	-0.055860	1.729837	-0.027977	-0.029256	-0.045150	35.2501	-0.027017	-0.019075	2.366986	NaN
129	1.000000	1.743121	7.36631e+06	-45089.1	955.82	-29773.4	0.000000	0.000000	7.743483	0.062402	NaN	0.000000	0.001575	0.001752	28.0782	0.018573	0.002040	9.102475	60.8904	-165.794	-0.011214	1.741791	-0.015972	-0.017302	0.062402	9.102475	-0.021113	-0.013406	-4.654597	NaN
129	1.000000	1.755113	7.36631e+06	-45089.1	955.822	-29773.4	0.000000	0.000000	7.755473	0.006891	NaN	0.000000	0.001573	0.001789	28.1241	0.062383	0.002148	29.0364	74.9851	-163.579	-0.024286	1.753763	-0.003979	-0.005329	0.006891	29.0364	-0.004157	-0.002881	-2.392387	NaN
129	1.000000	1.767083	7.36631e+06	-45089.1	955.822	-29773.4	0.000000	0.000000	7.767728	6.954671	NaN	0.000000	0.001618	0.001768	28.08	7.353338	0.001739	4229.54	16.319	-175.696	5.543713	1.765758	0.007990	0.006665	6.954671	4229.54	0.006757	0.005795	1200.19	50763.6
129	2.000000	1.771636	7.36631e+06	-45089.1	955.821	-29773.4	0.000000	0.000000	7.772525	12.8795	NaN	0.000000	0.001616	0.001739	28.1252	11.556	0.001617	7144.76	-0.889085	-167.083	12.0947	1.771316	0.012543	0.012224	12.8795	7144.76	0.011191	0.010536	1222.44	63595.3
129	2.000000	1.774584	7.36631e+06	-45089.1	955.82	-29773.4	0.000000	0.000000	7.775631	16.7268	NaN	0.000000	0.001600	0.001754	28.0791	15.0817	0.001807	8348.48	4.028782	-173.336	15.4336	1.774313	0.015492	0.015221	16.7268	8348.48	0.013989	0.013961	1198.15	64554.8
129	2.000000	1.777598	7.36631e+06	-45089.1	955.821	-29773.4	0.000000	0.000000	7.778885	22.562	NaN	0.000000	0.001581	0.001759	28.1254	17.623	0.001722	10232.3	7.421303	-178.666	21.219	1.777278	0.018506	0.018186	22.562	10232.3	0.016852	0.017835	1265.02	70001.2
129	2.000000	1.780590	7.36631e+06	-45089.1	955.82	-29773.4	0.000000	0.000000	7.782077	27.4234	NaN	0.000000	0.001591	0.001758	28.078	20.1609	0.001702	11846.8	6.736498	-177.94	27.6207	1.780309	0.021498	0.021216	27.4234	11846.8	0.019762	0.022169	1237	72694.2
129	2.000000	1.783593	7.36631e+06	-45089.1	955.82	-29773.4	0.000000	0.000000	7.785291	32.5698	NaN	0.000000	0.001582	0.001732	28.1241	22.8076	0.001769	12894.3	3.642671	-176.585	31.6835	1.783281	0.024500	0.024188	32.5698	12894.3	0.022606	0.026804	1215.12	71956.9
129	2.000000	1.786550	7.36631e+06	-45089.1	955.822	-29773.4	0.000000	0.000000	7.788623	41.6786	NaN	0.000000	0.001597	0.001747	28.0794	25.7918	0.001723	14964.8	8.840296	176.618	39.6377	1.786184	0.027458	0.027092	41.6786	14964.8	0.025369	0.031690	1315.18	76803.5
129	2.000000	1.789531	7.36631e+06	-45089.1	955.821	-29773.4	0.000000	0.000000	7.791829	47.1659	NaN	0.000000	0.001591	0.001796	28.1255	28.4146	0.001734	16389.6	3.783524	-179.009	45.2506	1.789288	0.030438	0.030196	47.1659	16389.6	0.028280	0.037254	1266.05	77580.7
129	2.000000	1.792548	7.36631e+06	-45089.1	955.821	-29773.4	0.000000	0.000000	7.795217	56.2058	NaN	0.000000	0.001549	0.001765	28.0801	30.869	0.001665	18536.6	2.798390	-178.573	56.4288	1.792164	0.033455	0.033071	56.2058	18536.6	0.031181	0.043227	1300.24	81456.4
129	2.000000	1.795510	7.36631e+06	-45089.1	955.821	-29773.4	0.000000	0.000000	7.798458	62.9788	NaN	0.000000	0.001593	0.001776	28.1254	34.0075	0.001722	19751.5	6.281637	175.977	61.0659	1.795179	0.036417	0.036087	62.9788	19751.5	0.034026	0.049502	1272.25	81107.6
129	2.000000	1.798576	7.36631e+06	-45089.1	955.822	-29773.4	0.000000	0.000000	7.801740	68.2301	NaN	0.000000	0.001568	0.001797	28.0777	36.877	0.001764	20907.3	6.162625	176.573	70.7185	1.798294	0.039483	0.039201	68.2301	20907.3	0.037036	0.056593	1205.64	80295.7
129	2.000000	1.801549	7.36631e+06	-45089.1	955.822	-29773.4	0.000000	0.000000	7.805148	78.8163	NaN	0.000000	0.001579	0.001795	28.1232	39.4405	0.001770	22279.8	1.935472	-179.649	79.5934	1.801258	0.042457	0.042165	78.8163	22279.8	0.039803	0.063521	1240.78	80765.3
129	2.000000	1.804507	7.36631e+06	-45089.1	955.822	-29773.4	0.000000	0.000000	7.808504	88.4909	NaN	0.000000	0.001545	0.001804	28.0773	42.7832	0.001999	21403.2	2.108630	-179.238	85.798	1.804295	0.045415	0.045202	88.4909	21403.2	0.042314	0.070146	1261.53	73833.2
129	2.000000	1.807439	7.36631e+06	-45089.1	955.82	-29773.4	0.000000	0.000000	7.811992	102.042	NaN	0.000000	0.001571	0.001798	28.1233	45.1767	0.001743	25919	6.917898	173.147	98.2758	1.807195	0.048346	0.048103	102.042	25919	0.045393	0.078708	1296.46	84407.5
129	2.000000	1.810491	7.36631e+06	-45089.1	955.822	-29773.4	0.000000	0.000000	7.815762	119.508	NaN	0.000000	0.001583	0.001794	28.0796	47.6429	0.001871	25465.4	3.267232	178.26	117.703	1.810253	0.051398	0.051160	119.508	25465.4	0.047878	0.085968	1390.14	79351.5
129	2.000000	1.813516	7.36631e+06	-45089.1	955.821	-29773.4	0.000000	0.000000	7.819157	128.484	NaN	0.000000	0.001588	0.001788	28.1246	49.5434	0.001686	29380	4.808019	175.043	126.065	1.813218	0.054424	0.054126	128.484	29380	0.051144	0.095982	1338.63	86642.5
129	2.000000	1.816531	7.36631e+06	-45089.1	955.821	-29773.4	0.000000	0.000000	7.822724	141.909	NaN	0.000000	0.001580	0.001834	28.078	51.1244	0.001782	28686.5	2.482063	179.239	141.747	1.816227	0.057438	0.057135	141.909	28686.5	0.053728	0.104284	1360.8	81160
129	2.000000	1.819466	7.36631e+06	-45089.1	955.821	-29773.4	0.000000	0.000000	7.826130	153.392	NaN	0.000000	0.001576	0.001792	28.1252	55.2262	0.001843	29969.3	7.950012	172.089	151.548	1.819088	0.060373	0.059995	153.392	29969.3	0.056534	0.113675	1349.4	81211.5
129	2.000000	1.822425	7.36631e+06	-45089.1	955.821	-29773.4	0.000000	0.000000	7.829781	170.207	NaN	0.000000	0.001609	0.001734	28.0768	57.6838	0.001757	32824.8	2.727077	175.907	166.579	1.822061	0.063333	0.062969	170.207	32824.8	0.059444	0.123822	1374.62	85226.9
129	2.000000	1.825488	7.36631e+06	-45089.1	955.822	-29773.4	0.000000	0.000000	7.833348	182.469	NaN	0.000000	0.001544	0.001725	28.1239	61.7218	0.001834	33660.2	7.089741	171.692	181.971	1.825109	0.066395	0.066016	182.469	33660.2	0.062330	0.134295	1358.72	83919.1
129	2.000000	1.828439	7.36631e+06	-45089.1	955.822	-29773.4	0.000000	0.000000	7.837134	202.79	NaN	0.000000	0.001573	0.001762	28.0771	62.5519	0.001778	35176.1	2.555104	176.26	198.55	1.828093	0.069347	0.069001	202.79	35176.1	0.065023	0.144433	1404.04	84564.2
129	2.000000	1.831475	7.36631e+06	-45089.1	955.822	-29773.4	0.000000	0.000000	7.840619	213.696	NaN	0.000000	0.001598	0.001766	28.1255	66.161	0.001811	36532.5	2.618548	175.577	213.571	1.831169	0.072383	0.072076	213.696	36532.5	0.067996	0.156031	1369.57	84498.1
129	2.000000	1.834481	7.36631e+06	-45089.1	955.822	-29773.4	0.000000	0.000000	7.844207	227.864	NaN	0.000000	0.001581	0.001797	28.0798	68.7828	0.001817	37846.4	1.568762	176.365	225.99	1.834294	0.075388	0.075201	227.864	37846.4	0.070873	0.167655	1359.12	84447.9
129	2.000000	1.837454	7.36631e+06	-45089.1	955.822	-29773.4	0.000000	0.000000	7.847796	242.844	NaN	0.000000	0.001589	0.001818	28.1258	71.8033	0.001799	39916.9	1.945507	175.402	240.179	1.837266	0.078362	0.078174	242.844	39916.9	0.073799	0.179883	1350.01	85987.3
129	2.000000	1.840590	7.36631e+06	-45089.1	955.822	-29773.4	0.000000	0.000000	7.851609	259.335	NaN	0.000000	0.001583	0.001796	28.0783	76.0748	0.001893	40195.1	6.829539	172.035	265.599	1.840124	0.081497	0.081032	259.335	40195.1	0.076658	0.192223	1349.13	83761.3
129	2.000000	1.843517	7.36631e+06	-45089.1	955.821	-29773.4	0.000000	0.000000	7.855337	278.812	NaN	0.000000	0.001559	0.001785	28.1254	76.7795	0.001786	43001.3	2.784783	174.441	278.414	1.843166	0.084424	0.084074	278.812	43001.3	0.079561	0.205142	1359.12	86741.5
129	2.000000	1.846416	7.36631e+06	-45089.1	955.822	-29773.4	0.000000	0.000000	7.859305	304.817	NaN	0.000000	0.001580	0.001789	28.0787	78.0971	0.001744	44790.2	3.389855	174.27	302.031	1.846067	0.087324	0.086974	304.817	44790.2	0.082220	0.217317	1402.64	87782.8
129	2.000000	1.849565	7.36631e+06	-45089.1	955.822	-29773.4	0.000000	0.000000	7.862826	313.871	NaN	0.000000	0.001547	0.001792	28.1251	82.0375	0.001779	46105.6	7.397406	169.156	319.727	1.849169	0.090472	0.090077	313.871	46105.6	0.085367	0.232154	1352	87425.6
129	2.000000	1.852469	7.36631e+06	-45089.1	955.823	-29773.4	0.000000	0.000000	7.866928	342.996	NaN	0.000000	0.001537	0.001770	28.0799	83.742	0.001663	50348.7	3.261551	172.783	341.038	1.852061	0.093377	0.092968	342.996	50348.7	0.088267	0.246234	1392.97	92701.7
129	2.000000	1.855529	7.36631e+06	-45089.1	955.823	-29773.4	0.000000	0.000000	7.870576	357.322	NaN	0.000000	0.001537	0.001765	28.127	87.8918	0.001854	47396.8	5.903348	170.526	360.773	1.855189	0.096436	0.096096	357.322	47396.8	0.090782	0.258753	1380.94	85129.3
129	2.000000	1.858452	7.36631e+06	-45089.1	955.823	-29773.4	0.000000	0.000000	7.874259	375.799	NaN	0.000000	0.001550	0.001747	28.0805	89.3526	0.001782	50131.8	2.522573	173.64	374.957	1.858061	0.099360	0.098968	375.799	50131.8	0.093737	0.273838	1372.34	87526.6
129	2.000000	1.861385	7.36631e+06	-45089.1	955.822	-29773.4	0.000000	0.000000	7.877992	395.261	NaN	0.000000	0.001562	0.001742	28.1253	93.2248	0.001922	48494.5	5.120878	170.985	392.286	1.861206	0.102292	0.102113	395.261	48494.5	0.096179	0.286601	1379.13	82761.1
129	2.000000	1.864399	7.36631e+06	-45089.1	955.823	-29773.4	0.000000	0.000000	7.881823	415.141	NaN	0.000000	0.001564	0.001729	28.0772	95.0836	0.001950	48759.7	6.573402	170.057	412.64	1.864125	0.105307	0.105033	415.141	48759.7	0.098921	0.301258	1378.02	81164.2
129	2.000000	1.867415	7.36631e+06	-45089.1	955.822	-29773.4	0.000000	0.000000	7.885778	437.991	NaN	0.000000	0.001556	0.001747	28.124	96.7452	0.001780	54341.1	6.994574	168.808	435.781	1.867082	0.108322	0.107990	437.991	54341.1	0.102277	0.319663	1370.16	87812.4
129	2.000000	1.867964	7.36631e+06	-45089.1	955.822	-29773.4	0.000000	0.000000	7.886429	440.452	NaN	0.000000	0.001559	0.001756	28.0843	96.0903	0.001817	52895	1.458803	-5.697241	437.942	1.867634	0.108872	0.108542	440.452	52895	0.102626	0.321608	1369.53	85216.6