File: remote_trans/data/nanoindenter/0828-1/data/Data_2025-08-06,11h17m57s/2025-07-22_16-23-58_1_1146.txt
2025-07-22, 16:23:58, 1
Index	Phase	Displacement	Time	Pos X	Pos Y	Pos Z	Rot A	Rot B	Piezo Z	Force A	Force B	Gripper	Voltage A	Voltage B	Temperature	Amplitude force	Amplitude pos	Stiffness	Phase shift	Phase excitation	Force A raw	Displacement raw	HMax	HMax raw	Real Force	Real Stiffness	Contact Depth	Area	Hardness	Reduced Mod.
[#]	[#]	[um]	[s]	[um]	[um]	[um]	[m°]	[m°]	[um]	[uN]	[uN]	[V]	[V]	[V]	[°C]	[uN]	[um]	[N/m]	[°]	[°]	[uN]	[um]	[um]	[um]	[uN]	[N/m]	[um]	[um^2]	[MPa]	[MPa]
1146	1.000000	0.002727	7.37626e+06	-57439.1	1055.82	-29737	0.000000	0.000000	6.002788	0.079017	NaN	0.000000	0.001626	0.001693	28.0799	0.018000	0.000898	20.044	62.9548	-169.135	0.084910	0.001473	-1.012987	-1.014241	0.079017	20.044	-1.015944	-3.718545E+13	-2.124956E-15	NaN
1146	1.000000	0.010723	7.37626e+06	-57439.1	1055.82	-29737	0.000000	0.000000	6.010782	0.030629	NaN	0.000000	0.001634	0.001726	28.0795	0.102856	0.000911	112.885	-124.119	-164.647	0.054354	0.009400	-1.004991	-1.006314	0.030629	112.885	-1.005195	-2.665036E+13	-1.149283E-15	NaN
1146	1.000000	0.018695	7.37626e+06	-57439.1	1055.82	-29737	0.000000	0.000000	6.018756	0.078801	NaN	0.000000	0.001621	0.001690	28.0798	0.009814	0.001739	5.643979	-42.3156	-166.814	0.100657	0.017420	-0.997019	-0.998294	0.078801	5.643979	-1.007490	-2.861557E+13	-2.753789E-15	NaN
1146	1.000000	0.026736	7.37626e+06	-57439.1	1055.82	-29737	0.000000	0.000000	6.026797	0.069079	NaN	0.000000	0.001654	0.001680	28.0797	0.074283	0.001685	44.0765	42.4188	-164.85	0.106560	0.025388	-0.988978	-0.990326	0.069079	44.0765	-0.990153	-1.671779E+13	-4.132094E-15	NaN
1146	1.000000	0.034706	7.37626e+06	-57439.1	1055.82	-29737	0.000000	0.000000	6.034766	0.055365	NaN	0.000000	0.001627	0.001720	28.0795	0.046080	0.001916	24.0467	139.333	-163.767	0.083690	0.033372	-0.981008	-0.982342	0.055365	24.0467	-0.982735	-1.328169E+13	-4.168521E-15	NaN
1146	1.000000	0.042703	7.37626e+06	-57439.1	1055.82	-29737	0.000000	0.000000	6.042759	-0.061087	NaN	0.000000	0.001627	0.001754	28.08	0.031428	0.001894	16.5905	-179.721	-165.416	0.031366	0.041385	-0.973011	-0.974329	-0.061087	16.5905	-0.970249	-9.016206E+12	6.775241E-15	NaN
1146	1.000000	0.050654	7.37626e+06	-57439.1	1055.82	-29737	0.000000	0.000000	6.050713	0.002399	NaN	0.000000	0.001599	0.001754	28.08	0.030048	0.001856	16.1937	28.5317	-167.273	-0.031758	0.049404	-0.965059	-0.966310	0.002399	16.1937	-0.965170	-7.701404E+12	-3.114575E-16	NaN
1146	1.000000	0.058658	7.37626e+06	-57439.1	1055.82	-29737	0.000000	0.000000	6.058716	0.009405	NaN	0.000000	0.001646	0.001748	28.0798	0.104088	0.001952	53.3288	-106.76	-164.182	-0.006236	0.057371	-0.957056	-0.958342	0.009405	53.3288	-0.957188	-6.011205E+12	-1.564577E-15	NaN
1146	1.000000	0.066699	7.37626e+06	-57439.1	1055.82	-29737	0.000000	0.000000	6.066758	0.033081	NaN	0.000000	0.001596	0.001780	28.0801	0.044201	0.001955	22.6076	164.988	-168.318	0.023422	0.065422	-0.949015	-0.950292	0.033081	22.6076	-0.950112	-4.825516E+12	-6.855476E-15	NaN
1146	1.000000	0.074711	7.37626e+06	-57439.1	1055.82	-29737	0.000000	0.000000	6.074768	-0.037531	NaN	0.000000	0.001613	0.001756	28.0799	0.073878	0.002040	36.2221	165.991	-171.429	-0.054648	0.073402	-0.941003	-0.942311	-0.037531	36.2221	-0.940226	-3.549617E+12	1.057339E-14	NaN
1146	1.000000	0.082672	7.37626e+06	-57439.1	1055.82	-29737	0.000000	0.000000	6.082731	0.040673	NaN	0.000000	0.001639	0.001724	28.0798	0.015594	0.001833	8.506677	31.2141	-167.197	0.000301	0.081426	-0.933042	-0.934288	0.040673	8.506677	-0.936628	-3.174280E+12	-1.281343E-14	NaN
1146	1.000000	0.090693	7.37626e+06	-57439.1	1055.82	-29737	0.000000	0.000000	6.090751	-0.012477	NaN	0.000000	0.001630	0.001790	28.0799	0.038582	0.001850	20.853	5.557359	-161.575	-0.007163	0.089359	-0.925021	-0.926355	-0.012477	20.853	-0.924572	-2.182381E+12	5.717053E-15	NaN
1146	1.000000	0.098693	7.37626e+06	-57439.1	1055.82	-29737	0.000000	0.000000	6.098749	-0.044512	NaN	0.000000	0.001610	0.001759	28.0799	0.032085	0.001941	16.5261	-42.2793	-169.253	0.041226	0.097443	-0.917021	-0.918271	-0.044512	16.5261	-0.915001	-1.620719E+12	2.746431E-14	NaN
1146	1.000000	0.106737	7.37626e+06	-57439.1	1055.82	-29737	0.000000	0.000000	6.106797	0.063415	NaN	0.000000	0.001570	0.001705	28.08	0.044414	0.002051	21.6521	172.423	-166.485	0.105021	0.105445	-0.908977	-0.910269	0.063415	21.6521	-0.911174	-1.438857E+12	-4.407285E-14	NaN
1146	1.000000	0.114719	7.37626e+06	-57439.1	1055.82	-29737	0.000000	0.000000	6.114777	-0.004595	NaN	0.000000	0.001554	0.001740	28.08	0.011616	0.001926	6.032562	-90.7695	-162.814	-0.009831	0.113390	-0.900995	-0.902324	-0.004595	6.032562	-0.900423	-1.029880E+12	4.462113E-15	NaN
1146	1.000000	0.122721	7.37626e+06	-57439.1	1055.82	-29737	0.000000	0.000000	6.122782	0.068319	NaN	0.000000	0.001588	0.001683	28.0799	0.039469	0.002119	18.6254	-153.844	-164.764	0.003337	0.121471	-0.892993	-0.894243	0.068319	18.6254	-0.895744	-8.903215E+11	-7.673466E-14	NaN
1146	1.000000	0.130704	7.37626e+06	-57439.1	1055.82	-29737	0.000000	0.000000	6.130763	0.014893	NaN	0.000000	0.001544	0.001706	28.0799	0.048258	0.001931	24.9909	6.194915	-168.962	0.007217	0.129369	-0.885010	-0.886345	0.014893	24.9909	-0.885457	-6.463936E+11	-2.303992E-14	NaN
1146	1.000000	0.138724	7.37626e+06	-57439.1	1055.82	-29737	0.000000	0.000000	6.138781	-0.039058	NaN	0.000000	0.001543	0.001721	28.0811	0.012908	0.001902	6.785645	-88.3819	-165.11	0.024218	0.137423	-0.876990	-0.878291	-0.039058	6.785645	-0.872673	-4.341118E+11	8.997148E-14	NaN
1146	1.000000	0.146741	7.37626e+06	-57439.1	1055.82	-29737	0.000000	0.000000	6.146800	0.012222	NaN	0.000000	0.001557	0.001696	28.081	0.053720	0.002120	25.3447	-144.458	-170.528	0.048652	0.145433	-0.868972	-0.870281	0.012222	25.3447	-0.869334	-3.912321E+11	-3.123912E-14	NaN
1146	1.000000	0.154742	7.37626e+06	-57439.1	1055.82	-29737	0.000000	0.000000	6.154806	0.129225	NaN	0.000000	0.001547	0.001715	28.0816	0.032270	0.001950	16.553	-167.604	-165.488	0.077369	0.153416	-0.860972	-0.862298	0.129225	16.553	-0.866827	-3.618346E+11	-3.571393E-13	NaN
1146	1.000000	0.162754	7.37626e+06	-57439.1	1055.82	-29737	0.000000	0.000000	6.162813	0.014046	NaN	0.000000	0.001558	0.001694	28.0809	0.020788	0.002077	10.0084	140.052	-165.859	0.045030	0.161389	-0.852960	-0.854325	0.014046	10.0084	-0.854013	-2.427000E+11	-5.787501E-14	NaN
1146	1.000000	0.170721	7.37626e+06	-57439.1	1055.82	-29737	0.000000	0.000000	6.170781	0.024181	NaN	0.000000	0.001570	0.001659	28.0807	0.127453	0.002056	61.9969	156.44	-165.763	-0.031756	0.169434	-0.844992	-0.846280	0.024181	61.9969	-0.845285	-1.848773E+11	-1.307944E-13	NaN
1146	1.000000	0.178735	7.37626e+06	-57439.1	1055.82	-29737	0.000000	0.000000	6.178796	0.061473	NaN	0.000000	0.001559	0.001693	28.0809	0.107444	0.001949	55.1142	111.352	-166.926	0.023819	0.177410	-0.836978	-0.838304	0.061473	55.1142	-0.837815	-1.464499E+11	-4.197515E-13	NaN
1146	1.000000	0.186740	7.37626e+06	-57439.1	1055.82	-29737	0.000000	0.000000	6.186797	-0.019654	NaN	0.000000	0.001545	0.001729	28.0808	0.025569	0.002155	11.8666	-174.222	-166.542	-0.030466	0.185471	-0.828974	-0.830243	-0.019654	11.8666	-0.827732	-1.069161E+11	1.838311E-13	NaN
1146	1.000000	0.194729	7.37626e+06	-57439.1	1055.82	-29737	0.000000	0.000000	6.194789	0.035490	NaN	0.000000	0.001564	0.001730	28.081	0.019403	0.001995	9.724277	119.838	-167.373	0.085496	0.193424	-0.820985	-0.822290	0.035490	9.724277	-0.823722	-9.433696E+10	-3.762066E-13	NaN
1146	1.000000	0.202720	7.37626e+06	-57439.1	1055.82	-29737	0.000000	0.000000	6.202778	0.008313	NaN	0.000000	0.001605	0.001693	28.0806	0.085442	0.002022	42.2594	-145.307	-162.143	0.036676	0.201444	-0.812994	-0.814270	0.008313	42.2594	-0.813142	-6.779380E+10	-1.226267E-13	NaN
1146	1.000000	0.210784	7.37626e+06	-57439.1	1055.82	-29737	0.000000	0.000000	6.210841	-0.036735	NaN	0.000000	0.001591	0.001698	28.081	0.056015	0.001999	28.0177	171.082	-168.483	-0.040226	0.209437	-0.804930	-0.806277	-0.036735	28.0177	-0.803946	-5.086562E+10	7.222032E-13	NaN
1146	1.000000	0.218771	7.37626e+06	-57439.1	1055.82	-29737	0.000000	0.000000	6.218830	0.013596	NaN	0.000000	0.001565	0.001717	28.0809	0.100457	0.001923	52.2321	-108.739	-162.51	0.056544	0.217420	-0.796943	-0.798294	0.013596	52.2321	-0.797138	-4.111617E+10	-3.306669E-13	NaN
1146	1.000000	0.226758	7.37627e+06	-57439.1	1055.82	-29737	0.000000	0.000000	6.226815	-0.014975	NaN	0.000000	0.001607	0.001721	28.0808	0.120233	0.002016	59.6267	-97.5499	-165.404	-0.029447	0.225424	-0.788956	-0.790289	-0.014975	59.6267	-0.788768	-3.164828E+10	4.731741E-13	NaN
1146	1.000000	0.234740	7.37627e+06	-57439.1	1055.82	-29737	0.000000	0.000000	6.234799	0.030129	NaN	0.000000	0.001597	0.001669	28.0807	0.113445	0.002017	56.2479	160.68	-166.59	-0.002709	0.233477	-0.780974	-0.782237	0.030129	56.2479	-0.781376	-2.511445E+10	-1.199671E-12	NaN
1146	1.000000	0.242757	7.37627e+06	-57439.1	1055.82	-29737	0.000000	0.000000	6.242817	0.046196	NaN	0.000000	0.001564	0.001743	28.0808	0.044042	0.001996	22.0654	-165.887	-166.085	0.001571	0.241470	-0.772957	-0.774244	0.046196	22.0654	-0.774528	-2.027012E+10	-2.279043E-12	NaN
1146	1.000000	0.250770	7.37627e+06	-57439.1	1055.82	-29737	0.000000	0.000000	6.250826	-0.038661	NaN	0.000000	0.001582	0.001741	28.0809	0.136631	0.002246	60.8423	88.3339	-167.645	-0.052999	0.249511	-0.764944	-0.766203	-0.038661	60.8423	-0.764468	-1.479360E+10	2.613387E-12	NaN
1146	1.000000	0.258805	7.37627e+06	-57439.1	1055.82	-29737	0.000000	0.000000	6.258866	0.064823	NaN	0.000000	0.001613	0.001763	28.081	0.027748	0.001949	14.2391	136.642	-165.053	0.058153	0.257473	-0.756909	-0.758241	0.064823	14.2391	-0.760324	-1.299282E+10	-4.989109E-12	NaN
1146	1.000000	0.266783	7.37627e+06	-57439.1	1055.82	-29737	0.000000	0.000000	6.266843	0.034925	NaN	0.000000	0.001610	0.001765	28.0808	0.022057	0.002032	10.8522	-55.728	-166.664	0.091556	0.265441	-0.748931	-0.750273	0.034925	10.8522	-0.751344	-9.806577E+9	-3.561405E-12	NaN
1146	1.000000	0.274754	7.37627e+06	-57439.1	1055.82	-29737	0.000000	0.000000	6.274812	0.008289	NaN	0.000000	0.001593	0.001714	28.0795	0.056792	0.002031	27.9601	122.635	-169.777	-0.000763	0.273453	-0.740960	-0.742261	0.008289	27.9601	-0.741182	-7.131166E+9	-1.162375E-12	NaN
1146	1.000000	0.282797	7.37627e+06	-57439.1	1055.82	-29737	0.000000	0.000000	6.282857	0.038555	NaN	0.000000	0.001567	0.001713	28.0793	0.147402	0.002084	70.7251	17.4026	-170.407	-0.041264	0.281470	-0.732916	-0.734243	0.038555	70.7251	-0.733325	-5.573436E+9	-6.917582E-12	NaN
1146	1.000000	0.290781	7.37627e+06	-57439.1	1055.82	-29737	0.000000	0.000000	6.290840	0.039230	NaN	0.000000	0.001583	0.001685	28.0794	0.150152	0.001975	76.0327	12.492	-170.698	0.038239	0.289522	-0.724933	-0.726192	0.039230	76.0327	-0.725320	-4.335270E+9	-9.049062E-12	NaN
1146	1.000000	0.298797	7.37627e+06	-57439.1	1055.82	-29737	0.000000	0.000000	6.298854	-0.012345	NaN	0.000000	0.001552	0.001726	28.0794	0.088599	0.002091	42.3655	-141.938	-167.348	-0.060210	0.297496	-0.716917	-0.718218	-0.012345	42.3655	-0.716699	-3.307094E+9	3.732807E-12	NaN
1146	1.000000	0.306800	7.37627e+06	-57439.1	1055.82	-29737	0.000000	0.000000	6.306857	-0.010432	NaN	0.000000	0.001602	0.001695	28.0797	0.085072	0.001996	42.6179	86.4156	-165.506	0.005224	0.305481	-0.708914	-0.710233	-0.010432	42.6179	-0.708731	-2.574685E+9	4.051600E-12	NaN
1146	1.000000	0.314819	7.37627e+06	-57439.1	1055.82	-29737	0.000000	0.000000	6.314877	-0.005203	NaN	0.000000	0.001573	0.001694	28.0796	0.034873	0.001956	17.827	-20.703	-166.245	0.075174	0.313536	-0.700895	-0.702178	-0.005203	17.827	-0.700676	-1.998776E+9	2.603050E-12	NaN
1146	1.000000	0.322806	7.37627e+06	-57439.1	1055.82	-29737	0.000000	0.000000	6.322866	0.041440	NaN	0.000000	0.001559	0.001719	28.0795	0.033983	0.002060	16.4956	-47.4991	-167.296	-0.057275	0.321480	-0.692908	-0.694234	0.041440	16.4956	-0.694792	-1.661099E+9	-2.494725E-11	NaN
1146	1.000000	0.330820	7.37627e+06	-57439.1	1055.82	-29737	0.000000	0.000000	6.330879	0.037682	NaN	0.000000	0.001587	0.001730	28.0794	0.097415	0.001988	49.0104	154.851	-165.239	-0.012144	0.329483	-0.684894	-0.686231	0.037682	49.0104	-0.685471	-1.238825E+9	-3.041719E-11	NaN
1146	1.000000	0.338788	7.37627e+06	-57439.1	1055.82	-29737	0.000000	0.000000	6.338846	-0.003193	NaN	0.000000	0.001601	0.001717	28.0795	0.132810	0.002049	64.8187	172.237	-165.324	0.039809	0.337470	-0.676926	-0.678244	-0.003193	64.8187	-0.676889	-9.454904E+8	3.377368E-12	NaN
1146	1.000000	0.346825	7.37627e+06	-57439.1	1055.82	-29737	0.000000	0.000000	6.346882	-0.011809	NaN	0.000000	0.001594	0.001724	28.0793	0.042576	0.001957	21.7516	-156.321	-165.677	0.005311	0.345474	-0.668889	-0.670240	-0.011809	21.7516	-0.668482	-7.254559E+8	1.627797E-11	NaN
1146	1.000000	0.354838	7.37627e+06	-57439.1	1055.82	-29737	0.000000	0.000000	6.354893	-0.082951	NaN	0.000000	0.001555	0.001716	28.0796	0.038055	0.001984	19.1804	-1.298277	-164.559	-0.048358	0.353502	-0.660876	-0.662211	-0.082951	19.1804	-0.657632	-5.152690E+8	1.609852E-10	NaN
1146	1.000000	0.362837	7.37627e+06	-57439.1	1055.82	-29737	0.000000	0.000000	6.362896	0.024377	NaN	0.000000	0.001546	0.001750	28.0796	0.011381	0.002069	5.501512	109.27	-168.571	-0.061214	0.361515	-0.652877	-0.654199	0.024377	5.501512	-0.656200	-4.925074E+8	-4.949587E-11	NaN
1146	1.000000	0.370813	7.37627e+06	-57439.1	1055.82	-29737	0.000000	0.000000	6.370870	-0.031855	NaN	0.000000	0.001559	0.001731	28.0793	0.136443	0.001963	69.5073	-116.098	-167.638	-0.018265	0.369532	-0.644901	-0.646182	-0.031855	69.5073	-0.644557	-3.410405E+8	9.340555E-11	NaN
1146	1.000000	0.378823	7.37627e+06	-57439.1	1055.82	-29737	0.000000	0.000000	6.378881	-0.010646	NaN	0.000000	0.001544	0.001716	28.0795	0.109271	0.001833	59.6176	66.6169	-167.4	0.001296	0.377452	-0.636891	-0.638262	-0.010646	59.6176	-0.636757	-2.665557E+8	3.993889E-11	NaN
1146	1.000000	0.386817	7.37627e+06	-57439.1	1055.82	-29737	0.000000	0.000000	6.386876	0.021858	NaN	0.000000	0.001578	0.001720	28.0794	0.079775	0.002050	38.9142	170.778	-166.022	0.035949	0.385547	-0.628897	-0.630167	0.021858	38.9142	-0.629318	-2.106988E+8	-1.037393E-10	NaN
1146	1.000000	0.394822	7.37627e+06	-57439.1	1055.82	-29737	0.000000	0.000000	6.394882	0.036234	NaN	0.000000	0.001536	0.001708	28.0794	0.093018	0.002065	45.0364	-122.965	-165.625	0.063264	0.393501	-0.620892	-0.622213	0.036234	45.0364	-0.621495	-1.645059E+8	-2.202598E-10	NaN
1146	1.000000	0.402823	7.37627e+06	-57439.1	1055.82	-29737	0.000000	0.000000	6.402881	-0.000677	NaN	0.000000	0.001569	0.001664	28.0796	0.028699	0.002002	14.3373	-33.3361	-166.463	0.012557	0.401533	-0.612891	-0.614181	-0.000677	14.3373	-0.612856	-1.251401E+8	5.408883E-12	NaN
1146	1.000000	0.410824	7.37627e+06	-57439.1	1055.82	-29737	0.000000	0.000000	6.410882	0.013106	NaN	0.000000	0.001564	0.001665	28.0807	0.039737	0.002112	18.8157	-111.116	-168.12	0.073322	0.409555	-0.604890	-0.606159	0.013106	18.8157	-0.605413	-9.885168E+7	-1.325791E-10	NaN
1146	1.000000	0.418856	7.37627e+06	-57439.1	1055.82	-29737	0.000000	0.000000	6.418914	-0.020569	NaN	0.000000	0.001594	0.001638	28.0809	0.054272	0.002097	25.8773	-14.7102	-167.084	-0.000907	0.417498	-0.596857	-0.598216	-0.020569	25.8773	-0.596261	-7.395384E+7	2.781366E-10	NaN
1146	1.000000	0.426847	7.37627e+06	-57439.1	1055.82	-29737	0.000000	0.000000	6.426908	0.064219	NaN	0.000000	0.001615	0.001648	28.0807	0.041496	0.002006	20.6895	79.2656	-166.354	0.053329	0.425527	-0.588867	-0.590186	0.064219	20.6895	-0.591194	-6.296985E+7	-1.019831E-9	NaN
1146	1.000000	0.434842	7.37627e+06	-57439.1	1055.82	-29737	0.000000	0.000000	6.434901	0.013515	NaN	0.000000	0.001687	0.001662	28.0808	0.065105	0.002034	32.007	50.8341	-163.46	-0.022544	0.433533	-0.580872	-0.582181	0.013515	32.007	-0.581188	-4.582729E+7	-2.949134E-10	NaN
1146	1.000000	0.442858	7.37627e+06	-57439.1	1055.82	-29737	0.000000	0.000000	6.442917	0.007372	NaN	0.000000	0.001633	0.001654	28.0805	0.050903	0.002022	25.1776	-113.872	-164.68	-0.090151	0.441527	-0.572856	-0.574187	0.007372	25.1776	-0.573075	-3.540915E+7	-2.081908E-10	NaN
1146	1.000000	0.450854	7.37627e+06	-57439.1	1055.82	-29737	0.000000	0.000000	6.450913	0.028758	NaN	0.000000	0.001622	0.001611	28.0807	0.074552	0.002036	36.6177	107.311	-165.625	-0.031974	0.449511	-0.564860	-0.566203	0.028758	36.6177	-0.565449	-2.778036E+7	-1.035175E-9	NaN
1146	1.000000	0.458836	7.37627e+06	-57439.1	1055.82	-29737	0.000000	0.000000	6.458894	-0.023551	NaN	0.000000	0.001618	0.001670	28.0809	0.127735	0.001892	67.5238	128.021	-164.522	-0.035806	0.457571	-0.556877	-0.558142	-0.023551	67.5238	-0.556616	-2.096775E+7	1.123223E-9	NaN
1146	1.000000	0.466871	7.37627e+06	-57439.1	1055.82	-29737	0.000000	0.000000	6.466929	-0.006283	NaN	0.000000	0.001635	0.001648	28.0808	0.018205	0.001974	9.221047	-104.207	-167.011	0.040210	0.465575	-0.548843	-0.550139	-0.006283	9.221047	-0.548331	-1.610065E+7	3.902295E-10	NaN
1146	1.000000	0.474842	7.37627e+06	-57439.1	1055.82	-29737	0.000000	0.000000	6.474900	0.004880	NaN	0.000000	0.001519	0.001676	28.0809	0.050457	0.002092	24.1169	-70.8115	-167.72	0.078572	0.473574	-0.540872	-0.542140	0.004880	24.1169	-0.541024	-1.275145E+7	-3.826802E-10	NaN
1146	1.000000	0.482869	7.37627e+06	-57439.1	1055.82	-29737	0.000000	0.000000	6.482926	-0.020320	NaN	0.000000	0.001555	0.001669	28.0808	0.089541	0.001920	46.6475	46.8267	-164.47	-0.079781	0.481524	-0.532845	-0.534190	-0.020320	46.6475	-0.532518	-9.71717e+06	2.091161E-9	NaN
1146	1.000000	0.490857	7.37627e+06	-57439.1	1055.82	-29737	0.000000	0.000000	6.490917	0.045705	NaN	0.000000	0.001564	0.001679	28.081	0.033493	0.002059	16.2651	-69.691	-164.114	0.082336	0.489528	-0.524857	-0.526186	0.045705	16.2651	-0.526964	-8.13592e+06	-5.617634E-9	NaN
1146	1.000000	0.498901	7.37627e+06	-57439.1	1055.82	-29737	0.000000	0.000000	6.498962	0.060170	NaN	0.000000	0.001587	0.001703	28.0808	0.046113	0.001998	23.081	3.976131	-167.004	0.085452	0.497576	-0.516813	-0.518138	0.060170	23.081	-0.518768	-6.25838e+06	-9.614237E-9	NaN
1146	1.000000	0.506870	7.37627e+06	-57439.1	1055.82	-29737	0.000000	0.000000	6.506931	0.072889	NaN	0.000000	0.001553	0.001695	28.0807	0.058819	0.002101	27.991	103.447	-165.105	0.087526	0.505574	-0.508844	-0.510140	0.072889	27.991	-0.510797	-4.84744e+06	-1.503671E-8	NaN
1146	1.000000	0.514903	7.37627e+06	-57439.1	1055.82	-29737	0.000000	0.000000	6.514960	-0.026766	NaN	0.000000	0.001575	0.001715	28.0809	0.110529	0.001954	56.5626	-121.428	-166.112	-0.073624	0.513610	-0.500811	-0.502104	-0.026766	56.5626	-0.500456	-3.47844e+06	7.694747E-9	NaN
1146	1.000000	0.522897	7.37627e+06	-57439.1	1055.82	-29737	0.000000	0.000000	6.522955	-0.009888	NaN	0.000000	0.001538	0.001671	28.0806	0.060348	0.002084	28.9528	-86.7364	-169.301	0.031158	0.521571	-0.492817	-0.494143	-0.009888	28.9528	-0.492561	-2.6988e+06	3.663896E-9	NaN
1146	1.000000	0.530868	7.37627e+06	-57439.1	1055.82	-29737	0.000000	0.000000	6.530928	0.051624	NaN	0.000000	0.001548	0.001688	28.0808	0.038567	0.002027	19.0248	166.413	-168.528	-0.026994	0.529554	-0.484846	-0.486160	0.051624	19.0248	-0.486881	-2.24801e+06	-2.296439E-8	NaN
1146	1.000000	0.538881	7.37627e+06	-57439.1	1055.82	-29737	0.000000	0.000000	6.538939	-0.013001	NaN	0.000000	0.001586	0.001685	28.0806	0.105312	0.001926	54.6846	80.1585	-169.239	0.049287	0.537588	-0.476833	-0.478126	-0.013001	54.6846	-0.476655	-1.61689e+06	8.040516E-9	NaN
1146	1.000000	0.546914	7.37627e+06	-57439.1	1055.82	-29737	0.000000	0.000000	6.546976	0.072676	NaN	0.000000	0.001568	0.001653	28.0794	0.018162	0.002150	8.446915	160.123	-166.414	0.050481	0.545581	-0.468799	-0.470132	0.072676	8.446915	-0.475252	-1.54538e+06	-4.702800E-8	NaN
1146	1.000000	0.554891	7.37627e+06	-57439.1	1055.82	-29737	0.000000	0.000000	6.554949	-0.005026	NaN	0.000000	0.001557	0.001685	28.0795	0.039566	0.001923	20.5756	62.672	-167.886	-0.062339	0.553573	-0.460823	-0.462141	-0.005026	20.5756	-0.460640	-963847	5.214217E-9	NaN
1146	1.000000	0.562917	7.37627e+06	-57439.1	1055.82	-29737	0.000000	0.000000	6.562973	-0.044101	NaN	0.000000	0.001593	0.001694	28.0796	0.053332	0.002062	25.863	-102.143	-164.378	-0.029486	0.561592	-0.452797	-0.454122	-0.044101	25.863	-0.451518	-717324	6.148045E-8	NaN
1146	1.000000	0.570927	7.37627e+06	-57439.1	1055.82	-29737	0.000000	0.000000	6.570987	0.048841	NaN	0.000000	0.001624	0.001688	28.0797	0.061295	0.002034	30.1373	-154.449	-168.142	0.038775	0.569587	-0.444787	-0.446127	0.048841	30.1373	-0.446003	-599828	-8.142444E-8	NaN
1146	1.000000	0.578905	7.37627e+06	-57439.1	1055.82	-29737	0.000000	0.000000	6.578965	0.042261	NaN	0.000000	0.001615	0.001687	28.0796	0.048486	0.002111	22.9687	166.395	-166.044	-0.006880	0.577572	-0.436808	-0.438142	0.042261	22.9687	-0.438188	-465362	-9.081368E-8	NaN
1146	1.000000	0.586918	7.37627e+06	-57439.1	1055.82	-29737	0.000000	0.000000	6.586978	0.030220	NaN	0.000000	0.001606	0.001659	28.0801	0.076552	0.001906	40.1548	-166.696	-168.392	0.037202	0.585600	-0.428795	-0.430114	0.030220	40.1548	-0.429360	-349144	-8.655490E-8	NaN
1146	1.000000	0.594897	7.37627e+06	-57439.1	1055.82	-29737	0.000000	0.000000	6.594957	0.026455	NaN	0.000000	0.001632	0.001648	28.0796	0.080066	0.001858	43.0842	172.385	-167.208	0.001692	0.593577	-0.420817	-0.422137	0.026455	43.0842	-0.421277	-268240	-9.862501E-8	NaN
1146	1.000000	0.602910	7.37627e+06	-57439.1	1055.82	-29737	0.000000	0.000000	6.602969	0.011207	NaN	0.000000	0.001657	0.001668	28.0799	0.045599	0.001981	23.0151	-44.0252	-165.767	0.072925	0.601620	-0.412804	-0.414094	0.011207	23.0151	-0.413169	-205799	-5.445833E-8	NaN
1146	1.000000	0.610901	7.37627e+06	-57439.1	1055.82	-29737	0.000000	0.000000	6.610961	0.032157	NaN	0.000000	0.001640	0.001643	28.0796	0.143560	0.002066	69.4773	92.0853	-165.719	0.078579	0.609682	-0.404813	-0.406031	0.032157	69.4773	-0.405160	-158315	-2.031173E-7	NaN
1146	1.000000	0.618914	7.37627e+06	-57439.1	1055.82	-29737	0.000000	0.000000	6.618976	0.111659	NaN	0.000000	0.001679	0.001667	28.0797	0.066145	0.002036	32.4832	158.991	-166.348	0.020766	0.617628	-0.396800	-0.398086	0.111659	32.4832	-0.399378	-130957	-8.526430E-7	NaN
1146	1.000000	0.626939	7.37627e+06	-57439.1	1055.82	-29737	0.000000	0.000000	6.626998	0.032463	NaN	0.000000	0.001623	0.001671	28.0795	0.111748	0.002022	55.2565	97.056	-165.475	0.111154	0.625625	-0.388775	-0.390089	0.032463	55.2565	-0.389216	-93745.4	-3.462917E-7	NaN
1146	1.000000	0.634935	7.37627e+06	-57439.1	1055.82	-29737	0.000000	0.000000	6.634993	-0.019974	NaN	0.000000	0.001627	0.001670	28.0794	0.119654	0.002073	57.7149	114.852	-165.844	-0.010393	0.633641	-0.380779	-0.382073	-0.019974	57.7149	-0.380519	-70361.9	2.838790E-7	NaN
1146	1.000000	0.642923	7.37627e+06	-57439.1	1055.82	-29737	0.000000	0.000000	6.642983	0.053155	NaN	0.000000	0.001646	0.001682	28.0804	0.089263	0.001960	45.5328	-148.316	-165.391	0.032928	0.641625	-0.372791	-0.374089	0.053155	45.5328	-0.373667	-56091.9	-9.476360E-7	NaN
1146	1.000000	0.650927	7.37627e+06	-57439.1	1055.82	-29737	0.000000	0.000000	6.650986	0.028129	NaN	0.000000	0.001685	0.001673	28.0796	0.086681	0.002165	40.0449	-162.927	-168.032	-0.041555	0.649637	-0.364787	-0.366076	0.028129	40.0449	-0.365314	-42519.1	-6.615725E-7	NaN
1146	1.000000	0.658956	7.37627e+06	-57439.1	1055.82	-29737	0.000000	0.000000	6.659015	0.020054	NaN	0.000000	0.001660	0.001679	28.0798	0.012815	0.001956	6.550345	113.237	-164.875	-0.047669	0.657602	-0.356758	-0.358112	0.020054	6.550345	-0.359054	-34528	-5.807903E-7	NaN
1146	1.000000	0.666971	7.37627e+06	-57439.1	1055.82	-29737	0.000000	0.000000	6.667030	0.027729	NaN	0.000000	0.001682	0.001705	28.0798	0.086389	0.001890	45.7099	-126.31	-169.601	0.055439	0.665639	-0.348743	-0.350075	0.027729	45.7099	-0.349198	-24851.8	-1.115788E-6	NaN
1146	1.000000	0.674954	7.37627e+06	-57439.1	1055.82	-29737	0.000000	0.000000	6.675014	0.040055	NaN	0.000000	0.001713	0.001712	28.0797	0.094839	0.001987	47.734	34.023	-169.574	0.023601	0.673646	-0.340760	-0.342067	0.040055	47.734	-0.341389	-19133.7	-2.093428E-6	NaN
1146	1.000000	0.682950	7.37627e+06	-57439.1	1055.82	-29737	0.000000	0.000000	6.683005	-0.062160	NaN	0.000000	0.001688	0.001678	28.0808	0.115047	0.002040	56.3968	-86.2141	-166.324	-0.069017	0.681624	-0.332764	-0.334090	-0.062160	56.3968	-0.331937	-13925.5	4.463756E-6	NaN
1146	1.000000	0.690956	7.37627e+06	-57439.1	1055.82	-29737	0.000000	0.000000	6.691014	-0.000876	NaN	0.000000	0.001679	0.001633	28.0808	0.057416	0.001916	29.9637	85.585	-168.063	0.083785	0.689617	-0.324758	-0.326097	-0.000876	29.9637	-0.324736	-10920.9	8.021335E-8	NaN
1146	1.000000	0.698980	7.37627e+06	-57439.1	1055.82	-29737	0.000000	0.000000	6.699039	0.007670	NaN	0.000000	0.001652	0.001644	28.0812	0.086471	0.002105	41.0765	163.141	-164.291	-0.011272	0.697673	-0.316734	-0.318040	0.007670	41.0765	-0.316874	-8367.31	-9.166311E-7	NaN
1146	1.000000	0.706959	7.37627e+06	-57439.1	1055.82	-29737	0.000000	0.000000	6.707018	0.029631	NaN	0.000000	0.001690	0.001635	28.0809	0.073418	0.001960	37.4673	-150.584	-166.551	0.012147	0.705621	-0.308755	-0.310093	0.029631	37.4673	-0.309348	-6477.56	-4.574385E-6	NaN
1146	1.000000	0.714974	7.37627e+06	-57439.1	1055.82	-29737	0.000000	0.000000	6.715036	0.089721	NaN	0.000000	0.001651	0.001635	28.0809	0.091843	0.001910	48.0733	110.476	-164.05	0.012315	0.713660	-0.300740	-0.302053	0.089721	48.0733	-0.302140	-5063.73	-1.771838E-5	NaN
1146	1.000000	0.722936	7.37627e+06	-57439.1	1055.82	-29737	0.000000	0.000000	6.722994	-0.007542	NaN	0.000000	0.001649	0.001649	28.0807	0.087898	0.001918	45.8176	-158.379	-166.748	-0.092169	0.721688	-0.292778	-0.294025	-0.007542	45.8176	-0.292655	-3656.26	2.062755E-6	NaN
1146	1.000000	0.730969	7.37627e+06	-57439.1	1055.82	-29737	0.000000	0.000000	6.731026	-0.012949	NaN	0.000000	0.001674	0.001675	28.0808	0.093029	0.001898	49.0106	64.9462	-163.466	-0.001182	0.729634	-0.284745	-0.286080	-0.012949	49.0106	-0.284547	-2763.49	4.685711E-6	NaN
1146	1.000000	0.738964	7.37627e+06	-57439.1	1055.82	-29737	0.000000	0.000000	6.739024	0.046995	NaN	0.000000	0.001692	0.001699	28.0811	0.069769	0.002110	33.0698	-135.017	-164.143	-0.033854	0.737652	-0.276750	-0.278062	0.046995	33.0698	-0.277816	-2187.71	-2.148141E-5	NaN
1146	1.000000	0.746923	7.37627e+06	-57439.1	1055.82	-29737	0.000000	0.000000	6.746980	-0.015472	NaN	0.000000	0.001685	0.001705	28.0809	0.034709	0.001945	17.8452	71.6243	-165.399	0.013796	0.745683	-0.268791	-0.270031	-0.015472	17.8452	-0.268141	-1560.49	9.914973E-6	NaN
1146	1.000000	0.754933	7.37627e+06	-57439.1	1055.82	-29737	0.000000	0.000000	6.754992	0.003009	NaN	0.000000	0.001646	0.001687	28.0811	0.021554	0.001890	11.4044	-22.9538	-165.566	-0.014716	0.753689	-0.260780	-0.262025	0.003009	11.4044	-0.260978	-1213.13	-2.480594E-6	NaN
1146	1.000000	0.763016	7.37627e+06	-57439.1	1055.82	-29737	0.000000	0.000000	6.763076	0.057391	NaN	0.000000	0.001633	0.001655	28.0808	0.123346	0.002070	59.5808	95.8322	-163.719	0.010055	0.761683	-0.252698	-0.254030	0.057391	59.5808	-0.253421	-928.502	-6.181004E-5	NaN
1146	1.000000	0.770979	7.37627e+06	-57439.1	1055.82	-29737	0.000000	0.000000	6.771040	0.077563	NaN	0.000000	0.001627	0.001669	28.0808	0.027945	0.002006	13.9297	-143.297	-167.86	0.121492	0.769644	-0.244735	-0.246070	0.077563	13.9297	-0.248911	-790.903	-9.806930E-5	NaN
1146	1.000000	0.779005	7.37627e+06	-57439.1	1055.82	-29737	0.000000	0.000000	6.779062	-0.014823	NaN	0.000000	0.001646	0.001717	28.0809	0.032557	0.001989	16.3686	24.1415	-165.2	0.011226	0.777664	-0.236709	-0.238050	-0.014823	16.3686	-0.236030	-498.213	2.975161E-5	NaN
1146	1.000000	0.786980	7.37627e+06	-57439.1	1055.82	-29737	0.000000	0.000000	6.787039	0.022200	NaN	0.000000	0.001647	0.001667	28.081	0.051644	0.002057	25.1033	155.85	-163.577	0.102253	0.785689	-0.228734	-0.230025	0.022200	25.1033	-0.229397	-391.738	-5.666952E-5	NaN
1146	1.000000	0.794995	7.37627e+06	-57439.1	1055.82	-29737	0.000000	0.000000	6.795051	-0.063320	NaN	0.000000	0.001646	0.001695	28.0808	0.050195	0.001877	26.7483	136.148	-166.347	-0.062068	0.793703	-0.220719	-0.222010	-0.063320	26.7483	-0.218943	-267.165	0.000237	NaN
1146	1.000000	0.803018	7.37627e+06	-57439.1	1055.82	-29737	0.000000	0.000000	6.803074	-0.041017	NaN	0.000000	0.001648	0.001692	28.081	0.044162	0.002091	21.1211	130.57	-168.103	0.017386	0.801687	-0.212696	-0.214027	-0.041017	21.1211	-0.211240	-200.853	0.000204	NaN
1146	1.000000	0.810988	7.37627e+06	-57439.1	1055.82	-29737	0.000000	0.000000	6.811047	0.004584	NaN	0.000000	0.001665	0.001673	28.0813	0.031764	0.001940	16.3705	-101.179	-165.86	-0.020309	0.809679	-0.204726	-0.206035	0.004584	16.3705	-0.204936	-158.675	-2.888711E-5	NaN
1146	1.000000	0.819016	7.37627e+06	-57439.1	1055.82	-29737	0.000000	0.000000	6.819074	0.006782	NaN	0.000000	0.001665	0.001685	28.0798	0.005289	0.002043	2.588992	-49.8705	-171.278	0.023577	0.817690	-0.196698	-0.198024	0.006782	2.588992	-0.198663	-125.227	-5.415433E-5	NaN
1146	1.000000	0.827014	7.37627e+06	-57439.1	1055.82	-29737	0.000000	0.000000	6.827074	0.054490	NaN	0.000000	0.001606	0.001679	28.0798	0.042782	0.002112	20.2523	163.392	-166.91	0.050227	0.825761	-0.188700	-0.189953	0.054490	20.2523	-0.190718	-92.4723	-0.000589	NaN
1146	1.000000	0.835014	7.37627e+06	-57439.1	1055.82	-29737	0.000000	0.000000	6.835073	0.027560	NaN	0.000000	0.001637	0.001691	28.0798	0.082273	0.002082	39.5073	30.5447	-166.094	0.089489	0.833686	-0.180700	-0.182028	0.027560	39.5073	-0.181223	-64.0102	-0.000431	NaN
1146	1.000000	0.843019	7.37627e+06	-57439.1	1055.82	-29737	0.000000	0.000000	6.843080	0.072531	NaN	0.000000	0.001631	0.001644	28.08	0.037915	0.001986	19.0948	150.433	-169.078	0.078896	0.841650	-0.172695	-0.174064	0.072531	19.0948	-0.175543	-51.2051	-0.001416	NaN
1146	1.000000	0.851025	7.37627e+06	-57439.1	1055.82	-29737	0.000000	0.000000	6.851083	0.001286	NaN	0.000000	0.001610	0.001618	28.0797	0.088882	0.001939	45.8489	-164.141	-169.13	-0.021745	0.849689	-0.164689	-0.166025	0.001286	45.8489	-0.164710	-33.2052	-3.873856E-5	NaN
1146	1.000000	0.859020	7.37627e+06	-57439.1	1055.82	-29737	0.000000	0.000000	6.859080	0.042162	NaN	0.000000	0.001637	0.001667	28.0796	0.095343	0.001986	48.0134	46.314	-167.457	0.006796	0.857763	-0.156693	-0.157951	0.042162	48.0134	-0.157352	-24.5911	-0.001715	NaN
1146	1.000000	0.867030	7.37627e+06	-57439.1	1055.82	-29737	0.000000	0.000000	6.867089	0.013052	NaN	0.000000	0.001641	0.001706	28.0798	0.063957	0.002110	30.3115	1.699915	-165.37	0.064929	0.865745	-0.148684	-0.149969	0.013052	30.3115	-0.149007	-17.3728	-0.000751	NaN
1146	1.000000	0.875030	7.37627e+06	-57439.1	1055.82	-29737	0.000000	0.000000	6.875091	0.071868	NaN	0.000000	0.001623	0.001691	28.0797	0.046195	0.002140	21.5817	-89.1021	-165.865	-0.077752	0.873757	-0.140684	-0.141957	0.071868	21.5817	-0.143182	-13.5655	-0.005298	NaN
1146	1.000000	0.883029	7.37627e+06	-57439.1	1055.82	-29737	0.000000	0.000000	6.883088	0.014600	NaN	0.000000	0.001646	0.001635	28.0796	0.050988	0.001955	26.0834	-104.054	-167.844	0.024233	0.881741	-0.132684	-0.133973	0.014600	26.0834	-0.133104	-8.749475	-0.001669	NaN
1146	1.000000	0.891033	7.37627e+06	-57439.1	1055.82	-29737	0.000000	0.000000	6.891091	-0.024612	NaN	0.000000	0.001633	0.001635	28.0796	0.114601	0.002102	54.5243	-93.0113	-166.586	0.081916	0.889736	-0.124680	-0.125978	-0.024612	54.5243	-0.124342	-5.901383	0.004170	NaN
1146	1.000000	0.899051	7.37627e+06	-57439.1	1055.82	-29737	0.000000	0.000000	6.899112	0.062555	NaN	0.000000	0.001610	0.001656	28.0794	0.091627	0.001955	46.8778	-40.9335	-164.54	0.059316	0.897755	-0.116663	-0.117959	0.062555	46.8778	-0.117664	-4.332127	-0.014440	NaN
1146	1.000000	0.907046	7.37627e+06	-57439.1	1055.82	-29737	0.000000	0.000000	6.907103	-0.033702	NaN	0.000000	0.001623	0.001673	28.0796	0.078701	0.001926	40.8541	131.494	-167.044	0.015016	0.905747	-0.108668	-0.109967	-0.033702	40.8541	-0.108049	-2.732418	0.012334	NaN
1146	1.000000	0.915025	7.37627e+06	-57439.1	1055.82	-29737	0.000000	0.000000	6.915084	0.019134	NaN	0.000000	0.001608	0.001676	28.0796	0.089583	0.001947	46.0082	-140.147	-168.902	0.053715	0.913697	-0.100689	-0.102017	0.019134	46.0082	-0.101001	-1.922644	-0.009952	NaN
1146	1.000000	0.923032	7.37627e+06	-57439.1	1055.82	-29737	0.000000	0.000000	6.923090	-0.009067	NaN	0.000000	0.001604	0.001658	28.0796	0.039998	0.002008	19.9211	18.4369	-168.73	-0.056216	0.921725	-0.092682	-0.093989	-0.009067	19.9211	-0.092340	-1.225595	0.007398	NaN
1146	1.000000	0.931037	7.37627e+06	-57439.1	1055.82	-29737	0.000000	0.000000	6.931092	-0.075403	NaN	0.000000	0.001566	0.001678	28.0794	0.040732	0.002056	19.8153	48.6978	-165.871	-0.134662	0.929765	-0.084677	-0.085949	-0.075403	19.8153	-0.081823	-0.687068	0.109746	NaN
1146	1.000000	0.939053	7.37627e+06	-57439.1	1055.82	-29737	0.000000	0.000000	6.939110	-0.041313	NaN	0.000000	0.001567	0.001719	28.0796	0.054553	0.002002	27.2543	102.402	-166.451	0.010311	0.937749	-0.076661	-0.077965	-0.041313	27.2543	-0.075524	-0.476481	0.086704	NaN
1146	1.000000	0.947049	7.37627e+06	-57439.1	1055.82	-29737	0.000000	0.000000	6.947108	0.017889	NaN	0.000000	0.001531	0.001715	28.0794	0.076275	0.001970	38.7174	-178.528	-163.91	0.072240	0.945708	-0.068665	-0.070006	0.017889	38.7174	-0.069012	-0.320867	-0.055754	NaN
1146	1.000000	0.955065	7.37627e+06	-57439.1	1055.82	-29737	0.000000	0.000000	6.955124	0.035231	NaN	0.000000	0.001624	0.001721	28.0811	0.032609	0.002020	16.1394	20.209	-165.379	0.058258	0.953725	-0.060649	-0.061988	0.035231	16.1394	-0.062286	-0.209218	-0.168394	NaN
1146	1.000000	0.963092	7.37627e+06	-57439.1	1055.82	-29737	0.000000	0.000000	6.963152	0.037771	NaN	0.000000	0.001618	0.001720	28.0807	0.047866	0.001987	24.0921	-73.5955	-166.228	0.029796	0.961657	-0.052622	-0.054057	0.037771	24.0921	-0.053798	-0.118629	-0.318398	NaN
1146	1.000000	0.971054	7.37627e+06	-57439.1	1055.82	-29737	0.000000	0.000000	6.971113	0.019647	NaN	0.000000	0.001626	0.001693	28.0806	0.053057	0.002040	26.0065	154.073	-163.624	0.072402	0.969778	-0.044660	-0.045936	0.019647	26.0065	-0.045226	-0.065301	-0.300864	NaN
1146	1.000000	0.979063	7.37627e+06	-57439.1	1055.82	-29737	0.000000	0.000000	6.979120	-0.032626	NaN	0.000000	0.001642	0.001675	28.0809	0.073182	0.001925	38.0084	125.89	-166.08	0.018225	0.977751	-0.036651	-0.037963	-0.032626	38.0084	-0.036007	-0.034298	0.951269	NaN
1146	1.000000	0.987082	7.37627e+06	-57439.1	1055.82	-29737	0.000000	0.000000	6.987142	0.029732	NaN	0.000000	0.001630	0.001725	28.0805	0.048254	0.002000	24.131	-2.113541	-165.295	0.043164	0.985734	-0.028632	-0.029979	0.029732	24.131	-0.029556	-0.022368	-1.329213	NaN
1146	1.000000	0.995119	7.37627e+06	-57439.1	1055.82	-29737	0.000000	0.000000	6.995177	-0.008065	NaN	0.000000	0.001611	0.001697	28.0807	0.103471	0.002041	50.6984	-134.735	-163.775	0.024386	0.993763	-0.020594	-0.021951	-0.008065	50.6984	-0.020475	-0.012915	0.624429	NaN
1146	1.000000	1.003096	7.37627e+06	-57439.1	1055.82	-29737	0.000000	0.000000	7.003155	0.032305	NaN	0.000000	0.001641	0.001682	28.0807	0.042686	0.001938	22.0263	-145.801	-167.268	0.080055	1.001815	-0.012618	-0.013899	0.032305	22.0263	-0.013718	-0.008519	-3.792242	NaN
1146	1.000000	1.011074	7.37627e+06	-57439.1	1055.82	-29737	0.000000	0.000000	7.011132	-0.013341	NaN	0.000000	0.001645	0.001693	28.0808	0.118987	0.001992	59.7359	159.231	-165.695	-0.007701	1.009793	-0.004640	-0.005921	-0.013341	59.7359	-0.004472	-0.003083	4.327936	NaN
1146	1.000000	1.019059	7.37627e+06	-57439.1	1055.82	-29737	0.000000	0.000000	7.019340	5.420403	NaN	0.000000	0.001649	0.001646	28.0811	5.841110	0.001916	3049.02	12.3628	-171.367	4.113979	1.017762	0.003345	0.002049	5.420403	3049.02	0.002012	0.001564	3464.68	70428.6
1146	2.000000	1.023699	7.37627e+06	-57439.1	1055.82	-29737	0.000000	0.000000	7.024172	10.0713	NaN	0.000000	0.001636	0.001682	28.0805	9.704576	0.001702	5700.67	8.460134	-170.503	10.9785	1.023349	0.007985	0.007636	10.0713	5700.67	0.006660	0.005700	1766.82	68984.8
1146	2.000000	1.025595	7.37627e+06	-57439.1	1055.82	-29737	0.000000	0.000000	7.026194	13.135	NaN	0.000000	0.001636	0.001702	28.0804	12.1548	0.001749	6950.8	6.160199	-174.964	12.0312	1.025271	0.009881	0.009557	13.135	6950.8	0.008464	0.007524	1745.82	73213.7
1146	2.000000	1.027574	7.37627e+06	-57439.1	1055.82	-29737	0.000000	0.000000	7.028241	14.8055	NaN	0.000000	0.001670	0.001686	28.0805	14.135	0.001868	7568.51	2.962638	-170.069	14.1855	1.027336	0.011860	0.011622	14.8055	7568.51	0.010393	0.009621	1538.82	70496.3
1146	2.000000	1.029583	7.37627e+06	-57439.1	1055.82	-29737	0.000000	0.000000	7.030529	21.5895	NaN	0.000000	0.001632	0.001683	28.0805	15.9211	0.001649	9657	5.608452	-175.698	21.5703	1.029184	0.013869	0.013470	21.5895	9657	0.012192	0.011721	1841.96	81495.6
1146	2.000000	1.031572	7.37627e+06	-57439.1	1055.82	-29737	0.000000	0.000000	7.032536	22.0167	NaN	0.000000	0.001632	0.001698	28.0806	18.4121	0.001785	10317.7	6.023028	-178.276	21.3481	1.031264	0.015859	0.015550	22.0167	10317.7	0.014258	0.014309	1538.68	78805
1146	2.000000	1.033548	7.37627e+06	-57439.1	1055.82	-29737	0.000000	0.000000	7.034659	25.5969	NaN	0.000000	0.001579	0.001720	28.0805	20.177	0.001778	11345.4	4.679959	-177.283	24.0762	1.033247	0.017834	0.017534	25.5969	11345.4	0.016142	0.016838	1520.18	79881.5
1146	2.000000	1.035541	7.37627e+06	-57439.1	1055.82	-29737	0.000000	0.000000	7.036919	32.0686	NaN	0.000000	0.001588	0.001722	28.0804	21.4205	0.001650	12986	4.724515	-178.364	31.4231	1.035196	0.019828	0.019482	32.0686	12986	0.017975	0.019460	1647.91	85050.2
1146	2.000000	1.037522	7.37627e+06	-57439.1	1055.82	-29737	0.000000	0.000000	7.038990	34.2729	NaN	0.000000	0.001541	0.001727	28.0802	24.2696	0.001739	13956.3	9.649233	175.155	32.7296	1.037328	0.021808	0.021614	34.2729	13956.3	0.019966	0.022489	1523.98	85027.4
1146	2.000000	1.039567	7.37627e+06	-57439.1	1055.82	-29737	0.000000	0.000000	7.041231	39.0414	NaN	0.000000	0.001573	0.001705	28.0794	25.5607	0.001848	13829.6	9.493306	178.725	39.7309	1.039164	0.023853	0.023450	39.0414	13829.6	0.021735	0.025343	1540.52	79369.7
1146	2.000000	1.041489	7.37627e+06	-57439.1	1055.82	-29737	0.000000	0.000000	7.043322	43.1297	NaN	0.000000	0.001542	0.001687	28.0793	28.0162	0.001824	15358.8	5.253529	178.753	40.4818	1.041217	0.025776	0.025503	43.1297	15358.8	0.023669	0.028639	1505.96	82917.7
1146	2.000000	1.043598	7.37627e+06	-57439.1	1055.82	-29737	0.000000	0.000000	7.045547	45.9487	NaN	0.000000	0.001540	0.001726	28.0791	30.2146	0.001975	15301.5	8.205839	179.924	48.2281	1.043241	0.027884	0.027528	45.9487	15301.5	0.025632	0.032176	1428.06	77936.9
1146	2.000000	1.045500	7.37627e+06	-57439.1	1055.82	-29737	0.000000	0.000000	7.047601	49.6529	NaN	0.000000	0.001577	0.001718	28.0794	31.3716	0.001883	16660.4	1.735553	-177.785	48.6965	1.045294	0.029786	0.029580	49.6529	16660.4	0.027551	0.035821	1386.16	80425.3
1146	2.000000	1.047574	7.37627e+06	-57439.1	1055.82	-29737	0.000000	0.000000	7.049883	54.719	NaN	0.000000	0.001537	0.001671	28.0792	33.6289	0.001755	19164.3	5.320613	178.369	55.4058	1.047287	0.031860	0.031573	54.719	19164.3	0.029718	0.040162	1362.47	87369.4
1146	2.000000	1.049513	7.37627e+06	-57439.1	1055.82	-29737	0.000000	0.000000	7.052127	62.121	NaN	0.000000	0.001569	0.001714	28.0792	34.7459	0.001772	19603.8	6.510244	176.36	61.3405	1.049200	0.033799	0.033487	62.121	19603.8	0.031423	0.043744	1420.09	85635.4
1146	2.000000	1.051495	7.37627e+06	-57439.1	1055.82	-29737	0.000000	0.000000	7.054317	67.1734	NaN	0.000000	0.001568	0.001661	28.079	37.0892	0.001868	19853.8	5.349567	178.039	67.2472	1.051243	0.035781	0.035529	67.1734	19853.8	0.033244	0.047735	1407.2	83022.7
1146	2.000000	1.053519	7.37627e+06	-57439.1	1055.82	-29737	0.000000	0.000000	7.056660	74.9358	NaN	0.000000	0.001557	0.001687	28.0792	38.5238	0.001839	20942.6	5.908700	177.361	73.2382	1.053202	0.037805	0.037489	74.9358	20942.6	0.035121	0.052029	1440.26	83884.1
1146	2.000000	1.055547	7.37627e+06	-57439.1	1055.82	-29737	0.000000	0.000000	7.058835	78.5125	NaN	0.000000	0.001578	0.001709	28.0794	39.8339	0.001707	23336.8	5.810721	176.19	78.8128	1.055147	0.039833	0.039433	78.5125	23336.8	0.037310	0.057261	1371.14	89101.8
1146	2.000000	1.057532	7.37627e+06	-57439.1	1055.82	-29737	0.000000	0.000000	7.061104	85.3991	NaN	0.000000	0.001582	0.001747	28.0794	42.3524	0.001839	23034.4	7.690804	174.436	85.8012	1.057171	0.041818	0.041457	85.3991	23034.4	0.039037	0.061564	1387.16	84817.9
1146	2.000000	1.059499	7.37627e+06	-57439.1	1055.82	-29737	0.000000	0.000000	7.063352	92.2314	NaN	0.000000	0.001572	0.001707	28.0802	43.4736	0.001884	23080.7	4.469864	177.509	90.994	1.059230	0.043785	0.043516	92.2314	23080.7	0.040788	0.066082	1395.71	82031.7
1146	2.000000	1.061491	7.37627e+06	-57439.1	1055.82	-29737	0.000000	0.000000	7.065529	96.7088	NaN	0.000000	0.001558	0.001691	28.0793	45.2161	0.001826	24764.1	4.862648	176.502	94.8981	1.061093	0.045778	0.045379	96.7088	24764.1	0.042849	0.071597	1350.73	84556.5
1146	2.000000	1.063484	7.37627e+06	-57439.1	1055.82	-29737	0.000000	0.000000	7.067913	106.226	NaN	0.000000	0.001604	0.001731	28.0791	47.0953	0.001857	25366.6	6.691213	174.806	104.875	1.063213	0.047771	0.047499	106.226	25366.6	0.044630	0.076540	1387.85	83770.7
1146	2.000000	1.065471	7.37627e+06	-57439.1	1055.82	-29737	0.000000	0.000000	7.070184	113.127	NaN	0.000000	0.001591	0.001730	28.0794	47.4585	0.001717	27637.1	2.643187	177.764	111.31	1.065086	0.049757	0.049372	113.127	27637.1	0.046687	0.082450	1372.07	87936.8
1146	2.000000	1.067530	7.37627e+06	-57439.1	1055.82	-29737	0.000000	0.000000	7.072465	118.541	NaN	0.000000	0.001596	0.001699	28.0793	51.2858	0.001927	26607.9	4.344596	176.754	117.402	1.067253	0.051816	0.051539	118.541	26607.9	0.048475	0.087757	1350.79	82062.4
1146	2.000000	1.069463	7.37627e+06	-57439.1	1055.82	-29737	0.000000	0.000000	7.074952	131.988	NaN	0.000000	0.001589	0.001699	28.0801	51.5369	0.001767	29173.4	3.244899	176.281	129.031	1.069182	0.053749	0.053468	131.988	29173.4	0.050356	0.093516	1411.39	87160.1
1146	2.000000	1.071351	7.37627e+06	-57439.1	1055.82	-29737	0.000000	0.000000	7.077195	140.608	NaN	0.000000	0.001584	0.001693	28.0791	53.9035	0.001726	31228.6	6.525635	172.376	134.476	1.071082	0.055638	0.055368	140.608	31228.6	0.052261	0.099529	1412.74	90438.2
1146	2.000000	1.073560	7.37627e+06	-57439.1	1055.82	-29737	0.000000	0.000000	7.079592	145.196	NaN	0.000000	0.001549	0.001693	28.0805	56.6061	0.001870	30265.5	9.061779	171.912	146.941	1.073110	0.057846	0.057397	145.196	30265.5	0.054248	0.105994	1369.85	84934
1146	2.000000	1.075466	7.37627e+06	-57439.1	1055.82	-29737	0.000000	0.000000	7.081530	145.972	NaN	0.000000	0.001556	0.001716	28.0805	58.411	0.001867	31284.2	5.282909	173.314	143.455	1.075269	0.059752	0.059555	145.972	31284.2	0.056253	0.112716	1295.04	85134.6
1146	2.000000	1.077482	7.37627e+06	-57439.1	1055.82	-29737	0.000000	0.000000	7.084142	160.467	NaN	0.000000	0.001532	0.001716	28.0805	59.8673	0.001892	31645.2	4.273643	175.7	161.206	1.077238	0.061768	0.061524	160.467	31645.2	0.057965	0.118611	1352.89	83949.4
1146	2.000000	1.079503	7.37627e+06	-57439.1	1055.82	-29737	0.000000	0.000000	7.086529	169.351	NaN	0.000000	0.001521	0.001712	28.0807	60.6501	0.001769	34293.1	5.031230	173.598	170.112	1.079190	0.063789	0.063476	169.351	34293.1	0.060085	0.126113	1342.84	88226.5
1146	2.000000	1.081469	7.37627e+06	-57439.1	1055.82	-29737	0.000000	0.000000	7.088862	178.265	NaN	0.000000	0.001535	0.001709	28.0805	61.7092	0.001720	35876.7	3.269896	175.494	176.326	1.081110	0.065755	0.065396	178.265	35876.7	0.062029	0.133183	1338.5	89817.6
1146	2.000000	1.083443	7.37627e+06	-57439.1	1055.82	-29737	0.000000	0.000000	7.091273	188.903	NaN	0.000000	0.001485	0.001671	28.0808	64.3337	0.001835	35065.5	3.234279	175.717	185.668	1.083144	0.067729	0.067430	188.903	35065.5	0.063689	0.139367	1355.44	85817
1146	2.000000	1.085495	7.37627e+06	-57439.1	1055.82	-29737	0.000000	0.000000	7.093681	197.533	NaN	0.000000	0.001532	0.001675	28.0803	65.9552	0.001929	34191.1	3.593707	175.463	198.756	1.085159	0.069782	0.069445	197.533	34191.1	0.065449	0.146068	1352.34	81735.3
1146	2.000000	1.087449	7.37627e+06	-57439.1	1055.82	-29737	0.000000	0.000000	7.095957	205.371	NaN	0.000000	0.001543	0.001682	28.0803	68.7568	0.001830	37563.9	4.592319	173.237	203.886	1.087216	0.071735	0.071502	205.371	37563.9	0.067635	0.154601	1328.4	87284.7
1146	2.000000	1.089427	7.37627e+06	-57439.1	1055.82	-29737	0.000000	0.000000	7.098279	213.746	NaN	0.000000	0.001570	0.001688	28.0805	68.9119	0.001766	39018.7	3.822854	173.109	211.492	1.089299	0.073713	0.073585	213.746	39018.7	0.069604	0.162482	1315.51	88439
1146	2.000000	1.091394	7.37627e+06	-57439.1	1055.82	-29737	0.000000	0.000000	7.100811	227.444	NaN	0.000000	0.001590	0.001720	28.0802	72.6265	0.001844	39381.9	6.730086	170.818	222.301	1.091011	0.075681	0.075297	227.444	39381.9	0.071349	0.169619	1340.91	87364
1146	2.000000	1.093458	7.37627e+06	-57439.1	1055.82	-29737	0.000000	0.000000	7.103160	234.39	NaN	0.000000	0.001540	0.001707	28.081	75.0902	0.001873	40085.6	10.737	167.433	232.72	1.093070	0.077744	0.077357	234.39	40085.6	0.073359	0.178019	1316.66	86801.8
1146	2.000000	1.095450	7.37627e+06	-57439.1	1055.82	-29737	0.000000	0.000000	7.105570	244.564	NaN	0.000000	0.001569	0.001692	28.0804	74.1901	0.001688	43954.2	0.606880	176.132	243.116	1.095161	0.079736	0.079448	244.564	43954.2	0.075563	0.187450	1304.69	92753.7
1146	2.000000	1.097535	7.37627e+06	-57439.1	1055.82	-29737	0.000000	0.000000	7.108067	254.543	NaN	0.000000	0.001587	0.001720	28.0804	77.6593	0.001800	43146.7	6.952064	170.418	258.439	1.097141	0.081821	0.081427	254.543	43146.7	0.077397	0.195472	1302.19	89161.7
1146	2.000000	1.099507	7.37627e+06	-57439.1	1055.82	-29737	0.000000	0.000000	7.110603	268.276	NaN	0.000000	0.001558	0.001715	28.0802	79.5855	0.001912	41628.4	7.514117	170.347	270.337	1.099079	0.083793	0.083365	268.276	41628.4	0.078960	0.202432	1325.27	84532.4
1146	2.000000	1.101488	7.37627e+06	-57439.1	1055.82	-29737	0.000000	0.000000	7.112990	278.128	NaN	0.000000	0.001547	0.001708	28.0804	81.3313	0.001856	43815.1	1.871424	175.667	279.671	1.101158	0.085774	0.085444	278.128	43815.1	0.081013	0.211751	1313.47	86993
1146	2.000000	1.103503	7.37627e+06	-57439.1	1055.82	-29737	0.000000	0.000000	7.115499	290.158	NaN	0.000000	0.001574	0.001726	28.0807	84.7693	0.001891	44823	8.516874	168.468	289.969	1.103056	0.087789	0.087342	290.158	44823	0.082934	0.220644	1315.05	87182.2
1146	2.000000	1.105572	7.37627e+06	-57439.1	1055.82	-29737	0.000000	0.000000	7.117831	296.531	NaN	0.000000	0.001528	0.001697	28.0804	85.9645	0.001931	44520.1	7.028280	170.571	302.626	1.105110	0.089858	0.089396	296.531	44520.1	0.084863	0.229746	1290.69	84860.3
1146	2.000000	1.107413	7.37627e+06	-57439.1	1055.82	-29737	0.000000	0.000000	7.120286	311.478	NaN	0.000000	0.001530	0.001711	28.0797	87.224	0.001872	46587.1	5.197571	171.646	309.177	1.107082	0.091699	0.091369	311.478	46587.1	0.086684	0.238502	1305.98	87155.2
1146	2.000000	1.109434	7.37627e+06	-57439.1	1055.82	-29737	0.000000	0.000000	7.123023	328.857	NaN	0.000000	0.001543	0.001743	28.079	87.3949	0.001748	49995.5	8.332400	168.635	330.614	1.109053	0.093720	0.093339	328.857	49995.5	0.088787	0.248797	1321.79	91576
1146	2.000000	1.111392	7.37627e+06	-57439.1	1055.82	-29737	0.000000	0.000000	7.125080	331.276	NaN	0.000000	0.001546	0.001716	28.0789	89.0835	0.001742	51146.2	4.268973	171.619	327.241	1.111057	0.095678	0.095344	331.276	51146.2	0.090820	0.258947	1279.32	91829.2
1146	2.000000	1.113462	7.37627e+06	-57439.1	1055.82	-29737	0.000000	0.000000	7.127803	347.146	NaN	0.000000	0.001570	0.001713	28.0791	91.7177	0.001831	50095.1	4.881687	171.164	345.263	1.113155	0.097748	0.097441	347.146	50095.1	0.092550	0.267731	1296.62	88454.3
1146	2.000000	1.115392	7.37627e+06	-57439.1	1055.82	-29737	0.000000	0.000000	7.129968	352.85	NaN	0.000000	0.001552	0.001718	28.079	92.9512	0.001750	53101.6	2.586867	172.565	350.873	1.115214	0.099678	0.099500	352.85	53101.6	0.094695	0.278809	1265.56	91881.3
1146	2.000000	1.117398	7.37627e+06	-57439.1	1055.82	-29737	0.000000	0.000000	7.132634	368.876	NaN	0.000000	0.001584	0.001708	28.0792	95.6225	0.001810	52843.1	0.817960	174.571	366.617	1.117215	0.101685	0.101501	368.876	52843.1	0.096449	0.288029	1280.69	89958.7
1146	2.000000	1.119444	7.37627e+06	-57439.1	1055.82	-29737	0.000000	0.000000	7.135091	378.873	NaN	0.000000	0.001580	0.001724	28.0789	96.4009	0.001834	52556.4	3.086916	172.816	378.279	1.119200	0.103730	0.103486	378.873	52556.4	0.098324	0.298035	1271.24	87956
1146	2.000000	1.121044	7.37627e+06	-57439.1	1055.82	-29737	0.000000	0.000000	7.137173	390.599	NaN	0.000000	0.001546	0.001707	28.0793	98.3137	0.001703	57722.5	5.493629	-9.696008	394.435	1.120531	0.105330	0.104817	390.599	57722.5	0.100255	0.308512	1266.07	94947.2