File: remote_trans/data/nanoindenter/0828-1/data/Data_2025-08-06,11h17m57s/2025-07-22_16-23-58_1_424.txt
2025-07-22, 16:23:58, 1
Index	Phase	Displacement	Time	Pos X	Pos Y	Pos Z	Rot A	Rot B	Piezo Z	Force A	Force B	Gripper	Voltage A	Voltage B	Temperature	Amplitude force	Amplitude pos	Stiffness	Phase shift	Phase excitation	Force A raw	Displacement raw	HMax	HMax raw	Real Force	Real Stiffness	Contact Depth	Area	Hardness	Reduced Mod.
[#]	[#]	[um]	[s]	[um]	[um]	[um]	[m°]	[m°]	[um]	[uN]	[uN]	[V]	[V]	[V]	[°C]	[uN]	[um]	[N/m]	[°]	[°]	[uN]	[um]	[um]	[um]	[uN]	[N/m]	[um]	[um^2]	[MPa]	[MPa]
424	1.000000	0.002317	7.3692e+06	-55889.1	1005.82	-29740.6	0.000000	0.000000	6.002766	-0.009961	NaN	0.000000	0.001577	0.001738	28.0813	0.050940	0.000915	55.6986	2.746386	-167.762	0.014797	0.001114	-1.077180	-1.078384	-0.009961	55.6986	-1.077046	-2.465126E+14	4.040701E-17	NaN
424	1.000000	0.010309	7.36921e+06	-55889.1	1005.82	-29740.6	0.000000	0.000000	6.010758	0.028634	NaN	0.000000	0.001567	0.001747	28.0814	0.190476	0.001022	186.451	38.2829	-164.002	-0.029457	0.009016	-1.069189	-1.070481	0.028634	186.451	-1.069304	-1.940149E+14	-1.475845E-16	NaN
424	1.000000	0.018304	7.36921e+06	-55889.1	1005.82	-29740.6	0.000000	0.000000	6.018754	0.041569	NaN	0.000000	0.001533	0.001721	28.0812	0.128495	0.001832	70.1362	-140.257	-164.522	0.039206	0.016998	-1.061193	-1.062499	0.041569	70.1362	-1.061638	-1.530490E+14	-2.716043E-16	NaN
424	1.000000	0.026311	7.36921e+06	-55889.1	1005.82	-29740.6	0.000000	0.000000	6.026761	0.031383	NaN	0.000000	0.001599	0.001750	28.0803	0.066393	0.001768	37.5533	-46.7327	-165.765	0.003354	0.025024	-1.053187	-1.054473	0.031383	37.5533	-1.053813	-1.201361E+14	-2.612312E-16	NaN
424	1.000000	0.034295	7.36921e+06	-55889.1	1005.82	-29740.6	0.000000	0.000000	6.034743	-0.010028	NaN	0.000000	0.001581	0.001729	28.0806	0.117670	0.001856	63.3902	-11.4097	-165.653	-0.074414	0.033016	-1.045202	-1.046481	-0.010028	63.3902	-1.045083	-9.168920E+13	1.093660E-16	NaN
424	1.000000	0.042330	7.36921e+06	-55889.1	1005.82	-29740.6	0.000000	0.000000	6.042780	0.029695	NaN	0.000000	0.001576	0.001739	28.0805	0.056471	0.001925	29.3382	61.8525	-163.394	0.059603	0.040977	-1.037168	-1.038520	0.029695	29.3382	-1.037927	-7.346608E+13	-4.041960E-16	NaN
424	1.000000	0.050310	7.36921e+06	-55889.1	1005.82	-29740.6	0.000000	0.000000	6.050755	-0.089027	NaN	0.000000	0.001613	0.001735	28.0802	0.059841	0.002047	29.2299	-158.53	-165.272	-0.063885	0.048989	-1.029187	-1.030508	-0.089027	29.2299	-1.026903	-5.221814E+13	1.704896E-15	NaN
424	1.000000	0.058277	7.36921e+06	-55889.1	1005.82	-29740.6	0.000000	0.000000	6.058726	0.004914	NaN	0.000000	0.001617	0.001758	28.0801	0.035560	0.001968	18.0697	120.835	-166.397	0.060722	0.056953	-1.021220	-1.022544	0.004914	18.0697	-1.021424	-4.406712E+13	-1.115206E-16	NaN
424	1.000000	0.066303	7.36921e+06	-55889.1	1005.82	-29740.6	0.000000	0.000000	6.066752	0.006808	NaN	0.000000	0.001586	0.001749	28.0807	0.039903	0.001895	21.0556	-74.1143	-163.937	-0.044621	0.065004	-1.013194	-1.014493	0.006808	21.0556	-1.013437	-3.440590E+13	-1.978721E-16	NaN
424	1.000000	0.074288	7.36921e+06	-55889.1	1005.82	-29740.6	0.000000	0.000000	6.074734	-0.080500	NaN	0.000000	0.001608	0.001702	28.0801	0.068189	0.001886	36.1528	-40.7	-165.788	-0.003475	0.073005	-1.005209	-1.006493	-0.080500	36.1528	-1.003539	-2.531706E+13	3.179679E-15	NaN
424	1.000000	0.082271	7.36921e+06	-55889.1	1005.82	-29740.6	0.000000	0.000000	6.082718	-0.035999	NaN	0.000000	0.001582	0.001727	28.0803	0.074932	0.001981	37.8231	139.373	-161.968	-0.095907	0.081004	-0.997227	-0.998494	-0.035999	37.8231	-0.996513	-2.036183E+13	1.767944E-15	NaN
424	1.000000	0.090311	7.36921e+06	-55889.1	1005.82	-29740.6	0.000000	0.000000	6.090760	0.000115	NaN	0.000000	0.001578	0.001714	28.0801	0.049475	0.002040	24.2469	-42.5304	-165.091	0.067690	0.088981	-0.989186	-0.990517	0.000115	24.2469	-0.989190	-1.622554E+13	-7.112699E-18	NaN
424	1.000000	0.098312	7.36921e+06	-55889.1	1005.82	-29740.6	0.000000	0.000000	6.098762	0.032760	NaN	0.000000	0.001550	0.001765	28.0803	0.010756	0.002027	5.305653	139.372	-169.599	0.024258	0.097033	-0.981185	-0.982464	0.032760	5.305653	-0.985816	-1.461361E+13	-2.241728E-15	NaN
424	1.000000	0.106298	7.36921e+06	-55889.1	1005.82	-29740.6	0.000000	0.000000	6.106746	-0.006845	NaN	0.000000	0.001551	0.001750	28.0804	0.110255	0.002030	54.3094	-54.7547	-164.515	-0.050312	0.105009	-0.973200	-0.974488	-0.006845	54.3094	-0.973105	-9.851693E+12	6.947881E-16	NaN
424	1.000000	0.114331	7.36921e+06	-55889.1	1005.82	-29740.6	0.000000	0.000000	6.114779	0.001210	NaN	0.000000	0.001597	0.001730	28.0801	0.072240	0.002004	36.0529	17.9233	-163.416	0.047437	0.113020	-0.965167	-0.966478	0.001210	36.0529	-0.965192	-7.706493E+12	-1.570566E-16	NaN
424	1.000000	0.122338	7.36921e+06	-55889.1	1005.82	-29740.6	0.000000	0.000000	6.122788	0.049975	NaN	0.000000	0.001587	0.001714	28.0801	0.061941	0.001978	31.3138	-69.3343	-165.332	0.029802	0.121001	-0.957160	-0.958496	0.049975	31.3138	-0.958357	-6.233259E+12	-8.017488E-15	NaN
424	1.000000	0.130352	7.36921e+06	-55889.1	1005.82	-29740.6	0.000000	0.000000	6.130800	-0.009969	NaN	0.000000	0.001613	0.001737	28.08	0.048228	0.002001	24.0979	72.8329	-165.568	-0.037766	0.129018	-0.949146	-0.950480	-0.009969	24.0979	-0.948835	-4.637878E+12	2.149531E-15	NaN
424	1.000000	0.138321	7.36921e+06	-55889.1	1005.82	-29740.6	0.000000	0.000000	6.138769	-0.001433	NaN	0.000000	0.001603	0.001712	28.0802	0.058475	0.002070	28.2536	-103.006	-163.608	0.018652	0.137058	-0.941176	-0.942439	-0.001433	28.2536	-0.941138	-3.651692E+12	3.924743E-16	NaN
424	1.000000	0.146329	7.36921e+06	-55889.1	1005.82	-29740.6	0.000000	0.000000	6.146777	-0.004685	NaN	0.000000	0.001600	0.001695	28.0809	0.025133	0.002152	11.6812	-175.773	-166.11	0.045053	0.145059	-0.933168	-0.934439	-0.004685	11.6812	-0.932867	-2.824198E+12	1.658800E-15	NaN
424	1.000000	0.154365	7.36921e+06	-55889.1	1005.82	-29740.6	0.000000	0.000000	6.154814	0.016496	NaN	0.000000	0.001572	0.001773	28.0802	0.007248	0.001935	3.745797	-72.3597	-162.641	0.046574	0.153065	-0.925132	-0.926433	0.016496	3.745797	-0.928435	-2.460800E+12	-6.703502E-15	NaN
424	1.000000	0.162350	7.36921e+06	-55889.1	1005.82	-29740.6	0.000000	0.000000	6.162800	0.034790	NaN	0.000000	0.001576	0.001735	28.0814	0.038124	0.001944	19.6062	-38.777	-165.277	-0.048875	0.161072	-0.917147	-0.918425	0.034790	19.6062	-0.918478	-1.805748E+12	-1.926630E-14	NaN
424	1.000000	0.170386	7.36921e+06	-55889.1	1005.82	-29740.6	0.000000	0.000000	6.170835	0.006301	NaN	0.000000	0.001624	0.001767	28.0814	0.058386	0.001985	29.4112	-156.392	-164.88	0.003475	0.168992	-0.909111	-0.910505	0.006301	29.4112	-0.909272	-1.356220E+12	-4.645864E-15	NaN
424	1.000000	0.178350	7.36921e+06	-55889.1	1005.82	-29740.6	0.000000	0.000000	6.178796	-0.060582	NaN	0.000000	0.001598	0.001738	28.0815	0.043644	0.001945	22.4388	-53.2409	-164.199	-0.087374	0.177019	-0.901147	-0.902479	-0.060582	22.4388	-0.899122	-9.890284E+11	6.125360E-14	NaN
424	1.000000	0.186338	7.36921e+06	-55889.1	1005.82	-29740.6	0.000000	0.000000	6.186788	0.039028	NaN	0.000000	0.001614	0.001741	28.0815	0.076425	0.001942	39.3544	-88.8236	-168.689	-0.004090	0.185030	-0.893160	-0.894467	0.039028	39.3544	-0.893904	-8.407736E+11	-4.641896E-14	NaN
424	1.000000	0.194348	7.36921e+06	-55889.1	1005.82	-29740.6	0.000000	0.000000	6.194796	-0.009618	NaN	0.000000	0.001612	0.001752	28.0814	0.131088	0.002034	64.4607	0.494428	-167.151	-0.088528	0.193056	-0.885150	-0.886441	-0.009618	64.4607	-0.885038	-6.380138E+11	1.507427E-14	NaN
424	1.000000	0.202387	7.36921e+06	-55889.1	1005.82	-29740.6	0.000000	0.000000	6.202838	0.068915	NaN	0.000000	0.001587	0.001778	28.0812	0.048128	0.001907	25.2333	144.51	-166.989	0.084159	0.200973	-0.877111	-0.878524	0.068915	25.2333	-0.879159	-5.312940E+11	-1.297117E-13	NaN
424	1.000000	0.210336	7.36921e+06	-55889.1	1005.82	-29740.6	0.000000	0.000000	6.210784	-0.014776	NaN	0.000000	0.001599	0.001793	28.0813	0.129179	0.001960	65.9227	128.872	-162.114	-0.089371	0.209087	-0.869161	-0.870411	-0.014776	65.9227	-0.868993	-3.870983E+11	3.817156E-14	NaN
424	1.000000	0.218380	7.36921e+06	-55889.1	1005.82	-29740.6	0.000000	0.000000	6.218830	0.030203	NaN	0.000000	0.001617	0.001790	28.0812	0.024564	0.001937	12.6823	142.575	-165.035	0.097618	0.217067	-0.861117	-0.862431	0.030203	12.6823	-0.862903	-3.201960E+11	-9.432750E-14	NaN
424	1.000000	0.226363	7.36921e+06	-55889.1	1005.82	-29740.6	0.000000	0.000000	6.226811	-0.024229	NaN	0.000000	0.001603	0.001766	28.0814	0.108092	0.002012	53.7232	-67.2297	-163.493	-0.053223	0.225010	-0.853134	-0.854487	-0.024229	53.7232	-0.852796	-2.336654E+11	1.036920E-13	NaN
424	1.000000	0.234389	7.36921e+06	-55889.1	1005.82	-29740.6	0.000000	0.000000	6.234840	0.076202	NaN	0.000000	0.001541	0.001787	28.0817	0.118288	0.002043	57.8947	-100.657	-166.871	0.041346	0.233081	-0.845109	-0.846416	0.076202	57.8947	-0.846096	-1.896109E+11	-4.018877E-13	NaN
424	1.000000	0.242410	7.36921e+06	-55889.1	1005.82	-29740.6	0.000000	0.000000	6.242858	-0.007554	NaN	0.000000	0.001568	0.001756	28.0814	0.020835	0.002108	9.882813	120.286	-164.47	0.058958	0.241042	-0.837088	-0.838456	-0.007554	9.882813	-0.836515	-1.406271E+11	5.371852E-14	NaN
424	1.000000	0.250351	7.36921e+06	-55889.1	1005.82	-29740.6	0.000000	0.000000	6.250799	-0.001848	NaN	0.000000	0.001566	0.001759	28.0814	0.131591	0.002077	63.3582	158.57	-166.174	-0.011465	0.249088	-0.829146	-0.830409	-0.001848	63.3582	-0.829125	-1.116654E+11	1.655242E-14	NaN
424	1.000000	0.258397	7.36921e+06	-55889.1	1005.82	-29740.6	0.000000	0.000000	6.258847	0.043509	NaN	0.000000	0.001576	0.001764	28.0814	0.043245	0.001915	22.5817	161.426	-165.577	0.066089	0.257121	-0.821100	-0.822376	0.043509	22.5817	-0.822545	-9.093417E+10	-4.784693E-13	NaN
424	1.000000	0.266381	7.36921e+06	-55889.1	1005.82	-29740.6	0.000000	0.000000	6.266829	-0.014405	NaN	0.000000	0.001564	0.001753	28.0814	0.045663	0.002064	22.1217	37.2117	-164.043	-0.039539	0.265101	-0.813117	-0.814396	-0.014405	22.1217	-0.812628	-6.671546E+10	2.159139E-13	NaN
424	1.000000	0.274392	7.36921e+06	-55889.1	1005.82	-29740.6	0.000000	0.000000	6.274840	-0.012645	NaN	0.000000	0.001595	0.001749	28.0814	0.030217	0.001967	15.3596	-48.5215	-166.911	-0.047051	0.273094	-0.805106	-0.806403	-0.012645	15.3596	-0.804488	-5.173470E+10	2.444273E-13	NaN
424	1.000000	0.282403	7.36921e+06	-55889.1	1005.82	-29740.6	0.000000	0.000000	6.282851	-0.012305	NaN	0.000000	0.001589	0.001724	28.0814	0.066466	0.001980	33.5768	96.3572	-164.037	-0.051102	0.281116	-0.797094	-0.798381	-0.012305	33.5768	-0.796819	-4.070807E+10	3.022820E-13	NaN
424	1.000000	0.290361	7.36921e+06	-55889.1	1005.82	-29740.6	0.000000	0.000000	6.290811	0.032911	NaN	0.000000	0.001612	0.001748	28.0817	0.084659	0.002054	41.2167	-152.014	-161.938	-0.035600	0.289143	-0.789137	-0.790354	0.032911	41.2167	-0.789736	-3.262059E+10	-1.008891E-12	NaN
424	1.000000	0.298415	7.36921e+06	-55889.1	1005.82	-29740.6	0.000000	0.000000	6.298863	-0.005216	NaN	0.000000	0.001603	0.001723	28.0804	0.125324	0.002059	60.8757	30.8726	-162.092	-0.041814	0.297144	-0.781083	-0.782353	-0.005216	60.8757	-0.781018	-2.483539E+10	2.100416E-13	NaN
424	1.000000	0.306417	7.36921e+06	-55889.1	1005.82	-29740.6	0.000000	0.000000	6.306863	-0.063756	NaN	0.000000	0.001616	0.001766	28.0805	0.071880	0.001935	37.1481	132.587	-165.094	0.016641	0.305053	-0.773080	-0.774444	-0.063756	37.1481	-0.771793	-1.860724E+10	3.426395E-12	NaN
424	1.000000	0.314433	7.36921e+06	-55889.1	1005.82	-29740.6	0.000000	0.000000	6.314885	0.075781	NaN	0.000000	0.001639	0.001783	28.0801	0.047333	0.002021	23.4216	-87.3707	-168.47	0.072888	0.313113	-0.765064	-0.766384	0.075781	23.4216	-0.767491	-1.626248E+10	-4.659882E-12	NaN
424	1.000000	0.322416	7.36921e+06	-55889.1	1005.82	-29740.6	0.000000	0.000000	6.322864	-0.013658	NaN	0.000000	0.001623	0.001773	28.0801	0.031707	0.001956	16.212	-2.572087	-163.498	0.021237	0.321090	-0.757081	-0.758408	-0.013658	16.212	-0.756449	-1.150782E+10	1.186875E-12	NaN
424	1.000000	0.330401	7.36921e+06	-55889.1	1005.82	-29740.6	0.000000	0.000000	6.330851	0.028010	NaN	0.000000	0.001586	0.001733	28.0804	0.068242	0.002113	32.2944	3.421152	-164.111	0.107422	0.329107	-0.749096	-0.750390	0.028010	32.2944	-0.749747	-9.327599E+9	-3.002878E-12	NaN
424	1.000000	0.338408	7.36921e+06	-55889.1	1005.82	-29740.6	0.000000	0.000000	6.338857	-8.930570E-5	NaN	0.000000	0.001557	0.001743	28.0802	0.137328	0.001886	72.8008	-136.024	-163.948	-0.013373	0.337087	-0.741089	-0.742411	-8.930570E-5	72.8008	-0.741088	-7.110136E+9	1.256034E-14	NaN
424	1.000000	0.346412	7.36921e+06	-55889.1	1005.82	-29740.6	0.000000	0.000000	6.346859	-0.038565	NaN	0.000000	0.001570	0.001764	28.08	0.038124	0.002034	18.7441	24.9983	-165.799	-0.003288	0.345123	-0.733085	-0.734374	-0.038565	18.7441	-0.731542	-5.270136E+9	7.317568E-12	NaN
424	1.000000	0.354416	7.36921e+06	-55889.1	1005.82	-29740.6	0.000000	0.000000	6.354865	-0.005341	NaN	0.000000	0.001603	0.001714	28.08	0.083247	0.001998	41.6606	107.209	-162.658	-0.021831	0.353131	-0.725081	-0.726366	-0.005341	41.6606	-0.724985	-4.289865E+9	1.245110E-12	NaN
424	1.000000	0.362378	7.36921e+06	-55889.1	1005.82	-29740.6	0.000000	0.000000	6.362825	-0.027614	NaN	0.000000	0.001583	0.001757	28.08	0.012351	0.002135	5.784103	134.528	-161.932	-0.039128	0.361099	-0.717119	-0.718399	-0.027614	5.784103	-0.713539	-2.994577E+9	9.221326E-12	NaN
424	1.000000	0.370393	7.36921e+06	-55889.1	1005.82	-29740.6	0.000000	0.000000	6.370840	-0.016520	NaN	0.000000	0.001603	0.001737	28.0802	0.061086	0.002003	30.5001	96.9229	-165.025	-0.084501	0.369161	-0.709105	-0.710337	-0.016520	30.5001	-0.708699	-2.572091E+9	6.422969E-12	NaN
424	1.000000	0.378436	7.36921e+06	-55889.1	1005.82	-29740.6	0.000000	0.000000	6.378883	-0.031004	NaN	0.000000	0.001615	0.001731	28.08	0.116101	0.002078	55.8732	174.976	-167.526	0.030651	0.377116	-0.701061	-0.702381	-0.031004	55.8732	-0.700645	-1.996840E+9	1.552668E-11	NaN
424	1.000000	0.386403	7.36921e+06	-55889.1	1005.82	-29740.6	0.000000	0.000000	6.386852	-0.006309	NaN	0.000000	0.001654	0.001757	28.0801	0.009065	0.002001	4.531216	-78.2567	-167.711	-0.006130	0.385119	-0.693094	-0.694378	-0.006309	4.531216	-0.692050	-1.523803E+9	4.140336E-12	NaN
424	1.000000	0.394468	7.36921e+06	-55889.1	1005.82	-29740.6	0.000000	0.000000	6.394920	0.067700	NaN	0.000000	0.001679	0.001736	28.08	0.055221	0.001957	28.2132	153.255	-162.901	0.031634	0.393131	-0.685029	-0.686366	0.067700	28.2132	-0.686829	-1.292919E+9	-5.236179E-11	NaN
424	1.000000	0.402447	7.36921e+06	-55889.1	1005.82	-29740.6	0.000000	0.000000	6.402896	0.012203	NaN	0.000000	0.001651	0.001733	28.08	0.071317	0.001933	36.8983	115.132	-162.337	0.004352	0.401157	-0.677050	-0.678340	0.012203	36.8983	-0.677298	-9.577445E+8	-1.274097E-11	NaN
424	1.000000	0.410458	7.36921e+06	-55889.1	1005.82	-29740.6	0.000000	0.000000	6.410904	-0.061413	NaN	0.000000	0.001655	0.001721	28.08	0.101205	0.001942	52.1044	140.887	-164.62	-0.121608	0.409129	-0.669040	-0.670368	-0.061413	52.1044	-0.668156	-7.180381E+8	8.552874E-11	NaN
424	1.000000	0.418462	7.36921e+06	-55889.1	1005.82	-29740.6	0.000000	0.000000	6.418911	0.023953	NaN	0.000000	0.001673	0.001763	28.08	0.088349	0.002058	42.9233	-165.106	-163.691	0.021920	0.417086	-0.661036	-0.662412	0.023953	42.9233	-0.661454	-5.812832E+8	-4.120676E-11	NaN
424	1.000000	0.426445	7.36921e+06	-55889.1	1005.82	-29740.6	0.000000	0.000000	6.426897	0.074119	NaN	0.000000	0.001637	0.001750	28.0799	0.050169	0.002049	24.4854	-137.524	-168.656	0.023234	0.425142	-0.653052	-0.654355	0.074119	24.4854	-0.655322	-4.790521E+8	-1.547191E-10	NaN
424	1.000000	0.434474	7.36921e+06	-55889.1	1005.82	-29740.6	0.000000	0.000000	6.434920	-0.072779	NaN	0.000000	0.001655	0.001749	28.0817	0.020495	0.002004	10.2288	-40.8949	-162.57	-0.011480	0.433141	-0.645023	-0.646357	-0.072779	10.2288	-0.639687	-2.924119E+8	2.488936E-10	NaN
424	1.000000	0.442465	7.36921e+06	-55889.1	1005.82	-29740.6	0.000000	0.000000	6.442912	-0.017662	NaN	0.000000	0.001666	0.001756	28.0814	0.062485	0.001988	31.4377	-167.218	-164.172	0.006903	0.441144	-0.637033	-0.638353	-0.017662	31.4377	-0.636611	-2.653318E+8	6.656602E-11	NaN
424	1.000000	0.450456	7.36921e+06	-55889.1	1005.82	-29740.6	0.000000	0.000000	6.450907	0.053027	NaN	0.000000	0.001682	0.001776	28.0811	0.049980	0.002092	23.8855	-144.446	-163.112	0.014690	0.449137	-0.629041	-0.630360	0.053027	23.8855	-0.630706	-2.201517E+8	-2.408636E-10	NaN
424	1.000000	0.458465	7.36921e+06	-55889.1	1005.82	-29740.6	0.000000	0.000000	6.458911	-0.050558	NaN	0.000000	0.001685	0.001714	28.0813	0.033765	0.002146	15.7306	-14.7809	-164.073	-0.010502	0.457230	-0.621033	-0.622267	-0.050558	15.7306	-0.618622	-1.502086E+8	3.365879E-10	NaN
424	1.000000	0.466475	7.36921e+06	-55889.1	1005.82	-29740.6	0.000000	0.000000	6.466925	0.023624	NaN	0.000000	0.001602	0.001748	28.0813	0.012799	0.002075	6.166939	22.0045	-163.639	-0.015092	0.465149	-0.613022	-0.614348	0.023624	6.166939	-0.615895	-1.377835E+8	-1.714590E-10	NaN
424	1.000000	0.474446	7.36921e+06	-55889.1	1005.82	-29740.6	0.000000	0.000000	6.474894	-0.007248	NaN	0.000000	0.001650	0.001794	28.0817	0.109721	0.001939	56.5781	-136.39	-161.725	0.012287	0.473167	-0.605052	-0.606331	-0.007248	56.5781	-0.604956	-9.743049E+7	7.439601E-11	NaN
424	1.000000	0.482501	7.36921e+06	-55889.1	1005.82	-29740.6	0.000000	0.000000	6.482953	0.101996	NaN	0.000000	0.001656	0.001789	28.0815	0.082449	0.002047	40.2816	119.508	-164.068	0.098380	0.481141	-0.596997	-0.598356	0.101996	40.2816	-0.598896	-8.039909E+7	-1.268621E-9	NaN
424	1.000000	0.490490	7.36921e+06	-55889.1	1005.82	-29740.6	0.000000	0.000000	6.490937	-0.030457	NaN	0.000000	0.001619	0.001727	28.0814	0.110738	0.001971	56.1905	50.2516	-164.135	0.082576	0.489169	-0.589008	-0.590328	-0.030457	56.1905	-0.588601	-5.799366E+7	5.251859E-10	NaN
424	1.000000	0.498514	7.36921e+06	-55889.1	1005.82	-29740.6	0.000000	0.000000	6.498964	0.023809	NaN	0.000000	0.001583	0.001708	28.0817	0.059014	0.002113	27.9311	-124.628	-166.656	0.094834	0.497162	-0.580983	-0.582335	0.023809	27.9311	-0.581623	-4.646419E+7	-5.124233E-10	NaN
424	1.000000	0.506490	7.36921e+06	-55889.1	1005.82	-29740.6	0.000000	0.000000	6.506938	-0.000292	NaN	0.000000	0.001600	0.001705	28.0817	0.068696	0.002116	32.4689	-46.9746	-164.318	-0.010346	0.505242	-0.573007	-0.574255	-0.000292	32.4689	-0.573001	-3.532530E+7	8.252916E-12	NaN
424	1.000000	0.514502	7.36921e+06	-55889.1	1005.82	-29740.6	0.000000	0.000000	6.514952	0.043911	NaN	0.000000	0.001583	0.001707	28.0816	0.078284	0.002100	37.2794	18.9741	-161.784	-0.032204	0.513213	-0.564996	-0.566284	0.043911	37.2794	-0.565879	-2.816294E+7	-1.559193E-9	NaN
424	1.000000	0.522485	7.36921e+06	-55889.1	1005.82	-29740.6	0.000000	0.000000	6.522932	-0.026478	NaN	0.000000	0.001568	0.001708	28.0815	0.029722	0.002061	14.4213	18.5064	-164.507	-0.027581	0.521209	-0.557012	-0.558289	-0.026478	14.4213	-0.555635	-2.032275E+7	1.302884E-9	NaN
424	1.000000	0.530505	7.36921e+06	-55889.1	1005.82	-29740.6	0.000000	0.000000	6.530956	0.066167	NaN	0.000000	0.001622	0.001727	28.0816	0.079848	0.001949	40.9749	-45.0832	-163.91	0.020892	0.529125	-0.548992	-0.550372	0.066167	40.9749	-0.550204	-1.709128E+7	-3.871392E-9	NaN
424	1.000000	0.538511	7.36921e+06	-55889.1	1005.82	-29740.6	0.000000	0.000000	6.538959	-0.023588	NaN	0.000000	0.001604	0.001708	28.0819	0.098217	0.001913	51.3447	152.184	-162.7	-0.031609	0.537218	-0.540986	-0.542280	-0.023588	51.3447	-0.540642	-1.259672E+7	1.872560E-9	NaN
424	1.000000	0.546531	7.36921e+06	-55889.1	1005.82	-29740.6	0.000000	0.000000	6.546980	0.010580	NaN	0.000000	0.001626	0.001665	28.0814	0.085868	0.001942	44.2063	-21.3563	-165.302	-0.027456	0.545251	-0.532966	-0.534246	0.010580	44.2063	-0.533146	-9.91417e+06	-1.067180E-9	NaN
424	1.000000	0.554502	7.36921e+06	-55889.1	1005.82	-29740.6	0.000000	0.000000	6.554952	0.028532	NaN	0.000000	0.001600	0.001673	28.0817	0.044082	0.001973	22.344	-145.265	-166.099	0.015025	0.553261	-0.524995	-0.526236	0.028532	22.344	-0.525953	-7.87691e+06	-3.622184E-9	NaN
424	1.000000	0.562523	7.36921e+06	-55889.1	1005.82	-29740.6	0.000000	0.000000	6.562971	-0.009769	NaN	0.000000	0.001636	0.001706	28.0815	0.021966	0.002066	10.6327	-167.141	-164.677	0.028742	0.561191	-0.516974	-0.518307	-0.009769	10.6327	-0.516285	-5.77986e+06	1.690121E-9	NaN
424	1.000000	0.570525	7.36921e+06	-55889.1	1005.82	-29740.6	0.000000	0.000000	6.570975	0.025332	NaN	0.000000	0.001616	0.001714	28.0803	0.045326	0.001983	22.8531	-27.7576	-163.307	-0.055396	0.569230	-0.508972	-0.510267	0.025332	22.8531	-0.509803	-4.69545e+06	-5.395108E-9	NaN
424	1.000000	0.578510	7.36921e+06	-55889.1	1005.82	-29740.6	0.000000	0.000000	6.578957	-0.017455	NaN	0.000000	0.001589	0.001707	28.0806	0.144597	0.002052	70.4619	-84.7303	-163.79	0.033757	0.577241	-0.500988	-0.502257	-0.017455	70.4619	-0.500802	-3.51727e+06	4.962573E-9	NaN
424	1.000000	0.586517	7.36921e+06	-55889.1	1005.82	-29740.6	0.000000	0.000000	6.586964	-0.025145	NaN	0.000000	0.001598	0.001707	28.0804	0.016150	0.001967	8.211402	-77.2353	-163.516	0.023878	0.585233	-0.492980	-0.494264	-0.025145	8.211402	-0.490684	-2.54066e+06	9.896977E-9	NaN
424	1.000000	0.594524	7.36921e+06	-55889.1	1005.82	-29740.6	0.000000	0.000000	6.594972	-0.001737	NaN	0.000000	0.001572	0.001719	28.0806	0.067165	0.001990	33.7472	116.588	-168.635	-0.015470	0.593173	-0.484973	-0.486325	-0.001737	33.7472	-0.484935	-2.11144e+06	8.228282E-10	NaN
424	1.000000	0.602542	7.36921e+06	-55889.1	1005.82	-29740.6	0.000000	0.000000	6.602993	0.058050	NaN	0.000000	0.001607	0.001703	28.0804	0.067158	0.001931	34.7728	-34.0847	-162.625	0.062242	0.601215	-0.476955	-0.478282	0.058050	34.7728	-0.478207	-1.69992e+06	-3.414866E-8	NaN
424	1.000000	0.610533	7.36921e+06	-55889.1	1005.82	-29740.6	0.000000	0.000000	6.610982	0.035519	NaN	0.000000	0.001638	0.001675	28.0804	0.041508	0.002036	20.3861	156.247	-166.199	0.003971	0.609226	-0.468965	-0.470271	0.035519	20.3861	-0.470272	-1.31588e+06	-2.699273E-8	NaN
424	1.000000	0.618545	7.36921e+06	-55889.1	1005.82	-29740.6	0.000000	0.000000	6.618993	-0.012570	NaN	0.000000	0.001593	0.001729	28.0804	0.139781	0.002081	67.1783	-3.198566	-164.587	0.015393	0.617201	-0.460952	-0.462296	-0.012570	67.1783	-0.460812	-969227	1.296907E-8	NaN
424	1.000000	0.626528	7.36921e+06	-55889.1	1005.82	-29740.6	0.000000	0.000000	6.626976	-0.015089	NaN	0.000000	0.001568	0.001717	28.0802	0.105370	0.002066	50.9918	-172.892	-165.459	-0.058587	0.625289	-0.452969	-0.454209	-0.015089	50.9918	-0.452747	-746485	2.021341E-8	NaN
424	1.000000	0.634550	7.36921e+06	-55889.1	1005.82	-29740.6	0.000000	0.000000	6.634999	0.011549	NaN	0.000000	0.001605	0.001721	28.0806	0.098437	0.001939	50.7571	78.2495	-164.353	-0.026137	0.633274	-0.444948	-0.446223	0.011549	50.7571	-0.445118	-582855	-1.981487E-8	NaN
424	1.000000	0.642555	7.36921e+06	-55889.1	1005.82	-29740.6	0.000000	0.000000	6.643005	0.039613	NaN	0.000000	0.001592	0.001694	28.0803	0.103110	0.002038	50.5961	137.832	-164.418	0.001179	0.641257	-0.436942	-0.438241	0.039613	50.5961	-0.437529	-455497	-8.696701E-8	NaN
424	1.000000	0.650547	7.36921e+06	-55889.1	1005.82	-29740.6	0.000000	0.000000	6.650994	-0.030609	NaN	0.000000	0.001587	0.001691	28.0804	0.056570	0.002160	26.1898	-121.277	-164.53	0.004890	0.649240	-0.428951	-0.430257	-0.030609	26.1898	-0.428074	-334818	9.142061E-8	NaN
424	1.000000	0.658573	7.36921e+06	-55889.1	1005.82	-29740.6	0.000000	0.000000	6.659020	-0.028565	NaN	0.000000	0.001615	0.001680	28.0801	0.059749	0.002175	27.466	153.999	-164.986	-0.025531	0.657283	-0.420925	-0.422214	-0.028565	27.466	-0.420145	-258504	1.104999E-7	NaN
424	1.000000	0.666554	7.36921e+06	-55889.1	1005.82	-29740.6	0.000000	0.000000	6.667002	-0.007274	NaN	0.000000	0.001597	0.001673	28.0802	0.156267	0.001927	81.1093	33.5759	-164.866	-0.007922	0.665247	-0.412943	-0.414251	-0.007274	81.1093	-0.412876	-203837	3.568660E-8	NaN
424	1.000000	0.674576	7.36921e+06	-55889.1	1005.82	-29740.6	0.000000	0.000000	6.675026	0.043881	NaN	0.000000	0.001622	0.001673	28.0802	0.062670	0.002128	29.4532	-58.2176	-165.351	-0.044235	0.673292	-0.404922	-0.406205	0.043881	29.4532	-0.406039	-162946	-2.692980E-7	NaN
424	1.000000	0.682570	7.36921e+06	-55889.1	1005.82	-29740.6	0.000000	0.000000	6.683020	0.038646	NaN	0.000000	0.001604	0.001675	28.0805	0.016961	0.002003	8.469993	102.07	-166.517	0.027708	0.681228	-0.396928	-0.398269	0.038646	8.469993	-0.400350	-135202	-2.858417E-7	NaN
424	1.000000	0.690591	7.36921e+06	-55889.1	1005.82	-29740.6	0.000000	0.000000	6.691038	-0.045487	NaN	0.000000	0.001641	0.001677	28.0805	0.067367	0.001860	36.2278	30.0625	-165.305	-0.042286	0.689297	-0.388906	-0.390201	-0.045487	36.2278	-0.387964	-89957.8	5.056536E-7	NaN
424	1.000000	0.698578	7.36921e+06	-55889.1	1005.82	-29740.6	0.000000	0.000000	6.699027	0.015911	NaN	0.000000	0.001618	0.001721	28.0801	0.076450	0.002070	36.9266	106.671	-168.721	0.022775	0.697309	-0.380919	-0.382188	0.015911	36.9266	-0.381243	-72064.1	-2.207856E-7	NaN
424	1.000000	0.706568	7.36921e+06	-55889.1	1005.82	-29740.6	0.000000	0.000000	6.707018	0.053800	NaN	0.000000	0.001633	0.001695	28.0816	0.010001	0.001986	5.036505	170.032	-164.832	-0.067992	0.705226	-0.372930	-0.374271	0.053800	5.036505	-0.380941	-71349.7	-7.540264E-7	NaN
424	1.000000	0.714579	7.36921e+06	-55889.1	1005.82	-29740.6	0.000000	0.000000	6.715028	0.022853	NaN	0.000000	0.001643	0.001690	28.0814	0.094653	0.001975	47.93	-50.7874	-164.968	0.065837	0.713268	-0.364919	-0.366230	0.022853	47.93	-0.365276	-42465.9	-5.381441E-7	NaN
424	1.000000	0.722588	7.36921e+06	-55889.1	1005.82	-29740.6	0.000000	0.000000	6.723036	-0.009372	NaN	0.000000	0.001684	0.001678	28.0816	0.013601	0.002147	6.335830	178.997	-165.022	0.017137	0.721222	-0.356909	-0.358275	-0.009372	6.335830	-0.355800	-30979.6	3.025336E-7	NaN
424	1.000000	0.730585	7.36921e+06	-55889.1	1005.82	-29740.6	0.000000	0.000000	6.731033	-0.023599	NaN	0.000000	0.001693	0.001736	28.0814	0.023814	0.002005	11.8768	-144.638	-166.898	-0.019123	0.729225	-0.348912	-0.350272	-0.023599	11.8768	-0.347422	-23418.9	1.007702E-6	NaN
424	1.000000	0.738617	7.36921e+06	-55889.1	1005.82	-29740.6	0.000000	0.000000	6.739066	0.017777	NaN	0.000000	0.001687	0.001716	28.0814	0.095087	0.002026	46.936	-124.292	-167.073	-0.019398	0.737253	-0.340881	-0.342245	0.017777	46.936	-0.341165	-18990	-9.361126E-7	NaN
424	1.000000	0.746591	7.36921e+06	-55889.1	1005.82	-29740.6	0.000000	0.000000	6.747038	-0.040011	NaN	0.000000	0.001672	0.001699	28.0817	0.129878	0.001978	65.646	-44.1672	-166.934	-0.039270	0.745322	-0.332907	-0.334175	-0.040011	65.646	-0.332450	-14167.8	2.824106E-6	NaN
424	1.000000	0.754581	7.36921e+06	-55889.1	1005.82	-29740.6	0.000000	0.000000	6.755034	0.109779	NaN	0.000000	0.001699	0.001679	28.0814	0.084805	0.001904	44.5396	-57.7282	-166.157	0.073581	0.753322	-0.324916	-0.326175	0.109779	44.5396	-0.326765	-11695.9	-9.386148E-6	NaN
424	1.000000	0.762613	7.36921e+06	-55889.1	1005.82	-29740.6	0.000000	0.000000	6.763062	0.030753	NaN	0.000000	0.001724	0.001698	28.0816	0.020794	0.002100	9.902203	-100.593	-165.067	0.060648	0.761323	-0.316885	-0.318175	0.030753	9.902203	-0.319214	-9058.7	-3.394897E-6	NaN
424	1.000000	0.770619	7.36921e+06	-55889.1	1005.82	-29740.6	0.000000	0.000000	6.771066	-0.040020	NaN	0.000000	0.001678	0.001712	28.0816	0.065456	0.002053	31.8801	56.5184	-161.56	-0.031642	0.769301	-0.308878	-0.310197	-0.040020	31.8801	-0.307936	-6173.06	6.482945E-6	NaN
424	1.000000	0.778633	7.36921e+06	-55889.1	1005.82	-29740.6	0.000000	0.000000	6.779083	0.023487	NaN	0.000000	0.001675	0.001718	28.0814	0.092856	0.001966	47.231	-128.505	-165.605	0.010495	0.777305	-0.300864	-0.302192	0.023487	47.231	-0.301237	-4909.6	-4.783933E-6	NaN
424	1.000000	0.786623	7.36921e+06	-55889.1	1005.82	-29740.6	0.000000	0.000000	6.787072	0.014551	NaN	0.000000	0.001698	0.001663	28.0818	0.078392	0.002016	38.8831	-58.1612	-160.821	-0.020391	0.785275	-0.292874	-0.294222	0.014551	38.8831	-0.293155	-3719.78	-3.911742E-6	NaN
424	1.000000	0.794613	7.36921e+06	-55889.1	1005.82	-29740.6	0.000000	0.000000	6.795060	-0.038201	NaN	0.000000	0.001668	0.001642	28.0813	0.073265	0.002122	34.5223	-46.9728	-160.433	-0.014399	0.793282	-0.284885	-0.286215	-0.038201	34.5223	-0.284055	-2716.77	1.406119E-5	NaN
424	1.000000	0.802604	7.36921e+06	-55889.1	1005.82	-29740.6	0.000000	0.000000	6.803055	0.057072	NaN	0.000000	0.001691	0.001686	28.0816	0.044696	0.001892	23.6254	22.0941	-162.027	0.034927	0.801291	-0.276893	-0.278206	0.057072	23.6254	-0.278705	-2256.43	-2.529311E-5	NaN
424	1.000000	0.810628	7.36921e+06	-55889.1	1005.82	-29740.6	0.000000	0.000000	6.811076	-0.003869	NaN	0.000000	0.001673	0.001677	28.0815	0.075477	0.001873	40.2901	125.872	-161.662	-0.013374	0.809327	-0.268870	-0.270171	-0.003869	40.2901	-0.268798	-1596.83	2.423054E-6	NaN
424	1.000000	0.818621	7.36921e+06	-55889.1	1005.82	-29740.6	0.000000	0.000000	6.819068	-0.025547	NaN	0.000000	0.001665	0.001674	28.0817	0.058189	0.001879	30.9687	158.027	-163.272	-0.015165	0.817319	-0.260877	-0.262178	-0.025547	30.9687	-0.260258	-1182.69	2.160067E-5	NaN
424	1.000000	0.826645	7.36921e+06	-55889.1	1005.82	-29740.6	0.000000	0.000000	6.827092	-0.052780	NaN	0.000000	0.001667	0.001646	28.0817	0.040167	0.001967	20.4204	132.959	-165.133	0.086227	0.825322	-0.252852	-0.254176	-0.052780	20.4204	-0.250914	-849.356	6.214094E-5	NaN
424	1.000000	0.834616	7.36921e+06	-55889.1	1005.82	-29740.6	0.000000	0.000000	6.835065	0.009444	NaN	0.000000	0.001667	0.001677	28.0818	0.147326	0.002086	70.6259	40.8458	-166.565	0.045364	0.833309	-0.244881	-0.246189	0.009444	70.6259	-0.244982	-687.33	-1.374023E-5	NaN
424	1.000000	0.842639	7.36921e+06	-55889.1	1005.82	-29740.6	0.000000	0.000000	6.843087	-0.028312	NaN	0.000000	0.001611	0.001637	28.0805	0.106498	0.001997	53.3371	-27.3378	-163.07	-0.101321	0.841322	-0.236858	-0.238175	-0.028312	53.3371	-0.236460	-506.003	5.595201E-5	NaN
424	1.000000	0.850646	7.36921e+06	-55889.1	1005.82	-29740.6	0.000000	0.000000	6.851095	0.001448	NaN	0.000000	0.001618	0.001658	28.0803	0.036015	0.002016	17.8644	103.974	-165.1	-0.051112	0.849291	-0.228851	-0.230207	0.001448	17.8644	-0.228912	-384.881	-3.761386E-6	NaN
424	1.000000	0.858657	7.36921e+06	-55889.1	1005.82	-29740.6	0.000000	0.000000	6.859103	-0.041057	NaN	0.000000	0.001640	0.001665	28.0804	0.055526	0.002033	27.3078	-163.744	-169.163	-0.047552	0.857309	-0.220841	-0.222189	-0.041057	27.3078	-0.219713	-274.847	0.000149	NaN
424	1.000000	0.866622	7.36921e+06	-55889.1	1005.82	-29740.6	0.000000	0.000000	6.867072	0.024551	NaN	0.000000	0.001680	0.001671	28.0802	0.042375	0.001976	21.4399	94.6967	-164.922	0.017327	0.865346	-0.212875	-0.214152	0.024551	21.4399	-0.213734	-220.361	-0.000111	NaN
424	1.000000	0.874616	7.36921e+06	-55889.1	1005.82	-29740.6	0.000000	0.000000	6.875063	-0.034540	NaN	0.000000	0.001630	0.001661	28.0803	0.061110	0.002036	30.0092	67.9498	-161.996	0.018587	0.873312	-0.204881	-0.206185	-0.034540	30.0092	-0.204018	-153.296	0.000225	NaN
424	1.000000	0.882669	7.36921e+06	-55889.1	1005.82	-29740.6	0.000000	0.000000	6.883119	0.026926	NaN	0.000000	0.001660	0.001680	28.0804	0.034757	0.001986	17.499	-121.807	-166.522	-0.070252	0.881368	-0.196828	-0.198130	0.026926	17.499	-0.197982	-122.034	-0.000221	NaN
424	1.000000	0.890651	7.36921e+06	-55889.1	1005.82	-29740.6	0.000000	0.000000	6.891101	0.053557	NaN	0.000000	0.001657	0.001668	28.0802	0.035177	0.001968	17.874	82.6654	-165.984	0.017859	0.889308	-0.188847	-0.190190	0.053557	17.874	-0.191094	-93.8184	-0.000571	NaN
424	1.000000	0.898687	7.36921e+06	-55889.1	1005.82	-29740.6	0.000000	0.000000	6.899137	0.024421	NaN	0.000000	0.001665	0.001684	28.0803	0.042074	0.002077	20.2569	-87.4295	-165.371	0.060069	0.897362	-0.180810	-0.182136	0.024421	20.2569	-0.181714	-65.2512	-0.000374	NaN
424	1.000000	0.906647	7.36921e+06	-55889.1	1005.82	-29740.6	0.000000	0.000000	6.907096	0.008350	NaN	0.000000	0.001616	0.001703	28.0801	0.100192	0.001987	50.4284	149.873	-166.032	-0.030915	0.905404	-0.172850	-0.174093	0.008350	50.4284	-0.172974	-46.2483	-0.000181	NaN
424	1.000000	0.914691	7.36921e+06	-55889.1	1005.82	-29740.6	0.000000	0.000000	6.915141	0.034986	NaN	0.000000	0.001705	0.001708	28.0804	0.101753	0.001853	54.9135	-170.758	-162.843	0.027456	0.913319	-0.164806	-0.166178	0.034986	54.9135	-0.165284	-33.9854	-0.001029	NaN
424	1.000000	0.922711	7.36921e+06	-55889.1	1005.82	-29740.6	0.000000	0.000000	6.923155	-0.097081	NaN	0.000000	0.001692	0.001692	28.08	0.022443	0.002107	10.6522	-42.3921	-164.716	0.070782	0.921321	-0.156787	-0.158177	-0.097081	10.6522	-0.149952	-18.0768	0.005370	NaN
424	1.000000	0.930659	7.36921e+06	-55889.1	1005.82	-29740.6	0.000000	0.000000	6.931107	-0.015472	NaN	0.000000	0.001699	0.001689	28.0802	0.064197	0.002083	30.8225	-102.365	-165.48	0.016162	0.929388	-0.148838	-0.150109	-0.015472	30.8225	-0.148462	-16.978	0.000911	NaN
424	1.000000	0.938650	7.36921e+06	-55889.1	1005.82	-29740.6	0.000000	0.000000	6.939098	-0.020646	NaN	0.000000	0.001733	0.001693	28.0805	0.068994	0.002066	33.4023	114.865	-163.465	-0.062637	0.937367	-0.140847	-0.142130	-0.020646	33.4023	-0.140384	-12.0272	0.001717	NaN
424	1.000000	0.946669	7.36921e+06	-55889.1	1005.82	-29740.6	0.000000	0.000000	6.947119	0.045564	NaN	0.000000	0.001732	0.001659	28.08	0.026891	0.002149	12.5106	34.5896	-165.551	0.029302	0.945325	-0.132829	-0.134172	0.045564	12.5106	-0.135560	-9.749384	-0.004673	NaN
424	1.000000	0.954675	7.36921e+06	-55889.1	1005.82	-29740.6	0.000000	0.000000	6.955124	0.017959	NaN	0.000000	0.001683	0.001634	28.0803	0.061974	0.002040	30.3806	-10.2458	-165.648	0.003400	0.953396	-0.124822	-0.126101	0.017959	30.3806	-0.125266	-6.155317	-0.002918	NaN
424	1.000000	0.962683	7.36921e+06	-55889.1	1005.82	-29740.6	0.000000	0.000000	6.963132	0.000397	NaN	0.000000	0.001684	0.001710	28.08	0.122204	0.001924	63.5155	108.363	-166.479	-0.027055	0.961389	-0.116814	-0.118108	0.000397	63.5155	-0.116819	-4.163448	-9.524850E-5	NaN
424	1.000000	0.970707	7.36921e+06	-55889.1	1005.82	-29740.6	0.000000	0.000000	6.971157	0.048649	NaN	0.000000	0.001680	0.001671	28.0803	0.108665	0.002069	52.5125	-109.656	-167.07	0.026720	0.969404	-0.108791	-0.110094	0.048649	52.5125	-0.109486	-2.930979	-0.016598	NaN
424	1.000000	0.978702	7.36921e+06	-55889.1	1005.82	-29740.6	0.000000	0.000000	6.979151	0.011771	NaN	0.000000	0.001659	0.001707	28.0816	0.079582	0.002098	37.9333	-38.316	-162.611	0.075221	0.977357	-0.100796	-0.102141	0.011771	37.9333	-0.101028	-1.925325	-0.006114	NaN
424	1.000000	0.986697	7.36921e+06	-55889.1	1005.82	-29740.6	0.000000	0.000000	6.987145	0.002793	NaN	0.000000	0.001680	0.001715	28.0813	0.093636	0.001930	48.5217	111.582	-164.079	-0.039328	0.985313	-0.092801	-0.094184	0.002793	48.5217	-0.092844	-1.258869	-0.002219	NaN
424	1.000000	0.994691	7.36921e+06	-55889.1	1005.82	-29740.6	0.000000	0.000000	6.995139	0.004373	NaN	0.000000	0.001677	0.001697	28.082	0.041893	0.002034	20.5991	43.2517	-163.435	-0.068047	0.993332	-0.084807	-0.086166	0.004373	20.5991	-0.084966	-0.820073	-0.005332	NaN
424	1.000000	1.002691	7.36921e+06	-55889.1	1005.82	-29740.6	0.000000	0.000000	7.003141	0.044786	NaN	0.000000	0.001647	0.001717	28.0812	0.039727	0.002095	18.9589	29.9242	-168.036	-0.019981	1.001380	-0.076806	-0.078118	0.044786	18.9589	-0.078578	-0.570107	-0.078557	NaN
424	1.000000	1.010713	7.36921e+06	-55889.1	1005.82	-29740.6	0.000000	0.000000	7.011163	0.029824	NaN	0.000000	0.001650	0.001683	28.0813	0.064767	0.002005	32.3036	-124.389	-164.597	-0.029937	1.009419	-0.068784	-0.070079	0.029824	32.3036	-0.069477	-0.330253	-0.090306	NaN
424	1.000000	1.018706	7.36921e+06	-55889.1	1005.82	-29740.6	0.000000	0.000000	7.019159	0.110620	NaN	0.000000	0.001686	0.001672	28.0813	0.070900	0.001831	38.7304	143.613	-163.006	0.006358	1.017401	-0.060791	-0.062096	0.110620	38.7304	-0.062933	-0.218191	-0.506987	NaN
424	1.000000	1.026726	7.36921e+06	-55889.1	1005.82	-29740.6	0.000000	0.000000	7.027174	-0.006679	NaN	0.000000	0.001702	0.001676	28.0813	0.042457	0.001954	21.7335	-98.4899	-165.732	-0.052107	1.025412	-0.052771	-0.054085	-0.006679	21.7335	-0.052541	-0.108816	0.061383	NaN
424	1.000000	1.034702	7.36921e+06	-55889.1	1005.82	-29740.6	0.000000	0.000000	7.035150	-0.003345	NaN	0.000000	0.001672	0.001698	28.0818	0.134896	0.001988	67.8508	-149.127	-166.596	-0.007402	1.033421	-0.044796	-0.046076	-0.003345	67.8508	-0.044759	-0.063185	0.052936	NaN
424	1.000000	1.042695	7.36921e+06	-55889.1	1005.82	-29740.6	0.000000	0.000000	7.043141	-0.041504	NaN	0.000000	0.001676	0.001693	28.0813	0.078673	0.002064	38.1124	-12.733	-165.132	-0.017615	1.041441	-0.036803	-0.038056	-0.041504	38.1124	-0.035986	-0.034248	1.211864	NaN
424	1.000000	1.050701	7.36921e+06	-55889.1	1005.82	-29740.6	0.000000	0.000000	7.051150	0.033130	NaN	0.000000	0.001693	0.001685	28.0817	0.072891	0.001932	37.7369	-138.414	-167.273	0.049617	1.049397	-0.028797	-0.030100	0.033130	37.7369	-0.029455	-0.022225	-1.490673	NaN
424	1.000000	1.058712	7.36921e+06	-55889.1	1005.82	-29740.6	0.000000	0.000000	7.059161	0.020328	NaN	0.000000	0.001706	0.001689	28.0813	0.107259	0.001986	53.9939	6.302976	-166.307	-0.025196	1.057401	-0.020785	-0.022096	0.020328	53.9939	-0.021068	-0.013371	-1.520302	NaN
424	1.000000	1.066727	7.36921e+06	-55889.1	1005.82	-29740.6	0.000000	0.000000	7.067177	0.033346	NaN	0.000000	0.001661	0.001690	28.0813	0.047868	0.001913	25.021	50.4993	-164.507	0.049208	1.065461	-0.012770	-0.014036	0.033346	25.021	-0.013770	-0.008549	-3.900763	NaN
424	1.000000	1.074721	7.36921e+06	-55889.1	1005.82	-29740.6	0.000000	0.000000	7.075169	-0.022612	NaN	0.000000	0.001692	0.001664	28.0814	0.069484	0.001978	35.1335	29.4946	-165.674	-0.064874	1.073403	-0.004776	-0.006094	-0.022612	35.1335	-0.004293	-0.002968	7.618903	NaN
424	1.000000	1.082690	7.36921e+06	-55889.1	1005.82	-29740.6	0.000000	0.000000	7.083246	2.602235	NaN	0.000000	0.001676	0.001676	28.0813	3.284866	0.001898	1730.74	9.678463	-169.263	1.052982	1.081399	0.003193	0.001902	2.602235	1730.74	0.002065	0.001608	1618.65	39437.4
424	2.000000	1.088412	7.36921e+06	-55889.1	1005.82	-29740.6	0.000000	0.000000	7.089182	7.819565	NaN	0.000000	0.001678	0.001653	28.0816	8.707353	0.001683	5174.04	7.375476	-169.934	8.283005	1.088048	0.008914	0.008550	7.819565	5174.04	0.007781	0.006818	1146.91	57250.1
424	2.000000	1.090356	7.36921e+06	-55889.1	1005.82	-29740.6	0.000000	0.000000	7.091295	11.9425	NaN	0.000000	0.001669	0.001707	28.0815	11.1839	0.001603	6976.1	4.531375	-171.071	11.2113	1.090024	0.010858	0.010527	11.9425	6976.1	0.009574	0.008712	1370.77	68284.2
424	2.000000	1.092407	7.36921e+06	-55889.1	1005.82	-29740.6	0.000000	0.000000	7.093518	16.0891	NaN	0.000000	0.001655	0.001695	28.0815	13.9993	0.001651	8479.35	6.785377	-174.653	16.0991	1.092041	0.012910	0.012544	16.0891	8479.35	0.011487	0.010881	1478.64	74268
424	2.000000	1.094295	7.36921e+06	-55889.1	1005.82	-29740.6	0.000000	0.000000	7.095492	18.1898	NaN	0.000000	0.001680	0.001702	28.0801	16.025	0.001794	8931.22	5.422722	-174.753	17.01	1.093986	0.014798	0.014489	18.1898	8931.22	0.013271	0.013048	1394.07	71435.3
424	2.000000	1.096342	7.36921e+06	-55889.1	1005.82	-29740.6	0.000000	0.000000	7.097661	21.1681	NaN	0.000000	0.001688	0.001677	28.08	18.3318	0.001847	9923.33	6.821947	-175.269	20.9635	1.096018	0.016844	0.016520	21.1681	9923.33	0.015244	0.015613	1355.82	72558.9
424	2.000000	1.098289	7.36921e+06	-55889.1	1005.82	-29740.6	0.000000	0.000000	7.099801	25.8625	NaN	0.000000	0.001647	0.001707	28.0802	19.7268	0.001787	11037.3	5.830626	-175.481	25.1377	1.097963	0.018791	0.018466	25.8625	11037.3	0.017034	0.018094	1429.35	74966.9
424	2.000000	1.100308	7.36921e+06	-55889.1	1005.82	-29740.6	0.000000	0.000000	7.101992	30.0467	NaN	0.000000	0.001697	0.001699	28.0804	23.0557	0.001756	13127.5	11.554	177.867	30.976	1.099973	0.020810	0.020476	30.0467	13127.5	0.019094	0.021138	1421.43	82493.4
424	2.000000	1.102293	7.36921e+06	-55889.1	1005.82	-29740.6	0.000000	0.000000	7.104192	35.2812	NaN	0.000000	0.001641	0.001683	28.0805	24.7898	0.001873	13233.3	7.592371	-178.253	33.4357	1.101913	0.022795	0.022416	35.2812	13233.3	0.020796	0.023808	1481.91	78357.5
424	2.000000	1.104244	7.36921e+06	-55889.1	1005.82	-29740.6	0.000000	0.000000	7.106378	40.9731	NaN	0.000000	0.001686	0.001682	28.0802	26.0738	0.001713	15224.9	4.440026	-178.018	38.7241	1.103938	0.024747	0.024440	40.9731	15224.9	0.022728	0.027012	1516.86	84635.3
424	2.000000	1.106295	7.36921e+06	-55889.1	1005.82	-29740.6	0.000000	0.000000	7.108559	44.1462	NaN	0.000000	0.001662	0.001688	28.0803	28.9427	0.001738	16655.8	5.786569	-179.79	44.0439	1.105984	0.026797	0.026486	44.1462	16655.8	0.024810	0.030670	1439.39	86892.4
424	2.000000	1.108226	7.36921e+06	-55889.1	1005.82	-29740.6	0.000000	0.000000	7.110856	53.0278	NaN	0.000000	0.001645	0.001707	28.0803	29.5039	0.001697	17390.4	1.877500	-176.571	50.2517	1.107905	0.028729	0.028407	53.0278	17390.4	0.026442	0.033691	1573.95	86561.9
424	2.000000	1.110243	7.36921e+06	-55889.1	1005.82	-29740.6	0.000000	0.000000	7.112916	54.0599	NaN	0.000000	0.001641	0.001721	28.0802	32.5632	0.001823	17866.8	7.019243	177.718	52.4112	1.110006	0.030746	0.030509	54.0599	17866.8	0.028477	0.037646	1436.01	84132.1
424	2.000000	1.112243	7.36921e+06	-55889.1	1005.82	-29740.6	0.000000	0.000000	7.115397	65.7697	NaN	0.000000	0.001618	0.001732	28.0804	34.8324	0.001818	19164.4	7.380662	177.923	64.2107	1.111926	0.032746	0.032429	65.7697	19164.4	0.030172	0.041101	1600.21	86366.5
424	2.000000	1.114323	7.36921e+06	-55889.1	1005.82	-29740.6	0.000000	0.000000	7.117412	64.2	NaN	0.000000	0.001596	0.001759	28.0801	36.2325	0.001736	20868.5	7.749405	176.917	68.8634	1.114004	0.034825	0.034507	64.2	20868.5	0.032518	0.046124	1391.89	88776.7
424	2.000000	1.116219	7.36921e+06	-55889.1	1005.82	-29740.6	0.000000	0.000000	7.119831	76.8917	NaN	0.000000	0.001632	0.001721	28.0804	38.0416	0.001713	22212.6	5.480686	177.818	73.9571	1.115944	0.036722	0.036447	76.8917	22212.6	0.034125	0.049729	1546.22	91005.5
424	2.000000	1.118274	7.36921e+06	-55889.1	1005.82	-29740.6	0.000000	0.000000	7.122278	86.4353	NaN	0.000000	0.001615	0.001746	28.0802	39.1879	0.001753	22358.2	4.739947	-179.615	86.9823	1.117891	0.038776	0.038394	86.4353	22358.2	0.035877	0.053807	1606.38	88061.9
424	2.000000	1.120277	7.36921e+06	-55889.1	1005.82	-29740.6	0.000000	0.000000	7.124418	89.7543	NaN	0.000000	0.001618	0.001733	28.0803	42.4779	0.001881	22577.1	7.370357	177.968	91.4513	1.119848	0.040780	0.040350	89.7543	22577.1	0.037798	0.058462	1535.27	85311.3
424	2.000000	1.122238	7.36921e+06	-55889.1	1005.82	-29740.6	0.000000	0.000000	7.126778	99.4438	NaN	0.000000	0.001601	0.001734	28.0806	43.821	0.001739	25196.6	3.983696	178.282	97.2022	1.121921	0.042741	0.042423	99.4438	25196.6	0.039781	0.063463	1566.96	91380.7
424	2.000000	1.124233	7.36921e+06	-55889.1	1005.82	-29740.6	0.000000	0.000000	7.129042	105.999	NaN	0.000000	0.001621	0.001685	28.0804	45.7868	0.001771	25849.5	6.971625	175.04	105.863	1.123957	0.044735	0.044460	105.999	25849.5	0.041660	0.068388	1549.95	90309.6
424	2.000000	1.126279	7.36921e+06	-55889.1	1005.82	-29740.6	0.000000	0.000000	7.131583	118.038	NaN	0.000000	0.001620	0.001690	28.0805	47.4683	0.001641	28932.4	1.439002	179.749	118.498	1.125937	0.046781	0.046439	118.038	28932.4	0.043721	0.073999	1595.13	97172.8
424	2.000000	1.128353	7.36921e+06	-55889.1	1005.82	-29740.6	0.000000	0.000000	7.133972	125.668	NaN	0.000000	0.001612	0.001718	28.0814	49.2262	0.001719	28644.6	5.258611	176.512	128.925	1.127938	0.048856	0.048441	125.668	28644.6	0.045566	0.079202	1586.68	92992.7
424	2.000000	1.130173	7.36921e+06	-55889.1	1005.82	-29740.6	0.000000	0.000000	7.136233	136.417	NaN	0.000000	0.001590	0.001665	28.0815	52.075	0.001789	29105.4	3.232206	178.736	134.123	1.129862	0.050675	0.050364	136.417	29105.4	0.047160	0.083838	1627.16	91839.2
424	2.000000	1.132218	7.36921e+06	-55889.1	1005.82	-29740.6	0.000000	0.000000	7.138732	147.443	NaN	0.000000	0.001626	0.001723	28.0821	54.6005	0.001866	29263	8.616966	173.895	145.361	1.131884	0.052720	0.052387	147.443	29263	0.048942	0.089169	1653.52	89533.2
424	2.000000	1.134252	7.36921e+06	-55889.1	1005.82	-29740.6	0.000000	0.000000	7.141073	154.897	NaN	0.000000	0.001644	0.001732	28.0815	54.7638	0.001764	31053	-0.700566	-177.635	155.172	1.133945	0.054754	0.054448	154.897	31053	0.051013	0.095571	1620.76	91773.1
424	2.000000	1.136186	7.36921e+06	-55889.1	1005.82	-29740.6	0.000000	0.000000	7.143189	159.334	NaN	0.000000	0.001617	0.001717	28.0817	58.8888	0.001902	30963.5	2.626866	177.903	157.014	1.135977	0.056689	0.056480	159.334	30963.5	0.052829	0.101359	1571.98	88857.3
424	2.000000	1.138154	7.36921e+06	-55889.1	1005.82	-29740.6	0.000000	0.000000	7.145885	177.01	NaN	0.000000	0.001655	0.001665	28.0813	59.8523	0.001827	32754.9	4.137055	175.95	173.579	1.137972	0.058657	0.058475	177.01	32754.9	0.054604	0.107173	1651.63	91412.6
424	2.000000	1.140222	7.36921e+06	-55889.1	1005.82	-29740.6	0.000000	0.000000	7.148575	192.14	NaN	0.000000	0.001654	0.001711	28.0817	61.2551	0.001744	35115.7	3.035155	177.424	192.684	1.139835	0.060724	0.060338	192.14	35115.7	0.056621	0.113970	1685.88	95034
424	2.000000	1.142231	7.36921e+06	-55889.1	1005.82	-29740.6	0.000000	0.000000	7.150820	197.857	NaN	0.000000	0.001599	0.001661	28.0822	63.6936	0.001803	35328.3	4.706202	175.066	196.011	1.141920	0.062734	0.062423	197.857	35328.3	0.058534	0.120603	1640.57	92943
424	2.000000	1.144131	7.36921e+06	-55889.1	1005.82	-29740.6	0.000000	0.000000	7.153290	211.723	NaN	0.000000	0.001639	0.001703	28.0815	65.4117	0.001840	35558.8	6.135234	174.471	208.471	1.143816	0.064634	0.064319	211.723	35558.8	0.060168	0.126413	1674.85	91374.2
424	2.000000	1.146261	7.36921e+06	-55889.1	1005.82	-29740.6	0.000000	0.000000	7.155839	221.915	NaN	0.000000	0.001633	0.001741	28.0815	67.6718	0.001755	38560.1	3.735576	174.74	222.926	1.145944	0.066764	0.066447	221.915	38560.1	0.062448	0.134731	1647.1	95979.3
424	2.000000	1.148193	7.36921e+06	-55889.1	1005.82	-29740.6	0.000000	0.000000	7.158417	237.602	NaN	0.000000	0.001643	0.001743	28.0815	68.0987	0.001688	40354.1	4.069038	174.786	236.241	1.147897	0.068696	0.068400	237.602	40354.1	0.064280	0.141602	1677.95	97977.2
424	2.000000	1.150228	7.36921e+06	-55889.1	1005.82	-29740.6	0.000000	0.000000	7.160791	245.869	NaN	0.000000	0.001644	0.001726	28.0817	71.4533	0.001939	36852.8	5.432079	174.43	247.996	1.149914	0.070730	0.070417	245.869	36852.8	0.065726	0.147140	1670.99	87776.6
424	2.000000	1.152239	7.36921e+06	-55889.1	1005.82	-29740.6	0.000000	0.000000	7.163519	263.297	NaN	0.000000	0.001659	0.001734	28.0817	72.9248	0.001773	41128.4	6.674700	172.565	263.351	1.151788	0.072741	0.072291	263.297	41128.4	0.067940	0.155809	1689.87	95196
424	2.000000	1.154195	7.36921e+06	-55889.1	1005.82	-29740.6	0.000000	0.000000	7.165746	269.883	NaN	0.000000	0.001633	0.001741	28.0816	73.2814	0.001792	40882.5	2.832228	175.596	268.224	1.154002	0.074697	0.074505	269.883	40882.5	0.069746	0.163058	1655.14	92499.5
424	2.000000	1.156166	7.36921e+06	-55889.1	1005.82	-29740.6	0.000000	0.000000	7.168383	286.046	NaN	0.000000	0.001658	0.001723	28.0816	75.8048	0.001763	43003.6	2.584977	175.59	283.562	1.155988	0.076669	0.076491	286.046	43003.6	0.071680	0.170990	1672.88	95014.9
424	2.000000	1.158080	7.36921e+06	-55889.1	1005.82	-29740.6	0.000000	0.000000	7.171140	306.575	NaN	0.000000	0.001672	0.001734	28.0816	76.2775	0.001688	45183.6	2.117625	176.471	297.751	1.157697	0.078582	0.078199	306.575	45183.6	0.073493	0.178588	1716.66	97684.9
424	2.000000	1.160114	7.36921e+06	-55889.1	1005.82	-29740.6	0.000000	0.000000	7.173721	319.856	NaN	0.000000	0.001602	0.001724	28.0815	79.996	0.001766	45309.4	5.562819	172.638	315.451	1.159727	0.080617	0.080230	319.856	45309.4	0.075322	0.186410	1715.88	95879.8
424	2.000000	1.162138	7.36921e+06	-55889.1	1005.82	-29740.6	0.000000	0.000000	7.176474	337.58	NaN	0.000000	0.001649	0.001703	28.0809	80.7288	0.001737	46486.2	2.622199	176.066	332.384	1.161804	0.082641	0.082306	337.58	46486.2	0.077194	0.194578	1734.93	96283.1
424	2.000000	1.164153	7.36921e+06	-55889.1	1005.82	-29740.6	0.000000	0.000000	7.178782	344.717	NaN	0.000000	0.001634	0.001752	28.0801	83.6279	0.001852	45145.5	4.124730	173.821	342.145	1.163845	0.084655	0.084348	344.717	45145.5	0.078928	0.202292	1704.06	91706.2
424	2.000000	1.166205	7.36921e+06	-55889.1	1005.82	-29740.6	0.000000	0.000000	7.181391	358.23	NaN	0.000000	0.001647	0.001760	28.0804	85.4235	0.001865	45797.4	0.465530	177.709	359.883	1.165903	0.086708	0.086406	358.23	45797.4	0.080841	0.210962	1698.08	91098.5
424	2.000000	1.168219	7.36921e+06	-55889.1	1005.82	-29740.6	0.000000	0.000000	7.184293	379.824	NaN	0.000000	0.001626	0.001717	28.0805	87.2882	0.001791	48742.1	7.355691	170.747	380.859	1.167798	0.088722	0.088301	379.824	48742.1	0.082878	0.220381	1723.49	94861.7
424	2.000000	1.170120	7.36921e+06	-55889.1	1005.82	-29740.6	0.000000	0.000000	7.186871	396.283	NaN	0.000000	0.001651	0.001711	28.0803	89.6396	0.001726	51949.9	3.567605	173.672	390.866	1.169820	0.090622	0.090322	396.283	51949.9	0.084901	0.229931	1723.49	98982.7
424	2.000000	1.172258	7.36921e+06	-55889.1	1005.82	-29740.6	0.000000	0.000000	7.189523	408.768	NaN	0.000000	0.001645	0.001751	28.0803	93.0276	0.001857	50084	9.685482	169.12	407.825	1.171693	0.092761	0.092195	408.768	50084	0.086640	0.238287	1715.45	93739.5
424	2.000000	1.174136	7.36921e+06	-55889.1	1005.82	-29740.6	0.000000	0.000000	7.191935	421.751	NaN	0.000000	0.001638	0.001697	28.0808	93.8156	0.001711	54830.1	3.813721	173.269	418.866	1.173835	0.094638	0.094338	421.751	54830.1	0.088869	0.249205	1692.39	100349
424	2.000000	1.176193	7.36921e+06	-55889.1	1005.82	-29740.6	0.000000	0.000000	7.194785	441.028	NaN	0.000000	0.001610	0.001719	28.0807	97.5473	0.001825	53462.7	5.804632	171.164	438.947	1.175798	0.096695	0.096301	441.028	53462.7	0.090508	0.257378	1713.55	96280.5
424	2.000000	1.178120	7.36921e+06	-55889.1	1005.82	-29740.6	0.000000	0.000000	7.197417	458.161	NaN	0.000000	0.001612	0.001739	28.0809	97.2386	0.001753	55455.5	3.961038	173.049	456.319	1.177866	0.098623	0.098369	458.161	55455.5	0.092426	0.267098	1715.33	98035.4
424	2.000000	1.180060	7.36921e+06	-55889.1	1005.82	-29740.6	0.000000	0.000000	7.199662	465.564	NaN	0.000000	0.001694	0.001749	28.0804	100.104	0.001713	58424.5	4.719034	171.219	458.306	1.179820	0.100563	0.100323	465.564	58424.5	0.094586	0.278245	1673.22	101194
424	2.000000	1.182128	7.36921e+06	-55889.1	1005.82	-29740.6	0.000000	0.000000	7.203007	496.608	NaN	0.000000	0.001651	0.001764	28.0805	102.421	0.001777	57630.6	4.374561	172.876	491.779	1.181766	0.102631	0.102269	496.608	57630.6	0.096168	0.286543	1733.1	98362.8
424	2.000000	1.184183	7.36921e+06	-55889.1	1005.82	-29740.6	0.000000	0.000000	7.205725	512.745	NaN	0.000000	0.001636	0.001730	28.0803	104.14	0.001714	60767.2	5.521077	170.553	513.31	1.183886	0.104686	0.104389	512.745	60767.2	0.098357	0.298217	1719.37	101666
424	2.000000	1.186381	7.36921e+06	-55889.1	1005.82	-29740.6	0.000000	0.000000	7.208231	520.22	NaN	0.000000	0.001644	0.001709	28.0804	109.21	0.001889	57817.2	6.602451	170.522	533.385	1.185977	0.106883	0.106480	520.22	57817.2	0.100135	0.307857	1689.81	95204