File: remote_trans/data/nanoindenter/0828-1/data/Data_2025-08-06,11h17m57s/2025-07-22_16-23-58_1_1204.txt
2025-07-22, 16:23:58, 1
Index	Phase	Displacement	Time	Pos X	Pos Y	Pos Z	Rot A	Rot B	Piezo Z	Force A	Force B	Gripper	Voltage A	Voltage B	Temperature	Amplitude force	Amplitude pos	Stiffness	Phase shift	Phase excitation	Force A raw	Displacement raw	HMax	HMax raw	Real Force	Real Stiffness	Contact Depth	Area	Hardness	Reduced Mod.
[#]	[#]	[um]	[s]	[um]	[um]	[um]	[m°]	[m°]	[um]	[uN]	[uN]	[V]	[V]	[V]	[°C]	[uN]	[um]	[N/m]	[°]	[°]	[uN]	[um]	[um]	[um]	[uN]	[N/m]	[um]	[um^2]	[MPa]	[MPa]
1204	1.000000	0.002400	7.37682e+06	-55389.1	1105.82	-29741.6	0.000000	0.000000	6.002770	-0.007900	NaN	0.000000	0.001570	0.001682	28.0804	0.080855	0.001060	76.2673	156.093	-161.688	-0.018696	0.001192	-0.539401	-0.540610	-0.007900	76.2673	-0.539324	-1.207753E+7	6.540914E-10	NaN
1204	1.000000	0.010421	7.37682e+06	-55389.1	1105.82	-29741.6	0.000000	0.000000	6.010789	-0.052123	NaN	0.000000	0.001556	0.001700	28.0805	0.029235	0.001064	27.4725	77.3175	-168.111	0.045723	0.009158	-0.531381	-0.532644	-0.052123	27.4725	-0.529958	-8.95347e+06	5.821538E-9	NaN
1204	1.000000	0.018391	7.37682e+06	-55389.1	1105.82	-29741.6	0.000000	0.000000	6.018761	-0.007094	NaN	0.000000	0.001548	0.001695	28.0803	0.039353	0.001655	23.7769	146.492	-169.367	0.019689	0.017061	-0.523411	-0.524740	-0.007094	23.7769	-0.523187	-7.20961e+06	9.839249E-10	NaN
1204	1.000000	0.026398	7.37682e+06	-55389.1	1105.82	-29741.6	0.000000	0.000000	6.026768	-0.004877	NaN	0.000000	0.001549	0.001714	28.0804	0.080102	0.001765	45.3837	-178.16	-164.808	-0.036639	0.025083	-0.515403	-0.516718	-0.004877	45.3837	-0.515323	-5.60435e+06	8.702863E-10	NaN
1204	1.000000	0.034337	7.37682e+06	-55389.1	1105.82	-29741.6	0.000000	0.000000	6.034707	-0.008456	NaN	0.000000	0.001546	0.001698	28.0803	0.107796	0.001972	54.6548	24.9526	-169.986	-0.032438	0.033132	-0.507464	-0.508669	-0.008456	54.6548	-0.507348	-4.33985e+06	1.948524E-9	NaN
1204	1.000000	0.042384	7.37682e+06	-55389.1	1105.82	-29741.6	0.000000	0.000000	6.042756	0.031636	NaN	0.000000	0.001503	0.001673	28.0803	0.019769	0.001953	10.12	99.0446	-163.085	0.049108	0.041076	-0.499417	-0.500726	0.031636	10.12	-0.501762	-3.62738e+06	-8.721329E-9	NaN
1204	1.000000	0.050393	7.37682e+06	-55389.1	1105.82	-29741.6	0.000000	0.000000	6.050766	0.062589	NaN	0.000000	0.001502	0.001691	28.0807	0.056446	0.001893	29.8112	16.9996	-164.613	0.064327	0.049062	-0.491408	-0.492739	0.062589	29.8112	-0.492983	-2.73568e+06	-2.287867E-8	NaN
1204	1.000000	0.058380	7.37682e+06	-55389.1	1105.82	-29741.6	0.000000	0.000000	6.058751	0.002584	NaN	0.000000	0.001536	0.001661	28.0804	0.017143	0.002061	8.316302	-25.8445	-165.417	0.017342	0.057050	-0.483421	-0.484752	0.002584	8.316302	-0.483654	-2.02613e+06	-1.275404E-9	NaN
1204	1.000000	0.066394	7.37682e+06	-55389.1	1105.82	-29741.6	0.000000	0.000000	6.066764	-0.016920	NaN	0.000000	0.001553	0.001674	28.0807	0.068958	0.002151	32.0601	159.843	-167.724	0.005835	0.065070	-0.475407	-0.476732	-0.016920	32.0601	-0.475011	-1.53341e+06	1.103424E-8	NaN
1204	1.000000	0.074386	7.37682e+06	-55389.1	1105.82	-29741.6	0.000000	0.000000	6.074754	-0.043570	NaN	0.000000	0.001534	0.001652	28.0805	0.023114	0.002033	11.3683	74.1616	-166.573	-0.032873	0.073117	-0.467416	-0.468684	-0.043570	11.3683	-0.464541	-1.09347e+06	3.984522E-8	NaN
1204	1.000000	0.082372	7.37682e+06	-55389.1	1105.82	-29741.6	0.000000	0.000000	6.082742	-0.010320	NaN	0.000000	0.001555	0.001667	28.0809	0.068646	0.002061	33.3036	-74.4276	-167.429	-0.031143	0.081060	-0.459429	-0.460741	-0.010320	33.3036	-0.459197	-919880	1.121927E-8	NaN
1204	1.000000	0.090390	7.37682e+06	-55389.1	1105.82	-29741.6	0.000000	0.000000	6.090761	0.002674	NaN	0.000000	0.001568	0.001674	28.0818	0.067700	0.001974	34.2903	-69.8513	-169.315	0.027047	0.089036	-0.451411	-0.452766	0.002674	34.2903	-0.451470	-716205	-3.734160E-9	NaN
1204	1.000000	0.098399	7.37682e+06	-55389.1	1105.82	-29741.6	0.000000	0.000000	6.098770	0.018898	NaN	0.000000	0.001566	0.001688	28.0816	0.163275	0.002017	80.9437	102.054	-164.541	-0.048407	0.097076	-0.443403	-0.444726	0.018898	80.9437	-0.443578	-554424	-3.408617E-8	NaN
1204	1.000000	0.106409	7.37682e+06	-55389.1	1105.82	-29741.6	0.000000	0.000000	6.106777	-0.037058	NaN	0.000000	0.001583	0.001669	28.0819	0.088914	0.002052	43.3309	105.421	-169.45	-0.025353	0.105103	-0.435393	-0.436699	-0.037058	43.3309	-0.434752	-416144	8.905195E-8	NaN
1204	1.000000	0.114440	7.37682e+06	-55389.1	1105.82	-29741.6	0.000000	0.000000	6.114811	-0.001479	NaN	0.000000	0.001557	0.001691	28.0818	0.080085	0.001902	42.1088	164.791	-166.539	0.020350	0.113107	-0.427361	-0.428695	-0.001479	42.1088	-0.427335	-326847	4.525625E-9	NaN
1204	1.000000	0.122382	7.37682e+06	-55389.1	1105.82	-29741.6	0.000000	0.000000	6.122749	-0.091915	NaN	0.000000	0.001569	0.001694	28.0817	0.048215	0.001898	25.4023	132.773	-165.649	0.039167	0.121105	-0.419419	-0.420697	-0.091915	25.4023	-0.416705	-231030	3.978477E-7	NaN
1204	1.000000	0.130421	7.37682e+06	-55389.1	1105.82	-29741.6	0.000000	0.000000	6.130791	-0.002062	NaN	0.000000	0.001571	0.001679	28.0818	0.131376	0.001990	66.0259	-43.0159	-163.688	-0.012019	0.129114	-0.411380	-0.412688	-0.002062	66.0259	-0.411357	-193952	1.062927E-8	NaN
1204	1.000000	0.138417	7.37682e+06	-55389.1	1105.82	-29741.6	0.000000	0.000000	6.138786	-0.020591	NaN	0.000000	0.001586	0.001669	28.0816	0.079242	0.001923	41.2029	-124.962	-166.185	0.001988	0.137149	-0.403385	-0.404653	-0.020591	41.2029	-0.403010	-147538	1.395655E-7	NaN
1204	1.000000	0.146453	7.37682e+06	-55389.1	1105.82	-29741.6	0.000000	0.000000	6.146823	-0.002159	NaN	0.000000	0.001583	0.001655	28.082	0.030206	0.001983	15.2361	-48.6397	-163.293	-0.031264	0.145038	-0.395349	-0.396764	-0.002159	15.2361	-0.395242	-114314	1.888546E-8	NaN
1204	1.000000	0.154435	7.37682e+06	-55389.1	1105.82	-29741.6	0.000000	0.000000	6.154803	-0.049127	NaN	0.000000	0.001562	0.001622	28.0819	0.070082	0.002036	34.42	-26.8539	-165.313	-0.110617	0.153106	-0.387367	-0.388695	-0.049127	34.42	-0.386296	-85144.3	5.769894E-7	NaN
1204	1.000000	0.162400	7.37682e+06	-55389.1	1105.82	-29741.6	0.000000	0.000000	6.162770	0.009350	NaN	0.000000	0.001576	0.001646	28.082	0.010299	0.002015	5.111278	51.1739	-167.092	0.009474	0.161099	-0.379402	-0.380703	0.009350	5.111278	-0.380774	-70956.6	-1.317687E-7	NaN
1204	1.000000	0.170429	7.37682e+06	-55389.1	1105.82	-29741.6	0.000000	0.000000	6.170800	0.017898	NaN	0.000000	0.001574	0.001625	28.0817	0.016537	0.002154	7.678663	99.991	-165.531	0.041147	0.169111	-0.371373	-0.372691	0.017898	7.678663	-0.373121	-55086.6	-3.249041E-7	NaN
1204	1.000000	0.178400	7.37682e+06	-55389.1	1105.82	-29741.6	0.000000	0.000000	6.178771	0.006088	NaN	0.000000	0.001552	0.001658	28.0816	0.019825	0.002054	9.649603	-65.4273	-167.58	0.087714	0.177114	-0.363402	-0.364688	0.006088	9.649603	-0.363875	-40533.7	-1.501998E-7	NaN
1204	1.000000	0.186414	7.37682e+06	-55389.1	1105.82	-29741.6	0.000000	0.000000	6.186785	0.005885	NaN	0.000000	0.001575	0.001695	28.0819	0.081765	0.001966	41.5891	-51.1687	-166.987	0.097373	0.185155	-0.355387	-0.356646	0.005885	41.5891	-0.355493	-30664.8	-1.918993E-7	NaN
1204	1.000000	0.194438	7.37682e+06	-55389.1	1105.82	-29741.6	0.000000	0.000000	6.194808	-0.008017	NaN	0.000000	0.001550	0.001685	28.0818	0.023766	0.001919	12.3817	-83.9028	-163.163	0.059192	0.193077	-0.347364	-0.348724	-0.008017	12.3817	-0.346878	-22996.4	3.486315E-7	NaN
1204	1.000000	0.202431	7.37682e+06	-55389.1	1105.82	-29741.6	0.000000	0.000000	6.202802	0.015418	NaN	0.000000	0.001572	0.001644	28.082	0.130801	0.002019	64.7776	-49.3729	-165.822	0.002444	0.201110	-0.339370	-0.340691	0.015418	64.7776	-0.339549	-17987.6	-8.571703E-7	NaN
1204	1.000000	0.210457	7.37682e+06	-55389.1	1105.82	-29741.6	0.000000	0.000000	6.210826	-0.044867	NaN	0.000000	0.001596	0.001616	28.0817	0.042752	0.002066	20.6965	-170.749	-170.575	-0.104412	0.209107	-0.331344	-0.332694	-0.044867	20.6965	-0.329718	-12921.9	3.472147E-6	NaN
1204	1.000000	0.218471	7.37682e+06	-55389.1	1105.82	-29741.6	0.000000	0.000000	6.218840	-0.017055	NaN	0.000000	0.001560	0.001669	28.0815	0.070200	0.002064	34.0175	-77.9366	-169.715	-0.063569	0.217111	-0.323331	-0.324691	-0.017055	34.0175	-0.322955	-10282.5	1.658670E-6	NaN
1204	1.000000	0.226424	7.37682e+06	-55389.1	1105.82	-29741.6	0.000000	0.000000	6.226795	0.012140	NaN	0.000000	0.001550	0.001715	28.0804	0.011215	0.002074	5.406266	79.5103	-166.957	-0.009062	0.225171	-0.315377	-0.316630	0.012140	5.406266	-0.317061	-8420.71	-1.441632E-6	NaN
1204	1.000000	0.234417	7.37682e+06	-55389.1	1105.82	-29741.6	0.000000	0.000000	6.234787	-0.008536	NaN	0.000000	0.001528	0.001659	28.0804	0.047724	0.002051	23.2635	-33.2388	-166.577	-0.021654	0.233128	-0.307384	-0.308673	-0.008536	23.2635	-0.307109	-6001.17	1.422321E-6	NaN
1204	1.000000	0.242448	7.37682e+06	-55389.1	1105.82	-29741.6	0.000000	0.000000	6.242819	0.025504	NaN	0.000000	0.001576	0.001654	28.0807	0.159937	0.002051	77.9941	-154.745	-168.492	0.052022	0.241117	-0.299354	-0.300684	0.025504	77.9941	-0.299599	-4641.54	-5.494703E-6	NaN
1204	1.000000	0.250455	7.37682e+06	-55389.1	1105.82	-29741.6	0.000000	0.000000	6.250824	-0.029575	NaN	0.000000	0.001583	0.001644	28.0805	0.082244	0.001971	41.7321	71.7982	-168.309	-0.084290	0.249143	-0.291346	-0.292658	-0.029575	41.7321	-0.290815	-3431.67	8.618176E-6	NaN
1204	1.000000	0.258467	7.37682e+06	-55389.1	1105.82	-29741.6	0.000000	0.000000	6.258838	0.007743	NaN	0.000000	0.001593	0.001688	28.0805	0.009020	0.002065	4.367032	144.028	-165.181	-0.009981	0.257138	-0.283334	-0.284664	0.007743	4.367032	-0.284664	-2774.68	-2.790612E-6	NaN
1204	1.000000	0.266456	7.37682e+06	-55389.1	1105.82	-29741.6	0.000000	0.000000	6.266826	-0.004954	NaN	0.000000	0.001584	0.001662	28.0804	0.031537	0.001961	16.0826	52.5192	-167.568	-0.067167	0.265223	-0.275345	-0.276579	-0.004954	16.0826	-0.275114	-1991.28	2.487683E-6	NaN
1204	1.000000	0.274442	7.37682e+06	-55389.1	1105.82	-29741.6	0.000000	0.000000	6.274812	0.004647	NaN	0.000000	0.001544	0.001655	28.0804	0.057461	0.001862	30.8564	-108.255	-167.527	-0.023973	0.273155	-0.267360	-0.268646	0.004647	30.8564	-0.267473	-1524.37	-3.048738E-6	NaN
1204	1.000000	0.282467	7.37682e+06	-55389.1	1105.82	-29741.6	0.000000	0.000000	6.282838	0.006031	NaN	0.000000	0.001525	0.001671	28.0806	0.039266	0.002012	19.5183	127.095	-169.832	0.008076	0.281179	-0.259335	-0.260623	0.006031	19.5183	-0.259566	-1154.17	-5.225513E-6	NaN
1204	1.000000	0.290439	7.37682e+06	-55389.1	1105.82	-29741.6	0.000000	0.000000	6.290809	-0.027341	NaN	0.000000	0.001488	0.001699	28.0806	0.090364	0.002075	43.5449	-115.738	-166.045	-0.087010	0.289203	-0.251362	-0.252598	-0.027341	43.5449	-0.250891	-848.677	3.221550E-5	NaN
1204	1.000000	0.298466	7.37682e+06	-55389.1	1105.82	-29741.6	0.000000	0.000000	6.298834	-0.067338	NaN	0.000000	0.001527	0.001694	28.0808	0.037642	0.001984	18.9719	46.4413	-163.856	0.011474	0.297148	-0.243335	-0.244653	-0.067338	18.9719	-0.240673	-588.932	0.000114	NaN
1204	1.000000	0.306506	7.37682e+06	-55389.1	1105.82	-29741.6	0.000000	0.000000	6.306877	-0.008260	NaN	0.000000	0.001511	0.001687	28.0804	0.010842	0.002051	5.285515	-156.791	-165.654	0.015191	0.305163	-0.235295	-0.236638	-0.008260	5.285515	-0.234123	-465.02	1.776230E-5	NaN
1204	1.000000	0.314511	7.37682e+06	-55389.1	1105.82	-29741.6	0.000000	0.000000	6.314882	0.006326	NaN	0.000000	0.001506	0.001680	28.0804	0.065131	0.002024	32.1864	70.9017	-166.567	0.066678	0.313213	-0.227290	-0.228589	0.006326	32.1864	-0.227437	-364.749	-1.734453E-5	NaN
1204	1.000000	0.322495	7.37682e+06	-55389.1	1105.82	-29741.6	0.000000	0.000000	6.322869	0.075460	NaN	0.000000	0.001538	0.001723	28.0804	0.012117	0.002016	6.009230	-144.119	-168.975	0.021427	0.321151	-0.219307	-0.220651	0.075460	6.009230	-0.228724	-382.262	-0.000197	NaN
1204	1.000000	0.330510	7.37682e+06	-55389.1	1105.82	-29741.6	0.000000	0.000000	6.330881	0.003099	NaN	0.000000	0.001539	0.001733	28.0804	0.077955	0.002078	37.5167	-136.153	-167.326	0.031008	0.329193	-0.211291	-0.212608	0.003099	37.5167	-0.211353	-201.702	-1.536586E-5	NaN
1204	1.000000	0.338491	7.37682e+06	-55389.1	1105.82	-29741.6	0.000000	0.000000	6.338862	0.014533	NaN	0.000000	0.001557	0.001713	28.0807	0.118627	0.001915	61.9314	-116.034	-164.742	0.053338	0.337185	-0.203311	-0.204617	0.014533	61.9314	-0.203487	-150.263	-9.671650E-5	NaN
1204	1.000000	0.346505	7.37682e+06	-55389.1	1105.82	-29741.6	0.000000	0.000000	6.346874	-0.028650	NaN	0.000000	0.001530	0.001689	28.0804	0.034384	0.001944	17.6848	-144.833	-164.749	-0.017054	0.345176	-0.195296	-0.196625	-0.028650	17.6848	-0.194081	-105.19	0.000272	NaN
1204	1.000000	0.354517	7.37682e+06	-55389.1	1105.82	-29741.6	0.000000	0.000000	6.354888	0.031384	NaN	0.000000	0.001533	0.001709	28.081	0.058160	0.002007	28.9809	-89.8351	-165.784	0.121493	0.353147	-0.187285	-0.188654	0.031384	28.9809	-0.188097	-83.5963	-0.000375	NaN
1204	1.000000	0.362497	7.37682e+06	-55389.1	1105.82	-29741.6	0.000000	0.000000	6.362867	-0.002837	NaN	0.000000	0.001573	0.001682	28.0819	0.021889	0.001925	11.3708	-7.619854	-167.897	-0.066492	0.361156	-0.179304	-0.180645	-0.002837	11.3708	-0.179117	-58.9436	4.813105E-5	NaN
1204	1.000000	0.370507	7.37682e+06	-55389.1	1105.82	-29741.6	0.000000	0.000000	6.370878	0.013969	NaN	0.000000	0.001534	0.001711	28.0818	0.224366	0.002030	110.541	-56.0009	-167.116	-0.045569	0.369209	-0.171294	-0.172593	0.013969	110.541	-0.171389	-43.4206	-0.000322	NaN
1204	1.000000	0.378504	7.37682e+06	-55389.1	1105.82	-29741.6	0.000000	0.000000	6.378876	0.045999	NaN	0.000000	0.001552	0.001686	28.0824	0.081442	0.001823	44.6736	-142.688	-164.833	0.021028	0.377179	-0.163298	-0.164622	0.045999	44.6736	-0.164070	-32.3562	-0.001422	NaN
1204	1.000000	0.386566	7.37682e+06	-55389.1	1105.82	-29741.6	0.000000	0.000000	6.386937	0.009463	NaN	0.000000	0.001554	0.001640	28.0817	0.069264	0.002149	32.2256	45.8942	-164.516	0.084357	0.385220	-0.155236	-0.156582	0.009463	32.2256	-0.155456	-22.7396	-0.000416	NaN
1204	1.000000	0.394516	7.37682e+06	-55389.1	1105.82	-29741.6	0.000000	0.000000	6.394885	-0.048725	NaN	0.000000	0.001594	0.001686	28.0822	0.013443	0.002073	6.485130	-57.255	-165.271	-0.060653	0.393230	-0.147285	-0.148572	-0.048725	6.485130	-0.141650	-12.7025	0.003836	NaN
1204	1.000000	0.402508	7.37682e+06	-55389.1	1105.82	-29741.6	0.000000	0.000000	6.402879	0.025751	NaN	0.000000	0.001570	0.001699	28.082	0.058222	0.002114	27.5423	-160.716	-166.722	0.002995	0.401256	-0.139294	-0.140546	0.025751	27.5423	-0.139995	-11.8269	-0.002177	NaN
1204	1.000000	0.410499	7.37682e+06	-55389.1	1105.82	-29741.6	0.000000	0.000000	6.410867	-0.068439	NaN	0.000000	0.001531	0.001647	28.0817	0.064669	0.001986	32.567	9.603027	-167.274	-0.076034	0.409218	-0.131303	-0.132583	-0.068439	32.567	-0.129726	-7.528265	0.009091	NaN
1204	1.000000	0.418559	7.37682e+06	-55389.1	1105.82	-29741.6	0.000000	0.000000	6.418927	-0.061451	NaN	0.000000	0.001523	0.001684	28.0818	0.087789	0.002026	43.3383	132.954	-171.52	-0.092096	0.417214	-0.123243	-0.124588	-0.061451	43.3383	-0.122179	-5.344115	0.011499	NaN
1204	1.000000	0.426534	7.37682e+06	-55389.1	1105.82	-29741.6	0.000000	0.000000	6.426904	-0.010914	NaN	0.000000	0.001514	0.001672	28.0819	0.068543	0.002026	33.8271	-15.765	-167.057	-0.065482	0.425277	-0.115267	-0.116524	-0.010914	33.8271	-0.115025	-3.824937	0.002853	NaN
1204	1.000000	0.434526	7.37682e+06	-55389.1	1105.82	-29741.6	0.000000	0.000000	6.434897	-0.001419	NaN	0.000000	0.001538	0.001659	28.0822	0.007665	0.002071	3.700766	-167.194	-166.848	-0.066922	0.433263	-0.107275	-0.108538	-0.001419	3.700766	-0.106988	-2.593562	0.000547	NaN
1204	1.000000	0.442572	7.37682e+06	-55389.1	1105.82	-29741.6	0.000000	0.000000	6.442940	-0.053669	NaN	0.000000	0.001561	0.001675	28.0819	0.082627	0.002115	39.0587	69.1116	-168.308	-0.077205	0.441247	-0.099229	-0.100555	-0.053669	39.0587	-0.098199	-1.665923	0.032216	NaN
1204	1.000000	0.450532	7.37682e+06	-55389.1	1105.82	-29741.6	0.000000	0.000000	6.450904	0.024264	NaN	0.000000	0.001580	0.001706	28.082	0.039001	0.001985	19.6478	-110.61	-165.47	-0.013670	0.449302	-0.091269	-0.092499	0.024264	19.6478	-0.092196	-1.216175	-0.019951	NaN
1204	1.000000	0.458563	7.37682e+06	-55389.1	1105.82	-29741.6	0.000000	0.000000	6.458934	0.021962	NaN	0.000000	0.001592	0.001667	28.0819	0.032319	0.001898	17.0252	23.2832	-170.066	-0.063901	0.457219	-0.083238	-0.084583	0.021962	17.0252	-0.084206	-0.785976	-0.027942	NaN
1204	1.000000	0.466558	7.37682e+06	-55389.1	1105.82	-29741.6	0.000000	0.000000	6.466929	0.019133	NaN	0.000000	0.001593	0.001735	28.0819	0.022834	0.002020	11.3036	165.706	-164.976	0.023630	0.465260	-0.075243	-0.076541	0.019133	11.3036	-0.076513	-0.505191	-0.037874	NaN
1204	1.000000	0.474565	7.37682e+06	-55389.1	1105.82	-29741.6	0.000000	0.000000	6.474937	0.028619	NaN	0.000000	0.001612	0.001704	28.0819	0.082627	0.002073	39.8653	-38.0753	-165.228	0.025594	0.473237	-0.067236	-0.068565	0.028619	39.8653	-0.067775	-0.297037	-0.096348	NaN
1204	1.000000	0.482538	7.37682e+06	-55389.1	1105.82	-29741.6	0.000000	0.000000	6.482911	0.060282	NaN	0.000000	0.001545	0.001687	28.0818	0.016762	0.001998	8.390432	172.902	-166.627	-0.012616	0.481205	-0.059264	-0.060596	0.060282	8.390432	-0.064652	-0.243735	-0.247324	NaN
1204	1.000000	0.490557	7.37682e+06	-55389.1	1105.82	-29741.6	0.000000	0.000000	6.490933	0.112191	NaN	0.000000	0.001600	0.001684	28.0822	0.025086	0.002013	12.4604	-26.779	-165.125	0.052092	0.489255	-0.051244	-0.052546	0.112191	12.4604	-0.057997	-0.157641	-0.711686	NaN
1204	1.000000	0.498592	7.37682e+06	-55389.1	1105.82	-29741.6	0.000000	0.000000	6.498966	0.093793	NaN	0.000000	0.001548	0.001685	28.0808	0.106303	0.002010	52.8848	44.057	-167.101	0.066406	0.497257	-0.043210	-0.044544	0.093793	52.8848	-0.044540	-0.062220	-1.507444	NaN
1204	1.000000	0.506587	7.37682e+06	-55389.1	1105.82	-29741.6	0.000000	0.000000	6.506962	0.106149	NaN	0.000000	0.001565	0.001693	28.0807	0.073479	0.002014	36.4925	-69.8602	-166.259	0.117207	0.505289	-0.035214	-0.036513	0.106149	36.4925	-0.037396	-0.037732	-2.813248	NaN
1204	1.000000	0.514601	7.37682e+06	-55389.1	1105.82	-29741.6	0.000000	0.000000	6.514976	0.108671	NaN	0.000000	0.001553	0.001694	28.0806	0.071549	0.001968	36.3586	33.9738	-166.076	0.074181	0.513260	-0.027200	-0.028541	0.108671	36.3586	-0.029442	-0.022206	-4.893735	NaN
1204	1.000000	0.522588	7.37682e+06	-55389.1	1105.82	-29741.6	0.000000	0.000000	6.522964	0.128636	NaN	0.000000	0.001535	0.001654	28.0807	0.044306	0.002060	21.5085	-13.8759	-164.065	0.084279	0.521264	-0.019213	-0.020537	0.128636	21.5085	-0.023699	-0.015609	-8.241252	NaN
1204	1.000000	0.530583	7.37682e+06	-55389.1	1105.82	-29741.6	0.000000	0.000000	6.530956	0.057271	NaN	0.000000	0.001474	0.001697	28.0807	0.094321	0.001903	49.5754	38.9518	-165.671	0.052875	0.529248	-0.011218	-0.012554	0.057271	49.5754	-0.012085	-0.007577	-7.558478	NaN
1204	1.000000	0.538602	7.37682e+06	-55389.1	1105.82	-29741.6	0.000000	0.000000	6.538979	0.153230	NaN	0.000000	0.001533	0.001687	28.0805	0.015328	0.001926	7.956978	59.4593	-167.98	0.128554	0.537259	-0.003199	-0.004542	0.153230	7.956978	-0.017642	-0.010926	-14.0241	NaN
1204	1.000000	0.546587	7.37682e+06	-55389.1	1105.82	-29741.6	0.000000	0.000000	6.546964	0.161972	NaN	0.000000	0.001549	0.001700	28.0808	0.100773	0.002006	50.2259	-51.8003	-164.393	0.185363	0.545253	0.004786	0.003452	0.161972	50.2259	0.002367	0.001854	87.3654	1065.74
1204	1.000000	0.554572	7.37682e+06	-55389.1	1105.82	-29741.6	0.000000	0.000000	6.554946	0.107619	NaN	0.000000	0.001535	0.001675	28.0804	0.064104	0.001953	32.8196	155.838	-165.064	0.084661	0.553297	0.012770	0.011495	0.107619	32.8196	0.010311	0.009529	11.294	307.175
1204	1.000000	0.562583	7.37682e+06	-55389.1	1105.82	-29741.6	0.000000	0.000000	6.562960	0.164981	NaN	0.000000	0.001537	0.001668	28.0805	0.077768	0.002002	38.8428	114.137	-163.829	0.146592	0.561252	0.020781	0.019450	0.164981	38.8428	0.017596	0.018904	8.727141	258.108
1204	1.000000	0.570597	7.37682e+06	-55389.1	1105.82	-29741.6	0.000000	0.000000	6.570976	0.194575	NaN	0.000000	0.001534	0.001640	28.0806	0.108256	0.001935	55.9479	54.3229	-166.186	0.166774	0.569337	0.028796	0.027536	0.194575	55.9479	0.026188	0.033212	5.858629	280.486
1204	1.000000	0.578615	7.37682e+06	-55389.1	1105.82	-29741.6	0.000000	0.000000	6.578995	0.235275	NaN	0.000000	0.001607	0.001678	28.0805	0.093204	0.001995	46.719	53.78	-167.057	0.263124	0.577301	0.036813	0.035499	0.235275	46.719	0.033036	0.047273	4.976989	196.319
1204	1.000000	0.586588	7.37682e+06	-55389.1	1105.82	-29741.6	0.000000	0.000000	6.586973	0.338565	NaN	0.000000	0.001567	0.001656	28.081	0.107171	0.001890	56.6928	26.6495	-164.603	0.295388	0.585239	0.044787	0.043437	0.338565	56.6928	0.040308	0.064827	5.222605	203.434
1204	1.000000	0.594605	7.37682e+06	-55389.1	1105.82	-29741.6	0.000000	0.000000	6.594998	0.545374	NaN	0.000000	0.001578	0.001667	28.0805	0.179621	0.001853	96.932	13.7154	-169.423	0.449014	0.593251	0.052804	0.051450	0.545374	96.932	0.048584	0.088086	6.191347	298.391
1204	1.000000	0.602613	7.37682e+06	-55389.1	1105.82	-29741.6	0.000000	0.000000	6.603012	0.674692	NaN	0.000000	0.001592	0.001711	28.0804	0.262732	0.001916	137.09	4.764308	-163.053	0.572850	0.601291	0.060812	0.059489	0.674692	137.09	0.057121	0.115686	5.832072	368.245
1204	1.000000	0.610625	7.37682e+06	-55389.1	1105.82	-29741.6	0.000000	0.000000	6.611028	0.790495	NaN	0.000000	0.001549	0.001658	28.0806	0.266568	0.001923	138.605	22.2061	-171.021	0.751932	0.609337	0.068824	0.067535	0.790495	138.605	0.064546	0.142614	5.542893	335.329
1204	1.000000	0.618640	7.37682e+06	-55389.1	1105.82	-29741.6	0.000000	0.000000	6.619048	0.918870	NaN	0.000000	0.001538	0.001627	28.0805	0.376121	0.001986	189.429	32.6674	-168.191	0.838280	0.617320	0.076839	0.075519	0.918870	189.429	0.073201	0.177351	5.181087	410.964
1204	1.000000	0.626638	7.37682e+06	-55389.1	1105.82	-29741.6	0.000000	0.000000	6.627051	1.035911	NaN	0.000000	0.001594	0.001652	28.0811	0.390197	0.002171	179.699	21.8047	-168.663	1.028835	0.625276	0.084836	0.083475	1.035911	179.699	0.080513	0.209461	4.945596	358.729
1204	1.000000	0.634626	7.37682e+06	-55389.1	1105.82	-29741.6	0.000000	0.000000	6.635041	1.095902	NaN	0.000000	0.001579	0.001648	28.0817	0.540041	0.001988	271.591	24.0568	-167.005	1.146665	0.633320	0.092824	0.091518	1.095902	271.591	0.089798	0.253821	4.317623	492.522
1204	1.000000	0.642641	7.37682e+06	-55389.1	1105.82	-29741.6	0.000000	0.000000	6.643068	1.364087	NaN	0.000000	0.001572	0.001648	28.0821	0.538348	0.002047	262.995	31.2076	-166.263	1.307723	0.641325	0.100840	0.099524	1.364087	262.995	0.096949	0.290685	4.692670	445.666
1204	1.000000	0.650632	7.37682e+06	-55389.1	1105.82	-29741.6	0.000000	0.000000	6.651080	1.875786	NaN	0.000000	0.001571	0.001682	28.0818	0.784361	0.002034	385.635	20.8851	-166.57	1.786154	0.649307	0.108831	0.107505	1.875786	385.635	0.105183	0.336010	5.582530	607.819
1204	1.000000	0.658604	7.37682e+06	-55389.1	1105.82	-29741.6	0.000000	0.000000	6.659070	2.300655	NaN	0.000000	0.001579	0.001709	28.0819	1.006518	0.001963	512.719	21.2941	-166.015	2.267575	0.657317	0.116803	0.115515	2.300655	512.719	0.113438	0.384543	5.982835	755.406
1204	1.000000	0.666604	7.37682e+06	-55389.1	1105.82	-29741.6	0.000000	0.000000	6.667088	2.759031	NaN	0.000000	0.001573	0.001666	28.0819	1.109468	0.001951	568.539	14.1832	-169.336	2.748721	0.665309	0.124803	0.123508	2.759031	568.539	0.121163	0.432760	6.375424	789.604
1204	1.000000	0.674645	7.37682e+06	-55389.1	1105.82	-29741.6	0.000000	0.000000	6.675149	3.232168	NaN	0.000000	0.001548	0.001657	28.0816	1.183472	0.001907	620.689	15.3343	-165.86	3.174445	0.673309	0.132844	0.131508	3.232168	620.689	0.128938	0.484030	6.677613	815.099
1204	1.000000	0.682638	7.37682e+06	-55389.1	1105.82	-29741.6	0.000000	0.000000	6.683164	3.792121	NaN	0.000000	0.001527	0.001640	28.0817	1.537351	0.002063	745.157	22.1404	-169.867	3.730186	0.681350	0.140836	0.139548	3.792121	745.157	0.137019	0.540243	7.019282	926.246
1204	1.000000	0.690642	7.37682e+06	-55389.1	1105.82	-29741.6	0.000000	0.000000	6.691210	4.798934	NaN	0.000000	0.001557	0.001674	28.0817	1.647174	0.001970	836.197	12.8595	-165.993	4.662922	0.689314	0.148841	0.147513	4.798934	836.197	0.144536	0.595227	8.062362	990.241
1204	1.000000	0.698631	7.37682e+06	-55389.1	1105.82	-29741.6	0.000000	0.000000	6.699220	5.291990	NaN	0.000000	0.001533	0.001646	28.082	1.638952	0.002089	784.646	14.5683	-168.834	5.260979	0.697341	0.156830	0.155540	5.291990	784.646	0.151772	0.650620	8.133759	888.757
1204	1.000000	0.706661	7.37682e+06	-55389.1	1105.82	-29741.6	0.000000	0.000000	6.707267	5.723986	NaN	0.000000	0.001561	0.001651	28.0819	1.991051	0.001975	1008.27	14.4198	-172.695	5.593354	0.705308	0.164860	0.163507	5.723986	1008.27	0.160602	0.721543	7.932985	1084.47
1204	1.000000	0.714652	7.37682e+06	-55389.1	1105.82	-29741.6	0.000000	0.000000	6.715284	6.365759	NaN	0.000000	0.001548	0.001656	28.0817	2.171824	0.002006	1082.51	16.7743	-165.481	6.336445	0.713335	0.172850	0.171533	6.365759	1082.51	0.168440	0.787569	8.082793	1114.45
1204	1.000000	0.722660	7.37682e+06	-55389.1	1105.82	-29741.6	0.000000	0.000000	6.723314	6.882190	NaN	0.000000	0.001552	0.001658	28.0818	2.158938	0.001826	1182.54	13.2047	-166.267	6.867775	0.721290	0.180859	0.179489	6.882190	1182.54	0.176494	0.858463	8.016870	1166.08
1204	1.000000	0.730685	7.37682e+06	-55389.1	1105.82	-29741.6	0.000000	0.000000	6.731355	7.288339	NaN	0.000000	0.001566	0.001701	28.0819	2.267496	0.002022	1121.19	13.9238	-168.398	7.358693	0.729317	0.188884	0.187516	7.288339	1121.19	0.184008	0.927417	7.858753	1063.69
1204	1.000000	0.738649	7.37682e+06	-55389.1	1105.82	-29741.6	0.000000	0.000000	6.739342	7.834061	NaN	0.000000	0.001548	0.001670	28.0819	2.552215	0.001893	1348.29	15.8039	-171.964	7.807336	0.737357	0.196848	0.195555	7.834061	1348.29	0.192490	1.008534	7.767771	1226.62
1204	1.000000	0.746676	7.37682e+06	-55389.1	1105.82	-29741.6	0.000000	0.000000	6.747389	8.328621	NaN	0.000000	0.001547	0.001658	28.0818	2.644415	0.001921	1376.9	14.1593	-168.902	8.256172	0.745375	0.204874	0.203574	8.328621	1376.9	0.200338	1.086721	7.663994	1206.75
1204	2.000000	0.754076	7.37682e+06	-55389.1	1105.82	-29741.6	0.000000	0.000000	6.754812	8.893673	NaN	0.000000	0.001546	0.001671	28.0818	2.955885	0.002091	1413.95	13.2136	-168.503	9.194568	0.753358	0.212274	0.211556	8.893673	1413.95	0.207557	1.161322	7.658232	1198.76
1204	2.000000	0.756248	7.37682e+06	-55389.1	1105.82	-29741.6	0.000000	0.000000	6.756938	7.764740	NaN	0.000000	0.001570	0.001670	28.0818	3.022235	0.001969	1534.53	12.0098	-169.785	8.089154	0.755896	0.214447	0.214095	7.764740	1534.53	0.210652	1.194092	6.502630	1283.01
1204	2.000000	0.758203	7.37682e+06	-55389.1	1105.82	-29741.6	0.000000	0.000000	6.758912	8.221965	NaN	0.000000	0.001531	0.001675	28.0806	2.852698	0.001929	1478.54	6.493897	-165.311	8.135378	0.757858	0.216402	0.216057	8.221965	1478.54	0.212231	1.211000	6.789404	1227.54
1204	2.000000	0.760167	7.37682e+06	-55389.1	1105.82	-29741.6	0.000000	0.000000	6.760881	8.330954	NaN	0.000000	0.001544	0.001681	28.0804	2.960814	0.002030	1458.28	8.255697	-168.054	8.342699	0.759917	0.218366	0.218116	8.330954	1458.28	0.214081	1.230965	6.767822	1200.85
1204	2.000000	0.762148	7.37682e+06	-55389.1	1105.82	-29741.6	0.000000	0.000000	6.762863	8.381792	NaN	0.000000	0.001576	0.001682	28.0805	3.229836	0.001996	1618.34	8.336744	-166.88	8.336888	0.761816	0.220346	0.220014	8.381792	1618.34	0.216462	1.256905	6.668597	1318.84
1204	2.000000	0.764151	7.37682e+06	-55389.1	1105.82	-29741.6	0.000000	0.000000	6.764870	8.473659	NaN	0.000000	0.001543	0.001646	28.0809	3.214355	0.001952	1646.49	12.5186	-170.474	8.407690	0.763847	0.222350	0.222046	8.473659	1646.49	0.218490	1.279224	6.624062	1330.02
1204	2.000000	0.766176	7.37682e+06	-55389.1	1105.82	-29741.6	0.000000	0.000000	6.766904	8.695939	NaN	0.000000	0.001554	0.001662	28.0807	3.072625	0.001995	1540.14	8.982442	-166.693	8.639589	0.765798	0.224374	0.223996	8.695939	1540.14	0.220140	1.297538	6.701874	1235.3
1204	2.000000	0.768137	7.37682e+06	-55389.1	1105.82	-29741.6	0.000000	0.000000	6.768877	8.998225	NaN	0.000000	0.001550	0.001675	28.0805	3.204876	0.001879	1705.78	11.9535	-170.046	9.185393	0.767825	0.226335	0.226023	8.998225	1705.78	0.222379	1.322606	6.803407	1355.13
1204	2.000000	0.770145	7.37682e+06	-55389.1	1105.82	-29741.6	0.000000	0.000000	6.770883	8.931746	NaN	0.000000	0.001543	0.001696	28.0804	3.270365	0.001974	1657	10.2317	-168.479	9.062598	0.769818	0.228344	0.228017	8.931746	1657	0.224301	1.344330	6.644015	1305.7
1204	2.000000	0.772113	7.37682e+06	-55389.1	1105.82	-29741.6	0.000000	0.000000	6.772879	9.622293	NaN	0.000000	0.001508	0.001678	28.0806	3.579062	0.001951	1834.27	4.840268	-167.45	9.536883	0.771844	0.230312	0.230042	9.622293	1834.27	0.226377	1.368000	7.033839	1432.83
1204	2.000000	0.774127	7.37682e+06	-55389.1	1105.82	-29741.6	0.000000	0.000000	6.774909	9.999479	NaN	0.000000	0.001479	0.001695	28.0808	3.619255	0.001949	1857.31	11.1666	-168.327	10.072	0.773840	0.232326	0.232039	9.999479	1857.31	0.228288	1.389974	7.194005	1439.31
1204	2.000000	0.776144	7.37682e+06	-55389.1	1105.82	-29741.6	0.000000	0.000000	6.776943	10.4221	NaN	0.000000	0.001511	0.001702	28.0807	3.897174	0.001985	1963.03	7.535444	-168.914	10.5582	0.775864	0.234342	0.234062	10.4221	1963.03	0.230360	1.414019	7.370545	1508.25
1204	2.000000	0.778124	7.37682e+06	-55389.1	1105.82	-29741.6	0.000000	0.000000	6.778946	10.9617	NaN	0.000000	0.001496	0.001667	28.0805	4.154630	0.002121	1958.83	9.489189	-166.942	10.9169	0.777791	0.236323	0.235990	10.9617	1958.83	0.232126	1.434671	7.640533	1494.15
1204	2.000000	0.780115	7.37682e+06	-55389.1	1105.82	-29741.6	0.000000	0.000000	6.780938	11.0183	NaN	0.000000	0.001513	0.001665	28.0804	4.012410	0.002021	1985.59	7.844828	-168.255	10.9985	0.779801	0.238313	0.238000	11.0183	1985.59	0.234151	1.458563	7.554214	1502.11
1204	2.000000	0.782093	7.37682e+06	-55389.1	1105.82	-29741.6	0.000000	0.000000	6.782913	10.9222	NaN	0.000000	0.001520	0.001631	28.0804	4.315749	0.001986	2172.98	10.4885	-168.64	11.0787	0.781791	0.240292	0.239989	10.9222	2172.98	0.236522	1.486785	7.346165	1628.19
1204	2.000000	0.784114	7.37682e+06	-55389.1	1105.82	-29741.6	0.000000	0.000000	6.784958	11.505	NaN	0.000000	0.001504	0.001624	28.0804	4.182080	0.002009	2082.17	9.445759	-170.432	11.6539	0.783752	0.242313	0.241951	11.505	2082.17	0.238169	1.506560	7.636615	1549.87
1204	2.000000	0.786119	7.37682e+06	-55389.1	1105.82	-29741.6	0.000000	0.000000	6.786984	12.0221	NaN	0.000000	0.001514	0.001678	28.0802	4.354062	0.001983	2195.68	12.9136	-171.012	12.0894	0.785738	0.244317	0.243937	12.0221	2195.68	0.240211	1.531270	7.851075	1621.13
1204	2.000000	0.788104	7.37682e+06	-55389.1	1105.82	-29741.6	0.000000	0.000000	6.788999	12.7527	NaN	0.000000	0.001530	0.001648	28.0804	4.302870	0.001932	2227.06	11.2802	-169.779	12.8921	0.787762	0.246302	0.245960	12.7527	2227.06	0.242008	1.553193	8.210606	1632.65
1204	2.000000	0.790098	7.37682e+06	-55389.1	1105.82	-29741.6	0.000000	0.000000	6.790984	12.5121	NaN	0.000000	0.001543	0.001640	28.0803	4.401629	0.001998	2203.05	10.8886	-169.139	12.5173	0.789769	0.248297	0.247968	12.5121	2203.05	0.244037	1.578152	7.928322	1602.22
1204	2.000000	0.792123	7.37682e+06	-55389.1	1105.82	-29741.6	0.000000	0.000000	6.792999	12.2997	NaN	0.000000	0.001538	0.001665	28.0815	4.582172	0.002092	2189.95	10.0764	-167.503	12.3349	0.791814	0.250321	0.250012	12.2997	2189.95	0.246109	1.603842	7.668875	1579.89
1204	2.000000	0.794091	7.37682e+06	-55389.1	1105.82	-29741.6	0.000000	0.000000	6.794991	12.8759	NaN	0.000000	0.001549	0.001648	28.0814	4.747180	0.001932	2456.69	9.890278	-170.653	12.7083	0.793767	0.252290	0.251966	12.8759	2456.69	0.248359	1.631990	7.889704	1756.97
1204	2.000000	0.796096	7.37682e+06	-55389.1	1105.82	-29741.6	0.000000	0.000000	6.797011	13.2254	NaN	0.000000	0.001566	0.001659	28.0814	4.746196	0.001995	2378.54	9.270386	-168.806	13.2554	0.795790	0.254295	0.253989	13.2254	2378.54	0.250124	1.654258	7.994762	1689.59
1204	2.000000	0.798101	7.37682e+06	-55389.1	1105.82	-29741.6	0.000000	0.000000	6.799020	13.3436	NaN	0.000000	0.001534	0.001650	28.082	4.746994	0.002090	2271.09	6.918555	-168.06	13.695	0.797860	0.256299	0.256058	13.3436	2271.09	0.251893	1.676722	7.958175	1602.42
1204	2.000000	0.800044	7.37682e+06	-55389.1	1105.82	-29741.6	0.000000	0.000000	6.800990	13.9789	NaN	0.000000	0.001531	0.001690	28.0819	5.140402	0.002102	2445.22	6.663307	-168.354	13.6092	0.799835	0.258243	0.258033	13.9789	2445.22	0.253955	1.703127	8.207770	1711.86
1204	2.000000	0.802076	7.37682e+06	-55389.1	1105.82	-29741.6	0.000000	0.000000	6.803028	14.1462	NaN	0.000000	0.001545	0.001632	28.0816	5.362530	0.002098	2556.32	10.2149	-171.478	14.1439	0.801789	0.260274	0.259988	14.1462	2556.32	0.256124	1.731123	8.171706	1775.11
1204	2.000000	0.804106	7.37682e+06	-55389.1	1105.82	-29741.6	0.000000	0.000000	6.805100	15.1485	NaN	0.000000	0.001535	0.001667	28.0816	5.301155	0.002081	2547.51	15.7019	-174.555	14.8735	0.803737	0.262304	0.261936	15.1485	2547.51	0.257845	1.753510	8.638984	1757.66
1204	2.000000	0.806087	7.37682e+06	-55389.1	1105.82	-29741.6	0.000000	0.000000	6.807083	15.2091	NaN	0.000000	0.001506	0.001665	28.0814	5.492350	0.001975	2781.38	13.2654	-174.026	15.3179	0.805808	0.264285	0.264006	15.2091	2781.38	0.260184	1.784191	8.524357	1902.45
1204	2.000000	0.808077	7.37682e+06	-55389.1	1105.82	-29741.6	0.000000	0.000000	6.809121	16.3835	NaN	0.000000	0.001562	0.001644	28.0815	5.686844	0.002052	2771.14	10.7964	-171.87	16.3115	0.807760	0.266275	0.265958	16.3835	2771.14	0.261841	1.806090	9.071242	1883.91
1204	2.000000	0.810061	7.37682e+06	-55389.1	1105.82	-29741.6	0.000000	0.000000	6.811132	17.0189	NaN	0.000000	0.001565	0.001661	28.0815	5.837310	0.002057	2837.98	11.9886	-173.831	17.1219	0.809785	0.268260	0.267983	17.0189	2837.98	0.263762	1.831657	9.291516	1915.85
1204	2.000000	0.812084	7.37682e+06	-55389.1	1105.82	-29741.6	0.000000	0.000000	6.813185	17.7685	NaN	0.000000	0.001540	0.001643	28.0816	5.726889	0.002022	2831.72	7.042319	-166.853	17.8199	0.811729	0.270282	0.269927	17.7685	2831.72	0.265576	1.855974	9.573678	1899.06
1204	2.000000	0.814063	7.37682e+06	-55389.1	1105.82	-29741.6	0.000000	0.000000	6.815194	18.4826	NaN	0.000000	0.001566	0.001680	28.0814	6.037588	0.001978	3052.74	10.687	-172.108	18.2374	0.813764	0.272262	0.271962	18.4826	3052.74	0.267721	1.884943	9.805369	2031.49
1204	2.000000	0.816067	7.37682e+06	-55389.1	1105.82	-29741.6	0.000000	0.000000	6.817223	19.1051	NaN	0.000000	0.001556	0.001662	28.0815	6.030557	0.001878	3210.71	7.545596	-170.573	18.9492	0.815715	0.274266	0.273913	19.1051	3210.71	0.269803	1.913283	9.985500	2120.72
1204	2.000000	0.818041	7.37682e+06	-55389.1	1105.82	-29741.6	0.000000	0.000000	6.819227	19.8181	NaN	0.000000	0.001543	0.001681	28.0815	6.246896	0.001890	3305.09	8.079557	-171.924	19.8668	0.817758	0.276240	0.275957	19.8181	3305.09	0.271742	1.939895	10.2161	2168.04
1204	2.000000	0.820070	7.37682e+06	-55389.1	1105.82	-29741.6	0.000000	0.000000	6.821284	20.5128	NaN	0.000000	0.001520	0.001683	28.0818	6.068902	0.001970	3080.45	5.144421	-166.148	20.8374	0.819734	0.278269	0.277933	20.5128	3080.45	0.273274	1.961046	10.4601	2009.76
1204	2.000000	0.822083	7.37682e+06	-55389.1	1105.82	-29741.6	0.000000	0.000000	6.823347	21.715	NaN	0.000000	0.001522	0.001656	28.0816	6.290614	0.001872	3360.47	6.790995	-171.586	21.5193	0.821736	0.280282	0.279935	21.715	3360.47	0.275435	1.991091	10.9061	2175.84
1204	2.000000	0.824036	7.37682e+06	-55389.1	1105.82	-29741.6	0.000000	0.000000	6.825317	22.1346	NaN	0.000000	0.001538	0.001697	28.0814	6.436703	0.001951	3298.73	9.227024	-173.034	21.919	0.823761	0.282234	0.281960	22.1346	3298.73	0.277202	2.015834	10.9804	2122.72
1204	2.000000	0.826037	7.37682e+06	-55389.1	1105.82	-29741.6	0.000000	0.000000	6.827343	22.7508	NaN	0.000000	0.001492	0.001685	28.0806	6.553467	0.002028	3230.96	8.844432	-171.845	22.3741	0.825750	0.284235	0.283949	22.7508	3230.96	0.278954	2.040531	11.1495	2066.49
1204	2.000000	0.828048	7.37682e+06	-55389.1	1105.82	-29741.6	0.000000	0.000000	6.829385	23.4933	NaN	0.000000	0.001514	0.001672	28.0803	6.797487	0.001979	3435.49	5.209769	-167.361	23.57	0.827737	0.286246	0.285935	23.4933	3435.49	0.281118	2.071250	11.3426	2180.95
1204	2.000000	0.830074	7.37682e+06	-55389.1	1105.82	-29741.6	0.000000	0.000000	6.831474	25.0298	NaN	0.000000	0.001499	0.001673	28.0806	7.018435	0.001981	3542.33	11.4091	-173.881	25.4175	0.829765	0.288273	0.287964	25.0298	3542.33	0.282973	2.097785	11.9315	2234.5
1204	2.000000	0.832061	7.37682e+06	-55389.1	1105.82	-29741.6	0.000000	0.000000	6.833530	26.6921	NaN	0.000000	0.001489	0.001665	28.0803	7.106523	0.001884	3772.22	9.382058	-173.168	26.3934	0.831735	0.290260	0.289934	26.6921	3772.22	0.284953	2.126295	12.5533	2363.51
1204	2.000000	0.834019	7.37682e+06	-55389.1	1105.82	-29741.6	0.000000	0.000000	6.835528	27.6835	NaN	0.000000	0.001490	0.001679	28.0804	7.386981	0.002001	3691.66	7.728818	-170.198	26.8767	0.833666	0.292217	0.291864	27.6835	3691.66	0.286593	2.150065	12.8756	2300.22
1204	2.000000	0.836072	7.37682e+06	-55389.1	1105.82	-29741.6	0.000000	0.000000	6.837590	27.8894	NaN	0.000000	0.001512	0.001679	28.0804	7.334205	0.001900	3860.39	6.912647	-171.053	27.6284	0.835760	0.294271	0.293958	27.8894	3860.39	0.288852	2.183044	12.7755	2387.11
1204	2.000000	0.838035	7.37682e+06	-55389.1	1105.82	-29741.6	0.000000	0.000000	6.839615	29.3978	NaN	0.000000	0.001482	0.001648	28.0803	7.456955	0.001906	3911.46	7.612562	-171.241	29.3541	0.837717	0.296233	0.295916	29.3978	3911.46	0.290597	2.208680	13.3101	2404.61
1204	2.000000	0.840032	7.37682e+06	-55389.1	1105.82	-29741.6	0.000000	0.000000	6.841674	30.8978	NaN	0.000000	0.001506	0.001688	28.0813	7.596021	0.001841	4126.31	6.343830	-171.835	30.9984	0.839690	0.298231	0.297889	30.8978	4126.31	0.292615	2.238545	13.8026	2519.72
1204	2.000000	0.842054	7.37682e+06	-55389.1	1105.82	-29741.6	0.000000	0.000000	6.843780	32.9582	NaN	0.000000	0.001485	0.001740	28.0804	7.944908	0.001979	4014.57	8.664912	-172.512	33.0568	0.841719	0.300252	0.299917	32.9582	4014.57	0.294095	2.260583	14.5795	2439.5
1204	2.000000	0.844010	7.37682e+06	-55389.1	1105.82	-29741.6	0.000000	0.000000	6.845789	34.2395	NaN	0.000000	0.001512	0.001750	28.0804	8.187089	0.002009	4075.02	8.732349	-171.72	33.8136	0.843726	0.302209	0.301924	34.2395	4075.02	0.295907	2.287715	14.9667	2461.51
1204	2.000000	0.846040	7.37682e+06	-55389.1	1105.82	-29741.6	0.000000	0.000000	6.847865	35.37	NaN	0.000000	0.001567	0.001729	28.0806	8.532719	0.002074	4114.67	8.650538	-173.075	34.9379	0.845720	0.304238	0.303919	35.37	4114.67	0.297791	2.316107	15.2713	2470.18
1204	2.000000	0.848026	7.37682e+06	-55389.1	1105.82	-29741.6	0.000000	0.000000	6.849897	36.4798	NaN	0.000000	0.001539	0.001712	28.0805	8.402913	0.001932	4348.79	5.673268	-171.045	36.3648	0.847757	0.306224	0.305956	36.4798	4348.79	0.299933	2.348603	15.5325	2592.61
1204	2.000000	0.850053	7.37682e+06	-55389.1	1105.82	-29741.6	0.000000	0.000000	6.851987	38.0053	NaN	0.000000	0.001571	0.001692	28.0812	8.467709	0.001908	4437.04	5.893849	-170.902	38.2286	0.849687	0.308251	0.307885	38.0053	4437.04	0.301827	2.377543	15.9851	2629.07
1204	2.000000	0.852054	7.37682e+06	-55389.1	1105.82	-29741.6	0.000000	0.000000	6.854080	40.2406	NaN	0.000000	0.001487	0.001741	28.0806	8.666639	0.001871	4632.95	4.535311	-169.69	40.2106	0.851682	0.310252	0.309880	40.2406	4632.95	0.303738	2.406928	16.7186	2728.34