File: remote_trans/data/nanoindenter/0828-1/data/Data_2025-08-06,11h17m57s/2025-07-22_16-23-58_1_321.txt
2025-07-22, 16:23:58, 1
Index	Phase	Displacement	Time	Pos X	Pos Y	Pos Z	Rot A	Rot B	Piezo Z	Force A	Force B	Gripper	Voltage A	Voltage B	Temperature	Amplitude force	Amplitude pos	Stiffness	Phase shift	Phase excitation	Force A raw	Displacement raw	HMax	HMax raw	Real Force	Real Stiffness	Contact Depth	Area	Hardness	Reduced Mod.
[#]	[#]	[um]	[s]	[um]	[um]	[um]	[m°]	[m°]	[um]	[uN]	[uN]	[V]	[V]	[V]	[°C]	[uN]	[um]	[N/m]	[°]	[°]	[uN]	[um]	[um]	[um]	[uN]	[N/m]	[um]	[um^2]	[MPa]	[MPa]
321	1.000000	0.002292	7.36821e+06	-54689.1	955.818	-29743.3	0.000000	0.000000	6.002806	-0.057914	NaN	0.000000	0.001657	0.001757	28.077	0.073317	0.000962	76.2426	-47.4302	-163.123	-0.022570	0.001061	-1.098808	-1.100039	-0.057914	76.2426	-1.098238	-4.746963E+14	1.220032E-16	NaN
321	1.000000	0.012357	7.36821e+06	-54689.1	955.819	-29743.3	0.000000	0.000000	6.012873	0.016438	NaN	0.000000	0.001633	0.001710	28.0769	0.061005	0.001114	54.7504	65.6099	18.8631	0.001103	0.010886	-1.088743	-1.090214	0.016438	54.7504	-1.088968	-3.564153E+14	-4.612025E-17	NaN
321	1.000000	0.022241	7.36821e+06	-54689.1	955.819	-29743.3	0.000000	0.000000	6.022755	-0.036276	NaN	0.000000	0.001640	0.001694	28.077	0.049340	0.001734	28.4523	143.214	-162.199	0.004349	0.020925	-1.078860	-1.080175	-0.036276	28.4523	-1.077903	-2.531388E+14	1.433047E-16	NaN
321	1.000000	0.032236	7.36821e+06	-54689.1	955.817	-29743.3	0.000000	0.000000	6.032748	-0.072437	NaN	0.000000	0.001686	0.001704	28.0771	0.032901	0.002003	16.4263	-39.5504	17.3936	-0.015216	0.030865	-1.068864	-1.070236	-0.072437	16.4263	-1.065557	-1.727802E+14	4.192453E-16	NaN
321	1.000000	0.042239	7.36821e+06	-54689.1	955.818	-29743.3	0.000000	0.000000	6.042753	-0.039554	NaN	0.000000	0.001673	0.001718	28.0773	0.106396	0.002084	51.0475	122.941	-167.945	0.016310	0.040925	-1.058861	-1.060175	-0.039554	51.0475	-1.058280	-1.379441E+14	2.867374E-16	NaN
321	1.000000	0.052220	7.36821e+06	-54689.1	955.818	-29743.3	0.000000	0.000000	6.052736	0.000480	NaN	0.000000	0.001625	0.001715	28.0779	0.047248	0.001941	24.3367	105.624	14.0951	-0.057591	0.050888	-1.048880	-1.050212	0.000480	24.3367	-1.048895	-1.031713E+14	-4.655607E-18	NaN
321	1.000000	0.062236	7.36821e+06	-54689.1	955.818	-29743.3	0.000000	0.000000	6.062752	-0.000973	NaN	0.000000	0.001641	0.001730	28.0787	0.064505	0.002001	32.2381	88.9321	-165.042	-0.015109	0.060923	-1.038864	-1.040177	-0.000973	32.2381	-1.038841	-7.557619E+13	1.287250E-17	NaN
321	1.000000	0.072281	7.36821e+06	-54689.1	955.819	-29743.3	0.000000	0.000000	6.072798	0.049129	NaN	0.000000	0.001661	0.001750	28.0784	0.053901	0.002028	26.5746	85.0334	13.0981	0.017160	0.070916	-1.028820	-1.030184	0.049129	26.5746	-1.030206	-5.784350E+13	-8.493403E-16	NaN
321	1.000000	0.082230	7.36821e+06	-54689.1	955.818	-29743.3	0.000000	0.000000	6.082741	-0.095803	NaN	0.000000	0.001654	0.001730	28.0786	0.074312	0.002000	37.1601	-49.3632	-168.414	-0.099844	0.080956	-1.018870	-1.020144	-0.095803	37.1601	-1.016937	-3.834731E+13	2.498305E-15	NaN
321	1.000000	0.092266	7.36821e+06	-54689.1	955.819	-29743.3	0.000000	0.000000	6.092779	-0.076320	NaN	0.000000	0.001647	0.001737	28.0785	0.027514	0.001910	14.4053	17.6425	9.958299	-0.008358	0.090884	-1.008834	-1.010216	-0.076320	14.4053	-1.004860	-2.637557E+13	2.893603E-15	NaN
321	1.000000	0.102234	7.36821e+06	-54689.1	955.818	-29743.3	0.000000	0.000000	6.102747	-0.044811	NaN	0.000000	0.001659	0.001729	28.0785	0.108267	0.001954	55.3951	70.4151	-164.355	-0.081640	0.100969	-0.998866	-1.000131	-0.044811	55.3951	-0.998260	-2.149504E+13	2.084691E-15	NaN
321	1.000000	0.112271	7.36821e+06	-54689.1	955.819	-29743.3	0.000000	0.000000	6.112785	-0.029531	NaN	0.000000	0.001646	0.001773	28.0783	0.083931	0.002050	40.9344	-147.347	16.2547	-0.069714	0.110912	-0.988829	-0.990188	-0.029531	40.9344	-0.988288	-1.577823E+13	1.871615E-15	NaN
321	1.000000	0.122268	7.36821e+06	-54689.1	955.818	-29743.3	0.000000	0.000000	6.122784	0.010882	NaN	0.000000	0.001659	0.001739	28.0783	0.052963	0.002084	25.4179	54.102	-162.635	-0.021868	0.120933	-0.978832	-0.980167	0.010882	25.4179	-0.979153	-1.188501E+13	-9.156127E-16	NaN
321	1.000000	0.132279	7.36821e+06	-54689.1	955.818	-29743.3	0.000000	0.000000	6.132792	-0.050651	NaN	0.000000	0.001655	0.001722	28.0787	0.108573	0.001951	55.6469	87.4696	15.1261	-0.035726	0.130920	-0.968821	-0.970180	-0.050651	55.6469	-0.968139	-8.444576E+12	5.998053E-15	NaN
321	1.000000	0.142270	7.36821e+06	-54689.1	955.82	-29743.3	0.000000	0.000000	6.142780	-0.124080	NaN	0.000000	0.001681	0.001760	28.0783	0.031198	0.002005	15.5565	-117.324	-166.587	-0.089832	0.141008	-0.958830	-0.960093	-0.124080	15.5565	-0.952848	-5.253393E+12	2.361893E-14	NaN
321	1.000000	0.152296	7.36821e+06	-54689.1	955.819	-29743.3	0.000000	0.000000	6.152812	0.015933	NaN	0.000000	0.001668	0.001693	28.0785	0.128281	0.002004	64.0257	-142.869	13.6089	-0.014383	0.150882	-0.948804	-0.950219	0.015933	64.0257	-0.948991	-4.660353E+12	-3.418743E-15	NaN
321	1.000000	0.162285	7.36821e+06	-54689.1	955.818	-29743.3	0.000000	0.000000	6.162795	-0.127767	NaN	0.000000	0.001662	0.001735	28.0784	0.115356	0.002080	55.4713	-86.3342	-165.202	-0.056867	0.160998	-0.938816	-0.940102	-0.127767	55.4713	-0.937088	-3.219964E+12	3.967960E-14	NaN
321	1.000000	0.172292	7.36821e+06	-54689.1	955.818	-29743.3	0.000000	0.000000	6.172808	0.009484	NaN	0.000000	0.001640	0.001725	28.0788	0.034879	0.002117	16.4746	83.3988	14.6496	0.011840	0.170883	-0.928808	-0.930218	0.009484	16.4746	-0.929240	-2.523108E+12	-3.758799E-15	NaN
321	1.000000	0.182312	7.36821e+06	-54689.1	955.819	-29743.3	0.000000	0.000000	6.182828	0.006361	NaN	0.000000	0.001683	0.001716	28.0782	0.112137	0.002181	51.4109	-150.286	-165.009	-0.013376	0.181018	-0.918788	-0.920082	0.006361	51.4109	-0.918881	-1.828497E+12	-3.478940E-15	NaN
321	1.000000	0.192303	7.36821e+06	-54689.1	955.818	-29743.3	0.000000	0.000000	6.192815	-0.083057	NaN	0.000000	0.001692	0.001729	28.0774	0.070775	0.001938	36.511	-114.013	9.316943	-0.090001	0.190889	-0.908797	-0.910212	-0.083057	36.511	-0.907091	-1.267275E+12	6.553994E-14	NaN
321	1.000000	0.202279	7.36821e+06	-54689.1	955.819	-29743.3	0.000000	0.000000	6.202793	-0.049759	NaN	0.000000	0.001690	0.001687	28.077	0.091952	0.002020	45.5293	91.0374	-164.775	-0.008463	0.200970	-0.898821	-0.900131	-0.049759	45.5293	-0.898001	-9.551171E+11	5.209725E-14	NaN
321	1.000000	0.212318	7.36821e+06	-54689.1	955.819	-29743.3	0.000000	0.000000	6.212833	-0.012411	NaN	0.000000	0.001678	0.001701	28.0775	0.025120	0.002088	12.0332	-142.252	15.8349	0.013107	0.210962	-0.888782	-0.890139	-0.012411	12.0332	-0.888008	-6.998291E+11	1.773457E-14	NaN
321	1.000000	0.222310	7.36821e+06	-54689.1	955.819	-29743.3	0.000000	0.000000	6.222824	-0.034461	NaN	0.000000	0.001678	0.001698	28.0771	0.049411	0.002207	22.3918	-148.218	-166.034	-0.058342	0.220977	-0.878790	-0.880124	-0.034461	22.3918	-0.877636	-5.066773E+11	6.801361E-14	NaN
321	1.000000	0.232322	7.36821e+06	-54689.1	955.819	-29743.3	0.000000	0.000000	6.232834	-0.093296	NaN	0.000000	0.001675	0.001685	28.0771	0.010018	0.001925	5.202814	169.471	13.9039	-0.049833	0.231005	-0.868778	-0.870095	-0.093296	5.202814	-0.855329	-2.528677E+11	3.689503E-13	NaN
321	1.000000	0.242334	7.36821e+06	-54689.1	955.819	-29743.3	0.000000	0.000000	6.242847	-0.065681	NaN	0.000000	0.001652	0.001693	28.0773	0.030041	0.002107	14.2574	-58.9395	-163.822	0.038650	0.240976	-0.858766	-0.860124	-0.065681	14.2574	-0.855311	-2.527231E+11	2.598946E-13	NaN
321	1.000000	0.252325	7.36821e+06	-54689.1	955.819	-29743.3	0.000000	0.000000	6.252840	-0.014546	NaN	0.000000	0.001671	0.001717	28.0772	0.043667	0.002099	20.8017	-91.5133	14.6538	0.063093	0.250941	-0.848775	-0.850159	-0.014546	20.8017	-0.848250	-2.027896E+11	7.173067E-14	NaN
321	1.000000	0.262328	7.36821e+06	-54689.1	955.818	-29743.3	0.000000	0.000000	6.262840	-0.076542	NaN	0.000000	0.001654	0.001734	28.0771	0.030764	0.002058	14.9458	169.977	-162.583	-0.047008	0.261020	-0.838773	-0.840080	-0.076542	14.9458	-0.834932	-1.338504E+11	5.718437E-13	NaN
321	1.000000	0.272311	7.36821e+06	-54689.1	955.818	-29743.3	0.000000	0.000000	6.272822	-0.108087	NaN	0.000000	0.001681	0.001729	28.0772	0.091104	0.001910	47.6901	-127.672	15.639	-0.077329	0.270961	-0.828789	-0.830139	-0.108087	47.6901	-0.827090	-1.047936E+11	1.031428E-12	NaN
321	1.000000	0.282322	7.36821e+06	-54689.1	955.819	-29743.3	0.000000	0.000000	6.282834	-0.077752	NaN	0.000000	0.001618	0.001696	28.0773	0.050139	0.002097	23.9053	172.874	-165.406	-0.116768	0.280995	-0.818778	-0.820105	-0.077752	23.9053	-0.816339	-7.491374E+10	1.037893E-12	NaN
321	1.000000	0.292345	7.36821e+06	-54689.1	955.819	-29743.3	0.000000	0.000000	6.292860	0.003938	NaN	0.000000	0.001635	0.001682	28.0771	0.037164	0.002052	18.1067	176.188	17.9717	-0.036753	0.290986	-0.808756	-0.810114	0.003938	18.1067	-0.808919	-5.941585E+10	-6.628469E-14	NaN
321	1.000000	0.302324	7.36821e+06	-54689.1	955.818	-29743.3	0.000000	0.000000	6.302837	-0.073507	NaN	0.000000	0.001651	0.001701	28.0769	0.043063	0.002147	20.0563	166.409	-163.742	-0.102132	0.301077	-0.798776	-0.800024	-0.073507	20.0563	-0.796027	-3.971242E+10	1.850982E-12	NaN
321	1.000000	0.312343	7.36821e+06	-54689.1	955.818	-29743.3	0.000000	0.000000	6.312854	-0.099191	NaN	0.000000	0.001685	0.001692	28.0771	0.135911	0.002078	65.3973	2.798548	12.8202	-0.070408	0.310979	-0.788757	-0.790121	-0.099191	65.3973	-0.787620	-3.053204E+10	3.248738E-12	NaN
321	1.000000	0.322360	7.36821e+06	-54689.1	955.818	-29743.3	0.000000	0.000000	6.322877	0.019495	NaN	0.000000	0.001676	0.001696	28.0773	0.063245	0.001904	33.2152	83.6892	-159.928	0.013911	0.321033	-0.778740	-0.780067	0.019495	33.2152	-0.779180	-2.344711E+10	-8.314508E-13	NaN
321	1.000000	0.332371	7.36821e+06	-54689.1	955.818	-29743.3	0.000000	0.000000	6.332884	-0.066309	NaN	0.000000	0.001675	0.001709	28.0785	0.059646	0.001927	30.9503	0.330436	16.1829	-0.050428	0.330992	-0.768729	-0.770108	-0.066309	30.9503	-0.767122	-1.607591E+10	4.124736E-12	NaN
321	1.000000	0.342354	7.36821e+06	-54689.1	955.818	-29743.3	0.000000	0.000000	6.342867	-0.063038	NaN	0.000000	0.001670	0.001696	28.0786	0.029442	0.001853	15.8893	-57.7663	-164.238	0.008075	0.341042	-0.758746	-0.760058	-0.063038	15.8893	-0.755771	-1.126574E+10	5.595583E-12	NaN
321	1.000000	0.352363	7.36821e+06	-54689.1	955.818	-29743.3	0.000000	0.000000	6.352877	-0.013256	NaN	0.000000	0.001659	0.001686	28.0786	0.050182	0.001969	25.4854	-41.5322	18.4565	0.057930	0.351054	-0.748738	-0.750046	-0.013256	25.4854	-0.748348	-8.927411E+9	1.484915E-12	NaN
321	1.000000	0.362390	7.36821e+06	-54689.1	955.817	-29743.3	0.000000	0.000000	6.362906	-0.000626	NaN	0.000000	0.001662	0.001674	28.0783	0.040241	0.001875	21.4616	105.263	-163.83	-0.056107	0.361091	-0.738710	-0.740009	-0.000626	21.4616	-0.738688	-6.594577E+9	9.486876E-14	NaN
321	1.000000	0.372386	7.36821e+06	-54689.1	955.819	-29743.3	0.000000	0.000000	6.372901	-0.010264	NaN	0.000000	0.001700	0.001690	28.0784	0.076091	0.002028	37.5212	28.1506	14.7102	-0.031946	0.370971	-0.728714	-0.730129	-0.010264	37.5212	-0.728509	-4.791638E+9	2.142044E-12	NaN
321	1.000000	0.382369	7.36821e+06	-54689.1	955.819	-29743.3	0.000000	0.000000	6.382884	-0.015651	NaN	0.000000	0.001659	0.001714	28.0783	0.124143	0.002029	61.1975	34.4135	-165.557	-0.049589	0.381069	-0.718731	-0.720031	-0.015651	61.1975	-0.718540	-3.503925E+9	4.466592E-12	NaN
321	1.000000	0.392349	7.36821e+06	-54689.1	955.817	-29743.3	0.000000	0.000000	6.392863	-0.023691	NaN	0.000000	0.001634	0.001705	28.0785	0.095312	0.002107	45.2418	-104.066	17.6258	0.023471	0.391087	-0.708751	-0.710013	-0.023691	45.2418	-0.708359	-2.544771E+9	9.309658E-12	NaN
321	1.000000	0.402356	7.36821e+06	-54689.1	955.819	-29743.3	0.000000	0.000000	6.402869	-0.064224	NaN	0.000000	0.001666	0.001745	28.0783	0.045284	0.002001	22.6356	-163.564	-167.125	-0.032238	0.401163	-0.698744	-0.699937	-0.064224	22.6356	-0.696616	-1.759209E+9	3.650716E-11	NaN
321	1.000000	0.412383	7.36821e+06	-54689.1	955.819	-29743.3	0.000000	0.000000	6.412898	-0.020303	NaN	0.000000	0.001631	0.001695	28.0789	0.066401	0.002058	32.2604	70.5323	14.1042	-0.018259	0.411011	-0.688717	-0.690090	-0.020303	32.2604	-0.688245	-1.351864E+9	1.501832E-11	NaN
321	1.000000	0.422372	7.36821e+06	-54689.1	955.818	-29743.3	0.000000	0.000000	6.422890	0.061083	NaN	0.000000	0.001638	0.001733	28.0783	0.047808	0.001993	23.9824	-33.6326	-164.881	-0.023429	0.421111	-0.678728	-0.679990	0.061083	23.9824	-0.680638	-1.063988E+9	-5.740947E-11	NaN
321	1.000000	0.432401	7.36821e+06	-54689.1	955.818	-29743.3	0.000000	0.000000	6.432914	-0.059055	NaN	0.000000	0.001674	0.001739	28.0787	0.081812	0.001905	42.9516	-105.343	18.7569	-0.086769	0.431039	-0.668699	-0.670061	-0.059055	42.9516	-0.667668	-7.070884E+8	8.351844E-11	NaN
321	1.000000	0.442397	7.36821e+06	-54689.1	955.819	-29743.3	0.000000	0.000000	6.442911	-0.027978	NaN	0.000000	0.001639	0.001696	28.0785	0.021417	0.002072	10.3377	83.2742	-165.167	0.060386	0.441086	-0.658704	-0.660014	-0.027978	10.3377	-0.656674	-4.999226E+8	5.596437E-11	NaN
321	1.000000	0.452399	7.36821e+06	-54689.1	955.819	-29743.3	0.000000	0.000000	6.452911	-0.085741	NaN	0.000000	0.001628	0.001698	28.0785	0.018265	0.002020	9.042338	52.3182	18.9151	-0.057743	0.451114	-0.648702	-0.649986	-0.085741	9.042338	-0.641590	-3.105300E+8	2.761121E-10	NaN
321	1.000000	0.462416	7.36821e+06	-54689.1	955.818	-29743.3	0.000000	0.000000	6.462929	-0.066412	NaN	0.000000	0.001628	0.001700	28.0775	0.015190	0.002014	7.541409	-28.6148	-166.14	-0.032296	0.461085	-0.638684	-0.640016	-0.066412	7.541409	-0.632079	-2.299202E+8	2.888465E-10	NaN
321	1.000000	0.472407	7.36821e+06	-54689.1	955.818	-29743.3	0.000000	0.000000	6.472920	-0.058757	NaN	0.000000	0.001598	0.001771	28.0774	0.073346	0.002028	36.1726	-113.227	15.9344	-0.079994	0.471050	-0.628693	-0.630050	-0.058757	36.1726	-0.627475	-1.987650E+8	2.956118E-10	NaN
321	1.000000	0.482422	7.36821e+06	-54689.1	955.819	-29743.3	0.000000	0.000000	6.482934	-0.096606	NaN	0.000000	0.001662	0.001742	28.0771	0.050510	0.002058	24.5485	-61.9965	-164.502	-0.069704	0.481101	-0.618678	-0.619999	-0.096606	24.5485	-0.615726	-1.370501E+8	7.048921E-10	NaN
321	1.000000	0.492419	7.36821e+06	-54689.1	955.818	-29743.3	0.000000	0.000000	6.492933	-0.031580	NaN	0.000000	0.001641	0.001722	28.0769	0.037623	0.001972	19.0771	10.1457	15.6837	0.006591	0.491055	-0.608681	-0.610046	-0.031580	19.0771	-0.607440	-1.054109E+8	2.995902E-10	NaN
321	1.000000	0.502434	7.36821e+06	-54689.1	955.818	-29743.3	0.000000	0.000000	6.502948	-0.029504	NaN	0.000000	0.001631	0.001696	28.077	0.079046	0.002107	37.509	6.122066	-164.523	-0.019740	0.501155	-0.598667	-0.599945	-0.029504	37.509	-0.598077	-7.833738E+7	3.766280E-10	NaN
321	1.000000	0.512444	7.36821e+06	-54689.1	955.819	-29743.3	0.000000	0.000000	6.512955	-0.113622	NaN	0.000000	0.001624	0.001695	28.0771	0.129224	0.001870	69.0988	54.2873	15.3395	-0.112654	0.511122	-0.588656	-0.589978	-0.113622	69.0988	-0.587423	-5.586345E+7	2.033916E-9	NaN
321	1.000000	0.522411	7.36821e+06	-54689.1	955.819	-29743.3	0.000000	0.000000	6.522926	-0.009124	NaN	0.000000	0.001615	0.001704	28.0771	0.046631	0.002051	22.7377	92.5453	-161.147	-0.003237	0.521162	-0.578689	-0.579938	-0.009124	22.7377	-0.578389	-4.192592E+7	2.176318E-10	NaN
321	1.000000	0.532453	7.36821e+06	-54689.1	955.818	-29743.3	0.000000	0.000000	6.532966	-0.066104	NaN	0.000000	0.001620	0.001686	28.0771	0.012758	0.002033	6.276113	72.3264	16.0245	-0.132977	0.531113	-0.568647	-0.569987	-0.066104	6.276113	-0.560748	-2.391785E+7	2.763781E-9	NaN
321	1.000000	0.542453	7.36821e+06	-54689.1	955.819	-29743.3	0.000000	0.000000	6.542970	0.017638	NaN	0.000000	0.001660	0.001701	28.0771	0.101163	0.002100	48.1815	-130.15	-165.432	0.049896	0.541116	-0.558647	-0.559984	0.017638	48.1815	-0.558921	-2.256606E+7	-7.816202E-10	NaN
321	1.000000	0.552473	7.36821e+06	-54689.1	955.818	-29743.3	0.000000	0.000000	6.552988	-0.011609	NaN	0.000000	0.001655	0.001703	28.077	0.006384	0.001959	3.258030	-136.396	14.844	-0.049288	0.551092	-0.548627	-0.550008	-0.011609	3.258030	-0.545955	-1.492496E+7	7.778466E-10	NaN
321	1.000000	0.562431	7.36821e+06	-54689.1	955.82	-29743.3	0.000000	0.000000	6.562944	-0.047958	NaN	0.000000	0.001662	0.001699	28.077	0.048980	0.001946	25.1698	70.1847	-168.047	-0.057986	0.561180	-0.538669	-0.539920	-0.047958	25.1698	-0.537240	-1.129996E+7	4.244046E-9	NaN
321	1.000000	0.572469	7.36821e+06	-54689.1	955.818	-29743.3	0.000000	0.000000	6.572982	-0.069650	NaN	0.000000	0.001695	0.001709	28.077	0.051142	0.001966	26.0123	-136.806	16.2408	-0.056151	0.571101	-0.528631	-0.529999	-0.069650	26.0123	-0.526623	-8.04759e+06	8.654737E-9	NaN
321	1.000000	0.582482	7.36821e+06	-54689.1	955.818	-29743.3	0.000000	0.000000	6.582997	-0.004241	NaN	0.000000	0.001672	0.001687	28.0771	0.036916	0.001983	18.6206	88.3254	-164.003	-0.070394	0.581163	-0.518618	-0.519938	-0.004241	18.6206	-0.518447	-6.19442e+06	6.846781E-10	NaN
321	1.000000	0.592461	7.36821e+06	-54689.1	955.817	-29743.3	0.000000	0.000000	6.592975	-0.016450	NaN	0.000000	0.001689	0.001738	28.077	0.090821	0.002061	44.063	-87.4077	16.4082	-0.009608	0.591119	-0.508640	-0.509981	-0.016450	44.063	-0.508360	-4.48295e+06	3.669462E-9	NaN
321	1.000000	0.602486	7.36821e+06	-54689.1	955.818	-29743.3	0.000000	0.000000	6.603001	-0.029224	NaN	0.000000	0.001655	0.001731	28.0784	0.058421	0.001981	29.4954	124.54	-164.043	0.068129	0.601191	-0.498614	-0.499909	-0.029224	29.4954	-0.497871	-3.20118e+06	9.128988E-9	NaN
321	1.000000	0.612511	7.36821e+06	-54689.1	955.819	-29743.3	0.000000	0.000000	6.613025	-0.038194	NaN	0.000000	0.001654	0.001722	28.0782	0.046776	0.002082	22.4686	-174.185	13.7447	-0.077648	0.611142	-0.488589	-0.489959	-0.038194	22.4686	-0.487314	-2.27956e+06	1.675487E-8	NaN
321	1.000000	0.622440	7.36821e+06	-54689.1	955.817	-29743.3	0.000000	0.000000	6.622955	-0.021773	NaN	0.000000	0.001667	0.001702	28.0785	0.046287	0.002075	22.3112	-78.2982	-163.339	-0.043225	0.621140	-0.478660	-0.479961	-0.021773	22.3112	-0.477928	-1.68467e+06	1.292392E-8	NaN
321	1.000000	0.632451	7.36821e+06	-54689.1	955.818	-29743.3	0.000000	0.000000	6.632965	-0.041387	NaN	0.000000	0.001675	0.001703	28.0784	0.121396	0.002017	60.1771	-148.384	15.5946	-0.083202	0.631139	-0.468649	-0.469961	-0.041387	60.1771	-0.468133	-1.22806e+06	3.370129E-8	NaN
321	1.000000	0.642483	7.36821e+06	-54689.1	955.819	-29743.3	0.000000	0.000000	6.642997	-0.022668	NaN	0.000000	0.001672	0.001708	28.0782	0.079702	0.002043	39.0175	-19.0965	-163.866	0.008345	0.641126	-0.458617	-0.459975	-0.022668	39.0175	-0.458182	-890145	2.546607E-8	NaN
321	1.000000	0.652488	7.36821e+06	-54689.1	955.818	-29743.3	0.000000	0.000000	6.653002	-0.036861	NaN	0.000000	0.001634	0.001644	28.0787	0.061754	0.002015	30.6541	-151.503	13.8243	-0.097064	0.651114	-0.448612	-0.449987	-0.036861	30.6541	-0.447710	-633996	5.814130E-8	NaN
321	1.000000	0.662497	7.36821e+06	-54689.1	955.817	-29743.3	0.000000	0.000000	6.663010	-0.042352	NaN	0.000000	0.001663	0.001729	28.0784	0.076923	0.001919	40.0844	-1.838939	-166.362	-0.001645	0.661223	-0.438604	-0.439877	-0.042352	40.0844	-0.437811	-459689	9.213264E-8	NaN
321	1.000000	0.672484	7.36821e+06	-54689.1	955.818	-29743.3	0.000000	0.000000	6.672995	-0.103390	NaN	0.000000	0.001682	0.001713	28.0787	0.101844	0.002107	48.3358	-147.932	15.4959	-0.057486	0.671138	-0.428617	-0.429963	-0.103390	48.3358	-0.427012	-323429	3.196688E-7	NaN
321	1.000000	0.682512	7.36821e+06	-54689.1	955.819	-29743.3	0.000000	0.000000	6.683026	-0.023420	NaN	0.000000	0.001685	0.001711	28.0783	0.030264	0.001956	15.4755	-170.158	-164.191	-0.054587	0.681196	-0.418589	-0.419904	-0.023420	15.4755	-0.417454	-236750	9.892239E-8	NaN
321	1.000000	0.692513	7.36821e+06	-54689.1	955.818	-29743.3	0.000000	0.000000	6.693028	-0.025576	NaN	0.000000	0.001655	0.001695	28.0788	0.015331	0.001951	7.858590	-2.219377	14.3108	-0.121928	0.691203	-0.408587	-0.409898	-0.025576	7.858590	-0.406146	-163519	1.564092E-7	NaN
321	1.000000	0.702526	7.36821e+06	-54689.1	955.819	-29743.3	0.000000	0.000000	6.703040	-0.021676	NaN	0.000000	0.001608	0.001734	28.0784	0.042564	0.001894	22.471	89.6042	-160.861	-0.073752	0.701203	-0.398575	-0.399897	-0.021676	22.471	-0.397851	-124549	1.740397E-7	NaN
321	1.000000	0.712511	7.36821e+06	-54689.1	955.818	-29743.3	0.000000	0.000000	6.713024	-0.064032	NaN	0.000000	0.001606	0.001679	28.0784	0.092439	0.002078	44.48	-33.4226	13.9952	-0.045008	0.711140	-0.388589	-0.389960	-0.064032	44.48	-0.387509	-88618.9	7.225519E-7	NaN
321	1.000000	0.722519	7.36821e+06	-54689.1	955.818	-29743.3	0.000000	0.000000	6.723033	-0.037320	NaN	0.000000	0.001638	0.001702	28.0785	0.035006	0.001896	18.4591	-45.0777	-164.386	-0.079507	0.721173	-0.378581	-0.379927	-0.037320	18.4591	-0.377065	-62769	5.945592E-7	NaN
321	1.000000	0.732542	7.36821e+06	-54689.1	955.818	-29743.3	0.000000	0.000000	6.733057	-0.001310	NaN	0.000000	0.001686	0.001741	28.0786	0.131270	0.001963	66.8637	41.1585	14.7333	-0.019651	0.731117	-0.368559	-0.369983	-0.001310	66.8637	-0.368544	-47331.6	2.766837E-8	NaN
321	1.000000	0.742554	7.36821e+06	-54689.1	955.818	-29743.3	0.000000	0.000000	6.743066	-0.088136	NaN	0.000000	0.001675	0.001707	28.0772	0.066433	0.002009	33.0754	-166.252	-165.069	-0.074451	0.741236	-0.358547	-0.359864	-0.088136	33.0754	-0.356548	-31762.2	2.774858E-6	NaN
321	1.000000	0.752550	7.36821e+06	-54689.1	955.818	-29743.3	0.000000	0.000000	6.753066	0.036290	NaN	0.000000	0.001684	0.001730	28.0771	0.015546	0.001926	8.070395	-41.4056	15.0283	-0.043079	0.751182	-0.348551	-0.349918	0.036290	8.070395	-0.351923	-27221.1	-1.333170E-6	NaN
321	1.000000	0.762542	7.36821e+06	-54689.1	955.819	-29743.3	0.000000	0.000000	6.763055	-0.053804	NaN	0.000000	0.001691	0.001748	28.0775	0.092205	0.001984	46.4728	7.036831	-162.74	-0.048627	0.761180	-0.338558	-0.339920	-0.053804	46.4728	-0.337690	-16899	3.183852E-6	NaN
321	1.000000	0.772542	7.36821e+06	-54689.1	955.819	-29743.3	0.000000	0.000000	6.773054	-0.083574	NaN	0.000000	0.001627	0.001746	28.0776	0.067441	0.001976	34.1318	-85.5896	16.0973	-0.055463	0.771173	-0.328558	-0.329928	-0.083574	34.1318	-0.326722	-11678.9	7.155973E-6	NaN
321	1.000000	0.782513	7.36821e+06	-54689.1	955.819	-29743.3	0.000000	0.000000	6.783027	-0.033671	NaN	0.000000	0.001653	0.001759	28.0774	0.043665	0.001959	22.2871	70.8524	-166.236	-0.051033	0.781179	-0.318587	-0.319921	-0.033671	22.2871	-0.317454	-8533.73	3.945619E-6	NaN
321	1.000000	0.792555	7.36821e+06	-54689.1	955.819	-29743.3	0.000000	0.000000	6.793072	0.022605	NaN	0.000000	0.001665	0.001730	28.0773	0.045230	0.001891	23.9131	-110.776	13.3504	0.040988	0.791180	-0.308545	-0.309920	0.022605	23.9131	-0.309254	-6456.7	-3.500941E-6	NaN
321	1.000000	0.802544	7.36821e+06	-54689.1	955.818	-29743.3	0.000000	0.000000	6.803058	-0.031104	NaN	0.000000	0.001668	0.001765	28.0776	0.019642	0.001990	9.867722	-99.5099	-163.297	-0.010094	0.801287	-0.298557	-0.299813	-0.031104	9.867722	-0.296193	-4129.44	7.532160E-6	NaN
321	1.000000	0.812554	7.36821e+06	-54689.1	955.819	-29743.3	0.000000	0.000000	6.813066	-0.081946	NaN	0.000000	0.001651	0.001738	28.0775	0.065722	0.002167	30.334	-159.554	15.7681	-0.177841	0.811234	-0.288546	-0.289866	-0.081946	30.334	-0.286520	-2958.75	2.769605E-5	NaN
321	1.000000	0.822569	7.36821e+06	-54689.1	955.818	-29743.3	0.000000	0.000000	6.823080	-0.101608	NaN	0.000000	0.001671	0.001723	28.0773	0.050989	0.001914	26.638	2.836260	-161.906	-0.096016	0.821202	-0.278531	-0.279898	-0.101608	26.638	-0.275671	-2030.26	5.004666E-5	NaN
321	1.000000	0.832575	7.36821e+06	-54689.1	955.818	-29743.3	0.000000	0.000000	6.833090	-0.008759	NaN	0.000000	0.001680	0.001709	28.0774	0.123045	0.002021	60.8859	90.2387	15.6911	-0.011942	0.831191	-0.268525	-0.269910	-0.008759	60.8859	-0.268417	-1575.7	5.558556E-6	NaN
321	1.000000	0.842576	7.36821e+06	-54689.1	955.819	-29743.3	0.000000	0.000000	6.843088	-0.070816	NaN	0.000000	0.001644	0.001769	28.0774	0.046375	0.001986	23.3565	-95.5263	-163.597	-0.057590	0.841244	-0.258524	-0.259856	-0.070816	23.3565	-0.256251	-1026.49	6.898801E-5	NaN
321	1.000000	0.852575	7.36821e+06	-54689.1	955.818	-29743.3	0.000000	0.000000	6.853089	-0.054149	NaN	0.000000	0.001676	0.001752	28.0772	0.106842	0.001923	55.573	83.4887	13.1435	0.007367	0.851198	-0.248525	-0.249902	-0.054149	55.573	-0.247794	-760.004	7.124825E-5	NaN
321	1.000000	0.862587	7.36821e+06	-54689.1	955.818	-29743.3	0.000000	0.000000	6.863098	-0.094854	NaN	0.000000	0.001650	0.001740	28.0771	0.153969	0.001926	79.938	-179.016	-165.738	-0.067185	0.861278	-0.238513	-0.239822	-0.094854	79.938	-0.237623	-527.699	0.000180	NaN
321	1.000000	0.872595	7.36821e+06	-54689.1	955.819	-29743.3	0.000000	0.000000	6.873107	-0.064346	NaN	0.000000	0.001659	0.001806	28.0782	0.041541	0.002020	20.5647	-155.313	13.8475	-0.092691	0.871226	-0.228506	-0.229875	-0.064346	20.5647	-0.226159	-348.12	0.000185	NaN
321	1.000000	0.882597	7.36821e+06	-54689.1	955.819	-29743.3	0.000000	0.000000	6.883108	-0.108007	NaN	0.000000	0.001626	0.001729	28.0785	0.108288	0.001999	54.1815	-89.2884	-168.534	0.012025	0.881268	-0.218503	-0.219832	-0.108007	54.1815	-0.217008	-248.755	0.000434	NaN
321	1.000000	0.892586	7.36821e+06	-54689.1	955.819	-29743.3	0.000000	0.000000	6.893097	-0.101385	NaN	0.000000	0.001643	0.001744	28.0783	0.052529	0.001987	26.4422	-23.6466	15.9076	-0.112054	0.891172	-0.208514	-0.209928	-0.101385	26.4422	-0.205639	-162.918	0.000622	NaN
321	1.000000	0.902582	7.36821e+06	-54689.1	955.819	-29743.3	0.000000	0.000000	6.903094	-0.071427	NaN	0.000000	0.001661	0.001717	28.0782	0.084883	0.002060	41.197	-109.334	-163.674	-0.086663	0.901316	-0.198519	-0.199784	-0.071427	41.197	-0.197218	-118.545	0.000603	NaN
321	1.000000	0.912612	7.36821e+06	-54689.1	955.819	-29743.3	0.000000	0.000000	6.913127	8.159530E-8	NaN	0.000000	0.001669	0.001727	28.0782	0.143527	0.002112	67.9531	144.049	16.5844	-0.007873	0.911227	-0.188488	-0.189874	8.159530E-8	67.9531	-0.188488	-84.8676	-9.614419E-10	NaN
321	1.000000	0.922615	7.36821e+06	-54689.1	955.818	-29743.3	0.000000	0.000000	6.923127	-0.077730	NaN	0.000000	0.001684	0.001745	28.0783	0.162590	0.001980	82.1011	-81.2736	-163.027	-0.068758	0.921261	-0.178486	-0.179839	-0.077730	82.1011	-0.177776	-55.9166	0.001390	NaN
321	1.000000	0.932590	7.36821e+06	-54689.1	955.818	-29743.3	0.000000	0.000000	6.933105	0.005319	NaN	0.000000	0.001686	0.001722	28.0782	0.092344	0.002057	44.893	119.196	17.9699	0.005996	0.931202	-0.168511	-0.169898	0.005319	44.893	-0.168599	-38.8379	-0.000137	NaN
321	1.000000	0.942616	7.36821e+06	-54689.1	955.818	-29743.3	0.000000	0.000000	6.943131	-0.011775	NaN	0.000000	0.001673	0.001752	28.0785	0.037702	0.001821	20.7016	80.425	-166.221	-0.014956	0.941276	-0.158484	-0.159825	-0.011775	20.7016	-0.158057	-25.3152	0.000465	NaN
321	1.000000	0.952613	7.36821e+06	-54689.1	955.819	-29743.3	0.000000	0.000000	6.953125	-0.096015	NaN	0.000000	0.001667	0.001736	28.0785	0.079652	0.002024	39.3589	-15.513	14.921	-0.032991	0.951284	-0.148487	-0.149816	-0.096015	39.3589	-0.146658	-15.7311	0.006103	NaN
321	1.000000	0.962600	7.36821e+06	-54689.1	955.819	-29743.3	0.000000	0.000000	6.963113	-0.057855	NaN	0.000000	0.001682	0.001736	28.0784	0.092913	0.002055	45.2033	157.942	-166.7	-0.082252	0.961343	-0.138500	-0.139757	-0.057855	45.2033	-0.137540	-10.6313	0.005442	NaN
321	1.000000	0.972619	7.36821e+06	-54689.1	955.818	-29743.3	0.000000	0.000000	6.973132	-0.040132	NaN	0.000000	0.001622	0.001720	28.0782	0.039619	0.001937	20.4495	80.0987	14.3634	0.016465	0.971233	-0.128482	-0.129868	-0.040132	20.4495	-0.127010	-6.662087	0.006024	NaN
321	1.000000	0.982651	7.36821e+06	-54689.1	955.817	-29743.3	0.000000	0.000000	6.983163	-0.071336	NaN	0.000000	0.001576	0.001729	28.0782	0.040641	0.001993	20.3931	-19.6093	-163.847	-0.009007	0.981310	-0.118449	-0.119791	-0.071336	20.3931	-0.115826	-3.972840	0.017956	NaN
321	1.000000	0.992638	7.36821e+06	-54689.1	955.818	-29743.3	0.000000	0.000000	6.993151	-0.054107	NaN	0.000000	0.001586	0.001749	28.0783	0.066212	0.001876	35.2926	-131.797	13.2168	-0.097905	0.991316	-0.108462	-0.109784	-0.054107	35.2926	-0.107312	-2.635376	0.020531	NaN
321	1.000000	1.002644	7.36821e+06	-54689.1	955.817	-29743.3	0.000000	0.000000	7.003157	-0.071327	NaN	0.000000	0.001577	0.001708	28.0782	0.046672	0.002025	23.0468	53.3762	-162.596	-0.051060	1.001348	-0.098456	-0.099752	-0.071327	23.0468	-0.096135	-1.496912	0.047650	NaN
321	1.000000	1.012630	7.36821e+06	-54689.1	955.818	-29743.3	0.000000	0.000000	7.013142	-0.083608	NaN	0.000000	0.001593	0.001702	28.0768	0.063596	0.002086	30.4828	112.253	19.2914	-0.096677	1.011298	-0.088471	-0.089803	-0.083608	30.4828	-0.086414	-0.888669	0.094082	NaN
321	1.000000	1.022663	7.36821e+06	-54689.1	955.818	-29743.3	0.000000	0.000000	7.023179	-0.006339	NaN	0.000000	0.001576	0.001736	28.0771	0.052621	0.001957	26.8918	-140.926	-164.453	-0.010799	1.021275	-0.078437	-0.079825	-0.006339	26.8918	-0.078260	-0.559658	0.011326	NaN
321	1.000000	1.032665	7.36821e+06	-54689.1	955.819	-29743.3	0.000000	0.000000	7.033173	-0.173556	NaN	0.000000	0.001630	0.001708	28.0769	0.036181	0.001967	18.3914	-42.1436	12.9975	-0.082500	1.031299	-0.068435	-0.069802	-0.173556	18.3914	-0.061358	-0.196915	0.881376	NaN
321	1.000000	1.042656	7.36821e+06	-54689.1	955.817	-29743.3	0.000000	0.000000	7.043168	-0.067415	NaN	0.000000	0.001604	0.001759	28.0771	0.034465	0.001910	18.0397	165.331	-161.205	-0.026190	1.041289	-0.058444	-0.059812	-0.067415	18.0397	-0.055642	-0.134516	0.501170	NaN
321	1.000000	1.052673	7.36821e+06	-54689.1	955.817	-29743.3	0.000000	0.000000	7.053187	-0.034805	NaN	0.000000	0.001604	0.001738	28.077	0.075417	0.002014	37.4502	43.9878	13.4726	-0.115938	1.051304	-0.048427	-0.049796	-0.034805	37.4502	-0.047730	-0.077865	0.446991	NaN
321	1.000000	1.062672	7.36821e+06	-54689.1	955.818	-29743.3	0.000000	0.000000	7.063184	-0.072659	NaN	0.000000	0.001615	0.001742	28.0771	0.044880	0.002125	21.1189	66.2953	-165.735	-0.041769	1.061336	-0.038429	-0.039764	-0.072659	21.1189	-0.035848	-0.033928	2.141569	NaN
321	1.000000	1.072674	7.36821e+06	-54689.1	955.818	-29743.3	0.000000	0.000000	7.073187	-0.057757	NaN	0.000000	0.001632	0.001736	28.077	0.134168	0.002083	64.4159	113.94	13.9159	-0.104880	1.071322	-0.028426	-0.029779	-0.057757	64.4159	-0.027754	-0.019966	2.892708	NaN
321	1.000000	1.082657	7.36821e+06	-54689.1	955.818	-29743.3	0.000000	0.000000	7.083171	-0.040400	NaN	0.000000	0.001594	0.001723	28.077	0.080598	0.002050	39.3243	-81.9328	-163.573	-0.022919	1.081387	-0.018443	-0.019713	-0.040400	39.3243	-0.017673	-0.010946	3.690796	NaN
321	1.000000	1.092689	7.36821e+06	-54689.1	955.819	-29743.3	0.000000	0.000000	7.093202	-0.047247	NaN	0.000000	0.001591	0.001752	28.0769	0.088107	0.002129	41.381	-66.5005	15.9358	-0.036480	1.091328	-0.008412	-0.009772	-0.047247	41.381	-0.007555	-0.004970	9.506146	NaN
321	1.000000	1.102675	7.36821e+06	-54689.1	955.817	-29743.3	0.000000	0.000000	7.103215	0.604893	NaN	0.000000	0.001627	0.001696	28.0773	1.199123	0.002059	582.265	10.4643	-170.146	0.032200	1.101362	0.001574	0.000262	0.604893	582.265	0.000795	0.000604	1002.15	21653.2
321	2.000000	1.111690	7.36821e+06	-54689.1	955.817	-29743.3	0.000000	0.000000	7.112568	8.831091	NaN	0.000000	0.001630	0.001722	28.0769	9.076284	0.001553	5845.86	6.949448	9.617015	8.273975	1.111160	0.010589	0.010060	8.831091	5845.86	0.009456	0.008584	1028.83	57648.1
321	2.000000	1.114200	7.36821e+06	-54689.1	955.818	-29743.3	0.000000	0.000000	7.115241	12.7787	NaN	0.000000	0.001633	0.001689	28.0769	12.7876	0.001764	7251.07	3.870249	-169.764	13.1113	1.113975	0.013099	0.012874	12.7787	7251.07	0.011778	0.011225	1138.44	62529.8
321	2.000000	1.116692	7.36821e+06	-54689.1	955.818	-29743.3	0.000000	0.000000	7.117899	16.8176	NaN	0.000000	0.001616	0.001724	28.0769	15.1432	0.001810	8367.43	6.612158	7.368072	15.8692	1.116289	0.015592	0.015189	16.8176	8367.43	0.014084	0.014084	1194.11	64417.8
321	2.000000	1.119166	7.36821e+06	-54689.1	955.82	-29743.3	0.000000	0.000000	7.120523	20.4607	NaN	0.000000	0.001616	0.001759	28.077	17.4442	0.001772	9845.7	10.8261	-179.512	20.4639	1.118877	0.018066	0.017777	20.4607	9845.7	0.016507	0.017348	1179.43	68296.2
321	2.000000	1.121675	7.36821e+06	-54689.1	955.818	-29743.3	0.000000	0.000000	7.123143	23.149	NaN	0.000000	0.001619	0.001754	28.0782	19.5913	0.001713	11436	7.301441	3.019528	22.4323	1.121285	0.020575	0.020184	23.149	11436	0.019057	0.021082	1098.06	71960.7
321	2.000000	1.124157	7.36821e+06	-54689.1	955.818	-29743.3	0.000000	0.000000	7.125840	28.3883	NaN	0.000000	0.001618	0.001764	28.0781	22.5189	0.001796	12535.3	4.329638	-174.773	28.2656	1.123828	0.023057	0.022728	28.3883	12535.3	0.021358	0.024722	1148.31	72839.4
321	2.000000	1.126661	7.36821e+06	-54689.1	955.818	-29743.3	0.000000	0.000000	7.128624	35.186	NaN	0.000000	0.001610	0.001771	28.0784	25.1228	0.001888	13304.5	8.867498	1.436928	35.2617	1.126190	0.025561	0.025090	35.186	13304.5	0.023578	0.028479	1235.53	72029.6
321	2.000000	1.129106	7.36821e+06	-54689.1	955.817	-29743.3	0.000000	0.000000	7.131231	39.1434	NaN	0.000000	0.001607	0.001705	28.0782	27.1746	0.001722	15785.1	6.499671	-179.267	38.244	1.128817	0.028005	0.027717	39.1434	15785.1	0.026145	0.033133	1181.42	79230.5
321	2.000000	1.131590	7.36821e+06	-54689.1	955.818	-29743.3	0.000000	0.000000	7.133985	45.6837	NaN	0.000000	0.001616	0.001699	28.0783	30.3972	0.001872	16239.7	5.383615	1.822666	44.6954	1.131233	0.030490	0.030132	45.6837	16239.7	0.028380	0.037453	1219.76	76667
321	2.000000	1.134108	7.36821e+06	-54689.1	955.818	-29743.3	0.000000	0.000000	7.136832	53.6886	NaN	0.000000	0.001612	0.001718	28.0782	33.0807	0.001817	18207	3.128240	-177.927	53.3821	1.133839	0.033008	0.032739	53.6886	18207	0.030796	0.042410	1265.95	80775.3
321	2.000000	1.136586	7.36821e+06	-54689.1	955.817	-29743.3	0.000000	0.000000	7.139621	61.2585	NaN	0.000000	0.001601	0.001731	28.0783	34.3801	0.001785	19258.2	5.510929	0.555457	58.4478	1.136282	0.035485	0.035181	61.2585	19258.2	0.033100	0.047414	1292	80804.8
321	2.000000	1.139061	7.36821e+06	-54689.1	955.817	-29743.3	0.000000	0.000000	7.142330	66.926	NaN	0.000000	0.001564	0.001736	28.0788	36.7017	0.001809	20293	4.697580	179.734	64.563	1.138754	0.037961	0.037654	66.926	20293	0.035487	0.052887	1265.45	80620.1
321	2.000000	1.141568	7.36821e+06	-54689.1	955.818	-29743.3	0.000000	0.000000	7.145132	74.1046	NaN	0.000000	0.001597	0.001719	28.0781	39.7283	0.001728	22988.5	4.508668	-0.762283	71.8267	1.141163	0.040468	0.040063	74.1046	22988.5	0.038050	0.059087	1254.17	86405.2
321	2.000000	1.144114	7.36821e+06	-54689.1	955.818	-29743.3	0.000000	0.000000	7.148041	82.9444	NaN	0.000000	0.001619	0.001700	28.0782	43.4303	0.001814	23939.4	8.635767	174.514	83.5238	1.143823	0.043014	0.042723	82.9444	23939.4	0.040415	0.065105	1274	85719.1
321	2.000000	1.146580	7.36821e+06	-54689.1	955.819	-29743.3	0.000000	0.000000	7.150986	94.5794	NaN	0.000000	0.001602	0.001719	28.0783	44.1258	0.001774	24877.7	9.156737	-5.052672	91.7685	1.146159	0.045480	0.045059	94.5794	24877.7	0.042629	0.070998	1332.15	85302.5
321	2.000000	1.149065	7.36821e+06	-54689.1	955.818	-29743.3	0.000000	0.000000	7.153877	104.46	NaN	0.000000	0.001577	0.001729	28.0785	46.5083	0.001747	26625.5	4.073609	177.966	102.583	1.148790	0.047965	0.047690	104.46	26625.5	0.045022	0.077650	1345.26	87297.2
321	2.000000	1.151619	7.36821e+06	-54689.1	955.819	-29743.3	0.000000	0.000000	7.156757	112.38	NaN	0.000000	0.001602	0.001715	28.0783	49.9389	0.001775	28133.9	5.595823	-3.985004	112.421	1.151207	0.050518	0.050107	112.38	28133.9	0.047522	0.084909	1323.53	88211.8
321	2.000000	1.154042	7.36821e+06	-54689.1	955.817	-29743.3	0.000000	0.000000	7.159750	126.241	NaN	0.000000	0.001613	0.001709	28.0771	52.6781	0.001885	27950.5	5.600687	176.524	124.379	1.153772	0.052941	0.052671	126.241	27950.5	0.049554	0.091040	1386.66	84634.6
321	2.000000	1.156559	7.36821e+06	-54689.1	955.818	-29743.3	0.000000	0.000000	7.162753	138.051	NaN	0.000000	0.001605	0.001715	28.0772	54.5548	0.001896	28781.1	6.702915	-3.893998	134.213	1.156101	0.055459	0.055001	138.051	28781.1	0.051861	0.098253	1405.05	83889.2
321	2.000000	1.159084	7.36821e+06	-54689.1	955.819	-29743.3	0.000000	0.000000	7.165601	145.904	NaN	0.000000	0.001639	0.001701	28.0771	56.2251	0.001744	32234.5	5.065591	175.738	145.38	1.158767	0.057983	0.057667	145.904	32234.5	0.054589	0.107122	1362.03	89981.7
321	2.000000	1.161591	7.36821e+06	-54689.1	955.818	-29743.3	0.000000	0.000000	7.168597	157.772	NaN	0.000000	0.001580	0.001695	28.077	59.2429	0.001813	32682.7	3.152607	-2.168005	156.949	1.161142	0.060491	0.060041	157.772	32682.7	0.056871	0.114826	1374.01	88119.3
321	2.000000	1.164095	7.36821e+06	-54689.1	955.818	-29743.3	0.000000	0.000000	7.171379	164.544	NaN	0.000000	0.001600	0.001684	28.0769	62.5564	0.001793	34881.5	6.574761	173.277	166.648	1.163808	0.062995	0.062707	164.544	34881.5	0.059457	0.123868	1328.38	90550.1
321	2.000000	1.166558	7.36821e+06	-54689.1	955.819	-29743.3	0.000000	0.000000	7.174524	181.145	NaN	0.000000	0.001636	0.001719	28.0772	64.527	0.001826	35329.6	8.314715	-7.502934	177.833	1.166133	0.065457	0.065033	181.145	35329.6	0.061612	0.131652	1375.95	88960.8
321	2.000000	1.168985	7.36821e+06	-54689.1	955.818	-29743.3	0.000000	0.000000	7.177139	185.688	NaN	0.000000	0.001641	0.001723	28.0773	67.0339	0.001870	35850.4	7.862942	171.894	181.468	1.168784	0.067885	0.067684	185.688	35850.4	0.064000	0.140542	1321.23	87370.5
321	2.000000	1.171508	7.36821e+06	-54689.1	955.82	-29743.3	0.000000	0.000000	7.180290	200.965	NaN	0.000000	0.001625	0.001744	28.0774	68.0806	0.001704	39942.2	4.302221	-5.656872	196.921	1.171267	0.070407	0.070167	200.965	39942.2	0.066634	0.150665	1333.85	94015.3
321	2.000000	1.174010	7.36821e+06	-54689.1	955.819	-29743.3	0.000000	0.000000	7.183354	214.625	NaN	0.000000	0.001673	0.001727	28.077	71.6286	0.001906	37584.5	1.956317	177.436	211.021	1.173748	0.072910	0.072648	214.625	37584.5	0.068627	0.158547	1353.7	86239
321	2.000000	1.176483	7.36821e+06	-54689.1	955.819	-29743.3	0.000000	0.000000	7.186494	230.849	NaN	0.000000	0.001651	0.001705	28.0775	73.1518	0.001820	40200.8	5.228465	-6.531617	224.869	1.176205	0.075383	0.075105	230.849	40200.8	0.071076	0.168492	1370.09	89478.3
321	2.000000	1.179022	7.36821e+06	-54689.1	955.82	-29743.3	0.000000	0.000000	7.189620	245.102	NaN	0.000000	0.001694	0.001747	28.077	74.702	0.001796	41596	5.596958	173.66	242.571	1.178635	0.077922	0.077535	245.102	41596	0.073502	0.178627	1372.15	89918.9
321	2.000000	1.181573	7.36821e+06	-54689.1	955.819	-29743.3	0.000000	0.000000	7.192608	255.729	NaN	0.000000	0.001664	0.001732	28.0773	78.0302	0.001835	42531.7	4.044225	-5.562532	255.189	1.181214	0.080473	0.080113	255.729	42531.7	0.075963	0.189188	1351.72	89338.7
321	2.000000	1.184007	7.36821e+06	-54689.1	955.819	-29743.3	0.000000	0.000000	7.195819	274.616	NaN	0.000000	0.001660	0.001747	28.0769	79.3864	0.001830	43388.4	2.545482	176.003	272.189	1.183777	0.082907	0.082677	274.616	43388.4	0.078160	0.198856	1380.98	88895.1
321	2.000000	1.186542	7.36821e+06	-54689.1	955.819	-29743.3	0.000000	0.000000	7.198920	288.369	NaN	0.000000	0.001686	0.001716	28.0772	81.8955	0.001829	44779.1	7.969658	-9.410793	285.685	1.186261	0.085442	0.085161	288.369	44779.1	0.080612	0.209916	1373.73	89294.8
321	2.000000	1.189025	7.36821e+06	-54689.1	955.819	-29743.3	0.000000	0.000000	7.202206	307.894	NaN	0.000000	0.001715	0.001700	28.0781	84.4072	0.001836	45972.4	5.319062	172.776	307.899	1.188694	0.087925	0.087594	307.894	45972.4	0.082902	0.220494	1396.39	89448.4
321	2.000000	1.191380	7.36821e+06	-54689.1	955.819	-29743.3	0.000000	0.000000	7.205294	325.719	NaN	0.000000	0.001661	0.001704	28.0784	86.532	0.001801	48043.2	3.134885	-5.165326	314.718	1.191042	0.090280	0.089942	325.719	48043.2	0.085195	0.231333	1408.01	91261.1
321	2.000000	1.193965	7.36821e+06	-54689.1	955.82	-29743.3	0.000000	0.000000	7.208560	342.262	NaN	0.000000	0.001625	0.001718	28.0781	91.7821	0.001859	49376.9	7.615281	169.366	337.611	1.193803	0.092865	0.092703	342.262	49376.9	0.087666	0.243285	1406.84	91461.8
321	2.000000	1.196449	7.36821e+06	-54689.1	955.82	-29743.3	0.000000	0.000000	7.211699	358.205	NaN	0.000000	0.001678	0.001706	28.0784	92.3151	0.001857	49700.7	5.111925	-6.988964	351.704	1.196042	0.095349	0.094942	358.205	49700.7	0.089943	0.254547	1407.23	90002
321	2.000000	1.199018	7.36821e+06	-54689.1	955.821	-29743.3	0.000000	0.000000	7.215333	384.086	NaN	0.000000	0.001655	0.001717	28.0781	93.8629	0.001786	52567	5.073642	172.509	383.904	1.198648	0.097917	0.097548	384.086	52567	0.092437	0.267154	1437.69	92919.3
321	2.000000	1.201428	7.36821e+06	-54689.1	955.819	-29743.3	0.000000	0.000000	7.218074	392.138	NaN	0.000000	0.001660	0.001633	28.078	97.7517	0.001882	51930.7	5.059933	-8.233882	385.033	1.201073	0.100328	0.099972	392.138	51930.7	0.094664	0.278652	1407.27	89880.7
321	2.000000	1.203869	7.36821e+06	-54689.1	955.82	-29743.3	0.000000	0.000000	7.221692	420.73	NaN	0.000000	0.001670	0.001666	28.0782	99.1795	0.001842	53833.6	3.876565	173.178	412.344	1.203513	0.102769	0.102413	420.73	53833.6	0.096908	0.290462	1448.48	91260.3
321	2.000000	1.206501	7.36821e+06	-54689.1	955.82	-29743.3	0.000000	0.000000	7.225052	438.465	NaN	0.000000	0.001690	0.001688	28.0782	101.174	0.001809	55925.3	7.794328	-10.4676	433.758	1.206237	0.105400	0.105136	438.465	55925.3	0.099520	0.304507	1439.92	92594
321	2.000000	1.208958	7.36821e+06	-54689.1	955.82	-29743.3	0.000000	0.000000	7.228649	466.154	NaN	0.000000	0.001643	0.001670	28.0781	103.077	0.001831	56308.1	1.127646	175.871	462.079	1.208643	0.107858	0.107543	466.154	56308.1	0.101649	0.316179	1474.33	91490.8
321	2.000000	1.210080	7.36821e+06	-54689.1	955.82	-29743.3	0.000000	0.000000	7.230151	475.402	NaN	0.000000	0.001644	0.001664	28.0782	105.1	0.001706	61609.8	4.088219	172.112	476.231	1.209653	0.108980	0.108552	475.402	61609.8	0.103192	0.324771	1463.81	98772.1