File: remote_trans/data/nanoindenter/0828-1/data/Data_2025-08-06,11h17m57s/2025-07-22_16-23-58_1_540.txt
2025-07-22, 16:23:58, 1
Index	Phase	Displacement	Time	Pos X	Pos Y	Pos Z	Rot A	Rot B	Piezo Z	Force A	Force B	Gripper	Voltage A	Voltage B	Temperature	Amplitude force	Amplitude pos	Stiffness	Phase shift	Phase excitation	Force A raw	Displacement raw	HMax	HMax raw	Real Force	Real Stiffness	Contact Depth	Area	Hardness	Reduced Mod.
[#]	[#]	[um]	[s]	[um]	[um]	[um]	[m°]	[m°]	[um]	[uN]	[uN]	[V]	[V]	[V]	[°C]	[uN]	[um]	[N/m]	[°]	[°]	[uN]	[um]	[um]	[um]	[uN]	[N/m]	[um]	[um^2]	[MPa]	[MPa]
540	1.000000	0.002264	7.37033e+06	-50089.1	1005.82	-29756.9	0.000000	0.000000	6.002798	-0.082282	NaN	0.000000	0.001599	0.001805	28.0822	0.168456	0.001077	156.407	110.961	-168.049	-0.136307	0.001057	-1.089995	-1.091202	-0.082282	156.407	-1.089601	-3.634530E+14	2.263896E-16	NaN
540	1.000000	0.012356	7.37033e+06	-50089.1	1005.82	-29756.9	0.000000	0.000000	6.012892	-0.042033	NaN	0.000000	0.001603	0.001845	28.0819	0.073874	0.001372	53.849	27.0591	21.3461	-0.038523	0.010868	-1.079903	-1.081391	-0.042033	53.849	-1.079318	-2.644557E+14	1.589420E-16	NaN
540	1.000000	0.022219	7.37033e+06	-50089.1	1005.82	-29756.9	0.000000	0.000000	6.022754	-0.066329	NaN	0.000000	0.001608	0.001849	28.0818	0.061533	0.001639	37.5532	163.934	-164.809	-0.075954	0.020965	-1.070040	-1.071294	-0.066329	37.5532	-1.068715	-1.905158E+14	3.481544E-16	NaN
540	1.000000	0.032223	7.37033e+06	-50089.1	1005.82	-29756.9	0.000000	0.000000	6.032757	-0.090031	NaN	0.000000	0.001666	0.001850	28.0817	0.113825	0.001964	57.9662	-114.451	16.8452	-0.086622	0.030914	-1.060037	-1.061345	-0.090031	57.9662	-1.058872	-1.404938E+14	6.408219E-16	NaN
540	1.000000	0.042226	7.37033e+06	-50089.1	1005.82	-29756.9	0.000000	0.000000	6.042757	-0.146543	NaN	0.000000	0.001611	0.001799	28.0825	0.083833	0.001935	43.3133	-169.307	-162.977	-0.184907	0.040903	-1.050033	-1.051356	-0.146543	43.3133	-1.047496	-9.879869E+13	1.483248E-15	NaN
540	1.000000	0.052217	7.37033e+06	-50089.1	1005.82	-29756.9	0.000000	0.000000	6.052754	-0.015121	NaN	0.000000	0.001626	0.001839	28.0819	0.148714	0.001868	79.601	-136.61	15.1008	-0.039228	0.050849	-1.040042	-1.041410	-0.015121	79.601	-1.039900	-7.809374E+13	1.936291E-16	NaN
540	1.000000	0.062222	7.37033e+06	-50089.1	1005.82	-29756.9	0.000000	0.000000	6.062756	-0.106942	NaN	0.000000	0.001599	0.001779	28.0823	0.112029	0.001969	56.8948	-118.056	-165.009	-0.076359	0.060958	-1.030037	-1.031301	-0.106942	56.8948	-1.028627	-5.508243E+13	1.941486E-15	NaN
540	1.000000	0.072189	7.37033e+06	-50089.1	1005.82	-29756.9	0.000000	0.000000	6.072726	-0.011378	NaN	0.000000	0.001627	0.001786	28.0833	0.117037	0.001966	59.5326	138.717	19.0351	0.052441	0.070918	-1.020070	-1.021341	-0.011378	59.5326	-1.019927	-4.206941E+13	2.704650E-16	NaN
540	1.000000	0.082216	7.37033e+06	-50089.1	1005.82	-29756.9	0.000000	0.000000	6.082750	-0.092277	NaN	0.000000	0.001619	0.001806	28.0838	0.061763	0.002068	29.8693	169.383	-163.246	-0.077401	0.080926	-1.010043	-1.011333	-0.092277	29.8693	-1.007726	-2.882564E+13	3.201209E-15	NaN
540	1.000000	0.092208	7.37033e+06	-50089.1	1005.82	-29756.9	0.000000	0.000000	6.092743	-0.068986	NaN	0.000000	0.001623	0.001812	28.0831	0.044246	0.001980	22.349	-157.775	15.0351	-0.026916	0.090887	-1.000051	-1.001372	-0.068986	22.349	-0.997736	-2.114897E+13	3.261907E-15	NaN
540	1.000000	0.102229	7.37033e+06	-50089.1	1005.82	-29756.9	0.000000	0.000000	6.102768	0.013880	NaN	0.000000	0.001603	0.001832	28.0832	0.026530	0.001933	13.7278	-91.1602	-168.815	0.055155	0.100961	-0.990030	-0.991298	0.013880	13.7278	-0.990788	-1.705003E+13	-8.140676E-16	NaN
540	1.000000	0.112251	7.37033e+06	-50089.1	1005.82	-29756.9	0.000000	0.000000	6.112788	-0.015175	NaN	0.000000	0.001636	0.001846	28.0831	0.035388	0.001983	17.8473	-103.942	14.7044	-0.086977	0.110921	-0.980008	-0.981338	-0.015175	17.8473	-0.979370	-1.196537E+13	1.268262E-15	NaN
540	1.000000	0.122241	7.37033e+06	-50089.1	1005.82	-29756.9	0.000000	0.000000	6.122776	-0.056152	NaN	0.000000	0.001650	0.001843	28.0832	0.038458	0.001848	20.8121	-28.0945	-166.239	-0.057224	0.120919	-0.970018	-0.971340	-0.056152	20.8121	-0.967995	-8.406910E+12	6.679223E-15	NaN
540	1.000000	0.132234	7.37033e+06	-50089.1	1005.82	-29756.9	0.000000	0.000000	6.132770	-0.033458	NaN	0.000000	0.001644	0.001880	28.083	0.111036	0.002173	51.096	3.289017	16.9604	-0.109689	0.130881	-0.960026	-0.961378	-0.033458	51.096	-0.959535	-6.465379E+12	5.174875E-15	NaN
540	1.000000	0.142262	7.37033e+06	-50089.1	1005.82	-29756.9	0.000000	0.000000	6.142797	-0.051762	NaN	0.000000	0.001611	0.001841	28.0829	0.032353	0.002138	15.1307	42.4955	-167.155	-0.117238	0.140937	-0.949998	-0.951322	-0.051762	15.1307	-0.947432	-4.440075E+12	1.165789E-14	NaN
540	1.000000	0.152258	7.37033e+06	-50089.1	1005.82	-29756.9	0.000000	0.000000	6.152793	-0.067339	NaN	0.000000	0.001629	0.001783	28.0832	0.040987	0.002090	19.6156	-72.3523	14.5865	-0.073701	0.150866	-0.940001	-0.941393	-0.067339	19.6156	-0.937427	-3.254014E+12	2.069404E-14	NaN
540	1.000000	0.162273	7.37033e+06	-50089.1	1005.82	-29756.9	0.000000	0.000000	6.162809	-0.046056	NaN	0.000000	0.001615	0.001826	28.0832	0.089267	0.001899	47.0131	105.255	-162.745	-0.047394	0.160948	-0.929986	-0.931311	-0.046056	47.0131	-0.929251	-2.524011E+12	1.824705E-14	NaN
540	1.000000	0.172255	7.37033e+06	-50089.1	1005.82	-29756.9	0.000000	0.000000	6.172792	-0.027517	NaN	0.000000	0.001598	0.001809	28.0831	0.037800	0.001991	18.9826	33.0525	12.823	-0.032653	0.170929	-0.920004	-0.921330	-0.027517	18.9826	-0.918917	-1.830547E+12	1.503197E-14	NaN
540	1.000000	0.182272	7.37033e+06	-50089.1	1005.82	-29756.9	0.000000	0.000000	6.182807	-0.060099	NaN	0.000000	0.001605	0.001836	28.0831	0.036520	0.002037	17.932	-160.481	-162.716	-0.059327	0.180995	-0.909987	-0.911264	-0.060099	17.932	-0.907474	-1.282446E+12	4.686244E-14	NaN
540	1.000000	0.192296	7.37033e+06	-50089.1	1005.82	-29756.9	0.000000	0.000000	6.192836	0.047872	NaN	0.000000	0.001599	0.001789	28.0833	0.047592	0.001936	24.5883	-93.7426	16.8435	0.026889	0.190894	-0.899963	-0.901366	0.047872	24.5883	-0.901423	-1.062427E+12	-4.505926E-14	NaN
540	1.000000	0.202285	7.37033e+06	-50089.1	1005.82	-29756.9	0.000000	0.000000	6.202820	-0.078182	NaN	0.000000	0.001598	0.001792	28.0828	0.118696	0.002045	58.0333	123.608	-162.923	-0.070635	0.201040	-0.889974	-0.891220	-0.078182	58.0333	-0.888963	-7.209430E+11	1.084435E-13	NaN
540	1.000000	0.212252	7.37033e+06	-50089.1	1005.82	-29756.9	0.000000	0.000000	6.212785	-0.096451	NaN	0.000000	0.001686	0.001764	28.0817	0.036422	0.002104	17.3119	-120.973	12.783	-0.128715	0.210848	-0.880008	-0.881411	-0.096451	17.3119	-0.875829	-4.789572E+11	2.013779E-13	NaN
540	1.000000	0.222311	7.37033e+06	-50089.1	1005.82	-29756.9	0.000000	0.000000	6.222850	0.010160	NaN	0.000000	0.001597	0.001828	28.0819	0.093251	0.001929	48.3328	123.418	-164.298	0.042174	0.220945	-0.869948	-0.871314	0.010160	48.3328	-0.870105	-4.007459E+11	-2.535316E-14	NaN
540	1.000000	0.232290	7.37033e+06	-50089.1	1005.82	-29756.9	0.000000	0.000000	6.232827	-0.023457	NaN	0.000000	0.001597	0.001821	28.0818	0.137306	0.002002	68.592	-167.776	12.8881	-0.047612	0.230890	-0.859969	-0.861369	-0.023457	68.592	-0.859712	-2.898873E+11	8.091845E-14	NaN
540	1.000000	0.242306	7.37033e+06	-50089.1	1005.82	-29756.9	0.000000	0.000000	6.242842	-0.036359	NaN	0.000000	0.001615	0.001780	28.0816	0.025206	0.002042	12.3442	-116.159	-165.175	-0.018161	0.240992	-0.849953	-0.851268	-0.036359	12.3442	-0.847744	-1.996137E+11	1.821482E-13	NaN
540	1.000000	0.252279	7.37033e+06	-50089.1	1005.82	-29756.9	0.000000	0.000000	6.252818	0.031134	NaN	0.000000	0.001618	0.001763	28.0814	0.014379	0.002009	7.157083	-52.5634	16.066	-0.022794	0.250914	-0.839980	-0.841345	0.031134	7.157083	-0.843243	-1.734688E+11	-1.794815E-13	NaN
540	1.000000	0.262305	7.37033e+06	-50089.1	1005.82	-29756.9	0.000000	0.000000	6.262841	-0.042474	NaN	0.000000	0.001587	0.001771	28.0817	0.035823	0.001812	19.769	143.219	-163.823	0.019370	0.261006	-0.829954	-0.831253	-0.042474	19.769	-0.828342	-1.089721E+11	3.897650E-13	NaN
540	1.000000	0.272309	7.37033e+06	-50089.1	1005.82	-29756.9	0.000000	0.000000	6.272846	-0.006949	NaN	0.000000	0.001620	0.001806	28.0816	0.018275	0.001959	9.329129	161.906	14.966	-0.009507	0.270974	-0.819950	-0.821285	-0.006949	9.329129	-0.819392	-8.240685E+10	8.432906E-14	NaN
540	1.000000	0.282319	7.37033e+06	-50089.1	1005.82	-29756.9	0.000000	0.000000	6.282855	-0.061870	NaN	0.000000	0.001560	0.001832	28.0814	0.021854	0.001999	10.9335	-117.967	-162.049	-0.055596	0.281016	-0.809940	-0.811243	-0.061870	10.9335	-0.805696	-5.372396E+10	1.151619E-12	NaN
540	1.000000	0.292325	7.37033e+06	-50089.1	1005.82	-29756.9	0.000000	0.000000	6.292860	-0.069058	NaN	0.000000	0.001575	0.001762	28.0817	0.123442	0.002040	60.5073	-164.689	14.8664	-0.059014	0.290932	-0.799934	-0.801327	-0.069058	60.5073	-0.799078	-4.368661E+10	1.580760E-12	NaN
540	1.000000	0.302313	7.37033e+06	-50089.1	1005.82	-29756.9	0.000000	0.000000	6.302848	-0.074612	NaN	0.000000	0.001614	0.001771	28.0816	0.063268	0.002115	29.9179	-44.1987	-167.407	-0.084528	0.301038	-0.789946	-0.791221	-0.074612	29.9179	-0.788076	-3.097058E+10	2.409135E-12	NaN
540	1.000000	0.312332	7.37033e+06	-50089.1	1005.82	-29756.9	0.000000	0.000000	6.312869	-0.032360	NaN	0.000000	0.001587	0.001761	28.0816	0.020723	0.002133	9.715145	14.009	13.6751	-0.045495	0.310955	-0.779927	-0.781305	-0.032360	9.715145	-0.777429	-2.219662E+10	1.457880E-12	NaN
540	1.000000	0.322287	7.37033e+06	-50089.1	1005.82	-29756.9	0.000000	0.000000	6.322823	-0.022272	NaN	0.000000	0.001586	0.001775	28.0817	0.040602	0.002045	19.8533	175.702	-165.917	-0.013122	0.320990	-0.769973	-0.771269	-0.022272	19.8533	-0.769131	-1.711955E+10	1.300991E-12	NaN
540	1.000000	0.332330	7.37033e+06	-50089.1	1005.82	-29756.9	0.000000	0.000000	6.332865	-0.076166	NaN	0.000000	0.001544	0.001845	28.082	0.117384	0.002108	55.6926	-88.6764	14.8095	-0.040826	0.330981	-0.759929	-0.761278	-0.076166	55.6926	-0.758903	-1.242732E+10	6.128915E-12	NaN
540	1.000000	0.342358	7.37033e+06	-50089.1	1005.82	-29756.9	0.000000	0.000000	6.342895	-0.015906	NaN	0.000000	0.001623	0.001810	28.0821	0.157004	0.001959	80.1441	-35.3938	-164.647	-0.098592	0.341038	-0.749901	-0.751222	-0.015906	80.1441	-0.749752	-9.329191E+9	1.704941E-12	NaN
540	1.000000	0.352332	7.37033e+06	-50089.1	1005.82	-29756.9	0.000000	0.000000	6.352866	-0.088248	NaN	0.000000	0.001595	0.001806	28.083	0.112416	0.001894	59.3409	-88.2927	13.9598	-0.092699	0.350983	-0.739928	-0.741276	-0.088248	59.3409	-0.738812	-6.620300E+9	1.332992E-11	NaN
540	1.000000	0.362345	7.37033e+06	-50089.1	1005.82	-29756.9	0.000000	0.000000	6.362879	-0.089282	NaN	0.000000	0.001586	0.001808	28.0831	0.098299	0.002062	47.6829	101.207	-163.064	-0.042674	0.361037	-0.729915	-0.731222	-0.089282	47.6829	-0.728510	-4.791847E+9	1.863201E-11	NaN
540	1.000000	0.372354	7.37033e+06	-50089.1	1005.82	-29756.9	0.000000	0.000000	6.372888	-0.077909	NaN	0.000000	0.001597	0.001797	28.0832	0.023603	0.001999	11.8103	-149.197	14.2366	-0.021395	0.370982	-0.719905	-0.721277	-0.077909	11.8103	-0.714958	-3.131094E+9	2.488223E-11	NaN
540	1.000000	0.382356	7.37033e+06	-50089.1	1005.82	-29756.9	0.000000	0.000000	6.382892	-0.023907	NaN	0.000000	0.001551	0.001813	28.0829	0.093129	0.001973	47.1918	-20.8041	-166.129	-0.046844	0.380991	-0.709903	-0.711268	-0.023907	47.1918	-0.709523	-2.639643E+9	9.057082E-12	NaN
540	1.000000	0.392368	7.37033e+06	-50089.1	1005.82	-29756.9	0.000000	0.000000	6.392904	-0.030926	NaN	0.000000	0.001555	0.001767	28.0831	0.072813	0.001962	37.1147	-117.432	16.5117	-0.146712	0.390993	-0.699892	-0.701266	-0.030926	37.1147	-0.699267	-1.912118E+9	1.617389E-11	NaN
540	1.000000	0.402364	7.37033e+06	-50089.1	1005.82	-29756.9	0.000000	0.000000	6.402899	-0.053049	NaN	0.000000	0.001533	0.001804	28.0831	0.095993	0.002031	47.2535	-166.762	-161.448	0.033317	0.401035	-0.689896	-0.691224	-0.053049	47.2535	-0.689054	-1.386705E+9	3.825573E-11	NaN
540	1.000000	0.412370	7.37033e+06	-50089.1	1005.82	-29756.9	0.000000	0.000000	6.412903	-0.107695	NaN	0.000000	0.001570	0.001814	28.083	0.057392	0.002134	26.8978	-152.408	14.1653	-0.098500	0.411008	-0.679890	-0.681251	-0.107695	26.8978	-0.676887	-9.454139E+8	1.139135E-10	NaN
540	1.000000	0.422395	7.37033e+06	-50089.1	1005.82	-29756.9	0.000000	0.000000	6.422928	-0.113941	NaN	0.000000	0.001582	0.001796	28.083	0.068061	0.002079	32.7372	-14.7462	-160.789	-0.041185	0.421038	-0.669864	-0.671221	-0.113941	32.7372	-0.667253	-6.979014E+8	1.632616E-10	NaN
540	1.000000	0.432359	7.37033e+06	-50089.1	1005.82	-29756.9	0.000000	0.000000	6.432896	-0.000426	NaN	0.000000	0.001578	0.001833	28.0829	0.069234	0.002076	33.3464	-43.7937	14.6831	-0.081843	0.431012	-0.659901	-0.661247	-0.000426	33.3464	-0.659891	-5.533206E+8	7.695122E-13	NaN
540	1.000000	0.442360	7.37033e+06	-50089.1	1005.82	-29756.9	0.000000	0.000000	6.442895	-0.070761	NaN	0.000000	0.001559	0.001814	28.0832	0.001629	0.002090	0.779735	106.097	-164.161	-0.006739	0.441052	-0.649899	-0.651208	-0.070761	0.779735	-0.581836	-4.678094E+7	1.512613E-9	NaN
540	1.000000	0.452395	7.37033e+06	-50089.1	1005.82	-29756.9	0.000000	0.000000	6.452930	-0.058987	NaN	0.000000	0.001558	0.001799	28.0829	0.056550	0.001901	29.7508	156.233	17.7139	-0.074670	0.451038	-0.639864	-0.641221	-0.058987	29.7508	-0.638377	-2.805597E+8	2.102476E-10	NaN
540	1.000000	0.462425	7.37033e+06	-50089.1	1005.82	-29756.9	0.000000	0.000000	6.462961	-0.030995	NaN	0.000000	0.001579	0.001792	28.083	0.112245	0.002018	55.6272	-157.48	-164.018	-0.031804	0.461033	-0.629834	-0.631226	-0.030995	55.6272	-0.629416	-2.113530E+8	1.466506E-10	NaN
540	1.000000	0.472367	7.37033e+06	-50089.1	1005.82	-29756.9	0.000000	0.000000	6.472902	-0.062535	NaN	0.000000	0.001560	0.001783	28.0831	0.013247	0.001968	6.729401	-127.967	16.3271	-0.085505	0.471055	-0.619892	-0.621204	-0.062535	6.729401	-0.612923	-1.254071E+8	4.986588E-10	NaN
540	1.000000	0.482417	7.37033e+06	-50089.1	1005.82	-29756.9	0.000000	0.000000	6.482952	-0.069543	NaN	0.000000	0.001567	0.001820	28.0818	0.091311	0.002073	44.0493	156.945	-166.499	-0.035443	0.481129	-0.609842	-0.611130	-0.069543	44.0493	-0.608658	-1.095605E+8	6.347474E-10	NaN
540	1.000000	0.492385	7.37033e+06	-50089.1	1005.82	-29756.9	0.000000	0.000000	6.492919	-0.089701	NaN	0.000000	0.001618	0.001820	28.0817	0.087221	0.001936	45.0596	-34.0649	11.9955	-0.062250	0.491052	-0.599874	-0.601207	-0.089701	45.0596	-0.598381	-7.909646E+7	1.134076E-9	NaN
540	1.000000	0.502397	7.37033e+06	-50089.1	1005.82	-29756.9	0.000000	0.000000	6.502933	-0.051761	NaN	0.000000	0.001624	0.001800	28.0815	0.049529	0.002187	22.6458	22.2748	-164.808	0.051663	0.501144	-0.589862	-0.591115	-0.051761	22.6458	-0.588148	-5.716489E+7	9.054723E-10	NaN
540	1.000000	0.512422	7.37033e+06	-50089.1	1005.82	-29756.9	0.000000	0.000000	6.512959	-0.020021	NaN	0.000000	0.001615	0.001816	28.0817	0.015869	0.001976	8.030578	80.2427	16.4146	-0.082634	0.511023	-0.579837	-0.581236	-0.020021	8.030578	-0.577968	-4.136863E+7	4.839544E-10	NaN
540	1.000000	0.522417	7.37033e+06	-50089.1	1005.82	-29756.9	0.000000	0.000000	6.522951	-0.072474	NaN	0.000000	0.001602	0.001810	28.0814	0.099095	0.001885	52.572	-2.822751	-162.668	-0.092420	0.521117	-0.569843	-0.571142	-0.072474	52.572	-0.568809	-3.091508E+7	2.344299E-9	NaN
540	1.000000	0.532401	7.37033e+06	-50089.1	1005.82	-29756.9	0.000000	0.000000	6.532934	-0.127374	NaN	0.000000	0.001619	0.001840	28.0815	0.074336	0.001961	37.9104	-122.393	14.8923	-0.125983	0.531018	-0.559858	-0.561241	-0.127374	37.9104	-0.557338	-2.145586E+7	5.936539E-9	NaN
540	1.000000	0.542435	7.37033e+06	-50089.1	1005.82	-29756.9	0.000000	0.000000	6.542971	-0.037836	NaN	0.000000	0.001583	0.001842	28.0818	0.095722	0.001989	48.1365	32.372	-162.707	-0.015372	0.541106	-0.549824	-0.551153	-0.037836	48.1365	-0.549235	-1.657137E+7	2.283200E-9	NaN
540	1.000000	0.552429	7.37033e+06	-50089.1	1005.82	-29756.9	0.000000	0.000000	6.552967	-0.000715	NaN	0.000000	0.001618	0.001796	28.0813	0.062009	0.001975	31.4018	94.4335	16.5249	0.004430	0.551049	-0.539830	-0.541210	-0.000715	31.4018	-0.539813	-1.226776E+7	5.827436E-11	NaN
540	1.000000	0.562424	7.37033e+06	-50089.1	1005.82	-29756.9	0.000000	0.000000	6.562960	-0.037421	NaN	0.000000	0.001599	0.001778	28.0814	0.087605	0.002038	42.9823	-99.5864	-163.672	-0.016146	0.561105	-0.529836	-0.531154	-0.037421	42.9823	-0.529183	-8.7342e+06	4.284378E-9	NaN
540	1.000000	0.572399	7.37033e+06	-50089.1	1005.82	-29756.9	0.000000	0.000000	6.572937	0.000241	NaN	0.000000	0.001626	0.001814	28.0813	0.051397	0.001961	26.2053	-101.991	16.3799	-0.025936	0.571043	-0.519860	-0.521216	0.000241	26.2053	-0.519867	-6.48258e+06	-3.715335E-11	NaN
540	1.000000	0.582430	7.37033e+06	-50089.1	1005.82	-29756.9	0.000000	0.000000	6.582968	0.014179	NaN	0.000000	0.001618	0.001776	28.0815	0.023991	0.002083	11.518	-42.3593	-166.424	-0.041034	0.581139	-0.509829	-0.511120	0.014179	11.518	-0.510753	-4.84058e+06	-2.929185E-9	NaN
540	1.000000	0.592453	7.37033e+06	-50089.1	1005.82	-29756.9	0.000000	0.000000	6.592988	-0.054959	NaN	0.000000	0.001593	0.001794	28.0812	0.077224	0.002171	35.5717	41.466	16.5212	0.044644	0.591001	-0.499806	-0.501258	-0.054959	35.5717	-0.498648	-3.28208e+06	1.674525E-8	NaN
540	1.000000	0.602442	7.37033e+06	-50089.1	1005.82	-29756.9	0.000000	0.000000	6.602976	-0.105320	NaN	0.000000	0.001603	0.001778	28.0814	0.019618	0.001856	10.5712	94.1952	-164.918	-0.067829	0.601059	-0.489817	-0.491200	-0.105320	10.5712	-0.482344	-1.94241e+06	5.422145E-8	NaN
540	1.000000	0.612433	7.37033e+06	-50089.1	1005.82	-29756.9	0.000000	0.000000	6.612970	-0.015126	NaN	0.000000	0.001619	0.001793	28.0813	0.013462	0.002033	6.622086	44.1883	14.5692	0.041947	0.611123	-0.479826	-0.481136	-0.015126	6.622086	-0.478113	-1.69476e+06	8.925416E-9	NaN
540	1.000000	0.622462	7.37033e+06	-50089.1	1005.82	-29756.9	0.000000	0.000000	6.622996	-0.098041	NaN	0.000000	0.001639	0.001785	28.0827	0.086928	0.001897	45.836	33.2009	-166.621	-0.077879	0.621162	-0.469797	-0.471098	-0.098041	45.836	-0.468193	-1.23044e+06	7.967949E-8	NaN
540	1.000000	0.632477	7.37033e+06	-50089.1	1005.82	-29756.9	0.000000	0.000000	6.633012	-0.069828	NaN	0.000000	0.001637	0.001786	28.0826	0.121989	0.001973	61.8306	-34.9871	14.3705	0.017480	0.631124	-0.459782	-0.461135	-0.069828	61.8306	-0.458935	-912128	7.655481E-8	NaN
540	1.000000	0.642449	7.37033e+06	-50089.1	1005.82	-29756.9	0.000000	0.000000	6.642987	0.010269	NaN	0.000000	0.001650	0.001817	28.0826	0.064029	0.001953	32.7819	93.8315	-165.997	0.040560	0.641126	-0.449810	-0.451133	0.010269	32.7819	-0.450045	-683873	-1.501642E-8	NaN
540	1.000000	0.652476	7.37033e+06	-50089.1	1005.82	-29756.9	0.000000	0.000000	6.653012	-0.052955	NaN	0.000000	0.001620	0.001779	28.0827	0.053670	0.001851	28.9936	159.888	18.1059	-0.032948	0.651114	-0.439783	-0.441145	-0.052955	28.9936	-0.438413	-468774	1.129657E-7	NaN
540	1.000000	0.662490	7.37033e+06	-50089.1	1005.82	-29756.9	0.000000	0.000000	6.663026	-0.052944	NaN	0.000000	0.001609	0.001794	28.0826	0.061942	0.001985	31.2087	39.5096	-165.71	-0.019855	0.661137	-0.429769	-0.431122	-0.052944	31.2087	-0.428497	-339460	1.559665E-7	NaN
540	1.000000	0.672493	7.37033e+06	-50089.1	1005.82	-29756.9	0.000000	0.000000	6.673029	-0.035866	NaN	0.000000	0.001632	0.001758	28.0825	0.037824	0.002061	18.3561	37.9617	14.4435	-0.098206	0.671099	-0.419766	-0.421160	-0.035866	18.3561	-0.418301	-243395	1.473580E-7	NaN
540	1.000000	0.682483	7.37033e+06	-50089.1	1005.82	-29756.9	0.000000	0.000000	6.683020	-0.013125	NaN	0.000000	0.001604	0.001771	28.0826	0.017272	0.001877	9.201370	101.412	-168.981	-0.073001	0.681181	-0.409776	-0.411078	-0.013125	9.201370	-0.408706	-177829	7.380692E-8	NaN
540	1.000000	0.692484	7.37033e+06	-50089.1	1005.82	-29756.9	0.000000	0.000000	6.693019	-0.067840	NaN	0.000000	0.001594	0.001769	28.0827	0.078219	0.001958	39.9388	169.315	12.0453	-0.029846	0.691098	-0.399775	-0.401162	-0.067840	39.9388	-0.398501	-127236	5.331842E-7	NaN
540	1.000000	0.702491	7.37033e+06	-50089.1	1005.82	-29756.9	0.000000	0.000000	6.703028	-0.018165	NaN	0.000000	0.001638	0.001786	28.0827	0.097440	0.002001	48.6873	-94.8342	-165.846	-0.138481	0.701204	-0.389768	-0.391055	-0.018165	48.6873	-0.389489	-94591.2	1.920411E-7	NaN
540	1.000000	0.712469	7.37033e+06	-50089.1	1005.82	-29756.9	0.000000	0.000000	6.713005	-0.021513	NaN	0.000000	0.001621	0.001829	28.0825	0.081602	0.002132	38.2702	-4.077610	15.6052	-0.052594	0.711095	-0.379791	-0.381164	-0.021513	38.2702	-0.379369	-67737.9	3.175927E-7	NaN
540	1.000000	0.722512	7.37033e+06	-50089.1	1005.82	-29756.9	0.000000	0.000000	6.723048	-0.053328	NaN	0.000000	0.001606	0.001798	28.0829	0.045643	0.002012	22.689	-116.891	-164.427	-0.065355	0.721204	-0.369747	-0.371055	-0.053328	22.689	-0.367984	-46460.9	1.147798E-6	NaN
540	1.000000	0.732508	7.37033e+06	-50089.1	1005.82	-29756.9	0.000000	0.000000	6.733042	-0.076684	NaN	0.000000	0.001640	0.001794	28.0825	0.090755	0.002027	44.7778	177.896	15.2106	-0.067925	0.731205	-0.359752	-0.361054	-0.076684	44.7778	-0.358467	-33859.6	2.264770E-6	NaN
540	1.000000	0.742501	7.37033e+06	-50089.1	1005.82	-29756.9	0.000000	0.000000	6.743037	-0.036978	NaN	0.000000	0.001663	0.001796	28.0826	0.107198	0.001996	53.6953	-170.646	-162.414	-0.055814	0.741190	-0.349758	-0.351069	-0.036978	53.6953	-0.349242	-24888.4	1.485749E-6	NaN
540	1.000000	0.752524	7.37033e+06	-50089.1	1005.82	-29756.9	0.000000	0.000000	6.753057	-0.118740	NaN	0.000000	0.001644	0.001810	28.0821	0.030855	0.001939	15.9143	144.445	21.2309	-0.058473	0.751122	-0.339735	-0.341138	-0.118740	15.9143	-0.334139	-14997.3	7.917433E-6	NaN
540	1.000000	0.762530	7.37033e+06	-50089.1	1005.82	-29756.9	0.000000	0.000000	6.763067	-0.020494	NaN	0.000000	0.001627	0.001801	28.0813	0.010377	0.002031	5.110202	160.58	-163.648	-0.053136	0.761211	-0.329729	-0.331049	-0.020494	5.110202	-0.326721	-11678.8	1.754794E-6	NaN
540	1.000000	0.772534	7.37033e+06	-50089.1	1005.82	-29756.9	0.000000	0.000000	6.773071	-0.024490	NaN	0.000000	0.001622	0.001784	28.0814	0.124754	0.002012	62.0168	-0.704018	12.642	-0.038689	0.771169	-0.319725	-0.321090	-0.024490	62.0168	-0.319429	-9124.85	2.683886E-6	NaN
540	1.000000	0.782509	7.37033e+06	-50089.1	1005.82	-29756.9	0.000000	0.000000	6.783043	-0.087680	NaN	0.000000	0.001639	0.001769	28.0813	0.024329	0.002061	11.8032	57.7123	-164.071	-0.129216	0.781231	-0.309750	-0.311028	-0.087680	11.8032	-0.304179	-5429.51	1.614870E-5	NaN
540	1.000000	0.792549	7.37033e+06	-50089.1	1005.82	-29756.9	0.000000	0.000000	6.793082	-0.119570	NaN	0.000000	0.001622	0.001789	28.0818	0.035026	0.001957	17.898	-40.9115	13.5667	-0.123366	0.791230	-0.299710	-0.301030	-0.119570	17.898	-0.294700	-3922.86	3.048027E-5	NaN
540	1.000000	0.802538	7.37033e+06	-50089.1	1005.82	-29756.9	0.000000	0.000000	6.803073	-0.055050	NaN	0.000000	0.001646	0.001807	28.0814	0.071026	0.002015	35.2445	-69.0074	-166.172	0.004104	0.801222	-0.289721	-0.291037	-0.055050	35.2445	-0.288550	-3173.71	1.734576E-5	NaN
540	1.000000	0.812556	7.37033e+06	-50089.1	1005.82	-29756.9	0.000000	0.000000	6.813091	-0.063598	NaN	0.000000	0.001646	0.001778	28.0816	0.101326	0.002051	49.4047	27.929	17.2101	0.053508	0.811183	-0.279703	-0.281076	-0.063598	49.4047	-0.278738	-2259.01	2.815325E-5	NaN
540	1.000000	0.822517	7.37033e+06	-50089.1	1005.82	-29756.9	0.000000	0.000000	6.823052	-0.063713	NaN	0.000000	0.001637	0.001806	28.0824	0.044055	0.002170	20.3009	71.4589	-162.505	-0.038466	0.821270	-0.269742	-0.270989	-0.063713	20.3009	-0.267388	-1519.86	4.192034E-5	NaN
540	1.000000	0.832547	7.37033e+06	-50089.1	1005.82	-29756.9	0.000000	0.000000	6.833081	-0.092854	NaN	0.000000	0.001625	0.001789	28.0818	0.019250	0.002013	9.563839	14.1696	15.5737	-0.138985	0.831221	-0.259712	-0.261038	-0.092854	9.563839	-0.252430	-896.418	0.000104	NaN
540	1.000000	0.842525	7.37033e+06	-50089.1	1005.82	-29756.9	0.000000	0.000000	6.843062	-0.026193	NaN	0.000000	0.001663	0.001818	28.0814	0.058829	0.002020	29.1205	121.375	-162.243	-0.108708	0.841273	-0.249734	-0.250987	-0.026193	29.1205	-0.249059	-795.076	3.294350E-5	NaN
540	1.000000	0.852561	7.37033e+06	-50089.1	1005.82	-29756.9	0.000000	0.000000	6.853095	-0.086774	NaN	0.000000	0.001601	0.001788	28.0816	0.096993	0.001934	50.141	121.16	14.5786	-0.080142	0.851147	-0.239698	-0.241113	-0.086774	50.141	-0.238401	-542.686	0.000160	NaN
540	1.000000	0.862554	7.37033e+06	-50089.1	1005.82	-29756.9	0.000000	0.000000	6.863091	-0.011405	NaN	0.000000	0.001648	0.001770	28.0816	0.102033	0.001979	51.5581	-116.834	-162.662	-0.083141	0.861277	-0.229705	-0.230983	-0.011405	51.5581	-0.229539	-393.771	2.896250E-5	NaN
540	1.000000	0.872568	7.37033e+06	-50089.1	1005.82	-29756.9	0.000000	0.000000	6.873102	-0.075146	NaN	0.000000	0.001613	0.001795	28.0815	0.056120	0.002040	27.506	40.8125	13.2592	-0.028427	0.871185	-0.219692	-0.221074	-0.075146	27.506	-0.217643	-254.651	0.000295	NaN
540	1.000000	0.882575	7.37033e+06	-50089.1	1005.82	-29756.9	0.000000	0.000000	6.883111	-0.035345	NaN	0.000000	0.001614	0.001802	28.0815	0.084002	0.001907	44.0527	100.793	-165.629	-0.073659	0.881292	-0.209684	-0.210968	-0.035345	44.0527	-0.209083	-185.333	0.000191	NaN
540	1.000000	0.892584	7.37033e+06	-50089.1	1005.82	-29756.9	0.000000	0.000000	6.893122	-0.008377	NaN	0.000000	0.001638	0.001818	28.0828	0.129843	0.001862	69.7209	-105.84	16.0224	-0.084496	0.891193	-0.199675	-0.201066	-0.008377	69.7209	-0.199585	-129.679	6.460119E-5	NaN
540	1.000000	0.902560	7.37033e+06	-50089.1	1005.82	-29756.9	0.000000	0.000000	6.903098	-0.002052	NaN	0.000000	0.001632	0.001804	28.083	0.047145	0.001866	25.2647	16.1833	-161.162	0.027265	0.901260	-0.189699	-0.190999	-0.002052	25.2647	-0.189638	-88.7112	2.312632E-5	NaN
540	1.000000	0.912544	7.37034e+06	-50089.1	1005.82	-29756.9	0.000000	0.000000	6.913079	-0.067049	NaN	0.000000	0.001645	0.001762	28.0827	0.125131	0.001861	67.2488	-72.1529	11.8914	-0.023073	0.911275	-0.179715	-0.180984	-0.067049	67.2488	-0.178967	-58.597	0.001144	NaN
540	1.000000	0.922574	7.37034e+06	-50089.1	1005.82	-29756.9	0.000000	0.000000	6.923110	-0.056971	NaN	0.000000	0.001675	0.001785	28.0827	0.025170	0.002059	12.227	52.45	-162.254	-0.124703	0.921210	-0.169685	-0.171050	-0.056971	12.227	-0.166190	-35.2518	0.001616	NaN
540	1.000000	0.932596	7.37034e+06	-50089.1	1005.82	-29756.9	0.000000	0.000000	6.933130	-0.074933	NaN	0.000000	0.001645	0.001806	28.0828	0.123854	0.002067	59.9277	-53.1663	15.0996	-0.007409	0.931190	-0.159663	-0.161070	-0.074933	59.9277	-0.158726	-26.0199	0.002880	NaN
540	1.000000	0.942574	7.37034e+06	-50089.1	1005.82	-29756.9	0.000000	0.000000	6.943109	-0.064831	NaN	0.000000	0.001627	0.001811	28.0828	0.020742	0.001960	10.5809	-161.779	-160.994	-0.075941	0.941276	-0.149685	-0.150983	-0.064831	10.5809	-0.145090	-14.7173	0.004405	NaN
540	1.000000	0.952601	7.37034e+06	-50089.1	1005.82	-29756.9	0.000000	0.000000	6.953139	-0.003868	NaN	0.000000	0.001662	0.001816	28.0826	0.130567	0.001965	66.4498	126.553	18.4227	-0.050956	0.951273	-0.139658	-0.140986	-0.003868	66.4498	-0.139614	-11.6338	0.000332	NaN
540	1.000000	0.962592	7.37034e+06	-50089.1	1005.82	-29756.9	0.000000	0.000000	6.963131	0.029000	NaN	0.000000	0.001654	0.001814	28.0828	0.041585	0.002121	19.6056	121.473	-166.793	-0.027710	0.961308	-0.129668	-0.130951	0.029000	19.6056	-0.130777	-7.890096	-0.003675	NaN
540	1.000000	0.972624	7.37034e+06	-50089.1	1005.82	-29756.9	0.000000	0.000000	6.973161	-0.023579	NaN	0.000000	0.001597	0.001827	28.0828	0.102029	0.002007	50.8378	79.7562	17.6354	-0.041296	0.971210	-0.119635	-0.121049	-0.023579	50.8378	-0.119287	-4.673809	0.005045	NaN
540	1.000000	0.982607	7.37034e+06	-50089.1	1005.82	-29756.9	0.000000	0.000000	6.983141	-0.090491	NaN	0.000000	0.001636	0.001812	28.0829	0.092115	0.002094	43.9953	-157.857	-164.653	-0.146788	0.981290	-0.109653	-0.110969	-0.090491	43.9953	-0.108110	-2.740575	0.033019	NaN
540	1.000000	0.992579	7.37034e+06	-50089.1	1005.82	-29756.9	0.000000	0.000000	6.993113	-0.080581	NaN	0.000000	0.001634	0.001796	28.0825	0.129483	0.001934	66.9553	72.5218	16.2511	-0.034957	0.991251	-0.099680	-0.101009	-0.080581	66.9553	-0.098778	-1.716274	0.046951	NaN
540	1.000000	1.002592	7.37034e+06	-50089.1	1005.82	-29756.9	0.000000	0.000000	7.003127	-0.081536	NaN	0.000000	0.001609	0.001818	28.0826	0.021157	0.002025	10.448	-19.3666	-166.458	-0.136181	1.001314	-0.089667	-0.090945	-0.081536	10.448	-0.083814	-0.768892	0.106043	NaN
540	1.000000	1.012608	7.37034e+06	-50089.1	1005.82	-29756.9	0.000000	0.000000	7.013147	0.042179	NaN	0.000000	0.001630	0.001798	28.0828	0.079575	0.002045	38.9058	-169.051	15.4208	0.041858	1.011283	-0.079651	-0.080976	0.042179	38.9058	-0.080464	-0.635741	-0.066347	NaN
540	1.000000	1.022585	7.37034e+06	-50089.1	1005.82	-29756.9	0.000000	0.000000	7.023122	-0.017023	NaN	0.000000	0.001621	0.001833	28.0829	0.124381	0.001953	63.7019	96.8085	-164.777	-0.004578	1.021286	-0.069675	-0.070974	-0.017023	63.7019	-0.069474	-0.330200	0.051553	NaN
540	1.000000	1.032618	7.37034e+06	-50089.1	1005.82	-29756.9	0.000000	0.000000	7.033154	-0.029945	NaN	0.000000	0.001623	0.001771	28.0815	0.068750	0.002082	33.025	67.9086	15.6647	-0.100787	1.031241	-0.059642	-0.061018	-0.029945	33.025	-0.058961	-0.168116	0.178120	NaN
540	1.000000	1.042602	7.37034e+06	-50089.1	1005.82	-29756.9	0.000000	0.000000	7.043137	-0.080817	NaN	0.000000	0.001625	0.001793	28.0816	0.124135	0.001828	67.8893	-31.291	-167.146	0.000535	1.041302	-0.049657	-0.050957	-0.080817	67.8893	-0.048764	-0.083711	0.965428	NaN
540	1.000000	1.052658	7.37034e+06	-50089.1	1005.82	-29756.9	0.000000	0.000000	7.053195	-0.013163	NaN	0.000000	0.001602	0.001789	28.0816	0.059215	0.002059	28.7573	114.573	13.473	-0.031484	1.051226	-0.039601	-0.041034	-0.013163	28.7573	-0.039258	-0.042938	0.306553	NaN
540	1.000000	1.062641	7.37034e+06	-50089.1	1005.82	-29756.9	0.000000	0.000000	7.063179	0.002135	NaN	0.000000	0.001609	0.001770	28.0814	0.073297	0.001926	38.064	-168.634	-165.9	-0.037909	1.061354	-0.029618	-0.030905	0.002135	38.064	-0.029660	-0.022517	-0.094821	NaN
540	1.000000	1.072603	7.37034e+06	-50089.1	1005.82	-29756.9	0.000000	0.000000	7.073138	-0.055227	NaN	0.000000	0.001674	0.001777	28.0813	0.078594	0.001963	40.0409	151.506	16.9431	-0.092495	1.071299	-0.019656	-0.020960	-0.055227	40.0409	-0.018622	-0.011583	4.768025	NaN
540	1.000000	1.082655	7.37034e+06	-50089.1	1005.82	-29756.9	0.000000	0.000000	7.083189	-0.078410	NaN	0.000000	0.001687	0.001814	28.0818	0.084724	0.002136	39.6638	-175.196	-165.506	-0.079983	1.081388	-0.009605	-0.010871	-0.078410	39.6638	-0.008122	-0.005303	14.7859	NaN
540	1.000000	1.092640	7.37034e+06	-50089.1	1005.82	-29756.9	0.000000	0.000000	7.093385	5.048921	NaN	0.000000	0.001706	0.001815	28.0812	5.830728	0.001899	3070.17	14.1287	10.2952	3.976749	1.091244	0.000381	-0.001015	5.048921	3070.17	-0.000853	-0.000627	-8053.97	NaN
540	2.000000	1.098179	7.37034e+06	-50089.1	1005.82	-29756.9	0.000000	0.000000	7.099142	10.3242	NaN	0.000000	0.001691	0.001808	28.0811	10.8291	0.001783	6074.14	8.223873	-173.243	9.507679	1.097857	0.005920	0.005597	10.3242	6074.14	0.004645	0.003812	2708.29	89883.1
540	2.000000	1.100622	7.37034e+06	-50089.1	1005.82	-29756.9	0.000000	0.000000	7.101691	12.9141	NaN	0.000000	0.001696	0.001821	28.0812	13.4488	0.001759	7646.04	5.895330	7.312607	11.1187	1.100314	0.008363	0.008055	12.9141	7646.04	0.007096	0.006129	2106.95	89229
540	2.000000	1.103127	7.37034e+06	-50089.1	1005.82	-29756.9	0.000000	0.000000	7.104333	16.2613	NaN	0.000000	0.001724	0.001831	28.0817	16.157	0.001740	9284.8	3.431726	-171.758	15.5426	1.102809	0.010868	0.010549	16.2613	9284.8	0.009554	0.008690	1871.25	90998.5
540	2.000000	1.105675	7.37034e+06	-50089.1	1005.82	-29756.9	0.000000	0.000000	7.107040	20.1202	NaN	0.000000	0.001693	0.001790	28.0814	18.4219	0.001599	11522.8	3.708153	5.869754	19.0718	1.105284	0.013416	0.013024	20.1202	11522.8	0.012106	0.011617	1731.9	97673.6
540	2.000000	1.108092	7.37034e+06	-50089.1	1005.82	-29756.9	0.000000	0.000000	7.109746	27.1474	NaN	0.000000	0.001661	0.001838	28.0816	21.5025	0.001826	11775	6.836143	-177.054	26.9029	1.107737	0.015833	0.015478	27.1474	11775	0.014104	0.014109	1924.08	90569.2
540	2.000000	1.110591	7.37034e+06	-50089.1	1005.82	-29756.9	0.000000	0.000000	7.112567	34.9925	NaN	0.000000	0.001629	0.001818	28.0815	23.5187	0.001796	13092.5	2.369431	6.285669	32.4177	1.110229	0.018332	0.017970	34.9925	13092.5	0.016327	0.017096	2046.84	91485.4
540	2.000000	1.113103	7.37034e+06	-50089.1	1005.82	-29756.9	0.000000	0.000000	7.115257	39.2971	NaN	0.000000	0.001618	0.001818	28.0824	25.5148	0.001693	15067.9	0.918421	-173.393	38.3616	1.112806	0.020844	0.020547	39.2971	15067.9	0.018888	0.020825	1887.03	95396.7
540	2.000000	1.115583	7.37034e+06	-50089.1	1005.82	-29756.9	0.000000	0.000000	7.118117	48.5326	NaN	0.000000	0.001582	0.001823	28.0826	27.8613	0.001749	15931.1	3.189684	3.311205	45.756	1.115189	0.023324	0.022930	48.5326	15931.1	0.021039	0.024202	2005.32	93560.6
540	2.000000	1.118040	7.37034e+06	-50089.1	1005.82	-29756.9	0.000000	0.000000	7.120641	50.1825	NaN	0.000000	0.001583	0.001873	28.0828	29.8146	0.001647	18107.3	2.977480	-178.573	47.6047	1.117773	0.025781	0.025514	50.1825	18107.3	0.023702	0.028697	1748.71	97658.3
540	2.000000	1.120590	7.37034e+06	-50089.1	1005.82	-29756.9	0.000000	0.000000	7.123546	58.8037	NaN	0.000000	0.001642	0.001828	28.083	33.2499	0.001740	19105.3	8.216642	-2.318653	59.3036	1.120201	0.028331	0.027942	58.8037	19105.3	0.026022	0.032902	1787.26	96231.6
540	2.000000	1.123094	7.37034e+06	-50089.1	1005.82	-29756.9	0.000000	0.000000	7.126230	63.1856	NaN	0.000000	0.001625	0.001842	28.0828	35.8704	0.001857	19320.9	3.663939	-178.582	64.1288	1.122832	0.030835	0.030573	63.1856	19320.9	0.028382	0.037457	1686.88	91208.3
540	2.000000	1.125557	7.37034e+06	-50089.1	1005.82	-29756.9	0.000000	0.000000	7.129033	71.4691	NaN	0.000000	0.001593	0.001830	28.0827	36.9646	0.001651	22389.3	0.672469	2.225951	67.7597	1.125278	0.033298	0.033019	71.4691	22389.3	0.030903	0.042637	1676.22	99064.9
540	2.000000	1.128067	7.37034e+06	-50089.1	1005.82	-29756.9	0.000000	0.000000	7.132095	84.8687	NaN	0.000000	0.001600	0.001812	28.0827	39.7955	0.001729	23017.2	2.959577	-179.523	84.0829	1.127689	0.035808	0.035430	84.8687	23017.2	0.033043	0.047287	1794.76	96706.5
540	2.000000	1.130569	7.37034e+06	-50089.1	1005.82	-29756.9	0.000000	0.000000	7.134815	90.1865	NaN	0.000000	0.001605	0.001813	28.0829	44.0164	0.001896	23211.2	4.479552	-1.034453	89.0679	1.130096	0.038310	0.037836	90.1865	23211.2	0.035396	0.052672	1712.23	92401.9
540	2.000000	1.133073	7.37034e+06	-50089.1	1005.82	-29756.9	0.000000	0.000000	7.137741	100.46	NaN	0.000000	0.001615	0.001860	28.0827	46.3436	0.001841	25168.9	3.093453	179.088	100.573	1.132786	0.040814	0.040527	100.46	25168.9	0.037820	0.058516	1716.79	95060.7
540	2.000000	1.135554	7.37034e+06	-50089.1	1005.82	-29756.9	0.000000	0.000000	7.140630	110.353	NaN	0.000000	0.001620	0.001794	28.0825	48.0879	0.001767	27222	4.579601	-3.313455	107.579	1.135135	0.043295	0.042875	110.353	27222	0.040255	0.064688	1705.93	97787
540	2.000000	1.138057	7.37034e+06	-50089.1	1005.82	-29756.9	0.000000	0.000000	7.143819	127.06	NaN	0.000000	0.001590	0.001811	28.0827	49.4641	0.001756	28174	4.742148	176.84	127.974	1.137676	0.045798	0.045416	127.06	28174	0.042415	0.070419	1804.35	97001.1
540	2.000000	1.140554	7.37034e+06	-50089.1	1005.82	-29756.9	0.000000	0.000000	7.146592	133.77	NaN	0.000000	0.001566	0.001852	28.0828	52.1628	0.001685	30950.6	3.084031	-2.134239	133.554	1.140232	0.048295	0.047973	133.77	30950.6	0.045053	0.077738	1720.78	101421
540	2.000000	1.143081	7.37034e+06	-50089.1	1005.82	-29756.9	0.000000	0.000000	7.149736	148.759	NaN	0.000000	0.001601	0.001800	28.0827	55.6135	0.001732	32104	4.318868	175.575	149.383	1.142763	0.050822	0.050504	148.759	32104	0.047346	0.084388	1762.8	100970
540	2.000000	1.145574	7.37034e+06	-50089.1	1005.82	-29756.9	0.000000	0.000000	7.152684	159.83	NaN	0.000000	0.001625	0.001791	28.0826	58.4612	0.001677	34854.6	12.0418	-12.1088	158.368	1.145081	0.053315	0.052822	159.83	34854.6	0.049875	0.092029	1736.74	104972
540	2.000000	1.148009	7.37034e+06	-50089.1	1005.82	-29756.9	0.000000	0.000000	7.155631	172.281	NaN	0.000000	0.001609	0.001787	28.0817	58.6396	0.001831	32018.4	3.426588	177.395	169.559	1.147681	0.055750	0.055421	172.281	32018.4	0.051715	0.097787	1761.8	93547.7
540	2.000000	1.150548	7.37034e+06	-50089.1	1005.82	-29756.9	0.000000	0.000000	7.158650	183.954	NaN	0.000000	0.001634	0.001784	28.0814	62.1648	0.001803	34470.8	3.141035	-3.108528	182.11	1.150095	0.058289	0.057836	183.954	34470.8	0.054287	0.106122	1733.42	96676.8
540	2.000000	1.153032	7.37034e+06	-50089.1	1005.82	-29756.9	0.000000	0.000000	7.161715	198.066	NaN	0.000000	0.001650	0.001804	28.0815	64.6322	0.001765	36612.7	2.633676	176.212	196.956	1.152699	0.060773	0.060440	198.066	36612.7	0.056716	0.114296	1732.93	98944.1
540	2.000000	1.155561	7.37034e+06	-50089.1	1005.82	-29756.9	0.000000	0.000000	7.164508	204.497	NaN	0.000000	0.001614	0.001806	28.0815	66.8605	0.001846	36222.6	3.445755	-4.363165	202.849	1.155200	0.063302	0.062941	204.497	36222.6	0.059068	0.122487	1669.54	94560.1
540	2.000000	1.158084	7.37034e+06	-50089.1	1005.82	-29756.9	0.000000	0.000000	7.167594	218.199	NaN	0.000000	0.001636	0.001786	28.0817	69.0163	0.001865	37002.1	2.837991	175.953	219.911	1.157813	0.065825	0.065554	218.199	37002.1	0.061402	0.130884	1667.12	93445.1
540	2.000000	1.160525	7.37034e+06	-50089.1	1005.82	-29756.9	0.000000	0.000000	7.170689	234.089	NaN	0.000000	0.001645	0.001821	28.0812	70.6809	0.001733	40785.7	3.288872	-5.413087	230.652	1.160089	0.068266	0.067829	234.089	40785.7	0.063962	0.140396	1667.35	99449.8
540	2.000000	1.163016	7.37034e+06	-50089.1	1005.82	-29756.9	0.000000	0.000000	7.173713	247.061	NaN	0.000000	0.001596	0.001806	28.0817	74.2895	0.001761	42194.9	3.546304	174.192	246.042	1.162808	0.070757	0.070549	247.061	42194.9	0.066366	0.149619	1651.27	99664.3
540	2.000000	1.165498	7.37034e+06	-50089.1	1005.82	-29756.9	0.000000	0.000000	7.177005	266.76	NaN	0.000000	0.001626	0.001759	28.0817	75.5844	0.001696	44572.3	2.479709	-5.370074	262.559	1.165334	0.073239	0.073075	266.76	44572.3	0.068750	0.159040	1677.31	102114
540	2.000000	1.167982	7.37034e+06	-50089.1	1005.82	-29756.9	0.000000	0.000000	7.180377	288.338	NaN	0.000000	0.001627	0.001777	28.0817	78.8705	0.001767	44641.7	7.026659	170.538	285.411	1.167673	0.075723	0.075414	288.338	44641.7	0.070879	0.167681	1719.56	99602.7
540	2.000000	1.170461	7.37034e+06	-50089.1	1005.82	-29756.9	0.000000	0.000000	7.183445	302.684	NaN	0.000000	0.001647	0.001789	28.0817	80.6448	0.001725	46750.3	5.884251	-8.237505	298.022	1.170008	0.078202	0.077749	302.684	46750.3	0.073346	0.177965	1700.8	101249
540	2.000000	1.172973	7.37034e+06	-50089.1	1005.82	-29756.9	0.000000	0.000000	7.186639	319.277	NaN	0.000000	0.001657	0.001784	28.0817	84.2642	0.001847	45623.8	3.573478	173.79	316.609	1.172662	0.080713	0.080403	319.277	45623.8	0.075465	0.187026	1707.13	96385.9
540	2.000000	1.175443	7.37034e+06	-50089.1	1005.82	-29756.9	0.000000	0.000000	7.189614	331.545	NaN	0.000000	0.001595	0.001829	28.0817	85.8671	0.001755	48925.8	5.849138	-8.944306	326.891	1.175201	0.083184	0.082942	331.545	48925.8	0.078101	0.198596	1669.45	100306
540	2.000000	1.177996	7.37034e+06	-50089.1	1005.82	-29756.9	0.000000	0.000000	7.192976	351.213	NaN	0.000000	0.001625	0.001796	28.0817	87.6755	0.001758	49875.1	5.532706	171.52	350.733	1.177604	0.085737	0.085344	351.213	49875.1	0.080456	0.209202	1678.82	99626.2
540	2.000000	1.180554	7.37034e+06	-50089.1	1005.82	-29756.9	0.000000	0.000000	7.196204	367.498	NaN	0.000000	0.001605	0.001787	28.0816	89.92	0.001687	53291.5	5.499834	-8.918050	368.195	1.180047	0.088295	0.087788	367.498	53291.5	0.083123	0.221529	1658.92	103447
540	2.000000	1.183063	7.37034e+06	-50089.1	1005.82	-29756.9	0.000000	0.000000	7.199310	382.03	NaN	0.000000	0.001633	0.001813	28.0829	93.8179	0.001755	53459.1	4.601037	171.557	386.775	1.182739	0.090804	0.090480	382.03	53459.1	0.085444	0.232524	1642.97	101289
540	2.000000	1.185493	7.37034e+06	-50089.1	1005.82	-29756.9	0.000000	0.000000	7.202576	402.358	NaN	0.000000	0.001608	0.001803	28.0831	94.862	0.001786	53101.7	4.404913	-7.520507	399.577	1.185072	0.093234	0.092813	402.358	53101.7	0.087551	0.242723	1657.68	98475
540	2.000000	1.188080	7.37034e+06	-50089.1	1005.82	-29756.9	0.000000	0.000000	7.205707	415.573	NaN	0.000000	0.001596	0.001821	28.0829	97.7669	0.001719	56885.4	8.486955	167.129	421.336	1.187577	0.095821	0.095317	415.573	56885.4	0.090342	0.256542	1619.9	102611
540	2.000000	1.190563	7.37034e+06	-50089.1	1005.82	-29756.9	0.000000	0.000000	7.209048	436.445	NaN	0.000000	0.001598	0.001801	28.0832	99.0129	0.001669	59332.1	2.894486	-7.357539	437.565	1.190218	0.098304	0.097959	436.445	59332.1	0.092787	0.268943	1622.81	104528
540	2.000000	1.193006	7.37034e+06	-50089.1	1005.82	-29756.9	0.000000	0.000000	7.212449	459.755	NaN	0.000000	0.001617	0.001754	28.0829	103.624	0.001860	55702.7	4.894608	170.676	459.796	1.192667	0.100747	0.100408	459.755	55702.7	0.094557	0.278091	1653.25	96506.4
540	2.000000	1.194934	7.37034e+06	-50089.1	1005.82	-29756.9	0.000000	0.000000	7.215098	477.277	NaN	0.000000	0.001612	0.001756	28.083	104.665	0.001848	56642	6.269527	169.779	475.165	1.194583	0.102675	0.102324	477.277	56642	0.096355	0.287532	1659.91	96509.1