File: remote_trans/data/nanoindenter/0828-1/data/Data_2025-08-06,11h17m57s/2025-07-22_16-23-58_1_160.txt
2025-07-22, 16:23:58, 1
Index	Phase	Displacement	Time	Pos X	Pos Y	Pos Z	Rot A	Rot B	Piezo Z	Force A	Force B	Gripper	Voltage A	Voltage B	Temperature	Amplitude force	Amplitude pos	Stiffness	Phase shift	Phase excitation	Force A raw	Displacement raw	HMax	HMax raw	Real Force	Real Stiffness	Contact Depth	Area	Hardness	Reduced Mod.
[#]	[#]	[um]	[s]	[um]	[um]	[um]	[m°]	[m°]	[um]	[uN]	[uN]	[V]	[V]	[V]	[°C]	[uN]	[um]	[N/m]	[°]	[°]	[uN]	[um]	[um]	[um]	[uN]	[N/m]	[um]	[um^2]	[MPa]	[MPa]
160	1.000000	0.002715	7.3666e+06	-46639.1	955.82	-29769	0.000000	0.000000	6.002784	-0.001834	NaN	0.000000	0.001592	0.001663	28.1269	0.018649	0.001004	18.5836	20.1623	-165.624	-0.067077	0.001468	-1.099622	-1.100869	-0.001834	18.5836	-1.099548	-4.943160E+14	3.709908E-18	NaN
160	1.000000	0.012798	7.3666e+06	-46639.1	955.817	-29769	0.000000	0.000000	6.012867	0.001753	NaN	0.000000	0.001614	0.001697	28.0861	0.065268	0.001189	54.8969	-158.946	16.683	-0.033968	0.011326	-1.089539	-1.091011	0.001753	54.8969	-1.089563	-3.630302E+14	-4.827704E-18	NaN
160	1.000000	0.022677	7.3666e+06	-46639.1	955.817	-29769	0.000000	0.000000	6.022748	0.032535	NaN	0.000000	0.001637	0.001681	28.0782	0.034256	0.001708	20.0547	13.0274	-161.73	-0.009740	0.021396	-1.079660	-1.080941	0.032535	20.0547	-1.080877	-2.775193E+14	-1.172367E-16	NaN
160	1.000000	0.032682	7.3666e+06	-46639.1	955.819	-29769	0.000000	0.000000	6.032751	-0.013390	NaN	0.000000	0.001608	0.001673	28.1091	0.095393	0.002011	47.4349	157.908	15.3001	-0.007811	0.031322	-1.069655	-1.071015	-0.013390	47.4349	-1.069443	-1.948520E+14	6.871802E-17	NaN
160	1.000000	0.042692	7.3666e+06	-46639.1	955.818	-29769	0.000000	0.000000	6.042762	0.029465	NaN	0.000000	0.001600	0.001709	28.1236	0.014637	0.001971	7.425457	27.4147	-164.371	0.042135	0.041367	-1.059645	-1.060970	0.029465	7.425457	-1.062622	-1.577792E+14	-1.867491E-16	NaN
160	1.000000	0.052706	7.3666e+06	-46639.1	955.818	-29769	0.000000	0.000000	6.052774	-0.032420	NaN	0.000000	0.001567	0.001683	28.0838	0.064681	0.001986	32.5627	-62.5955	18.8584	-0.094723	0.051371	-1.049631	-1.050966	-0.032420	32.5627	-1.048885	-1.031383E+14	3.143359E-16	NaN
160	1.000000	0.062694	7.3666e+06	-46639.1	955.818	-29769	0.000000	0.000000	6.062762	-0.033297	NaN	0.000000	0.001581	0.001674	28.0776	0.032902	0.001934	17.0122	-60.0466	-167.475	-0.027729	0.061383	-1.039643	-1.040954	-0.033297	17.0122	-1.038175	-7.403370E+13	4.497503E-16	NaN
160	1.000000	0.072682	7.3666e+06	-46639.1	955.818	-29769	0.000000	0.000000	6.072751	-0.013027	NaN	0.000000	0.001605	0.001663	28.1105	0.150223	0.002057	73.022	-37.1881	16.8498	-0.085542	0.071330	-1.029655	-1.031007	-0.013027	73.022	-1.029521	-5.662893E+13	2.300362E-16	NaN
160	1.000000	0.082677	7.3666e+06	-46639.1	955.818	-29769	0.000000	0.000000	6.082746	-0.011116	NaN	0.000000	0.001674	0.001654	28.1252	0.143541	0.002116	67.8236	-148.201	-166.411	-0.054811	0.081425	-1.019660	-1.020912	-0.011116	67.8236	-1.019537	-4.156437E+13	2.674421E-16	NaN
160	1.000000	0.092705	7.3666e+06	-46639.1	955.818	-29769	0.000000	0.000000	6.092772	-0.041730	NaN	0.000000	0.001635	0.001670	28.0865	0.062286	0.001828	34.0693	-81.9637	11.59	-0.030173	0.091363	-1.009632	-1.010974	-0.041730	34.0693	-1.008714	-2.972134E+13	1.404055E-15	NaN
160	1.000000	0.102726	7.3666e+06	-46639.1	955.818	-29769	0.000000	0.000000	6.102796	0.008019	NaN	0.000000	0.001628	0.001692	28.0783	0.009280	0.002087	4.447355	25.1576	-166.256	0.005207	0.101421	-0.999611	-1.000916	0.008019	4.447355	-1.000963	-2.337418E+13	-3.430601E-16	NaN
160	1.000000	0.112720	7.3666e+06	-46639.1	955.818	-29769	0.000000	0.000000	6.112788	-0.034876	NaN	0.000000	0.001632	0.001670	28.1087	0.035831	0.002015	17.778	90.1719	14.7558	-0.048252	0.111346	-0.989617	-0.990991	-0.034876	17.778	-0.988146	-1.570873E+13	2.220171E-15	NaN
160	1.000000	0.122700	7.3666e+06	-46639.1	955.817	-29769	0.000000	0.000000	6.122770	-0.005439	NaN	0.000000	0.001671	0.001668	28.1242	0.076448	0.001980	38.6179	-38.0874	-163.94	0.025993	0.121394	-0.979637	-0.980943	-0.005439	38.6179	-0.979531	-1.202519E+13	4.522764E-16	NaN
160	1.000000	0.132723	7.3666e+06	-46639.1	955.817	-29769	0.000000	0.000000	6.132793	0.002776	NaN	0.000000	0.001557	0.001666	28.086	0.098940	0.001989	49.755	-108.305	15.2723	-0.059731	0.131355	-0.969614	-0.970982	0.002776	49.755	-0.969655	-8.851532E+12	-3.135771E-16	NaN
160	1.000000	0.142767	7.3666e+06	-46639.1	955.819	-29769	0.000000	0.000000	6.142835	-0.031243	NaN	0.000000	0.001592	0.001687	28.0797	0.081973	0.001906	42.9972	154.536	-164.477	-0.052274	0.141420	-0.959570	-0.960917	-0.031243	42.9972	-0.959025	-6.363881E+12	4.909426E-15	NaN
160	1.000000	0.152791	7.3666e+06	-46639.1	955.817	-29769	0.000000	0.000000	6.152860	-0.008086	NaN	0.000000	0.001580	0.001664	28.1107	0.023544	0.002004	11.7505	-9.204329	15.981	-0.089995	0.151362	-0.949546	-0.950975	-0.008086	11.7505	-0.949030	-4.665965E+12	1.732960E-15	NaN
160	1.000000	0.162724	7.3666e+06	-46639.1	955.818	-29769	0.000000	0.000000	6.162792	-0.030184	NaN	0.000000	0.001591	0.001722	28.1267	0.032443	0.001931	16.799	-55.9849	-164.324	-0.005126	0.161432	-0.939613	-0.940906	-0.030184	16.799	-0.938265	-3.339883E+12	9.037587E-15	NaN
160	1.000000	0.172725	7.3666e+06	-46639.1	955.818	-29769	0.000000	0.000000	6.172791	-0.077105	NaN	0.000000	0.001595	0.001743	28.0869	0.047403	0.001916	24.7399	119.238	18.5452	-0.020397	0.171383	-0.929612	-0.930954	-0.077105	24.7399	-0.927275	-2.373634E+12	3.248380E-14	NaN
160	1.000000	0.182722	7.3666e+06	-46639.1	955.818	-29769	0.000000	0.000000	6.182790	-0.019117	NaN	0.000000	0.001583	0.001720	28.0808	0.026299	0.002023	12.9998	23.2673	-161.401	-0.139187	0.181416	-0.919615	-0.920921	-0.019117	12.9998	-0.918512	-1.807666E+12	1.057565E-14	NaN
160	1.000000	0.192720	7.36661e+06	-46639.1	955.818	-29769	0.000000	0.000000	6.192788	-0.032322	NaN	0.000000	0.001596	0.001745	28.1097	0.085001	0.002056	41.3405	-2.372158	16.1353	-0.036898	0.191378	-0.909617	-0.910959	-0.032322	41.3405	-0.909031	-1.346076E+12	2.401208E-14	NaN
160	1.000000	0.202742	7.36661e+06	-46639.1	955.818	-29769	0.000000	0.000000	6.202811	-0.006323	NaN	0.000000	0.001578	0.001735	28.1259	0.038844	0.001956	19.8586	-79.6481	-164.631	-0.041956	0.201408	-0.899595	-0.900929	-0.006323	19.8586	-0.899356	-9.962535E+11	6.346823E-15	NaN
160	1.000000	0.212761	7.36661e+06	-46639.1	955.818	-29769	0.000000	0.000000	6.212831	0.023676	NaN	0.000000	0.001560	0.001701	28.0856	0.073899	0.002039	36.2513	-177.786	18.5917	0.014950	0.211402	-0.889576	-0.890935	0.023676	36.2513	-0.890066	-7.461192E+11	-3.173168E-14	NaN
160	1.000000	0.222776	7.36661e+06	-46639.1	955.818	-29769	0.000000	0.000000	6.222841	-0.121487	NaN	0.000000	0.001574	0.001680	28.0808	0.067895	0.001932	35.1476	-171.194	-165.649	-0.065999	0.221471	-0.879561	-0.880866	-0.121487	35.1476	-0.876968	-4.962579E+11	2.448071E-13	NaN
160	1.000000	0.232767	7.36661e+06	-46639.1	955.818	-29769	0.000000	0.000000	6.232836	0.010946	NaN	0.000000	0.001596	0.001736	28.1103	0.077606	0.001992	38.9577	141.024	15.2272	0.008398	0.231400	-0.869570	-0.870937	0.010946	38.9577	-0.869781	-3.967184E+11	-2.759202E-14	NaN
160	1.000000	0.242786	7.36661e+06	-46639.1	955.818	-29769	0.000000	0.000000	6.242854	-0.019275	NaN	0.000000	0.001562	0.001747	28.1277	0.144161	0.002113	68.2266	139.279	-163.059	0.002078	0.241472	-0.859551	-0.860865	-0.019275	68.2266	-0.859340	-2.865372E+11	6.727048E-14	NaN
160	1.000000	0.252769	7.36661e+06	-46639.1	955.817	-29769	0.000000	0.000000	6.252838	0.011339	NaN	0.000000	0.001597	0.001682	28.0875	0.108773	0.002169	50.1381	-88.8183	14.0174	0.024173	0.251371	-0.849568	-0.850966	0.011339	50.1381	-0.849738	-2.124174E+11	-5.338292E-14	NaN
160	1.000000	0.262763	7.36661e+06	-46639.1	955.817	-29769	0.000000	0.000000	6.262831	-0.038178	NaN	0.000000	0.001579	0.001706	28.0814	0.024971	0.002016	12.3842	-144.788	-165.211	-0.028499	0.261507	-0.839574	-0.840830	-0.038178	12.3842	-0.837262	-1.439446E+11	2.652258E-13	NaN
160	1.000000	0.272778	7.36661e+06	-46639.1	955.818	-29769	0.000000	0.000000	6.272846	-0.030188	NaN	0.000000	0.001612	0.001710	28.109	0.062258	0.001918	32.4657	55.3301	18.4457	-0.067512	0.271471	-0.829559	-0.830866	-0.030188	32.4657	-0.828861	-1.107515E+11	2.725705E-13	NaN
160	1.000000	0.282769	7.36661e+06	-46639.1	955.818	-29769	0.000000	0.000000	6.282835	-0.069224	NaN	0.000000	0.001620	0.001696	28.1261	0.042045	0.002097	20.0487	8.379227	-169.167	-0.088224	0.281507	-0.819568	-0.820830	-0.069224	20.0487	-0.816979	-7.642517E+10	9.057747E-13	NaN
160	1.000000	0.292798	7.36661e+06	-46639.1	955.818	-29769	0.000000	0.000000	6.292868	0.025857	NaN	0.000000	0.001574	0.001710	28.0847	0.053337	0.001885	28.2949	-91.9188	14.1833	0.070810	0.291462	-0.809539	-0.810875	0.025857	28.2949	-0.810225	-6.189002E+10	-4.177876E-13	NaN
160	1.000000	0.302797	7.36661e+06	-46639.1	955.819	-29769	0.000000	0.000000	6.302864	-0.058174	NaN	0.000000	0.001597	0.001739	28.0814	0.067082	0.001934	34.6831	111.043	-161.663	-0.105755	0.301485	-0.799540	-0.800852	-0.058174	34.6831	-0.798282	-4.261295E+10	1.365174E-12	NaN
160	1.000000	0.312806	7.36661e+06	-46639.1	955.817	-29769	0.000000	0.000000	6.312874	-0.049764	NaN	0.000000	0.001548	0.001779	28.1084	0.087996	0.001900	46.3183	35.0779	15.3252	0.056167	0.311404	-0.789531	-0.790933	-0.049764	46.3183	-0.788725	-3.160557E+10	1.574528E-12	NaN
160	1.000000	0.322826	7.36661e+06	-46639.1	955.819	-29769	0.000000	0.000000	6.322894	-0.047375	NaN	0.000000	0.001600	0.001793	28.1257	0.076177	0.001998	38.1311	179.613	-164.864	-0.033905	0.321496	-0.779511	-0.780841	-0.047375	38.1311	-0.778579	-2.301017E+10	2.058866E-12	NaN
160	1.000000	0.332818	7.36661e+06	-46639.1	955.817	-29769	0.000000	0.000000	6.332886	-0.041286	NaN	0.000000	0.001563	0.001744	28.0868	0.005330	0.001881	2.833283	-33.6798	14.4509	-0.033045	0.331411	-0.769519	-0.770926	-0.041286	2.833283	-0.758590	-1.230601E+10	3.354981E-12	NaN
160	1.000000	0.342809	7.36661e+06	-46639.1	955.818	-29769	0.000000	0.000000	6.342879	0.031808	NaN	0.000000	0.001599	0.001719	28.0797	0.042669	0.002008	21.2486	169.247	-164.044	-0.106843	0.341487	-0.759528	-0.760850	0.031808	21.2486	-0.760651	-1.312680E+10	-2.423155E-12	NaN
160	1.000000	0.352839	7.36661e+06	-46639.1	955.817	-29769	0.000000	0.000000	6.352907	-0.019269	NaN	0.000000	0.001562	0.001747	28.1074	0.052652	0.002061	25.5441	-103.52	13.6194	-0.005675	0.351409	-0.749498	-0.750928	-0.019269	25.5441	-0.748932	-9.092596E+9	2.119152E-12	NaN
160	1.000000	0.362823	7.36661e+06	-46639.1	955.818	-29769	0.000000	0.000000	6.362891	-0.040580	NaN	0.000000	0.001553	0.001765	28.1251	0.050498	0.002009	25.1419	88.5981	-166.831	-0.025519	0.361452	-0.739514	-0.740885	-0.040580	25.1419	-0.738304	-6.515517E+9	6.228268E-12	NaN
160	1.000000	0.372796	7.36661e+06	-46639.1	955.818	-29769	0.000000	0.000000	6.372861	-0.099763	NaN	0.000000	0.001552	0.001763	28.086	0.051780	0.002136	24.2396	-12.0723	16.7426	-0.087509	0.371415	-0.729541	-0.730922	-0.099763	24.2396	-0.726455	-4.492446E+9	2.220679E-11	NaN
160	1.000000	0.382845	7.36661e+06	-46639.1	955.818	-29769	0.000000	0.000000	6.382909	-0.122946	NaN	0.000000	0.001589	0.001767	28.0787	0.056096	0.001934	29.006	168.955	-162.78	-0.109890	0.381529	-0.719492	-0.720808	-0.122946	29.006	-0.716313	-3.267257E+9	3.762971E-11	NaN
160	1.000000	0.392836	7.36661e+06	-46639.1	955.818	-29769	0.000000	0.000000	6.392902	-0.076699	NaN	0.000000	0.001551	0.001756	28.1081	0.022514	0.001974	11.4064	-128.131	16.5582	0.026144	0.391447	-0.709502	-0.710890	-0.076699	11.4064	-0.704458	-2.251164E+9	3.407077E-11	NaN
160	1.000000	0.402840	7.36661e+06	-46639.1	955.817	-29769	0.000000	0.000000	6.402908	-0.049247	NaN	0.000000	0.001600	0.001781	28.1263	0.045284	0.002101	21.552	-56.5905	-166.9	-0.039260	0.401486	-0.699497	-0.700851	-0.049247	21.552	-0.697783	-1.824955E+9	2.698523E-11	NaN
160	1.000000	0.412829	7.36661e+06	-46639.1	955.818	-29769	0.000000	0.000000	6.412895	-0.070408	NaN	0.000000	0.001624	0.001761	28.0871	0.037648	0.002178	17.2859	-10.9793	14.7414	-0.061398	0.411480	-0.689508	-0.690857	-0.070408	17.2859	-0.686453	-1.277733E+9	5.510415E-11	NaN
160	1.000000	0.422847	7.36661e+06	-46639.1	955.819	-29769	0.000000	0.000000	6.422918	0.026990	NaN	0.000000	0.001564	0.001766	28.0799	0.126143	0.002013	62.6635	-175.047	-166.953	0.004979	0.421554	-0.679490	-0.680783	0.026990	62.6635	-0.679813	-1.036675E+9	-2.603489E-11	NaN
160	1.000000	0.432834	7.36661e+06	-46639.1	955.818	-29769	0.000000	0.000000	6.432903	0.003598	NaN	0.000000	0.001557	0.001783	28.1085	0.037543	0.002051	18.3017	143.484	15.2305	-0.002955	0.431467	-0.669503	-0.670870	0.003598	18.3017	-0.669650	-7.526727E+8	-4.779823E-12	NaN
160	1.000000	0.442830	7.36661e+06	-46639.1	955.817	-29769	0.000000	0.000000	6.442899	-0.007336	NaN	0.000000	0.001586	0.001731	28.1263	0.058568	0.001956	29.9385	-50.9985	-168.513	0.032047	0.441587	-0.659507	-0.660750	-0.007336	29.9385	-0.659323	-5.435030E+8	1.349810E-11	NaN
160	1.000000	0.452866	7.36661e+06	-46639.1	955.818	-29769	0.000000	0.000000	6.452930	-0.127072	NaN	0.000000	0.001574	0.001711	28.0867	0.127291	0.002066	61.6086	140.918	14.5049	0.017450	0.451505	-0.649471	-0.650832	-0.127072	61.6086	-0.647924	-3.792930E+8	3.350233E-10	NaN
160	1.000000	0.462874	7.36661e+06	-46639.1	955.818	-29769	0.000000	0.000000	6.462945	0.052033	NaN	0.000000	0.001605	0.001749	28.0793	0.026902	0.002074	12.9701	-169.466	-165.168	0.045617	0.461510	-0.639463	-0.640827	0.052033	12.9701	-0.642472	-3.193037E+8	-1.629567E-10	NaN
160	1.000000	0.472870	7.36661e+06	-46639.1	955.818	-29769	0.000000	0.000000	6.472939	-0.006353	NaN	0.000000	0.001590	0.001740	28.1096	0.140568	0.001918	73.2967	90.9615	13.1076	-0.009662	0.471530	-0.629467	-0.630807	-0.006353	73.2967	-0.629402	-2.112593E+8	3.007008E-11	NaN
160	1.000000	0.482838	7.36661e+06	-46639.1	955.817	-29769	0.000000	0.000000	6.482909	0.041855	NaN	0.000000	0.001582	0.001715	28.1278	0.015207	0.002076	7.324064	-154.767	-162.186	0.012517	0.481558	-0.619499	-0.620779	0.041855	7.324064	-0.623785	-1.768684E+8	-2.366476E-10	NaN
160	1.000000	0.492870	7.36661e+06	-46639.1	955.818	-29769	0.000000	0.000000	6.492941	0.018914	NaN	0.000000	0.001549	0.001716	28.0884	0.071213	0.002026	35.1445	-98.3848	13.5391	-0.043824	0.491519	-0.609467	-0.610818	0.018914	35.1445	-0.609870	-1.138490E+8	-1.661364E-10	NaN
160	1.000000	0.502872	7.36661e+06	-46639.1	955.818	-29769	0.000000	0.000000	6.502940	-0.036197	NaN	0.000000	0.001581	0.001724	28.0808	0.091098	0.001984	45.9276	-87.9049	-163.061	-0.056549	0.501578	-0.599465	-0.600759	-0.036197	45.9276	-0.598874	-8.034427E+7	4.505276E-10	NaN
160	1.000000	0.512903	7.36661e+06	-46639.1	955.818	-29769	0.000000	0.000000	6.512972	-0.014523	NaN	0.000000	0.001573	0.001742	28.1078	0.016430	0.002025	8.111925	-75.9811	13.0923	-0.029104	0.511502	-0.589434	-0.590835	-0.014523	8.111925	-0.588091	-5.706156E+7	2.545135E-10	NaN
160	1.000000	0.522889	7.36661e+06	-46639.1	955.818	-29769	0.000000	0.000000	6.522957	-0.022700	NaN	0.000000	0.001598	0.001734	28.1269	0.132284	0.002046	64.6506	-141.819	-162.785	0.036500	0.521565	-0.579448	-0.580772	-0.022700	64.6506	-0.579185	-4.300042E+7	5.278986E-10	NaN
160	1.000000	0.532876	7.36661e+06	-46639.1	955.817	-29769	0.000000	0.000000	6.532943	-0.039918	NaN	0.000000	0.001588	0.001730	28.0873	0.016216	0.002056	7.885645	-56.2078	14.4247	-0.088075	0.531546	-0.569461	-0.570791	-0.039918	7.885645	-0.565665	-2.797149E+7	1.427113E-9	NaN
160	1.000000	0.542865	7.36661e+06	-46639.1	955.818	-29769	0.000000	0.000000	6.542933	-0.055838	NaN	0.000000	0.001581	0.001725	28.0797	0.057963	0.001954	29.6602	-162.765	-164.876	-0.033389	0.541575	-0.559472	-0.560763	-0.055838	29.6602	-0.558060	-2.195493E+7	2.543280E-9	NaN
160	1.000000	0.552903	7.36661e+06	-46639.1	955.818	-29769	0.000000	0.000000	6.552970	-0.065238	NaN	0.000000	0.001593	0.001765	28.1093	0.034823	0.002072	16.8046	2.466537	15.7369	0.020878	0.551507	-0.549434	-0.550830	-0.065238	16.8046	-0.546522	-1.519763E+7	4.292635E-9	NaN
160	1.000000	0.562911	7.36661e+06	-46639.1	955.819	-29769	0.000000	0.000000	6.562979	-0.010282	NaN	0.000000	0.001628	0.001746	28.127	0.050353	0.002052	24.5372	44.7648	-164.18	-0.022471	0.561534	-0.539426	-0.540803	-0.010282	24.5372	-0.539112	-1.199622E+7	8.570924E-10	NaN
160	1.000000	0.572901	7.36661e+06	-46639.1	955.818	-29769	0.000000	0.000000	6.572970	-0.002478	NaN	0.000000	0.001602	0.001784	28.0866	0.046211	0.001940	23.8209	171.904	18.3446	-0.033169	0.571518	-0.529436	-0.530819	-0.002478	23.8209	-0.529358	-8.78334e+06	2.821152E-10	NaN
160	1.000000	0.582920	7.36661e+06	-46639.1	955.818	-29769	0.000000	0.000000	6.582987	-0.047818	NaN	0.000000	0.001580	0.001766	28.0796	0.089169	0.002079	42.8808	96.3521	-164.283	-0.112035	0.581533	-0.519417	-0.520804	-0.047818	42.8808	-0.518581	-6.22099e+06	7.686635E-9	NaN
160	1.000000	0.592929	7.36661e+06	-46639.1	955.818	-29769	0.000000	0.000000	6.592997	-0.036313	NaN	0.000000	0.001629	0.001763	28.1064	0.057042	0.002045	27.8906	-152.069	13.186	0.035029	0.591599	-0.509408	-0.510738	-0.036313	27.8906	-0.508431	-4.49328e+06	8.081620E-9	NaN
160	1.000000	0.602886	7.36661e+06	-46639.1	955.818	-29769	0.000000	0.000000	6.602952	-0.084703	NaN	0.000000	0.001623	0.001759	28.126	0.040335	0.002038	19.7929	-163.852	-159.755	0.013625	0.601551	-0.499451	-0.500786	-0.084703	19.7929	-0.496242	-3.03786e+06	2.788255E-8	NaN
160	1.000000	0.612927	7.36661e+06	-46639.1	955.818	-29769	0.000000	0.000000	6.612995	-0.029258	NaN	0.000000	0.001624	0.001749	28.0857	0.034803	0.001967	17.6975	57.2004	12.5579	-0.011819	0.611596	-0.489410	-0.490741	-0.029258	17.6975	-0.488170	-2.34327e+06	1.248616E-8	NaN
160	1.000000	0.622935	7.36661e+06	-46639.1	955.818	-29769	0.000000	0.000000	6.622998	-0.132723	NaN	0.000000	0.001621	0.001724	28.0788	0.087231	0.002056	42.428	-108.198	-163.15	-0.068632	0.621606	-0.479402	-0.480731	-0.132723	42.428	-0.477056	-1.63797e+06	8.102899E-8	NaN
160	1.000000	0.632966	7.36661e+06	-46639.1	955.819	-29769	0.000000	0.000000	6.633034	-0.043267	NaN	0.000000	0.001598	0.001735	28.108	0.044631	0.001981	22.5312	85.2771	14.7033	-0.100662	0.631582	-0.469371	-0.470755	-0.043267	22.5312	-0.467931	-1.22005e+06	3.546344E-8	NaN
160	1.000000	0.642905	7.36661e+06	-46639.1	955.817	-29769	0.000000	0.000000	6.642971	-0.083763	NaN	0.000000	0.001595	0.001742	28.1269	0.069810	0.002049	34.0655	-111.701	-166.457	-0.056526	0.641583	-0.459432	-0.460754	-0.083763	34.0655	-0.457588	-873202	9.592582E-8	NaN
160	1.000000	0.652937	7.36661e+06	-46639.1	955.818	-29769	0.000000	0.000000	6.653004	-0.064777	NaN	0.000000	0.001561	0.001757	28.0851	0.089272	0.001850	48.2441	-2.726015	12.533	-0.083486	0.651565	-0.449400	-0.450772	-0.064777	48.2441	-0.448393	-648199	9.993306E-8	NaN
160	1.000000	0.662961	7.36661e+06	-46639.1	955.819	-29769	0.000000	0.000000	6.663029	-0.034965	NaN	0.000000	0.001563	0.001726	28.0793	0.129383	0.002129	60.7808	150.847	-162.594	-0.121375	0.661610	-0.439376	-0.440727	-0.034965	60.7808	-0.438944	-476941	7.331066E-8	NaN
160	1.000000	0.672944	7.36661e+06	-46639.1	955.818	-29769	0.000000	0.000000	6.673011	-0.051916	NaN	0.000000	0.001550	0.001704	28.1058	0.084177	0.002028	41.5066	126.853	15.4555	-0.011330	0.671589	-0.429393	-0.430749	-0.051916	41.5066	-0.428455	-338998	1.531450E-7	NaN
160	1.000000	0.682943	7.36661e+06	-46639.1	955.818	-29769	0.000000	0.000000	6.683009	-0.061791	NaN	0.000000	0.001565	0.001710	28.1259	0.074713	0.002013	37.1078	132.808	-166.567	-0.045898	0.681631	-0.419394	-0.420706	-0.061791	37.1078	-0.418146	-242163	2.551626E-7	NaN
160	1.000000	0.692967	7.36661e+06	-46639.1	955.818	-29769	0.000000	0.000000	6.693034	-0.079413	NaN	0.000000	0.001590	0.001704	28.0871	0.052092	0.002074	25.1228	-92.6719	14.6251	-0.037658	0.691607	-0.409370	-0.410730	-0.079413	25.1228	-0.406999	-168153	4.722640E-7	NaN
160	1.000000	0.702961	7.36661e+06	-46639.1	955.817	-29769	0.000000	0.000000	6.703030	-0.014977	NaN	0.000000	0.001572	0.001706	28.08	0.046180	0.002145	21.5277	-154.141	-166.602	-0.044232	0.701642	-0.399376	-0.400695	-0.014977	21.5277	-0.398854	-128720	1.163509E-7	NaN
160	1.000000	0.712935	7.36661e+06	-46639.1	955.818	-29769	0.000000	0.000000	6.713002	-0.057842	NaN	0.000000	0.001590	0.001684	28.1081	0.031363	0.001937	16.1878	7.837055	15.0447	-0.087239	0.711613	-0.389402	-0.390724	-0.057842	16.1878	-0.386722	-86348.3	6.698653E-7	NaN
160	1.000000	0.722971	7.36661e+06	-46639.1	955.819	-29769	0.000000	0.000000	6.723040	0.002799	NaN	0.000000	0.001611	0.001705	28.1285	0.056187	0.002007	28.0025	-40.2777	-165.174	-0.037692	0.721629	-0.379366	-0.380708	0.002799	28.0025	-0.379441	-67900.3	-4.122792E-8	NaN
160	1.000000	0.732966	7.36661e+06	-46639.1	955.817	-29769	0.000000	0.000000	6.733032	-0.072844	NaN	0.000000	0.001568	0.001699	28.0892	0.014035	0.002036	6.893640	-170.34	13.0126	-0.027638	0.731625	-0.369371	-0.370712	-0.072844	6.893640	-0.361446	-37389.3	1.948268E-6	NaN
160	1.000000	0.742988	7.36661e+06	-46639.1	955.818	-29769	0.000000	0.000000	6.743056	-0.024803	NaN	0.000000	0.001604	0.001719	28.0817	0.010798	0.001882	5.738569	93.2597	-166.206	-0.050773	0.741661	-0.359349	-0.360676	-0.024803	5.738569	-0.356108	-31299.5	7.924550E-7	NaN
160	1.000000	0.752967	7.36661e+06	-46639.1	955.818	-29769	0.000000	0.000000	6.753033	-0.089959	NaN	0.000000	0.001592	0.001687	28.1068	0.035520	0.002115	16.7907	-96.0531	17.851	-0.097103	0.751614	-0.349370	-0.350723	-0.089959	16.7907	-0.345351	-21850.7	4.116974E-6	NaN
160	1.000000	0.762976	7.36661e+06	-46639.1	955.817	-29769	0.000000	0.000000	6.763043	-0.077141	NaN	0.000000	0.001580	0.001700	28.1276	0.037511	0.001945	19.285	114.358	-162.921	-0.025513	0.761633	-0.339361	-0.340704	-0.077141	19.285	-0.336361	-16160.7	4.773378E-6	NaN
160	1.000000	0.772984	7.36661e+06	-46639.1	955.818	-29769	0.000000	0.000000	6.773051	-0.059404	NaN	0.000000	0.001567	0.001685	28.0873	0.029587	0.001975	14.9772	110.187	15.4005	-0.027170	0.771669	-0.329353	-0.330668	-0.059404	14.9772	-0.326379	-11544.4	5.145701E-6	NaN
160	1.000000	0.782989	7.36661e+06	-46639.1	955.819	-29769	0.000000	0.000000	6.783055	-0.076349	NaN	0.000000	0.001584	0.001698	28.0798	0.045978	0.002071	22.2033	73.1704	-166.631	-0.051502	0.781685	-0.319348	-0.320652	-0.076349	22.2033	-0.316770	-8337.76	9.157074E-6	NaN
160	1.000000	0.792990	7.36661e+06	-46639.1	955.818	-29769	0.000000	0.000000	6.793057	-0.061417	NaN	0.000000	0.001561	0.001716	28.1069	0.041179	0.002026	20.3208	-3.722734	14.7664	-0.087181	0.791637	-0.309347	-0.310700	-0.061417	20.3208	-0.307080	-5995.29	1.024427E-5	NaN
160	1.000000	0.802977	7.36661e+06	-46639.1	955.818	-29769	0.000000	0.000000	6.803046	0.010425	NaN	0.000000	0.001538	0.001676	28.1288	0.085654	0.002015	42.5037	-88.9177	-164.047	-0.047218	0.801716	-0.299360	-0.300621	0.010425	42.5037	-0.299544	-4632.89	-2.250125E-6	NaN
160	1.000000	0.812996	7.36661e+06	-46639.1	955.819	-29769	0.000000	0.000000	6.813061	-0.093491	NaN	0.000000	0.001583	0.001711	28.0894	0.051943	0.002032	25.558	-79.8551	15.5926	-0.025455	0.811662	-0.289341	-0.290675	-0.093491	25.558	-0.286598	-2966.68	3.151363E-5	NaN
160	1.000000	0.822989	7.36661e+06	-46639.1	955.816	-29769	0.000000	0.000000	6.823057	-0.022513	NaN	0.000000	0.001573	0.001694	28.081	0.122442	0.002092	58.5267	-110.582	-164.195	-0.093025	0.821688	-0.279348	-0.280649	-0.022513	58.5267	-0.279060	-2284.45	9.854724E-6	NaN
160	1.000000	0.833030	7.36661e+06	-46639.1	955.818	-29769	0.000000	0.000000	6.833101	0.040783	NaN	0.000000	0.001605	0.001656	28.1061	0.049547	0.001982	25.0015	-113.807	15.1283	0.001686	0.831614	-0.269307	-0.270723	0.040783	25.0015	-0.270531	-1696.73	-2.403620E-5	NaN
160	1.000000	0.843001	7.36661e+06	-46639.1	955.818	-29769	0.000000	0.000000	6.843069	-0.035056	NaN	0.000000	0.001597	0.001697	28.1275	0.157881	0.002062	76.5544	-160.188	-163.19	-0.033664	0.841692	-0.259336	-0.260645	-0.035056	76.5544	-0.258992	-1131.01	3.099512E-5	NaN
160	1.000000	0.853034	7.36661e+06	-46639.1	955.818	-29769	0.000000	0.000000	6.853102	-0.032249	NaN	0.000000	0.001591	0.001687	28.0874	0.046171	0.002040	22.6327	-63.2669	17.867	-0.028379	0.851642	-0.249303	-0.250695	-0.032249	22.6327	-0.248234	-772.034	4.177207E-5	NaN
160	1.000000	0.862992	7.36661e+06	-46639.1	955.818	-29769	0.000000	0.000000	6.863059	-0.059713	NaN	0.000000	0.001587	0.001662	28.0802	0.113399	0.001993	56.9048	-96.7033	-163.059	-0.057107	0.861729	-0.239345	-0.240608	-0.059713	56.9048	-0.238558	-545.766	0.000109	NaN
160	1.000000	0.873026	7.36661e+06	-46639.1	955.818	-29769	0.000000	0.000000	6.873093	-0.037692	NaN	0.000000	0.001571	0.001667	28.1058	0.162035	0.001953	82.9755	147.166	15.9408	-0.053663	0.871644	-0.229311	-0.230693	-0.037692	82.9755	-0.228971	-385.706	9.772245E-5	NaN
160	1.000000	0.883067	7.36661e+06	-46639.1	955.818	-29769	0.000000	0.000000	6.883138	0.040522	NaN	0.000000	0.001563	0.001695	28.1284	0.006818	0.002044	3.335898	-63.0414	-165.536	-0.026061	0.881743	-0.219270	-0.220594	0.040522	3.335898	-0.228380	-377.498	-0.000107	NaN
160	1.000000	0.893021	7.36661e+06	-46639.1	955.818	-29769	0.000000	0.000000	6.893089	-0.022364	NaN	0.000000	0.001585	0.001698	28.0885	0.073172	0.002078	35.2198	-135.165	16.413	-0.037983	0.891689	-0.209316	-0.210648	-0.022364	35.2198	-0.208840	-183.661	0.000122	NaN
160	1.000000	0.903037	7.36661e+06	-46639.1	955.818	-29769	0.000000	0.000000	6.903105	-0.045163	NaN	0.000000	0.001605	0.001679	28.0792	0.074282	0.002020	36.7747	-11.3467	-170.313	-0.055567	0.901757	-0.199300	-0.200580	-0.045163	36.7747	-0.198379	-123.886	0.000365	NaN
160	1.000000	0.913052	7.36661e+06	-46639.1	955.819	-29769	0.000000	0.000000	6.913121	-0.031325	NaN	0.000000	0.001589	0.001721	28.1052	0.042444	0.001943	21.8435	109.822	13.839	-0.058747	0.911729	-0.189285	-0.190608	-0.031325	21.8435	-0.188209	-83.9579	0.000373	NaN
160	1.000000	0.923045	7.36661e+06	-46639.1	955.818	-29769	0.000000	0.000000	6.923112	-0.053156	NaN	0.000000	0.001562	0.001689	28.1269	0.044584	0.001864	23.9201	-28.8131	-161.769	-0.016805	0.921695	-0.179292	-0.180642	-0.053156	23.9201	-0.177625	-55.5865	0.000956	NaN
160	1.000000	0.933082	7.36661e+06	-46639.1	955.818	-29769	0.000000	0.000000	6.933150	-0.036253	NaN	0.000000	0.001604	0.001704	28.0869	0.024578	0.001991	12.3471	48.5468	16.2852	-0.045621	0.931697	-0.169255	-0.170640	-0.036253	12.3471	-0.167053	-36.4985	0.000993	NaN
160	1.000000	0.943058	7.36661e+06	-46639.1	955.819	-29769	0.000000	0.000000	6.943126	-0.028398	NaN	0.000000	0.001564	0.001632	28.0786	0.064879	0.002150	30.1828	1.295743	-168.121	-0.000162	0.941726	-0.159279	-0.160612	-0.028398	30.1828	-0.158573	-25.8575	0.001098	NaN
160	1.000000	0.953070	7.36661e+06	-46639.1	955.818	-29769	0.000000	0.000000	6.953141	0.025579	NaN	0.000000	0.001585	0.001655	28.1062	0.028711	0.001917	14.9751	-11.0903	15.9359	0.033568	0.951755	-0.149267	-0.150582	0.025579	14.9751	-0.150548	-18.5348	-0.001380	NaN
160	1.000000	0.963032	7.36661e+06	-46639.1	955.819	-29769	0.000000	0.000000	6.963100	-0.036969	NaN	0.000000	0.001530	0.001677	28.1278	0.080431	0.002086	38.5516	-3.725449	-164.436	-0.010256	0.961710	-0.139305	-0.140627	-0.036969	38.5516	-0.138586	-11.126	0.003323	NaN
160	1.000000	0.973055	7.36661e+06	-46639.1	955.817	-29769	0.000000	0.000000	6.973123	-0.037478	NaN	0.000000	0.001554	0.001674	28.0886	0.019719	0.001954	10.0916	-162.832	14.7943	-0.134057	0.971694	-0.129282	-0.130643	-0.037478	10.0916	-0.126496	-6.509087	0.005758	NaN
160	1.000000	0.983085	7.36661e+06	-46639.1	955.818	-29769	0.000000	0.000000	6.983150	-0.094065	NaN	0.000000	0.001580	0.001676	28.0788	0.041742	0.001893	22.0535	30.3342	-166.635	-0.002181	0.981741	-0.119252	-0.120596	-0.094065	22.0535	-0.116053	-4.015725	0.023424	NaN
160	1.000000	0.993097	7.36661e+06	-46639.1	955.818	-29769	0.000000	0.000000	6.993167	0.029759	NaN	0.000000	0.001544	0.001674	28.1042	0.018272	0.002085	8.763841	-65.1026	11.9732	0.001862	0.991671	-0.109240	-0.110666	0.029759	8.763841	-0.111787	-3.276377	-0.009083	NaN
160	1.000000	1.003053	7.36661e+06	-46639.1	955.819	-29769	0.000000	0.000000	7.003120	-0.069112	NaN	0.000000	0.001475	0.001642	28.1278	0.085812	0.001918	44.7373	108.996	-163.987	-0.063744	1.001811	-0.099284	-0.100526	-0.069112	44.7373	-0.098125	-1.659602	0.041644	NaN
160	1.000000	1.013101	7.36661e+06	-46639.1	955.818	-29769	0.000000	0.000000	7.013170	-0.029853	NaN	0.000000	0.001530	0.001688	28.0877	0.022978	0.001906	12.0538	61.5325	15.7201	0.034267	1.011733	-0.089236	-0.090604	-0.029853	12.0538	-0.087378	-0.937138	0.031856	NaN
160	1.000000	1.023127	7.36661e+06	-46639.1	955.818	-29769	0.000000	0.000000	7.023195	-0.023099	NaN	0.000000	0.001570	0.001674	28.08	0.049167	0.001985	24.7702	80.4745	-162.699	-0.072473	1.021787	-0.079210	-0.080550	-0.023099	24.7702	-0.078511	-0.567886	0.040676	NaN
160	1.000000	1.033102	7.36661e+06	-46639.1	955.818	-29769	0.000000	0.000000	7.033168	-0.097541	NaN	0.000000	0.001582	0.001704	28.1066	0.087376	0.001941	45.0188	48.6306	13.1473	-0.073599	1.031735	-0.069235	-0.070602	-0.097541	45.0188	-0.067610	-0.293978	0.331797	NaN
160	1.000000	1.043074	7.36661e+06	-46639.1	955.818	-29769	0.000000	0.000000	7.043140	-0.072244	NaN	0.000000	0.001565	0.001685	28.1301	0.073897	0.002073	35.6495	-138.915	-166.049	-0.136664	1.041823	-0.059263	-0.060514	-0.072244	35.6495	-0.057743	-0.154988	0.466124	NaN
160	1.000000	1.053093	7.36661e+06	-46639.1	955.818	-29769	0.000000	0.000000	7.053160	-0.054628	NaN	0.000000	0.001557	0.001696	28.0908	0.056837	0.002016	28.1879	57.4265	12.5032	-0.040841	1.051723	-0.049244	-0.050614	-0.054628	28.1879	-0.047790	-0.078193	0.698623	NaN
160	1.000000	1.063078	7.36661e+06	-46639.1	955.818	-29769	0.000000	0.000000	7.063143	-0.115568	NaN	0.000000	0.001539	0.001726	28.0809	0.129727	0.002060	62.975	-175.15	-166.552	-0.108066	1.061775	-0.039259	-0.040562	-0.115568	62.975	-0.037883	-0.039024	2.961454	NaN
160	1.000000	1.073117	7.36661e+06	-46639.1	955.819	-29769	0.000000	0.000000	7.073183	-0.079832	NaN	0.000000	0.001556	0.001691	28.1057	0.079558	0.001974	40.3041	108.431	15.3738	-0.042373	1.071788	-0.029220	-0.030549	-0.079832	40.3041	-0.027735	-0.019942	4.003159	NaN
160	1.000000	1.083092	7.36661e+06	-46639.1	955.818	-29769	0.000000	0.000000	7.083159	-0.039459	NaN	0.000000	0.001558	0.001668	28.1284	0.041069	0.002016	20.3672	-165.784	-162.919	0.009093	1.081797	-0.019246	-0.020540	-0.039459	20.3672	-0.017792	-0.011025	3.579010	NaN
160	1.000000	1.093109	7.36661e+06	-46639.1	955.818	-29769	0.000000	0.000000	7.093178	-0.008156	NaN	0.000000	0.001545	0.001708	28.0895	0.067167	0.002007	33.4689	146.379	11.2725	-0.009217	1.091740	-0.009228	-0.010597	-0.008156	33.4689	-0.009045	-0.005839	1.396713	NaN
160	1.000000	1.103110	7.36661e+06	-46639.1	955.819	-29769	0.000000	0.000000	7.103195	0.399198	NaN	0.000000	0.001570	0.001699	28.0803	0.879692	0.001918	458.667	-1.128227	-165.648	0.035777	1.101855	0.000773	-0.000482	0.399198	458.667	0.000120	8.979671E-5	4445.58	44222.2
160	2.000000	1.111259	7.36661e+06	-46639.1	955.819	-29769	0.000000	0.000000	7.111668	8.253686	NaN	0.000000	0.001569	0.001674	28.1052	7.968983	0.001625	4905.48	8.576356	8.736858	8.180559	1.110906	0.008922	0.008569	8.253686	4905.48	0.007660	0.006695	1232.83	54775.1
160	2.000000	1.113716	7.36661e+06	-46639.1	955.818	-29769	0.000000	0.000000	7.114235	10.9204	NaN	0.000000	0.001587	0.001688	28.1285	10.8185	0.001830	5912.79	7.046972	-171.385	10.318	1.113413	0.011379	0.011076	10.9204	5912.79	0.009994	0.009175	1190.24	56398.1
160	2.000000	1.116224	7.36661e+06	-46639.1	955.819	-29769	0.000000	0.000000	7.116931	15.5095	NaN	0.000000	0.001600	0.001636	28.0895	13.608	0.001693	8035.52	4.638755	8.614115	14.5126	1.115863	0.013887	0.013526	15.5095	8035.52	0.012439	0.012020	1290.29	66962.6
160	2.000000	1.118681	7.36661e+06	-46639.1	955.819	-29769	0.000000	0.000000	7.119519	18.6977	NaN	0.000000	0.001577	0.001631	28.0798	15.3324	0.001686	9092.03	4.880627	-173.465	17.0054	1.118360	0.016344	0.016023	18.6977	9092.03	0.014802	0.015022	1244.71	67775.6
160	2.000000	1.121181	7.36661e+06	-46639.1	955.818	-29769	0.000000	0.000000	7.122178	22.5567	NaN	0.000000	0.001597	0.001657	28.1031	17.9385	0.001819	9861.03	5.574684	5.545529	21.0779	1.120858	0.018844	0.018521	22.5567	9861.03	0.017128	0.018229	1237.4	66728.7
160	2.000000	1.123655	7.36661e+06	-46639.1	955.819	-29769	0.000000	0.000000	7.125009	31.238	NaN	0.000000	0.001624	0.001656	28.1278	20.7075	0.001683	12305.1	3.020074	-174.915	29.7892	1.123387	0.021318	0.021050	31.238	12305.1	0.019414	0.021630	1444.17	76441
160	2.000000	1.126189	7.36661e+06	-46639.1	955.818	-29769	0.000000	0.000000	7.127759	36.5115	NaN	0.000000	0.001589	0.001657	28.0888	22.9034	0.001786	12826.8	7.939262	0.983978	34.7395	1.125779	0.023852	0.023442	36.5115	12826.8	0.021717	0.025313	1442.41	73658.4
160	2.000000	1.128640	7.36661e+06	-46639.1	955.818	-29769	0.000000	0.000000	7.130482	43.105	NaN	0.000000	0.001613	0.001658	28.0783	25.2099	0.001780	14160.7	4.410439	-176.968	42.52	1.128344	0.026303	0.026007	43.105	14160.7	0.024020	0.029258	1473.29	75637.7
160	2.000000	1.131172	7.36661e+06	-46639.1	955.819	-29769	0.000000	0.000000	7.133189	47.3749	NaN	0.000000	0.001606	0.001644	28.104	27.6496	0.001787	15473.1	6.034839	1.822935	48.2556	1.130860	0.028835	0.028523	47.3749	15473.1	0.026538	0.033874	1398.57	76810.3
160	2.000000	1.133668	7.36661e+06	-46639.1	955.818	-29769	0.000000	0.000000	7.136232	60.6851	NaN	0.000000	0.001607	0.001653	28.129	30.5498	0.001835	16644	3.821559	-178.073	60.3608	1.133333	0.031331	0.030996	60.6851	16644	0.028596	0.037885	1601.84	78126.7
160	2.000000	1.136184	7.36661e+06	-46639.1	955.821	-29769	0.000000	0.000000	7.138966	65.97	NaN	0.000000	0.001593	0.001688	28.0895	32.5049	0.001757	18496.5	5.919011	-1.174471	65.2258	1.135812	0.033847	0.033475	65.97	18496.5	0.031172	0.043209	1526.78	81297.4
160	2.000000	1.138656	7.36661e+06	-46639.1	955.82	-29769	0.000000	0.000000	7.141647	71.0564	NaN	0.000000	0.001615	0.001686	28.0789	34.3057	0.001747	19633.3	7.595631	177.328	71.0075	1.138347	0.036319	0.036010	71.0564	19633.3	0.033605	0.048547	1463.66	81411.2
160	2.000000	1.141154	7.36661e+06	-46639.1	955.82	-29769	0.000000	0.000000	7.144479	79.1882	NaN	0.000000	0.001579	0.001672	28.103	36.4778	0.001852	19695.1	2.359005	2.229349	77.7763	1.140834	0.038817	0.038497	79.1882	19695.1	0.035802	0.053629	1476.59	77701.6
160	2.000000	1.143653	7.36661e+06	-46639.1	955.819	-29769	0.000000	0.000000	7.147347	88.1712	NaN	0.000000	0.001603	0.001639	28.1279	39.3347	0.001913	20562.2	2.809348	-178.336	88.3227	1.143305	0.041316	0.040968	88.1712	20562.2	0.038100	0.059210	1489.12	77204.7
160	2.000000	1.146156	7.36661e+06	-46639.1	955.82	-29769	0.000000	0.000000	7.150328	99.805	NaN	0.000000	0.001608	0.001661	28.0895	40.4853	0.001734	23346.3	2.778436	1.178895	97.9443	1.145767	0.043818	0.043430	99.805	23346.3	0.040612	0.065620	1520.95	83266.9
160	2.000000	1.148605	7.36661e+06	-46639.1	955.82	-29769	0.000000	0.000000	7.153254	111.381	NaN	0.000000	0.001619	0.001669	28.0804	43.0939	0.001804	23886.3	4.803534	178.145	109.01	1.148289	0.046268	0.045952	111.381	23886.3	0.042771	0.071386	1560.27	81680.2
160	2.000000	1.151093	7.36661e+06	-46639.1	955.819	-29769	0.000000	0.000000	7.156051	118.928	NaN	0.000000	0.001612	0.001652	28.1049	46.5447	0.001829	25446.2	3.655005	-1.041715	115.351	1.150783	0.048756	0.048446	118.928	25446.2	0.045251	0.078300	1518.86	83083.4
160	2.000000	1.153616	7.36661e+06	-46639.1	955.819	-29769	0.000000	0.000000	7.159127	132.363	NaN	0.000000	0.001643	0.001667	28.1304	48.9271	0.001793	27286.6	5.352846	176.657	130.699	1.153321	0.051279	0.050984	132.363	27286.6	0.047641	0.085261	1552.45	85378.3
160	2.000000	1.156154	7.36661e+06	-46639.1	955.819	-29769	0.000000	0.000000	7.162193	145.227	NaN	0.000000	0.001627	0.001664	28.091	50.7768	0.001838	27625.6	3.704100	-1.776938	143.159	1.155769	0.053817	0.053432	145.227	27625.6	0.049874	0.092024	1578.14	83202
160	2.000000	1.158622	7.36661e+06	-46639.1	955.819	-29769	0.000000	0.000000	7.165125	156.503	NaN	0.000000	0.001640	0.001697	28.0808	53.6649	0.001813	29604.2	6.423452	174.499	155.308	1.158336	0.056285	0.055999	156.503	29604.2	0.052320	0.099719	1569.43	85651.8
160	2.000000	1.161099	7.36661e+06	-46639.1	955.819	-29769	0.000000	0.000000	7.168158	170.027	NaN	0.000000	0.001629	0.001657	28.104	55.0537	0.001820	30248.6	3.278311	-2.332007	168.065	1.160830	0.058762	0.058493	170.027	30248.6	0.054546	0.106981	1589.32	84493.8
160	2.000000	1.163590	7.36661e+06	-46639.1	955.82	-29769	0.000000	0.000000	7.171204	183.523	NaN	0.000000	0.001630	0.001699	28.1287	58.25	0.001841	31640.4	3.359792	177.136	181.528	1.163264	0.061253	0.060927	183.523	31640.4	0.056903	0.114936	1596.75	85268.3
160	2.000000	1.166164	7.36661e+06	-46639.1	955.82	-29769	0.000000	0.000000	7.174407	198.805	NaN	0.000000	0.001627	0.001670	28.0896	59.5637	0.001739	34256	4.981462	-4.657894	198.165	1.165743	0.063827	0.063406	198.805	34256	0.059475	0.123932	1604.15	88903.5
160	2.000000	1.168602	7.36661e+06	-46639.1	955.819	-29769	0.000000	0.000000	7.177447	213.485	NaN	0.000000	0.001610	0.001683	28.0782	61.8216	0.001777	34787.3	6.243039	173.553	211.809	1.168209	0.066265	0.065872	213.485	34787.3	0.061662	0.131835	1619.34	87534.3
160	2.000000	1.171037	7.36661e+06	-46639.1	955.82	-29769	0.000000	0.000000	7.180474	227.868	NaN	0.000000	0.001625	0.001667	28.1043	64.2378	0.001779	36117.5	0.987549	-0.899725	223	1.170753	0.068700	0.068416	227.868	36117.5	0.063968	0.140422	1622.74	88059.1
160	2.000000	1.173672	7.36661e+06	-46639.1	955.819	-29769	0.000000	0.000000	7.183755	243.579	NaN	0.000000	0.001611	0.001664	28.1296	67.8752	0.001710	39699.5	4.799147	174.134	246.259	1.173305	0.071335	0.070968	243.579	39699.5	0.066733	0.151053	1612.54	93324.1
160	2.000000	1.176064	7.36661e+06	-46639.1	955.819	-29769	0.000000	0.000000	7.186945	262.993	NaN	0.000000	0.001612	0.001699	28.0913	69.4859	0.001813	38334	4.704276	-5.385183	258.193	1.175674	0.073727	0.073337	262.993	38334	0.068582	0.158366	1660.66	88008.7
160	2.000000	1.178569	7.36661e+06	-46639.1	955.819	-29769	0.000000	0.000000	7.190043	277.411	NaN	0.000000	0.001617	0.001664	28.0786	71.9531	0.001653	43525.9	6.816091	171.118	275.507	1.178296	0.076232	0.075959	277.411	43525.9	0.071452	0.170046	1631.39	96435.7
160	2.000000	1.181032	7.36661e+06	-46639.1	955.819	-29769	0.000000	0.000000	7.193379	298.642	NaN	0.000000	0.001636	0.001664	28.1016	73.9388	0.001764	41906	6.132597	-7.217512	293.498	1.180624	0.078695	0.078287	298.642	41906	0.073350	0.177982	1677.94	90753.1
160	2.000000	1.183614	7.36661e+06	-46639.1	955.819	-29769	0.000000	0.000000	7.196662	315.717	NaN	0.000000	0.001614	0.001664	28.1272	77.9654	0.001785	43674.9	4.756227	173.427	317.214	1.183266	0.081277	0.080929	315.717	43674.9	0.075855	0.188718	1672.95	91854
160	2.000000	1.186040	7.36661e+06	-46639.1	955.82	-29769	0.000000	0.000000	7.199693	330.415	NaN	0.000000	0.001630	0.001675	28.0884	79.0264	0.001803	43830.7	3.714924	-4.587517	323.236	1.185653	0.083703	0.083316	330.415	43830.7	0.078049	0.198364	1665.69	89912.5
160	2.000000	1.188532	7.36661e+06	-46639.1	955.819	-29769	0.000000	0.000000	7.203218	355.54	NaN	0.000000	0.001594	0.001679	28.0788	81.2047	0.001935	41963.2	3.269013	175.471	350.154	1.188126	0.086195	0.085789	355.54	41963.2	0.079841	0.206406	1722.53	84387.9
160	2.000000	1.190979	7.36661e+06	-46639.1	955.82	-29769	0.000000	0.000000	7.206541	376.857	NaN	0.000000	0.001595	0.001676	28.1023	82.376	0.001803	45685.7	3.228580	-5.003517	371.685	1.190658	0.088642	0.088321	376.857	45685.7	0.082455	0.218411	1725.44	89313.3
160	2.000000	1.193578	7.36661e+06	-46639.1	955.821	-29769	0.000000	0.000000	7.209906	395.478	NaN	0.000000	0.001585	0.001686	28.1284	85.7569	0.001820	47121.2	3.694842	174.46	395.882	1.193245	0.091241	0.090908	395.478	47121.2	0.084946	0.230146	1718.38	89740.5
160	2.000000	1.196131	7.36661e+06	-46639.1	955.82	-29769	0.000000	0.000000	7.213279	415.413	NaN	0.000000	0.001599	0.001685	28.0892	87.0774	0.001855	46948.4	6.529452	-8.358720	415.268	1.195715	0.093794	0.093378	415.413	46948.4	0.087158	0.240804	1725.11	87410.2
160	2.000000	1.198592	7.36661e+06	-46639.1	955.819	-29769	0.000000	0.000000	7.216563	435.447	NaN	0.000000	0.001623	0.001681	28.0797	88.1482	0.001727	51048	3.394115	174.009	436.111	1.198296	0.096255	0.095959	435.447	51048	0.089857	0.254116	1713.58	92520
160	2.000000	1.200996	7.36661e+06	-46639.1	955.819	-29769	0.000000	0.000000	7.219645	451.965	NaN	0.000000	0.001701	0.001683	28.1024	92.5419	0.001916	48309.5	6.450113	-8.689541	446.632	1.200678	0.098659	0.098341	451.965	48309.5	0.091642	0.263101	1717.84	86048.7
160	2.000000	1.203540	7.36661e+06	-46639.1	955.82	-29769	0.000000	0.000000	7.223254	477.845	NaN	0.000000	0.001709	0.001667	28.1272	93.1417	0.001804	51634.4	1.616655	175.457	474.947	1.203154	0.101203	0.100817	477.845	51634.4	0.094262	0.276557	1727.83	89705.7
160	2.000000	1.206028	7.36661e+06	-46639.1	955.82	-29769	0.000000	0.000000	7.226661	500.216	NaN	0.000000	0.001684	0.001711	28.0901	95.4266	0.001687	56577.2	3.336457	-6.422910	494.146	1.205637	0.103691	0.103300	500.216	56577.2	0.097060	0.291273	1717.34	95777.8
160	2.000000	1.208600	7.36661e+06	-46639.1	955.82	-29769	0.000000	0.000000	7.229938	517.343	NaN	0.000000	0.001706	0.001717	28.0782	97.9226	0.001827	53603.4	5.480785	171.746	519.793	1.208256	0.106263	0.105919	517.343	53603.4	0.099025	0.301819	1714.08	89144.1
160	2.000000	1.208979	7.36661e+06	-46639.1	955.819	-29769	0.000000	0.000000	7.230561	523.298	NaN	0.000000	0.001711	0.001698	28.1022	97.2375	0.001768	54983.6	3.286922	-6.445287	516.225	1.208736	0.106642	0.106399	523.298	54983.6	0.099504	0.304417	1719.02	91048.4