File: remote_trans/data/nanoindenter/0828-1/data/Data_2025-08-06,11h17m57s/2025-07-22_16-23-58_1_78.txt
2025-07-22, 16:23:58, 1
Index	Phase	Displacement	Time	Pos X	Pos Y	Pos Z	Rot A	Rot B	Piezo Z	Force A	Force B	Gripper	Voltage A	Voltage B	Temperature	Amplitude force	Amplitude pos	Stiffness	Phase shift	Phase excitation	Force A raw	Displacement raw	HMax	HMax raw	Real Force	Real Stiffness	Contact Depth	Area	Hardness	Reduced Mod.
[#]	[#]	[um]	[s]	[um]	[um]	[um]	[m°]	[m°]	[um]	[uN]	[uN]	[V]	[V]	[V]	[°C]	[uN]	[um]	[N/m]	[°]	[°]	[uN]	[um]	[um]	[um]	[uN]	[N/m]	[um]	[um^2]	[MPa]	[MPa]
78	1.000000	0.002497	7.3658e+06	-42539.1	955.818	-29782.9	0.000000	0.000000	6.002791	0.050594	NaN	0.000000	0.001534	0.001675	28.13	0.076642	0.000939	81.6379	-110.652	-162.199	0.049519	0.001264	-1.059112	-1.060345	0.050594	81.6379	-1.059576	-1.435913E+14	-3.523484E-16	NaN
78	1.000000	0.010448	7.3658e+06	-42539.1	955.819	-29782.9	0.000000	0.000000	6.010742	0.042477	NaN	0.000000	0.001558	0.001677	28.1289	0.011877	0.001092	10.8785	-146.283	-166.657	0.019441	0.009137	-1.051161	-1.052471	0.042477	10.8785	-1.054089	-1.211655E+14	-3.505670E-16	NaN
78	1.000000	0.018462	7.3658e+06	-42539.1	955.819	-29782.9	0.000000	0.000000	6.018753	-0.019606	NaN	0.000000	0.001561	0.001669	28.1282	0.062023	0.001577	39.3417	-143.049	-166.719	-0.036104	0.017151	-1.043147	-1.044457	-0.019606	39.3417	-1.042773	-8.535992E+13	2.296860E-16	NaN
78	1.000000	0.026537	7.3658e+06	-42539.1	955.818	-29782.9	0.000000	0.000000	6.026832	0.059828	NaN	0.000000	0.001563	0.001723	28.1292	0.033724	0.001885	17.8948	-111.851	-165.496	0.014582	0.025128	-1.035072	-1.036481	0.059828	17.8948	-1.037579	-7.268024E+13	-8.231697E-16	NaN
78	1.000000	0.034454	7.3658e+06	-42539.1	955.819	-29782.9	0.000000	0.000000	6.034750	0.081813	NaN	0.000000	0.001546	0.001687	28.1295	0.103304	0.001954	52.8647	-73.2555	-160.156	0.032756	0.033164	-1.027154	-1.028444	0.081813	52.8647	-1.028315	-5.455225E+13	-1.499724E-15	NaN
78	1.000000	0.042466	7.3658e+06	-42539.1	955.818	-29782.9	0.000000	0.000000	6.042758	-0.007775	NaN	0.000000	0.001546	0.001674	28.1294	0.071475	0.001978	36.1355	160.496	-162.667	0.032477	0.041156	-1.019142	-1.020452	-0.007775	36.1355	-1.018981	-4.085476E+13	1.903155E-16	NaN
78	1.000000	0.050461	7.3658e+06	-42539.1	955.818	-29782.9	0.000000	0.000000	6.050753	-0.004678	NaN	0.000000	0.001540	0.001641	28.1297	0.091526	0.001929	47.452	108.505	-162.894	0.024936	0.049146	-1.011148	-1.012462	-0.004678	47.452	-1.011074	-3.197681E+13	1.463090E-16	NaN
78	1.000000	0.058455	7.3658e+06	-42539.1	955.819	-29782.9	0.000000	0.000000	6.058748	0.024133	NaN	0.000000	0.001556	0.001646	28.1295	0.052124	0.002121	24.5698	-57.8006	-168.625	0.065796	0.057129	-1.003154	-1.004479	0.024133	24.5698	-1.003890	-2.559436E+13	-9.429122E-16	NaN
78	1.000000	0.066451	7.3658e+06	-42539.1	955.819	-29782.9	0.000000	0.000000	6.066744	0.014040	NaN	0.000000	0.001563	0.001653	28.1296	0.126548	0.001954	64.7586	-143.22	-165.655	0.063457	0.065178	-0.995158	-0.996431	0.014040	64.7586	-0.995320	-1.962260E+13	-7.155151E-16	NaN
78	1.000000	0.074481	7.3658e+06	-42539.1	955.819	-29782.9	0.000000	0.000000	6.074774	0.006276	NaN	0.000000	0.001582	0.001686	28.1285	0.086156	0.001862	46.271	-162.627	-164.545	-0.023892	0.073147	-0.987128	-0.988461	0.006276	46.271	-0.987229	-1.526847E+13	-4.110644E-16	NaN
78	1.000000	0.082464	7.3658e+06	-42539.1	955.818	-29782.9	0.000000	0.000000	6.082757	0.007258	NaN	0.000000	0.001555	0.001659	28.1285	0.089613	0.001861	48.1596	105.933	-164.416	-0.033693	0.081168	-0.979144	-0.980440	0.007258	48.1596	-0.979257	-1.192356E+13	-6.087239E-16	NaN
78	1.000000	0.090474	7.3658e+06	-42539.1	955.819	-29782.9	0.000000	0.000000	6.090766	-0.026826	NaN	0.000000	0.001547	0.001708	28.1293	0.112715	0.001897	59.4305	-138.724	-161.233	0.077710	0.089170	-0.971134	-0.972438	-0.026826	59.4305	-0.970795	-9.170299E+12	2.925339E-15	NaN
78	1.000000	0.098469	7.3658e+06	-42539.1	955.818	-29782.9	0.000000	0.000000	6.098761	-0.019894	NaN	0.000000	0.001562	0.001697	28.1285	0.036173	0.002005	18.0441	106.139	-168.105	0.021259	0.097140	-0.963139	-0.964468	-0.019894	18.0441	-0.962312	-7.047611E+12	2.822811E-15	NaN
78	1.000000	0.106508	7.3658e+06	-42539.1	955.819	-29782.9	0.000000	0.000000	6.106801	0.016714	NaN	0.000000	0.001608	0.001690	28.1291	0.058773	0.002003	29.348	35.6089	-162.936	0.037423	0.105139	-0.955101	-0.956469	0.016714	29.348	-0.955528	-5.709170E+12	-2.927624E-15	NaN
78	1.000000	0.114458	7.3658e+06	-42539.1	955.818	-29782.9	0.000000	0.000000	6.114748	-0.061008	NaN	0.000000	0.001593	0.001700	28.1301	0.082674	0.001848	44.7439	111.278	-165.935	-0.048745	0.113143	-0.947151	-0.948466	-0.061008	44.7439	-0.946128	-4.263877E+12	1.430804E-14	NaN
78	1.000000	0.122491	7.3658e+06	-42539.1	955.819	-29782.9	0.000000	0.000000	6.122785	0.031883	NaN	0.000000	0.001570	0.001683	28.1297	0.094269	0.002043	46.1413	-32.0641	-164.242	0.020224	0.121145	-0.939117	-0.940464	0.031883	46.1413	-0.939635	-3.485133E+12	-9.148312E-15	NaN
78	1.000000	0.130469	7.3658e+06	-42539.1	955.819	-29782.9	0.000000	0.000000	6.130762	0.017048	NaN	0.000000	0.001582	0.001681	28.1302	0.027478	0.001971	13.9392	18.3666	-166.77	0.043798	0.129190	-0.931140	-0.932418	0.017048	13.9392	-0.932057	-2.753980E+12	-6.190242E-15	NaN
78	1.000000	0.138492	7.3658e+06	-42539.1	955.818	-29782.9	0.000000	0.000000	6.138787	0.062640	NaN	0.000000	0.001562	0.001689	28.1296	0.047315	0.002069	22.8707	-100.849	-164.931	0.023827	0.137192	-0.923117	-0.924417	0.062640	22.8707	-0.925171	-2.223398E+12	-2.817324E-14	NaN
78	1.000000	0.146476	7.3658e+06	-42539.1	955.819	-29782.9	0.000000	0.000000	6.146768	-0.010093	NaN	0.000000	0.001564	0.001685	28.1303	0.017016	0.001924	8.844230	110.186	-163.134	-0.019338	0.145197	-0.915133	-0.916412	-0.010093	8.844230	-0.914277	-1.584618E+12	6.369504E-15	NaN
78	1.000000	0.154499	7.3658e+06	-42539.1	955.819	-29782.9	0.000000	0.000000	6.154791	-0.012456	NaN	0.000000	0.001580	0.001655	28.1297	0.049456	0.001853	26.6958	-21.4547	-164.017	-0.127556	0.153175	-0.907110	-0.908433	-0.012456	26.6958	-0.906760	-1.254283E+12	9.930440E-15	NaN
78	1.000000	0.162497	7.3658e+06	-42539.1	955.818	-29782.9	0.000000	0.000000	6.162791	0.032271	NaN	0.000000	0.001588	0.001691	28.1294	0.009929	0.002003	4.956784	-169.982	-165.479	0.033515	0.161212	-0.899112	-0.900397	0.032271	4.956784	-0.903994	-1.150896E+12	-2.803952E-14	NaN
78	1.000000	0.170529	7.3658e+06	-42539.1	955.819	-29782.9	0.000000	0.000000	6.170823	0.046045	NaN	0.000000	0.001582	0.001689	28.1297	0.057300	0.002121	27.0094	2.929216	-164.251	0.084556	0.169175	-0.891080	-0.892434	0.046045	27.0094	-0.892359	-8.013028E+11	-5.746326E-14	NaN
78	1.000000	0.178517	7.3658e+06	-42539.1	955.819	-29782.9	0.000000	0.000000	6.178812	0.046230	NaN	0.000000	0.001571	0.001670	28.1294	0.072725	0.002058	35.3455	147.784	-165.872	-0.003022	0.177181	-0.883091	-0.884428	0.046230	35.3455	-0.884072	-6.191161E+11	-7.467131E-14	NaN
78	1.000000	0.186484	7.3658e+06	-42539.1	955.819	-29782.9	0.000000	0.000000	6.186777	0.011134	NaN	0.000000	0.001555	0.001712	28.1299	0.034076	0.001941	17.5533	-23.2117	-164.688	0.115911	0.185263	-0.875124	-0.876345	0.011134	17.5533	-0.875600	-4.755528E+11	-2.341174E-14	NaN
78	1.000000	0.194557	7.3658e+06	-42539.1	955.819	-29782.9	0.000000	0.000000	6.194852	0.064751	NaN	0.000000	0.001594	0.001674	28.1307	0.049572	0.001833	27.0374	-88.0876	-164.369	0.005045	0.193197	-0.867052	-0.868412	0.064751	27.0374	-0.868848	-3.853516E+11	-1.680310E-13	NaN
78	1.000000	0.202512	7.3658e+06	-42539.1	955.819	-29782.9	0.000000	0.000000	6.202805	0.034453	NaN	0.000000	0.001588	0.001671	28.1309	0.062920	0.002097	30.007	-44.1368	-165.954	0.081435	0.201246	-0.859097	-0.860362	0.034453	30.007	-0.859958	-2.921135E+11	-1.179435E-13	NaN
78	1.000000	0.210539	7.3658e+06	-42539.1	955.818	-29782.9	0.000000	0.000000	6.210836	0.090641	NaN	0.000000	0.001571	0.001649	28.1312	0.050797	0.001981	25.6427	122.641	-164.495	0.026391	0.209221	-0.851069	-0.852388	0.090641	25.6427	-0.853720	-2.404971E+11	-3.768909E-13	NaN
78	1.000000	0.218546	7.3658e+06	-42539.1	955.818	-29782.9	0.000000	0.000000	6.218840	0.041722	NaN	0.000000	0.001624	0.001677	28.1306	0.029729	0.001970	15.0946	116.677	-163.413	0.061427	0.217197	-0.843063	-0.844411	0.041722	15.0946	-0.845136	-1.840198E+11	-2.267272E-13	NaN
78	1.000000	0.226529	7.3658e+06	-42539.1	955.818	-29782.9	0.000000	0.000000	6.226819	-0.064198	NaN	0.000000	0.001594	0.001666	28.1306	0.098002	0.001932	50.723	30.9977	-168.792	-0.081267	0.225212	-0.835079	-0.836396	-0.064198	50.723	-0.834130	-1.305447E+11	4.917674E-13	NaN
78	1.000000	0.234513	7.3658e+06	-42539.1	955.819	-29782.9	0.000000	0.000000	6.234807	0.034512	NaN	0.000000	0.001608	0.001680	28.13	0.086145	0.001971	43.6961	80.872	-165.087	0.048354	0.233200	-0.827095	-0.828408	0.034512	43.6961	-0.827688	-1.067676E+11	-3.232486E-13	NaN
78	1.000000	0.242550	7.3658e+06	-42539.1	955.818	-29782.9	0.000000	0.000000	6.242846	0.096413	NaN	0.000000	0.001582	0.001675	28.1299	0.059336	0.001853	32.0208	-174.497	-167.775	0.184856	0.241207	-0.819059	-0.820402	0.096413	32.0208	-0.821317	-8.751214E+10	-1.101713E-12	NaN
78	1.000000	0.250555	7.3658e+06	-42539.1	955.818	-29782.9	0.000000	0.000000	6.250852	0.112136	NaN	0.000000	0.001542	0.001665	28.1299	0.037983	0.001936	19.6218	89.556	-164.318	0.116291	0.249223	-0.811054	-0.812386	0.112136	19.6218	-0.815340	-7.261210E+10	-1.544313E-12	NaN
78	1.000000	0.258540	7.3658e+06	-42539.1	955.819	-29782.9	0.000000	0.000000	6.258832	-0.005218	NaN	0.000000	0.001554	0.001672	28.1299	0.040118	0.002078	19.3098	52.9617	-163.668	-0.007383	0.257239	-0.803069	-0.804370	-0.005218	19.3098	-0.802866	-4.917732E+10	1.060961E-13	NaN
78	1.000000	0.266554	7.3658e+06	-42539.1	955.819	-29782.9	0.000000	0.000000	6.266848	0.023814	NaN	0.000000	0.001584	0.001703	28.1307	0.101997	0.001980	51.5181	104.765	-164.742	-0.035964	0.265207	-0.795054	-0.796402	0.023814	51.5181	-0.795401	-3.894258E+10	-6.115275E-13	NaN
78	1.000000	0.274556	7.3658e+06	-42539.1	955.818	-29782.9	0.000000	0.000000	6.274851	0.071709	NaN	0.000000	0.001588	0.001716	28.1319	0.013469	0.001987	6.780221	112.69	-165.207	0.050706	0.273199	-0.787052	-0.788409	0.071709	6.780221	-0.794985	-3.843896E+10	-1.865523E-12	NaN
78	1.000000	0.282553	7.3658e+06	-42539.1	955.819	-29782.9	0.000000	0.000000	6.282847	0.047847	NaN	0.000000	0.001544	0.001698	28.131	0.088887	0.001984	44.805	-22.1193	-166.3	0.033205	0.281282	-0.779056	-0.780326	0.047847	44.805	-0.779857	-2.394871E+10	-1.997877E-12	NaN
78	1.000000	0.290566	7.3658e+06	-42539.1	955.819	-29782.9	0.000000	0.000000	6.290860	0.033191	NaN	0.000000	0.001560	0.001700	28.1299	0.068552	0.002060	33.2694	-115.377	-165.041	0.045969	0.289298	-0.771043	-0.772311	0.033191	33.2694	-0.771791	-1.860598E+10	-1.783885E-12	NaN
78	1.000000	0.298560	7.3658e+06	-42539.1	955.818	-29782.9	0.000000	0.000000	6.298855	0.049721	NaN	0.000000	0.001574	0.001702	28.1301	0.132054	0.002029	65.0915	-132.094	-164.335	0.042166	0.297279	-0.763048	-0.764330	0.049721	65.0915	-0.763621	-1.440645E+10	-3.451308E-12	NaN
78	1.000000	0.306595	7.3658e+06	-42539.1	955.818	-29782.9	0.000000	0.000000	6.306888	0.013481	NaN	0.000000	0.001555	0.001682	28.1295	0.018334	0.002050	8.942810	-114.258	-164.61	-0.007839	0.305230	-0.755014	-0.756378	0.013481	8.942810	-0.756144	-1.139832E+10	-1.182739E-12	NaN
78	1.000000	0.314571	7.3658e+06	-42539.1	955.819	-29782.9	0.000000	0.000000	6.314865	0.046061	NaN	0.000000	0.001540	0.001645	28.1293	0.017576	0.002069	8.496352	-85.9474	-161.625	0.013654	0.313269	-0.747038	-0.748339	0.046061	8.496352	-0.751104	-9.732907E+9	-4.732460E-12	NaN
78	1.000000	0.322593	7.3658e+06	-42539.1	955.819	-29782.9	0.000000	0.000000	6.322887	0.030391	NaN	0.000000	0.001569	0.001677	28.1285	0.042625	0.002015	21.1572	-49.7489	-166.036	0.018790	0.321268	-0.739016	-0.740340	0.030391	21.1572	-0.740093	-6.891610E+9	-4.409925E-12	NaN
78	1.000000	0.330535	7.3658e+06	-42539.1	955.818	-29782.9	0.000000	0.000000	6.330830	0.059802	NaN	0.000000	0.001584	0.001679	28.1285	0.072909	0.002069	35.2401	-52.5807	-169.514	0.147608	0.329233	-0.731074	-0.732375	0.059802	35.2401	-0.732346	-5.404848E+9	-1.106454E-11	NaN
78	1.000000	0.338599	7.3658e+06	-42539.1	955.818	-29782.9	0.000000	0.000000	6.338893	0.046198	NaN	0.000000	0.001560	0.001682	28.1286	0.066049	0.001998	33.0496	-135.56	-163.259	-0.017979	0.337248	-0.723010	-0.724361	0.046198	33.0496	-0.724058	-4.166882E+9	-1.108689E-11	NaN
78	1.000000	0.346586	7.3658e+06	-42539.1	955.818	-29782.9	0.000000	0.000000	6.346879	0.014406	NaN	0.000000	0.001554	0.001670	28.1288	0.051396	0.002022	25.4172	-54.7844	-164.921	0.035313	0.345229	-0.715022	-0.716380	0.014406	25.4172	-0.715448	-3.179637E+9	-4.530732E-12	NaN
78	1.000000	0.354574	7.3658e+06	-42539.1	955.819	-29782.9	0.000000	0.000000	6.354868	0.045942	NaN	0.000000	0.001598	0.001658	28.1304	0.053393	0.002020	26.4306	-63.0221	-164.306	0.029980	0.353227	-0.707035	-0.708381	0.045942	26.4306	-0.708338	-2.543133E+9	-1.806494E-11	NaN
78	1.000000	0.362592	7.3658e+06	-42539.1	955.819	-29782.9	0.000000	0.000000	6.362889	0.114085	NaN	0.000000	0.001569	0.001703	28.1294	0.048870	0.001923	25.4083	-141.339	-164.315	0.091232	0.361282	-0.699017	-0.700326	0.114085	25.4083	-0.702384	-2.109059E+9	-5.409293E-11	NaN
78	1.000000	0.370603	7.3658e+06	-42539.1	955.818	-29782.9	0.000000	0.000000	6.370899	0.075277	NaN	0.000000	0.001583	0.001652	28.1296	0.030176	0.002001	15.078	154.487	-162.973	0.044615	0.369273	-0.691005	-0.692336	0.075277	15.078	-0.694750	-1.658886E+9	-4.537798E-11	NaN
78	1.000000	0.378592	7.3658e+06	-42539.1	955.819	-29782.9	0.000000	0.000000	6.378883	-0.029410	NaN	0.000000	0.001535	0.001679	28.1298	0.039705	0.002056	19.3082	-108.793	-162.537	-0.053405	0.377257	-0.683016	-0.684351	-0.029410	19.3082	-0.681874	-1.106194E+9	2.658686E-11	NaN
78	1.000000	0.386597	7.3658e+06	-42539.1	955.818	-29782.9	0.000000	0.000000	6.386892	0.044299	NaN	0.000000	0.001561	0.001657	28.1291	0.187034	0.001953	95.7846	31.5308	-164.525	0.071571	0.385290	-0.675011	-0.676319	0.044299	95.7846	-0.675358	-9.009635E+8	-4.916881E-11	NaN
78	1.000000	0.394622	7.3658e+06	-42539.1	955.819	-29782.9	0.000000	0.000000	6.394917	0.049850	NaN	0.000000	0.001591	0.001664	28.1288	0.007140	0.001947	3.666919	-155.271	-166.886	0.041582	0.393327	-0.666986	-0.668281	0.049850	3.666919	-0.677182	-9.542460E+8	-5.224004E-11	NaN
78	1.000000	0.402611	7.3658e+06	-42539.1	955.818	-29782.9	0.000000	0.000000	6.402903	-0.026433	NaN	0.000000	0.001561	0.001672	28.1284	0.122271	0.001847	66.1958	-161.308	-162.928	0.071448	0.401274	-0.658997	-0.660335	-0.026433	66.1958	-0.658698	-5.328799E+8	4.960449E-11	NaN
78	1.000000	0.410637	7.3658e+06	-42539.1	955.819	-29782.9	0.000000	0.000000	6.410930	0.031357	NaN	0.000000	0.001550	0.001689	28.1289	0.019487	0.002087	9.335917	-121.109	-165.268	0.019733	0.409315	-0.650972	-0.652294	0.031357	9.335917	-0.653491	-4.521523E+8	-6.935062E-11	NaN
78	1.000000	0.418612	7.3658e+06	-42539.1	955.818	-29782.9	0.000000	0.000000	6.418905	0.012794	NaN	0.000000	0.001559	0.001654	28.1302	0.071346	0.002179	32.7392	148.612	-165.252	0.044936	0.417283	-0.642996	-0.644326	0.012794	32.7392	-0.643289	-3.276522E+8	-3.904598E-11	NaN
78	1.000000	0.426600	7.3658e+06	-42539.1	955.819	-29782.9	0.000000	0.000000	6.426894	0.035217	NaN	0.000000	0.001558	0.001682	28.13	0.168465	0.001991	84.6219	-164.369	-169.485	0.030024	0.425277	-0.635009	-0.636332	0.035217	84.6219	-0.635321	-2.547274E+8	-1.382518E-10	NaN
78	1.000000	0.434663	7.3658e+06	-42539.1	955.819	-29782.9	0.000000	0.000000	6.434958	0.061324	NaN	0.000000	0.001572	0.001716	28.1312	0.065558	0.001933	33.9156	118.934	-162.148	0.026407	0.433354	-0.626946	-0.628254	0.061324	33.9156	-0.628302	-2.040321E+8	-3.005606E-10	NaN
78	1.000000	0.442623	7.3658e+06	-42539.1	955.819	-29782.9	0.000000	0.000000	6.442915	-0.027256	NaN	0.000000	0.001557	0.001687	28.1309	0.080146	0.002035	39.3847	-34.4022	-162.824	0.044034	0.441282	-0.618985	-0.620326	-0.027256	39.3847	-0.618466	-1.494678E+8	1.823543E-10	NaN
78	1.000000	0.450618	7.3658e+06	-42539.1	955.819	-29782.9	0.000000	0.000000	6.450914	0.109339	NaN	0.000000	0.001548	0.001691	28.1308	0.084033	0.002022	41.5687	-5.985218	-166.576	0.231506	0.449291	-0.610991	-0.612318	0.109339	41.5687	-0.612964	-1.255696E+8	-8.707427E-10	NaN
78	1.000000	0.458656	7.3658e+06	-42539.1	955.819	-29782.9	0.000000	0.000000	6.458950	0.021028	NaN	0.000000	0.001563	0.001708	28.1311	0.073160	0.002007	36.4529	-161.414	-163.996	0.042792	0.457294	-0.602952	-0.604315	0.021028	36.4529	-0.603385	-9.269778E+7	-2.268464E-10	NaN
78	1.000000	0.466629	7.3658e+06	-42539.1	955.818	-29782.9	0.000000	0.000000	6.466921	-0.003516	NaN	0.000000	0.001547	0.001674	28.1307	0.063538	0.002009	31.621	-143.231	-163.43	-0.009856	0.465329	-0.594980	-0.596280	-0.003516	31.621	-0.594896	-7.081940E+7	4.964158E-11	NaN
78	1.000000	0.474655	7.3658e+06	-42539.1	955.819	-29782.9	0.000000	0.000000	6.474947	-0.009307	NaN	0.000000	0.001540	0.001686	28.1298	0.013492	0.002005	6.730702	159.593	-165.598	0.009367	0.473306	-0.586954	-0.588303	-0.009307	6.730702	-0.585917	-5.325473E+7	1.747716E-10	NaN
78	1.000000	0.482661	7.36581e+06	-42539.1	955.819	-29782.9	0.000000	0.000000	6.482957	0.085886	NaN	0.000000	0.001500	0.001652	28.1299	0.105861	0.001975	53.5937	-153.277	-164.572	0.035484	0.481359	-0.578947	-0.580249	0.085886	53.5937	-0.580149	-4.433891E+7	-1.937038E-9	NaN
78	1.000000	0.490597	7.36581e+06	-42539.1	955.819	-29782.9	0.000000	0.000000	6.490888	-0.028217	NaN	0.000000	0.001513	0.001659	28.1297	0.123244	0.001925	64.0085	18.2752	-166.876	0.046146	0.489338	-0.571012	-0.572270	-0.028217	64.0085	-0.570681	-3.281282E+7	8.599291E-10	NaN
78	1.000000	0.498649	7.36581e+06	-42539.1	955.818	-29782.9	0.000000	0.000000	6.498942	0.024197	NaN	0.000000	0.001554	0.001693	28.13	0.133360	0.002056	64.8588	-169.239	-167.73	0.052346	0.497350	-0.562960	-0.564258	0.024197	64.8588	-0.563240	-2.589331E+7	-9.344961E-10	NaN
78	1.000000	0.506642	7.36581e+06	-42539.1	955.819	-29782.9	0.000000	0.000000	6.506936	0.039960	NaN	0.000000	0.001535	0.001685	28.1299	0.106163	0.001887	56.2469	-104.12	-163.323	0.047828	0.505343	-0.554967	-0.556266	0.039960	56.2469	-0.555500	-2.023515E+7	-1.974785E-9	NaN
78	1.000000	0.514646	7.36581e+06	-42539.1	955.819	-29782.9	0.000000	0.000000	6.514938	-0.002624	NaN	0.000000	0.001507	0.001727	28.1306	0.076219	0.002027	37.5984	41.9142	-165.517	-0.013626	0.513361	-0.546963	-0.548248	-0.002624	37.5984	-0.546910	-1.538693E+7	1.705318E-10	NaN
78	1.000000	0.522641	7.36581e+06	-42539.1	955.818	-29782.9	0.000000	0.000000	6.522933	-0.011218	NaN	0.000000	0.001558	0.001681	28.131	0.070621	0.001949	36.2285	-24.8037	-165.849	0.017205	0.521396	-0.538968	-0.540213	-0.011218	36.2285	-0.538736	-1.185278E+7	9.464296E-10	NaN
78	1.000000	0.530647	7.36581e+06	-42539.1	955.818	-29782.9	0.000000	0.000000	6.530941	0.022707	NaN	0.000000	0.001570	0.001640	28.1307	0.058098	0.001909	30.4398	1.427726	-165.13	0.031765	0.529341	-0.530961	-0.532268	0.022707	30.4398	-0.531521	-9.41223e+06	-2.412473E-9	NaN
78	1.000000	0.538677	7.36581e+06	-42539.1	955.819	-29782.9	0.000000	0.000000	6.538971	0.050383	NaN	0.000000	0.001538	0.001688	28.1314	0.032656	0.001955	16.7025	10.8687	-165.562	0.040779	0.537350	-0.522932	-0.524259	0.050383	16.7025	-0.525194	-7.68787e+06	-6.553622E-9	NaN
78	1.000000	0.546666	7.36581e+06	-42539.1	955.819	-29782.9	0.000000	0.000000	6.546957	-0.042025	NaN	0.000000	0.001555	0.001679	28.131	0.082262	0.001962	41.9223	12.7558	-165.246	-0.021770	0.545377	-0.514942	-0.516232	-0.042025	41.9223	-0.514190	-5.40461e+06	7.775830E-9	NaN
78	1.000000	0.554673	7.36581e+06	-42539.1	955.818	-29782.9	0.000000	0.000000	6.554965	-0.015499	NaN	0.000000	0.001554	0.001659	28.1301	0.028012	0.002025	13.8334	-90.9132	-165.561	0.031657	0.553374	-0.506936	-0.508235	-0.015499	13.8334	-0.506095	-4.16882e+06	3.717754E-9	NaN
78	1.000000	0.562673	7.36581e+06	-42539.1	955.818	-29782.9	0.000000	0.000000	6.562969	0.087965	NaN	0.000000	0.001546	0.001663	28.1289	0.070070	0.001917	36.5592	-6.113324	-162.019	0.071987	0.561376	-0.498936	-0.500232	0.087965	36.5592	-0.500740	-3.51032e+06	-2.505888E-8	NaN
78	1.000000	0.570673	7.36581e+06	-42539.1	955.818	-29782.9	0.000000	0.000000	6.570967	0.039830	NaN	0.000000	0.001528	0.001667	28.1285	0.096818	0.001887	51.2967	5.721042	-164.266	0.041031	0.569394	-0.490936	-0.492214	0.039830	51.2967	-0.491518	-2.60979e+06	-1.526164E-8	NaN
78	1.000000	0.578682	7.36581e+06	-42539.1	955.818	-29782.9	0.000000	0.000000	6.578976	0.053615	NaN	0.000000	0.001526	0.001638	28.1289	0.145753	0.001917	76.0122	178.889	-165.662	0.104001	0.577359	-0.482927	-0.484249	0.053615	76.0122	-0.483456	-2.01322e+06	-2.663169E-8	NaN
78	1.000000	0.586691	7.36581e+06	-42539.1	955.819	-29782.9	0.000000	0.000000	6.586982	-0.044641	NaN	0.000000	0.001539	0.001659	28.129	0.108122	0.001988	54.3905	174.245	-164.197	-0.006974	0.585429	-0.474917	-0.476180	-0.044641	54.3905	-0.474302	-1.4987e+06	2.978677E-8	NaN
78	1.000000	0.594654	7.36581e+06	-42539.1	955.819	-29782.9	0.000000	0.000000	6.594949	0.050512	NaN	0.000000	0.001536	0.001684	28.1299	0.095020	0.002045	46.4715	65.2984	-164.796	0.036177	0.593391	-0.466954	-0.468218	0.050512	46.4715	-0.467769	-1.21372e+06	-4.161749E-8	NaN
78	1.000000	0.602687	7.36581e+06	-42539.1	955.819	-29782.9	0.000000	0.000000	6.602977	-0.041248	NaN	0.000000	0.001563	0.001680	28.1303	0.026937	0.002135	12.6162	149.588	-163.552	-0.015139	0.601375	-0.458922	-0.460234	-0.041248	12.6162	-0.456470	-842152	4.897968E-8	NaN
78	1.000000	0.610681	7.36581e+06	-42539.1	955.818	-29782.9	0.000000	0.000000	6.610975	0.025927	NaN	0.000000	0.001600	0.001683	28.1295	0.022200	0.001953	11.3671	42.6884	-166.771	-0.049450	0.609374	-0.450927	-0.452234	0.025927	11.3671	-0.452638	-743840	-3.485626E-8	NaN
78	1.000000	0.618696	7.36581e+06	-42539.1	955.819	-29782.9	0.000000	0.000000	6.618990	0.035118	NaN	0.000000	0.001601	0.001666	28.1298	0.072854	0.001973	36.9278	-48.6044	-164.101	0.022040	0.617343	-0.442913	-0.444266	0.035118	36.9278	-0.443626	-555288	-6.324201E-8	NaN
78	1.000000	0.626692	7.36581e+06	-42539.1	955.819	-29782.9	0.000000	0.000000	6.626985	0.009218	NaN	0.000000	0.001537	0.001684	28.1294	0.047941	0.002062	23.2517	111.048	-165.873	-0.035193	0.625419	-0.434916	-0.436190	0.009218	23.2517	-0.435214	-422447	-2.182130E-8	NaN
78	1.000000	0.634702	7.36581e+06	-42539.1	955.818	-29782.9	0.000000	0.000000	6.634995	0.015702	NaN	0.000000	0.001511	0.001677	28.1287	0.120030	0.002006	59.8471	5.368756	-160.746	-0.035182	0.633401	-0.426906	-0.428207	0.015702	59.8471	-0.427103	-324389	-4.840530E-8	NaN
78	1.000000	0.642704	7.36581e+06	-42539.1	955.819	-29782.9	0.000000	0.000000	6.642996	-0.010994	NaN	0.000000	0.001558	0.001684	28.1292	0.100479	0.001987	50.5608	-31.0223	-162.315	0.062931	0.641416	-0.418904	-0.420193	-0.010994	50.5608	-0.418741	-246923	4.452594E-8	NaN
78	1.000000	0.650701	7.36581e+06	-42539.1	955.819	-29782.9	0.000000	0.000000	6.650995	0.046461	NaN	0.000000	0.001552	0.001701	28.1286	0.071102	0.002039	34.8733	-85.109	-164.172	0.011360	0.649354	-0.410908	-0.412254	0.046461	34.8733	-0.411907	-197476	-2.352730E-7	NaN
78	1.000000	0.658715	7.36581e+06	-42539.1	955.819	-29782.9	0.000000	0.000000	6.659005	-0.048102	NaN	0.000000	0.001540	0.001682	28.1287	0.057747	0.001907	30.2777	83.0994	-168.641	-0.053555	0.657379	-0.402893	-0.404229	-0.048102	30.2777	-0.401702	-141338	3.403302E-7	NaN
78	1.000000	0.666739	7.36581e+06	-42539.1	955.819	-29782.9	0.000000	0.000000	6.667031	-0.031530	NaN	0.000000	0.001549	0.001638	28.1292	0.069220	0.002003	34.5662	-58.5918	-164.592	-0.091224	0.665409	-0.394869	-0.396200	-0.031530	34.5662	-0.394185	-110406	2.855857E-7	NaN
78	1.000000	0.674690	7.36581e+06	-42539.1	955.818	-29782.9	0.000000	0.000000	6.674982	-0.009151	NaN	0.000000	0.001540	0.001647	28.1298	0.026832	0.002058	13.039	95.9774	-163.266	-0.011924	0.673373	-0.386919	-0.388236	-0.009151	13.039	-0.386392	-85414.4	1.071364E-7	NaN
78	1.000000	0.682720	7.36581e+06	-42539.1	955.819	-29782.9	0.000000	0.000000	6.683012	-0.018468	NaN	0.000000	0.001510	0.001671	28.1301	0.085131	0.002024	42.0649	-19.5342	-166.19	0.030698	0.681393	-0.378888	-0.380216	-0.018468	42.0649	-0.378559	-65948.4	2.800368E-7	NaN
78	1.000000	0.690713	7.36581e+06	-42539.1	955.819	-29782.9	0.000000	0.000000	6.691007	0.050754	NaN	0.000000	0.001532	0.001695	28.1303	0.023206	0.002049	11.3239	-134.866	-165.158	0.029126	0.689436	-0.370896	-0.372172	0.050754	11.3239	-0.374257	-57199.1	-8.873297E-7	NaN
78	1.000000	0.698713	7.36581e+06	-42539.1	955.818	-29782.9	0.000000	0.000000	6.699004	-0.019982	NaN	0.000000	0.001563	0.001707	28.1311	0.026448	0.002065	12.8089	-131.425	-169.067	-0.012291	0.697435	-0.362896	-0.364173	-0.019982	12.8089	-0.361726	-37738.3	5.294968E-7	NaN
78	1.000000	0.706728	7.36581e+06	-42539.1	955.819	-29782.9	0.000000	0.000000	6.707022	0.053680	NaN	0.000000	0.001563	0.001691	28.131	0.115381	0.001897	60.8388	10.945	-163.932	0.075741	0.705409	-0.354881	-0.356200	0.053680	60.8388	-0.355542	-30715.2	-1.747662E-6	NaN
78	1.000000	0.714713	7.36581e+06	-42539.1	955.819	-29782.9	0.000000	0.000000	6.715008	0.056618	NaN	0.000000	0.001555	0.001646	28.1301	0.034346	0.001928	17.8162	41.1834	-166.273	0.036976	0.713396	-0.346895	-0.348212	0.056618	17.8162	-0.349279	-24919	-2.272074E-6	NaN
78	1.000000	0.722729	7.36581e+06	-42539.1	955.819	-29782.9	0.000000	0.000000	6.723019	-0.043112	NaN	0.000000	0.001563	0.001680	28.1306	0.002354	0.002052	1.146801	-83.5098	-164.483	-0.042525	0.721422	-0.338880	-0.340186	-0.043112	1.146801	-0.310685	-6779.31	6.359363E-6	NaN
78	1.000000	0.730730	7.36581e+06	-42539.1	955.819	-29782.9	0.000000	0.000000	6.731024	0.045174	NaN	0.000000	0.001555	0.001670	28.1298	0.059730	0.001973	30.2722	-102.836	-164.495	0.048315	0.729437	-0.330879	-0.332172	0.045174	30.2722	-0.331998	-13954	-3.237342E-6	NaN
78	1.000000	0.738777	7.36581e+06	-42539.1	955.818	-29782.9	0.000000	0.000000	6.739069	0.014058	NaN	0.000000	0.001575	0.001684	28.1301	0.109087	0.001977	55.1916	-111.345	-167.561	-0.060840	0.737454	-0.322832	-0.324155	0.014058	55.1916	-0.323023	-10306.2	-1.364049E-6	NaN
78	1.000000	0.746760	7.36581e+06	-42539.1	955.818	-29782.9	0.000000	0.000000	6.747052	0.011640	NaN	0.000000	0.001551	0.001681	28.1316	0.113505	0.002120	53.5378	104.896	-164.47	0.043405	0.745451	-0.314849	-0.316158	0.011640	53.5378	-0.315012	-7854.61	-1.481911E-6	NaN
78	1.000000	0.754749	7.36581e+06	-42539.1	955.819	-29782.9	0.000000	0.000000	6.755042	0.008110	NaN	0.000000	0.001571	0.001681	28.1315	0.060059	0.002124	28.2798	-108.598	-165.167	0.033610	0.753476	-0.306859	-0.308132	0.008110	28.2798	-0.307074	-5994.07	-1.353056E-6	NaN
78	1.000000	0.762742	7.36581e+06	-42539.1	955.818	-29782.9	0.000000	0.000000	6.763033	-0.040172	NaN	0.000000	0.001542	0.001697	28.1312	0.064488	0.001906	33.8317	117.511	-163.454	-0.050164	0.761475	-0.298866	-0.300134	-0.040172	33.8317	-0.297976	-4390.2	9.150370E-6	NaN
78	1.000000	0.770733	7.36581e+06	-42539.1	955.819	-29782.9	0.000000	0.000000	6.771025	-0.017118	NaN	0.000000	0.001529	0.001695	28.1312	0.059903	0.002044	29.3034	156.461	-165.092	-0.031464	0.769420	-0.290875	-0.292189	-0.017118	29.3034	-0.290437	-3387.26	5.053500E-6	NaN
78	1.000000	0.778768	7.36581e+06	-42539.1	955.819	-29782.9	0.000000	0.000000	6.779062	0.051984	NaN	0.000000	0.001524	0.001690	28.1314	0.079309	0.002149	36.9107	-155.236	-166.728	0.071415	0.777448	-0.282841	-0.284160	0.051984	36.9107	-0.283897	-2701.96	-1.923925E-5	NaN
78	1.000000	0.786794	7.36581e+06	-42539.1	955.818	-29782.9	0.000000	0.000000	6.787088	0.031051	NaN	0.000000	0.001596	0.001698	28.1316	0.011571	0.001901	6.088388	57.8957	-165.051	-0.045448	0.785444	-0.274814	-0.276165	0.031051	6.088388	-0.278639	-2251.28	-1.379255E-5	NaN
78	1.000000	0.794774	7.36581e+06	-42539.1	955.818	-29782.9	0.000000	0.000000	6.795071	0.111248	NaN	0.000000	0.001542	0.001714	28.1302	0.049332	0.001992	24.7614	-155.806	-162.269	0.030703	0.793489	-0.266835	-0.268119	0.111248	24.7614	-0.270205	-1677.47	-6.631895E-5	NaN
78	1.000000	0.802774	7.36581e+06	-42539.1	955.819	-29782.9	0.000000	0.000000	6.803067	0.029008	NaN	0.000000	0.001562	0.001664	28.1304	0.088555	0.002003	44.2077	-27.6334	-166.258	-0.051408	0.801522	-0.258835	-0.260087	0.029008	44.2077	-0.259327	-1144.45	-2.534692E-5	NaN
78	1.000000	0.810799	7.36581e+06	-42539.1	955.82	-29782.9	0.000000	0.000000	6.811094	0.055296	NaN	0.000000	0.001553	0.001696	28.1306	0.017064	0.001966	8.680656	161.496	-168.401	0.053445	0.809455	-0.250809	-0.252153	0.055296	8.680656	-0.255587	-1002.64	-5.515083E-5	NaN
78	1.000000	0.818783	7.36581e+06	-42539.1	955.818	-29782.9	0.000000	0.000000	6.819076	-0.004343	NaN	0.000000	0.001575	0.001688	28.1309	0.040066	0.002014	19.8931	43.8182	-164.301	0.029614	0.817461	-0.242825	-0.244147	-0.004343	19.8931	-0.242661	-632.508	6.866791E-6	NaN
78	1.000000	0.826782	7.36581e+06	-42539.1	955.819	-29782.9	0.000000	0.000000	6.827074	-0.017364	NaN	0.000000	0.001592	0.001680	28.1308	0.080110	0.002071	38.6819	-86.8762	-163.382	-0.020222	0.825474	-0.234826	-0.236134	-0.017364	38.6819	-0.234490	-471.23	3.684736E-5	NaN
78	1.000000	0.834785	7.36581e+06	-42539.1	955.818	-29782.9	0.000000	0.000000	6.835078	0.021201	NaN	0.000000	0.001621	0.001662	28.1301	0.039197	0.001990	19.6993	-8.409178	-164.254	0.049209	0.833465	-0.226823	-0.228143	0.021201	19.6993	-0.227631	-367.326	-5.771600E-5	NaN
78	1.000000	0.842803	7.36581e+06	-42539.1	955.819	-29782.9	0.000000	0.000000	6.843098	0.061934	NaN	0.000000	0.001599	0.001697	28.1303	0.083026	0.002014	41.2238	165.471	-164.334	0.014387	0.841477	-0.218806	-0.220131	0.061934	41.2238	-0.219932	-277.073	-0.000224	NaN
78	1.000000	0.850822	7.36581e+06	-42539.1	955.819	-29782.9	0.000000	0.000000	6.851116	0.044579	NaN	0.000000	0.001628	0.001700	28.1301	0.112535	0.002022	55.6639	-174.549	-163.973	0.030786	0.849510	-0.210787	-0.212098	0.044579	55.6639	-0.211387	-201.959	-0.000221	NaN
78	1.000000	0.858795	7.36581e+06	-42539.1	955.818	-29782.9	0.000000	0.000000	6.859086	-0.031189	NaN	0.000000	0.001553	0.001702	28.1299	0.130715	0.002093	62.4678	-79.9546	-165.661	-0.045346	0.857484	-0.202814	-0.204125	-0.031189	62.4678	-0.202440	-144.449	0.000216	NaN
78	1.000000	0.866795	7.36581e+06	-42539.1	955.819	-29782.9	0.000000	0.000000	6.867089	0.034315	NaN	0.000000	0.001555	0.001723	28.13	0.045328	0.001867	24.2832	-176.584	-163.732	-0.075803	0.865509	-0.194814	-0.196100	0.034315	24.2832	-0.195873	-112.631	-0.000305	NaN
78	1.000000	0.874825	7.36581e+06	-42539.1	955.818	-29782.9	0.000000	0.000000	6.875120	0.049236	NaN	0.000000	0.001589	0.001695	28.129	0.079670	0.002018	39.4778	37.5768	-161.55	0.088572	0.873485	-0.186783	-0.188123	0.049236	39.4778	-0.187718	-82.383	-0.000598	NaN
78	1.000000	0.882786	7.36581e+06	-42539.1	955.819	-29782.9	0.000000	0.000000	6.883079	0.013622	NaN	0.000000	0.001562	0.001695	28.1293	0.038760	0.001895	20.4488	-60.0539	-165.546	0.007284	0.881498	-0.178823	-0.180111	0.013622	20.4488	-0.179322	-59.4195	-0.000229	NaN
78	1.000000	0.890796	7.36581e+06	-42539.1	955.819	-29782.9	0.000000	0.000000	6.891088	0.003882	NaN	0.000000	0.001586	0.001695	28.1292	0.091029	0.001871	48.6616	-56.6247	-161.644	-0.021798	0.889498	-0.170813	-0.172111	0.003882	48.6616	-0.170872	-42.5352	-9.125902E-5	NaN
78	1.000000	0.898826	7.36581e+06	-42539.1	955.818	-29782.9	0.000000	0.000000	6.899119	0.013479	NaN	0.000000	0.001519	0.001668	28.1292	0.102624	0.002000	51.3247	62.5705	-159.996	-0.058227	0.897517	-0.162782	-0.164092	0.013479	51.3247	-0.162979	-30.9555	-0.000435	NaN
78	1.000000	0.906835	7.36581e+06	-42539.1	955.818	-29782.9	0.000000	0.000000	6.907130	0.050610	NaN	0.000000	0.001603	0.001664	28.1293	0.049900	0.002040	24.4629	-74.3332	-164.898	-0.041719	0.905500	-0.154773	-0.156108	0.050610	24.4629	-0.156325	-23.5709	-0.002147	NaN
78	1.000000	0.914804	7.36581e+06	-42539.1	955.819	-29782.9	0.000000	0.000000	6.915096	-0.023880	NaN	0.000000	0.001608	0.001675	28.1299	0.095343	0.001883	50.6329	33.4953	-164.937	-0.119114	0.913548	-0.146804	-0.148061	-0.023880	50.6329	-0.146451	-15.5936	0.001531	NaN
78	1.000000	0.922848	7.36581e+06	-42539.1	955.818	-29782.9	0.000000	0.000000	6.923140	-0.028082	NaN	0.000000	0.001648	0.001673	28.13	0.097523	0.001986	49.1036	69.3335	-167.216	0.101895	0.921547	-0.138760	-0.140062	-0.028082	49.1036	-0.138331	-11.0037	0.002552	NaN
78	1.000000	0.930810	7.36581e+06	-42539.1	955.818	-29782.9	0.000000	0.000000	6.931105	0.045403	NaN	0.000000	0.001588	0.001719	28.1302	0.009840	0.002089	4.711472	96.9616	-164.46	-0.057574	0.929499	-0.130798	-0.132110	0.045403	4.711472	-0.138026	-10.8584	-0.004181	NaN
78	1.000000	0.938836	7.36581e+06	-42539.1	955.819	-29782.9	0.000000	0.000000	6.939131	0.049097	NaN	0.000000	0.001641	0.001699	28.1302	0.025798	0.001915	13.4695	-18.0386	-163.432	0.066547	0.937535	-0.122772	-0.124074	0.049097	13.4695	-0.125506	-6.222939	-0.007890	NaN
78	1.000000	0.946812	7.36581e+06	-42539.1	955.818	-29782.9	0.000000	0.000000	6.947104	-0.012751	NaN	0.000000	0.001619	0.001702	28.1301	0.139604	0.002105	66.3205	163.681	-163.075	-0.084324	0.945552	-0.114796	-0.116057	-0.012751	66.3205	-0.114652	-3.757781	0.003393	NaN
78	1.000000	0.954834	7.36581e+06	-42539.1	955.819	-29782.9	0.000000	0.000000	6.955126	-0.001929	NaN	0.000000	0.001584	0.001688	28.1293	0.013168	0.002019	6.522370	98.143	-167.687	0.020012	0.953542	-0.106775	-0.108067	-0.001929	6.522370	-0.106553	-2.538601	0.000760	NaN
78	1.000000	0.962863	7.36581e+06	-42539.1	955.818	-29782.9	0.000000	0.000000	6.963156	0.011282	NaN	0.000000	0.001595	0.001704	28.1291	0.045682	0.001983	23.0343	159.857	-162.6	-0.031378	0.961516	-0.098746	-0.100092	0.011282	23.0343	-0.099113	-1.746067	-0.006461	NaN
78	1.000000	0.970868	7.36581e+06	-42539.1	955.818	-29782.9	0.000000	0.000000	6.971160	-0.007233	NaN	0.000000	0.001596	0.001705	28.1311	0.093458	0.001988	47.0091	149.321	-165.66	-0.011523	0.969545	-0.090740	-0.092063	-0.007233	47.0091	-0.090625	-1.118035	0.006469	NaN
78	1.000000	0.978825	7.36581e+06	-42539.1	955.819	-29782.9	0.000000	0.000000	6.979119	0.045999	NaN	0.000000	0.001583	0.001763	28.1305	0.074039	0.001878	39.4253	-143.717	-164.93	0.047896	0.977576	-0.082784	-0.084033	0.045999	39.4253	-0.083659	-0.762216	-0.060349	NaN
78	1.000000	0.986876	7.36581e+06	-42539.1	955.818	-29782.9	0.000000	0.000000	6.987169	0.017323	NaN	0.000000	0.001547	0.001723	28.1305	0.070144	0.001991	35.2293	159.962	-166.009	-0.036888	0.985568	-0.074732	-0.076040	0.017323	35.2293	-0.075101	-0.464665	-0.037281	NaN
78	1.000000	0.994884	7.36581e+06	-42539.1	955.818	-29782.9	0.000000	0.000000	6.995177	0.021851	NaN	0.000000	0.001566	0.001704	28.1316	0.036062	0.002136	16.8793	11.4065	-163.885	0.109401	0.993544	-0.066725	-0.068065	0.021851	16.8793	-0.067696	-0.295572	-0.073926	NaN
78	1.000000	1.002862	7.36581e+06	-42539.1	955.819	-29782.9	0.000000	0.000000	7.003153	-0.039454	NaN	0.000000	0.001583	0.001691	28.1314	0.056363	0.002020	27.901	-2.039576	-165.341	0.066556	1.001567	-0.058746	-0.060041	-0.039454	27.901	-0.057686	-0.154391	0.255545	NaN
78	1.000000	1.010859	7.36581e+06	-42539.1	955.818	-29782.9	0.000000	0.000000	7.011153	0.035527	NaN	0.000000	0.001574	0.001683	28.1315	0.048384	0.002077	23.3007	38.149	-166.877	-0.051059	1.009543	-0.050749	-0.052066	0.035527	23.3007	-0.051893	-0.104055	-0.341431	NaN
78	1.000000	1.018839	7.36581e+06	-42539.1	955.817	-29782.9	0.000000	0.000000	7.019132	0.001751	NaN	0.000000	0.001566	0.001689	28.1314	0.035207	0.001995	17.6443	26.4318	-166.418	-0.013801	1.017506	-0.042769	-0.044102	0.001751	17.6443	-0.042844	-0.055215	-0.031720	NaN
78	1.000000	1.026857	7.36581e+06	-42539.1	955.818	-29782.9	0.000000	0.000000	7.027150	0.006570	NaN	0.000000	0.001565	0.001718	28.1311	0.054101	0.002005	26.9866	-126.948	-164.849	0.012175	1.025588	-0.034751	-0.036020	0.006570	26.9866	-0.034934	-0.031881	-0.206077	NaN
78	1.000000	1.034886	7.36581e+06	-42539.1	955.818	-29782.9	0.000000	0.000000	7.035184	0.125472	NaN	0.000000	0.001587	0.001688	28.1304	0.075014	0.002187	34.2947	-52.0194	-165.518	0.106415	1.033592	-0.026722	-0.028016	0.125472	34.2947	-0.029466	-0.022241	-5.641576	NaN
78	1.000000	1.042881	7.36581e+06	-42539.1	955.818	-29782.9	0.000000	0.000000	7.043172	-0.048070	NaN	0.000000	0.001546	0.001654	28.1308	0.045623	0.001870	24.392	-75.6972	-162.222	0.045762	1.041494	-0.018727	-0.020114	-0.048070	24.392	-0.017249	-0.010671	4.504961	NaN
78	1.000000	1.050852	7.36581e+06	-42539.1	955.818	-29782.9	0.000000	0.000000	7.051156	0.280541	NaN	0.000000	0.001583	0.001692	28.1307	0.294531	0.001785	165.032	27.8895	-166.905	0.251536	1.049590	-0.010757	-0.012019	0.280541	165.032	-0.012031	-0.007547	-37.1748	NaN
78	1.000000	1.058856	7.36581e+06	-42539.1	955.818	-29782.9	0.000000	0.000000	7.059186	0.918042	NaN	0.000000	0.001602	0.001706	28.1305	0.597539	0.001917	311.696	18.9636	-164.259	0.745481	1.057586	-0.002753	-0.004023	0.918042	311.696	-0.004962	-0.003393	-270.594	NaN
78	1.000000	1.066876	7.36581e+06	-42539.1	955.818	-29782.9	0.000000	0.000000	7.067310	3.452111	NaN	0.000000	0.001584	0.001731	28.1307	3.146371	0.001833	1716.44	13.2312	-172.073	2.359054	1.065616	0.005267	0.004007	3.452111	1716.44	0.003759	0.003029	1139.8	28495.4
78	2.000000	1.073437	7.36581e+06	-42539.1	955.818	-29782.9	0.000000	0.000000	7.074086	8.669197	NaN	0.000000	0.001577	0.001735	28.1319	8.306129	0.001679	4946.13	8.374440	-171.231	8.821348	1.073007	0.011829	0.011399	8.669197	4946.13	0.010514	0.009758	888.385	45745.7
78	2.000000	1.075414	7.36581e+06	-42539.1	955.817	-29782.9	0.000000	0.000000	7.076193	11.8397	NaN	0.000000	0.001572	0.001656	28.1319	10.9732	0.001788	6138.81	7.457172	-171.892	11.5074	1.075134	0.013805	0.013525	11.8397	6138.81	0.012359	0.011923	993.045	51365.4
78	2.000000	1.077382	7.36581e+06	-42539.1	955.817	-29782.9	0.000000	0.000000	7.078237	13.6935	NaN	0.000000	0.001591	0.001693	28.1319	12.5677	0.001873	6708.45	5.727398	-169.968	13.5161	1.077098	0.015774	0.015489	13.6935	6708.45	0.014243	0.014289	958.327	51273.8
78	2.000000	1.079377	7.36581e+06	-42539.1	955.818	-29782.9	0.000000	0.000000	7.080361	16.8202	NaN	0.000000	0.001564	0.001715	28.1314	14.9358	0.001646	9074.34	7.909645	-176.18	16.2601	1.079047	0.017769	0.017438	16.8202	9074.34	0.016378	0.017168	979.76	63275
78	2.000000	1.081394	7.36581e+06	-42539.1	955.818	-29782.9	0.000000	0.000000	7.082492	19.5879	NaN	0.000000	0.001613	0.001669	28.1305	17.1609	0.001797	9550.37	8.631263	-175.469	19.0457	1.080971	0.019786	0.019362	19.5879	9550.37	0.018248	0.019863	986.14	61911.2
78	2.000000	1.083355	7.36581e+06	-42539.1	955.819	-29782.9	0.000000	0.000000	7.084620	23.6682	NaN	0.000000	0.001597	0.001698	28.1295	19.0506	0.001804	10562.2	10.2753	-178.406	23.1599	1.083003	0.021746	0.021394	23.6682	10562.2	0.020066	0.022645	1045.16	64126.2
78	2.000000	1.085373	7.36581e+06	-42539.1	955.819	-29782.9	0.000000	0.000000	7.086791	27.3889	NaN	0.000000	0.001572	0.001701	28.1294	21.2783	0.001844	11539.5	7.390552	-176.652	27.03	1.085013	0.023764	0.023405	27.3889	11539.5	0.021984	0.025756	1063.39	65693.1
78	2.000000	1.087304	7.36581e+06	-42539.1	955.818	-29782.9	0.000000	0.000000	7.088907	31.8695	NaN	0.000000	0.001578	0.001716	28.1291	22.8646	0.001846	12388.1	8.605831	-178.62	30.6574	1.086997	0.025696	0.025388	31.8695	12388.1	0.023766	0.028810	1106.21	66682
78	2.000000	1.089377	7.36581e+06	-42539.1	955.818	-29782.9	0.000000	0.000000	7.091069	34.0544	NaN	0.000000	0.001576	0.001708	28.1291	25.1521	0.001909	13175.4	7.038382	-178.004	34.4657	1.089021	0.027769	0.027413	34.0544	13175.4	0.025830	0.032543	1046.43	66727.4
78	2.000000	1.091371	7.36581e+06	-42539.1	955.817	-29782.9	0.000000	0.000000	7.093314	40.1422	NaN	0.000000	0.001586	0.001707	28.1296	26.2668	0.001648	15940.2	2.278819	-175.244	40.6839	1.091099	0.029763	0.029491	40.1422	15940.2	0.027874	0.036453	1101.22	76278.6
78	2.000000	1.093340	7.36581e+06	-42539.1	955.817	-29782.9	0.000000	0.000000	7.095578	47.3573	NaN	0.000000	0.001568	0.001723	28.1307	28.3952	0.001873	15163.5	5.243036	-177.836	47.9073	1.093042	0.031731	0.031434	47.3573	15163.5	0.029389	0.039486	1199.34	69718.9
78	2.000000	1.095348	7.36581e+06	-42539.1	955.818	-29782.9	0.000000	0.000000	7.097889	54.7124	NaN	0.000000	0.001591	0.001708	28.1302	30.6478	0.001705	17971.5	7.959315	177.828	54.2047	1.094973	0.033740	0.033364	54.7124	17971.5	0.031457	0.043817	1248.66	78440.1
78	2.000000	1.097292	7.36581e+06	-42539.1	955.819	-29782.9	0.000000	0.000000	7.100114	61.5672	NaN	0.000000	0.001579	0.001709	28.1304	31.6531	0.001717	18436.2	7.524745	177.794	60.0376	1.096938	0.035683	0.035329	61.5672	18436.2	0.033178	0.047589	1293.72	77212.7
78	2.000000	1.099299	7.36581e+06	-42539.1	955.818	-29782.9	0.000000	0.000000	7.102295	65.7839	NaN	0.000000	0.001592	0.001684	28.1305	34.9781	0.001799	19445.6	8.809430	176.779	64.7963	1.099044	0.037690	0.037436	65.7839	19445.6	0.035153	0.052103	1262.58	77833
78	2.000000	1.101331	7.36581e+06	-42539.1	955.818	-29782.9	0.000000	0.000000	7.104592	72.208	NaN	0.000000	0.001595	0.001698	28.1301	36.7921	0.001791	20539	5.893566	179.902	72.0098	1.100941	0.039723	0.039333	72.208	20539	0.037086	0.056715	1273.17	78795.9
78	2.000000	1.103309	7.36581e+06	-42539.1	955.818	-29782.9	0.000000	0.000000	7.106850	79.0435	NaN	0.000000	0.001595	0.001758	28.1297	38.5362	0.001834	21011.3	6.120388	179.44	78.7595	1.102932	0.041700	0.041324	79.0435	21011.3	0.038879	0.061163	1292.34	77621.4
78	2.000000	1.105261	7.36581e+06	-42539.1	955.818	-29782.9	0.000000	0.000000	7.109210	88.953	NaN	0.000000	0.001604	0.001705	28.1295	40.6635	0.001741	23353.1	3.381541	179.652	87.2531	1.105010	0.043653	0.043401	88.953	23353.1	0.040796	0.066101	1345.7	82987.6
78	2.000000	1.107261	7.36581e+06	-42539.1	955.818	-29782.9	0.000000	0.000000	7.111448	94.7586	NaN	0.000000	0.001569	0.001696	28.1291	42.1806	0.001702	24785	6.524795	176.563	93.3682	1.106995	0.045652	0.045386	94.7586	24785	0.042785	0.071423	1326.72	84731.2
78	2.000000	1.109261	7.36581e+06	-42539.1	955.818	-29782.9	0.000000	0.000000	7.113769	102.585	NaN	0.000000	0.001593	0.001692	28.1292	44.755	0.001830	24455	5.444934	177.347	100.94	1.108895	0.047652	0.047286	102.585	24455	0.044506	0.076192	1346.41	80944.5
78	2.000000	1.111330	7.36581e+06	-42539.1	955.818	-29782.9	0.000000	0.000000	7.116227	112.042	NaN	0.000000	0.001597	0.001693	28.1293	47.779	0.001829	26128.3	9.241420	173.378	111.319	1.110937	0.049722	0.049328	112.042	26128.3	0.046506	0.081919	1367.72	83405.1
78	2.000000	1.113334	7.36581e+06	-42539.1	955.819	-29782.9	0.000000	0.000000	7.118505	118.709	NaN	0.000000	0.001586	0.001656	28.1303	47.9868	0.001622	29581	1.843907	178.714	119.244	1.113035	0.051725	0.051426	118.709	29581	0.048715	0.088484	1341.59	90856.1
78	2.000000	1.115268	7.36581e+06	-42539.1	955.818	-29782.9	0.000000	0.000000	7.120962	131.422	NaN	0.000000	0.001599	0.001671	28.1317	53.2948	0.001774	30038.8	7.805042	173.029	128.156	1.115020	0.053660	0.053411	131.422	30038.8	0.050378	0.093586	1404.28	89711.7
78	2.000000	1.117256	7.36581e+06	-42539.1	955.819	-29782.9	0.000000	0.000000	7.123379	141.858	NaN	0.000000	0.001590	0.001664	28.1314	54.2012	0.001737	31200	6.810518	173.913	139.257	1.116937	0.055647	0.055328	141.858	31200	0.052237	0.099454	1426.37	90389.4
78	2.000000	1.119240	7.36581e+06	-42539.1	955.819	-29782.9	0.000000	0.000000	7.125858	153.914	NaN	0.000000	0.001560	0.001708	28.1324	56.1085	0.001705	32908.1	5.622114	175.012	151.259	1.118945	0.057632	0.057337	153.914	32908.1	0.054124	0.105584	1457.74	92528.7
78	2.000000	1.121289	7.36581e+06	-42539.1	955.819	-29782.9	0.000000	0.000000	7.128472	167.653	NaN	0.000000	0.001590	0.001716	28.1312	59.3174	0.001852	32027.8	8.551287	172.647	165.532	1.120858	0.059681	0.059249	167.653	32027.8	0.055755	0.111027	1510.02	87818.5
78	2.000000	1.123255	7.36581e+06	-42539.1	955.819	-29782.9	0.000000	0.000000	7.130687	173.699	NaN	0.000000	0.001555	0.001682	28.1305	60.3434	0.001767	34150.4	5.036050	174.857	171.094	1.122938	0.061647	0.061329	173.699	34150.4	0.057832	0.118149	1470.17	90772.6
78	2.000000	1.125178	7.36581e+06	-42539.1	955.819	-29782.9	0.000000	0.000000	7.133130	186.383	NaN	0.000000	0.001579	0.001677	28.1308	63.7058	0.001848	34476.9	7.258500	172.781	182.079	1.124879	0.063569	0.063270	186.383	34476.9	0.059515	0.124074	1502.19	89425.5
78	2.000000	1.127243	7.36581e+06	-42539.1	955.819	-29782.9	0.000000	0.000000	7.135766	200.272	NaN	0.000000	0.001596	0.001674	28.1303	63.9461	0.001711	37372.5	3.012157	176.43	197.879	1.126928	0.065634	0.065320	200.272	37372.5	0.061615	0.131664	1521.08	94100.5
78	2.000000	1.129215	7.36581e+06	-42539.1	955.819	-29782.9	0.000000	0.000000	7.138351	215.178	NaN	0.000000	0.001594	0.001676	28.1309	66.3702	0.001727	38432.5	7.257387	171.923	213.408	1.128975	0.067606	0.067366	215.178	38432.5	0.063407	0.138309	1555.77	94416.2
78	2.000000	1.131252	7.36581e+06	-42539.1	955.818	-29782.9	0.000000	0.000000	7.140943	228.681	NaN	0.000000	0.001611	0.001668	28.1307	69.9116	0.001830	38208.2	6.395760	173.761	225.834	1.130979	0.069643	0.069371	228.681	38208.2	0.065154	0.144938	1577.79	91693.6
78	2.000000	1.133317	7.36581e+06	-42539.1	955.819	-29782.9	0.000000	0.000000	7.143532	241.418	NaN	0.000000	0.001578	0.001675	28.1316	70.917	0.001744	40663.2	5.067312	173.945	243.143	1.132937	0.071709	0.071329	241.418	40663.2	0.067256	0.153105	1576.82	94946.9
78	2.000000	1.135188	7.36581e+06	-42539.1	955.818	-29782.9	0.000000	0.000000	7.146115	258.751	NaN	0.000000	0.001589	0.001701	28.1316	74.2764	0.001862	39897.6	4.842769	173.989	254.723	1.134920	0.073580	0.073312	258.751	39897.6	0.068716	0.158902	1628.37	91444
78	2.000000	1.137198	7.36581e+06	-42539.1	955.818	-29782.9	0.000000	0.000000	7.148657	271.693	NaN	0.000000	0.001604	0.001679	28.1312	74.6803	0.001743	42855.7	5.417588	172.851	267.518	1.136853	0.075589	0.075245	271.693	42855.7	0.070834	0.167498	1622.07	95670.3
78	2.000000	1.139178	7.36581e+06	-42539.1	955.818	-29782.9	0.000000	0.000000	7.151297	287.759	NaN	0.000000	0.001610	0.001683	28.1319	77.7858	0.001838	42321.3	4.096317	174.033	283.931	1.138994	0.077569	0.077386	287.759	42321.3	0.072470	0.174280	1651.13	92620.8
78	2.000000	1.141262	7.36581e+06	-42539.1	955.819	-29782.9	0.000000	0.000000	7.154046	303.935	NaN	0.000000	0.001598	0.001687	28.1312	79.4711	0.001726	46052	7.466850	170.344	302.626	1.140920	0.079653	0.079312	303.935	46052	0.074704	0.183746	1654.1	98155
78	2.000000	1.143205	7.36581e+06	-42539.1	955.819	-29782.9	0.000000	0.000000	7.156681	320.775	NaN	0.000000	0.001591	0.001677	28.1307	81.4722	0.001762	46236.5	9.277918	168.868	318.785	1.142938	0.081596	0.081329	320.775	46236.5	0.076393	0.191063	1678.9	96642.9
78	2.000000	1.145145	7.36581e+06	-42539.1	955.819	-29782.9	0.000000	0.000000	7.159246	335.993	NaN	0.000000	0.001594	0.001698	28.1307	83.2197	0.001737	47919	2.532337	175.231	329.97	1.144958	0.083536	0.083349	335.993	47919	0.078277	0.199380	1685.19	98048.4
78	2.000000	1.147234	7.36581e+06	-42539.1	955.819	-29782.9	0.000000	0.000000	7.162185	356.655	NaN	0.000000	0.001597	0.001670	28.1301	84.8101	0.001771	47884.1	4.798906	172.59	355.226	1.146922	0.085626	0.085314	356.655	47884.1	0.080040	0.207308	1720.41	96085.2
78	2.000000	1.149240	7.36581e+06	-42539.1	955.819	-29782.9	0.000000	0.000000	7.164718	369.459	NaN	0.000000	0.001601	0.001662	28.1295	86.8853	0.001732	50167.1	4.352583	172.597	368.268	1.148982	0.087632	0.087373	369.459	50167.1	0.082109	0.216802	1704.13	98437.6
78	2.000000	1.151223	7.36581e+06	-42539.1	955.82	-29782.9	0.000000	0.000000	7.167861	397.693	NaN	0.000000	0.001560	0.001689	28.1297	90.0029	0.001812	49676.3	5.857831	171.766	394.921	1.150819	0.089615	0.089210	397.693	49676.3	0.083611	0.223818	1776.86	95934.6
78	2.000000	1.153164	7.36581e+06	-42539.1	955.819	-29782.9	0.000000	0.000000	7.170714	419.883	NaN	0.000000	0.001556	0.001673	28.13	90.5883	0.001785	50755.1	3.682264	173.66	415.54	1.152847	0.091556	0.091239	419.883	50755.1	0.085351	0.232081	1809.21	96257.2
78	2.000000	1.155140	7.36581e+06	-42539.1	955.818	-29782.9	0.000000	0.000000	7.173563	441.137	NaN	0.000000	0.001576	0.001660	28.1303	93.9321	0.001806	52018	4.402590	172.895	435.861	1.154848	0.093531	0.093240	441.137	52018	0.087171	0.240867	1831.46	96836.4
78	2.000000	1.157062	7.36581e+06	-42539.1	955.818	-29782.9	0.000000	0.000000	7.176183	458.11	NaN	0.000000	0.001594	0.001677	28.1299	94.9116	0.001754	54110.7	5.414354	171.52	450.195	1.156812	0.095454	0.095203	458.11	54110.7	0.089104	0.250368	1829.74	98802.2
78	2.000000	1.159167	7.36581e+06	-42539.1	955.819	-29782.9	0.000000	0.000000	7.179447	486.309	NaN	0.000000	0.001583	0.001696	28.1302	98.9717	0.001865	53081.9	7.683641	168.772	481.564	1.158857	0.097559	0.097248	486.309	53081.9	0.090688	0.258280	1882.88	95427.7
78	2.000000	1.161229	7.36581e+06	-42539.1	955.819	-29782.9	0.000000	0.000000	7.182448	509.183	NaN	0.000000	0.001557	0.001678	28.1297	99.1253	0.001741	56925.4	4.008599	172.693	507.203	1.160983	0.099620	0.099374	509.183	56925.4	0.092912	0.269582	1888.78	100169
78	2.000000	1.163186	7.36581e+06	-42539.1	955.818	-29782.9	0.000000	0.000000	7.185261	529.978	NaN	0.000000	0.001574	0.001671	28.129	101.191	0.001672	60520.4	5.329988	170.826	526.375	1.162785	0.101578	0.101177	529.978	60520.4	0.095010	0.280457	1889.69	104410
78	2.000000	1.165182	7.36581e+06	-42539.1	955.819	-29782.9	0.000000	0.000000	7.187792	543.012	NaN	0.000000	0.001583	0.001689	28.1293	104.486	0.001820	57410.1	3.915858	172.39	540.098	1.165015	0.103573	0.103407	543.012	57410.1	0.096479	0.288189	1884.22	97706.5
78	2.000000	1.167171	7.36581e+06	-42539.1	955.818	-29782.9	0.000000	0.000000	7.190922	570.765	NaN	0.000000	0.001602	0.001678	28.1287	104.211	0.001663	62682.3	2.788931	173.063	566.353	1.166887	0.105563	0.105279	570.765	62682.3	0.098734	0.300246	1900.99	104515
78	2.000000	1.169314	7.36581e+06	-42539.1	955.818	-29782.9	0.000000	0.000000	7.193846	589.758	NaN	0.000000	0.001597	0.001715	28.1289	106.442	0.001683	63263.8	2.810933	173.409	595.288	1.168955	0.107706	0.107346	589.758	63263.8	0.100714	0.311026	1896.17	103641
78	2.000000	1.171231	7.36581e+06	-42539.1	955.818	-29782.9	0.000000	0.000000	7.196901	617.477	NaN	0.000000	0.001611	0.001702	28.1293	110.49	0.001803	61289.8	7.893505	168.382	616.656	1.170851	0.109622	0.109242	617.477	61289.8	0.102066	0.318490	1938.76	99223.2