File: remote_trans/data/nanoindenter/0828-1/data/Data_2025-08-06,11h17m57s/2025-07-22_16-23-58_1_1006.txt
2025-07-22, 16:23:58, 1
Index	Phase	Displacement	Time	Pos X	Pos Y	Pos Z	Rot A	Rot B	Piezo Z	Force A	Force B	Gripper	Voltage A	Voltage B	Temperature	Amplitude force	Amplitude pos	Stiffness	Phase shift	Phase excitation	Force A raw	Displacement raw	HMax	HMax raw	Real Force	Real Stiffness	Contact Depth	Area	Hardness	Reduced Mod.
[#]	[#]	[um]	[s]	[um]	[um]	[um]	[m°]	[m°]	[um]	[uN]	[uN]	[V]	[V]	[V]	[°C]	[uN]	[um]	[N/m]	[°]	[°]	[uN]	[um]	[um]	[um]	[uN]	[N/m]	[um]	[um^2]	[MPa]	[MPa]
1006	1.000000	0.001854	7.37489e+06	-50439.1	1055.82	-29755.7	0.000000	0.000000	6.002769	-0.030521	NaN	0.000000	0.001564	0.001698	28.0833	0.021117	0.000954	22.1347	-122.176	-162.885	0.030623	0.000638	-1.023621	-1.024836	-0.030521	22.1347	-1.022586	-4.568256E+13	6.681169E-16	NaN
1006	1.000000	0.009841	7.37489e+06	-50439.1	1055.82	-29755.7	0.000000	0.000000	6.010757	-0.035760	NaN	0.000000	0.001567	0.001727	28.0829	0.133177	0.000827	161.072	99.5357	-168.47	0.022052	0.008496	-1.015633	-1.016979	-0.035760	161.072	-1.015466	-3.663930E+13	9.760144E-16	NaN
1006	1.000000	0.017846	7.37489e+06	-50439.1	1055.82	-29755.7	0.000000	0.000000	6.018760	-0.047565	NaN	0.000000	0.001569	0.001717	28.083	0.122598	0.001738	70.5568	-137.604	-166.924	-0.007507	0.016526	-1.007629	-1.008948	-0.047565	70.5568	-1.007123	-2.829173E+13	1.681246E-15	NaN
1006	1.000000	0.025848	7.37489e+06	-50439.1	1055.82	-29755.7	0.000000	0.000000	6.026765	-0.004586	NaN	0.000000	0.001584	0.001704	28.083	0.071805	0.001930	37.2108	108.164	-163.382	-0.034857	0.024481	-0.999626	-1.000993	-0.004586	37.2108	-0.999534	-2.236093E+13	2.050810E-16	NaN
1006	1.000000	0.033826	7.37489e+06	-50439.1	1055.82	-29755.7	0.000000	0.000000	6.034746	0.070716	NaN	0.000000	0.001572	0.001726	28.0827	0.113544	0.001938	58.5875	-24.2646	-164.803	0.083547	0.032513	-0.991648	-0.992961	0.070716	58.5875	-0.992553	-1.800937E+13	-3.926610E-15	NaN
1006	1.000000	0.041808	7.37489e+06	-50439.1	1055.82	-29755.7	0.000000	0.000000	6.042726	0.021238	NaN	0.000000	0.001567	0.001740	28.0831	0.032550	0.001939	16.7857	-162.119	-163.918	0.010206	0.040531	-0.983666	-0.984943	0.021238	16.7857	-0.984615	-1.407948E+13	-1.508453E-15	NaN
1006	1.000000	0.049801	7.37489e+06	-50439.1	1055.82	-29755.7	0.000000	0.000000	6.050716	-0.027888	NaN	0.000000	0.001555	0.001714	28.0815	0.116955	0.001917	61.0224	-122.454	-162.316	0.016627	0.048476	-0.975674	-0.976998	-0.027888	61.0224	-0.975331	-1.055600E+13	2.641871E-15	NaN
1006	1.000000	0.057836	7.37489e+06	-50439.1	1055.82	-29755.7	0.000000	0.000000	6.058753	0.015114	NaN	0.000000	0.001565	0.001706	28.0816	0.106669	0.001999	53.351	-137.765	-165.68	-0.017089	0.056527	-0.967638	-0.968947	0.015114	53.351	-0.967851	-8.369467E+12	-1.805903E-15	NaN
1006	1.000000	0.065839	7.37489e+06	-50439.1	1055.82	-29755.7	0.000000	0.000000	6.066754	-0.032412	NaN	0.000000	0.001560	0.001702	28.0818	0.089514	0.002070	43.2468	-110.581	-165.193	0.022094	0.064498	-0.959635	-0.960976	-0.032412	43.2468	-0.959073	-6.373437E+12	5.085503E-15	NaN
1006	1.000000	0.073863	7.37489e+06	-50439.1	1055.82	-29755.7	0.000000	0.000000	6.074779	-0.033223	NaN	0.000000	0.001576	0.001693	28.0817	0.069886	0.001966	35.5491	97.6442	-164.706	-0.107825	0.072507	-0.951611	-0.952967	-0.033223	35.5491	-0.950910	-4.946543E+12	6.716365E-15	NaN
1006	1.000000	0.081823	7.37489e+06	-50439.1	1055.82	-29755.7	0.000000	0.000000	6.082740	0.002619	NaN	0.000000	0.001577	0.001728	28.0822	0.068380	0.002088	32.7425	149.8	-164.067	-0.044809	0.080514	-0.943651	-0.944960	0.002619	32.7425	-0.943711	-3.955555E+12	-6.621260E-16	NaN
1006	1.000000	0.089830	7.37489e+06	-50439.1	1055.82	-29755.7	0.000000	0.000000	6.090744	-0.067069	NaN	0.000000	0.001579	0.001707	28.0816	0.066151	0.001947	33.9763	-100.462	-162.463	-0.030447	0.088524	-0.935644	-0.936950	-0.067069	33.9763	-0.934164	-2.940270E+12	2.281053E-14	NaN
1006	1.000000	0.097868	7.37489e+06	-50439.1	1055.82	-29755.7	0.000000	0.000000	6.098787	0.046573	NaN	0.000000	0.001588	0.001712	28.0818	0.080708	0.001936	41.688	116.083	-168.463	0.041719	0.096507	-0.927606	-0.928967	0.046573	41.688	-0.928444	-2.461448E+12	-1.892110E-14	NaN
1006	1.000000	0.105845	7.37489e+06	-50439.1	1055.82	-29755.7	0.000000	0.000000	6.106763	0.024080	NaN	0.000000	0.001563	0.001743	28.0818	0.064706	0.001903	34.0075	-97.6287	-169.776	0.011927	0.104510	-0.919630	-0.920965	0.024080	34.0075	-0.920161	-1.902717E+12	-1.265577E-14	NaN
1006	1.000000	0.113846	7.37489e+06	-50439.1	1055.82	-29755.7	0.000000	0.000000	6.114762	-0.031721	NaN	0.000000	0.001590	0.001739	28.0817	0.017785	0.001890	9.410723	-87.6284	-168.905	-0.006317	0.112534	-0.911628	-0.912940	-0.031721	9.410723	-0.909100	-1.348970E+12	2.351515E-14	NaN
1006	1.000000	0.121845	7.37489e+06	-50439.1	1055.82	-29755.7	0.000000	0.000000	6.122761	-0.025093	NaN	0.000000	0.001562	0.001748	28.082	0.093924	0.001881	49.932	23.7446	-169.698	-0.050604	0.120556	-0.903629	-0.904919	-0.025093	49.932	-0.903252	-1.124634E+12	2.231228E-14	NaN
1006	1.000000	0.129864	7.37489e+06	-50439.1	1055.82	-29755.7	0.000000	0.000000	6.130779	-0.051618	NaN	0.000000	0.001546	0.001785	28.0816	0.119706	0.001834	65.282	104.545	-162.9	0.002524	0.128536	-0.895610	-0.896938	-0.051618	65.282	-0.895017	-8.704295E+11	5.930149E-14	NaN
1006	1.000000	0.137859	7.37489e+06	-50439.1	1055.82	-29755.7	0.000000	0.000000	6.138775	-0.039819	NaN	0.000000	0.001555	0.001730	28.082	0.056564	0.002161	26.1741	91.4726	-167.548	-0.034559	0.136582	-0.887615	-0.888892	-0.039819	26.1741	-0.886474	-6.671866E+11	5.968235E-14	NaN
1006	1.000000	0.145846	7.37489e+06	-50439.1	1055.82	-29755.7	0.000000	0.000000	6.146766	0.080910	NaN	0.000000	0.001575	0.001768	28.0817	0.062769	0.002175	28.8644	158.139	-165.932	0.020937	0.144549	-0.879628	-0.880925	0.080910	28.8644	-0.881730	-5.755826E+11	-1.405700E-13	NaN
1006	1.000000	0.153853	7.37489e+06	-50439.1	1055.82	-29755.7	0.000000	0.000000	6.154768	-0.042717	NaN	0.000000	0.001580	0.001736	28.0818	0.054460	0.002034	26.7804	130.112	-166.597	-0.030934	0.152555	-0.871621	-0.872919	-0.042717	26.7804	-0.870425	-4.047569E+11	1.055380E-13	NaN
1006	1.000000	0.161852	7.37489e+06	-50439.1	1055.82	-29755.7	0.000000	0.000000	6.162770	0.004908	NaN	0.000000	0.001539	0.001761	28.0819	0.063867	0.001934	33.0264	44.2369	-165.038	-0.001482	0.160552	-0.863622	-0.864922	0.004908	33.0264	-0.863733	-3.285839E+11	-1.493545E-14	NaN
1006	1.000000	0.169876	7.37489e+06	-50439.1	1055.82	-29755.7	0.000000	0.000000	6.170792	-0.034887	NaN	0.000000	0.001583	0.001805	28.0817	0.100594	0.002031	49.5285	-68.0594	-167.415	-0.021282	0.168569	-0.855598	-0.856905	-0.034887	49.5285	-0.855070	-2.508316E+11	1.390837E-13	NaN
1006	1.000000	0.177905	7.37489e+06	-50439.1	1055.82	-29755.7	0.000000	0.000000	6.178821	-0.026833	NaN	0.000000	0.001533	0.001778	28.082	0.096003	0.002001	47.9857	93.9198	-165.907	-0.004956	0.176568	-0.847569	-0.848907	-0.026833	47.9857	-0.847150	-1.959492E+11	1.369378E-13	NaN
1006	1.000000	0.185885	7.37489e+06	-50439.1	1055.82	-29755.7	0.000000	0.000000	6.186802	-0.004638	NaN	0.000000	0.001559	0.001758	28.0829	0.034674	0.001957	17.7148	4.909058	-165.972	0.103270	0.184585	-0.839589	-0.840889	-0.004638	17.7148	-0.839393	-1.538382E+11	3.014783E-14	NaN
1006	1.000000	0.193894	7.37489e+06	-50439.1	1055.82	-29755.7	0.000000	0.000000	6.194811	-0.004796	NaN	0.000000	0.001553	0.001773	28.0833	0.138745	0.002037	68.099	-164.687	-165.185	0.044126	0.192588	-0.831580	-0.832886	-0.004796	68.099	-0.831527	-1.203593E+11	3.985088E-14	NaN
1006	1.000000	0.201894	7.37489e+06	-50439.1	1055.82	-29755.7	0.000000	0.000000	6.202813	0.069248	NaN	0.000000	0.001575	0.001764	28.0829	0.048071	0.002037	23.5949	92.0055	-166.222	0.038530	0.200549	-0.823580	-0.824925	0.069248	23.5949	-0.825782	-1.006011E+11	-6.883471E-13	NaN
1006	1.000000	0.209884	7.37489e+06	-50439.1	1055.82	-29755.7	0.000000	0.000000	6.210801	-0.012109	NaN	0.000000	0.001585	0.001762	28.0831	0.090669	0.002042	44.4003	-80.2186	-165.407	0.034256	0.208577	-0.815590	-0.816897	-0.012109	44.4003	-0.815385	-7.271573E+10	1.665190E-13	NaN
1006	1.000000	0.217894	7.37489e+06	-50439.1	1055.82	-29755.7	0.000000	0.000000	6.218811	0.005804	NaN	0.000000	0.001596	0.001766	28.0831	0.157292	0.002034	77.3241	-138.842	-163.748	-0.036515	0.216593	-0.807580	-0.808882	0.005804	77.3241	-0.807636	-5.708246E+10	-1.016773E-13	NaN
1006	1.000000	0.225903	7.37489e+06	-50439.1	1055.82	-29755.7	0.000000	0.000000	6.226819	-0.011676	NaN	0.000000	0.001560	0.001773	28.0831	0.105707	0.002009	52.6285	-12.7314	-163.37	-0.105954	0.224560	-0.799571	-0.800914	-0.011676	52.6285	-0.799405	-4.413539E+10	2.645418E-13	NaN
1006	1.000000	0.233893	7.37489e+06	-50439.1	1055.82	-29755.7	0.000000	0.000000	6.234809	-0.024033	NaN	0.000000	0.001552	0.001728	28.0832	0.064820	0.002046	31.6791	-55.3227	-169.542	0.024797	0.232607	-0.791581	-0.792867	-0.024033	31.6791	-0.791012	-3.394884E+10	7.079323E-13	NaN
1006	1.000000	0.241885	7.37489e+06	-50439.1	1055.82	-29755.7	0.000000	0.000000	6.242802	0.003452	NaN	0.000000	0.001531	0.001755	28.083	0.122338	0.002060	59.3876	132.249	-167.527	0.020783	0.240588	-0.783589	-0.784886	0.003452	59.3876	-0.783633	-2.695232E+10	-1.280746E-13	NaN
1006	1.000000	0.249900	7.37489e+06	-50439.1	1055.82	-29755.7	0.000000	0.000000	6.250816	-0.026532	NaN	0.000000	0.001554	0.001722	28.0832	0.058751	0.001931	30.4323	-61.2223	-166.042	0.029518	0.248653	-0.775574	-0.776821	-0.026532	30.4323	-0.774920	-2.052067E+10	1.292951E-12	NaN
1006	1.000000	0.257927	7.37489e+06	-50439.1	1055.82	-29755.7	0.000000	0.000000	6.258841	-0.072368	NaN	0.000000	0.001531	0.001756	28.0826	0.050818	0.001943	26.1498	69.6248	-167.893	-0.073248	0.256594	-0.767547	-0.768880	-0.072368	26.1498	-0.765472	-1.526603E+10	4.740459E-12	NaN
1006	1.000000	0.265950	7.37489e+06	-50439.1	1055.82	-29755.7	0.000000	0.000000	6.266866	-0.031897	NaN	0.000000	0.001548	0.001791	28.083	0.111400	0.002009	55.4605	49.4711	-166.107	-0.053616	0.264593	-0.759524	-0.760881	-0.031897	55.4605	-0.759093	-1.250148E+10	2.551446E-12	NaN
1006	1.000000	0.273908	7.37489e+06	-50439.1	1055.82	-29755.7	0.000000	0.000000	6.274825	0.001818	NaN	0.000000	0.001579	0.001764	28.0831	0.058905	0.001939	30.385	-110.089	-169.925	-0.057301	0.272614	-0.751566	-0.752860	0.001818	30.385	-0.751611	-9.888906E+9	-1.838197E-13	NaN
1006	1.000000	0.281937	7.37489e+06	-50439.1	1055.82	-29755.7	0.000000	0.000000	6.282851	-0.063392	NaN	0.000000	0.001597	0.001812	28.083	0.119925	0.002192	54.7114	161.164	-167.07	-0.050434	0.280652	-0.743537	-0.744822	-0.063392	54.7114	-0.742668	-7.471341E+9	8.484704E-12	NaN
1006	1.000000	0.289926	7.37489e+06	-50439.1	1055.82	-29755.7	0.000000	0.000000	6.290843	-0.016325	NaN	0.000000	0.001582	0.001773	28.0832	0.054943	0.002208	24.8858	-164.623	-166.807	-0.061485	0.288600	-0.735548	-0.736874	-0.016325	24.8858	-0.735056	-5.884430E+9	2.774286E-12	NaN
1006	1.000000	0.297940	7.37489e+06	-50439.1	1055.82	-29755.7	0.000000	0.000000	6.298857	0.019234	NaN	0.000000	0.001540	0.001776	28.0829	0.023695	0.002091	11.3303	-76.6706	-167.58	0.094354	0.296610	-0.727535	-0.728864	0.019234	11.3303	-0.728808	-4.836793E+9	-3.976578E-12	NaN
1006	1.000000	0.305937	7.37489e+06	-50439.1	1055.82	-29755.7	0.000000	0.000000	6.306853	-0.009992	NaN	0.000000	0.001523	0.001769	28.0833	0.065719	0.001886	34.8484	-158.771	-164.165	-0.028019	0.304594	-0.719538	-0.720881	-0.009992	34.8484	-0.719323	-3.591162E+9	2.782332E-12	NaN
1006	1.000000	0.313923	7.37489e+06	-50439.1	1055.82	-29755.7	0.000000	0.000000	6.314839	-0.016661	NaN	0.000000	0.001574	0.001763	28.0833	0.063706	0.001907	33.402	-114.426	-165.341	-0.013014	0.312661	-0.711551	-0.712813	-0.016661	33.402	-0.711177	-2.780433E+9	5.992386E-12	NaN
1006	1.000000	0.321948	7.37489e+06	-50439.1	1055.82	-29755.7	0.000000	0.000000	6.322863	-0.048504	NaN	0.000000	0.001527	0.001775	28.0826	0.072894	0.001996	36.5178	125.605	-163.518	-0.123948	0.320620	-0.703526	-0.704854	-0.048504	36.5178	-0.702530	-2.118757E+9	2.289263E-11	NaN
1006	1.000000	0.329941	7.37489e+06	-50439.1	1055.82	-29755.7	0.000000	0.000000	6.330855	-0.063625	NaN	0.000000	0.001532	0.001759	28.0822	0.094934	0.001947	48.747	115.609	-165.328	-0.102368	0.328684	-0.695534	-0.696790	-0.063625	48.747	-0.694555	-1.648746E+9	3.858996E-11	NaN
1006	1.000000	0.337960	7.37489e+06	-50439.1	1055.82	-29755.7	0.000000	0.000000	6.338875	-0.026842	NaN	0.000000	0.001512	0.001775	28.0819	0.026085	0.002087	12.5011	-99.5874	-164.16	-0.002543	0.336642	-0.687515	-0.688833	-0.026842	12.5011	-0.685904	-1.255840E+9	2.137414E-11	NaN
1006	1.000000	0.345956	7.37489e+06	-50439.1	1055.82	-29755.7	0.000000	0.000000	6.346872	-0.030172	NaN	0.000000	0.001534	0.001779	28.0822	0.025334	0.002012	12.5926	-108.229	-164.643	0.038430	0.344681	-0.679518	-0.680793	-0.030172	12.5926	-0.677721	-9.705829E+8	3.108683E-11	NaN
1006	1.000000	0.353956	7.37489e+06	-50439.1	1055.82	-29755.7	0.000000	0.000000	6.354873	0.004071	NaN	0.000000	0.001549	0.001778	28.0819	0.085828	0.002016	42.5639	91.1774	-164.877	0.006662	0.352636	-0.671518	-0.672838	0.004071	42.5639	-0.671590	-8.001057E+8	-5.087701E-12	NaN
1006	1.000000	0.361976	7.37489e+06	-50439.1	1055.82	-29755.7	0.000000	0.000000	6.362889	-0.094504	NaN	0.000000	0.001546	0.001797	28.0818	0.067495	0.001996	33.8173	-62.4053	-164.453	-0.110781	0.360686	-0.663498	-0.664788	-0.094504	33.8173	-0.661402	-5.803313E+8	1.628448E-10	NaN
1006	1.000000	0.369959	7.37489e+06	-50439.1	1055.82	-29755.7	0.000000	0.000000	6.370873	-0.064966	NaN	0.000000	0.001546	0.001792	28.082	0.074797	0.001892	39.5373	-127.78	-167.813	-0.113602	0.368671	-0.655516	-0.656803	-0.064966	39.5373	-0.654283	-4.636000E+8	1.401342E-10	NaN
1006	1.000000	0.377963	7.37489e+06	-50439.1	1055.82	-29755.7	0.000000	0.000000	6.378879	-0.022562	NaN	0.000000	0.001621	0.001792	28.0819	0.088401	0.001907	46.3563	-38.3723	-163.977	-0.034118	0.376684	-0.647511	-0.648790	-0.022562	46.3563	-0.647146	-3.700936E+8	6.096365E-11	NaN
1006	1.000000	0.385944	7.37489e+06	-50439.1	1055.82	-29755.7	0.000000	0.000000	6.386860	-0.024125	NaN	0.000000	0.001594	0.001793	28.0823	0.078739	0.002234	35.2406	-150.755	-164.289	-0.025078	0.384705	-0.639530	-0.640769	-0.024125	35.2406	-0.639017	-2.862871E+8	8.426773E-11	NaN
1006	1.000000	0.393975	7.37489e+06	-50439.1	1055.82	-29755.7	0.000000	0.000000	6.394891	-0.038135	NaN	0.000000	0.001554	0.001808	28.0821	0.056674	0.002103	26.9507	-165.443	-166.983	0.052778	0.392655	-0.631499	-0.632819	-0.038135	26.9507	-0.630438	-2.182896E+8	1.746984E-10	NaN
1006	1.000000	0.401996	7.37489e+06	-50439.1	1055.82	-29755.7	0.000000	0.000000	6.402914	0.025706	NaN	0.000000	0.001550	0.001805	28.0821	0.079462	0.001979	40.1548	151.951	-164.7	-0.033817	0.400712	-0.623479	-0.624762	0.025706	40.1548	-0.623959	-1.778435E+8	-1.445444E-10	NaN
1006	1.000000	0.409974	7.37489e+06	-50439.1	1055.82	-29755.7	0.000000	0.000000	6.410890	-0.022948	NaN	0.000000	0.001559	0.001798	28.0822	0.137836	0.002014	68.4312	99.9518	-168.437	-0.064323	0.408650	-0.615501	-0.616825	-0.022948	68.4312	-0.615249	-1.349944E+8	1.699889E-10	NaN
1006	1.000000	0.417962	7.37489e+06	-50439.1	1055.82	-29755.7	0.000000	0.000000	6.418880	0.017003	NaN	0.000000	0.001616	0.001807	28.0818	0.067811	0.002001	33.8812	-18.4029	-166.929	-0.002381	0.416679	-0.607512	-0.608795	0.017003	33.8812	-0.607888	-1.069189E+8	-1.590274E-10	NaN
1006	1.000000	0.425969	7.37489e+06	-50439.1	1055.82	-29755.7	0.000000	0.000000	6.426884	-0.042769	NaN	0.000000	0.001561	0.001794	28.0819	0.133231	0.001947	68.4297	104.902	-164.35	-0.053405	0.424731	-0.599505	-0.600743	-0.042769	68.4297	-0.599036	-8.075875E+7	5.295913E-10	NaN
1006	1.000000	0.433990	7.37489e+06	-50439.1	1055.82	-29755.7	0.000000	0.000000	6.434907	0.004466	NaN	0.000000	0.001545	0.001817	28.0818	0.070905	0.001968	36.0347	-85.1499	-163.213	0.085400	0.432673	-0.591485	-0.592801	0.004466	36.0347	-0.591577	-6.374007E+7	-7.007261E-11	NaN
1006	1.000000	0.442010	7.37489e+06	-50439.1	1055.82	-29755.7	0.000000	0.000000	6.442926	-0.013929	NaN	0.000000	0.001567	0.001755	28.0818	0.046166	0.001901	24.2883	-115.516	-163.33	-0.017367	0.440720	-0.583465	-0.584754	-0.013929	24.2883	-0.583035	-4.859600E+7	2.866338E-10	NaN
1006	1.000000	0.449983	7.37489e+06	-50439.1	1055.82	-29755.7	0.000000	0.000000	6.450899	-0.034375	NaN	0.000000	0.001564	0.001764	28.082	0.064575	0.001991	32.4372	69.6632	-166.139	0.014785	0.448714	-0.575491	-0.576760	-0.034375	32.4372	-0.574696	-3.728231E+7	9.220211E-10	NaN
1006	1.000000	0.458021	7.37489e+06	-50439.1	1055.82	-29755.7	0.000000	0.000000	6.458938	-0.006938	NaN	0.000000	0.001551	0.001790	28.0826	0.179200	0.001964	91.2337	-72.7849	-167.522	-0.014508	0.456707	-0.567453	-0.568767	-0.006938	91.2337	-0.567396	-2.955582E+7	2.347440E-10	NaN
1006	1.000000	0.466002	7.37489e+06	-50439.1	1055.82	-29755.7	0.000000	0.000000	6.466919	-0.002450	NaN	0.000000	0.001553	0.001777	28.0832	0.079047	0.001960	40.3359	67.3829	-172.056	-0.040534	0.464738	-0.559472	-0.560736	-0.002450	40.3359	-0.559427	-2.293214E+7	1.068316E-10	NaN
1006	1.000000	0.473982	7.37489e+06	-50439.1	1055.82	-29755.7	0.000000	0.000000	6.474899	-0.000920	NaN	0.000000	0.001529	0.001745	28.0832	0.034528	0.001977	17.4651	5.691896	-164.309	0.033923	0.472656	-0.551492	-0.552818	-0.000920	17.4651	-0.551453	-1.778596E+7	5.173015E-11	NaN
1006	1.000000	0.482039	7.37489e+06	-50439.1	1055.82	-29755.7	0.000000	0.000000	6.482953	-0.068573	NaN	0.000000	0.001538	0.001767	28.0829	0.030883	0.001978	15.6148	118.326	-165.924	-0.033142	0.480705	-0.543435	-0.544769	-0.068573	15.6148	-0.540141	-1.239703E+7	5.531391E-9	NaN
1006	1.000000	0.490012	7.37489e+06	-50439.1	1055.82	-29755.7	0.000000	0.000000	6.490925	-0.101074	NaN	0.000000	0.001566	0.001733	28.0829	0.031745	0.001955	16.2373	-93.0103	-166.107	-0.093894	0.488673	-0.535462	-0.536801	-0.101074	16.2373	-0.530794	-9.196e+06	1.099112E-8	NaN
1006	1.000000	0.498005	7.37489e+06	-50439.1	1055.82	-29755.7	0.000000	0.000000	6.498921	-0.025843	NaN	0.000000	0.001577	0.001776	28.0829	0.034571	0.002127	16.2544	16.6624	-171.577	0.015969	0.496737	-0.527469	-0.528738	-0.025843	16.2544	-0.526276	-7.9588e+06	3.247069E-9	NaN
1006	1.000000	0.506011	7.37489e+06	-50439.1	1055.82	-29755.7	0.000000	0.000000	6.506930	0.062032	NaN	0.000000	0.001494	0.001733	28.083	0.053429	0.002025	26.3851	-120.306	-163.256	-0.067566	0.504677	-0.519463	-0.520797	0.062032	26.3851	-0.521227	-6.77104e+06	-9.161294E-9	NaN
1006	1.000000	0.513991	7.37489e+06	-50439.1	1055.82	-29755.7	0.000000	0.000000	6.514908	-0.001391	NaN	0.000000	0.001513	0.001744	28.0834	0.072940	0.001864	39.1287	174.47	-166.626	-0.044897	0.512687	-0.511483	-0.512787	-0.001391	39.1287	-0.511456	-4.95106e+06	2.809226E-10	NaN
1006	1.000000	0.522067	7.37489e+06	-50439.1	1055.82	-29755.7	0.000000	0.000000	6.522985	0.024588	NaN	0.000000	0.001513	0.001752	28.083	0.071121	0.002032	34.9984	42.7842	-166.666	0.074482	0.520763	-0.503407	-0.504711	0.024588	34.9984	-0.503934	-3.88938e+06	-6.321933E-9	NaN
1006	1.000000	0.530051	7.37489e+06	-50439.1	1055.82	-29755.7	0.000000	0.000000	6.530971	0.060371	NaN	0.000000	0.001562	0.001733	28.0831	0.050759	0.002008	25.2839	143.946	-171.386	0.014601	0.528735	-0.495423	-0.496739	0.060371	25.2839	-0.497214	-3.13429e+06	-1.926131E-8	NaN
1006	1.000000	0.538029	7.37489e+06	-50439.1	1055.82	-29755.7	0.000000	0.000000	6.538944	-0.055299	NaN	0.000000	0.001537	0.001734	28.083	0.129136	0.001998	64.6346	-146.118	-166.071	-0.016149	0.536750	-0.487445	-0.488724	-0.055299	64.6346	-0.486804	-2.2424e+06	2.466040E-8	NaN
1006	1.000000	0.546048	7.37489e+06	-50439.1	1055.82	-29755.7	0.000000	0.000000	6.546968	0.059912	NaN	0.000000	0.001548	0.001723	28.0832	0.163016	0.001944	83.8365	-116.981	-162.455	0.012530	0.544710	-0.479426	-0.480764	0.059912	83.8365	-0.479962	-1.79884e+06	-3.330609E-8	NaN
1006	1.000000	0.554018	7.37489e+06	-50439.1	1055.82	-29755.7	0.000000	0.000000	6.554936	0.016318	NaN	0.000000	0.001570	0.001746	28.0832	0.046354	0.001962	23.6273	34.0503	-168.133	0.034468	0.552737	-0.471456	-0.472737	0.016318	23.6273	-0.471974	-1.39023e+06	-1.173758E-8	NaN
1006	1.000000	0.562035	7.37489e+06	-50439.1	1055.82	-29755.7	0.000000	0.000000	6.562952	0.005368	NaN	0.000000	0.001580	0.001734	28.0829	0.106602	0.002173	49.0657	-99.0309	-165.756	0.021211	0.560705	-0.463440	-0.464769	0.005368	49.0657	-0.463522	-1.05801e+06	-5.073681E-9	NaN
1006	1.000000	0.570069	7.37489e+06	-50439.1	1055.82	-29755.7	0.000000	0.000000	6.570987	0.020054	NaN	0.000000	0.001544	0.001718	28.0832	0.075086	0.002002	37.506	-147.66	-164.137	0.062714	0.568706	-0.455405	-0.456768	0.020054	37.506	-0.455806	-824240	-2.432974E-8	NaN
1006	1.000000	0.578038	7.37489e+06	-50439.1	1055.82	-29755.7	0.000000	0.000000	6.578955	0.006865	NaN	0.000000	0.001594	0.001748	28.0829	0.044697	0.001911	23.3918	-100.926	-167.203	0.007463	0.576728	-0.447437	-0.448746	0.006865	23.3918	-0.447657	-632900	-1.084627E-8	NaN
1006	1.000000	0.586053	7.37489e+06	-50439.1	1055.82	-29755.7	0.000000	0.000000	6.586969	-0.038727	NaN	0.000000	0.001548	0.001763	28.0832	0.087307	0.002064	42.296	50.4355	-167.325	0.043000	0.584715	-0.439421	-0.440759	-0.038727	42.296	-0.438734	-473692	8.175556E-8	NaN
1006	1.000000	0.594056	7.37489e+06	-50439.1	1055.82	-29755.7	0.000000	0.000000	6.594971	-0.048503	NaN	0.000000	0.001570	0.001736	28.0828	0.137662	0.002019	68.1716	-150.366	-163.889	-0.013740	0.592686	-0.431419	-0.432789	-0.048503	68.1716	-0.430885	-366927	1.321874E-7	NaN
1006	1.000000	0.602052	7.37489e+06	-50439.1	1055.82	-29755.7	0.000000	0.000000	6.602969	-0.010922	NaN	0.000000	0.001540	0.001766	28.0819	0.032511	0.001974	16.4669	169.632	-166.652	-0.000607	0.600759	-0.423422	-0.424715	-0.010922	16.4669	-0.422924	-283059	3.858664E-8	NaN
1006	1.000000	0.610095	7.37489e+06	-50439.1	1055.82	-29755.7	0.000000	0.000000	6.611009	-0.060062	NaN	0.000000	0.001510	0.001739	28.0819	0.094800	0.001966	48.2248	139.928	-163.36	-0.014105	0.608776	-0.415379	-0.416698	-0.060062	48.2248	-0.414445	-214573	2.799151E-7	NaN
1006	1.000000	0.618069	7.37489e+06	-50439.1	1055.82	-29755.7	0.000000	0.000000	6.618985	-0.004159	NaN	0.000000	0.001530	0.001747	28.0819	0.046928	0.002041	22.9887	127.56	-166.824	-0.064067	0.616747	-0.407405	-0.408727	-0.004159	22.9887	-0.407270	-169653	2.451389E-8	NaN
1006	1.000000	0.626067	7.37489e+06	-50439.1	1055.82	-29755.7	0.000000	0.000000	6.626982	-0.053680	NaN	0.000000	0.001575	0.001757	28.0817	0.068755	0.001934	35.5464	58.4615	-165.122	0.036977	0.624773	-0.399407	-0.400702	-0.053680	35.5464	-0.398274	-126292	4.250449E-7	NaN
1006	1.000000	0.634091	7.37489e+06	-50439.1	1055.82	-29755.7	0.000000	0.000000	6.635009	0.030693	NaN	0.000000	0.001564	0.001780	28.0816	0.028349	0.001919	14.7689	66.3839	-167.847	-0.053256	0.632739	-0.391383	-0.392735	0.030693	14.7689	-0.392942	-105981	-2.896064E-7	NaN
1006	1.000000	0.642066	7.37489e+06	-50439.1	1055.82	-29755.7	0.000000	0.000000	6.642981	-0.051139	NaN	0.000000	0.001569	0.001745	28.0828	0.073717	0.001995	36.9492	-171.986	-167.418	-0.111096	0.640764	-0.383408	-0.384710	-0.051139	36.9492	-0.382370	-74797.9	6.836929E-7	NaN
1006	1.000000	0.650091	7.37489e+06	-50439.1	1055.82	-29755.7	0.000000	0.000000	6.651006	-0.053921	NaN	0.000000	0.001566	0.001733	28.0817	0.045544	0.002035	22.3849	-129.238	-167.092	0.006244	0.648761	-0.375383	-0.376713	-0.053921	22.3849	-0.373577	-55924.7	9.641666E-7	NaN
1006	1.000000	0.658079	7.37489e+06	-50439.1	1055.82	-29755.7	0.000000	0.000000	6.658998	0.041283	NaN	0.000000	0.001566	0.001760	28.0819	0.053042	0.002045	25.937	-13.6351	-164.713	0.095579	0.656807	-0.367395	-0.368667	0.041283	25.937	-0.368589	-47402.2	-8.709088E-7	NaN
1006	1.000000	0.666065	7.37489e+06	-50439.1	1055.82	-29755.7	0.000000	0.000000	6.666979	-0.070514	NaN	0.000000	0.001546	0.001805	28.082	0.154323	0.002009	76.8338	-152.308	-163.656	-0.060978	0.664734	-0.359409	-0.360740	-0.070514	76.8338	-0.358721	-34146.6	2.065033E-6	NaN
1006	1.000000	0.674089	7.37489e+06	-50439.1	1055.82	-29755.7	0.000000	0.000000	6.675007	0.029691	NaN	0.000000	0.001538	0.001763	28.0819	0.055311	0.002000	27.6595	-31.3703	-165.799	0.020732	0.672778	-0.351385	-0.352696	0.029691	27.6595	-0.352190	-27464.7	-1.081058E-6	NaN
1006	1.000000	0.682078	7.37489e+06	-50439.1	1055.82	-29755.7	0.000000	0.000000	6.682994	-0.029407	NaN	0.000000	0.001546	0.001765	28.0821	0.023066	0.002013	11.4595	-43.7123	-166.353	-0.023952	0.680821	-0.343396	-0.344653	-0.029407	11.4595	-0.341472	-19186.6	1.532683E-6	NaN
1006	1.000000	0.690095	7.37489e+06	-50439.1	1055.82	-29755.7	0.000000	0.000000	6.691009	-0.078960	NaN	0.000000	0.001532	0.001772	28.0818	0.115082	0.002009	57.2692	69.6864	-168.265	-0.057625	0.688772	-0.335379	-0.336702	-0.078960	57.2692	-0.334345	-15101.4	5.228650E-6	NaN
1006	1.000000	0.698115	7.37489e+06	-50439.1	1055.82	-29755.7	0.000000	0.000000	6.699029	-0.071914	NaN	0.000000	0.001554	0.001765	28.0821	0.015946	0.001947	8.191726	-96.6358	-164.962	-0.106908	0.696838	-0.327359	-0.328636	-0.071914	8.191726	-0.320775	-9550.94	7.529483E-6	NaN
1006	1.000000	0.706100	7.37489e+06	-50439.1	1055.82	-29755.7	0.000000	0.000000	6.707016	-0.012861	NaN	0.000000	0.001548	0.001762	28.0819	0.049291	0.002065	23.865	-155.333	-163.757	-0.027826	0.704833	-0.319375	-0.320641	-0.012861	23.865	-0.318970	-8984.24	1.431482E-6	NaN
1006	1.000000	0.714131	7.37489e+06	-50439.1	1055.82	-29755.7	0.000000	0.000000	6.715046	-0.044208	NaN	0.000000	0.001569	0.001774	28.0819	0.075487	0.001995	37.8304	-60.0979	-168.11	-0.054784	0.712815	-0.311343	-0.312659	-0.044208	37.8304	-0.310466	-6729.11	6.569596E-6	NaN
1006	1.000000	0.722143	7.37489e+06	-50439.1	1055.82	-29755.7	0.000000	0.000000	6.723062	0.050712	NaN	0.000000	0.001577	0.001788	28.0822	0.019033	0.001977	9.628354	36.7276	-165.225	-0.013377	0.720807	-0.303332	-0.304667	0.050712	9.628354	-0.307282	-6036.69	-8.400602E-6	NaN
1006	1.000000	0.730096	7.37489e+06	-50439.1	1055.82	-29755.7	0.000000	0.000000	6.731012	-0.025833	NaN	0.000000	0.001594	0.001775	28.0823	0.068570	0.001978	34.6594	-167.393	-166.207	0.019707	0.728793	-0.295378	-0.296681	-0.025833	34.6594	-0.294819	-3938.97	6.558309E-6	NaN
1006	1.000000	0.738126	7.37489e+06	-50439.1	1055.82	-29755.7	0.000000	0.000000	6.739044	0.014919	NaN	0.000000	0.001601	0.001761	28.0833	0.141526	0.001817	77.882	-45.2659	-166.609	0.005015	0.736802	-0.287348	-0.288673	0.014919	77.882	-0.287492	-3059.77	-4.875789E-6	NaN
1006	1.000000	0.746151	7.37489e+06	-50439.1	1055.82	-29755.7	0.000000	0.000000	6.747066	-0.049873	NaN	0.000000	0.001620	0.001738	28.0831	0.034462	0.002005	17.1837	-61.1527	-162.916	-0.060816	0.744843	-0.279323	-0.280631	-0.049873	17.1837	-0.277146	-2137.32	2.333445E-5	NaN
1006	1.000000	0.754112	7.37489e+06	-50439.1	1055.82	-29755.7	0.000000	0.000000	6.755027	-0.045151	NaN	0.000000	0.001610	0.001764	28.0829	0.021553	0.001987	10.8483	-3.535127	-165.78	-0.043854	0.752816	-0.271363	-0.272658	-0.045151	10.8483	-0.268241	-1565.99	2.883225E-5	NaN
1006	1.000000	0.762107	7.37489e+06	-50439.1	1055.82	-29755.7	0.000000	0.000000	6.763020	-0.096584	NaN	0.000000	0.001654	0.001763	28.0834	0.050319	0.002125	23.6791	-59.2985	-165.404	-0.136735	0.760828	-0.263367	-0.264646	-0.096584	23.6791	-0.260308	-1184.76	8.152195E-5	NaN
1006	1.000000	0.770140	7.37489e+06	-50439.1	1055.82	-29755.7	0.000000	0.000000	6.771056	-0.024560	NaN	0.000000	0.001638	0.001792	28.0832	0.075113	0.002091	35.9273	22.0517	-164.707	-0.089804	0.768889	-0.255334	-0.256585	-0.024560	35.9273	-0.254821	-975.812	2.516868E-5	NaN
1006	1.000000	0.778127	7.37489e+06	-50439.1	1055.82	-29755.7	0.000000	0.000000	6.779043	-0.018819	NaN	0.000000	0.001621	0.001813	28.0835	0.135516	0.001933	70.0889	49.1344	-167.406	-0.006998	0.776796	-0.247347	-0.248679	-0.018819	70.0889	-0.247146	-742.614	2.534129E-5	NaN
1006	1.000000	0.786108	7.37489e+06	-50439.1	1055.82	-29755.7	0.000000	0.000000	6.787026	0.013941	NaN	0.000000	0.001627	0.001769	28.0833	0.141211	0.002120	66.5935	-151.595	-163.476	-0.019067	0.784790	-0.239366	-0.240684	0.013941	66.5935	-0.239523	-565.066	-2.467124E-5	NaN
1006	1.000000	0.794140	7.37489e+06	-50439.1	1055.82	-29755.7	0.000000	0.000000	6.795057	-0.007371	NaN	0.000000	0.001599	0.001783	28.0832	0.035951	0.002018	17.8164	24.8075	-163.609	-0.052294	0.792796	-0.231334	-0.232679	-0.007371	17.8164	-0.231024	-415.598	1.773637E-5	NaN
1006	1.000000	0.802169	7.37489e+06	-50439.1	1055.82	-29755.7	0.000000	0.000000	6.803086	0.009007	NaN	0.000000	0.001589	0.001762	28.0833	0.073628	0.001971	37.3464	70.3399	-169.614	-0.002329	0.800835	-0.223306	-0.224640	0.009007	37.3464	-0.223486	-315.699	-2.852929E-5	NaN
1006	1.000000	0.810138	7.37489e+06	-50439.1	1055.82	-29755.7	0.000000	0.000000	6.811053	-0.045897	NaN	0.000000	0.001601	0.001697	28.0831	0.041015	0.002061	19.899	131.853	-169.403	-0.002051	0.808834	-0.215336	-0.216640	-0.045897	19.899	-0.213606	-219.32	0.000209	NaN
1006	1.000000	0.818169	7.37489e+06	-50439.1	1055.82	-29755.7	0.000000	0.000000	6.819087	0.026888	NaN	0.000000	0.001585	0.001745	28.0832	0.091059	0.001910	47.669	140.345	-165.515	-0.007488	0.816775	-0.207305	-0.208699	0.026888	47.669	-0.207728	-176.186	-0.000153	NaN
1006	1.000000	0.826183	7.37489e+06	-50439.1	1055.82	-29755.7	0.000000	0.000000	6.827101	0.018971	NaN	0.000000	0.001597	0.001764	28.0829	0.078351	0.001988	39.4084	67.7257	-163.7	-0.046796	0.824851	-0.199291	-0.200623	0.018971	39.4084	-0.199652	-130.012	-0.000146	NaN
1006	1.000000	0.834180	7.37489e+06	-50439.1	1055.82	-29755.7	0.000000	0.000000	6.835098	0.010369	NaN	0.000000	0.001592	0.001743	28.0831	0.018124	0.002073	8.744236	-14.7529	-167.917	0.000772	0.832801	-0.191294	-0.192673	0.010369	8.744236	-0.192183	-97.8216	-0.000106	NaN
1006	1.000000	0.842153	7.37489e+06	-50439.1	1055.82	-29755.7	0.000000	0.000000	6.843067	-0.061758	NaN	0.000000	0.001589	0.001738	28.0831	0.106176	0.002018	52.6048	-29.1602	-164.448	-0.096994	0.840814	-0.183321	-0.184660	-0.061758	52.6048	-0.182441	-67.127	0.000920	NaN
1006	1.000000	0.850170	7.37489e+06	-50439.1	1055.82	-29755.7	0.000000	0.000000	6.851087	0.008524	NaN	0.000000	0.001607	0.001714	28.0831	0.040435	0.001911	21.1547	-4.750471	-166.341	0.044357	0.848813	-0.175304	-0.176662	0.008524	21.1547	-0.175606	-51.3325	-0.000166	NaN
1006	1.000000	0.858171	7.37489e+06	-50439.1	1055.82	-29755.7	0.000000	0.000000	6.859088	-0.002039	NaN	0.000000	0.001589	0.001747	28.083	0.113913	0.002031	56.0792	140.023	-165.098	-0.010884	0.856859	-0.167303	-0.168615	-0.002039	56.0792	-0.167276	-36.8269	5.535897E-5	NaN
1006	1.000000	0.866152	7.37489e+06	-50439.1	1055.82	-29755.7	0.000000	0.000000	6.867068	-0.021290	NaN	0.000000	0.001604	0.001730	28.0831	0.113840	0.002043	55.7093	153.291	-166.604	-0.150300	0.864842	-0.159322	-0.160632	-0.021290	55.7093	-0.159036	-26.3528	0.000808	NaN
1006	1.000000	0.874176	7.37489e+06	-50439.1	1055.82	-29755.7	0.000000	0.000000	6.875093	0.000904	NaN	0.000000	0.001587	0.001764	28.0822	0.020104	0.001904	10.557	47.3378	-167.365	-0.064426	0.872909	-0.151298	-0.152565	0.000904	10.557	-0.151362	-19.1781	-4.712377E-5	NaN
1006	1.000000	0.882197	7.37489e+06	-50439.1	1055.82	-29755.7	0.000000	0.000000	6.883115	0.022452	NaN	0.000000	0.001609	0.001760	28.082	0.019529	0.001936	10.0868	47.0986	-165.92	0.056355	0.880851	-0.143277	-0.144623	0.022452	10.0868	-0.144947	-14.628	-0.001535	NaN
1006	1.000000	0.890173	7.37489e+06	-50439.1	1055.82	-29755.7	0.000000	0.000000	6.891090	0.019690	NaN	0.000000	0.001588	0.001733	28.0818	0.108092	0.002046	52.8355	58.0859	-167.541	0.000984	0.888867	-0.135302	-0.136607	0.019690	52.8355	-0.135581	-9.758247	-0.002018	NaN
1006	1.000000	0.898184	7.37489e+06	-50439.1	1055.82	-29755.7	0.000000	0.000000	6.899103	0.040779	NaN	0.000000	0.001563	0.001768	28.0818	0.113331	0.001866	60.7183	135.396	-164.321	-0.034328	0.896876	-0.127290	-0.128598	0.040779	60.7183	-0.127794	-6.902132	-0.005908	NaN
1006	1.000000	0.906195	7.37489e+06	-50439.1	1055.82	-29755.7	0.000000	0.000000	6.907113	0.042307	NaN	0.000000	0.001564	0.001755	28.0818	0.004063	0.002099	1.936009	39.6304	-166.448	0.005001	0.904853	-0.119279	-0.120621	0.042307	1.936009	-0.135669	-9.795990	-0.004319	NaN
1006	1.000000	0.914221	7.37489e+06	-50439.1	1055.82	-29755.7	0.000000	0.000000	6.915137	-0.024431	NaN	0.000000	0.001547	0.001773	28.082	0.040210	0.002050	19.6148	-12.383	-166.884	-0.037840	0.912892	-0.111253	-0.112582	-0.024431	19.6148	-0.110319	-3.052024	0.008005	NaN
1006	1.000000	0.922191	7.37489e+06	-50439.1	1055.82	-29755.7	0.000000	0.000000	6.923105	-0.070954	NaN	0.000000	0.001557	0.001729	28.0819	0.024909	0.002044	12.1879	87.5747	-167.553	-0.050803	0.920884	-0.103283	-0.104590	-0.070954	12.1879	-0.098917	-1.728580	0.041048	NaN
1006	1.000000	0.930206	7.37489e+06	-50439.1	1055.82	-29755.7	0.000000	0.000000	6.931122	-0.013564	NaN	0.000000	0.001512	0.001755	28.0821	0.045270	0.002011	22.5069	128.667	-165.895	-0.016303	0.928964	-0.095268	-0.096510	-0.013564	22.5069	-0.094816	-1.397090	0.009709	NaN
1006	1.000000	0.938203	7.37489e+06	-50439.1	1055.82	-29755.7	0.000000	0.000000	6.939120	-0.011546	NaN	0.000000	0.001588	0.001757	28.0819	0.052324	0.001977	26.4656	164.373	-168.271	0.006007	0.936912	-0.087271	-0.088562	-0.011546	26.4656	-0.086944	-0.915020	0.012618	NaN
1006	1.000000	0.946216	7.37489e+06	-50439.1	1055.82	-29755.7	0.000000	0.000000	6.947133	0.004503	NaN	0.000000	0.001577	0.001751	28.082	0.020517	0.001953	10.5033	117.443	-166.295	0.020905	0.944881	-0.079258	-0.080593	0.004503	10.5033	-0.079579	-0.604163	-0.007453	NaN
1006	1.000000	0.954231	7.37489e+06	-50439.1	1055.82	-29755.7	0.000000	0.000000	6.955149	0.026470	NaN	0.000000	0.001572	0.001752	28.0818	0.058928	0.001945	30.2923	171.699	-162.064	-0.085102	0.952897	-0.071243	-0.072577	0.026470	30.2923	-0.071898	-0.383184	-0.069080	NaN
1006	1.000000	0.962207	7.37489e+06	-50439.1	1055.82	-29755.7	0.000000	0.000000	6.963120	-0.101361	NaN	0.000000	0.001565	0.001776	28.0818	0.097008	0.001988	48.7977	-160.296	-166.375	-0.048467	0.960860	-0.063267	-0.064615	-0.101361	48.7977	-0.061709	-0.201491	0.503055	NaN
1006	1.000000	0.970220	7.37489e+06	-50439.1	1055.82	-29755.7	0.000000	0.000000	6.971137	0.014605	NaN	0.000000	0.001541	0.001777	28.0818	0.021163	0.001928	10.9756	-167.986	-169.308	-0.087498	0.968901	-0.055255	-0.056574	0.014605	10.9756	-0.056253	-0.140196	-0.104179	NaN
1006	1.000000	0.978200	7.37489e+06	-50439.1	1055.82	-29755.7	0.000000	0.000000	6.979116	-0.017113	NaN	0.000000	0.001520	0.001744	28.0815	0.082287	0.001959	42.0145	15.4737	-166.626	0.040663	0.976866	-0.047275	-0.048608	-0.017113	42.0145	-0.046969	-0.073816	0.231831	NaN
1006	1.000000	0.986210	7.37489e+06	-50439.1	1055.82	-29755.7	0.000000	0.000000	6.987127	-0.006848	NaN	0.000000	0.001552	0.001752	28.0824	0.092198	0.001984	46.4809	124.242	-166.765	-0.059869	0.984869	-0.039264	-0.040605	-0.006848	46.4809	-0.039154	-0.042627	0.160652	NaN
1006	1.000000	0.994214	7.37489e+06	-50439.1	1055.82	-29755.7	0.000000	0.000000	6.995131	-0.004513	NaN	0.000000	0.001516	0.001752	28.0818	0.066440	0.002056	32.3086	175.77	-167.016	0.016966	0.992910	-0.031260	-0.032564	-0.004513	32.3086	-0.031155	-0.024797	0.181981	NaN
1006	1.000000	1.002222	7.37489e+06	-50439.1	1055.82	-29755.7	0.000000	0.000000	7.003138	-0.039569	NaN	0.000000	0.001550	0.001728	28.0817	0.101738	0.002135	47.663	93.412	-164.891	-0.052946	1.000944	-0.023252	-0.024530	-0.039569	47.663	-0.022629	-0.014653	2.700435	NaN
1006	1.000000	1.010240	7.37489e+06	-50439.1	1055.82	-29755.7	0.000000	0.000000	7.011157	-0.014673	NaN	0.000000	0.001553	0.001766	28.0837	0.086807	0.001958	44.3298	-150.424	-165.225	-2.534779E-5	1.008968	-0.015234	-0.016506	-0.014673	44.3298	-0.014986	-0.009267	1.583398	NaN
1006	1.000000	1.018260	7.37489e+06	-50439.1	1055.82	-29755.7	0.000000	0.000000	7.019178	0.037692	NaN	0.000000	0.001511	0.001787	28.0831	0.007173	0.001961	3.657561	173.249	-166.582	0.043599	1.016934	-0.007214	-0.008540	0.037692	3.657561	-0.014943	-0.009241	-4.078599	NaN
1006	1.000000	1.026253	7.37489e+06	-50439.1	1055.82	-29755.7	0.000000	0.000000	7.027178	0.182200	NaN	0.000000	0.001513	0.001741	28.0829	0.497314	0.002101	236.748	29.6256	-164.781	-0.058123	1.024940	0.000779	-0.000534	0.182200	236.748	0.000202	0.000152	1202.64	17573.3
1006	1.000000	1.034126	7.37489e+06	-50439.1	1055.82	-29755.7	0.000000	0.000000	7.035360	7.704637	NaN	0.000000	0.001558	0.001774	28.083	7.884920	0.001805	4368.04	14.893	-175.464	6.073337	1.032911	0.008652	0.007436	7.704637	4368.04	0.007329	0.006361	1211.16	50036.2
1006	2.000000	1.036855	7.37489e+06	-50439.1	1055.82	-29755.7	0.000000	0.000000	7.038168	9.641262	NaN	0.000000	0.001545	0.001775	28.083	10.6756	0.001741	6133.12	8.934206	-175.31	9.595196	1.036557	0.011381	0.011083	9.641262	6133.12	0.010202	0.009406	1024.96	57775.3
1006	2.000000	1.038794	7.37489e+06	-50439.1	1055.82	-29755.7	0.000000	0.000000	7.040321	14.8267	NaN	0.000000	0.001512	0.001739	28.0832	12.3384	0.001528	8074.3	5.165061	-175.423	14.1575	1.038472	0.013320	0.012997	14.8267	8074.3	0.011943	0.011422	1298.12	69026.1
1006	2.000000	1.040762	7.37489e+06	-50439.1	1055.82	-29755.7	0.000000	0.000000	7.042383	17.1298	NaN	0.000000	0.001554	0.001758	28.083	14.724	0.001801	8175.81	5.716455	-173.499	16.0826	1.040434	0.015288	0.014960	17.1298	8175.81	0.013716	0.013612	1258.47	64024.9
1006	2.000000	1.042814	7.37489e+06	-50439.1	1055.82	-29755.7	0.000000	0.000000	7.044525	19.3194	NaN	0.000000	0.001571	0.001824	28.0831	16.8044	0.001822	9223.92	5.004535	-174.205	18.8838	1.042465	0.017339	0.016991	19.3194	9223.92	0.015769	0.016324	1183.5	65959.4
1006	2.000000	1.044770	7.37489e+06	-50439.1	1055.82	-29755.7	0.000000	0.000000	7.046547	20.9275	NaN	0.000000	0.001554	0.001783	28.083	18.5304	0.001755	10557	8.237947	-178.86	21.5099	1.044467	0.019295	0.018993	20.9275	10557	0.017809	0.019215	1089.12	69581.5
1006	2.000000	1.046774	7.37489e+06	-50439.1	1055.82	-29755.7	0.000000	0.000000	7.048741	25.5444	NaN	0.000000	0.001525	0.001714	28.0832	21.5575	0.001956	11021	8.468830	-178.642	25.4502	1.046449	0.021300	0.020975	25.5444	11021	0.019561	0.021858	1168.67	68107.2
1006	2.000000	1.048777	7.37489e+06	-50439.1	1055.82	-29755.7	0.000000	0.000000	7.050850	28.1177	NaN	0.000000	0.001536	0.001783	28.0837	23.1154	0.001952	11844.4	11.0497	179.41	28.5842	1.048397	0.023303	0.022923	28.1177	11844.4	0.021522	0.024991	1125.12	68453.6
1006	2.000000	1.050749	7.37489e+06	-50439.1	1055.82	-29755.7	0.000000	0.000000	7.053138	35.8064	NaN	0.000000	0.001568	0.001765	28.0831	24.316	0.001698	14316.5	4.286596	-177.256	35.514	1.050391	0.025275	0.024917	35.8064	14316.5	0.023399	0.028168	1271.19	77935.6
1006	2.000000	1.052777	7.37489e+06	-50439.1	1055.82	-29755.7	0.000000	0.000000	7.055335	39.9292	NaN	0.000000	0.001547	0.001773	28.0832	27.4585	0.001676	16379.7	9.556536	176.849	39.7878	1.052428	0.027302	0.026954	39.9292	16379.7	0.025474	0.031884	1252.34	83809.7
1006	2.000000	1.054738	7.37489e+06	-50439.1	1055.82	-29755.7	0.000000	0.000000	7.057577	46.7282	NaN	0.000000	0.001590	0.001760	28.0831	29.51	0.001746	16906.1	5.257840	-179.288	45.6969	1.054347	0.029264	0.028872	46.7282	16906.1	0.027191	0.035123	1330.43	82418.5
1006	2.000000	1.056725	7.37489e+06	-50439.1	1055.82	-29755.7	0.000000	0.000000	7.059625	48.2475	NaN	0.000000	0.001595	0.001770	28.0833	32.0983	0.001813	17703	4.120741	179.775	46.2402	1.056415	0.031250	0.030941	48.2475	17703	0.029206	0.039115	1233.49	81780.4
1006	2.000000	1.058733	7.37489e+06	-50439.1	1055.82	-29755.7	0.000000	0.000000	7.062083	59.1812	NaN	0.000000	0.001572	0.001775	28.0844	33.0636	0.001759	18794.3	4.649751	179.421	58.409	1.058462	0.033259	0.032988	59.1812	18794.3	0.030897	0.042624	1388.46	83171.4
1006	2.000000	1.060701	7.37489e+06	-50439.1	1055.82	-29755.7	0.000000	0.000000	7.064376	67.0755	NaN	0.000000	0.001596	0.001779	28.0832	36.6627	0.001742	21047.9	5.957081	176.888	66.6416	1.060402	0.035227	0.034927	67.0755	21047.9	0.032837	0.046829	1432.36	88863.9
1006	2.000000	1.062791	7.37489e+06	-50439.1	1055.82	-29755.7	0.000000	0.000000	7.066831	75.9401	NaN	0.000000	0.001589	0.001737	28.0819	38.4204	0.001777	21616.2	5.893470	178.039	76.8471	1.062322	0.037317	0.036848	75.9401	21616.2	0.034682	0.051008	1488.78	87444.6
1006	2.000000	1.064650	7.37489e+06	-50439.1	1055.82	-29755.7	0.000000	0.000000	7.068902	81.1099	NaN	0.000000	0.001578	0.001736	28.0821	40.2529	0.001753	22963.3	6.277655	175.743	78.2385	1.064392	0.039175	0.038917	81.1099	22963.3	0.036526	0.055360	1465.15	89168.4
1006	2.000000	1.066675	7.37489e+06	-50439.1	1055.82	-29755.7	0.000000	0.000000	7.071291	89.9381	NaN	0.000000	0.001585	0.001744	28.0817	42.8547	0.001800	23814.7	5.041168	176.12	89.5757	1.066502	0.041201	0.041028	89.9381	23814.7	0.038369	0.059881	1501.96	88915.2
1006	2.000000	1.068705	7.37489e+06	-50439.1	1055.82	-29755.7	0.000000	0.000000	7.073705	99.2927	NaN	0.000000	0.001572	0.001734	28.0831	43.7479	0.001769	24734.4	6.535861	175.067	99.2885	1.068349	0.043231	0.042875	99.2927	24734.4	0.040220	0.064599	1537.07	88912.5
1006	2.000000	1.070669	7.37489e+06	-50439.1	1055.82	-29755.7	0.000000	0.000000	7.076033	108.149	NaN	0.000000	0.001521	0.001755	28.0821	46.4524	0.001822	25490.5	7.151820	173.616	106.191	1.070420	0.045195	0.044946	108.149	25490.5	0.042013	0.069333	1559.84	88446.5
1006	2.000000	1.072798	7.37489e+06	-50439.1	1055.82	-29755.7	0.000000	0.000000	7.078390	113.691	NaN	0.000000	0.001592	0.001701	28.082	48.5448	0.001797	27020.8	7.475784	174.112	117.525	1.072430	0.047324	0.046956	113.691	27020.8	0.044169	0.075245	1510.95	89998.3
1006	2.000000	1.074648	7.37489e+06	-50439.1	1055.82	-29755.7	0.000000	0.000000	7.080622	122.966	NaN	0.000000	0.001573	0.001739	28.082	48.975	0.001706	28711.9	3.660640	177.074	121.194	1.074352	0.049174	0.048878	122.966	28711.9	0.045962	0.080342	1530.54	92547.4
1006	2.000000	1.076637	7.37489e+06	-50439.1	1055.82	-29755.7	0.000000	0.000000	7.082975	131.834	NaN	0.000000	0.001545	0.001709	28.082	53.0361	0.001976	26836.2	7.106242	173.659	127.78	1.076388	0.051163	0.050914	131.834	26836.2	0.047479	0.084779	1555.03	84207.5
1006	2.000000	1.078712	7.37489e+06	-50439.1	1055.82	-29755.7	0.000000	0.000000	7.085454	141.645	NaN	0.000000	0.001527	0.001755	28.0826	53.1899	0.001744	30493	6.248284	173.926	143.503	1.078436	0.053238	0.052962	141.645	30493	0.049754	0.091655	1545.43	92023.1
1006	2.000000	1.080576	7.37489e+06	-50439.1	1055.82	-29755.7	0.000000	0.000000	7.087807	153.544	NaN	0.000000	0.001558	0.001768	28.0821	53.8833	0.001714	31441.7	-0.223358	179.387	147.747	1.080322	0.055102	0.054848	153.544	31441.7	0.051439	0.096913	1584.35	92275.9
1006	2.000000	1.082684	7.37489e+06	-50439.1	1055.82	-29755.7	0.000000	0.000000	7.090369	164.588	NaN	0.000000	0.001566	0.001734	28.0818	57.5981	0.001832	31439.1	6.557756	173.643	163.129	1.082384	0.057210	0.056910	164.588	31439.1	0.053283	0.102832	1600.56	89573.6
1006	2.000000	1.084625	7.37489e+06	-50439.1	1055.82	-29755.7	0.000000	0.000000	7.092515	169.588	NaN	0.000000	0.001529	0.001747	28.0823	59.0794	0.001787	33069.6	1.744624	176.908	168.023	1.084457	0.059151	0.058983	169.588	33069.6	0.055304	0.109511	1548.59	91300.4
1006	2.000000	1.086750	7.37489e+06	-50439.1	1055.82	-29755.7	0.000000	0.000000	7.095101	180.793	NaN	0.000000	0.001547	0.001787	28.082	60.8151	0.001806	33669.2	2.410817	176.603	181.339	1.086370	0.061276	0.060896	180.793	33669.2	0.057248	0.116127	1556.86	90269.2
1006	2.000000	1.088637	7.37489e+06	-50439.1	1055.82	-29755.7	0.000000	0.000000	7.097498	193.186	NaN	0.000000	0.001538	0.001754	28.0822	62.3561	0.001726	36132.8	7.114378	170.559	190.821	1.088384	0.063163	0.062910	193.186	36132.8	0.059153	0.122788	1573.33	94210
1006	2.000000	1.090670	7.3749e+06	-50439.1	1055.82	-29755.7	0.000000	0.000000	7.099864	201.279	NaN	0.000000	0.001544	0.001757	28.0819	63.5975	0.001730	36754.2	5.247418	173.221	199.671	1.090472	0.065196	0.064998	201.279	36754.2	0.061089	0.129741	1551.39	93227.1
1006	2.000000	1.092719	7.3749e+06	-50439.1	1055.82	-29755.7	0.000000	0.000000	7.102601	218.006	NaN	0.000000	0.001521	0.001744	28.0818	66.5114	0.001824	36456.8	7.628142	171.294	219.207	1.092318	0.067245	0.066844	218.006	36456.8	0.062760	0.135890	1604.28	90356.2
1006	2.000000	1.094589	7.3749e+06	-50439.1	1055.82	-29755.7	0.000000	0.000000	7.105074	232.669	NaN	0.000000	0.001534	0.001773	28.0822	67.5683	0.001769	38197.9	6.075028	172.904	227.248	1.094240	0.069115	0.068766	232.669	38197.9	0.064546	0.142614	1631.47	92412.8
1006	2.000000	1.096583	7.3749e+06	-50439.1	1055.82	-29755.7	0.000000	0.000000	7.107284	237.926	NaN	0.000000	0.001530	0.001746	28.083	70.5397	0.001871	37701.4	2.709859	175.46	233.537	1.096344	0.071109	0.070870	237.926	37701.4	0.066376	0.149657	1589.8	89039.2
1006	2.000000	1.098557	7.3749e+06	-50439.1	1055.82	-29755.7	0.000000	0.000000	7.109597	246.186	NaN	0.000000	0.001554	0.001739	28.0832	71.6475	0.001990	36008.1	4.181141	174.446	240.694	1.098257	0.073082	0.072783	246.186	36008.1	0.067955	0.155867	1579.46	83328.8
1006	2.000000	1.100644	7.3749e+06	-50439.1	1055.82	-29755.7	0.000000	0.000000	7.112408	263.782	NaN	0.000000	0.001559	0.001742	28.0829	73.777	0.001687	43733	6.834173	169.484	261.497	1.100352	0.075170	0.074878	263.782	43733	0.070646	0.166725	1582.14	97854.7
1006	2.000000	1.102746	7.3749e+06	-50439.1	1055.82	-29755.7	0.000000	0.000000	7.114837	271.735	NaN	0.000000	0.001594	0.001751	28.0829	75.9161	0.001767	42966.8	4.715610	173.473	272.842	1.102353	0.077271	0.076879	271.735	42966.8	0.072528	0.174524	1557.01	93967.7
1006	2.000000	1.104650	7.3749e+06	-50439.1	1055.82	-29755.7	0.000000	0.000000	7.117338	286.254	NaN	0.000000	0.001562	0.001790	28.0831	77.8571	0.001905	40869.9	4.736968	173.222	285.478	1.104287	0.079175	0.078813	286.254	40869.9	0.073922	0.180409	1586.7	87912
1006	2.000000	1.106603	7.3749e+06	-50439.1	1055.82	-29755.7	0.000000	0.000000	7.119457	290.301	NaN	0.000000	0.001557	0.001753	28.0838	79.879	0.001868	42761.9	4.008972	173.16	286.972	1.106427	0.081128	0.080952	290.301	42761.9	0.076037	0.189509	1531.86	89746.1
1006	2.000000	1.108675	7.3749e+06	-50439.1	1055.82	-29755.7	0.000000	0.000000	7.122175	305.984	NaN	0.000000	0.001565	0.001741	28.0852	81.0089	0.001783	45445.7	8.182810	168.331	307.275	1.108301	0.083201	0.082827	305.984	45445.7	0.078152	0.198819	1539.01	93118.8
1006	2.000000	1.110701	7.3749e+06	-50439.1	1055.82	-29755.7	0.000000	0.000000	7.124950	324.204	NaN	0.000000	0.001576	0.001755	28.0834	82.9237	0.001765	46972.4	10.2144	168.203	324.475	1.110192	0.085227	0.084718	324.204	46972.4	0.080050	0.207358	1563.5	94244.4
1006	2.000000	1.112653	7.3749e+06	-50439.1	1055.82	-29755.7	0.000000	0.000000	7.127335	334.747	NaN	0.000000	0.001531	0.001740	28.0828	85.3342	0.001862	45839	6.485836	170.553	333.574	1.112245	0.087179	0.086771	334.747	45839	0.081702	0.214919	1557.55	90338.1
1006	2.000000	1.114633	7.3749e+06	-50439.1	1055.82	-29755.7	0.000000	0.000000	7.129598	341.636	NaN	0.000000	0.001553	0.001750	28.0832	86.0994	0.001762	48851.3	3.663152	172.984	339.934	1.114367	0.089158	0.088893	341.636	48851.3	0.083913	0.225245	1516.73	94041.9
1006	2.000000	1.116605	7.3749e+06	-50439.1	1055.82	-29755.7	0.000000	0.000000	7.132630	367.411	NaN	0.000000	0.001561	0.001745	28.0827	89.7607	0.001937	46337.6	3.951500	172.811	365.924	1.116320	0.091131	0.090846	367.411	46337.6	0.085184	0.231280	1588.6	88031.5
1006	2.000000	1.118638	7.3749e+06	-50439.1	1055.82	-29755.7	0.000000	0.000000	7.135078	377.503	NaN	0.000000	0.001557	0.001796	28.0829	89.6993	0.001665	53879.5	5.123430	170.564	376.78	1.118316	0.093164	0.092842	377.503	53879.5	0.087909	0.244473	1544.15	99559.2
1006	2.000000	1.120535	7.3749e+06	-50439.1	1055.82	-29755.7	0.000000	0.000000	7.137662	394.208	NaN	0.000000	0.001563	0.001793	28.0829	91.9255	0.001792	51311.9	7.131173	169.024	388.389	1.120207	0.095061	0.094733	394.208	51311.9	0.089299	0.251334	1568.46	93511.5
1006	2.000000	1.122681	7.3749e+06	-50439.1	1055.82	-29755.7	0.000000	0.000000	7.140427	409.275	NaN	0.000000	0.001570	0.001746	28.0833	92.969	0.001728	53814.2	3.192552	173	408.544	1.122321	0.097206	0.096847	409.275	53814.2	0.091502	0.262394	1559.77	95982.7
1006	2.000000	1.124582	7.3749e+06	-50439.1	1055.82	-29755.7	0.000000	0.000000	7.142943	424.219	NaN	0.000000	0.001544	0.001759	28.0829	94.4064	0.001774	53228.4	6.159751	169.888	419.957	1.124239	0.099108	0.098765	424.219	53228.4	0.093130	0.270706	1567.08	93468.9
1006	2.000000	1.126685	7.3749e+06	-50439.1	1055.82	-29755.7	0.000000	0.000000	7.145440	433.789	NaN	0.000000	0.001560	0.001749	28.0827	97.6375	0.001793	54442.6	7.067818	170.086	434.361	1.126207	0.101211	0.100732	433.789	54442.6	0.095235	0.281633	1540.27	93728.3
1006	2.000000	1.128571	7.3749e+06	-50439.1	1055.82	-29755.7	0.000000	0.000000	7.148097	452.541	NaN	0.000000	0.001549	0.001774	28.0828	97.9731	0.001828	53584.9	4.114161	171.589	449.277	1.128204	0.103097	0.102730	452.541	53584.9	0.096763	0.289694	1562.13	90959.1
1006	2.000000	1.130573	7.3749e+06	-50439.1	1055.82	-29755.7	0.000000	0.000000	7.150801	469.599	NaN	0.000000	0.001570	0.001777	28.0815	101.26	0.001859	54458.2	3.031178	172.63	463.415	1.130266	0.105099	0.104792	469.599	54458.2	0.098632	0.299695	1566.92	90886
1006	2.000000	1.132656	7.3749e+06	-50439.1	1055.82	-29755.7	0.000000	0.000000	7.153868	493.55	NaN	0.000000	0.001550	0.001743	28.0817	103.07	0.001775	58054	5.344357	170.212	492.016	1.132145	0.107181	0.106671	493.55	58054	0.100805	0.311527	1584.29	95029.2
1006	2.000000	1.133717	7.3749e+06	-50439.1	1055.82	-29755.7	0.000000	0.000000	7.154777	489.827	NaN	0.000000	0.001540	0.001696	28.0814	104.089	0.001712	60813.9	6.854225	168.644	495.081	1.133330	0.108243	0.107856	489.827	60813.9	0.102202	0.319247	1534.32	98336