File: remote_trans/data/nanoindenter/0828-1/data/Data_2025-08-06,11h17m57s/2025-07-22_16-23-58_1_762.txt
2025-07-22, 16:23:58, 1
Index	Phase	Displacement	Time	Pos X	Pos Y	Pos Z	Rot A	Rot B	Piezo Z	Force A	Force B	Gripper	Voltage A	Voltage B	Temperature	Amplitude force	Amplitude pos	Stiffness	Phase shift	Phase excitation	Force A raw	Displacement raw	HMax	HMax raw	Real Force	Real Stiffness	Contact Depth	Area	Hardness	Reduced Mod.
[#]	[#]	[um]	[s]	[um]	[um]	[um]	[m°]	[m°]	[um]	[uN]	[uN]	[V]	[V]	[V]	[°C]	[uN]	[um]	[N/m]	[°]	[°]	[uN]	[um]	[um]	[um]	[uN]	[N/m]	[um]	[um^2]	[MPa]	[MPa]
762	1.000000	0.002188	7.37251e+06	-38989.1	1005.82	-29795.4	0.000000	0.000000	6.002795	0.039659	NaN	0.000000	0.001632	0.001743	28.0827	0.034306	0.000991	34.6145	106.426	-158.899	0.002489	0.000894	-1.108338	-1.109632	0.039659	34.6145	-1.109197	-6.660616E+14	-5.954319E-17	NaN
762	1.000000	0.012253	7.37251e+06	-38989.1	1005.82	-29795.4	0.000000	0.000000	6.012857	0.003572	NaN	0.000000	0.001634	0.001740	28.0833	0.039823	0.001209	32.9284	58.7681	17.0913	-0.041961	0.010802	-1.098274	-1.099724	0.003572	32.9284	-1.098355	-4.764159E+14	-7.498098E-18	NaN
762	1.000000	0.022160	7.37251e+06	-38989.1	1005.82	-29795.4	0.000000	0.000000	6.022765	0.006082	NaN	0.000000	0.001616	0.001753	28.0823	0.099541	0.001740	57.2122	-10.4677	-167.881	-0.007175	0.020802	-1.088366	-1.089725	0.006082	57.2122	-1.088446	-3.507094E+14	-1.734062E-17	NaN
762	1.000000	0.032148	7.37251e+06	-38989.1	1005.82	-29795.4	0.000000	0.000000	6.032750	-0.065792	NaN	0.000000	0.001603	0.001763	28.0825	0.042912	0.001846	23.2438	-66.2554	16.4819	-0.049269	0.030818	-1.078378	-1.079708	-0.065792	23.2438	-1.076256	-2.405605E+14	2.734956E-16	NaN
762	1.000000	0.042136	7.37251e+06	-38989.1	1005.82	-29795.4	0.000000	0.000000	6.042742	0.030615	NaN	0.000000	0.001590	0.001762	28.0826	0.072716	0.001963	37.0489	19.8302	-165.579	0.000169	0.040856	-1.068390	-1.069670	0.030615	37.0489	-1.069010	-1.922592E+14	-1.592365E-16	NaN
762	1.000000	0.052138	7.37251e+06	-38989.1	1005.82	-29795.4	0.000000	0.000000	6.052742	-0.016685	NaN	0.000000	0.001600	0.001747	28.0826	0.106771	0.001991	53.6221	-108.809	15.7523	0.000997	0.050789	-1.058388	-1.059737	-0.016685	53.6221	-1.058155	-1.374111E+14	1.214254E-16	NaN
762	1.000000	0.062171	7.37251e+06	-38989.1	1005.82	-29795.4	0.000000	0.000000	6.062774	-0.029597	NaN	0.000000	0.001664	0.001768	28.0824	0.074439	0.001958	38.0106	-57.3524	-165.855	-0.087625	0.060890	-1.048355	-1.049637	-0.029597	38.0106	-1.047771	-9.964473E+13	2.970300E-16	NaN
762	1.000000	0.072155	7.37251e+06	-38989.1	1005.82	-29795.4	0.000000	0.000000	6.072758	-0.039554	NaN	0.000000	0.001597	0.001780	28.0824	0.071140	0.002024	35.1427	174.075	16.6637	-0.081922	0.070833	-1.038372	-1.039693	-0.039554	35.1427	-1.037527	-7.256339E+13	5.450950E-16	NaN
762	1.000000	0.082178	7.37251e+06	-38989.1	1005.82	-29795.4	0.000000	0.000000	6.082786	0.078072	NaN	0.000000	0.001580	0.001798	28.0825	0.077382	0.001960	39.4787	-94.2815	-166.543	0.016024	0.080894	-1.028348	-1.029632	0.078072	39.4787	-1.029831	-5.717524E+13	-1.365479E-15	NaN
762	1.000000	0.092144	7.37251e+06	-38989.1	1005.82	-29795.4	0.000000	0.000000	6.092751	0.044214	NaN	0.000000	0.001622	0.001767	28.0836	0.094269	0.001975	47.7288	169.42	13.9776	0.021126	0.090802	-1.018382	-1.019724	0.044214	47.7288	-1.019077	-4.097597E+13	-1.079030E-15	NaN
762	1.000000	0.102139	7.37251e+06	-38989.1	1005.82	-29795.4	0.000000	0.000000	6.102745	0.031010	NaN	0.000000	0.001600	0.001786	28.0836	0.075021	0.001969	38.0972	-36.1345	-164.194	0.044318	0.100889	-1.008387	-1.009637	0.031010	38.0972	-1.008997	-2.998377E+13	-1.034220E-15	NaN
762	1.000000	0.112170	7.37251e+06	-38989.1	1005.82	-29795.4	0.000000	0.000000	6.112774	-0.030339	NaN	0.000000	0.001589	0.001757	28.0835	0.010602	0.001949	5.440054	-85.2587	14.9172	-0.049236	0.110852	-0.998356	-0.999674	-0.030339	5.440054	-0.994173	-1.893704E+13	1.602115E-15	NaN
762	1.000000	0.122197	7.37251e+06	-38989.1	1005.82	-29795.4	0.000000	0.000000	6.122801	-0.020104	NaN	0.000000	0.001583	0.001787	28.0834	0.105672	0.002016	52.4099	-35.9551	-166.584	-0.000155	0.120853	-0.988329	-0.989673	-0.020104	52.4099	-0.988041	-1.565774E+13	1.283966E-15	NaN
762	1.000000	0.132169	7.37251e+06	-38989.1	1005.82	-29795.4	0.000000	0.000000	6.132771	-0.073049	NaN	0.000000	0.001598	0.001786	28.0832	0.068401	0.001920	35.6293	-25.5617	16.1301	-0.083112	0.130844	-0.978357	-0.979682	-0.073049	35.6293	-0.976819	-1.105491E+13	6.607827E-15	NaN
762	1.000000	0.142168	7.37251e+06	-38989.1	1005.82	-29795.4	0.000000	0.000000	6.142772	-0.010792	NaN	0.000000	0.001651	0.001814	28.0835	0.113281	0.001964	57.6688	168.904	-165.361	0.071395	0.140885	-0.968358	-0.969642	-0.010792	57.6688	-0.968218	-8.465403E+12	1.274866E-15	NaN
762	1.000000	0.152188	7.37251e+06	-38989.1	1005.82	-29795.4	0.000000	0.000000	6.152793	-0.001138	NaN	0.000000	0.001632	0.001783	28.0835	0.033949	0.002127	15.9576	7.809260	13.145	0.023986	0.150758	-0.958338	-0.959768	-0.001138	15.9576	-0.958285	-6.219322E+12	1.830163E-16	NaN
762	1.000000	0.162201	7.37251e+06	-38989.1	1005.82	-29795.4	0.000000	0.000000	6.162805	-0.009463	NaN	0.000000	0.001608	0.001784	28.0833	0.098792	0.002033	48.5871	177.94	-166.266	0.026648	0.160886	-0.948326	-0.949641	-0.009463	48.5871	-0.948180	-4.544392E+12	2.082425E-15	NaN
762	1.000000	0.172181	7.37251e+06	-38989.1	1005.82	-29795.4	0.000000	0.000000	6.172786	0.030160	NaN	0.000000	0.001647	0.001784	28.0834	0.065568	0.002003	32.7401	-48.123	14.1871	0.037441	0.170817	-0.938346	-0.939710	0.030160	32.7401	-0.939037	-3.420894E+12	-8.816426E-15	NaN
762	1.000000	0.182197	7.37251e+06	-38989.1	1005.82	-29795.4	0.000000	0.000000	6.182798	-0.084848	NaN	0.000000	0.001642	0.001786	28.0835	0.094289	0.001950	48.349	-124.26	-167.644	-0.003382	0.180861	-0.928329	-0.929666	-0.084848	48.349	-0.927013	-2.354402E+12	3.603817E-14	NaN
762	1.000000	0.192197	7.37251e+06	-38989.1	1005.82	-29795.4	0.000000	0.000000	6.192800	-0.047841	NaN	0.000000	0.001687	0.001784	28.0838	0.006388	0.002015	3.169669	-47.1002	14.5369	-0.067795	0.190845	-0.918329	-0.919681	-0.047841	3.169669	-0.907009	-1.264046E+12	3.784733E-14	NaN
762	1.000000	0.202188	7.37251e+06	-38989.1	1005.82	-29795.4	0.000000	0.000000	6.202793	0.005713	NaN	0.000000	0.001684	0.001802	28.0836	0.006693	0.002013	3.325545	-120.051	-164.463	0.056501	0.200924	-0.908339	-0.909602	0.005713	3.325545	-0.909627	-1.371275E+12	-4.166135E-15	NaN
762	1.000000	0.212208	7.37251e+06	-38989.1	1005.82	-29795.4	0.000000	0.000000	6.212811	-0.049916	NaN	0.000000	0.001667	0.001784	28.0836	0.087993	0.001820	48.3347	118.363	13.3355	-0.069911	0.210856	-0.898318	-0.899670	-0.049916	48.3347	-0.897543	-9.416095E+11	5.301111E-14	NaN
762	1.000000	0.222204	7.37251e+06	-38989.1	1005.82	-29795.4	0.000000	0.000000	6.222806	-0.068022	NaN	0.000000	0.001694	0.001802	28.0834	0.081998	0.001910	42.9199	38.6045	-165.631	0.025050	0.220929	-0.888322	-0.889597	-0.068022	42.9199	-0.887133	-6.810225E+11	9.988285E-14	NaN
762	1.000000	0.232219	7.37251e+06	-38989.1	1005.82	-29795.4	0.000000	0.000000	6.232821	-0.077346	NaN	0.000000	0.001697	0.001788	28.0823	0.069300	0.001963	35.3086	-97.7356	12.1498	-0.034181	0.230845	-0.878307	-0.879681	-0.077346	35.3086	-0.876664	-4.915755E+11	1.573436E-13	NaN
762	1.000000	0.242200	7.37251e+06	-38989.1	1005.82	-29795.4	0.000000	0.000000	6.242804	-0.003333	NaN	0.000000	0.001701	0.001809	28.0826	0.080171	0.002065	38.8171	19.8297	-170.366	-0.031545	0.240921	-0.868327	-0.869605	-0.003333	38.8171	-0.868262	-3.783831E+11	8.809094E-15	NaN
762	1.000000	0.252217	7.37251e+06	-38989.1	1005.82	-29795.4	0.000000	0.000000	6.252819	-0.073774	NaN	0.000000	0.001671	0.001833	28.0822	0.123139	0.002133	57.7205	78.227	15.5618	-0.080509	0.250885	-0.858309	-0.859641	-0.073774	57.7205	-0.857351	-2.693141E+11	2.739344E-13	NaN
762	1.000000	0.262243	7.37251e+06	-38989.1	1005.82	-29795.4	0.000000	0.000000	6.262847	-0.016095	NaN	0.000000	0.001690	0.001798	28.0825	0.052566	0.002009	26.1707	-49.9807	-166.373	0.040869	0.260936	-0.848284	-0.849590	-0.016095	26.1707	-0.847822	-2.001012E+11	8.043462E-14	NaN
762	1.000000	0.272252	7.37251e+06	-38989.1	1005.82	-29795.4	0.000000	0.000000	6.272857	0.019420	NaN	0.000000	0.001649	0.001802	28.082	0.029955	0.001959	15.2942	-33.5968	14.2231	0.032570	0.270894	-0.838275	-0.839633	0.019420	15.2942	-0.839227	-1.530447E+11	-1.268886E-13	NaN
762	1.000000	0.282231	7.37251e+06	-38989.1	1005.82	-29795.4	0.000000	0.000000	6.282833	-0.059924	NaN	0.000000	0.001667	0.001809	28.0824	0.073727	0.002050	35.9691	-18.2535	-164.451	0.004707	0.280931	-0.828295	-0.829596	-0.059924	35.9691	-0.827046	-1.046505E+11	5.726061E-13	NaN
762	1.000000	0.292245	7.37251e+06	-38989.1	1005.82	-29795.4	0.000000	0.000000	6.292850	0.008842	NaN	0.000000	0.001676	0.001794	28.082	0.148274	0.001948	76.1212	-89.694	14.5897	-0.051054	0.290887	-0.818281	-0.819640	0.008842	76.1212	-0.818368	-7.981426E+10	-1.107876E-13	NaN
762	1.000000	0.302248	7.37251e+06	-38989.1	1005.82	-29795.4	0.000000	0.000000	6.302852	-0.010339	NaN	0.000000	0.001684	0.001779	28.0826	0.046905	0.001975	23.7453	-15.9122	-166.082	-0.058286	0.300943	-0.808278	-0.809583	-0.010339	23.7453	-0.807952	-5.764752E+10	1.793533E-13	NaN
762	1.000000	0.312243	7.37251e+06	-38989.1	1005.82	-29795.4	0.000000	0.000000	6.312848	0.007617	NaN	0.000000	0.001631	0.001794	28.0822	0.059610	0.001957	30.4622	176.727	14.1771	0.005209	0.310910	-0.798283	-0.799617	0.007617	30.4622	-0.798471	-4.286499E+10	-1.776935E-13	NaN
762	1.000000	0.322255	7.37251e+06	-38989.1	1005.82	-29795.4	0.000000	0.000000	6.322861	0.022654	NaN	0.000000	0.001673	0.001776	28.0826	0.043841	0.002064	21.2433	40.8825	-166.569	-0.053889	0.320979	-0.788271	-0.789547	0.022654	21.2433	-0.789071	-3.194946E+10	-7.090468E-13	NaN
762	1.000000	0.332232	7.37251e+06	-38989.1	1005.82	-29795.4	0.000000	0.000000	6.332836	-0.019465	NaN	0.000000	0.001683	0.001794	28.0824	0.065810	0.002072	31.7631	121.012	11.3071	0.069522	0.330906	-0.778294	-0.779620	-0.019465	31.7631	-0.777834	-2.248033E+10	8.658783E-13	NaN
762	1.000000	0.342270	7.37251e+06	-38989.1	1005.82	-29795.4	0.000000	0.000000	6.342875	0.004026	NaN	0.000000	0.001641	0.001791	28.0826	0.037408	0.001969	18.9991	130.788	-168.518	-0.055768	0.340911	-0.768256	-0.769616	0.004026	18.9991	-0.768415	-1.673986E+10	-2.404964E-13	NaN
762	1.000000	0.352278	7.37251e+06	-38989.1	1005.82	-29795.4	0.000000	0.000000	6.352883	0.006372	NaN	0.000000	0.001641	0.001760	28.0821	0.015238	0.001874	8.130589	-123.805	15.4349	-0.112043	0.350841	-0.758248	-0.759685	0.006372	8.130589	-0.758836	-1.240134E+10	-5.138496E-13	NaN
762	1.000000	0.362253	7.37251e+06	-38989.1	1005.82	-29795.4	0.000000	0.000000	6.362858	-0.007340	NaN	0.000000	0.001640	0.001830	28.0835	0.104754	0.002060	50.858	-141.614	-165.705	-0.014830	0.360941	-0.748273	-0.749585	-0.007340	50.858	-0.748165	-8.876394E+9	8.268624E-13	NaN
762	1.000000	0.372289	7.37251e+06	-38989.1	1005.82	-29795.4	0.000000	0.000000	6.372888	-0.132893	NaN	0.000000	0.001640	0.001824	28.0837	0.062650	0.001911	32.787	-16.4598	15.8489	-0.057369	0.370907	-0.738238	-0.739620	-0.132893	32.787	-0.735198	-5.910677E+9	2.248356E-11	NaN
762	1.000000	0.382260	7.37251e+06	-38989.1	1005.82	-29795.4	0.000000	0.000000	6.382862	-0.070905	NaN	0.000000	0.001664	0.001815	28.0835	0.033471	0.002020	16.5712	-160.228	-164.1	-0.031462	0.380968	-0.728266	-0.729558	-0.070905	16.5712	-0.725057	-4.299569E+9	1.649113E-11	NaN
762	1.000000	0.392278	7.37251e+06	-38989.1	1005.82	-29795.4	0.000000	0.000000	6.392883	0.003071	NaN	0.000000	0.001760	0.001790	28.0835	0.059020	0.002089	28.2548	165.296	8.573260	-0.001690	0.390927	-0.718248	-0.719599	0.003071	28.2548	-0.718330	-3.480932E+9	-8.822453E-13	NaN
762	1.000000	0.402307	7.37251e+06	-38989.1	1005.82	-29795.4	0.000000	0.000000	6.402912	-0.006516	NaN	0.000000	0.001740	0.001789	28.0835	0.067051	0.001953	34.3319	64.2864	-164.309	-0.065935	0.401018	-0.708219	-0.709508	-0.006516	34.3319	-0.708077	-2.522304E+9	2.583506E-12	NaN
762	1.000000	0.412301	7.37251e+06	-38989.1	1005.82	-29795.4	0.000000	0.000000	6.412907	0.027030	NaN	0.000000	0.001716	0.001810	28.0836	0.100357	0.001894	52.9768	150.466	15.8917	-0.000338	0.410905	-0.698225	-0.699621	0.027030	52.9768	-0.698608	-1.872905E+9	-1.443209E-11	NaN
762	1.000000	0.422319	7.37251e+06	-38989.1	1005.82	-29795.4	0.000000	0.000000	6.422921	-0.066530	NaN	0.000000	0.001678	0.001774	28.083	0.104081	0.001928	53.9884	165.379	-165.186	-0.074728	0.421006	-0.688207	-0.689520	-0.066530	53.9884	-0.687283	-1.311539E+9	5.072652E-11	NaN
762	1.000000	0.432340	7.37251e+06	-38989.1	1005.82	-29795.4	0.000000	0.000000	6.432945	0.018880	NaN	0.000000	0.001724	0.001852	28.0833	0.026065	0.001889	13.796	-66.0342	16.807	-0.021054	0.430999	-0.678186	-0.679527	0.018880	13.796	-0.679213	-1.017279E+9	-1.855907E-11	NaN
762	1.000000	0.442296	7.37251e+06	-38989.1	1005.82	-29795.4	0.000000	0.000000	6.442897	-0.094325	NaN	0.000000	0.001717	0.001818	28.0832	0.069068	0.002138	32.302	-26.2644	-164.417	-0.021372	0.441020	-0.668230	-0.669506	-0.094325	32.302	-0.666040	-6.717075E+8	1.404258E-10	NaN
762	1.000000	0.452310	7.37251e+06	-38989.1	1005.82	-29795.4	0.000000	0.000000	6.452912	-0.062519	NaN	0.000000	0.001710	0.001777	28.0834	0.065641	0.002094	31.3505	-150.969	14.1196	-0.094427	0.450936	-0.658217	-0.659591	-0.062519	31.3505	-0.656721	-5.006651E+8	1.248712E-10	NaN
762	1.000000	0.462310	7.37251e+06	-38989.1	1005.82	-29795.4	0.000000	0.000000	6.462914	-0.018809	NaN	0.000000	0.001722	0.001787	28.0832	0.044920	0.002076	21.639	-17.9089	-166.488	-0.001992	0.461004	-0.648216	-0.649522	-0.018809	21.639	-0.647564	-3.750101E+8	5.015493E-11	NaN
762	1.000000	0.472305	7.37251e+06	-38989.1	1005.82	-29795.4	0.000000	0.000000	6.472906	-0.093286	NaN	0.000000	0.001729	0.001808	28.0833	0.061682	0.002072	29.7743	-163.468	12.4707	-0.122766	0.470968	-0.638222	-0.639558	-0.093286	29.7743	-0.635872	-2.592014E+8	3.598975E-10	NaN
762	1.000000	0.482313	7.37251e+06	-38989.1	1005.82	-29795.4	0.000000	0.000000	6.482917	-0.002549	NaN	0.000000	0.001766	0.001787	28.0836	0.072218	0.002027	35.6291	-56.1953	-164.636	0.045632	0.480976	-0.628214	-0.629550	-0.002549	35.6291	-0.628160	-2.031198E+8	1.255142E-11	NaN
762	1.000000	0.492313	7.37251e+06	-38989.1	1005.82	-29795.4	0.000000	0.000000	6.492917	-0.015847	NaN	0.000000	0.001755	0.001830	28.0836	0.032400	0.002071	15.6463	-57.7125	15.816	0.035327	0.491000	-0.618214	-0.619527	-0.015847	15.6463	-0.617454	-1.447552E+8	1.094754E-10	NaN
762	1.000000	0.502342	7.37251e+06	-38989.1	1005.82	-29795.4	0.000000	0.000000	6.502950	0.070975	NaN	0.000000	0.001688	0.001799	28.0823	0.087902	0.002062	42.6384	170.544	-162.631	0.044635	0.500955	-0.608184	-0.609571	0.070975	42.6384	-0.609432	-1.122806E+8	-6.321213E-10	NaN
762	1.000000	0.512377	7.37251e+06	-38989.1	1005.82	-29795.4	0.000000	0.000000	6.512981	0.004866	NaN	0.000000	0.001724	0.001817	28.0823	0.063737	0.001932	32.9988	156.6	13.5317	-0.097206	0.510975	-0.598150	-0.599551	0.004866	32.9988	-0.598260	-7.879500E+7	-6.175466E-11	NaN
762	1.000000	0.522302	7.37251e+06	-38989.1	1005.82	-29795.4	0.000000	0.000000	6.522908	0.034825	NaN	0.000000	0.001697	0.001785	28.0824	0.060228	0.002067	29.1407	-119.335	-165.05	-0.117807	0.521082	-0.588224	-0.589444	0.034825	29.1407	-0.589121	-5.895793E+7	-5.906779E-10	NaN
762	1.000000	0.532346	7.37251e+06	-38989.1	1005.82	-29795.4	0.000000	0.000000	6.532947	-0.074104	NaN	0.000000	0.001712	0.001817	28.0822	0.078649	0.002040	38.5618	78.0369	16.4652	-0.066799	0.531003	-0.578181	-0.579524	-0.074104	38.5618	-0.576740	-3.978485E+7	1.862619E-9	NaN
762	1.000000	0.542332	7.37251e+06	-38989.1	1005.82	-29795.4	0.000000	0.000000	6.542936	-0.015173	NaN	0.000000	0.001656	0.001822	28.0824	0.075246	0.002056	36.604	126.473	-164.083	0.051105	0.541095	-0.568195	-0.569431	-0.015173	36.604	-0.567884	-3.001831E+7	5.054555E-10	NaN
762	1.000000	0.552323	7.37251e+06	-38989.1	1005.82	-29795.4	0.000000	0.000000	6.552928	0.004037	NaN	0.000000	0.001683	0.001825	28.0824	0.062889	0.002044	30.7722	83.8238	10.4202	-0.044794	0.550974	-0.558203	-0.559553	0.004037	30.7722	-0.558302	-2.212481E+7	-1.824554E-10	NaN
762	1.000000	0.562357	7.37251e+06	-38989.1	1005.82	-29795.4	0.000000	0.000000	6.562960	-0.043640	NaN	0.000000	0.001761	0.001795	28.0824	0.038397	0.001883	20.394	-78.7736	-163.972	0.008320	0.561059	-0.548169	-0.549467	-0.043640	20.394	-0.546564	-1.521789E+7	2.867648E-9	NaN
762	1.000000	0.572368	7.37251e+06	-38989.1	1005.82	-29795.4	0.000000	0.000000	6.572973	0.024207	NaN	0.000000	0.001748	0.001767	28.0824	0.057720	0.002041	28.283	-157.316	12.2134	0.051004	0.571036	-0.538159	-0.539490	0.024207	28.283	-0.538800	-1.187736E+7	-2.038103E-9	NaN
762	1.000000	0.582383	7.37251e+06	-38989.1	1005.82	-29795.4	0.000000	0.000000	6.582985	-0.062399	NaN	0.000000	0.001759	0.001766	28.0822	0.053168	0.002112	25.1793	161.925	-164.294	-0.090142	0.581016	-0.528143	-0.529511	-0.062399	25.1793	-0.526285	-7.96094e+06	7.838188E-9	NaN
762	1.000000	0.592405	7.37251e+06	-38989.1	1005.82	-29795.4	0.000000	0.000000	6.593007	-0.069047	NaN	0.000000	0.001754	0.001784	28.0823	0.024787	0.002194	11.2987	133.297	10.9306	-0.030910	0.590974	-0.518121	-0.519552	-0.069047	11.2987	-0.513538	-5.29279e+06	1.304557E-8	NaN
762	1.000000	0.602380	7.37251e+06	-38989.1	1005.82	-29795.4	0.000000	0.000000	6.602981	-0.081954	NaN	0.000000	0.001758	0.001748	28.0822	0.090638	0.001878	48.2689	-109.433	-163.288	-0.040483	0.601046	-0.508147	-0.509481	-0.081954	48.2689	-0.506873	-4.27417e+06	1.917424E-8	NaN
762	1.000000	0.612371	7.37251e+06	-38989.1	1005.82	-29795.4	0.000000	0.000000	6.612975	-0.033388	NaN	0.000000	0.001763	0.001758	28.0822	0.115415	0.001953	59.1021	25.5162	13.8277	-0.021256	0.611011	-0.498155	-0.499516	-0.033388	59.1021	-0.497731	-3.18686e+06	1.047689E-8	NaN
762	1.000000	0.622357	7.37251e+06	-38989.1	1005.82	-29795.4	0.000000	0.000000	6.622960	-0.036713	NaN	0.000000	0.001728	0.001751	28.0823	0.131936	0.002041	64.6328	145.241	-166.484	-0.113063	0.621054	-0.488170	-0.489472	-0.036713	64.6328	-0.487744	-2.3113e+06	1.588431E-8	NaN
762	1.000000	0.632406	7.37251e+06	-38989.1	1005.82	-29795.4	0.000000	0.000000	6.633008	-0.057729	NaN	0.000000	0.001797	0.001742	28.0833	0.019218	0.002033	9.452503	105.637	15.8975	0.011510	0.631007	-0.478121	-0.479519	-0.057729	9.452503	-0.473540	-1.46233e+06	3.947740E-8	NaN
762	1.000000	0.642405	7.37251e+06	-38989.1	1005.82	-29795.4	0.000000	0.000000	6.643009	-0.018195	NaN	0.000000	0.001837	0.001779	28.0838	0.138966	0.002028	68.5365	-163.078	-168.778	-0.108417	0.641091	-0.468121	-0.469436	-0.018195	68.5365	-0.467922	-1.21972e+06	1.491704E-8	NaN
762	1.000000	0.652381	7.37251e+06	-38989.1	1005.82	-29795.4	0.000000	0.000000	6.652983	-0.066013	NaN	0.000000	0.001793	0.001808	28.0836	0.077868	0.002124	36.6632	177.769	14.2157	-0.073499	0.651018	-0.458145	-0.459508	-0.066013	36.6632	-0.456795	-851066	7.756466E-8	NaN
762	1.000000	0.662391	7.37251e+06	-38989.1	1005.82	-29795.4	0.000000	0.000000	6.662995	-0.007173	NaN	0.000000	0.001728	0.001809	28.0835	0.113844	0.001909	59.626	38.8899	-168.947	-0.040039	0.661086	-0.448135	-0.449440	-0.007173	59.626	-0.448045	-640922	1.119149E-8	NaN
762	1.000000	0.672376	7.37251e+06	-38989.1	1005.82	-29795.4	0.000000	0.000000	6.672979	-0.051340	NaN	0.000000	0.001733	0.001781	28.0832	0.034764	0.002032	17.1097	-77.3666	14.2799	-0.019005	0.670996	-0.438150	-0.439530	-0.051340	17.1097	-0.435900	-431980	1.188478E-7	NaN
762	1.000000	0.682421	7.37251e+06	-38989.1	1005.82	-29795.4	0.000000	0.000000	6.683025	-0.025767	NaN	0.000000	0.001741	0.001756	28.0837	0.042790	0.001992	21.4814	-61.4089	-165.123	-0.039069	0.681142	-0.428105	-0.429385	-0.025767	21.4814	-0.427206	-325473	7.916773E-8	NaN
762	1.000000	0.692383	7.37251e+06	-38989.1	1005.82	-29795.4	0.000000	0.000000	6.692987	-0.019521	NaN	0.000000	0.001738	0.001792	28.0836	0.087109	0.002103	41.4287	-133.149	12.941	-0.045629	0.691018	-0.418143	-0.419508	-0.019521	41.4287	-0.417790	-239366	8.155372E-8	NaN
762	1.000000	0.702432	7.37251e+06	-38989.1	1005.82	-29795.4	0.000000	0.000000	6.703035	-0.037562	NaN	0.000000	0.001738	0.001775	28.084	0.084799	0.001981	42.7956	97.0751	-163.027	-0.037973	0.701058	-0.408095	-0.409468	-0.037562	42.7956	-0.407436	-170581	2.202027E-7	NaN
762	1.000000	0.712441	7.37251e+06	-38989.1	1005.82	-29795.4	0.000000	0.000000	6.713046	0.005900	NaN	0.000000	0.001721	0.001793	28.0836	0.101427	0.002124	47.7457	-102.512	16.882	0.006593	0.711072	-0.398085	-0.399454	0.005900	47.7457	-0.398178	-125894	-4.686389E-8	NaN
762	1.000000	0.722408	7.37251e+06	-38989.1	1005.82	-29795.4	0.000000	0.000000	6.723011	-0.029039	NaN	0.000000	0.001718	0.001792	28.084	0.089371	0.002002	44.6438	-95.4685	-165.37	-0.031733	0.721116	-0.388118	-0.389410	-0.029039	44.6438	-0.387630	-88973	3.263782E-7	NaN
762	1.000000	0.732429	7.37251e+06	-38989.1	1005.82	-29795.4	0.000000	0.000000	6.733033	-0.017596	NaN	0.000000	0.001712	0.001804	28.0838	0.072172	0.002040	35.3747	-72.1611	13.0118	-0.024045	0.731050	-0.378097	-0.379477	-0.017596	35.3747	-0.377724	-64153	2.742831E-7	NaN
762	1.000000	0.742440	7.37251e+06	-38989.1	1005.82	-29795.4	0.000000	0.000000	6.743045	0.009792	NaN	0.000000	0.001687	0.001791	28.084	0.003570	0.002016	1.770714	-65.2411	-168.326	0.044045	0.741136	-0.368087	-0.369390	0.009792	1.770714	-0.372234	-53492.1	-1.830582E-7	NaN
762	1.000000	0.752440	7.37251e+06	-38989.1	1005.82	-29795.4	0.000000	0.000000	6.753045	-0.008320	NaN	0.000000	0.001735	0.001788	28.0838	0.060267	0.002062	29.2277	-79.4697	14.3563	0.003560	0.751082	-0.358086	-0.359444	-0.008320	29.2277	-0.357872	-33195.3	2.506503E-7	NaN
762	1.000000	0.762431	7.37251e+06	-38989.1	1005.82	-29795.4	0.000000	0.000000	6.763035	-0.035651	NaN	0.000000	0.001695	0.001765	28.0838	0.080062	0.002040	39.255	-99.9688	-161.851	0.037108	0.761129	-0.348095	-0.349398	-0.035651	39.255	-0.347414	-23412.4	1.522741E-6	NaN
762	1.000000	0.772441	7.37251e+06	-38989.1	1005.82	-29795.4	0.000000	0.000000	6.773044	-0.035239	NaN	0.000000	0.001704	0.001811	28.0825	0.102025	0.002022	50.4601	149.35	18.3173	-0.033821	0.771071	-0.338086	-0.339455	-0.035239	50.4601	-0.337562	-16826.6	2.094232E-6	NaN
762	1.000000	0.782464	7.37251e+06	-38989.1	1005.82	-29795.4	0.000000	0.000000	6.783067	-0.026744	NaN	0.000000	0.001687	0.001823	28.0825	0.130644	0.001933	67.581	-80.1708	-166.738	-0.029928	0.781160	-0.328063	-0.329366	-0.026744	67.581	-0.327766	-12098	2.210647E-6	NaN
762	1.000000	0.792468	7.37251e+06	-38989.1	1005.82	-29795.4	0.000000	0.000000	6.793071	-0.048321	NaN	0.000000	0.001702	0.001809	28.0827	0.090229	0.002010	44.9	-68.3338	14.1382	-0.038882	0.791072	-0.318058	-0.319455	-0.048321	44.9	-0.317251	-8475.13	5.701497E-6	NaN
762	1.000000	0.802434	7.37251e+06	-38989.1	1005.82	-29795.4	0.000000	0.000000	6.803040	0.035763	NaN	0.000000	0.001706	0.001820	28.0826	0.091444	0.001909	47.907	128.364	-166.414	0.103936	0.801127	-0.308092	-0.309400	0.035763	47.907	-0.308652	-6325.57	-5.653791E-6	NaN
762	1.000000	0.812470	7.37251e+06	-38989.1	1005.82	-29795.4	0.000000	0.000000	6.813071	-0.092978	NaN	0.000000	0.001656	0.001779	28.0828	0.056815	0.002091	27.1726	-62.1834	13.3677	0.005835	0.811082	-0.298056	-0.299444	-0.092978	27.1726	-0.295490	-4030.88	2.306650E-5	NaN
762	1.000000	0.822461	7.37251e+06	-38989.1	1005.82	-29795.4	0.000000	0.000000	6.823064	-0.045020	NaN	0.000000	0.001652	0.001806	28.0836	0.037339	0.002067	18.0638	111.849	-164.48	-0.066383	0.821154	-0.288065	-0.289372	-0.045020	18.0638	-0.286196	-2925.75	1.538756E-5	NaN
762	1.000000	0.832483	7.37251e+06	-38989.1	1005.82	-29795.4	0.000000	0.000000	6.833083	-0.117943	NaN	0.000000	0.001668	0.001799	28.0825	0.099440	0.002165	45.9251	140.31	12.6838	-0.145676	0.831112	-0.278043	-0.279415	-0.117943	45.9251	-0.276117	-2062.1	5.719551E-5	NaN
762	1.000000	0.842504	7.37251e+06	-38989.1	1005.82	-29795.4	0.000000	0.000000	6.843105	-0.066426	NaN	0.000000	0.001665	0.001818	28.0826	0.074075	0.002029	36.5136	120.684	-167.08	-0.015485	0.841186	-0.268023	-0.269341	-0.066426	36.5136	-0.266658	-1481.43	4.483935E-5	NaN
762	1.000000	0.852479	7.37251e+06	-38989.1	1005.82	-29795.4	0.000000	0.000000	6.853083	-0.025529	NaN	0.000000	0.001714	0.001779	28.0828	0.111579	0.002023	55.1475	136.206	13.8575	-0.079382	0.851072	-0.258047	-0.259455	-0.025529	55.1475	-0.257700	-1080.52	2.362652E-5	NaN
762	1.000000	0.862491	7.37251e+06	-38989.1	1005.82	-29795.4	0.000000	0.000000	6.863095	-0.003376	NaN	0.000000	0.001694	0.001794	28.0826	0.006421	0.001838	3.494293	17.2291	-166.209	-0.032409	0.861160	-0.248036	-0.249367	-0.003376	3.494293	-0.247311	-747.007	4.519420E-6	NaN
762	1.000000	0.872500	7.37251e+06	-38989.1	1005.82	-29795.4	0.000000	0.000000	6.873101	-0.093401	NaN	0.000000	0.001731	0.001805	28.0825	0.041622	0.002091	19.902	0.818373	21.0452	-0.090937	0.871189	-0.238026	-0.239337	-0.093401	19.902	-0.234506	-471.515	0.000198	NaN
762	1.000000	0.882470	7.37251e+06	-38989.1	1005.82	-29795.4	0.000000	0.000000	6.883077	0.059718	NaN	0.000000	0.001734	0.001755	28.0828	0.051590	0.001980	26.0541	37.4271	-165.61	-0.023786	0.881185	-0.228056	-0.229341	0.059718	26.0541	-0.229775	-397.158	-0.000150	NaN
762	1.000000	0.892490	7.37251e+06	-38989.1	1005.82	-29795.4	0.000000	0.000000	6.893093	-0.040962	NaN	0.000000	0.001668	0.001751	28.0827	0.054293	0.001942	27.9514	46.3431	12.8411	0.008912	0.891121	-0.218036	-0.219405	-0.040962	27.9514	-0.216937	-248.102	0.000165	NaN
762	1.000000	0.902490	7.37251e+06	-38989.1	1005.82	-29795.4	0.000000	0.000000	6.903091	-0.092467	NaN	0.000000	0.001676	0.001758	28.0827	0.039556	0.001892	20.9083	-3.095484	-165.262	-0.037985	0.901222	-0.208036	-0.209304	-0.092467	20.9083	-0.204720	-157.392	0.000587	NaN
762	1.000000	0.912469	7.37251e+06	-38989.1	1005.82	-29795.4	0.000000	0.000000	6.913075	0.030376	NaN	0.000000	0.001696	0.001749	28.0839	0.088739	0.001962	45.2224	-58.2212	13.5915	0.010954	0.911157	-0.198057	-0.199369	0.030376	45.2224	-0.198561	-124.745	-0.000244	NaN
762	1.000000	0.922512	7.37251e+06	-38989.1	1005.82	-29795.4	0.000000	0.000000	6.923114	-0.082436	NaN	0.000000	0.001669	0.001779	28.084	0.052100	0.001977	26.3553	8.624062	-167.235	-0.090740	0.921199	-0.188014	-0.189327	-0.082436	26.3553	-0.185668	-76.0998	0.001083	NaN
762	1.000000	0.932511	7.37251e+06	-38989.1	1005.82	-29795.4	0.000000	0.000000	6.933116	0.023098	NaN	0.000000	0.001667	0.001745	28.084	0.056652	0.001974	28.7051	-119.362	14.1885	-6.516260E-5	0.931165	-0.178016	-0.179361	0.023098	28.7051	-0.178619	-57.8021	-0.000400	NaN
762	1.000000	0.942503	7.37251e+06	-38989.1	1005.82	-29795.4	0.000000	0.000000	6.943107	-0.018694	NaN	0.000000	0.001716	0.001765	28.0839	0.063635	0.001913	33.268	154.263	-165.449	-0.077039	0.941229	-0.168023	-0.169297	-0.018694	33.268	-0.167602	-37.3132	0.000501	NaN
762	1.000000	0.952503	7.37251e+06	-38989.1	1005.82	-29795.4	0.000000	0.000000	6.953109	0.036552	NaN	0.000000	0.001692	0.001766	28.084	0.046817	0.002025	23.1227	-28.283	14.7945	0.036465	0.951168	-0.158023	-0.159358	0.036552	23.1227	-0.159209	-26.5408	-0.001377	NaN
762	1.000000	0.962524	7.37251e+06	-38989.1	1005.82	-29795.4	0.000000	0.000000	6.963129	0.012479	NaN	0.000000	0.001749	0.001847	28.0843	0.049084	0.002059	23.8358	-66.8127	-165.31	0.015321	0.961262	-0.148002	-0.149264	0.012479	23.8358	-0.148395	-16.9304	-0.000737	NaN
762	1.000000	0.972541	7.37251e+06	-38989.1	1005.82	-29795.4	0.000000	0.000000	6.973147	0.045664	NaN	0.000000	0.001721	0.001820	28.084	0.113426	0.001957	57.9534	-66.5052	15.8313	-0.037255	0.971122	-0.137986	-0.139404	0.045664	57.9534	-0.138577	-11.1217	-0.004106	NaN
762	1.000000	0.982520	7.37251e+06	-38989.1	1005.82	-29795.4	0.000000	0.000000	6.983127	0.069895	NaN	0.000000	0.001709	0.001818	28.0841	0.044160	0.002047	21.5778	146.234	-164.012	0.091990	0.981238	-0.128006	-0.129288	0.069895	21.5778	-0.130436	-7.770879	-0.008995	NaN
762	1.000000	0.992554	7.37251e+06	-38989.1	1005.82	-29795.4	0.000000	0.000000	6.993158	-0.004950	NaN	0.000000	0.001711	0.001816	28.0844	0.065944	0.001936	34.0594	127.998	11.9827	-0.091241	0.991170	-0.117972	-0.119356	-0.004950	34.0594	-0.117863	-4.372893	0.001132	NaN
762	1.000000	1.002544	7.37251e+06	-38989.1	1005.82	-29795.4	0.000000	0.000000	7.003146	-0.070191	NaN	0.000000	0.001707	0.001800	28.0841	0.026623	0.001951	13.6481	83.3928	-165.438	0.005468	1.001273	-0.107982	-0.109253	-0.070191	13.6481	-0.104125	-2.250241	0.031193	NaN
762	1.000000	1.012557	7.37251e+06	-38989.1	1005.82	-29795.4	0.000000	0.000000	7.013160	-0.027124	NaN	0.000000	0.001705	0.001788	28.0841	0.035196	0.001914	18.3883	-105.666	11.4763	0.042192	1.011201	-0.097969	-0.099325	-0.027124	18.3883	-0.096863	-1.554693	0.017446	NaN
762	1.000000	1.022536	7.37251e+06	-38989.1	1005.82	-29795.4	0.000000	0.000000	7.023140	-0.037173	NaN	0.000000	0.001830	0.001769	28.0841	0.037738	0.002015	18.7256	138.774	-166.916	-0.027922	1.021248	-0.087990	-0.089278	-0.037173	18.7256	-0.086501	-0.892966	0.041628	NaN
762	1.000000	1.032586	7.37251e+06	-38989.1	1005.82	-29795.4	0.000000	0.000000	7.033190	-0.017406	NaN	0.000000	0.001769	0.001810	28.0845	0.030667	0.002051	14.9534	-23.1903	14.673	0.033596	1.031216	-0.077940	-0.079310	-0.017406	14.9534	-0.077067	-0.521943	0.033349	NaN
762	1.000000	1.042550	7.37251e+06	-38989.1	1005.82	-29795.4	0.000000	0.000000	7.043154	-0.018156	NaN	0.000000	0.001785	0.001807	28.0833	0.155414	0.002020	76.9554	-61.0289	-168.971	-0.039137	1.041305	-0.067976	-0.069221	-0.018156	76.9554	-0.067799	-0.297494	0.061029	NaN
762	1.000000	1.052598	7.37251e+06	-38989.1	1005.82	-29795.4	0.000000	0.000000	7.053201	-0.032837	NaN	0.000000	0.001767	0.001816	28.0828	0.153990	0.001909	80.6547	-49.4848	12.6248	0.028296	1.051236	-0.057928	-0.059290	-0.032837	80.6547	-0.057623	-0.153745	0.213582	NaN
762	1.000000	1.062577	7.37251e+06	-38989.1	1005.82	-29795.4	0.000000	0.000000	7.063181	-0.016957	NaN	0.000000	0.001757	0.001840	28.0829	0.068741	0.001829	37.5922	145.748	-166.534	0.096770	1.061241	-0.047950	-0.049285	-0.016957	37.5922	-0.047611	-0.077218	0.219604	NaN
762	1.000000	1.072570	7.37251e+06	-38989.1	1005.82	-29795.4	0.000000	0.000000	7.073173	-0.046832	NaN	0.000000	0.001724	0.001796	28.0831	0.063029	0.002052	30.7179	22.6647	15.5617	-0.054190	1.071205	-0.037956	-0.039322	-0.046832	30.7179	-0.036813	-0.036247	1.292035	NaN
762	1.000000	1.082588	7.37251e+06	-38989.1	1005.82	-29795.4	0.000000	0.000000	7.083193	0.003338	NaN	0.000000	0.001735	0.001784	28.0829	0.027342	0.001992	13.7274	-111.337	-164.673	0.005228	1.081250	-0.027938	-0.029276	0.003338	13.7274	-0.028120	-0.020428	-0.163388	NaN
762	1.000000	1.092584	7.37251e+06	-38989.1	1005.82	-29795.4	0.000000	0.000000	7.093188	-0.020132	NaN	0.000000	0.001786	0.001789	28.0828	0.122310	0.001957	62.4993	-61.4186	9.925416	0.015208	1.091211	-0.017942	-0.019315	-0.020132	62.4993	-0.017701	-0.010964	1.836108	NaN
762	1.000000	1.102558	7.37251e+06	-38989.1	1005.82	-29795.4	0.000000	0.000000	7.103170	0.186813	NaN	0.000000	0.001728	0.001811	28.0828	0.327788	0.002071	158.244	24.6865	-167.669	0.004117	1.101249	-0.007969	-0.009278	0.186813	158.244	-0.008854	-0.005729	-32.61	NaN
762	1.000000	1.112534	7.37251e+06	-38989.1	1005.82	-29795.4	0.000000	0.000000	7.113342	4.961392	NaN	0.000000	0.001701	0.001790	28.0829	5.735044	0.001712	3349.56	12.7854	9.709486	3.852671	1.111178	0.002008	0.000652	4.961392	3349.56	0.000897	0.000682	7274.63	117183
762	2.000000	1.117177	7.37251e+06	-38989.1	1005.82	-29795.4	0.000000	0.000000	7.118258	11.5921	NaN	0.000000	0.001721	0.001818	28.0828	12.0331	0.001706	7052.06	5.033524	-173.895	11.4846	1.116894	0.006650	0.006368	11.5921	7052.06	0.005417	0.004518	2566	95859.7
762	2.000000	1.119692	7.37251e+06	-38989.1	1005.82	-29795.4	0.000000	0.000000	7.120935	15.5476	NaN	0.000000	0.001743	0.001804	28.0829	14.8775	0.001725	8626.92	7.330563	4.250615	14.9668	1.119353	0.009165	0.008827	15.5476	8626.92	0.007814	0.006851	2269.28	95222.9
762	2.000000	1.122076	7.37251e+06	-38989.1	1005.82	-29795.4	0.000000	0.000000	7.123549	21.1281	NaN	0.000000	0.001729	0.001786	28.0827	17.8081	0.001708	10425.8	7.102163	-178.601	19.4272	1.121851	0.011550	0.011325	21.1281	10425.8	0.010030	0.009215	2292.85	99229.5
762	2.000000	1.124593	7.37251e+06	-38989.1	1005.82	-29795.4	0.000000	0.000000	7.126330	27.5752	NaN	0.000000	0.001710	0.001810	28.0829	20.6641	0.001776	11633.4	5.050175	3.018983	25.553	1.124192	0.014066	0.013665	27.5752	11633.4	0.012288	0.011837	2329.5	97690.4
762	2.000000	1.127114	7.37251e+06	-38989.1	1005.82	-29795.4	0.000000	0.000000	7.129032	31.9499	NaN	0.000000	0.001701	0.001851	28.083	23.9319	0.001918	12477	8.992608	179.345	32.178	1.126808	0.016588	0.016282	31.9499	12477	0.014668	0.014845	2152.26	93561.6
762	2.000000	1.129598	7.37251e+06	-38989.1	1005.82	-29795.4	0.000000	0.000000	7.131974	43.0984	NaN	0.000000	0.001707	0.001769	28.0827	25.2898	0.001812	13954.8	3.555492	3.824214	40.8024	1.129236	0.019072	0.018710	43.0984	13954.8	0.016756	0.017698	2435.2	95836.8
762	2.000000	1.132065	7.37251e+06	-38989.1	1005.82	-29795.4	0.000000	0.000000	7.134655	48.308	NaN	0.000000	0.001740	0.001791	28.0844	28.0565	0.001854	15131.8	2.169200	-176.452	45.8383	1.131755	0.021539	0.021229	48.308	15131.8	0.019145	0.021216	2276.95	94914.1
762	2.000000	1.134571	7.37251e+06	-38989.1	1005.82	-29795.4	0.000000	0.000000	7.137339	52.6504	NaN	0.000000	0.001719	0.001773	28.0842	30.1935	0.001806	16713.9	2.744587	2.301063	51.5391	1.134276	0.024045	0.023749	52.6504	16713.9	0.021682	0.025255	2084.74	96089.5
762	2.000000	1.137074	7.37251e+06	-38989.1	1005.82	-29795.4	0.000000	0.000000	7.140356	65.1471	NaN	0.000000	0.001741	0.001793	28.0841	33.6734	0.001944	17323	6.520171	178.877	65.402	1.136718	0.026548	0.026192	65.1471	17323	0.023727	0.028741	2266.68	93356.1
762	2.000000	1.139586	7.37251e+06	-38989.1	1005.82	-29795.4	0.000000	0.000000	7.143185	72.8751	NaN	0.000000	0.001729	0.001783	28.0841	34.589	0.001813	19076.1	5.966018	-2.469666	72.1168	1.139216	0.029060	0.028690	72.8751	19076.1	0.026195	0.033225	2193.39	95616.1
762	2.000000	1.142105	7.37251e+06	-38989.1	1005.82	-29795.4	0.000000	0.000000	7.145832	75.9835	NaN	0.000000	0.001691	0.001783	28.0843	36.267	0.001700	21330.2	5.598469	176.996	78.2683	1.141811	0.031579	0.031285	75.9835	21330.2	0.028907	0.038509	1973.13	99308.8
762	2.000000	1.144497	7.37251e+06	-38989.1	1005.82	-29795.4	0.000000	0.000000	7.148704	87.6557	NaN	0.000000	0.001763	0.001776	28.0841	39.4486	0.001795	21976.7	4.128382	-2.314946	83.9353	1.144174	0.033971	0.033647	87.6557	21976.7	0.030979	0.042798	2048.14	97056.5
762	2.000000	1.147031	7.37251e+06	-38989.1	1005.82	-29795.4	0.000000	0.000000	7.151584	96.1012	NaN	0.000000	0.001755	0.001823	28.0847	42.3729	0.001865	22714.2	4.070085	177.628	94.2873	1.146722	0.036504	0.036196	96.1012	22714.2	0.033331	0.047932	2004.97	94789.4
762	2.000000	1.149611	7.37251e+06	-38989.1	1005.82	-29795.4	0.000000	0.000000	7.154430	102.569	NaN	0.000000	0.001748	0.001820	28.0841	43.6027	0.001802	24203	2.284592	-0.355634	103.734	1.149267	0.039085	0.038741	102.569	24203	0.035906	0.053877	1903.77	95266.8
762	2.000000	1.152025	7.37251e+06	-38989.1	1005.82	-29795.4	0.000000	0.000000	7.157515	118.891	NaN	0.000000	0.001750	0.001793	28.0841	45.4006	0.001689	26875.4	4.043339	176.348	117.738	1.151714	0.041499	0.041187	118.891	26875.4	0.038181	0.059412	2001.12	100737
762	2.000000	1.154484	7.37251e+06	-38989.1	1005.82	-29795.4	0.000000	0.000000	7.160128	122.645	NaN	0.000000	0.001762	0.001832	28.084	47.0735	0.001742	27019.2	-1.706234	2.491932	118.042	1.154141	0.043958	0.043614	122.645	27019.2	0.040553	0.065466	1873.41	96480
762	2.000000	1.157001	7.37251e+06	-38989.1	1005.82	-29795.4	0.000000	0.000000	7.163514	143.793	NaN	0.000000	0.001737	0.001820	28.0845	50.1951	0.001848	27160.6	1.449261	-179.882	141.006	1.156692	0.046475	0.046165	143.793	27160.6	0.042504	0.070660	2035.01	93352.6
762	2.000000	1.159509	7.37251e+06	-38989.1	1005.82	-29795.4	0.000000	0.000000	7.166318	150.976	NaN	0.000000	0.001739	0.001809	28.0842	51.4373	0.001714	30002.4	-1.859810	1.991901	146.636	1.159201	0.048983	0.048674	150.976	30002.4	0.045209	0.078181	1931.11	98034.5
762	2.000000	1.162025	7.37251e+06	-38989.1	1005.82	-29795.4	0.000000	0.000000	7.169452	166.021	NaN	0.000000	0.001739	0.001819	28.0842	55.5434	0.001722	32262.7	7.461421	171.123	165.839	1.161745	0.051499	0.051219	166.021	32262.7	0.047639	0.085256	1947.33	100951
762	2.000000	1.164501	7.37251e+06	-38989.1	1005.82	-29795.4	0.000000	0.000000	7.172654	183.685	NaN	0.000000	0.001764	0.001826	28.084	57.6081	0.001864	30903.6	3.846312	-3.356825	180.785	1.164091	0.053975	0.053565	183.685	30903.6	0.049517	0.090925	2020.18	93635.5
762	2.000000	1.167008	7.37251e+06	-38989.1	1005.82	-29795.4	0.000000	0.000000	7.175392	189.306	NaN	0.000000	0.001800	0.001817	28.083	60.9813	0.001852	32920.7	5.224321	173.508	187.758	1.166846	0.056482	0.056320	189.306	32920.7	0.052169	0.099236	1907.63	95478.9
762	2.000000	1.169525	7.37251e+06	-38989.1	1005.82	-29795.4	0.000000	0.000000	7.178905	213.563	NaN	0.000000	0.001806	0.001843	28.0827	62.3096	0.001811	34405.7	4.767304	-5.822306	210.099	1.169111	0.058999	0.058585	213.563	34405.7	0.054343	0.106309	2008.89	96409.4
762	2.000000	1.171958	7.37251e+06	-38989.1	1005.82	-29795.4	0.000000	0.000000	7.181817	225.208	NaN	0.000000	0.001743	0.001852	28.083	65.3972	0.001714	38150.6	6.101620	171.764	223.33	1.171642	0.061432	0.061115	225.208	38150.6	0.057005	0.115287	1953.46	102656
762	2.000000	1.174467	7.37251e+06	-38989.1	1005.82	-29795.4	0.000000	0.000000	7.185211	246.732	NaN	0.000000	0.001786	0.001858	28.0827	67.3451	0.001701	39583.9	6.637545	-8.740063	242.525	1.174137	0.063941	0.063611	246.732	39583.9	0.059266	0.123190	2002.85	103040
762	2.000000	1.177013	7.37251e+06	-38989.1	1005.82	-29795.4	0.000000	0.000000	7.188143	256.126	NaN	0.000000	0.001773	0.001828	28.083	70.4497	0.001825	38608	0.516251	177.352	254.204	1.176821	0.066487	0.066295	256.126	38608	0.061511	0.131284	1950.93	97351.9
762	2.000000	1.179433	7.37251e+06	-38989.1	1005.82	-29795.4	0.000000	0.000000	7.191248	272.817	NaN	0.000000	0.001767	0.001806	28.0825	71.9144	0.001850	38883.1	3.808340	-5.597569	268.465	1.179227	0.068907	0.068700	272.817	38883.1	0.063644	0.139200	1959.88	95216.9
762	2.000000	1.181989	7.37251e+06	-38989.1	1005.82	-29795.4	0.000000	0.000000	7.194346	285.988	NaN	0.000000	0.001819	0.001847	28.0826	73.7195	0.001700	43371.6	3.249859	173.663	283.399	1.181655	0.071463	0.071129	285.988	43371.6	0.066517	0.150210	1903.92	102242
762	2.000000	1.184368	7.37251e+06	-38989.1	1005.82	-29795.4	0.000000	0.000000	7.197507	305.025	NaN	0.000000	0.001739	0.001802	28.0825	75.7874	0.001701	44563.6	4.432342	-7.364444	296.21	1.183939	0.073842	0.073412	305.025	44563.6	0.068708	0.158872	1919.94	102148
762	2.000000	1.187019	7.37251e+06	-38989.1	1005.82	-29795.4	0.000000	0.000000	7.200952	324.36	NaN	0.000000	0.001753	0.001776	28.0825	79.2752	0.001772	44744.9	3.794986	173.658	323.489	1.186617	0.076492	0.076090	324.36	44744.9	0.071055	0.168408	1926.04	99617.6
762	2.000000	1.189448	7.37251e+06	-38989.1	1005.82	-29795.4	0.000000	0.000000	7.204043	340.456	NaN	0.000000	0.001753	0.001822	28.0824	81.2235	0.001755	46286.1	6.810004	-9.688127	334.069	1.189045	0.078922	0.078518	340.456	46286.1	0.073405	0.178216	1910.35	100173
762	2.000000	1.191939	7.37251e+06	-38989.1	1005.82	-29795.4	0.000000	0.000000	7.207285	358.748	NaN	0.000000	0.001751	0.001811	28.0823	84.0242	0.001845	45548.3	4.906483	171.72	354.507	1.191651	0.081413	0.081124	358.748	45548.3	0.075505	0.187202	1916.37	96181.3
762	2.000000	1.194429	7.37251e+06	-38989.1	1005.82	-29795.4	0.000000	0.000000	7.210400	373.953	NaN	0.000000	0.001736	0.001810	28.0827	87.9525	0.001880	46776.3	6.104020	-9.951397	367.416	1.194169	0.083903	0.083642	373.953	46776.3	0.077907	0.197731	1891.22	96108.5
762	2.000000	1.196931	7.37251e+06	-38989.1	1005.82	-29795.4	0.000000	0.000000	7.213938	399.153	NaN	0.000000	0.001774	0.001757	28.0825	88.9198	0.001880	47306.6	4.278218	172.238	395.636	1.196663	0.086404	0.086136	399.153	47306.6	0.080076	0.207475	1923.87	94888.2
762	2.000000	1.199385	7.37251e+06	-38989.1	1005.82	-29795.4	0.000000	0.000000	7.217127	417.028	NaN	0.000000	0.001757	0.001784	28.0836	89.7565	0.001813	49508.3	3.135079	-6.661865	409.284	1.199165	0.088859	0.088639	417.028	49508.3	0.082542	0.218813	1905.86	96697.2
762	2.000000	1.201919	7.37251e+06	-38989.1	1005.82	-29795.4	0.000000	0.000000	7.220555	438.8	NaN	0.000000	0.001800	0.001822	28.0839	91.531	0.001846	49575	5.117700	171.672	434.696	1.201522	0.091393	0.090996	438.8	49575	0.084755	0.229233	1914.21	94601.4
762	2.000000	1.204378	7.37251e+06	-38989.1	1005.82	-29795.4	0.000000	0.000000	7.223597	453.002	NaN	0.000000	0.001806	0.001805	28.084	94.3123	0.001738	54275.9	3.667689	-7.583136	444.833	1.204088	0.093851	0.093561	453.002	54275.9	0.087592	0.242920	1864.82	100612
762	2.000000	1.206944	7.37251e+06	-38989.1	1005.82	-29795.4	0.000000	0.000000	7.226886	470.579	NaN	0.000000	0.001773	0.001832	28.0838	98.4239	0.001889	52104.9	4.343439	171.781	467.522	1.206684	0.096418	0.096157	470.579	52104.9	0.089644	0.253052	1859.61	94633.9
762	2.000000	1.209439	7.37251e+06	-38989.1	1005.82	-29795.4	0.000000	0.000000	7.230116	488.458	NaN	0.000000	0.001777	0.001796	28.0839	100.783	0.001895	53175	6.481778	-10.5791	482.992	1.209081	0.098913	0.098554	488.458	53175	0.092023	0.265042	1842.95	94367.7
762	2.000000	1.211973	7.37251e+06	-38989.1	1005.82	-29795.4	0.000000	0.000000	7.233359	505.711	NaN	0.000000	0.001740	0.001824	28.0841	102.551	0.001946	52696.4	8.230804	167.991	506.12	1.211722	0.101447	0.101196	505.711	52696.4	0.094250	0.276493	1829.02	91561.5
762	2.000000	1.213950	7.37251e+06	-38989.1	1005.82	-29795.4	0.000000	0.000000	7.236060	523.342	NaN	0.000000	0.001755	0.001800	28.0838	102.198	0.001753	58288.9	1.965419	173.541	522.214	1.213639	0.103424	0.103113	523.342	58288.9	0.096690	0.289305	1808.96	99010.5