File: remote_trans/data/nanoindenter/0828-1/data/Data_2025-08-06,11h17m57s/2025-07-22_16-23-58_1_54.txt
2025-07-22, 16:23:58, 1
Index	Phase	Displacement	Time	Pos X	Pos Y	Pos Z	Rot A	Rot B	Piezo Z	Force A	Force B	Gripper	Voltage A	Voltage B	Temperature	Amplitude force	Amplitude pos	Stiffness	Phase shift	Phase excitation	Force A raw	Displacement raw	HMax	HMax raw	Real Force	Real Stiffness	Contact Depth	Area	Hardness	Reduced Mod.
[#]	[#]	[um]	[s]	[um]	[um]	[um]	[m°]	[m°]	[um]	[uN]	[uN]	[V]	[V]	[V]	[°C]	[uN]	[um]	[N/m]	[°]	[°]	[uN]	[um]	[um]	[um]	[uN]	[N/m]	[um]	[um^2]	[MPa]	[MPa]
54	1.000000	0.002409	7.36557e+06	-41339.1	955.818	-29787.2	0.000000	0.000000	6.002787	-0.080306	NaN	0.000000	0.001624	0.001716	28.126	0.083549	0.000952	87.7266	-99.7704	-157.93	-0.068594	0.001169	-1.076559	-1.077799	-0.080306	87.7266	-1.075873	-2.377297E+14	3.378032E-16	NaN
54	1.000000	0.010413	7.36557e+06	-41339.1	955.819	-29787.2	0.000000	0.000000	6.010795	0.018517	NaN	0.000000	0.001628	0.001696	28.1254	0.109646	0.000976	112.307	-127.721	-163.908	-0.084516	0.009052	-1.068555	-1.069916	0.018517	112.307	-1.068679	-1.903002E+14	-9.730408E-17	NaN
54	1.000000	0.018389	7.36557e+06	-41339.1	955.819	-29787.2	0.000000	0.000000	6.018769	-0.039099	NaN	0.000000	0.001630	0.001697	28.1263	0.035169	0.001704	20.6368	88.3669	-168.888	-0.096889	0.017065	-1.060579	-1.061903	-0.039099	20.6368	-1.059158	-1.417439E+14	2.758448E-16	NaN
54	1.000000	0.026443	7.36557e+06	-41339.1	955.818	-29787.2	0.000000	0.000000	6.026825	0.003429	NaN	0.000000	0.001648	0.001715	28.1266	0.073862	0.001880	39.2845	135.95	-163.043	-0.039858	0.025028	-1.052525	-1.053941	0.003429	39.2845	-1.052590	-1.156736E+14	-2.964483E-17	NaN
54	1.000000	0.034417	7.36557e+06	-41339.1	955.818	-29787.2	0.000000	0.000000	6.034798	-0.028753	NaN	0.000000	0.001632	0.001705	28.1261	0.008225	0.002045	4.022103	37.9882	-165.448	-0.017903	0.033057	-1.044551	-1.045911	-0.028753	4.022103	-1.039189	-7.639537E+13	3.763735E-16	NaN
54	1.000000	0.042357	7.36557e+06	-41339.1	955.818	-29787.2	0.000000	0.000000	6.042739	0.002602	NaN	0.000000	0.001594	0.001720	28.1266	0.100006	0.002001	49.9773	108.649	-164.383	-0.005641	0.041064	-1.036611	-1.037904	0.002602	49.9773	-1.036650	-7.061922E+13	-3.685232E-17	NaN
54	1.000000	0.050404	7.36557e+06	-41339.1	955.819	-29787.2	0.000000	0.000000	6.050784	-0.043081	NaN	0.000000	0.001605	0.001701	28.1268	0.018322	0.001969	9.306756	-102.864	-162.543	-0.077901	0.049027	-1.028564	-1.029941	-0.043081	9.306756	-1.025092	-4.937011E+13	8.726180E-16	NaN
54	1.000000	0.058383	7.36557e+06	-41339.1	955.819	-29787.2	0.000000	0.000000	6.058763	-0.049496	NaN	0.000000	0.001612	0.001706	28.1257	0.074842	0.001889	39.6109	10.4538	-161.312	-0.021674	0.057076	-1.020585	-1.021892	-0.049496	39.6109	-1.019648	-4.170757E+13	1.186735E-15	NaN
54	1.000000	0.066339	7.36557e+06	-41339.1	955.817	-29787.2	0.000000	0.000000	6.066722	0.040421	NaN	0.000000	0.001627	0.001729	28.1252	0.037501	0.001977	18.9688	-28.0689	-164.533	0.127991	0.065022	-1.012629	-1.013946	0.040421	18.9688	-1.014227	-3.525936E+13	-1.146388E-15	NaN
54	1.000000	0.074390	7.36557e+06	-41339.1	955.818	-29787.2	0.000000	0.000000	6.074770	-0.030838	NaN	0.000000	0.001601	0.001713	28.1255	0.037072	0.001958	18.9317	106.049	-163.916	-0.030865	0.073069	-1.004578	-1.005899	-0.030838	18.9317	-1.003356	-2.517421E+13	1.224984E-15	NaN
54	1.000000	0.082358	7.36557e+06	-41339.1	955.819	-29787.2	0.000000	0.000000	6.082736	-0.076806	NaN	0.000000	0.001562	0.001688	28.1253	0.110228	0.002075	53.11	3.328641	-166.603	-0.134443	0.081121	-0.996610	-0.997847	-0.076806	53.11	-0.995526	-1.974797E+13	3.889334E-15	NaN
54	1.000000	0.090369	7.36557e+06	-41339.1	955.818	-29787.2	0.000000	0.000000	6.090749	-0.046885	NaN	0.000000	0.001571	0.001701	28.1246	0.079785	0.002124	37.5689	66.368	-163.919	-0.059521	0.089101	-0.988599	-0.989867	-0.046885	37.5689	-0.987663	-1.547525E+13	3.029654E-15	NaN
54	1.000000	0.098387	7.36557e+06	-41339.1	955.819	-29787.2	0.000000	0.000000	6.098770	0.047125	NaN	0.000000	0.001554	0.001700	28.1252	0.012316	0.001959	6.285520	161.438	-160.785	-0.038680	0.097063	-0.980581	-0.981905	0.047125	6.285520	-0.986204	-1.479066E+13	-3.186129E-15	NaN
54	1.000000	0.106392	7.36557e+06	-41339.1	955.817	-29787.2	0.000000	0.000000	6.106770	-0.090059	NaN	0.000000	0.001590	0.001677	28.125	0.066876	0.001980	33.7706	-143.429	-165.411	-0.040069	0.105151	-0.972576	-0.973817	-0.090059	33.7706	-0.970576	-9.108095E+12	9.887784E-15	NaN
54	1.000000	0.114396	7.36557e+06	-41339.1	955.818	-29787.2	0.000000	0.000000	6.114778	0.029013	NaN	0.000000	0.001608	0.001711	28.1257	0.086996	0.001913	45.4805	149.968	-167.317	-0.016154	0.113091	-0.964573	-0.965877	0.029013	45.4805	-0.965051	-7.672899E+12	-3.781260E-15	NaN
54	1.000000	0.122414	7.36557e+06	-41339.1	955.82	-29787.2	0.000000	0.000000	6.122796	0.001295	NaN	0.000000	0.001617	0.001673	28.1251	0.048613	0.001991	24.4209	157.728	-164.532	-0.025142	0.121066	-0.956554	-0.957902	0.001295	24.4209	-0.956594	-5.901221E+12	-2.195174E-16	NaN
54	1.000000	0.130432	7.36557e+06	-41339.1	955.818	-29787.2	0.000000	0.000000	6.130813	0.005931	NaN	0.000000	0.001589	0.001663	28.1258	0.084204	0.001974	42.6567	-103.851	-163.902	-0.031897	0.129055	-0.948536	-0.949913	0.005931	42.6567	-0.948641	-4.609943E+12	-1.286607E-15	NaN
54	1.000000	0.138441	7.36557e+06	-41339.1	955.818	-29787.2	0.000000	0.000000	6.138820	-0.052901	NaN	0.000000	0.001637	0.001669	28.1246	0.100499	0.002001	50.2267	136.342	-164.008	0.020454	0.137139	-0.940527	-0.941830	-0.052901	50.2267	-0.939737	-3.496170E+12	1.513119E-14	NaN
54	1.000000	0.146424	7.36557e+06	-41339.1	955.819	-29787.2	0.000000	0.000000	6.146805	-0.011658	NaN	0.000000	0.001620	0.001676	28.1242	0.104430	0.002016	51.7948	-40.6561	-159.934	0.006262	0.145132	-0.932544	-0.933836	-0.011658	51.7948	-0.932376	-2.781368E+12	4.191385E-15	NaN
54	1.000000	0.154423	7.36557e+06	-41339.1	955.819	-29787.2	0.000000	0.000000	6.154804	-0.016758	NaN	0.000000	0.001619	0.001681	28.125	0.105112	0.002068	50.8179	29.6775	-164.232	0.050776	0.153096	-0.924545	-0.925872	-0.016758	50.8179	-0.924298	-2.163862E+12	7.744308E-15	NaN
54	1.000000	0.162409	7.36557e+06	-41339.1	955.819	-29787.2	0.000000	0.000000	6.162791	0.011021	NaN	0.000000	0.001593	0.001735	28.1238	0.031178	0.002065	15.0959	30.9921	-163.632	0.033117	0.161049	-0.916559	-0.917919	0.011021	15.0959	-0.917106	-1.730353E+12	-6.369277E-15	NaN
54	1.000000	0.170426	7.36557e+06	-41339.1	955.819	-29787.2	0.000000	0.000000	6.170807	-0.017489	NaN	0.000000	0.001615	0.001706	28.1239	0.057280	0.002093	27.3654	149.234	-163.369	-0.085733	0.169120	-0.908542	-0.909848	-0.017489	27.3654	-0.908063	-1.306149E+12	1.339007E-14	NaN
54	1.000000	0.178431	7.36557e+06	-41339.1	955.819	-29787.2	0.000000	0.000000	6.178812	-0.010433	NaN	0.000000	0.001627	0.001686	28.1248	0.068352	0.001956	34.9376	51.4735	-167.684	-0.005845	0.177143	-0.900537	-0.901825	-0.010433	34.9376	-0.900313	-1.026363E+12	1.016506E-14	NaN
54	1.000000	0.186434	7.36557e+06	-41339.1	955.818	-29787.2	0.000000	0.000000	6.186812	-0.075368	NaN	0.000000	0.001622	0.001708	28.1249	0.030939	0.002032	15.224	21.607	-166.201	-0.084951	0.185077	-0.892534	-0.893891	-0.075368	15.224	-0.888821	-7.177662E+11	1.050032E-13	NaN
54	1.000000	0.194421	7.36557e+06	-41339.1	955.818	-29787.2	0.000000	0.000000	6.194802	-0.016983	NaN	0.000000	0.001630	0.001723	28.1247	0.108223	0.002072	52.2356	158.89	-164.043	0.012185	0.193125	-0.884547	-0.885843	-0.016983	52.2356	-0.884303	-6.235911E+11	2.723367E-14	NaN
54	1.000000	0.202432	7.36557e+06	-41339.1	955.818	-29787.2	0.000000	0.000000	6.202812	-0.059332	NaN	0.000000	0.001641	0.001716	28.1261	0.075573	0.001971	38.3345	69.2907	-164.827	-0.090590	0.201151	-0.876536	-0.877817	-0.059332	38.3345	-0.875375	-4.722315E+11	1.256422E-13	NaN
54	1.000000	0.210453	7.36557e+06	-41339.1	955.817	-29787.2	0.000000	0.000000	6.210832	-0.076477	NaN	0.000000	0.001627	0.001707	28.1247	0.101212	0.001964	51.5375	56.4875	-167.582	-0.060437	0.209123	-0.868515	-0.869845	-0.076477	51.5375	-0.867402	-3.683744E+11	2.076059E-13	NaN
54	1.000000	0.218446	7.36557e+06	-41339.1	955.818	-29787.2	0.000000	0.000000	6.218828	0.010024	NaN	0.000000	0.001611	0.001730	28.1232	0.102542	0.001998	51.3345	28.5386	-164.482	-0.041687	0.217162	-0.860522	-0.861806	0.010024	51.3345	-0.860669	-2.986551E+11	-3.356456E-14	NaN
54	1.000000	0.226431	7.36557e+06	-41339.1	955.818	-29787.2	0.000000	0.000000	6.226813	0.020252	NaN	0.000000	0.001637	0.001726	28.1246	0.112946	0.001941	58.1837	-77.0013	-165.952	0.044825	0.225152	-0.852537	-0.853816	0.020252	58.1837	-0.852798	-2.336846E+11	-8.666576E-14	NaN
54	1.000000	0.234455	7.36557e+06	-41339.1	955.818	-29787.2	0.000000	0.000000	6.234836	-0.027805	NaN	0.000000	0.001647	0.001732	28.1244	0.009565	0.002033	4.704417	-163.391	-165.365	-0.009256	0.233178	-0.844513	-0.845790	-0.027805	4.704417	-0.840080	-1.571728E+11	1.769076E-13	NaN
54	1.000000	0.242430	7.36557e+06	-41339.1	955.818	-29787.2	0.000000	0.000000	6.242809	-0.049298	NaN	0.000000	0.001625	0.001694	28.1252	0.115695	0.001953	59.2377	167.448	-165.89	-0.065208	0.241127	-0.836538	-0.837841	-0.049298	59.2377	-0.835914	-1.380172E+11	3.571855E-13	NaN
54	1.000000	0.250455	7.36557e+06	-41339.1	955.818	-29787.2	0.000000	0.000000	6.250837	0.010196	NaN	0.000000	0.001659	0.001686	28.1241	0.125303	0.001946	64.403	122.31	-161.026	0.004869	0.249114	-0.828513	-0.829854	0.010196	64.403	-0.828632	-1.099605E+11	-9.272628E-14	NaN
54	1.000000	0.258475	7.36557e+06	-41339.1	955.819	-29787.2	0.000000	0.000000	6.258857	-0.001573	NaN	0.000000	0.001647	0.001726	28.1258	0.042356	0.002045	20.7126	-38.1815	-165.407	0.032932	0.257122	-0.820493	-0.821846	-0.001573	20.7126	-0.820436	-8.513853E+10	1.847184E-14	NaN
54	1.000000	0.266460	7.36557e+06	-41339.1	955.818	-29787.2	0.000000	0.000000	6.266843	0.027173	NaN	0.000000	0.001614	0.001721	28.1259	0.103131	0.002027	50.8793	39.249	-166.813	-0.020980	0.265146	-0.812508	-0.813822	0.027173	50.8793	-0.812908	-6.730198E+10	-4.037448E-13	NaN
54	1.000000	0.274466	7.36557e+06	-41339.1	955.818	-29787.2	0.000000	0.000000	6.274846	-0.032035	NaN	0.000000	0.001641	0.001721	28.1254	0.069147	0.002025	34.1464	150.938	-163.788	0.055477	0.273205	-0.804502	-0.805763	-0.032035	34.1464	-0.803798	-5.063111E+10	6.327232E-13	NaN
54	1.000000	0.282472	7.36557e+06	-41339.1	955.818	-29787.2	0.000000	0.000000	6.282851	-0.064129	NaN	0.000000	0.001626	0.001744	28.1251	0.145848	0.001978	73.7472	-93.2914	-164.633	0.004683	0.281174	-0.796497	-0.797795	-0.064129	73.7472	-0.795844	-3.948628E+10	1.624096E-12	NaN
54	1.000000	0.290464	7.36557e+06	-41339.1	955.819	-29787.2	0.000000	0.000000	6.290847	0.033782	NaN	0.000000	0.001614	0.001739	28.1253	0.041396	0.001979	20.9153	-124.463	-166.364	0.043208	0.289182	-0.788504	-0.789787	0.033782	20.9153	-0.789715	-3.260001E+10	-1.036247E-12	NaN
54	1.000000	0.298469	7.36557e+06	-41339.1	955.819	-29787.2	0.000000	0.000000	6.298846	-0.107730	NaN	0.000000	0.001607	0.001742	28.1241	0.036274	0.001997	18.1648	103.311	-164.264	-0.011927	0.297178	-0.780499	-0.781790	-0.107730	18.1648	-0.776051	-2.126024E+10	5.067184E-12	NaN
54	1.000000	0.306465	7.36557e+06	-41339.1	955.818	-29787.2	0.000000	0.000000	6.306846	-0.021434	NaN	0.000000	0.001603	0.001758	28.1247	0.042784	0.002058	20.7929	148.989	-163.956	-0.007682	0.305140	-0.772503	-0.773828	-0.021434	20.7929	-0.771730	-1.857032E+10	1.154217E-12	NaN
54	1.000000	0.314493	7.36557e+06	-41339.1	955.818	-29787.2	0.000000	0.000000	6.314872	-0.052347	NaN	0.000000	0.001605	0.001760	28.1242	0.073695	0.001975	37.3142	-118.658	-167.774	-0.019446	0.313152	-0.764475	-0.765816	-0.052347	37.3142	-0.763423	-1.431748E+10	3.656162E-12	NaN
54	1.000000	0.322454	7.36557e+06	-41339.1	955.818	-29787.2	0.000000	0.000000	6.322834	-0.041962	NaN	0.000000	0.001602	0.001740	28.1244	0.112324	0.002032	55.2749	91.1972	-164.37	0.064623	0.321192	-0.756514	-0.757776	-0.041962	55.2749	-0.755945	-1.132739E+10	3.704441E-12	NaN
54	1.000000	0.330480	7.36557e+06	-41339.1	955.819	-29787.2	0.000000	0.000000	6.330860	-0.017455	NaN	0.000000	0.001611	0.001699	28.1252	0.044849	0.002154	20.8203	50.1427	-164.314	-0.046758	0.329166	-0.748489	-0.749802	-0.017455	20.8203	-0.747860	-8.791932E+9	1.985372E-12	NaN
54	1.000000	0.338507	7.36557e+06	-41339.1	955.818	-29787.2	0.000000	0.000000	6.338891	0.042216	NaN	0.000000	0.001581	0.001734	28.1252	0.155997	0.001934	80.6585	-72.0155	-164.569	0.042751	0.337187	-0.740461	-0.741781	0.042216	80.6585	-0.740853	-7.057914E+9	-5.981426E-12	NaN
54	1.000000	0.346495	7.36557e+06	-41339.1	955.818	-29787.2	0.000000	0.000000	6.346875	-0.029305	NaN	0.000000	0.001578	0.001728	28.1252	0.056360	0.001990	28.3178	-120.337	-165.613	-0.066005	0.345232	-0.732473	-0.733736	-0.029305	28.3178	-0.731697	-5.295825E+9	5.533687E-12	NaN
54	1.000000	0.354521	7.36557e+06	-41339.1	955.818	-29787.2	0.000000	0.000000	6.354902	-0.027405	NaN	0.000000	0.001623	0.001734	28.1255	0.101966	0.001963	51.9557	-25.1864	-164.79	-0.053509	0.353170	-0.724447	-0.725798	-0.027405	51.9557	-0.724051	-4.165990E+9	6.578178E-12	NaN
54	1.000000	0.362505	7.36557e+06	-41339.1	955.82	-29787.2	0.000000	0.000000	6.362889	0.039517	NaN	0.000000	0.001606	0.001775	28.125	0.067680	0.002005	33.7547	-132.473	-163.803	0.014816	0.361146	-0.716463	-0.717822	0.039517	33.7547	-0.717341	-3.374447E+9	-1.171068E-11	NaN
54	1.000000	0.370502	7.36557e+06	-41339.1	955.819	-29787.2	0.000000	0.000000	6.370884	0.013608	NaN	0.000000	0.001614	0.001722	28.1242	0.018488	0.002076	8.905205	-130.591	-163.133	0.033486	0.369189	-0.708466	-0.709779	0.013608	8.905205	-0.709613	-2.647041E+9	-5.140693E-12	NaN
54	1.000000	0.378500	7.36557e+06	-41339.1	955.818	-29787.2	0.000000	0.000000	6.378884	0.066555	NaN	0.000000	0.001566	0.001727	28.1222	0.105808	0.001922	55.0596	-56.5627	-162.546	0.018546	0.377217	-0.700468	-0.701751	0.066555	55.0596	-0.701375	-2.043186E+9	-3.257390E-11	NaN
54	1.000000	0.386508	7.36557e+06	-41339.1	955.819	-29787.2	0.000000	0.000000	6.386891	0.020444	NaN	0.000000	0.001578	0.001737	28.123	0.086028	0.002097	41.0194	0.195283	-164.24	0.009495	0.385211	-0.692460	-0.693757	0.020444	41.0194	-0.692834	-1.561847E+9	-1.308977E-11	NaN
54	1.000000	0.394524	7.36557e+06	-41339.1	955.819	-29787.2	0.000000	0.000000	6.394904	-0.043819	NaN	0.000000	0.001588	0.001749	28.1237	0.071593	0.002093	34.1992	-173.504	-165.806	-0.015837	0.393150	-0.684444	-0.685818	-0.043819	34.1992	-0.683483	-1.163669E+9	3.765566E-11	NaN
54	1.000000	0.402542	7.36557e+06	-41339.1	955.818	-29787.2	0.000000	0.000000	6.402922	-0.029458	NaN	0.000000	0.001584	0.001735	28.1225	0.106850	0.002051	52.1024	-63.7887	-166.046	-0.059067	0.401185	-0.676426	-0.677783	-0.029458	52.1024	-0.676002	-9.194347E+8	3.203911E-11	NaN
54	1.000000	0.410533	7.36557e+06	-41339.1	955.818	-29787.2	0.000000	0.000000	6.410916	0.033638	NaN	0.000000	0.001574	0.001760	28.1226	0.062141	0.002035	30.536	-160.229	-165.415	-0.006628	0.409205	-0.668435	-0.669764	0.033638	30.536	-0.669261	-7.435014E+8	-4.524266E-11	NaN
54	1.000000	0.418542	7.36557e+06	-41339.1	955.819	-29787.2	0.000000	0.000000	6.418923	-0.019643	NaN	0.000000	0.001596	0.001716	28.1237	0.097950	0.001939	50.5253	62.3428	-162.936	-0.021061	0.417212	-0.660426	-0.661756	-0.019643	50.5253	-0.660134	-5.575818E+8	3.522962E-11	NaN
54	1.000000	0.426546	7.36557e+06	-41339.1	955.818	-29787.2	0.000000	0.000000	6.426925	-0.054219	NaN	0.000000	0.001607	0.001747	28.124	0.074042	0.002012	36.7958	-176.779	-164.978	-0.028293	0.425244	-0.652423	-0.653724	-0.054219	36.7958	-0.651317	-4.221781E+8	1.284266E-10	NaN
54	1.000000	0.434547	7.36557e+06	-41339.1	955.819	-29787.2	0.000000	0.000000	6.434927	-0.052360	NaN	0.000000	0.001655	0.001722	28.1239	0.123009	0.001988	61.8738	-155.811	-163.151	-0.060555	0.433216	-0.644421	-0.645752	-0.052360	61.8738	-0.643786	-3.328346E+8	1.573166E-10	NaN
54	1.000000	0.442523	7.36557e+06	-41339.1	955.818	-29787.2	0.000000	0.000000	6.442904	-0.001519	NaN	0.000000	0.001620	0.001719	28.1236	0.092958	0.002077	44.7534	59.5287	-165.365	0.006924	0.441245	-0.636445	-0.637723	-0.001519	44.7534	-0.636420	-2.637297E+8	5.761469E-12	NaN
54	1.000000	0.450528	7.36557e+06	-41339.1	955.818	-29787.2	0.000000	0.000000	6.450908	-0.057285	NaN	0.000000	0.001617	0.001702	28.1239	0.040407	0.002043	19.779	19.9841	-169.612	-0.093031	0.449232	-0.628440	-0.629736	-0.057285	19.779	-0.626268	-1.913191E+8	2.994227E-10	NaN
54	1.000000	0.458510	7.36557e+06	-41339.1	955.818	-29787.2	0.000000	0.000000	6.458892	-0.007182	NaN	0.000000	0.001591	0.001729	28.1226	0.013972	0.001950	7.165298	154.283	-166.684	0.082306	0.457249	-0.620458	-0.621720	-0.007182	7.165298	-0.619706	-1.554508E+8	4.620205E-11	NaN
54	1.000000	0.466543	7.36557e+06	-41339.1	955.819	-29787.2	0.000000	0.000000	6.466923	-0.020018	NaN	0.000000	0.001634	0.001726	28.1226	0.055820	0.002061	27.0825	99.6475	-165.808	-0.008445	0.465257	-0.612426	-0.613711	-0.020018	27.0825	-0.611871	-1.212987E+8	1.650280E-10	NaN
54	1.000000	0.474569	7.36557e+06	-41339.1	955.819	-29787.2	0.000000	0.000000	6.474950	-0.005392	NaN	0.000000	0.001583	0.001716	28.1223	0.010883	0.001929	5.642706	-30.1784	-163.099	-0.010984	0.473251	-0.604399	-0.605717	-0.005392	5.642706	-0.603683	-9.357702E+7	5.762318E-11	NaN
54	1.000000	0.482573	7.36557e+06	-41339.1	955.819	-29787.2	0.000000	0.000000	6.482955	0.004513	NaN	0.000000	0.001593	0.001689	28.1223	0.035198	0.001978	17.797	-45.6064	-167.948	0.012500	0.481261	-0.596395	-0.597707	0.004513	17.797	-0.596586	-7.471847E+7	-6.040448E-11	NaN
54	1.000000	0.490546	7.36557e+06	-41339.1	955.818	-29787.2	0.000000	0.000000	6.490929	0.024929	NaN	0.000000	0.001573	0.001739	28.1226	0.157075	0.001984	79.1635	-2.360671	-164.546	-0.015131	0.489253	-0.588422	-0.589715	0.024929	79.1635	-0.588658	-5.809889E+7	-4.290718E-10	NaN
54	1.000000	0.498571	7.36557e+06	-41339.1	955.819	-29787.2	0.000000	0.000000	6.498953	0.002565	NaN	0.000000	0.001601	0.001727	28.1235	0.096326	0.002042	47.1762	-139.049	-162.521	-0.079674	0.497251	-0.580397	-0.581717	0.002565	47.1762	-0.580437	-4.474689E+7	-5.732764E-11	NaN
54	1.000000	0.506543	7.36557e+06	-41339.1	955.818	-29787.2	0.000000	0.000000	6.506925	-0.003912	NaN	0.000000	0.001563	0.001744	28.1253	0.073255	0.002097	34.9313	-74.6703	-165.321	-0.039099	0.505265	-0.572425	-0.573703	-0.003912	34.9313	-0.572341	-3.459164E+7	1.130945E-10	NaN
54	1.000000	0.514560	7.36557e+06	-41339.1	955.819	-29787.2	0.000000	0.000000	6.514941	-0.011641	NaN	0.000000	0.001588	0.001706	28.1252	0.153567	0.002094	73.3357	88.7627	-162.121	-0.065395	0.513262	-0.564408	-0.565706	-0.011641	73.3357	-0.564289	-2.677308E+7	4.347984E-10	NaN
54	1.000000	0.522559	7.36557e+06	-41339.1	955.819	-29787.2	0.000000	0.000000	6.522942	0.036896	NaN	0.000000	0.001603	0.001759	28.1246	0.081221	0.002025	40.1122	85.5941	-165.758	-0.018763	0.521279	-0.556409	-0.557689	0.036896	40.1122	-0.557099	-2.129291E+7	-1.732800E-9	NaN
54	1.000000	0.530582	7.36557e+06	-41339.1	955.818	-29787.2	0.000000	0.000000	6.530966	0.051047	NaN	0.000000	0.001617	0.001742	28.1246	0.063547	0.002001	31.7543	149.6	-165.911	-0.022620	0.529335	-0.548386	-0.549633	0.051047	31.7543	-0.549592	-1.676097E+7	-3.045566E-9	NaN
54	1.000000	0.538588	7.36557e+06	-41339.1	955.818	-29787.2	0.000000	0.000000	6.538967	-0.043935	NaN	0.000000	0.001575	0.001758	28.1234	0.073669	0.002034	36.2265	-111.027	-167.107	0.004669	0.537248	-0.540381	-0.541720	-0.043935	36.2265	-0.539471	-1.213448E+7	3.620682E-9	NaN
54	1.000000	0.546584	7.36557e+06	-41339.1	955.818	-29787.2	0.000000	0.000000	6.546965	-0.013407	NaN	0.000000	0.001569	0.001731	28.1233	0.052086	0.001894	27.4935	-31.4738	-164.076	-0.042192	0.545328	-0.532384	-0.533640	-0.013407	27.4935	-0.532019	-9.56329e+06	1.401892E-9	NaN
54	1.000000	0.554592	7.36557e+06	-41339.1	955.819	-29787.2	0.000000	0.000000	6.554971	-0.067906	NaN	0.000000	0.001590	0.001743	28.1233	0.057124	0.002001	28.5482	50.4202	-166.698	-0.035402	0.553279	-0.524376	-0.525689	-0.067906	28.5482	-0.522592	-7.07366e+06	9.599793E-9	NaN
54	1.000000	0.562560	7.36557e+06	-41339.1	955.819	-29787.2	0.000000	0.000000	6.562941	-0.020015	NaN	0.000000	0.001590	0.001760	28.1233	0.094393	0.001970	47.9038	-69.2446	-165.106	-0.028780	0.561321	-0.516408	-0.517647	-0.020015	47.9038	-0.516095	-5.74476e+06	3.484128E-9	NaN
54	1.000000	0.570594	7.36557e+06	-41339.1	955.818	-29787.2	0.000000	0.000000	6.570975	-0.021469	NaN	0.000000	0.001618	0.001722	28.1231	0.030326	0.001803	16.8181	-27.8865	-167.16	0.006181	0.569300	-0.508374	-0.509668	-0.021469	16.8181	-0.507417	-4.34938e+06	4.936103E-9	NaN
54	1.000000	0.578586	7.36557e+06	-41339.1	955.82	-29787.2	0.000000	0.000000	6.578965	-0.072650	NaN	0.000000	0.001590	0.001732	28.1242	0.037099	0.001915	19.3773	88.13	-162.461	-0.102211	0.577244	-0.500382	-0.501724	-0.072650	19.3773	-0.497570	-3.1704e+06	2.291510E-8	NaN
54	1.000000	0.586619	7.36557e+06	-41339.1	955.819	-29787.2	0.000000	0.000000	6.587001	-0.000399	NaN	0.000000	0.001602	0.001755	28.1239	0.089817	0.002015	44.5686	86.0788	-162.967	0.007283	0.585246	-0.492349	-0.493723	-0.000399	44.5686	-0.492342	-2.67988e+06	1.487937E-10	NaN
54	1.000000	0.594585	7.36557e+06	-41339.1	955.819	-29787.2	0.000000	0.000000	6.594966	-0.018549	NaN	0.000000	0.001609	0.001749	28.1236	0.030065	0.002040	14.7389	-93.1617	-166.121	-0.036924	0.593322	-0.484383	-0.485646	-0.018549	14.7389	-0.483439	-2.01212e+06	9.218803E-9	NaN
54	1.000000	0.602619	7.36557e+06	-41339.1	955.818	-29787.2	0.000000	0.000000	6.602998	-0.060068	NaN	0.000000	0.001593	0.001773	28.1241	0.027612	0.002011	13.7287	-81.9332	-164.42	-0.054436	0.601285	-0.476349	-0.477683	-0.060068	13.7287	-0.473067	-1.44018e+06	4.170866E-8	NaN
54	1.000000	0.610583	7.36557e+06	-41339.1	955.818	-29787.2	0.000000	0.000000	6.610965	-0.002042	NaN	0.000000	0.001602	0.001758	28.124	0.128212	0.001904	67.3424	50.8126	-166.614	0.024626	0.609287	-0.468385	-0.469681	-0.002042	67.3424	-0.468362	-1.23717e+06	1.650623E-9	NaN
54	1.000000	0.618636	7.36557e+06	-41339.1	955.819	-29787.2	0.000000	0.000000	6.619014	-0.076833	NaN	0.000000	0.001630	0.001688	28.1231	0.036958	0.002022	18.2788	-168.506	-164.321	-0.053870	0.617282	-0.460332	-0.461687	-0.076833	18.2788	-0.457180	-861734	8.916068E-8	NaN
54	1.000000	0.626620	7.36557e+06	-41339.1	955.819	-29787.2	0.000000	0.000000	6.627001	-0.018290	NaN	0.000000	0.001602	0.001745	28.1229	0.028062	0.001969	14.2496	-153.609	-164.035	-0.053094	0.625333	-0.452348	-0.453635	-0.018290	14.2496	-0.451386	-714257	2.560732E-8	NaN
54	1.000000	0.634632	7.36557e+06	-41339.1	955.818	-29787.2	0.000000	0.000000	6.635013	-0.032285	NaN	0.000000	0.001602	0.001735	28.1225	0.118195	0.001937	61.0194	-148.342	-165.466	0.001246	0.633351	-0.444336	-0.445617	-0.032285	61.0194	-0.443939	-560959	5.755247E-8	NaN
54	1.000000	0.642606	7.36557e+06	-41339.1	955.819	-29787.2	0.000000	0.000000	6.642985	-0.084438	NaN	0.000000	0.001576	0.001733	28.1218	0.081708	0.002057	39.7146	150.607	-163.939	-0.036156	0.641298	-0.436362	-0.437670	-0.084438	39.7146	-0.434767	-416355	2.028032E-7	NaN
54	1.000000	0.650597	7.36557e+06	-41339.1	955.818	-29787.2	0.000000	0.000000	6.650975	-0.094871	NaN	0.000000	0.001605	0.001730	28.1214	0.029092	0.001991	14.6114	-94.4129	-162.495	-0.025304	0.649285	-0.428371	-0.429683	-0.094871	14.6114	-0.423501	-288436	3.289143E-7	NaN
54	1.000000	0.658624	7.36557e+06	-41339.1	955.818	-29787.2	0.000000	0.000000	6.659001	-0.091845	NaN	0.000000	0.001612	0.001734	28.1225	0.122478	0.001929	63.4997	-18.875	-164.567	-0.089948	0.657312	-0.420344	-0.421656	-0.091845	63.4997	-0.419260	-251139	3.657141E-7	NaN
54	1.000000	0.666635	7.36557e+06	-41339.1	955.819	-29787.2	0.000000	0.000000	6.667016	-0.027798	NaN	0.000000	0.001581	0.001746	28.1222	0.102787	0.001988	51.7093	-38.7444	-164.442	-0.027808	0.665311	-0.412333	-0.413657	-0.027798	51.7093	-0.411930	-197622	1.406610E-7	NaN
54	1.000000	0.674623	7.36557e+06	-41339.1	955.819	-29787.2	0.000000	0.000000	6.675002	-0.060453	NaN	0.000000	0.001615	0.001730	28.123	0.044961	0.002111	21.2981	95.1911	-167.683	-0.015867	0.673301	-0.404345	-0.405667	-0.060453	21.2981	-0.402216	-143743	4.205615E-7	NaN
54	1.000000	0.682627	7.36557e+06	-41339.1	955.819	-29787.2	0.000000	0.000000	6.683006	-0.066018	NaN	0.000000	0.001595	0.001745	28.123	0.080353	0.002126	37.7905	-37.7598	-162.75	0.010022	0.681346	-0.396341	-0.397622	-0.066018	37.7905	-0.395031	-113521	5.815499E-7	NaN
54	1.000000	0.690618	7.36557e+06	-41339.1	955.819	-29787.2	0.000000	0.000000	6.691000	0.017292	NaN	0.000000	0.001596	0.001733	28.1226	0.069119	0.002020	34.215	154.793	-167.351	-0.104956	0.689360	-0.388350	-0.389608	0.017292	34.215	-0.388729	-92253.5	-1.874404E-7	NaN
54	1.000000	0.698630	7.36557e+06	-41339.1	955.819	-29787.2	0.000000	0.000000	6.699010	-0.045456	NaN	0.000000	0.001632	0.001753	28.1219	0.042661	0.002031	21.0051	153.028	-161.893	-0.022359	0.697340	-0.380338	-0.381628	-0.045456	21.0051	-0.378715	-66290	6.857112E-7	NaN
54	1.000000	0.706672	7.36558e+06	-41339.1	955.818	-29787.2	0.000000	0.000000	6.707053	-0.034529	NaN	0.000000	0.001680	0.001698	28.1215	0.075373	0.001873	40.233	49.6436	-160.371	-0.026052	0.705348	-0.372296	-0.373621	-0.034529	40.233	-0.371652	-52470.3	6.580642E-7	NaN
54	1.000000	0.714669	7.36558e+06	-41339.1	955.819	-29787.2	0.000000	0.000000	6.715047	-0.102581	NaN	0.000000	0.001595	0.001769	28.1209	0.067944	0.002034	33.3965	-64.5489	-161.737	-0.119262	0.713312	-0.364299	-0.365656	-0.102581	33.3965	-0.361995	-38077.8	2.693995E-6	NaN
54	1.000000	0.722665	7.36558e+06	-41339.1	955.818	-29787.2	0.000000	0.000000	6.723044	-0.067112	NaN	0.000000	0.001595	0.001767	28.1212	0.121636	0.001949	62.4218	-148.695	-165.714	-0.108245	0.721323	-0.356303	-0.357645	-0.067112	62.4218	-0.355497	-30668.4	2.188312E-6	NaN
54	1.000000	0.730693	7.36558e+06	-41339.1	955.819	-29787.2	0.000000	0.000000	6.731072	-0.064085	NaN	0.000000	0.001609	0.001738	28.1206	0.109424	0.001820	60.1229	-69.1611	-165.415	-0.008475	0.729369	-0.348275	-0.349599	-0.064085	60.1229	-0.347476	-23460.9	2.731577E-6	NaN
54	1.000000	0.738681	7.36558e+06	-41339.1	955.818	-29787.2	0.000000	0.000000	6.739060	-0.067094	NaN	0.000000	0.001636	0.001729	28.1222	0.057777	0.001901	30.3849	-139.597	-166.469	-0.051338	0.737372	-0.340287	-0.341596	-0.067094	30.3849	-0.338631	-17441.9	3.846690E-6	NaN
54	1.000000	0.746662	7.36558e+06	-41339.1	955.819	-29787.2	0.000000	0.000000	6.747043	-0.012383	NaN	0.000000	0.001619	0.001726	28.122	0.077770	0.002070	37.5786	170.524	-165.544	-0.062655	0.745363	-0.332306	-0.333605	-0.012383	37.5786	-0.332059	-13982.8	8.856173E-7	NaN
54	1.000000	0.754668	7.36558e+06	-41339.1	955.819	-29787.2	0.000000	0.000000	6.755049	-0.013893	NaN	0.000000	0.001626	0.001767	28.1221	0.051220	0.002024	25.3124	-114.144	-163.449	0.107347	0.753381	-0.324300	-0.325587	-0.013893	25.3124	-0.323888	-10612.3	1.309134E-6	NaN
54	1.000000	0.762675	7.36558e+06	-41339.1	955.818	-29787.2	0.000000	0.000000	6.763056	-0.006133	NaN	0.000000	0.001593	0.001760	28.1226	0.041414	0.002010	20.6084	-10.8776	-165.465	0.008884	0.761371	-0.316294	-0.317597	-0.006133	20.6084	-0.316070	-8142.14	7.532266E-7	NaN
54	1.000000	0.770682	7.36558e+06	-41339.1	955.818	-29787.2	0.000000	0.000000	6.771064	-0.004443	NaN	0.000000	0.001608	0.001752	28.1217	0.071001	0.001927	36.8402	-97.1356	-162.506	-0.023313	0.769301	-0.308286	-0.309667	-0.004443	36.8402	-0.308196	-6227.86	7.133416E-7	NaN
54	1.000000	0.778678	7.36558e+06	-41339.1	955.818	-29787.2	0.000000	0.000000	6.779056	-0.088692	NaN	0.000000	0.001635	0.001777	28.1223	0.041035	0.001947	21.0716	-144.499	-166.141	-0.042397	0.777335	-0.300290	-0.301633	-0.088692	21.0716	-0.297133	-4265.05	2.079506E-5	NaN
54	1.000000	0.786682	7.36558e+06	-41339.1	955.819	-29787.2	0.000000	0.000000	6.787061	-0.045044	NaN	0.000000	0.001624	0.001722	28.1222	0.105707	0.002046	51.6733	94.2632	-165.31	-0.011574	0.785420	-0.292286	-0.293548	-0.045044	51.6733	-0.291633	-3529.79	1.276095E-5	NaN
54	1.000000	0.794687	7.36558e+06	-41339.1	955.818	-29787.2	0.000000	0.000000	6.795069	0.002350	NaN	0.000000	0.001637	0.001761	28.1225	0.032823	0.002153	15.2475	-73.1863	-165.214	-0.030744	0.793419	-0.284281	-0.285549	0.002350	15.2475	-0.284396	-2749.09	-8.548640E-7	NaN
54	1.000000	0.802682	7.36558e+06	-41339.1	955.818	-29787.2	0.000000	0.000000	6.803061	-0.063431	NaN	0.000000	0.001630	0.001696	28.1223	0.087603	0.002007	43.6468	31.7686	-165.614	-0.082461	0.801373	-0.276286	-0.277595	-0.063431	43.6468	-0.275196	-1996.96	3.176366E-5	NaN
54	1.000000	0.810709	7.36558e+06	-41339.1	955.818	-29787.2	0.000000	0.000000	6.811089	-0.044190	NaN	0.000000	0.001591	0.001726	28.122	0.072894	0.001973	36.9386	-30.5444	-164.034	-0.092777	0.809362	-0.268259	-0.269606	-0.044190	36.9386	-0.267362	-1518.45	2.910210E-5	NaN
54	1.000000	0.818694	7.36558e+06	-41339.1	955.819	-29787.2	0.000000	0.000000	6.819074	-0.041345	NaN	0.000000	0.001616	0.001750	28.1238	0.046174	0.001860	24.8289	161.373	-166.486	0.025451	0.817412	-0.260274	-0.261556	-0.041345	24.8289	-0.259025	-1132.33	3.651320E-5	NaN
54	1.000000	0.826720	7.36558e+06	-41339.1	955.818	-29787.2	0.000000	0.000000	6.827101	-0.001021	NaN	0.000000	0.001586	0.001759	28.1234	0.060450	0.002059	29.3539	-49.2284	-165.575	-0.011295	0.825414	-0.252248	-0.253554	-0.001021	29.3539	-0.252222	-889.819	1.147662E-6	NaN
54	1.000000	0.834697	7.36558e+06	-41339.1	955.819	-29787.2	0.000000	0.000000	6.835078	-0.008128	NaN	0.000000	0.001584	0.001720	28.1233	0.079906	0.001987	40.2241	179.288	-167.745	-0.015927	0.833433	-0.244272	-0.245535	-0.008128	40.2241	-0.244120	-666.454	1.219656E-5	NaN
54	1.000000	0.842690	7.36558e+06	-41339.1	955.818	-29787.2	0.000000	0.000000	6.843071	-0.006372	NaN	0.000000	0.001561	0.001752	28.123	0.048392	0.001999	24.2119	-2.375162	-163.121	-0.045501	0.841423	-0.236278	-0.237545	-0.006372	24.2119	-0.236081	-499.122	1.276698E-5	NaN
54	1.000000	0.850706	7.36558e+06	-41339.1	955.819	-29787.2	0.000000	0.000000	6.851086	-0.047409	NaN	0.000000	0.001564	0.001767	28.1232	0.046015	0.001839	25.0193	-66.1973	-166.765	0.022780	0.849402	-0.228262	-0.229567	-0.047409	25.0193	-0.226841	-356.892	0.000133	NaN
54	1.000000	0.858708	7.36558e+06	-41339.1	955.818	-29787.2	0.000000	0.000000	6.859088	-0.027326	NaN	0.000000	0.001563	0.001754	28.122	0.092604	0.002047	45.2306	167.815	-162.383	-0.014532	0.857365	-0.220261	-0.221604	-0.027326	45.2306	-0.219807	-275.802	9.907728E-5	NaN
54	1.000000	0.866712	7.36558e+06	-41339.1	955.819	-29787.2	0.000000	0.000000	6.867092	-0.048998	NaN	0.000000	0.001581	0.001762	28.1225	0.104634	0.002036	51.3934	-125.769	-163.72	-0.026614	0.865422	-0.212256	-0.213546	-0.048998	51.3934	-0.211541	-203.118	0.000241	NaN
54	1.000000	0.874693	7.36558e+06	-41339.1	955.819	-29787.2	0.000000	0.000000	6.875073	-0.048045	NaN	0.000000	0.001562	0.001719	28.1218	0.102782	0.002095	49.0578	-3.292271	-169.925	-0.039090	0.873476	-0.204275	-0.205492	-0.048045	49.0578	-0.203541	-150.567	0.000319	NaN
54	1.000000	0.882723	7.36558e+06	-41339.1	955.818	-29787.2	0.000000	0.000000	6.883107	0.041921	NaN	0.000000	0.001560	0.001741	28.1224	0.062407	0.001964	31.7807	86.7028	-166.575	-0.040339	0.881446	-0.196245	-0.197522	0.041921	31.7807	-0.197234	-118.617	-0.000353	NaN
54	1.000000	0.890741	7.36558e+06	-41339.1	955.819	-29787.2	0.000000	0.000000	6.891123	-0.000831	NaN	0.000000	0.001577	0.001707	28.1216	0.074113	0.002060	35.9693	-44.2624	-166.978	0.018581	0.889398	-0.188227	-0.189570	-0.000831	35.9693	-0.188210	-83.9606	9.901877E-6	NaN
54	1.000000	0.898714	7.36558e+06	-41339.1	955.818	-29787.2	0.000000	0.000000	6.899096	0.009612	NaN	0.000000	0.001536	0.001727	28.1227	0.032552	0.002009	16.2039	76.0965	-163.851	-0.003723	0.897381	-0.180255	-0.181588	0.009612	16.2039	-0.180699	-62.7132	-0.000153	NaN
54	1.000000	0.906733	7.36558e+06	-41339.1	955.819	-29787.2	0.000000	0.000000	6.907114	-0.007957	NaN	0.000000	0.001567	0.001735	28.1231	0.060889	0.002008	30.3232	171.959	-162.856	-0.025484	0.905394	-0.172235	-0.173574	-0.007957	30.3232	-0.172038	-44.5588	0.000179	NaN
54	1.000000	0.914744	7.36558e+06	-41339.1	955.818	-29787.2	0.000000	0.000000	6.915124	-0.053639	NaN	0.000000	0.001560	0.001721	28.1214	0.080772	0.001866	43.2771	6.848281	-167.352	-0.123457	0.913438	-0.164224	-0.165530	-0.053639	43.2771	-0.163294	-31.354	0.001711	NaN
54	1.000000	0.922752	7.36558e+06	-41339.1	955.818	-29787.2	0.000000	0.000000	6.923133	-0.026563	NaN	0.000000	0.001601	0.001736	28.1219	0.056046	0.002045	27.4013	-86.6093	-163.82	-0.071885	0.921399	-0.156216	-0.157569	-0.026563	27.4013	-0.155489	-22.7703	0.001167	NaN
54	1.000000	0.930742	7.36558e+06	-41339.1	955.817	-29787.2	0.000000	0.000000	6.931122	-0.021606	NaN	0.000000	0.001653	0.001745	28.1216	0.149535	0.002070	72.2562	-167.143	-165.892	-0.009177	0.929445	-0.148226	-0.149523	-0.021606	72.2562	-0.148002	-16.652	0.001297	NaN
54	1.000000	0.938728	7.36558e+06	-41339.1	955.819	-29787.2	0.000000	0.000000	6.939110	0.015297	NaN	0.000000	0.001611	0.001759	28.1207	0.015475	0.002016	7.674918	-55.668	-162.283	0.084881	0.937464	-0.140240	-0.141504	0.015297	7.674918	-0.141735	-12.7489	-0.001200	NaN
54	1.000000	0.946727	7.36558e+06	-41339.1	955.818	-29787.2	0.000000	0.000000	6.947108	-0.009407	NaN	0.000000	0.001651	0.001772	28.1208	0.031300	0.002077	15.0661	-113.705	-163.747	-0.000182	0.945486	-0.132241	-0.133482	-0.009407	15.0661	-0.131773	-8.247944	0.001141	NaN
54	1.000000	0.954748	7.36558e+06	-41339.1	955.82	-29787.2	0.000000	0.000000	6.955131	0.036739	NaN	0.000000	0.001605	0.001769	28.1202	0.073943	0.002037	36.3002	79.8503	-166.58	0.060275	0.953494	-0.124220	-0.125474	0.036739	36.3002	-0.124979	-6.075556	-0.006047	NaN
54	1.000000	0.962755	7.36558e+06	-41339.1	955.818	-29787.2	0.000000	0.000000	6.963137	-0.004017	NaN	0.000000	0.001565	0.001769	28.1207	0.089453	0.002042	43.8062	-124.984	-165.671	-0.010379	0.961465	-0.116213	-0.117503	-0.004017	43.8062	-0.116144	-4.033017	0.000996	NaN
54	1.000000	0.970770	7.36558e+06	-41339.1	955.818	-29787.2	0.000000	0.000000	6.971150	-0.047249	NaN	0.000000	0.001572	0.001730	28.1206	0.104791	0.002045	51.2441	14.2015	-170.478	-0.011093	0.969486	-0.108198	-0.109482	-0.047249	51.2441	-0.107507	-2.660660	0.017758	NaN
54	1.000000	0.978757	7.36558e+06	-41339.1	955.819	-29787.2	0.000000	0.000000	6.979138	-0.018645	NaN	0.000000	0.001553	0.001754	28.1212	0.197050	0.002010	98.0249	-125.077	-164.782	-0.082927	0.977443	-0.100211	-0.101525	-0.018645	98.0249	-0.100068	-1.833537	0.010169	NaN
54	1.000000	0.986761	7.36558e+06	-41339.1	955.817	-29787.2	0.000000	0.000000	6.987143	0.010587	NaN	0.000000	0.001571	0.001753	28.1216	0.042844	0.002022	21.1854	68.675	-165.007	0.054961	0.985449	-0.092207	-0.093519	0.010587	21.1854	-0.092582	-1.241469	-0.008528	NaN
54	1.000000	0.994736	7.36558e+06	-41339.1	955.818	-29787.2	0.000000	0.000000	6.995115	-0.051335	NaN	0.000000	0.001583	0.001746	28.1208	0.056687	0.002181	25.9965	115.276	-161.75	-0.034826	0.993388	-0.084233	-0.085581	-0.051335	25.9965	-0.082751	-0.724211	0.070884	NaN
54	1.000000	1.002763	7.36558e+06	-41339.1	955.818	-29787.2	0.000000	0.000000	7.003145	0.020254	NaN	0.000000	0.001543	0.001745	28.121	0.055021	0.001975	27.8638	-89.453	-164.419	0.013740	1.001471	-0.076205	-0.077497	0.020254	27.8638	-0.076750	-0.512308	-0.039536	NaN
54	1.000000	1.010782	7.36558e+06	-41339.1	955.818	-29787.2	0.000000	0.000000	7.011163	-0.006568	NaN	0.000000	0.001555	0.001727	28.1215	0.025618	0.002046	12.523	92.6183	-168.275	-0.030289	1.009446	-0.068187	-0.069522	-0.006568	12.523	-0.067793	-0.297382	0.022085	NaN
54	1.000000	1.018782	7.36558e+06	-41339.1	955.819	-29787.2	0.000000	0.000000	7.019166	0.048859	NaN	0.000000	0.001555	0.001743	28.1197	0.011862	0.002025	5.858902	-117.77	-165.041	0.059611	1.017465	-0.060186	-0.061503	0.048859	5.858902	-0.066440	-0.273108	-0.178901	NaN
54	1.000000	1.026779	7.36558e+06	-41339.1	955.82	-29787.2	0.000000	0.000000	7.027162	0.041603	NaN	0.000000	0.001575	0.001727	28.1199	0.015875	0.001962	8.090820	38.9539	-165.184	0.127415	1.025452	-0.052189	-0.053517	0.041603	8.090820	-0.056046	-0.138248	-0.300930	NaN
54	1.000000	1.034774	7.36558e+06	-41339.1	955.819	-29787.2	0.000000	0.000000	7.035154	-0.033278	NaN	0.000000	0.001554	0.001717	28.1195	0.108800	0.002020	53.8641	-49.2168	-165.37	0.045653	1.033474	-0.044194	-0.045494	-0.033278	53.8641	-0.043731	-0.058774	0.566200	NaN
54	1.000000	1.042781	7.36558e+06	-41339.1	955.818	-29787.2	0.000000	0.000000	7.043161	-0.052306	NaN	0.000000	0.001565	0.001711	28.1197	0.069970	0.002002	34.9574	123.534	-164.325	0.002326	1.041464	-0.036187	-0.037504	-0.052306	34.9574	-0.035065	-0.032165	1.626181	NaN
54	1.000000	1.050800	7.36558e+06	-41339.1	955.818	-29787.2	0.000000	0.000000	7.051182	0.003639	NaN	0.000000	0.001558	0.001747	28.1208	0.104394	0.002028	51.4768	9.646364	-164.707	-0.010531	1.049450	-0.028168	-0.029518	0.003639	51.4768	-0.028221	-0.020558	-0.176994	NaN
54	1.000000	1.058801	7.36558e+06	-41339.1	955.818	-29787.2	0.000000	0.000000	7.059181	-0.036831	NaN	0.000000	0.001551	0.001714	28.1216	0.034394	0.001979	17.3817	114.824	-168.288	0.006935	1.057509	-0.020167	-0.021459	-0.036831	17.3817	-0.018578	-0.011553	3.188014	NaN
54	1.000000	1.066796	7.36558e+06	-41339.1	955.819	-29787.2	0.000000	0.000000	7.067177	-0.024855	NaN	0.000000	0.001576	0.001724	28.1211	0.029118	0.001984	14.6747	-21.8695	-164.75	0.006312	1.065532	-0.012172	-0.013436	-0.024855	14.6747	-0.010901	-0.006902	3.601178	NaN
54	1.000000	1.074800	7.36558e+06	-41339.1	955.818	-29787.2	0.000000	0.000000	7.075177	-0.093455	NaN	0.000000	0.001555	0.001725	28.1219	0.031682	0.001932	16.3953	-69.7901	-165.425	-0.030464	1.073489	-0.004169	-0.005479	-0.093455	16.3953	0.000107	7.980359E-5	-1171.06	1676.8
54	1.000000	1.082763	7.36558e+06	-41339.1	955.818	-29787.2	0.000000	0.000000	7.083292	3.586703	NaN	0.000000	0.001544	0.001702	28.1218	4.215795	0.001885	2236.81	5.404335	-165.77	1.689726	1.081458	0.003795	0.002490	3.586703	2236.81	0.002592	0.002040	1758.53	45251.2
54	2.000000	1.088354	7.36558e+06	-41339.1	955.818	-29787.2	0.000000	0.000000	7.089196	11.1952	NaN	0.000000	0.001559	0.001697	28.122	9.498592	0.001541	6164.98	5.079832	-171.566	11.0436	1.088066	0.009386	0.009098	11.1952	6164.98	0.008024	0.007067	1584.18	67002.5
54	2.000000	1.090350	7.36558e+06	-41339.1	955.818	-29787.2	0.000000	0.000000	7.091204	11.4804	NaN	0.000000	0.001557	0.001722	28.1207	11.5708	0.001765	6556.27	8.803737	-173.901	11.1109	1.090017	0.011382	0.011049	11.4804	6556.27	0.010069	0.009258	1240.05	62254.6
54	2.000000	1.092303	7.36558e+06	-41339.1	955.818	-29787.2	0.000000	0.000000	7.093341	15.9885	NaN	0.000000	0.001521	0.001744	28.1202	13.5288	0.001698	7968.31	4.110416	-171.135	14.522	1.091967	0.013335	0.012999	15.9885	7968.31	0.011830	0.011287	1416.59	68526.4
54	2.000000	1.094316	7.36558e+06	-41339.1	955.818	-29787.2	0.000000	0.000000	7.095382	16.6682	NaN	0.000000	0.001529	0.001698	28.1207	15.2764	0.001702	8973	6.422332	-174.907	17.5458	1.094028	0.015347	0.015060	16.6682	8973	0.013954	0.013916	1197.76	69494.7
54	2.000000	1.096286	7.36558e+06	-41339.1	955.818	-29787.2	0.000000	0.000000	7.097526	20.875	NaN	0.000000	0.001567	0.001726	28.1206	17.5272	0.001819	9634.33	4.794373	-173.965	21.9113	1.096037	0.017318	0.017068	20.875	9634.33	0.015693	0.016221	1286.92	69112.5
54	2.000000	1.098343	7.36558e+06	-41339.1	955.817	-29787.2	0.000000	0.000000	7.099835	27.016	NaN	0.000000	0.001541	0.001734	28.1204	19.3195	0.001830	10554.3	6.759353	-175.262	28.6589	1.097969	0.019375	0.019001	27.016	10554.3	0.017455	0.018700	1444.7	70514.7
54	2.000000	1.100213	7.36558e+06	-41339.1	955.818	-29787.2	0.000000	0.000000	7.101834	30.1556	NaN	0.000000	0.001565	0.001723	28.1219	21.1342	0.001750	12077.1	0.832320	-172.149	27.5782	1.099965	0.021245	0.020997	30.1556	12077.1	0.019372	0.021565	1398.37	75138.4
54	2.000000	1.102298	7.36558e+06	-41339.1	955.818	-29787.2	0.000000	0.000000	7.104174	36.3538	NaN	0.000000	0.001565	0.001745	28.122	23.9253	0.001787	13388.3	5.355117	-175.865	35.3335	1.101995	0.023330	0.023027	36.3538	13388.3	0.021293	0.024616	1476.86	77963.6
54	2.000000	1.104255	7.36558e+06	-41339.1	955.818	-29787.2	0.000000	0.000000	7.106363	42.0001	NaN	0.000000	0.001573	0.001733	28.1219	26.2476	0.001788	14683.6	6.390745	-179.791	41.3752	1.103931	0.025287	0.024963	42.0001	14683.6	0.023142	0.027722	1515.04	80573.7
54	2.000000	1.106252	7.36558e+06	-41339.1	955.818	-29787.2	0.000000	0.000000	7.108418	43.4177	NaN	0.000000	0.001541	0.001739	28.1214	28.1174	0.001676	16780.5	1.678118	-175.493	42.5277	1.105950	0.027284	0.026982	43.4177	16780.5	0.025344	0.031644	1372.08	86185.5
54	2.000000	1.108277	7.36558e+06	-41339.1	955.818	-29787.2	0.000000	0.000000	7.110769	51.338	NaN	0.000000	0.001555	0.001764	28.1218	29.7856	0.001908	15609.1	5.344052	-178.021	51.5416	1.107910	0.029309	0.028942	51.338	15609.1	0.026843	0.034453	1490.08	76830.9
54	2.000000	1.110183	7.36558e+06	-41339.1	955.817	-29787.2	0.000000	0.000000	7.112922	57.3538	NaN	0.000000	0.001543	0.001778	28.1217	32.7741	0.001848	17731.1	4.617911	-179.391	54.1765	1.109882	0.031215	0.030914	57.3538	17731.1	0.028789	0.038272	1498.6	82807.3
54	2.000000	1.112317	7.36558e+06	-41339.1	955.818	-29787.2	0.000000	0.000000	7.115361	64.7854	NaN	0.000000	0.001537	0.001714	28.1191	34.7239	0.001889	18377.8	11.0754	175.876	68.4517	1.111947	0.033349	0.032979	64.7854	18377.8	0.030705	0.042218	1534.55	81718.2
54	2.000000	1.114221	7.36558e+06	-41339.1	955.817	-29787.2	0.000000	0.000000	7.117491	70.2866	NaN	0.000000	0.001552	0.001728	28.1187	36.1802	0.001797	20128.8	1.254775	-176.323	70.9681	1.113938	0.035253	0.034969	70.2866	20128.8	0.032634	0.046380	1515.45	85393.5
54	2.000000	1.116208	7.36558e+06	-41339.1	955.818	-29787.2	0.000000	0.000000	7.119670	74.9559	NaN	0.000000	0.001555	0.001718	28.1194	39.1285	0.001859	21046	7.424114	177.124	73.8715	1.115949	0.037240	0.036981	74.9559	21046	0.034569	0.050747	1477.04	85356.6
54	2.000000	1.118250	7.36558e+06	-41339.1	955.818	-29787.2	0.000000	0.000000	7.122028	82.6542	NaN	0.000000	0.001546	0.001728	28.1193	39.9148	0.001725	23134	4.912886	178.752	84.8505	1.117963	0.039282	0.038994	82.6542	23134	0.036602	0.055542	1488.13	89683.5
54	2.000000	1.120200	7.36558e+06	-41339.1	955.817	-29787.2	0.000000	0.000000	7.124298	90.4485	NaN	0.000000	0.001566	0.001727	28.1213	41.7534	0.001787	23363.4	1.856174	-178.602	88.6816	1.119926	0.041231	0.040958	90.4485	23363.4	0.038328	0.059779	1513.06	87304.6
54	2.000000	1.122217	7.36558e+06	-41339.1	955.819	-29787.2	0.000000	0.000000	7.126782	101.776	NaN	0.000000	0.001584	0.001698	28.1198	44.7029	0.001830	24427.6	5.635350	177.418	100.099	1.121875	0.043249	0.042907	101.776	24427.6	0.040124	0.064350	1581.6	87979.1
54	2.000000	1.124104	7.36558e+06	-41339.1	955.819	-29787.2	0.000000	0.000000	7.128731	103.311	NaN	0.000000	0.001611	0.001726	28.1197	45.2678	0.001807	25056.7	4.024670	178.886	98.1057	1.123822	0.045135	0.044854	103.311	25056.7	0.042043	0.069415	1488.31	86889.9
54	2.000000	1.126180	7.36558e+06	-41339.1	955.819	-29787.2	0.000000	0.000000	7.131155	111.766	NaN	0.000000	0.001604	0.001744	28.1201	47.3353	0.001839	25734.9	4.348713	178.999	109.621	1.125893	0.047212	0.046924	111.766	25734.9	0.043955	0.074647	1497.26	86057.7
54	2.000000	1.128238	7.36558e+06	-41339.1	955.819	-29787.2	0.000000	0.000000	7.133734	124.443	NaN	0.000000	0.001592	0.001728	28.1204	48.3565	0.001794	26957	5.611874	177.174	126.478	1.127971	0.049270	0.049003	124.443	26957	0.045808	0.079897	1557.55	87132.6
54	2.000000	1.130202	7.36558e+06	-41339.1	955.819	-29787.2	0.000000	0.000000	7.135940	130.345	NaN	0.000000	0.001573	0.001734	28.12	52.6796	0.001864	28254.4	5.683420	175.663	128.059	1.129935	0.051234	0.050967	130.345	28254.4	0.047774	0.085656	1521.73	88202.6
54	2.000000	1.132262	7.36558e+06	-41339.1	955.819	-29787.2	0.000000	0.000000	7.138573	144.257	NaN	0.000000	0.001587	0.001742	28.1196	53.2881	0.001791	29756.4	8.144013	174.722	145.859	1.131844	0.053294	0.052876	144.257	29756.4	0.049658	0.091360	1579	89944.8
54	2.000000	1.134197	7.36558e+06	-41339.1	955.818	-29787.2	0.000000	0.000000	7.140930	154.545	NaN	0.000000	0.001606	0.001693	28.1188	55.1227	0.001722	32004.4	3.772600	177.171	154.299	1.133897	0.055229	0.054929	154.545	32004.4	0.051607	0.097446	1585.95	93670.3
54	2.000000	1.136244	7.36558e+06	-41339.1	955.819	-29787.2	0.000000	0.000000	7.143443	165.89	NaN	0.000000	0.001601	0.001720	28.1188	57.4462	0.001846	31115.5	5.973597	176.584	165.635	1.135783	0.057276	0.056815	165.89	31115.5	0.053277	0.102811	1613.54	88660.4
54	2.000000	1.138146	7.36558e+06	-41339.1	955.818	-29787.2	0.000000	0.000000	7.145552	170.928	NaN	0.000000	0.001599	0.001750	28.1192	58.3391	0.001778	32803.7	3.349714	177.518	167.882	1.137905	0.059178	0.058937	170.928	32803.7	0.055270	0.109396	1562.47	90614
54	2.000000	1.140264	7.36558e+06	-41339.1	955.818	-29787.2	0.000000	0.000000	7.148042	179.96	NaN	0.000000	0.001573	0.001737	28.12	61.4682	0.001779	34543.5	8.396535	173.286	184.623	1.139937	0.061296	0.060968	179.96	34543.5	0.057389	0.116611	1543.25	92420.6
54	2.000000	1.142191	7.36558e+06	-41339.1	955.817	-29787.2	0.000000	0.000000	7.150637	196.222	NaN	0.000000	0.001578	0.001726	28.1202	64.0622	0.001806	35465	5.639049	174.359	195.833	1.141865	0.063223	0.062897	196.222	35465	0.059074	0.122507	1601.72	92574.6
54	2.000000	1.144146	7.36558e+06	-41339.1	955.817	-29787.2	0.000000	0.000000	7.153328	214.137	NaN	0.000000	0.001608	0.001710	28.1198	64.1812	0.001799	35673.8	3.787506	176.909	212.273	1.143872	0.065178	0.064904	214.137	35673.8	0.060676	0.128244	1669.76	91013.1
54	2.000000	1.146193	7.36558e+06	-41339.1	955.819	-29787.2	0.000000	0.000000	7.155616	220.007	NaN	0.000000	0.001617	0.001672	28.1212	67.7616	0.001824	37146.7	7.858581	172.837	220.522	1.145755	0.067225	0.066787	220.007	37146.7	0.062783	0.135975	1617.99	92037.2
54	2.000000	1.148246	7.36558e+06	-41339.1	955.818	-29787.2	0.000000	0.000000	7.158096	230.392	NaN	0.000000	0.001605	0.001720	28.1215	68.7348	0.001856	37032.1	3.526160	176.719	232.539	1.147891	0.069278	0.068923	230.392	37032.1	0.064612	0.142863	1612.68	89514.2
54	2.000000	1.150106	7.36558e+06	-41339.1	955.818	-29787.2	0.000000	0.000000	7.160482	243.192	NaN	0.000000	0.001631	0.001757	28.1198	70.2668	0.001768	39733.8	1.256571	177.513	237.255	1.149881	0.071138	0.070913	243.192	39733.8	0.066548	0.150329	1617.73	93629.5
54	2.000000	1.152192	7.36558e+06	-41339.1	955.818	-29787.2	0.000000	0.000000	7.163125	256.73	NaN	0.000000	0.001624	0.001772	28.1195	72.9695	0.001676	43525.9	7.468223	171.121	254.817	1.151906	0.073224	0.072938	256.73	43525.9	0.068800	0.159242	1612.19	99653.3
54	2.000000	1.154059	7.36558e+06	-41339.1	955.818	-29787.2	0.000000	0.000000	7.165366	265.838	NaN	0.000000	0.001611	0.001762	28.1201	74.3118	0.001693	43883.1	4.910961	172.694	259.583	1.153836	0.075091	0.074868	265.838	43883.1	0.070548	0.166322	1598.33	98309.5
54	2.000000	1.156147	7.36558e+06	-41339.1	955.818	-29787.2	0.000000	0.000000	7.168381	288.379	NaN	0.000000	0.001601	0.001724	28.1201	77.9622	0.001840	42374.3	4.309242	174.214	285.243	1.155824	0.077179	0.076856	288.379	42374.3	0.072075	0.172632	1670.49	93178.3
54	2.000000	1.158108	7.36558e+06	-41339.1	955.819	-29787.2	0.000000	0.000000	7.171190	309.049	NaN	0.000000	0.001612	0.001715	28.1197	77.9803	0.001695	46011.5	2.071486	176.05	306.629	1.157773	0.079140	0.078805	309.049	46011.5	0.074102	0.181174	1705.82	98762.4
54	2.000000	1.160109	7.36558e+06	-41339.1	955.819	-29787.2	0.000000	0.000000	7.173852	325.13	NaN	0.000000	0.001587	0.001735	28.1208	81.4116	0.001767	46069.2	2.850638	175.624	319.808	1.159699	0.081140	0.080731	325.13	46069.2	0.075847	0.188685	1723.14	96898.2
54	2.000000	1.162208	7.36558e+06	-41339.1	955.818	-29787.2	0.000000	0.000000	7.176285	333.26	NaN	0.000000	0.001605	0.001731	28.121	84.087	0.001858	45264.9	6.297634	171.982	330.296	1.161808	0.083240	0.082840	333.26	45264.9	0.077718	0.196892	1692.61	93201
54	2.000000	1.164081	7.36558e+06	-41339.1	955.818	-29787.2	0.000000	0.000000	7.178776	348.286	NaN	0.000000	0.001594	0.001743	28.1207	85.7556	0.001853	46280.7	5.300553	173.059	342.552	1.163820	0.085113	0.084852	348.286	46280.7	0.079468	0.204722	1701.26	93452.3
54	2.000000	1.166153	7.36558e+06	-41339.1	955.818	-29787.2	0.000000	0.000000	7.181423	362.252	NaN	0.000000	0.001564	0.001729	28.1212	87.4522	0.001754	49855.8	3.767690	173.943	361.667	1.165825	0.087185	0.086857	362.252	49855.8	0.081736	0.215077	1684.29	98218.2
54	2.000000	1.168137	7.36558e+06	-41339.1	955.818	-29787.2	0.000000	0.000000	7.184194	381.422	NaN	0.000000	0.001559	0.001707	28.1212	89.4665	0.001782	50203.6	9.060850	168.39	380.082	1.167810	0.089169	0.088842	381.422	50203.6	0.083471	0.223162	1709.17	97095.3
54	2.000000	1.170167	7.36558e+06	-41339.1	955.818	-29787.2	0.000000	0.000000	7.187101	402.76	NaN	0.000000	0.001575	0.001732	28.1195	92.5389	0.001918	48241.4	6.200957	171.657	402.561	1.169760	0.091199	0.090792	402.76	48241.4	0.084937	0.230102	1750.36	91882.6
54	2.000000	1.172180	7.36558e+06	-41339.1	955.818	-29787.2	0.000000	0.000000	7.189802	419.489	NaN	0.000000	0.001580	0.001722	28.1198	94.1767	0.001882	50045.7	5.497669	172.12	419.387	1.171916	0.093212	0.092948	419.489	50045.7	0.086926	0.239673	1750.25	93396.4
54	2.000000	1.174051	7.36558e+06	-41339.1	955.817	-29787.2	0.000000	0.000000	7.192616	442.45	NaN	0.000000	0.001604	0.001751	28.119	93.6935	0.001764	53104.2	2.824233	174.281	436.65	1.173818	0.095083	0.094850	442.45	53104.2	0.088834	0.249032	1776.68	97224.3
54	2.000000	1.176114	7.36558e+06	-41339.1	955.817	-29787.2	0.000000	0.000000	7.194969	449.508	NaN	0.000000	0.001610	0.001760	28.1193	98.16	0.001798	54608.6	4.133631	172.699	446.662	1.175844	0.097146	0.096876	449.508	54608.6	0.090972	0.259712	1730.79	97901.2
54	2.000000	1.178179	7.36558e+06	-41339.1	955.817	-29787.2	0.000000	0.000000	7.198177	477.317	NaN	0.000000	0.001624	0.001755	28.1196	98.7614	0.001878	52578.2	7.806195	170.196	478.34	1.177706	0.099211	0.098738	477.317	52578.2	0.092402	0.266974	1787.87	92970.3
54	2.000000	1.180183	7.36558e+06	-41339.1	955.819	-29787.2	0.000000	0.000000	7.200690	489.698	NaN	0.000000	0.001658	0.001721	28.1186	101.917	0.001845	55252.1	3.353995	173.964	492.374	1.179812	0.101215	0.100844	489.698	55252.1	0.094568	0.278149	1760.56	95715.7
54	2.000000	1.182129	7.36558e+06	-41339.1	955.818	-29787.2	0.000000	0.000000	7.203653	514.454	NaN	0.000000	0.001625	0.001729	28.1189	102.164	0.001708	59824.2	1.634681	174.985	511.363	1.181749	0.103161	0.102781	514.454	59824.2	0.096711	0.289418	1777.55	101598
54	2.000000	1.184002	7.36558e+06	-41339.1	955.818	-29787.2	0.000000	0.000000	7.206819	545.909	NaN	0.000000	0.001621	0.001690	28.119	104.864	0.001728	60668.3	8.417415	168.589	539.057	1.183625	0.105034	0.104657	545.909	60668.3	0.098285	0.297826	1832.98	101567
54	2.000000	1.186121	7.36558e+06	-41339.1	955.819	-29787.2	0.000000	0.000000	7.209309	554.952	NaN	0.000000	0.001675	0.001737	28.1193	107.957	0.001914	56405.3	7.802123	170.161	554.013	1.185789	0.107152	0.106821	554.952	56405.3	0.099774	0.305884	1814.26	93178.2