File: remote_trans/data/nanoindenter/0828-1/data/Data_2025-08-06,11h17m57s/2025-07-22_16-23-58_1_1023.txt
2025-07-22, 16:23:58, 1
Index	Phase	Displacement	Time	Pos X	Pos Y	Pos Z	Rot A	Rot B	Piezo Z	Force A	Force B	Gripper	Voltage A	Voltage B	Temperature	Amplitude force	Amplitude pos	Stiffness	Phase shift	Phase excitation	Force A raw	Displacement raw	HMax	HMax raw	Real Force	Real Stiffness	Contact Depth	Area	Hardness	Reduced Mod.
[#]	[#]	[um]	[s]	[um]	[um]	[um]	[m°]	[m°]	[um]	[uN]	[uN]	[V]	[V]	[V]	[°C]	[uN]	[um]	[N/m]	[°]	[°]	[uN]	[um]	[um]	[um]	[uN]	[N/m]	[um]	[um^2]	[MPa]	[MPa]
1023	1.000000	0.002897	7.37505e+06	-51289.1	1055.82	-29752.8	0.000000	0.000000	6.002788	-0.008375	NaN	0.000000	0.001586	0.001703	28.0834	0.072914	0.001020	71.5077	114.875	-159.321	-0.052583	0.001587	-1.060107	-1.061417	-0.008375	71.5077	-1.060019	-1.455723E+14	5.752901E-17	NaN
1023	1.000000	0.010847	7.37505e+06	-51289.1	1055.82	-29752.8	0.000000	0.000000	6.010738	0.003554	NaN	0.000000	0.001619	0.001727	28.0829	0.028563	0.000984	29.0348	-171.303	-167.28	0.017768	0.009550	-1.052158	-1.053454	0.003554	29.0348	-1.052249	-1.144591E+14	-3.105243E-17	NaN
1023	1.000000	0.018859	7.37505e+06	-51289.1	1055.82	-29752.8	0.000000	0.000000	6.018749	-0.014369	NaN	0.000000	0.001600	0.001742	28.0829	0.123320	0.001719	71.7203	119.477	-164.197	-0.042062	0.017544	-1.044145	-1.045460	-0.014369	71.7203	-1.043995	-8.865143E+13	1.620882E-16	NaN
1023	1.000000	0.026862	7.37505e+06	-51289.1	1055.82	-29752.8	0.000000	0.000000	6.026753	-0.010446	NaN	0.000000	0.001629	0.001734	28.0828	0.129209	0.001696	76.1629	137.247	-168.77	0.006094	0.025529	-1.036142	-1.037476	-0.010446	76.1629	-1.036039	-6.929600E+13	1.507487E-16	NaN
1023	1.000000	0.034837	7.37505e+06	-51289.1	1055.82	-29752.8	0.000000	0.000000	6.034727	-0.009533	NaN	0.000000	0.001629	0.001714	28.0828	0.021479	0.001875	11.4556	-78.9251	-165.755	0.040874	0.033555	-1.028167	-1.029450	-0.009533	11.4556	-1.027543	-5.326420E+13	1.789829E-16	NaN
1023	1.000000	0.042854	7.37505e+06	-51289.1	1055.82	-29752.8	0.000000	0.000000	6.042747	0.053176	NaN	0.000000	0.001611	0.001733	28.0831	0.090945	0.002004	45.3818	19.4285	-161.755	-0.018304	0.041576	-1.020151	-1.021428	0.053176	45.3818	-1.021029	-4.353153E+13	-1.221549E-15	NaN
1023	1.000000	0.050836	7.37505e+06	-51289.1	1055.82	-29752.8	0.000000	0.000000	6.050727	0.015375	NaN	0.000000	0.001610	0.001684	28.0832	0.078867	0.001911	41.2612	87.9895	-164.337	-0.031419	0.049535	-1.012169	-1.013469	0.015375	41.2612	-1.012448	-3.336803E+13	-4.607685E-16	NaN
1023	1.000000	0.058870	7.37505e+06	-51289.1	1055.82	-29752.8	0.000000	0.000000	6.058762	0.019113	NaN	0.000000	0.001603	0.001739	28.0831	0.039155	0.002006	19.5203	80.3028	-166.389	0.055482	0.057566	-1.004134	-1.005439	0.019113	19.5203	-1.004869	-2.638234E+13	-7.244670E-16	NaN
1023	1.000000	0.066834	7.37505e+06	-51289.1	1055.82	-29752.8	0.000000	0.000000	6.066724	-0.018039	NaN	0.000000	0.001619	0.001719	28.083	0.070278	0.002068	33.9863	58.0875	-166.435	-0.054317	0.065542	-0.996171	-0.997462	-0.018039	33.9863	-0.995773	-1.989981E+13	9.064767E-16	NaN
1023	1.000000	0.074880	7.37505e+06	-51289.1	1055.82	-29752.8	0.000000	0.000000	6.074772	0.029410	NaN	0.000000	0.001601	0.001729	28.0834	0.026726	0.002102	12.7131	2.507588	-164.956	0.040138	0.073551	-0.988124	-0.989453	0.029410	12.7131	-0.989859	-1.656598E+13	-1.775332E-15	NaN
1023	1.000000	0.082863	7.37505e+06	-51289.1	1055.82	-29752.8	0.000000	0.000000	6.082754	0.011478	NaN	0.000000	0.001623	0.001719	28.0832	0.078979	0.001949	40.5289	-49.1491	-165.072	-0.009077	0.081520	-0.980142	-0.981484	0.011478	40.5289	-0.980354	-1.233612E+13	-9.304218E-16	NaN
1023	1.000000	0.090865	7.37505e+06	-51289.1	1055.82	-29752.8	0.000000	0.000000	6.090758	0.049206	NaN	0.000000	0.001611	0.001691	28.0831	0.043664	0.001972	22.1475	48.8687	-165.136	0.025512	0.089566	-0.972139	-0.973439	0.049206	22.1475	-0.973806	-1.006812E+13	-4.887341E-15	NaN
1023	1.000000	0.098865	7.37505e+06	-51289.1	1055.82	-29752.8	0.000000	0.000000	6.098760	0.095786	NaN	0.000000	0.001637	0.001705	28.0844	0.046292	0.001891	24.4776	14.5171	-166.595	0.114341	0.097591	-0.964139	-0.965414	0.095786	24.4776	-0.967074	-8.170155E+12	-1.172384E-14	NaN
1023	1.000000	0.106896	7.37505e+06	-51289.1	1055.82	-29752.8	0.000000	0.000000	6.106786	-0.041738	NaN	0.000000	0.001622	0.001725	28.0844	0.106507	0.001986	53.63	60.7715	-167.603	-0.064150	0.105572	-0.956108	-0.957433	-0.041738	53.63	-0.955524	-5.708532E+12	7.311547E-15	NaN
1023	1.000000	0.114895	7.37505e+06	-51289.1	1055.82	-29752.8	0.000000	0.000000	6.114785	-0.033162	NaN	0.000000	0.001622	0.001768	28.0843	0.032073	0.002054	15.6137	-121.329	-164.66	-0.083927	0.113550	-0.948109	-0.949455	-0.033162	15.6137	-0.946516	-4.315567E+12	7.684315E-15	NaN
1023	1.000000	0.122895	7.37505e+06	-51289.1	1055.82	-29752.8	0.000000	0.000000	6.122786	-0.004247	NaN	0.000000	0.001651	0.001750	28.0842	0.032576	0.002192	14.864	16.1575	-165.861	0.041057	0.121576	-0.940109	-0.941428	-0.004247	14.864	-0.939895	-3.513313E+12	1.208966E-15	NaN
1023	1.000000	0.130864	7.37506e+06	-51289.1	1055.82	-29752.8	0.000000	0.000000	6.130753	-0.040710	NaN	0.000000	0.001645	0.001742	28.0843	0.073745	0.001947	37.8758	-120.2	-163.823	-0.058456	0.129583	-0.932140	-0.933422	-0.040710	37.8758	-0.931334	-2.692787E+12	1.511808E-14	NaN
1023	1.000000	0.138905	7.37506e+06	-51289.1	1055.82	-29752.8	0.000000	0.000000	6.138798	0.062151	NaN	0.000000	0.001603	0.001754	28.0844	0.022115	0.002108	10.4918	-143.882	-163.01	0.060131	0.137577	-0.924099	-0.925428	0.062151	10.4918	-0.928542	-2.469006E+12	-2.517260E-14	NaN
1023	1.000000	0.146859	7.37506e+06	-51289.1	1055.82	-29752.8	0.000000	0.000000	6.146752	0.056518	NaN	0.000000	0.001643	0.001693	28.0852	0.102757	0.002055	49.9955	161.96	-165.671	0.009665	0.145585	-0.916146	-0.917419	0.056518	49.9955	-0.916994	-1.724298E+12	-3.277766E-14	NaN
1023	1.000000	0.154878	7.37506e+06	-51289.1	1055.82	-29752.8	0.000000	0.000000	6.154768	-0.037924	NaN	0.000000	0.001592	0.001683	28.0845	0.084290	0.001882	44.7887	-11.8745	-163.747	-0.053994	0.153604	-0.908126	-0.909401	-0.037924	44.7887	-0.907491	-1.283134E+12	2.955550E-14	NaN
1023	1.000000	0.162918	7.37506e+06	-51289.1	1055.82	-29752.8	0.000000	0.000000	6.162808	-0.019461	NaN	0.000000	0.001622	0.001704	28.0844	0.094637	0.001936	48.885	-43.4993	-165.831	0.041667	0.161577	-0.900086	-0.901428	-0.019461	48.885	-0.899788	-1.009708E+12	1.927357E-14	NaN
1023	1.000000	0.170926	7.37506e+06	-51289.1	1055.82	-29752.8	0.000000	0.000000	6.170816	-0.008621	NaN	0.000000	0.001644	0.001668	28.0844	0.062250	0.001881	33.0904	-151.276	-162.788	-0.042949	0.169566	-0.892079	-0.893438	-0.008621	33.0904	-0.891883	-7.895339E+11	1.091877E-14	NaN
1023	1.000000	0.178913	7.37506e+06	-51289.1	1055.82	-29752.8	0.000000	0.000000	6.178806	0.053055	NaN	0.000000	0.001610	0.001659	28.0843	0.085302	0.001934	44.0965	-138.092	-166.836	0.057938	0.177631	-0.884092	-0.885373	0.053055	44.0965	-0.884994	-6.371447E+11	-8.327043E-14	NaN
1023	1.000000	0.186915	7.37506e+06	-51289.1	1055.82	-29752.8	0.000000	0.000000	6.186805	-0.034890	NaN	0.000000	0.001695	0.001682	28.0846	0.133901	0.002046	65.4312	-11.8301	-164.741	-0.068271	0.185579	-0.876089	-0.877426	-0.034890	65.4312	-0.875689	-4.768753E+11	7.316439E-14	NaN
1023	1.000000	0.194932	7.37506e+06	-51289.1	1055.82	-29752.8	0.000000	0.000000	6.194824	0.010912	NaN	0.000000	0.001661	0.001711	28.0844	0.090054	0.002195	41.0217	34.0543	-162.374	-0.000611	0.193599	-0.868072	-0.869405	0.010912	41.0217	-0.868272	-3.784947E+11	-2.883130E-14	NaN
1023	1.000000	0.202907	7.37506e+06	-51289.1	1055.82	-29752.8	0.000000	0.000000	6.202799	0.006763	NaN	0.000000	0.001612	0.001687	28.0842	0.068210	0.001995	34.1928	-60.5629	-167.448	-0.018405	0.201616	-0.860097	-0.861388	0.006763	34.1928	-0.860245	-2.947418E+11	-2.294518E-14	NaN
1023	1.000000	0.210936	7.37506e+06	-51289.1	1055.82	-29752.8	0.000000	0.000000	6.210828	0.026027	NaN	0.000000	0.001644	0.001701	28.0842	0.083833	0.002051	40.871	95.8349	-166.817	0.034820	0.209637	-0.852069	-0.853367	0.026027	40.871	-0.852546	-2.318543E+11	-1.122566E-13	NaN
1023	1.000000	0.218919	7.37506e+06	-51289.1	1055.82	-29752.8	0.000000	0.000000	6.218811	0.017759	NaN	0.000000	0.001649	0.001703	28.0841	0.039417	0.002087	18.8884	167.644	-164.035	-0.050652	0.217606	-0.844085	-0.845398	0.017759	18.8884	-0.844790	-1.820461E+11	-9.755054E-14	NaN
1023	1.000000	0.226915	7.37506e+06	-51289.1	1055.82	-29752.8	0.000000	0.000000	6.226807	0.028123	NaN	0.000000	0.001619	0.001701	28.0844	0.035203	0.001954	18.0117	-43.5107	-163.614	-0.017428	0.225591	-0.836089	-0.837413	0.028123	18.0117	-0.837260	-1.439373E+11	-1.953805E-13	NaN
1023	1.000000	0.234920	7.37506e+06	-51289.1	1055.82	-29752.8	0.000000	0.000000	6.234812	0.019409	NaN	0.000000	0.001621	0.001683	28.0834	0.125539	0.001941	64.6838	-69.0148	-162.572	0.021465	0.233625	-0.828085	-0.829379	0.019409	64.6838	-0.828310	-1.088610E+11	-1.782894E-13	NaN
1023	1.000000	0.242947	7.37506e+06	-51289.1	1055.82	-29752.8	0.000000	0.000000	6.242835	-0.075431	NaN	0.000000	0.001627	0.001709	28.0832	0.089327	0.001975	45.221	53.7127	-164.104	-0.086071	0.241594	-0.820057	-0.821411	-0.075431	45.221	-0.818806	-8.091422E+10	9.322338E-13	NaN
1023	1.000000	0.250941	7.37506e+06	-51289.1	1055.82	-29752.8	0.000000	0.000000	6.250833	0.018667	NaN	0.000000	0.001606	0.001696	28.0831	0.066594	0.001914	34.7975	-22.4603	-168.508	-0.032951	0.249628	-0.812063	-0.813377	0.018667	34.7975	-0.812465	-6.637716E+10	-2.812231E-13	NaN
1023	1.000000	0.258934	7.37506e+06	-51289.1	1055.82	-29752.8	0.000000	0.000000	6.258825	-0.006320	NaN	0.000000	0.001617	0.001701	28.083	0.061073	0.001862	32.7979	-11.9336	-164.528	0.026962	0.257596	-0.804070	-0.805408	-0.006320	32.7979	-0.803925	-5.083258E+10	1.243222E-13	NaN
1023	1.000000	0.266973	7.37506e+06	-51289.1	1055.82	-29752.8	0.000000	0.000000	6.266866	0.064148	NaN	0.000000	0.001613	0.001679	28.083	0.091877	0.001994	46.0864	149.114	-164.15	0.065368	0.265607	-0.796032	-0.797397	0.064148	46.0864	-0.797076	-4.103577E+10	-1.563213E-12	NaN
1023	1.000000	0.274923	7.37506e+06	-51289.1	1055.82	-29752.8	0.000000	0.000000	6.274814	-0.012011	NaN	0.000000	0.001635	0.001719	28.0831	0.062058	0.002018	30.7593	-152.954	-169.237	-0.004260	0.273676	-0.788081	-0.789328	-0.012011	30.7593	-0.787788	-3.069329E+10	3.913387E-13	NaN
1023	1.000000	0.282937	7.37506e+06	-51289.1	1055.82	-29752.8	0.000000	0.000000	6.282825	-0.049909	NaN	0.000000	0.001613	0.001713	28.083	0.115899	0.001996	58.0629	83.4528	-164.912	0.017683	0.281602	-0.780068	-0.781402	-0.049909	58.0629	-0.779423	-2.362610E+10	2.112452E-12	NaN
1023	1.000000	0.290953	7.37506e+06	-51289.1	1055.82	-29752.8	0.000000	0.000000	6.290847	0.075696	NaN	0.000000	0.001642	0.001686	28.0833	0.097837	0.002025	48.3093	-54.3785	-168.27	0.017588	0.289621	-0.772051	-0.773384	0.075696	48.3093	-0.773226	-1.946105E+10	-3.889597E-12	NaN
1023	1.000000	0.298961	7.37506e+06	-51289.1	1055.82	-29752.8	0.000000	0.000000	6.298853	0.036992	NaN	0.000000	0.001619	0.001706	28.0828	0.099961	0.002083	47.9964	-150.903	-166.046	0.022538	0.297633	-0.764043	-0.765371	0.036992	47.9964	-0.764621	-1.486496E+10	-2.488516E-12	NaN
1023	1.000000	0.306964	7.37506e+06	-51289.1	1055.82	-29752.8	0.000000	0.000000	6.306857	0.045441	NaN	0.000000	0.001624	0.001687	28.083	0.027750	0.002042	13.5881	153.048	-168.514	0.101983	0.305707	-0.756040	-0.757297	0.045441	13.5881	-0.758548	-1.229003E+10	-3.697398E-12	NaN
1023	1.000000	0.314973	7.37506e+06	-51289.1	1055.82	-29752.8	0.000000	0.000000	6.314864	0.004920	NaN	0.000000	0.001666	0.001708	28.083	0.051873	0.002048	25.3291	13.7723	-165.506	-0.028998	0.313645	-0.748032	-0.749359	0.004920	25.3291	-0.748177	-8.879877E+9	-5.540349E-13	NaN
1023	1.000000	0.322969	7.37506e+06	-51289.1	1055.82	-29752.8	0.000000	0.000000	6.322859	-0.023388	NaN	0.000000	0.001678	0.001697	28.083	0.090548	0.001915	47.2768	166.649	-164.363	-0.020908	0.321677	-0.740036	-0.741327	-0.023388	47.2768	-0.739665	-6.799685E+9	3.439546E-12	NaN
1023	1.000000	0.330986	7.37506e+06	-51289.1	1055.82	-29752.8	0.000000	0.000000	6.330876	-0.043629	NaN	0.000000	0.001643	0.001702	28.083	0.113991	0.001890	60.2979	52.7779	-167.388	0.053107	0.329620	-0.732018	-0.733384	-0.043629	60.2979	-0.731475	-5.259124E+9	8.295787E-12	NaN
1023	1.000000	0.338981	7.37506e+06	-51289.1	1055.82	-29752.8	0.000000	0.000000	6.338870	-0.054644	NaN	0.000000	0.001650	0.001670	28.083	0.087905	0.001908	46.0783	86.1896	-167.942	0.022898	0.337621	-0.724023	-0.725384	-0.054644	46.0783	-0.723134	-4.047721E+9	1.349994E-11	NaN
1023	1.000000	0.346993	7.37506e+06	-51289.1	1055.82	-29752.8	0.000000	0.000000	6.346882	-0.033994	NaN	0.000000	0.001638	0.001684	28.0831	0.069851	0.002092	33.3871	102.215	-168.158	-0.061503	0.345644	-0.716012	-0.717360	-0.033994	33.3871	-0.715248	-3.159772E+9	1.075829E-11	NaN
1023	1.000000	0.354968	7.37506e+06	-51289.1	1055.82	-29752.8	0.000000	0.000000	6.354858	-0.009436	NaN	0.000000	0.001646	0.001671	28.0828	0.053317	0.001965	27.1372	154.579	-167.686	0.020489	0.353731	-0.708037	-0.709274	-0.009436	27.1372	-0.707776	-2.498596E+9	3.776556E-12	NaN
1023	1.000000	0.362977	7.37506e+06	-51289.1	1055.82	-29752.8	0.000000	0.000000	6.362869	0.016906	NaN	0.000000	0.001673	0.001682	28.0829	0.019464	0.002010	9.684621	167.797	-169.976	-0.001431	0.361679	-0.700027	-0.701325	0.016906	9.684621	-0.701336	-2.040690E+9	-8.284420E-12	NaN
1023	1.000000	0.370980	7.37506e+06	-51289.1	1055.82	-29752.8	0.000000	0.000000	6.370871	0.001295	NaN	0.000000	0.001617	0.001683	28.0838	0.054954	0.002026	27.1198	-142.292	-165.724	-0.019262	0.369673	-0.692024	-0.693332	0.001295	27.1198	-0.692060	-1.524278E+9	-8.493383E-13	NaN
1023	1.000000	0.379014	7.37506e+06	-51289.1	1055.82	-29752.8	0.000000	0.000000	6.378906	0.019297	NaN	0.000000	0.001652	0.001721	28.0844	0.117160	0.002016	58.1225	178.416	-165.327	-0.055959	0.377691	-0.683990	-0.685314	0.019297	58.1225	-0.684239	-1.191705E+9	-1.619267E-11	NaN
1023	1.000000	0.387009	7.37506e+06	-51289.1	1055.82	-29752.8	0.000000	0.000000	6.386901	0.037040	NaN	0.000000	0.001676	0.001680	28.0843	0.065162	0.002026	32.1574	-1.229559	-168.332	0.089820	0.385660	-0.675996	-0.677344	0.037040	32.1574	-0.676860	-9.446063E+8	-3.921253E-11	NaN
1023	1.000000	0.394997	7.37506e+06	-51289.1	1055.82	-29752.8	0.000000	0.000000	6.394889	0.016278	NaN	0.000000	0.001657	0.001688	28.084	0.063791	0.002111	30.2182	-128.679	-168.166	0.006258	0.393679	-0.668007	-0.669326	0.016278	30.2182	-0.668411	-7.238389E+8	-2.248865E-11	NaN
1023	1.000000	0.403010	7.37506e+06	-51289.1	1055.82	-29752.8	0.000000	0.000000	6.402901	-0.003642	NaN	0.000000	0.001639	0.001700	28.0838	0.067763	0.001989	34.0608	131.988	-165.82	0.032077	0.401696	-0.659995	-0.661308	-0.003642	34.0608	-0.659914	-5.537264E+8	6.577215E-12	NaN
1023	1.000000	0.411004	7.37506e+06	-51289.1	1055.82	-29752.8	0.000000	0.000000	6.410894	-0.034156	NaN	0.000000	0.001624	0.001706	28.0838	0.076491	0.001970	38.828	28.1684	-168.689	-0.054119	0.409739	-0.652000	-0.653266	-0.034156	38.828	-0.651340	-4.224856E+8	8.084488E-11	NaN
1023	1.000000	0.419006	7.37506e+06	-51289.1	1055.82	-29752.8	0.000000	0.000000	6.418897	0.005251	NaN	0.000000	0.001632	0.001765	28.0839	0.081067	0.001821	44.5257	-48.8062	-164.968	0.081069	0.417699	-0.643998	-0.645305	0.005251	44.5257	-0.644086	-3.360073E+8	-1.562697E-11	NaN
1023	1.000000	0.427021	7.37506e+06	-51289.1	1055.82	-29752.8	0.000000	0.000000	6.426910	-0.063901	NaN	0.000000	0.001653	0.001716	28.0839	0.097534	0.002098	46.4998	-76.8958	-163.031	-0.011808	0.425671	-0.635983	-0.637334	-0.063901	46.4998	-0.634952	-2.517777E+8	2.537997E-10	NaN
1023	1.000000	0.435029	7.37506e+06	-51289.1	1055.82	-29752.8	0.000000	0.000000	6.434917	-0.061766	NaN	0.000000	0.001624	0.001702	28.084	0.062252	0.002057	30.2568	49.6235	-167.068	-0.065755	0.433733	-0.627976	-0.629271	-0.061766	30.2568	-0.626445	-1.923946E+8	3.210372E-10	NaN
1023	1.000000	0.442994	7.37506e+06	-51289.1	1055.82	-29752.8	0.000000	0.000000	6.442887	0.044132	NaN	0.000000	0.001649	0.001729	28.0844	0.062009	0.001992	31.1258	-63.5542	-162.17	0.030557	0.441651	-0.620010	-0.621353	0.044132	31.1258	-0.621073	-1.623250E+8	-2.718751E-10	NaN
1023	1.000000	0.451031	7.37506e+06	-51289.1	1055.82	-29752.8	0.000000	0.000000	6.450922	0.006080	NaN	0.000000	0.001657	0.001719	28.0843	0.061480	0.002139	28.7389	141.103	-163.877	-0.048636	0.449693	-0.611974	-0.613312	0.006080	28.7389	-0.612132	-1.223060E+8	-4.970872E-11	NaN
1023	1.000000	0.459037	7.37506e+06	-51289.1	1055.82	-29752.8	0.000000	0.000000	6.458927	-0.010526	NaN	0.000000	0.001624	0.001717	28.0841	0.099700	0.001987	50.1654	-32.1546	-167.522	-0.039733	0.457747	-0.603968	-0.605257	-0.010526	50.1654	-0.603810	-9.395701E+7	1.120325E-10	NaN
1023	1.000000	0.467011	7.37506e+06	-51289.1	1055.82	-29752.8	0.000000	0.000000	6.466903	0.027235	NaN	0.000000	0.001633	0.001697	28.0839	0.046179	0.002042	22.6142	36.7938	-163.825	-0.044845	0.465688	-0.595993	-0.597316	0.027235	22.6142	-0.596896	-7.545867E+7	-3.609264E-10	NaN
1023	1.000000	0.475030	7.37506e+06	-51289.1	1055.82	-29752.8	0.000000	0.000000	6.474922	0.037513	NaN	0.000000	0.001758	0.001691	28.0842	0.061560	0.001948	31.5977	-7.931236	-167.02	0.093601	0.473728	-0.587975	-0.589277	0.037513	31.5977	-0.588865	-5.848171E+7	-6.414494E-10	NaN
1023	1.000000	0.483045	7.37506e+06	-51289.1	1055.82	-29752.8	0.000000	0.000000	6.482933	-0.085417	NaN	0.000000	0.001656	0.001665	28.0841	0.082504	0.001945	42.4204	117.198	-164.78	-0.007868	0.481757	-0.579959	-0.581247	-0.085417	42.4204	-0.578449	-4.200658E+7	2.033423E-9	NaN
1023	1.000000	0.491064	7.37506e+06	-51289.1	1055.82	-29752.8	0.000000	0.000000	6.490958	0.059918	NaN	0.000000	0.001606	0.001661	28.084	0.108867	0.002212	49.22	123.327	-166.555	0.070343	0.489772	-0.571940	-0.573233	0.059918	49.22	-0.572853	-3.515978E+7	-1.704159E-9	NaN
1023	1.000000	0.499053	7.37506e+06	-51289.1	1055.82	-29752.8	0.000000	0.000000	6.498943	-0.010490	NaN	0.000000	0.001623	0.001683	28.0843	0.036138	0.002079	17.3838	-48.2824	-163.224	0.039548	0.497710	-0.563951	-0.565294	-0.010490	17.3838	-0.563499	-2.610782E+7	4.018004E-10	NaN
1023	1.000000	0.507026	7.37506e+06	-51289.1	1055.82	-29752.8	0.000000	0.000000	6.506917	0.010821	NaN	0.000000	0.001604	0.001704	28.0832	0.006111	0.001955	3.126202	-174.432	-167.914	-0.089629	0.505748	-0.555979	-0.557256	0.010821	3.126202	-0.558575	-2.231822E+7	-4.848647E-10	NaN
1023	1.000000	0.515067	7.37506e+06	-51289.1	1055.82	-29752.8	0.000000	0.000000	6.514960	0.044611	NaN	0.000000	0.001634	0.001694	28.083	0.171199	0.001951	87.7357	-134	-165.08	0.074305	0.513738	-0.547937	-0.549267	0.044611	87.7357	-0.548318	-1.609394E+7	-2.771939E-9	NaN
1023	1.000000	0.523057	7.37506e+06	-51289.1	1055.82	-29752.8	0.000000	0.000000	6.522949	0.026062	NaN	0.000000	0.001688	0.001720	28.0828	0.095846	0.002001	47.9063	-123.843	-165.304	0.012554	0.521718	-0.539947	-0.541286	0.026062	47.9063	-0.540355	-1.248206E+7	-2.087934E-9	NaN
1023	1.000000	0.531049	7.37506e+06	-51289.1	1055.82	-29752.8	0.000000	0.000000	6.530943	0.071734	NaN	0.000000	0.001651	0.001663	28.0829	0.069281	0.001973	35.12	107.325	-169.388	0.031153	0.529764	-0.531955	-0.533241	0.071734	35.12	-0.533487	-1.002287E+7	-7.156990E-9	NaN
1023	1.000000	0.539062	7.37506e+06	-51289.1	1055.82	-29752.8	0.000000	0.000000	6.538953	-0.018856	NaN	0.000000	0.001670	0.001667	28.0831	0.029922	0.001960	15.2625	159.044	-165.129	-0.017716	0.537800	-0.523942	-0.525204	-0.018856	15.2625	-0.523015	-7.1701e+06	2.629878E-9	NaN
1023	1.000000	0.547079	7.37506e+06	-51289.1	1055.82	-29752.8	0.000000	0.000000	6.546971	0.009724	NaN	0.000000	0.001658	0.001720	28.0827	0.055600	0.002086	26.6589	-56.1731	-161.843	0.009106	0.545772	-0.515925	-0.517232	0.009724	26.6589	-0.516199	-5.76385e+06	-1.687130E-9	NaN
1023	1.000000	0.555062	7.37506e+06	-51289.1	1055.82	-29752.8	0.000000	0.000000	6.554952	-0.033756	NaN	0.000000	0.001593	0.001714	28.0828	0.076579	0.002095	36.5557	2.176560	-166.702	-0.052902	0.553728	-0.507942	-0.509277	-0.033756	36.5557	-0.507249	-4.32607e+06	7.802927E-9	NaN
1023	1.000000	0.563074	7.37506e+06	-51289.1	1055.82	-29752.8	0.000000	0.000000	6.562965	0.005409	NaN	0.000000	0.001660	0.001690	28.0829	0.024276	0.001992	12.1841	178.963	-162.222	-0.040195	0.561753	-0.499930	-0.501252	0.005409	12.1841	-0.500263	-3.45692e+06	-1.564640E-9	NaN
1023	1.000000	0.571066	7.37506e+06	-51289.1	1055.82	-29752.8	0.000000	0.000000	6.570958	0.033233	NaN	0.000000	0.001634	0.001702	28.083	0.080646	0.001877	42.9574	-92.462	-165.718	0.018168	0.569779	-0.491938	-0.493225	0.033233	42.9574	-0.492519	-2.69514e+06	-1.233083E-8	NaN
1023	1.000000	0.579085	7.37506e+06	-51289.1	1055.82	-29752.8	0.000000	0.000000	6.578975	-0.008343	NaN	0.000000	0.001611	0.001731	28.0831	0.127534	0.001934	65.9529	172.05	-168.071	-0.108633	0.577737	-0.483919	-0.485267	-0.008343	65.9529	-0.483825	-2.03728e+06	4.095159E-9	NaN
1023	1.000000	0.587065	7.37506e+06	-51289.1	1055.82	-29752.8	0.000000	0.000000	6.586956	0.010106	NaN	0.000000	0.001622	0.001687	28.083	0.070285	0.002038	34.4924	9.029453	-164.78	-0.024472	0.585675	-0.475940	-0.477329	0.010106	34.4924	-0.476160	-1.59128e+06	-6.350654E-9	NaN
1023	1.000000	0.595105	7.37506e+06	-51289.1	1055.82	-29752.8	0.000000	0.000000	6.594994	-0.056925	NaN	0.000000	0.001617	0.001705	28.0831	0.025654	0.002107	12.1735	143.009	-168.41	-0.016377	0.593793	-0.467899	-0.469211	-0.056925	12.1735	-0.464392	-1.08822e+06	5.231029E-8	NaN
1023	1.000000	0.603058	7.37506e+06	-51289.1	1055.82	-29752.8	0.000000	0.000000	6.602952	0.068160	NaN	0.000000	0.001632	0.001714	28.083	0.189601	0.001866	101.596	165.333	-168.554	0.095180	0.601779	-0.459946	-0.461225	0.068160	101.596	-0.460449	-957922	-7.115352E-8	NaN
1023	1.000000	0.611113	7.37506e+06	-51289.1	1055.82	-29752.8	0.000000	0.000000	6.611008	0.097512	NaN	0.000000	0.001643	0.001689	28.083	0.073734	0.001957	37.6709	-41.9056	-161.248	0.110215	0.609765	-0.451891	-0.453240	0.097512	37.6709	-0.453833	-773209	-1.261139E-7	NaN
1023	1.000000	0.619119	7.37506e+06	-51289.1	1055.82	-29752.8	0.000000	0.000000	6.619013	0.094101	NaN	0.000000	0.001654	0.001670	28.083	0.022709	0.002003	11.3398	-64.7494	-166.294	0.141656	0.617814	-0.443886	-0.445190	0.094101	11.3398	-0.450110	-685308	-1.373120E-7	NaN
1023	1.000000	0.627094	7.37506e+06	-51289.1	1055.82	-29752.8	0.000000	0.000000	6.626982	-0.056662	NaN	0.000000	0.001640	0.001689	28.0829	0.028176	0.001839	15.3182	154.217	-167.522	0.048731	0.625816	-0.435911	-0.437189	-0.056662	15.3182	-0.433136	-394835	1.435077E-7	NaN
1023	1.000000	0.635115	7.37506e+06	-51289.1	1055.82	-29752.8	0.000000	0.000000	6.635006	0.002079	NaN	0.000000	0.001603	0.001688	28.083	0.071047	0.001886	37.6641	-105.511	-163.111	0.025483	0.633770	-0.427889	-0.429234	0.002079	37.6641	-0.427931	-333256	-6.237033E-9	NaN
1023	1.000000	0.643101	7.37506e+06	-51289.1	1055.82	-29752.8	0.000000	0.000000	6.642991	-0.018093	NaN	0.000000	0.001634	0.001736	28.0835	0.032633	0.001959	16.6559	-149.037	-166.025	-0.076727	0.641807	-0.419903	-0.421197	-0.018093	16.6559	-0.419088	-249738	7.244666E-8	NaN
1023	1.000000	0.651108	7.37506e+06	-51289.1	1055.82	-29752.8	0.000000	0.000000	6.651001	0.057850	NaN	0.000000	0.001621	0.001725	28.0844	0.170550	0.001966	86.7532	-137.631	-165.511	0.018099	0.649841	-0.411897	-0.413164	0.057850	86.7532	-0.412397	-200666	-2.882896E-7	NaN
1023	1.000000	0.659101	7.37506e+06	-51289.1	1055.82	-29752.8	0.000000	0.000000	6.658993	0.007310	NaN	0.000000	0.001611	0.001722	28.0843	0.069660	0.001920	36.2774	97.4265	-163.557	-0.007272	0.657726	-0.403903	-0.405278	0.007310	36.2774	-0.404054	-152678	-4.788186E-8	NaN
1023	1.000000	0.667140	7.37506e+06	-51289.1	1055.82	-29752.8	0.000000	0.000000	6.667032	0.017856	NaN	0.000000	0.001606	0.001734	28.0847	0.010632	0.002012	5.284859	-16.4388	-165.066	0.055157	0.665819	-0.395864	-0.397186	0.017856	5.284859	-0.398398	-126807	-1.408148E-7	NaN
1023	1.000000	0.675129	7.37506e+06	-51289.1	1055.82	-29752.8	0.000000	0.000000	6.675022	0.037897	NaN	0.000000	0.001645	0.001786	28.0842	0.067485	0.002047	32.9628	-85.6313	-166.437	-0.013436	0.673821	-0.387875	-0.389183	0.037897	32.9628	-0.388738	-92279.3	-4.106731E-7	NaN
1023	1.000000	0.683104	7.37506e+06	-51289.1	1055.82	-29752.8	0.000000	0.000000	6.682994	-0.028297	NaN	0.000000	0.001601	0.001743	28.0842	0.102911	0.001994	51.6231	124.2	-165.858	0.095616	0.681817	-0.379900	-0.381187	-0.028297	51.6231	-0.379489	-68007.7	4.160908E-7	NaN
1023	1.000000	0.691132	7.37506e+06	-51289.1	1055.82	-29752.8	0.000000	0.000000	6.691021	-0.042054	NaN	0.000000	0.001610	0.001719	28.0845	0.064233	0.002098	30.6218	-30.9063	-168.813	0.003852	0.689816	-0.371872	-0.373188	-0.042054	30.6218	-0.370842	-51080.3	8.232887E-7	NaN
1023	1.000000	0.699133	7.37506e+06	-51289.1	1055.82	-29752.8	0.000000	0.000000	6.699025	0.017648	NaN	0.000000	0.001636	0.001691	28.0845	0.062187	0.002129	29.2138	-29.6728	-164.243	0.023644	0.697840	-0.363871	-0.365164	0.017648	29.2138	-0.364324	-41143.3	-4.289346E-7	NaN
1023	1.000000	0.707118	7.37506e+06	-51289.1	1055.82	-29752.8	0.000000	0.000000	6.707008	-0.031784	NaN	0.000000	0.001616	0.001705	28.0846	0.145018	0.001934	75.001	-28.3964	-166.313	0.021711	0.705833	-0.355886	-0.357172	-0.031784	75.001	-0.355568	-30741.4	1.033929E-6	NaN
1023	1.000000	0.715139	7.37506e+06	-51289.1	1055.82	-29752.8	0.000000	0.000000	6.715031	0.023522	NaN	0.000000	0.001646	0.001693	28.0841	0.047302	0.001997	23.6866	89.2559	-164.678	0.012377	0.713819	-0.347865	-0.349185	0.023522	23.6866	-0.348610	-24367.9	-9.652985E-7	NaN
1023	1.000000	0.723118	7.37506e+06	-51289.1	1055.82	-29752.8	0.000000	0.000000	6.723009	0.000423	NaN	0.000000	0.001647	0.001691	28.0843	0.144576	0.002177	66.3954	-56.2365	-167.412	-0.035850	0.721808	-0.339887	-0.341197	0.000423	66.3954	-0.339892	-18195.9	-2.324910E-8	NaN
1023	1.000000	0.731106	7.37506e+06	-51289.1	1055.82	-29752.8	0.000000	0.000000	6.731000	0.094421	NaN	0.000000	0.001643	0.001719	28.0841	0.128716	0.002079	61.92	-167.537	-166.968	0.059925	0.729838	-0.331899	-0.333166	0.094421	61.92	-0.333042	-14453.5	-6.532708E-6	NaN
1023	1.000000	0.739139	7.37506e+06	-51289.1	1055.82	-29752.8	0.000000	0.000000	6.739029	-0.013673	NaN	0.000000	0.001604	0.001694	28.0841	0.071160	0.001978	35.9696	84.1284	-165.385	-0.030091	0.737899	-0.323865	-0.325106	-0.013673	35.9696	-0.323580	-10502.4	1.301914E-6	NaN
1023	1.000000	0.747161	7.37506e+06	-51289.1	1055.82	-29752.8	0.000000	0.000000	6.747049	-0.081075	NaN	0.000000	0.001640	0.001692	28.0844	0.070313	0.001897	37.0567	74.1495	-166.619	0.059499	0.745846	-0.315843	-0.317159	-0.081075	37.0567	-0.314202	-7641.32	1.061006E-5	NaN
1023	1.000000	0.755121	7.37506e+06	-51289.1	1055.82	-29752.8	0.000000	0.000000	6.755013	0.036575	NaN	0.000000	0.001634	0.001657	28.0841	0.093574	0.001944	48.1261	83.7455	-165.667	-0.021448	0.753860	-0.307884	-0.309145	0.036575	48.1261	-0.308454	-6282.92	-5.821299E-6	NaN
1023	1.000000	0.763159	7.37506e+06	-51289.1	1055.82	-29752.8	0.000000	0.000000	6.763050	-0.010703	NaN	0.000000	0.001628	0.001692	28.0844	0.054959	0.002082	26.3931	-16.8995	-167.028	-0.065639	0.761857	-0.299845	-0.301148	-0.010703	26.3931	-0.299541	-4632.36	2.310479E-6	NaN
1023	1.000000	0.771171	7.37506e+06	-51289.1	1055.82	-29752.8	0.000000	0.000000	6.771059	-0.057770	NaN	0.000000	0.001610	0.001678	28.0844	0.055399	0.002105	26.3121	-18.0087	-163.793	-0.031390	0.769836	-0.291833	-0.293168	-0.057770	26.3121	-0.290187	-3358.15	1.720296E-5	NaN
1023	1.000000	0.779144	7.37506e+06	-51289.1	1055.82	-29752.8	0.000000	0.000000	6.779038	0.061607	NaN	0.000000	0.001630	0.001668	28.084	0.079343	0.002153	36.8582	-85.3008	-163.585	0.006833	0.777882	-0.283860	-0.285122	0.061607	36.8582	-0.285114	-2818.22	-2.186025E-5	NaN
1023	1.000000	0.787153	7.37506e+06	-51289.1	1055.82	-29752.8	0.000000	0.000000	6.787044	0.009992	NaN	0.000000	0.001649	0.001683	28.0833	0.068667	0.001971	34.8447	159.747	-165.7	0.032001	0.785815	-0.275852	-0.277189	0.009992	34.8447	-0.276067	-2058.48	-4.854077E-6	NaN
1023	1.000000	0.795174	7.37506e+06	-51289.1	1055.82	-29752.8	0.000000	0.000000	6.795064	-0.023547	NaN	0.000000	0.001623	0.001692	28.083	0.057913	0.001995	29.0239	-42.5582	-162.932	0.067619	0.793836	-0.267830	-0.269168	-0.023547	29.0239	-0.267222	-1511.02	1.558369E-5	NaN
1023	1.000000	0.803136	7.37506e+06	-51289.1	1055.82	-29752.8	0.000000	0.000000	6.803028	0.025395	NaN	0.000000	0.001606	0.001695	28.083	0.079594	0.001887	42.175	30.2	-167.232	0.046656	0.801821	-0.259868	-0.261183	0.025395	42.175	-0.260320	-1185.27	-2.142564E-5	NaN
1023	1.000000	0.811164	7.37506e+06	-51289.1	1055.82	-29752.8	0.000000	0.000000	6.811053	-0.041158	NaN	0.000000	0.001621	0.001708	28.0831	0.115486	0.001966	58.7457	22.8402	-165.002	-0.030744	0.809900	-0.251840	-0.253104	-0.041158	58.7457	-0.251315	-861.571	4.777092E-5	NaN
1023	1.000000	0.819198	7.37506e+06	-51289.1	1055.82	-29752.8	0.000000	0.000000	6.819089	-0.006627	NaN	0.000000	0.001593	0.001746	28.083	0.072094	0.002072	34.7907	-79.1943	-163.639	0.011216	0.817873	-0.243806	-0.245131	-0.006627	34.7907	-0.243664	-655.644	1.010798E-5	NaN
1023	1.000000	0.827179	7.37506e+06	-51289.1	1055.82	-29752.8	0.000000	0.000000	6.827071	0.023227	NaN	0.000000	0.001631	0.001741	28.0832	0.102596	0.001909	53.7483	-154.654	-163.324	0.071462	0.825875	-0.235825	-0.237130	0.023227	53.7483	-0.236150	-500.367	-4.642025E-5	NaN
1023	1.000000	0.835152	7.37506e+06	-51289.1	1055.82	-29752.8	0.000000	0.000000	6.835043	-0.003587	NaN	0.000000	0.001653	0.001712	28.083	0.031007	0.002048	15.1433	156.756	-162.568	-0.014262	0.833888	-0.227852	-0.229116	-0.003587	15.1433	-0.227674	-367.914	9.748275E-6	NaN
1023	1.000000	0.843171	7.37506e+06	-51289.1	1055.82	-29752.8	0.000000	0.000000	6.843060	-0.034827	NaN	0.000000	0.001631	0.001690	28.083	0.032098	0.002130	15.0679	17.285	-165.726	0.046588	0.841893	-0.219834	-0.221112	-0.034827	15.0679	-0.218100	-258.986	0.000134	NaN
1023	1.000000	0.851174	7.37506e+06	-51289.1	1055.82	-29752.8	0.000000	0.000000	6.851064	-0.002946	NaN	0.000000	0.001642	0.001688	28.0831	0.025003	0.002147	11.6429	-79.0313	-164.75	-0.042164	0.849856	-0.211831	-0.213149	-0.002946	11.6429	-0.211641	-203.874	1.445036E-5	NaN
1023	1.000000	0.859173	7.37506e+06	-51289.1	1055.82	-29752.8	0.000000	0.000000	6.859066	0.044237	NaN	0.000000	0.001641	0.001694	28.0831	0.123867	0.001903	65.0817	153.958	-165.762	0.025640	0.857897	-0.203831	-0.205107	0.044237	65.0817	-0.204341	-155.167	-0.000285	NaN
1023	1.000000	0.867150	7.37506e+06	-51289.1	1055.82	-29752.8	0.000000	0.000000	6.867041	-0.005003	NaN	0.000000	0.001638	0.001693	28.0832	0.109228	0.002041	53.5105	136.338	-160.55	0.002486	0.865899	-0.195855	-0.197105	-0.005003	53.5105	-0.195784	-112.251	4.457350E-5	NaN
1023	1.000000	0.875212	7.37506e+06	-51289.1	1055.82	-29752.8	0.000000	0.000000	6.875104	0.032889	NaN	0.000000	0.001641	0.001649	28.0829	0.022116	0.001932	11.4482	-101.144	-165.02	0.018612	0.873867	-0.187792	-0.189137	0.032889	11.4482	-0.189947	-89.7722	-0.000366	NaN
1023	1.000000	0.883209	7.37506e+06	-51289.1	1055.82	-29752.8	0.000000	0.000000	6.883098	-0.038303	NaN	0.000000	0.001656	0.001678	28.0834	0.170924	0.001946	87.8169	10.6066	-165.506	-0.080120	0.881946	-0.179796	-0.181059	-0.038303	87.8169	-0.179468	-59.7611	0.000641	NaN
1023	1.000000	0.891215	7.37506e+06	-51289.1	1055.82	-29752.8	0.000000	0.000000	6.891107	0.011563	NaN	0.000000	0.001648	0.001676	28.0832	0.068095	0.001998	34.0794	-133.551	-162.636	0.082512	0.889897	-0.171789	-0.173108	0.011563	34.0794	-0.172044	-44.5682	-0.000259	NaN
1023	1.000000	0.899215	7.37506e+06	-51289.1	1055.82	-29752.8	0.000000	0.000000	6.899104	-0.033770	NaN	0.000000	0.001636	0.001697	28.0832	0.051311	0.002006	25.578	-163.193	-169.127	-0.000589	0.897898	-0.163790	-0.165107	-0.033770	25.578	-0.162799	-30.7301	0.001099	NaN
1023	1.000000	0.907229	7.37506e+06	-51289.1	1055.82	-29752.8	0.000000	0.000000	6.907118	-0.026446	NaN	0.000000	0.001645	0.001691	28.0831	0.052639	0.001906	27.6189	-99.5953	-163.803	0.064708	0.905960	-0.155776	-0.157045	-0.026446	27.6189	-0.155058	-22.3675	0.001182	NaN
1023	1.000000	0.915208	7.37506e+06	-51289.1	1055.82	-29752.8	0.000000	0.000000	6.915099	0.008048	NaN	0.000000	0.001636	0.001682	28.0834	0.125261	0.002013	62.2108	124.651	-165.002	0.024669	0.913883	-0.147797	-0.149122	0.008048	62.2108	-0.147894	-16.5759	-0.000486	NaN
1023	1.000000	0.923164	7.37506e+06	-51289.1	1055.82	-29752.8	0.000000	0.000000	6.923055	0.007645	NaN	0.000000	0.001627	0.001682	28.0845	0.033394	0.002051	16.285	60.0853	-165.788	0.002685	0.921878	-0.139840	-0.141126	0.007645	16.285	-0.140192	-11.9284	-0.000641	NaN
1023	1.000000	0.931206	7.37506e+06	-51289.1	1055.82	-29752.8	0.000000	0.000000	6.931098	0.014129	NaN	0.000000	0.001603	0.001698	28.0844	0.026886	0.002101	12.7946	52.3069	-166.592	0.087010	0.929905	-0.131798	-0.133099	0.014129	12.7946	-0.132627	-8.566322	-0.001649	NaN
1023	1.000000	0.939232	7.37506e+06	-51289.1	1055.82	-29752.8	0.000000	0.000000	6.939124	0.027025	NaN	0.000000	0.001636	0.001708	28.0847	0.064282	0.001942	33.0984	46.4239	-162.659	0.059550	0.937915	-0.123772	-0.125090	0.027025	33.0984	-0.124385	-5.912984	-0.004570	NaN
1023	1.000000	0.947222	7.37506e+06	-51289.1	1055.82	-29752.8	0.000000	0.000000	6.947113	0.006541	NaN	0.000000	0.001683	0.001717	28.0843	0.101982	0.002142	47.6204	36.0399	-163.075	-0.059892	0.945903	-0.115783	-0.117101	0.006541	47.6204	-0.115886	-3.984074	-0.001642	NaN
1023	1.000000	0.955214	7.37506e+06	-51289.1	1055.82	-29752.8	0.000000	0.000000	6.955109	0.077310	NaN	0.000000	0.001618	0.001719	28.0847	0.070177	0.001922	36.5099	45.402	-165.464	0.005699	0.953892	-0.107790	-0.109113	0.077310	36.5099	-0.109378	-2.915676	-0.026515	NaN
1023	1.000000	0.963257	7.37506e+06	-51289.1	1055.82	-29752.8	0.000000	0.000000	6.963148	0.000825	NaN	0.000000	0.001643	0.001693	28.0843	0.068694	0.002121	32.395	23.9088	-162.111	-0.012704	0.961924	-0.099748	-0.101081	0.000825	32.395	-0.099767	-1.805518	-0.000457	NaN
1023	1.000000	0.971204	7.37506e+06	-51289.1	1055.82	-29752.8	0.000000	0.000000	6.971096	0.020900	NaN	0.000000	0.001643	0.001731	28.0845	0.065540	0.002117	30.9605	-150.011	-162.151	0.024841	0.969978	-0.091800	-0.093026	0.020900	30.9605	-0.092307	-1.223394	-0.017084	NaN
1023	1.000000	0.979261	7.37506e+06	-51289.1	1055.82	-29752.8	0.000000	0.000000	6.979153	0.010434	NaN	0.000000	0.001633	0.001707	28.0845	0.021459	0.001875	11.4453	21.5407	-166.127	0.026004	0.977872	-0.083743	-0.085133	0.010434	11.4453	-0.084427	-0.795749	-0.013112	NaN
1023	1.000000	0.987251	7.37506e+06	-51289.1	1055.82	-29752.8	0.000000	0.000000	6.987140	-0.058559	NaN	0.000000	0.001608	0.001748	28.0843	0.073856	0.002030	36.3778	113.904	-162.891	-0.056154	0.985932	-0.075753	-0.077073	-0.058559	36.3778	-0.074546	-0.449518	0.130270	NaN
1023	1.000000	0.995235	7.37506e+06	-51289.1	1055.82	-29752.8	0.000000	0.000000	6.995126	0.014059	NaN	0.000000	0.001615	0.001681	28.0846	0.025739	0.002040	12.6196	82.0157	-165.036	-0.002285	0.993981	-0.067770	-0.069024	0.014059	12.6196	-0.068605	-0.312858	-0.044938	NaN
1023	1.000000	1.003232	7.37506e+06	-51289.1	1055.82	-29752.8	0.000000	0.000000	7.003124	0.029132	NaN	0.000000	0.001651	0.001699	28.0844	0.116002	0.001945	59.6395	-14.0534	-165.554	-0.006729	1.001948	-0.059773	-0.061056	0.029132	59.6395	-0.060139	-0.181755	-0.160282	NaN
1023	1.000000	1.011249	7.37506e+06	-51289.1	1055.82	-29752.8	0.000000	0.000000	7.011137	-0.065031	NaN	0.000000	0.001630	0.001704	28.0842	0.085574	0.002141	39.9621	23.0743	-164.448	-0.026437	1.009979	-0.051756	-0.053025	-0.065031	39.9621	-0.050535	-0.094713	0.686612	NaN
1023	1.000000	1.019260	7.37506e+06	-51289.1	1055.82	-29752.8	0.000000	0.000000	7.019151	0.003851	NaN	0.000000	0.001627	0.001669	28.0847	0.067659	0.001937	34.9327	115.078	-167.525	0.001754	1.017958	-0.043744	-0.045046	0.003851	34.9327	-0.043827	-0.059171	-0.065082	NaN
1023	1.000000	1.027259	7.37506e+06	-51289.1	1055.82	-29752.8	0.000000	0.000000	7.027149	-1.743474E-5	NaN	0.000000	0.001636	0.001714	28.0844	0.151562	0.001930	78.5458	46.193	-168.306	0.010934	1.025955	-0.035746	-0.037050	-1.743474E-5	78.5458	-0.035746	-0.033691	0.000517	NaN
1023	1.000000	1.035275	7.37506e+06	-51289.1	1055.82	-29752.8	0.000000	0.000000	7.035166	-0.001099	NaN	0.000000	0.001618	0.001705	28.0844	0.073769	0.002132	34.5985	-168.082	-165.171	-0.000105	1.033965	-0.027729	-0.029039	-0.001099	34.5985	-0.027705	-0.019906	0.055199	NaN
1023	1.000000	1.043288	7.37506e+06	-51289.1	1055.82	-29752.8	0.000000	0.000000	7.043175	-0.100569	NaN	0.000000	0.001634	0.001671	28.0843	0.055262	0.002030	27.2284	30.9213	-164.08	-0.139070	1.041967	-0.019716	-0.021038	-0.100569	27.2284	-0.016946	-0.010476	9.599909	NaN
1023	1.000000	1.051281	7.37506e+06	-51289.1	1055.82	-29752.8	0.000000	0.000000	7.051174	0.042891	NaN	0.000000	0.001629	0.001672	28.0845	0.131016	0.001904	68.8169	-82.4902	-165.801	0.091895	1.049960	-0.011723	-0.013044	0.042891	68.8169	-0.012191	-0.007638	-5.615842	NaN
1023	1.000000	1.059267	7.37506e+06	-51289.1	1055.82	-29752.8	0.000000	0.000000	7.059172	0.333285	NaN	0.000000	0.001595	0.001694	28.0832	0.565554	0.001837	307.843	20.1965	-168.64	0.017103	1.057991	-0.003737	-0.005014	0.333285	307.843	-0.004549	-0.003132	-106.424	NaN
1023	1.000000	1.067153	7.37506e+06	-51289.1	1055.82	-29752.8	0.000000	0.000000	7.067353	7.511247	NaN	0.000000	0.001625	0.001689	28.083	7.688055	0.001755	4380.9	13.8071	-170.922	6.055564	1.065938	0.004149	0.002933	7.511247	4380.9	0.002863	0.002265	3316.77	84108.2
1023	2.000000	1.069858	7.37506e+06	-51289.1	1055.82	-29752.8	0.000000	0.000000	7.070146	9.660222	NaN	0.000000	0.001682	0.001703	28.0837	9.778658	0.001655	5907.53	9.100871	-174.399	8.705990	1.069526	0.006854	0.006522	9.660222	5907.53	0.005627	0.004713	2049.68	78619.2
1023	2.000000	1.071848	7.37506e+06	-51289.1	1055.82	-29752.8	0.000000	0.000000	7.072233	12.0232	NaN	0.000000	0.001648	0.001664	28.083	12.6422	0.001789	7066.46	7.877877	-175.137	11.8019	1.071553	0.008844	0.008549	12.0232	7066.46	0.007568	0.006601	1821.32	79461.8
1023	2.000000	1.073820	7.37506e+06	-51289.1	1055.82	-29752.8	0.000000	0.000000	7.074406	16.8918	NaN	0.000000	0.001662	0.001665	28.083	14.1	0.001711	8238.9	3.654598	-170.076	16.6187	1.073505	0.010816	0.010501	16.8918	8238.9	0.009278	0.008390	2013.29	82178.5
1023	2.000000	1.075828	7.37506e+06	-51289.1	1055.82	-29752.8	0.000000	0.000000	7.076595	21.3062	NaN	0.000000	0.001651	0.001678	28.0832	17.23	0.001766	9756.46	4.685520	-173.034	20.4933	1.075442	0.012823	0.012438	21.3062	9756.46	0.011185	0.010529	2023.58	86870.7
1023	2.000000	1.077801	7.37506e+06	-51289.1	1055.82	-29752.8	0.000000	0.000000	7.078748	25.6812	NaN	0.000000	0.001646	0.001728	28.083	19.1847	0.001783	10757.9	7.656455	-176.044	25.098	1.077420	0.014796	0.014416	25.6812	10757.9	0.013006	0.012717	2019.4	87157.7
1023	2.000000	1.079738	7.37506e+06	-51289.1	1055.82	-29752.8	0.000000	0.000000	7.080865	30.0475	NaN	0.000000	0.001613	0.001701	28.0834	21.1997	0.001795	11810.3	7.339021	-177.509	27.8356	1.079444	0.016734	0.016440	30.0475	11810.3	0.014826	0.015054	1995.99	87944.5
1023	2.000000	1.081776	7.37506e+06	-51289.1	1055.82	-29752.8	0.000000	0.000000	7.082980	31.9282	NaN	0.000000	0.001602	0.001713	28.083	23.5834	0.001732	13616.5	5.842679	-178.628	32.1154	1.081522	0.018772	0.018517	31.9282	13616.5	0.017013	0.018064	1767.45	92560.4
1023	2.000000	1.083809	7.37506e+06	-51289.1	1055.82	-29752.8	0.000000	0.000000	7.085288	38.6096	NaN	0.000000	0.001592	0.001698	28.0832	25.1059	0.001642	15289.8	4.919443	-178.58	37.9497	1.083537	0.020805	0.020532	38.6096	15289.8	0.018911	0.020860	1850.93	96721.3
1023	2.000000	1.085783	7.37506e+06	-51289.1	1055.82	-29752.8	0.000000	0.000000	7.087475	43.803	NaN	0.000000	0.001600	0.001727	28.0831	28.3224	0.001739	16288.9	6.760921	179.478	43.9516	1.085513	0.022779	0.022509	43.803	16288.9	0.020762	0.023754	1844.04	96560.2
1023	2.000000	1.087768	7.37506e+06	-51289.1	1055.82	-29752.8	0.000000	0.000000	7.089754	50.9622	NaN	0.000000	0.001591	0.001710	28.0831	30.0794	0.001706	17635.9	5.193724	-178.899	49.6808	1.087457	0.024763	0.024452	50.9622	17635.9	0.022596	0.026787	1902.51	98448.5
1023	2.000000	1.089758	7.37506e+06	-51289.1	1055.82	-29752.8	0.000000	0.000000	7.091959	56.1756	NaN	0.000000	0.001591	0.001705	28.0835	31.6454	0.001728	18310.5	4.872048	-179.236	55.609	1.089481	0.026754	0.026477	56.1756	18310.5	0.024453	0.030028	1870.79	96541.1
1023	2.000000	1.091727	7.37506e+06	-51289.1	1055.82	-29752.8	0.000000	0.000000	7.094192	62.6109	NaN	0.000000	0.001642	0.001676	28.0831	33.979	0.001742	19506.9	4.210838	179.825	60.6941	1.091470	0.028722	0.028466	62.6109	19506.9	0.026315	0.033451	1871.7	97443.8
1023	2.000000	1.093684	7.37506e+06	-51289.1	1055.82	-29752.8	0.000000	0.000000	7.096443	69.7374	NaN	0.000000	0.001578	0.001745	28.0833	34.4522	0.001751	19681.1	2.451216	-178.397	66.6689	1.093407	0.030680	0.030403	69.7374	19681.1	0.028022	0.036744	1897.9	93805.3
1023	2.000000	1.095726	7.37506e+06	-51289.1	1055.82	-29752.8	0.000000	0.000000	7.098713	75.2908	NaN	0.000000	0.001599	0.001745	28.083	38.1162	0.001853	20565.8	6.105280	178.345	74.2064	1.095441	0.032722	0.032437	75.2908	20565.8	0.029976	0.040694	1850.17	93143.7
1023	2.000000	1.097758	7.37506e+06	-51289.1	1055.82	-29752.8	0.000000	0.000000	7.101017	81.8988	NaN	0.000000	0.001640	0.001706	28.0828	39.0236	0.001713	22782.2	2.120600	-179.182	80.4041	1.097479	0.034754	0.034475	81.8988	22782.2	0.032058	0.045117	1815.25	97993.8
1023	2.000000	1.099727	7.37506e+06	-51289.1	1055.82	-29752.8	0.000000	0.000000	7.103391	91.748	NaN	0.000000	0.001644	0.001723	28.0846	40.828	0.001766	23113.3	3.924381	179.611	89.8776	1.099388	0.036722	0.036384	91.748	23113.3	0.033745	0.048864	1877.61	95529.9
1023	2.000000	1.101784	7.37506e+06	-51289.1	1055.82	-29752.8	0.000000	0.000000	7.105607	95.6178	NaN	0.000000	0.001656	0.001709	28.0844	43.2001	0.001859	23243.3	4.453140	178.768	96.4472	1.101450	0.038780	0.038446	95.6178	23243.3	0.035694	0.053375	1791.44	91918.3
1023	2.000000	1.103701	7.37506e+06	-51289.1	1055.82	-29752.8	0.000000	0.000000	7.108181	111.575	NaN	0.000000	0.001673	0.001745	28.0851	44.1788	0.001671	26446.3	3.618905	178.695	108.744	1.103323	0.040697	0.040319	111.575	26446.3	0.037533	0.057808	1930.09	100495
1023	2.000000	1.105692	7.37506e+06	-51289.1	1055.82	-29752.8	0.000000	0.000000	7.110553	120.863	NaN	0.000000	0.001648	0.001696	28.0845	46.7003	0.001877	24877.8	4.275715	179.035	118.076	1.105355	0.042687	0.042350	120.863	24877.8	0.039044	0.061580	1962.7	91593.4
1023	2.000000	1.107742	7.37506e+06	-51289.1	1055.82	-29752.8	0.000000	0.000000	7.112990	130.251	NaN	0.000000	0.001672	0.001666	28.0845	48.5584	0.001829	26550.8	3.923034	178.97	127.615	1.107382	0.044738	0.044377	130.251	26550.8	0.041059	0.066793	1950.08	93861.3
1023	2.000000	1.109656	7.37506e+06	-51289.1	1055.82	-29752.8	0.000000	0.000000	7.115289	139.646	NaN	0.000000	0.001721	0.001648	28.0845	50.4083	0.001777	28360.5	8.588900	173.027	136.654	1.109434	0.046651	0.046429	139.646	28360.5	0.042958	0.071897	1942.32	96634.4
1023	2.000000	1.111759	7.37506e+06	-51289.1	1055.82	-29752.8	0.000000	0.000000	7.117764	148.676	NaN	0.000000	0.001686	0.001637	28.0846	52.5865	0.001734	30331.9	2.123619	179.056	149.013	1.111372	0.048754	0.048368	148.676	30331.9	0.045078	0.077809	1910.77	99347.6
1023	2.000000	1.113771	7.37506e+06	-51289.1	1055.82	-29752.8	0.000000	0.000000	7.120252	160.243	NaN	0.000000	0.001659	0.001633	28.0858	53.2643	0.001774	30017.2	3.115599	177.935	161.663	1.113378	0.050767	0.050374	160.243	30017.2	0.046763	0.082671	1938.32	95382
1023	2.000000	1.115733	7.37506e+06	-51289.1	1055.82	-29752.8	0.000000	0.000000	7.122368	164	NaN	0.000000	0.001705	0.001665	28.0846	56.563	0.001818	31109.1	1.992944	178.865	163.919	1.115447	0.052728	0.052443	164	31109.1	0.048774	0.088662	1849.72	95453.2
1023	2.000000	1.117799	7.37506e+06	-51289.1	1055.82	-29752.8	0.000000	0.000000	7.125064	179.311	NaN	0.000000	0.001703	0.001645	28.0845	58.3195	0.001802	32354.8	4.105969	177.133	182.241	1.117391	0.054795	0.054386	179.311	32354.8	0.050639	0.094397	1899.54	96212.7
1023	2.000000	1.119720	7.37506e+06	-51289.1	1055.82	-29752.8	0.000000	0.000000	7.127005	179.791	NaN	0.000000	0.001648	0.001627	28.0843	60.1336	0.001858	32371.7	1.586960	179.004	178.432	1.119524	0.056716	0.056520	179.791	32371.7	0.052550	0.100459	1789.69	93313.3
1023	2.000000	1.121633	7.37506e+06	-51289.1	1055.82	-29752.8	0.000000	0.000000	7.129595	196.256	NaN	0.000000	0.001703	0.001646	28.0842	61.3434	0.001848	33203.2	3.565385	177.445	193.343	1.121369	0.058629	0.058365	196.256	33203.2	0.054196	0.105822	1854.59	93253.6
1023	2.000000	1.123680	7.37506e+06	-51289.1	1055.82	-29752.8	0.000000	0.000000	7.131870	201.8	NaN	0.000000	0.001612	0.001610	28.0843	63.3073	0.001879	33683.3	4.710814	175.57	198.732	1.123437	0.060676	0.060433	201.8	33683.3	0.056182	0.112476	1794.17	91761.1
1023	2.000000	1.125695	7.37506e+06	-51289.1	1055.82	-29752.8	0.000000	0.000000	7.134267	211.093	NaN	0.000000	0.001605	0.001647	28.0842	65.9313	0.001942	33954.6	4.986275	175.262	210.304	1.125396	0.062690	0.062392	211.093	33954.6	0.058028	0.118831	1776.41	89992.6
1023	2.000000	1.127752	7.37506e+06	-51289.1	1055.82	-29752.8	0.000000	0.000000	7.136867	224.311	NaN	0.000000	0.001641	0.001676	28.0847	67.1105	0.001850	36278.8	7.919241	172.06	223.872	1.127377	0.064747	0.064373	224.311	36278.8	0.060110	0.126203	1777.38	93302.1
1023	2.000000	1.129630	7.37506e+06	-51289.1	1055.82	-29752.8	0.000000	0.000000	7.139160	234.377	NaN	0.000000	0.001617	0.001629	28.0842	68.0959	0.001834	37136.5	8.484537	171.008	232.545	1.129430	0.066626	0.066426	234.377	37136.5	0.061892	0.132681	1766.46	93147
1023	2.000000	1.131630	7.37506e+06	-51289.1	1055.82	-29752.8	0.000000	0.000000	7.141717	247.945	NaN	0.000000	0.001639	0.001674	28.0841	70.9362	0.001909	37153.4	6.115191	173.273	243.126	1.131375	0.068625	0.068370	247.945	37153.4	0.063620	0.139108	1782.39	91011.2
1023	2.000000	1.133652	7.37506e+06	-51289.1	1055.82	-29752.8	0.000000	0.000000	7.144448	265.187	NaN	0.000000	0.001629	0.001661	28.083	70.6932	0.001784	39629.4	4.358831	174.348	262.355	1.133361	0.070647	0.070357	265.187	39629.4	0.065629	0.146762	1806.92	94511.4
1023	2.000000	1.135680	7.37506e+06	-51289.1	1055.82	-29752.8	0.000000	0.000000	7.146721	271.125	NaN	0.000000	0.001629	0.001688	28.0827	74.3102	0.001726	43052.2	3.753789	174.189	269.222	1.135390	0.072676	0.072385	271.125	43052.2	0.067953	0.155860	1739.55	99632.6
1023	2.000000	1.137633	7.37506e+06	-51289.1	1055.82	-29752.8	0.000000	0.000000	7.149536	292.104	NaN	0.000000	0.001661	0.001669	28.0833	75.8569	0.001815	41802.1	1.602298	177.562	286.393	1.137327	0.074628	0.074323	292.104	41802.1	0.069388	0.161605	1807.52	95004.4
1023	2.000000	1.139715	7.37506e+06	-51289.1	1055.82	-29752.8	0.000000	0.000000	7.151911	299.226	NaN	0.000000	0.001662	0.001651	28.0828	78.8815	0.001779	44347.3	6.917582	171.452	300.386	1.139280	0.076710	0.076276	299.226	44347.3	0.071650	0.170864	1751.25	98020
1023	2.000000	1.141717	7.37506e+06	-51289.1	1055.82	-29752.8	0.000000	0.000000	7.154422	311.58	NaN	0.000000	0.001659	0.001661	28.0831	80.1896	0.001744	45986.1	1.509691	176.679	311.104	1.141352	0.078713	0.078348	311.58	45986.1	0.073631	0.179173	1738.99	99257.4
1023	2.000000	1.143629	7.37506e+06	-51289.1	1055.82	-29752.8	0.000000	0.000000	7.157004	327.891	NaN	0.000000	0.001649	0.001634	28.0828	81.1846	0.001766	45970.5	2.067447	175.669	324.239	1.143368	0.080624	0.080364	327.891	45970.5	0.075275	0.186204	1760.92	97332.4
1023	2.000000	1.145678	7.37506e+06	-51289.1	1055.82	-29752.8	0.000000	0.000000	7.159656	342.565	NaN	0.000000	0.001655	0.001633	28.0828	84.2682	0.001759	47915.2	3.981447	173.772	339.033	1.145304	0.082673	0.082299	342.565	47915.2	0.077311	0.195094	1755.9	99111.6
1023	2.000000	1.147594	7.37506e+06	-51289.1	1055.82	-29752.8	0.000000	0.000000	7.162042	353.976	NaN	0.000000	0.001655	0.001585	28.0832	86.5085	0.001854	46653	3.095666	175.437	348.702	1.147344	0.084590	0.084339	353.976	46653	0.078899	0.202161	1750.97	94799.2
1023	2.000000	1.149694	7.37506e+06	-51289.1	1055.82	-29752.8	0.000000	0.000000	7.164676	366.96	NaN	0.000000	0.001654	0.001638	28.0825	88.6078	0.001925	46020.5	5.907365	171.899	365.953	1.149388	0.086690	0.086384	366.96	46020.5	0.080709	0.210359	1744.44	91673.5
1023	2.000000	1.151662	7.37506e+06	-51289.1	1055.82	-29752.8	0.000000	0.000000	7.167135	378.892	NaN	0.000000	0.001650	0.001658	28.0825	90.2582	0.001890	47766.5	3.326421	174.272	376.24	1.151360	0.088658	0.088356	378.892	47766.5	0.082709	0.219593	1725.43	93129.6
1023	2.000000	1.153605	7.37506e+06	-51289.1	1055.82	-29752.8	0.000000	0.000000	7.169713	394.353	NaN	0.000000	0.001636	0.001616	28.0827	90.504	0.001819	49751.1	2.320767	175.379	391.523	1.153409	0.090600	0.090404	394.353	49751.1	0.084656	0.228761	1723.86	95035.2
1023	2.000000	1.155514	7.37506e+06	-51289.1	1055.82	-29752.8	0.000000	0.000000	7.171835	399.537	NaN	0.000000	0.001658	0.001629	28.0828	92.397	0.001852	49879.9	2.273810	175.138	391.113	1.155429	0.092509	0.092424	399.537	49879.9	0.086502	0.237619	1681.42	93488.6
1023	2.000000	1.157690	7.37506e+06	-51289.1	1055.82	-29752.8	0.000000	0.000000	7.175130	426.755	NaN	0.000000	0.001661	0.001640	28.0832	94.7883	0.001819	52102.8	6.916513	170.92	427.172	1.157280	0.094685	0.094276	426.755	52102.8	0.088542	0.247589	1723.64	95668.4
1023	2.000000	1.159668	7.37506e+06	-51289.1	1055.82	-29752.8	0.000000	0.000000	7.177893	445.823	NaN	0.000000	0.001599	0.001640	28.0828	95.2845	0.001808	52714.9	4.213578	173.208	443.699	1.159287	0.096664	0.096283	445.823	52714.9	0.090321	0.256437	1738.53	95107.9
1023	2.000000	1.161755	7.37506e+06	-51289.1	1055.82	-29752.8	0.000000	0.000000	7.179965	445.462	NaN	0.000000	0.001620	0.001621	28.083	98.3731	0.001769	55600.7	1.615277	174.805	447.772	1.161609	0.098751	0.098605	445.462	55600.7	0.092742	0.268712	1657.77	97996.3
1023	2.000000	1.163719	7.37506e+06	-51289.1	1055.82	-29752.8	0.000000	0.000000	7.183211	476.626	NaN	0.000000	0.001628	0.001622	28.0827	99.8722	0.001865	53547.8	5.465269	172.646	478.655	1.163318	0.100714	0.100314	476.626	53547.8	0.094039	0.275398	1730.68	93225.4
1023	2.000000	1.165757	7.37506e+06	-51289.1	1055.82	-29752.8	0.000000	0.000000	7.185647	486.307	NaN	0.000000	0.001637	0.001667	28.0828	102.458	0.001740	58898.6	5.726621	170.79	491.566	1.165253	0.102753	0.102248	486.307	58898.6	0.096560	0.288617	1684.95	100165
1023	2.000000	1.166541	7.37506e+06	-51289.1	1055.82	-29752.8	0.000000	0.000000	7.186952	498.992	NaN	0.000000	0.001597	0.001645	28.084	102.752	0.001880	54668.6	3.530927	173.571	491.785	1.166259	0.103536	0.103255	498.992	54668.6	0.096691	0.289311	1724.76	92860.1