File: remote_trans/data/nanoindenter/0828-1/data/Data_2025-08-06,11h17m57s/2025-07-22_16-23-58_1_1129.txt
2025-07-22, 16:23:58, 1
Index	Phase	Displacement	Time	Pos X	Pos Y	Pos Z	Rot A	Rot B	Piezo Z	Force A	Force B	Gripper	Voltage A	Voltage B	Temperature	Amplitude force	Amplitude pos	Stiffness	Phase shift	Phase excitation	Force A raw	Displacement raw	HMax	HMax raw	Real Force	Real Stiffness	Contact Depth	Area	Hardness	Reduced Mod.
[#]	[#]	[um]	[s]	[um]	[um]	[um]	[m°]	[m°]	[um]	[uN]	[uN]	[V]	[V]	[V]	[°C]	[uN]	[um]	[N/m]	[°]	[°]	[uN]	[um]	[um]	[um]	[uN]	[N/m]	[um]	[um^2]	[MPa]	[MPa]
1129	1.000000	0.002239	7.37609e+06	-56589.1	1055.82	-29738.5	0.000000	0.000000	6.002798	-0.025038	NaN	0.000000	0.001593	0.001706	28.0811	0.076861	0.000930	82.6428	42.7449	-166.929	-0.066877	0.001013	-1.153084	-1.154310	-0.025038	82.6428	-1.152857	-2.565183E+15	9.760750E-18	NaN
1129	1.000000	0.012278	7.37609e+06	-56589.1	1055.82	-29738.5	0.000000	0.000000	6.012836	-0.046716	NaN	0.000000	0.001588	0.001728	28.0806	0.153460	0.001212	126.617	-166.305	18.0904	-0.049666	0.010895	-1.143046	-1.144429	-0.046716	126.617	-1.142769	-1.878744E+15	2.486558E-17	NaN
1129	1.000000	0.022188	7.37609e+06	-56589.1	1055.82	-29738.5	0.000000	0.000000	6.022748	-0.018036	NaN	0.000000	0.001596	0.001680	28.0805	0.055483	0.001710	32.4454	168.063	-164.243	0.024498	0.020833	-1.133135	-1.134491	-0.018036	32.4454	-1.132718	-1.377460E+15	1.309397E-17	NaN
1129	1.000000	0.032169	7.37609e+06	-56589.1	1055.82	-29738.5	0.000000	0.000000	6.032729	0.002441	NaN	0.000000	0.001602	0.001687	28.0803	0.025626	0.001883	13.6083	-76.7914	13.9522	0.009172	0.030786	-1.123155	-1.124537	0.002441	13.6083	-1.123289	-1.029442E+15	-2.371172E-18	NaN
1129	1.000000	0.042179	7.37609e+06	-56589.1	1055.82	-29738.5	0.000000	0.000000	6.042739	-0.007032	NaN	0.000000	0.001533	0.001667	28.0808	0.095116	0.002050	46.3938	-103.076	-164.786	-0.064525	0.040876	-1.113145	-1.114447	-0.007032	46.3938	-1.113031	-7.498284E+14	9.378203E-18	NaN
1129	1.000000	0.052165	7.3761e+06	-56589.1	1055.82	-29738.5	0.000000	0.000000	6.052725	0.012297	NaN	0.000000	0.001593	0.001664	28.0803	0.062301	0.002119	29.4046	-75.5161	15.1186	0.048575	0.050846	-1.103159	-1.104477	0.012297	29.4046	-1.103472	-5.580527E+14	-2.203519E-17	NaN
1129	1.000000	0.062197	7.3761e+06	-56589.1	1055.82	-29738.5	0.000000	0.000000	6.062756	-0.026421	NaN	0.000000	0.001565	0.001669	28.0806	0.036768	0.001978	18.5881	-140.559	-165.407	0.019197	0.060904	-1.093127	-1.094420	-0.026421	18.5881	-1.092061	-3.921753E+14	6.737038E-17	NaN
1129	1.000000	0.072182	7.3761e+06	-56589.1	1055.82	-29738.5	0.000000	0.000000	6.072743	0.039948	NaN	0.000000	0.001576	0.001674	28.0806	0.023829	0.002103	11.3292	157.913	11.5307	0.081732	0.070838	-1.083142	-1.084486	0.039948	11.3292	-1.085786	-3.230210E+14	-1.236712E-16	NaN
1129	1.000000	0.082215	7.3761e+06	-56589.1	1055.82	-29738.5	0.000000	0.000000	6.082777	0.054492	NaN	0.000000	0.001534	0.001705	28.0807	0.153749	0.001998	76.9569	46.7942	-164.394	-0.002977	0.080900	-1.073109	-1.074423	0.054492	76.9569	-1.073640	-2.218643E+14	-2.456108E-16	NaN
1129	1.000000	0.092193	7.3761e+06	-56589.1	1055.82	-29738.5	0.000000	0.000000	6.092755	0.040928	NaN	0.000000	0.001550	0.001722	28.0806	0.042172	0.002029	20.7849	146.517	11.8292	0.031390	0.090804	-1.063130	-1.064519	0.040928	20.7849	-1.064607	-1.677758E+14	-2.439445E-16	NaN
1129	1.000000	0.102204	7.3761e+06	-56589.1	1055.82	-29738.5	0.000000	0.000000	6.102763	-0.019096	NaN	0.000000	0.001589	0.001718	28.0819	0.182495	0.002030	89.9011	-137.392	-165.384	0.023314	0.100873	-1.053120	-1.054450	-0.019096	89.9011	-1.052960	-1.170062E+14	1.632066E-16	NaN
1129	1.000000	0.112201	7.3761e+06	-56589.1	1055.82	-29738.5	0.000000	0.000000	6.112761	-0.001272	NaN	0.000000	0.001556	0.001723	28.0821	0.051448	0.002118	24.2882	-42.2073	10.6443	0.041585	0.110853	-1.043122	-1.044470	-0.001272	24.2882	-1.043083	-8.618232E+13	1.475970E-17	NaN
1129	1.000000	0.122229	7.3761e+06	-56589.1	1055.82	-29738.5	0.000000	0.000000	6.122788	-0.037167	NaN	0.000000	0.001556	0.001733	28.0819	0.054831	0.001855	29.5615	36.6192	-166.986	0.036162	0.120912	-1.033094	-1.034412	-0.037167	29.5615	-1.032151	-6.143482E+13	6.049809E-16	NaN
1129	1.000000	0.132225	7.3761e+06	-56589.1	1055.82	-29738.5	0.000000	0.000000	6.132786	0.021170	NaN	0.000000	0.001583	0.001715	28.0819	0.100127	0.001993	50.2502	122.375	14.874	-0.063221	0.130841	-1.023098	-1.024483	0.021170	50.2502	-1.023414	-4.686895E+13	-4.516892E-16	NaN
1129	1.000000	0.142213	7.3761e+06	-56589.1	1055.82	-29738.5	0.000000	0.000000	6.142773	0.003409	NaN	0.000000	0.001581	0.001679	28.0818	0.106362	0.001957	54.3393	-103.308	-164.376	0.084235	0.140932	-1.013110	-1.014391	0.003409	54.3393	-1.013158	-3.410970E+13	-9.993269E-17	NaN
1129	1.000000	0.152246	7.3761e+06	-56589.1	1055.82	-29738.5	0.000000	0.000000	6.152808	0.039065	NaN	0.000000	0.001617	0.001713	28.082	0.045633	0.001995	22.8763	-103.607	12.8687	0.052520	0.150829	-1.003077	-1.004494	0.039065	22.8763	-1.004358	-2.596815E+13	-1.504356E-15	NaN
1129	1.000000	0.162214	7.3761e+06	-56589.1	1055.82	-29738.5	0.000000	0.000000	6.162776	0.054179	NaN	0.000000	0.001623	0.001678	28.0819	0.098091	0.002090	46.9416	53.7314	-166.193	0.046058	0.160906	-0.993109	-0.994418	0.054179	46.9416	-0.993975	-1.882104E+13	-2.878635E-15	NaN
1129	1.000000	0.172213	7.3761e+06	-56589.1	1055.82	-29738.5	0.000000	0.000000	6.172773	0.007800	NaN	0.000000	0.001652	0.001698	28.0818	0.047830	0.001988	24.0599	26.2881	14.349	0.007824	0.170889	-0.983111	-0.984435	0.007800	24.0599	-0.983354	-1.353923E+13	-5.760796E-16	NaN
1129	1.000000	0.182219	7.3761e+06	-56589.1	1055.82	-29738.5	0.000000	0.000000	6.182780	0.018302	NaN	0.000000	0.001591	0.001711	28.082	0.055243	0.001967	28.0799	-144.684	-165.955	0.047078	0.180928	-0.973104	-0.974396	0.018302	28.0799	-0.973593	-1.000189E+13	-1.829903E-15	NaN
1129	1.000000	0.192261	7.3761e+06	-56589.1	1055.82	-29738.5	0.000000	0.000000	6.192823	0.056070	NaN	0.000000	0.001522	0.001719	28.0821	0.075876	0.002013	37.6888	15.989	16.3714	0.059578	0.190942	-0.963063	-0.964381	0.056070	37.6888	-0.964179	-7.467918E+12	-7.508093E-15	NaN
1129	1.000000	0.202217	7.3761e+06	-56589.1	1055.82	-29738.5	0.000000	0.000000	6.202780	0.073347	NaN	0.000000	0.001530	0.001712	28.0821	0.018003	0.002134	8.438069	-25.6047	-168.104	0.088546	0.200922	-0.953106	-0.954402	0.073347	8.438069	-0.959625	-6.483656E+12	-1.131259E-14	NaN
1129	1.000000	0.212232	7.3761e+06	-56589.1	1055.82	-29738.5	0.000000	0.000000	6.212791	-0.015528	NaN	0.000000	0.001528	0.001693	28.0821	0.099644	0.002039	48.8668	-152.223	12.8599	0.031323	0.210896	-0.943092	-0.944427	-0.015528	48.8668	-0.942853	-3.851504E+12	4.031692E-15	NaN
1129	1.000000	0.222246	7.3761e+06	-56589.1	1055.82	-29738.5	0.000000	0.000000	6.222808	0.042383	NaN	0.000000	0.001595	0.001672	28.0821	0.055343	0.001949	28.396	-146.343	-165.505	0.053643	0.220971	-0.933077	-0.934352	0.042383	28.396	-0.934197	-2.943297E+12	-1.439986E-14	NaN
1129	1.000000	0.232265	7.3761e+06	-56589.1	1055.82	-29738.5	0.000000	0.000000	6.232829	0.079818	NaN	0.000000	0.001562	0.001666	28.0819	0.061468	0.002076	29.6107	12.2375	10.7611	0.047246	0.230916	-0.923058	-0.924407	0.079818	29.6107	-0.925080	-2.217092E+12	-3.600129E-14	NaN
1129	1.000000	0.242248	7.3761e+06	-56589.1	1055.82	-29738.5	0.000000	0.000000	6.242808	-0.017005	NaN	0.000000	0.001563	0.001673	28.0805	0.075034	0.002036	36.8499	-148.492	-167.434	-0.071561	0.240955	-0.913075	-0.914369	-0.017005	36.8499	-0.912729	-1.510158E+12	1.126059E-14	NaN
1129	1.000000	0.252300	7.3761e+06	-56589.1	1055.82	-29738.5	0.000000	0.000000	6.252862	0.064585	NaN	0.000000	0.001554	0.001639	28.0807	0.009903	0.001933	5.122522	-176.818	12.687	-0.012594	0.250881	-0.903024	-0.904442	0.064585	5.122522	-0.912480	-1.498497E+12	-4.310000E-14	NaN
1129	1.000000	0.262282	7.3761e+06	-56589.1	1055.82	-29738.5	0.000000	0.000000	6.262841	-0.021942	NaN	0.000000	0.001575	0.001639	28.0805	0.098759	0.001978	49.9361	-11.1985	-163.724	0.000331	0.260963	-0.893041	-0.894360	-0.021942	49.9361	-0.892712	-8.101625E+11	2.708308E-14	NaN
1129	1.000000	0.272263	7.3761e+06	-56589.1	1055.82	-29738.5	0.000000	0.000000	6.272822	-0.030764	NaN	0.000000	0.001573	0.001652	28.0806	0.073139	0.002126	34.4031	81.6953	14.0036	-0.044206	0.270940	-0.883060	-0.884384	-0.030764	34.4031	-0.882390	-5.875233E+11	5.236224E-14	NaN
1129	1.000000	0.282283	7.3761e+06	-56589.1	1055.82	-29738.5	0.000000	0.000000	6.282842	-0.032069	NaN	0.000000	0.001548	0.001711	28.0805	0.050361	0.002002	25.1565	-99.5327	-167.991	-0.014694	0.280948	-0.873040	-0.874376	-0.032069	25.1565	-0.872084	-4.262266E+11	7.524008E-14	NaN
1129	1.000000	0.292301	7.3761e+06	-56589.1	1055.82	-29738.5	0.000000	0.000000	6.292865	0.094154	NaN	0.000000	0.001555	0.001677	28.0808	0.043206	0.001937	22.3064	139.307	15.2566	0.096036	0.290899	-0.863022	-0.864424	0.094154	22.3064	-0.866188	-3.547000E+11	-2.654455E-13	NaN
1129	1.000000	0.302295	7.3761e+06	-56589.1	1055.82	-29738.5	0.000000	0.000000	6.302853	-0.047654	NaN	0.000000	0.001566	0.001677	28.0807	0.059345	0.001912	31.0374	-160.815	-167.118	-0.046836	0.300991	-0.853028	-0.854333	-0.047654	31.0374	-0.851876	-2.270631E+11	2.098699E-13	NaN
1129	1.000000	0.312313	7.3761e+06	-56589.1	1055.82	-29738.5	0.000000	0.000000	6.312873	-0.022345	NaN	0.000000	0.001555	0.001708	28.0809	0.187472	0.001925	97.3927	-60.1129	18.3964	0.065666	0.310920	-0.843010	-0.844403	-0.022345	97.3927	-0.842838	-1.712917E+11	1.304472E-13	NaN
1129	1.000000	0.322295	7.3761e+06	-56589.1	1055.82	-29738.5	0.000000	0.000000	6.322858	0.059744	NaN	0.000000	0.001595	0.001713	28.0809	0.069128	0.001943	35.5794	-141.118	-168.393	0.094464	0.320980	-0.833028	-0.834344	0.059744	35.5794	-0.834288	-1.311879E+11	-4.554088E-13	NaN
1129	1.000000	0.332289	7.3761e+06	-56589.1	1055.82	-29738.5	0.000000	0.000000	6.332851	0.045745	NaN	0.000000	0.001593	0.001675	28.0808	0.030490	0.002003	15.2233	99.3632	12.6728	0.107542	0.330941	-0.823035	-0.824383	0.045745	15.2233	-0.825288	-9.906385E+10	-4.617702E-13	NaN
1129	1.000000	0.342313	7.3761e+06	-56589.1	1055.82	-29738.5	0.000000	0.000000	6.342873	0.004857	NaN	0.000000	0.001571	0.001661	28.0808	0.085741	0.002014	42.5749	-95.5421	-167.926	0.021363	0.341031	-0.813010	-0.814293	0.004857	42.5749	-0.813096	-6.769717E+10	-7.174193E-14	NaN
1129	1.000000	0.352301	7.3761e+06	-56589.1	1055.82	-29738.5	0.000000	0.000000	6.352863	0.050847	NaN	0.000000	0.001572	0.001680	28.0809	0.080438	0.001994	40.3391	-167.416	12.5365	0.047468	0.350980	-0.803022	-0.804343	0.050847	40.3391	-0.803968	-5.089971E+10	-9.989574E-13	NaN
1129	1.000000	0.362301	7.3761e+06	-56589.1	1055.82	-29738.5	0.000000	0.000000	6.362864	0.074313	NaN	0.000000	0.001572	0.001702	28.0811	0.052058	0.002035	25.5755	-141.595	-166.688	0.011725	0.361010	-0.793023	-0.794313	0.074313	25.5755	-0.795202	-3.870131E+10	-1.920161E-12	NaN
1129	1.000000	0.372307	7.3761e+06	-56589.1	1055.82	-29738.5	0.000000	0.000000	6.372866	-0.002041	NaN	0.000000	0.001554	0.001675	28.0822	0.149499	0.002002	74.6658	4.634940	12.8269	0.027642	0.371004	-0.783017	-0.784320	-0.002041	74.6658	-0.782996	-2.642079E+10	7.724806E-14	NaN
1129	1.000000	0.382330	7.3761e+06	-56589.1	1055.82	-29738.5	0.000000	0.000000	6.382890	-0.019748	NaN	0.000000	0.001585	0.001674	28.0821	0.110155	0.001858	59.297	-69.373	-169.15	-0.048302	0.381013	-0.772993	-0.774310	-0.019748	59.297	-0.772743	-1.916906E+10	1.030218E-12	NaN
1129	1.000000	0.392328	7.3761e+06	-56589.1	1055.82	-29738.5	0.000000	0.000000	6.392889	0.015997	NaN	0.000000	0.001610	0.001657	28.0821	0.034620	0.001984	17.4465	-20.3776	11.5888	0.020272	0.390958	-0.762995	-0.764365	0.015997	17.4465	-0.763683	-1.443452E+10	-1.108228E-12	NaN
1129	1.000000	0.402327	7.3761e+06	-56589.1	1055.82	-29738.5	0.000000	0.000000	6.402889	0.064974	NaN	0.000000	0.001571	0.001679	28.082	0.164419	0.001984	82.8758	127.95	-166.414	0.031108	0.401045	-0.752997	-0.754278	0.064974	82.8758	-0.753585	-1.051988E+10	-6.176348E-12	NaN
1129	1.000000	0.412351	7.3761e+06	-56589.1	1055.82	-29738.5	0.000000	0.000000	6.412911	-0.009503	NaN	0.000000	0.001576	0.001695	28.0819	0.036646	0.002078	17.639	-60.8221	14.3763	-0.038728	0.410967	-0.742972	-0.744356	-0.009503	17.639	-0.742568	-7.447920E+9	1.275886E-12	NaN
1129	1.000000	0.422350	7.3761e+06	-56589.1	1055.82	-29738.5	0.000000	0.000000	6.422914	0.097131	NaN	0.000000	0.001576	0.001707	28.0818	0.068133	0.001976	34.4787	71.1614	-164.577	0.006163	0.420995	-0.732973	-0.734328	0.097131	34.4787	-0.735086	-5.889951E+9	-1.649096E-11	NaN
1129	1.000000	0.432336	7.3761e+06	-56589.1	1055.82	-29738.5	0.000000	0.000000	6.432899	0.051747	NaN	0.000000	0.001594	0.001720	28.082	0.140531	0.001975	71.1535	151.045	15.3347	0.030869	0.431023	-0.722987	-0.724300	0.051747	71.1535	-0.723532	-4.098659E+9	-1.262538E-11	NaN
1129	1.000000	0.442326	7.3761e+06	-56589.1	1055.82	-29738.5	0.000000	0.000000	6.442889	0.061719	NaN	0.000000	0.001521	0.001659	28.0817	0.043614	0.002029	21.4974	67.88	-166.732	0.008444	0.441060	-0.712997	-0.714263	0.061719	21.4974	-0.715150	-3.150092E+9	-1.959280E-11	NaN
1129	1.000000	0.452363	7.3761e+06	-56589.1	1055.82	-29738.5	0.000000	0.000000	6.452925	0.038695	NaN	0.000000	0.001556	0.001679	28.0818	0.119182	0.002241	53.1873	-22.9227	15.6254	0.042399	0.450990	-0.702960	-0.704334	0.038695	53.1873	-0.703506	-2.184745E+9	-1.771136E-11	NaN
1129	1.000000	0.462364	7.3761e+06	-56589.1	1055.82	-29738.5	0.000000	0.000000	6.462922	-0.033286	NaN	0.000000	0.001547	0.001678	28.0817	0.040605	0.001966	20.6552	-141.457	-163.177	-0.023425	0.461038	-0.692960	-0.694285	-0.033286	20.6552	-0.691751	-1.509553E+9	2.205042E-11	NaN
1129	1.000000	0.472360	7.3761e+06	-56589.1	1055.82	-29738.5	0.000000	0.000000	6.472922	0.055441	NaN	0.000000	0.001559	0.001700	28.0817	0.131950	0.001915	68.9102	-69.4063	16.3201	0.059114	0.471006	-0.682964	-0.684317	0.055441	68.9102	-0.683567	-1.166769E+9	-4.751685E-11	NaN
1129	1.000000	0.482361	7.3761e+06	-56589.1	1055.82	-29738.5	0.000000	0.000000	6.482923	0.046332	NaN	0.000000	0.001541	0.001725	28.0816	0.042350	0.002028	20.8841	27.5967	-166.781	-0.068356	0.481091	-0.672962	-0.674232	0.046332	20.8841	-0.674626	-8.804303E+8	-5.262440E-11	NaN
1129	1.000000	0.492355	7.3761e+06	-56589.1	1055.82	-29738.5	0.000000	0.000000	6.492918	0.074872	NaN	0.000000	0.001565	0.001751	28.0815	0.063332	0.002093	30.2534	-67.6601	12.9378	0.027516	0.491012	-0.662969	-0.664311	0.074872	30.2534	-0.664825	-6.464678E+8	-1.158171E-10	NaN
1129	1.000000	0.502362	7.3761e+06	-56589.1	1055.82	-29738.5	0.000000	0.000000	6.502925	0.067162	NaN	0.000000	0.001567	0.001725	28.0822	0.045763	0.001997	22.921	-5.081738	-166.563	0.042730	0.501088	-0.652962	-0.654236	0.067162	22.921	-0.655159	-4.765943E+8	-1.409203E-10	NaN
1129	1.000000	0.512372	7.3761e+06	-56589.1	1055.82	-29738.5	0.000000	0.000000	6.512931	-0.029690	NaN	0.000000	0.001576	0.001694	28.0807	0.047591	0.001818	26.181	76.1152	12.7293	-0.004986	0.511008	-0.642952	-0.644315	-0.029690	26.181	-0.642101	-3.155852E+8	9.407762E-11	NaN
1129	1.000000	0.522372	7.3761e+06	-56589.1	1055.82	-29738.5	0.000000	0.000000	6.522932	0.000914	NaN	0.000000	0.001581	0.001718	28.0808	0.109448	0.002099	52.1369	-129.92	-165.07	-0.026353	0.521037	-0.632951	-0.634286	0.000914	52.1369	-0.632965	-2.364454E+8	-3.865879E-12	NaN
1129	1.000000	0.532400	7.3761e+06	-56589.1	1055.82	-29738.5	0.000000	0.000000	6.532960	0.005051	NaN	0.000000	0.001595	0.001703	28.0807	0.086518	0.001953	44.3025	-170.022	13.0767	0.031539	0.531007	-0.622923	-0.624316	0.005051	44.3025	-0.623009	-1.725778E+8	-2.926800E-11	NaN
1129	1.000000	0.542377	7.3761e+06	-56589.1	1055.82	-29738.5	0.000000	0.000000	6.542937	0.000324	NaN	0.000000	0.001572	0.001692	28.0809	0.041602	0.002114	19.6823	-131.504	-165.919	0.081850	0.541098	-0.612946	-0.614226	0.000324	19.6823	-0.612959	-1.255497E+8	-2.581904E-12	NaN
1129	1.000000	0.552365	7.3761e+06	-56589.1	1055.82	-29738.5	0.000000	0.000000	6.552925	0.007782	NaN	0.000000	0.001575	0.001703	28.0807	0.077485	0.001983	39.0784	-165.33	14.414	-0.021646	0.551053	-0.602959	-0.604271	0.007782	39.0784	-0.603108	-9.188767E+7	-8.468515E-11	NaN
1129	1.000000	0.562409	7.3761e+06	-56589.1	1055.82	-29738.5	0.000000	0.000000	6.562969	0.021648	NaN	0.000000	0.001587	0.001690	28.0812	0.044846	0.001966	22.8072	-148.685	-164.961	0.018227	0.561133	-0.592915	-0.594191	0.021648	22.8072	-0.593627	-6.802320E+7	-3.182486E-10	NaN
1129	1.000000	0.572446	7.3761e+06	-56589.1	1055.82	-29738.5	0.000000	0.000000	6.573007	0.021826	NaN	0.000000	0.001588	0.001688	28.0807	0.036265	0.002008	18.0634	123.305	10.9208	0.004487	0.571049	-0.582877	-0.584274	0.021826	18.0634	-0.583783	-4.976565E+7	-4.385773E-10	NaN
1129	1.000000	0.582373	7.3761e+06	-56589.1	1055.82	-29738.5	0.000000	0.000000	6.582935	0.036784	NaN	0.000000	0.001577	0.001688	28.081	0.096447	0.002105	45.8263	153.313	-165.128	0.029690	0.581119	-0.572950	-0.574205	0.036784	45.8263	-0.573552	-3.595034E+7	-1.023180E-9	NaN
1129	1.000000	0.592413	7.3761e+06	-56589.1	1055.82	-29738.5	0.000000	0.000000	6.592970	-0.052962	NaN	0.000000	0.001566	0.001693	28.0808	0.097243	0.001943	50.0355	23.1495	10.2368	-0.028279	0.591104	-0.562911	-0.564220	-0.052962	50.0355	-0.562117	-2.498387E+7	2.119862E-9	NaN
1129	1.000000	0.602436	7.3761e+06	-56589.1	1055.82	-29738.5	0.000000	0.000000	6.602995	-0.033543	NaN	0.000000	0.001536	0.001724	28.0808	0.076285	0.002022	37.7271	-75.0233	-166.126	-0.022537	0.601085	-0.552887	-0.554238	-0.033543	37.7271	-0.552221	-1.822678E+7	1.840307E-9	NaN
1129	1.000000	0.612409	7.3761e+06	-56589.1	1055.82	-29738.5	0.000000	0.000000	6.612971	0.059229	NaN	0.000000	0.001557	0.001720	28.0808	0.061969	0.001957	31.6649	-52.0852	13.8164	0.016206	0.611043	-0.542914	-0.544280	0.059229	31.6649	-0.544317	-1.416502E+7	-4.181335E-9	NaN
1129	1.000000	0.622387	7.3761e+06	-56589.1	1055.82	-29738.5	0.000000	0.000000	6.622949	0.049445	NaN	0.000000	0.001556	0.001733	28.0809	0.038429	0.001980	19.4078	80.7269	-166.15	0.046009	0.621137	-0.532936	-0.534186	0.049445	19.4078	-0.534847	-1.046811E+7	-4.723420E-9	NaN
1129	1.000000	0.632438	7.3761e+06	-56589.1	1055.82	-29738.5	0.000000	0.000000	6.632998	-0.017937	NaN	0.000000	0.001582	0.001727	28.0807	0.042462	0.002031	20.9092	-62.7948	14.6285	0.019396	0.631115	-0.522885	-0.524209	-0.017937	20.9092	-0.522242	-6.99468e+06	2.564440E-9	NaN
1129	1.000000	0.642446	7.3761e+06	-56589.1	1055.82	-29738.5	0.000000	0.000000	6.643004	-0.049325	NaN	0.000000	0.001528	0.001759	28.0809	0.020099	0.001908	10.5351	-177.209	-164.273	-0.004718	0.641115	-0.512877	-0.514209	-0.049325	10.5351	-0.509366	-4.63002e+06	1.065326E-8	NaN
1129	1.000000	0.652432	7.3761e+06	-56589.1	1055.82	-29738.5	0.000000	0.000000	6.652995	0.074630	NaN	0.000000	0.001511	0.001741	28.0823	0.026080	0.001997	13.0609	9.007396	15.1641	0.000708	0.651110	-0.502891	-0.504213	0.074630	13.0609	-0.507177	-4.31603e+06	-1.729137E-8	NaN
1129	1.000000	0.662418	7.3761e+06	-56589.1	1055.82	-29738.5	0.000000	0.000000	6.662978	0.005264	NaN	0.000000	0.001540	0.001750	28.0822	0.083394	0.002126	39.2338	38.6589	-165.979	-0.012394	0.661158	-0.492906	-0.494165	0.005264	39.2338	-0.493006	-2.73774e+06	-1.922667E-9	NaN
1129	1.000000	0.672454	7.3761e+06	-56589.1	1055.82	-29738.5	0.000000	0.000000	6.673015	0.020888	NaN	0.000000	0.001573	0.001761	28.082	0.044552	0.001958	22.7547	79.0191	12.7262	-0.009202	0.671110	-0.482869	-0.484214	0.020888	22.7547	-0.483558	-2.01983e+06	-1.034143E-8	NaN
1129	1.000000	0.682454	7.3761e+06	-56589.1	1055.82	-29738.5	0.000000	0.000000	6.683013	-0.044913	NaN	0.000000	0.001578	0.001766	28.0822	0.079386	0.002104	37.7248	-75.0835	-163.875	-0.039896	0.681162	-0.472869	-0.474162	-0.044913	37.7248	-0.471976	-1.39033e+06	3.230369E-8	NaN
1129	1.000000	0.692462	7.3761e+06	-56589.1	1055.82	-29738.5	0.000000	0.000000	6.693021	-0.021219	NaN	0.000000	0.001554	0.001781	28.0821	0.036627	0.002006	18.2573	-5.774516	12.517	0.015728	0.691074	-0.462861	-0.464249	-0.021219	18.2573	-0.461990	-1.00687e+06	2.107394E-8	NaN
1129	1.000000	0.702454	7.3761e+06	-56589.1	1055.82	-29738.5	0.000000	0.000000	6.703014	0.008072	NaN	0.000000	0.001598	0.001758	28.0819	0.155966	0.001995	78.1867	-37.9698	-163.736	-0.017901	0.701144	-0.452870	-0.454179	0.008072	78.1867	-0.452947	-751333	-1.074314E-8	NaN
1129	1.000000	0.712462	7.3761e+06	-56589.1	1055.82	-29738.5	0.000000	0.000000	6.713021	-0.009877	NaN	0.000000	0.001559	0.001762	28.082	0.041262	0.002008	20.5489	46.5312	13.0326	-0.058312	0.711090	-0.442862	-0.444234	-0.009877	20.5489	-0.442501	-535369	1.844823E-8	NaN
1129	1.000000	0.722470	7.3761e+06	-56589.1	1055.82	-29738.5	0.000000	0.000000	6.723032	0.043491	NaN	0.000000	0.001517	0.001759	28.0821	0.027358	0.002108	12.9805	-67.8823	-165.191	0.033039	0.721165	-0.432853	-0.434158	0.043491	12.9805	-0.435366	-424551	-1.024401E-7	NaN
1129	1.000000	0.732455	7.3761e+06	-56589.1	1055.82	-29738.5	0.000000	0.000000	6.733020	0.113413	NaN	0.000000	0.001544	0.001776	28.0821	0.027247	0.001944	14.0173	143.37	16.52	0.036287	0.731097	-0.422868	-0.424227	0.113413	14.0173	-0.428937	-344363	-3.293422E-7	NaN
1129	1.000000	0.742490	7.3761e+06	-56589.1	1055.82	-29738.5	0.000000	0.000000	6.743051	0.032600	NaN	0.000000	0.001545	0.001768	28.0821	0.037629	0.001955	19.2433	-96.6108	-168.198	0.018737	0.741177	-0.412834	-0.414146	0.032600	19.2433	-0.414104	-212195	-1.536315E-7	NaN
1129	1.000000	0.752503	7.3761e+06	-56589.1	1055.82	-29738.5	0.000000	0.000000	6.753060	-0.067278	NaN	0.000000	0.001519	0.001788	28.082	0.061016	0.002027	30.1061	95.6364	11.361	-0.102709	0.751079	-0.402820	-0.404244	-0.067278	30.1061	-0.401144	-138775	4.847990E-7	NaN
1129	1.000000	0.762473	7.3761e+06	-56589.1	1055.82	-29738.5	0.000000	0.000000	6.763030	-0.061304	NaN	0.000000	0.001553	0.001728	28.0822	0.063723	0.001955	32.5948	107.461	-165.898	0.041311	0.761155	-0.392851	-0.394168	-0.061304	32.5948	-0.391440	-100870	6.077496E-7	NaN
1129	1.000000	0.772498	7.3761e+06	-56589.1	1055.82	-29738.5	0.000000	0.000000	6.773060	0.044545	NaN	0.000000	0.001604	0.001731	28.0821	0.037569	0.001921	19.5547	77.9992	13.5855	0.051808	0.771161	-0.382825	-0.384162	0.044545	19.5547	-0.384534	-80335.6	-5.544834E-7	NaN
1129	1.000000	0.782482	7.3761e+06	-56589.1	1055.82	-29738.5	0.000000	0.000000	6.783041	-0.044825	NaN	0.000000	0.001602	0.001748	28.0809	0.010205	0.002020	5.051153	57.56	-167.453	-0.090141	0.781158	-0.372841	-0.374165	-0.044825	5.051153	-0.366185	-43767.4	1.024168E-6	NaN
1129	1.000000	0.792484	7.3761e+06	-56589.1	1055.82	-29738.5	0.000000	0.000000	6.793045	0.045881	NaN	0.000000	0.001589	0.001733	28.0811	0.029912	0.002016	14.8376	126.466	13.8508	0.086332	0.791135	-0.362840	-0.364189	0.045881	14.8376	-0.365159	-42300.7	-1.084630E-6	NaN
1129	1.000000	0.802510	7.3761e+06	-56589.1	1055.82	-29738.5	0.000000	0.000000	6.803072	0.051862	NaN	0.000000	0.001543	0.001742	28.0808	0.071063	0.001992	35.6702	-105.389	-163.9	0.126522	0.801163	-0.352813	-0.354160	0.051862	35.6702	-0.353904	-29081.2	-1.783344E-6	NaN
1129	1.000000	0.812501	7.3761e+06	-56589.1	1055.82	-29738.5	0.000000	0.000000	6.813063	0.060229	NaN	0.000000	0.001539	0.001696	28.081	0.072678	0.002067	35.1549	165.67	11.678	0.024445	0.811112	-0.342823	-0.344212	0.060229	35.1549	-0.344108	-20959.3	-2.873608E-6	NaN
1129	1.000000	0.822488	7.3761e+06	-56589.1	1055.82	-29738.5	0.000000	0.000000	6.823049	0.023811	NaN	0.000000	0.001524	0.001694	28.081	0.148431	0.002056	72.1867	-49.3747	-167.29	0.042002	0.821257	-0.332835	-0.334066	0.023811	72.1867	-0.333082	-14473	-1.645195E-6	NaN
1129	1.000000	0.832487	7.3761e+06	-56589.1	1055.82	-29738.5	0.000000	0.000000	6.833049	0.044746	NaN	0.000000	0.001523	0.001711	28.0811	0.055663	0.001992	27.9385	49.1382	10.8612	0.084896	0.831125	-0.322836	-0.324198	0.044746	27.9385	-0.324037	-10666	-4.195235E-6	NaN
1129	1.000000	0.842534	7.3761e+06	-56589.1	1055.82	-29738.5	0.000000	0.000000	6.843094	-0.000302	NaN	0.000000	0.001572	0.001704	28.0808	0.088205	0.002050	43.0196	-151.876	-167.017	0.031362	0.841231	-0.312790	-0.314092	-0.000302	43.0196	-0.312784	-7281.62	4.143090E-8	NaN
1129	1.000000	0.852522	7.3761e+06	-56589.1	1055.82	-29738.5	0.000000	0.000000	6.853082	0.017325	NaN	0.000000	0.001534	0.001694	28.0809	0.104886	0.002031	51.6494	-174.507	13.1876	-0.065202	0.851171	-0.302802	-0.304152	0.017325	51.6494	-0.303053	-5224.52	-3.316101E-6	NaN
1129	1.000000	0.862526	7.3761e+06	-56589.1	1055.82	-29738.5	0.000000	0.000000	6.863086	0.011179	NaN	0.000000	0.001541	0.001721	28.0811	0.089448	0.002069	43.2255	-88.6073	-166.91	-0.034628	0.861267	-0.292797	-0.294056	0.011179	43.2255	-0.292991	-3698.92	-3.022292E-6	NaN
1129	1.000000	0.872500	7.3761e+06	-56589.1	1055.82	-29738.5	0.000000	0.000000	6.873063	0.060335	NaN	0.000000	0.001505	0.001730	28.081	0.149617	0.001929	77.5694	-18.0399	13.0742	0.041483	0.871156	-0.282823	-0.284167	0.060335	77.5694	-0.283406	-2656.43	-2.271264E-5	NaN
1129	1.000000	0.882510	7.3761e+06	-56589.1	1055.82	-29738.5	0.000000	0.000000	6.883069	-0.023096	NaN	0.000000	0.001550	0.001701	28.0808	0.073694	0.001883	39.1267	-68.243	-165.066	0.054376	0.881232	-0.272813	-0.274091	-0.023096	39.1267	-0.272370	-1809.43	1.276446E-5	NaN
1129	1.000000	0.892543	7.3761e+06	-56589.1	1055.82	-29738.5	0.000000	0.000000	6.893102	-0.030449	NaN	0.000000	0.001514	0.001733	28.0808	0.105821	0.002029	52.1643	-62.208	11.5531	-0.007201	0.891234	-0.262780	-0.264090	-0.030449	52.1643	-0.262342	-1272.87	2.392176E-5	NaN
1129	1.000000	0.902526	7.3761e+06	-56589.1	1055.82	-29738.5	0.000000	0.000000	6.903085	-0.011028	NaN	0.000000	0.001522	0.001694	28.0808	0.045538	0.002031	22.4247	-92.4438	-167.602	-0.039843	0.901232	-0.252798	-0.254091	-0.011028	22.4247	-0.252429	-896.372	1.230310E-5	NaN
1129	1.000000	0.912528	7.3761e+06	-56589.1	1055.82	-29738.5	0.000000	0.000000	6.913087	-0.011531	NaN	0.000000	0.001563	0.001718	28.0809	0.017855	0.002046	8.728763	5.038523	14.6571	0.020288	0.911234	-0.242796	-0.244089	-0.011531	8.728763	-0.241805	-613.369	1.879873E-5	NaN
1129	1.000000	0.922522	7.3761e+06	-56589.1	1055.82	-29738.5	0.000000	0.000000	6.923083	0.006605	NaN	0.000000	0.001552	0.001714	28.0819	0.114850	0.002032	56.5188	115.823	-168.134	0.024829	0.921260	-0.232801	-0.234063	0.006605	56.5188	-0.232889	-444.691	-1.485220E-5	NaN
1129	1.000000	0.932536	7.3761e+06	-56589.1	1055.82	-29738.5	0.000000	0.000000	6.933098	0.045515	NaN	0.000000	0.001513	0.001736	28.0823	0.189064	0.001944	97.2402	89.8588	17.0605	0.022633	0.931188	-0.222788	-0.224135	0.045515	97.2402	-0.223139	-311.7	-0.000146	NaN
1129	1.000000	0.942562	7.3761e+06	-56589.1	1055.82	-29738.5	0.000000	0.000000	6.943124	0.062679	NaN	0.000000	0.001499	0.001697	28.082	0.070356	0.001834	38.3521	-168.712	-165.526	0.064117	0.941238	-0.212762	-0.214085	0.062679	38.3521	-0.213988	-222.443	-0.000282	NaN
1129	1.000000	0.952572	7.3761e+06	-56589.1	1055.82	-29738.5	0.000000	0.000000	6.953133	0.043512	NaN	0.000000	0.001518	0.001693	28.0818	0.030259	0.001960	15.4396	131.643	12.7553	-0.007826	0.951193	-0.202752	-0.204130	0.043512	15.4396	-0.204865	-158.258	-0.000275	NaN
1129	1.000000	0.962558	7.3761e+06	-56589.1	1055.82	-29738.5	0.000000	0.000000	6.963117	-0.006206	NaN	0.000000	0.001500	0.001744	28.0819	0.035957	0.001931	18.6241	-59.1787	-168.547	0.009044	0.961281	-0.192766	-0.194043	-0.006206	18.6241	-0.192516	-99.0754	6.263562E-5	NaN
1129	1.000000	0.972560	7.3761e+06	-56589.1	1055.82	-29738.5	0.000000	0.000000	6.973122	0.037321	NaN	0.000000	0.001490	0.001740	28.0823	0.016505	0.002114	7.808070	-151.762	12.4314	0.019100	0.971258	-0.182763	-0.184066	0.037321	7.808070	-0.186348	-78.131	-0.000478	NaN
1129	1.000000	0.982578	7.3761e+06	-56589.1	1055.82	-29738.5	0.000000	0.000000	6.983138	0.006952	NaN	0.000000	0.001495	0.001707	28.082	0.117767	0.002136	55.1403	-89.1993	-166.859	0.083865	0.981242	-0.172745	-0.174081	0.006952	55.1403	-0.172840	-46.0023	-0.000151	NaN
1129	1.000000	0.992575	7.3761e+06	-56589.1	1055.82	-29738.5	0.000000	0.000000	6.993138	0.064495	NaN	0.000000	0.001509	0.001701	28.0822	0.080577	0.001984	40.6211	-27.7653	12.8692	0.043784	0.991240	-0.162748	-0.164084	0.064495	40.6211	-0.163939	-32.1844	-0.002004	NaN
1129	1.000000	1.002563	7.3761e+06	-56589.1	1055.82	-29738.5	0.000000	0.000000	7.003125	0.059250	NaN	0.000000	0.001555	0.001740	28.0821	0.037138	0.001988	18.6769	-24.9184	-168.103	0.034563	1.001289	-0.152761	-0.154035	0.059250	18.6769	-0.155140	-22.444	-0.002640	NaN
1129	1.000000	1.012570	7.3761e+06	-56589.1	1055.82	-29738.5	0.000000	0.000000	7.013130	-0.003012	NaN	0.000000	0.001564	0.001712	28.082	0.061419	0.002105	29.1735	-68.2408	14.2402	-0.035026	1.011197	-0.142753	-0.144127	-0.003012	29.1735	-0.142676	-13.2745	0.000227	NaN
1129	1.000000	1.022574	7.3761e+06	-56589.1	1055.82	-29738.5	0.000000	0.000000	7.023135	0.016804	NaN	0.000000	0.001548	0.001695	28.082	0.076142	0.001939	39.2583	160.949	-166.821	0.002087	1.021352	-0.132749	-0.133972	0.016804	39.2583	-0.133070	-8.736227	-0.001923	NaN
1129	1.000000	1.032613	7.3761e+06	-56589.1	1055.82	-29738.5	0.000000	0.000000	7.033176	0.068478	NaN	0.000000	0.001542	0.001714	28.0819	0.095727	0.001907	50.1943	168.069	12.5407	0.095626	1.031183	-0.122710	-0.124140	0.068478	50.1943	-0.123733	-5.739417	-0.011931	NaN
1129	1.000000	1.042625	7.3761e+06	-56589.1	1055.82	-29738.5	0.000000	0.000000	7.043186	0.018585	NaN	0.000000	0.001522	0.001729	28.0822	0.049007	0.002088	23.4708	134.124	-164.01	0.041558	1.041305	-0.112699	-0.114018	0.018585	23.4708	-0.113292	-3.521868	-0.005277	NaN
1129	1.000000	1.052597	7.3761e+06	-56589.1	1055.82	-29738.5	0.000000	0.000000	7.053158	0.023520	NaN	0.000000	0.001547	0.001733	28.0817	0.069009	0.002067	33.3804	-175.049	17.6741	0.039260	1.051232	-0.102727	-0.104091	0.023520	33.3804	-0.103255	-2.154349	-0.010917	NaN
1129	1.000000	1.062583	7.3761e+06	-56589.1	1055.82	-29738.5	0.000000	0.000000	7.063147	0.075626	NaN	0.000000	0.001534	0.001755	28.0808	0.070031	0.001965	35.6431	-45.3899	-165.864	0.065627	1.061323	-0.092740	-0.094000	0.075626	35.6431	-0.094331	-1.361915	-0.055529	NaN
1129	1.000000	1.072636	7.3761e+06	-56589.1	1055.82	-29738.5	0.000000	0.000000	7.073199	0.072435	NaN	0.000000	0.001517	0.001723	28.0809	0.078587	0.002119	37.0904	123.748	11.9547	0.033420	1.071251	-0.082688	-0.084072	0.072435	37.0904	-0.084152	-0.783624	-0.092436	NaN
1129	1.000000	1.082612	7.3761e+06	-56589.1	1055.82	-29738.5	0.000000	0.000000	7.083172	-0.003281	NaN	0.000000	0.001545	0.001709	28.0807	0.079139	0.001938	40.8294	-141.271	-169.081	-0.045561	1.081286	-0.072711	-0.074038	-0.003281	40.8294	-0.072651	-0.401092	0.008180	NaN
1129	1.000000	1.092608	7.3761e+06	-56589.1	1055.82	-29738.5	0.000000	0.000000	7.093170	0.030468	NaN	0.000000	0.001507	0.001700	28.0808	0.110875	0.002084	53.1914	-54.4024	15.0612	-0.067136	1.091291	-0.062715	-0.064032	0.030468	53.1914	-0.063145	-0.221198	-0.137741	NaN
1129	1.000000	1.102613	7.3761e+06	-56589.1	1055.82	-29738.5	0.000000	0.000000	7.103172	-0.015222	NaN	0.000000	0.001542	0.001699	28.0808	0.105423	0.001907	55.2686	25.0901	-166.466	0.101663	1.101343	-0.052711	-0.053980	-0.015222	55.2686	-0.052504	-0.108542	0.140239	NaN
1129	1.000000	1.112647	7.3761e+06	-56589.1	1055.82	-29738.5	0.000000	0.000000	7.113206	-0.015588	NaN	0.000000	0.001537	0.001677	28.0811	0.099604	0.002108	47.2599	-118.016	13.2109	-0.005347	1.111276	-0.042677	-0.044047	-0.015588	47.2599	-0.042429	-0.053627	0.290684	NaN
1129	1.000000	1.122598	7.3761e+06	-56589.1	1055.82	-29738.5	0.000000	0.000000	7.123158	0.002157	NaN	0.000000	0.001528	0.001684	28.0809	0.042561	0.001817	23.4216	-7.129826	-165.97	0.078981	1.121388	-0.032725	-0.033936	0.002157	23.4216	-0.032794	-0.027618	-0.078115	NaN
1129	1.000000	1.132675	7.3761e+06	-56589.1	1055.82	-29738.5	0.000000	0.000000	7.133235	-0.013191	NaN	0.000000	0.001588	0.001716	28.0809	0.187691	0.002056	91.2985	92.6413	15.9746	-0.023468	1.131348	-0.022648	-0.023975	-0.013191	91.2985	-0.022540	-0.014576	0.905024	NaN
1129	1.000000	1.142607	7.3761e+06	-56589.1	1055.82	-29738.5	0.000000	0.000000	7.143168	0.029821	NaN	0.000000	0.001602	0.001732	28.0812	0.124107	0.002054	60.4285	134.926	-164.377	0.081423	1.141293	-0.012717	-0.014030	0.029821	60.4285	-0.013087	-0.008153	-3.657907	NaN
1129	1.000000	1.152659	7.3761e+06	-56589.1	1055.82	-29738.5	0.000000	0.000000	7.153219	0.001388	NaN	0.000000	0.001618	0.001737	28.0813	0.087810	0.001911	45.9409	-7.775872	12.7318	-0.099625	1.151292	-0.002664	-0.004031	0.001388	45.9409	-0.002687	-0.001910	-0.726756	NaN
1129	1.000000	1.162537	7.3761e+06	-56589.1	1055.82	-29738.5	0.000000	0.000000	7.163390	7.135379	NaN	0.000000	0.001549	0.001715	28.0811	7.853079	0.001627	4826.36	13.1122	-173.983	6.252206	1.161347	0.007213	0.006024	7.135379	4826.36	0.006105	0.005164	1381.72	61361.4
1129	2.000000	1.165816	7.3761e+06	-56589.1	1055.82	-29738.5	0.000000	0.000000	7.166795	10.1701	NaN	0.000000	0.001552	0.001670	28.0808	10.8149	0.001665	6496.63	11.1117	4.126554	10.7554	1.165407	0.010493	0.010084	10.1701	6496.63	0.009319	0.008434	1205.82	64630.8
1129	2.000000	1.168260	7.3761e+06	-56589.1	1055.82	-29738.5	0.000000	0.000000	7.169402	14.1536	NaN	0.000000	0.001509	0.001692	28.0807	13.2951	0.001781	7464.7	5.119950	-172.76	13.1744	1.167907	0.012937	0.012584	14.1536	7464.7	0.011515	0.010914	1296.86	65282.8
1129	2.000000	1.170708	7.3761e+06	-56589.1	1055.82	-29738.5	0.000000	0.000000	7.171977	17.2298	NaN	0.000000	0.001516	0.001700	28.0819	16.3422	0.001864	8764.96	8.921954	2.633846	15.6865	1.170299	0.015385	0.014976	17.2298	8764.96	0.013910	0.013860	1243.18	68021.9
1129	2.000000	1.173192	7.3761e+06	-56589.1	1055.82	-29738.5	0.000000	0.000000	7.174630	21.3177	NaN	0.000000	0.001531	0.001680	28.0819	18.4312	0.001764	10447.7	2.424545	-173.72	19.454	1.172976	0.017869	0.017652	21.3177	10447.7	0.016339	0.017112	1245.75	72969.3
1129	2.000000	1.175779	7.3761e+06	-56589.1	1055.82	-29738.5	0.000000	0.000000	7.177479	27.712	NaN	0.000000	0.001544	0.001723	28.0819	21.4057	0.001814	11797.2	6.803337	2.271211	27.7301	1.175349	0.020455	0.020025	27.712	11797.2	0.018693	0.020531	1349.79	75222.9
1129	2.000000	1.178211	7.3761e+06	-56589.1	1055.82	-29738.5	0.000000	0.000000	7.179967	29.0632	NaN	0.000000	0.001532	0.001701	28.0822	23.5563	0.001771	13303.3	4.537979	-177.433	28.7664	1.177979	0.022888	0.022656	29.0632	13303.3	0.021249	0.024543	1184.16	77583
1129	2.000000	1.180708	7.3761e+06	-56589.1	1055.82	-29738.5	0.000000	0.000000	7.182746	35.9144	NaN	0.000000	0.001548	0.001695	28.0819	26.397	0.001753	15056.9	0.898532	3.852146	33.8902	1.180335	0.025385	0.025012	35.9144	15056.9	0.023596	0.028510	1259.7	81472
1129	2.000000	1.183215	7.3761e+06	-56589.1	1055.82	-29738.5	0.000000	0.000000	7.185473	41.2688	NaN	0.000000	0.001533	0.001694	28.0821	29.2881	0.001895	15453	5.381895	-179.166	41.7441	1.182912	0.027892	0.027589	41.2688	15453	0.025889	0.032653	1263.86	78131.1
1129	2.000000	1.185716	7.3761e+06	-56589.1	1055.82	-29738.5	0.000000	0.000000	7.188250	47.9755	NaN	0.000000	0.001504	0.001710	28.0819	31.03	0.001818	17070.7	2.690526	2.665574	46.6482	1.185313	0.030393	0.029990	47.9755	17070.7	0.028285	0.037264	1287.46	80794.4
1129	2.000000	1.188169	7.3761e+06	-56589.1	1055.82	-29738.5	0.000000	0.000000	7.191066	56.79	NaN	0.000000	0.001557	0.001739	28.0821	33.0425	0.001768	18692.2	4.938007	178.985	55.7869	1.187846	0.032846	0.032523	56.79	18692.2	0.030567	0.041927	1354.49	83403.9
1129	2.000000	1.190681	7.3761e+06	-56589.1	1055.82	-29738.5	0.000000	0.000000	7.193827	62.866	NaN	0.000000	0.001548	0.001765	28.0822	36.0515	0.001754	20553.9	8.031929	-4.456815	62.4298	1.190406	0.035358	0.035083	62.866	20553.9	0.033064	0.047333	1328.15	86314.5
1129	2.000000	1.193154	7.3761e+06	-56589.1	1055.82	-29738.5	0.000000	0.000000	7.196568	69.3478	NaN	0.000000	0.001555	0.001722	28.082	38.6332	0.001756	22005.9	6.729843	175.805	68.2918	1.192888	0.037831	0.037565	69.3478	22005.9	0.035468	0.052840	1312.41	87464.1
1129	2.000000	1.195685	7.3761e+06	-56589.1	1055.82	-29738.5	0.000000	0.000000	7.199586	81.1893	NaN	0.000000	0.001579	0.001698	28.0823	39.9922	0.001752	22821.7	3.903213	-0.664642	78.6196	1.195312	0.040362	0.039988	81.1893	22821.7	0.037694	0.058204	1394.91	86426
1129	2.000000	1.198163	7.3761e+06	-56589.1	1055.82	-29738.5	0.000000	0.000000	7.202313	87.251	NaN	0.000000	0.001573	0.001690	28.082	43.4481	0.001844	23564.2	6.448911	175.306	87.3402	1.197829	0.042840	0.042505	87.251	23564.2	0.040063	0.064190	1359.25	84975
1129	2.000000	1.200661	7.3761e+06	-56589.1	1055.82	-29738.5	0.000000	0.000000	7.205056	93.2165	NaN	0.000000	0.001558	0.001684	28.0821	46.5452	0.001853	25124.9	9.715003	-7.975148	92.0697	1.200271	0.045337	0.044947	93.2165	25124.9	0.042555	0.070798	1316.66	86271.5
1129	2.000000	1.203241	7.3761e+06	-56589.1	1055.82	-29738.5	0.000000	0.000000	7.208001	102.089	NaN	0.000000	0.001595	0.001704	28.082	49.1221	0.001789	27452.9	7.218230	173.353	106.572	1.202874	0.047918	0.047551	102.089	27452.9	0.045129	0.077953	1309.63	89835
1129	2.000000	1.205627	7.3761e+06	-56589.1	1055.82	-29738.5	0.000000	0.000000	7.211031	117.747	NaN	0.000000	0.001646	0.001730	28.081	50.0244	0.001774	28197.8	3.676553	-2.641541	113.96	1.205219	0.050304	0.049896	117.747	28197.8	0.047172	0.083873	1403.87	88956.5
1129	2.000000	1.208082	7.3761e+06	-56589.1	1055.82	-29738.5	0.000000	0.000000	7.214020	130.699	NaN	0.000000	0.001610	0.001708	28.0808	51.2721	0.001689	30357.9	2.954108	176.777	127.732	1.207852	0.052759	0.052529	130.699	30357.9	0.049530	0.090966	1436.79	91961.3
1129	2.000000	1.210701	7.3761e+06	-56589.1	1055.82	-29738.5	0.000000	0.000000	7.217048	140.657	NaN	0.000000	0.001597	0.001720	28.0808	54.873	0.001688	32508.8	3.061271	-3.338877	139.599	1.210270	0.055378	0.054947	140.657	32508.8	0.052133	0.099119	1419.07	94339.8
1129	2.000000	1.213206	7.3761e+06	-56589.1	1055.82	-29738.5	0.000000	0.000000	7.219902	149.131	NaN	0.000000	0.001562	0.001724	28.0807	58.8714	0.001851	31803.2	4.313119	175.338	152.526	1.212953	0.057883	0.057630	149.131	31803.2	0.054366	0.106383	1401.83	89085.5
1129	2.000000	1.215632	7.3761e+06	-56589.1	1055.82	-29738.5	0.000000	0.000000	7.222944	164.109	NaN	0.000000	0.001577	0.001698	28.0808	60.6508	0.001820	33321.4	7.212727	-8.148044	161.943	1.215256	0.060309	0.059933	164.109	33321.4	0.056615	0.113950	1440.19	90186.1
1129	2.000000	1.218123	7.3761e+06	-56589.1	1055.82	-29738.5	0.000000	0.000000	7.225793	172.815	NaN	0.000000	0.001557	0.001699	28.0807	62.1944	0.001775	35046.3	4.727748	173.76	173.586	1.217865	0.062799	0.062542	172.815	35046.3	0.059101	0.122605	1409.53	91445.4
1129	2.000000	1.220664	7.3761e+06	-56589.1	1055.82	-29738.5	0.000000	0.000000	7.229192	193.669	NaN	0.000000	0.001554	0.001697	28.0807	64.06	0.001702	37647.3	3.450930	-5.001658	193.58	1.220216	0.065341	0.064893	193.669	37647.3	0.061482	0.131177	1476.39	94968.1
1129	2.000000	1.223110	7.3761e+06	-56589.1	1055.82	-29738.5	0.000000	0.000000	7.232199	207.316	NaN	0.000000	0.001531	0.001706	28.0808	68.0027	0.001766	38516.2	3.860366	174.057	205.364	1.222760	0.067787	0.067436	207.316	38516.2	0.063750	0.139597	1485.11	94184.5
1129	2.000000	1.225566	7.3761e+06	-56589.1	1055.82	-29738.5	0.000000	0.000000	7.235078	217.594	NaN	0.000000	0.001552	0.001719	28.0806	69.4916	0.001790	38831.2	2.709248	-4.929048	212.528	1.225369	0.070243	0.070046	217.594	38831.2	0.066040	0.148353	1466.74	92110
1129	2.000000	1.228164	7.3761e+06	-56589.1	1055.82	-29738.5	0.000000	0.000000	7.238133	228.689	NaN	0.000000	0.001541	0.001719	28.0815	71.8536	0.001778	40407.3	4.225587	173.156	228.425	1.227823	0.072841	0.072500	228.689	40407.3	0.068596	0.158423	1443.53	92752.2
1129	2.000000	1.230540	7.3761e+06	-56589.1	1055.82	-29738.5	0.000000	0.000000	7.241423	250.915	NaN	0.000000	0.001553	0.001718	28.0807	74.1044	0.001854	39962.6	4.051103	-5.264123	245.446	1.230155	0.075217	0.074832	250.915	39962.6	0.070508	0.166160	1510.08	89570.4
1129	2.000000	1.233139	7.3761e+06	-56589.1	1055.82	-29738.5	0.000000	0.000000	7.244426	260.736	NaN	0.000000	0.001553	0.001706	28.0807	76.7049	0.001824	42048.3	0.949455	177.195	260.775	1.232894	0.077815	0.077570	260.736	42048.3	0.073165	0.177199	1471.43	91262.2
1129	2.000000	1.235533	7.3761e+06	-56589.1	1055.82	-29738.5	0.000000	0.000000	7.247660	281.134	NaN	0.000000	0.001552	0.001685	28.0806	77.8071	0.001795	43342.6	2.171258	-4.547456	273.007	1.235157	0.080210	0.079833	281.134	43342.6	0.075345	0.186509	1507.35	91693.5
1129	2.000000	1.238141	7.3761e+06	-56589.1	1055.82	-29738.5	0.000000	0.000000	7.250787	293.761	NaN	0.000000	0.001578	0.001644	28.0812	80.3002	0.001831	43848.7	3.065254	174.236	294.029	1.237874	0.082818	0.082551	293.761	43848.7	0.077793	0.197226	1489.46	90208.6
1129	2.000000	1.240609	7.3761e+06	-56589.1	1055.82	-29738.5	0.000000	0.000000	7.253816	307.394	NaN	0.000000	0.001533	0.001662	28.0821	83.3663	0.001625	51305	5.325212	-9.240259	304.735	1.240333	0.085286	0.085009	307.394	51305	0.080792	0.210740	1458.64	102108
1129	2.000000	1.243058	7.3761e+06	-56589.1	1055.82	-29738.5	0.000000	0.000000	7.257116	328.071	NaN	0.000000	0.001543	0.001690	28.082	87.0182	0.001805	48199.3	1.228731	175.222	324.041	1.242781	0.087735	0.087458	328.071	48199.3	0.082630	0.219226	1496.5	94052
1129	2.000000	1.245652	7.3761e+06	-56589.1	1055.82	-29738.5	0.000000	0.000000	7.260273	341.761	NaN	0.000000	0.001539	0.001704	28.0818	90.5272	0.001936	46769.1	9.475326	-12.3139	342.422	1.245218	0.090329	0.089895	341.761	46769.1	0.084848	0.229679	1487.99	89160.3
1129	2.000000	1.248102	7.3761e+06	-56589.1	1055.82	-29738.5	0.000000	0.000000	7.263642	364.12	NaN	0.000000	0.001570	0.001695	28.082	91.2548	0.001813	50337.6	12.0052	165.326	364.149	1.247631	0.092778	0.092308	364.12	50337.6	0.087353	0.241755	1506.16	93535.8
1129	2.000000	1.250667	7.3761e+06	-56589.1	1055.82	-29738.5	0.000000	0.000000	7.266918	381.382	NaN	0.000000	0.001569	0.001685	28.082	93.3487	0.001784	52312.6	6.459586	-9.858909	383.936	1.250186	0.095344	0.094863	381.382	52312.6	0.089876	0.254211	1500.26	94794.5
1129	2.000000	1.253067	7.3761e+06	-56589.1	1055.82	-29738.5	0.000000	0.000000	7.269705	390.807	NaN	0.000000	0.001523	0.001674	28.082	96.945	0.001818	53329.5	5.769661	169.671	388.167	1.252961	0.097744	0.097638	390.807	53329.5	0.092247	0.266183	1468.19	94438.8
1129	2.000000	1.255599	7.3761e+06	-56589.1	1055.82	-29738.5	0.000000	0.000000	7.273278	416.1	NaN	0.000000	0.001568	0.001696	28.0819	98.752	0.001893	52171.6	5.939027	-8.853510	414.589	1.255138	0.100276	0.099815	416.1	52171.6	0.094294	0.276723	1503.67	90611.8
1129	2.000000	1.258030	7.3761e+06	-56589.1	1055.82	-29738.5	0.000000	0.000000	7.276622	438.29	NaN	0.000000	0.001563	0.001687	28.0821	99.6103	0.001751	56892.2	3.037194	172.645	434.482	1.257765	0.102707	0.102442	438.29	56892.2	0.096929	0.290576	1508.35	96426.4
1129	2.000000	1.260624	7.3761e+06	-56589.1	1055.82	-29738.5	0.000000	0.000000	7.279813	452.799	NaN	0.000000	0.001566	0.001693	28.082	103.246	0.001839	56128.6	4.836564	-9.095376	451.875	1.260273	0.105300	0.104949	452.799	56128.6	0.099250	0.303040	1494.19	93155.2
1129	2.000000	1.262148	7.3761e+06	-56589.1	1055.82	-29738.5	0.000000	0.000000	7.282021	469.414	NaN	0.000000	0.001553	0.001657	28.0817	103.518	0.001748	59211	5.379386	169.677	472.351	1.261751	0.106825	0.106427	469.414	59211	0.100879	0.311933	1504.85	96860.1