File: remote_trans/data/nanoindenter/0828-1/data/Data_2025-08-06,11h17m57s/2025-07-22_16-23-58_1_282.txt
2025-07-22, 16:23:58, 1
Index	Phase	Displacement	Time	Pos X	Pos Y	Pos Z	Rot A	Rot B	Piezo Z	Force A	Force B	Gripper	Voltage A	Voltage B	Temperature	Amplitude force	Amplitude pos	Stiffness	Phase shift	Phase excitation	Force A raw	Displacement raw	HMax	HMax raw	Real Force	Real Stiffness	Contact Depth	Area	Hardness	Reduced Mod.
[#]	[#]	[um]	[s]	[um]	[um]	[um]	[m°]	[m°]	[um]	[uN]	[uN]	[V]	[V]	[V]	[°C]	[uN]	[um]	[N/m]	[°]	[°]	[uN]	[um]	[um]	[um]	[uN]	[N/m]	[um]	[um^2]	[MPa]	[MPa]
282	1.000000	0.002323	7.36781e+06	-52739.1	955.818	-29748.6	0.000000	0.000000	6.002793	-0.031998	NaN	0.000000	0.001598	0.001694	28.0793	0.079697	0.001096	72.7158	-101.438	-160.634	-0.016502	0.001069	-1.071649	-1.072902	-0.031998	72.7158	-1.071319	-2.064922E+14	1.549599E-16	NaN
282	1.000000	0.010304	7.36781e+06	-52739.1	955.82	-29748.6	0.000000	0.000000	6.010774	-0.023258	NaN	0.000000	0.001604	0.001687	28.0789	0.062278	0.001066	58.4162	-67.7093	-162.39	0.003535	0.008974	-1.063668	-1.064998	-0.023258	58.4162	-1.063369	-1.614731E+14	1.440349E-16	NaN
282	1.000000	0.018269	7.36781e+06	-52739.1	955.818	-29748.6	0.000000	0.000000	6.018737	-0.066710	NaN	0.000000	0.001574	0.001673	28.079	0.078954	0.001759	44.8939	104.228	-164.37	-0.133107	0.016994	-1.055703	-1.056977	-0.066710	44.8939	-1.054589	-1.230536E+14	5.421183E-16	NaN
282	1.000000	0.026314	7.36781e+06	-52739.1	955.819	-29748.6	0.000000	0.000000	6.026782	-0.053962	NaN	0.000000	0.001605	0.001681	28.079	0.046640	0.001827	25.5272	13.8238	-168.111	-0.062916	0.024985	-1.047658	-1.048986	-0.053962	25.5272	-1.046073	-9.454023E+13	5.707845E-16	NaN
282	1.000000	0.034279	7.36781e+06	-52739.1	955.819	-29748.6	0.000000	0.000000	6.034749	-0.028950	NaN	0.000000	0.001624	0.001657	28.0793	0.096378	0.001897	50.7923	-15.8347	-165.172	0.039116	0.032964	-1.039692	-1.041008	-0.028950	50.7923	-1.039265	-7.657450E+13	3.780609E-16	NaN
282	1.000000	0.042255	7.36781e+06	-52739.1	955.818	-29748.6	0.000000	0.000000	6.042724	-0.045347	NaN	0.000000	0.001612	0.001676	28.0796	0.162587	0.001986	81.8645	-35.1373	-165.938	-0.114212	0.040986	-1.031717	-1.032986	-0.045347	81.8645	-1.031301	-5.983921E+13	7.578197E-16	NaN
282	1.000000	0.050304	7.36781e+06	-52739.1	955.818	-29748.6	0.000000	0.000000	6.050774	-0.022655	NaN	0.000000	0.001634	0.001657	28.0793	0.042342	0.001948	21.7381	-26.1936	-167.921	0.090091	0.049016	-1.023668	-1.024956	-0.022655	21.7381	-1.022886	-4.610849E+13	4.913349E-16	NaN
282	1.000000	0.058277	7.36781e+06	-52739.1	955.818	-29748.6	0.000000	0.000000	6.058747	-0.019930	NaN	0.000000	0.001612	0.001684	28.0795	0.024198	0.001881	12.8612	28.9096	-163.193	-0.035543	0.056957	-1.015695	-1.017015	-0.019930	12.8612	-1.014532	-3.559432E+13	5.599236E-16	NaN
282	1.000000	0.066303	7.36781e+06	-52739.1	955.818	-29748.6	0.000000	0.000000	6.066771	-0.072976	NaN	0.000000	0.001593	0.001673	28.0794	0.088969	0.001912	46.5228	-42.6232	-165.528	-0.052396	0.064946	-1.007669	-1.009026	-0.072976	46.5228	-1.006492	-2.774409E+13	2.630321E-15	NaN
282	1.000000	0.074276	7.36781e+06	-52739.1	955.82	-29748.6	0.000000	0.000000	6.074743	-0.099378	NaN	0.000000	0.001600	0.001649	28.0793	0.057811	0.002077	27.8367	-99.3718	-164.624	-0.045789	0.073010	-0.999696	-1.000962	-0.099378	27.8367	-0.997018	-2.068343E+13	4.804714E-15	NaN
282	1.000000	0.082306	7.36781e+06	-52739.1	955.819	-29748.6	0.000000	0.000000	6.082775	-0.035383	NaN	0.000000	0.001631	0.001669	28.0793	0.052665	0.001932	27.2588	-166.903	-168.782	-0.041545	0.081004	-0.991666	-0.992967	-0.035383	27.2588	-0.990692	-1.699958E+13	2.081409E-15	NaN
282	1.000000	0.090306	7.36781e+06	-52739.1	955.818	-29748.6	0.000000	0.000000	6.090777	0.007552	NaN	0.000000	0.001604	0.001665	28.079	0.019121	0.001973	9.689355	-57.3176	-164.789	-0.041790	0.088969	-0.983666	-0.985002	0.007552	9.689355	-0.984251	-1.392102E+13	-5.425066E-16	NaN
282	1.000000	0.098307	7.36781e+06	-52739.1	955.819	-29748.6	0.000000	0.000000	6.098775	-0.051832	NaN	0.000000	0.001653	0.001631	28.0809	0.079113	0.002078	38.0773	-145.791	-163.002	-0.009758	0.096999	-0.975665	-0.976972	-0.051832	38.0773	-0.974644	-1.033348E+13	5.015896E-15	NaN
282	1.000000	0.106298	7.36781e+06	-52739.1	955.819	-29748.6	0.000000	0.000000	6.106767	-0.039638	NaN	0.000000	0.001640	0.001654	28.0803	0.071891	0.001851	38.8388	-153.635	-168.155	-0.063225	0.104953	-0.967674	-0.969019	-0.039638	38.8388	-0.966908	-8.128209E+12	4.876579E-15	NaN
282	1.000000	0.114330	7.36781e+06	-52739.1	955.818	-29748.6	0.000000	0.000000	6.114797	-0.089883	NaN	0.000000	0.001643	0.001649	28.0802	0.070040	0.001898	36.9006	140.324	-164.309	-0.134580	0.113020	-0.959642	-0.960952	-0.089883	36.9006	-0.957815	-6.129306E+12	1.466441E-14	NaN
282	1.000000	0.122339	7.36781e+06	-52739.1	955.819	-29748.6	0.000000	0.000000	6.122808	-0.035892	NaN	0.000000	0.001619	0.001695	28.0804	0.074909	0.002071	36.1712	-116.214	-159.194	-0.035893	0.120951	-0.951633	-0.953021	-0.035892	36.1712	-0.950889	-4.943256E+12	7.260821E-15	NaN
282	1.000000	0.130316	7.36781e+06	-52739.1	955.819	-29748.6	0.000000	0.000000	6.130783	-0.076105	NaN	0.000000	0.001594	0.001662	28.0802	0.083708	0.002089	40.0775	35.8823	-165.522	-0.051218	0.129023	-0.943656	-0.944949	-0.076105	40.0775	-0.942232	-3.777866E+12	2.014500E-14	NaN
282	1.000000	0.138298	7.36781e+06	-52739.1	955.819	-29748.6	0.000000	0.000000	6.138769	-0.002960	NaN	0.000000	0.001592	0.001641	28.0807	0.045378	0.002015	22.5225	96.4617	-162.097	0.011706	0.136994	-0.935674	-0.936978	-0.002960	22.5225	-0.935575	-3.072100E+12	9.635979E-16	NaN
282	1.000000	0.146316	7.36781e+06	-52739.1	955.819	-29748.6	0.000000	0.000000	6.146785	-0.037584	NaN	0.000000	0.001600	0.001618	28.0804	0.050548	0.002121	23.8301	60.5601	-164.859	-0.032318	0.144977	-0.927656	-0.928995	-0.037584	23.8301	-0.926473	-2.315191E+12	1.623360E-14	NaN
282	1.000000	0.154317	7.36781e+06	-52739.1	955.818	-29748.6	0.000000	0.000000	6.154786	-0.051227	NaN	0.000000	0.001597	0.001612	28.0803	0.168206	0.001934	86.966	-17.0402	-163.882	-0.084921	0.153008	-0.919654	-0.920964	-0.051227	86.966	-0.919213	-1.847463E+12	2.772830E-14	NaN
282	1.000000	0.162291	7.36781e+06	-52739.1	955.819	-29748.6	0.000000	0.000000	6.162758	-0.074762	NaN	0.000000	0.001672	0.001724	28.0804	0.057197	0.002087	27.4078	162.88	-165.249	-0.053401	0.161053	-0.911681	-0.912919	-0.074762	27.4078	-0.909635	-1.371627E+12	5.450598E-14	NaN
282	1.000000	0.170326	7.36781e+06	-52739.1	955.819	-29748.6	0.000000	0.000000	6.170796	-0.007461	NaN	0.000000	0.001624	0.001700	28.0804	0.050979	0.001986	25.6691	-112.787	-164.375	-0.019926	0.169010	-0.903646	-0.904962	-0.007461	25.6691	-0.903428	-1.130802E+12	6.597863E-15	NaN
282	1.000000	0.178348	7.36781e+06	-52739.1	955.819	-29748.6	0.000000	0.000000	6.178818	-0.008778	NaN	0.000000	0.001698	0.001697	28.0806	0.044221	0.002146	20.606	-88.1258	-162.956	-0.017353	0.177063	-0.895624	-0.896909	-0.008778	20.606	-0.895304	-8.782322E+11	9.995129E-15	NaN
282	1.000000	0.186299	7.36781e+06	-52739.1	955.818	-29748.6	0.000000	0.000000	6.186768	-0.029636	NaN	0.000000	0.001664	0.001679	28.0803	0.079019	0.001871	42.2307	136.927	-162.725	-0.027492	0.185054	-0.887673	-0.888918	-0.029636	42.2307	-0.887147	-6.813031E+11	4.349941E-14	NaN
282	1.000000	0.194296	7.36781e+06	-52739.1	955.818	-29748.6	0.000000	0.000000	6.194762	-0.105531	NaN	0.000000	0.001634	0.001679	28.0806	0.090141	0.001938	46.5063	35.4714	-163.087	-0.039244	0.193023	-0.879676	-0.880949	-0.105531	46.5063	-0.877974	-5.120445E+11	2.060975E-13	NaN
282	1.000000	0.202334	7.36781e+06	-52739.1	955.818	-29748.6	0.000000	0.000000	6.202803	-0.050995	NaN	0.000000	0.001634	0.001728	28.0806	0.023835	0.001848	12.9004	55.314	-164.072	-0.002649	0.200979	-0.871638	-0.872993	-0.050995	12.9004	-0.868673	-3.832561E+11	1.330574E-13	NaN
282	1.000000	0.210317	7.36781e+06	-52739.1	955.819	-29748.6	0.000000	0.000000	6.210787	-0.024662	NaN	0.000000	0.001652	0.001678	28.0804	0.025564	0.001878	13.6089	155.749	-162.228	0.018531	0.209023	-0.863654	-0.864949	-0.024662	13.6089	-0.862295	-3.141857E+11	7.849499E-14	NaN
282	1.000000	0.218370	7.36781e+06	-52739.1	955.818	-29748.6	0.000000	0.000000	6.218838	-0.065719	NaN	0.000000	0.001611	0.001723	28.0805	0.068474	0.001964	34.8661	-178.837	-167.771	-0.074379	0.217062	-0.855602	-0.856910	-0.065719	34.8661	-0.854188	-2.440323E+11	2.693036E-13	NaN
282	1.000000	0.226372	7.36781e+06	-52739.1	955.819	-29748.6	0.000000	0.000000	6.226842	-0.033820	NaN	0.000000	0.001637	0.001735	28.0803	0.091281	0.001921	47.5234	128.082	-165.16	-0.041585	0.224980	-0.847599	-0.848992	-0.033820	47.5234	-0.847066	-1.954337E+11	1.730499E-13	NaN
282	1.000000	0.234353	7.36781e+06	-52739.1	955.82	-29748.6	0.000000	0.000000	6.234823	-0.019525	NaN	0.000000	0.001637	0.001728	28.0795	0.011968	0.001862	6.429093	143.286	-161.967	0.032727	0.233079	-0.839619	-0.840892	-0.019525	6.429093	-0.837341	-1.443021E+11	1.353035E-13	NaN
282	1.000000	0.242373	7.36781e+06	-52739.1	955.818	-29748.6	0.000000	0.000000	6.242841	-0.082972	NaN	0.000000	0.001635	0.001715	28.0792	0.021398	0.002021	10.588	-50.5402	-160.861	-0.104681	0.241072	-0.831598	-0.832900	-0.082972	10.588	-0.825721	-1.004110E+11	8.263282E-13	NaN
282	1.000000	0.250403	7.36781e+06	-52739.1	955.819	-29748.6	0.000000	0.000000	6.250873	-0.017946	NaN	0.000000	0.001637	0.001664	28.0792	0.046165	0.001990	23.1953	-13.6228	-163.752	-0.049655	0.249088	-0.823568	-0.824883	-0.017946	23.1953	-0.822988	-9.219967E+10	1.946469E-13	NaN
282	1.000000	0.258365	7.36781e+06	-52739.1	955.82	-29748.6	0.000000	0.000000	6.258835	-0.019501	NaN	0.000000	0.001618	0.001715	28.0792	0.083197	0.001967	42.2884	-54.0346	-164.376	-0.104542	0.257048	-0.815607	-0.816924	-0.019501	42.2884	-0.815261	-7.243330E+10	2.692327E-13	NaN
282	1.000000	0.266404	7.36781e+06	-52739.1	955.818	-29748.6	0.000000	0.000000	6.266872	-0.052427	NaN	0.000000	0.001659	0.001718	28.079	0.007203	0.001917	3.758012	150.603	-167.881	-0.045341	0.265098	-0.807568	-0.808874	-0.052427	3.758012	-0.797105	-4.107350E+10	1.276420E-12	NaN
282	1.000000	0.274370	7.36781e+06	-52739.1	955.819	-29748.6	0.000000	0.000000	6.274835	-0.128956	NaN	0.000000	0.001642	0.001739	28.0793	0.121681	0.001903	63.9504	-124.264	-168.194	-0.051246	0.273126	-0.799602	-0.800846	-0.128956	63.9504	-0.798089	-4.235719E+10	3.044485E-12	NaN
282	1.000000	0.282378	7.36781e+06	-52739.1	955.82	-29748.6	0.000000	0.000000	6.282845	-0.091909	NaN	0.000000	0.001619	0.001726	28.0792	0.059580	0.001917	31.0742	16.9588	-166.035	-0.076896	0.281069	-0.791594	-0.792903	-0.091909	31.0742	-0.789375	-3.225515E+10	2.849438E-12	NaN
282	1.000000	0.290381	7.36781e+06	-52739.1	955.817	-29748.6	0.000000	0.000000	6.290850	-0.029996	NaN	0.000000	0.001552	0.001699	28.0792	0.017948	0.001921	9.343635	171.595	-164.099	-0.136757	0.289083	-0.783591	-0.784889	-0.029996	9.343635	-0.781183	-2.496390E+10	1.201593E-12	NaN
282	1.000000	0.298379	7.36781e+06	-52739.1	955.819	-29748.6	0.000000	0.000000	6.298848	-0.045292	NaN	0.000000	0.001604	0.001693	28.0791	0.104319	0.002111	49.4276	-30.3383	-166.256	0.014577	0.297042	-0.775593	-0.776929	-0.045292	49.4276	-0.774906	-2.051137E+10	2.208131E-12	NaN
282	1.000000	0.306393	7.36781e+06	-52739.1	955.818	-29748.6	0.000000	0.000000	6.306862	-0.058138	NaN	0.000000	0.001564	0.001700	28.0791	0.041419	0.001966	21.072	144.774	-163.661	-0.054658	0.305076	-0.767579	-0.768896	-0.058138	21.072	-0.765509	-1.528415E+10	3.803779E-12	NaN
282	1.000000	0.314377	7.36781e+06	-52739.1	955.818	-29748.6	0.000000	0.000000	6.314843	-0.125213	NaN	0.000000	0.001631	0.001727	28.0791	0.074119	0.001925	38.5078	-89.8523	-164.354	-0.044118	0.313109	-0.759595	-0.760863	-0.125213	38.5078	-0.757156	-1.176549E+10	1.064238E-11	NaN
282	1.000000	0.322414	7.36781e+06	-52739.1	955.818	-29748.6	0.000000	0.000000	6.322885	0.001193	NaN	0.000000	0.001584	0.001677	28.0793	0.068051	0.001968	34.5776	-30.3136	-162.268	-0.013017	0.321125	-0.751558	-0.752846	0.001193	34.5776	-0.751584	-9.880511E+9	-1.207927E-13	NaN
282	1.000000	0.330419	7.36781e+06	-52739.1	955.819	-29748.6	0.000000	0.000000	6.330887	-0.056390	NaN	0.000000	0.001598	0.001725	28.0794	0.030002	0.001952	15.3659	177.188	-167.24	-0.038190	0.329115	-0.743553	-0.744856	-0.056390	15.3659	-0.740801	-7.046270E+9	8.002860E-12	NaN
282	1.000000	0.338405	7.36781e+06	-52739.1	955.819	-29748.6	0.000000	0.000000	6.338872	-0.101090	NaN	0.000000	0.001614	0.001709	28.0788	0.061643	0.001961	31.4356	171.475	-165.186	-0.068442	0.337062	-0.735567	-0.736910	-0.101090	31.4356	-0.733155	-5.543700E+9	1.823516E-11	NaN
282	1.000000	0.346411	7.36781e+06	-52739.1	955.819	-29748.6	0.000000	0.000000	6.346881	-0.007298	NaN	0.000000	0.001601	0.001702	28.0796	0.055424	0.002069	26.7913	95.2141	-163.056	-0.020483	0.345067	-0.727561	-0.728905	-0.007298	26.7913	-0.727357	-4.621468E+9	1.579176E-12	NaN
282	1.000000	0.354397	7.36781e+06	-52739.1	955.818	-29748.6	0.000000	0.000000	6.354865	-0.074197	NaN	0.000000	0.001613	0.001678	28.0792	0.135577	0.001924	70.464	-95.641	-165.494	-0.046812	0.353060	-0.719574	-0.720912	-0.074197	70.464	-0.718785	-3.530985E+9	2.101317E-11	NaN
282	1.000000	0.362431	7.36781e+06	-52739.1	955.818	-29748.6	0.000000	0.000000	6.362897	-0.120598	NaN	0.000000	0.001591	0.001702	28.0792	0.025780	0.002059	12.5204	-129.275	-164.753	-0.166393	0.361084	-0.711541	-0.712888	-0.120598	12.5204	-0.704317	-2.241151E+9	5.381089E-11	NaN
282	1.000000	0.370439	7.36781e+06	-52739.1	955.818	-29748.6	0.000000	0.000000	6.370909	-0.032077	NaN	0.000000	0.001594	0.001694	28.0802	0.023956	0.001927	12.4322	40.0695	-164.711	-0.047993	0.369156	-0.703532	-0.704816	-0.032077	12.4322	-0.701597	-2.057511E+9	1.559009E-11	NaN
282	1.000000	0.378418	7.36781e+06	-52739.1	955.818	-29748.6	0.000000	0.000000	6.378888	-0.013679	NaN	0.000000	0.001621	0.001753	28.0804	0.058559	0.002112	27.7288	15.8685	-166.77	-0.013769	0.377063	-0.695553	-0.696909	-0.013679	27.7288	-0.695184	-1.681682E+9	8.133989E-12	NaN
282	1.000000	0.386418	7.36781e+06	-52739.1	955.818	-29748.6	0.000000	0.000000	6.386885	-0.084608	NaN	0.000000	0.001653	0.001763	28.0808	0.063816	0.002025	31.5188	128.559	-167.094	-0.098717	0.385107	-0.687554	-0.688865	-0.084608	31.5188	-0.685541	-1.241562E+9	6.814682E-11	NaN
282	1.000000	0.394462	7.36781e+06	-52739.1	955.819	-29748.6	0.000000	0.000000	6.394932	-0.032264	NaN	0.000000	0.001612	0.001717	28.0803	0.091954	0.001930	47.6357	158.09	-163.636	-0.138324	0.393091	-0.679510	-0.680881	-0.032264	47.6357	-0.679002	-1.010531E+9	3.192812E-11	NaN
282	1.000000	0.402421	7.36781e+06	-52739.1	955.818	-29748.6	0.000000	0.000000	6.402890	-0.043690	NaN	0.000000	0.001620	0.001720	28.0804	0.066451	0.002064	32.1934	-147.681	-162.076	-0.081731	0.401085	-0.671551	-0.672887	-0.043690	32.1934	-0.670533	-7.739070E+8	5.645335E-11	NaN
282	1.000000	0.410445	7.36781e+06	-52739.1	955.818	-29748.6	0.000000	0.000000	6.410913	-0.052320	NaN	0.000000	0.001600	0.001738	28.0806	0.060927	0.002004	30.4046	146.932	-164.877	-0.021520	0.409157	-0.663527	-0.664814	-0.052320	30.4046	-0.662236	-5.957984E+8	8.781451E-11	NaN
282	1.000000	0.418415	7.36781e+06	-52739.1	955.819	-29748.6	0.000000	0.000000	6.418881	-0.114290	NaN	0.000000	0.001643	0.001725	28.0806	0.081171	0.001922	42.242	38.3249	-161.4	-0.040394	0.417135	-0.655557	-0.656837	-0.114290	42.242	-0.653527	-4.526754E+8	2.524771E-10	NaN
282	1.000000	0.426433	7.36781e+06	-52739.1	955.819	-29748.6	0.000000	0.000000	6.426900	-0.078449	NaN	0.000000	0.001636	0.001730	28.0807	0.070630	0.002150	32.8437	-84.9693	-164.64	-0.007761	0.425109	-0.647539	-0.648863	-0.078449	32.8437	-0.645748	-3.541041E+8	2.215423E-10	NaN
282	1.000000	0.434456	7.36781e+06	-52739.1	955.818	-29748.6	0.000000	0.000000	6.434925	-0.057598	NaN	0.000000	0.001611	0.001722	28.0803	0.117366	0.001918	61.2037	9.446155	-164.826	-0.011927	0.433111	-0.639515	-0.640861	-0.057598	61.2037	-0.638810	-2.844171E+8	2.025129E-10	NaN
282	1.000000	0.442457	7.36781e+06	-52739.1	955.818	-29748.6	0.000000	0.000000	6.442925	-0.053046	NaN	0.000000	0.001602	0.001749	28.0803	0.062678	0.001989	31.513	22.6484	-165.959	-0.073359	0.441145	-0.631515	-0.632827	-0.053046	31.513	-0.630253	-2.170160E+8	2.444319E-10	NaN
282	1.000000	0.450473	7.36781e+06	-52739.1	955.818	-29748.6	0.000000	0.000000	6.450944	0.006111	NaN	0.000000	0.001626	0.001742	28.0802	0.061892	0.002101	29.4522	-39.7571	-164.22	0.009045	0.449131	-0.623499	-0.624841	0.006111	29.4522	-0.623654	-1.761391E+8	-3.469526E-11	NaN
282	1.000000	0.458473	7.36781e+06	-52739.1	955.819	-29748.6	0.000000	0.000000	6.458943	-0.007142	NaN	0.000000	0.001607	0.001711	28.0804	0.030060	0.002079	14.458	-171.253	-163.93	0.005227	0.457133	-0.615499	-0.616839	-0.007142	14.458	-0.615128	-1.344791E+8	5.310551E-11	NaN
282	1.000000	0.466430	7.36781e+06	-52739.1	955.818	-29748.6	0.000000	0.000000	6.466902	0.039556	NaN	0.000000	0.001608	0.001753	28.0808	0.049569	0.002056	24.113	-98.4376	-162.09	-0.009575	0.465105	-0.607542	-0.608867	0.039556	24.113	-0.608772	-1.099567E+8	-3.597374E-10	NaN
282	1.000000	0.474457	7.36782e+06	-52739.1	955.818	-29748.6	0.000000	0.000000	6.474926	-0.051875	NaN	0.000000	0.001606	0.001714	28.0802	0.047835	0.001941	24.6423	77.9537	-165.096	-0.083955	0.473139	-0.599514	-0.600833	-0.051875	24.6423	-0.597935	-7.798740E+7	6.651723E-10	NaN
282	1.000000	0.482484	7.36782e+06	-52739.1	955.817	-29748.6	0.000000	0.000000	6.482953	-0.036628	NaN	0.000000	0.001623	0.001717	28.0804	0.099429	0.002016	49.3274	-14.0335	-165.043	-0.100090	0.481106	-0.591488	-0.592866	-0.036628	49.3274	-0.590931	-6.244574E+7	5.865517E-10	NaN
282	1.000000	0.490488	7.36782e+06	-52739.1	955.819	-29748.6	0.000000	0.000000	6.490955	-0.087210	NaN	0.000000	0.001652	0.001739	28.0804	0.102069	0.002011	50.7541	-94.4883	-163.412	-0.145413	0.489209	-0.583484	-0.584762	-0.087210	50.7541	-0.582195	-4.731749E+7	1.843090E-9	NaN
282	1.000000	0.498458	7.36782e+06	-52739.1	955.819	-29748.6	0.000000	0.000000	6.498929	-0.005013	NaN	0.000000	0.001602	0.001737	28.0804	0.052926	0.001801	29.3902	96.0382	-165.134	0.033204	0.497171	-0.575513	-0.576801	-0.005013	29.3902	-0.575385	-3.810838E+7	1.315426E-10	NaN
282	1.000000	0.506465	7.36782e+06	-52739.1	955.819	-29748.6	0.000000	0.000000	6.506935	-0.025757	NaN	0.000000	0.001628	0.001746	28.0801	0.098659	0.002100	46.9694	128.519	-167.446	-0.033687	0.505189	-0.567507	-0.568783	-0.025757	46.9694	-0.567095	-2.927453E+7	8.798294E-10	NaN
282	1.000000	0.514457	7.36782e+06	-52739.1	955.819	-29748.6	0.000000	0.000000	6.514926	-0.057544	NaN	0.000000	0.001626	0.001723	28.0795	0.155786	0.002127	73.2454	108.339	-166.638	-0.083472	0.513205	-0.559515	-0.560767	-0.057544	73.2454	-0.558925	-2.256886E+7	2.549705E-9	NaN
282	1.000000	0.522490	7.36782e+06	-52739.1	955.819	-29748.6	0.000000	0.000000	6.522957	-0.094263	NaN	0.000000	0.001608	0.001732	28.0796	0.006724	0.001995	3.370284	-112.794	-164.574	-0.085812	0.521200	-0.551481	-0.552771	-0.094263	3.370284	-0.530505	-9.11139e+06	1.034561E-8	NaN
282	1.000000	0.530487	7.36782e+06	-52739.1	955.818	-29748.6	0.000000	0.000000	6.530957	-0.022133	NaN	0.000000	0.001607	0.001711	28.0794	0.028204	0.002053	13.7356	33.2339	-164.081	0.041406	0.529166	-0.543485	-0.544806	-0.022133	13.7356	-0.542276	-1.327167E+7	1.667700E-9	NaN
282	1.000000	0.538508	7.36782e+06	-52739.1	955.818	-29748.6	0.000000	0.000000	6.538977	-0.048862	NaN	0.000000	0.001574	0.001739	28.0793	0.100644	0.002001	50.2961	101.794	-166.565	-0.042418	0.537199	-0.535464	-0.536773	-0.048862	50.2961	-0.534735	-1.043065E+7	4.684505E-9	NaN
282	1.000000	0.546485	7.36782e+06	-52739.1	955.818	-29748.6	0.000000	0.000000	6.546955	-0.022945	NaN	0.000000	0.001647	0.001731	28.0794	0.047979	0.002056	23.3334	-165.389	-163.658	-0.037885	0.545144	-0.527486	-0.528827	-0.022945	23.3334	-0.526749	-8.08005e+06	2.839719E-9	NaN
282	1.000000	0.554483	7.36782e+06	-52739.1	955.819	-29748.6	0.000000	0.000000	6.554954	-0.009063	NaN	0.000000	0.001630	0.001731	28.0794	0.050909	0.002072	24.5643	43.7763	-164.331	-0.052631	0.553193	-0.519488	-0.520779	-0.009063	24.5643	-0.519212	-6.34793e+06	1.427783E-9	NaN
282	1.000000	0.562510	7.36782e+06	-52739.1	955.818	-29748.6	0.000000	0.000000	6.562979	-0.027756	NaN	0.000000	0.001603	0.001714	28.0795	0.047242	0.001916	24.6511	136.26	-163.262	-0.069274	0.561185	-0.511462	-0.512787	-0.027756	24.6511	-0.510618	-4.81968e+06	5.758955E-9	NaN
282	1.000000	0.570500	7.36782e+06	-52739.1	955.818	-29748.6	0.000000	0.000000	6.570970	-0.039636	NaN	0.000000	0.001604	0.001764	28.0793	0.100981	0.001975	51.1418	120.339	-167.034	-0.068040	0.569246	-0.503471	-0.504725	-0.039636	51.1418	-0.502890	-3.76121e+06	1.053822E-8	NaN
282	1.000000	0.578505	7.36782e+06	-52739.1	955.819	-29748.6	0.000000	0.000000	6.578973	-0.058119	NaN	0.000000	0.001609	0.001733	28.0795	0.054582	0.001967	27.7525	-75.2426	-164.089	0.027740	0.577176	-0.495467	-0.496796	-0.058119	27.7525	-0.493896	-2.81723e+06	2.062996E-8	NaN
282	1.000000	0.586528	7.36782e+06	-52739.1	955.819	-29748.6	0.000000	0.000000	6.586999	0.007133	NaN	0.000000	0.001619	0.001733	28.0794	0.057716	0.002016	28.6343	-156.327	-164.303	0.000385	0.585216	-0.487444	-0.488756	0.007133	28.6343	-0.487631	-2.30293e+06	-3.097190E-9	NaN
282	1.000000	0.594523	7.36782e+06	-52739.1	955.818	-29748.6	0.000000	0.000000	6.594995	0.029017	NaN	0.000000	0.001615	0.001662	28.0793	0.067694	0.001890	35.8209	16.4618	-163.588	0.035627	0.593211	-0.479449	-0.480761	0.029017	35.8209	-0.480056	-1.80433e+06	-1.608159E-8	NaN
282	1.000000	0.602500	7.36782e+06	-52739.1	955.818	-29748.6	0.000000	0.000000	6.602967	-0.113953	NaN	0.000000	0.001618	0.001711	28.0795	0.077044	0.002021	38.1143	125.481	-163.27	-0.104965	0.601197	-0.471471	-0.472775	-0.113953	38.1143	-0.469229	-1.27231e+06	8.956376E-8	NaN
282	1.000000	0.610540	7.36782e+06	-52739.1	955.818	-29748.6	0.000000	0.000000	6.611011	-0.002165	NaN	0.000000	0.001600	0.001706	28.0793	0.134471	0.002052	65.5461	41.1803	-165.51	-0.028142	0.609201	-0.463432	-0.464770	-0.002165	65.5461	-0.463407	-1.05409e+06	2.053708E-9	NaN
282	1.000000	0.618542	7.36782e+06	-52739.1	955.819	-29748.6	0.000000	0.000000	6.619012	-0.003782	NaN	0.000000	0.001616	0.001741	28.0796	0.037878	0.002106	17.9829	130.279	-162.884	-0.011798	0.617150	-0.455430	-0.456822	-0.003782	17.9829	-0.455272	-810117	4.667966E-9	NaN
282	1.000000	0.626548	7.36782e+06	-52739.1	955.819	-29748.6	0.000000	0.000000	6.627020	0.037408	NaN	0.000000	0.001645	0.001715	28.0793	0.053005	0.002179	24.3214	-33.9744	-164.159	-0.016695	0.625194	-0.447424	-0.448778	0.037408	24.3214	-0.448577	-652088	-5.736699E-8	NaN
282	1.000000	0.634531	7.36782e+06	-52739.1	955.819	-29748.6	0.000000	0.000000	6.635000	-0.048891	NaN	0.000000	0.001644	0.001737	28.0795	0.063494	0.001959	32.4165	-0.331857	-166.063	0.001209	0.633161	-0.439440	-0.440810	-0.048891	32.4165	-0.438309	-467194	1.046486E-7	NaN
282	1.000000	0.642530	7.36782e+06	-52739.1	955.818	-29748.6	0.000000	0.000000	6.643000	-0.012728	NaN	0.000000	0.001599	0.001738	28.0796	0.030115	0.001956	15.3959	117.894	-164.39	-0.051181	0.641175	-0.431442	-0.432797	-0.012728	15.3959	-0.430822	-366175	3.476055E-8	NaN
282	1.000000	0.650531	7.36782e+06	-52739.1	955.819	-29748.6	0.000000	0.000000	6.650998	-0.111463	NaN	0.000000	0.001603	0.001739	28.0803	0.024741	0.001992	12.4201	151.081	-162.98	-0.094932	0.649223	-0.423440	-0.424749	-0.111463	12.4201	-0.416710	-231061	4.823950E-7	NaN
282	1.000000	0.658562	7.36782e+06	-52739.1	955.818	-29748.6	0.000000	0.000000	6.659033	0.002868	NaN	0.000000	0.001692	0.001730	28.0809	0.054163	0.002038	26.5797	175.619	-165.944	0.061308	0.657231	-0.415410	-0.416741	0.002868	26.5797	-0.415491	-222035	-1.291634E-8	NaN
282	1.000000	0.666553	7.36782e+06	-52739.1	955.818	-29748.6	0.000000	0.000000	6.667022	-0.052531	NaN	0.000000	0.001686	0.001753	28.0805	0.002620	0.002079	1.260293	139.604	-165.758	-0.024671	0.665247	-0.407419	-0.408725	-0.052531	1.260293	-0.376157	-60912.3	8.624049E-7	NaN
282	1.000000	0.674544	7.36782e+06	-52739.1	955.819	-29748.6	0.000000	0.000000	6.675015	0.015442	NaN	0.000000	0.001562	0.001711	28.0806	0.043927	0.002072	21.2044	-14.3448	-164.149	0.006899	0.673220	-0.399428	-0.400752	0.015442	21.2044	-0.399974	-133544	-1.156345E-7	NaN
282	1.000000	0.682555	7.36782e+06	-52739.1	955.818	-29748.6	0.000000	0.000000	6.683022	-0.090772	NaN	0.000000	0.001589	0.001709	28.0806	0.051205	0.001946	26.3087	-77.6483	-167.165	-0.018351	0.681210	-0.391417	-0.392761	-0.090772	26.3087	-0.388829	-92558.1	9.807071E-7	NaN
282	1.000000	0.690546	7.36782e+06	-52739.1	955.818	-29748.6	0.000000	0.000000	6.691014	-0.061611	NaN	0.000000	0.001609	0.001756	28.0803	0.053349	0.001870	28.5298	-26.5873	-166.379	-0.017735	0.689277	-0.383426	-0.384695	-0.061611	28.5298	-0.381806	-73418.2	8.391777E-7	NaN
282	1.000000	0.698539	7.36782e+06	-52739.1	955.817	-29748.7	0.000000	0.000000	6.699009	-0.009135	NaN	0.000000	0.001579	0.001730	28.0807	0.105121	0.001975	53.2158	-6.754822	-163.678	-0.023890	0.697268	-0.375433	-0.376703	-0.009135	53.2158	-0.375304	-59216.9	1.542664E-7	NaN
282	1.000000	0.706550	7.36782e+06	-52739.1	955.819	-29748.6	0.000000	0.000000	6.707024	0.081428	NaN	0.000000	0.001622	0.001745	28.0803	0.045996	0.001905	24.1509	-117.81	-166.765	-0.033368	0.705206	-0.367422	-0.368766	0.081428	24.1509	-0.369950	-49592.3	-1.641958E-6	NaN
282	1.000000	0.714582	7.36782e+06	-52739.1	955.819	-29748.7	0.000000	0.000000	6.715048	-0.114206	NaN	0.000000	0.001629	0.001709	28.0805	0.053332	0.001917	27.827	170.654	-164.601	-0.056416	0.713250	-0.359390	-0.360721	-0.114206	27.827	-0.356312	-31513	3.624083E-6	NaN
282	1.000000	0.722562	7.36782e+06	-52739.1	955.819	-29748.7	0.000000	0.000000	6.723029	-0.097115	NaN	0.000000	0.001650	0.001738	28.0805	0.087145	0.002098	41.5429	-138.641	-164.876	-0.097523	0.721228	-0.351410	-0.352744	-0.097115	41.5429	-0.349656	-25235.7	3.848297E-6	NaN
282	1.000000	0.730600	7.36782e+06	-52739.1	955.818	-29748.7	0.000000	0.000000	6.731072	0.016048	NaN	0.000000	0.001665	0.001720	28.0803	0.047886	0.001997	23.9791	-89.3471	-164.453	-0.017996	0.729287	-0.343371	-0.344684	0.016048	23.9791	-0.343873	-20795.3	-7.717160E-7	NaN
282	1.000000	0.738587	7.36782e+06	-52739.1	955.819	-29748.7	0.000000	0.000000	6.739055	-0.064726	NaN	0.000000	0.001631	0.001724	28.0808	0.150055	0.002141	70.0925	26.4152	-169.582	0.083453	0.737233	-0.335385	-0.336739	-0.064726	70.0925	-0.334693	-15279	4.236234E-6	NaN
282	1.000000	0.746572	7.36782e+06	-52739.1	955.817	-29748.7	0.000000	0.000000	6.747041	-0.045485	NaN	0.000000	0.001616	0.001737	28.0802	0.097482	0.001972	49.4315	-176.868	-167.921	-0.084087	0.745289	-0.327400	-0.328682	-0.045485	49.4315	-0.326710	-11674.2	3.896201E-6	NaN
282	1.000000	0.754581	7.36782e+06	-52739.1	955.819	-29748.7	0.000000	0.000000	6.755051	-0.019996	NaN	0.000000	0.001627	0.001747	28.0804	0.135994	0.002083	65.2922	-138.984	-165.732	-0.020610	0.753288	-0.319391	-0.320684	-0.019996	65.2922	-0.319161	-9042.6	2.211317E-6	NaN
282	1.000000	0.762588	7.36782e+06	-52739.1	955.818	-29748.7	0.000000	0.000000	6.763058	-0.012661	NaN	0.000000	0.001638	0.001761	28.0804	0.043464	0.002042	21.2877	94.6234	-166.426	-0.028746	0.761284	-0.311384	-0.312688	-0.012661	21.2877	-0.310938	-6838.04	1.851541E-6	NaN
282	1.000000	0.770569	7.36782e+06	-52739.1	955.819	-29748.7	0.000000	0.000000	6.771037	-0.059853	NaN	0.000000	0.001618	0.001742	28.0805	0.084951	0.001988	42.731	87.6696	-164.58	-0.049409	0.769291	-0.303403	-0.304680	-0.059853	42.731	-0.302352	-5100.7	1.173427E-5	NaN
282	1.000000	0.778599	7.36782e+06	-52739.1	955.818	-29748.7	0.000000	0.000000	6.779068	-0.040074	NaN	0.000000	0.001597	0.001761	28.0806	0.032902	0.001974	16.6714	-69.4451	-162.947	-0.032019	0.777210	-0.295372	-0.296761	-0.040074	16.6714	-0.293570	-3773.28	1.062043E-5	NaN
282	1.000000	0.786581	7.36782e+06	-52739.1	955.819	-29748.7	0.000000	0.000000	6.787049	-0.075256	NaN	0.000000	0.001559	0.001777	28.0791	0.042343	0.001920	22.0575	67.1881	-166.902	-0.045077	0.785261	-0.287390	-0.288711	-0.075256	22.0575	-0.284832	-2790.84	2.696517E-5	NaN
282	1.000000	0.794583	7.36782e+06	-52739.1	955.819	-29748.7	0.000000	0.000000	6.795053	-0.035293	NaN	0.000000	0.001581	0.001770	28.0791	0.053873	0.001920	28.0556	72.5288	-166.002	-0.098617	0.793285	-0.279388	-0.280686	-0.035293	28.0556	-0.278445	-2236.12	1.578330E-5	NaN
282	1.000000	0.802601	7.36782e+06	-52739.1	955.819	-29748.7	0.000000	0.000000	6.803067	-0.100652	NaN	0.000000	0.001584	0.001726	28.079	0.069015	0.002020	34.1744	61.4846	-165.399	-0.087436	0.801275	-0.271371	-0.272696	-0.100652	34.1744	-0.269162	-1617.34	6.223289E-5	NaN
282	1.000000	0.810611	7.36782e+06	-52739.1	955.819	-29748.7	0.000000	0.000000	6.811081	-0.016195	NaN	0.000000	0.001568	0.001762	28.0794	0.027526	0.002085	13.2015	-92.4855	-164.548	-0.022383	0.809323	-0.263360	-0.264648	-0.016195	13.2015	-0.262440	-1277.26	1.267963E-5	NaN
282	1.000000	0.818605	7.36782e+06	-52739.1	955.818	-29748.7	0.000000	0.000000	6.819071	-0.099992	NaN	0.000000	0.001598	0.001767	28.0794	0.130315	0.001961	66.466	-163.15	-165.842	-0.157863	0.817326	-0.255367	-0.256646	-0.099992	66.466	-0.254239	-955.858	0.000105	NaN
282	1.000000	0.826585	7.36782e+06	-52739.1	955.818	-29748.7	0.000000	0.000000	6.827055	-0.025355	NaN	0.000000	0.001559	0.001780	28.0791	0.075241	0.001904	39.521	63.7579	-163.144	-0.035694	0.825298	-0.247387	-0.248674	-0.025355	39.521	-0.246905	-736.268	3.443756E-5	NaN
282	1.000000	0.834602	7.36782e+06	-52739.1	955.818	-29748.7	0.000000	0.000000	6.835069	-0.111734	NaN	0.000000	0.001585	0.001756	28.0793	0.058157	0.002032	28.6249	-38.2443	-165.169	-0.003861	0.833348	-0.239369	-0.240624	-0.111734	28.6249	-0.236442	-505.677	0.000221	NaN
282	1.000000	0.842589	7.36782e+06	-52739.1	955.818	-29748.7	0.000000	0.000000	6.843058	-0.048252	NaN	0.000000	0.001613	0.001773	28.0792	0.067864	0.001931	35.1469	-137.841	-165.838	-0.049769	0.841309	-0.231383	-0.232663	-0.048252	35.1469	-0.230353	-405.596	0.000119	NaN
282	1.000000	0.850623	7.36782e+06	-52739.1	955.817	-29748.7	0.000000	0.000000	6.851093	-0.033739	NaN	0.000000	0.001615	0.001768	28.0792	0.041529	0.001991	20.8622	78.0089	-169.065	-0.053576	0.849301	-0.223348	-0.224670	-0.033739	20.8622	-0.222135	-300.439	0.000112	NaN
282	1.000000	0.858611	7.36782e+06	-52739.1	955.819	-29748.7	0.000000	0.000000	6.859080	-0.046105	NaN	0.000000	0.001588	0.001774	28.0791	0.093433	0.002008	46.5224	-159.498	-167.174	0.002415	0.857278	-0.215361	-0.216693	-0.046105	46.5224	-0.214618	-227.701	0.000202	NaN
282	1.000000	0.866616	7.36782e+06	-52739.1	955.818	-29748.7	0.000000	0.000000	6.867084	-0.055941	NaN	0.000000	0.001610	0.001741	28.0792	0.087393	0.001930	45.2808	-89.3133	-166.198	-0.094028	0.865352	-0.207356	-0.208619	-0.055941	45.2808	-0.206430	-167.823	0.000333	NaN
282	1.000000	0.874619	7.36782e+06	-52739.1	955.818	-29748.7	0.000000	0.000000	6.875086	-0.102009	NaN	0.000000	0.001633	0.001735	28.0793	0.020876	0.001794	11.6336	-158.741	-168.319	-0.060167	0.873310	-0.199353	-0.200661	-0.102009	11.6336	-0.192776	-100.068	0.001019	NaN
282	1.000000	0.882654	7.36782e+06	-52739.1	955.818	-29748.7	0.000000	0.000000	6.883123	-0.047368	NaN	0.000000	0.001620	0.001736	28.0794	0.096485	0.002019	47.7774	121.41	-167.228	-0.007406	0.881298	-0.191318	-0.192674	-0.047368	47.7774	-0.190574	-91.9628	0.000515	NaN
282	1.000000	0.890614	7.36782e+06	-52739.1	955.818	-29748.7	0.000000	0.000000	6.891084	-0.036449	NaN	0.000000	0.001665	0.001755	28.0793	0.024361	0.002045	11.9123	124.263	-165.626	-0.067082	0.889323	-0.183357	-0.184649	-0.036449	11.9123	-0.181062	-63.6098	0.000573	NaN
282	1.000000	0.898670	7.36782e+06	-52739.1	955.819	-29748.7	0.000000	0.000000	6.899137	-0.088575	NaN	0.000000	0.001630	0.001741	28.0791	0.064149	0.002002	32.0491	158.75	-166.042	-0.071087	0.897302	-0.175302	-0.176670	-0.088575	32.0491	-0.173229	-46.7187	0.001896	NaN
282	1.000000	0.906630	7.36782e+06	-52739.1	955.818	-29748.7	0.000000	0.000000	6.907098	-0.068476	NaN	0.000000	0.001638	0.001764	28.0794	0.089041	0.001900	46.8625	154.98	-166.039	-0.074391	0.905359	-0.167341	-0.168612	-0.068476	46.8625	-0.166245	-35.3301	0.001938	NaN
282	1.000000	0.914622	7.36782e+06	-52739.1	955.818	-29748.7	0.000000	0.000000	6.915089	-0.076303	NaN	0.000000	0.001611	0.001750	28.0793	0.040603	0.001974	20.568	163.62	-163.72	-0.071008	0.913283	-0.159350	-0.160688	-0.076303	20.568	-0.156568	-23.8086	0.003205	NaN
282	1.000000	0.922636	7.36782e+06	-52739.1	955.819	-29748.7	0.000000	0.000000	6.923107	-0.002166	NaN	0.000000	0.001585	0.001745	28.0806	0.013154	0.001885	6.979711	29.1583	-166.202	-0.025963	0.921324	-0.151335	-0.152647	-0.002166	6.979711	-0.151103	-18.9706	0.000114	NaN
282	1.000000	0.930644	7.36782e+06	-52739.1	955.819	-29748.7	0.000000	0.000000	6.931112	-0.072605	NaN	0.000000	0.001593	0.001737	28.0806	0.108341	0.001962	55.213	-93.8608	-165.883	-0.011711	0.929339	-0.143328	-0.144633	-0.072605	55.213	-0.142342	-13.0855	0.005548	NaN
282	1.000000	0.938648	7.36782e+06	-52739.1	955.818	-29748.7	0.000000	0.000000	6.939112	-0.177303	NaN	0.000000	0.001602	0.001739	28.0803	0.010158	0.001911	5.315492	52.5218	-167.512	-0.136623	0.937296	-0.135323	-0.136676	-0.177303	5.315492	-0.110306	-3.050198	0.058128	NaN
282	1.000000	0.946651	7.36782e+06	-52739.1	955.819	-29748.7	0.000000	0.000000	6.947115	-0.154865	NaN	0.000000	0.001597	0.001754	28.0805	0.048454	0.002010	24.1011	138.331	-167.863	-0.112500	0.945339	-0.127321	-0.128633	-0.154865	24.1011	-0.122501	-5.423933	0.028552	NaN
282	1.000000	0.954675	7.36782e+06	-52739.1	955.818	-29748.7	0.000000	0.000000	6.955145	-0.042676	NaN	0.000000	0.001613	0.001769	28.0806	0.067791	0.002008	33.7662	-73.0761	-165.546	-0.024825	0.953358	-0.119296	-0.120613	-0.042676	33.7662	-0.118348	-4.473368	0.009540	NaN
282	1.000000	0.962673	7.36782e+06	-52739.1	955.817	-29748.7	0.000000	0.000000	6.963142	-0.049489	NaN	0.000000	0.001599	0.001801	28.0809	0.070798	0.002028	34.909	-135.444	-167.784	-0.028609	0.961317	-0.111299	-0.112655	-0.049489	34.909	-0.110236	-3.039749	0.016281	NaN
282	1.000000	0.970669	7.36782e+06	-52739.1	955.819	-29748.7	0.000000	0.000000	6.971138	-0.042759	NaN	0.000000	0.001611	0.001750	28.0809	0.013941	0.002003	6.961519	175.589	-167.08	-0.061476	0.969359	-0.103303	-0.104613	-0.042759	6.961519	-0.098696	-1.709096	0.025019	NaN
282	1.000000	0.978661	7.36782e+06	-52739.1	955.818	-29748.7	0.000000	0.000000	6.979131	-0.011024	NaN	0.000000	0.001579	0.001758	28.0808	0.027949	0.002075	13.4701	175.868	-163.945	0.049621	0.977410	-0.095311	-0.096562	-0.011024	13.4701	-0.094697	-1.388379	0.007940	NaN
282	1.000000	0.986699	7.36782e+06	-52739.1	955.818	-29748.7	0.000000	0.000000	6.987169	-0.025636	NaN	0.000000	0.001588	0.001748	28.0809	0.021849	0.002006	10.8923	-88.3083	-165.379	-0.028108	0.985429	-0.087272	-0.088543	-0.025636	10.8923	-0.085507	-0.845158	0.030332	NaN
282	1.000000	0.994672	7.36782e+06	-52739.1	955.818	-29748.7	0.000000	0.000000	6.995143	0.004083	NaN	0.000000	0.001553	0.001754	28.0807	0.017156	0.001922	8.923968	-139.222	-169.506	0.005133	0.993314	-0.079300	-0.080658	0.004083	8.923968	-0.079643	-0.606398	-0.006734	NaN
282	1.000000	1.002697	7.36782e+06	-52739.1	955.818	-29748.7	0.000000	0.000000	7.003164	-0.090700	NaN	0.000000	0.001588	0.001739	28.0808	0.019254	0.001925	10.0026	44.0009	-168.694	-0.051081	1.001325	-0.071275	-0.072647	-0.090700	10.0026	-0.064474	-0.240972	0.376392	NaN
282	1.000000	1.010673	7.36782e+06	-52739.1	955.818	-29748.7	0.000000	0.000000	7.011144	-0.005710	NaN	0.000000	0.001611	0.001730	28.0809	0.031118	0.001894	16.4278	-154.105	-162.722	-0.001094	1.009350	-0.063298	-0.064622	-0.005710	16.4278	-0.063038	-0.219671	0.025995	NaN
282	1.000000	1.018690	7.36782e+06	-52739.1	955.817	-29748.7	0.000000	0.000000	7.019157	-0.078136	NaN	0.000000	0.001585	0.001730	28.0809	0.072586	0.002114	34.3409	-152.095	-165.22	-0.097054	1.017403	-0.055282	-0.056569	-0.078136	34.3409	-0.053575	-0.116835	0.668768	NaN
282	1.000000	1.026670	7.36782e+06	-52739.1	955.819	-29748.7	0.000000	0.000000	7.027140	-0.037218	NaN	0.000000	0.001553	0.001751	28.0808	0.019004	0.002046	9.289119	165.295	-164.496	-0.086387	1.025383	-0.047301	-0.048589	-0.037218	9.289119	-0.044296	-0.061161	0.608525	NaN
282	1.000000	1.034691	7.36782e+06	-52739.1	955.818	-29748.7	0.000000	0.000000	7.035162	0.007800	NaN	0.000000	0.001572	0.001756	28.0807	0.079103	0.001903	41.575	29.6279	-166.124	0.027172	1.033376	-0.039281	-0.040596	0.007800	41.575	-0.039421	-0.043430	-0.179594	NaN
282	1.000000	1.042692	7.36782e+06	-52739.1	955.818	-29748.7	0.000000	0.000000	7.043159	-0.100010	NaN	0.000000	0.001580	0.001729	28.0807	0.060062	0.002116	28.3865	18.64	-167.63	-0.120835	1.041336	-0.031280	-0.032636	-0.100010	28.3865	-0.028637	-0.021103	4.739190	NaN
282	1.000000	1.050701	7.36782e+06	-52739.1	955.818	-29748.7	0.000000	0.000000	7.051170	-0.028744	NaN	0.000000	0.001591	0.001733	28.0809	0.081753	0.001983	41.2317	28.2308	-166.611	-0.059358	1.049448	-0.023271	-0.024524	-0.028744	41.2317	-0.022748	-0.014756	1.948005	NaN
282	1.000000	1.058673	7.36782e+06	-52739.1	955.817	-29748.7	0.000000	0.000000	7.059142	-0.043099	NaN	0.000000	0.001582	0.001724	28.0797	0.039803	0.002117	18.8058	-13.3201	-170.517	-0.064697	1.057479	-0.015299	-0.016493	-0.043099	18.8058	-0.013580	-0.008438	5.107480	NaN
282	1.000000	1.066687	7.36782e+06	-52739.1	955.818	-29748.7	0.000000	0.000000	7.067155	-0.059228	NaN	0.000000	0.001600	0.001716	28.0801	0.092250	0.002033	45.3661	62.8599	-164.299	-0.056111	1.065396	-0.007285	-0.008576	-0.059228	45.3661	-0.006306	-0.004222	14.0269	NaN
282	1.000000	1.074678	7.36782e+06	-52739.1	955.818	-29748.7	0.000000	0.000000	7.075177	0.683482	NaN	0.000000	0.001624	0.001760	28.0793	1.114495	0.001825	610.781	10.5755	-167.089	0.081993	1.073335	0.000706	-0.000637	0.683482	610.781	-0.000133	-9.907937E-5	-6898.32	NaN
282	2.000000	1.082111	7.36782e+06	-52739.1	955.817	-29748.7	0.000000	0.000000	7.082936	8.607174	NaN	0.000000	0.001580	0.001744	28.0792	9.451708	0.001706	5538.71	12.3629	-174.667	8.669347	1.081344	0.008140	0.007373	8.607174	5538.71	0.006974	0.006008	1432.57	65284.4
282	2.000000	1.084269	7.36782e+06	-52739.1	955.818	-29748.7	0.000000	0.000000	7.085216	11.559	NaN	0.000000	0.001594	0.001709	28.0794	11.5077	0.001635	7038.2	3.606199	-172.709	11.4922	1.083935	0.010298	0.009964	11.559	7038.2	0.009066	0.008162	1416.24	71177.7
282	2.000000	1.086214	7.36782e+06	-52739.1	955.818	-29748.7	0.000000	0.000000	7.087268	14.1741	NaN	0.000000	0.001599	0.001704	28.0794	13.7222	0.001728	7943.22	3.010077	-170.428	14.2546	1.085891	0.012242	0.011920	14.1741	7943.22	0.010904	0.010204	1389.12	71844.3
282	2.000000	1.088209	7.36782e+06	-52739.1	955.818	-29748.7	0.000000	0.000000	7.089389	17.2272	NaN	0.000000	0.001581	0.001732	28.0797	16.0958	0.001784	9022.52	7.629673	-174.914	17.1169	1.087868	0.014238	0.013896	17.2272	9022.52	0.012806	0.012469	1381.55	73820.5
282	2.000000	1.090239	7.36782e+06	-52739.1	955.817	-29748.7	0.000000	0.000000	7.091641	22.6214	NaN	0.000000	0.001602	0.001764	28.0793	17.7603	0.001844	9632.16	7.668781	-176.422	23.4812	1.089862	0.016268	0.015890	22.6214	9632.16	0.014506	0.014633	1545.96	72750.5
282	2.000000	1.092172	7.36782e+06	-52739.1	955.818	-29748.7	0.000000	0.000000	7.093583	22.8577	NaN	0.000000	0.001577	0.001765	28.0796	19.8224	0.001733	11438	8.475191	178.821	20.9586	1.091920	0.018200	0.017949	22.8577	11438	0.016701	0.017622	1297.14	78723.1
282	2.000000	1.094180	7.36782e+06	-52739.1	955.818	-29748.7	0.000000	0.000000	7.095780	27.4587	NaN	0.000000	0.001554	0.001729	28.0795	21.5226	0.001768	12170.2	7.072283	-179.234	27.3562	1.093897	0.020208	0.019925	27.4587	12170.2	0.018516	0.020264	1355.04	78110.2
282	2.000000	1.096150	7.36782e+06	-52739.1	955.818	-29748.7	0.000000	0.000000	7.097910	31.3443	NaN	0.000000	0.001582	0.001761	28.0796	23.8779	0.001859	12843.3	9.168694	178.553	29.9263	1.095874	0.022178	0.021902	31.3443	12843.3	0.020348	0.023092	1357.38	77218.7
282	2.000000	1.098186	7.36782e+06	-52739.1	955.817	-29748.7	0.000000	0.000000	7.100179	37.002	NaN	0.000000	0.001620	0.001735	28.0797	25.2075	0.001810	13926.7	3.956386	-176.144	37.5665	1.097904	0.024214	0.023932	37.002	13926.7	0.022222	0.026154	1414.77	78677.9
282	2.000000	1.100163	7.36782e+06	-52739.1	955.818	-29748.7	0.000000	0.000000	7.102391	42.7364	NaN	0.000000	0.001544	0.001754	28.0793	26.8713	0.001755	15310.2	3.816956	-177.757	41.7772	1.099774	0.026191	0.025803	42.7364	15310.2	0.024098	0.029395	1453.89	81587.1
282	2.000000	1.102166	7.36782e+06	-52739.1	955.818	-29748.7	0.000000	0.000000	7.104437	43.7771	NaN	0.000000	0.001608	0.001738	28.0803	29.6059	0.001898	15600.6	4.743192	-178.422	43.1494	1.101912	0.028194	0.027941	43.7771	15600.6	0.026089	0.033027	1325.48	78429.3
282	2.000000	1.104153	7.36782e+06	-52739.1	955.818	-29748.7	0.000000	0.000000	7.106584	47.662	NaN	0.000000	0.001616	0.001712	28.0794	31.1403	0.001881	16556.4	6.988296	178.167	47.6122	1.103789	0.030181	0.029817	47.662	16556.4	0.028022	0.036744	1297.13	78912.3
282	2.000000	1.106095	7.36782e+06	-52739.1	955.819	-29748.7	0.000000	0.000000	7.108819	54.7713	NaN	0.000000	0.001612	0.001764	28.08	32.8287	0.001748	18777.8	5.496133	178.381	51.7835	1.105836	0.032124	0.031864	54.7713	18777.8	0.029936	0.040611	1348.68	85132.6
282	2.000000	1.108155	7.36782e+06	-52739.1	955.818	-29748.7	0.000000	0.000000	7.111208	62.7825	NaN	0.000000	0.001584	0.001749	28.0798	34.92	0.001938	18016.2	9.286078	177.039	61.5528	1.107733	0.034183	0.033761	62.7825	18016.2	0.031570	0.044060	1424.93	78417.4
282	2.000000	1.110145	7.36782e+06	-52739.1	955.819	-29748.7	0.000000	0.000000	7.113372	67.0129	NaN	0.000000	0.001623	0.001758	28.0808	36.3055	0.001777	20427.7	5.463908	177.863	66.0638	1.109781	0.036174	0.035809	67.0129	20427.7	0.033713	0.048792	1373.43	84492.1
282	2.000000	1.112126	7.36782e+06	-52739.1	955.818	-29748.7	0.000000	0.000000	7.115564	72.1448	NaN	0.000000	0.001595	0.001731	28.081	38.2667	0.001891	20231	4.048942	179.7	71.5533	1.111896	0.038155	0.037924	72.1448	20231	0.035480	0.052869	1364.58	80387.3
282	2.000000	1.114133	7.36782e+06	-52739.1	955.818	-29748.7	0.000000	0.000000	7.118148	86.1798	NaN	0.000000	0.001629	0.001733	28.0811	38.9144	0.001768	22011.6	3.565142	179.955	84.2531	1.113758	0.040161	0.039786	86.1798	22011.6	0.037225	0.057053	1510.53	84195.2
282	2.000000	1.116089	7.36782e+06	-52739.1	955.818	-29748.7	0.000000	0.000000	7.120193	88.335	NaN	0.000000	0.001619	0.001744	28.0809	42.9551	0.001930	22251	6.931472	175.103	86.2873	1.115803	0.042117	0.041831	88.335	22251	0.039140	0.061824	1428.82	81760.9
282	2.000000	1.118132	7.36782e+06	-52739.1	955.818	-29748.7	0.000000	0.000000	7.122694	99.4733	NaN	0.000000	0.001602	0.001764	28.081	43.449	0.001726	25176.1	7.870359	174.823	98.1027	1.117751	0.044160	0.043780	99.4733	25176.1	0.041196	0.067157	1481.21	88759.6
282	2.000000	1.120114	7.36782e+06	-52739.1	955.818	-29748.7	0.000000	0.000000	7.124791	102.284	NaN	0.000000	0.001633	0.001768	28.0808	45.1879	0.001772	25501.4	2.426839	178.841	101.413	1.119834	0.046142	0.045862	102.284	25501.4	0.043134	0.072377	1413.2	86603.5
282	2.000000	1.122179	7.36782e+06	-52739.1	955.818	-29748.7	0.000000	0.000000	7.127016	106.175	NaN	0.000000	0.001653	0.001751	28.0809	48.5464	0.001774	27372.9	7.331962	173.337	108.817	1.121855	0.048207	0.047883	106.175	27372.9	0.045298	0.078435	1353.66	89297.3
282	2.000000	1.124087	7.36782e+06	-52739.1	955.819	-29748.7	0.000000	0.000000	7.129536	121.053	NaN	0.000000	0.001599	0.001761	28.081	49.3345	0.001748	28221.2	6.140214	174.482	119.836	1.123776	0.050115	0.049804	121.053	28221.2	0.046898	0.083066	1457.31	89461.7
282	2.000000	1.126058	7.36782e+06	-52739.1	955.819	-29748.7	0.000000	0.000000	7.131808	128.363	NaN	0.000000	0.001641	0.001768	28.0811	52.1142	0.001849	28184.5	5.347518	175.486	125.658	1.125756	0.052086	0.051784	128.363	28184.5	0.048670	0.088347	1452.94	86633.9
282	2.000000	1.128158	7.36782e+06	-52739.1	955.819	-29748.7	0.000000	0.000000	7.134450	141.54	NaN	0.000000	0.001638	0.001762	28.081	53.5712	0.001791	29907.7	7.306415	173.612	142.526	1.127688	0.054186	0.053716	141.54	29907.7	0.050637	0.094391	1499.51	88938.7
282	2.000000	1.130150	7.36782e+06	-52739.1	955.819	-29748.7	0.000000	0.000000	7.136703	147.87	NaN	0.000000	0.001604	0.001769	28.081	56.4714	0.001917	29460.1	10.761	170.781	149.803	1.129691	0.056178	0.055719	147.87	29460.1	0.052414	0.100020	1478.41	85106.8
282	2.000000	1.132109	7.36782e+06	-52739.1	955.819	-29748.7	0.000000	0.000000	7.139176	160.371	NaN	0.000000	0.001659	0.001776	28.0809	57.8824	0.001951	29674	8.999522	172.44	160.867	1.131793	0.058137	0.057821	160.371	29674	0.054084	0.105453	1520.78	83487
282	2.000000	1.134132	7.36782e+06	-52739.1	955.818	-29748.7	0.000000	0.000000	7.141553	168.976	NaN	0.000000	0.001628	0.001771	28.081	58.2032	0.001758	33107.2	3.755598	175.754	169.5	1.133782	0.060160	0.059810	168.976	33107.2	0.056332	0.112986	1495.55	89987.9
282	2.000000	1.135959	7.36782e+06	-52739.1	955.818	-29748.7	0.000000	0.000000	7.143590	174.094	NaN	0.000000	0.001632	0.001798	28.0811	61.1763	0.001746	35041.3	6.930518	171.249	166.774	1.135734	0.061987	0.061762	174.094	35041.3	0.058261	0.119645	1455.09	92556.5
282	2.000000	1.138085	7.36782e+06	-52739.1	955.818	-29748.7	0.000000	0.000000	7.146442	191.739	NaN	0.000000	0.001625	0.001761	28.0812	63.4683	0.001887	33634.9	4.778142	174.797	189.315	1.137714	0.064114	0.063742	191.739	33634.9	0.059838	0.125229	1531.1	86838.2
282	2.000000	1.140081	7.36782e+06	-52739.1	955.818	-29748.7	0.000000	0.000000	7.148734	198.952	NaN	0.000000	0.001588	0.001767	28.0809	64.7782	0.001888	34308.4	4.622436	174.466	197.039	1.139880	0.066109	0.065909	198.952	34308.4	0.061760	0.132195	1504.98	86211.4
282	2.000000	1.142064	7.36782e+06	-52739.1	955.819	-29748.7	0.000000	0.000000	7.151379	215.021	NaN	0.000000	0.001578	0.001757	28.081	66.1239	0.001713	38612.4	2.356265	176.115	212.631	1.141796	0.068093	0.067825	215.021	38612.4	0.063916	0.140224	1533.41	94208
282	2.000000	1.144053	7.36782e+06	-52739.1	955.82	-29748.7	0.000000	0.000000	7.153944	229.05	NaN	0.000000	0.001577	0.001734	28.0798	67.3124	0.001747	38538.9	5.284397	173.28	226.914	1.143738	0.070081	0.069766	229.05	38538.9	0.065624	0.146743	1560.89	91916.6
282	2.000000	1.146038	7.36782e+06	-52739.1	955.819	-29748.7	0.000000	0.000000	7.156393	240.33	NaN	0.000000	0.001638	0.001749	28.08	70.6864	0.001800	39271.9	5.045678	172.851	237.577	1.145742	0.072066	0.071770	240.33	39271.9	0.067476	0.153974	1560.85	91439
282	2.000000	1.148059	7.36782e+06	-52739.1	955.819	-29748.7	0.000000	0.000000	7.158918	252.565	NaN	0.000000	0.001648	0.001727	28.0798	72.3911	0.001826	39637.4	6.728309	171.825	249.325	1.147664	0.074088	0.073692	252.565	39637.4	0.069309	0.161287	1565.93	90173.4
282	2.000000	1.149994	7.36782e+06	-52739.1	955.818	-29748.7	0.000000	0.000000	7.161429	266.579	NaN	0.000000	0.001593	0.001759	28.0798	73.3474	0.001741	42135.4	2.780797	174.913	261.35	1.149727	0.076023	0.075756	266.579	42135.4	0.071278	0.169324	1574.38	93553.8
282	2.000000	1.152082	7.36782e+06	-52739.1	955.818	-29748.7	0.000000	0.000000	7.163903	275.965	NaN	0.000000	0.001601	0.001718	28.0796	76.554	0.001837	41677.7	1.618411	176.042	275.95	1.151803	0.078111	0.077831	275.965	41677.7	0.073145	0.177115	1558.12	90479.5
282	2.000000	1.153984	7.36782e+06	-52739.1	955.819	-29748.7	0.000000	0.000000	7.166375	289.823	NaN	0.000000	0.001622	0.001729	28.0797	77.5149	0.001838	42183.6	2.890518	174.748	283.885	1.153718	0.080012	0.079746	289.823	42183.6	0.074859	0.184415	1571.58	89746.7
282	2.000000	1.156032	7.36782e+06	-52739.1	955.818	-29748.7	0.000000	0.000000	7.168877	300.862	NaN	0.000000	0.001610	0.001741	28.0798	79.593	0.001696	46932.5	4.327054	171.785	297.917	1.155645	0.082060	0.081673	300.862	46932.5	0.077252	0.194834	1544.2	97143.7
282	2.000000	1.158060	7.36782e+06	-52739.1	955.819	-29748.7	0.000000	0.000000	7.171794	322.494	NaN	0.000000	0.001647	0.001751	28.0796	83.3877	0.001830	45571.2	7.556506	169.411	318.232	1.157761	0.084088	0.083789	322.494	45571.2	0.078781	0.201629	1599.45	92723
282	2.000000	1.160041	7.36782e+06	-52739.1	955.819	-29748.7	0.000000	0.000000	7.174059	329.381	NaN	0.000000	0.001621	0.001722	28.0799	84.307	0.001806	46683.5	5.778610	171.302	328.052	1.159642	0.086069	0.085670	329.381	46683.5	0.080778	0.210673	1563.47	92925.1
282	2.000000	1.162118	7.36782e+06	-52739.1	955.818	-29748.7	0.000000	0.000000	7.176629	341.36	NaN	0.000000	0.001651	0.001751	28.0798	86.315	0.001751	49294.8	4.153593	172.232	341.297	1.161673	0.088146	0.087701	341.36	49294.8	0.082953	0.220732	1546.5	95861.1
282	2.000000	1.163958	7.36782e+06	-52739.1	955.82	-29748.7	0.000000	0.000000	7.179109	356.923	NaN	0.000000	0.001591	0.001749	28.0795	86.664	0.001779	48719.4	4.763803	171.996	350.277	1.163677	0.089987	0.089705	356.923	48719.4	0.084492	0.227984	1565.56	93223
282	2.000000	1.166061	7.36782e+06	-52739.1	955.819	-29748.7	0.000000	0.000000	7.181759	370.236	NaN	0.000000	0.001631	0.001751	28.0798	90.7996	0.001811	50150.8	5.986440	170.496	369.783	1.165629	0.092089	0.091657	370.236	50150.8	0.086552	0.237863	1556.51	93948
282	2.000000	1.168051	7.36782e+06	-52739.1	955.818	-29748.7	0.000000	0.000000	7.184598	390.88	NaN	0.000000	0.001654	0.001772	28.0795	92.433	0.001690	54698.8	6.231788	169.089	387.125	1.167714	0.094079	0.093742	390.88	54698.8	0.088719	0.248463	1573.19	100258
282	2.000000	1.169981	7.36782e+06	-52739.1	955.818	-29748.7	0.000000	0.000000	7.187138	405.703	NaN	0.000000	0.001610	0.001725	28.0799	92.5908	0.001790	51735.3	0.532622	175.843	400.474	1.169685	0.096010	0.095714	405.703	51735.3	0.090128	0.255471	1588.06	93516.7
282	2.000000	1.171994	7.36782e+06	-52739.1	955.818	-29748.7	0.000000	0.000000	7.189646	417.743	NaN	0.000000	0.001623	0.001752	28.0798	96.8511	0.001830	52926.7	6.203620	169.511	413.274	1.171570	0.098022	0.097599	417.743	52926.7	0.092102	0.265444	1573.75	93855.9
282	2.000000	1.174000	7.36782e+06	-52739.1	955.819	-29748.7	0.000000	0.000000	7.192324	434.1	NaN	0.000000	0.001614	0.001738	28.0795	96.6417	0.001789	54010.2	4.208060	171.267	431.729	1.173828	0.100028	0.099857	434.1	54010.2	0.094000	0.275197	1577.42	94064.7
282	2.000000	1.175971	7.36782e+06	-52739.1	955.82	-29748.7	0.000000	0.000000	7.195119	454.116	NaN	0.000000	0.001600	0.001711	28.0796	99.694	0.001810	55081.9	4.030866	171.982	449.563	1.175589	0.101999	0.101617	454.116	55081.9	0.095816	0.284684	1595.16	94319.3
282	2.000000	1.178056	7.36782e+06	-52739.1	955.819	-29748.7	0.000000	0.000000	7.197651	464.975	NaN	0.000000	0.001606	0.001723	28.0807	102.556	0.001882	54501.3	8.542594	167.269	461.403	1.177529	0.104084	0.103557	464.975	54501.3	0.097686	0.294613	1578.26	91739.1
282	2.000000	1.179960	7.36782e+06	-52739.1	955.819	-29748.7	0.000000	0.000000	7.200369	484.78	NaN	0.000000	0.001581	0.001722	28.0813	103.688	0.001769	58620.5	6.876694	168.442	479.714	1.179531	0.105988	0.105560	484.78	58620.5	0.099786	0.305953	1584.49	96826.8
282	2.000000	1.180539	7.36782e+06	-52739.1	955.819	-29748.7	0.000000	0.000000	7.201081	488.004	NaN	0.000000	0.001588	0.001746	28.0809	104.451	0.001873	55767.3	7.596184	-11.9138	485.302	1.180147	0.106568	0.106176	488.004	55767.3	0.100005	0.307145	1588.84	91935.1