File: remote_trans/data/nanoindenter/0828-1/data/Data_2025-08-06,11h17m57s/2025-07-22_16-23-58_1_733.txt
2025-07-22, 16:23:58, 1
Index	Phase	Displacement	Time	Pos X	Pos Y	Pos Z	Rot A	Rot B	Piezo Z	Force A	Force B	Gripper	Voltage A	Voltage B	Temperature	Amplitude force	Amplitude pos	Stiffness	Phase shift	Phase excitation	Force A raw	Displacement raw	HMax	HMax raw	Real Force	Real Stiffness	Contact Depth	Area	Hardness	Reduced Mod.
[#]	[#]	[um]	[s]	[um]	[um]	[um]	[m°]	[m°]	[um]	[uN]	[uN]	[V]	[V]	[V]	[°C]	[uN]	[um]	[N/m]	[°]	[°]	[uN]	[um]	[um]	[um]	[uN]	[N/m]	[um]	[um^2]	[MPa]	[MPa]
733	1.000000	0.002208	7.37222e+06	-40439.1	1005.82	-29789.9	0.000000	0.000000	6.002789	-0.031165	NaN	0.000000	0.001539	0.001728	28.0843	0.076194	0.000997	76.4268	68.7842	-165.646	-0.059113	0.000949	-1.111666	-1.112925	-0.031165	76.4268	-1.111360	-7.120942E+14	4.376516E-17	NaN
733	1.000000	0.012295	7.37222e+06	-40439.1	1005.82	-29789.9	0.000000	0.000000	6.012876	-0.025426	NaN	0.000000	0.001559	0.001714	28.0842	0.070152	0.001286	54.5643	129.706	18.7485	-0.020504	0.010825	-1.101579	-1.103048	-0.025426	54.5643	-1.101229	-5.206791E+14	4.883200E-17	NaN
733	1.000000	0.022172	7.37222e+06	-40439.1	1005.82	-29789.9	0.000000	0.000000	6.022754	-0.023761	NaN	0.000000	0.001572	0.001666	28.0841	0.056137	0.001715	32.731	-92.6739	-161.798	-0.054884	0.020894	-1.091702	-1.092980	-0.023761	32.731	-1.091157	-3.813712E+14	6.230539E-17	NaN
733	1.000000	0.032168	7.37222e+06	-40439.1	1005.82	-29789.9	0.000000	0.000000	6.032747	-0.078604	NaN	0.000000	0.001549	0.001685	28.084	0.086302	0.001850	46.6404	-150.76	15.2059	0.003526	0.030814	-1.081706	-1.083060	-0.078604	46.6404	-1.080442	-2.738108E+14	2.870733E-16	NaN
733	1.000000	0.042175	7.37222e+06	-40439.1	1005.82	-29789.9	0.000000	0.000000	6.042758	0.006060	NaN	0.000000	0.001576	0.001686	28.0839	0.012161	0.001989	6.113080	38.578	-165.845	-0.032400	0.040892	-1.071698	-1.072981	0.006060	6.113080	-1.072442	-2.137934E+14	-2.834723E-17	NaN
733	1.000000	0.052141	7.37222e+06	-40439.1	1005.82	-29789.9	0.000000	0.000000	6.052724	0.005391	NaN	0.000000	0.001564	0.001665	28.0839	0.120246	0.001967	61.1176	-14.9848	16.4207	0.025450	0.050839	-1.061733	-1.063035	0.005391	61.1176	-1.061799	-1.538144E+14	-3.504924E-17	NaN
733	1.000000	0.062189	7.37222e+06	-40439.1	1005.82	-29789.9	0.000000	0.000000	6.062771	-0.003183	NaN	0.000000	0.001570	0.001677	28.0837	0.043593	0.002071	21.0492	1.110637	-164.179	-0.058476	0.060832	-1.051685	-1.053042	-0.003183	21.0492	-1.051571	-1.120827E+14	2.839499E-17	NaN
733	1.000000	0.072190	7.37222e+06	-40439.1	1005.82	-29789.9	0.000000	0.000000	6.072773	0.015579	NaN	0.000000	0.001563	0.001691	28.0838	0.087895	0.001899	46.2873	-127.034	14.9997	-0.018999	0.070790	-1.041683	-1.043083	0.015579	46.2873	-1.041936	-8.317592E+13	-1.872997E-16	NaN
733	1.000000	0.082205	7.37222e+06	-40439.1	1005.82	-29789.9	0.000000	0.000000	6.082788	0.019006	NaN	0.000000	0.001505	0.001686	28.0841	0.091622	0.001941	47.1972	124.648	-162.966	0.001571	0.080899	-1.031669	-1.032975	0.019006	47.1972	-1.031971	-6.109339E+13	-3.110952E-16	NaN
733	1.000000	0.092183	7.37222e+06	-40439.1	1005.82	-29789.9	0.000000	0.000000	6.092766	0.027084	NaN	0.000000	0.001482	0.001698	28.0839	0.036832	0.001996	18.4537	30.6924	15.0515	-0.001012	0.090762	-1.021691	-1.023112	0.027084	18.4537	-1.022792	-4.597458E+13	-5.891159E-16	NaN
733	1.000000	0.102171	7.37222e+06	-40439.1	1005.82	-29789.9	0.000000	0.000000	6.102752	-0.042338	NaN	0.000000	0.001496	0.001705	28.085	0.068108	0.002118	32.1568	-145.594	-165.026	-0.053187	0.100906	-1.011703	-1.012968	-0.042338	32.1568	-1.010715	-3.162348E+13	1.338816E-15	NaN
733	1.000000	0.112199	7.37222e+06	-40439.1	1005.82	-29789.9	0.000000	0.000000	6.112783	0.042143	NaN	0.000000	0.001509	0.001686	28.0854	0.056852	0.002005	28.356	179.206	12.7153	-0.006472	0.110820	-1.001675	-1.003054	0.042143	28.356	-1.002789	-2.473548E+13	-1.703753E-15	NaN
733	1.000000	0.122227	7.37222e+06	-40439.1	1005.82	-29789.9	0.000000	0.000000	6.122810	0.004221	NaN	0.000000	0.001580	0.001756	28.0852	0.076204	0.002019	37.7383	-173.094	-164.984	-0.008840	0.120834	-0.991647	-0.993039	0.004221	37.7383	-0.991731	-1.755568E+13	-2.404144E-16	NaN
733	1.000000	0.132185	7.37222e+06	-40439.1	1005.82	-29789.9	0.000000	0.000000	6.132767	-0.014632	NaN	0.000000	0.001598	0.001761	28.085	0.104639	0.002104	49.737	19.0764	12.8157	0.030377	0.130894	-0.981688	-0.982980	-0.014632	49.737	-0.981468	-1.276984E+13	1.145819E-15	NaN
733	1.000000	0.142193	7.37222e+06	-40439.1	1005.82	-29789.9	0.000000	0.000000	6.142776	0.020796	NaN	0.000000	0.001599	0.001743	28.0848	0.098647	0.002053	48.0487	-88.3397	-165.249	0.018594	0.140876	-0.971681	-0.972998	0.020796	48.0487	-0.972005	-9.521143E+12	-2.184202E-15	NaN
733	1.000000	0.152210	7.37222e+06	-40439.1	1005.82	-29789.9	0.000000	0.000000	6.152791	-0.026745	NaN	0.000000	0.001580	0.001749	28.0854	0.054136	0.002087	25.9366	-111.593	15.7838	-0.011725	0.150807	-0.961664	-0.963067	-0.026745	25.9366	-0.960891	-6.743343E+12	3.966117E-15	NaN
733	1.000000	0.162235	7.37222e+06	-40439.1	1005.82	-29789.9	0.000000	0.000000	6.162815	-0.048670	NaN	0.000000	0.001599	0.001748	28.085	0.084688	0.001959	43.2288	-86.3578	-167.307	-0.091429	0.160934	-0.951639	-0.952940	-0.048670	43.2288	-0.950794	-4.928787E+12	9.874618E-15	NaN
733	1.000000	0.172212	7.37222e+06	-40439.1	1005.82	-29789.9	0.000000	0.000000	6.172793	-0.040120	NaN	0.000000	0.001578	0.001728	28.0851	0.016614	0.001954	8.503891	-149.839	13.8203	-0.033884	0.170898	-0.941662	-0.942976	-0.040120	8.503891	-0.938124	-3.325228E+12	1.206521E-14	NaN
733	1.000000	0.182218	7.37222e+06	-40439.1	1005.82	-29789.9	0.000000	0.000000	6.182799	-0.044281	NaN	0.000000	0.001598	0.001741	28.0852	0.078429	0.002032	38.5993	-143.277	-169.46	0.000525	0.180948	-0.931656	-0.932926	-0.044281	38.5993	-0.930795	-2.648075E+12	1.672194E-14	NaN
733	1.000000	0.192235	7.37223e+06	-40439.1	1005.82	-29789.9	0.000000	0.000000	6.192816	-0.024927	NaN	0.000000	0.001600	0.001715	28.085	0.050043	0.002060	24.2908	117.058	13.6649	-0.058891	0.190851	-0.921639	-0.923023	-0.024927	24.2908	-0.920869	-1.945107E+12	1.281526E-14	NaN
733	1.000000	0.202249	7.37223e+06	-40439.1	1005.82	-29789.9	0.000000	0.000000	6.202830	-0.047143	NaN	0.000000	0.001593	0.001762	28.0852	0.070341	0.001860	37.8246	130.802	-161.341	-0.105984	0.200972	-0.911625	-0.912902	-0.047143	37.8246	-0.910690	-1.417358E+12	3.326095E-14	NaN
733	1.000000	0.212239	7.37223e+06	-40439.1	1005.82	-29789.9	0.000000	0.000000	6.212822	0.012233	NaN	0.000000	0.001590	0.001741	28.0852	0.102312	0.001909	53.5884	-122.497	12.2411	0.003234	0.210835	-0.901635	-0.903039	0.012233	53.5884	-0.901806	-1.075153E+12	-1.137756E-14	NaN
733	1.000000	0.222225	7.37223e+06	-40439.1	1005.82	-29789.9	0.000000	0.000000	6.222806	-0.032510	NaN	0.000000	0.001601	0.001744	28.0853	0.026615	0.001959	13.5859	135.063	-164.376	-0.073488	0.220928	-0.891648	-0.892946	-0.032510	13.5859	-0.889854	-7.412029E+11	4.386133E-14	NaN
733	1.000000	0.232261	7.37223e+06	-40439.1	1005.82	-29789.9	0.000000	0.000000	6.232842	-0.038557	NaN	0.000000	0.001619	0.001716	28.0837	0.033238	0.002020	16.4551	-27.0147	15.2279	-0.004248	0.230869	-0.881613	-0.883005	-0.038557	16.4551	-0.879855	-5.429409E+11	7.101495E-14	NaN
733	1.000000	0.242219	7.37223e+06	-40439.1	1005.82	-29789.9	0.000000	0.000000	6.242799	-0.059301	NaN	0.000000	0.001637	0.001736	28.0837	0.049380	0.001976	24.9925	155.118	-165.97	-0.037917	0.240949	-0.871655	-0.872924	-0.059301	24.9925	-0.869875	-3.978863E+11	1.490397E-13	NaN
733	1.000000	0.252266	7.37223e+06	-40439.1	1005.82	-29789.9	0.000000	0.000000	6.252848	0.001288	NaN	0.000000	0.001611	0.001762	28.0839	0.098988	0.001994	49.6359	38.6198	17.3547	-0.005644	0.250898	-0.861608	-0.862976	0.001288	49.6359	-0.861627	-3.077134E+11	-4.185902E-15	NaN
733	1.000000	0.262251	7.37223e+06	-40439.1	1005.82	-29789.9	0.000000	0.000000	6.262831	-0.041028	NaN	0.000000	0.001584	0.001743	28.0838	0.082200	0.001948	42.2064	177.599	-163.134	-0.084104	0.261029	-0.851623	-0.852845	-0.041028	42.2064	-0.850894	-2.202139E+11	1.863077E-13	NaN
733	1.000000	0.272280	7.37223e+06	-40439.1	1005.82	-29789.9	0.000000	0.000000	6.272862	-0.011858	NaN	0.000000	0.001630	0.001767	28.0835	0.095125	0.001986	47.8898	37.0313	15.2035	-0.071905	0.270935	-0.841594	-0.842938	-0.011858	47.8898	-0.841408	-1.638223E+11	7.238488E-14	NaN
733	1.000000	0.282275	7.37223e+06	-40439.1	1005.82	-29789.9	0.000000	0.000000	6.282859	0.058346	NaN	0.000000	0.001626	0.001742	28.0837	0.060043	0.002172	27.6429	148.127	-167.153	0.082979	0.280960	-0.831599	-0.832914	0.058346	27.6429	-0.833182	-1.267396E+11	-4.603593E-13	NaN
733	1.000000	0.292262	7.37223e+06	-40439.1	1005.82	-29789.9	0.000000	0.000000	6.292845	0.021455	NaN	0.000000	0.001612	0.001759	28.0836	0.044193	0.002135	20.6987	134.134	14.7746	-0.013870	0.290891	-0.821612	-0.822983	0.021455	20.6987	-0.822390	-9.049261E+10	-2.370936E-13	NaN
733	1.000000	0.302270	7.37223e+06	-40439.1	1005.82	-29789.9	0.000000	0.000000	6.302848	-0.121535	NaN	0.000000	0.001601	0.001747	28.0837	0.031054	0.002068	15.0151	19.0591	-165.159	-0.145024	0.300967	-0.811603	-0.812907	-0.121535	15.0151	-0.805533	-5.345101E+10	2.273762E-12	NaN
733	1.000000	0.312277	7.37223e+06	-40439.1	1005.82	-29789.9	0.000000	0.000000	6.312858	-0.046947	NaN	0.000000	0.001619	0.001722	28.0833	0.046648	0.001940	24.0404	170.077	9.966483	-0.062485	0.310907	-0.801597	-0.802967	-0.046947	24.0404	-0.800132	-4.514956E+10	1.039808E-12	NaN
733	1.000000	0.322286	7.37223e+06	-40439.1	1005.82	-29789.9	0.000000	0.000000	6.322867	-0.044188	NaN	0.000000	0.001554	0.001709	28.0836	0.009788	0.001956	5.004135	86.9983	-167.198	-0.014556	0.320950	-0.791588	-0.792923	-0.044188	5.004135	-0.784965	-2.809902E+10	1.572582E-12	NaN
733	1.000000	0.332251	7.37223e+06	-40439.1	1005.82	-29789.9	0.000000	0.000000	6.332829	-0.107224	NaN	0.000000	0.001591	0.001752	28.0836	0.040000	0.001977	20.2328	-28.0928	18.9517	-0.126670	0.330911	-0.781623	-0.782963	-0.107224	20.2328	-0.777649	-2.234997E+10	4.797494E-12	NaN
733	1.000000	0.342303	7.37223e+06	-40439.1	1005.82	-29789.9	0.000000	0.000000	6.342880	-0.116978	NaN	0.000000	0.001626	0.001747	28.0835	0.008168	0.002011	4.061082	130.816	-166.013	-0.007614	0.340987	-0.771571	-0.772887	-0.116978	4.061082	-0.749968	-9.392520E+9	1.245434E-11	NaN
733	1.000000	0.352297	7.37223e+06	-40439.1	1005.82	-29789.9	0.000000	0.000000	6.352875	-0.101430	NaN	0.000000	0.001600	0.001746	28.0834	0.097297	0.002047	47.5371	123.752	16.4392	-0.101139	0.350982	-0.761577	-0.762892	-0.101430	47.5371	-0.759977	-1.285241E+10	7.891895E-12	NaN
733	1.000000	0.362293	7.37223e+06	-40439.1	1005.82	-29789.9	0.000000	0.000000	6.362873	-0.068613	NaN	0.000000	0.001619	0.001755	28.0835	0.099159	0.001903	52.0969	28.9976	-166.181	-0.056690	0.360993	-0.751581	-0.752880	-0.068613	52.0969	-0.750593	-9.578325E+9	7.163322E-12	NaN
733	1.000000	0.372292	7.37223e+06	-40439.1	1005.82	-29789.9	0.000000	0.000000	6.372872	-0.043750	NaN	0.000000	0.001621	0.001691	28.0848	0.050583	0.001939	26.0865	-156.204	14.4921	-0.097852	0.371013	-0.741582	-0.742861	-0.043750	26.0865	-0.740324	-6.941795E+9	6.302460E-12	NaN
733	1.000000	0.382308	7.37223e+06	-40439.1	1005.82	-29789.9	0.000000	0.000000	6.382890	-0.021533	NaN	0.000000	0.001643	0.001724	28.0846	0.024512	0.001981	12.3727	36.4763	-166.691	0.065256	0.380975	-0.731566	-0.732899	-0.021533	12.3727	-0.730260	-5.062390E+9	4.253588E-12	NaN
733	1.000000	0.392303	7.37223e+06	-40439.1	1005.82	-29789.9	0.000000	0.000000	6.392883	-0.059539	NaN	0.000000	0.001636	0.001729	28.0845	0.090085	0.001991	45.2513	-123.186	15.7061	-0.015763	0.390951	-0.721571	-0.722923	-0.059539	45.2513	-0.720584	-3.736266E+9	1.593543E-11	NaN
733	1.000000	0.402313	7.37223e+06	-40439.1	1005.82	-29789.9	0.000000	0.000000	6.402891	-0.092303	NaN	0.000000	0.001625	0.001750	28.0847	0.079578	0.001978	40.2244	-97.5164	-163.919	-0.021357	0.401065	-0.711561	-0.712809	-0.092303	40.2244	-0.709840	-2.666036E+9	3.462168E-11	NaN
733	1.000000	0.412302	7.37223e+06	-40439.1	1005.82	-29789.9	0.000000	0.000000	6.412883	-0.012171	NaN	0.000000	0.001614	0.001775	28.0847	0.074122	0.002012	36.8363	177.547	14.0458	-0.008235	0.410948	-0.701572	-0.702926	-0.012171	36.8363	-0.701324	-2.039936E+9	5.966264E-12	NaN
733	1.000000	0.422348	7.37223e+06	-40439.1	1005.82	-29789.9	0.000000	0.000000	6.422928	-0.038051	NaN	0.000000	0.001608	0.001748	28.0846	0.115397	0.002018	57.1867	-61.1345	-165.733	-0.038037	0.421036	-0.691526	-0.692838	-0.038051	57.1867	-0.691027	-1.475558E+9	2.578785E-11	NaN
733	1.000000	0.432351	7.37223e+06	-40439.1	1005.82	-29789.9	0.000000	0.000000	6.432934	0.016810	NaN	0.000000	0.001607	0.001698	28.0848	0.058552	0.001920	30.5032	42.9482	18.2866	0.040655	0.430914	-0.681523	-0.682960	0.016810	30.5032	-0.681936	-1.108366E+9	-1.516644E-11	NaN
733	1.000000	0.442328	7.37223e+06	-40439.1	1005.82	-29789.9	0.000000	0.000000	6.442910	0.000580	NaN	0.000000	0.001606	0.001768	28.0847	0.130265	0.002027	64.2608	-137.959	-164.125	0.101541	0.441028	-0.671546	-0.672845	0.000580	64.2608	-0.671553	-7.991791E+8	-7.259942E-13	NaN
733	1.000000	0.452318	7.37223e+06	-40439.1	1005.82	-29789.9	0.000000	0.000000	6.452896	-0.104863	NaN	0.000000	0.001644	0.001726	28.0854	0.107915	0.002037	52.9758	-42.5247	13.4304	-0.124878	0.450925	-0.661556	-0.662949	-0.104863	52.9758	-0.660071	-5.564725E+8	1.884422E-10	NaN
733	1.000000	0.462361	7.37223e+06	-40439.1	1005.82	-29789.9	0.000000	0.000000	6.462943	-0.007220	NaN	0.000000	0.001631	0.001743	28.0847	0.004764	0.002062	2.310408	176.18	-161.922	-0.056613	0.461031	-0.651513	-0.652843	-0.007220	2.310408	-0.649169	-3.945015E+8	1.830242E-11	NaN
733	1.000000	0.472334	7.37223e+06	-40439.1	1005.82	-29789.9	0.000000	0.000000	6.472918	0.035532	NaN	0.000000	0.001602	0.001701	28.0845	0.133754	0.001960	68.2509	144.842	12.553	0.038023	0.470988	-0.641539	-0.642886	0.035532	68.2509	-0.641930	-3.138811E+8	-1.132024E-10	NaN
733	1.000000	0.482359	7.37223e+06	-40439.1	1005.82	-29789.9	0.000000	0.000000	6.482942	0.020038	NaN	0.000000	0.001595	0.001720	28.0847	0.145401	0.001907	76.2325	-173.775	-165.001	0.053241	0.481023	-0.631515	-0.632851	0.020038	76.2325	-0.631712	-2.272655E+8	-8.816919E-11	NaN
733	1.000000	0.492371	7.37223e+06	-40439.1	1005.82	-29789.9	0.000000	0.000000	6.492952	-0.033312	NaN	0.000000	0.001588	0.001742	28.0844	0.040054	0.002058	19.4586	111.675	15.4937	-0.093044	0.491014	-0.621503	-0.622860	-0.033312	19.4586	-0.620219	-1.579947E+8	2.108424E-10	NaN
733	1.000000	0.502368	7.37223e+06	-40439.1	1005.82	-29789.9	0.000000	0.000000	6.502948	-0.064924	NaN	0.000000	0.001619	0.001754	28.0843	0.074988	0.002035	36.846	156.671	-165.415	-0.068049	0.501042	-0.611506	-0.612832	-0.064924	36.846	-0.610184	-1.149873E+8	5.646149E-10	NaN
733	1.000000	0.512327	7.37223e+06	-40439.1	1005.82	-29789.9	0.000000	0.000000	6.512909	0.004158	NaN	0.000000	0.001641	0.001761	28.0832	0.096824	0.002017	48.0139	45.9061	17.6877	-0.099284	0.510995	-0.601547	-0.602879	0.004158	48.0139	-0.601612	-8.763134E+7	-4.745337E-11	NaN
733	1.000000	0.522374	7.37223e+06	-40439.1	1005.82	-29789.9	0.000000	0.000000	6.522957	0.011819	NaN	0.000000	0.001608	0.001716	28.0838	0.082072	0.002059	39.8694	-53.9399	-163.198	-0.033309	0.521067	-0.591500	-0.592807	0.011819	39.8694	-0.591722	-6.403296E+7	-1.845824E-10	NaN
733	1.000000	0.532356	7.37223e+06	-40439.1	1005.82	-29789.9	0.000000	0.000000	6.532934	-0.088301	NaN	0.000000	0.001612	0.001726	28.0837	0.079630	0.001978	40.2502	12.2705	11.2307	-0.058900	0.530999	-0.581518	-0.582875	-0.088301	40.2502	-0.579873	-4.395099E+7	2.009084E-9	NaN
733	1.000000	0.542361	7.37223e+06	-40439.1	1005.82	-29789.9	0.000000	0.000000	6.542941	-0.073590	NaN	0.000000	0.001601	0.001724	28.0839	0.076273	0.001962	38.874	135.95	-167.342	-0.099745	0.541062	-0.571512	-0.572812	-0.073590	38.874	-0.570093	-3.220406E+7	2.285112E-9	NaN
733	1.000000	0.552387	7.37223e+06	-40439.1	1005.82	-29789.9	0.000000	0.000000	6.552969	-0.008940	NaN	0.000000	0.001609	0.001729	28.0838	0.074139	0.002040	36.334	172.412	14.6921	0.018500	0.551002	-0.561487	-0.562871	-0.008940	36.334	-0.561302	-2.434398E+7	3.672277E-10	NaN
733	1.000000	0.562386	7.37223e+06	-40439.1	1005.82	-29789.9	0.000000	0.000000	6.562968	-0.014385	NaN	0.000000	0.001650	0.001697	28.0839	0.088503	0.001973	44.866	61.2204	-166.257	-0.045329	0.561078	-0.551487	-0.552796	-0.014385	44.866	-0.551247	-1.766955E+7	8.141290E-10	NaN
733	1.000000	0.572383	7.37223e+06	-40439.1	1005.82	-29789.9	0.000000	0.000000	6.572961	-0.118328	NaN	0.000000	0.001579	0.001740	28.0838	0.064171	0.002022	31.7308	14.6911	13.4539	-0.108455	0.570971	-0.541490	-0.542903	-0.118328	31.7308	-0.538693	-1.183686E+7	9.996594E-9	NaN
733	1.000000	0.582396	7.37223e+06	-40439.1	1005.82	-29789.9	0.000000	0.000000	6.582973	-0.134768	NaN	0.000000	0.001559	0.001710	28.084	0.016724	0.001944	8.603790	-92.7394	-165.187	-0.178617	0.581073	-0.531477	-0.532801	-0.134768	8.603790	-0.519730	-6.4541e+06	2.088105E-8	NaN
733	1.000000	0.592406	7.37223e+06	-40439.1	1005.82	-29789.9	0.000000	0.000000	6.592989	0.018139	NaN	0.000000	0.001556	0.001763	28.0838	0.097204	0.002122	45.8125	-135.423	13.6872	-0.091078	0.591042	-0.521468	-0.522832	0.018139	45.8125	-0.521764	-6.88866e+06	-2.633107E-9	NaN
733	1.000000	0.602407	7.37223e+06	-40439.1	1005.82	-29789.9	0.000000	0.000000	6.602984	-0.116805	NaN	0.000000	0.001558	0.001771	28.0839	0.107546	0.001994	53.9333	80.2875	-165.764	-0.101200	0.601084	-0.511467	-0.512790	-0.116805	53.9333	-0.509843	-4.70137e+06	2.484488E-8	NaN
733	1.000000	0.612413	7.37223e+06	-40439.1	1005.82	-29789.9	0.000000	0.000000	6.612996	0.029340	NaN	0.000000	0.001519	0.001749	28.0837	0.058005	0.001982	29.2604	120.311	12.2292	0.031559	0.611023	-0.501461	-0.502851	0.029340	29.2604	-0.502213	-3.68034e+06	-7.972228E-9	NaN
733	1.000000	0.622397	7.37223e+06	-40439.1	1005.82	-29789.9	0.000000	0.000000	6.622980	0.008718	NaN	0.000000	0.001584	0.001761	28.084	0.128250	0.002092	61.3042	-178.999	-165.581	-0.019716	0.621109	-0.491477	-0.492765	0.008718	61.3042	-0.491583	-2.61528e+06	-3.333363E-9	NaN
733	1.000000	0.632414	7.37223e+06	-40439.1	1005.82	-29789.9	0.000000	0.000000	6.632995	-0.028524	NaN	0.000000	0.001578	0.001707	28.0841	0.059027	0.001926	30.6554	139.564	16.3879	-0.052308	0.631087	-0.481460	-0.482787	-0.028524	30.6554	-0.480762	-1.84582e+06	1.545343E-8	NaN
733	1.000000	0.642411	7.37223e+06	-40439.1	1005.82	-29789.9	0.000000	0.000000	6.642987	-0.142948	NaN	0.000000	0.001585	0.001765	28.0853	0.104588	0.002090	50.0487	-70.6571	-163.687	-0.052276	0.641131	-0.471463	-0.472743	-0.142948	50.0487	-0.469321	-1.2761e+06	1.120194E-7	NaN
733	1.000000	0.652451	7.37223e+06	-40439.1	1005.82	-29789.9	0.000000	0.000000	6.653034	0.008276	NaN	0.000000	0.001578	0.001722	28.0854	0.007072	0.001915	3.693212	12.1058	15.3496	0.001220	0.651050	-0.461422	-0.462824	0.008276	3.693212	-0.463103	-1.04379e+06	-7.929104E-9	NaN
733	1.000000	0.662408	7.37223e+06	-40439.1	1005.82	-29789.9	0.000000	0.000000	6.662987	-0.078836	NaN	0.000000	0.001658	0.001769	28.0854	0.197677	0.001932	102.314	70.1527	-163.505	-0.050247	0.661171	-0.451466	-0.452703	-0.078836	102.314	-0.450888	-702830	1.121696E-7	NaN
733	1.000000	0.672418	7.37223e+06	-40439.1	1005.82	-29789.9	0.000000	0.000000	6.672999	-0.022819	NaN	0.000000	0.001652	0.001743	28.0852	0.013593	0.002012	6.757423	-91.854	15.8207	-0.054326	0.671052	-0.441456	-0.442822	-0.022819	6.757423	-0.438924	-476616	4.787790E-8	NaN
733	1.000000	0.682426	7.37223e+06	-40439.1	1005.82	-29789.9	0.000000	0.000000	6.683008	-0.000115	NaN	0.000000	0.001676	0.001732	28.0852	0.131721	0.001926	68.3982	-125.776	-165.486	-0.042138	0.681123	-0.431448	-0.432751	-0.000115	68.3982	-0.431447	-373700	3.080836E-10	NaN
733	1.000000	0.692450	7.37223e+06	-40439.1	1005.82	-29789.9	0.000000	0.000000	6.693032	0.007769	NaN	0.000000	0.001635	0.001755	28.085	0.045838	0.001918	23.8946	161.969	13.1415	0.113754	0.691070	-0.421424	-0.422804	0.007769	23.8946	-0.421668	-271684	-2.859628E-8	NaN
733	1.000000	0.702436	7.37223e+06	-40439.1	1005.82	-29789.9	0.000000	0.000000	6.703021	0.056881	NaN	0.000000	0.001613	0.001738	28.0851	0.044370	0.002001	22.1732	74.2233	-167.65	0.052400	0.701117	-0.411438	-0.412757	0.056881	22.1732	-0.413362	-207104	-2.746521E-7	NaN
733	1.000000	0.712477	7.37223e+06	-40439.1	1005.82	-29789.9	0.000000	0.000000	6.713059	0.001375	NaN	0.000000	0.001554	0.001771	28.0851	0.023335	0.001876	12.4419	-45.1356	17.3091	-0.003154	0.711037	-0.401397	-0.402837	0.001375	12.4419	-0.401480	-140313	-9.802942E-9	NaN
733	1.000000	0.722449	7.37223e+06	-40439.1	1005.82	-29789.9	0.000000	0.000000	6.723027	-0.096584	NaN	0.000000	0.001572	0.001750	28.085	0.083298	0.001977	42.1257	-151.861	-162.658	-0.074420	0.721144	-0.391425	-0.392730	-0.096584	42.1257	-0.389706	-95269.8	1.013795E-6	NaN
733	1.000000	0.732444	7.37223e+06	-40439.1	1005.82	-29789.9	0.000000	0.000000	6.733027	0.012565	NaN	0.000000	0.001645	0.001758	28.085	0.057700	0.002004	28.7952	158.62	19.0367	-0.050563	0.731056	-0.381430	-0.382818	0.012565	28.7952	-0.381757	-73298.6	-1.714187E-7	NaN
733	1.000000	0.742459	7.37223e+06	-40439.1	1005.82	-29789.9	0.000000	0.000000	6.743042	0.012000	NaN	0.000000	0.001659	0.001773	28.0852	0.131551	0.002071	63.5283	166.347	-161.905	-0.073868	0.741173	-0.371415	-0.372700	0.012000	63.5283	-0.371557	-52304.4	-2.294348E-7	NaN
733	1.000000	0.752471	7.37223e+06	-40439.1	1005.82	-29789.9	0.000000	0.000000	6.753050	-0.089246	NaN	0.000000	0.001652	0.001712	28.085	0.120646	0.002099	57.4853	51.6119	13.1081	-0.075326	0.751127	-0.361403	-0.362747	-0.089246	57.4853	-0.360238	-35916.1	2.484834E-6	NaN
733	1.000000	0.762482	7.37223e+06	-40439.1	1005.82	-29789.9	0.000000	0.000000	6.763065	-0.003434	NaN	0.000000	0.001656	0.001743	28.085	0.059869	0.001931	31.0024	90.0614	-165.63	-0.029183	0.761161	-0.351391	-0.352713	-0.003434	31.0024	-0.351308	-26667.8	1.287788E-7	NaN
733	1.000000	0.772468	7.37223e+06	-40439.1	1005.82	-29789.9	0.000000	0.000000	6.773047	-0.072240	NaN	0.000000	0.001644	0.001769	28.0852	0.092820	0.001907	48.6728	-94.9014	10.9231	0.023847	0.771051	-0.341406	-0.342823	-0.072240	48.6728	-0.340293	-18442.6	3.917029E-6	NaN
733	1.000000	0.782502	7.37223e+06	-40439.1	1005.82	-29789.9	0.000000	0.000000	6.783081	-0.078396	NaN	0.000000	0.001608	0.001748	28.084	0.140054	0.001956	71.6119	-164.276	-167.954	-0.089465	0.781148	-0.331372	-0.332726	-0.078396	71.6119	-0.330551	-13289.8	5.898941E-6	NaN
733	1.000000	0.792488	7.37223e+06	-40439.1	1005.82	-29789.9	0.000000	0.000000	6.793067	-0.060179	NaN	0.000000	0.001598	0.001723	28.0837	0.022050	0.001965	11.2236	34.77	12.8407	-0.018451	0.791112	-0.321386	-0.322762	-0.060179	11.2236	-0.317365	-8507.95	7.073310E-6	NaN
733	1.000000	0.802491	7.37223e+06	-40439.1	1005.82	-29789.9	0.000000	0.000000	6.803071	-0.054132	NaN	0.000000	0.001559	0.001747	28.0838	0.003394	0.002136	1.589194	140.686	-166.164	-0.031332	0.801203	-0.311383	-0.312671	-0.054132	1.589194	-0.285836	-2889.53	1.873394E-5	NaN
733	1.000000	0.812505	7.37223e+06	-40439.1	1005.82	-29789.9	0.000000	0.000000	6.813085	-0.043738	NaN	0.000000	0.001566	0.001764	28.0841	0.115786	0.002174	53.253	-171.861	13.3773	-0.027258	0.811153	-0.301369	-0.302721	-0.043738	53.253	-0.300753	-4828.84	9.057591E-6	NaN
733	1.000000	0.822513	7.37223e+06	-40439.1	1005.82	-29789.9	0.000000	0.000000	6.823094	-0.033211	NaN	0.000000	0.001591	0.001754	28.084	0.041345	0.001978	20.8999	140.96	-166.959	-0.018312	0.821217	-0.291361	-0.292657	-0.033211	20.8999	-0.290169	-3356.09	9.895626E-6	NaN
733	1.000000	0.832514	7.37223e+06	-40439.1	1005.82	-29789.9	0.000000	0.000000	6.833096	-0.004400	NaN	0.000000	0.001572	0.001758	28.0841	0.049339	0.001978	24.9498	-144.382	15.8597	-0.033160	0.831125	-0.281360	-0.282749	-0.004400	24.9498	-0.281228	-2463.13	1.786310E-6	NaN
733	1.000000	0.842471	7.37223e+06	-40439.1	1005.82	-29789.9	0.000000	0.000000	6.843051	-0.065057	NaN	0.000000	0.001560	0.001772	28.0837	0.132804	0.001995	66.5773	-168.688	-166.74	-0.021872	0.841245	-0.271403	-0.272628	-0.065057	66.5773	-0.270670	-1705.01	3.815645E-5	NaN
733	1.000000	0.852516	7.37223e+06	-40439.1	1005.82	-29789.9	0.000000	0.000000	6.853099	0.007695	NaN	0.000000	0.001580	0.001742	28.0843	0.076323	0.002115	36.0832	62.3083	12.9237	-0.034652	0.851141	-0.261358	-0.262732	0.007695	36.0832	-0.261518	-1236.41	-6.223533E-6	NaN
733	1.000000	0.862514	7.37223e+06	-40439.1	1005.82	-29789.9	0.000000	0.000000	6.863096	-0.001129	NaN	0.000000	0.001567	0.001761	28.0838	0.050343	0.002088	24.1154	-38.5189	-162.073	0.016158	0.861247	-0.251360	-0.252627	-0.001129	24.1154	-0.251325	-861.882	1.309998E-6	NaN
733	1.000000	0.872478	7.37223e+06	-40439.1	1005.82	-29789.9	0.000000	0.000000	6.873058	-0.063399	NaN	0.000000	0.001615	0.001726	28.084	0.050858	0.001967	25.8523	170.18	13.1802	-0.012318	0.871159	-0.241395	-0.242715	-0.063399	25.8523	-0.239556	-565.742	0.000112	NaN
733	1.000000	0.882454	7.37223e+06	-40439.1	1005.82	-29789.9	0.000000	0.000000	6.883034	-0.045442	NaN	0.000000	0.001604	0.001755	28.0838	0.036909	0.002038	18.111	-65.7624	-167.326	-0.069418	0.881223	-0.231420	-0.232651	-0.045442	18.111	-0.229538	-393.751	0.000115	NaN
733	1.000000	0.892535	7.37223e+06	-40439.1	1005.82	-29789.9	0.000000	0.000000	6.893115	-0.048468	NaN	0.000000	0.001567	0.001753	28.0846	0.047920	0.001975	24.2589	-40.4785	16.6927	0.021961	0.891156	-0.221339	-0.222718	-0.048468	24.2589	-0.219841	-276.142	0.000176	NaN
733	1.000000	0.902515	7.37223e+06	-40439.1	1005.82	-29789.9	0.000000	0.000000	6.903092	-0.126904	NaN	0.000000	0.001568	0.001708	28.0839	0.116659	0.002041	57.1644	109.616	-164.077	-0.109578	0.901245	-0.211359	-0.212629	-0.126904	57.1644	-0.209694	-189.611	0.000669	NaN
733	1.000000	0.912524	7.37223e+06	-40439.1	1005.82	-29789.9	0.000000	0.000000	6.913102	-0.101142	NaN	0.000000	0.001533	0.001697	28.0846	0.021454	0.002011	10.6699	-19.0076	15.3663	-0.084997	0.911187	-0.201350	-0.202687	-0.101142	10.6699	-0.194240	-105.831	0.000956	NaN
733	1.000000	0.922508	7.37223e+06	-40439.1	1005.82	-29789.9	0.000000	0.000000	6.923091	0.012250	NaN	0.000000	0.001556	0.001743	28.0853	0.140630	0.001989	70.6949	-9.778701	-165.393	0.051185	0.921185	-0.191366	-0.192689	0.012250	70.6949	-0.191496	-95.2768	-0.000129	NaN
733	1.000000	0.932541	7.37223e+06	-40439.1	1005.82	-29789.9	0.000000	0.000000	6.933120	-0.069678	NaN	0.000000	0.001564	0.001722	28.0857	0.079109	0.001961	40.3437	-35.5032	13.7046	-0.073905	0.931173	-0.181333	-0.182700	-0.069678	40.3437	-0.180038	-61.1092	0.001140	NaN
733	1.000000	0.942544	7.37223e+06	-40439.1	1005.82	-29789.9	0.000000	0.000000	6.943123	-0.078587	NaN	0.000000	0.001569	0.001757	28.0855	0.056625	0.002001	28.3	140.354	-163.735	-0.052781	0.941265	-0.171330	-0.172609	-0.078587	28.3	-0.169247	-39.859	0.001972	NaN
733	1.000000	0.952544	7.37223e+06	-40439.1	1005.82	-29789.9	0.000000	0.000000	6.953128	0.027282	NaN	0.000000	0.001546	0.001836	28.0857	0.056612	0.001995	28.3796	51.8588	10.0626	0.049867	0.951164	-0.161330	-0.162710	0.027282	28.3796	-0.162050	-29.808	-0.000915	NaN
733	1.000000	0.962561	7.37223e+06	-40439.1	1005.82	-29789.9	0.000000	0.000000	6.963141	-0.053642	NaN	0.000000	0.001557	0.001763	28.0857	0.047719	0.002041	23.3848	51.0562	-169.226	-0.138474	0.961153	-0.151313	-0.152720	-0.053642	23.3848	-0.149592	-17.8061	0.003013	NaN
733	1.000000	0.972556	7.37223e+06	-40439.1	1005.82	-29789.9	0.000000	0.000000	6.973137	-0.031516	NaN	0.000000	0.001575	0.001768	28.0858	0.013497	0.002041	6.613054	11.9641	12.1381	-0.047033	0.971174	-0.141318	-0.142700	-0.031516	6.613054	-0.137744	-10.726	0.002938	NaN
733	1.000000	0.982530	7.37223e+06	-40439.1	1005.82	-29789.9	0.000000	0.000000	6.983109	-0.076974	NaN	0.000000	0.001640	0.001766	28.0853	0.109228	0.001861	58.7039	-100.55	-165.574	-0.083713	0.981261	-0.131344	-0.132613	-0.076974	58.7039	-0.130361	-7.744880	0.009939	NaN
733	1.000000	0.992573	7.37223e+06	-40439.1	1005.82	-29789.9	0.000000	0.000000	6.993155	-0.001991	NaN	0.000000	0.001615	0.001740	28.0854	0.066091	0.002054	32.1775	76.405	15.859	-0.006249	0.991223	-0.121301	-0.122651	-0.001991	32.1775	-0.121254	-5.120739	0.000389	NaN
733	1.000000	1.002561	7.37223e+06	-40439.1	1005.82	-29789.9	0.000000	0.000000	7.003146	0.047934	NaN	0.000000	0.001627	0.001754	28.0855	0.017855	0.001980	9.018220	-54.7627	-165.013	-0.073660	1.001247	-0.111312	-0.112627	0.047934	9.018220	-0.115299	-3.874927	-0.012370	NaN
733	1.000000	1.012562	7.37223e+06	-40439.1	1005.82	-29789.9	0.000000	0.000000	7.013143	-0.032942	NaN	0.000000	0.001627	0.001722	28.0852	0.037653	0.002062	18.2607	-28.7798	14.3131	-0.055307	1.011233	-0.101312	-0.102641	-0.032942	18.2607	-0.099959	-1.823330	0.018067	NaN
733	1.000000	1.022576	7.37223e+06	-40439.1	1005.82	-29789.9	0.000000	0.000000	7.023156	-0.060726	NaN	0.000000	0.001637	0.001703	28.0851	0.137168	0.002044	67.1025	101.218	-166.857	-0.052631	1.021218	-0.091298	-0.092655	-0.060726	67.1025	-0.090619	-1.117690	0.054332	NaN
733	1.000000	1.032566	7.37223e+06	-40439.1	1005.82	-29789.9	0.000000	0.000000	7.033148	0.008287	NaN	0.000000	0.001667	0.001722	28.0852	0.047727	0.001967	24.2587	76.2814	16.0656	0.063442	1.031244	-0.081308	-0.082630	0.008287	24.2587	-0.081564	-0.677020	-0.012240	NaN
733	1.000000	1.042580	7.37223e+06	-40439.1	1005.82	-29789.9	0.000000	0.000000	7.043159	-0.066515	NaN	0.000000	0.001656	0.001758	28.0855	0.018585	0.002085	8.912292	45.1742	-162.23	-0.022625	1.041277	-0.071294	-0.072597	-0.066515	8.912292	-0.065697	-0.260528	0.255310	NaN
733	1.000000	1.052580	7.37223e+06	-40439.1	1005.82	-29789.9	0.000000	0.000000	7.053163	0.008607	NaN	0.000000	0.001634	0.001770	28.0844	0.127575	0.002061	61.9059	116.963	12.4131	-0.029746	1.051238	-0.061294	-0.062636	0.008607	61.9059	-0.061398	-0.197431	-0.043594	NaN
733	1.000000	1.062582	7.37223e+06	-40439.1	1005.82	-29789.9	0.000000	0.000000	7.063162	-0.051521	NaN	0.000000	0.001680	0.001768	28.0844	0.049201	0.002051	23.9919	89.7003	-166.627	-0.042431	1.061305	-0.051292	-0.052568	-0.051521	23.9919	-0.049681	-0.089247	0.577290	NaN
733	1.000000	1.072604	7.37223e+06	-40439.1	1005.82	-29789.9	0.000000	0.000000	7.073185	-0.027580	NaN	0.000000	0.001571	0.001717	28.0845	0.028975	0.002166	13.3772	-50.5743	11.857	-0.032424	1.071194	-0.041270	-0.042680	-0.027580	13.3772	-0.039724	-0.044358	0.621768	NaN
733	1.000000	1.082586	7.37223e+06	-40439.1	1005.82	-29789.9	0.000000	0.000000	7.083212	1.056630	NaN	0.000000	0.001591	0.001766	28.0845	0.934138	0.001785	523.288	4.570966	-162.951	0.559324	1.081265	-0.031287	-0.032609	1.056630	523.288	-0.032802	-0.027632	-38.2392	NaN
733	1.000000	1.092596	7.37223e+06	-40439.1	1005.82	-29789.9	0.000000	0.000000	7.093301	2.997838	NaN	0.000000	0.001592	0.001743	28.0843	1.532101	0.001878	815.628	14.7049	12.8385	3.016771	1.091227	-0.021278	-0.022647	2.997838	815.628	-0.024035	-0.015923	-188.266	NaN
733	1.000000	1.102598	7.37223e+06	-40439.1	1005.82	-29789.9	0.000000	0.000000	7.103287	2.608977	NaN	0.000000	0.001576	0.001760	28.0842	1.510895	0.001974	765.362	15.3564	-167.991	2.573700	1.101313	-0.011276	-0.012561	2.608977	765.362	-0.013833	-0.008585	-303.886	NaN
733	1.000000	1.112586	7.37223e+06	-40439.1	1005.82	-29789.9	0.000000	0.000000	7.113322	3.754367	NaN	0.000000	0.001593	0.001742	28.0843	2.730536	0.001838	1485.87	7.027642	16.252	2.901596	1.111266	-0.001288	-0.002607	3.754367	1485.87	-0.003183	-0.002243	-1673.98	NaN
733	2.000000	1.119159	7.37223e+06	-40439.1	1005.82	-29789.9	0.000000	0.000000	7.120203	11.25	NaN	0.000000	0.001590	0.001771	28.0848	9.398929	0.001652	5688.82	-0.924306	-166.168	10.5544	1.118851	0.005285	0.004977	11.25	5688.82	0.003802	0.003066	3669.53	93869.4
733	2.000000	1.121624	7.37223e+06	-40439.1	1005.82	-29789.9	0.000000	0.000000	7.122862	15.9729	NaN	0.000000	0.001610	0.001737	28.0841	12.3576	0.001697	7281.79	5.588174	6.281067	14.1844	1.121266	0.007750	0.007392	15.9729	7281.79	0.006105	0.005164	3092.91	92577.2
733	2.000000	1.124087	7.37223e+06	-40439.1	1005.82	-29789.9	0.000000	0.000000	7.125472	19.532	NaN	0.000000	0.001616	0.001746	28.0844	15.0752	0.001661	9074.26	4.356042	-174.279	18.219	1.123759	0.010213	0.009885	19.532	9074.26	0.008598	0.007665	2548.18	94694.8
733	2.000000	1.126575	7.37223e+06	-40439.1	1005.82	-29790	0.000000	0.000000	7.128077	22.3731	NaN	0.000000	0.001635	0.001736	28.0841	17.2314	0.001701	10131	1.540737	8.629136	21.5814	1.126364	0.012701	0.012490	22.3731	10131	0.011045	0.010366	2158.26	90910.7
733	2.000000	1.129084	7.37223e+06	-40439.1	1005.82	-29790	0.000000	0.000000	7.130782	27.1464	NaN	0.000000	0.001604	0.001757	28.0847	20.9149	0.001725	12127	5.550594	-177.85	26.2368	1.128784	0.015210	0.014910	27.1464	12127	0.013531	0.013376	2029.46	95798.6
733	2.000000	1.131616	7.37223e+06	-40439.1	1005.82	-29790	0.000000	0.000000	7.133502	31.7298	NaN	0.000000	0.001581	0.001769	28.0839	23.2054	0.001685	13774.8	5.885826	2.010424	31.4976	1.131348	0.017742	0.017474	31.7298	13774.8	0.016015	0.016662	1904.3	97497.3
733	2.000000	1.134081	7.37223e+06	-40439.1	1005.82	-29790	0.000000	0.000000	7.136177	36.8367	NaN	0.000000	0.001598	0.001751	28.0852	25.9409	0.001844	14065.8	8.879131	178.521	37.7791	1.133769	0.020207	0.019896	36.8367	14065.8	0.018243	0.019857	1855.14	91198
733	2.000000	1.136574	7.37223e+06	-40439.1	1005.82	-29790	0.000000	0.000000	7.138957	43.8168	NaN	0.000000	0.001601	0.001781	28.0852	28.1032	0.001752	16041.9	5.708986	0.477436	43.7814	1.136264	0.022700	0.022390	43.8168	16041.9	0.020652	0.023577	1858.46	95452.1
733	2.000000	1.139088	7.37223e+06	-40439.1	1005.82	-29790	0.000000	0.000000	7.141757	50.7657	NaN	0.000000	0.001591	0.001772	28.0866	31.0126	0.001789	17332.5	6.700387	179.247	51.4086	1.138704	0.025215	0.024830	50.7657	17332.5	0.023018	0.027508	1845.48	95477.8
733	2.000000	1.141566	7.37223e+06	-40439.1	1005.82	-29790	0.000000	0.000000	7.144556	58.6038	NaN	0.000000	0.001558	0.001743	28.0851	32.5161	0.001795	18113.2	3.048504	2.189122	57.764	1.141231	0.027692	0.027357	58.6038	18113.2	0.025265	0.031500	1860.43	93242.2
733	2.000000	1.144018	7.37223e+06	-40439.1	1005.82	-29790	0.000000	0.000000	7.147176	62.6645	NaN	0.000000	0.001587	0.001769	28.086	35.3967	0.001743	20312.9	5.775465	177.884	61.4537	1.143731	0.030144	0.029857	62.6645	20312.9	0.027831	0.036367	1723.11	97317.7
733	2.000000	1.146538	7.37223e+06	-40439.1	1005.82	-29790	0.000000	0.000000	7.150095	72.3878	NaN	0.000000	0.001607	0.001756	28.0855	38.024	0.001815	20945.8	7.033858	-4.396015	70.1517	1.146154	0.032664	0.032280	72.3878	20945.8	0.030072	0.040894	1770.15	94632.8
733	2.000000	1.149020	7.37223e+06	-40439.1	1005.82	-29790	0.000000	0.000000	7.152922	80.7823	NaN	0.000000	0.001570	0.001770	28.0853	40.6945	0.001778	22887.6	2.988303	179.439	79.1954	1.148774	0.035146	0.034900	80.7823	22887.6	0.032499	0.046082	1753	97410.6
733	2.000000	1.151537	7.37223e+06	-40439.1	1005.82	-29790	0.000000	0.000000	7.155866	91.1614	NaN	0.000000	0.001583	0.001765	28.0853	42.9083	0.001769	24248.9	6.955863	-4.063500	89.7362	1.151179	0.037663	0.037306	91.1614	24248.9	0.034844	0.051383	1774.17	97736.5
733	2.000000	1.154042	7.37223e+06	-40439.1	1005.82	-29790	0.000000	0.000000	7.158850	102.812	NaN	0.000000	0.001551	0.001763	28.0858	45.6917	0.001789	25538.2	6.756890	175.45	104.261	1.153747	0.040168	0.039873	102.812	25538.2	0.037149	0.056868	1807.9	97843
733	2.000000	1.156468	7.37223e+06	-40439.1	1005.82	-29790	0.000000	0.000000	7.161972	119.756	NaN	0.000000	0.001571	0.001760	28.0851	48.6168	0.001842	26387.9	5.668477	-4.048120	115.335	1.156021	0.042595	0.042148	119.756	26387.9	0.039191	0.061954	1932.98	96859.6
733	2.000000	1.159061	7.37223e+06	-40439.1	1005.82	-29790	0.000000	0.000000	7.165189	134.964	NaN	0.000000	0.001581	0.001745	28.0853	51.6737	0.001875	27558	7.327181	174.451	136.001	1.158657	0.045187	0.044783	134.964	27558	0.041514	0.067999	1984.8	96554
733	2.000000	1.161559	7.37223e+06	-40439.1	1005.82	-29790	0.000000	0.000000	7.168312	150.153	NaN	0.000000	0.001571	0.001739	28.0855	53.5303	0.001815	29491.9	11.1589	-8.741831	150.463	1.161150	0.047686	0.047276	150.153	29491.9	0.043867	0.074404	2018.09	98782.3
733	2.000000	1.163881	7.37223e+06	-40439.1	1005.82	-29790	0.000000	0.000000	7.171196	163.836	NaN	0.000000	0.001559	0.001731	28.0861	54.9966	0.001626	33829.8	2.528038	176.872	157.864	1.163627	0.050007	0.049753	163.836	33829.8	0.046375	0.081539	2009.3	108241
733	2.000000	1.166478	7.37223e+06	-40439.1	1005.82	-29790	0.000000	0.000000	7.174526	181.656	NaN	0.000000	0.001550	0.001742	28.0855	58.6609	0.001768	33172.9	7.356793	-7.307464	179.006	1.166118	0.052605	0.052244	181.656	33172.9	0.048498	0.087826	2068.37	102269
733	2.000000	1.168990	7.37223e+06	-40439.1	1005.82	-29790	0.000000	0.000000	7.177719	198.229	NaN	0.000000	0.001559	0.001770	28.0848	61.9891	0.001899	32640.4	4.979636	174.937	196.826	1.168571	0.055117	0.054697	198.229	32640.4	0.050562	0.094157	2105.29	97185.5
733	2.000000	1.171383	7.37223e+06	-40439.1	1005.82	-29790	0.000000	0.000000	7.180832	215.753	NaN	0.000000	0.001600	0.001718	28.084	62.7458	0.001709	36711.8	0.980468	-2.094269	207.471	1.171076	0.057509	0.057202	215.753	36711.8	0.053101	0.102239	2110.27	104899
733	2.000000	1.173908	7.37223e+06	-40439.1	1005.82	-29790	0.000000	0.000000	7.183989	231.149	NaN	0.000000	0.001602	0.001783	28.0841	64.7697	0.001766	36673	2.899821	176.148	225.779	1.173592	0.060034	0.059718	231.149	36673	0.055307	0.109519	2110.59	101245
733	2.000000	1.176478	7.37223e+06	-40439.1	1005.82	-29790	0.000000	0.000000	7.187210	246.993	NaN	0.000000	0.001610	0.001742	28.0839	68.7546	0.001838	37416.7	4.842633	-6.139600	245.103	1.176119	0.062604	0.062245	246.993	37416.7	0.057653	0.117527	2101.59	99717.3
733	2.000000	1.178976	7.37223e+06	-40439.1	1005.82	-29790	0.000000	0.000000	7.190488	265.955	NaN	0.000000	0.001593	0.001729	28.0839	71.0739	0.001755	40497.6	4.358862	173.52	263.684	1.178647	0.065103	0.064774	265.955	40497.6	0.060177	0.126445	2103.33	104052
733	2.000000	1.181472	7.37223e+06	-40439.1	1005.82	-29790	0.000000	0.000000	7.194097	293.042	NaN	0.000000	0.001601	0.001755	28.0839	72.8529	0.001756	41488.6	4.229996	-5.918667	288.304	1.181055	0.067598	0.067181	293.042	41488.6	0.062301	0.134188	2183.82	103477
733	2.000000	1.183915	7.37223e+06	-40439.1	1005.82	-29790	0.000000	0.000000	7.197502	316.461	NaN	0.000000	0.001587	0.001709	28.0841	75.5516	0.001700	44450.9	4.676721	172.466	311.862	1.183565	0.070041	0.069692	316.461	44450.9	0.064701	0.143204	2209.86	107319
733	2.000000	1.186409	7.37223e+06	-40439.1	1005.82	-29790	0.000000	0.000000	7.200674	332.933	NaN	0.000000	0.001601	0.001647	28.0839	78.3912	0.001858	42195.5	3.979151	-6.086783	328.399	1.186155	0.072535	0.072282	332.933	42195.5	0.066618	0.150602	2210.67	99339.9
733	2.000000	1.188916	7.37223e+06	-40439.1	1005.82	-29790	0.000000	0.000000	7.204445	363.716	NaN	0.000000	0.001598	0.001692	28.0839	80.4288	0.001771	45411.4	3.737109	173.476	358.456	1.188593	0.075042	0.074720	363.716	45411.4	0.069035	0.160184	2270.62	103664
733	2.000000	1.191376	7.37223e+06	-40439.1	1005.82	-29790	0.000000	0.000000	7.207261	372.367	NaN	0.000000	0.001569	0.001662	28.084	82.0791	0.001838	44651.4	5.530513	-7.830847	364.613	1.190987	0.077503	0.077113	372.367	44651.4	0.071248	0.169202	2200.73	99175.8
733	2.000000	1.194018	7.37223e+06	-40439.1	1005.82	-29790	0.000000	0.000000	7.211110	401.729	NaN	0.000000	0.001605	0.001703	28.0842	83.4974	0.001688	49455	5.290545	171.802	403.137	1.193590	0.080144	0.079716	401.729	49455	0.074052	0.180961	2219.97	106216
733	2.000000	1.196564	7.37223e+06	-40439.1	1005.82	-29790	0.000000	0.000000	7.214120	413.024	NaN	0.000000	0.001546	0.001710	28.084	87.759	0.001936	45332.8	10.632	-12.7373	416.814	1.196176	0.082690	0.082303	413.024	45332.8	0.075857	0.188726	2188.49	95338.9
733	2.000000	1.198886	7.37223e+06	-40439.1	1005.82	-29790	0.000000	0.000000	7.217154	430.354	NaN	0.000000	0.001546	0.001695	28.0839	88.3358	0.001801	49047.8	3.403400	172.991	425.534	1.198672	0.085012	0.084798	430.354	49047.8	0.078431	0.200067	2151.05	100186
733	2.000000	1.201482	7.37223e+06	-40439.1	1005.82	-29790	0.000000	0.000000	7.220800	455.916	NaN	0.000000	0.001683	0.001727	28.0868	90.6199	0.001900	47692.5	4.785324	-7.518948	451.565	1.201121	0.087608	0.087247	455.916	47692.5	0.080439	0.209124	2180.13	95284.4
733	2.000000	1.203988	7.37223e+06	-40439.1	1005.82	-29790	0.000000	0.000000	7.224442	483.559	NaN	0.000000	0.001677	0.001709	28.0853	92.5602	0.001752	52842.9	5.060369	171.452	484.716	1.203658	0.090114	0.089784	483.559	52842.9	0.083251	0.222129	2176.93	102437
733	2.000000	1.206511	7.37223e+06	-40439.1	1005.82	-29790	0.000000	0.000000	7.227686	501.088	NaN	0.000000	0.001683	0.001700	28.0851	96.1399	0.001888	50922.8	0.671995	-3.784366	501.324	1.206211	0.092637	0.092337	501.088	50922.8	0.085257	0.231629	2163.32	96669.3
733	2.000000	1.208870	7.37223e+06	-40439.1	1005.82	-29790	0.000000	0.000000	7.231106	526.921	NaN	0.000000	0.001668	0.001711	28.0848	98.8372	0.001868	52908.2	3.279267	173.47	520.695	1.208608	0.094996	0.094734	526.921	52908.2	0.087526	0.242601	2171.96	98140.9
733	2.000000	1.211549	7.37223e+06	-40439.1	1005.82	-29790	0.000000	0.000000	7.234805	551.722	NaN	0.000000	0.001666	0.001731	28.085	100.329	0.001726	58141.4	4.153619	-8.182945	552.753	1.211252	0.097675	0.097378	551.722	58141.4	0.090558	0.257629	2141.54	104655
733	2.000000	1.213891	7.37223e+06	-40439.1	1005.82	-29790	0.000000	0.000000	7.238215	577.721	NaN	0.000000	0.001676	0.001750	28.0848	102.738	0.001750	58696.3	2.515947	173.222	573.966	1.213695	0.100017	0.099821	577.721	58696.3	0.092635	0.268167	2154.34	103558
733	2.000000	1.216356	7.37223e+06	-40439.1	1005.82	-29790	0.000000	0.000000	7.242104	612.363	NaN	0.000000	0.001629	0.001760	28.0851	106.005	0.001817	58349.2	2.311735	-6.580278	605.556	1.216049	0.102483	0.102175	612.363	58349.2	0.094611	0.278375	2199.77	101040