File: remote_trans/data/nanoindenter/0828-1/data/Data_2025-08-06,11h17m57s/2025-07-22_16-23-58_1_1051.txt
2025-07-22, 16:23:58, 1
Index	Phase	Displacement	Time	Pos X	Pos Y	Pos Z	Rot A	Rot B	Piezo Z	Force A	Force B	Gripper	Voltage A	Voltage B	Temperature	Amplitude force	Amplitude pos	Stiffness	Phase shift	Phase excitation	Force A raw	Displacement raw	HMax	HMax raw	Real Force	Real Stiffness	Contact Depth	Area	Hardness	Reduced Mod.
[#]	[#]	[um]	[s]	[um]	[um]	[um]	[m°]	[m°]	[um]	[uN]	[uN]	[V]	[V]	[V]	[°C]	[uN]	[um]	[N/m]	[°]	[°]	[uN]	[um]	[um]	[um]	[uN]	[N/m]	[um]	[um^2]	[MPa]	[MPa]
1051	1.000000	0.002884	7.37532e+06	-52689.1	1055.82	-29748.4	0.000000	0.000000	6.002800	0.051626	NaN	0.000000	0.001706	0.001761	28.0842	0.058769	0.000975	60.281	129.221	-168.057	0.047913	0.001637	-0.702330	-0.703577	0.051626	60.281	-0.702972	-2.148394E+9	-2.403022E-11	NaN
1051	1.000000	0.008824	7.37532e+06	-52689.1	1055.82	-29748.4	0.000000	0.000000	6.008739	0.049917	NaN	0.000000	0.001685	0.001745	28.0837	0.114871	0.001015	113.139	-121.271	16.0326	-0.000175	0.007496	-0.696390	-0.697718	0.049917	113.139	-0.696721	-1.765013E+9	-2.828164E-11	NaN
1051	1.000000	0.014891	7.37532e+06	-52689.1	1055.82	-29748.4	0.000000	0.000000	6.014805	0.020844	NaN	0.000000	0.001733	0.001754	28.0839	0.119627	0.001645	72.7055	-101.402	-164.878	0.035140	0.013696	-0.690323	-0.691518	0.020844	72.7055	-0.690538	-1.453030E+9	-1.434544E-11	NaN
1051	1.000000	0.020818	7.37532e+06	-52689.1	1055.82	-29748.4	0.000000	0.000000	6.020729	-0.070526	NaN	0.000000	0.001710	0.001721	28.0836	0.083803	0.001581	52.9938	-46.7607	16.7714	-0.064285	0.019527	-0.684395	-0.685687	-0.070526	52.9938	-0.683397	-1.160544E+9	6.077012E-11	NaN
1051	1.000000	0.026907	7.37532e+06	-52689.1	1055.82	-29748.4	0.000000	0.000000	6.026821	0.026925	NaN	0.000000	0.001708	0.001706	28.0835	0.068101	0.001826	37.3017	-42.7221	-165.422	0.044092	0.025493	-0.678307	-0.679721	0.026925	37.3017	-0.678848	-1.005662E+9	-2.677372E-11	NaN
1051	1.000000	0.032820	7.37532e+06	-52689.1	1055.82	-29748.4	0.000000	0.000000	6.032735	0.041617	NaN	0.000000	0.001626	0.001722	28.0834	0.063636	0.001981	32.1176	80.171	13.2113	0.045620	0.031472	-0.672394	-0.673742	0.041617	32.1176	-0.673366	-8.461603E+8	-4.918286E-11	NaN
1051	1.000000	0.038822	7.37532e+06	-52689.1	1055.82	-29748.4	0.000000	0.000000	6.038739	0.084585	NaN	0.000000	0.001641	0.001725	28.0835	0.031646	0.001828	17.3091	38.2486	-164.487	-0.047376	0.037526	-0.666391	-0.667688	0.084585	17.3091	-0.670057	-7.623674E+8	-1.109508E-10	NaN
1051	1.000000	0.044827	7.37532e+06	-52689.1	1055.82	-29748.4	0.000000	0.000000	6.044740	-0.010836	NaN	0.000000	0.001659	0.001773	28.0842	0.006095	0.001947	3.130941	122.446	17.6892	0.027101	0.043498	-0.660387	-0.661716	-0.010836	3.130941	-0.657791	-5.178534E+8	2.092465E-11	NaN
1051	1.000000	0.050831	7.37532e+06	-52689.1	1055.82	-29748.4	0.000000	0.000000	6.050743	-0.028011	NaN	0.000000	0.001657	0.001772	28.0836	0.051383	0.001876	27.3879	-53.1055	-166.143	-0.024589	0.049541	-0.654383	-0.655673	-0.028011	27.3879	-0.653616	-4.539362E+8	6.170647E-11	NaN
1051	1.000000	0.056820	7.37532e+06	-52689.1	1055.82	-29748.4	0.000000	0.000000	6.056734	0.020001	NaN	0.000000	0.001627	0.001769	28.0837	0.114458	0.002040	56.1007	174.938	13.1246	-0.021979	0.055489	-0.648393	-0.649725	0.020001	56.1007	-0.648661	-3.882198E+8	-5.151861E-11	NaN
1051	1.000000	0.062818	7.37532e+06	-52689.1	1055.82	-29748.4	0.000000	0.000000	6.062732	0.022206	NaN	0.000000	0.001687	0.001748	28.084	0.039954	0.001989	20.0855	57.3315	-167.674	0.059498	0.061543	-0.642396	-0.643671	0.022206	20.0855	-0.643225	-3.269919E+8	-6.790939E-11	NaN
1051	1.000000	0.068854	7.37532e+06	-52689.1	1055.82	-29748.4	0.000000	0.000000	6.068768	0.021212	NaN	0.000000	0.001683	0.001722	28.0839	0.047957	0.001968	24.3629	-169.359	16.3232	0.048198	0.067484	-0.636360	-0.637730	0.021212	24.3629	-0.637013	-2.687223E+8	-7.893712E-11	NaN
1051	1.000000	0.074829	7.37532e+06	-52689.1	1055.82	-29748.4	0.000000	0.000000	6.074745	0.075646	NaN	0.000000	0.001674	0.001770	28.0837	0.094880	0.002053	46.2121	-111.676	-167.438	0.121741	0.073507	-0.630385	-0.631707	0.075646	46.2121	-0.631613	-2.265520E+8	-3.338994E-10	NaN
1051	1.000000	0.080833	7.37532e+06	-52689.1	1055.82	-29748.4	0.000000	0.000000	6.080746	-0.001002	NaN	0.000000	0.001677	0.001780	28.0837	0.049878	0.002064	24.1692	-178.84	18.9613	0.107069	0.079504	-0.624381	-0.625710	-0.001002	24.1692	-0.624350	-1.800593E+8	5.566204E-12	NaN
1051	1.000000	0.086873	7.37532e+06	-52689.1	1055.82	-29748.4	0.000000	0.000000	6.086786	-0.002313	NaN	0.000000	0.001654	0.001773	28.0838	0.088562	0.002041	43.3917	-87.8349	-167.423	-0.106017	0.085527	-0.618341	-0.619687	-0.002313	43.3917	-0.618301	-1.486906E+8	1.555418E-11	NaN
1051	1.000000	0.092844	7.37532e+06	-52689.1	1055.82	-29748.4	0.000000	0.000000	6.092757	-0.020515	NaN	0.000000	0.001642	0.001774	28.0827	0.123928	0.002024	61.2278	-47.223	16.4879	0.037185	0.091419	-0.612369	-0.613795	-0.020515	61.2278	-0.612118	-1.222514E+8	1.678069E-10	NaN
1051	1.000000	0.098849	7.37532e+06	-52689.1	1055.82	-29748.4	0.000000	0.000000	6.098764	0.049964	NaN	0.000000	0.001639	0.001764	28.0827	0.057161	0.002117	27.0014	99.4559	-165.737	0.030656	0.097569	-0.606365	-0.607644	0.049964	27.0014	-0.607753	-1.064622E+8	-4.693081E-10	NaN
1051	1.000000	0.104862	7.37532e+06	-52689.1	1055.82	-29748.4	0.000000	0.000000	6.104774	-0.028243	NaN	0.000000	0.001647	0.001764	28.0826	0.130136	0.002055	63.321	-171.054	13.2259	0.060383	0.103430	-0.600352	-0.601784	-0.028243	63.321	-0.600017	-8.331031E+7	3.390098E-10	NaN
1051	1.000000	0.110858	7.37532e+06	-52689.1	1055.82	-29748.4	0.000000	0.000000	6.110773	0.038477	NaN	0.000000	0.001667	0.001796	28.0825	0.019572	0.001947	10.0502	-177.154	-166.386	0.010012	0.109552	-0.594356	-0.595662	0.038477	10.0502	-0.597227	-7.625453E+7	-5.045928E-10	NaN
1051	1.000000	0.116860	7.37532e+06	-52689.1	1055.82	-29748.4	0.000000	0.000000	6.116773	-0.007550	NaN	0.000000	0.001697	0.001764	28.0826	0.148508	0.001881	78.9454	-60.9834	13.755	0.007246	0.115540	-0.588354	-0.589674	-0.007550	78.9454	-0.588282	-5.740957E+7	1.315155E-10	NaN
1051	1.000000	0.122835	7.37532e+06	-52689.1	1055.82	-29748.4	0.000000	0.000000	6.122751	0.054731	NaN	0.000000	0.001682	0.001787	28.0826	0.088758	0.002002	44.3285	155.952	-162.077	0.012899	0.121514	-0.582378	-0.583699	0.054731	44.3285	-0.583304	-4.901439E+7	-1.116625E-9	NaN
1051	1.000000	0.128863	7.37532e+06	-52689.1	1055.82	-29748.4	0.000000	0.000000	6.128778	0.043991	NaN	0.000000	0.001702	0.001778	28.0827	0.124312	0.002071	60.0281	-158.035	14.7379	0.101043	0.127530	-0.576351	-0.577684	0.043991	60.0281	-0.576901	-3.998916E+7	-1.100067E-9	NaN
1051	1.000000	0.134844	7.37532e+06	-52689.1	1055.82	-29748.4	0.000000	0.000000	6.134758	0.020962	NaN	0.000000	0.001642	0.001750	28.0825	0.066071	0.002085	31.6862	44.5729	-167.689	0.041586	0.133589	-0.570370	-0.571624	0.020962	31.6862	-0.570866	-3.300596E+7	-6.350856E-10	NaN
1051	1.000000	0.140837	7.37532e+06	-52689.1	1055.82	-29748.4	0.000000	0.000000	6.140753	0.072564	NaN	0.000000	0.001621	0.001738	28.083	0.037342	0.001796	20.795	-94.2279	15.7893	0.099159	0.139525	-0.564377	-0.565689	0.072564	20.795	-0.566995	-2.918080E+7	-2.486720E-9	NaN
1051	1.000000	0.146888	7.37532e+06	-52689.1	1055.82	-29748.4	0.000000	0.000000	6.146801	-0.001054	NaN	0.000000	0.001651	0.001757	28.0832	0.029673	0.001888	15.7143	73.7435	-164.946	0.064980	0.145589	-0.558326	-0.559625	-0.001054	15.7143	-0.558275	-2.210642E+7	4.768775E-11	NaN
1051	1.000000	0.152833	7.37532e+06	-52689.1	1055.82	-29748.4	0.000000	0.000000	6.152747	0.027753	NaN	0.000000	0.001675	0.001777	28.0828	0.153451	0.002051	74.8059	2.180605	14.3926	0.000704	0.151509	-0.552381	-0.553704	0.027753	74.8059	-0.552659	-1.848338E+7	-1.501516E-9	NaN
1051	1.000000	0.158874	7.37532e+06	-52689.1	1055.82	-29748.4	0.000000	0.000000	6.158787	0.006259	NaN	0.000000	0.001632	0.001761	28.0827	0.029624	0.002021	14.6591	-57.2665	-158.819	0.019179	0.157534	-0.546340	-0.547680	0.006259	14.6591	-0.546660	-1.526473E+7	-4.100491E-10	NaN
1051	1.000000	0.164872	7.37532e+06	-52689.1	1055.82	-29748.4	0.000000	0.000000	6.164788	0.044481	NaN	0.000000	0.001606	0.001708	28.0827	0.102985	0.001996	51.5878	-141.836	14.5556	0.085872	0.163519	-0.540341	-0.541695	0.044481	51.5878	-0.540988	-1.273680E+7	-3.492300E-9	NaN
1051	1.000000	0.170901	7.37532e+06	-52689.1	1055.82	-29748.4	0.000000	0.000000	6.170815	0.003676	NaN	0.000000	0.001635	0.001734	28.0826	0.102248	0.001909	53.5614	66.3391	-163.639	0.012555	0.169534	-0.534313	-0.535680	0.003676	53.5614	-0.534364	-1.030777E+7	-3.566578E-10	NaN
1051	1.000000	0.176900	7.37532e+06	-52689.1	1055.82	-29748.4	0.000000	0.000000	6.176814	0.030803	NaN	0.000000	0.001636	0.001695	28.0826	0.016859	0.002022	8.337219	-86.8801	16.0064	-0.058295	0.175496	-0.528314	-0.529718	0.030803	8.337219	-0.531085	-9.282e+06	-3.318591E-9	NaN
1051	1.000000	0.182900	7.37532e+06	-52689.1	1055.82	-29748.4	0.000000	0.000000	6.182813	0.004078	NaN	0.000000	0.001647	0.001710	28.0829	0.155633	0.001934	80.4668	-177.129	-162.026	0.061879	0.181581	-0.522314	-0.523633	0.004078	80.4668	-0.522352	-7.01945e+06	-5.809335E-10	NaN
1051	1.000000	0.188896	7.37532e+06	-52689.1	1055.82	-29748.4	0.000000	0.000000	6.188811	0.027314	NaN	0.000000	0.001669	0.001736	28.0827	0.046124	0.002043	22.5722	123.245	13.644	0.003591	0.187516	-0.516318	-0.517698	0.027314	22.5722	-0.517225	-5.9566e+06	-4.585551E-9	NaN
1051	1.000000	0.194895	7.37533e+06	-52689.1	1055.82	-29748.4	0.000000	0.000000	6.194809	0.017189	NaN	0.000000	0.001710	0.001747	28.0829	0.115547	0.001953	59.1642	-36.0957	-165.858	-0.059070	0.193570	-0.510319	-0.511644	0.017189	59.1642	-0.510537	-4.80723e+06	-3.575641E-9	NaN
1051	1.000000	0.200850	7.37533e+06	-52689.1	1055.82	-29748.4	0.000000	0.000000	6.200764	0.014810	NaN	0.000000	0.001690	0.001726	28.0828	0.041344	0.002061	20.0556	-93.0309	13.7568	0.031217	0.199492	-0.504364	-0.505721	0.014810	20.0556	-0.504918	-4.01422e+06	-3.689378E-9	NaN
1051	1.000000	0.206883	7.37533e+06	-52689.1	1055.82	-29748.4	0.000000	0.000000	6.206797	0.037178	NaN	0.000000	0.001665	0.001732	28.0827	0.016051	0.001963	8.177179	-136.754	-165.227	0.027841	0.205655	-0.498331	-0.499559	0.037178	8.177179	-0.501741	-3.62499e+06	-1.025605E-8	NaN
1051	1.000000	0.212870	7.37533e+06	-52689.1	1055.82	-29748.4	0.000000	0.000000	6.212785	0.042987	NaN	0.000000	0.001659	0.001735	28.0826	0.066324	0.002065	32.1229	-164.962	10.6256	0.013110	0.211574	-0.492344	-0.493640	0.042987	32.1229	-0.493348	-2.76796e+06	-1.553020E-8	NaN
1051	1.000000	0.218885	7.37533e+06	-52689.1	1055.82	-29748.4	0.000000	0.000000	6.218797	-0.026558	NaN	0.000000	0.001657	0.001736	28.0828	0.078030	0.001967	39.6728	142.177	-164.729	-0.037117	0.217574	-0.486329	-0.487640	-0.026558	39.6728	-0.485827	-2.17297e+06	1.222219E-8	NaN
1051	1.000000	0.224934	7.37533e+06	-52689.1	1055.82	-29748.4	0.000000	0.000000	6.224847	-0.001906	NaN	0.000000	0.001667	0.001732	28.0831	0.059759	0.002039	29.3034	64.7276	20.0276	-0.008308	0.223534	-0.480280	-0.481680	-0.001906	29.3034	-0.480231	-1.81453e+06	1.050676E-9	NaN
1051	1.000000	0.230920	7.37533e+06	-52689.1	1055.82	-29748.4	0.000000	0.000000	6.230836	0.048630	NaN	0.000000	0.001680	0.001757	28.0839	0.049463	0.002099	23.5648	39.2845	-167.788	0.061923	0.229580	-0.474294	-0.475634	0.048630	23.5648	-0.475841	-1.57502e+06	-3.087548E-8	NaN
1051	1.000000	0.236900	7.37533e+06	-52689.1	1055.82	-29748.4	0.000000	0.000000	6.236814	0.018356	NaN	0.000000	0.001667	0.001741	28.0842	0.114559	0.002012	56.9257	-108.237	11.945	0.046541	0.235500	-0.468314	-0.469713	0.018356	56.9257	-0.468556	-1.24495e+06	-1.474459E-8	NaN
1051	1.000000	0.242906	7.37533e+06	-52689.1	1055.82	-29748.4	0.000000	0.000000	6.242819	-0.004504	NaN	0.000000	0.001732	0.001691	28.0842	0.135932	0.001909	71.189	-137.69	-162.371	-0.001186	0.241633	-0.462308	-0.463581	-0.004504	71.189	-0.462261	-1.01573e+06	4.433999E-9	NaN
1051	1.000000	0.248910	7.37533e+06	-52689.1	1055.82	-29748.4	0.000000	0.000000	6.248821	-0.040197	NaN	0.000000	0.001707	0.001713	28.0841	0.087865	0.001981	44.3632	-156.418	16.3615	-0.020347	0.247566	-0.456304	-0.457648	-0.040197	44.3632	-0.455625	-819419	4.905555E-8	NaN
1051	1.000000	0.254908	7.37533e+06	-52689.1	1055.82	-29748.4	0.000000	0.000000	6.254822	0.009678	NaN	0.000000	0.001718	0.001733	28.084	0.084017	0.001971	42.6353	-57.4603	-161.617	0.034995	0.253587	-0.450306	-0.451627	0.009678	42.6353	-0.450476	-693499	-1.395567E-8	NaN
1051	1.000000	0.260924	7.37533e+06	-52689.1	1055.82	-29748.4	0.000000	0.000000	6.260841	0.088624	NaN	0.000000	0.001724	0.001690	28.0839	0.095910	0.001978	48.5006	33.4735	14.3534	0.052991	0.259573	-0.444290	-0.445641	0.088624	48.5006	-0.445661	-593205	-1.493992E-7	NaN
1051	1.000000	0.266921	7.37533e+06	-52689.1	1055.82	-29748.4	0.000000	0.000000	6.266832	-0.055016	NaN	0.000000	0.001727	0.001693	28.0839	0.042674	0.002122	20.1138	78.2589	-162.488	-0.016331	0.265670	-0.438293	-0.439544	-0.055016	20.1138	-0.436241	-436810	1.259498E-7	NaN
1051	1.000000	0.272920	7.37533e+06	-52689.1	1055.82	-29748.4	0.000000	0.000000	6.272832	-0.041748	NaN	0.000000	0.001712	0.001703	28.084	0.054734	0.002188	25.0174	-72.2952	15.6	-0.072116	0.271555	-0.432294	-0.433658	-0.041748	25.0174	-0.431042	-368811	1.131965E-7	NaN
1051	1.000000	0.278917	7.37533e+06	-52689.1	1055.82	-29748.4	0.000000	0.000000	6.278829	-0.036248	NaN	0.000000	0.001707	0.001717	28.084	0.041479	0.002052	20.2159	50.1129	-166.862	-0.029044	0.277701	-0.426297	-0.427513	-0.036248	20.2159	-0.424952	-302412	1.198622E-7	NaN
1051	1.000000	0.284945	7.37533e+06	-52689.1	1055.82	-29748.4	0.000000	0.000000	6.284855	-0.061767	NaN	0.000000	0.001723	0.001775	28.0837	0.089614	0.001837	48.792	178.215	15.0573	-0.083648	0.283590	-0.420269	-0.421624	-0.061767	48.792	-0.419320	-251632	2.454661E-7	NaN
1051	1.000000	0.290944	7.37533e+06	-52689.1	1055.82	-29748.4	0.000000	0.000000	6.290857	-0.006521	NaN	0.000000	0.001700	0.001718	28.0842	0.037686	0.001876	20.0834	148.168	-165.409	0.006729	0.289592	-0.414270	-0.415622	-0.006521	20.0834	-0.414026	-211653	3.080866E-8	NaN
1051	1.000000	0.296971	7.37533e+06	-52689.1	1055.82	-29748.4	0.000000	0.000000	6.296884	0.001816	NaN	0.000000	0.001733	0.001719	28.0839	0.077089	0.002020	38.1557	93.8235	14.809	0.000469	0.295552	-0.408243	-0.409662	0.001816	38.1557	-0.408278	-175353	-1.035697E-8	NaN
1051	1.000000	0.302921	7.37533e+06	-52689.1	1055.82	-29748.4	0.000000	0.000000	6.302833	-0.027545	NaN	0.000000	0.001685	0.001712	28.0838	0.151998	0.002120	71.6839	-28.9283	-167.739	-0.067633	0.301641	-0.402292	-0.403573	-0.027545	71.6839	-0.402004	-142748	1.929610E-7	NaN
1051	1.000000	0.308931	7.37533e+06	-52689.1	1055.82	-29748.4	0.000000	0.000000	6.308844	-0.001465	NaN	0.000000	0.001727	0.001749	28.0838	0.096051	0.002074	46.3186	-111.367	15.8452	-0.038040	0.307575	-0.396283	-0.397639	-0.001465	46.3186	-0.396259	-118199	1.239231E-8	NaN
1051	1.000000	0.314954	7.37533e+06	-52689.1	1055.82	-29748.4	0.000000	0.000000	6.314866	-0.036981	NaN	0.000000	0.001673	0.001703	28.0839	0.121399	0.002038	59.5733	25.2122	-164.732	-0.128665	0.313621	-0.390260	-0.391593	-0.036981	59.5733	-0.389794	-95548	3.870436E-7	NaN
1051	1.000000	0.320972	7.37533e+06	-52689.1	1055.82	-29748.4	0.000000	0.000000	6.320887	0.027567	NaN	0.000000	0.001617	0.001737	28.0838	0.027217	0.001928	14.1158	-166.534	18.922	-0.004077	0.319611	-0.384241	-0.385603	0.027567	14.1158	-0.385706	-83503.1	-3.301365E-7	NaN
1051	1.000000	0.326967	7.37533e+06	-52689.1	1055.82	-29748.4	0.000000	0.000000	6.326878	-0.053706	NaN	0.000000	0.001632	0.001731	28.0837	0.063690	0.001947	32.7061	29.7833	-160.568	-0.079762	0.325637	-0.378247	-0.379577	-0.053706	32.7061	-0.377015	-62665.7	8.570175E-7	NaN
1051	1.000000	0.332961	7.37533e+06	-52689.1	1055.82	-29748.4	0.000000	0.000000	6.332875	0.007870	NaN	0.000000	0.001667	0.001754	28.0845	0.062846	0.001968	31.9353	-101.94	19.6383	-0.029041	0.331556	-0.372252	-0.373658	0.007870	31.9353	-0.372437	-53853.2	-1.461388E-7	NaN
1051	1.000000	0.338966	7.37533e+06	-52689.1	1055.82	-29748.4	0.000000	0.000000	6.338880	0.013893	NaN	0.000000	0.001628	0.001750	28.084	0.003050	0.002104	1.449748	93.2833	-162.518	0.061057	0.337639	-0.366247	-0.367575	0.013893	1.449748	-0.373435	-55662.2	-2.495914E-7	NaN
1051	1.000000	0.344937	7.37533e+06	-52689.1	1055.82	-29748.4	0.000000	0.000000	6.344849	-0.038346	NaN	0.000000	0.001650	0.001730	28.0841	0.143330	0.002127	67.4015	72.4831	14.7614	0.015742	0.343611	-0.360277	-0.361603	-0.038346	67.4015	-0.359850	-35455.3	1.081540E-6	NaN
1051	1.000000	0.350948	7.37533e+06	-52689.1	1055.82	-29748.4	0.000000	0.000000	6.350861	0.007069	NaN	0.000000	0.001662	0.001754	28.084	0.077365	0.002014	38.4153	-172.451	-165.388	0.004434	0.349692	-0.354266	-0.355521	0.007069	38.4153	-0.354404	-29570.9	-2.390436E-7	NaN
1051	1.000000	0.356987	7.37533e+06	-52689.1	1055.82	-29748.4	0.000000	0.000000	6.356899	-0.029912	NaN	0.000000	0.001640	0.001712	28.0839	0.038709	0.002099	18.4429	-37.7936	12.6846	-0.018578	0.355617	-0.348227	-0.349597	-0.029912	18.4429	-0.347011	-23098.6	1.294952E-6	NaN
1051	1.000000	0.362964	7.37533e+06	-52689.1	1055.82	-29748.4	0.000000	0.000000	6.362875	-0.057134	NaN	0.000000	0.001636	0.001735	28.0837	0.052109	0.002188	23.8193	65.3035	-166.355	-0.041090	0.361655	-0.342250	-0.343558	-0.057134	23.8193	-0.340451	-18540.9	3.081533E-6	NaN
1051	1.000000	0.368957	7.37533e+06	-52689.1	1055.82	-29748.4	0.000000	0.000000	6.368870	0.002351	NaN	0.000000	0.001651	0.001733	28.0824	0.068108	0.002038	33.4247	81.1527	15.7526	-0.021767	0.367631	-0.336257	-0.337583	0.002351	33.4247	-0.336310	-16133.2	-1.457205E-7	NaN
1051	1.000000	0.374953	7.37533e+06	-52689.1	1055.82	-29748.4	0.000000	0.000000	6.374866	-0.010267	NaN	0.000000	0.001637	0.001714	28.0842	0.071079	0.001972	36.0423	39.2035	-165.011	-0.017218	0.373653	-0.330261	-0.331561	-0.010267	36.0423	-0.330047	-13066.1	7.857842E-7	NaN
1051	1.000000	0.380970	7.37533e+06	-52689.1	1055.82	-29748.4	0.000000	0.000000	6.380884	0.020242	NaN	0.000000	0.001645	0.001725	28.0825	0.015545	0.002039	7.624710	99.8632	15.5996	0.091545	0.379606	-0.324244	-0.325608	0.020242	7.624710	-0.326235	-11488.3	-1.761955E-6	NaN
1051	1.000000	0.386989	7.37533e+06	-52689.1	1055.82	-29748.4	0.000000	0.000000	6.386904	0.058016	NaN	0.000000	0.001633	0.001749	28.0827	0.069309	0.002034	34.0817	-46.1382	-163.838	0.062923	0.385652	-0.318225	-0.319562	0.058016	34.0817	-0.319502	-9147.53	-6.342238E-6	NaN
1051	1.000000	0.392968	7.37533e+06	-52689.1	1055.82	-29748.4	0.000000	0.000000	6.392884	0.083133	NaN	0.000000	0.001587	0.001717	28.0828	0.035683	0.001952	18.2832	-47.4455	13.2554	0.104345	0.391605	-0.312246	-0.313609	0.083133	18.2832	-0.315656	-8028.42	-1.035479E-5	NaN
1051	1.000000	0.398988	7.37533e+06	-52689.1	1055.82	-29748.4	0.000000	0.000000	6.398899	-0.040623	NaN	0.000000	0.001627	0.001707	28.0827	0.061877	0.002011	30.7727	-141.795	-163.874	0.027965	0.397697	-0.306226	-0.307516	-0.040623	30.7727	-0.305236	-5629.37	7.216228E-6	NaN
1051	1.000000	0.404977	7.37533e+06	-52689.1	1055.82	-29748.4	0.000000	0.000000	6.404894	0.074614	NaN	0.000000	0.001641	0.001726	28.0827	0.108011	0.001960	55.1166	15.7158	14.1406	0.113912	0.403609	-0.300236	-0.301605	0.074614	55.1166	-0.301252	-4912.05	-1.519001E-5	NaN
1051	1.000000	0.411001	7.37533e+06	-52689.1	1055.82	-29748.4	0.000000	0.000000	6.410914	-0.004359	NaN	0.000000	0.001629	0.001735	28.0827	0.057940	0.001960	29.5639	-44.5584	-163.436	-0.138932	0.409668	-0.294213	-0.295545	-0.004359	29.5639	-0.294102	-3843.09	1.134235E-6	NaN
1051	1.000000	0.416990	7.37533e+06	-52689.1	1055.82	-29748.4	0.000000	0.000000	6.416903	-0.009518	NaN	0.000000	0.001637	0.001741	28.0827	0.132770	0.001955	67.928	-123.582	12.6245	-0.046416	0.415639	-0.288223	-0.289575	-0.009518	67.928	-0.288118	-3126.75	3.043938E-6	NaN
1051	1.000000	0.422975	7.37533e+06	-52689.1	1055.82	-29748.4	0.000000	0.000000	6.422886	-0.057563	NaN	0.000000	0.001617	0.001731	28.0825	0.047014	0.002076	22.6478	-98.8042	-166.439	0.030769	0.421689	-0.282239	-0.283525	-0.057563	22.6478	-0.280333	-2387.74	2.410765E-5	NaN
1051	1.000000	0.428993	7.37533e+06	-52689.1	1055.82	-29748.4	0.000000	0.000000	6.428907	0.025008	NaN	0.000000	0.001604	0.001724	28.0829	0.036639	0.002156	16.995	40.006	15.2489	-0.026069	0.427620	-0.276221	-0.277594	0.025008	16.995	-0.277325	-2150.64	-1.162828E-5	NaN
1051	1.000000	0.435000	7.37533e+06	-52689.1	1055.82	-29748.4	0.000000	0.000000	6.434913	-0.019454	NaN	0.000000	0.001603	0.001741	28.0827	0.037467	0.002083	17.9877	33.3694	-164.749	0.071755	0.433679	-0.270213	-0.271535	-0.019454	17.9877	-0.269402	-1631.01	1.192757E-5	NaN
1051	1.000000	0.440997	7.37533e+06	-52689.1	1055.82	-29748.4	0.000000	0.000000	6.440909	-0.042614	NaN	0.000000	0.001611	0.001751	28.0827	0.033412	0.002083	16.0442	-132.56	13.0961	-0.014438	0.439620	-0.264217	-0.265594	-0.042614	16.0442	-0.262225	-1267.59	3.361843E-5	NaN
1051	1.000000	0.446987	7.37533e+06	-52689.1	1055.82	-29748.4	0.000000	0.000000	6.446903	0.050550	NaN	0.000000	0.001637	0.001740	28.0827	0.094329	0.001985	47.5293	-124.598	-163.428	0.009997	0.445657	-0.258226	-0.259557	0.050550	47.5293	-0.259024	-1132.28	-4.464406E-5	NaN
1051	1.000000	0.452989	7.37533e+06	-52689.1	1055.82	-29748.4	0.000000	0.000000	6.452902	0.010861	NaN	0.000000	0.001617	0.001722	28.0826	0.041462	0.002034	20.3805	3.889225	14.3016	0.107433	0.451630	-0.252225	-0.253584	0.010861	20.3805	-0.252625	-902.635	-1.203226E-5	NaN
1051	1.000000	0.458983	7.37533e+06	-52689.1	1055.82	-29748.4	0.000000	0.000000	6.458895	-0.012734	NaN	0.000000	0.001655	0.001752	28.0828	0.047048	0.002046	22.9898	-25.6134	-164.012	-0.004022	0.457685	-0.246231	-0.247529	-0.012734	22.9898	-0.245816	-708.151	1.798259E-5	NaN
1051	1.000000	0.465004	7.37533e+06	-52689.1	1055.82	-29748.4	0.000000	0.000000	6.464919	0.051411	NaN	0.000000	0.001663	0.001689	28.0827	0.025695	0.002107	12.1926	146.242	14.055	-0.013558	0.463546	-0.240210	-0.241668	0.051411	12.1926	-0.243372	-648.838	-7.923513E-5	NaN
1051	1.000000	0.471006	7.37533e+06	-52689.1	1055.82	-29748.4	0.000000	0.000000	6.470920	0.029778	NaN	0.000000	0.001701	0.001759	28.083	0.076966	0.002070	37.1765	67.898	-167.146	0.042511	0.469702	-0.234208	-0.235512	0.029778	37.1765	-0.234809	-476.699	-6.246768E-5	NaN
1051	1.000000	0.476984	7.37533e+06	-52689.1	1055.82	-29748.4	0.000000	0.000000	6.476895	-0.053708	NaN	0.000000	0.001749	0.001698	28.083	0.122124	0.002113	57.7832	172.635	15.0788	-0.060911	0.475671	-0.228230	-0.229543	-0.053708	57.7832	-0.227533	-366.016	0.000147	NaN
1051	1.000000	0.483030	7.37533e+06	-52689.1	1055.82	-29748.4	0.000000	0.000000	6.482945	0.030163	NaN	0.000000	0.001707	0.001718	28.083	0.061117	0.001950	31.3352	-14.8793	-164.817	-0.007233	0.481724	-0.222183	-0.223489	0.030163	31.3352	-0.222905	-309.046	-9.760147E-5	NaN
1051	1.000000	0.488997	7.37533e+06	-52689.1	1055.82	-29748.4	0.000000	0.000000	6.488910	0.006063	NaN	0.000000	0.001717	0.001703	28.0828	0.025538	0.001970	12.9618	25.6216	15.2786	-0.019684	0.487633	-0.216217	-0.217581	0.006063	12.9618	-0.216568	-244.742	-2.477188E-5	NaN
1051	1.000000	0.495023	7.37533e+06	-52689.1	1055.82	-29748.4	0.000000	0.000000	6.494936	0.010576	NaN	0.000000	0.001715	0.001732	28.0829	0.085697	0.001964	43.6325	35.1089	-162.649	-0.042156	0.493772	-0.210191	-0.211442	0.010576	43.6325	-0.210373	-194.472	-5.438537E-5	NaN
1051	1.000000	0.501012	7.37533e+06	-52689.1	1055.82	-29748.4	0.000000	0.000000	6.500925	0.005970	NaN	0.000000	0.001691	0.001738	28.0833	0.010138	0.002140	4.738442	118.528	16.6176	-0.004553	0.499716	-0.204202	-0.205498	0.005970	4.738442	-0.205147	-159.94	-3.732422E-5	NaN
1051	1.000000	0.507048	7.37533e+06	-52689.1	1055.82	-29748.4	0.000000	0.000000	6.506963	0.043148	NaN	0.000000	0.001673	0.001737	28.0839	0.140941	0.002134	66.0432	151.6	-164.367	0.107368	0.505736	-0.198165	-0.199478	0.043148	66.0432	-0.198655	-125.193	-0.000345	NaN
1051	1.000000	0.513009	7.37533e+06	-52689.1	1055.82	-29748.4	0.000000	0.000000	6.512921	-0.014810	NaN	0.000000	0.001612	0.001751	28.0841	0.099906	0.002059	48.5331	94.7691	14.7651	-0.014818	0.511669	-0.192205	-0.193544	-0.014810	48.5331	-0.191976	-97.0483	0.000153	NaN
1051	1.000000	0.519034	7.37533e+06	-52689.1	1055.82	-29748.4	0.000000	0.000000	6.518947	-0.007011	NaN	0.000000	0.001615	0.001742	28.0843	0.027796	0.002190	12.6942	-85.1829	-166.417	-0.034854	0.517660	-0.186180	-0.187554	-0.007011	12.6942	-0.185766	-76.3897	9.177967E-5	NaN
1051	1.000000	0.525031	7.37533e+06	-52689.1	1055.82	-29748.4	0.000000	0.000000	6.524942	-0.042435	NaN	0.000000	0.001635	0.001757	28.0845	0.078914	0.001839	42.8999	131.968	17.4113	-0.082059	0.523675	-0.180183	-0.181538	-0.042435	42.8999	-0.179441	-59.697	0.000711	NaN
1051	1.000000	0.531012	7.37533e+06	-52689.1	1055.82	-29748.4	0.000000	0.000000	6.530925	0.004482	NaN	0.000000	0.001613	0.001724	28.0841	0.066053	0.001985	33.2813	-123.629	-169.655	0.017711	0.529764	-0.174202	-0.175450	0.004482	33.2813	-0.174303	-48.7526	-9.194190E-5	NaN
1051	1.000000	0.537058	7.37533e+06	-52689.1	1055.82	-29748.4	0.000000	0.000000	6.536973	0.037398	NaN	0.000000	0.001629	0.001759	28.0842	0.077522	0.001977	39.2161	39.984	15.958	0.033657	0.535662	-0.168155	-0.169552	0.037398	39.2161	-0.168871	-39.2626	-0.000953	NaN
1051	1.000000	0.543028	7.37533e+06	-52689.1	1055.82	-29748.4	0.000000	0.000000	6.542942	0.041733	NaN	0.000000	0.001586	0.001732	28.0843	0.133288	0.002093	63.6787	-68.0176	-164.536	0.022893	0.541729	-0.162186	-0.163485	0.041733	63.6787	-0.162678	-30.5786	-0.001365	NaN
1051	1.000000	0.549049	7.37533e+06	-52689.1	1055.82	-29748.4	0.000000	0.000000	6.548964	0.040758	NaN	0.000000	0.001558	0.001741	28.0842	0.027884	0.002191	12.7265	89.5176	15.9948	0.055107	0.547664	-0.156164	-0.157549	0.040758	12.7265	-0.158566	-25.8503	-0.001577	NaN
1051	1.000000	0.555070	7.37533e+06	-52689.1	1055.82	-29748.4	0.000000	0.000000	6.554985	0.065267	NaN	0.000000	0.001613	0.001733	28.0844	0.108975	0.002048	53.222	46.2948	-160.214	0.045916	0.553742	-0.150144	-0.151472	0.065267	53.222	-0.151064	-18.9401	-0.003446	NaN
1051	1.000000	0.561037	7.37533e+06	-52689.1	1055.82	-29748.4	0.000000	0.000000	6.560948	-0.050523	NaN	0.000000	0.001619	0.001708	28.0843	0.103193	0.001990	51.8471	-88.4832	13.6105	-0.035565	0.559662	-0.144177	-0.145551	-0.050523	51.8471	-0.143446	-13.7201	0.003682	NaN
1051	1.000000	0.567036	7.37533e+06	-52689.1	1055.82	-29748.4	0.000000	0.000000	6.566947	-0.055832	NaN	0.000000	0.001602	0.001728	28.0843	0.058346	0.001943	30.0237	65.2037	-164.741	-0.070759	0.565730	-0.138178	-0.139484	-0.055832	30.0237	-0.136784	-10.2858	0.005428	NaN
1051	1.000000	0.573061	7.37533e+06	-52689.1	1055.82	-29748.4	0.000000	0.000000	6.572976	0.034660	NaN	0.000000	0.001613	0.001747	28.0841	0.028125	0.001970	14.2756	133.857	16.6643	0.053200	0.571706	-0.132153	-0.133508	0.034660	14.2756	-0.133973	-9.091966	-0.003812	NaN
1051	1.000000	0.579029	7.37533e+06	-52689.1	1055.82	-29748.4	0.000000	0.000000	6.578940	-0.032325	NaN	0.000000	0.001630	0.001711	28.0841	0.138177	0.001979	69.8121	110.7	-166.513	-0.010880	0.577727	-0.126185	-0.127487	-0.032325	69.8121	-0.125838	-6.317576	0.005117	NaN
1051	1.000000	0.585081	7.37533e+06	-52689.1	1055.82	-29748.4	0.000000	0.000000	6.584993	-0.028729	NaN	0.000000	0.001595	0.001727	28.0843	0.026691	0.001993	13.3936	-8.660639	13.3365	0.008073	0.583702	-0.120133	-0.121512	-0.028729	13.3936	-0.118525	-4.510398	0.006369	NaN
1051	1.000000	0.591072	7.37533e+06	-52689.1	1055.82	-29748.4	0.000000	0.000000	6.590986	0.013386	NaN	0.000000	0.001627	0.001706	28.0842	0.027793	0.002098	13.2458	-84.514	-167.435	0.042692	0.589775	-0.114142	-0.115439	0.013386	13.2458	-0.114899	-3.802185	-0.003520	NaN
1051	1.000000	0.597065	7.37533e+06	-52689.1	1055.82	-29748.4	0.000000	0.000000	6.596980	0.040046	NaN	0.000000	0.001558	0.001741	28.0841	0.085281	0.002069	41.2195	-178.75	16.3165	0.090139	0.595675	-0.108149	-0.109539	0.040046	41.2195	-0.108878	-2.845405	-0.014074	NaN
1051	1.000000	0.603060	7.37533e+06	-52689.1	1055.82	-29748.4	0.000000	0.000000	6.602975	0.032329	NaN	0.000000	0.001585	0.001703	28.0844	0.104806	0.001823	57.4773	-116.23	-165.776	0.069266	0.601771	-0.102153	-0.103443	0.032329	57.4773	-0.102575	-2.081964	-0.015528	NaN
1051	1.000000	0.609079	7.37533e+06	-52689.1	1055.82	-29748.4	0.000000	0.000000	6.608994	0.056219	NaN	0.000000	0.001573	0.001708	28.0843	0.008006	0.002025	3.953624	161.998	11.7867	-0.006883	0.607637	-0.096135	-0.097577	0.056219	3.953624	-0.106800	-2.569673	-0.021878	NaN
1051	1.000000	0.615068	7.37533e+06	-52689.1	1055.82	-29748.4	0.000000	0.000000	6.614979	-0.052962	NaN	0.000000	0.001587	0.001752	28.0841	0.039050	0.002023	19.2987	-90.7948	-165.02	-0.015385	0.613747	-0.090146	-0.091467	-0.052962	19.2987	-0.088088	-0.974292	0.054360	NaN
1051	1.000000	0.621069	7.37533e+06	-52689.1	1055.82	-29748.4	0.000000	0.000000	6.620982	0.008819	NaN	0.000000	0.001597	0.001732	28.0844	0.068833	0.001960	35.1245	-155.704	15.2745	0.030712	0.619730	-0.084145	-0.085484	0.008819	35.1245	-0.084333	-0.791612	-0.011140	NaN
1051	1.000000	0.627074	7.37533e+06	-52689.1	1055.82	-29748.4	0.000000	0.000000	6.626989	0.039456	NaN	0.000000	0.001593	0.001736	28.0839	0.089583	0.001989	45.0335	-164.266	-168.278	0.081179	0.625770	-0.078140	-0.079444	0.039456	45.0335	-0.078797	-0.577396	-0.068334	NaN
1051	1.000000	0.633075	7.37533e+06	-52689.1	1055.82	-29748.4	0.000000	0.000000	6.632988	-0.006899	NaN	0.000000	0.001613	0.001758	28.0839	0.049447	0.001972	25.0799	-58.3899	13.2432	0.060009	0.631709	-0.072139	-0.073505	-0.006899	25.0799	-0.071932	-0.383976	0.017968	NaN
1051	1.000000	0.639097	7.37533e+06	-52689.1	1055.82	-29748.4	0.000000	0.000000	6.639012	0.058173	NaN	0.000000	0.001613	0.001710	28.083	0.064823	0.002060	31.4669	-142.237	-161.805	0.023029	0.637794	-0.066117	-0.067420	0.058173	31.4669	-0.067504	-0.292035	-0.199198	NaN
1051	1.000000	0.645091	7.37533e+06	-52689.1	1055.82	-29748.4	0.000000	0.000000	6.645008	0.092130	NaN	0.000000	0.001610	0.001752	28.083	0.038107	0.001992	19.1334	-160.496	13.1314	0.043330	0.643748	-0.060123	-0.061466	0.092130	19.1334	-0.063734	-0.229778	-0.400952	NaN
1051	1.000000	0.651064	7.37533e+06	-52689.1	1055.82	-29748.4	0.000000	0.000000	6.650980	0.081249	NaN	0.000000	0.001631	0.001760	28.083	0.070913	0.002157	32.8789	143.596	-165.301	0.081359	0.649808	-0.054150	-0.055406	0.081249	32.8789	-0.056004	-0.137856	-0.589377	NaN
1051	1.000000	0.657066	7.37533e+06	-52689.1	1055.82	-29748.4	0.000000	0.000000	6.656977	-0.049753	NaN	0.000000	0.001635	0.001750	28.0829	0.093469	0.001992	46.9326	47.8615	15.1883	-0.007625	0.655762	-0.048148	-0.049452	-0.049753	46.9326	-0.047353	-0.075830	0.656110	NaN
1051	1.000000	0.663106	7.37533e+06	-52689.1	1055.82	-29748.4	0.000000	0.000000	6.663019	0.009396	NaN	0.000000	0.001651	0.001766	28.0832	0.035305	0.001935	18.2464	-13.8894	-164.285	0.007474	0.661754	-0.042108	-0.043460	0.009396	18.2464	-0.042494	-0.053874	-0.174411	NaN
1051	1.000000	0.669057	7.37533e+06	-52689.1	1055.82	-29748.4	0.000000	0.000000	6.668972	0.041901	NaN	0.000000	0.001709	0.001745	28.0829	0.042074	0.001984	21.2114	106.472	14.4873	0.039015	0.667732	-0.036157	-0.037482	0.041901	21.2114	-0.037638	-0.038370	-1.092028	NaN
1051	1.000000	0.675116	7.37533e+06	-52689.1	1055.82	-29748.4	0.000000	0.000000	6.675031	0.058113	NaN	0.000000	0.001684	0.001757	28.0829	0.101564	0.002077	48.9038	-21.7477	-164.128	0.016844	0.673739	-0.030098	-0.031475	0.058113	48.9038	-0.030989	-0.024531	-2.368935	NaN
1051	1.000000	0.681110	7.37533e+06	-52689.1	1055.82	-29748.4	0.000000	0.000000	6.681036	0.322515	NaN	0.000000	0.001683	0.001710	28.0831	0.264004	0.002017	130.897	16.3878	11.3277	0.248075	0.679744	-0.024104	-0.025470	0.322515	130.897	-0.025952	-0.017870	-18.0477	NaN
1051	1.000000	0.687100	7.37533e+06	-52689.1	1055.82	-29748.4	0.000000	0.000000	6.687033	0.483365	NaN	0.000000	0.001695	0.001758	28.0829	0.356239	0.001961	181.623	28.8235	-164.177	0.465324	0.685802	-0.018114	-0.019412	0.483365	181.623	-0.020110	-0.012642	-38.2343	NaN
1051	1.000000	0.693122	7.37533e+06	-52689.1	1055.82	-29748.4	0.000000	0.000000	6.693069	0.819259	NaN	0.000000	0.001706	0.001760	28.0829	0.568522	0.001975	287.864	22.4389	15.0841	0.807920	0.691743	-0.012092	-0.013470	0.819259	287.864	-0.014227	-0.008816	-92.9242	NaN
1051	1.000000	0.699085	7.37533e+06	-52689.1	1055.82	-29748.4	0.000000	0.000000	6.699060	1.503839	NaN	0.000000	0.001664	0.001808	28.083	1.319583	0.002077	635.453	27.5389	-167.09	1.319654	0.697805	-0.006129	-0.007409	1.503839	635.453	-0.007904	-0.005175	-290.579	NaN
1051	1.000000	0.705116	7.37533e+06	-52689.1	1055.82	-29748.4	0.000000	0.000000	6.705142	2.739333	NaN	0.000000	0.001730	0.001792	28.083	2.079232	0.001945	1069.15	15.382	14.2548	2.270988	0.703712	-9.782804E-5	-0.001501	2.739333	1069.15	-0.002019	-0.001453	-1885.54	NaN
1051	1.000000	0.711083	7.37533e+06	-52689.1	1055.82	-29748.4	0.000000	0.000000	6.711202	5.010165	NaN	0.000000	0.001694	0.001799	28.0828	2.867168	0.001939	1478.7	20.1317	-170.651	4.573307	0.709738	0.005869	0.004524	5.010165	1478.7	0.003327	0.002657	1885.34	26207.3
1051	1.000000	0.717106	7.37533e+06	-52689.1	1055.82	-29748.4	0.000000	0.000000	6.717314	7.165965	NaN	0.000000	0.001687	0.001805	28.0827	3.781694	0.001782	2122.41	14.9853	8.880644	6.480941	0.715723	0.011892	0.010509	7.165965	2122.41	0.009360	0.008479	845.138	21058.6
1051	2.000000	0.721667	7.37533e+06	-52689.1	1055.82	-29748.4	0.000000	0.000000	6.721926	8.415800	NaN	0.000000	0.001624	0.001792	28.083	4.258418	0.001823	2336.42	11.8852	-169.264	8.421964	0.721270	0.016453	0.016056	8.415800	2336.42	0.013751	0.013656	616.27	18266.8
1051	2.000000	0.723173	7.37533e+06	-52689.1	1055.82	-29748.4	0.000000	0.000000	6.723435	8.487758	NaN	0.000000	0.001621	0.001796	28.0827	4.090158	0.001866	2191.84	10.1686	12.432	8.539654	0.722824	0.017959	0.017610	8.487758	2191.84	0.015055	0.015359	552.634	16158.7
1051	2.000000	0.724632	7.37533e+06	-52689.1	1055.82	-29748.4	0.000000	0.000000	6.724920	9.115641	NaN	0.000000	0.001640	0.001810	28.0826	4.579948	0.001928	2375.72	7.877306	-169.164	8.863432	0.724327	0.019418	0.019113	9.115641	2375.72	0.016540	0.017394	524.058	16457.5
1051	2.000000	0.726116	7.37533e+06	-52689.1	1055.82	-29748.4	0.000000	0.000000	6.726435	9.862679	NaN	0.000000	0.001603	0.001833	28.0832	4.669245	0.001906	2450.31	10.5295	12.0415	9.686762	0.725779	0.020903	0.020565	9.862679	2450.31	0.017884	0.019325	510.348	16103.8
1051	2.000000	0.727651	7.37533e+06	-52689.1	1055.82	-29748.4	0.000000	0.000000	6.727966	9.776902	NaN	0.000000	0.001636	0.001792	28.0835	4.855117	0.001870	2596.91	2.849343	-165.434	9.941214	0.727301	0.022437	0.022087	9.776902	2596.91	0.019613	0.021938	445.664	16018.9
1051	2.000000	0.729089	7.37533e+06	-52689.1	1055.82	-29748.4	0.000000	0.000000	6.729432	10.4593	NaN	0.000000	0.001631	0.001772	28.0828	4.955108	0.001933	2563.04	9.028615	12.1584	10.3747	0.728743	0.023875	0.023529	10.4593	2563.04	0.020814	0.023838	438.766	15166.8
1051	2.000000	0.730595	7.37533e+06	-52689.1	1055.82	-29748.4	0.000000	0.000000	6.730945	10.6132	NaN	0.000000	0.001629	0.001787	28.0831	5.259957	0.001894	2777.58	9.662387	-169.629	10.7733	0.730324	0.025381	0.025110	10.6132	2777.58	0.022516	0.026651	398.234	15544.8
1051	2.000000	0.732097	7.37533e+06	-52689.1	1055.82	-29748.4	0.000000	0.000000	6.732470	11.1827	NaN	0.000000	0.001602	0.001782	28.083	5.284128	0.002006	2633.76	8.936483	12.1876	10.9663	0.731745	0.026883	0.026531	11.1827	2633.76	0.023699	0.028690	389.772	14206.3
1051	2.000000	0.733587	7.37533e+06	-52689.1	1055.82	-29748.4	0.000000	0.000000	6.733993	11.9772	NaN	0.000000	0.001620	0.001812	28.0829	5.426420	0.001916	2831.94	6.268067	-168.043	11.9475	0.733237	0.028373	0.028023	11.9772	2831.94	0.025201	0.031382	381.653	14605.4
1051	2.000000	0.735068	7.37533e+06	-52689.1	1055.82	-29748.4	0.000000	0.000000	6.735496	12.5081	NaN	0.000000	0.001596	0.001793	28.0842	5.471936	0.001966	2783.15	7.762305	11.2071	12.4222	0.734746	0.029854	0.029532	12.5081	2783.15	0.026484	0.033770	370.389	13837
1051	2.000000	0.736555	7.37533e+06	-52689.1	1055.82	-29748.4	0.000000	0.000000	6.737013	13.2504	NaN	0.000000	0.001618	0.001801	28.0841	5.405147	0.001943	2781.44	7.473337	-167.477	12.9701	0.736224	0.031341	0.031010	13.2504	2781.44	0.027768	0.036244	365.586	13348.2
1051	2.000000	0.738031	7.37533e+06	-52689.1	1055.82	-29748.4	0.000000	0.000000	6.738498	13.475	NaN	0.000000	0.001652	0.001800	28.0844	5.872836	0.002025	2899.71	7.416398	10.9905	12.9173	0.737722	0.032817	0.032508	13.475	2899.71	0.029331	0.039369	342.273	13352.1
1051	2.000000	0.739568	7.37533e+06	-52689.1	1055.82	-29748.4	0.000000	0.000000	6.740072	14.365	NaN	0.000000	0.001590	0.001781	28.084	5.970604	0.001971	3029.75	8.623097	-169.233	14.3092	0.739206	0.034354	0.033993	14.365	3029.75	0.030798	0.042413	338.693	13440.9
1051	2.000000	0.741084	7.37533e+06	-52689.1	1055.82	-29748.4	0.000000	0.000000	6.741610	14.9105	NaN	0.000000	0.001603	0.001790	28.0847	5.864013	0.001839	3188.22	10.3838	9.494793	14.8066	0.740730	0.035870	0.035516	14.9105	3188.22	0.032362	0.045782	325.682	13613.5
1051	2.000000	0.742576	7.37533e+06	-52689.1	1055.82	-29748.4	0.000000	0.000000	6.743134	15.6825	NaN	0.000000	0.001614	0.001797	28.0843	6.019660	0.002102	2864.12	14.8433	-172.214	15.2966	0.742222	0.037362	0.037009	15.6825	2864.12	0.033256	0.047762	328.343	11973.5
1051	2.000000	0.744040	7.37533e+06	-52689.1	1055.82	-29748.4	0.000000	0.000000	6.744631	16.4719	NaN	0.000000	0.001623	0.001747	28.0841	5.709280	0.002032	2809.96	6.454026	12.1219	16.3071	0.743659	0.038826	0.038445	16.4719	2809.96	0.034430	0.050427	326.652	11432.6
1051	2.000000	0.745537	7.37533e+06	-52689.1	1055.82	-29748.4	0.000000	0.000000	6.746190	17.9925	NaN	0.000000	0.001618	0.001778	28.0841	6.241709	0.002019	3091.32	8.607443	-168.867	17.6768	0.745232	0.040323	0.040018	17.9925	3091.32	0.035957	0.053999	333.202	12154.2
1051	2.000000	0.747042	7.37533e+06	-52689.1	1055.82	-29748.4	0.000000	0.000000	6.747721	18.6241	NaN	0.000000	0.001613	0.001785	28.084	6.496143	0.001756	3700.37	3.392949	13.7529	17.9902	0.746665	0.041828	0.041451	18.6241	3700.37	0.038053	0.059093	315.164	13907.5
1051	2.000000	0.748541	7.37533e+06	-52689.1	1055.82	-29748.4	0.000000	0.000000	6.749279	20.0466	NaN	0.000000	0.001587	0.001803	28.0842	5.948386	0.001985	2996.13	12.6957	-170.217	19.6956	0.748258	0.043327	0.043044	20.0466	2996.13	0.038309	0.059732	335.609	11200.3
1051	2.000000	0.750044	7.37533e+06	-52689.1	1055.82	-29748.4	0.000000	0.000000	6.750796	20.3793	NaN	0.000000	0.001636	0.001799	28.084	6.266545	0.001898	3301.81	9.179715	8.390635	20.2297	0.749711	0.044830	0.044497	20.3793	3301.81	0.040201	0.064549	315.717	11873.5
1051	2.000000	0.751580	7.37533e+06	-52689.1	1055.82	-29748.4	0.000000	0.000000	6.752362	21.1245	NaN	0.000000	0.001624	0.001789	28.0841	6.140042	0.001859	3302.26	6.846613	-168.19	21.2272	0.751275	0.046366	0.046061	21.1245	3302.26	0.041568	0.068144	309.998	11557.7
1051	2.000000	0.753042	7.37533e+06	-52689.1	1055.82	-29748.4	0.000000	0.000000	6.753878	22.4233	NaN	0.000000	0.001637	0.001808	28.0838	5.946891	0.001699	3500.74	3.599175	14.8592	22.0532	0.752682	0.047828	0.047469	22.4233	3500.74	0.043024	0.072078	311.099	11913.3
1051	2.000000	0.754560	7.37533e+06	-52689.1	1055.82	-29748.4	0.000000	0.000000	6.755416	22.931	NaN	0.000000	0.001662	0.001821	28.0839	6.686330	0.001792	3731.31	4.390262	-167.607	22.9468	0.754257	0.049346	0.049043	22.931	3731.31	0.044737	0.076841	298.421	12298.1
1051	2.000000	0.756020	7.37533e+06	-52689.1	1055.82	-29748.4	0.000000	0.000000	6.756918	23.9405	NaN	0.000000	0.001652	0.001815	28.084	7.153933	0.002071	3454.88	5.840459	11.3554	23.5205	0.755700	0.050806	0.050486	23.9405	3454.88	0.045609	0.079326	301.801	11207.3
1051	2.000000	0.757553	7.37533e+06	-52689.1	1055.82	-29748.4	0.000000	0.000000	6.758469	24.3709	NaN	0.000000	0.001650	0.001790	28.084	7.042204	0.001952	3607.16	6.977102	-170.014	24.2363	0.757228	0.052339	0.052014	24.3709	3607.16	0.047272	0.084169	289.547	11359.6
1051	2.000000	0.759047	7.37533e+06	-52689.1	1055.82	-29748.4	0.000000	0.000000	6.759991	25.069	NaN	0.000000	0.001701	0.001767	28.0839	7.531243	0.002060	3655.38	10.7856	8.251426	24.9291	0.758630	0.053833	0.053416	25.069	3655.38	0.048689	0.088405	283.57	11232.3
1051	2.000000	0.760550	7.37533e+06	-52689.1	1055.82	-29748.4	0.000000	0.000000	6.761534	26.0298	NaN	0.000000	0.001654	0.001769	28.0841	7.583341	0.001993	3804.08	6.639045	-169.367	25.7677	0.760168	0.055336	0.054954	26.0298	3804.08	0.050204	0.093046	279.753	11394
1051	2.000000	0.762031	7.37533e+06	-52689.1	1055.82	-29748.4	0.000000	0.000000	6.763032	26.4364	NaN	0.000000	0.001680	0.001809	28.0841	7.275866	0.002009	3621.34	8.272431	10.4967	26.3697	0.761691	0.056817	0.056477	26.4364	3621.34	0.051342	0.096607	273.648	10644.8
1051	2.000000	0.763561	7.37533e+06	-52689.1	1055.82	-29748.4	0.000000	0.000000	6.764613	27.6972	NaN	0.000000	0.001690	0.001788	28.0838	7.346214	0.001956	3755.28	7.456666	-168.823	27.9421	0.763219	0.058347	0.058005	27.6972	3755.28	0.052815	0.101313	273.383	10779.1
1051	2.000000	0.765021	7.37533e+06	-52689.1	1055.82	-29748.4	0.000000	0.000000	6.766126	28.9606	NaN	0.000000	0.001693	0.001756	28.0839	7.647742	0.001868	4094.74	7.430221	8.834444	28.728	0.764666	0.059808	0.059452	28.9606	4094.74	0.054503	0.106838	271.07	11445.5
1051	2.000000	0.766545	7.37533e+06	-52689.1	1055.82	-29748.4	0.000000	0.000000	6.767673	29.539	NaN	0.000000	0.001672	0.001768	28.084	8.100408	0.001941	4173.73	9.255322	-170.162	29.6694	0.766237	0.061331	0.061023	29.539	4173.73	0.056023	0.111935	263.894	11397.6
1051	2.000000	0.768033	7.37533e+06	-52689.1	1055.82	-29748.4	0.000000	0.000000	6.769195	30.3576	NaN	0.000000	0.001662	0.001797	28.0842	7.871982	0.001959	4017.7	10.2854	8.034449	30.2031	0.767685	0.062820	0.062471	30.3576	4017.7	0.057153	0.115796	262.165	10787.1
1051	2.000000	0.769564	7.37533e+06	-52689.1	1055.82	-29748.4	0.000000	0.000000	6.770754	31.0561	NaN	0.000000	0.001689	0.001810	28.0828	8.161480	0.002046	3989.15	11.6825	-172.569	31.5361	0.769186	0.064350	0.063973	31.0561	3989.15	0.058511	0.120523	257.678	10498.3
1051	2.000000	0.770995	7.37533e+06	-52689.1	1055.82	-29748.4	0.000000	0.000000	6.772234	32.2384	NaN	0.000000	0.001701	0.001805	28.0827	7.773451	0.002006	3875.18	8.895181	8.324295	31.5912	0.770645	0.065781	0.065432	32.2384	3875.18	0.059542	0.124170	259.632	10047.5
1051	2.000000	0.772488	7.37533e+06	-52689.1	1055.82	-29748.4	0.000000	0.000000	6.773795	33.9083	NaN	0.000000	0.001681	0.001776	28.0828	7.899225	0.002049	3855.8	10.5934	-171.2	33.4702	0.772261	0.067274	0.067047	33.9083	3855.8	0.060678	0.128251	264.39	9836.87
1051	2.000000	0.773993	7.37533e+06	-52689.1	1055.82	-29748.4	0.000000	0.000000	6.775308	34.0698	NaN	0.000000	0.001649	0.001796	28.0828	7.891189	0.002024	3898.18	4.242626	13.0582	33.5526	0.773676	0.068779	0.068462	34.0698	3898.18	0.062224	0.133905	254.433	9732.78
1051	2.000000	0.775525	7.37533e+06	-52689.1	1055.82	-29748.4	0.000000	0.000000	6.776895	35.4153	NaN	0.000000	0.001660	0.001785	28.0833	8.103714	0.002066	3922.84	10.2768	-173.042	35.2504	0.775226	0.070311	0.070012	35.4153	3922.84	0.063540	0.138809	255.137	9619.76
1051	2.000000	0.777002	7.37533e+06	-52689.1	1055.82	-29748.4	0.000000	0.000000	6.778414	36.4381	NaN	0.000000	0.001678	0.001736	28.0829	8.160432	0.001878	4346.29	8.179238	9.927885	35.8889	0.776644	0.071788	0.071430	36.4381	4346.29	0.065500	0.146266	249.122	10382.9
1051	2.000000	0.778525	7.37533e+06	-52689.1	1055.82	-29748.4	0.000000	0.000000	6.779968	37.2081	NaN	0.000000	0.001681	0.001718	28.0829	8.679808	0.001998	4343.54	9.813871	-172.151	37.3081	0.778195	0.073311	0.072981	37.2081	4343.54	0.066886	0.151652	245.352	10190.5
1051	2.000000	0.780021	7.37533e+06	-52689.1	1055.82	-29748.4	0.000000	0.000000	6.781508	38.2609	NaN	0.000000	0.001689	0.001720	28.0829	8.177999	0.001955	4183.93	9.713668	10.1408	38.0348	0.779649	0.074808	0.074435	38.2609	4183.93	0.067949	0.155845	245.507	9683.03
1051	2.000000	0.781505	7.37533e+06	-52689.1	1055.82	-29748.4	0.000000	0.000000	6.783033	39.2604	NaN	0.000000	0.001704	0.001711	28.0826	8.134767	0.001986	4096.32	8.933222	-169.859	39.187	0.781163	0.076291	0.075949	39.2604	4096.32	0.069102	0.160456	244.68	9343.05
1051	2.000000	0.783020	7.37533e+06	-52689.1	1055.82	-29748.4	0.000000	0.000000	6.784587	40.205	NaN	0.000000	0.001682	0.001717	28.0828	8.431265	0.001909	4416.68	7.097629	7.295844	40.1396	0.782648	0.077807	0.077435	40.205	4416.68	0.070979	0.168095	239.181	9842.2
1051	2.000000	0.784507	7.37533e+06	-52689.1	1055.82	-29748.4	0.000000	0.000000	6.786085	40.4916	NaN	0.000000	0.001656	0.001736	28.0827	8.704621	0.002033	4281.34	10.4239	-172.407	40.5206	0.784201	0.079293	0.078987	40.4916	4281.34	0.072200	0.173151	233.851	9400.28
1051	2.000000	0.785989	7.37533e+06	-52689.1	1055.82	-29748.4	0.000000	0.000000	6.787607	41.4539	NaN	0.000000	0.001660	0.001693	28.083	8.422268	0.001982	4249.06	5.569600	12.8999	40.9533	0.785600	0.080775	0.080386	41.4539	4249.06	0.073458	0.178437	232.317	9190.17
1051	2.000000	0.787467	7.37533e+06	-52689.1	1055.82	-29748.4	0.000000	0.000000	6.789091	41.596	NaN	0.000000	0.001627	0.001721	28.0826	8.615898	0.001886	4569.01	6.858767	-171.046	41.0671	0.787179	0.082253	0.081965	41.596	4569.01	0.075425	0.186855	222.611	9657.03
1051	2.000000	0.789000	7.37533e+06	-52689.1	1055.82	-29748.4	0.000000	0.000000	6.790631	41.7677	NaN	0.000000	0.001634	0.001754	28.0828	8.705267	0.001857	4688.1	7.933728	9.492900	41.6637	0.788673	0.083786	0.083459	41.7677	4688.1	0.077104	0.194181	215.097	9720.01
1051	2.000000	0.790536	7.37533e+06	-52689.1	1055.82	-29748.4	0.000000	0.000000	6.792185	42.2036	NaN	0.000000	0.001651	0.001729	28.0828	8.699383	0.001985	4383.57	6.916071	-169.074	42.4887	0.790256	0.085322	0.085043	42.2036	4383.57	0.078102	0.198597	212.509	8987
1051	2.000000	0.792017	7.37533e+06	-52689.1	1055.82	-29748.4	0.000000	0.000000	6.793669	42.2653	NaN	0.000000	0.001669	0.001729	28.0828	9.000011	0.002001	4498.52	8.050442	9.766312	42.2288	0.791626	0.086803	0.086413	42.2653	4498.52	0.079757	0.206027	205.145	9054.86
1051	2.000000	0.793505	7.37533e+06	-52689.1	1055.82	-29748.4	0.000000	0.000000	6.795193	43.17	NaN	0.000000	0.001669	0.001762	28.0828	9.134434	0.002076	4399.59	7.244972	-169	43.4606	0.793216	0.088291	0.088002	43.17	4399.59	0.080932	0.211377	204.232	8742.92
1051	2.000000	0.794996	7.37533e+06	-52689.1	1055.82	-29748.4	0.000000	0.000000	6.796681	43.0788	NaN	0.000000	0.001677	0.001726	28.083	8.769188	0.002033	4313	5.535900	11.8958	42.6078	0.794656	0.089782	0.089442	43.0788	4313	0.082291	0.217650	197.927	8446.44
1051	2.000000	0.796481	7.37533e+06	-52689.1	1055.82	-29748.4	0.000000	0.000000	6.798189	43.638	NaN	0.000000	0.001668	0.001748	28.083	9.184277	0.002021	4544.69	10.1283	-172.191	43.7562	0.796205	0.091268	0.090991	43.638	4544.69	0.084066	0.225967	193.117	8734.85
1051	2.000000	0.797986	7.37533e+06	-52689.1	1055.82	-29748.4	0.000000	0.000000	6.799720	44.2772	NaN	0.000000	0.001673	0.001771	28.0827	9.028592	0.001899	4753.33	5.371429	11.1102	43.7205	0.797635	0.092772	0.092422	44.2772	4753.33	0.085786	0.234165	189.085	8974.5
1051	2.000000	0.799487	7.37533e+06	-52689.1	1055.82	-29748.4	0.000000	0.000000	6.801218	44.2057	NaN	0.000000	0.001670	0.001763	28.083	9.237247	0.001978	4670.65	9.524233	-172.926	44.2456	0.799186	0.094273	0.093972	44.2057	4670.65	0.087175	0.240885	183.514	8694.52
1051	2.000000	0.800996	7.37533e+06	-52689.1	1055.82	-29748.4	0.000000	0.000000	6.802733	44.3541	NaN	0.000000	0.001676	0.001712	28.0828	9.325323	0.002070	4504.48	9.630041	8.665223	44.1614	0.800630	0.095782	0.095416	44.3541	4504.48	0.088397	0.246873	179.664	8282.86
1051	2.000000	0.802490	7.37533e+06	-52689.1	1055.82	-29748.4	0.000000	0.000000	6.804213	43.9981	NaN	0.000000	0.001635	0.001715	28.0831	8.999743	0.001976	4554.53	6.138672	-168.856	43.8665	0.802189	0.097276	0.096975	43.9981	4554.53	0.090031	0.254983	172.553	8240.65
1051	2.000000	0.803991	7.37533e+06	-52689.1	1055.82	-29748.4	0.000000	0.000000	6.805718	44.0931	NaN	0.000000	0.001659	0.001760	28.0842	9.512025	0.001981	4802.59	9.527572	6.539484	43.8762	0.803642	0.098778	0.098428	44.0931	4802.59	0.091892	0.264371	166.785	8533.79
1051	2.000000	0.805506	7.37533e+06	-52689.1	1055.82	-29748.4	0.000000	0.000000	6.807228	43.9891	NaN	0.000000	0.001631	0.001766	28.0839	9.531705	0.002011	4739.03	9.287158	-172.392	44.077	0.805200	0.100292	0.099987	43.9891	4739.03	0.093330	0.271736	161.882	8305.95
1051	2.000000	0.806986	7.37533e+06	-52689.1	1055.82	-29748.4	0.000000	0.000000	6.808724	44.3686	NaN	0.000000	0.001663	0.001786	28.0841	9.465949	0.002143	4417.87	8.171217	10.4838	44.4207	0.806605	0.101772	0.101391	44.3686	4417.87	0.094239	0.276440	160.5	7676.9
1051	2.000000	0.808484	7.37533e+06	-52689.1	1055.82	-29748.4	0.000000	0.000000	6.810222	44.3854	NaN	0.000000	0.001655	0.001753	28.0838	9.572273	0.002031	4712.29	7.921798	-169.232	44.3517	0.808149	0.103270	0.102935	44.3854	4712.29	0.096206	0.286741	154.793	8040.08
1051	2.000000	0.809993	7.37533e+06	-52689.1	1055.82	-29748.4	0.000000	0.000000	6.811716	43.9944	NaN	0.000000	0.001667	0.001786	28.0842	9.172528	0.002000	4586.43	7.094632	10.1433	43.7619	0.809650	0.104780	0.104436	43.9944	4586.43	0.097585	0.294075	149.603	7727.14
1051	2.000000	0.811492	7.37533e+06	-52689.1	1055.82	-29748.4	0.000000	0.000000	6.813245	44.7342	NaN	0.000000	0.001678	0.001734	28.0839	9.148291	0.001995	4584.57	7.195783	-169.495	44.8798	0.811147	0.106278	0.105933	44.7342	4584.57	0.098960	0.301469	148.387	7628.7
1051	2.000000	0.813005	7.37533e+06	-52689.1	1055.82	-29748.4	0.000000	0.000000	6.814744	44.3995	NaN	0.000000	0.001618	0.001776	28.0839	9.514256	0.002030	4686.03	9.248542	8.302080	44.265	0.812676	0.107791	0.107462	44.3995	4686.03	0.100685	0.310866	142.825	7678.77
1051	2.000000	0.814485	7.37533e+06	-52689.1	1055.82	-29748.4	0.000000	0.000000	6.816229	44.4923	NaN	0.000000	0.001640	0.001744	28.0842	9.320146	0.001881	4954.45	7.517109	-171.424	44.3998	0.814125	0.109272	0.108911	44.4923	4954.45	0.102536	0.321106	138.56	7988.13
1051	2.000000	0.815972	7.37533e+06	-52689.1	1055.82	-29748.4	0.000000	0.000000	6.817729	44.8412	NaN	0.000000	0.001690	0.001751	28.084	9.879124	0.001983	4982.38	11.0306	7.819993	44.5338	0.815603	0.110758	0.110389	44.8412	4982.38	0.104008	0.329354	136.149	7931.92
1051	2.000000	0.817458	7.37533e+06	-52689.1	1055.82	-29748.4	0.000000	0.000000	6.819178	43.9232	NaN	0.000000	0.001638	0.001757	28.0841	9.961528	0.002010	4956.31	9.584703	-172.597	43.73	0.817160	0.112244	0.111946	43.9232	4956.31	0.105598	0.338377	129.806	7784.52
1051	2.000000	0.818983	7.37533e+06	-52689.1	1055.82	-29748.4	0.000000	0.000000	6.820720	44.3379	NaN	0.000000	0.001683	0.001792	28.084	9.572766	0.002059	4650.35	6.061037	12.5598	44.4787	0.818593	0.113769	0.113379	44.3379	4650.35	0.106618	0.344228	128.804	7241.63
1051	2.000000	0.819481	7.37533e+06	-52689.1	1055.82	-29748.4	0.000000	0.000000	6.821216	44.3006	NaN	0.000000	0.001689	0.001794	28.084	9.824656	0.002010	4887.32	9.323661	-170.673	44.3237	0.819142	0.114267	0.113928	44.3006	4887.32	0.107468	0.349139	126.885	7556.92