File: remote_trans/data/nanoindenter/0828-1/data/Data_2025-08-06,11h17m57s/2025-07-22_16-23-58_1_263.txt
2025-07-22, 16:23:58, 1
Index	Phase	Displacement	Time	Pos X	Pos Y	Pos Z	Rot A	Rot B	Piezo Z	Force A	Force B	Gripper	Voltage A	Voltage B	Temperature	Amplitude force	Amplitude pos	Stiffness	Phase shift	Phase excitation	Force A raw	Displacement raw	HMax	HMax raw	Real Force	Real Stiffness	Contact Depth	Area	Hardness	Reduced Mod.
[#]	[#]	[um]	[s]	[um]	[um]	[um]	[m°]	[m°]	[um]	[uN]	[uN]	[V]	[V]	[V]	[°C]	[uN]	[um]	[N/m]	[°]	[°]	[uN]	[um]	[um]	[um]	[uN]	[N/m]	[um]	[um^2]	[MPa]	[MPa]
263	1.000000	0.003034	7.36762e+06	-51789.1	955.817	-29751.4	0.000000	0.000000	6.002804	0.037278	NaN	0.000000	0.001547	0.001643	28.078	0.069171	0.001058	65.4001	-135.71	-165.431	-0.080736	0.001756	-1.125765	-1.127043	0.037278	65.4001	-1.126193	-1.126043E+15	-3.310541E-17	NaN
263	1.000000	0.013100	7.36762e+06	-51789.1	955.819	-29751.4	0.000000	0.000000	6.012866	-0.041916	NaN	0.000000	0.001557	0.001667	28.0792	0.015888	0.001255	12.6629	115.924	15.2792	-0.100482	0.011701	-1.115700	-1.117098	-0.041916	12.6629	-1.113217	-7.541554E+14	5.557949E-17	NaN
263	1.000000	0.022975	7.36762e+06	-51789.1	955.818	-29751.4	0.000000	0.000000	6.022743	0.006874	NaN	0.000000	0.001540	0.001654	28.0792	0.071980	0.001560	46.1489	39.0223	-167.717	-0.067324	0.021680	-1.105825	-1.107120	0.006874	46.1489	-1.105936	-6.022102E+14	-1.141479E-17	NaN
263	1.000000	0.032985	7.36762e+06	-51789.1	955.818	-29751.4	0.000000	0.000000	6.032750	-0.071880	NaN	0.000000	0.001586	0.001668	28.0793	0.038558	0.001893	20.3659	-110.021	13.8525	-0.140776	0.031613	-1.095815	-1.097186	-0.071880	20.3659	-1.093168	-4.058293E+14	1.771182E-16	NaN
263	1.000000	0.043006	7.36762e+06	-51789.1	955.818	-29751.4	0.000000	0.000000	6.042776	0.050039	NaN	0.000000	0.001611	0.001608	28.0798	0.066670	0.001968	33.8763	-172.05	-161.353	-0.001178	0.041674	-1.085794	-1.087125	0.050039	33.8763	-1.086901	-3.343519E+14	-1.496591E-16	NaN
263	1.000000	0.052982	7.36762e+06	-51789.1	955.819	-29751.4	0.000000	0.000000	6.052749	-0.020601	NaN	0.000000	0.001602	0.001646	28.0793	0.020277	0.002008	10.0964	-60.3715	14.1579	-0.002929	0.051614	-1.075818	-1.077186	-0.020601	10.0964	-1.074287	-2.263534E+14	9.101295E-17	NaN
263	1.000000	0.062968	7.36762e+06	-51789.1	955.818	-29751.4	0.000000	0.000000	6.062737	0.007079	NaN	0.000000	0.001604	0.001637	28.0794	0.067447	0.002053	32.8484	-0.577168	-165.77	-0.051336	0.061731	-1.065831	-1.067068	0.007079	32.8484	-1.065993	-1.751256E+14	-4.042420E-17	NaN
263	1.000000	0.072989	7.36763e+06	-51789.1	955.817	-29751.4	0.000000	0.000000	6.072756	-0.017537	NaN	0.000000	0.001563	0.001655	28.0794	0.064702	0.001923	33.6537	-121.438	13.692	0.034304	0.071636	-1.055811	-1.057163	-0.017537	33.6537	-1.055420	-1.262593E+14	1.389002E-16	NaN
263	1.000000	0.083013	7.36763e+06	-51789.1	955.818	-29751.4	0.000000	0.000000	6.082781	-0.007861	NaN	0.000000	0.001546	0.001650	28.0797	0.102326	0.001919	53.3212	75.86	-166.157	-0.026991	0.081729	-1.045786	-1.047070	-0.007861	53.3212	-1.045676	-9.338615E+13	8.418121E-17	NaN
263	1.000000	0.092992	7.36763e+06	-51789.1	955.818	-29751.4	0.000000	0.000000	6.092758	-0.062889	NaN	0.000000	0.001587	0.001661	28.0795	0.093239	0.002049	45.5122	-119.514	16.0662	-0.091382	0.091639	-1.035807	-1.037160	-0.062889	45.5122	-1.034771	-6.662647E+13	9.439011E-16	NaN
263	1.000000	0.103018	7.36763e+06	-51789.1	955.817	-29751.4	0.000000	0.000000	6.102785	-0.035905	NaN	0.000000	0.001547	0.001658	28.0796	0.126907	0.002014	63.0055	113.011	-164.027	-0.073308	0.101703	-1.025781	-1.027096	-0.035905	63.0055	-1.025354	-4.977115E+13	7.213958E-16	NaN
263	1.000000	0.112987	7.36763e+06	-51789.1	955.818	-29751.4	0.000000	0.000000	6.112753	-0.053504	NaN	0.000000	0.001579	0.001602	28.0794	0.060547	0.001933	31.3273	158.111	12.4201	-0.046349	0.111661	-1.015813	-1.017138	-0.053504	31.3273	-1.014532	-3.559344E+13	1.503207E-15	NaN
263	1.000000	0.122998	7.36763e+06	-51789.1	955.818	-29751.4	0.000000	0.000000	6.122764	-0.053531	NaN	0.000000	0.001585	0.001630	28.0798	0.089025	0.002065	43.1077	84.0934	-165.171	-0.012070	0.121675	-1.005801	-1.007125	-0.053531	43.1077	-1.004870	-2.638331E+13	2.028971E-15	NaN
263	1.000000	0.132989	7.36763e+06	-51789.1	955.819	-29751.4	0.000000	0.000000	6.132758	0.007703	NaN	0.000000	0.001566	0.001606	28.0796	0.083498	0.002096	39.8407	109.649	13.6443	0.009719	0.131604	-0.995810	-0.997196	0.007703	39.8407	-0.995955	-2.001282E+13	-3.849167E-16	NaN
263	1.000000	0.143027	7.36763e+06	-51789.1	955.818	-29751.4	0.000000	0.000000	6.142793	-0.036331	NaN	0.000000	0.001557	0.001621	28.0799	0.016412	0.002063	7.953517	-151.726	-163.339	0.038107	0.141719	-0.985773	-0.987080	-0.036331	7.953517	-0.982347	-1.312276E+13	2.768581E-15	NaN
263	1.000000	0.153018	7.36763e+06	-51789.1	955.818	-29751.4	0.000000	0.000000	6.152787	0.021135	NaN	0.000000	0.001558	0.001628	28.0784	0.069709	0.001939	35.9585	45.2714	14.648	-0.016187	0.151667	-0.975782	-0.977132	0.021135	35.9585	-0.976223	-1.085217E+13	-1.947568E-15	NaN
263	1.000000	0.163040	7.36763e+06	-51789.1	955.817	-29751.4	0.000000	0.000000	6.162805	-0.059867	NaN	0.000000	0.001538	0.001679	28.0787	0.065391	0.002003	32.6498	-113.523	-166.332	-0.010723	0.161688	-0.965760	-0.967111	-0.059867	32.6498	-0.964384	-7.515801E+12	7.965529E-15	NaN
263	1.000000	0.173022	7.36763e+06	-51789.1	955.818	-29751.4	0.000000	0.000000	6.172786	-0.109994	NaN	0.000000	0.001557	0.001643	28.0784	0.100451	0.002053	48.9276	132.312	14.4866	-0.071215	0.171666	-0.955777	-0.957133	-0.109994	48.9276	-0.954091	-5.460053E+12	2.014528E-14	NaN
263	1.000000	0.183023	7.36763e+06	-51789.1	955.817	-29751.4	0.000000	0.000000	6.182788	-0.064780	NaN	0.000000	0.001560	0.001610	28.0785	0.077301	0.001954	39.5517	-70.1466	-161.624	-0.050541	0.181703	-0.945777	-0.947097	-0.064780	39.5517	-0.944548	-4.059700E+12	1.595693E-14	NaN
263	1.000000	0.193006	7.36763e+06	-51789.1	955.817	-29751.4	0.000000	0.000000	6.192771	-0.083603	NaN	0.000000	0.001593	0.001655	28.0782	0.076407	0.001974	38.709	-156.372	16.3029	-0.010272	0.191694	-0.935793	-0.937105	-0.083603	38.709	-0.934173	-2.941144E+12	2.842521E-14	NaN
263	1.000000	0.203026	7.36763e+06	-51789.1	955.818	-29751.4	0.000000	0.000000	6.202792	-0.065182	NaN	0.000000	0.001575	0.001646	28.0785	0.095628	0.001939	49.3183	68.5077	-165.804	-0.029999	0.201736	-0.925773	-0.927063	-0.065182	49.3183	-0.924782	-2.196648E+12	2.967332E-14	NaN
263	1.000000	0.213062	7.36763e+06	-51789.1	955.818	-29751.4	0.000000	0.000000	6.212829	-0.024973	NaN	0.000000	0.001568	0.001639	28.0782	0.040807	0.002044	19.9684	-6.612844	14.2006	-0.037011	0.211686	-0.915737	-0.917113	-0.024973	19.9684	-0.914799	-1.610563E+12	1.550564E-14	NaN
263	1.000000	0.223054	7.36763e+06	-51789.1	955.817	-29751.4	0.000000	0.000000	6.222821	-0.037395	NaN	0.000000	0.001611	0.001670	28.0782	0.086563	0.002212	39.1302	90.155	-166.399	-0.077481	0.221755	-0.905745	-0.907044	-0.037395	39.1302	-0.905029	-1.188522E+12	3.146361E-14	NaN
263	1.000000	0.233053	7.36763e+06	-51789.1	955.818	-29751.4	0.000000	0.000000	6.232820	-0.030129	NaN	0.000000	0.001587	0.001632	28.0784	0.094513	0.002094	45.1264	-151.277	16.789	0.002669	0.231660	-0.895746	-0.897140	-0.030129	45.1264	-0.895245	-8.766207E+11	3.436983E-14	NaN
263	1.000000	0.243112	7.36763e+06	-51789.1	955.818	-29751.4	0.000000	0.000000	6.242881	0.020031	NaN	0.000000	0.001607	0.001647	28.0784	0.036638	0.002014	18.1899	16.4034	-166.445	-0.055136	0.241738	-0.885688	-0.887062	0.020031	18.1899	-0.886514	-6.680105E+11	-2.998608E-14	NaN
263	1.000000	0.253075	7.36763e+06	-51789.1	955.818	-29751.4	0.000000	0.000000	6.252843	-0.007321	NaN	0.000000	0.001648	0.001664	28.0783	0.079832	0.002039	39.1566	-18.3294	14.3289	-0.021545	0.251760	-0.875724	-0.877039	-0.007321	39.1566	-0.875584	-4.753184E+11	1.540293E-14	NaN
263	1.000000	0.263085	7.36763e+06	-51789.1	955.819	-29751.4	0.000000	0.000000	6.262851	-0.045910	NaN	0.000000	0.001626	0.001657	28.0784	0.082633	0.001822	45.3498	-35.6256	-166.286	-0.054594	0.261721	-0.865715	-0.867079	-0.045910	45.3498	-0.864955	-3.413391E+11	1.344987E-13	NaN
263	1.000000	0.273063	7.36763e+06	-51789.1	955.817	-29751.4	0.000000	0.000000	6.272828	-0.085249	NaN	0.000000	0.001652	0.001672	28.0786	0.036011	0.002038	17.6677	83.9261	15.3704	-0.039084	0.271727	-0.855736	-0.857073	-0.085249	17.6677	-0.852117	-2.287756E+11	3.726314E-13	NaN
263	1.000000	0.283085	7.36763e+06	-51789.1	955.818	-29751.4	0.000000	0.000000	6.282852	-0.034946	NaN	0.000000	0.001666	0.001692	28.0789	0.124376	0.001923	64.6945	15.9085	-164.212	0.014173	0.281780	-0.845714	-0.847019	-0.034946	64.6945	-0.845309	-1.850163E+11	1.888781E-13	NaN
263	1.000000	0.293089	7.36763e+06	-51789.1	955.817	-29751.4	0.000000	0.000000	6.292856	-0.041250	NaN	0.000000	0.001655	0.001607	28.0798	0.034743	0.001895	18.3313	-35.4386	15.2319	-0.123007	0.291757	-0.835710	-0.837042	-0.041250	18.3313	-0.834022	-1.301056E+11	3.170516E-13	NaN
263	1.000000	0.303082	7.36763e+06	-51789.1	955.818	-29751.4	0.000000	0.000000	6.302849	-0.040970	NaN	0.000000	0.001680	0.001671	28.0796	0.028137	0.001952	14.4137	-94.4355	-162.957	-0.052010	0.301764	-0.825717	-0.827036	-0.040970	14.4137	-0.823585	-9.393389E+10	4.361600E-13	NaN
263	1.000000	0.313063	7.36763e+06	-51789.1	955.818	-29751.4	0.000000	0.000000	6.312830	-0.027702	NaN	0.000000	0.001637	0.001650	28.0801	0.110862	0.002033	54.5392	-141.106	15.884	0.034026	0.311768	-0.815736	-0.817031	-0.027702	54.5392	-0.815355	-7.264743E+10	3.813199E-13	NaN
263	1.000000	0.323115	7.36763e+06	-51789.1	955.818	-29751.4	0.000000	0.000000	6.322880	-0.088541	NaN	0.000000	0.001573	0.001604	28.0798	0.093549	0.001922	48.6697	-1.862456	-166.761	-0.097570	0.321814	-0.805684	-0.806985	-0.088541	48.6697	-0.804320	-5.146267E+10	1.720482E-12	NaN
263	1.000000	0.333127	7.36763e+06	-51789.1	955.817	-29751.4	0.000000	0.000000	6.332895	0.003929	NaN	0.000000	0.001585	0.001707	28.0794	0.084818	0.002078	40.8186	-46.317	16.377	-0.006774	0.331729	-0.795673	-0.797070	0.003929	40.8186	-0.795745	-3.936350E+10	-9.980711E-14	NaN
263	1.000000	0.343095	7.36763e+06	-51789.1	955.818	-29751.4	0.000000	0.000000	6.342862	-0.033697	NaN	0.000000	0.001608	0.001650	28.0793	0.070170	0.001992	35.2263	136.773	-165.589	-0.005249	0.341831	-0.785705	-0.786969	-0.033697	35.2263	-0.784987	-2.811847E+10	1.198384E-12	NaN
263	1.000000	0.353110	7.36763e+06	-51789.1	955.818	-29751.4	0.000000	0.000000	6.352877	-0.048626	NaN	0.000000	0.001575	0.001626	28.0795	0.050201	0.001962	25.5893	-108.177	18.553	-0.069725	0.351775	-0.775689	-0.777024	-0.048626	25.5893	-0.774264	-2.010341E+10	2.418781E-12	NaN
263	1.000000	0.363080	7.36763e+06	-51789.1	955.818	-29751.4	0.000000	0.000000	6.362846	-0.068330	NaN	0.000000	0.001564	0.001666	28.0793	0.050275	0.002076	24.2162	-101.726	-161.75	0.024022	0.361778	-0.765719	-0.767021	-0.068330	24.2162	-0.763603	-1.439827E+10	4.745719E-12	NaN
263	1.000000	0.373121	7.36763e+06	-51789.1	955.817	-29751.4	0.000000	0.000000	6.372885	-0.083596	NaN	0.000000	0.001573	0.001675	28.0794	0.060377	0.001998	30.2174	159.516	13.8297	-0.058085	0.371740	-0.755679	-0.757059	-0.083596	30.2174	-0.753604	-1.052622E+10	7.941713E-12	NaN
263	1.000000	0.383100	7.36763e+06	-51789.1	955.818	-29751.4	0.000000	0.000000	6.382864	-0.094948	NaN	0.000000	0.001583	0.001672	28.0793	0.097300	0.001979	49.1647	-156.768	-162.175	-0.072855	0.381812	-0.745699	-0.746988	-0.094948	49.1647	-0.744251	-7.851433E+9	1.209302E-11	NaN
263	1.000000	0.393109	7.36763e+06	-51789.1	955.818	-29751.4	0.000000	0.000000	6.392874	-0.083418	NaN	0.000000	0.001582	0.001675	28.0797	0.018817	0.001989	9.462214	-33.8141	15.7819	-0.063638	0.391776	-0.735690	-0.737023	-0.083418	9.462214	-0.729078	-4.877991E+9	1.710089E-11	NaN
263	1.000000	0.403146	7.36763e+06	-51789.1	955.818	-29751.4	0.000000	0.000000	6.402912	-0.055076	NaN	0.000000	0.001578	0.001680	28.0793	0.042194	0.001903	22.1753	104.516	-165.637	-0.094970	0.401906	-0.725653	-0.726893	-0.055076	22.1753	-0.723790	-4.131961E+9	1.332932E-11	NaN
263	1.000000	0.413125	7.36763e+06	-51789.1	955.817	-29751.4	0.000000	0.000000	6.412890	-0.079529	NaN	0.000000	0.001590	0.001682	28.0794	0.130608	0.002041	63.9995	-140.167	16.371	-0.119800	0.411826	-0.715674	-0.716974	-0.079529	63.9995	-0.714742	-3.109972E+9	2.557239E-11	NaN
263	1.000000	0.423160	7.36763e+06	-51789.1	955.818	-29751.4	0.000000	0.000000	6.422928	-0.025874	NaN	0.000000	0.001579	0.001642	28.0781	0.067188	0.001955	34.3591	31.6512	-167.212	0.018799	0.421770	-0.705639	-0.707029	-0.025874	34.3591	-0.705074	-2.295166E+9	1.127314E-11	NaN
263	1.000000	0.433146	7.36763e+06	-51789.1	955.817	-29751.4	0.000000	0.000000	6.432915	0.011757	NaN	0.000000	0.001557	0.001658	28.0782	0.040696	0.001974	20.6191	-139.168	15.931	0.052511	0.431796	-0.695653	-0.697004	0.011757	20.6191	-0.696081	-1.729818E+9	-6.796932E-12	NaN
263	1.000000	0.443167	7.36763e+06	-51789.1	955.818	-29751.4	0.000000	0.000000	6.442932	-0.082362	NaN	0.000000	0.001573	0.001635	28.0781	0.071136	0.002094	33.975	-11.3389	-164.37	-0.067503	0.441842	-0.685632	-0.686957	-0.082362	33.975	-0.683814	-1.175883E+9	7.004245E-11	NaN
263	1.000000	0.453159	7.36763e+06	-51789.1	955.818	-29751.4	0.000000	0.000000	6.452926	-0.020884	NaN	0.000000	0.001567	0.001644	28.078	0.051297	0.002009	25.5318	-156.896	15.8951	-0.042598	0.451768	-0.675641	-0.677031	-0.020884	25.5318	-0.675027	-8.916275E+8	2.342285E-11	NaN
263	1.000000	0.463181	7.36763e+06	-51789.1	955.818	-29751.4	0.000000	0.000000	6.462947	-0.053562	NaN	0.000000	0.001579	0.001645	28.0783	0.047764	0.001976	24.1693	-134.39	-163.21	-0.108398	0.461857	-0.665619	-0.666942	-0.053562	24.1693	-0.663957	-6.290089E+8	8.515258E-11	NaN
263	1.000000	0.473146	7.36763e+06	-51789.1	955.817	-29751.4	0.000000	0.000000	6.472913	-0.037002	NaN	0.000000	0.001571	0.001642	28.0782	0.089841	0.001948	46.1211	160.544	13.222	-0.002525	0.471814	-0.655653	-0.656986	-0.037002	46.1211	-0.655052	-4.749806E+8	7.790159E-11	NaN
263	1.000000	0.483157	7.36763e+06	-51789.1	955.817	-29751.4	0.000000	0.000000	6.482924	-0.022125	NaN	0.000000	0.001553	0.001650	28.0783	0.068775	0.002071	33.2149	-43.387	-169.693	0.057241	0.481844	-0.645642	-0.646955	-0.022125	33.2149	-0.645143	-3.474038E+8	6.368697E-11	NaN
263	1.000000	0.493173	7.36763e+06	-51789.1	955.818	-29751.4	0.000000	0.000000	6.492939	-0.042893	NaN	0.000000	0.001600	0.001617	28.0782	0.040996	0.002050	19.9985	64.7975	15.0295	-0.042610	0.491834	-0.635626	-0.636965	-0.042893	19.9985	-0.634018	-2.444494E+8	1.754690E-10	NaN
263	1.000000	0.503178	7.36763e+06	-51789.1	955.816	-29751.4	0.000000	0.000000	6.502943	-0.079646	NaN	0.000000	0.001604	0.001643	28.0788	0.066938	0.001981	33.7925	-147.366	-164.431	-0.057963	0.501830	-0.625622	-0.626969	-0.079646	33.7925	-0.623854	-1.772554E+8	4.493271E-10	NaN
263	1.000000	0.513180	7.36763e+06	-51789.1	955.818	-29751.4	0.000000	0.000000	6.512945	-0.067669	NaN	0.000000	0.001586	0.001646	28.0783	0.030531	0.002042	14.9513	173.23	15.7408	-0.031687	0.511801	-0.615619	-0.616999	-0.067669	14.9513	-0.612225	-1.226659E+8	5.516494E-10	NaN
263	1.000000	0.523198	7.36763e+06	-51789.1	955.818	-29751.4	0.000000	0.000000	6.522963	-0.077778	NaN	0.000000	0.001596	0.001662	28.0783	0.014413	0.002168	6.649221	-86.9584	-164.933	-0.050115	0.521921	-0.605602	-0.606879	-0.077778	6.649221	-0.596829	-7.529690E+7	1.032947E-9	NaN
263	1.000000	0.533187	7.36763e+06	-51789.1	955.819	-29751.4	0.000000	0.000000	6.532953	-0.057333	NaN	0.000000	0.001559	0.001681	28.0781	0.072818	0.001863	39.0845	-91.959	18.4911	-0.046122	0.531831	-0.595612	-0.596968	-0.057333	39.0845	-0.594512	-6.996119E+7	8.195040E-10	NaN
263	1.000000	0.543164	7.36763e+06	-51789.1	955.818	-29751.4	0.000000	0.000000	6.542929	-0.083124	NaN	0.000000	0.001597	0.001683	28.0783	0.087961	0.001836	47.9104	-6.865912	-166.746	-0.036218	0.541854	-0.585635	-0.586946	-0.083124	47.9104	-0.584334	-5.064407E+7	1.641346E-9	NaN
263	1.000000	0.553189	7.36763e+06	-51789.1	955.818	-29751.4	0.000000	0.000000	6.552958	0.006498	NaN	0.000000	0.001608	0.001708	28.0781	0.044164	0.002108	20.9526	92.9944	15.4782	0.055423	0.551865	-0.575610	-0.576934	0.006498	20.9526	-0.575842	-3.866622E+7	-1.680495E-10	NaN
263	1.000000	0.563204	7.36763e+06	-51789.1	955.817	-29751.4	0.000000	0.000000	6.562969	-0.069783	NaN	0.000000	0.001575	0.001657	28.0795	0.088126	0.002050	42.9845	-45.497	-163.327	-0.000765	0.561867	-0.565595	-0.566932	-0.069783	42.9845	-0.564378	-2.684868E+7	2.599138E-9	NaN
263	1.000000	0.573215	7.36763e+06	-51789.1	955.818	-29751.4	0.000000	0.000000	6.572982	-0.018010	NaN	0.000000	0.001677	0.001652	28.0795	0.063957	0.001946	32.8672	-92.1576	13.5463	0.068586	0.571841	-0.555584	-0.556959	-0.018010	32.8672	-0.555173	-2.002574E+7	8.993279E-10	NaN
263	1.000000	0.583207	7.36763e+06	-51789.1	955.818	-29751.4	0.000000	0.000000	6.582972	-0.067806	NaN	0.000000	0.001656	0.001674	28.0796	0.068936	0.002034	33.8937	60.4296	-167.394	-0.037110	0.581917	-0.545593	-0.546882	-0.067806	33.8937	-0.544092	-1.406370E+7	4.821318E-9	NaN
263	1.000000	0.593187	7.36763e+06	-51789.1	955.818	-29751.4	0.000000	0.000000	6.592956	0.012826	NaN	0.000000	0.001625	0.001679	28.0794	0.055370	0.001910	28.9874	137.645	11.3884	0.019202	0.591891	-0.535612	-0.536908	0.012826	28.9874	-0.535944	-1.084147E+7	-1.183037E-9	NaN
263	1.000000	0.603237	7.36763e+06	-51789.1	955.818	-29751.4	0.000000	0.000000	6.603002	-0.071490	NaN	0.000000	0.001651	0.001707	28.0795	0.095639	0.002100	45.5486	167.631	-166.201	-0.038664	0.601881	-0.525562	-0.526918	-0.071490	45.5486	-0.524385	-7.49144e+06	9.542928E-9	NaN
263	1.000000	0.613198	7.36763e+06	-51789.1	955.818	-29751.4	0.000000	0.000000	6.612964	-0.051673	NaN	0.000000	0.001622	0.001684	28.0793	0.044501	0.002038	21.8363	-84.5517	15.5049	-0.067696	0.611824	-0.515601	-0.516976	-0.051673	21.8363	-0.513826	-5.34193e+06	9.673137E-9	NaN
263	1.000000	0.623225	7.36763e+06	-51789.1	955.818	-29751.4	0.000000	0.000000	6.622992	-0.023438	NaN	0.000000	0.001568	0.001689	28.0794	0.068881	0.001840	37.4415	76.2286	-166.768	-0.033666	0.621935	-0.505575	-0.506865	-0.023438	37.4415	-0.505105	-4.03842e+06	5.803671E-9	NaN
263	1.000000	0.633245	7.36763e+06	-51789.1	955.819	-29751.4	0.000000	0.000000	6.633011	-0.044367	NaN	0.000000	0.001555	0.001695	28.0796	0.087823	0.002167	40.5283	-141.195	16.6094	-0.040770	0.631873	-0.495555	-0.496926	-0.044367	40.5283	-0.494734	-2.8941e+06	1.533016E-8	NaN
263	1.000000	0.643249	7.36763e+06	-51789.1	955.818	-29751.4	0.000000	0.000000	6.643015	-0.065709	NaN	0.000000	0.001564	0.001701	28.0795	0.051780	0.002087	24.8166	-52.1126	-164.934	-0.059983	0.641895	-0.485550	-0.486904	-0.065709	24.8166	-0.483564	-2.02027e+06	3.252494E-8	NaN
263	1.000000	0.653244	7.36763e+06	-51789.1	955.817	-29751.4	0.000000	0.000000	6.653012	0.008734	NaN	0.000000	0.001550	0.001715	28.0797	0.059265	0.001923	30.8161	51.0187	17.549	0.030181	0.651908	-0.475556	-0.476892	0.008734	30.8161	-0.475768	-1.57132e+06	-5.558621E-9	NaN
263	1.000000	0.663262	7.36763e+06	-51789.1	955.818	-29751.4	0.000000	0.000000	6.663029	-0.044824	NaN	0.000000	0.001577	0.001684	28.0794	0.143490	0.002019	71.077	23.2053	-162.963	0.038818	0.661937	-0.465537	-0.466862	-0.044824	71.077	-0.465064	-1.11211e+06	4.030552E-8	NaN
263	1.000000	0.673248	7.36763e+06	-51789.1	955.818	-29751.4	0.000000	0.000000	6.673018	0.051172	NaN	0.000000	0.001565	0.001672	28.0796	0.051308	0.001977	25.9459	-107.761	15.0674	0.008147	0.671920	-0.455551	-0.456879	0.051172	25.9459	-0.457031	-857581	-5.967006E-8	NaN
263	1.000000	0.683246	7.36763e+06	-51789.1	955.818	-29751.4	0.000000	0.000000	6.683014	-0.000623	NaN	0.000000	0.001545	0.001655	28.0794	0.055585	0.001959	28.3762	-100.171	-164.722	-0.071407	0.681940	-0.445553	-0.446859	-0.000623	28.3762	-0.445537	-590822	1.055160E-9	NaN
263	1.000000	0.693236	7.36763e+06	-51789.1	955.818	-29751.4	0.000000	0.000000	6.693003	-0.036566	NaN	0.000000	0.001525	0.001683	28.079	0.092009	0.002059	44.6839	-9.703583	15.4919	-0.062043	0.691861	-0.435563	-0.436938	-0.036566	44.6839	-0.434949	-418828	8.730455E-8	NaN
263	1.000000	0.703257	7.36763e+06	-51789.1	955.817	-29751.4	0.000000	0.000000	6.703025	0.010655	NaN	0.000000	0.001577	0.001668	28.0781	0.037810	0.002053	18.4129	38.9818	-164.928	-0.066022	0.701884	-0.425542	-0.426915	0.010655	18.4129	-0.425976	-312689	-3.407455E-8	NaN
263	1.000000	0.713245	7.36763e+06	-51789.1	955.818	-29751.4	0.000000	0.000000	6.713010	-0.100055	NaN	0.000000	0.001571	0.001660	28.0782	0.067308	0.001938	34.7261	-6.611732	14.5801	0.001368	0.711913	-0.415554	-0.416886	-0.100055	34.7261	-0.413393	-207314	4.826270E-7	NaN
263	1.000000	0.723281	7.36763e+06	-51789.1	955.819	-29751.4	0.000000	0.000000	6.723047	-0.043810	NaN	0.000000	0.001553	0.001638	28.0781	0.130842	0.002028	64.5328	86.86	-166.562	-0.053043	0.721961	-0.405519	-0.406838	-0.043810	64.5328	-0.405010	-157538	2.780912E-7	NaN
263	1.000000	0.733287	7.36763e+06	-51789.1	955.819	-29751.4	0.000000	0.000000	6.733054	-0.033909	NaN	0.000000	0.001548	0.001658	28.0785	0.063647	0.001993	31.9335	-77.2774	14.4748	-0.098151	0.731881	-0.395513	-0.396918	-0.033909	31.9335	-0.394716	-112352	3.018143E-7	NaN
263	1.000000	0.743267	7.36763e+06	-51789.1	955.818	-29751.4	0.000000	0.000000	6.743034	-0.033017	NaN	0.000000	0.001562	0.001654	28.0781	0.047799	0.001956	24.437	-140.22	-164.498	-0.090658	0.741950	-0.385532	-0.386849	-0.033017	24.437	-0.384519	-80295.7	4.111957E-7	NaN
263	1.000000	0.753271	7.36763e+06	-51789.1	955.817	-29751.4	0.000000	0.000000	6.753035	-0.099009	NaN	0.000000	0.001548	0.001701	28.0783	0.082187	0.001995	41.1972	54.59	14.9017	-0.109819	0.751890	-0.375528	-0.376909	-0.099009	41.1972	-0.373726	-56201.1	1.761693E-6	NaN
263	1.000000	0.763292	7.36763e+06	-51789.1	955.819	-29751.4	0.000000	0.000000	6.763058	-0.060619	NaN	0.000000	0.001565	0.001715	28.078	0.065703	0.002088	31.4725	84.8022	-165.625	0.006903	0.761976	-0.365507	-0.366824	-0.060619	31.4725	-0.364063	-40787.7	1.486205E-6	NaN
263	1.000000	0.773248	7.36763e+06	-51789.1	955.819	-29751.4	0.000000	0.000000	6.773013	-0.063160	NaN	0.000000	0.001561	0.001696	28.0782	0.053132	0.001919	27.6846	-143.065	16.798	-0.114561	0.771946	-0.355552	-0.356853	-0.063160	27.6846	-0.353841	-29020.1	2.176438E-6	NaN
263	1.000000	0.783256	7.36763e+06	-51789.1	955.817	-29751.4	0.000000	0.000000	6.783022	-0.048289	NaN	0.000000	0.001529	0.001653	28.0781	0.035004	0.001895	18.4686	-58.8188	-164.876	-0.044186	0.782006	-0.345543	-0.346793	-0.048289	18.4686	-0.343582	-20593.5	2.344861E-6	NaN
263	1.000000	0.793310	7.36763e+06	-51789.1	955.817	-29751.4	0.000000	0.000000	6.793078	-0.019697	NaN	0.000000	0.001540	0.001653	28.0781	0.058730	0.001904	30.839	-91.8099	14.1533	-0.006423	0.791922	-0.335489	-0.336877	-0.019697	30.839	-0.335010	-15443.1	1.275443E-6	NaN
263	1.000000	0.803334	7.36763e+06	-51789.1	955.818	-29751.4	0.000000	0.000000	6.803103	0.020117	NaN	0.000000	0.001557	0.001670	28.0782	0.125381	0.001947	64.3964	-142.913	-167.259	0.032240	0.801989	-0.325465	-0.326811	0.020117	64.3964	-0.325700	-11282.5	-1.783006E-6	NaN
263	1.000000	0.813315	7.36763e+06	-51789.1	955.819	-29751.4	0.000000	0.000000	6.813081	-0.045163	NaN	0.000000	0.001534	0.001689	28.0781	0.055167	0.001986	27.7779	32.3539	14.8039	-0.026480	0.811978	-0.315484	-0.316821	-0.045163	27.7779	-0.314265	-7657.71	5.897778E-6	NaN
263	1.000000	0.823322	7.36763e+06	-51789.1	955.818	-29751.4	0.000000	0.000000	6.823092	0.036048	NaN	0.000000	0.001566	0.001680	28.0779	0.029147	0.001993	14.6216	3.735465	-166.898	0.010188	0.822030	-0.305477	-0.306769	0.036048	14.6216	-0.307326	-6045.86	-5.962423E-6	NaN
263	1.000000	0.833315	7.36763e+06	-51789.1	955.818	-29751.4	0.000000	0.000000	6.833080	-0.070791	NaN	0.000000	0.001567	0.001647	28.0794	0.089200	0.002059	43.3169	34.4533	15.1994	-0.040073	0.831942	-0.295485	-0.296858	-0.070791	43.3169	-0.294259	-3863.86	1.832135E-5	NaN
263	1.000000	0.843320	7.36763e+06	-51789.1	955.818	-29751.4	0.000000	0.000000	6.843087	-0.021443	NaN	0.000000	0.001542	0.001683	28.0794	0.112297	0.001973	56.9135	72.4986	-161.505	-0.052632	0.842027	-0.285480	-0.286773	-0.021443	56.9135	-0.285197	-2826.38	7.586746E-6	NaN
263	1.000000	0.853363	7.36763e+06	-51789.1	955.818	-29751.4	0.000000	0.000000	6.853128	-0.065524	NaN	0.000000	0.001561	0.001673	28.0794	0.090281	0.002034	44.3791	-153.051	14.5239	-0.057688	0.851995	-0.275436	-0.276805	-0.065524	44.3791	-0.274329	-1937.48	3.381891E-5	NaN
263	1.000000	0.863319	7.36763e+06	-51789.1	955.818	-29751.4	0.000000	0.000000	6.863088	0.011644	NaN	0.000000	0.001559	0.001709	28.0793	0.037855	0.002063	18.3518	-122.928	-165.048	-0.023667	0.862000	-0.265480	-0.266800	0.011644	18.3518	-0.265956	-1445.35	-8.056158E-6	NaN
263	1.000000	0.873319	7.36763e+06	-51789.1	955.819	-29751.4	0.000000	0.000000	6.873088	0.024677	NaN	0.000000	0.001571	0.001695	28.0793	0.079237	0.001924	41.1927	115.595	12.4652	0.111914	0.871958	-0.255481	-0.256841	0.024677	41.1927	-0.255930	-1014.91	-2.431476E-5	NaN
263	1.000000	0.883348	7.36763e+06	-51789.1	955.818	-29751.4	0.000000	0.000000	6.883117	-0.002965	NaN	0.000000	0.001543	0.001714	28.0795	0.042331	0.001951	21.7021	36.6454	-164.201	0.079675	0.882040	-0.245451	-0.246760	-0.002965	21.7021	-0.245348	-696.411	4.257928E-6	NaN
263	1.000000	0.893369	7.36763e+06	-51789.1	955.819	-29751.4	0.000000	0.000000	6.893137	-0.023076	NaN	0.000000	0.001583	0.001696	28.0794	0.018534	0.002007	9.232923	36.8	14.1931	0.058216	0.891996	-0.235430	-0.236803	-0.023076	9.232923	-0.233555	-455.561	5.065432E-5	NaN
263	1.000000	0.903337	7.36763e+06	-51789.1	955.818	-29751.4	0.000000	0.000000	6.903106	0.030829	NaN	0.000000	0.001537	0.001664	28.0792	0.078484	0.002064	38.0326	-25.5643	-162.715	0.057425	0.902043	-0.225463	-0.226756	0.030829	38.0326	-0.226071	-347	-8.884521E-5	NaN
263	1.000000	0.913358	7.36763e+06	-51789.1	955.818	-29751.4	0.000000	0.000000	6.913126	-0.012062	NaN	0.000000	0.001571	0.001698	28.0792	0.029736	0.001861	15.9759	-140.574	18.4111	0.011686	0.911948	-0.215441	-0.216852	-0.012062	15.9759	-0.214875	-229.878	5.247263E-5	NaN
263	1.000000	0.923360	7.36763e+06	-51789.1	955.817	-29751.4	0.000000	0.000000	6.923127	-0.023150	NaN	0.000000	0.001574	0.001712	28.0797	0.022904	0.002004	11.4315	-69.5966	-169.786	0.011285	0.922012	-0.205439	-0.206787	-0.023150	11.4315	-0.203920	-152.733	0.000152	NaN
263	1.000000	0.933339	7.36763e+06	-51789.1	955.818	-29751.4	0.000000	0.000000	6.933107	-0.010013	NaN	0.000000	0.001569	0.001679	28.0792	0.089910	0.001883	47.7495	-17.6732	17.2423	-0.048554	0.931956	-0.195460	-0.196844	-0.010013	47.7495	-0.195303	-110.21	9.085192E-5	NaN
263	1.000000	0.943354	7.36763e+06	-51789.1	955.818	-29751.4	0.000000	0.000000	6.943122	0.002152	NaN	0.000000	0.001577	0.001637	28.0799	0.136582	0.001915	71.308	-124.81	-164.563	0.066658	0.942043	-0.185445	-0.186756	0.002152	71.308	-0.185468	-75.5117	-2.850486E-5	NaN
263	1.000000	0.953338	7.36763e+06	-51789.1	955.819	-29751.4	0.000000	0.000000	6.953107	0.014827	NaN	0.000000	0.001585	0.001604	28.0792	0.066333	0.002113	31.3957	0.444345	16.1838	-0.070052	0.952049	-0.175461	-0.176751	0.014827	31.3957	-0.175816	-51.7586	-0.000286	NaN
263	1.000000	0.963372	7.36763e+06	-51789.1	955.818	-29751.4	0.000000	0.000000	6.963139	-0.040166	NaN	0.000000	0.001601	0.001637	28.0798	0.065198	0.001921	33.9408	-112.123	-164.403	-0.014187	0.962091	-0.165427	-0.166708	-0.040166	33.9408	-0.164539	-32.9772	0.001218	NaN
263	1.000000	0.973356	7.36763e+06	-51789.1	955.818	-29751.4	0.000000	0.000000	6.973121	-0.067369	NaN	0.000000	0.001538	0.001609	28.0778	0.050798	0.001868	27.1915	161.818	11.9949	-0.092580	0.972007	-0.155443	-0.156792	-0.067369	27.1915	-0.153585	-21.0414	0.003202	NaN
263	1.000000	0.983383	7.36763e+06	-51789.1	955.819	-29751.4	0.000000	0.000000	6.983151	-0.003376	NaN	0.000000	0.001578	0.001627	28.0783	0.081229	0.002101	38.6655	147.282	-167.823	0.021425	0.982049	-0.145416	-0.146750	-0.003376	38.6655	-0.145351	-14.8818	0.000227	NaN
263	1.000000	0.993353	7.36763e+06	-51789.1	955.819	-29751.4	0.000000	0.000000	6.993117	-0.098584	NaN	0.000000	0.001544	0.001637	28.0781	0.070841	0.002100	33.7258	3.796064	16.0206	0.039492	0.992019	-0.135446	-0.136780	-0.098584	33.7258	-0.133254	-8.807621	0.011193	NaN
263	1.000000	1.003394	7.36763e+06	-51789.1	955.818	-29751.4	0.000000	0.000000	7.003162	-0.003908	NaN	0.000000	0.001545	0.001663	28.0784	0.064855	0.001963	33.0374	133.349	-165.553	0.045073	1.002034	-0.125405	-0.126765	-0.003908	33.0374	-0.125316	-6.169452	0.000633	NaN
263	1.000000	1.013381	7.36763e+06	-51789.1	955.82	-29751.4	0.000000	0.000000	7.013148	-0.035815	NaN	0.000000	0.001544	0.001715	28.0779	0.060728	0.001970	30.8343	-51.5055	14.106	-0.045186	1.012071	-0.115418	-0.116728	-0.035815	30.8343	-0.114547	-3.738971	0.009579	NaN
263	1.000000	1.023388	7.36763e+06	-51789.1	955.818	-29751.4	0.000000	0.000000	7.023153	-0.081958	NaN	0.000000	0.001541	0.001696	28.0785	0.108011	0.001996	54.1007	175.02	-163.424	-0.101731	1.022149	-0.105411	-0.106651	-0.081958	54.1007	-0.104275	-2.267202	0.036149	NaN
263	1.000000	1.033395	7.36763e+06	-51789.1	955.82	-29751.4	0.000000	0.000000	7.033161	-0.055015	NaN	0.000000	0.001575	0.001673	28.078	0.085660	0.002004	42.736	35.1615	15.1267	-0.079590	1.032024	-0.095405	-0.096775	-0.055015	42.736	-0.094439	-1.369674	0.040166	NaN
263	1.000000	1.043387	7.36763e+06	-51789.1	955.82	-29751.4	0.000000	0.000000	7.043151	-0.124301	NaN	0.000000	0.001570	0.001665	28.0782	0.107922	0.001991	54.1933	64.37	-164.768	0.023174	1.042015	-0.085412	-0.086784	-0.124301	54.1933	-0.083692	-0.763628	0.162777	NaN
263	1.000000	1.053369	7.36763e+06	-51789.1	955.818	-29751.4	0.000000	0.000000	7.053132	-0.124342	NaN	0.000000	0.001676	0.001670	28.0781	0.028770	0.002002	14.369	43.1691	12.9815	-0.071423	1.052037	-0.075430	-0.076762	-0.124342	14.369	-0.068940	-0.319440	0.389250	NaN
263	1.000000	1.063409	7.36763e+06	-51789.1	955.818	-29751.4	0.000000	0.000000	7.063178	0.035644	NaN	0.000000	0.001630	0.001670	28.0783	0.090244	0.001947	46.3468	-145.98	-162.849	-0.001875	1.062132	-0.065391	-0.066667	0.035644	46.3468	-0.065968	-0.265049	-0.134482	NaN
263	1.000000	1.073401	7.36763e+06	-51789.1	955.819	-29751.4	0.000000	0.000000	7.073167	-0.044481	NaN	0.000000	0.001634	0.001602	28.0782	0.043926	0.001991	22.064	-153.959	16.6106	-0.038498	1.072006	-0.055398	-0.056793	-0.044481	22.064	-0.053886	-0.119351	0.372694	NaN
263	1.000000	1.083412	7.36763e+06	-51789.1	955.819	-29751.4	0.000000	0.000000	7.083180	-0.010501	NaN	0.000000	0.001627	0.001633	28.0782	0.071076	0.002095	33.921	-145.542	-169.921	0.041866	1.082026	-0.045387	-0.046773	-0.010501	33.921	-0.045155	-0.064973	0.161625	NaN
263	1.000000	1.093406	7.36763e+06	-51789.1	955.821	-29751.4	0.000000	0.000000	7.093171	-0.059698	NaN	0.000000	0.001674	0.001644	28.0779	0.146236	0.002083	70.2099	125.775	11.5083	-0.093481	1.092066	-0.035394	-0.036734	-0.059698	70.2099	-0.034756	-0.031499	1.895216	NaN
263	1.000000	1.103421	7.36763e+06	-51789.1	955.82	-29751.4	0.000000	0.000000	7.103188	-0.031996	NaN	0.000000	0.001605	0.001636	28.079	0.025263	0.002062	12.2543	-94.9187	-161.267	-0.077940	1.102162	-0.025379	-0.026637	-0.031996	12.2543	-0.023420	-0.015353	2.083970	NaN
263	1.000000	1.113405	7.36763e+06	-51789.1	955.819	-29751.4	0.000000	0.000000	7.113168	-0.114696	NaN	0.000000	0.001634	0.001689	28.0795	0.075523	0.001916	39.4127	-170.146	14.6712	-0.000216	1.112070	-0.015394	-0.016729	-0.114696	39.4127	-0.013212	-0.008225	13.9453	NaN
263	1.000000	1.123452	7.36763e+06	-51789.1	955.819	-29751.4	0.000000	0.000000	7.123217	-0.076797	NaN	0.000000	0.001623	0.001689	28.0795	0.097255	0.002019	48.1721	-56.5988	-165.03	0.022116	1.122141	-0.005347	-0.006658	-0.076797	48.1721	-0.004151	-0.002877	26.6968	NaN
263	1.000000	1.133433	7.36763e+06	-51789.1	955.819	-29751.4	0.000000	0.000000	7.133292	2.207776	NaN	0.000000	0.001616	0.001643	28.0794	3.001607	0.001892	1586.53	8.715327	12.1894	1.238787	1.132010	0.004633	0.003210	2.207776	1586.53	0.003590	0.002882	765.981	26999.3
263	2.000000	1.141046	7.36763e+06	-51789.1	955.818	-29751.4	0.000000	0.000000	7.141156	8.304621	NaN	0.000000	0.001621	0.001655	28.0796	9.434799	0.001671	5645.31	4.686118	-169.9	8.052542	1.140704	0.012246	0.011905	8.304621	5645.31	0.011143	0.010480	792.441	50383.1
263	2.000000	1.143505	7.36763e+06	-51789.1	955.819	-29751.4	0.000000	0.000000	7.143778	12.2678	NaN	0.000000	0.001630	0.001658	28.0799	12.746	0.001704	7482.05	8.450164	3.482809	11.6081	1.143117	0.014706	0.014318	12.2678	7482.05	0.013476	0.013307	921.933	59259.7
263	2.000000	1.145962	7.36763e+06	-51789.1	955.819	-29751.4	0.000000	0.000000	7.146361	15.3321	NaN	0.000000	0.001649	0.001650	28.0795	15.3499	0.001760	8723.96	7.189837	-175.998	14.6481	1.145718	0.017163	0.016918	15.3321	8723.96	0.015845	0.016429	933.255	62185
263	2.000000	1.148508	7.36763e+06	-51789.1	955.821	-29751.4	0.000000	0.000000	7.149068	19.2435	NaN	0.000000	0.001663	0.001693	28.0798	17.7143	0.001704	10394	6.939319	3.756790	18.5712	1.148075	0.019709	0.019275	19.2435	10394	0.018320	0.019972	963.55	67196.9
263	2.000000	1.150974	7.36763e+06	-51789.1	955.821	-29751.4	0.000000	0.000000	7.151662	22.3817	NaN	0.000000	0.001623	0.001692	28.0795	20.3204	0.001802	11277.9	8.392031	-177.764	22.9676	1.150649	0.022174	0.021850	22.3817	11277.9	0.020686	0.023632	947.102	67027.6
263	2.000000	1.153468	7.36763e+06	-51789.1	955.819	-29751.4	0.000000	0.000000	7.154360	27.3103	NaN	0.000000	0.001641	0.001659	28.0797	23.2306	0.001949	11920.9	8.310077	1.581035	27.9432	1.153091	0.024669	0.024292	27.3103	11920.9	0.022951	0.027393	996.992	65805.7
263	2.000000	1.155928	7.36763e+06	-51789.1	955.82	-29751.4	0.000000	0.000000	7.157023	32.2679	NaN	0.000000	0.001661	0.001691	28.0794	25.8247	0.002012	12832.3	6.093476	-177.316	31.8937	1.155669	0.027128	0.026870	32.2679	12832.3	0.025242	0.031458	1025.74	66101.2
263	2.000000	1.158459	7.36763e+06	-51789.1	955.819	-29751.4	0.000000	0.000000	7.159795	38.1317	NaN	0.000000	0.001650	0.001676	28.0796	27.263	0.001857	14680.5	7.970396	0.268380	37.456	1.158047	0.029660	0.029248	38.1317	14680.5	0.027712	0.036134	1055.29	70559.6
263	2.000000	1.160919	7.36763e+06	-51789.1	955.821	-29751.4	0.000000	0.000000	7.162473	43.4057	NaN	0.000000	0.001678	0.001657	28.0796	29.2377	0.001764	16570.5	5.262568	-179.008	43.2971	1.160601	0.032120	0.031802	43.4057	16570.5	0.030155	0.041067	1056.96	74707.8
263	2.000000	1.163455	7.36763e+06	-51789.1	955.82	-29751.4	0.000000	0.000000	7.165096	45.5386	NaN	0.000000	0.001655	0.001667	28.0797	31.3806	0.001757	17859.1	2.229305	3.306537	45.4876	1.163141	0.034656	0.034342	45.5386	17859.1	0.032744	0.046622	976.754	75567.7
263	2.000000	1.165931	7.36763e+06	-51789.1	955.821	-29751.4	0.000000	0.000000	7.167929	54.2214	NaN	0.000000	0.001680	0.001669	28.0782	33.896	0.001835	18472.8	4.826253	-178.865	54.0716	1.165577	0.037131	0.036777	54.2214	18472.8	0.034930	0.051583	1051.15	74310.8
263	2.000000	1.168461	7.36763e+06	-51789.1	955.822	-29751.4	0.000000	0.000000	7.170684	59.6855	NaN	0.000000	0.001690	0.001671	28.0786	36.4033	0.001859	19579.2	8.935031	-3.881708	60.2303	1.168044	0.039662	0.039244	59.6855	19579.2	0.037375	0.057421	1039.43	74650.5
263	2.000000	1.170889	7.36763e+06	-51789.1	955.82	-29751.4	0.000000	0.000000	7.173537	70.0275	NaN	0.000000	0.001642	0.001675	28.0784	37.0028	0.001760	21021.8	2.468052	-177.785	69.2236	1.170584	0.042089	0.041785	70.0275	21021.8	0.039591	0.062976	1111.98	76534.6
263	2.000000	1.173387	7.36763e+06	-51789.1	955.821	-29751.4	0.000000	0.000000	7.176254	75.3536	NaN	0.000000	0.001676	0.001673	28.0783	40.3482	0.001625	24827	4.455075	-2.491699	73.3628	1.173130	0.044588	0.044330	75.3536	24827	0.042311	0.070138	1074.37	85648.9
263	2.000000	1.175880	7.36763e+06	-51789.1	955.821	-29751.4	0.000000	0.000000	7.179076	83.3401	NaN	0.000000	0.001662	0.001613	28.0782	44.5918	0.001967	22675.1	1.315599	-178.096	81.911	1.175622	0.047081	0.046822	83.3401	22675.1	0.044324	0.075680	1101.22	75306.5
263	2.000000	1.178424	7.36763e+06	-51789.1	955.82	-29751.4	0.000000	0.000000	7.182199	97.4252	NaN	0.000000	0.001678	0.001615	28.0794	46.5771	0.001745	26698.2	5.843908	-2.898112	97.8817	1.178027	0.049625	0.049228	97.4252	26698.2	0.046888	0.083038	1173.27	84648.3
263	2.000000	1.180955	7.36763e+06	-51789.1	955.82	-29751.4	0.000000	0.000000	7.184973	103.33	NaN	0.000000	0.001640	0.001632	28.0785	48.5503	0.001835	26455.3	3.728273	178.51	107.137	1.180635	0.052156	0.051836	103.33	26455.3	0.049227	0.090038	1147.62	80551.3
263	2.000000	1.183385	7.36763e+06	-51789.1	955.822	-29751.4	0.000000	0.000000	7.187771	112.279	NaN	0.000000	0.001642	0.001594	28.0784	51.0631	0.001848	27624.7	1.347171	0.811676	110.087	1.182944	0.054586	0.054145	112.279	27624.7	0.051538	0.097226	1154.83	80943.2
263	2.000000	1.185851	7.36763e+06	-51789.1	955.822	-29751.4	0.000000	0.000000	7.190646	122.239	NaN	0.000000	0.001654	0.001639	28.0783	54.0939	0.001908	28347.8	3.747400	178.017	120.184	1.185534	0.057052	0.056735	122.239	28347.8	0.053818	0.104577	1168.89	80089.2
263	2.000000	1.188365	7.36763e+06	-51789.1	955.821	-29751.4	0.000000	0.000000	7.193914	140.552	NaN	0.000000	0.001589	0.001685	28.079	54.6663	0.001764	30990.4	1.031792	0.366037	136.861	1.187983	0.059566	0.059184	140.552	30990.4	0.056164	0.112415	1250.3	84447.8
263	2.000000	1.190846	7.36763e+06	-51789.1	955.822	-29751.4	0.000000	0.000000	7.196749	149.169	NaN	0.000000	0.001590	0.001613	28.0782	57.9646	0.001913	30297.6	5.000124	176.029	147.621	1.190563	0.062046	0.061763	149.169	30297.6	0.058354	0.119972	1243.37	79917.7
263	2.000000	1.193308	7.36763e+06	-51789.1	955.821	-29751.4	0.000000	0.000000	7.199300	151.354	NaN	0.000000	0.001578	0.001640	28.0786	60.4317	0.001818	33233	4.464935	-4.760493	145.969	1.192993	0.064508	0.064194	151.354	33233	0.061092	0.129755	1166.46	84291
263	2.000000	1.195841	7.36763e+06	-51789.1	955.82	-29751.4	0.000000	0.000000	7.202394	164.977	NaN	0.000000	0.001610	0.001662	28.0782	62.9568	0.001901	33114.2	3.795610	175.91	161.615	1.195563	0.067042	0.066764	164.977	33114.2	0.063305	0.137926	1196.13	81463.7
263	2.000000	1.198376	7.36763e+06	-51789.1	955.82	-29751.4	0.000000	0.000000	7.205585	180.917	NaN	0.000000	0.001628	0.001653	28.0788	64.6063	0.001850	34924.7	4.129860	-2.904643	180.669	1.197926	0.069577	0.069127	180.917	34924.7	0.065692	0.147006	1230.68	83222.2
263	2.000000	1.200785	7.36763e+06	-51789.1	955.821	-29751.4	0.000000	0.000000	7.208288	188.068	NaN	0.000000	0.001616	0.001657	28.0794	66.5423	0.001754	37927.8	4.991299	173.709	183.836	1.200570	0.071986	0.071771	188.068	37927.8	0.068267	0.157110	1197.05	87423.6
263	2.000000	1.203346	7.36763e+06	-51789.1	955.82	-29751.4	0.000000	0.000000	7.211399	201.461	NaN	0.000000	0.001581	0.001648	28.0797	70.1876	0.001789	39223.4	3.978807	-5.071923	198.577	1.202987	0.074547	0.074188	201.461	39223.4	0.070694	0.166924	1206.9	87712
263	2.000000	1.205912	7.36763e+06	-51789.1	955.819	-29751.4	0.000000	0.000000	7.214269	208.834	NaN	0.000000	0.001600	0.001659	28.0795	72.8671	0.001889	38565.7	2.783334	176.263	209.668	1.205720	0.077113	0.076921	208.834	38565.7	0.073052	0.176722	1181.71	83816.2
263	2.000000	1.208393	7.36763e+06	-51789.1	955.819	-29751.4	0.000000	0.000000	7.217529	227.783	NaN	0.000000	0.001551	0.001631	28.0799	74.398	0.001780	41802.1	5.385286	-6.335825	227.384	1.207995	0.079593	0.079196	227.783	41802.1	0.075507	0.187206	1216.75	88269.5
263	2.000000	1.210769	7.36763e+06	-51789.1	955.819	-29751.4	0.000000	0.000000	7.220335	238.23	NaN	0.000000	0.001517	0.001684	28.0794	75.3926	0.001754	42988.3	1.601808	176.577	232.264	1.210474	0.081970	0.081675	238.23	42988.3	0.077813	0.197316	1207.35	88418.3
263	2.000000	1.213289	7.36763e+06	-51789.1	955.819	-29751.4	0.000000	0.000000	7.223478	253.391	NaN	0.000000	0.001581	0.001679	28.0794	77.9926	0.001802	43285.8	3.524715	-4.842897	248.47	1.212916	0.084489	0.084117	253.391	43285.8	0.080099	0.207577	1220.71	86801.8
263	2.000000	1.215834	7.36763e+06	-51789.1	955.82	-29751.4	0.000000	0.000000	7.226427	263.22	NaN	0.000000	0.001540	0.001654	28.0794	81.1436	0.001761	46067.8	2.165723	175.373	261.926	1.215565	0.087034	0.086766	263.22	46067.8	0.082749	0.219781	1197.65	89779.1
263	2.000000	1.218355	7.36763e+06	-51789.1	955.82	-29751.4	0.000000	0.000000	7.229890	286.118	NaN	0.000000	0.001508	0.001678	28.0796	84.4794	0.001821	46389.8	10.9998	-12.9491	284.357	1.217995	0.089556	0.089195	286.118	46389.8	0.084930	0.230069	1243.62	88362.4
263	2.000000	1.220732	7.36763e+06	-51789.1	955.82	-29751.4	0.000000	0.000000	7.232759	298.079	NaN	0.000000	0.001564	0.001641	28.0793	85.3059	0.001800	47382.8	4.015297	174.078	292.455	1.220485	0.091933	0.091685	298.079	47382.8	0.087214	0.241079	1236.44	88168.7
263	2.000000	1.223332	7.36763e+06	-51789.1	955.818	-29751.4	0.000000	0.000000	7.236084	315.725	NaN	0.000000	0.001546	0.001653	28.0792	87.475	0.001769	49456.6	4.384609	-6.557895	311.265	1.222902	0.094532	0.094103	315.725	49456.6	0.089744	0.253552	1245.21	89735.4
263	2.000000	1.225836	7.36763e+06	-51789.1	955.82	-29751.4	0.000000	0.000000	7.239086	327.825	NaN	0.000000	0.001573	0.001657	28.0792	90.2857	0.001754	51465	3.289538	174.196	326.535	1.225485	0.097037	0.096686	327.825	51465	0.092259	0.266244	1231.29	91126.5
263	2.000000	1.228261	7.36763e+06	-51789.1	955.82	-29751.4	0.000000	0.000000	7.241897	337.204	NaN	0.000000	0.001536	0.001632	28.0793	91.8139	0.001847	49696.6	2.516903	-5.169524	329.194	1.228026	0.099462	0.099226	337.204	49696.6	0.094373	0.277132	1216.76	86249.5
263	2.000000	1.230883	7.36763e+06	-51789.1	955.819	-29751.4	0.000000	0.000000	7.245172	353.08	NaN	0.000000	0.001574	0.001686	28.0792	94.9747	0.001766	53776.2	3.826319	173.25	357.149	1.230556	0.102084	0.101757	353.08	53776.2	0.097160	0.291803	1210	90953.3
263	2.000000	1.233458	7.36763e+06	-51789.1	955.82	-29751.4	0.000000	0.000000	7.248198	364.06	NaN	0.000000	0.001570	0.001702	28.0783	97.55	0.001718	56793.9	6.538967	-9.382863	369.024	1.232994	0.104659	0.104195	364.06	56793.9	0.099851	0.306306	1188.55	93755.6
263	2.000000	1.235897	7.36763e+06	-51789.1	955.82	-29751.4	0.000000	0.000000	7.251304	380.269	NaN	0.000000	0.001563	0.001646	28.0781	99.5669	0.001762	56507.6	1.685384	174.876	383.744	1.235586	0.107098	0.106786	380.269	56507.6	0.102051	0.318404	1194.3	91493.6
263	2.000000	1.238345	7.36763e+06	-51789.1	955.819	-29751.4	0.000000	0.000000	7.254787	405.424	NaN	0.000000	0.001540	0.001645	28.078	102.189	0.001734	58927.4	5.337578	-9.029615	403.912	1.237986	0.109546	0.109187	405.424	58927.4	0.104386	0.331487	1223.04	93509.8
263	2.000000	1.238838	7.36763e+06	-51789.1	955.819	-29751.4	0.000000	0.000000	7.255350	407.129	NaN	0.000000	0.001557	0.001645	28.0784	102.991	0.001832	56227.6	4.200325	172.47	406.858	1.238509	0.110039	0.109710	407.129	56227.6	0.104609	0.332749	1223.53	89056.1