File: remote_trans/data/nanoindenter/0828-1/data/Data_2025-08-06,11h17m57s/2025-07-22_16-23-58_1_706.txt
2025-07-22, 16:23:58, 1
Index	Phase	Displacement	Time	Pos X	Pos Y	Pos Z	Rot A	Rot B	Piezo Z	Force A	Force B	Gripper	Voltage A	Voltage B	Temperature	Amplitude force	Amplitude pos	Stiffness	Phase shift	Phase excitation	Force A raw	Displacement raw	HMax	HMax raw	Real Force	Real Stiffness	Contact Depth	Area	Hardness	Reduced Mod.
[#]	[#]	[um]	[s]	[um]	[um]	[um]	[m°]	[m°]	[um]	[uN]	[uN]	[V]	[V]	[V]	[°C]	[uN]	[um]	[N/m]	[°]	[°]	[uN]	[um]	[um]	[um]	[uN]	[N/m]	[um]	[um^2]	[MPa]	[MPa]
706	1.000000	0.002350	7.37196e+06	-41789.1	1005.82	-29784.4	0.000000	0.000000	6.002784	-0.077573	NaN	0.000000	0.001678	0.001768	28.0812	0.018358	0.001072	17.1183	94.0087	-163.135	-0.058438	0.001090	-1.740646	-1.741906	-0.077573	17.1183	-1.737247	-1.589056E+23	4.881720E-25	NaN
706	1.000000	0.014359	7.37196e+06	-41789.1	1005.82	-29784.4	0.000000	0.000000	6.014793	-0.070124	NaN	0.000000	0.001691	0.001774	28.0812	0.017938	0.001606	11.1679	-43.7725	-165.742	-0.016617	0.013184	-1.728637	-1.729812	-0.070124	11.1679	-1.723928	-1.057456E+23	6.631342E-25	NaN
706	1.000000	0.026349	7.37196e+06	-41789.1	1005.82	-29784.4	0.000000	0.000000	6.026788	0.035246	NaN	0.000000	0.001725	0.001740	28.0811	0.069903	0.001747	40.014	42.4277	-169.306	0.038453	0.024976	-1.716648	-1.718021	0.035246	40.014	-1.717308	-8.636588E+22	-4.080961E-25	NaN
706	1.000000	0.038314	7.37196e+06	-41789.1	1005.82	-29784.4	0.000000	0.000000	6.038753	0.031442	NaN	0.000000	0.001743	0.001758	28.0809	0.065133	0.001899	34.3007	59.6162	-167.282	-0.009365	0.037050	-1.704682	-1.705946	0.031442	34.3007	-1.705370	-5.994702E+22	-5.244910E-25	NaN
706	1.000000	0.050291	7.37196e+06	-41789.1	1005.82	-29784.4	0.000000	0.000000	6.050724	-0.103430	NaN	0.000000	0.001684	0.001815	28.0819	0.058791	0.002031	28.9441	63.4574	-166.889	-0.122796	0.048955	-1.692705	-1.694041	-0.103430	28.9441	-1.690025	-3.749063E+22	2.758835E-24	NaN
706	1.000000	0.062310	7.37196e+06	-41789.1	1005.82	-29784.4	0.000000	0.000000	6.062746	-0.032837	NaN	0.000000	0.001742	0.001807	28.0825	0.095728	0.002033	47.0901	-87.5408	-165.417	-0.054245	0.060975	-1.680686	-1.682021	-0.032837	47.0901	-1.680163	-2.772583E+22	1.184342E-24	NaN
706	1.000000	0.074316	7.37196e+06	-41789.1	1005.82	-29784.4	0.000000	0.000000	6.074757	0.083808	NaN	0.000000	0.001702	0.001786	28.0823	0.083578	0.001930	43.309	-5.563550	-166.961	0.098597	0.073043	-1.668680	-1.669953	0.083808	43.309	-1.670131	-2.039797E+22	-4.108655E-24	NaN
706	1.000000	0.086306	7.37196e+06	-41789.1	1005.82	-29784.4	0.000000	0.000000	6.086740	-0.069361	NaN	0.000000	0.001641	0.001826	28.0823	0.109942	0.002001	54.9496	6.334278	-165.391	-0.064894	0.085011	-1.656691	-1.657986	-0.069361	54.9496	-1.655744	-1.313338E+22	5.281288E-24	NaN
706	1.000000	0.098319	7.37196e+06	-41789.1	1005.82	-29784.4	0.000000	0.000000	6.098754	-0.042621	NaN	0.000000	0.001599	0.001786	28.0822	0.056091	0.002014	27.8531	161.938	-165.922	-0.016034	0.096955	-1.644677	-1.646041	-0.042621	27.8531	-1.643530	-9.037024E+21	4.716267E-24	NaN
706	1.000000	0.110317	7.37196e+06	-41789.1	1005.82	-29784.4	0.000000	0.000000	6.110754	0.002448	NaN	0.000000	0.001630	0.001780	28.0824	0.049414	0.001873	26.3815	-129.44	-163.989	0.125754	0.109021	-1.632680	-1.633975	0.002448	26.3815	-1.632749	-6.496941E+21	-3.767553E-25	NaN
706	1.000000	0.122311	7.37196e+06	-41789.1	1005.82	-29784.4	0.000000	0.000000	6.122748	0.001208	NaN	0.000000	0.001565	0.001815	28.0824	0.115264	0.002090	55.1547	155.556	-165.586	0.015751	0.121014	-1.620685	-1.621982	0.001208	55.1547	-1.620702	-4.492917E+21	-2.688261E-25	NaN
706	1.000000	0.134335	7.37196e+06	-41789.1	1005.82	-29784.4	0.000000	0.000000	6.134775	0.055952	NaN	0.000000	0.001624	0.001760	28.0823	0.125560	0.001997	62.8769	23.984	-167.744	0.034813	0.133034	-1.608661	-1.609962	0.055952	62.8769	-1.609329	-3.171693E+21	-1.764109E-23	NaN
706	1.000000	0.146318	7.37196e+06	-41789.1	1005.82	-29784.4	0.000000	0.000000	6.146757	0.042141	NaN	0.000000	0.001624	0.001783	28.0822	0.137156	0.002080	65.9411	155.154	-167.495	-0.040553	0.144991	-1.596678	-1.598006	0.042141	65.9411	-1.597157	-2.184827E+21	-1.928799E-23	NaN
706	1.000000	0.158336	7.37196e+06	-41789.1	1005.82	-29784.4	0.000000	0.000000	6.158777	0.074415	NaN	0.000000	0.001608	0.001793	28.0821	0.066395	0.002023	32.8247	-147.435	-166.21	0.111162	0.157047	-1.584660	-1.585949	0.074415	32.8247	-1.586360	-1.569627E+21	-4.740918E-23	NaN
706	1.000000	0.170366	7.37196e+06	-41789.1	1005.82	-29784.4	0.000000	0.000000	6.170802	-0.017820	NaN	0.000000	0.001636	0.001796	28.0823	0.082962	0.002056	40.3586	-37.5654	-164.07	0.017422	0.169035	-1.572631	-1.573961	-0.017820	40.3586	-1.572299	-1.020317E+21	1.746559E-23	NaN
706	1.000000	0.182384	7.37196e+06	-41789.1	1005.82	-29784.4	0.000000	0.000000	6.182819	-0.065251	NaN	0.000000	0.001605	0.001806	28.081	0.140597	0.002043	68.8214	116.328	-170.745	-0.052685	0.181057	-1.560612	-1.561939	-0.065251	68.8214	-1.559901	-6.978486E+20	9.350244E-23	NaN
706	1.000000	0.194344	7.37196e+06	-41789.1	1005.82	-29784.4	0.000000	0.000000	6.194783	0.029235	NaN	0.000000	0.001608	0.001790	28.081	0.016408	0.002076	7.903478	156.629	-164.736	-0.035598	0.193069	-1.548652	-1.549927	0.029235	7.903478	-1.551426	-5.382405E+20	-5.431635E-23	NaN
706	1.000000	0.206357	7.37196e+06	-41789.1	1005.82	-29784.4	0.000000	0.000000	6.206794	-0.008441	NaN	0.000000	0.001643	0.001757	28.0815	0.033644	0.002026	16.6099	-115.211	-162.73	0.060837	0.205011	-1.536639	-1.537986	-0.008441	16.6099	-1.536258	-3.381292E+20	2.496433E-23	NaN
706	1.000000	0.218347	7.37196e+06	-41789.1	1005.82	-29784.4	0.000000	0.000000	6.218783	-0.034828	NaN	0.000000	0.001649	0.001814	28.0811	0.060180	0.002095	28.7198	48.525	-164.915	-0.099699	0.217075	-1.524649	-1.525921	-0.034828	28.7198	-1.523739	-2.303718E+20	1.511833E-22	NaN
706	1.000000	0.230383	7.37196e+06	-41789.1	1005.82	-29784.4	0.000000	0.000000	6.230817	-0.076270	NaN	0.000000	0.001609	0.001802	28.0812	0.054373	0.001956	27.7969	-57.4258	-165.685	-0.072865	0.229089	-1.512613	-1.513908	-0.076270	27.7969	-1.510555	-1.537736E+20	4.959918E-22	NaN
706	1.000000	0.242399	7.37196e+06	-41789.1	1005.82	-29784.4	0.000000	0.000000	6.242840	0.068415	NaN	0.000000	0.001630	0.001819	28.081	0.064632	0.002049	31.5474	-139.482	-165.513	-0.024042	0.241062	-1.500597	-1.501934	0.068415	31.5474	-1.502223	-1.191031E+20	-5.744198E-22	NaN
706	1.000000	0.254407	7.37196e+06	-41789.1	1005.82	-29784.4	0.000000	0.000000	6.254844	0.002923	NaN	0.000000	0.001617	0.001823	28.0811	0.061369	0.002070	29.6531	157.869	-165.444	-0.090137	0.253039	-1.488589	-1.489957	0.002923	29.6531	-1.488663	-7.858060E+19	-3.719275E-23	NaN
706	1.000000	0.266398	7.37196e+06	-41789.1	1005.82	-29784.4	0.000000	0.000000	6.266838	0.059459	NaN	0.000000	0.001593	0.001811	28.0812	0.066716	0.001898	35.1525	20.296	-165.33	-0.021961	0.265049	-1.476599	-1.477947	0.059459	35.1525	-1.477867	-5.642756E+19	-1.053725E-21	NaN
706	1.000000	0.278412	7.37196e+06	-41789.1	1005.82	-29784.4	0.000000	0.000000	6.278850	0.021682	NaN	0.000000	0.001601	0.001819	28.0811	0.022683	0.002013	11.2669	-52.1284	-165.103	0.088331	0.277072	-1.464585	-1.465925	0.021682	11.2669	-1.466028	-3.924171E+19	-5.525223E-22	NaN
706	1.000000	0.290389	7.37196e+06	-41789.1	1005.82	-29784.4	0.000000	0.000000	6.290828	0.028140	NaN	0.000000	0.001585	0.001844	28.0813	0.090231	0.002075	43.4895	57.9943	-165.455	0.032126	0.289102	-1.452607	-1.453894	0.028140	43.4895	-1.453092	-2.638540E+19	-1.066492E-21	NaN
706	1.000000	0.302420	7.37196e+06	-41789.1	1005.82	-29784.4	0.000000	0.000000	6.302857	-0.013638	NaN	0.000000	0.001604	0.001795	28.0813	0.150081	0.002097	71.574	56.4764	-165.596	0.002074	0.301150	-1.440576	-1.441846	-0.013638	71.574	-1.440434	-1.789097E+19	7.622900E-22	NaN
706	1.000000	0.314415	7.37196e+06	-41789.1	1005.82	-29784.4	0.000000	0.000000	6.314849	-0.072379	NaN	0.000000	0.001607	0.001840	28.0811	0.051056	0.002029	25.163	-161.282	-164.205	0.020669	0.313153	-1.428581	-1.429843	-0.072379	25.163	-1.426424	-1.163759E+19	6.219410E-21	NaN
706	1.000000	0.326419	7.37196e+06	-41789.1	1005.82	-29784.4	0.000000	0.000000	6.326858	0.035744	NaN	0.000000	0.001644	0.001804	28.0824	0.032843	0.001916	17.145	74.966	-168.665	0.095252	0.325132	-1.416577	-1.417864	0.035744	17.145	-1.418141	-9.024203E+18	-3.960872E-21	NaN
706	1.000000	0.338422	7.37196e+06	-41789.1	1005.82	-29784.4	0.000000	0.000000	6.338860	0.010084	NaN	0.000000	0.001592	0.001840	28.0822	0.074190	0.001963	37.7896	154.791	-165.408	0.077707	0.337177	-1.404574	-1.405819	0.010084	37.7896	-1.404774	-5.986140E+18	-1.684629E-21	NaN
706	1.000000	0.350454	7.37196e+06	-41789.1	1005.82	-29784.4	0.000000	0.000000	6.350892	0.016623	NaN	0.000000	0.001628	0.001822	28.0825	0.087893	0.002021	43.4871	-26.6325	-167.513	-0.004531	0.349133	-1.392543	-1.393863	0.016623	43.4871	-1.392829	-4.147724E+18	-4.007685E-21	NaN
706	1.000000	0.362419	7.37196e+06	-41789.1	1005.82	-29784.4	0.000000	0.000000	6.362858	0.050735	NaN	0.000000	0.001599	0.001832	28.0821	0.063033	0.001895	33.2551	55.9408	-159.276	-0.046232	0.361140	-1.380578	-1.381857	0.050735	33.2551	-1.381722	-2.948606E+18	-1.720658E-20	NaN
706	1.000000	0.374434	7.37196e+06	-41789.1	1005.82	-29784.4	0.000000	0.000000	6.374872	0.009516	NaN	0.000000	0.001593	0.001804	28.0828	0.060520	0.001978	30.595	82.9949	-162.699	0.015263	0.373159	-1.368562	-1.369837	0.009516	30.595	-1.368795	-1.982052E+18	-4.801150E-21	NaN
706	1.000000	0.386462	7.37196e+06	-41789.1	1005.82	-29784.4	0.000000	0.000000	6.386899	-0.001032	NaN	0.000000	0.001586	0.001852	28.0824	0.023789	0.001938	12.2781	-17.9579	-166.374	-0.046541	0.385152	-1.356535	-1.357844	-0.001032	12.2781	-1.356472	-1.357139E+18	7.606976E-22	NaN
706	1.000000	0.398450	7.37196e+06	-41789.1	1005.82	-29784.4	0.000000	0.000000	6.398887	-0.003015	NaN	0.000000	0.001627	0.001852	28.0825	0.039878	0.001923	20.74	102.468	-168.484	-0.076023	0.397154	-1.344547	-1.345842	-0.003015	20.74	-1.344438	-9.374862E+17	3.215688E-21	NaN
706	1.000000	0.410471	7.37196e+06	-41789.1	1005.82	-29784.4	0.000000	0.000000	6.410907	-0.033162	NaN	0.000000	0.001602	0.001807	28.0824	0.022154	0.001932	11.4656	107.079	-168.035	-0.043961	0.409175	-1.332525	-1.333821	-0.033162	11.4656	-1.330356	-6.080284E+17	5.454055E-20	NaN
706	1.000000	0.422471	7.37196e+06	-41789.1	1005.82	-29784.4	0.000000	0.000000	6.422909	0.006865	NaN	0.000000	0.001610	0.001807	28.0824	0.066791	0.002028	32.9322	-159.736	-168.899	0.061640	0.421180	-1.320525	-1.321816	0.006865	32.9322	-1.320682	-4.515549E+17	-1.520324E-20	NaN
706	1.000000	0.434502	7.37196e+06	-41789.1	1005.82	-29784.4	0.000000	0.000000	6.434940	0.030958	NaN	0.000000	0.001625	0.001820	28.082	0.077850	0.001945	40.0292	-152.642	-164.567	0.069300	0.433135	-1.308495	-1.309861	0.030958	40.0292	-1.309075	-3.159740E+17	-9.797800E-20	NaN
706	1.000000	0.446509	7.37196e+06	-41789.1	1005.82	-29784.4	0.000000	0.000000	6.446947	-0.004988	NaN	0.000000	0.001599	0.001807	28.0821	0.073972	0.001877	39.4147	155.833	-168.116	0.026567	0.445132	-1.296487	-1.297865	-0.004988	39.4147	-1.296392	-2.138849E+17	2.332241E-20	NaN
706	1.000000	0.458485	7.37196e+06	-41789.1	1005.82	-29784.4	0.000000	0.000000	6.458919	-0.061171	NaN	0.000000	0.001583	0.001780	28.081	0.037608	0.001987	18.9305	52.0277	-171.29	-0.062313	0.457139	-1.284512	-1.285857	-0.061171	18.9305	-1.282088	-1.377210E+17	4.441695E-19	NaN
706	1.000000	0.470504	7.37196e+06	-41789.1	1005.82	-29784.4	0.000000	0.000000	6.470944	0.047946	NaN	0.000000	0.001610	0.001825	28.0807	0.048421	0.002090	23.1636	94.8653	-163.705	0.035671	0.469160	-1.272492	-1.273837	0.047946	23.1636	-1.274044	-1.075145E+17	-4.459453E-19	NaN
706	1.000000	0.482499	7.37196e+06	-41789.1	1005.82	-29784.4	0.000000	0.000000	6.482935	-0.012398	NaN	0.000000	0.001614	0.001809	28.081	0.071615	0.001846	38.7867	33.0081	-168.84	0.059620	0.481188	-1.260498	-1.261808	-0.012398	38.7867	-1.260258	-7.032660E+16	1.762986E-19	NaN
706	1.000000	0.494483	7.37196e+06	-41789.1	1005.82	-29784.4	0.000000	0.000000	6.494922	0.027311	NaN	0.000000	0.001637	0.001810	28.0811	0.034820	0.002119	16.4322	-81.5115	-166.959	-0.079803	0.493220	-1.248513	-1.249777	0.027311	16.4322	-1.249760	-5.089847E+16	-5.365705E-19	NaN
706	1.000000	0.506498	7.37196e+06	-41789.1	1005.82	-29784.4	0.000000	0.000000	6.506937	0.039134	NaN	0.000000	0.001602	0.001794	28.0808	0.105629	0.002074	50.9344	107.137	-166.817	-0.032188	0.505200	-1.236498	-1.237796	0.039134	50.9344	-1.237075	-3.443522E+16	-1.136449E-18	NaN
706	1.000000	0.518505	7.37196e+06	-41789.1	1005.82	-29784.4	0.000000	0.000000	6.518943	0.019194	NaN	0.000000	0.001621	0.001789	28.0811	0.021625	0.002004	10.793	96.6384	-166.178	0.029215	0.517174	-1.224491	-1.225822	0.019194	10.793	-1.225825	-2.434823E+16	-7.882977E-19	NaN
706	1.000000	0.530511	7.37196e+06	-41789.1	1005.82	-29784.4	0.000000	0.000000	6.530946	-0.066790	NaN	0.000000	0.001620	0.001793	28.0809	0.049994	0.002031	24.6152	-127.34	-166.019	-0.095645	0.529215	-1.212485	-1.213782	-0.066790	24.6152	-1.210450	-1.515870E+16	4.406079E-18	NaN
706	1.000000	0.542517	7.37196e+06	-41789.1	1005.82	-29784.4	0.000000	0.000000	6.542953	-0.032922	NaN	0.000000	0.001597	0.001767	28.0809	0.021904	0.002024	10.8238	-40.5926	-165.485	0.019152	0.541274	-1.200480	-1.201722	-0.032922	10.8238	-1.198198	-1.039018E+16	3.168521E-18	NaN
706	1.000000	0.554535	7.37196e+06	-41789.1	1005.82	-29784.4	0.000000	0.000000	6.554972	-0.011653	NaN	0.000000	0.001650	0.001756	28.0811	0.048547	0.002109	23.0228	89.1797	-166.619	0.021683	0.553230	-1.188461	-1.189766	-0.011653	23.0228	-1.188081	-7.605444E+15	1.532130E-18	NaN
706	1.000000	0.566540	7.37196e+06	-41789.1	1005.82	-29784.4	0.000000	0.000000	6.566974	-0.066405	NaN	0.000000	0.001642	0.001748	28.081	0.135009	0.001966	68.6557	-19.375	-163.694	-0.038004	0.565218	-1.176457	-1.177778	-0.066405	68.6557	-1.175731	-5.196136E+15	1.277967E-17	NaN
706	1.000000	0.578549	7.37196e+06	-41789.1	1005.82	-29784.4	0.000000	0.000000	6.578986	-0.020752	NaN	0.000000	0.001631	0.001764	28.0812	0.102208	0.001970	51.8761	90.3712	-167.122	0.001489	0.577245	-1.164447	-1.165751	-0.020752	51.8761	-1.164147	-3.634536E+15	5.709706E-18	NaN
706	1.000000	0.590577	7.37196e+06	-41789.1	1005.82	-29784.4	0.000000	0.000000	6.591014	-0.006512	NaN	0.000000	0.001633	0.001808	28.0821	0.068171	0.001952	34.9232	78.4348	-168.992	0.046018	0.589241	-1.152420	-1.153755	-0.006512	34.9232	-1.152280	-2.519906E+15	2.584351E-18	NaN
706	1.000000	0.602561	7.37196e+06	-41789.1	1005.82	-29784.4	0.000000	0.000000	6.602997	-0.027458	NaN	0.000000	0.001626	0.001826	28.0823	0.063299	0.001991	31.7924	60.2401	-165.029	-0.012315	0.601249	-1.140435	-1.141747	-0.027458	31.7924	-1.139788	-1.713529E+15	1.602424E-17	NaN
706	1.000000	0.614543	7.37196e+06	-41789.1	1005.82	-29784.4	0.000000	0.000000	6.614980	0.001759	NaN	0.000000	0.001628	0.001789	28.082	0.034970	0.002004	17.4484	-3.226408	-163.166	-0.036883	0.613224	-1.128453	-1.129772	0.001759	17.4484	-1.128529	-1.210294E+15	-1.453266E-18	NaN
706	1.000000	0.626556	7.37196e+06	-41789.1	1005.82	-29784.4	0.000000	0.000000	6.626993	-0.003383	NaN	0.000000	0.001630	0.001837	28.0822	0.097013	0.002006	48.3512	-148.176	-165.927	-0.027055	0.625209	-1.116440	-1.117787	-0.003383	48.3512	-1.116388	-8.317770E+14	4.067097E-18	NaN
706	1.000000	0.638544	7.37196e+06	-41789.1	1005.82	-29784.4	0.000000	0.000000	6.638982	0.017534	NaN	0.000000	0.001602	0.001851	28.082	0.115984	0.002082	55.6949	178.828	-168.494	-0.021646	0.637279	-1.104452	-1.105717	0.017534	55.6949	-1.104689	-5.794323E+14	-3.026125E-17	NaN
706	1.000000	0.650543	7.37196e+06	-41789.1	1005.82	-29784.4	0.000000	0.000000	6.650981	0.013485	NaN	0.000000	0.001614	0.001821	28.0824	0.068535	0.001951	35.1307	46.7525	-167.155	0.032696	0.649209	-1.092453	-1.093787	0.013485	35.1307	-1.092741	-4.005103E+14	-3.366847E-17	NaN
706	1.000000	0.662526	7.37196e+06	-41789.1	1005.82	-29784.4	0.000000	0.000000	6.662961	-0.059041	NaN	0.000000	0.001597	0.001820	28.0825	0.060464	0.001994	30.3298	108.741	-163.946	-0.102970	0.661251	-1.080470	-1.081745	-0.059041	30.3298	-1.079010	-2.619526E+14	2.253896E-16	NaN
706	1.000000	0.674618	7.37196e+06	-41789.1	1005.82	-29784.4	0.000000	0.000000	6.675055	-0.010963	NaN	0.000000	0.001614	0.001827	28.0822	0.074783	0.001993	37.517	-156.752	-169.593	-0.050323	0.673315	-1.068378	-1.069681	-0.010963	37.517	-1.068159	-1.872651E+14	5.854317E-17	NaN
706	1.000000	0.686587	7.37196e+06	-41789.1	1005.82	-29784.4	0.000000	0.000000	6.687023	-0.029234	NaN	0.000000	0.001668	0.001790	28.0822	0.165960	0.002026	81.9067	-66.1544	-168.109	0.003392	0.685289	-1.056410	-1.057707	-0.029234	81.9067	-1.056142	-1.291130E+14	2.264221E-16	NaN
706	1.000000	0.698589	7.37196e+06	-41789.1	1005.82	-29784.4	0.000000	0.000000	6.699023	-0.082775	NaN	0.000000	0.001651	0.001829	28.0823	0.088195	0.002048	43.0609	-71.041	-168.514	-0.056539	0.697289	-1.044407	-1.045708	-0.082775	43.0609	-1.042965	-8.586948E+13	9.639577E-16	NaN
706	1.000000	0.710593	7.37196e+06	-41789.1	1005.82	-29784.4	0.000000	0.000000	6.711030	-0.008862	NaN	0.000000	0.001629	0.001844	28.0822	0.094452	0.002002	47.1862	95.7556	-165.499	-0.017423	0.709313	-1.032404	-1.033683	-0.008862	47.1862	-1.032263	-6.164770E+13	1.437504E-16	NaN
706	1.000000	0.722610	7.37196e+06	-41789.1	1005.82	-29784.4	0.000000	0.000000	6.723049	0.059348	NaN	0.000000	0.001617	0.001811	28.0823	0.099072	0.002011	49.266	95.2476	-166.823	0.111541	0.721287	-1.020387	-1.021709	0.059348	49.266	-1.021290	-4.388440E+13	-1.352369E-15	NaN
706	1.000000	0.734612	7.37196e+06	-41789.1	1005.82	-29784.4	0.000000	0.000000	6.735048	-0.025925	NaN	0.000000	0.001601	0.001839	28.081	0.091251	0.001924	47.4207	146.474	-166.824	-0.049326	0.733297	-1.008384	-1.009700	-0.025925	47.4207	-1.007974	-2.904783E+13	8.924960E-16	NaN
706	1.000000	0.746642	7.37196e+06	-41789.1	1005.82	-29784.4	0.000000	0.000000	6.747079	-0.007262	NaN	0.000000	0.001606	0.001790	28.0815	0.040127	0.002143	18.724	-144.156	-167.163	-0.036321	0.745308	-0.996355	-0.997688	-0.007262	18.724	-0.996064	-2.008033E+13	3.616720E-16	NaN
706	1.000000	0.758577	7.37196e+06	-41789.1	1005.82	-29784.4	0.000000	0.000000	6.759011	-0.079868	NaN	0.000000	0.001604	0.001835	28.081	0.012446	0.002097	5.935587	41.5443	-167.867	-0.016860	0.757301	-0.984419	-0.985695	-0.079868	5.935587	-0.974328	-1.023250E+13	7.805353E-15	NaN
706	1.000000	0.770629	7.37196e+06	-41789.1	1005.82	-29784.4	0.000000	0.000000	6.771065	-0.025567	NaN	0.000000	0.001613	0.001799	28.0811	0.062471	0.001994	31.3349	-136.068	-168.904	-0.022743	0.769339	-0.972367	-0.973657	-0.025567	31.3349	-0.971755	-9.447584E+12	2.706236E-15	NaN
706	1.000000	0.782613	7.37196e+06	-41789.1	1005.82	-29784.4	0.000000	0.000000	6.783050	-0.009652	NaN	0.000000	0.001635	0.001837	28.0811	0.076020	0.002072	36.6925	-7.452224	-167.512	-0.124264	0.781308	-0.960383	-0.961688	-0.009652	36.6925	-0.960186	-6.597408E+12	1.463025E-15	NaN
706	1.000000	0.794636	7.37196e+06	-41789.1	1005.82	-29784.4	0.000000	0.000000	6.795074	0.001069	NaN	0.000000	0.001614	0.001781	28.0809	0.050254	0.002125	23.651	64.0261	-168.415	-0.018466	0.793319	-0.948360	-0.949677	0.001069	23.651	-0.948394	-4.574719E+12	-2.336356E-16	NaN
706	1.000000	0.806612	7.37196e+06	-41789.1	1005.82	-29784.4	0.000000	0.000000	6.807048	-0.021452	NaN	0.000000	0.001623	0.001779	28.0807	0.063091	0.001981	31.8488	-87.8986	-169.489	-0.045337	0.805325	-0.936384	-0.937672	-0.021452	31.8488	-0.935879	-3.101257E+12	6.917232E-15	NaN
706	1.000000	0.818608	7.37196e+06	-41789.1	1005.82	-29784.4	0.000000	0.000000	6.819045	-0.003910	NaN	0.000000	0.001634	0.001816	28.081	0.077910	0.001956	39.8365	-80.3769	-161.615	-0.042410	0.817392	-0.924389	-0.925604	-0.003910	39.8365	-0.924315	-2.165021E+12	1.805803E-15	NaN
706	1.000000	0.830656	7.37196e+06	-41789.1	1005.82	-29784.4	0.000000	0.000000	6.831095	0.019131	NaN	0.000000	0.001616	0.001844	28.0813	0.099190	0.002011	49.3148	-7.789991	-169.237	0.012024	0.829356	-0.912340	-0.913640	0.019131	49.3148	-0.912631	-1.505547E+12	-1.270697E-14	NaN
706	1.000000	0.842642	7.37196e+06	-41789.1	1005.82	-29784.4	0.000000	0.000000	6.843078	-0.031232	NaN	0.000000	0.001671	0.001857	28.0815	0.062209	0.002111	29.4746	-75.6076	-166.854	0.027621	0.841310	-0.900354	-0.901687	-0.031232	29.4746	-0.899560	-1.002571E+12	3.115228E-14	NaN
706	1.000000	0.854652	7.37196e+06	-41789.1	1005.82	-29784.4	0.000000	0.000000	6.855089	-0.009736	NaN	0.000000	0.001646	0.001829	28.081	0.112900	0.001917	58.8941	-96.7796	-166.448	0.001553	0.853300	-0.888344	-0.889696	-0.009736	58.8941	-0.888220	-7.044552E+11	1.382127E-14	NaN
706	1.000000	0.866661	7.37196e+06	-41789.1	1005.82	-29784.4	0.000000	0.000000	6.867098	-0.020645	NaN	0.000000	0.001625	0.001805	28.0822	0.100367	0.002046	49.045	52.4672	-166.111	-0.028369	0.865338	-0.876335	-0.877658	-0.020645	49.045	-0.876019	-4.818022E+11	4.284885E-14	NaN
706	1.000000	0.878663	7.37196e+06	-41789.1	1005.82	-29784.4	0.000000	0.000000	6.879101	0.008289	NaN	0.000000	0.001627	0.001798	28.0823	0.110109	0.001946	56.5812	115.438	-164.403	0.065158	0.877349	-0.864333	-0.865648	0.008289	56.5812	-0.864443	-3.359289E+11	-2.467437E-14	NaN
706	1.000000	0.890656	7.37196e+06	-41789.1	1005.82	-29784.4	0.000000	0.000000	6.891093	0.000120	NaN	0.000000	0.001638	0.001830	28.0825	0.038294	0.001963	19.5078	-89.765	-166.365	-0.118180	0.889346	-0.852340	-0.853650	0.000120	19.5078	-0.852345	-2.304032E+11	-5.193636E-16	NaN
706	1.000000	0.902636	7.37196e+06	-41789.1	1005.82	-29784.4	0.000000	0.000000	6.903071	-0.059005	NaN	0.000000	0.001592	0.001794	28.0824	0.140918	0.001954	72.1207	106.75	-165.606	-0.034010	0.901335	-0.840360	-0.841661	-0.059005	72.1207	-0.839747	-1.555471E+11	3.793375E-13	NaN
706	1.000000	0.914670	7.37196e+06	-41789.1	1005.82	-29784.4	0.000000	0.000000	6.915110	0.057625	NaN	0.000000	0.001643	0.001811	28.0825	0.045287	0.002008	22.5567	80.3391	-167.676	-0.045243	0.913395	-0.828326	-0.829601	0.057625	22.5567	-0.830242	-1.156285E+11	-4.983654E-13	NaN
706	1.000000	0.926681	7.37196e+06	-41789.1	1005.82	-29784.4	0.000000	0.000000	6.927119	0.027597	NaN	0.000000	0.001585	0.001776	28.0827	0.099975	0.002066	48.3831	-164.061	-165.273	0.060849	0.925384	-0.816315	-0.817613	0.027597	48.3831	-0.816743	-7.586516E+10	-3.637604E-13	NaN
706	1.000000	0.938682	7.37196e+06	-41789.1	1005.82	-29784.4	0.000000	0.000000	6.939119	-0.012043	NaN	0.000000	0.001561	0.001798	28.0825	0.027490	0.002052	13.3993	25.187	-166.601	-0.053315	0.937360	-0.804314	-0.805636	-0.012043	13.3993	-0.803640	-5.038169E+10	2.390333E-13	NaN
706	1.000000	0.950665	7.37196e+06	-41789.1	1005.82	-29784.4	0.000000	0.000000	6.951100	-0.054957	NaN	0.000000	0.001615	0.001833	28.0824	0.040221	0.001976	20.356	-83.6401	-166.684	0.005609	0.949404	-0.792331	-0.793592	-0.054957	20.356	-0.790306	-3.320817E+10	1.654932E-12	NaN
706	1.000000	0.962679	7.37196e+06	-41789.1	1005.82	-29784.4	0.000000	0.000000	6.963114	-0.060837	NaN	0.000000	0.001598	0.001830	28.0824	0.044385	0.001981	22.4004	68.2652	-167.924	-0.052749	0.961360	-0.780318	-0.781636	-0.060837	22.4004	-0.778281	-2.279643E+10	2.668696E-12	NaN
706	1.000000	0.974673	7.37196e+06	-41789.1	1005.82	-29784.4	0.000000	0.000000	6.975109	-0.046129	NaN	0.000000	0.001607	0.001816	28.0823	0.008718	0.001915	4.552930	-143.775	-171.805	-0.138263	0.973338	-0.768323	-0.769659	-0.046129	4.552930	-0.760724	-1.315685E+10	3.506057E-12	NaN
706	1.000000	0.986708	7.37196e+06	-41789.1	1005.82	-29784.4	0.000000	0.000000	6.987147	0.036398	NaN	0.000000	0.001614	0.001792	28.0821	0.050838	0.001901	26.746	54.9446	-164.355	0.058468	0.985393	-0.756288	-0.757603	0.036398	26.746	-0.757309	-1.182204E+10	-3.078867E-12	NaN
706	1.000000	0.998703	7.37196e+06	-41789.1	1005.82	-29784.4	0.000000	0.000000	6.999136	-0.084590	NaN	0.000000	0.001616	0.001840	28.0821	0.096633	0.002058	46.9562	37.9037	-166.626	-0.091056	0.997354	-0.744294	-0.745642	-0.084590	46.9562	-0.742943	-7.535863E+9	1.122499E-11	NaN
706	1.000000	1.010707	7.37196e+06	-41789.1	1005.82	-29784.4	0.000000	0.000000	7.011143	-0.029647	NaN	0.000000	0.001610	0.001826	28.0811	0.084281	0.001914	44.031	-23.605	-168.886	0.011216	1.009385	-0.732289	-0.733611	-0.029647	44.031	-0.731784	-5.310321E+9	5.582817E-12	NaN
706	1.000000	1.022717	7.37196e+06	-41789.1	1005.82	-29784.4	0.000000	0.000000	7.023153	-0.016879	NaN	0.000000	0.001648	0.001821	28.081	0.152973	0.002015	75.9273	-164.661	-166.914	-0.030123	1.021449	-0.720280	-0.721547	-0.016879	75.9273	-0.720113	-3.681385E+9	4.584940E-12	NaN
706	1.000000	1.034721	7.37196e+06	-41789.1	1005.82	-29784.4	0.000000	0.000000	7.035157	-0.014781	NaN	0.000000	0.001595	0.001812	28.0809	0.042498	0.002148	19.7862	-122.141	-164.227	0.016144	1.033420	-0.708276	-0.709576	-0.014781	19.7862	-0.707715	-2.493824E+9	5.927223E-12	NaN
706	1.000000	1.046736	7.37196e+06	-41789.1	1005.82	-29784.4	0.000000	0.000000	7.047173	-0.011046	NaN	0.000000	0.001649	0.001834	28.0807	0.081458	0.002009	40.5526	59.1734	-164.241	-0.042405	1.045416	-0.696260	-0.697580	-0.011046	40.5526	-0.696056	-1.728458E+9	6.390754E-12	NaN
706	1.000000	1.058724	7.37196e+06	-41789.1	1005.82	-29784.4	0.000000	0.000000	7.059160	-0.030485	NaN	0.000000	0.001650	0.001789	28.0808	0.099423	0.001988	50.0153	37.7364	-170.903	-0.012394	1.057417	-0.684272	-0.685579	-0.030485	50.0153	-0.683815	-1.175904E+9	2.592484E-11	NaN
706	1.000000	1.070721	7.37196e+06	-41789.1	1005.82	-29784.4	0.000000	0.000000	7.071157	-0.031007	NaN	0.000000	0.001665	0.001851	28.0809	0.095303	0.002044	46.6287	84.747	-165.214	0.018036	1.069423	-0.672275	-0.673573	-0.031007	46.6287	-0.671776	-8.048229E+8	3.852600E-11	NaN
706	1.000000	1.082704	7.37196e+06	-41789.1	1005.82	-29784.4	0.000000	0.000000	7.083141	-0.016254	NaN	0.000000	0.001658	0.001798	28.081	0.028638	0.001886	15.1855	-36.6415	-168.455	0.050768	1.081499	-0.660292	-0.661497	-0.016254	15.1855	-0.659489	-5.463506E+8	2.975064E-11	NaN
706	1.000000	1.094719	7.37196e+06	-41789.1	1005.82	-29784.4	0.000000	0.000000	7.095158	0.029100	NaN	0.000000	0.001637	0.001796	28.0813	0.064675	0.001994	32.4277	-102.093	-165.876	0.035199	1.093469	-0.648277	-0.649527	0.029100	32.4277	-0.648950	-3.917771E+8	-7.427708E-11	NaN
706	1.000000	1.106725	7.37196e+06	-41789.1	1005.82	-29784.4	0.000000	0.000000	7.107160	-0.049993	NaN	0.000000	0.001662	0.001832	28.0809	0.118619	0.002018	58.786	79.556	-163.815	-0.045472	1.105413	-0.636271	-0.637584	-0.049993	58.786	-0.635634	-2.572574E+8	1.943313E-10	NaN
706	1.000000	1.118769	7.37196e+06	-41789.1	1005.82	-29784.4	0.000000	0.000000	7.119206	-0.010731	NaN	0.000000	0.001670	0.001797	28.0807	0.130688	0.001972	66.2579	69.319	-164.004	0.045337	1.117404	-0.624228	-0.625592	-0.010731	66.2579	-0.624106	-1.786748E+8	6.006012E-11	NaN
706	1.000000	1.130742	7.37196e+06	-41789.1	1005.82	-29784.4	0.000000	0.000000	7.131177	-0.057659	NaN	0.000000	0.001596	0.001822	28.0807	0.104159	0.001974	52.7635	154.3	-171.081	-0.026239	1.129434	-0.612254	-0.613563	-0.057659	52.7635	-0.611435	-1.196330E+8	4.819688E-10	NaN
706	1.000000	1.142739	7.37196e+06	-41789.1	1005.82	-29784.4	0.000000	0.000000	7.143176	-0.005142	NaN	0.000000	0.001571	0.001806	28.0821	0.049794	0.002124	23.4388	31.1204	-166.482	-0.024819	1.141451	-0.600257	-0.601545	-0.005142	23.4388	-0.600092	-8.350916E+7	6.157467E-11	NaN
706	1.000000	1.154740	7.37196e+06	-41789.1	1005.82	-29784.4	0.000000	0.000000	7.155179	0.054506	NaN	0.000000	0.001658	0.001790	28.0822	0.121217	0.001988	60.9683	-139.089	-167.166	-0.086883	1.153448	-0.588257	-0.589548	0.054506	60.9683	-0.588927	-5.859662E+7	-9.301861E-10	NaN
706	1.000000	1.166774	7.37196e+06	-41789.1	1005.82	-29784.4	0.000000	0.000000	7.167211	0.001162	NaN	0.000000	0.001634	0.001792	28.0821	0.041017	0.002006	20.4475	118.758	-165.548	0.006749	1.165465	-0.576222	-0.577532	0.001162	20.4475	-0.576265	-3.918896E+7	-2.963900E-11	NaN
706	1.000000	1.178775	7.37196e+06	-41789.1	1005.82	-29784.4	0.000000	0.000000	7.179214	0.034748	NaN	0.000000	0.001662	0.001774	28.0824	0.030262	0.001860	16.2708	-7.147166	-166.014	-0.007969	1.177467	-0.564221	-0.565529	0.034748	16.2708	-0.565823	-2.811280E+7	-1.236022E-9	NaN
706	1.000000	1.190794	7.37196e+06	-41789.1	1005.82	-29784.4	0.000000	0.000000	7.191231	-0.003770	NaN	0.000000	0.001673	0.001793	28.0823	0.091793	0.002011	45.6503	-20.0045	-167.102	0.009105	1.189496	-0.552202	-0.553500	-0.003770	45.6503	-0.552140	-1.818010E+7	2.073947E-10	NaN
706	1.000000	1.202769	7.37196e+06	-41789.1	1005.82	-29784.4	0.000000	0.000000	7.203207	0.010442	NaN	0.000000	0.001709	0.001796	28.0823	0.021079	0.002142	9.839585	97.8972	-166.264	0.012220	1.201497	-0.540227	-0.541499	0.010442	9.839585	-0.541023	-1.275109E+7	-8.189285E-10	NaN
706	1.000000	1.214803	7.37196e+06	-41789.1	1005.82	-29784.4	0.000000	0.000000	7.215239	-0.031423	NaN	0.000000	0.001662	0.001800	28.0821	0.110701	0.002097	52.7896	148.465	-167.431	-0.017330	1.213466	-0.528193	-0.529530	-0.031423	52.7896	-0.527746	-8.34206e+06	3.766774E-9	NaN
706	1.000000	1.226794	7.37196e+06	-41789.1	1005.82	-29784.4	0.000000	0.000000	7.227228	-0.069860	NaN	0.000000	0.001708	0.001786	28.0818	0.066108	0.001962	33.686	18.1783	-166.071	-0.071735	1.225438	-0.516202	-0.517558	-0.069860	33.686	-0.514647	-5.48427e+06	1.273833E-8	NaN
706	1.000000	1.238793	7.37196e+06	-41789.1	1005.82	-29784.4	0.000000	0.000000	7.239229	-0.028924	NaN	0.000000	0.001704	0.001770	28.082	0.075551	0.001889	39.9927	-59.6224	-167.069	-0.032517	1.237492	-0.504203	-0.505504	-0.028924	39.9927	-0.503661	-3.85546e+06	7.501969E-9	NaN
706	1.000000	1.250821	7.37196e+06	-41789.1	1005.82	-29784.4	0.000000	0.000000	7.251259	0.009330	NaN	0.000000	0.001710	0.001764	28.0821	0.042065	0.001984	21.204	-142.132	-169.226	0.003272	1.249473	-0.492175	-0.493524	0.009330	21.204	-0.492505	-2.69395e+06	-3.463221E-9	NaN
706	1.000000	1.262795	7.37196e+06	-41789.1	1005.82	-29784.4	0.000000	0.000000	7.263229	-0.083524	NaN	0.000000	0.001719	0.001789	28.0819	0.039083	0.001926	20.2926	138.185	-167.734	-0.086376	1.261468	-0.480201	-0.481529	-0.083524	20.2926	-0.477114	-1.64102e+06	5.089760E-8	NaN
706	1.000000	1.274820	7.37196e+06	-41789.1	1005.82	-29784.4	0.000000	0.000000	7.275255	-0.039095	NaN	0.000000	0.001670	0.001760	28.0807	0.117371	0.002109	55.6495	-35.6126	-167.821	-0.025306	1.273494	-0.468177	-0.469503	-0.039095	55.6495	-0.467650	-1.20903e+06	3.233604E-8	NaN
706	1.000000	1.286838	7.37196e+06	-41789.1	1005.82	-29784.4	0.000000	0.000000	7.287274	-0.040277	NaN	0.000000	0.001649	0.001777	28.0811	0.176696	0.001949	90.6396	11.128	-163.5	-0.013110	1.285528	-0.456158	-0.457468	-0.040277	90.6396	-0.455825	-824737	4.883641E-8	NaN
706	1.000000	1.298805	7.37196e+06	-41789.1	1005.82	-29784.4	0.000000	0.000000	7.299239	-0.067648	NaN	0.000000	0.001692	0.001784	28.0811	0.101113	0.002095	48.272	167.13	-167.79	-0.026563	1.297522	-0.444191	-0.445474	-0.067648	48.272	-0.443140	-546600	1.237611E-7	NaN
706	1.000000	1.310869	7.37196e+06	-41789.1	1005.82	-29784.4	0.000000	0.000000	7.311304	-0.047435	NaN	0.000000	0.001650	0.001779	28.0807	0.099910	0.001945	51.3671	2.496235	-166.582	0.043582	1.309520	-0.432127	-0.433477	-0.047435	51.3671	-0.431435	-373555	1.269838E-7	NaN
706	1.000000	1.322833	7.37196e+06	-41789.1	1005.82	-29784.4	0.000000	0.000000	7.323266	-0.109373	NaN	0.000000	0.001638	0.001768	28.0808	0.134681	0.002021	66.6386	111.987	-164.937	-0.068042	1.321479	-0.420163	-0.421517	-0.109373	66.6386	-0.418932	-248469	4.401862E-7	NaN
706	1.000000	1.334852	7.37196e+06	-41789.1	1005.82	-29784.4	0.000000	0.000000	7.335289	-0.025666	NaN	0.000000	0.001611	0.001807	28.0807	0.129457	0.002019	64.1036	-130.536	-167.081	-0.083795	1.333524	-0.408144	-0.409472	-0.025666	64.1036	-0.407844	-172874	1.484698E-7	NaN
706	1.000000	1.346840	7.37196e+06	-41789.1	1005.82	-29784.4	0.000000	0.000000	7.347278	0.023056	NaN	0.000000	0.001621	0.001788	28.0809	0.089347	0.001993	44.8265	114.319	-165.774	-0.053659	1.345588	-0.396156	-0.397408	0.023056	44.8265	-0.396542	-119303	-1.932559E-7	NaN
706	1.000000	1.358853	7.37196e+06	-41789.1	1005.82	-29784.4	0.000000	0.000000	7.359290	-0.006295	NaN	0.000000	0.001626	0.001829	28.0809	0.115323	0.001997	57.7479	176.746	-167.724	-0.028542	1.357568	-0.384143	-0.385428	-0.006295	57.7479	-0.384061	-79092.3	7.958808E-8	NaN
706	1.000000	1.370857	7.37196e+06	-41789.1	1005.82	-29784.4	0.000000	0.000000	7.371292	-0.058162	NaN	0.000000	0.001658	0.001800	28.081	0.100077	0.002085	47.9974	154.154	-165.776	0.008948	1.369557	-0.372140	-0.373440	-0.058162	47.9974	-0.371231	-51742.7	1.124063E-6	NaN
706	1.000000	1.382877	7.37196e+06	-41789.1	1005.82	-29784.4	0.000000	0.000000	7.383314	-0.002411	NaN	0.000000	0.001621	0.001737	28.0811	0.060695	0.001986	30.5597	-150.181	-166.047	0.009031	1.381589	-0.360120	-0.361407	-0.002411	30.5597	-0.360061	-35704.3	6.753332E-8	NaN
706	1.000000	1.394869	7.37196e+06	-41789.1	1005.82	-29784.4	0.000000	0.000000	7.395306	-0.017546	NaN	0.000000	0.001624	0.001762	28.0811	0.079202	0.002016	39.2921	118.643	-164.5	-0.100411	1.393587	-0.348127	-0.349409	-0.017546	39.2921	-0.347792	-23710.5	7.400258E-7	NaN
706	1.000000	1.406861	7.37196e+06	-41789.1	1005.82	-29784.4	0.000000	0.000000	7.407299	0.030177	NaN	0.000000	0.001672	0.001770	28.081	0.119347	0.002065	57.7998	68.0491	-166.243	0.009659	1.405562	-0.336136	-0.337434	0.030177	57.7998	-0.336527	-16251.4	-1.856902E-6	NaN
706	1.000000	1.418882	7.37196e+06	-41789.1	1005.82	-29784.4	0.000000	0.000000	7.419315	-0.094553	NaN	0.000000	0.001699	0.001774	28.0822	0.042203	0.002057	20.5145	71.7236	-163.539	-0.034491	1.417594	-0.324114	-0.325403	-0.094553	20.5145	-0.320658	-9512.93	9.939418E-6	NaN
706	1.000000	1.430895	7.37196e+06	-41789.1	1005.82	-29784.4	0.000000	0.000000	7.431331	-0.040108	NaN	0.000000	0.001701	0.001787	28.0823	0.060381	0.002101	28.7442	-36.3856	-167.545	-0.034917	1.429631	-0.312101	-0.313365	-0.040108	28.7442	-0.311055	-6865.34	5.842032E-6	NaN
706	1.000000	1.442927	7.37196e+06	-41789.1	1005.82	-29784.4	0.000000	0.000000	7.443365	0.010686	NaN	0.000000	0.001672	0.001778	28.0823	0.190359	0.001955	97.3512	106.851	-168.512	-0.033663	1.441592	-0.300070	-0.301404	0.010686	97.3512	-0.300152	-4730.38	-2.259115E-6	NaN
706	1.000000	1.454903	7.37196e+06	-41789.1	1005.82	-29784.4	0.000000	0.000000	7.455341	0.004419	NaN	0.000000	0.001708	0.001738	28.0822	0.086847	0.002064	42.0807	-52.5399	-165.755	0.022567	1.453635	-0.288093	-0.289361	0.004419	42.0807	-0.288172	-3132.56	-1.410639E-6	NaN
706	1.000000	1.466889	7.37196e+06	-41789.1	1005.82	-29784.4	0.000000	0.000000	7.467327	0.008876	NaN	0.000000	0.001723	0.001779	28.0824	0.075977	0.001969	38.5835	113.206	-167.291	0.021043	1.465586	-0.276107	-0.277411	0.008876	38.5835	-0.276279	-2073.78	-4.280044E-6	NaN
706	1.000000	1.478885	7.37196e+06	-41789.1	1005.82	-29784.4	0.000000	0.000000	7.479324	0.032377	NaN	0.000000	0.001685	0.001759	28.0824	0.091842	0.001941	47.3227	78.9061	-166.415	0.002571	1.477608	-0.264111	-0.265388	0.032377	47.3227	-0.264624	-1379.28	-2.347365E-5	NaN
706	1.000000	1.490905	7.37196e+06	-41789.1	1005.82	-29784.4	0.000000	0.000000	7.491341	-0.015587	NaN	0.000000	0.001698	0.001740	28.0823	0.100761	0.001823	55.2754	28.6957	-168.545	-0.040753	1.489553	-0.252092	-0.253444	-0.015587	55.2754	-0.251880	-879.057	1.773194E-5	NaN
706	1.000000	1.502916	7.37196e+06	-41789.1	1005.82	-29784.4	0.000000	0.000000	7.503353	-0.002459	NaN	0.000000	0.001652	0.001741	28.0824	0.057041	0.002027	28.1352	-83.2501	-164.204	0.037472	1.501640	-0.240080	-0.241356	-0.002459	28.1352	-0.240015	-575.152	4.275224E-6	NaN
706	1.000000	1.514919	7.37196e+06	-41789.1	1005.82	-29784.4	0.000000	0.000000	7.515356	-0.001029	NaN	0.000000	0.001721	0.001727	28.0821	0.036825	0.001965	18.7415	-151.708	-165.469	0.012885	1.513629	-0.228077	-0.229367	-0.001029	18.7415	-0.228036	-372.794	2.760757E-6	NaN
706	1.000000	1.526921	7.37196e+06	-41789.1	1005.82	-29784.4	0.000000	0.000000	7.527358	0.005961	NaN	0.000000	0.001706	0.001751	28.0823	0.070490	0.001999	35.2637	149.141	-166.931	0.037430	1.525661	-0.216076	-0.217335	0.005961	35.2637	-0.216203	-241.458	-2.468738E-5	NaN
706	1.000000	1.538945	7.37196e+06	-41789.1	1005.82	-29784.4	0.000000	0.000000	7.539383	0.017109	NaN	0.000000	0.001618	0.001731	28.0822	0.058361	0.002075	28.1281	-48.7988	-167.203	0.011675	1.537623	-0.204051	-0.205373	0.017109	28.1281	-0.204507	-156.143	-0.000110	NaN
706	1.000000	1.550925	7.37196e+06	-41789.1	1005.82	-29784.4	0.000000	0.000000	7.551360	-0.058058	NaN	0.000000	0.001648	0.001760	28.0811	0.061101	0.001948	31.3647	147.362	-168.613	-0.023060	1.549645	-0.192072	-0.193351	-0.058058	31.3647	-0.190683	-92.3498	0.000629	NaN
706	1.000000	1.562966	7.37196e+06	-41789.1	1005.82	-29784.4	0.000000	0.000000	7.563402	-0.032679	NaN	0.000000	0.001638	0.001765	28.0811	0.042627	0.001950	21.8595	81.8582	-165.82	-0.075550	1.561657	-0.180031	-0.181339	-0.032679	21.8595	-0.178909	-58.4643	0.000559	NaN
706	1.000000	1.574990	7.37196e+06	-41789.1	1005.82	-29784.4	0.000000	0.000000	7.575427	-0.005578	NaN	0.000000	0.001642	0.001748	28.0813	0.024106	0.001938	12.4392	-132.778	-166.665	0.008907	1.573624	-0.168006	-0.169372	-0.005578	12.4392	-0.167670	-37.4154	0.000149	NaN
706	1.000000	1.586988	7.37196e+06	-41789.1	1005.82	-29784.4	0.000000	0.000000	7.587425	-0.011638	NaN	0.000000	0.001624	0.001732	28.0811	0.095009	0.001976	48.0734	-179.853	-165.403	-0.097120	1.585643	-0.156008	-0.157353	-0.011638	48.0734	-0.155827	-23.0911	0.000504	NaN
706	1.000000	1.598969	7.37196e+06	-41789.1	1005.82	-29784.4	0.000000	0.000000	7.599404	-0.039935	NaN	0.000000	0.001664	0.001733	28.081	0.078215	0.002064	37.8914	-20.1383	-168.333	-0.047022	1.597628	-0.144028	-0.145368	-0.039935	37.8914	-0.143237	-13.5979	0.002937	NaN
706	1.000000	1.610970	7.37196e+06	-41789.1	1005.82	-29784.4	0.000000	0.000000	7.611409	0.055645	NaN	0.000000	0.001587	0.001771	28.081	0.025683	0.001921	13.3668	-77.9346	-166.39	0.046284	1.609664	-0.132027	-0.133332	0.055645	13.3668	-0.135149	-9.574765	-0.005812	NaN
706	1.000000	1.622970	7.37196e+06	-41789.1	1005.82	-29784.4	0.000000	0.000000	7.623409	0.051378	NaN	0.000000	0.001594	0.001748	28.0808	0.008180	0.001962	4.169854	108.591	-163.909	-0.007294	1.621707	-0.120027	-0.121289	0.051378	4.169854	-0.129267	-7.375010	-0.006966	NaN
706	1.000000	1.635014	7.37196e+06	-41789.1	1005.82	-29784.4	0.000000	0.000000	7.635453	0.035229	NaN	0.000000	0.001627	0.001721	28.0808	0.061476	0.001950	31.5314	145.474	-164.85	-0.056891	1.633616	-0.107982	-0.109380	0.035229	31.5314	-0.108820	-2.837430	-0.012416	NaN
706	1.000000	1.646999	7.37196e+06	-41789.1	1005.82	-29784.4	0.000000	0.000000	7.647436	-0.008048	NaN	0.000000	0.001602	0.001704	28.0809	0.030611	0.002033	15.0572	139.702	-165.968	0.013441	1.645663	-0.095997	-0.097334	-0.008048	15.0572	-0.095596	-1.455365	0.005530	NaN
706	1.000000	1.658986	7.37196e+06	-41789.1	1005.82	-29784.4	0.000000	0.000000	7.659422	-0.028616	NaN	0.000000	0.001605	0.001762	28.0811	0.118342	0.001997	59.2695	144.354	-171.076	-0.007349	1.657631	-0.084011	-0.085365	-0.028616	59.2695	-0.083649	-0.761780	0.037564	NaN
706	1.000000	1.670999	7.37196e+06	-41789.1	1005.82	-29784.4	0.000000	0.000000	7.671439	0.050732	NaN	0.000000	0.001599	0.001744	28.0811	0.082556	0.002017	40.9337	95.5212	-166.399	0.040476	1.669674	-0.071997	-0.073323	0.050732	40.9337	-0.072926	-0.407838	-0.124393	NaN
706	1.000000	1.682994	7.37196e+06	-41789.1	1005.82	-29784.4	0.000000	0.000000	7.683430	-0.024906	NaN	0.000000	0.001636	0.001741	28.0818	0.006585	0.002084	3.159899	32.6854	-167.388	-0.069007	1.681732	-0.060003	-0.061265	-0.024906	3.159899	-0.054091	-0.121036	0.205777	NaN
706	1.000000	1.694989	7.37196e+06	-41789.1	1005.82	-29784.4	0.000000	0.000000	7.695424	-0.054659	NaN	0.000000	0.001612	0.001763	28.0819	0.104660	0.001984	52.7418	61.4997	-167.841	-0.063552	1.693726	-0.048007	-0.049270	-0.054659	52.7418	-0.047230	-0.075178	0.727061	NaN
706	1.000000	1.707014	7.37196e+06	-41789.1	1005.82	-29784.4	0.000000	0.000000	7.707451	-0.015320	NaN	0.000000	0.001598	0.001725	28.082	0.088654	0.001963	45.1594	25.9513	-167.331	-0.023628	1.705647	-0.035982	-0.037349	-0.015320	45.1594	-0.035728	-0.033649	0.455279	NaN
706	1.000000	1.719029	7.37196e+06	-41789.1	1005.82	-29784.4	0.000000	0.000000	7.719467	0.012774	NaN	0.000000	0.001633	0.001734	28.0822	0.034878	0.001952	17.8655	-167.042	-168.746	0.001664	1.717709	-0.023967	-0.025287	0.012774	17.8655	-0.024503	-0.016375	-0.780064	NaN
706	1.000000	1.731031	7.37196e+06	-41789.1	1005.82	-29784.4	0.000000	0.000000	7.731465	-0.078254	NaN	0.000000	0.001588	0.001749	28.082	0.143324	0.001961	73.0703	-22.8119	-164.125	-0.074059	1.729699	-0.011965	-0.013298	-0.078254	73.0703	-0.011162	-0.007050	11.0995	NaN
706	1.000000	1.743001	7.37196e+06	-41789.1	1005.82	-29784.4	0.000000	0.000000	7.743641	4.922582	NaN	0.000000	0.001596	0.001750	28.0822	5.383232	0.001860	2894.6	11.4304	-169.923	3.553192	1.741705	4.871193E-6	-0.001291	4.922582	2894.6	-0.001271	-0.000927	-5311.22	NaN
706	2.000000	1.748698	7.37196e+06	-41789.1	1005.82	-29784.4	0.000000	0.000000	7.749540	9.860376	NaN	0.000000	0.001592	0.001773	28.0821	9.663614	0.001732	5578.9	9.312733	-174.591	9.244546	1.748310	0.005701	0.005314	9.860376	5578.9	0.004376	0.003571	2761.32	85296.9
706	2.000000	1.751637	7.37196e+06	-41789.1	1005.82	-29784.4	0.000000	0.000000	7.752596	12.6948	NaN	0.000000	0.001649	0.001773	28.0821	12.4653	0.001728	7213.3	5.704948	-172.726	13.0439	1.751335	0.008640	0.008339	12.6948	7213.3	0.007320	0.006353	1998.36	82686
706	2.000000	1.754619	7.37196e+06	-41789.1	1005.82	-29784.4	0.000000	0.000000	7.755766	17.2768	NaN	0.000000	0.001590	0.001765	28.082	16.2041	0.001727	9380.44	9.852884	179.584	17.4292	1.754275	0.011622	0.011279	17.2768	9380.44	0.010241	0.009451	1828.12	88159.1
706	2.000000	1.757610	7.37196e+06	-41789.1	1005.82	-29784.4	0.000000	0.000000	7.759047	24.324	NaN	0.000000	0.001648	0.001746	28.082	19.5	0.001759	11084.2	6.280093	-177.44	25.262	1.757324	0.014614	0.014327	24.324	11084.2	0.012968	0.012671	1919.73	89966.3
706	2.000000	1.760552	7.37196e+06	-41789.1	1005.82	-29784.4	0.000000	0.000000	7.762222	30.0018	NaN	0.000000	0.001708	0.001797	28.0822	22.663	0.001736	13057.3	6.396280	179.985	29.144	1.760349	0.017556	0.017353	30.0018	13057.3	0.015832	0.016412	1828.09	93122.1
706	2.000000	1.763601	7.37196e+06	-41789.1	1005.82	-29784.4	0.000000	0.000000	7.765516	35.9705	NaN	0.000000	0.001676	0.001747	28.082	24.8005	0.001698	14604.1	4.164839	-178.943	36.8658	1.763309	0.020604	0.020313	35.9705	14604.1	0.018757	0.020627	1743.89	92903.7
706	2.000000	1.766568	7.37196e+06	-41789.1	1005.82	-29784.4	0.000000	0.000000	7.768788	43.36	NaN	0.000000	0.001701	0.001795	28.0807	27.9592	0.001883	14847.6	5.701765	-179.096	43.0186	1.766259	0.023572	0.023263	43.36	14847.6	0.021382	0.024761	1751.17	86208.4
706	2.000000	1.769519	7.37196e+06	-41789.1	1005.82	-29784.4	0.000000	0.000000	7.772175	53.9683	NaN	0.000000	0.001601	0.001784	28.0813	29.7469	0.001672	17794.7	4.903023	179.113	51.1101	1.769226	0.026523	0.026230	53.9683	17794.7	0.024249	0.029663	1819.39	94397.2
706	2.000000	1.772591	7.37196e+06	-41789.1	1005.82	-29784.4	0.000000	0.000000	7.775333	56.0954	NaN	0.000000	0.001603	0.001792	28.081	32.43	0.001743	18605.9	5.825967	178.202	56.5803	1.772247	0.029594	0.029251	56.0954	18605.9	0.027333	0.035397	1584.73	90352.2
706	2.000000	1.775499	7.37196e+06	-41789.1	1005.82	-29784.4	0.000000	0.000000	7.778853	70.9775	NaN	0.000000	0.001599	0.001788	28.0809	34.5042	0.001736	19878.3	4.491177	178.216	68.0959	1.775186	0.032503	0.032190	70.9775	19878.3	0.029825	0.040381	1757.69	90378
706	2.000000	1.778581	7.37196e+06	-41789.1	1005.82	-29784.4	0.000000	0.000000	7.782079	74.4674	NaN	0.000000	0.001630	0.001786	28.0807	37.9355	0.001817	20873.6	4.489150	178.749	76.4703	1.778299	0.035585	0.035303	74.4674	20873.6	0.032909	0.046990	1584.75	87976.8
706	2.000000	1.781557	7.37196e+06	-41789.1	1005.82	-29784.4	0.000000	0.000000	7.785512	85.6035	NaN	0.000000	0.001612	0.001821	28.0807	40.2728	0.001758	22906.3	4.847892	176.811	86.3295	1.781250	0.038561	0.038254	85.6035	22906.3	0.035758	0.053525	1599.32	90458.5
706	2.000000	1.784478	7.37196e+06	-41789.1	1005.82	-29784.4	0.000000	0.000000	7.788934	97.769	NaN	0.000000	0.001625	0.001828	28.0814	43.8475	0.001850	23701.4	3.348316	177.93	94.6341	1.784177	0.041482	0.041181	97.769	23701.4	0.038388	0.059930	1631.4	88455.8
706	2.000000	1.787504	7.37196e+06	-41789.1	1005.82	-29784.4	0.000000	0.000000	7.792438	109.403	NaN	0.000000	0.001577	0.001791	28.0808	45.2325	0.001800	25129.2	3.890870	178.061	109.185	1.787233	0.044508	0.044237	109.403	25129.2	0.041243	0.067280	1626.1	88513.7
706	2.000000	1.790535	7.37196e+06	-41789.1	1005.82	-29784.4	0.000000	0.000000	7.796024	122.917	NaN	0.000000	0.001626	0.001822	28.0808	49.0345	0.001685	29094	3.829463	176.291	123.156	1.790185	0.047539	0.047189	122.917	29094	0.044370	0.075809	1621.4	96542
706	2.000000	1.793631	7.37196e+06	-41789.1	1005.82	-29784.4	0.000000	0.000000	7.799287	126.962	NaN	0.000000	0.001603	0.001801	28.0808	53.3527	0.001879	28395.5	7.332004	172.68	133.277	1.793348	0.050635	0.050351	126.962	28395.5	0.047282	0.084197	1507.92	89407.8
706	2.000000	1.796503	7.37197e+06	-41789.1	1005.82	-29784.4	0.000000	0.000000	7.802743	141.191	NaN	0.000000	0.001623	0.001779	28.0809	54.9781	0.001860	29552.3	7.733023	172.128	139.339	1.796168	0.053507	0.053172	141.191	29552.3	0.049923	0.092177	1531.74	88931.2
706	2.000000	1.799486	7.37197e+06	-41789.1	1005.82	-29784.4	0.000000	0.000000	7.806427	158.258	NaN	0.000000	0.001635	0.001781	28.0833	57.1212	0.001815	31470.8	9.464282	169.799	156.408	1.799135	0.056490	0.056139	158.258	31470.8	0.052718	0.101000	1566.91	90473.2
706	2.000000	1.802496	7.37197e+06	-41789.1	1005.82	-29784.4	0.000000	0.000000	7.809952	170.78	NaN	0.000000	0.001638	0.001777	28.082	59.5082	0.001740	34208.6	7.980162	171.122	169.975	1.802108	0.059500	0.059112	170.78	34208.6	0.055755	0.111029	1538.15	93797.3
706	2.000000	1.805515	7.37197e+06	-41789.1	1005.82	-29784.4	0.000000	0.000000	7.813484	183.256	NaN	0.000000	0.001587	0.001769	28.0822	64.0695	0.001857	34508.3	7.574756	171.055	184.12	1.805149	0.062519	0.062153	183.256	34508.3	0.058536	0.120611	1519.4	90782.9
706	2.000000	1.808517	7.37197e+06	-41789.1	1005.82	-29784.4	0.000000	0.000000	7.816897	193.242	NaN	0.000000	0.001631	0.001760	28.0833	65.4499	0.001791	36545.8	3.050944	174.5	191.732	1.808233	0.065521	0.065237	193.242	36545.8	0.061555	0.131445	1470.14	92095.7
706	2.000000	1.811444	7.37197e+06	-41789.1	1005.82	-29784.4	0.000000	0.000000	7.820609	212.358	NaN	0.000000	0.001612	0.001759	28.0822	69.199	0.001880	36810	5.764415	171.915	208.954	1.811229	0.068448	0.068233	212.358	36810	0.064121	0.140998	1506.1	89563.8
706	2.000000	1.814549	7.37197e+06	-41789.1	1005.82	-29784.4	0.000000	0.000000	7.824497	231.418	NaN	0.000000	0.001646	0.001773	28.0822	71.7478	0.001813	39577.4	6.020836	171.415	234.464	1.814169	0.071552	0.071172	231.418	39577.4	0.067167	0.152755	1514.96	92517.2
706	2.000000	1.817531	7.37197e+06	-41789.1	1005.82	-29784.4	0.000000	0.000000	7.827800	239.2	NaN	0.000000	0.001620	0.001799	28.0821	74.3607	0.001854	40102	4.277188	172.886	241.143	1.817200	0.074535	0.074203	239.2	40102	0.070062	0.164339	1455.53	90379.4
706	2.000000	1.820515	7.37197e+06	-41789.1	1005.82	-29784.4	0.000000	0.000000	7.832013	269.121	NaN	0.000000	0.001609	0.001801	28.0822	75.342	0.001810	41636.4	3.128112	174.431	268.477	1.820056	0.077519	0.077060	269.121	41636.4	0.072671	0.175123	1536.76	90902.3
706	2.000000	1.823388	7.37197e+06	-41789.1	1005.82	-29784.4	0.000000	0.000000	7.835541	285.058	NaN	0.000000	0.001649	0.001754	28.0826	77.9022	0.001898	41052.7	2.526680	175.066	280.797	1.823132	0.080392	0.080136	285.058	41052.7	0.075184	0.185812	1534.12	87011.9
706	2.000000	1.826441	7.37197e+06	-41789.1	1005.82	-29784.4	0.000000	0.000000	7.839393	304.525	NaN	0.000000	0.001658	0.001779	28.0824	80.8644	0.001779	45457.7	5.852110	170.455	299.934	1.826172	0.083444	0.083176	304.525	45457.7	0.078420	0.200016	1522.5	92864.2
706	2.000000	1.829627	7.37197e+06	-41789.1	1005.82	-29784.4	0.000000	0.000000	7.843392	324.282	NaN	0.000000	0.001627	0.001735	28.0821	83.2841	0.001792	46473.5	5.172944	171.452	333.12	1.829150	0.086631	0.086154	324.282	46473.5	0.081398	0.213517	1518.76	91888.7
706	2.000000	1.832460	7.37197e+06	-41789.1	1005.82	-29784.4	0.000000	0.000000	7.846863	339.803	NaN	0.000000	0.001611	0.001757	28.082	86.0228	0.001762	48816.6	2.599031	172.915	337.291	1.832155	0.089464	0.089158	339.803	48816.6	0.084244	0.226807	1498.2	93651.1
706	2.000000	1.835420	7.37197e+06	-41789.1	1005.82	-29784.4	0.000000	0.000000	7.851108	371.086	NaN	0.000000	0.001631	0.001758	28.0808	89.0018	0.001823	48823.9	2.992750	172.784	367.08	1.835260	0.092423	0.092264	371.086	48823.9	0.086723	0.238689	1554.68	91304
706	2.000000	1.838421	7.37197e+06	-41789.1	1005.82	-29784.4	0.000000	0.000000	7.855287	399.744	NaN	0.000000	0.001614	0.001722	28.0811	91.638	0.001953	46913.5	5.639380	171.197	396.075	1.838096	0.095425	0.095100	399.744	46913.5	0.089034	0.250021	1598.84	85720.2
706	2.000000	1.841441	7.37197e+06	-41789.1	1005.82	-29784.4	0.000000	0.000000	7.859368	425.553	NaN	0.000000	0.001627	0.001758	28.0808	93.0489	0.001696	54878.7	4.732448	170.393	422.251	1.841061	0.098445	0.098064	425.553	54878.7	0.092629	0.268135	1587.08	96827.8
706	2.000000	1.844350	7.37197e+06	-41789.1	1005.82	-29784.4	0.000000	0.000000	7.863208	448.208	NaN	0.000000	0.001623	0.001758	28.0807	96.0592	0.001689	56871.7	0.163792	174.294	441.42	1.844033	0.101354	0.101036	448.208	56871.7	0.095443	0.282726	1585.31	97720.6
706	2.000000	1.844811	7.37197e+06	-41789.1	1005.82	-29784.4	0.000000	0.000000	7.864177	460.552	NaN	0.000000	0.001608	0.001765	28.0807	96.5307	0.001755	54996.5	2.075302	-6.953758	451	1.844499	0.101815	0.101503	460.552	54996.5	0.095534	0.283205	1626.21	94418.5