File: remote_trans/data/nanoindenter/0828-1/data/Data_2025-08-06,11h17m57s/2025-07-22_16-23-58_1_152.txt
2025-07-22, 16:23:58, 1
Index	Phase	Displacement	Time	Pos X	Pos Y	Pos Z	Rot A	Rot B	Piezo Z	Force A	Force B	Gripper	Voltage A	Voltage B	Temperature	Amplitude force	Amplitude pos	Stiffness	Phase shift	Phase excitation	Force A raw	Displacement raw	HMax	HMax raw	Real Force	Real Stiffness	Contact Depth	Area	Hardness	Reduced Mod.
[#]	[#]	[um]	[s]	[um]	[um]	[um]	[m°]	[m°]	[um]	[uN]	[uN]	[V]	[V]	[V]	[°C]	[uN]	[um]	[N/m]	[°]	[°]	[uN]	[um]	[um]	[um]	[uN]	[N/m]	[um]	[um^2]	[MPa]	[MPa]
152	1.000000	0.001980	7.36652e+06	-46239.1	955.818	-29770.3	0.000000	0.000000	6.002816	-0.071844	NaN	0.000000	0.001712	0.001668	28.1308	0.036620	0.001085	33.7481	-12.0285	-164.293	-0.036401	0.000690	-1.042574	-1.043863	-0.071844	33.7481	-1.040977	-8.074293E+13	8.897867E-16	NaN
152	1.000000	0.009973	7.36652e+06	-46239.1	955.818	-29770.3	0.000000	0.000000	6.010810	-0.049031	NaN	0.000000	0.001720	0.001670	28.1289	0.125879	0.000939	134.1	-10.8997	-161.922	-0.032519	0.008616	-1.034581	-1.035937	-0.049031	134.1	-1.034307	-6.567540E+13	7.465722E-16	NaN
152	1.000000	0.017941	7.36652e+06	-46239.1	955.818	-29770.3	0.000000	0.000000	6.018778	-0.036387	NaN	0.000000	0.001713	0.001661	28.1288	0.139327	0.001765	78.9283	107.66	-167.244	-0.020880	0.016575	-1.026613	-1.027978	-0.036387	78.9283	-1.026267	-5.119925E+13	7.106898E-16	NaN
152	1.000000	0.025950	7.36652e+06	-46239.1	955.819	-29770.3	0.000000	0.000000	6.026790	0.020772	NaN	0.000000	0.001721	0.001681	28.1288	0.009588	0.001897	5.055608	-73.2013	-166.339	0.040349	0.024635	-1.018603	-1.019919	0.020772	5.055608	-1.021685	-4.442442E+13	-4.675708E-16	NaN
152	1.000000	0.033925	7.36652e+06	-46239.1	955.818	-29770.3	0.000000	0.000000	6.034761	-0.070912	NaN	0.000000	0.001708	0.001658	28.1288	0.077152	0.001935	39.8803	143.713	-164.171	-0.057803	0.032621	-1.010629	-1.011933	-0.070912	39.8803	-1.009295	-3.026187E+13	2.343269E-15	NaN
152	1.000000	0.041915	7.36652e+06	-46239.1	955.818	-29770.3	0.000000	0.000000	6.042753	-0.029557	NaN	0.000000	0.001732	0.001668	28.1292	0.071053	0.001915	37.1012	133.162	-168.267	-0.060553	0.040593	-1.002638	-1.003960	-0.029557	37.1012	-1.002041	-2.416812E+13	1.222980E-15	NaN
152	1.000000	0.049909	7.36652e+06	-46239.1	955.819	-29770.3	0.000000	0.000000	6.050750	0.035779	NaN	0.000000	0.001702	0.001665	28.1298	0.088036	0.002004	43.933	-75.7619	-168.785	0.067124	0.048644	-0.994644	-0.995909	0.035779	43.933	-0.995255	-1.958296E+13	-1.827047E-15	NaN
152	1.000000	0.057898	7.36652e+06	-46239.1	955.818	-29770.3	0.000000	0.000000	6.058736	-0.039131	NaN	0.000000	0.001667	0.001669	28.1302	0.156403	0.002008	77.887	92.665	-165.996	0.005432	0.056618	-0.986655	-0.987936	-0.039131	77.887	-0.986278	-1.482462E+13	2.639596E-15	NaN
152	1.000000	0.065913	7.36652e+06	-46239.1	955.818	-29770.3	0.000000	0.000000	6.066753	0.023859	NaN	0.000000	0.001662	0.001682	28.1306	0.025807	0.001999	12.9076	44.7403	-165.415	0.017233	0.064587	-0.978640	-0.979967	0.023859	12.9076	-0.980027	-1.221152E+13	-1.953795E-15	NaN
152	1.000000	0.073926	7.36652e+06	-46239.1	955.818	-29770.3	0.000000	0.000000	6.074762	-0.067188	NaN	0.000000	0.001663	0.001681	28.1299	0.080952	0.002104	38.4788	-121.593	-164.908	0.001535	0.072591	-0.970627	-0.971963	-0.067188	38.4788	-0.969317	-8.759204E+12	7.670523E-15	NaN
152	1.000000	0.081935	7.36652e+06	-46239.1	955.818	-29770.3	0.000000	0.000000	6.082775	0.029555	NaN	0.000000	0.001641	0.001690	28.1296	0.051199	0.002008	25.5007	-108.273	-166.976	0.063933	0.080616	-0.962619	-0.963938	0.029555	25.5007	-0.963488	-7.309567E+12	-4.043309E-15	NaN
152	1.000000	0.089928	7.36652e+06	-46239.1	955.819	-29770.3	0.000000	0.000000	6.090767	0.022248	NaN	0.000000	0.001675	0.001672	28.129	0.067840	0.002013	33.7005	-64.7354	-165.792	0.058051	0.088601	-0.954626	-0.955952	0.022248	33.7005	-0.955121	-5.637491E+12	-3.946443E-15	NaN
152	1.000000	0.097951	7.36652e+06	-46239.1	955.818	-29770.3	0.000000	0.000000	6.098791	0.026252	NaN	0.000000	0.001683	0.001693	28.129	0.066592	0.001948	34.1785	-158.429	-165.124	0.051566	0.096578	-0.946602	-0.947975	0.026252	34.1785	-0.947178	-4.405241E+12	-5.959206E-15	NaN
152	1.000000	0.105944	7.36652e+06	-46239.1	955.819	-29770.3	0.000000	0.000000	6.106779	-0.088541	NaN	0.000000	0.001682	0.001671	28.1302	0.036620	0.001996	18.3507	-160.402	-168.557	-0.072313	0.104612	-0.938610	-0.939941	-0.088541	18.3507	-0.934991	-3.016858E+12	2.934873E-14	NaN
152	1.000000	0.113920	7.36652e+06	-46239.1	955.818	-29770.3	0.000000	0.000000	6.114756	-0.074203	NaN	0.000000	0.001630	0.001687	28.1301	0.027000	0.002093	12.9015	134.459	-166.827	-0.050205	0.112630	-0.930633	-0.931924	-0.074203	12.9015	-0.926319	-2.304194E+12	3.220361E-14	NaN
152	1.000000	0.121941	7.36652e+06	-46239.1	955.819	-29770.3	0.000000	0.000000	6.122780	0.002572	NaN	0.000000	0.001648	0.001673	28.1306	0.096450	0.002053	46.991	36.0486	-165.719	0.025139	0.120662	-0.922612	-0.923891	0.002572	46.991	-0.922653	-2.056021E+12	-1.250724E-15	NaN
152	1.000000	0.129965	7.36652e+06	-46239.1	955.818	-29770.3	0.000000	0.000000	6.130807	0.055339	NaN	0.000000	0.001676	0.001635	28.1316	0.104270	0.001980	52.6739	17.0615	-168.512	0.104354	0.128622	-0.914588	-0.915932	0.055339	52.6739	-0.915376	-1.639713E+12	-3.374942E-14	NaN
152	1.000000	0.137933	7.36652e+06	-46239.1	955.818	-29770.3	0.000000	0.000000	6.138769	-0.047544	NaN	0.000000	0.001708	0.001674	28.1313	0.087041	0.001969	44.2064	86.2678	-166.903	-0.057524	0.136689	-0.906621	-0.907865	-0.047544	44.2064	-0.905814	-1.217930E+12	3.903661E-14	NaN
152	1.000000	0.145943	7.36652e+06	-46239.1	955.818	-29770.3	0.000000	0.000000	6.146782	-0.008167	NaN	0.000000	0.001705	0.001665	28.1315	0.067254	0.002133	31.5312	-64.0441	-166.327	-0.012712	0.144640	-0.898610	-0.899914	-0.008167	31.5312	-0.898416	-9.675192E+11	8.441434E-15	NaN
152	1.000000	0.153928	7.36652e+06	-46239.1	955.818	-29770.3	0.000000	0.000000	6.154767	0.009883	NaN	0.000000	0.001698	0.001661	28.1314	0.092789	0.002077	44.6721	-58.4786	-165.482	0.027203	0.152652	-0.890626	-0.891901	0.009883	44.6721	-0.890792	-7.631615E+11	-1.295006E-14	NaN
152	1.000000	0.161979	7.36652e+06	-46239.1	955.819	-29770.3	0.000000	0.000000	6.162818	-0.004571	NaN	0.000000	0.001676	0.001664	28.1314	0.026451	0.002068	12.7927	48.1165	-163.169	-0.002439	0.160626	-0.882574	-0.883927	-0.004571	12.7927	-0.882306	-5.859980E+11	7.799763E-15	NaN
152	1.000000	0.169952	7.36652e+06	-46239.1	955.818	-29770.3	0.000000	0.000000	6.170792	0.022791	NaN	0.000000	0.001672	0.001666	28.1306	0.073362	0.002001	36.6562	157.633	-168.153	-0.021269	0.168637	-0.874602	-0.875916	0.022791	36.6562	-0.875068	-4.677361E+11	-4.872709E-14	NaN
152	1.000000	0.177993	7.36652e+06	-46239.1	955.818	-29770.3	0.000000	0.000000	6.178832	0.003846	NaN	0.000000	0.001686	0.001663	28.1306	0.125854	0.002025	62.1571	151.891	-166.407	-0.003391	0.176719	-0.866561	-0.867834	0.003846	62.1571	-0.866607	-3.593652E+11	-1.070204E-14	NaN
152	1.000000	0.185953	7.36652e+06	-46239.1	955.819	-29770.3	0.000000	0.000000	6.186791	-0.013559	NaN	0.000000	0.001690	0.001683	28.1305	0.076527	0.001880	40.7117	16.4686	-165.255	-0.039770	0.184622	-0.858601	-0.859931	-0.013559	40.7117	-0.858351	-2.778444E+11	4.880207E-14	NaN
152	1.000000	0.193983	7.36652e+06	-46239.1	955.819	-29770.3	0.000000	0.000000	6.194821	-0.014143	NaN	0.000000	0.001698	0.001667	28.1305	0.128752	0.001945	66.1928	151.703	-167.854	-0.019775	0.192635	-0.850570	-0.851918	-0.014143	66.1928	-0.850410	-2.169147E+11	6.520302E-14	NaN
152	1.000000	0.201985	7.36652e+06	-46239.1	955.818	-29770.3	0.000000	0.000000	6.202824	-0.018403	NaN	0.000000	0.001693	0.001661	28.1309	0.064617	0.002032	31.8073	-175.41	-165.692	-0.020578	0.200664	-0.842568	-0.843890	-0.018403	31.8073	-0.842134	-1.675723E+11	1.098233E-13	NaN
152	1.000000	0.209990	7.36652e+06	-46239.1	955.819	-29770.3	0.000000	0.000000	6.210829	0.008857	NaN	0.000000	0.001703	0.001682	28.1319	0.119720	0.001916	62.4682	-17.7864	-162.853	0.074919	0.208683	-0.834563	-0.835871	0.008857	62.4682	-0.834670	-1.327615E+11	-6.671147E-14	NaN
152	1.000000	0.217994	7.36652e+06	-46239.1	955.818	-29770.3	0.000000	0.000000	6.218833	0.001752	NaN	0.000000	0.001657	0.001656	28.1316	0.133235	0.002050	64.9978	-0.849842	-167.003	0.072753	0.216630	-0.826560	-0.827924	0.001752	64.9978	-0.826580	-1.031391E+11	-1.698361E-14	NaN
152	1.000000	0.226004	7.36652e+06	-46239.1	955.817	-29770.3	0.000000	0.000000	6.226842	-0.020750	NaN	0.000000	0.001662	0.001661	28.1315	0.044566	0.002094	21.2837	-106.97	-164.617	0.026452	0.224656	-0.818550	-0.819898	-0.020750	21.2837	-0.817818	-7.845576E+10	2.644846E-13	NaN
152	1.000000	0.233982	7.36652e+06	-46239.1	955.818	-29770.3	0.000000	0.000000	6.234820	-0.026736	NaN	0.000000	0.001660	0.001644	28.1317	0.098468	0.001969	50.0037	111.801	-167.84	-0.020993	0.232655	-0.810571	-0.811898	-0.026736	50.0037	-0.810170	-6.178419E+10	4.327326E-13	NaN
152	1.000000	0.241987	7.36652e+06	-46239.1	955.818	-29770.3	0.000000	0.000000	6.242826	0.002816	NaN	0.000000	0.001678	0.001673	28.1305	0.075568	0.001980	38.165	-171.796	-168.693	-0.033595	0.240679	-0.802566	-0.803874	0.002816	38.165	-0.802621	-4.880263E+10	-5.770861E-14	NaN
152	1.000000	0.249992	7.36652e+06	-46239.1	955.819	-29770.3	0.000000	0.000000	6.250831	0.005119	NaN	0.000000	0.001691	0.001665	28.1297	0.024176	0.001990	12.1489	123.599	-166.915	0.031004	0.248654	-0.794561	-0.795900	0.005119	12.1489	-0.794877	-3.831048E+10	-1.336310E-13	NaN
152	1.000000	0.258018	7.36653e+06	-46239.1	955.82	-29770.3	0.000000	0.000000	6.258859	0.040308	NaN	0.000000	0.001693	0.001689	28.1298	0.047442	0.001985	23.8991	-134.987	-167.19	0.034763	0.256742	-0.786535	-0.787811	0.040308	23.8991	-0.787800	-3.070467E+10	-1.312761E-12	NaN
152	1.000000	0.266028	7.36653e+06	-46239.1	955.818	-29770.3	0.000000	0.000000	6.266867	-0.006931	NaN	0.000000	0.001697	0.001676	28.13	0.011944	0.001928	6.195543	139.928	-171.591	-0.107137	0.264685	-0.778525	-0.779868	-0.006931	6.195543	-0.777686	-2.237643E+10	3.097464E-13	NaN
152	1.000000	0.274023	7.36653e+06	-46239.1	955.819	-29770.3	0.000000	0.000000	6.274866	0.094595	NaN	0.000000	0.001661	0.001665	28.1299	0.086379	0.002112	40.8928	106.987	-167.213	0.090679	0.272669	-0.770530	-0.771884	0.094595	40.8928	-0.772265	-1.888441E+10	-5.009148E-12	NaN
152	1.000000	0.281999	7.36653e+06	-46239.1	955.818	-29770.3	0.000000	0.000000	6.282836	-0.046025	NaN	0.000000	0.001667	0.001642	28.1299	0.026166	0.002067	12.658	-84.9278	-165.839	-0.048930	0.280708	-0.762554	-0.763846	-0.046025	12.658	-0.759827	-1.279247E+10	3.597841E-12	NaN
152	1.000000	0.290011	7.36653e+06	-46239.1	955.818	-29770.3	0.000000	0.000000	6.290850	-3.524759E-5	NaN	0.000000	0.001684	0.001667	28.1311	0.059732	0.001906	31.3368	88.7077	-169.034	-0.068028	0.288662	-0.754542	-0.755892	-3.524759E-5	31.3368	-0.754541	-1.084002E+10	3.251616E-15	NaN
152	1.000000	0.298012	7.36653e+06	-46239.1	955.818	-29770.3	0.000000	0.000000	6.298850	-0.019495	NaN	0.000000	0.001674	0.001683	28.1308	0.069300	0.002068	33.5071	73.0058	-167.681	-0.156531	0.296717	-0.746542	-0.747836	-0.019495	33.5071	-0.746105	-8.321438E+9	2.342713E-12	NaN
152	1.000000	0.306013	7.36653e+06	-46239.1	955.818	-29770.3	0.000000	0.000000	6.306851	-0.025282	NaN	0.000000	0.001725	0.001674	28.1308	0.027398	0.002038	13.4444	-146.875	-165.541	0.018059	0.304660	-0.738540	-0.739894	-0.025282	13.4444	-0.737130	-6.279954E+9	4.025852E-12	NaN
152	1.000000	0.314050	7.36653e+06	-46239.1	955.818	-29770.3	0.000000	0.000000	6.314887	-0.047198	NaN	0.000000	0.001699	0.001646	28.131	0.055064	0.002135	25.7903	-144.36	-164.352	-0.096759	0.312657	-0.730503	-0.731896	-0.047198	25.7903	-0.729131	-4.886110E+9	9.659582E-12	NaN
152	1.000000	0.322017	7.36653e+06	-46239.1	955.819	-29770.3	0.000000	0.000000	6.322854	-0.047322	NaN	0.000000	0.001658	0.001674	28.1305	0.036715	0.001974	18.5957	-76.2249	-168.433	0.070993	0.320788	-0.722536	-0.723765	-0.047322	18.5957	-0.720628	-3.741418E+9	1.264809E-11	NaN
152	1.000000	0.330002	7.36653e+06	-46239.1	955.818	-29770.3	0.000000	0.000000	6.330840	-0.007094	NaN	0.000000	0.001705	0.001638	28.1296	0.075319	0.002043	36.8657	42.2045	-167.953	-0.015838	0.328728	-0.714552	-0.715826	-0.007094	36.8657	-0.714407	-3.077421E+9	2.305270E-12	NaN
152	1.000000	0.338038	7.36653e+06	-46239.1	955.819	-29770.3	0.000000	0.000000	6.338876	-0.003021	NaN	0.000000	0.001662	0.001682	28.1297	0.031247	0.001978	15.7934	33.634	-169.239	-0.050926	0.336679	-0.706516	-0.707875	-0.003021	15.7934	-0.706372	-2.390757E+9	1.263648E-12	NaN
152	1.000000	0.346010	7.36653e+06	-46239.1	955.819	-29770.3	0.000000	0.000000	6.346847	-0.040548	NaN	0.000000	0.001690	0.001693	28.1298	0.027619	0.002020	13.672	114.746	-164.154	-0.123080	0.344691	-0.698544	-0.699862	-0.040548	13.672	-0.696319	-1.742856E+9	2.326529E-11	NaN
152	1.000000	0.354036	7.36653e+06	-46239.1	955.819	-29770.3	0.000000	0.000000	6.354872	-0.058857	NaN	0.000000	0.001650	0.001689	28.1297	0.047925	0.001973	24.2905	-8.400272	-166.331	-0.024481	0.352757	-0.690518	-0.691796	-0.058857	24.2905	-0.688701	-1.371382E+9	4.291810E-11	NaN
152	1.000000	0.362054	7.36653e+06	-46239.1	955.819	-29770.3	0.000000	0.000000	6.362890	-0.050661	NaN	0.000000	0.001606	0.001650	28.1298	0.090712	0.002066	43.9073	-114.549	-167.115	-0.095726	0.360759	-0.682500	-0.683795	-0.050661	43.9073	-0.681634	-1.097887E+9	4.614370E-11	NaN
152	1.000000	0.370042	7.36653e+06	-46239.1	955.819	-29770.3	0.000000	0.000000	6.370879	-0.039887	NaN	0.000000	0.001623	0.001652	28.1306	0.038617	0.001958	19.7176	153.759	-166.036	-0.034595	0.368832	-0.674511	-0.675721	-0.039887	19.7176	-0.672994	-8.363101E+8	4.769449E-11	NaN
152	1.000000	0.378050	7.36653e+06	-46239.1	955.819	-29770.3	0.000000	0.000000	6.378891	0.058138	NaN	0.000000	0.001673	0.001646	28.1321	0.062518	0.002085	29.9907	-167.836	-168.442	0.104651	0.376718	-0.666503	-0.667835	0.058138	29.9907	-0.667957	-7.135610E+8	-8.147640E-11	NaN
152	1.000000	0.386017	7.36653e+06	-46239.1	955.819	-29770.3	0.000000	0.000000	6.386856	0.024176	NaN	0.000000	0.001646	0.001667	28.1319	0.114307	0.002021	56.5483	140.33	-168.104	0.070413	0.384727	-0.658537	-0.659826	0.024176	56.5483	-0.658858	-5.355728E+8	-4.513991E-11	NaN
152	1.000000	0.394023	7.36653e+06	-46239.1	955.818	-29770.3	0.000000	0.000000	6.394861	-0.012637	NaN	0.000000	0.001708	0.001684	28.132	0.104756	0.001795	58.365	-34.5481	-166.545	-0.018474	0.392747	-0.650531	-0.651806	-0.012637	58.365	-0.650368	-4.097169E+8	3.084206E-11	NaN
152	1.000000	0.402061	7.36653e+06	-46239.1	955.819	-29770.3	0.000000	0.000000	6.402898	-0.034853	NaN	0.000000	0.001703	0.001715	28.132	0.025897	0.002062	12.5588	-105.449	-169.784	-0.043813	0.400790	-0.642492	-0.643764	-0.034853	12.5588	-0.640411	-2.991776E+8	1.164944E-10	NaN
152	1.000000	0.410054	7.36653e+06	-46239.1	955.818	-29770.3	0.000000	0.000000	6.410892	-0.027741	NaN	0.000000	0.001715	0.001683	28.1306	0.103117	0.001927	53.5086	-87.6876	-164.305	-0.006088	0.408745	-0.634499	-0.635809	-0.027741	53.5086	-0.634110	-2.451660E+8	1.131537E-10	NaN
152	1.000000	0.418068	7.36653e+06	-46239.1	955.819	-29770.3	0.000000	0.000000	6.418903	-0.094300	NaN	0.000000	0.001677	0.001725	28.131	0.050891	0.001998	25.4701	97.0538	-171.444	0.010123	0.416776	-0.626485	-0.627777	-0.094300	25.4701	-0.623709	-1.764414E+8	5.344563E-10	NaN
152	1.000000	0.426049	7.36653e+06	-46239.1	955.819	-29770.3	0.000000	0.000000	6.426885	-0.072715	NaN	0.000000	0.001675	0.001737	28.1307	0.079204	0.002097	37.7675	101.162	-168.281	-0.092780	0.424700	-0.618504	-0.619854	-0.072715	37.7675	-0.617060	-1.429614E+8	5.086325E-10	NaN
152	1.000000	0.434051	7.36653e+06	-46239.1	955.818	-29770.3	0.000000	0.000000	6.434888	-0.046216	NaN	0.000000	0.001712	0.001703	28.1306	0.085021	0.002026	41.9628	-35.4261	-168.699	-0.033706	0.432776	-0.610503	-0.611778	-0.046216	41.9628	-0.609677	-1.131527E+8	4.084352E-10	NaN
152	1.000000	0.442072	7.36653e+06	-46239.1	955.819	-29770.3	0.000000	0.000000	6.442910	-0.006096	NaN	0.000000	0.001683	0.001692	28.131	0.107874	0.002022	53.357	-164.847	-164.512	-0.065508	0.440782	-0.602482	-0.603772	-0.006096	53.357	-0.602396	-8.983712E+7	6.785280E-11	NaN
152	1.000000	0.450078	7.36653e+06	-46239.1	955.819	-29770.3	0.000000	0.000000	6.450914	-0.073327	NaN	0.000000	0.001643	0.001689	28.1318	0.113620	0.001983	57.3085	-24.6921	-164.752	-0.080768	0.448762	-0.594475	-0.595791	-0.073327	57.3085	-0.593516	-6.778370E+7	1.081776E-9	NaN
152	1.000000	0.458094	7.36653e+06	-46239.1	955.818	-29770.3	0.000000	0.000000	6.458931	-0.038795	NaN	0.000000	0.001631	0.001695	28.132	0.052762	0.002065	25.5493	-169.053	-166.111	-0.001461	0.456801	-0.586460	-0.587753	-0.038795	25.5493	-0.585321	-5.225642E+7	7.424023E-10	NaN
152	1.000000	0.466077	7.36653e+06	-46239.1	955.818	-29770.3	0.000000	0.000000	6.466916	0.017768	NaN	0.000000	0.001660	0.001679	28.1319	0.077268	0.001918	40.2867	-167.394	-167.443	-0.047201	0.464778	-0.578477	-0.579776	0.017768	40.2867	-0.578808	-4.248811E+7	-4.181969E-10	NaN
152	1.000000	0.474090	7.36653e+06	-46239.1	955.818	-29770.3	0.000000	0.000000	6.474927	-0.031978	NaN	0.000000	0.001601	0.001673	28.1321	0.045065	0.001989	22.6538	76.285	-166.047	0.040020	0.472779	-0.570464	-0.571774	-0.031978	22.6538	-0.569405	-3.150707E+7	1.014954E-9	NaN
152	1.000000	0.482104	7.36653e+06	-46239.1	955.818	-29770.3	0.000000	0.000000	6.482943	0.002750	NaN	0.000000	0.001662	0.001678	28.1319	0.091319	0.002089	43.72	31.9381	-164.536	-0.018604	0.480777	-0.562450	-0.563777	0.002750	43.72	-0.562497	-2.528783E+7	-1.087610E-10	NaN
152	1.000000	0.490115	7.36653e+06	-46239.1	955.818	-29770.3	0.000000	0.000000	6.490950	-0.085965	NaN	0.000000	0.001662	0.001711	28.131	0.165344	0.002049	80.6834	-118.439	-166.513	-0.019795	0.488772	-0.554439	-0.555781	-0.085965	80.6834	-0.553640	-1.907023E+7	4.507823E-9	NaN
152	1.000000	0.498089	7.36653e+06	-46239.1	955.819	-29770.3	0.000000	0.000000	6.498931	0.059605	NaN	0.000000	0.001656	0.001685	28.1308	0.054395	0.002052	26.509	-11.9378	-166.419	0.055382	0.496787	-0.546464	-0.547767	0.059605	26.509	-0.548151	-1.600799E+7	-3.723463E-9	NaN
152	1.000000	0.506110	7.36653e+06	-46239.1	955.819	-29770.3	0.000000	0.000000	6.506945	-0.088308	NaN	0.000000	0.001672	0.001672	28.131	0.085291	0.002072	41.1636	160.056	-166.949	-0.055623	0.504794	-0.538444	-0.539760	-0.088308	41.1636	-0.536835	-1.115445E+7	7.916810E-9	NaN
152	1.000000	0.514117	7.36653e+06	-46239.1	955.819	-29770.3	0.000000	0.000000	6.514957	0.015346	NaN	0.000000	0.001643	0.001693	28.1298	0.145760	0.002165	67.3159	88.7521	-165.856	-0.033341	0.512804	-0.530436	-0.531750	0.015346	67.3159	-0.530607	-9.14133e+06	-1.678717E-9	NaN
152	1.000000	0.522127	7.36653e+06	-46239.1	955.819	-29770.3	0.000000	0.000000	6.522965	-0.008514	NaN	0.000000	0.001695	0.001681	28.1303	0.109597	0.001921	57.0476	66.2686	-166.071	-0.055961	0.520802	-0.522427	-0.523752	-0.008514	57.0476	-0.522315	-7.01111e+06	1.214408E-9	NaN
152	1.000000	0.530111	7.36653e+06	-46239.1	955.818	-29770.3	0.000000	0.000000	6.530950	-0.013658	NaN	0.000000	0.001649	0.001718	28.1307	0.020509	0.001954	10.4968	130.151	-167.62	-0.022826	0.528774	-0.514442	-0.515779	-0.013658	10.4968	-0.513466	-5.28061e+06	2.586439E-9	NaN
152	1.000000	0.538110	7.36653e+06	-46239.1	955.818	-29770.3	0.000000	0.000000	6.538948	-0.021244	NaN	0.000000	0.001670	0.001695	28.1311	0.146022	0.001979	73.7899	-35.704	-167.026	-0.086300	0.536783	-0.506444	-0.507770	-0.021244	73.7899	-0.506228	-4.18656e+06	5.074323E-9	NaN
152	1.000000	0.546146	7.36653e+06	-46239.1	955.82	-29770.3	0.000000	0.000000	6.546984	-0.038574	NaN	0.000000	0.001656	0.001681	28.1308	0.061516	0.002010	30.5983	-168.407	-167.934	-0.088683	0.544853	-0.498407	-0.499701	-0.038574	30.5983	-0.497462	-3.15934e+06	1.220962E-8	NaN
152	1.000000	0.554145	7.36653e+06	-46239.1	955.819	-29770.3	0.000000	0.000000	6.554980	-0.096640	NaN	0.000000	0.001675	0.001731	28.1308	0.071041	0.002148	33.0685	8.262945	-167.521	-0.071241	0.552767	-0.490408	-0.491787	-0.096640	33.0685	-0.488216	-2.34674e+06	4.118037E-8	NaN
152	1.000000	0.562166	7.36653e+06	-46239.1	955.818	-29770.3	0.000000	0.000000	6.563005	-0.009914	NaN	0.000000	0.001644	0.001729	28.1309	0.095902	0.002002	47.913	-167.132	-166.042	-0.011451	0.560816	-0.482387	-0.483738	-0.009914	47.913	-0.482232	-1.93539e+06	5.122695E-9	NaN
152	1.000000	0.570101	7.36653e+06	-46239.1	955.819	-29770.3	0.000000	0.000000	6.570937	-0.065535	NaN	0.000000	0.001644	0.001704	28.1299	0.112900	0.001948	57.9517	35.0573	-170.549	-0.039120	0.568805	-0.474452	-0.475749	-0.065535	57.9517	-0.473604	-1.46534e+06	4.472330E-8	NaN
152	1.000000	0.578146	7.36653e+06	-46239.1	955.819	-29770.3	0.000000	0.000000	6.578986	0.019372	NaN	0.000000	0.001666	0.001721	28.1294	0.159637	0.001934	82.5275	18.033	-166.304	0.101693	0.576855	-0.466407	-0.467698	0.019372	82.5275	-0.466583	-1.16808e+06	-1.658448E-8	NaN
152	1.000000	0.586157	7.36653e+06	-46239.1	955.819	-29770.3	0.000000	0.000000	6.586994	-0.049526	NaN	0.000000	0.001745	0.001705	28.13	0.056255	0.002026	27.7696	17.4665	-166.584	-0.094740	0.584856	-0.458397	-0.459697	-0.049526	27.7696	-0.457059	-858376	5.769760E-8	NaN
152	1.000000	0.594131	7.36653e+06	-46239.1	955.818	-29770.3	0.000000	0.000000	6.594971	0.031247	NaN	0.000000	0.001756	0.001688	28.1299	0.043367	0.002041	21.252	65.9138	-167.97	-0.019128	0.592866	-0.450422	-0.451687	0.031247	21.252	-0.451525	-717489	-4.355060E-8	NaN
152	1.000000	0.602170	7.36653e+06	-46239.1	955.819	-29770.3	0.000000	0.000000	6.603013	0.091757	NaN	0.000000	0.001730	0.001697	28.1303	0.074460	0.001970	37.796	-136.72	-164.65	0.061834	0.600773	-0.442383	-0.443780	0.091757	37.796	-0.444204	-565805	-1.621710E-7	NaN
152	1.000000	0.610135	7.36653e+06	-46239.1	955.818	-29770.3	0.000000	0.000000	6.610975	0.033618	NaN	0.000000	0.001669	0.001731	28.1313	0.063175	0.001926	32.8039	46.4303	-162.306	0.097046	0.608824	-0.434419	-0.435730	0.033618	32.8039	-0.435187	-422087	-7.964660E-8	NaN
152	1.000000	0.618131	7.36653e+06	-46239.1	955.819	-29770.3	0.000000	0.000000	6.618969	-0.032810	NaN	0.000000	0.001691	0.001743	28.1309	0.058667	0.001937	30.2902	104.61	-167.271	-0.053257	0.616870	-0.426422	-0.427684	-0.032810	30.2902	-0.425610	-308973	1.061898E-7	NaN
152	1.000000	0.626171	7.36653e+06	-46239.1	955.819	-29770.3	0.000000	0.000000	6.627009	-0.029142	NaN	0.000000	0.001687	0.001714	28.1314	0.048375	0.001976	24.4835	145.284	-163.591	-0.024973	0.624844	-0.418382	-0.419709	-0.029142	24.4835	-0.417490	-237027	1.229499E-7	NaN
152	1.000000	0.634168	7.36653e+06	-46239.1	955.818	-29770.3	0.000000	0.000000	6.635002	-0.114334	NaN	0.000000	0.001695	0.001709	28.131	0.070953	0.001928	36.8054	51.6164	-168.678	-0.050670	0.632828	-0.410385	-0.411725	-0.114334	36.8054	-0.408056	-174078	6.568014E-7	NaN
152	1.000000	0.642168	7.36653e+06	-46239.1	955.819	-29770.3	0.000000	0.000000	6.643008	0.021705	NaN	0.000000	0.001662	0.001724	28.1304	0.045150	0.001984	22.754	125.628	-165.725	0.076407	0.640859	-0.402385	-0.403694	0.021705	22.754	-0.403100	-147975	-1.466767E-7	NaN
152	1.000000	0.650178	7.36653e+06	-46239.1	955.818	-29770.3	0.000000	0.000000	6.651017	0.009196	NaN	0.000000	0.001666	0.001722	28.1311	0.072262	0.001988	36.3408	-3.642096	-166.999	0.029914	0.648822	-0.394375	-0.395732	0.009196	36.3408	-0.394565	-111795	-8.225919E-8	NaN
152	1.000000	0.658174	7.36653e+06	-46239.1	955.819	-29770.3	0.000000	0.000000	6.659012	-0.023722	NaN	0.000000	0.001658	0.001756	28.1312	0.017653	0.002092	8.439527	113.288	-166.9	-0.033134	0.656907	-0.386379	-0.387647	-0.023722	8.439527	-0.384271	-79641.6	2.978573E-7	NaN
152	1.000000	0.666157	7.36653e+06	-46239.1	955.819	-29770.3	0.000000	0.000000	6.666996	-0.003054	NaN	0.000000	0.001697	0.001792	28.132	0.051513	0.001967	26.1918	-129.514	-165.925	0.078252	0.664857	-0.378396	-0.379696	-0.003054	26.1918	-0.378309	-65405.5	4.668620E-8	NaN
152	1.000000	0.674167	7.36653e+06	-46239.1	955.819	-29770.3	0.000000	0.000000	6.675005	-0.020649	NaN	0.000000	0.001681	0.001807	28.1312	0.069636	0.001996	34.8939	-84.9435	-166.447	-0.018291	0.672855	-0.370386	-0.371698	-0.020649	34.8939	-0.369942	-49579.1	4.164771E-7	NaN
152	1.000000	0.682189	7.36653e+06	-46239.1	955.819	-29770.3	0.000000	0.000000	6.683028	-0.007576	NaN	0.000000	0.001685	0.001735	28.1316	0.074092	0.002050	36.1341	-50.4933	-165.648	-0.026014	0.680864	-0.362364	-0.363690	-0.007576	36.1341	-0.362207	-38347.5	1.975716E-7	NaN
152	1.000000	0.690175	7.36653e+06	-46239.1	955.818	-29770.3	0.000000	0.000000	6.691012	-0.037479	NaN	0.000000	0.001705	0.001717	28.1324	0.036201	0.002121	17.0643	-14.5879	-167.522	-0.058598	0.688876	-0.354379	-0.355677	-0.037479	17.0643	-0.352732	-27965.7	1.340190E-6	NaN
152	1.000000	0.698220	7.36653e+06	-46239.1	955.819	-29770.3	0.000000	0.000000	6.699059	-0.009443	NaN	0.000000	0.001724	0.001705	28.1322	0.126711	0.002043	62.0126	-155.469	-169.684	-0.013889	0.696890	-0.346333	-0.347663	-0.009443	62.0126	-0.346219	-22494.9	4.198009E-7	NaN
152	1.000000	0.706194	7.36653e+06	-46239.1	955.817	-29770.3	0.000000	0.000000	6.707035	0.052946	NaN	0.000000	0.001687	0.001686	28.1328	0.061353	0.002254	27.2181	-78.4894	-165.37	0.033779	0.704882	-0.338359	-0.339671	0.052946	27.2181	-0.339818	-18151	-2.916989E-6	NaN
152	1.000000	0.714205	7.36653e+06	-46239.1	955.817	-29770.3	0.000000	0.000000	6.715043	-0.020191	NaN	0.000000	0.001688	0.001678	28.1322	0.023547	0.001985	11.8612	130.869	-167.151	0.060563	0.712861	-0.330349	-0.331693	-0.020191	11.8612	-0.329072	-12643.2	1.596967E-6	NaN
152	1.000000	0.722207	7.36653e+06	-46239.1	955.818	-29770.3	0.000000	0.000000	6.723045	-0.023428	NaN	0.000000	0.001667	0.001702	28.1321	0.027282	0.002011	13.5676	162.862	-169.788	0.021306	0.720898	-0.322346	-0.323655	-0.023428	13.5676	-0.321051	-9640.69	2.430125E-6	NaN
152	1.000000	0.730203	7.36653e+06	-46239.1	955.818	-29770.3	0.000000	0.000000	6.731040	-0.047201	NaN	0.000000	0.001685	0.001733	28.1313	0.028153	0.001958	14.379	-179.153	-165.677	-0.057804	0.728895	-0.314350	-0.315658	-0.047201	14.379	-0.311888	-7062.88	6.682939E-6	NaN
152	1.000000	0.738219	7.36653e+06	-46239.1	955.819	-29770.3	0.000000	0.000000	6.739059	0.024095	NaN	0.000000	0.001707	0.001726	28.1317	0.108164	0.002088	51.7943	76.7549	-166.47	-0.029567	0.736843	-0.306334	-0.307711	0.024095	51.7943	-0.306683	-5914.56	-4.073868E-6	NaN
152	1.000000	0.746197	7.36653e+06	-46239.1	955.819	-29770.3	0.000000	0.000000	6.747037	0.030217	NaN	0.000000	0.001705	0.001675	28.1312	0.059279	0.001890	31.362	-157.724	-164.832	-0.004295	0.744879	-0.298356	-0.299674	0.030217	31.362	-0.299079	-4559.54	-6.627269E-6	NaN
152	1.000000	0.754218	7.36653e+06	-46239.1	955.818	-29770.3	0.000000	0.000000	6.755056	-0.015184	NaN	0.000000	0.001702	0.001673	28.1312	0.067377	0.001993	33.8062	-119.015	-162.627	-0.023384	0.752877	-0.290335	-0.291677	-0.015184	33.8062	-0.289999	-3336.42	4.550939E-6	NaN
152	1.000000	0.762200	7.36653e+06	-46239.1	955.818	-29770.3	0.000000	0.000000	6.763040	0.025729	NaN	0.000000	0.001738	0.001686	28.1312	0.108934	0.002069	52.6491	172.11	-168.006	-0.012630	0.760832	-0.282354	-0.283721	0.025729	52.6491	-0.282720	-2594	-9.918547E-6	NaN
152	1.000000	0.770210	7.36653e+06	-46239.1	955.818	-29770.3	0.000000	0.000000	6.771050	0.032497	NaN	0.000000	0.001717	0.001701	28.1331	0.032750	0.002082	15.7275	5.487297	-166.339	-0.020615	0.768900	-0.274343	-0.275653	0.032497	15.7275	-0.275893	-2046.05	-1.588293E-5	NaN
152	1.000000	0.778215	7.36653e+06	-46239.1	955.819	-29770.3	0.000000	0.000000	6.779055	0.029574	NaN	0.000000	0.001757	0.001669	28.1321	0.082627	0.001957	42.2111	-162.225	-163.984	-0.073443	0.776955	-0.266338	-0.267599	0.029574	42.2111	-0.266864	-1492.14	-1.981954E-5	NaN
152	1.000000	0.786235	7.36653e+06	-46239.1	955.818	-29770.3	0.000000	0.000000	6.787072	-0.039509	NaN	0.000000	0.001689	0.001656	28.1311	0.067153	0.002000	33.5808	135.728	-166.473	-0.074298	0.784904	-0.258318	-0.259650	-0.039509	33.5808	-0.257436	-1070.48	3.690828E-5	NaN
152	1.000000	0.794210	7.36653e+06	-46239.1	955.818	-29770.3	0.000000	0.000000	6.795050	0.015908	NaN	0.000000	0.001718	0.001692	28.1313	0.027012	0.002025	13.3425	-80.3636	-163.7	-0.077363	0.792926	-0.250343	-0.251627	0.015908	13.3425	-0.251237	-859.199	-1.851444E-5	NaN
152	1.000000	0.802242	7.36653e+06	-46239.1	955.819	-29770.3	0.000000	0.000000	6.803080	-0.001479	NaN	0.000000	0.001710	0.001692	28.1306	0.102632	0.002087	49.1882	95.5997	-168.764	0.053767	0.800925	-0.242312	-0.243629	-0.001479	49.1882	-0.242289	-624.122	2.370192E-6	NaN
152	1.000000	0.810216	7.36653e+06	-46239.1	955.818	-29770.3	0.000000	0.000000	6.811054	-0.016114	NaN	0.000000	0.001719	0.001680	28.131	0.052392	0.002177	24.0686	80.8222	-166.808	0.001383	0.808949	-0.234338	-0.235604	-0.016114	24.0686	-0.233835	-460.204	3.501465E-5	NaN
152	1.000000	0.818238	7.36653e+06	-46239.1	955.818	-29770.3	0.000000	0.000000	6.819076	-0.015175	NaN	0.000000	0.001732	0.001687	28.1308	0.070060	0.002064	33.9397	79.0851	-167.933	-0.053810	0.816936	-0.226316	-0.227618	-0.015175	33.9397	-0.225980	-345.855	4.387780E-5	NaN
152	1.000000	0.826229	7.36653e+06	-46239.1	955.818	-29770.3	0.000000	0.000000	6.827068	-0.012549	NaN	0.000000	0.001748	0.001680	28.1303	0.194234	0.001977	98.2339	119.985	-166.744	0.053126	0.824921	-0.218324	-0.219632	-0.012549	98.2339	-0.218228	-260.213	4.822620E-5	NaN
152	1.000000	0.834239	7.36653e+06	-46239.1	955.819	-29770.3	0.000000	0.000000	6.835075	-0.069301	NaN	0.000000	0.001709	0.001668	28.1303	0.019773	0.001998	9.898386	49.711	-166.494	-0.050831	0.832905	-0.210314	-0.211649	-0.069301	9.898386	-0.205063	-159.438	0.000435	NaN
152	1.000000	0.842212	7.36653e+06	-46239.1	955.819	-29770.3	0.000000	0.000000	6.843049	-0.056679	NaN	0.000000	0.001706	0.001685	28.1305	0.077165	0.002007	38.4571	-109.294	-168.18	0.017316	0.840938	-0.202341	-0.203616	-0.056679	38.4571	-0.201236	-138.034	0.000411	NaN
152	1.000000	0.850238	7.36653e+06	-46239.1	955.819	-29770.3	0.000000	0.000000	6.851074	-0.048593	NaN	0.000000	0.001703	0.001686	28.1316	0.122509	0.001892	64.7483	46.1162	-168.095	-0.004001	0.848938	-0.194316	-0.195616	-0.048593	64.7483	-0.193753	-103.878	0.000468	NaN
152	1.000000	0.858252	7.36653e+06	-46239.1	955.819	-29770.3	0.000000	0.000000	6.859090	-0.031972	NaN	0.000000	0.001699	0.001696	28.1316	0.132606	0.002100	63.1513	-28.7066	-165.531	-0.008157	0.856940	-0.186301	-0.187614	-0.031972	63.1513	-0.185922	-76.8512	0.000416	NaN
152	1.000000	0.866256	7.36653e+06	-46239.1	955.818	-29770.3	0.000000	0.000000	6.867093	-0.028875	NaN	0.000000	0.001751	0.001687	28.1314	0.088318	0.002066	42.7384	-43.5685	-163.814	-0.081305	0.864957	-0.178298	-0.179597	-0.028875	42.7384	-0.177791	-55.9505	0.000516	NaN
152	1.000000	0.874252	7.36653e+06	-46239.1	955.819	-29770.3	0.000000	0.000000	6.875090	-0.009838	NaN	0.000000	0.001726	0.001666	28.1315	0.061802	0.001997	30.9493	-151.708	-170.358	-0.036526	0.872893	-0.170302	-0.171661	-0.009838	30.9493	-0.170063	-41.1824	0.000239	NaN
152	1.000000	0.882285	7.36653e+06	-46239.1	955.819	-29770.3	0.000000	0.000000	6.883125	0.025504	NaN	0.000000	0.001729	0.001689	28.1309	0.073295	0.002038	35.9633	-4.776775	-163.452	0.019229	0.880998	-0.162269	-0.163555	0.025504	35.9633	-0.162801	-30.7317	-0.000830	NaN
152	1.000000	0.890239	7.36653e+06	-46239.1	955.817	-29770.3	0.000000	0.000000	6.891077	-0.030106	NaN	0.000000	0.001665	0.001682	28.1302	0.086533	0.002120	40.8261	-102.669	-168.232	-0.047676	0.888959	-0.154314	-0.155595	-0.030106	40.8261	-0.153761	-21.1958	0.001420	NaN
152	1.000000	0.898287	7.36653e+06	-46239.1	955.818	-29770.3	0.000000	0.000000	6.899128	0.050187	NaN	0.000000	0.001672	0.001704	28.1301	0.170359	0.001902	89.5686	-178.408	-165.332	0.077194	0.896916	-0.146266	-0.147637	0.050187	89.5686	-0.146687	-15.7505	-0.003186	NaN
152	1.000000	0.906303	7.36653e+06	-46239.1	955.819	-29770.3	0.000000	0.000000	6.907141	-0.020781	NaN	0.000000	0.001670	0.001671	28.1303	0.070182	0.002031	34.5582	124.046	-164.956	-0.001724	0.904958	-0.138250	-0.139596	-0.020781	34.5582	-0.137799	-10.7519	0.001933	NaN
152	1.000000	0.914238	7.36653e+06	-46239.1	955.819	-29770.3	0.000000	0.000000	6.915078	0.010999	NaN	0.000000	0.001680	0.001688	28.1301	0.127068	0.002003	63.4278	-162.723	-166.616	0.016453	0.912941	-0.130315	-0.131612	0.010999	63.4278	-0.130445	-7.774142	-0.001415	NaN
152	1.000000	0.922273	7.36653e+06	-46239.1	955.818	-29770.3	0.000000	0.000000	6.923109	-0.065146	NaN	0.000000	0.001667	0.001695	28.1316	0.049424	0.001950	25.3407	141.29	-164.297	-0.118123	0.921026	-0.122280	-0.123528	-0.065146	25.3407	-0.120352	-4.911220	0.013265	NaN
152	1.000000	0.930285	7.36653e+06	-46239.1	955.818	-29770.3	0.000000	0.000000	6.931124	-0.001127	NaN	0.000000	0.001676	0.001697	28.1325	0.113673	0.002104	54.0346	-56.71	-163.457	-0.015815	0.928957	-0.114268	-0.115596	-0.001127	54.0346	-0.114252	-3.686975	0.000306	NaN
152	1.000000	0.938294	7.36653e+06	-46239.1	955.818	-29770.3	0.000000	0.000000	6.939134	0.006537	NaN	0.000000	0.001695	0.001668	28.1329	0.036697	0.001983	18.5035	-74.7604	-164.154	-0.032379	0.936978	-0.106259	-0.107576	0.006537	18.5035	-0.106524	-2.534958	-0.002579	NaN
152	1.000000	0.946301	7.36653e+06	-46239.1	955.819	-29770.3	0.000000	0.000000	6.947137	-0.052142	NaN	0.000000	0.001670	0.001671	28.1325	0.043642	0.001989	21.9459	-79.7095	-165.251	-0.053562	0.944974	-0.098253	-0.099579	-0.052142	21.9459	-0.096471	-1.523320	0.034229	NaN
152	1.000000	0.954282	7.36653e+06	-46239.1	955.819	-29770.3	0.000000	0.000000	6.955119	-0.037799	NaN	0.000000	0.001698	0.001638	28.1328	0.050845	0.002002	25.3925	-176.055	-164.262	-0.005406	0.953009	-0.090272	-0.091545	-0.037799	25.3925	-0.089155	-1.032634	0.036605	NaN
152	1.000000	0.962303	7.36653e+06	-46239.1	955.819	-29770.3	0.000000	0.000000	6.963142	0.014638	NaN	0.000000	0.001679	0.001684	28.1324	0.050534	0.002073	24.3746	-175.342	-166.874	0.002756	0.961029	-0.082251	-0.083524	0.014638	24.3746	-0.082701	-0.722159	-0.020269	NaN
152	1.000000	0.970295	7.36653e+06	-46239.1	955.818	-29770.3	0.000000	0.000000	6.971134	-0.008537	NaN	0.000000	0.001683	0.001682	28.1316	0.059728	0.001882	31.7284	-49.0171	-166.289	-0.054014	0.969044	-0.074258	-0.075509	-0.008537	31.7284	-0.074056	-0.436547	0.019556	NaN
152	1.000000	0.978307	7.36653e+06	-46239.1	955.818	-29770.3	0.000000	0.000000	6.979143	-0.054599	NaN	0.000000	0.001684	0.001644	28.1318	0.090494	0.001944	46.5432	-12.4932	-166.668	-0.079244	0.976948	-0.066247	-0.067606	-0.054599	46.5432	-0.065367	-0.255118	0.214015	NaN
152	1.000000	0.986317	7.36653e+06	-46239.1	955.818	-29770.3	0.000000	0.000000	6.987154	-0.049045	NaN	0.000000	0.001703	0.001647	28.1314	0.045482	0.002099	21.6658	51.205	-162.968	-0.122964	0.984961	-0.058236	-0.059592	-0.049045	21.6658	-0.056538	-0.142926	0.343150	NaN
152	1.000000	0.994297	7.36653e+06	-46239.1	955.817	-29770.3	0.000000	0.000000	6.995136	-0.006609	NaN	0.000000	0.001649	0.001661	28.1314	0.122278	0.001951	62.6753	50.6079	-170.011	-0.006935	0.992996	-0.050256	-0.051557	-0.006609	62.6753	-0.050177	-0.092382	0.071538	NaN
152	1.000000	1.002321	7.36653e+06	-46239.1	955.818	-29770.3	0.000000	0.000000	7.003158	-0.037110	NaN	0.000000	0.001651	0.001669	28.1321	0.071227	0.002110	33.7599	-133.843	-164.629	-0.037098	1.000987	-0.042233	-0.043566	-0.037110	33.7599	-0.041408	-0.049914	0.743485	NaN
152	1.000000	1.010310	7.36653e+06	-46239.1	955.818	-29770.3	0.000000	0.000000	7.011149	0.006076	NaN	0.000000	0.001664	0.001699	28.1325	0.064524	0.002224	29.0181	102.477	-166.379	-0.075708	1.008977	-0.034243	-0.035577	0.006076	29.0181	-0.034400	-0.030751	-0.197585	NaN
152	1.000000	1.018293	7.36653e+06	-46239.1	955.818	-29770.3	0.000000	0.000000	7.019134	0.058424	NaN	0.000000	0.001668	0.001715	28.1331	0.077793	0.001984	39.2019	-7.985484	-164.714	0.119622	1.017009	-0.026261	-0.027545	0.058424	39.2019	-0.027378	-0.019506	-2.995189	NaN
152	1.000000	1.026320	7.36653e+06	-46239.1	955.819	-29770.3	0.000000	0.000000	7.027158	-0.020392	NaN	0.000000	0.001689	0.001705	28.1323	0.029960	0.002088	14.3488	-122.859	-166.916	0.023372	1.025019	-0.018233	-0.019534	-0.020392	14.3488	-0.017168	-0.010618	1.920490	NaN
152	1.000000	1.034323	7.36653e+06	-46239.1	955.818	-29770.3	0.000000	0.000000	7.035162	-0.009792	NaN	0.000000	0.001668	0.001683	28.1326	0.152083	0.002001	75.9991	-97.2516	-167.074	0.042805	1.033017	-0.010230	-0.011537	-0.009792	75.9991	-0.010134	-0.006464	1.514954	NaN
152	1.000000	1.042332	7.36653e+06	-46239.1	955.817	-29770.3	0.000000	0.000000	7.043169	-0.041908	NaN	0.000000	0.001687	0.001701	28.1329	0.126305	0.002007	62.9395	42.2538	-168.334	-0.154642	1.041032	-0.002221	-0.003521	-0.041908	62.9395	-0.001722	-0.001246	33.6434	NaN
152	1.000000	1.050174	7.36653e+06	-46239.1	955.817	-29770.3	0.000000	0.000000	7.051384	9.044035	NaN	0.000000	0.001687	0.001695	28.1314	8.335453	0.001677	4971	9.505562	-174.659	6.550554	1.048983	0.005620	0.004429	9.044035	4971	0.004256	0.003464	2610.55	77161.8
152	2.000000	1.052830	7.36653e+06	-46239.1	955.818	-29770.3	0.000000	0.000000	7.054227	13.5762	NaN	0.000000	0.001693	0.001668	28.1307	11.6195	0.001570	7401.69	7.279393	-177.77	12.9279	1.052573	0.008276	0.008019	13.5762	7401.69	0.006900	0.005936	2287.23	87774.9
152	2.000000	1.054886	7.36653e+06	-46239.1	955.817	-29770.3	0.000000	0.000000	7.056440	17.3967	NaN	0.000000	0.001675	0.001660	28.1299	13.5982	0.001574	8640.22	6.162080	-176.022	17.68	1.054514	0.010333	0.009960	17.3967	8640.22	0.008823	0.007902	2201.48	88801.9
152	2.000000	1.056812	7.36653e+06	-46239.1	955.817	-29770.3	0.000000	0.000000	7.058510	20.9085	NaN	0.000000	0.001632	0.001665	28.1298	16.1547	0.001755	9206.85	6.952167	-177.143	20.9302	1.056507	0.012258	0.011953	20.9085	9206.85	0.010555	0.009805	2132.47	84950.2
152	2.000000	1.058817	7.36653e+06	-46239.1	955.818	-29770.3	0.000000	0.000000	7.060628	23.6462	NaN	0.000000	0.001673	0.001686	28.1308	17.8306	0.001774	10052.3	2.184997	-172.63	23.303	1.058541	0.014263	0.013988	23.6462	10052.3	0.012499	0.012093	1955.32	83515.5
152	2.000000	1.060780	7.36653e+06	-46239.1	955.818	-29770.3	0.000000	0.000000	7.062762	27.8074	NaN	0.000000	0.001694	0.001682	28.1314	20.1561	0.001754	11492	11.1648	177.739	27.2695	1.060463	0.016227	0.015909	27.8074	11492	0.014412	0.014509	1916.55	87166.3
152	2.000000	1.062783	7.36653e+06	-46239.1	955.818	-29770.3	0.000000	0.000000	7.064948	32.2776	NaN	0.000000	0.001635	0.001710	28.1326	21.5551	0.001792	12030.9	3.767236	-175.576	31.1505	1.062447	0.018229	0.017894	32.2776	12030.9	0.016217	0.016943	1905.1	84446.4
152	2.000000	1.064809	7.36653e+06	-46239.1	955.818	-29770.3	0.000000	0.000000	7.067177	37.1755	NaN	0.000000	0.001629	0.001672	28.1311	23.6178	0.001650	14310.6	3.056776	-177.302	36.3313	1.064447	0.020256	0.019894	37.1755	14310.6	0.018308	0.019952	1863.21	92562
152	2.000000	1.066801	7.36653e+06	-46239.1	955.818	-29770.3	0.000000	0.000000	7.069428	43.5203	NaN	0.000000	0.001656	0.001627	28.1318	25.0821	0.001729	14503.7	1.231215	-176.225	42.3836	1.066393	0.022247	0.021839	43.5203	14503.7	0.019997	0.022537	1931.07	88268.4
152	2.000000	1.068758	7.36653e+06	-46239.1	955.818	-29770.3	0.000000	0.000000	7.071616	49.1061	NaN	0.000000	0.001681	0.001671	28.1313	29.0463	0.001945	14936.4	8.949736	176.491	48.2716	1.068451	0.024205	0.023897	49.1061	14936.4	0.021739	0.025349	1937.22	85712
152	2.000000	1.070747	7.36653e+06	-46239.1	955.818	-29770.3	0.000000	0.000000	7.073831	54.6062	NaN	0.000000	0.001696	0.001695	28.1302	29.6434	0.001790	16562.7	8.560595	176.957	53.6982	1.070441	0.026194	0.025887	54.6062	16562.7	0.023721	0.028730	1900.65	89275.7
152	2.000000	1.072785	7.36653e+06	-46239.1	955.82	-29770.3	0.000000	0.000000	7.076224	63.2581	NaN	0.000000	0.001683	0.001679	28.1321	31.4659	0.001910	16472.2	5.010964	-179.2	63.0058	1.072361	0.028232	0.027808	63.2581	16472.2	0.025351	0.031658	1998.18	84582.9
152	2.000000	1.074764	7.36653e+06	-46239.1	955.819	-29770.3	0.000000	0.000000	7.078367	67.2533	NaN	0.000000	0.001666	0.001659	28.13	33.2574	0.001691	19666.3	7.606424	175.383	65.5961	1.074442	0.030210	0.029889	67.2533	19666.3	0.027645	0.036005	1867.91	94692.8
152	2.000000	1.076797	7.36653e+06	-46239.1	955.819	-29770.3	0.000000	0.000000	7.080629	72.8112	NaN	0.000000	0.001680	0.001663	28.1302	35.0797	0.001749	20061.9	5.102504	177.6	74.2483	1.076438	0.032244	0.031885	72.8112	20061.9	0.029522	0.039758	1831.36	91924.7
152	2.000000	1.078768	7.36653e+06	-46239.1	955.819	-29770.3	0.000000	0.000000	7.082981	82.0792	NaN	0.000000	0.001649	0.001660	28.1307	37.364	0.001816	20569.5	3.449181	179.112	80.7693	1.078441	0.034214	0.033888	82.0792	20569.5	0.031221	0.043313	1895.02	90299.9
152	2.000000	1.080716	7.36653e+06	-46239.1	955.819	-29770.3	0.000000	0.000000	7.085144	87.3222	NaN	0.000000	0.001652	0.001698	28.1315	38.1228	0.001685	22629.5	5.672374	176.018	86.0057	1.080353	0.036162	0.035799	87.3222	22629.5	0.033268	0.047791	1827.18	94575.2
152	2.000000	1.082716	7.36653e+06	-46239.1	955.819	-29770.3	0.000000	0.000000	7.087539	96.9181	NaN	0.000000	0.001691	0.001666	28.1338	40.1342	0.001803	22265	4.069872	178.372	93.871	1.082421	0.038163	0.037867	96.9181	22265	0.034898	0.051509	1881.56	89630
152	2.000000	1.084752	7.36653e+06	-46239.1	955.819	-29770.3	0.000000	0.000000	7.089820	102.876	NaN	0.000000	0.001692	0.001654	28.1316	42.5865	0.001821	23386.7	3.056658	179.19	103.454	1.084459	0.040199	0.039906	102.876	23386.7	0.036900	0.056262	1828.54	90081.8
152	2.000000	1.086712	7.36653e+06	-46239.1	955.819	-29770.3	0.000000	0.000000	7.092123	111.204	NaN	0.000000	0.001648	0.001648	28.1328	43.8333	0.001846	23746	5.433342	176.443	108.877	1.086424	0.042159	0.041870	111.204	23746	0.038647	0.060577	1835.73	88147.2
152	2.000000	1.088712	7.36653e+06	-46239.1	955.819	-29770.3	0.000000	0.000000	7.094401	117.976	NaN	0.000000	0.001627	0.001668	28.1326	45.8645	0.001738	26386.7	4.789929	175.75	118.061	1.088417	0.044159	0.043863	117.976	26386.7	0.040806	0.066127	1784.09	93749.7
152	2.000000	1.090721	7.36653e+06	-46239.1	955.819	-29770.3	0.000000	0.000000	7.096649	123.783	NaN	0.000000	0.001678	0.001626	28.1314	47.2017	0.001828	25822.7	4.221020	176.372	121.172	1.090442	0.046168	0.045889	123.783	25822.7	0.042572	0.070845	1747.23	88637.8
152	2.000000	1.092701	7.36653e+06	-46239.1	955.819	-29770.3	0.000000	0.000000	7.099089	134.983	NaN	0.000000	0.001669	0.001659	28.1322	50.0801	0.001879	26657.5	6.672676	173.41	133.083	1.092391	0.048147	0.047837	134.983	26657.5	0.044350	0.075752	1781.92	88490.3
152	2.000000	1.094770	7.36653e+06	-46239.1	955.82	-29770.3	0.000000	0.000000	7.101765	149.76	NaN	0.000000	0.001651	0.001663	28.1316	51.5963	0.001860	27740.8	7.823302	173.684	150.439	1.094366	0.050216	0.049813	149.76	27740.8	0.046167	0.080936	1850.35	89088.5
152	2.000000	1.096685	7.36653e+06	-46239.1	955.818	-29770.3	0.000000	0.000000	7.103944	156.176	NaN	0.000000	0.001695	0.001671	28.132	51.4514	0.001642	31329.9	3.435324	175.435	154.847	1.096426	0.052131	0.051873	156.176	31329.9	0.048393	0.087510	1784.67	96762
152	2.000000	1.098709	7.36653e+06	-46239.1	955.819	-29770.3	0.000000	0.000000	7.106242	162.855	NaN	0.000000	0.001692	0.001623	28.1321	55.844	0.001837	30395.1	5.458666	174.273	160.048	1.098363	0.054155	0.053810	162.855	30395.1	0.050137	0.092836	1754.23	91142
152	2.000000	1.100678	7.36653e+06	-46239.1	955.819	-29770.3	0.000000	0.000000	7.108873	178.935	NaN	0.000000	0.001684	0.001637	28.1326	56.2632	0.001778	31641.6	3.414089	175.813	177.764	1.100440	0.056125	0.055887	178.935	31641.6	0.051883	0.098323	1819.86	92194.1
152	2.000000	1.102709	7.36653e+06	-46239.1	955.819	-29770.3	0.000000	0.000000	7.111314	188.917	NaN	0.000000	0.001706	0.001638	28.1328	58.2688	0.001769	32942.6	3.109531	176.469	187.249	1.102328	0.058155	0.057774	188.917	32942.6	0.053854	0.104698	1804.4	93016.9
152	2.000000	1.104745	7.36653e+06	-46239.1	955.82	-29770.3	0.000000	0.000000	7.113743	198.458	NaN	0.000000	0.001668	0.001651	28.1328	60.8784	0.001845	32995.1	3.317223	176.377	197.933	1.104391	0.060192	0.059838	198.458	32995.1	0.055681	0.110777	1791.5	90572.9
152	2.000000	1.106786	7.36653e+06	-46239.1	955.818	-29770.3	0.000000	0.000000	7.116209	208.813	NaN	0.000000	0.001642	0.001637	28.1325	62.7506	0.001789	35078.3	3.398365	175.61	213.218	1.106345	0.062233	0.061792	208.813	35078.3	0.057768	0.117928	1770.68	93326.3
152	2.000000	1.108762	7.36653e+06	-46239.1	955.819	-29770.3	0.000000	0.000000	7.118304	211.704	NaN	0.000000	0.001655	0.001630	28.1326	64.9278	0.001928	33683.9	3.612242	175.061	211.245	1.108602	0.064209	0.064049	211.704	33683.9	0.059495	0.124004	1707.24	87393.3
152	2.000000	1.110758	7.36653e+06	-46239.1	955.819	-29770.3	0.000000	0.000000	7.121346	237.134	NaN	0.000000	0.001709	0.001646	28.1319	65.7483	0.001818	36160.2	3.201841	175.338	239.084	1.110438	0.066205	0.065884	237.134	36160.2	0.061286	0.130462	1817.66	91466.6
152	2.000000	1.112679	7.36653e+06	-46239.1	955.82	-29770.3	0.000000	0.000000	7.123622	245.788	NaN	0.000000	0.001660	0.001629	28.1317	67.9925	0.001851	36726.7	4.256979	173.677	244.284	1.112489	0.068126	0.067935	245.788	36726.7	0.063107	0.137184	1791.67	90594.9
152	2.000000	1.114732	7.36653e+06	-46239.1	955.821	-29770.3	0.000000	0.000000	7.126341	262.01	NaN	0.000000	0.001633	0.001664	28.1314	70.4465	0.001800	39127.8	5.562930	172.83	261.687	1.114359	0.070178	0.069806	262.01	39127.8	0.065156	0.144943	1807.67	93898.8
152	2.000000	1.116769	7.36653e+06	-46239.1	955.82	-29770.3	0.000000	0.000000	7.128748	271.002	NaN	0.000000	0.001634	0.001645	28.1316	71.1275	0.001722	41302.3	4.224452	173.645	274.791	1.116369	0.072215	0.071816	271.002	41302.3	0.067294	0.153256	1768.3	96391.7
152	2.000000	1.118719	7.36653e+06	-46239.1	955.82	-29770.3	0.000000	0.000000	7.131262	284.711	NaN	0.000000	0.001675	0.001687	28.1324	73.5088	0.001726	42598	3.435535	173.6	286.808	1.118399	0.074166	0.073845	284.711	42598	0.069153	0.160658	1772.15	97098.1
152	2.000000	1.120673	7.36653e+06	-46239.1	955.82	-29770.3	0.000000	0.000000	7.133832	299.708	NaN	0.000000	0.001637	0.001649	28.1316	74.3638	0.001755	42376.7	3.654274	173.946	297.763	1.120380	0.076119	0.075827	299.708	42376.7	0.070815	0.167419	1790.17	94623.4
152	2.000000	1.122690	7.36653e+06	-46239.1	955.82	-29770.3	0.000000	0.000000	7.136593	317.81	NaN	0.000000	0.001643	0.001622	28.1315	78.362	0.001901	41228.4	6.746469	171.53	316.317	1.122302	0.078136	0.077748	317.81	41228.4	0.072355	0.173798	1828.62	90354
152	2.000000	1.124714	7.36653e+06	-46239.1	955.82	-29770.3	0.000000	0.000000	7.139163	331.054	NaN	0.000000	0.001637	0.001618	28.1311	79.5828	0.001794	44357.6	6.369999	170.955	332.997	1.124401	0.080161	0.079847	331.054	44357.6	0.074563	0.183145	1807.6	94698.7
152	2.000000	1.126624	7.36653e+06	-46239.1	955.821	-29770.3	0.000000	0.000000	7.141813	349.062	NaN	0.000000	0.001627	0.001662	28.1316	80.2676	0.001626	49366.6	7.293295	168.901	344.021	1.126221	0.082071	0.081668	349.062	49366.6	0.076768	0.192703	1811.4	102745
152	2.000000	1.128715	7.36653e+06	-46239.1	955.821	-29770.3	0.000000	0.000000	7.144343	359.751	NaN	0.000000	0.001597	0.001638	28.1317	84.1566	0.001899	44315.1	3.602049	173.31	358.845	1.128405	0.084162	0.083851	359.751	44315.1	0.078073	0.198470	1812.62	90882
152	2.000000	1.130656	7.36653e+06	-46239.1	955.82	-29770.3	0.000000	0.000000	7.146922	375.264	NaN	0.000000	0.001660	0.001623	28.1301	85.3617	0.001740	49048.6	5.684483	170.39	373.129	1.130374	0.086103	0.085820	375.264	49048.6	0.080364	0.208785	1797.37	98073
152	2.000000	1.132616	7.36653e+06	-46239.1	955.82	-29770.3	0.000000	0.000000	7.149620	393.207	NaN	0.000000	0.001678	0.001654	28.13	87.2316	0.001799	48480.1	1.986952	174.804	389.559	1.132327	0.088063	0.087774	393.207	48480.1	0.081980	0.216206	1818.67	95258.3
152	2.000000	1.134675	7.36653e+06	-46239.1	955.819	-29770.3	0.000000	0.000000	7.152503	413.264	NaN	0.000000	0.001692	0.001671	28.1303	89.9178	0.001791	50208.5	2.238830	174.607	412.865	1.134356	0.090121	0.089802	413.264	50208.5	0.083948	0.225410	1833.39	96619.3
152	2.000000	1.136519	7.36653e+06	-46239.1	955.821	-29770.3	0.000000	0.000000	7.154731	422.629	NaN	0.000000	0.001733	0.001637	28.1304	91.204	0.001854	49186.2	2.584262	173.788	413.528	1.136252	0.091965	0.091698	422.629	49186.2	0.085521	0.232892	1814.7	93119.2
152	2.000000	1.138716	7.36653e+06	-46239.1	955.819	-29770.3	0.000000	0.000000	7.157741	442.372	NaN	0.000000	0.001700	0.001676	28.1306	94.3597	0.001721	54828.4	3.889524	171.298	443.141	1.138388	0.094163	0.093835	442.372	54828.4	0.088112	0.245469	1802.15	101107
152	2.000000	1.140611	7.36653e+06	-46239.1	955.819	-29770.3	0.000000	0.000000	7.160335	459.386	NaN	0.000000	0.001708	0.001649	28.1311	94.8585	0.001857	51095.3	2.817018	173.058	454.491	1.140377	0.096058	0.095823	459.386	51095.3	0.089315	0.251413	1827.22	93102.3
152	2.000000	1.142654	7.36653e+06	-46239.1	955.82	-29770.3	0.000000	0.000000	7.163206	479.531	NaN	0.000000	0.001643	0.001663	28.1314	97.3111	0.001726	56378.6	3.497726	171.792	479.534	1.142365	0.098100	0.097812	479.531	56378.6	0.091721	0.263504	1819.82	100344
152	2.000000	1.144652	7.36653e+06	-46239.1	955.819	-29770.3	0.000000	0.000000	7.165939	497.419	NaN	0.000000	0.001700	0.001633	28.1312	99.8511	0.001929	51760.5	3.462366	172.975	492.334	1.144227	0.100098	0.099674	497.419	51760.5	0.092891	0.269476	1845.88	91098.7
152	2.000000	1.146645	7.36653e+06	-46239.1	955.82	-29770.3	0.000000	0.000000	7.168663	515.206	NaN	0.000000	0.001682	0.001666	28.1311	102.125	0.001747	58446	7.565504	167.665	515.281	1.146225	0.102091	0.101672	515.206	58446	0.095480	0.282918	1821.04	100392
152	2.000000	1.148661	7.36653e+06	-46239.1	955.819	-29770.3	0.000000	0.000000	7.171045	524.07	NaN	0.000000	0.001657	0.001648	28.1311	104.192	0.001902	54787	3.142538	172.709	523.709	1.148386	0.104108	0.103832	524.07	54787	0.096934	0.290601	1803.4	92854.3
152	2.000000	1.149635	7.36653e+06	-46239.1	955.819	-29770.3	0.000000	0.000000	7.172512	536.099	NaN	0.000000	0.001645	0.001663	28.0788	105.538	0.001824	57845.8	6.468267	168.742	534.433	1.149289	0.105081	0.104736	536.099	57845.8	0.098131	0.296997	1805.06	96977