File: remote_trans/data/nanoindenter/0828-1/data/Data_2025-08-06,11h17m57s/2025-07-22_16-23-58_1_48.txt
2025-07-22, 16:23:58, 1
Index	Phase	Displacement	Time	Pos X	Pos Y	Pos Z	Rot A	Rot B	Piezo Z	Force A	Force B	Gripper	Voltage A	Voltage B	Temperature	Amplitude force	Amplitude pos	Stiffness	Phase shift	Phase excitation	Force A raw	Displacement raw	HMax	HMax raw	Real Force	Real Stiffness	Contact Depth	Area	Hardness	Reduced Mod.
[#]	[#]	[um]	[s]	[um]	[um]	[um]	[m°]	[m°]	[um]	[uN]	[uN]	[V]	[V]	[V]	[°C]	[uN]	[um]	[N/m]	[°]	[°]	[uN]	[um]	[um]	[um]	[uN]	[N/m]	[um]	[um^2]	[MPa]	[MPa]
48	1.000000	0.002841	7.36551e+06	-41039.1	955.819	-29788.3	0.000000	0.000000	6.002802	0.082254	NaN	0.000000	0.001609	0.001784	28.0798	0.084873	0.001008	84.2272	-139.42	-163.557	0.068352	0.001602	-1.077656	-1.078895	0.082254	84.2272	-1.078389	-2.569664E+14	-3.200957E-16	NaN
48	1.000000	0.010810	7.36551e+06	-41039.1	955.818	-29788.3	0.000000	0.000000	6.010770	0.062199	NaN	0.000000	0.001573	0.001747	28.0802	0.082297	0.000931	88.3735	149.028	-166.709	0.078141	0.009495	-1.069687	-1.071002	0.062199	88.3735	-1.070215	-1.995639E+14	-3.116766E-16	NaN
48	1.000000	0.018793	7.36551e+06	-41039.1	955.818	-29788.3	0.000000	0.000000	6.018751	0.020807	NaN	0.000000	0.001578	0.001733	28.0787	0.042609	0.001783	23.8991	-18.5014	-165.486	0.028205	0.017527	-1.061704	-1.062970	0.020807	23.8991	-1.062357	-1.564939E+14	-1.329570E-16	NaN
48	1.000000	0.026862	7.36551e+06	-41039.1	955.818	-29788.3	0.000000	0.000000	6.026820	0.000213	NaN	0.000000	0.001608	0.001760	28.0809	0.094087	0.001733	54.2965	-140.384	-166.673	0.021800	0.025464	-1.053635	-1.055033	0.000213	54.2965	-1.053638	-1.194867E+14	-1.782058E-18	NaN
48	1.000000	0.034798	7.36551e+06	-41039.1	955.818	-29788.3	0.000000	0.000000	6.034755	-0.003587	NaN	0.000000	0.001574	0.001749	28.0809	0.003828	0.001817	2.106595	-30.7192	-164.469	0.077813	0.033506	-1.045699	-1.046991	-0.003587	2.106595	-1.044422	-8.983183E+13	3.992712E-17	NaN
48	1.000000	0.042783	7.36551e+06	-41039.1	955.819	-29788.3	0.000000	0.000000	6.042745	0.088465	NaN	0.000000	0.001566	0.001764	28.0805	0.125688	0.001995	62.9938	134.287	-165.554	0.101486	0.041581	-1.037714	-1.038916	0.088465	62.9938	-1.038767	-7.540227E+13	-1.173241E-15	NaN
48	1.000000	0.050804	7.36551e+06	-41039.1	955.818	-29788.3	0.000000	0.000000	6.050761	-0.027894	NaN	0.000000	0.001623	0.001717	28.0808	0.013175	0.002089	6.305342	-18.3167	-164.507	0.025654	0.049461	-1.029693	-1.031036	-0.027894	6.305342	-1.026375	-5.137053E+13	5.429923E-16	NaN
48	1.000000	0.058789	7.36551e+06	-41039.1	955.819	-29788.3	0.000000	0.000000	6.058752	0.111512	NaN	0.000000	0.001576	0.001726	28.0814	0.147867	0.001910	77.4375	-159.195	-163.756	0.018063	0.057499	-1.021708	-1.022998	0.111512	77.4375	-1.022788	-4.596821E+13	-2.425844E-15	NaN
48	1.000000	0.066798	7.36551e+06	-41039.1	955.818	-29788.3	0.000000	0.000000	6.066755	-0.004637	NaN	0.000000	0.001558	0.001703	28.0806	0.109542	0.001953	56.085	136.495	-161.644	0.014289	0.065494	-1.013699	-1.015003	-0.004637	56.085	-1.013637	-3.462069E+13	1.339299E-16	NaN
48	1.000000	0.074817	7.36551e+06	-41039.1	955.819	-29788.3	0.000000	0.000000	6.074777	0.064112	NaN	0.000000	0.001543	0.001693	28.0789	0.035824	0.001996	17.9503	147.509	-165.053	0.039777	0.073473	-1.005680	-1.007024	0.064112	17.9503	-1.008359	-2.939658E+13	-2.180942E-15	NaN
48	1.000000	0.082805	7.36551e+06	-41039.1	955.819	-29788.3	0.000000	0.000000	6.082765	0.044446	NaN	0.000000	0.001563	0.001737	28.0808	0.050698	0.002009	25.2298	-109.18	-164.491	-0.003432	0.081482	-0.997692	-0.999015	0.044446	25.2298	-0.999013	-2.200286E+13	-2.019997E-15	NaN
48	1.000000	0.090802	7.36551e+06	-41039.1	955.818	-29788.3	0.000000	0.000000	6.090760	0.011006	NaN	0.000000	0.001562	0.001710	28.0805	0.073331	0.002051	35.7618	69.7289	-163.904	0.049836	0.089537	-0.989695	-0.990960	0.011006	35.7618	-0.989926	-1.660026E+13	-6.630023E-16	NaN
48	1.000000	0.098781	7.36551e+06	-41039.1	955.818	-29788.3	0.000000	0.000000	6.098739	-0.000193	NaN	0.000000	0.001627	0.001726	28.0794	0.016587	0.002070	8.013117	10.6522	-164.178	-0.009336	0.097513	-0.981716	-0.982984	-0.000193	8.013117	-0.981698	-1.286120E+13	1.498071E-17	NaN
48	1.000000	0.106834	7.36551e+06	-41039.1	955.818	-29788.3	0.000000	0.000000	6.106793	0.028743	NaN	0.000000	0.001642	0.001748	28.0792	0.176159	0.002037	86.464	-93.1024	-163.11	0.027866	0.105524	-0.973663	-0.974973	0.028743	86.464	-0.973912	-1.010150E+13	-2.845446E-15	NaN
48	1.000000	0.114825	7.36551e+06	-41039.1	955.819	-29788.3	0.000000	0.000000	6.114787	0.083140	NaN	0.000000	0.001637	0.001738	28.0808	0.083364	0.002088	39.9175	-145.008	-161.173	0.017001	0.113531	-0.965672	-0.966966	0.083140	39.9175	-0.967234	-8.210714E+12	-1.012582E-14	NaN
48	1.000000	0.122832	7.36551e+06	-41039.1	955.818	-29788.3	0.000000	0.000000	6.122793	0.084662	NaN	0.000000	0.001603	0.001741	28.0814	0.121510	0.002094	58.0391	-23.8388	-164.232	0.001026	0.121558	-0.957665	-0.958939	0.084662	58.0391	-0.958759	-6.311629E+12	-1.341368E-14	NaN
48	1.000000	0.130853	7.36551e+06	-41039.1	955.819	-29788.3	0.000000	0.000000	6.130811	0.008400	NaN	0.000000	0.001595	0.001757	28.0797	0.123704	0.001965	62.9567	-24.9859	-163.693	0.013318	0.129522	-0.949644	-0.950975	0.008400	62.9567	-0.949744	-4.770694E+12	-1.760737E-15	NaN
48	1.000000	0.138824	7.36551e+06	-41039.1	955.818	-29788.3	0.000000	0.000000	6.138784	0.036430	NaN	0.000000	0.001612	0.001765	28.0804	0.050789	0.001994	25.4696	-19.5445	-165.06	0.041309	0.137525	-0.941673	-0.942972	0.036430	25.4696	-0.942745	-3.838603E+12	-9.490355E-15	NaN
48	1.000000	0.146846	7.36551e+06	-41039.1	955.819	-29788.3	0.000000	0.000000	6.146804	0.002329	NaN	0.000000	0.001673	0.001729	28.0805	0.043952	0.002006	21.9121	-70.7304	-164.267	-0.027296	0.145528	-0.933651	-0.934969	0.002329	21.9121	-0.933731	-2.901001E+12	-8.029804E-16	NaN
48	1.000000	0.154828	7.36551e+06	-41039.1	955.818	-29788.3	0.000000	0.000000	6.154786	-0.004300	NaN	0.000000	0.001678	0.001739	28.0809	0.100402	0.002099	47.8238	166.848	-164.002	0.052969	0.153506	-0.925669	-0.926991	-0.004300	47.8238	-0.925602	-2.253355E+12	1.908422E-15	NaN
48	1.000000	0.162839	7.36551e+06	-41039.1	955.818	-29788.3	0.000000	0.000000	6.162799	0.067308	NaN	0.000000	0.001664	0.001758	28.0789	0.094070	0.001919	49.0235	-108.699	-164.171	0.180690	0.161537	-0.917658	-0.918960	0.067308	49.0235	-0.918688	-1.817570E+12	-3.703170E-14	NaN
48	1.000000	0.170855	7.36551e+06	-41039.1	955.819	-29788.3	0.000000	0.000000	6.170814	0.019549	NaN	0.000000	0.001666	0.001735	28.0795	0.057151	0.002006	28.488	14.3549	-162.796	0.057697	0.169543	-0.909642	-0.910954	0.019549	28.488	-0.910156	-1.394041E+12	-1.402331E-14	NaN
48	1.000000	0.178842	7.36551e+06	-41039.1	955.819	-29788.3	0.000000	0.000000	6.178799	-0.009397	NaN	0.000000	0.001658	0.001734	28.0792	0.147844	0.002137	69.171	53.228	-164.848	-0.023528	0.177575	-0.901655	-0.902922	-0.009397	69.171	-0.901553	-1.066722E+12	8.809295E-15	NaN
48	1.000000	0.186845	7.36551e+06	-41039.1	955.819	-29788.3	0.000000	0.000000	6.186805	0.044044	NaN	0.000000	0.001643	0.001727	28.0809	0.058673	0.002007	29.2312	141.847	-167.824	-0.065897	0.185574	-0.893652	-0.894923	0.044044	29.2312	-0.894782	-8.640649E+11	-5.097352E-14	NaN
48	1.000000	0.194872	7.36551e+06	-41039.1	955.819	-29788.3	0.000000	0.000000	6.194827	-0.062326	NaN	0.000000	0.001637	0.001659	28.0796	0.017913	0.002057	8.708749	164.434	-165.113	-0.062072	0.193566	-0.885625	-0.886931	-0.062326	8.708749	-0.880257	-5.497802E+11	1.133659E-13	NaN
48	1.000000	0.202846	7.36551e+06	-41039.1	955.818	-29788.3	0.000000	0.000000	6.202806	0.036075	NaN	0.000000	0.001633	0.001683	28.0807	0.012497	0.002001	6.243766	101.176	-162.805	-0.068583	0.201563	-0.877651	-0.878934	0.036075	6.243766	-0.881984	-5.801474E+11	-6.218248E-14	NaN
48	1.000000	0.210875	7.36551e+06	-41039.1	955.818	-29788.3	0.000000	0.000000	6.210834	0.023901	NaN	0.000000	0.001638	0.001710	28.0803	0.037226	0.002033	18.3151	-84.2448	-165.123	0.105501	0.209524	-0.869622	-0.870973	0.023901	18.3151	-0.870601	-4.069755E+11	-5.872939E-14	NaN
48	1.000000	0.218864	7.36551e+06	-41039.1	955.819	-29788.3	0.000000	0.000000	6.218823	0.022486	NaN	0.000000	0.001627	0.001660	28.0802	0.077854	0.001972	39.4791	-103.592	-166.751	0.016660	0.217539	-0.861633	-0.862958	0.022486	39.4791	-0.862060	-3.118927E+11	-7.209617E-14	NaN
48	1.000000	0.226876	7.36551e+06	-41039.1	955.818	-29788.3	0.000000	0.000000	6.226836	0.056338	NaN	0.000000	0.001637	0.001709	28.0796	0.045377	0.001895	23.9457	-106.448	-164.316	0.027628	0.225551	-0.853621	-0.854946	0.056338	23.9457	-0.855385	-2.533099E+11	-2.224090E-13	NaN
48	1.000000	0.234847	7.36551e+06	-41039.1	955.819	-29788.3	0.000000	0.000000	6.234806	0.014408	NaN	0.000000	0.001658	0.001678	28.0786	0.143127	0.002149	66.6149	-55.3283	-169.314	-0.010386	0.233572	-0.845650	-0.846925	0.014408	66.6149	-0.845812	-1.879409E+11	-7.666235E-14	NaN
48	1.000000	0.242882	7.36551e+06	-41039.1	955.819	-29788.3	0.000000	0.000000	6.242838	-0.049763	NaN	0.000000	0.001631	0.001664	28.0788	0.103476	0.001890	54.7474	42.2791	-162.403	0.001669	0.241569	-0.837614	-0.838928	-0.049763	54.7474	-0.836933	-1.424742E+11	3.492764E-13	NaN
48	1.000000	0.250896	7.36551e+06	-41039.1	955.818	-29788.3	0.000000	0.000000	6.250855	0.028188	NaN	0.000000	0.001579	0.001681	28.078	0.025883	0.001955	13.2381	-91.109	-162.315	-0.017289	0.249601	-0.829601	-0.830896	0.028188	13.2381	-0.831198	-1.191316E+11	-2.366159E-13	NaN
48	1.000000	0.258855	7.36551e+06	-41039.1	955.819	-29788.3	0.000000	0.000000	6.258813	0.013415	NaN	0.000000	0.001553	0.001703	28.0786	0.103234	0.002004	51.5077	-173.731	-163.695	-0.036136	0.257579	-0.821642	-0.822918	0.013415	51.5077	-0.821837	-8.894599E+10	-1.508270E-13	NaN
48	1.000000	0.266869	7.36551e+06	-41039.1	955.818	-29788.3	0.000000	0.000000	6.266828	0.023375	NaN	0.000000	0.001550	0.001739	28.0804	0.113330	0.001996	56.7792	177.92	-165.84	-0.012092	0.265569	-0.813628	-0.814928	0.023375	56.7792	-0.813936	-6.949778E+10	-3.363435E-13	NaN
48	1.000000	0.274909	7.36551e+06	-41039.1	955.819	-29788.3	0.000000	0.000000	6.274863	-0.077881	NaN	0.000000	0.001554	0.001703	28.0798	0.051528	0.002049	25.1424	-10.6448	-165.514	-0.040530	0.273560	-0.805588	-0.806937	-0.077881	25.1424	-0.803265	-4.979452E+10	1.564053E-12	NaN
48	1.000000	0.282846	7.36551e+06	-41039.1	955.819	-29788.3	0.000000	0.000000	6.282805	0.037777	NaN	0.000000	0.001567	0.001700	28.0788	0.084497	0.001955	43.2174	-41.6957	-167.766	0.096681	0.281531	-0.797651	-0.798966	0.037777	43.2174	-0.798307	-4.264628E+10	-8.858132E-13	NaN
48	1.000000	0.290892	7.36551e+06	-41039.1	955.819	-29788.3	0.000000	0.000000	6.290848	-0.055242	NaN	0.000000	0.001552	0.001696	28.0791	0.047113	0.001952	24.1313	-14.9273	-164.821	-0.023291	0.289584	-0.789605	-0.790913	-0.055242	24.1313	-0.787888	-3.078881E+10	1.794224E-12	NaN
48	1.000000	0.298919	7.36551e+06	-41039.1	955.818	-29788.3	0.000000	0.000000	6.298877	0.000874	NaN	0.000000	0.001554	0.001646	28.0808	0.080106	0.001834	43.6785	-99.8235	-165.341	0.036016	0.297612	-0.781578	-0.782885	0.000874	43.6785	-0.781593	-2.528600E+10	-3.458392E-14	NaN
48	1.000000	0.306915	7.36551e+06	-41039.1	955.818	-29788.3	0.000000	0.000000	6.306872	-0.027959	NaN	0.000000	0.001555	0.001690	28.0807	0.024446	0.002096	11.6648	136.183	-164.615	-0.123324	0.305619	-0.773582	-0.774878	-0.027959	11.6648	-0.771784	-1.860227E+10	1.503012E-12	NaN
48	1.000000	0.314918	7.36551e+06	-41039.1	955.819	-29788.3	0.000000	0.000000	6.314876	-0.001984	NaN	0.000000	0.001542	0.001679	28.0799	0.116192	0.002149	54.0706	134.333	-162.654	-0.085158	0.313621	-0.765579	-0.766876	-0.001984	54.0706	-0.765551	-1.530421E+10	1.296417E-13	NaN
48	1.000000	0.322907	7.36551e+06	-41039.1	955.819	-29788.3	0.000000	0.000000	6.322865	-0.011518	NaN	0.000000	0.001573	0.001689	28.0794	0.151427	0.001842	82.2039	-58.4548	-165.928	0.058085	0.321596	-0.757590	-0.758901	-0.011518	82.2039	-0.757485	-1.188726E+10	9.689188E-13	NaN
48	1.000000	0.330919	7.36551e+06	-41039.1	955.818	-29788.3	0.000000	0.000000	6.330878	0.026672	NaN	0.000000	0.001580	0.001680	28.0792	0.042722	0.002015	21.1994	-170.862	-162.578	0.004632	0.329626	-0.749578	-0.750871	0.026672	21.1994	-0.750521	-9.556931E+9	-2.790855E-12	NaN
48	1.000000	0.338912	7.36551e+06	-41039.1	955.819	-29788.3	0.000000	0.000000	6.338867	-0.063008	NaN	0.000000	0.001536	0.001701	28.0797	0.042634	0.002119	20.1239	-53.1794	-165.024	-0.050467	0.337571	-0.741585	-0.742926	-0.063008	20.1239	-0.739237	-6.709113E+9	9.391469E-12	NaN
48	1.000000	0.346890	7.36551e+06	-41039.1	955.819	-29788.3	0.000000	0.000000	6.346851	0.078322	NaN	0.000000	0.001586	0.001724	28.0818	0.006609	0.002002	3.301025	51.1887	-165.315	-0.023351	0.345583	-0.733607	-0.734914	0.078322	3.301025	-0.751402	-9.824270E+9	-7.972344E-12	NaN
48	1.000000	0.354933	7.36551e+06	-41039.1	955.818	-29788.3	0.000000	0.000000	6.354889	-0.060899	NaN	0.000000	0.001572	0.001713	28.0807	0.036039	0.001976	18.2372	-61.9712	-164.809	-0.062908	0.353629	-0.725564	-0.726868	-0.060899	18.2372	-0.723059	-4.038201E+9	1.508083E-11	NaN
48	1.000000	0.362923	7.36551e+06	-41039.1	955.819	-29788.3	0.000000	0.000000	6.362882	0.011730	NaN	0.000000	0.001593	0.001732	28.0802	0.162274	0.001927	84.1978	-137.322	-162.354	-0.047995	0.361657	-0.717574	-0.718840	0.011730	84.1978	-0.717678	-3.410411E+9	-3.439373E-12	NaN
48	1.000000	0.370922	7.36551e+06	-41039.1	955.819	-29788.3	0.000000	0.000000	6.370881	0.026290	NaN	0.000000	0.001580	0.001702	28.0803	0.086788	0.001985	43.7114	89.7253	-166.944	0.006465	0.369637	-0.709575	-0.710860	0.026290	43.7114	-0.710026	-2.681657E+9	-9.803643E-12	NaN
48	1.000000	0.378941	7.36551e+06	-41039.1	955.818	-29788.3	0.000000	0.000000	6.378900	0.019941	NaN	0.000000	0.001601	0.001723	28.0816	0.058910	0.002110	27.9198	79.9602	-165.347	0.013908	0.377633	-0.701556	-0.702864	0.019941	27.9198	-0.702092	-2.089755E+9	-9.542226E-12	NaN
48	1.000000	0.386932	7.36551e+06	-41039.1	955.819	-29788.3	0.000000	0.000000	6.386890	-0.002094	NaN	0.000000	0.001579	0.001702	28.08	0.062160	0.001960	31.7073	-167.506	-164.807	-0.052059	0.385595	-0.693565	-0.694902	-0.002094	31.7073	-0.693515	-1.595694E+9	1.312037E-12	NaN
48	1.000000	0.394949	7.36551e+06	-41039.1	955.819	-29788.3	0.000000	0.000000	6.394906	-0.020878	NaN	0.000000	0.001559	0.001701	28.0802	0.092477	0.001950	47.4211	-60.9562	-165.25	0.014171	0.393676	-0.685548	-0.686821	-0.020878	47.4211	-0.685217	-1.228985E+9	1.698823E-11	NaN
48	1.000000	0.402961	7.36551e+06	-41039.1	955.818	-29788.3	0.000000	0.000000	6.402920	0.046630	NaN	0.000000	0.001565	0.001722	28.0807	0.031429	0.001986	15.8228	29.9583	-164.455	0.028780	0.401671	-0.677536	-0.678826	0.046630	15.8228	-0.679747	-1.034524E+9	-4.507386E-11	NaN
48	1.000000	0.410949	7.36551e+06	-41039.1	955.818	-29788.3	0.000000	0.000000	6.410908	0.033847	NaN	0.000000	0.001571	0.001710	28.0791	0.051912	0.001952	26.5912	-80.3935	-166.681	0.095717	0.409649	-0.669548	-0.670848	0.033847	26.5912	-0.670503	-7.731707E+8	-4.377627E-11	NaN
48	1.000000	0.418939	7.36551e+06	-41039.1	955.819	-29788.3	0.000000	0.000000	6.418897	-0.002789	NaN	0.000000	0.001608	0.001716	28.0803	0.067838	0.001973	34.3916	120.259	-165.155	-0.017813	0.417602	-0.661558	-0.662895	-0.002789	34.3916	-0.661497	-5.820608E+8	4.792448E-12	NaN
48	1.000000	0.426920	7.36551e+06	-41039.1	955.819	-29788.3	0.000000	0.000000	6.426878	-0.005279	NaN	0.000000	0.001650	0.001708	28.0802	0.060076	0.001897	31.6757	137.315	-158.657	0.026162	0.425638	-0.653577	-0.654859	-0.005279	31.6757	-0.653452	-4.515968E+8	1.169016E-11	NaN
48	1.000000	0.434950	7.36551e+06	-41039.1	955.818	-29788.3	0.000000	0.000000	6.434908	-0.003786	NaN	0.000000	0.001663	0.001736	28.0791	0.039664	0.002011	19.7273	-33.9648	-165.025	0.020712	0.433709	-0.645547	-0.646788	-0.003786	19.7273	-0.645403	-3.502684E+8	1.080895E-11	NaN
48	1.000000	0.442955	7.36551e+06	-41039.1	955.817	-29788.3	0.000000	0.000000	6.442913	-0.002340	NaN	0.000000	0.001647	0.001717	28.0811	0.068071	0.002025	33.6079	-103.306	-167.147	0.008245	0.441673	-0.637542	-0.638824	-0.002340	33.6079	-0.637490	-2.727998E+8	8.577149E-12	NaN
48	1.000000	0.450965	7.36551e+06	-41039.1	955.817	-29788.3	0.000000	0.000000	6.450922	-0.015859	NaN	0.000000	0.001611	0.001719	28.0801	0.092630	0.002053	45.1255	43.2158	-164.412	-0.093060	0.449636	-0.629532	-0.630861	-0.015859	45.1255	-0.629269	-2.103690E+8	7.538448E-11	NaN
48	1.000000	0.458983	7.36551e+06	-41039.1	955.818	-29788.3	0.000000	0.000000	6.458940	-0.027440	NaN	0.000000	0.001601	0.001757	28.0803	0.077771	0.001962	39.629	-40.0871	-165.98	0.042942	0.457720	-0.621514	-0.622777	-0.027440	39.629	-0.620994	-1.619198E+8	1.694660E-10	NaN
48	1.000000	0.466969	7.36551e+06	-41039.1	955.819	-29788.3	0.000000	0.000000	6.466924	-0.071862	NaN	0.000000	0.001568	0.001741	28.0798	0.113926	0.001915	59.4974	135.477	-163.86	0.053498	0.465645	-0.613528	-0.614852	-0.071862	59.4974	-0.612622	-1.242191E+8	5.785094E-10	NaN
48	1.000000	0.475002	7.36551e+06	-41039.1	955.818	-29788.3	0.000000	0.000000	6.474960	-0.001177	NaN	0.000000	0.001553	0.001717	28.0787	0.113829	0.002023	56.2756	97.4085	-165.854	-0.040541	0.473704	-0.605495	-0.606793	-0.001177	56.2756	-0.605480	-9.906167E+7	1.188632E-11	NaN
48	1.000000	0.482970	7.36551e+06	-41039.1	955.818	-29788.3	0.000000	0.000000	6.482929	0.027054	NaN	0.000000	0.001560	0.001722	28.0792	0.045424	0.001947	23.3317	70.2826	-166.979	-0.010028	0.481645	-0.597527	-0.598852	0.027054	23.3317	-0.598396	-7.913592E+7	-3.418652E-10	NaN
48	1.000000	0.491001	7.36551e+06	-41039.1	955.818	-29788.3	0.000000	0.000000	6.490958	-0.028543	NaN	0.000000	0.001585	0.001734	28.0795	0.012096	0.001960	6.172837	-168.091	-166.939	-0.059749	0.489673	-0.589496	-0.590824	-0.028543	6.172837	-0.586028	-5.344345E+7	5.340768E-10	NaN
48	1.000000	0.499020	7.36551e+06	-41039.1	955.819	-29788.3	0.000000	0.000000	6.498978	0.006946	NaN	0.000000	0.001598	0.001698	28.0793	0.070684	0.001944	36.3616	154.004	-166.588	-0.007868	0.497721	-0.581477	-0.582776	0.006946	36.3616	-0.581620	-4.646036E+7	-1.495116E-10	NaN
48	1.000000	0.506974	7.36551e+06	-41039.1	955.819	-29788.3	0.000000	0.000000	6.506934	0.039912	NaN	0.000000	0.001602	0.001735	28.0797	0.031399	0.002054	15.2876	-113.112	-167.565	-0.026723	0.505711	-0.573523	-0.574786	0.039912	15.2876	-0.575481	-3.822421E+7	-1.044145E-9	NaN
48	1.000000	0.514984	7.36551e+06	-41039.1	955.818	-29788.3	0.000000	0.000000	6.514943	0.023903	NaN	0.000000	0.001574	0.001733	28.0811	0.035663	0.002037	17.509	23.2862	-162.767	0.044609	0.513676	-0.565513	-0.566821	0.023903	17.509	-0.566537	-2.875910E+7	-8.311367E-10	NaN
48	1.000000	0.522999	7.36551e+06	-41039.1	955.818	-29788.3	0.000000	0.000000	6.522958	0.029267	NaN	0.000000	0.001573	0.001738	28.0793	0.093501	0.002039	45.8532	-162.596	-166.376	0.057174	0.521653	-0.557498	-0.558844	0.029267	45.8532	-0.557977	-2.189714E+7	-1.336564E-9	NaN
48	1.000000	0.531002	7.36551e+06	-41039.1	955.818	-29788.3	0.000000	0.000000	6.530961	0.006838	NaN	0.000000	0.001577	0.001724	28.0804	0.079856	0.002022	39.4897	-109.088	-162.803	-0.040925	0.529728	-0.549495	-0.550769	0.006838	39.4897	-0.549624	-1.677850E+7	-4.075505E-10	NaN
48	1.000000	0.539004	7.36551e+06	-41039.1	955.818	-29788.3	0.000000	0.000000	6.538964	0.053980	NaN	0.000000	0.001527	0.001744	28.0792	0.014824	0.002024	7.325595	65.9919	-166.411	0.051516	0.537772	-0.541493	-0.542725	0.053980	7.325595	-0.547020	-1.544068E+7	-3.495958E-9	NaN
48	1.000000	0.547011	7.36551e+06	-41039.1	955.819	-29788.3	0.000000	0.000000	6.546969	-0.011708	NaN	0.000000	0.001530	0.001752	28.078	0.096539	0.001970	49.012	58.2393	-168.407	-0.066426	0.545708	-0.533486	-0.534789	-0.011708	49.012	-0.533307	-9.96518e+06	1.174860E-9	NaN
48	1.000000	0.555001	7.36551e+06	-41039.1	955.819	-29788.3	0.000000	0.000000	6.554960	0.028788	NaN	0.000000	0.001489	0.001707	28.079	0.030251	0.002131	14.1935	5.204398	-162.64	-0.013786	0.553682	-0.525496	-0.526815	0.028788	14.1935	-0.527017	-8.14962e+06	-3.532408E-9	NaN
48	1.000000	0.563016	7.36551e+06	-41039.1	955.817	-29788.3	0.000000	0.000000	6.562975	0.037094	NaN	0.000000	0.001537	0.001751	28.0793	0.117654	0.001989	59.1573	143.267	-166.763	0.028460	0.561737	-0.517481	-0.518760	0.037094	59.1573	-0.517952	-6.09685e+06	-6.084075E-9	NaN
48	1.000000	0.571021	7.36551e+06	-41039.1	955.818	-29788.3	0.000000	0.000000	6.570978	-0.018809	NaN	0.000000	0.001560	0.001713	28.078	0.073876	0.001997	36.994	-120.669	-166.467	-0.046782	0.569696	-0.509476	-0.510801	-0.018809	36.994	-0.509095	-4.58995e+06	4.097944E-9	NaN
48	1.000000	0.579025	7.36551e+06	-41039.1	955.818	-29788.3	0.000000	0.000000	6.578983	0.005567	NaN	0.000000	0.001593	0.001708	28.0794	0.098488	0.001899	51.8668	-41.1746	-161.052	-0.028767	0.577720	-0.501472	-0.502777	0.005567	51.8668	-0.501552	-3.60306e+06	-1.544965E-9	NaN
48	1.000000	0.587014	7.36551e+06	-41039.1	955.819	-29788.3	0.000000	0.000000	6.586974	0.031892	NaN	0.000000	0.001576	0.001693	28.0818	0.047281	0.001929	24.512	101.185	-165.004	-0.046989	0.585742	-0.493483	-0.494755	0.031892	24.512	-0.494458	-2.86862e+06	-1.111749E-8	NaN
48	1.000000	0.595034	7.36551e+06	-41039.1	955.818	-29788.3	0.000000	0.000000	6.594992	0.019435	NaN	0.000000	0.001589	0.001679	28.0815	0.114242	0.001995	57.2583	-72.535	-163.589	0.019232	0.593715	-0.485463	-0.486782	0.019435	57.2583	-0.485718	-2.16537e+06	-8.975332E-9	NaN
48	1.000000	0.603021	7.36551e+06	-41039.1	955.818	-29788.3	0.000000	0.000000	6.602981	0.042629	NaN	0.000000	0.001597	0.001676	28.0807	0.143109	0.002016	70.9749	-99.8453	-162.926	0.051702	0.601710	-0.477476	-0.478787	0.042629	70.9749	-0.477926	-1.68459e+06	-2.530550E-8	NaN
48	1.000000	0.611035	7.36551e+06	-41039.1	955.818	-29788.3	0.000000	0.000000	6.610995	0.042675	NaN	0.000000	0.001582	0.001679	28.081	0.112610	0.002030	55.4741	-119.994	-164.143	0.070167	0.609674	-0.469462	-0.470823	0.042675	55.4741	-0.470039	-1.30603e+06	-3.267562E-8	NaN
48	1.000000	0.619061	7.36551e+06	-41039.1	955.818	-29788.3	0.000000	0.000000	6.619018	-0.038018	NaN	0.000000	0.001577	0.001688	28.0826	0.101698	0.001952	52.1076	-4.811676	-162.407	-0.041936	0.617678	-0.461436	-0.462819	-0.038018	52.1076	-0.460888	-971631	3.912751E-8	NaN
48	1.000000	0.627059	7.36551e+06	-41039.1	955.819	-29788.3	0.000000	0.000000	6.627016	-0.000557	NaN	0.000000	0.001593	0.001694	28.0805	0.117088	0.001991	58.8183	125.634	-163.777	0.062656	0.625773	-0.453438	-0.454724	-0.000557	58.8183	-0.453431	-763214	7.301615E-10	NaN
48	1.000000	0.635049	7.36551e+06	-41039.1	955.819	-29788.3	0.000000	0.000000	6.635008	0.016888	NaN	0.000000	0.001680	0.001696	28.0801	0.103171	0.001977	52.1797	-8.738460	-163.384	0.051298	0.633713	-0.445448	-0.446784	0.016888	52.1797	-0.445690	-593781	-2.844108E-8	NaN
48	1.000000	0.643062	7.36551e+06	-41039.1	955.819	-29788.3	0.000000	0.000000	6.643024	0.100512	NaN	0.000000	0.001666	0.001676	28.0797	0.111151	0.002082	53.3911	53.2533	-166.808	0.045603	0.641831	-0.437435	-0.438666	0.100512	53.3911	-0.438847	-475428	-2.114129E-7	NaN
48	1.000000	0.651040	7.36551e+06	-41039.1	955.818	-29788.3	0.000000	0.000000	6.651000	0.050856	NaN	0.000000	0.001664	0.001709	28.081	0.097684	0.001930	50.6213	115.428	-163.3	0.022162	0.649732	-0.429457	-0.430765	0.050856	50.6213	-0.430210	-358952	-1.416790E-7	NaN
48	1.000000	0.659037	7.36551e+06	-41039.1	955.818	-29788.3	0.000000	0.000000	6.658996	0.042551	NaN	0.000000	0.001648	0.001723	28.0804	0.017227	0.001931	8.923237	100.985	-163.556	0.025247	0.657734	-0.421460	-0.422763	0.042551	8.923237	-0.425037	-303251	-1.403165E-7	NaN
48	1.000000	0.667066	7.36551e+06	-41039.1	955.818	-29788.3	0.000000	0.000000	6.667024	0.008145	NaN	0.000000	0.001665	0.001727	28.0808	0.049169	0.001935	25.4072	-137.871	-165.245	0.036521	0.665726	-0.413431	-0.414771	0.008145	25.4072	-0.413671	-209211	-3.893384E-8	NaN
48	1.000000	0.675068	7.36551e+06	-41039.1	955.817	-29788.3	0.000000	0.000000	6.675026	0.011605	NaN	0.000000	0.001661	0.001744	28.0796	0.116072	0.002067	56.1432	19.711	-163.444	0.026517	0.673748	-0.405429	-0.406749	0.011605	56.1432	-0.405584	-160534	-7.228975E-8	NaN
48	1.000000	0.683071	7.36551e+06	-41039.1	955.819	-29788.3	0.000000	0.000000	6.683028	-0.012969	NaN	0.000000	0.001631	0.001732	28.0814	0.024193	0.001786	13.5465	141.108	-162.967	-0.003895	0.681770	-0.397426	-0.398727	-0.012969	13.5465	-0.396708	-119956	1.081171E-7	NaN
48	1.000000	0.691071	7.36551e+06	-41039.1	955.818	-29788.3	0.000000	0.000000	6.691029	0.019463	NaN	0.000000	0.001607	0.001720	28.0817	0.097461	0.002048	47.5881	160.938	-164.428	0.010403	0.689740	-0.389426	-0.390757	0.019463	47.5881	-0.389733	-95356.5	-2.041061E-7	NaN
48	1.000000	0.699085	7.36551e+06	-41039.1	955.819	-29788.3	0.000000	0.000000	6.699042	-0.023646	NaN	0.000000	0.001619	0.001723	28.0813	0.023999	0.002053	11.6927	135.933	-163.439	-0.011798	0.697771	-0.381412	-0.382726	-0.023646	11.6927	-0.379895	-68925.3	3.430729E-7	NaN
48	1.000000	0.707064	7.36551e+06	-41039.1	955.818	-29788.3	0.000000	0.000000	6.707022	0.002881	NaN	0.000000	0.001610	0.001730	28.08	0.005299	0.002020	2.622871	-130.609	-164.812	0.033812	0.705762	-0.373433	-0.374735	0.002881	2.622871	-0.374257	-57198.2	-5.036806E-8	NaN
48	1.000000	0.715097	7.36551e+06	-41039.1	955.818	-29788.3	0.000000	0.000000	6.715055	0.021571	NaN	0.000000	0.001578	0.001717	28.0786	0.049240	0.001955	25.1882	-92.3048	-165.076	-0.045206	0.713762	-0.365400	-0.366735	0.021571	25.1882	-0.366043	-43560.8	-4.951992E-7	NaN
48	1.000000	0.723080	7.36551e+06	-41039.1	955.818	-29788.3	0.000000	0.000000	6.723038	0.000949	NaN	0.000000	0.001615	0.001685	28.079	0.035116	0.001869	18.7838	84.983	-163.024	0.008659	0.721757	-0.357417	-0.358740	0.000949	18.7838	-0.357455	-32736.6	-2.899592E-8	NaN
48	1.000000	0.731093	7.36551e+06	-41039.1	955.817	-29788.3	0.000000	0.000000	6.731050	-0.022872	NaN	0.000000	0.001596	0.001728	28.0782	0.032392	0.001845	17.5528	141.911	-164.58	-0.011316	0.729784	-0.349404	-0.350713	-0.022872	17.5528	-0.348427	-24219.4	9.443783E-7	NaN
48	1.000000	0.739068	7.36551e+06	-41039.1	955.818	-29788.3	0.000000	0.000000	6.739025	-0.006420	NaN	0.000000	0.001600	0.001695	28.0803	0.032816	0.001959	16.754	-88.6723	-163.823	-0.068598	0.737774	-0.341429	-0.342723	-0.006420	16.754	-0.341142	-18975.6	3.383224E-7	NaN
48	1.000000	0.747087	7.36551e+06	-41039.1	955.818	-29788.3	0.000000	0.000000	6.747044	-0.022320	NaN	0.000000	0.001520	0.001678	28.0804	0.031121	0.001979	15.7249	110.059	-164.771	-0.035360	0.745792	-0.333410	-0.334705	-0.022320	15.7249	-0.332346	-14118.3	1.580959E-6	NaN
48	1.000000	0.755114	7.36551e+06	-41039.1	955.818	-29788.3	0.000000	0.000000	6.755070	-0.057741	NaN	0.000000	0.001562	0.001723	28.0807	0.041478	0.002076	19.9779	-122.362	-163.495	-0.045648	0.753781	-0.325383	-0.326716	-0.057741	19.9779	-0.323215	-10373.4	5.566242E-6	NaN
48	1.000000	0.763081	7.36551e+06	-41039.1	955.818	-29788.3	0.000000	0.000000	6.763039	-0.009235	NaN	0.000000	0.001605	0.001723	28.0801	0.053108	0.002052	25.8756	-47.6678	-164.218	-0.072844	0.761745	-0.317416	-0.318752	-0.009235	25.8756	-0.317148	-8445.61	1.093522E-6	NaN
48	1.000000	0.771109	7.36551e+06	-41039.1	955.818	-29788.3	0.000000	0.000000	6.771065	-0.032365	NaN	0.000000	0.001619	0.001703	28.081	0.148037	0.002045	72.3835	90.3492	-166.376	0.019137	0.769755	-0.309388	-0.310742	-0.032365	72.3835	-0.309053	-6412.6	5.047032E-6	NaN
48	1.000000	0.779085	7.36551e+06	-41039.1	955.818	-29788.3	0.000000	0.000000	6.779041	-0.023358	NaN	0.000000	0.001648	0.001670	28.081	0.141835	0.002065	68.7003	106.586	-166.685	-0.024375	0.777829	-0.301412	-0.302668	-0.023358	68.7003	-0.301157	-4896.21	4.770650E-6	NaN
48	1.000000	0.787101	7.36551e+06	-41039.1	955.818	-29788.3	0.000000	0.000000	6.787060	0.015866	NaN	0.000000	0.001633	0.001638	28.0791	0.058380	0.002057	28.3856	72.3436	-164.811	0.068847	0.785767	-0.293396	-0.294730	0.015866	28.3856	-0.293815	-3805.29	-4.169572E-6	NaN
48	1.000000	0.795123	7.36552e+06	-41039.1	955.819	-29788.3	0.000000	0.000000	6.795082	0.010518	NaN	0.000000	0.001611	0.001686	28.0784	0.041214	0.001891	21.7909	-15.1877	-162.005	0.007381	0.793795	-0.285374	-0.286702	0.010518	21.7909	-0.285736	-2879.53	-3.652794E-6	NaN
48	1.000000	0.803116	7.36552e+06	-41039.1	955.818	-29788.3	0.000000	0.000000	6.803071	-0.046976	NaN	0.000000	0.001624	0.001699	28.0782	0.023555	0.001957	12.0363	-174.996	-163.078	-0.042825	0.801859	-0.277381	-0.278638	-0.046976	12.0363	-0.274454	-1945.96	2.414023E-5	NaN
48	1.000000	0.811144	7.36552e+06	-41039.1	955.819	-29788.3	0.000000	0.000000	6.811103	0.039482	NaN	0.000000	0.001650	0.001708	28.0786	0.066244	0.002137	30.9988	173.463	-165.439	0.048784	0.809820	-0.269353	-0.270677	0.039482	30.9988	-0.270309	-1683.58	-2.345120E-5	NaN
48	1.000000	0.819118	7.36552e+06	-41039.1	955.819	-29788.3	0.000000	0.000000	6.819074	-0.022756	NaN	0.000000	0.001654	0.001702	28.0792	0.104779	0.002030	51.6272	154.74	-165.021	-0.052412	0.817809	-0.261379	-0.262688	-0.022756	51.6272	-0.261049	-1216.15	1.871155E-5	NaN
48	1.000000	0.827114	7.36552e+06	-41039.1	955.818	-29788.3	0.000000	0.000000	6.827071	-0.039659	NaN	0.000000	0.001626	0.001692	28.0806	0.052785	0.002013	26.2236	-46.5832	-161.96	0.029029	0.825845	-0.253383	-0.254652	-0.039659	26.2236	-0.252248	-890.638	4.452841E-5	NaN
48	1.000000	0.835137	7.36552e+06	-41039.1	955.818	-29788.3	0.000000	0.000000	6.835093	-0.036915	NaN	0.000000	0.001632	0.001642	28.0797	0.141593	0.002127	66.5602	-19.8916	-162.953	0.042185	0.833803	-0.245360	-0.246694	-0.036915	66.5602	-0.244944	-686.404	5.378010E-5	NaN
48	1.000000	0.843130	7.36552e+06	-41039.1	955.819	-29788.3	0.000000	0.000000	6.843087	-0.016484	NaN	0.000000	0.001614	0.001668	28.0805	0.068379	0.001940	35.2495	-64.8575	-164.874	0.004957	0.841835	-0.237367	-0.238662	-0.016484	35.2495	-0.237016	-516.27	3.192865E-5	NaN
48	1.000000	0.851139	7.36552e+06	-41039.1	955.818	-29788.3	0.000000	0.000000	6.851098	0.031817	NaN	0.000000	0.001618	0.001683	28.0806	0.138133	0.001939	71.2332	-116.377	-167.295	0.057722	0.849781	-0.229358	-0.230716	0.031817	71.2332	-0.229693	-395.98	-8.035089E-5	NaN
48	1.000000	0.859125	7.36552e+06	-41039.1	955.818	-29788.3	0.000000	0.000000	6.859084	0.007776	NaN	0.000000	0.001607	0.001652	28.0812	0.047046	0.001989	23.6586	-19.3973	-162.377	0.031087	0.857826	-0.221372	-0.222671	0.007776	23.6586	-0.221618	-294.787	-2.637740E-5	NaN
48	1.000000	0.867131	7.36552e+06	-41039.1	955.818	-29788.3	0.000000	0.000000	6.867091	0.043848	NaN	0.000000	0.001645	0.001682	28.0813	0.056629	0.001875	30.2039	141.175	-163.793	-0.001186	0.865836	-0.213366	-0.214661	0.043848	30.2039	-0.214455	-226.33	-0.000194	NaN
48	1.000000	0.875138	7.36552e+06	-41039.1	955.818	-29788.3	0.000000	0.000000	6.875097	0.027644	NaN	0.000000	0.001661	0.001646	28.0798	0.062174	0.001999	31.1028	-35.4348	-165.718	0.005545	0.873887	-0.205359	-0.206610	0.027644	31.1028	-0.206025	-165.299	-0.000167	NaN
48	1.000000	0.883135	7.36552e+06	-41039.1	955.818	-29788.3	0.000000	0.000000	6.883093	-0.006526	NaN	0.000000	0.001615	0.001676	28.0809	0.074590	0.001907	39.1075	25.26	-165.297	0.007338	0.881831	-0.197361	-0.198666	-0.006526	39.1075	-0.197236	-118.627	5.501005E-5	NaN
48	1.000000	0.891144	7.36552e+06	-41039.1	955.818	-29788.3	0.000000	0.000000	6.891101	-0.013168	NaN	0.000000	0.001609	0.001663	28.0801	0.030206	0.002021	14.9431	121.487	-167.78	-0.029306	0.889823	-0.189353	-0.190674	-0.013168	14.9431	-0.188692	-85.5375	0.000154	NaN
48	1.000000	0.899142	7.36552e+06	-41039.1	955.817	-29788.3	0.000000	0.000000	6.899100	-0.006540	NaN	0.000000	0.001627	0.001705	28.0802	0.029962	0.001977	15.1521	84.6302	-166.006	0.046083	0.897885	-0.181355	-0.182612	-0.006540	15.1521	-0.181031	-63.5315	0.000103	NaN
48	1.000000	0.907160	7.36552e+06	-41039.1	955.818	-29788.3	0.000000	0.000000	6.907118	0.003241	NaN	0.000000	0.001599	0.001646	28.082	0.059067	0.001948	30.3225	176.812	-159.974	-0.012415	0.905800	-0.173337	-0.174697	0.003241	30.3225	-0.173418	-47.07	-6.885122E-5	NaN
48	1.000000	0.915167	7.36552e+06	-41039.1	955.819	-29788.3	0.000000	0.000000	6.915124	-0.038869	NaN	0.000000	0.001601	0.001668	28.082	0.056519	0.001989	28.421	-75.1956	-162.307	-0.028920	0.913856	-0.165330	-0.166641	-0.038869	28.421	-0.164304	-32.6641	0.001190	NaN
48	1.000000	0.923159	7.36552e+06	-41039.1	955.819	-29788.3	0.000000	0.000000	6.923116	-0.025703	NaN	0.000000	0.001613	0.001659	28.0824	0.074179	0.001896	39.1219	90.7691	-165.405	0.010230	0.921885	-0.157338	-0.158612	-0.025703	39.1219	-0.156845	-24.0826	0.001067	NaN
48	1.000000	0.931173	7.36552e+06	-41039.1	955.818	-29788.3	0.000000	0.000000	6.931130	-0.020733	NaN	0.000000	0.001573	0.001701	28.0819	0.106596	0.001950	54.6633	-137.65	-163.644	0.002165	0.929884	-0.149324	-0.150613	-0.020733	54.6633	-0.149039	-17.3963	0.001192	NaN
48	1.000000	0.939145	7.36552e+06	-41039.1	955.818	-29788.3	0.000000	0.000000	6.939101	-0.047173	NaN	0.000000	0.001637	0.001681	28.0818	0.056400	0.002083	27.0723	-111.549	-166.903	0.016912	0.937843	-0.141352	-0.142654	-0.047173	27.0723	-0.140045	-11.8525	0.003980	NaN
48	1.000000	0.947148	7.36552e+06	-41039.1	955.818	-29788.3	0.000000	0.000000	6.947104	-0.039174	NaN	0.000000	0.001597	0.001662	28.0803	0.046691	0.002102	22.2158	150.353	-165.992	-0.066535	0.945895	-0.133349	-0.134602	-0.039174	22.2158	-0.132027	-8.341412	0.004696	NaN
48	1.000000	0.955196	7.36552e+06	-41039.1	955.818	-29788.3	0.000000	0.000000	6.955154	0.005195	NaN	0.000000	0.001594	0.001650	28.0807	0.074130	0.001859	39.8854	158.852	-161.06	0.004916	0.953874	-0.125301	-0.126623	0.005195	39.8854	-0.125399	-6.192671	-0.000839	NaN
48	1.000000	0.963178	7.36552e+06	-41039.1	955.819	-29788.3	0.000000	0.000000	6.963137	0.040148	NaN	0.000000	0.001598	0.001698	28.0804	0.053431	0.002130	25.0811	-6.838684	-164.072	0.014069	0.961868	-0.117319	-0.118629	0.040148	25.0811	-0.118520	-4.509387	-0.008903	NaN
48	1.000000	0.971192	7.36552e+06	-41039.1	955.819	-29788.3	0.000000	0.000000	6.971153	0.073384	NaN	0.000000	0.001623	0.001681	28.0804	0.091134	0.002003	45.5051	-29.5252	-164.645	0.104476	0.969847	-0.109305	-0.110650	0.073384	45.5051	-0.110514	-3.081052	-0.023818	NaN
48	1.000000	0.979208	7.36552e+06	-41039.1	955.819	-29788.3	0.000000	0.000000	6.979171	0.115952	NaN	0.000000	0.001623	0.001689	28.0803	0.190756	0.001874	101.801	10.9105	-165.993	0.108471	0.977933	-0.101289	-0.102564	0.115952	101.801	-0.102143	-2.037080	-0.056921	NaN
48	1.000000	0.987185	7.36552e+06	-41039.1	955.819	-29788.3	0.000000	0.000000	6.987150	0.196510	NaN	0.000000	0.001622	0.001682	28.0801	0.212963	0.002077	102.534	58.3016	-168.735	0.114928	0.985862	-0.093312	-0.094635	0.196510	102.534	-0.094750	-1.392229	-0.141148	NaN
48	1.000000	0.995186	7.36552e+06	-41039.1	955.82	-29788.3	0.000000	0.000000	6.995163	0.462986	NaN	0.000000	0.001627	0.001688	28.0808	0.228279	0.002052	111.221	38.3562	-164.998	0.421130	0.993896	-0.085311	-0.086601	0.462986	111.221	-0.088433	-0.992825	-0.466332	NaN
48	1.000000	1.003204	7.36552e+06	-41039.1	955.819	-29788.3	0.000000	0.000000	7.003186	0.603323	NaN	0.000000	0.001666	0.001675	28.0794	0.388848	0.002058	188.974	27.1618	-161.253	0.541769	1.001885	-0.077293	-0.078612	0.603323	188.974	-0.079688	-0.607956	-0.992379	NaN
48	1.000000	1.011221	7.36552e+06	-41039.1	955.819	-29788.3	0.000000	0.000000	7.011207	0.687418	NaN	0.000000	0.001617	0.001692	28.0805	0.419599	0.002020	207.688	12.4773	-165.036	0.659612	1.009921	-0.069276	-0.070576	0.687418	207.688	-0.071759	-0.379943	-1.809264	NaN
48	1.000000	1.019217	7.36552e+06	-41039.1	955.819	-29788.3	0.000000	0.000000	7.019208	0.828892	NaN	0.000000	0.001615	0.001695	28.0799	0.479086	0.002024	236.702	18.2424	-164.873	0.886469	1.017925	-0.061280	-0.062572	0.828892	236.702	-0.063907	-0.232348	-3.567466	NaN
48	1.000000	1.027232	7.36552e+06	-41039.1	955.82	-29788.3	0.000000	0.000000	7.027223	0.811351	NaN	0.000000	0.001571	0.001713	28.0801	0.494548	0.002034	243.145	26.6603	-167.681	0.901420	1.025817	-0.053265	-0.054680	0.811351	243.145	-0.055768	-0.135669	-5.980357	NaN
48	1.000000	1.035203	7.36552e+06	-41039.1	955.819	-29788.3	0.000000	0.000000	7.035195	0.835623	NaN	0.000000	0.001608	0.001730	28.0788	0.552348	0.002130	259.326	14.4003	-163.429	0.838201	1.033877	-0.045294	-0.046620	0.835623	259.326	-0.047711	-0.077760	-10.7462	NaN
48	1.000000	1.043210	7.36552e+06	-41039.1	955.82	-29788.3	0.000000	0.000000	7.043207	0.966547	NaN	0.000000	0.001630	0.001720	28.0798	0.484812	0.001999	242.524	22.5512	-168.395	0.945933	1.041896	-0.037287	-0.038601	0.966547	242.524	-0.040276	-0.046104	-20.9645	NaN
48	1.000000	1.051227	7.36552e+06	-41039.1	955.819	-29788.3	0.000000	0.000000	7.051220	0.859063	NaN	0.000000	0.001619	0.001705	28.079	0.494432	0.001958	252.474	29.543	-165.796	0.835117	1.049945	-0.029270	-0.030552	0.859063	252.474	-0.031822	-0.025901	-33.1668	NaN
48	1.000000	1.059256	7.36552e+06	-41039.1	955.819	-29788.3	0.000000	0.000000	7.059257	1.058864	NaN	0.000000	0.001618	0.001724	28.0796	0.628101	0.001857	338.172	8.557924	-165.136	1.050905	1.057919	-0.021241	-0.022578	1.058864	338.172	-0.023589	-0.015508	-68.28	NaN
48	1.000000	1.067244	7.36552e+06	-41039.1	955.819	-29788.3	0.000000	0.000000	7.067243	1.018108	NaN	0.000000	0.001627	0.001738	28.0806	0.513722	0.001963	261.664	33.0448	-166.468	1.009367	1.065907	-0.013253	-0.014590	1.018108	261.664	-0.016172	-0.009989	-101.922	NaN
48	1.000000	1.075236	7.36552e+06	-41039.1	955.82	-29788.3	0.000000	0.000000	7.075239	1.098960	NaN	0.000000	0.001600	0.001718	28.0792	0.680852	0.001990	342.081	30.1792	-167.555	1.091363	1.073916	-0.005261	-0.006581	1.098960	342.081	-0.007670	-0.005038	-218.143	NaN
48	1.000000	1.083190	7.36552e+06	-41039.1	955.819	-29788.3	0.000000	0.000000	7.083226	1.905625	NaN	0.000000	0.001622	0.001723	28.0813	1.726533	0.001994	865.95	15.6276	-165.157	1.335222	1.081920	0.002693	0.001423	1.905625	865.95	0.001043	0.000795	2396.08	28054.2
48	2.000000	1.090615	7.36552e+06	-41039.1	955.819	-29788.3	0.000000	0.000000	7.090987	10.074	NaN	0.000000	0.001620	0.001729	28.0802	7.137315	0.001842	3874.82	9.875435	-172.356	9.470093	1.089861	0.010118	0.009364	10.074	3874.82	0.008168	0.007216	1396.04	41674.8
48	2.000000	1.092677	7.36552e+06	-41039.1	955.819	-29788.3	0.000000	0.000000	7.093144	12.3872	NaN	0.000000	0.001601	0.001739	28.0805	8.822158	0.001815	4861.33	5.759462	-170.79	11.3979	1.092358	0.012180	0.011861	12.3872	4861.33	0.010269	0.009482	1306.36	45611.4
48	2.000000	1.094685	7.36552e+06	-41039.1	955.82	-29788.3	0.000000	0.000000	7.095231	14.3086	NaN	0.000000	0.001614	0.001702	28.0786	10.8444	0.001901	5703.83	7.073379	-171.932	13.6149	1.094410	0.014188	0.013913	14.3086	5703.83	0.012306	0.011859	1206.55	47853.6
48	2.000000	1.096679	7.36552e+06	-41039.1	955.82	-29788.3	0.000000	0.000000	7.097393	18.4035	NaN	0.000000	0.001608	0.001737	28.0795	12.803	0.001829	7000.5	5.223199	-172.04	17.5	1.096324	0.016182	0.015827	18.4035	7000.5	0.014210	0.014246	1291.79	53585.7
48	2.000000	1.098659	7.36552e+06	-41039.1	955.82	-29788.3	0.000000	0.000000	7.099562	23.0026	NaN	0.000000	0.001578	0.001732	28.0796	14.7658	0.001922	7682.89	5.315602	-172.661	22.7037	1.098340	0.018162	0.017843	23.0026	7682.89	0.015917	0.016527	1391.81	54600.8
48	2.000000	1.100666	7.36552e+06	-41039.1	955.819	-29788.3	0.000000	0.000000	7.101717	26.6138	NaN	0.000000	0.001612	0.001733	28.0805	16.0592	0.001774	9051.98	3.615996	-171.4	27.7785	1.100367	0.020169	0.019870	26.6138	9051.98	0.017964	0.019443	1368.81	59310.9
48	2.000000	1.102644	7.36552e+06	-41039.1	955.82	-29788.3	0.000000	0.000000	7.103858	30.5681	NaN	0.000000	0.001618	0.001716	28.0809	18.3787	0.001773	10367.7	7.645768	-177.051	30.2603	1.102337	0.022147	0.021840	30.5681	10367.7	0.019936	0.022441	1362.15	63231.3
48	2.000000	1.104618	7.36552e+06	-41039.1	955.82	-29788.3	0.000000	0.000000	7.105963	33.752	NaN	0.000000	0.001599	0.001718	28.0815	20.124	0.001772	11354.7	5.870333	-176.873	32.5073	1.104330	0.024121	0.023833	33.752	11354.7	0.021892	0.025603	1318.28	64834.2
48	2.000000	1.106622	7.36552e+06	-41039.1	955.82	-29788.3	0.000000	0.000000	7.108095	36.8558	NaN	0.000000	0.001606	0.001723	28.0824	21.4922	0.001760	12209.8	6.770697	-178.315	37.8712	1.106352	0.026125	0.025855	36.8558	12209.8	0.023861	0.028977	1271.91	65532.7
48	2.000000	1.108639	7.36552e+06	-41039.1	955.82	-29788.3	0.000000	0.000000	7.110400	43.8773	NaN	0.000000	0.001632	0.001733	28.0816	23.7492	0.001854	12811.4	6.205594	-177.287	44.1001	1.108312	0.028142	0.027815	43.8773	12811.4	0.025574	0.032067	1368.29	65364.3
48	2.000000	1.110637	7.36552e+06	-41039.1	955.821	-29788.3	0.000000	0.000000	7.112459	45.3715	NaN	0.000000	0.001670	0.001700	28.082	25.2899	0.001834	13787	7.428740	-179.91	45.5807	1.110286	0.030140	0.029789	45.3715	13787	0.027672	0.036056	1258.35	66336.3
48	2.000000	1.112614	7.36552e+06	-41039.1	955.821	-29788.3	0.000000	0.000000	7.114772	53.5339	NaN	0.000000	0.001649	0.001732	28.0813	28.2388	0.001861	15176.6	5.059861	-178.572	53.7491	1.112320	0.032117	0.031823	53.5339	15176.6	0.029472	0.039656	1349.96	69629.3
48	2.000000	1.114651	7.36552e+06	-41039.1	955.82	-29788.3	0.000000	0.000000	7.116963	57.2787	NaN	0.000000	0.001667	0.001700	28.0801	29.1411	0.001781	16358.7	3.070220	-176.594	58.1852	1.114320	0.034154	0.033823	57.2787	16358.7	0.031528	0.043970	1302.66	71275.6
48	2.000000	1.116629	7.36552e+06	-41039.1	955.82	-29788.3	0.000000	0.000000	7.119200	63.5819	NaN	0.000000	0.001615	0.001723	28.0801	31.3872	0.001843	17028.5	6.932690	179.974	64.1219	1.116294	0.036132	0.035797	63.5819	17028.5	0.033332	0.047933	1326.47	71060.9
48	2.000000	1.118544	7.36552e+06	-41039.1	955.821	-29788.3	0.000000	0.000000	7.121434	71.3548	NaN	0.000000	0.001613	0.001714	28.0802	32.7897	0.001860	17626.8	7.482388	179.23	69.0501	1.118329	0.038047	0.037832	71.3548	17626.8	0.035011	0.051771	1378.27	70778.9
48	2.000000	1.120587	7.36552e+06	-41039.1	955.82	-29788.3	0.000000	0.000000	7.123694	76.6467	NaN	0.000000	0.001641	0.001713	28.0797	33.6823	0.001798	18728.5	2.119567	-176.71	75.6877	1.120285	0.040090	0.039788	76.6467	18728.5	0.037020	0.056554	1355.28	71952.3
48	2.000000	1.122583	7.36552e+06	-41039.1	955.82	-29788.3	0.000000	0.000000	7.126090	86.3591	NaN	0.000000	0.001649	0.001725	28.0811	35.7264	0.001822	19606.3	2.003237	-177.558	85.4149	1.122277	0.042086	0.041780	86.3591	19606.3	0.038782	0.060919	1417.61	72575.8
48	2.000000	1.124620	7.36552e+06	-41039.1	955.82	-29788.3	0.000000	0.000000	7.128359	92.0156	NaN	0.000000	0.001643	0.001698	28.0811	38.1451	0.001731	22038.6	5.005147	178.748	91.7956	1.124309	0.044123	0.043812	92.0156	22038.6	0.040992	0.066616	1381.28	78013.1
48	2.000000	1.126616	7.36552e+06	-41039.1	955.82	-29788.3	0.000000	0.000000	7.130649	99.1772	NaN	0.000000	0.001629	0.001692	28.0825	39.1839	0.001778	22034.2	4.520308	179.39	98.5477	1.126261	0.046119	0.045764	99.1772	22034.2	0.042743	0.071309	1390.81	75387.4
48	2.000000	1.128598	7.36552e+06	-41039.1	955.819	-29788.3	0.000000	0.000000	7.132827	103.938	NaN	0.000000	0.001614	0.001712	28.0822	42.2188	0.001928	21898.9	4.440865	179.759	105.149	1.128297	0.048101	0.047800	103.938	21898.9	0.044541	0.076290	1362.4	72437
48	2.000000	1.130586	7.36552e+06	-41039.1	955.82	-29788.3	0.000000	0.000000	7.135066	110.027	NaN	0.000000	0.001670	0.001735	28.0821	43.5482	0.001884	23113.4	8.327333	175.912	110.222	1.130274	0.050089	0.049777	110.027	23113.4	0.046519	0.081958	1342.48	73763.3
48	2.000000	1.132600	7.36552e+06	-41039.1	955.82	-29788.3	0.000000	0.000000	7.137381	117.349	NaN	0.000000	0.001677	0.001718	28.0797	44.5952	0.001841	24227.4	3.259625	179.468	116.596	1.132324	0.052103	0.051827	117.349	24227.4	0.048470	0.087744	1337.4	74726.1
48	2.000000	1.134587	7.36552e+06	-41039.1	955.82	-29788.3	0.000000	0.000000	7.139908	130.523	NaN	0.000000	0.001685	0.001695	28.0804	46.616	0.001878	24828.6	8.009566	175.702	128.964	1.134266	0.054090	0.053769	130.523	24828.6	0.050147	0.092868	1405.47	74437.9
48	2.000000	1.136694	7.36552e+06	-41039.1	955.82	-29788.3	0.000000	0.000000	7.142149	133.763	NaN	0.000000	0.001637	0.001714	28.0794	47.8777	0.001753	27318.7	6.137643	175.649	137.871	1.136313	0.056197	0.055816	133.763	27318.7	0.052525	0.100378	1332.6	78779.8
48	2.000000	1.138595	7.36552e+06	-41039.1	955.82	-29788.3	0.000000	0.000000	7.144445	143.375	NaN	0.000000	0.001658	0.001725	28.0794	49.2284	0.001786	27560.1	0.754818	-178.743	143.518	1.138340	0.058098	0.057843	143.375	27560.1	0.054196	0.105822	1354.86	77404.4
48	2.000000	1.140655	7.36552e+06	-41039.1	955.821	-29788.3	0.000000	0.000000	7.146876	152.386	NaN	0.000000	0.001634	0.001700	28.0801	51.5233	0.001814	28396.4	6.861877	174.374	155.769	1.140268	0.060158	0.059771	152.386	28396.4	0.056134	0.112310	1356.84	77415.5
48	2.000000	1.142586	7.36552e+06	-41039.1	955.82	-29788.3	0.000000	0.000000	7.149302	164.439	NaN	0.000000	0.001640	0.001731	28.0803	53.1718	0.001809	29388.2	7.856348	173.465	164.176	1.142289	0.062089	0.061792	164.439	29388.2	0.057892	0.118359	1389.33	78045.1
48	2.000000	1.144593	7.36552e+06	-41039.1	955.82	-29788.3	0.000000	0.000000	7.151830	177.125	NaN	0.000000	0.001636	0.001732	28.0797	54.0056	0.001753	30813.8	4.129976	178.542	176.342	1.144224	0.064096	0.063727	177.125	30813.8	0.059785	0.125037	1416.58	79615.8
48	2.000000	1.146514	7.36552e+06	-41039.1	955.82	-29788.3	0.000000	0.000000	7.154148	186.782	NaN	0.000000	0.001629	0.001726	28.0797	55.5731	0.001830	30368.5	1.846298	179.724	185.09	1.146276	0.066017	0.065779	186.782	30368.5	0.061405	0.130893	1426.98	76689.8
48	2.000000	1.148501	7.36552e+06	-41039.1	955.821	-29788.3	0.000000	0.000000	7.156667	199.721	NaN	0.000000	0.001598	0.001707	28.0804	58.5244	0.001811	32322.7	7.835686	173.209	195.771	1.148094	0.068004	0.067597	199.721	32322.7	0.063370	0.138169	1445.48	79446.7
48	2.000000	1.150532	7.36552e+06	-41039.1	955.821	-29788.3	0.000000	0.000000	7.158949	205.816	NaN	0.000000	0.001607	0.001721	28.0814	59.3617	0.001854	32018.1	4.948516	175.928	204.291	1.150227	0.070035	0.069730	205.816	32018.1	0.065214	0.145167	1417.79	76777.5
48	2.000000	1.152500	7.36552e+06	-41039.1	955.82	-29788.3	0.000000	0.000000	7.161616	222.866	NaN	0.000000	0.001619	0.001727	28.0802	61.5173	0.001789	34377.3	1.827057	178.571	218.845	1.152206	0.072003	0.071709	222.866	34377.3	0.067140	0.152650	1459.98	80388.9
48	2.000000	1.154527	7.36552e+06	-41039.1	955.82	-29788.3	0.000000	0.000000	7.164130	234.688	NaN	0.000000	0.001596	0.001744	28.0798	63.869	0.001723	37071	4.101781	175.88	231.866	1.154224	0.074030	0.073727	234.688	37071	0.069282	0.161180	1456.06	84363.1
48	2.000000	1.156408	7.36552e+06	-41039.1	955.821	-29788.3	0.000000	0.000000	7.166595	248.897	NaN	0.000000	0.001647	0.001720	28.079	64.6879	0.001737	37245.4	2.057374	177.264	241.651	1.156113	0.075911	0.075616	248.897	37245.4	0.070899	0.167765	1483.6	83079.6
48	2.000000	1.158556	7.36552e+06	-41039.1	955.821	-29788.3	0.000000	0.000000	7.169157	259.001	NaN	0.000000	0.001643	0.001753	28.0788	68.4319	0.001879	36425.2	4.698972	175.461	258.221	1.158259	0.078059	0.077762	259.001	36425.2	0.072726	0.175352	1477.03	79473.1
48	2.000000	1.160512	7.36552e+06	-41039.1	955.821	-29788.3	0.000000	0.000000	7.171809	275.925	NaN	0.000000	0.001578	0.001743	28.0803	69.1764	0.001828	37847.2	4.081681	176.285	274.302	1.160148	0.080015	0.079651	275.925	37847.2	0.074547	0.183074	1507.18	80815.3
48	2.000000	1.162509	7.36552e+06	-41039.1	955.821	-29788.3	0.000000	0.000000	7.174245	286.584	NaN	0.000000	0.001577	0.001754	28.0799	71.5175	0.001766	40499.6	7.398839	172.434	284.759	1.162157	0.082012	0.081660	286.584	40499.6	0.076705	0.192428	1489.31	84351
48	2.000000	1.164494	7.36552e+06	-41039.1	955.821	-29788.3	0.000000	0.000000	7.176789	300.189	NaN	0.000000	0.001630	0.001748	28.0807	73.014	0.001779	41051.9	3.104279	176.731	295.819	1.164145	0.083997	0.083648	300.189	41051.9	0.078513	0.200432	1497.71	83776.6
48	2.000000	1.166505	7.36552e+06	-41039.1	955.82	-29788.3	0.000000	0.000000	7.179393	314.619	NaN	0.000000	0.001607	0.001756	28.0812	73.9885	0.001806	40971.4	2.450510	176.803	311.711	1.166245	0.086008	0.085748	314.619	40971.4	0.080249	0.208260	1510.71	82026.1
48	2.000000	1.168463	7.36552e+06	-41039.1	955.822	-29788.3	0.000000	0.000000	7.181910	328.224	NaN	0.000000	0.001612	0.001698	28.083	77.0615	0.001683	45779.4	1.373672	176.699	324.84	1.168259	0.087966	0.087762	328.224	45779.4	0.082589	0.219034	1498.51	89369.2
48	2.000000	1.170512	7.36552e+06	-41039.1	955.821	-29788.3	0.000000	0.000000	7.184455	340.285	NaN	0.000000	0.001617	0.001749	28.0814	76.7857	0.001826	42060.8	3.688802	175.53	336.728	1.170176	0.090015	0.089679	340.285	42060.8	0.083948	0.225407	1509.64	80940.7
48	2.000000	1.172566	7.36552e+06	-41039.1	955.82	-29788.3	0.000000	0.000000	7.186602	342.553	NaN	0.000000	0.001639	0.001699	28.0818	80.1047	0.001821	43982.7	4.661665	174.329	342.643	1.172300	0.092069	0.091803	342.553	43982.7	0.086228	0.236294	1449.69	82666.4
48	2.000000	1.174572	7.36552e+06	-41039.1	955.821	-29788.3	0.000000	0.000000	7.189294	359.254	NaN	0.000000	0.001643	0.001761	28.0821	83.1753	0.001819	45715.8	3.617762	174.947	360.991	1.174323	0.094075	0.093826	359.254	45715.8	0.088181	0.245811	1461.5	84243.9
48	2.000000	1.176491	7.36552e+06	-41039.1	955.82	-29788.3	0.000000	0.000000	7.192438	389.064	NaN	0.000000	0.001624	0.001738	28.0804	84.1465	0.001754	47971	3.349866	173.927	387.38	1.176097	0.095994	0.095600	389.064	47971	0.089912	0.254387	1529.42	86896.8
48	2.000000	1.178555	7.36552e+06	-41039.1	955.82	-29788.3	0.000000	0.000000	7.194460	388.04	NaN	0.000000	0.001619	0.001773	28.0806	85.6567	0.001747	49035.4	4.211812	172.769	388.194	1.178464	0.098058	0.097967	388.04	49035.4	0.092123	0.265546	1461.29	86938.7
48	2.000000	1.180474	7.36552e+06	-41039.1	955.821	-29788.3	0.000000	0.000000	7.197622	418.28	NaN	0.000000	0.001651	0.001750	28.0805	86.4141	0.001806	47857.3	1.595827	176.361	414.682	1.180212	0.099977	0.099715	418.28	47857.3	0.093422	0.272211	1536.6	83804.8
48	2.000000	1.182536	7.36552e+06	-41039.1	955.821	-29788.3	0.000000	0.000000	7.200028	426.652	NaN	0.000000	0.001627	0.001774	28.08	92.0375	0.001796	51253.3	2.131263	176.057	427.416	1.182216	0.102039	0.101719	426.652	51253.3	0.095796	0.284580	1499.23	87779.3
48	2.000000	1.184534	7.36552e+06	-41039.1	955.82	-29788.3	0.000000	0.000000	7.203160	454.254	NaN	0.000000	0.001599	0.001740	28.0816	94.6103	0.001796	52679.2	5.183543	172.416	453.397	1.184034	0.104037	0.103537	454.254	52679.2	0.097570	0.293993	1545.12	88765.4
48	2.000000	1.186439	7.36552e+06	-41039.1	955.82	-29788.3	0.000000	0.000000	7.205679	469.185	NaN	0.000000	0.001616	0.001734	28.0815	95.1575	0.001877	50687.2	7.587004	169.956	462.808	1.186033	0.105942	0.105536	469.185	50687.2	0.099000	0.301686	1555.21	84313
48	2.000000	1.188468	7.36552e+06	-41039.1	955.821	-29788.3	0.000000	0.000000	7.208361	485.092	NaN	0.000000	0.001625	0.001774	28.0821	96.6074	0.001931	50041.6	7.647513	170.263	483.263	1.188268	0.107971	0.107771	485.092	50041.6	0.100700	0.310952	1560.02	81989.4
48	2.000000	1.188945	7.36552e+06	-41039.1	955.821	-29788.3	0.000000	0.000000	7.209166	493.065	NaN	0.000000	0.001633	0.001747	28.0921	94.9104	0.001880	50483.1	2.229527	-5.009957	486.335	1.188608	0.108448	0.108111	493.065	50483.1	0.101123	0.313276	1573.9	82405.4