File: remote_trans/data/nanoindenter/0828-1/data/Data_2025-08-06,11h17m57s/2025-07-22_16-23-58_1_218.txt
2025-07-22, 16:23:58, 1
Index	Phase	Displacement	Time	Pos X	Pos Y	Pos Z	Rot A	Rot B	Piezo Z	Force A	Force B	Gripper	Voltage A	Voltage B	Temperature	Amplitude force	Amplitude pos	Stiffness	Phase shift	Phase excitation	Force A raw	Displacement raw	HMax	HMax raw	Real Force	Real Stiffness	Contact Depth	Area	Hardness	Reduced Mod.
[#]	[#]	[um]	[s]	[um]	[um]	[um]	[m°]	[m°]	[um]	[uN]	[uN]	[V]	[V]	[V]	[°C]	[uN]	[um]	[N/m]	[°]	[°]	[uN]	[um]	[um]	[um]	[uN]	[N/m]	[um]	[um^2]	[MPa]	[MPa]
218	1.000000	0.002537	7.36718e+06	-49539.1	955.818	-29759	0.000000	0.000000	6.002815	-0.080819	NaN	0.000000	0.001654	0.001794	28.0784	0.056884	0.000971	58.5707	13.5539	-161.985	-0.093715	0.001242	-1.011788	-1.013083	-0.080819	58.5707	-1.010753	-3.166006E+13	2.552698E-15	NaN
218	1.000000	0.010488	7.36718e+06	-49539.1	955.819	-29759	0.000000	0.000000	6.010769	0.003435	NaN	0.000000	0.001692	0.001814	28.0787	0.127610	0.001070	119.271	-52.9309	-168.385	0.024220	0.009132	-1.003837	-1.005193	0.003435	119.271	-1.003858	-2.556897E+13	-1.343571E-16	NaN
218	1.000000	0.018463	7.36718e+06	-49539.1	955.818	-29759	0.000000	0.000000	6.018742	-0.042101	NaN	0.000000	0.001625	0.001808	28.0783	0.031984	0.001635	19.5573	-178.268	-168.389	-0.145867	0.017152	-0.995862	-0.997173	-0.042101	19.5573	-0.994248	-1.898090E+13	2.218046E-15	NaN
218	1.000000	0.026525	7.36718e+06	-49539.1	955.819	-29759	0.000000	0.000000	6.026804	-0.051141	NaN	0.000000	0.001671	0.001790	28.0784	0.055683	0.001817	30.6482	78.9163	-161.606	-0.026720	0.025124	-0.987800	-0.989201	-0.051141	30.6482	-0.986548	-1.494928E+13	3.420952E-15	NaN
218	1.000000	0.034497	7.36718e+06	-49539.1	955.817	-29759	0.000000	0.000000	6.034777	-0.050764	NaN	0.000000	0.001735	0.001775	28.0791	0.060695	0.002010	30.1954	-110.139	-163.532	-0.082668	0.033161	-0.979827	-0.981164	-0.050764	30.1954	-0.978567	-1.167071E+13	4.349680E-15	NaN
218	1.000000	0.042455	7.36718e+06	-49539.1	955.819	-29759	0.000000	0.000000	6.042737	0.017768	NaN	0.000000	0.001643	0.001773	28.0801	0.114520	0.001943	58.9467	-162.794	-169.148	-0.027557	0.041192	-0.971870	-0.973133	0.017768	58.9467	-0.972096	-9.547921E+12	-1.860951E-15	NaN
218	1.000000	0.050466	7.36718e+06	-49539.1	955.818	-29759	0.000000	0.000000	6.050745	-0.041464	NaN	0.000000	0.001663	0.001758	28.0796	0.183524	0.001999	91.7868	-45.8853	-163.667	0.041573	0.049148	-0.963859	-0.965177	-0.041464	91.7868	-0.963520	-7.316894E+12	5.666857E-15	NaN
218	1.000000	0.058439	7.36718e+06	-49539.1	955.819	-29759	0.000000	0.000000	6.058720	-0.002781	NaN	0.000000	0.001662	0.001788	28.0796	0.030656	0.002073	14.7862	41.2712	-162.789	-0.010169	0.057138	-0.955886	-0.957187	-0.002781	14.7862	-0.955745	-5.747714E+12	4.838726E-16	NaN
218	1.000000	0.066449	7.36718e+06	-49539.1	955.818	-29759	0.000000	0.000000	6.066730	-0.003636	NaN	0.000000	0.001718	0.001816	28.0795	0.067692	0.002024	33.4364	-140.456	-165.532	-0.010000	0.065165	-0.947876	-0.949160	-0.003636	33.4364	-0.947795	-4.490409E+12	8.096847E-16	NaN
218	1.000000	0.074467	7.36718e+06	-49539.1	955.818	-29759	0.000000	0.000000	6.074748	-0.016751	NaN	0.000000	0.001713	0.001798	28.0795	0.090154	0.002033	44.3383	131.164	-162.483	0.039597	0.073146	-0.939858	-0.941179	-0.016751	44.3383	-0.939574	-3.478535E+12	4.815602E-15	NaN
218	1.000000	0.082465	7.36718e+06	-49539.1	955.818	-29759.1	0.000000	0.000000	6.082742	-0.088454	NaN	0.000000	0.001713	0.001803	28.0798	0.049610	0.001940	25.5667	59.39	-165.248	-0.053793	0.081170	-0.931860	-0.933155	-0.088454	25.5667	-0.929265	-2.525125E+12	3.502949E-14	NaN
218	1.000000	0.090482	7.36718e+06	-49539.1	955.819	-29759.1	0.000000	0.000000	6.090764	0.012209	NaN	0.000000	0.001705	0.001780	28.0797	0.037421	0.001890	19.8015	-41.0804	-163.276	-0.076342	0.089175	-0.923843	-0.925150	0.012209	19.8015	-0.924305	-2.164372E+12	-5.640782E-15	NaN
218	1.000000	0.098463	7.36718e+06	-49539.1	955.818	-29759.1	0.000000	0.000000	6.098742	-0.053511	NaN	0.000000	0.001740	0.001809	28.08	0.052738	0.001958	26.9411	98.1696	-164.283	-0.091570	0.097172	-0.915862	-0.917153	-0.053511	26.9411	-0.914373	-1.589352E+12	3.366816E-14	NaN
218	1.000000	0.106499	7.36718e+06	-49539.1	955.818	-29759.1	0.000000	0.000000	6.106779	-0.036618	NaN	0.000000	0.001696	0.001792	28.0797	0.081532	0.002124	38.3896	-101.575	-164.386	0.046175	0.105173	-0.907826	-0.909152	-0.036618	38.3896	-0.907111	-1.268047E+12	2.887723E-14	NaN
218	1.000000	0.114515	7.36718e+06	-49539.1	955.818	-29759.1	0.000000	0.000000	6.114797	0.019685	NaN	0.000000	0.001748	0.001794	28.0797	0.082403	0.002023	40.7255	-84.1431	-164.208	-0.006541	0.113197	-0.899810	-0.901128	0.019685	40.7255	-0.900173	-1.021884E+12	-1.926314E-14	NaN
218	1.000000	0.122491	7.36718e+06	-49539.1	955.819	-29759.1	0.000000	0.000000	6.122773	0.020847	NaN	0.000000	0.001740	0.001787	28.0797	0.068916	0.001996	34.5227	81.3075	-166.9	-0.055921	0.121130	-0.891834	-0.893195	0.020847	34.5227	-0.892287	-7.995101E+11	-2.607494E-14	NaN
218	1.000000	0.130480	7.36718e+06	-49539.1	955.819	-29759.1	0.000000	0.000000	6.130760	-0.050332	NaN	0.000000	0.001729	0.001815	28.0795	0.059228	0.002001	29.6047	-73.7294	-166.369	0.031217	0.129188	-0.883844	-0.885137	-0.050332	29.6047	-0.882569	-5.908165E+11	8.519093E-14	NaN
218	1.000000	0.138497	7.36718e+06	-49539.1	955.818	-29759.1	0.000000	0.000000	6.138778	-0.018006	NaN	0.000000	0.001741	0.001815	28.08	0.102202	0.001992	51.307	-146.241	-163.151	0.015983	0.137191	-0.875827	-0.877134	-0.018006	51.307	-0.875564	-4.750231E+11	3.790599E-14	NaN
218	1.000000	0.146509	7.36718e+06	-49539.1	955.819	-29759.1	0.000000	0.000000	6.146790	-0.010877	NaN	0.000000	0.001743	0.001838	28.0796	0.037753	0.002035	18.5544	102.412	-166.373	-0.030881	0.145172	-0.867816	-0.869153	-0.010877	18.5544	-0.867376	-3.680808E+11	2.954987E-14	NaN
218	1.000000	0.154535	7.36718e+06	-49539.1	955.817	-29759.1	0.000000	0.000000	6.154817	0.020843	NaN	0.000000	0.001788	0.001839	28.0795	0.075072	0.001998	37.5719	-113.263	-163.11	-0.007295	0.153207	-0.859790	-0.861118	0.020843	37.5719	-0.860206	-2.943775E+11	-7.080533E-14	NaN
218	1.000000	0.162538	7.36718e+06	-49539.1	955.818	-29759.1	0.000000	0.000000	6.162819	0.007180	NaN	0.000000	0.001784	0.001810	28.0795	0.080538	0.001986	40.5436	94.0912	-164.183	0.009872	0.161230	-0.851787	-0.853095	0.007180	40.5436	-0.851920	-2.273714E+11	-3.157879E-14	NaN
218	1.000000	0.170466	7.36718e+06	-49539.1	955.817	-29759.1	0.000000	0.000000	6.170748	0.005708	NaN	0.000000	0.001748	0.001843	28.079	0.070423	0.002011	35.0135	81.9173	-160.973	0.036464	0.169184	-0.843859	-0.845141	0.005708	35.0135	-0.843981	-1.775084E+11	-3.215402E-14	NaN
218	1.000000	0.178500	7.36718e+06	-49539.1	955.819	-29759.1	0.000000	0.000000	6.178779	-0.064835	NaN	0.000000	0.001729	0.001805	28.0785	0.074718	0.001965	38.0217	-97.246	-163.403	-0.131325	0.177255	-0.835824	-0.837070	-0.064835	38.0217	-0.834546	-1.322478E+11	4.902538E-13	NaN
218	1.000000	0.186534	7.36718e+06	-49539.1	955.819	-29759.1	0.000000	0.000000	6.186819	0.080008	NaN	0.000000	0.001769	0.001803	28.078	0.062864	0.002047	30.7101	176.591	-167.736	0.011623	0.185223	-0.827791	-0.829102	0.080008	30.7101	-0.829745	-1.138472E+11	-7.027628E-13	NaN
218	1.000000	0.194544	7.36718e+06	-49539.1	955.818	-29759.1	0.000000	0.000000	6.194824	-0.024594	NaN	0.000000	0.001719	0.001800	28.078	0.056300	0.001983	28.3876	47.4514	-167.048	-0.038702	0.193178	-0.819781	-0.821147	-0.024594	28.3876	-0.819132	-8.174008E+10	3.008866E-13	NaN
218	1.000000	0.202519	7.36718e+06	-49539.1	955.819	-29759.1	0.000000	0.000000	6.202799	-0.029513	NaN	0.000000	0.001750	0.001830	28.0779	0.064678	0.002143	30.1867	-27.766	-163.919	-0.070147	0.201185	-0.811805	-0.813140	-0.029513	30.1867	-0.811072	-6.355040E+10	4.644026E-13	NaN
218	1.000000	0.210539	7.36718e+06	-49539.1	955.819	-29759.1	0.000000	0.000000	6.210818	-0.048387	NaN	0.000000	0.001720	0.001793	28.0779	0.113044	0.001965	57.5241	171.803	-163.351	-0.088267	0.209242	-0.803786	-0.805082	-0.048387	57.5241	-0.803155	-4.962306E+10	9.750969E-13	NaN
218	1.000000	0.218529	7.36718e+06	-49539.1	955.819	-29759.1	0.000000	0.000000	6.218807	-0.083153	NaN	0.000000	0.001738	0.001817	28.078	0.031148	0.001997	15.5986	-159.464	-162.164	-0.021074	0.217178	-0.795796	-0.797147	-0.083153	15.5986	-0.791798	-3.479368E+10	2.389893E-12	NaN
218	1.000000	0.226553	7.36718e+06	-49539.1	955.818	-29759.1	0.000000	0.000000	6.226835	0.017310	NaN	0.000000	0.001739	0.001786	28.0778	0.031446	0.001993	15.7756	23.784	-165.018	0.045240	0.225296	-0.787772	-0.789029	0.017310	15.7756	-0.788595	-3.147769E+10	-5.498987E-13	NaN
218	1.000000	0.234538	7.36718e+06	-49539.1	955.818	-29759.1	0.000000	0.000000	6.234819	-0.000283	NaN	0.000000	0.001764	0.001822	28.0782	0.030447	0.002127	14.3127	61.3635	-163.693	-0.019315	0.233287	-0.779787	-0.781038	-0.000283	14.3127	-0.779772	-2.388571E+10	1.185154E-14	NaN
218	1.000000	0.242553	7.36718e+06	-49539.1	955.818	-29759.1	0.000000	0.000000	6.242832	-0.032901	NaN	0.000000	0.001760	0.001814	28.0779	0.043680	0.002046	21.3531	15.6414	-162.688	-0.060885	0.241260	-0.771772	-0.773065	-0.032901	21.3531	-0.770617	-1.793459E+10	1.834483E-12	NaN
218	1.000000	0.250561	7.36718e+06	-49539.1	955.82	-29759.1	0.000000	0.000000	6.250842	-0.007226	NaN	0.000000	0.001763	0.001791	28.078	0.069572	0.002103	33.075	-94.0522	-166.039	-0.033387	0.249289	-0.763764	-0.765036	-0.007226	33.075	-0.763600	-1.439716E+10	5.019009E-13	NaN
218	1.000000	0.258555	7.36718e+06	-49539.1	955.819	-29759.1	0.000000	0.000000	6.258836	-0.018546	NaN	0.000000	0.001758	0.001804	28.0782	0.055839	0.001912	29.2054	-142.413	-158.153	-0.011119	0.257246	-0.755770	-0.757079	-0.018546	29.2054	-0.755293	-1.109846E+10	1.671037E-12	NaN
218	1.000000	0.266575	7.36718e+06	-49539.1	955.818	-29759.1	0.000000	0.000000	6.266858	0.043346	NaN	0.000000	0.001717	0.001828	28.0777	0.084681	0.002041	41.4836	2.540416	-163.846	-0.020725	0.265214	-0.747749	-0.749111	0.043346	41.4836	-0.748533	-8.979490E+9	-4.827278E-12	NaN
218	1.000000	0.274540	7.36718e+06	-49539.1	955.819	-29759.1	0.000000	0.000000	6.274820	-0.037312	NaN	0.000000	0.001682	0.001826	28.0786	0.049274	0.001963	25.1011	122.816	-162.868	0.066978	0.273271	-0.739785	-0.741054	-0.037312	25.1011	-0.738670	-6.590858E+9	5.661165E-12	NaN
218	1.000000	0.282555	7.36718e+06	-49539.1	955.819	-29759.1	0.000000	0.000000	6.282835	-0.025277	NaN	0.000000	0.001703	0.001806	28.0783	0.039265	0.002138	18.3675	27.7371	-161.869	-0.096168	0.281258	-0.731770	-0.733067	-0.025277	18.3675	-0.730738	-5.138868E+9	4.918861E-12	NaN
218	1.000000	0.290599	7.36718e+06	-49539.1	955.818	-29759.1	0.000000	0.000000	6.290881	0.034824	NaN	0.000000	0.001665	0.001773	28.0783	0.105856	0.002047	51.7247	-66.7062	-165.324	0.083790	0.289209	-0.723726	-0.725116	0.034824	51.7247	-0.724231	-4.189554E+9	-8.312039E-12	NaN
218	1.000000	0.298605	7.36718e+06	-49539.1	955.819	-29759.1	0.000000	0.000000	6.298884	-0.055100	NaN	0.000000	0.001662	0.001763	28.0781	0.049824	0.001892	26.3388	128	-166.994	-0.060418	0.297292	-0.715720	-0.717033	-0.055100	26.3388	-0.714151	-3.052743E+9	1.804944E-11	NaN
218	1.000000	0.306608	7.36718e+06	-49539.1	955.819	-29759.1	0.000000	0.000000	6.306890	-0.001149	NaN	0.000000	0.001668	0.001707	28.0784	0.081593	0.002113	38.6105	86.2696	-163.671	-0.032605	0.305276	-0.707716	-0.709049	-0.001149	38.6105	-0.707694	-2.492168E+9	4.610738E-13	NaN
218	1.000000	0.314564	7.36718e+06	-49539.1	955.818	-29759.1	0.000000	0.000000	6.314846	0.020029	NaN	0.000000	0.001690	0.001729	28.0797	0.042070	0.001975	21.2965	2.731314	-165.929	0.037561	0.313286	-0.699761	-0.701039	0.020029	21.2965	-0.700466	-1.985620E+9	-1.008701E-11	NaN
218	1.000000	0.322619	7.36718e+06	-49539.1	955.818	-29759.1	0.000000	0.000000	6.322901	0.028369	NaN	0.000000	0.001691	0.001716	28.0794	0.119748	0.002021	59.2442	-111.663	-164.994	0.010066	0.321220	-0.691706	-0.693105	0.028369	59.2442	-0.692065	-1.524552E+9	-1.860817E-11	NaN
218	1.000000	0.330564	7.36718e+06	-49539.1	955.819	-29759.1	0.000000	0.000000	6.330845	-0.017561	NaN	0.000000	0.001664	0.001722	28.0796	0.030283	0.001955	15.4907	-28.4231	-165.189	-0.014574	0.329310	-0.683761	-0.685015	-0.017561	15.4907	-0.682911	-1.142900E+9	1.536507E-11	NaN
218	1.000000	0.338629	7.36718e+06	-49539.1	955.818	-29759.1	0.000000	0.000000	6.338908	-0.052201	NaN	0.000000	0.001698	0.001725	28.0795	0.112880	0.002197	51.3855	157.711	-164.694	-0.026846	0.337250	-0.675696	-0.677075	-0.052201	51.3855	-0.674934	-8.890128E+8	5.871809E-11	NaN
218	1.000000	0.346575	7.36718e+06	-49539.1	955.817	-29759.1	0.000000	0.000000	6.346853	-0.061100	NaN	0.000000	0.001697	0.001739	28.0794	0.089186	0.002042	43.6781	-175.611	-163.845	0.076617	0.345262	-0.667750	-0.669063	-0.061100	43.6781	-0.666701	-6.858587E+8	8.908503E-11	NaN
218	1.000000	0.354619	7.36718e+06	-49539.1	955.817	-29759.1	0.000000	0.000000	6.354897	-0.094289	NaN	0.000000	0.001677	0.001736	28.0795	0.163606	0.001980	82.6088	136.408	-163.164	-0.050220	0.353300	-0.659705	-0.661025	-0.094289	82.6088	-0.658849	-5.354354E+8	1.760979E-10	NaN
218	1.000000	0.362626	7.36718e+06	-49539.1	955.819	-29759.1	0.000000	0.000000	6.362909	0.028248	NaN	0.000000	0.001695	0.001742	28.0794	0.119057	0.001919	62.0542	76.0233	-166.288	0.019414	0.361243	-0.651699	-0.653082	0.028248	62.0542	-0.652040	-4.319165E+8	-6.540042E-11	NaN
218	1.000000	0.370613	7.36718e+06	-49539.1	955.818	-29759.1	0.000000	0.000000	6.370891	-0.067025	NaN	0.000000	0.001687	0.001730	28.0796	0.067510	0.001997	33.8064	163.486	-163.16	-0.041772	0.369286	-0.643712	-0.645039	-0.067025	33.8064	-0.642225	-3.168239E+8	2.115517E-10	NaN
218	1.000000	0.378603	7.36718e+06	-49539.1	955.819	-29759.1	0.000000	0.000000	6.378882	-0.057824	NaN	0.000000	0.001677	0.001762	28.0796	0.074333	0.001944	38.2419	-9.822521	-164.597	-0.097102	0.377360	-0.635721	-0.636965	-0.057824	38.2419	-0.634587	-2.488902E+8	2.323276E-10	NaN
218	1.000000	0.386611	7.36718e+06	-49539.1	955.819	-29759.1	0.000000	0.000000	6.386892	0.007453	NaN	0.000000	0.001701	0.001754	28.0796	0.100053	0.001990	50.2825	88.7097	-164.934	0.018452	0.385288	-0.627714	-0.629037	0.007453	50.2825	-0.627825	-2.009803E+8	-3.708433E-11	NaN
218	1.000000	0.394629	7.36718e+06	-49539.1	955.819	-29759.1	0.000000	0.000000	6.394910	-0.002503	NaN	0.000000	0.001697	0.001722	28.0796	0.049732	0.001918	25.9327	70.7848	-164.714	0.090142	0.393302	-0.619696	-0.621023	-0.002503	25.9327	-0.619624	-1.550467E+8	1.614195E-11	NaN
218	1.000000	0.402636	7.36718e+06	-49539.1	955.819	-29759.1	0.000000	0.000000	6.402916	-0.019906	NaN	0.000000	0.001693	0.001738	28.0796	0.071962	0.001958	36.7561	-1.968980	-163.891	-0.025077	0.401319	-0.611689	-0.613006	-0.019906	36.7561	-0.611283	-1.190587E+8	1.671942E-10	NaN
218	1.000000	0.410621	7.36718e+06	-49539.1	955.818	-29759.1	0.000000	0.000000	6.410899	-0.097595	NaN	0.000000	0.001671	0.001726	28.0797	0.082193	0.001951	42.1239	-102.845	-164.917	-0.134026	0.409369	-0.603704	-0.604956	-0.097595	42.1239	-0.601966	-8.862015E+7	1.101272E-9	NaN
218	1.000000	0.418614	7.36718e+06	-49539.1	955.818	-29759.1	0.000000	0.000000	6.418893	-0.063063	NaN	0.000000	0.001678	0.001753	28.0796	0.029991	0.002052	14.6162	124.853	-162.439	-0.045949	0.417302	-0.595711	-0.597023	-0.063063	14.6162	-0.592475	-6.558173E+7	9.615909E-10	NaN
218	1.000000	0.426621	7.36718e+06	-49539.1	955.819	-29759.1	0.000000	0.000000	6.426903	0.020626	NaN	0.000000	0.001648	0.001776	28.0797	0.047694	0.001941	24.5683	-131.389	-165.934	0.013942	0.425323	-0.587704	-0.589001	0.020626	24.5683	-0.588334	-5.750307E+7	-3.586884E-10	NaN
218	1.000000	0.434638	7.36718e+06	-49539.1	955.818	-29759.1	0.000000	0.000000	6.434916	-0.080781	NaN	0.000000	0.001691	0.001756	28.0796	0.123753	0.002126	58.2002	163.388	-163.549	-0.135059	0.433336	-0.579687	-0.580989	-0.080781	58.2002	-0.578646	-4.227025E+7	1.911062E-9	NaN
218	1.000000	0.442623	7.36718e+06	-49539.1	955.819	-29759.1	0.000000	0.000000	6.442905	0.019211	NaN	0.000000	0.001644	0.001768	28.0795	0.125182	0.002073	60.3901	-100.449	-167.227	-0.041154	0.441312	-0.571701	-0.573013	0.019211	60.3901	-0.571940	-3.415350E+7	-5.624880E-10	NaN
218	1.000000	0.450645	7.36718e+06	-49539.1	955.818	-29759.1	0.000000	0.000000	6.450924	-0.049918	NaN	0.000000	0.001667	0.001825	28.0784	0.099498	0.001953	50.9373	89.8726	-163.59	-0.003904	0.449266	-0.563680	-0.565059	-0.049918	50.9373	-0.562945	-2.565119E+7	1.946019E-9	NaN
218	1.000000	0.458638	7.36718e+06	-49539.1	955.818	-29759.1	0.000000	0.000000	6.458919	-0.000364	NaN	0.000000	0.001685	0.001770	28.0782	0.071836	0.002019	35.575	91.3499	-163.306	-0.049564	0.457371	-0.555687	-0.556954	-0.000364	35.575	-0.555679	-2.035102E+7	1.788065E-11	NaN
218	1.000000	0.466650	7.36718e+06	-49539.1	955.819	-29759.1	0.000000	0.000000	6.466929	-0.066436	NaN	0.000000	0.001683	0.001796	28.0789	0.082764	0.001919	43.1255	23.7497	-163.014	-0.033630	0.465339	-0.547675	-0.548986	-0.066436	43.1255	-0.546519	-1.519616E+7	4.371891E-9	NaN
218	1.000000	0.474643	7.36718e+06	-49539.1	955.819	-29759.1	0.000000	0.000000	6.474923	-0.015204	NaN	0.000000	0.001674	0.001735	28.0784	0.049887	0.002086	23.9187	-60.016	-167.932	0.048296	0.473325	-0.539682	-0.541000	-0.015204	23.9187	-0.539205	-1.203192E+7	1.263667E-9	NaN
218	1.000000	0.482663	7.36718e+06	-49539.1	955.818	-29759.1	0.000000	0.000000	6.482943	-0.021265	NaN	0.000000	0.001700	0.001757	28.0785	0.079422	0.001944	40.8478	136.192	-166.25	-0.152070	0.481325	-0.531662	-0.533000	-0.021265	40.8478	-0.531272	-9.33757e+06	2.277384E-9	NaN
218	1.000000	0.490664	7.36718e+06	-49539.1	955.818	-29759.1	0.000000	0.000000	6.490944	-0.017337	NaN	0.000000	0.001659	0.001779	28.0785	0.023989	0.001939	12.3703	-131.994	-160.331	-0.048198	0.489334	-0.523661	-0.524991	-0.017337	12.3703	-0.522610	-7.07769e+06	2.449476E-9	NaN
218	1.000000	0.498642	7.36718e+06	-49539.1	955.819	-29759.1	0.000000	0.000000	6.498918	-0.125345	NaN	0.000000	0.001683	0.001767	28.0794	0.025823	0.002043	12.6373	-115.522	-166.529	-0.040995	0.497366	-0.515683	-0.516959	-0.125345	12.6373	-0.508244	-4.46637e+06	2.806424E-8	NaN
218	1.000000	0.506706	7.36718e+06	-49539.1	955.818	-29759.1	0.000000	0.000000	6.506987	-0.006179	NaN	0.000000	0.001662	0.001793	28.079	0.063263	0.002015	31.3925	-160.676	-166.292	-0.034679	0.505366	-0.507619	-0.508959	-0.006179	31.3925	-0.507471	-4.35701e+06	1.418101E-9	NaN
218	1.000000	0.514689	7.36718e+06	-49539.1	955.818	-29759.1	0.000000	0.000000	6.514968	-0.060170	NaN	0.000000	0.001707	0.001777	28.0785	0.085565	0.002020	42.3609	-48.4534	-163.698	0.050494	0.513342	-0.499635	-0.500983	-0.060170	42.3609	-0.498570	-3.27392e+06	1.837870E-8	NaN
218	1.000000	0.522673	7.36718e+06	-49539.1	955.818	-29759.1	0.000000	0.000000	6.522953	-0.034796	NaN	0.000000	0.001690	0.001755	28.0782	0.125265	0.002000	62.6266	166.558	-162.983	-0.031589	0.521391	-0.491652	-0.492934	-0.034796	62.6266	-0.491235	-2.58616e+06	1.345472E-8	NaN
218	1.000000	0.530670	7.36718e+06	-49539.1	955.819	-29759.1	0.000000	0.000000	6.530947	-0.095576	NaN	0.000000	0.001698	0.001753	28.0783	0.105257	0.002014	52.2632	148.261	-167.16	-0.076330	0.529367	-0.483655	-0.484957	-0.095576	52.2632	-0.482284	-1.9386e+06	4.930170E-8	NaN
218	1.000000	0.538672	7.36718e+06	-49539.1	955.818	-29759.1	0.000000	0.000000	6.538953	-0.015961	NaN	0.000000	0.001695	0.001782	28.0784	0.100457	0.002038	49.2859	80.7674	-165.001	-0.039688	0.537369	-0.475653	-0.476956	-0.015961	49.2859	-0.475410	-1.55326e+06	1.027554E-8	NaN
218	1.000000	0.546675	7.36718e+06	-49539.1	955.818	-29759.1	0.000000	0.000000	6.546955	-0.036330	NaN	0.000000	0.001686	0.001765	28.0789	0.023248	0.001937	12.0012	132.556	-166.115	-0.034398	0.545313	-0.467650	-0.469012	-0.036330	12.0012	-0.465379	-1.12349e+06	3.233717E-8	NaN
218	1.000000	0.554659	7.36718e+06	-49539.1	955.819	-29759.1	0.000000	0.000000	6.554941	0.016817	NaN	0.000000	0.001670	0.001765	28.0783	0.059139	0.001908	30.9989	-121.713	-165.248	-0.008528	0.553390	-0.459666	-0.460935	0.016817	30.9989	-0.460073	-946329	-1.777087E-8	NaN
218	1.000000	0.562668	7.36718e+06	-49539.1	955.819	-29759.1	0.000000	0.000000	6.562947	-0.062361	NaN	0.000000	0.001710	0.001772	28.0786	0.093623	0.001915	48.8912	151.363	-164.58	-0.031871	0.561385	-0.451657	-0.452940	-0.062361	48.8912	-0.450700	-698556	8.927110E-8	NaN
218	1.000000	0.570645	7.36718e+06	-49539.1	955.82	-29759.1	0.000000	0.000000	6.570924	-0.066337	NaN	0.000000	0.001713	0.001777	28.0788	0.153692	0.001954	78.6378	1.697900	-167.372	0.021831	0.569387	-0.443680	-0.444938	-0.066337	78.6378	-0.443047	-544948	1.217313E-7	NaN
218	1.000000	0.578702	7.36718e+06	-49539.1	955.819	-29759.1	0.000000	0.000000	6.578979	-0.086327	NaN	0.000000	0.001695	0.001747	28.0784	0.049071	0.002013	24.3718	-161.419	-165.485	-0.068539	0.577414	-0.435623	-0.436911	-0.086327	24.3718	-0.432967	-392661	2.198519E-7	NaN
218	1.000000	0.586678	7.36718e+06	-49539.1	955.819	-29759.1	0.000000	0.000000	6.586955	-0.098973	NaN	0.000000	0.001695	0.001788	28.08	0.068393	0.002124	32.1961	-138.068	-160.717	-0.069496	0.585398	-0.427647	-0.428927	-0.098973	32.1961	-0.425342	-306282	3.231428E-7	NaN
218	1.000000	0.594677	7.36718e+06	-49539.1	955.82	-29759.1	0.000000	0.000000	6.594958	-0.004430	NaN	0.000000	0.001701	0.001748	28.0799	0.104005	0.002088	49.7996	153.877	-166.489	-0.075569	0.593325	-0.419647	-0.420999	-0.004430	49.7996	-0.419581	-253786	1.745719E-8	NaN
218	1.000000	0.602705	7.36718e+06	-49539.1	955.818	-29759.1	0.000000	0.000000	6.602986	0.011365	NaN	0.000000	0.001657	0.001796	28.081	0.039214	0.002024	19.3784	83.8271	-166.198	-0.003842	0.601385	-0.411620	-0.412940	0.011365	19.3784	-0.412060	-198468	-5.726480E-8	NaN
218	1.000000	0.610708	7.36718e+06	-49539.1	955.819	-29759.1	0.000000	0.000000	6.610988	-0.023302	NaN	0.000000	0.001690	0.001761	28.08	0.113936	0.001932	58.9593	54.5604	-161.221	0.027449	0.609374	-0.403617	-0.404951	-0.023302	58.9593	-0.403321	-149049	1.563366E-7	NaN
218	1.000000	0.618708	7.36718e+06	-49539.1	955.818	-29759.1	0.000000	0.000000	6.618986	-0.078598	NaN	0.000000	0.001634	0.001795	28.08	0.117987	0.002057	57.3691	-158.465	-165.408	-0.061753	0.617339	-0.395616	-0.396986	-0.078598	57.3691	-0.394589	-111883	7.025034E-7	NaN
218	1.000000	0.626710	7.36718e+06	-49539.1	955.819	-29759.1	0.000000	0.000000	6.626990	-0.021368	NaN	0.000000	0.001585	0.001728	28.0797	0.068071	0.002028	33.558	-113.043	-168.47	0.058053	0.625430	-0.387615	-0.388895	-0.021368	33.558	-0.387137	-87538.5	2.441009E-7	NaN
218	1.000000	0.634708	7.36718e+06	-49539.1	955.817	-29759.1	0.000000	0.000000	6.634991	0.033242	NaN	0.000000	0.001606	0.001777	28.08	0.065485	0.002049	31.9619	170.901	-162.308	0.034124	0.633408	-0.379617	-0.380917	0.033242	31.9619	-0.380397	-70078.4	-4.743550E-7	NaN
218	1.000000	0.642717	7.36718e+06	-49539.1	955.819	-29759.1	0.000000	0.000000	6.642993	-0.107842	NaN	0.000000	0.001682	0.001758	28.0801	0.051562	0.002061	25.0138	-51.1694	-166.671	-0.060802	0.641449	-0.371608	-0.372876	-0.107842	25.0138	-0.368375	-47066.8	2.291261E-6	NaN
218	1.000000	0.650736	7.36718e+06	-49539.1	955.818	-29759.1	0.000000	0.000000	6.651016	-0.020448	NaN	0.000000	0.001675	0.001737	28.0801	0.023235	0.001863	12.475	81.4018	-167.193	-0.078887	0.649346	-0.363589	-0.364979	-0.020448	12.475	-0.362360	-38542.5	5.305349E-7	NaN
218	1.000000	0.658732	7.36718e+06	-49539.1	955.818	-29759.1	0.000000	0.000000	6.659013	-0.018369	NaN	0.000000	0.001685	0.001739	28.0802	0.095811	0.002069	46.3126	155.703	-166.967	-0.018777	0.657412	-0.355593	-0.356913	-0.018369	46.3126	-0.355295	-30463.1	6.029823E-7	NaN
218	1.000000	0.666721	7.36718e+06	-49539.1	955.819	-29759.1	0.000000	0.000000	6.667002	-0.003245	NaN	0.000000	0.001655	0.001747	28.0802	0.054851	0.001898	28.8949	175.913	-165.645	-0.066488	0.665414	-0.347604	-0.348910	-0.003245	28.8949	-0.347520	-23495.7	1.381230E-7	NaN
218	1.000000	0.674740	7.36718e+06	-49539.1	955.818	-29759.1	0.000000	0.000000	6.675018	-0.074440	NaN	0.000000	0.001679	0.001785	28.0799	0.044576	0.001955	22.8039	136.744	-162.862	-0.083131	0.673465	-0.339585	-0.340859	-0.074440	22.8039	-0.337136	-16587.7	4.487663E-6	NaN
218	1.000000	0.682734	7.36718e+06	-49539.1	955.817	-29759.1	0.000000	0.000000	6.683015	-0.001996	NaN	0.000000	0.001720	0.001767	28.0803	0.048598	0.001884	25.7972	67.9504	-163.56	0.061186	0.681409	-0.331591	-0.332916	-0.001996	25.7972	-0.331533	-13737.1	1.452705E-7	NaN
218	1.000000	0.690754	7.36718e+06	-49539.1	955.818	-29759.1	0.000000	0.000000	6.691033	-0.055025	NaN	0.000000	0.001686	0.001758	28.0797	0.092815	0.001997	46.4778	151.369	-163.79	0.027994	0.689421	-0.323571	-0.324904	-0.055025	46.4778	-0.322683	-10188.4	5.400768E-6	NaN
218	1.000000	0.698728	7.36718e+06	-49539.1	955.818	-29759.1	0.000000	0.000000	6.699009	0.007222	NaN	0.000000	0.001708	0.001780	28.0801	0.073621	0.001920	38.3402	-147.348	-162.615	0.054012	0.697434	-0.315597	-0.316891	0.007222	38.3402	-0.315738	-8050.88	-8.970148E-7	NaN
218	1.000000	0.706758	7.36718e+06	-49539.1	955.818	-29759.1	0.000000	0.000000	6.707039	0.003529	NaN	0.000000	0.001718	0.001763	28.08	0.064080	0.001964	32.6283	59.2787	-164.919	-0.038198	0.705414	-0.307567	-0.308911	0.003529	32.6283	-0.307648	-6112.66	-5.773296E-7	NaN
218	1.000000	0.714738	7.36718e+06	-49539.1	955.819	-29759.1	0.000000	0.000000	6.715017	-0.068383	NaN	0.000000	0.001690	0.001760	28.08	0.109482	0.001980	55.2841	52.853	-165.99	-0.138854	0.713394	-0.299587	-0.300931	-0.068383	55.2841	-0.298659	-4494.32	1.521534E-5	NaN
218	1.000000	0.722758	7.36718e+06	-49539.1	955.817	-29759.1	0.000000	0.000000	6.723039	-0.021964	NaN	0.000000	0.001745	0.001743	28.0789	0.086134	0.002051	41.9959	-43.3915	-167.759	-0.061275	0.721426	-0.291567	-0.292899	-0.021964	41.9959	-0.291174	-3474.48	6.321473E-6	NaN
218	1.000000	0.730763	7.36718e+06	-49539.1	955.818	-29759.1	0.000000	0.000000	6.731044	0.001561	NaN	0.000000	0.001731	0.001755	28.0787	0.063665	0.001975	32.2353	77.5706	-163.552	0.008576	0.729439	-0.283562	-0.284886	0.001561	32.2353	-0.283599	-2674.17	-5.837756E-7	NaN
218	1.000000	0.738749	7.36718e+06	-49539.1	955.819	-29759.1	0.000000	0.000000	6.739031	0.029506	NaN	0.000000	0.001750	0.001754	28.0789	0.048758	0.002041	23.8867	-46.3797	-162.2	-0.042096	0.737467	-0.275576	-0.276857	0.029506	23.8867	-0.276503	-2089.98	-1.411767E-5	NaN
218	1.000000	0.746759	7.36718e+06	-49539.1	955.819	-29759.1	0.000000	0.000000	6.747039	-0.043208	NaN	0.000000	0.001765	0.001733	28.0787	0.045597	0.002007	22.7161	112.313	-168.332	-0.040055	0.745465	-0.267566	-0.268859	-0.043208	22.7161	-0.266139	-1454.68	2.970272E-5	NaN
218	1.000000	0.754782	7.36718e+06	-49539.1	955.819	-29759.1	0.000000	0.000000	6.755064	0.015585	NaN	0.000000	0.001750	0.001787	28.0791	0.014120	0.001828	7.722659	157.709	-167.458	0.000108	0.753439	-0.259543	-0.260886	0.015585	7.722659	-0.261056	-1216.46	-1.281197E-5	NaN
218	1.000000	0.762789	7.36718e+06	-49539.1	955.818	-29759.1	0.000000	0.000000	6.763070	-0.015206	NaN	0.000000	0.001727	0.001768	28.0788	0.091895	0.002094	43.8766	120.391	-165.657	-0.035185	0.761481	-0.251536	-0.252844	-0.015206	43.8766	-0.251276	-860.38	1.767338E-5	NaN
218	1.000000	0.770793	7.36718e+06	-49539.1	955.817	-29759.1	0.000000	0.000000	6.771072	-0.056740	NaN	0.000000	0.001671	0.001810	28.0793	0.090244	0.002118	42.6162	102.633	-165.349	-0.026325	0.769479	-0.243532	-0.244846	-0.056740	42.6162	-0.242534	-629.618	9.011836E-5	NaN
218	1.000000	0.778752	7.36718e+06	-49539.1	955.818	-29759.1	0.000000	0.000000	6.779033	0.008491	NaN	0.000000	0.001691	0.001764	28.0792	0.101646	0.001879	54.1055	170.727	-162.335	-0.034973	0.777449	-0.235573	-0.236876	0.008491	54.1055	-0.235691	-492.143	-1.725388E-5	NaN
218	1.000000	0.786796	7.36718e+06	-49539.1	955.818	-29759.1	0.000000	0.000000	6.787077	-0.025303	NaN	0.000000	0.001704	0.001739	28.0789	0.162523	0.001932	84.1129	-7.176108	-164.967	0.009596	0.785470	-0.227528	-0.228855	-0.025303	84.1129	-0.227303	-362.962	6.971227E-5	NaN
218	1.000000	0.794782	7.36718e+06	-49539.1	955.818	-29759.1	0.000000	0.000000	6.795060	-0.089082	NaN	0.000000	0.001710	0.001712	28.079	0.067084	0.001977	33.9384	-149.175	-165.024	-0.117267	0.793421	-0.219543	-0.220904	-0.089082	33.9384	-0.217574	-254.008	0.000351	NaN
218	1.000000	0.802787	7.36718e+06	-49539.1	955.819	-29759.1	0.000000	0.000000	6.803067	-0.024770	NaN	0.000000	0.001702	0.001721	28.0789	0.107416	0.002048	52.4498	120.557	-161.41	-0.028662	0.801501	-0.211538	-0.212823	-0.024770	52.4498	-0.211184	-200.435	0.000124	NaN
218	1.000000	0.810794	7.36718e+06	-49539.1	955.818	-29759.1	0.000000	0.000000	6.811073	-0.053869	NaN	0.000000	0.001671	0.001711	28.0792	0.061547	0.001934	31.8284	-39.0654	-165.781	-0.059504	0.809458	-0.203531	-0.204867	-0.053869	31.8284	-0.202262	-143.485	0.000375	NaN
218	1.000000	0.818782	7.36718e+06	-49539.1	955.819	-29759.1	0.000000	0.000000	6.819062	-0.036375	NaN	0.000000	0.001675	0.001710	28.079	0.039902	0.001989	20.0576	-66.7979	-165.265	-0.060345	0.817435	-0.195543	-0.196890	-0.036375	20.0576	-0.194183	-105.597	0.000344	NaN
218	1.000000	0.826792	7.36718e+06	-49539.1	955.819	-29759.1	0.000000	0.000000	6.827071	-0.047969	NaN	0.000000	0.001672	0.001707	28.0788	0.109318	0.002006	54.4911	127.299	-164.128	-0.038101	0.825474	-0.187533	-0.188851	-0.047969	54.4911	-0.186873	-79.7341	0.000602	NaN
218	1.000000	0.834793	7.36718e+06	-49539.1	955.82	-29759.1	0.000000	0.000000	6.835072	-0.035004	NaN	0.000000	0.001662	0.001759	28.0785	0.029596	0.002115	13.9917	144.031	-167.503	-0.030551	0.833507	-0.179532	-0.180818	-0.035004	13.9917	-0.177656	-55.654	0.000629	NaN
218	1.000000	0.842814	7.36718e+06	-49539.1	955.819	-29759.1	0.000000	0.000000	6.843095	-0.002418	NaN	0.000000	0.001729	0.001743	28.0784	0.056820	0.001919	29.6101	142.933	-164.269	0.024358	0.841497	-0.171511	-0.172828	-0.002418	29.6101	-0.171450	-43.5268	5.555422E-5	NaN
218	1.000000	0.850775	7.36718e+06	-49539.1	955.818	-29759.1	0.000000	0.000000	6.851058	0.031210	NaN	0.000000	0.001730	0.001778	28.0784	0.081969	0.001826	44.8803	-78.0327	-167.118	0.006825	0.849503	-0.163550	-0.164822	0.031210	44.8803	-0.164071	-32.3579	-0.000965	NaN
218	1.000000	0.858794	7.36718e+06	-49539.1	955.819	-29759.1	0.000000	0.000000	6.859076	0.009999	NaN	0.000000	0.001738	0.001745	28.0799	0.049124	0.001954	25.1383	-56.7328	-162.067	0.005617	0.857496	-0.155530	-0.156829	0.009999	25.1383	-0.155829	-23.0929	-0.000433	NaN
218	1.000000	0.866795	7.36718e+06	-49539.1	955.818	-29759.1	0.000000	0.000000	6.867074	-0.052200	NaN	0.000000	0.001744	0.001729	28.0796	0.140111	0.001913	73.254	-19.8142	-164.678	-0.126184	0.865487	-0.147530	-0.148837	-0.052200	73.254	-0.146995	-15.9579	0.003271	NaN
218	1.000000	0.874792	7.36718e+06	-49539.1	955.819	-29759.1	0.000000	0.000000	6.875070	-0.092782	NaN	0.000000	0.001729	0.001788	28.0798	0.059972	0.002081	28.8243	-88.1177	-166.007	-0.095593	0.873525	-0.139532	-0.140800	-0.092782	28.8243	-0.137118	-10.4373	0.008890	NaN
218	1.000000	0.882830	7.36718e+06	-49539.1	955.819	-29759.1	0.000000	0.000000	6.883110	-0.046339	NaN	0.000000	0.001746	0.001799	28.0795	0.011873	0.001938	6.126970	124.828	-165.279	-0.025932	0.881561	-0.131495	-0.132764	-0.046339	6.126970	-0.125822	-6.313009	0.007340	NaN
218	1.000000	0.890829	7.36718e+06	-49539.1	955.819	-29759.1	0.000000	0.000000	6.891114	0.083101	NaN	0.000000	0.001742	0.001766	28.0796	0.058901	0.001872	31.4707	-89.2883	-168.744	0.052049	0.889571	-0.123496	-0.124754	0.083101	31.4707	-0.125476	-6.214500	-0.013372	NaN
218	1.000000	0.898859	7.36718e+06	-49539.1	955.819	-29759.1	0.000000	0.000000	6.899142	0.022877	NaN	0.000000	0.001720	0.001754	28.0798	0.062933	0.001979	31.8024	136.497	-165.031	-0.010991	0.897552	-0.115465	-0.116773	0.022877	31.8024	-0.116005	-4.006601	-0.005710	NaN
218	1.000000	0.906859	7.36718e+06	-49539.1	955.818	-29759.1	0.000000	0.000000	6.907136	-0.097237	NaN	0.000000	0.001775	0.001720	28.0796	0.013171	0.001871	7.040098	-49.8822	-164.05	-0.006384	0.905455	-0.107466	-0.108870	-0.097237	7.040098	-0.097107	-1.574484	0.061758	NaN
218	1.000000	0.914834	7.36718e+06	-49539.1	955.819	-29759.1	0.000000	0.000000	6.915114	-0.030334	NaN	0.000000	0.001776	0.001748	28.08	0.008944	0.001995	4.484088	65.1506	-165.817	-0.090348	0.913508	-0.099491	-0.100816	-0.030334	4.484088	-0.094417	-1.368085	0.022173	NaN
218	1.000000	0.922833	7.36718e+06	-49539.1	955.819	-29759.1	0.000000	0.000000	6.923115	0.017716	NaN	0.000000	0.001759	0.001771	28.0795	0.032692	0.002044	15.9905	24.4616	-163.325	0.037147	0.921518	-0.091492	-0.092807	0.017716	15.9905	-0.092322	-1.224429	-0.014469	NaN
218	1.000000	0.930839	7.36718e+06	-49539.1	955.819	-29759.1	0.000000	0.000000	6.931120	-0.014677	NaN	0.000000	0.001760	0.001770	28.0797	0.066917	0.001872	35.7371	130.202	-167.897	-0.019744	0.929512	-0.083485	-0.084813	-0.014677	35.7371	-0.083177	-0.741838	0.019785	NaN
218	1.000000	0.938810	7.36718e+06	-49539.1	955.819	-29759.1	0.000000	0.000000	6.939090	-0.027569	NaN	0.000000	0.001719	0.001791	28.0798	0.050876	0.001999	25.4462	-143.503	-166.687	-0.030964	0.937577	-0.075515	-0.076748	-0.027569	25.4462	-0.074702	-0.453747	0.060759	NaN
218	1.000000	0.946830	7.36718e+06	-49539.1	955.818	-29759.1	0.000000	0.000000	6.947108	-0.078267	NaN	0.000000	0.001734	0.001784	28.0795	0.044367	0.001962	22.6176	20.4898	-166.828	-0.049832	0.945529	-0.067495	-0.068796	-0.078267	22.6176	-0.064900	-0.247622	0.316075	NaN
218	1.000000	0.954843	7.36718e+06	-49539.1	955.819	-29759.1	0.000000	0.000000	6.955120	-0.099253	NaN	0.000000	0.001742	0.001735	28.0802	0.140639	0.001884	74.6657	-54.2263	-166.129	-0.163471	0.953553	-0.059482	-0.060772	-0.099253	74.6657	-0.058485	-0.162862	0.609428	NaN
218	1.000000	0.962825	7.36718e+06	-49539.1	955.818	-29759.1	0.000000	0.000000	6.963105	-0.022554	NaN	0.000000	0.001725	0.001777	28.0797	0.058944	0.001982	29.7379	-91.7272	-165.804	-0.051152	0.961542	-0.051500	-0.052783	-0.022554	29.7379	-0.050931	-0.097353	0.231670	NaN
218	1.000000	0.970832	7.36718e+06	-49539.1	955.817	-29759.1	0.000000	0.000000	6.971114	0.004583	NaN	0.000000	0.001689	0.001787	28.0802	0.088321	0.002074	42.5893	-174.777	-166.837	0.056846	0.969547	-0.043493	-0.044778	0.004583	42.5893	-0.043573	-0.058124	-0.078849	NaN
218	1.000000	0.978861	7.36718e+06	-49539.1	955.817	-29759.1	0.000000	0.000000	6.979139	-0.075801	NaN	0.000000	0.001692	0.001746	28.0797	0.043978	0.001999	21.9962	90.9674	-164.79	-0.053033	0.977560	-0.035464	-0.036764	-0.075801	21.9962	-0.032880	-0.027775	2.729084	NaN
218	1.000000	0.986864	7.36718e+06	-49539.1	955.817	-29759.1	0.000000	0.000000	6.987142	-0.058606	NaN	0.000000	0.001652	0.001787	28.0799	0.064260	0.001876	34.2509	-124.188	-163.426	-0.014023	0.985531	-0.027461	-0.028794	-0.058606	34.2509	-0.026178	-0.018118	3.234653	NaN
218	1.000000	0.994838	7.36718e+06	-49539.1	955.817	-29759.1	0.000000	0.000000	6.995120	0.012792	NaN	0.000000	0.001621	0.001778	28.0788	0.031387	0.001980	15.8532	120.155	-168.111	-0.013924	0.993576	-0.019487	-0.020748	0.012792	15.8532	-0.020092	-0.012629	-1.012892	NaN
218	1.000000	1.002864	7.36718e+06	-49539.1	955.817	-29759.1	0.000000	0.000000	7.003142	-0.076902	NaN	0.000000	0.001648	0.001771	28.0787	0.058976	0.001979	29.8049	30.7772	-167.149	-0.090874	1.001532	-0.011461	-0.012793	-0.076902	29.8049	-0.009526	-0.006116	12.5747	NaN
218	1.000000	1.010831	7.36718e+06	-49539.1	955.818	-29759.1	0.000000	0.000000	7.011113	0.023850	NaN	0.000000	0.001635	0.001755	28.0788	0.076635	0.001921	39.8913	135.38	-164.841	0.017889	1.009573	-0.003494	-0.004752	0.023850	39.8913	-0.003942	-0.002741	-8.699700	NaN
218	1.000000	1.018841	7.36718e+06	-49539.1	955.818	-29759.1	0.000000	0.000000	7.019225	2.519399	NaN	0.000000	0.001681	0.001788	28.0786	3.388835	0.001838	1844.03	5.872574	-166.57	1.080742	1.017546	0.004516	0.003221	2.519399	1844.03	0.003491	0.002797	900.639	31854.2
218	2.000000	1.025490	7.36718e+06	-49539.1	955.818	-29759.1	0.000000	0.000000	7.026149	9.174252	NaN	0.000000	0.001677	0.001781	28.0787	9.114809	0.001781	5118.23	5.027187	-166.473	9.037212	1.025051	0.011165	0.010726	9.174252	5118.23	0.009821	0.008983	1021.28	49337.9
218	2.000000	1.027418	7.36718e+06	-49539.1	955.817	-29759.1	0.000000	0.000000	7.028145	10.8359	NaN	0.000000	0.001691	0.001827	28.0786	10.798	0.001682	6418.33	7.662942	-174.207	9.856720	1.027131	0.013093	0.012806	10.8359	6418.33	0.011827	0.011283	960.349	55204.8
218	2.000000	1.029414	7.36718e+06	-49539.1	955.817	-29759.1	0.000000	0.000000	7.030328	15.4053	NaN	0.000000	0.001637	0.001790	28.0794	13.8792	0.001758	7893.73	8.335983	-177.437	15.0165	1.029149	0.015089	0.014825	15.4053	7893.73	0.013625	0.013496	1141.52	62081.3
218	2.000000	1.031409	7.36718e+06	-49539.1	955.817	-29759.1	0.000000	0.000000	7.032484	19.2962	NaN	0.000000	0.001693	0.001776	28.0788	14.9676	0.001621	9231.98	5.216280	-175.792	19.7183	1.031104	0.017084	0.016779	19.2962	9231.98	0.015516	0.015980	1207.51	66723.2
218	2.000000	1.033419	7.36718e+06	-49539.1	955.817	-29759.1	0.000000	0.000000	7.034556	20.8245	NaN	0.000000	0.001685	0.001766	28.0787	17.3473	0.001732	10014.5	6.303775	-175.683	20.2536	1.033075	0.019094	0.018750	20.8245	10014.5	0.017534	0.018815	1106.83	66704.3
218	2.000000	1.035417	7.36718e+06	-49539.1	955.818	-29759.1	0.000000	0.000000	7.036705	24.4967	NaN	0.000000	0.001689	0.001777	28.0787	20.0683	0.001938	10357.7	10.014	-178.788	23.9616	1.035081	0.021092	0.020756	24.4967	10357.7	0.019318	0.021482	1140.32	64565
218	2.000000	1.037360	7.36718e+06	-49539.1	955.818	-29759.1	0.000000	0.000000	7.038929	31.3207	NaN	0.000000	0.001660	0.001769	28.0787	22.1058	0.001908	11585.4	11.5094	178.595	29.8906	1.037025	0.023035	0.022700	31.3207	11585.4	0.021008	0.024150	1296.9	68111.6
218	2.000000	1.039355	7.36718e+06	-49539.1	955.817	-29759.1	0.000000	0.000000	7.041124	36.1959	NaN	0.000000	0.001691	0.001758	28.0794	23.9836	0.001946	12327.3	3.821452	-175.511	34.6899	1.039006	0.025030	0.024682	36.1959	12327.3	0.022828	0.027182	1331.63	68313.1
218	2.000000	1.041404	7.36718e+06	-49539.1	955.817	-29759.1	0.000000	0.000000	7.043404	41.7871	NaN	0.000000	0.001669	0.001759	28.0789	25.3482	0.001718	14755.3	4.786480	-177.891	42.2621	1.041052	0.027080	0.026727	41.7871	14755.3	0.024956	0.030935	1350.81	76647.3
218	2.000000	1.043372	7.36718e+06	-49539.1	955.818	-29759.1	0.000000	0.000000	7.045582	46.9018	NaN	0.000000	0.001646	0.001753	28.0788	27.2746	0.001811	15058.9	6.480219	-179.851	46.2945	1.042999	0.029047	0.028675	46.9018	15058.9	0.026711	0.034202	1371.31	74394.2
218	2.000000	1.045370	7.36718e+06	-49539.1	955.818	-29759.1	0.000000	0.000000	7.047812	52.5421	NaN	0.000000	0.001677	0.001721	28.0787	29.7907	0.001811	16448.4	6.932184	179.135	52.8955	1.045059	0.031046	0.030734	52.5421	16448.4	0.028650	0.037992	1382.99	77099.6
218	2.000000	1.047337	7.36718e+06	-49539.1	955.817	-29759.1	0.000000	0.000000	7.050044	59.007	NaN	0.000000	0.001672	0.001752	28.0787	31.2858	0.001631	19186.1	3.707798	179.734	57.7051	1.046989	0.033012	0.032664	59.007	19186.1	0.030705	0.042218	1397.66	85311.9
218	2.000000	1.049392	7.36718e+06	-49539.1	955.818	-29759.1	0.000000	0.000000	7.052501	68.7737	NaN	0.000000	0.001669	0.001726	28.0797	34.3518	0.001808	18997.7	8.277812	177.29	69.9815	1.049028	0.035067	0.034703	68.7737	18997.7	0.032352	0.045759	1502.94	81139.8
218	2.000000	1.051358	7.36718e+06	-49539.1	955.818	-29759.1	0.000000	0.000000	7.054945	80.4069	NaN	0.000000	0.001680	0.001765	28.08	35.2779	0.001788	19735.7	6.624285	179.188	80.7294	1.050967	0.037033	0.036642	80.4069	19735.7	0.033977	0.049392	1627.95	81133.5
218	2.000000	1.053264	7.36718e+06	-49539.1	955.818	-29759.1	0.000000	0.000000	7.056994	83.8642	NaN	0.000000	0.001679	0.001762	28.0798	37.9296	0.001757	21588	2.572146	-179.3	79.3205	1.052980	0.038939	0.038655	83.8642	21588	0.036026	0.054161	1548.43	84750.6
218	2.000000	1.055363	7.36718e+06	-49539.1	955.818	-29759.1	0.000000	0.000000	7.059465	92.9111	NaN	0.000000	0.001700	0.001766	28.0802	40.3314	0.001713	23547.5	2.511774	-179.61	90.7316	1.055020	0.041038	0.040695	92.9111	23547.5	0.038079	0.059158	1570.57	88453
218	2.000000	1.057296	7.36718e+06	-49539.1	955.818	-29759.1	0.000000	0.000000	7.061890	104.887	NaN	0.000000	0.001706	0.001781	28.0799	42.7645	0.001729	24731.9	5.485868	175.942	100.331	1.056956	0.042971	0.042631	104.887	24731.9	0.039790	0.063488	1652.09	89677.8
218	2.000000	1.059305	7.36718e+06	-49539.1	955.818	-29759.1	0.000000	0.000000	7.064044	108.404	NaN	0.000000	0.001692	0.001764	28.0812	45.4115	0.001777	25549.2	3.054707	178.385	108.323	1.059103	0.044980	0.044779	108.404	25549.2	0.041798	0.068758	1576.6	89020.1
218	2.000000	1.061300	7.36718e+06	-49539.1	955.818	-29759.1	0.000000	0.000000	7.066615	122.42	NaN	0.000000	0.001717	0.001758	28.0803	46.5845	0.001771	26297.8	4.341581	177.284	119.652	1.061094	0.046975	0.046769	122.42	26297.8	0.043484	0.073341	1669.18	88719.2
218	2.000000	1.063348	7.36718e+06	-49539.1	955.818	-29759.1	0.000000	0.000000	7.069114	133.399	NaN	0.000000	0.001729	0.001781	28.0799	49.7434	0.001708	29118.1	6.644876	174.152	132.866	1.062958	0.049023	0.048633	133.399	29118.1	0.045587	0.079263	1682.99	94493.4
218	2.000000	1.065305	7.36718e+06	-49539.1	955.819	-29759.1	0.000000	0.000000	7.071627	146.915	NaN	0.000000	0.001729	0.001769	28.0802	52.453	0.001677	31278.2	7.956145	172.629	144.356	1.064987	0.050980	0.050662	146.915	31278.2	0.047458	0.084717	1734.18	98181.4
218	2.000000	1.067286	7.36718e+06	-49539.1	955.818	-29759.1	0.000000	0.000000	7.074137	159.793	NaN	0.000000	0.001693	0.001796	28.0799	53.9601	0.001785	30222.3	6.621901	174.809	157.114	1.066899	0.052961	0.052574	159.793	30222.3	0.048995	0.089333	1788.74	92383.6
218	2.000000	1.069271	7.36718e+06	-49539.1	955.818	-29759.1	0.000000	0.000000	7.076488	168.698	NaN	0.000000	0.001713	0.001781	28.0806	56.4218	0.001775	31780	3.719032	176.196	165.166	1.068999	0.054946	0.054674	168.698	31780	0.050965	0.095418	1767.99	93996.8
218	2.000000	1.071323	7.36718e+06	-49539.1	955.818	-29759.1	0.000000	0.000000	7.079009	180.082	NaN	0.000000	0.001689	0.001779	28.08	57.7586	0.001683	34321.5	7.375316	172.086	179.842	1.070965	0.056999	0.056640	180.082	34321.5	0.053063	0.102117	1763.5	98127.6
218	2.000000	1.073344	7.36718e+06	-49539.1	955.818	-29759.1	0.000000	0.000000	7.081405	189.195	NaN	0.000000	0.001691	0.001797	28.08	60.2639	0.001851	32556	4.414462	175.676	189.161	1.073010	0.059019	0.058685	189.195	32556	0.054661	0.107361	1762.22	90777.9
218	2.000000	1.075303	7.36718e+06	-49539.1	955.817	-29759.1	0.000000	0.000000	7.084074	206.475	NaN	0.000000	0.001718	0.001791	28.08	61.8861	0.001803	34321.9	6.016634	174.626	204.677	1.074896	0.060978	0.060571	206.475	34321.9	0.056466	0.113442	1820.09	93101.6
218	2.000000	1.077251	7.36718e+06	-49539.1	955.818	-29759.1	0.000000	0.000000	7.086517	218.49	NaN	0.000000	0.001699	0.001741	28.08	63.5442	0.001714	37076.3	5.387929	172.885	215.762	1.076970	0.062926	0.062646	218.49	37076.3	0.058507	0.120508	1813.07	97580.3
218	2.000000	1.079321	7.36718e+06	-49539.1	955.818	-29759.1	0.000000	0.000000	7.089081	230.513	NaN	0.000000	0.001741	0.001690	28.0801	67.4152	0.001906	35374.6	9.001496	170.079	228.958	1.078954	0.064996	0.064630	230.513	35374.6	0.060109	0.126200	1826.57	90977.8
218	2.000000	1.081299	7.36718e+06	-49539.1	955.818	-29759.1	0.000000	0.000000	7.091638	244.587	NaN	0.000000	0.001732	0.001759	28.0802	67.2531	0.001829	36771.8	5.602871	173.489	244.581	1.080918	0.066974	0.066593	244.587	36771.8	0.061986	0.133025	1838.65	92113.1
218	2.000000	1.083287	7.36718e+06	-49539.1	955.818	-29759.1	0.000000	0.000000	7.094258	259.989	NaN	0.000000	0.001780	0.001764	28.0803	68.7089	0.001784	38510.1	3.666999	174.721	257.398	1.083092	0.068962	0.068767	259.989	38510.1	0.063898	0.140158	1854.98	93980.8
218	2.000000	1.085346	7.36718e+06	-49539.1	955.818	-29759.1	0.000000	0.000000	7.096842	272.727	NaN	0.000000	0.001699	0.001763	28.0789	70.4616	0.001743	40436.5	4.141580	174.544	271.239	1.084869	0.071022	0.070544	272.727	40436.5	0.065963	0.148055	1842.06	96014
218	2.000000	1.087320	7.36718e+06	-49539.1	955.819	-29759.1	0.000000	0.000000	7.099366	286.136	NaN	0.000000	0.001670	0.001779	28.0787	72.6346	0.001812	40086.6	7.967786	170.383	285.922	1.086886	0.072995	0.072562	286.136	40086.6	0.067641	0.154625	1850.51	93139
218	2.000000	1.089278	7.36718e+06	-49539.1	955.819	-29759.1	0.000000	0.000000	7.101875	299.522	NaN	0.000000	0.001713	0.001791	28.0788	74.9857	0.001730	43339.3	3.903089	174.033	297.271	1.088941	0.074953	0.074616	299.522	43339.3	0.069770	0.163152	1835.84	98030
218	2.000000	1.091311	7.36718e+06	-49539.1	955.819	-29759.1	0.000000	0.000000	7.104481	313.45	NaN	0.000000	0.001719	0.001742	28.0788	76.7815	0.001741	44112.8	6.601718	170.893	313.814	1.090971	0.076986	0.076646	313.45	44112.8	0.071657	0.170894	1834.17	97493.2
218	2.000000	1.093290	7.36718e+06	-49539.1	955.818	-29759.1	0.000000	0.000000	7.107011	326.843	NaN	0.000000	0.001697	0.001759	28.0789	80.1128	0.001881	42597.5	4.556327	173.991	325.265	1.092901	0.078965	0.078577	326.843	42597.5	0.073211	0.177393	1842.48	92403.7
218	2.000000	1.095268	7.36718e+06	-49539.1	955.818	-29759.1	0.000000	0.000000	7.109614	342.059	NaN	0.000000	0.001679	0.001791	28.0791	80.7623	0.001775	45508.5	4.230927	173.183	339.505	1.095015	0.080943	0.080690	342.059	45508.5	0.075305	0.186337	1835.7	96319.8
218	2.000000	1.097242	7.36718e+06	-49539.1	955.819	-29759.1	0.000000	0.000000	7.112329	360.072	NaN	0.000000	0.001701	0.001769	28.0787	82.5602	0.001743	47378.2	4.658438	172.341	357.724	1.096937	0.082917	0.082612	360.072	47378.2	0.077217	0.194678	1849.57	98105.4
218	2.000000	1.099333	7.36718e+06	-49539.1	955.819	-29759.1	0.000000	0.000000	7.114945	372.841	NaN	0.000000	0.001723	0.001814	28.0788	84.9087	0.001796	47279.6	4.247681	173.206	373.984	1.098885	0.085008	0.084560	372.841	47279.6	0.079094	0.203034	1836.35	95865.4
218	2.000000	1.101284	7.36718e+06	-49539.1	955.819	-29759.1	0.000000	0.000000	7.117557	388.919	NaN	0.000000	0.001673	0.001774	28.0788	86.2741	0.001755	49158.6	7.183832	169.492	389.396	1.100939	0.086959	0.086614	388.919	49158.6	0.081026	0.211809	1836.18	97589.1
218	2.000000	1.103315	7.36718e+06	-49539.1	955.818	-29759.1	0.000000	0.000000	7.120402	408.735	NaN	0.000000	0.001680	0.001745	28.0788	88.7351	0.001922	46166.3	8.578266	169.278	409.192	1.102909	0.088990	0.088584	408.735	46166.3	0.082350	0.217920	1875.61	90354.5
218	2.000000	1.105314	7.36718e+06	-49539.1	955.819	-29759.1	0.000000	0.000000	7.123228	428.823	NaN	0.000000	0.001641	0.001742	28.0791	90.0663	0.001759	51210	6.778265	170.022	428.502	1.104861	0.090989	0.090536	428.823	51210	0.084709	0.229013	1872.48	97768.3
218	2.000000	1.107331	7.36718e+06	-49539.1	955.818	-29759.1	0.000000	0.000000	7.125699	439.868	NaN	0.000000	0.001685	0.001714	28.0786	91.8498	0.001780	51604.9	10.1214	166.801	442.05	1.106900	0.093006	0.092576	439.868	51604.9	0.086613	0.238158	1846.96	96612.1
218	2.000000	1.109185	7.36718e+06	-49539.1	955.819	-29759.1	0.000000	0.000000	7.128421	460.975	NaN	0.000000	0.001677	0.001783	28.0787	93.2321	0.001733	53805.4	5.852958	170.601	455.409	1.108934	0.094860	0.094609	460.975	53805.4	0.088434	0.247056	1865.88	98901.3
218	2.000000	1.111227	7.36718e+06	-49539.1	955.818	-29759.1	0.000000	0.000000	7.131198	478.849	NaN	0.000000	0.001675	0.001782	28.079	93.6135	0.001784	52466.4	6.198654	171.071	476.22	1.110751	0.096902	0.096426	478.849	52466.4	0.090057	0.255114	1877	94904.6
218	2.000000	1.113228	7.36718e+06	-49539.1	955.82	-29759.1	0.000000	0.000000	7.133936	496.78	NaN	0.000000	0.001688	0.001720	28.0794	96.8296	0.001811	53465.2	6.187737	170.899	495.359	1.112849	0.098903	0.098524	496.78	53465.2	0.091934	0.264588	1877.56	94964.1
218	2.000000	1.115317	7.36718e+06	-49539.1	955.819	-29759.1	0.000000	0.000000	7.136869	517.292	NaN	0.000000	0.001676	0.001748	28.0791	99.6829	0.001865	53448.6	9.152885	167.844	516.481	1.114928	0.100992	0.100603	517.292	53448.6	0.093734	0.273819	1889.18	93320.6
218	2.000000	1.117155	7.36718e+06	-49539.1	955.818	-29759.1	0.000000	0.000000	7.139597	538.94	NaN	0.000000	0.001662	0.001768	28.0789	99.4755	0.001763	56408.2	-0.039120	176.188	533.051	1.116795	0.102830	0.102470	538.94	56408.2	0.095664	0.283888	1898.43	96725.7
218	2.000000	1.119291	7.36718e+06	-49539.1	955.818	-29759.1	0.000000	0.000000	7.142107	548.036	NaN	0.000000	0.001742	0.001773	28.0808	102.803	0.001810	56782.9	2.760917	172.981	548.559	1.118996	0.104966	0.104671	548.036	56782.9	0.097728	0.294837	1858.77	95543.2
218	2.000000	1.121243	7.36718e+06	-49539.1	955.819	-29759.1	0.000000	0.000000	7.145064	572.486	NaN	0.000000	0.001603	0.001762	28.08	104.844	0.001787	58658.3	8.315066	167.964	571.511	1.120819	0.106918	0.106494	572.486	58658.3	0.099598	0.304930	1877.43	97051.5
218	2.000000	1.123189	7.36718e+06	-49539.1	955.819	-29759.1	0.000000	0.000000	7.147821	592.215	NaN	0.000000	0.001635	0.001746	28.08	107.011	0.001858	57593.6	4.509514	171.734	588.617	1.122919	0.108864	0.108594	592.215	57593.6	0.101152	0.313434	1889.44	93988.5