File: remote_trans/data/nanoindenter/0828-1/data/Data_2025-08-06,11h17m57s/2025-07-22_16-23-58_1_202.txt
2025-07-22, 16:23:58, 1
Index	Phase	Displacement	Time	Pos X	Pos Y	Pos Z	Rot A	Rot B	Piezo Z	Force A	Force B	Gripper	Voltage A	Voltage B	Temperature	Amplitude force	Amplitude pos	Stiffness	Phase shift	Phase excitation	Force A raw	Displacement raw	HMax	HMax raw	Real Force	Real Stiffness	Contact Depth	Area	Hardness	Reduced Mod.
[#]	[#]	[um]	[s]	[um]	[um]	[um]	[m°]	[m°]	[um]	[uN]	[uN]	[V]	[V]	[V]	[°C]	[uN]	[um]	[N/m]	[°]	[°]	[uN]	[um]	[um]	[um]	[uN]	[N/m]	[um]	[um^2]	[MPa]	[MPa]
202	1.000000	0.003083	7.36702e+06	-48739.1	955.819	-29761.7	0.000000	0.000000	6.002798	0.050755	NaN	0.000000	0.001625	0.001677	28.0781	0.037640	0.001005	37.4458	-30.8607	-166.522	-0.024759	0.001825	-1.068552	-1.069810	0.050755	37.4458	-1.069569	-1.956114E+14	-2.594679E-16	NaN
202	1.000000	0.011084	7.36702e+06	-48739.1	955.818	-29761.7	0.000000	0.000000	6.010796	-0.009646	NaN	0.000000	0.001594	0.001687	28.0779	0.055806	0.000867	64.3885	20.6292	-165.845	-0.083000	0.009759	-1.060552	-1.061876	-0.009646	64.3885	-1.060439	-1.474772E+14	6.540417E-17	NaN
202	1.000000	0.019046	7.36702e+06	-48739.1	955.818	-29761.7	0.000000	0.000000	6.018758	-0.011704	NaN	0.000000	0.001632	0.001676	28.0779	0.058114	0.001816	32.0082	42.9925	-169.473	-0.001034	0.017728	-1.052589	-1.053908	-0.011704	32.0082	-1.052315	-1.146926E+14	1.020487E-16	NaN
202	1.000000	0.027036	7.36702e+06	-48739.1	955.819	-29761.7	0.000000	0.000000	6.026749	0.022271	NaN	0.000000	0.001610	0.001693	28.078	0.131786	0.001754	75.1166	97.0027	-164.299	0.049789	0.025722	-1.044599	-1.045914	0.022271	75.1166	-1.044822	-9.094884E+13	-2.448769E-16	NaN
202	1.000000	0.035037	7.36702e+06	-48739.1	955.818	-29761.7	0.000000	0.000000	6.034747	-0.045345	NaN	0.000000	0.001584	0.001656	28.0782	0.063628	0.001933	32.917	145.155	-166.311	-0.057808	0.033726	-1.036598	-1.037909	-0.045345	32.917	-1.035565	-6.828607E+13	6.640413E-16	NaN
202	1.000000	0.043035	7.36702e+06	-48739.1	955.819	-29761.7	0.000000	0.000000	6.042743	-0.098656	NaN	0.000000	0.001638	0.001691	28.0783	0.080300	0.001959	40.9934	62.4506	-166.332	-0.056063	0.041692	-1.028601	-1.029943	-0.098656	40.9934	-1.026796	-5.204491E+13	1.895592E-15	NaN
202	1.000000	0.051061	7.36702e+06	-48739.1	955.819	-29761.7	0.000000	0.000000	6.050775	0.023565	NaN	0.000000	0.001595	0.001703	28.078	0.059389	0.001919	30.953	-94.1918	-166.113	-0.030472	0.049680	-1.020574	-1.021956	0.023565	30.953	-1.021145	-4.368767E+13	-5.393950E-16	NaN
202	1.000000	0.059021	7.36702e+06	-48739.1	955.818	-29761.7	0.000000	0.000000	6.058733	-0.021635	NaN	0.000000	0.001593	0.001681	28.0782	0.060612	0.002069	29.3009	52.4315	-167.147	-0.008509	0.057685	-1.012614	-1.013950	-0.021635	29.3009	-1.012060	-3.296931E+13	6.562132E-16	NaN
202	1.000000	0.067031	7.36702e+06	-48739.1	955.818	-29761.7	0.000000	0.000000	6.066742	-0.038190	NaN	0.000000	0.001580	0.001729	28.0781	0.067650	0.001970	34.332	44.0996	-166.377	-0.027297	0.065799	-1.004604	-1.005836	-0.038190	34.332	-1.003770	-2.549870E+13	1.497716E-15	NaN
202	1.000000	0.075013	7.36702e+06	-48739.1	955.819	-29761.7	0.000000	0.000000	6.074725	-0.002066	NaN	0.000000	0.001579	0.001667	28.0781	0.074258	0.001860	39.9152	-34.0327	-166.639	-0.013652	0.073742	-0.996623	-0.997894	-0.002066	39.9152	-0.996584	-2.040671E+13	1.012213E-16	NaN
202	1.000000	0.083054	7.36702e+06	-48739.1	955.819	-29761.7	0.000000	0.000000	6.082765	-0.035408	NaN	0.000000	0.001573	0.001715	28.0798	0.088002	0.001982	44.3984	-98.6042	-167.686	-0.096246	0.081718	-0.988582	-0.989917	-0.035408	44.3984	-0.987983	-1.562973E+13	2.265436E-15	NaN
202	1.000000	0.091060	7.36702e+06	-48739.1	955.819	-29761.7	0.000000	0.000000	6.090773	0.026633	NaN	0.000000	0.001600	0.001715	28.0796	0.079273	0.002019	39.2715	-119.812	-167.867	0.072383	0.089716	-0.980575	-0.981919	0.026633	39.2715	-0.981084	-1.261869E+13	-2.110625E-15	NaN
202	1.000000	0.099055	7.36702e+06	-48739.1	955.818	-29761.7	0.000000	0.000000	6.098768	0.014548	NaN	0.000000	0.001566	0.001730	28.0798	0.069430	0.002036	34.1092	17.915	-165.204	0.084117	0.097748	-0.972580	-0.973887	0.014548	34.1092	-0.972900	-9.789229E+12	-1.486150E-15	NaN
202	1.000000	0.107054	7.36702e+06	-48739.1	955.818	-29761.7	0.000000	0.000000	6.106763	-0.071780	NaN	0.000000	0.001532	0.001714	28.0796	0.090071	0.001941	46.4004	-43.8033	-171.544	-0.073818	0.105738	-0.964581	-0.965898	-0.071780	46.4004	-0.963421	-7.294398E+12	9.840421E-15	NaN
202	1.000000	0.115065	7.36702e+06	-48739.1	955.818	-29761.7	0.000000	0.000000	6.114779	0.023373	NaN	0.000000	0.001573	0.001671	28.0795	0.173417	0.002018	85.9281	-52.3983	-165.927	-0.047180	0.113727	-0.956570	-0.957908	0.023373	85.9281	-0.956774	-5.934327E+12	-3.938610E-15	NaN
202	1.000000	0.123060	7.36702e+06	-48739.1	955.819	-29761.7	0.000000	0.000000	6.122771	-0.024609	NaN	0.000000	0.001585	0.001698	28.0799	0.041734	0.002084	20.0295	64.8214	-166.837	0.020561	0.121807	-0.948575	-0.949828	-0.024609	20.0295	-0.947654	-4.470796E+12	5.504351E-15	NaN
202	1.000000	0.131098	7.36702e+06	-48739.1	955.818	-29761.7	0.000000	0.000000	6.130810	-0.017001	NaN	0.000000	0.001595	0.001672	28.0793	0.015330	0.002062	7.433250	111.383	-165.916	0.030663	0.129714	-0.940537	-0.941921	-0.017001	7.433250	-0.938822	-3.398154E+12	5.002885E-15	NaN
202	1.000000	0.139068	7.36702e+06	-48739.1	955.819	-29761.7	0.000000	0.000000	6.138779	-0.026448	NaN	0.000000	0.001578	0.001713	28.0796	0.171201	0.001994	85.8483	-66.7433	-164.859	-0.016085	0.137770	-0.932568	-0.933866	-0.026448	85.8483	-0.932337	-2.777994E+12	9.520416E-15	NaN
202	1.000000	0.147090	7.36702e+06	-48739.1	955.819	-29761.7	0.000000	0.000000	6.146803	0.015299	NaN	0.000000	0.001559	0.001690	28.0795	0.036564	0.002022	18.0826	151.474	-166.694	-0.057524	0.145775	-0.924545	-0.925860	0.015299	18.0826	-0.925180	-2.224017E+12	-6.879078E-15	NaN
202	1.000000	0.155079	7.36702e+06	-48739.1	955.819	-29761.7	0.000000	0.000000	6.154789	-0.055694	NaN	0.000000	0.001592	0.001704	28.0794	0.008574	0.002064	4.154492	-26.6066	-168.943	-0.064919	0.153812	-0.916557	-0.917824	-0.055694	4.154492	-0.906502	-1.244271E+12	4.476049E-14	NaN
202	1.000000	0.163081	7.36702e+06	-48739.1	955.819	-29761.7	0.000000	0.000000	6.162793	-0.012861	NaN	0.000000	0.001616	0.001725	28.0796	0.070821	0.001943	36.4583	-83.0392	-166.785	0.036426	0.161785	-0.908554	-0.909850	-0.012861	36.4583	-0.908289	-1.315392E+12	9.777561E-15	NaN
202	1.000000	0.171105	7.36702e+06	-48739.1	955.818	-29761.7	0.000000	0.000000	6.170816	-0.025739	NaN	0.000000	0.001610	0.001720	28.0795	0.048661	0.002026	24.0203	138.551	-166.943	0.055949	0.169798	-0.900531	-0.901837	-0.025739	24.0203	-0.899727	-1.007807E+12	2.553913E-14	NaN
202	1.000000	0.179132	7.36702e+06	-48739.1	955.819	-29761.7	0.000000	0.000000	6.178841	-0.076357	NaN	0.000000	0.001575	0.001701	28.0797	0.061279	0.001881	32.5859	-141.725	-169.212	0.004594	0.177777	-0.892504	-0.893858	-0.076357	32.5859	-0.890746	-7.620819E+11	1.001958E-13	NaN
202	1.000000	0.187110	7.36702e+06	-48739.1	955.819	-29761.7	0.000000	0.000000	6.186822	-0.009619	NaN	0.000000	0.001585	0.001734	28.0801	0.026328	0.002027	12.9905	137.784	-164.536	0.005562	0.185758	-0.884525	-0.885878	-0.009619	12.9905	-0.883970	-6.171473E+11	1.558623E-14	NaN
202	1.000000	0.195080	7.36702e+06	-48739.1	955.818	-29761.7	0.000000	0.000000	6.194792	-0.024105	NaN	0.000000	0.001571	0.001711	28.0793	0.111892	0.002062	54.2667	-6.891508	-169.948	-0.050664	0.193761	-0.876555	-0.877874	-0.024105	54.2667	-0.876222	-4.848545E+11	4.971656E-14	NaN
202	1.000000	0.203108	7.36702e+06	-48739.1	955.817	-29761.7	0.000000	0.000000	6.202818	-0.053287	NaN	0.000000	0.001595	0.001716	28.0796	0.082532	0.001974	41.8012	109.774	-165.308	0.014968	0.201816	-0.868527	-0.869820	-0.053287	41.8012	-0.867571	-3.703232E+11	1.438923E-13	NaN
202	1.000000	0.211099	7.36702e+06	-48739.1	955.818	-29761.7	0.000000	0.000000	6.210813	0.037404	NaN	0.000000	0.001595	0.001680	28.0793	0.079582	0.001951	40.7985	75.8257	-169.986	0.036352	0.209801	-0.860536	-0.861834	0.037404	40.7985	-0.861224	-3.038694E+11	-1.230917E-13	NaN
202	1.000000	0.219093	7.36702e+06	-48739.1	955.819	-29761.7	0.000000	0.000000	6.218803	-0.062601	NaN	0.000000	0.001646	0.001686	28.0781	0.084011	0.001998	42.0393	153.831	-163.124	-0.144620	0.217802	-0.852542	-0.853833	-0.062601	42.0393	-0.851425	-2.238923E+11	2.796037E-13	NaN
202	1.000000	0.227109	7.36702e+06	-48739.1	955.819	-29761.7	0.000000	0.000000	6.226821	0.000406	NaN	0.000000	0.001670	0.001714	28.0779	0.070351	0.001978	35.5668	-90.6667	-165.814	0.046936	0.225841	-0.844526	-0.845794	0.000406	35.5668	-0.844535	-1.806029E+11	-2.248046E-15	NaN
202	1.000000	0.235130	7.36702e+06	-48739.1	955.818	-29761.7	0.000000	0.000000	6.234843	0.015452	NaN	0.000000	0.001691	0.001676	28.078	0.088136	0.002070	42.5833	132.49	-166.732	0.082179	0.233822	-0.836505	-0.837814	0.015452	42.5833	-0.836777	-1.417851E+11	-1.089811E-13	NaN
202	1.000000	0.243125	7.36702e+06	-48739.1	955.818	-29761.7	0.000000	0.000000	6.242840	0.064914	NaN	0.000000	0.001630	0.001698	28.078	0.065084	0.001970	33.0392	-1.613197	-167.905	0.023418	0.241791	-0.828510	-0.829844	0.064914	33.0392	-0.829984	-1.147002E+11	-5.659428E-13	NaN
202	1.000000	0.251146	7.36702e+06	-48739.1	955.819	-29761.7	0.000000	0.000000	6.250857	-0.031352	NaN	0.000000	0.001650	0.001717	28.078	0.064165	0.002067	31.0426	106.359	-167.97	0.051588	0.249879	-0.820489	-0.821757	-0.031352	31.0426	-0.819732	-8.328674E+10	3.764307E-13	NaN
202	1.000000	0.259119	7.36702e+06	-48739.1	955.818	-29761.7	0.000000	0.000000	6.258829	-0.055529	NaN	0.000000	0.001659	0.001738	28.078	0.031203	0.002105	14.8241	62.8563	-167.342	-0.080933	0.257830	-0.812516	-0.813805	-0.055529	14.8241	-0.809707	-6.089641E+10	9.118605E-13	NaN
202	1.000000	0.267127	7.36702e+06	-48739.1	955.818	-29761.7	0.000000	0.000000	6.266839	-0.010351	NaN	0.000000	0.001660	0.001705	28.0777	0.039269	0.001896	20.7085	135.46	-165.923	-0.006378	0.265782	-0.804508	-0.805853	-0.010351	20.7085	-0.804134	-5.116434E+10	2.023118E-13	NaN
202	1.000000	0.275123	7.36702e+06	-48739.1	955.818	-29761.7	0.000000	0.000000	6.274833	-0.052146	NaN	0.000000	0.001652	0.001704	28.078	0.062966	0.001958	32.1612	-154.799	-169.444	-0.135143	0.273886	-0.796513	-0.797749	-0.052146	32.1612	-0.795297	-3.881596E+10	1.343418E-12	NaN
202	1.000000	0.283121	7.36702e+06	-48739.1	955.819	-29761.7	0.000000	0.000000	6.282833	-0.020849	NaN	0.000000	0.001647	0.001701	28.0784	0.081544	0.002000	40.7651	-18.6742	-165.277	-0.023218	0.281842	-0.788514	-0.789793	-0.020849	40.7651	-0.788130	-3.102349E+10	6.720364E-13	NaN
202	1.000000	0.291110	7.36702e+06	-48739.1	955.819	-29761.7	0.000000	0.000000	6.290824	0.041368	NaN	0.000000	0.001628	0.001717	28.0777	0.040617	0.002046	19.8479	69.7758	-165.785	0.000920	0.289819	-0.780525	-0.781817	0.041368	19.8479	-0.782089	-2.568095E+10	-1.610848E-12	NaN
202	1.000000	0.299147	7.36702e+06	-48739.1	955.819	-29761.7	0.000000	0.000000	6.298857	-0.046601	NaN	0.000000	0.001613	0.001677	28.0779	0.063875	0.002134	29.9319	-178.268	-167.582	-0.027788	0.297836	-0.772489	-0.773799	-0.046601	29.9319	-0.771321	-1.833426E+10	2.541769E-12	NaN
202	1.000000	0.307129	7.36702e+06	-48739.1	955.818	-29761.7	0.000000	0.000000	6.306843	0.024593	NaN	0.000000	0.001625	0.001683	28.0779	0.086573	0.002078	41.6658	124.575	-166.564	0.026818	0.305853	-0.764506	-0.765782	0.024593	41.6658	-0.764949	-1.501819E+10	-1.637558E-12	NaN
202	1.000000	0.315130	7.36702e+06	-48739.1	955.819	-29761.7	0.000000	0.000000	6.314840	-0.056387	NaN	0.000000	0.001618	0.001699	28.078	0.050971	0.001971	25.8616	126.248	-170.137	-0.024026	0.313855	-0.756505	-0.757780	-0.056387	25.8616	-0.754870	-1.095216E+10	5.148450E-12	NaN
202	1.000000	0.323162	7.36702e+06	-48739.1	955.819	-29761.7	0.000000	0.000000	6.322873	-0.029210	NaN	0.000000	0.001652	0.001669	28.0779	0.093645	0.001940	48.2632	68.4795	-168.419	0.038215	0.321863	-0.748474	-0.749772	-0.029210	48.2632	-0.748020	-8.836165E+9	3.305719E-12	NaN
202	1.000000	0.331162	7.36702e+06	-48739.1	955.818	-29761.7	0.000000	0.000000	6.330876	0.029461	NaN	0.000000	0.001617	0.001703	28.078	0.026244	0.001953	13.4409	-135.137	-169.207	-0.075178	0.329876	-0.740473	-0.741759	0.029461	13.4409	-0.742117	-7.343259E+9	-4.011913E-12	NaN
202	1.000000	0.339167	7.36702e+06	-48739.1	955.818	-29761.7	0.000000	0.000000	6.338877	-0.046172	NaN	0.000000	0.001631	0.001710	28.078	0.168858	0.001968	85.7863	-135.33	-163.183	-0.044658	0.337906	-0.732468	-0.733729	-0.046172	85.7863	-0.732065	-5.357315E+9	8.618519E-12	NaN
202	1.000000	0.347156	7.36702e+06	-48739.1	955.818	-29761.7	0.000000	0.000000	6.346871	0.055381	NaN	0.000000	0.001662	0.001672	28.078	0.048179	0.002038	23.6449	-120.13	-162.83	0.086130	0.345894	-0.724479	-0.725741	0.055381	23.6449	-0.726236	-4.461650E+9	-1.241258E-11	NaN
202	1.000000	0.355194	7.36702e+06	-48739.1	955.817	-29761.7	0.000000	0.000000	6.354908	0.025503	NaN	0.000000	0.001664	0.001713	28.0793	0.024192	0.001961	12.3344	-141.336	-165.184	0.045009	0.353830	-0.716441	-0.717805	0.025503	12.3344	-0.717992	-3.444143E+9	-7.404714E-12	NaN
202	1.000000	0.363160	7.36702e+06	-48739.1	955.819	-29761.7	0.000000	0.000000	6.362873	-0.007080	NaN	0.000000	0.001657	0.001712	28.0792	0.078896	0.002011	39.2399	-149.827	-165.955	0.031638	0.361834	-0.708475	-0.709801	-0.007080	39.2399	-0.708340	-2.543238E+9	2.783983E-12	NaN
202	1.000000	0.371171	7.36702e+06	-48739.1	955.818	-29761.7	0.000000	0.000000	6.370884	0.007473	NaN	0.000000	0.001683	0.001682	28.0794	0.036738	0.001953	18.8084	18.5434	-168.749	0.013427	0.369845	-0.700464	-0.701790	0.007473	18.8084	-0.700762	-2.004210E+9	-3.728866E-12	NaN
202	1.000000	0.379180	7.36702e+06	-48739.1	955.818	-29761.7	0.000000	0.000000	6.378889	-0.075029	NaN	0.000000	0.001681	0.001677	28.0795	0.091666	0.002078	44.1142	78.8037	-167.298	-0.161369	0.377882	-0.692456	-0.693753	-0.075029	44.1142	-0.691180	-1.482665E+9	5.060444E-11	NaN
202	1.000000	0.387182	7.36702e+06	-48739.1	955.819	-29761.7	0.000000	0.000000	6.386896	0.037567	NaN	0.000000	0.001689	0.001646	28.0793	0.089245	0.002145	41.613	9.692623	-169.586	0.101606	0.385834	-0.684453	-0.685801	0.037567	41.613	-0.685130	-1.225609E+9	-3.065158E-11	NaN
202	1.000000	0.395158	7.36702e+06	-48739.1	955.818	-29761.7	0.000000	0.000000	6.394870	-0.018488	NaN	0.000000	0.001613	0.001658	28.0792	0.037505	0.001908	19.6599	-134.291	-169.155	-0.060749	0.393908	-0.676477	-0.677727	-0.018488	19.6599	-0.675771	-9.127798E+8	2.025444E-11	NaN
202	1.000000	0.403167	7.36702e+06	-48739.1	955.819	-29761.7	0.000000	0.000000	6.402879	-0.014315	NaN	0.000000	0.001562	0.001714	28.0791	0.115120	0.001879	61.2658	175.008	-164.831	-0.041529	0.401874	-0.668468	-0.669761	-0.014315	61.2658	-0.668293	-7.211501E+8	1.984956E-11	NaN
202	1.000000	0.411182	7.36702e+06	-48739.1	955.819	-29761.7	0.000000	0.000000	6.410894	-0.006163	NaN	0.000000	0.001597	0.001669	28.0793	0.052602	0.001978	26.5964	14.5683	-167.98	0.034572	0.409942	-0.660453	-0.661693	-0.006163	26.5964	-0.660279	-5.601389E+8	1.100264E-11	NaN
202	1.000000	0.419163	7.36702e+06	-48739.1	955.818	-29761.7	0.000000	0.000000	6.418873	-0.059181	NaN	0.000000	0.001603	0.001665	28.0793	0.041433	0.001982	20.9035	107.572	-166.809	-0.039883	0.417897	-0.652472	-0.653739	-0.059181	20.9035	-0.650349	-4.094660E+8	1.445326E-10	NaN
202	1.000000	0.427175	7.36702e+06	-48739.1	955.818	-29761.7	0.000000	0.000000	6.426887	0.010141	NaN	0.000000	0.001598	0.001672	28.0794	0.063482	0.002017	31.4676	36.8036	-168.533	-0.069995	0.425867	-0.644461	-0.645768	0.010141	31.4676	-0.644702	-3.426067E+8	-2.959916E-11	NaN
202	1.000000	0.435203	7.36702e+06	-48739.1	955.819	-29761.7	0.000000	0.000000	6.434915	-0.007542	NaN	0.000000	0.001588	0.001707	28.0795	0.123581	0.002011	61.4532	139.981	-165.751	-0.066205	0.433905	-0.636433	-0.637730	-0.007542	61.4532	-0.636341	-2.630706E+8	2.866858E-11	NaN
202	1.000000	0.443208	7.36702e+06	-48739.1	955.818	-29761.7	0.000000	0.000000	6.442922	0.047910	NaN	0.000000	0.001616	0.001674	28.0791	0.041537	0.002057	20.1924	-88.5307	-169.589	0.080677	0.441912	-0.628428	-0.629723	0.047910	20.1924	-0.630207	-2.167051E+8	-2.210817E-10	NaN
202	1.000000	0.451233	7.36702e+06	-48739.1	955.818	-29761.7	0.000000	0.000000	6.450946	-0.000615	NaN	0.000000	0.001600	0.001693	28.0794	0.085547	0.002128	40.1915	-170.771	-166.973	0.000463	0.449892	-0.620402	-0.621743	-0.000615	40.1915	-0.620391	-1.588559E+8	3.873757E-12	NaN
202	1.000000	0.459208	7.36702e+06	-48739.1	955.818	-29761.7	0.000000	0.000000	6.458919	-0.020010	NaN	0.000000	0.001639	0.001717	28.0793	0.075468	0.002083	36.2383	177.863	-167.736	0.039593	0.457894	-0.612427	-0.613741	-0.020010	36.2383	-0.612013	-1.218462E+8	1.642263E-10	NaN
202	1.000000	0.467215	7.36702e+06	-48739.1	955.819	-29761.7	0.000000	0.000000	6.466928	0.003035	NaN	0.000000	0.001600	0.001699	28.0794	0.035730	0.001938	18.4352	-174.947	-166.214	-0.028104	0.465884	-0.604420	-0.605751	0.003035	18.4352	-0.604543	-9.616515E+7	-3.155657E-11	NaN
202	1.000000	0.475219	7.36702e+06	-48739.1	955.819	-29761.7	0.000000	0.000000	6.474931	-0.014780	NaN	0.000000	0.001611	0.001653	28.0797	0.070293	0.001982	35.465	-71.7081	-162.575	0.000454	0.473872	-0.596416	-0.597764	-0.014780	35.465	-0.596104	-7.358531E+7	2.008523E-10	NaN
202	1.000000	0.483238	7.36702e+06	-48739.1	955.819	-29761.7	0.000000	0.000000	6.482950	-0.012358	NaN	0.000000	0.001606	0.001686	28.0795	0.047946	0.002027	23.6547	97.2651	-168.424	0.012321	0.481909	-0.588397	-0.589727	-0.012358	23.6547	-0.588005	-5.690680E+7	2.171663E-10	NaN
202	1.000000	0.491236	7.36702e+06	-48739.1	955.819	-29761.7	0.000000	0.000000	6.490949	0.016457	NaN	0.000000	0.001593	0.001656	28.0784	0.043985	0.001962	22.4221	-108.112	-164.724	-0.018781	0.489923	-0.580399	-0.581713	0.016457	22.4221	-0.580950	-4.548128E+7	-3.618343E-10	NaN
202	1.000000	0.499209	7.36702e+06	-48739.1	955.818	-29761.7	0.000000	0.000000	6.498922	0.027594	NaN	0.000000	0.001581	0.001676	28.0783	0.130755	0.002040	64.0956	56.5154	-168.64	-0.003260	0.497952	-0.572427	-0.573683	0.027594	64.0956	-0.572749	-3.504420E+7	-7.874087E-10	NaN
202	1.000000	0.507260	7.36702e+06	-48739.1	955.817	-29761.7	0.000000	0.000000	6.506969	-0.101828	NaN	0.000000	0.001583	0.001711	28.0785	0.039582	0.002016	19.6384	139.017	-165.584	-0.024207	0.505900	-0.564375	-0.565736	-0.101828	19.6384	-0.560486	-2.371940E+7	4.293007E-9	NaN
202	1.000000	0.515225	7.36702e+06	-48739.1	955.819	-29761.7	0.000000	0.000000	6.514939	0.022211	NaN	0.000000	0.001607	0.001684	28.0786	0.040915	0.002141	19.1135	110.233	-167.818	0.043845	0.513942	-0.556410	-0.557693	0.022211	19.1135	-0.557281	-2.141728E+7	-1.037050E-9	NaN
202	1.000000	0.523236	7.36702e+06	-48739.1	955.819	-29761.7	0.000000	0.000000	6.522947	-0.032127	NaN	0.000000	0.001607	0.001723	28.0784	0.077400	0.002061	37.5544	47.4916	-165.217	0.008535	0.521948	-0.548399	-0.549687	-0.032127	37.5544	-0.547758	-1.580852E+7	2.032238E-9	NaN
202	1.000000	0.531258	7.36702e+06	-48739.1	955.818	-29761.7	0.000000	0.000000	6.530972	0.044011	NaN	0.000000	0.001590	0.001732	28.0789	0.034069	0.002074	16.4277	152.273	-165.916	0.003955	0.529947	-0.540378	-0.541688	0.044011	16.4277	-0.542387	-1.331860E+7	-3.304511E-9	NaN
202	1.000000	0.539244	7.36702e+06	-48739.1	955.818	-29761.7	0.000000	0.000000	6.538957	0.015865	NaN	0.000000	0.001596	0.001716	28.0783	0.053670	0.002037	26.349	-38.6096	-168.515	0.016633	0.537922	-0.532391	-0.533713	0.015865	26.349	-0.532842	-9.81845e+06	-1.615843E-9	NaN
202	1.000000	0.547223	7.36702e+06	-48739.1	955.818	-29761.7	0.000000	0.000000	6.546937	0.047493	NaN	0.000000	0.001642	0.001691	28.0786	0.062870	0.001990	31.5993	156.777	-166.163	-0.002380	0.545922	-0.524412	-0.525713	0.047493	31.5993	-0.525539	-7.77335e+06	-6.109708E-9	NaN
202	1.000000	0.555264	7.36702e+06	-48739.1	955.818	-29761.7	0.000000	0.000000	6.554975	-0.045089	NaN	0.000000	0.001595	0.001715	28.0785	0.055673	0.001980	28.1164	-159.42	-164.213	-0.057594	0.553968	-0.516371	-0.517667	-0.045089	28.1164	-0.515169	-5.57673e+06	8.085121E-9	NaN
202	1.000000	0.563281	7.36702e+06	-48739.1	955.819	-29761.7	0.000000	0.000000	6.562994	0.016316	NaN	0.000000	0.001599	0.001693	28.0786	0.091758	0.001983	46.2838	-96.9487	-166.386	0.052457	0.561988	-0.508354	-0.509648	0.016316	46.2838	-0.508618	-4.52032e+06	-3.609423E-9	NaN
202	1.000000	0.571275	7.36702e+06	-48739.1	955.818	-29761.7	0.000000	0.000000	6.570988	0.002735	NaN	0.000000	0.001620	0.001673	28.079	0.047232	0.001951	24.2075	103.909	-166.017	0.017498	0.569972	-0.500360	-0.501663	0.002735	24.2075	-0.500445	-3.47712e+06	-7.865955E-10	NaN
202	1.000000	0.579250	7.36702e+06	-48739.1	955.818	-29761.7	0.000000	0.000000	6.578964	0.032376	NaN	0.000000	0.001618	0.001691	28.0784	0.097128	0.002024	47.9901	-94.914	-164.086	-0.015174	0.577957	-0.492385	-0.493678	0.032376	47.9901	-0.492891	-2.72761e+06	-1.186984E-8	NaN
202	1.000000	0.587259	7.36702e+06	-48739.1	955.819	-29761.7	0.000000	0.000000	6.586972	0.022746	NaN	0.000000	0.001586	0.001701	28.0786	0.046357	0.001945	23.829	-145.618	-166.113	0.033915	0.585947	-0.484376	-0.485688	0.022746	23.829	-0.485092	-2.12217e+06	-1.071840E-8	NaN
202	1.000000	0.595264	7.36702e+06	-48739.1	955.818	-29761.7	0.000000	0.000000	6.594978	0.021488	NaN	0.000000	0.001584	0.001687	28.0784	0.040781	0.002031	20.079	126.402	-166.621	0.047639	0.593968	-0.476371	-0.477667	0.021488	20.079	-0.477174	-1.64419e+06	-1.306880E-8	NaN
202	1.000000	0.603279	7.36702e+06	-48739.1	955.818	-29761.7	0.000000	0.000000	6.602991	-0.006596	NaN	0.000000	0.001645	0.001737	28.0786	0.070951	0.001823	38.9237	119.249	-162.757	-0.060197	0.601967	-0.468356	-0.469669	-0.006596	38.9237	-0.468229	-1.23187e+06	5.354189E-9	NaN
202	1.000000	0.611242	7.36702e+06	-48739.1	955.818	-29761.7	0.000000	0.000000	6.610955	0.010578	NaN	0.000000	0.001610	0.001674	28.0785	0.063397	0.001905	33.2816	178.972	-169.781	0.084894	0.609947	-0.460393	-0.461689	0.010578	33.2816	-0.460632	-963595	-1.097716E-8	NaN
202	1.000000	0.619283	7.36702e+06	-48739.1	955.819	-29761.7	0.000000	0.000000	6.618997	0.028725	NaN	0.000000	0.001614	0.001685	28.0783	0.074121	0.001924	38.5202	169.785	-170.803	0.070958	0.617961	-0.452352	-0.453675	0.028725	38.5202	-0.452912	-750467	-3.827643E-8	NaN
202	1.000000	0.627276	7.36702e+06	-48739.1	955.818	-29761.7	0.000000	0.000000	6.626988	-0.017349	NaN	0.000000	0.001607	0.001702	28.0799	0.058271	0.001889	30.8452	-86.9036	-167.867	-0.011949	0.625985	-0.444359	-0.445650	-0.017349	30.8452	-0.443938	-560934	3.092920E-8	NaN
202	1.000000	0.635274	7.36702e+06	-48739.1	955.819	-29761.7	0.000000	0.000000	6.634986	-0.026049	NaN	0.000000	0.001604	0.001645	28.0797	0.100938	0.002048	49.2952	-91.3184	-163.572	-0.036280	0.633949	-0.436361	-0.437687	-0.026049	49.2952	-0.435965	-432896	6.017306E-8	NaN
202	1.000000	0.643259	7.36702e+06	-48739.1	955.818	-29761.7	0.000000	0.000000	6.642970	-0.041117	NaN	0.000000	0.001578	0.001672	28.0797	0.081140	0.001987	40.8433	40.5192	-169.224	-0.056662	0.641975	-0.428376	-0.429660	-0.041117	40.8433	-0.427621	-329909	1.246326E-7	NaN
202	1.000000	0.651276	7.36702e+06	-48739.1	955.818	-29761.7	0.000000	0.000000	6.650987	-0.025497	NaN	0.000000	0.001594	0.001693	28.0798	0.082529	0.002025	40.7565	-119.385	-165.591	-0.077772	0.650020	-0.420359	-0.421616	-0.025497	40.7565	-0.419890	-256363	9.945787E-8	NaN
202	1.000000	0.659296	7.36702e+06	-48739.1	955.819	-29761.7	0.000000	0.000000	6.659007	-0.034476	NaN	0.000000	0.001598	0.001673	28.0797	0.065249	0.002060	31.6765	17.8305	-162.407	-0.061808	0.657934	-0.412339	-0.413702	-0.034476	31.6765	-0.411523	-195010	1.767921E-7	NaN
202	1.000000	0.667287	7.36702e+06	-48739.1	955.818	-29761.7	0.000000	0.000000	6.667000	0.002079	NaN	0.000000	0.001612	0.001680	28.0797	0.052806	0.002030	26.0118	154.162	-168.872	-0.072115	0.665960	-0.404348	-0.405675	0.002079	26.0118	-0.404408	-154461	-1.346297E-8	NaN
202	1.000000	0.675308	7.36702e+06	-48739.1	955.817	-29761.7	0.000000	0.000000	6.675021	0.016178	NaN	0.000000	0.001601	0.001692	28.0798	0.055930	0.002118	26.4125	164.56	-165.499	-0.062415	0.674031	-0.396328	-0.397604	0.016178	26.4125	-0.396787	-120268	-1.345152E-7	NaN
202	1.000000	0.683291	7.36702e+06	-48739.1	955.819	-29761.7	0.000000	0.000000	6.683005	0.015354	NaN	0.000000	0.001591	0.001701	28.0798	0.098230	0.001964	50.0056	54.1921	-164.282	0.047834	0.681984	-0.388344	-0.389651	0.015354	50.0056	-0.388574	-91783.7	-1.672828E-7	NaN
202	1.000000	0.691326	7.36702e+06	-48739.1	955.818	-29761.7	0.000000	0.000000	6.691038	-0.008437	NaN	0.000000	0.001584	0.001705	28.0797	0.079081	0.001908	41.4373	-171.681	-163.809	0.019533	0.689949	-0.380309	-0.381686	-0.008437	41.4373	-0.380156	-69524	1.213545E-7	NaN
202	1.000000	0.699282	7.36702e+06	-48739.1	955.818	-29761.7	0.000000	0.000000	6.698991	-0.074507	NaN	0.000000	0.001600	0.001675	28.0802	0.060984	0.001884	32.366	-84.0991	-167.674	-0.065931	0.697959	-0.372354	-0.373677	-0.074507	32.366	-0.370627	-50717.5	1.469066E-6	NaN
202	1.000000	0.707312	7.36702e+06	-48739.1	955.818	-29761.7	0.000000	0.000000	6.707023	-0.031948	NaN	0.000000	0.001561	0.001690	28.0797	0.031689	0.002019	15.6946	-120.741	-164.266	-0.103348	0.706001	-0.364324	-0.365634	-0.031948	15.6946	-0.362797	-39107.2	8.169327E-7	NaN
202	1.000000	0.715327	7.36702e+06	-48739.1	955.818	-29761.7	0.000000	0.000000	6.715040	0.015334	NaN	0.000000	0.001596	0.001678	28.0796	0.116508	0.002048	56.9024	-64.6758	-169.435	-0.017515	0.714001	-0.356309	-0.357634	0.015334	56.9024	-0.356511	-31722.8	-4.833625E-7	NaN
202	1.000000	0.723322	7.36702e+06	-48739.1	955.819	-29761.7	0.000000	0.000000	6.723036	0.030741	NaN	0.000000	0.001584	0.001685	28.0796	0.041424	0.002076	19.9554	48.9453	-169.521	-0.020004	0.722058	-0.348313	-0.349577	0.030741	19.9554	-0.349468	-25077.5	-1.225843E-6	NaN
202	1.000000	0.731318	7.36702e+06	-48739.1	955.818	-29761.7	0.000000	0.000000	6.731029	-0.039333	NaN	0.000000	0.001577	0.001657	28.0793	0.133252	0.002080	64.0643	130.79	-169.474	-0.038015	0.730016	-0.340317	-0.341619	-0.039333	64.0643	-0.339857	-18174.6	2.164175E-6	NaN
202	1.000000	0.739340	7.36702e+06	-48739.1	955.818	-29761.7	0.000000	0.000000	6.739052	0.005534	NaN	0.000000	0.001603	0.001713	28.0795	0.107631	0.001945	55.3323	-42.6177	-166.742	-0.018620	0.738011	-0.332295	-0.333625	0.005534	55.3323	-0.332370	-14130.1	-3.916118E-7	NaN
202	1.000000	0.747336	7.36702e+06	-48739.1	955.818	-29761.7	0.000000	0.000000	6.747046	-0.037025	NaN	0.000000	0.001588	0.001692	28.0797	0.074805	0.001993	37.5297	-68.3118	-169.731	-0.019108	0.746024	-0.324300	-0.325611	-0.037025	37.5297	-0.323560	-10495.1	3.527792E-6	NaN
202	1.000000	0.755319	7.36702e+06	-48739.1	955.817	-29761.7	0.000000	0.000000	6.755033	0.034960	NaN	0.000000	0.001584	0.001677	28.0799	0.093172	0.001880	49.5618	-130.722	-165.562	0.085825	0.754031	-0.316316	-0.317604	0.034960	49.5618	-0.316845	-8359.19	-4.182249E-6	NaN
202	1.000000	0.763345	7.36702e+06	-48739.1	955.817	-29761.7	0.000000	0.000000	6.763059	0.046494	NaN	0.000000	0.001591	0.001681	28.0783	0.098886	0.001989	49.7194	-139.599	-167.187	0.057241	0.761973	-0.308290	-0.309662	0.046494	49.7194	-0.308992	-6399.26	-7.265485E-6	NaN
202	1.000000	0.771367	7.36702e+06	-48739.1	955.819	-29761.7	0.000000	0.000000	6.771081	0.050622	NaN	0.000000	0.001621	0.001681	28.0781	0.098840	0.001994	49.5675	-83.5389	-170.384	-0.017704	0.770062	-0.300269	-0.301573	0.050622	49.5675	-0.301035	-4875.66	-1.038262E-5	NaN
202	1.000000	0.779354	7.36702e+06	-48739.1	955.819	-29761.7	0.000000	0.000000	6.779068	0.023959	NaN	0.000000	0.001649	0.001686	28.0782	0.037891	0.002023	18.7305	-140.928	-166.414	0.066967	0.778006	-0.292281	-0.293629	0.023959	18.7305	-0.293240	-3730.77	-6.422019E-6	NaN
202	1.000000	0.787319	7.36702e+06	-48739.1	955.818	-29761.7	0.000000	0.000000	6.787031	-0.013426	NaN	0.000000	0.001692	0.001684	28.0781	0.010688	0.001972	5.421268	-0.602724	-166.015	-0.062152	0.786033	-0.284316	-0.285603	-0.013426	5.421268	-0.282458	-2570.55	5.222938E-6	NaN
202	1.000000	0.795338	7.36702e+06	-48739.1	955.819	-29761.7	0.000000	0.000000	6.795049	-0.028296	NaN	0.000000	0.001675	0.001675	28.0784	0.055738	0.002061	27.043	123.093	-166.795	0.031537	0.794009	-0.276297	-0.277626	-0.028296	27.043	-0.275512	-2019.1	1.401401E-5	NaN
202	1.000000	0.803349	7.36702e+06	-48739.1	955.818	-29761.7	0.000000	0.000000	6.803061	0.004301	NaN	0.000000	0.001671	0.001697	28.0784	0.007189	0.001950	3.686353	86.1012	-167.405	0.041769	0.801986	-0.268287	-0.269649	0.004301	3.686353	-0.269162	-1617.32	-2.659098E-6	NaN
202	1.000000	0.811328	7.36702e+06	-48739.1	955.818	-29761.7	0.000000	0.000000	6.811038	-0.050186	NaN	0.000000	0.001662	0.001698	28.0785	0.047377	0.002065	22.9389	-3.166861	-167.162	-0.034259	0.810014	-0.260307	-0.261621	-0.050186	22.9389	-0.258667	-1118.07	4.488658E-5	NaN
202	1.000000	0.819374	7.36702e+06	-48739.1	955.818	-29761.7	0.000000	0.000000	6.819087	0.006955	NaN	0.000000	0.001598	0.001691	28.0783	0.082106	0.002014	40.7671	-17.5464	-166.794	-0.026304	0.818020	-0.252261	-0.253615	0.006955	40.7671	-0.252389	-895.111	-7.770072E-6	NaN
202	1.000000	0.827388	7.36702e+06	-48739.1	955.819	-29761.7	0.000000	0.000000	6.827099	-0.048191	NaN	0.000000	0.001592	0.001690	28.0802	0.071247	0.001960	36.3573	72.3394	-168.916	-0.008348	0.826067	-0.244247	-0.245568	-0.048191	36.3573	-0.243253	-646.062	7.459249E-5	NaN
202	1.000000	0.835392	7.36702e+06	-48739.1	955.818	-29761.7	0.000000	0.000000	6.835102	-0.057644	NaN	0.000000	0.001584	0.001714	28.0814	0.025518	0.001902	13.4197	-109.239	-168.112	-0.000198	0.834058	-0.236244	-0.237577	-0.057644	13.4197	-0.233022	-446.844	0.000129	NaN
202	1.000000	0.843371	7.36702e+06	-48739.1	955.818	-29761.7	0.000000	0.000000	6.843082	-0.037499	NaN	0.000000	0.001619	0.001697	28.0793	0.121890	0.002033	59.968	-11.118	-167.915	-0.010050	0.842057	-0.228264	-0.229579	-0.037499	59.968	-0.227795	-369.54	0.000101	NaN
202	1.000000	0.851407	7.36702e+06	-48739.1	955.819	-29761.7	0.000000	0.000000	6.851117	-0.064338	NaN	0.000000	0.001608	0.001708	28.0787	0.028632	0.002074	13.808	-163.276	-168.402	-0.029923	0.850084	-0.220228	-0.221552	-0.064338	13.808	-0.216734	-246.247	0.000261	NaN
202	1.000000	0.859371	7.36702e+06	-48739.1	955.819	-29761.7	0.000000	0.000000	6.859082	-0.044259	NaN	0.000000	0.001610	0.001730	28.0784	0.120405	0.001903	63.2559	-49.9027	-167.365	0.034904	0.858049	-0.212264	-0.213586	-0.044259	63.2559	-0.211740	-204.624	0.000216	NaN
202	1.000000	0.867376	7.36702e+06	-48739.1	955.818	-29761.7	0.000000	0.000000	6.867088	-0.007173	NaN	0.000000	0.001645	0.001717	28.0783	0.126409	0.002066	61.1821	-89.1862	-168.857	-0.033034	0.866102	-0.204259	-0.205533	-0.007173	61.1821	-0.204171	-154.182	4.652504E-5	NaN
202	1.000000	0.875401	7.36702e+06	-48739.1	955.818	-29761.7	0.000000	0.000000	6.875114	0.003391	NaN	0.000000	0.001604	0.001722	28.0785	0.127717	0.002049	62.3238	16.6162	-166.632	-0.004895	0.874075	-0.196234	-0.197560	0.003391	62.3238	-0.196275	-114.368	-2.964593E-5	NaN
202	1.000000	0.883378	7.36702e+06	-48739.1	955.818	-29761.7	0.000000	0.000000	6.883090	-0.011741	NaN	0.000000	0.001578	0.001706	28.0784	0.054895	0.002050	26.7758	-6.241269	-166.439	-0.047392	0.882067	-0.188257	-0.189568	-0.011741	26.7758	-0.187928	-83.0522	0.000141	NaN
202	1.000000	0.891387	7.36702e+06	-48739.1	955.818	-29761.7	0.000000	0.000000	6.891100	-0.002481	NaN	0.000000	0.001608	0.001669	28.0781	0.045564	0.002066	22.0504	-50.0609	-165.209	-0.024725	0.890062	-0.180248	-0.181573	-0.002481	22.0504	-0.180164	-61.4117	4.039894E-5	NaN
202	1.000000	0.899393	7.36702e+06	-48739.1	955.819	-29761.7	0.000000	0.000000	6.899102	-0.072683	NaN	0.000000	0.001617	0.001708	28.0796	0.069690	0.002089	33.3605	114.857	-166.972	0.034712	0.898082	-0.172243	-0.173553	-0.072683	33.3605	-0.170609	-42.0898	0.001727	NaN
202	1.000000	0.907392	7.36702e+06	-48739.1	955.818	-29761.7	0.000000	0.000000	6.907103	-0.050934	NaN	0.000000	0.001613	0.001701	28.0795	0.069840	0.002038	34.2715	23.6253	-165.072	-0.071287	0.906042	-0.164243	-0.165593	-0.050934	34.2715	-0.163128	-31.1434	0.001635	NaN
202	1.000000	0.915397	7.36702e+06	-48739.1	955.819	-29761.7	0.000000	0.000000	6.915111	0.036301	NaN	0.000000	0.001592	0.001688	28.0794	0.034179	0.002036	16.7878	41.0406	-164.575	-0.002827	0.914058	-0.156238	-0.157577	0.036301	16.7878	-0.157860	-25.1104	-0.001446	NaN
202	1.000000	0.923404	7.36702e+06	-48739.1	955.818	-29761.7	0.000000	0.000000	6.923115	-0.052465	NaN	0.000000	0.001625	0.001688	28.0796	0.063399	0.001885	33.6351	148.518	-164.623	0.067400	0.922050	-0.148231	-0.149585	-0.052465	33.6351	-0.147061	-16.0024	0.003279	NaN
202	1.000000	0.931398	7.36702e+06	-48739.1	955.818	-29761.7	0.000000	0.000000	6.931110	-0.010338	NaN	0.000000	0.001567	0.001699	28.0793	0.138856	0.002049	67.7577	-167.271	-164.429	-0.064889	0.930069	-0.140237	-0.141567	-0.010338	67.7577	-0.140123	-11.8924	0.000869	NaN
202	1.000000	0.939418	7.36702e+06	-48739.1	955.819	-29761.7	0.000000	0.000000	6.939127	-0.077382	NaN	0.000000	0.001595	0.001724	28.0795	0.191155	0.002062	92.7233	20.7821	-166.481	-0.048007	0.938119	-0.132217	-0.133516	-0.077382	92.7233	-0.131591	-8.181511	0.009458	NaN
202	1.000000	0.947395	7.36702e+06	-48739.1	955.818	-29761.7	0.000000	0.000000	6.947108	0.015506	NaN	0.000000	0.001597	0.001705	28.0796	0.012629	0.002106	5.995832	97.6694	-167.248	-0.020836	0.946069	-0.124241	-0.125566	0.015506	5.995832	-0.126180	-6.416477	-0.002417	NaN
202	1.000000	0.955430	7.36702e+06	-48739.1	955.819	-29761.7	0.000000	0.000000	6.955140	-0.057685	NaN	0.000000	0.001593	0.001682	28.0792	0.074054	0.002111	35.0763	76.0798	-170.388	-0.004907	0.954075	-0.116205	-0.117560	-0.057685	35.0763	-0.114972	-3.815225	0.015120	NaN
202	1.000000	0.963420	7.36702e+06	-48739.1	955.818	-29761.7	0.000000	0.000000	6.963130	-0.049997	NaN	0.000000	0.001584	0.001665	28.0797	0.071421	0.001964	36.3621	-144.039	-166.092	-0.076584	0.962165	-0.108216	-0.109470	-0.049997	36.3621	-0.107184	-2.618829	0.019091	NaN
202	1.000000	0.971431	7.36702e+06	-48739.1	955.819	-29761.7	0.000000	0.000000	6.971143	-0.017139	NaN	0.000000	0.001576	0.001685	28.0796	0.040594	0.001889	21.4938	-99.4621	-164.034	-0.044124	0.970111	-0.100204	-0.101524	-0.017139	21.4938	-0.099606	-1.790749	0.009571	NaN
202	1.000000	0.979461	7.36702e+06	-48739.1	955.818	-29761.7	0.000000	0.000000	6.979173	0.002820	NaN	0.000000	0.001565	0.001676	28.0794	0.056878	0.002055	27.6769	135.759	-170.261	-0.014972	0.978128	-0.092175	-0.093508	0.002820	27.6769	-0.092251	-1.219778	-0.002312	NaN
202	1.000000	0.987400	7.36702e+06	-48739.1	955.818	-29761.7	0.000000	0.000000	6.987112	-0.017571	NaN	0.000000	0.001616	0.001659	28.0794	0.100799	0.001905	52.9168	20.4373	-167.351	0.012807	0.986094	-0.084235	-0.085542	-0.017571	52.9168	-0.083986	-0.776357	0.022633	NaN
202	1.000000	0.995451	7.36702e+06	-48739.1	955.818	-29761.7	0.000000	0.000000	6.995162	-0.046897	NaN	0.000000	0.001578	0.001711	28.0793	0.073730	0.002017	36.5507	-170.64	-166.847	-0.098942	0.994049	-0.076184	-0.077586	-0.046897	36.5507	-0.075222	-0.468001	0.100208	NaN
202	1.000000	1.003448	7.36702e+06	-48739.1	955.818	-29761.7	0.000000	0.000000	7.003161	0.000223	NaN	0.000000	0.001530	0.001663	28.08	0.036277	0.001933	18.7703	169.91	-166.033	-0.043785	1.002113	-0.068187	-0.069522	0.000223	18.7703	-0.068196	-0.304971	-0.000731	NaN
202	1.000000	1.011431	7.36702e+06	-48739.1	955.818	-29761.7	0.000000	0.000000	7.011144	0.019726	NaN	0.000000	0.001581	0.001650	28.0793	0.116541	0.002094	55.6617	55.5862	-166.146	0.045310	1.010187	-0.060204	-0.061448	0.019726	55.6617	-0.060470	-0.185764	-0.106188	NaN
202	1.000000	1.019442	7.36702e+06	-48739.1	955.818	-29761.7	0.000000	0.000000	7.019155	-0.004805	NaN	0.000000	0.001598	0.001633	28.0793	0.024460	0.001998	12.2392	-73.2471	-167.494	-0.042552	1.018105	-0.052193	-0.053530	-0.004805	12.2392	-0.051898	-0.104097	0.046157	NaN
202	1.000000	1.027451	7.36702e+06	-48739.1	955.818	-29761.7	0.000000	0.000000	7.027166	0.051180	NaN	0.000000	0.001669	0.001657	28.0794	0.063678	0.002100	30.3297	-153.111	-168.369	-0.002105	1.026149	-0.044184	-0.045486	0.051180	30.3297	-0.045450	-0.066336	-0.771531	NaN
202	1.000000	1.035438	7.36702e+06	-48739.1	955.818	-29761.7	0.000000	0.000000	7.035149	-0.042557	NaN	0.000000	0.001586	0.001675	28.0782	0.044042	0.002043	21.5576	149.451	-166.976	-0.063472	1.034125	-0.036197	-0.037510	-0.042557	21.5576	-0.034716	-0.031415	1.354665	NaN
202	1.000000	1.043441	7.36702e+06	-48739.1	955.819	-29761.7	0.000000	0.000000	7.043152	-0.041498	NaN	0.000000	0.001568	0.001738	28.0783	0.092063	0.001995	46.1485	-63.6205	-170.971	0.025615	1.042198	-0.028194	-0.029437	-0.041498	46.1485	-0.027519	-0.019677	2.108906	NaN
202	1.000000	1.051458	7.36702e+06	-48739.1	955.819	-29761.7	0.000000	0.000000	7.051172	0.039163	NaN	0.000000	0.001600	0.001686	28.0781	0.069806	0.001867	37.3947	-95.4436	-165.089	0.008779	1.050145	-0.020177	-0.021491	0.039163	37.3947	-0.020963	-0.013289	-2.947080	NaN
202	1.000000	1.059479	7.36702e+06	-48739.1	955.819	-29761.7	0.000000	0.000000	7.059191	0.000931	NaN	0.000000	0.001588	0.001708	28.0783	0.083399	0.002041	40.8697	-117.515	-162.275	-0.011016	1.058108	-0.012157	-0.013528	0.000931	40.8697	-0.012174	-0.007628	-0.122048	NaN
202	1.000000	1.067458	7.36702e+06	-48739.1	955.818	-29761.7	0.000000	0.000000	7.067167	-0.069955	NaN	0.000000	0.001584	0.001675	28.0783	0.016959	0.001989	8.526751	-96.81	-166.696	-0.101697	1.066134	-0.004177	-0.005501	-0.069955	8.526751	0.001976	0.001535	-45.5692	198.831
202	1.000000	1.075455	7.36702e+06	-48739.1	955.818	-29761.7	0.000000	0.000000	7.075213	1.115082	NaN	0.000000	0.001595	0.001690	28.0781	1.780035	0.001935	920.122	12.0539	-170.626	0.394493	1.074129	0.003819	0.002494	1.115082	920.122	0.002911	0.002305	483.813	17510.7
202	2.000000	1.082880	7.36702e+06	-48739.1	955.818	-29761.7	0.000000	0.000000	7.082977	9.345610	NaN	0.000000	0.001570	0.001702	28.0782	8.921302	0.001595	5594.65	8.983820	-173.051	8.766530	1.082035	0.011245	0.010400	9.345610	5594.65	0.009992	0.009173	1018.85	53370.1
202	2.000000	1.085045	7.36702e+06	-48739.1	955.819	-29761.7	0.000000	0.000000	7.085238	11.6888	NaN	0.000000	0.001593	0.001678	28.0782	10.7915	0.001616	6679.49	5.787283	-171.777	11.975	1.084654	0.013410	0.013019	11.6888	6679.49	0.012097	0.011607	1007.05	56644.3
202	2.000000	1.086981	7.36702e+06	-48739.1	955.819	-29761.7	0.000000	0.000000	7.087326	15.3682	NaN	0.000000	0.001586	0.001705	28.0785	13.6439	0.001687	8087.07	5.604748	-173.441	15.3193	1.086624	0.015346	0.014989	15.3682	8087.07	0.013921	0.013873	1107.75	62729.8
202	2.000000	1.089016	7.36702e+06	-48739.1	955.819	-29761.7	0.000000	0.000000	7.089586	20.8466	NaN	0.000000	0.001583	0.001684	28.0784	16.9034	0.001850	9136.87	8.376301	-176.563	20.9416	1.088681	0.017381	0.017046	20.8466	9136.87	0.015670	0.016189	1287.71	65608.8
202	2.000000	1.090940	7.36702e+06	-48739.1	955.818	-29761.7	0.000000	0.000000	7.091619	23.504	NaN	0.000000	0.001591	0.001675	28.0783	19.0893	0.001835	10404	8.228017	-179.461	23.7971	1.090611	0.019304	0.018976	23.504	10404	0.017610	0.018925	1241.95	69096.3
202	2.000000	1.092931	7.36702e+06	-48739.1	955.819	-29761.7	0.000000	0.000000	7.093843	29.1633	NaN	0.000000	0.001587	0.001671	28.0781	21.0756	0.001785	11804.2	7.932267	179.656	28.4193	1.092654	0.021296	0.021019	29.1633	11804.2	0.019443	0.021675	1345.49	73253.7
202	2.000000	1.094915	7.36702e+06	-48739.1	955.819	-29761.7	0.000000	0.000000	7.096076	35.2201	NaN	0.000000	0.001577	0.001708	28.0781	22.1637	0.001677	13218.1	6.259909	179.476	34.0997	1.094636	0.023280	0.023001	35.2201	13218.1	0.021282	0.024597	1431.91	77002.8
202	2.000000	1.096896	7.36702e+06	-48739.1	955.819	-29761.7	0.000000	0.000000	7.098180	38.2224	NaN	0.000000	0.001602	0.001692	28.0785	25.3457	0.001733	14624.3	4.860274	-179.731	36.673	1.096586	0.025261	0.024950	38.2224	14624.3	0.023301	0.027997	1365.26	79854.1
202	2.000000	1.098936	7.36702e+06	-48739.1	955.818	-29761.7	0.000000	0.000000	7.100525	45.6251	NaN	0.000000	0.001592	0.001707	28.078	28.1622	0.001893	14878.5	5.890827	179.792	45.1506	1.098618	0.027301	0.026983	45.6251	14878.5	0.025001	0.031018	1470.94	77183.9
202	2.000000	1.100853	7.36702e+06	-48739.1	955.818	-29761.7	0.000000	0.000000	7.102729	52.6198	NaN	0.000000	0.001637	0.001700	28.0781	29.6816	0.001745	17014	4.536525	179.091	49.9479	1.100539	0.029218	0.028904	52.6198	17014	0.026898	0.034560	1522.58	83617.4
202	2.000000	1.102925	7.36702e+06	-48739.1	955.819	-29761.7	0.000000	0.000000	7.104948	56.2086	NaN	0.000000	0.001627	0.001700	28.0779	32.3907	0.001866	17360.1	7.880741	176.272	56.3722	1.102668	0.031290	0.031033	56.2086	17360.1	0.028861	0.038417	1463.13	80921.9
202	2.000000	1.104900	7.36702e+06	-48739.1	955.818	-29761.7	0.000000	0.000000	7.107131	61.2627	NaN	0.000000	0.001601	0.001662	28.0795	33.3461	0.001896	17586.6	5.320742	179.379	60.771	1.104689	0.033265	0.033054	61.2627	17586.6	0.030652	0.042106	1454.96	78303.8
202	2.000000	1.106896	7.36702e+06	-48739.1	955.818	-29761.7	0.000000	0.000000	7.109462	69.4137	NaN	0.000000	0.001561	0.001691	28.0796	35.6988	0.001842	19382.5	5.811219	176.967	68.4042	1.106535	0.035260	0.034900	69.4137	19382.5	0.032574	0.046249	1500.88	82344.4
202	2.000000	1.108957	7.36702e+06	-48739.1	955.819	-29761.7	0.000000	0.000000	7.111767	75.3396	NaN	0.000000	0.001575	0.001721	28.0794	37.8385	0.001781	21247.3	7.426073	175.441	76.4594	1.108636	0.037321	0.037001	75.3396	21247.3	0.034662	0.050962	1478.36	85991.3
202	2.000000	1.110922	7.36702e+06	-48739.1	955.818	-29761.7	0.000000	0.000000	7.114037	82.7633	NaN	0.000000	0.001589	0.001703	28.0795	38.9708	0.001792	21752.5	3.712464	178.381	84.7902	1.110575	0.039286	0.038940	82.7633	21752.5	0.036433	0.055135	1501.1	84638.5
202	2.000000	1.112890	7.36702e+06	-48739.1	955.818	-29761.7	0.000000	0.000000	7.116100	85.0523	NaN	0.000000	0.001578	0.001634	28.0793	40.3734	0.001786	22609.7	4.647955	177.46	83.7206	1.112638	0.041255	0.041003	85.0523	22609.7	0.038434	0.060044	1416.51	84301.5
202	2.000000	1.114849	7.36702e+06	-48739.1	955.819	-29761.7	0.000000	0.000000	7.118596	98.1209	NaN	0.000000	0.001615	0.001641	28.0796	41.498	0.001763	23535.9	8.071779	173.542	95.8514	1.114516	0.043214	0.042880	98.1209	23535.9	0.040087	0.064254	1527.07	84830.7
202	2.000000	1.116889	7.36702e+06	-48739.1	955.818	-29761.7	0.000000	0.000000	7.120628	97.9258	NaN	0.000000	0.001587	0.001649	28.0797	44.5937	0.001714	26013.3	4.718801	175.658	98.0311	1.116706	0.045254	0.045071	97.9258	26013.3	0.042430	0.070460	1389.82	89536.2
202	2.000000	1.118922	7.36702e+06	-48739.1	955.819	-29761.7	0.000000	0.000000	7.123250	112.272	NaN	0.000000	0.001618	0.001635	28.0792	47.2096	0.001911	24707.8	7.688693	174.21	112.604	1.118541	0.047286	0.046906	112.272	24707.8	0.043878	0.074435	1508.33	82740.7
202	2.000000	1.120854	7.36702e+06	-48739.1	955.818	-29761.7	0.000000	0.000000	7.125521	120.503	NaN	0.000000	0.001600	0.001683	28.0795	48.966	0.001802	27171	6.722520	173.509	119.42	1.120533	0.049219	0.048898	120.503	27171	0.045892	0.080141	1503.64	87690.3
202	2.000000	1.122869	7.36702e+06	-48739.1	955.819	-29761.7	0.000000	0.000000	7.127872	128.663	NaN	0.000000	0.001620	0.001661	28.0794	51.5016	0.001817	28340.5	3.505440	175.895	126.655	1.122579	0.051234	0.050943	128.663	28340.5	0.047829	0.085820	1499.22	88386.4
202	2.000000	1.124952	7.36702e+06	-48739.1	955.819	-29761.7	0.000000	0.000000	7.130310	137.304	NaN	0.000000	0.001603	0.001647	28.0796	52.5773	0.001782	29504.8	4.834441	174.948	140.93	1.124600	0.053316	0.052965	137.304	29504.8	0.049826	0.091877	1494.44	88933.2
202	2.000000	1.126822	7.36702e+06	-48739.1	955.819	-29761.7	0.000000	0.000000	7.133013	157.556	NaN	0.000000	0.001607	0.001649	28.08	54.3725	0.001775	30635.4	2.713745	176.888	154.875	1.126423	0.055187	0.054787	157.556	30635.4	0.051330	0.096568	1631.55	90069.9
202	2.000000	1.128961	7.36702e+06	-48739.1	955.819	-29761.7	0.000000	0.000000	7.135384	163.197	NaN	0.000000	0.001640	0.001649	28.0794	57.4251	0.001871	30690.2	7.956457	172.984	166.01	1.128470	0.057326	0.056834	163.197	30690.2	0.053338	0.103009	1584.3	87364.5
202	2.000000	1.130801	7.36702e+06	-48739.1	955.818	-29761.7	0.000000	0.000000	7.137706	174.933	NaN	0.000000	0.001574	0.001638	28.0799	57.6992	0.001805	31967.6	0.582853	178.886	170.694	1.130543	0.059165	0.058908	174.933	31967.6	0.055061	0.108697	1609.37	88587.9
202	2.000000	1.132916	7.36702e+06	-48739.1	955.819	-29761.7	0.000000	0.000000	7.139732	172.769	NaN	0.000000	0.001599	0.001661	28.0794	61.677	0.001829	33716	3.670789	174.909	176.034	1.132705	0.061280	0.061070	172.769	33716	0.057437	0.116780	1479.44	90141.7
202	2.000000	1.134853	7.36702e+06	-48739.1	955.818	-29761.7	0.000000	0.000000	7.142344	189.189	NaN	0.000000	0.001588	0.001661	28.0795	61.9321	0.001710	36215.9	5.835109	172.365	188.585	1.134566	0.063217	0.062931	189.189	36215.9	0.059299	0.123308	1534.28	94227.5
202	2.000000	1.136849	7.36702e+06	-48739.1	955.818	-29761.7	0.000000	0.000000	7.144749	199.121	NaN	0.000000	0.001591	0.001623	28.0794	65.1595	0.001806	36084.9	5.202362	172.876	198.061	1.136555	0.065214	0.064920	199.121	36084.9	0.061075	0.129692	1535.34	91546.6
202	2.000000	1.138886	7.36702e+06	-48739.1	955.819	-29761.7	0.000000	0.000000	7.147573	218.281	NaN	0.000000	0.001617	0.001673	28.0783	68.1047	0.001910	35660.2	11.4693	167.3	218.074	1.138476	0.067251	0.066841	218.281	35660.2	0.062660	0.135519	1610.71	88502.8
202	2.000000	1.140874	7.36702e+06	-48739.1	955.818	-29761.7	0.000000	0.000000	7.149768	223.317	NaN	0.000000	0.001592	0.001681	28.0782	69.4579	0.001838	37780.5	8.269640	169.383	226.174	1.140539	0.069239	0.068904	223.317	37780.5	0.064806	0.143602	1555.11	91087.8
202	2.000000	1.142840	7.36702e+06	-48739.1	955.818	-29761.7	0.000000	0.000000	7.152270	236.361	NaN	0.000000	0.001619	0.001692	28.0781	71.5688	0.001824	39247.2	3.225968	174.225	235.316	1.142592	0.071204	0.070957	236.361	39247.2	0.066688	0.150875	1566.6	92315.2
202	2.000000	1.144765	7.36702e+06	-48739.1	955.819	-29761.7	0.000000	0.000000	7.154925	254.1	NaN	0.000000	0.001581	0.001651	28.0782	72.7038	0.001854	39205.3	5.816625	171.723	249.943	1.144530	0.073130	0.072894	254.1	39205.3	0.068269	0.157116	1617.28	90366.6
202	2.000000	1.146844	7.36702e+06	-48739.1	955.819	-29761.7	0.000000	0.000000	7.157427	264.391	NaN	0.000000	0.001599	0.001623	28.0781	74.7568	0.001738	43022	4.867654	171.554	264.485	1.146517	0.075209	0.074882	264.391	43022	0.070599	0.166535	1587.6	96318.8
202	2.000000	1.148753	7.36702e+06	-48739.1	955.818	-29761.7	0.000000	0.000000	7.159886	277.752	NaN	0.000000	0.001615	0.001621	28.0779	76.1946	0.001665	45767.9	2.434703	173.788	271.768	1.148535	0.077118	0.076899	277.752	45767.9	0.072566	0.174684	1590.03	100048
202	2.000000	1.150861	7.36702e+06	-48739.1	955.818	-29761.7	0.000000	0.000000	7.162755	296.273	NaN	0.000000	0.001590	0.001622	28.0784	77.828	0.001829	42556	4.169158	173.897	296.902	1.150415	0.079226	0.078780	296.273	42556	0.074004	0.180757	1639.07	91450.7
202	2.000000	1.152756	7.36702e+06	-48739.1	955.818	-29761.7	0.000000	0.000000	7.165102	307.263	NaN	0.000000	0.001565	0.001638	28.078	81.3292	0.001883	43194.3	2.873875	173.71	300.716	1.152440	0.081121	0.080805	307.263	43194.3	0.075785	0.188416	1630.77	90916.3
202	2.000000	1.154755	7.36702e+06	-48739.1	955.819	-29761.7	0.000000	0.000000	7.167823	324.817	NaN	0.000000	0.001583	0.001631	28.0779	81.2888	0.001855	43829.2	1.492702	174.954	318.232	1.154540	0.083120	0.082905	324.817	43829.2	0.077562	0.196200	1655.54	90404
202	2.000000	1.156789	7.36703e+06	-48739.1	955.819	-29761.7	0.000000	0.000000	7.170238	334.101	NaN	0.000000	0.001615	0.001651	28.078	85.0762	0.001807	47074.4	6.428099	169.348	332.232	1.156483	0.085153	0.084848	334.101	47074.4	0.079830	0.206359	1619.03	94677.3
202	2.000000	1.158880	7.36703e+06	-48739.1	955.819	-29761.7	0.000000	0.000000	7.173123	353.407	NaN	0.000000	0.001603	0.001633	28.0779	86.1732	0.001718	50154.5	5.552066	170.497	355.086	1.158584	0.087245	0.086949	353.407	50154.5	0.081960	0.216113	1635.29	98569.6
202	2.000000	1.160822	7.36703e+06	-48739.1	955.819	-29761.7	0.000000	0.000000	7.175671	368.149	NaN	0.000000	0.001586	0.001648	28.0781	87.5292	0.001756	49848.5	2.859238	173.323	366.878	1.160473	0.089186	0.088838	368.149	49848.5	0.083647	0.223991	1643.59	96229.9
202	2.000000	1.162919	7.36703e+06	-48739.1	955.818	-29761.7	0.000000	0.000000	7.177640	365.036	NaN	0.000000	0.001579	0.001639	28.078	90.3523	0.001840	49115.4	4.046896	171.266	368.593	1.162778	0.091284	0.091142	365.036	49115.4	0.085710	0.233798	1561.33	92804.9
202	2.000000	1.164745	7.36703e+06	-48739.1	955.818	-29761.7	0.000000	0.000000	7.180934	400.74	NaN	0.000000	0.001603	0.001613	28.0781	91.4644	0.001829	50018.2	5.844514	169.981	397.05	1.164443	0.093109	0.092808	400.74	50018.2	0.087100	0.240523	1666.12	93180.1
202	2.000000	1.166755	7.36703e+06	-48739.1	955.818	-29761.7	0.000000	0.000000	7.183557	415.647	NaN	0.000000	0.001574	0.001595	28.0781	94.272	0.001866	50534.4	7.625298	168.039	412.287	1.166340	0.095120	0.094705	415.647	50534.4	0.088951	0.249610	1665.19	92412.3
202	2.000000	1.168828	7.36703e+06	-48739.1	955.819	-29761.7	0.000000	0.000000	7.186470	436.061	NaN	0.000000	0.001572	0.001635	28.0779	96.1084	0.001958	49095.2	6.562604	169.714	434.38	1.168409	0.097193	0.096774	436.061	49095.2	0.090532	0.257494	1693.48	88395.1
202	2.000000	1.170750	7.36703e+06	-48739.1	955.818	-29761.7	0.000000	0.000000	7.188888	448.131	NaN	0.000000	0.001574	0.001640	28.0779	96.2909	0.001780	54093.6	5.517840	170.091	443.952	1.170336	0.099115	0.098700	448.131	54093.6	0.092902	0.269533	1662.62	95194.8
202	2.000000	1.172860	7.36703e+06	-48739.1	955.818	-29761.7	0.000000	0.000000	7.191480	459.848	NaN	0.000000	0.001574	0.001645	28.079	100.698	0.001932	52133	6.412385	168.777	463.39	1.172541	0.101225	0.100906	459.848	52133	0.094610	0.278366	1651.96	90277.1
202	2.000000	1.174786	7.36703e+06	-48739.1	955.818	-29761.7	0.000000	0.000000	7.194389	483.765	NaN	0.000000	0.001605	0.001642	28.0794	99.7745	0.001808	55173.3	5.115619	170.278	481.41	1.174458	0.103150	0.102823	483.765	55173.3	0.096574	0.288693	1675.71	93817.6
202	2.000000	1.176745	7.36703e+06	-48739.1	955.818	-29761.7	0.000000	0.000000	7.197081	501.608	NaN	0.000000	0.001599	0.001665	28.0793	102.078	0.001797	56791.3	3.961195	170.896	497.554	1.176428	0.105109	0.104793	501.608	56791.3	0.098485	0.298904	1678.16	94905.1
202	2.000000	1.178793	7.36703e+06	-48739.1	955.818	-29761.7	0.000000	0.000000	7.199685	515.106	NaN	0.000000	0.001564	0.001667	28.0791	104.767	0.001765	59345.3	5.623312	169.416	512.129	1.178440	0.107158	0.106805	515.106	59345.3	0.100648	0.310666	1658.07	97277.6
202	2.000000	1.180730	7.36703e+06	-48739.1	955.819	-29761.7	0.000000	0.000000	7.202184	528.785	NaN	0.000000	0.001561	0.001688	28.0791	106.139	0.001787	59392.8	5.321867	168.959	524.421	1.180495	0.109095	0.108860	528.785	59392.8	0.102418	0.320444	1650.16	95858.5
202	2.000000	1.181236	7.36703e+06	-48739.1	955.819	-29761.7	0.000000	0.000000	7.203110	538.987	NaN	0.000000	0.001568	0.001694	28.0791	106.211	0.001740	61042.3	5.748251	-11.5618	530.734	1.180819	0.109601	0.109184	538.987	61042.3	0.102978	0.323573	1665.74	98043.3