File: remote_trans/data/nanoindenter/0828-1/data/Data_2025-08-06,11h17m57s/2025-07-22_16-23-58_1_514.txt
2025-07-22, 16:23:58, 1
Index	Phase	Displacement	Time	Pos X	Pos Y	Pos Z	Rot A	Rot B	Piezo Z	Force A	Force B	Gripper	Voltage A	Voltage B	Temperature	Amplitude force	Amplitude pos	Stiffness	Phase shift	Phase excitation	Force A raw	Displacement raw	HMax	HMax raw	Real Force	Real Stiffness	Contact Depth	Area	Hardness	Reduced Mod.
[#]	[#]	[um]	[s]	[um]	[um]	[um]	[m°]	[m°]	[um]	[uN]	[uN]	[V]	[V]	[V]	[°C]	[uN]	[um]	[N/m]	[°]	[°]	[uN]	[um]	[um]	[um]	[uN]	[N/m]	[um]	[um^2]	[MPa]	[MPa]
514	1.000000	0.001949	7.37008e+06	-51389.1	1005.82	-29752.6	0.000000	0.000000	6.002827	0.147297	NaN	0.000000	0.001542	0.001736	28.081	0.078459	0.001005	78.0819	54.7552	-170.344	0.005849	0.000651	-1.007786	-1.009084	0.147297	78.0819	-1.009201	-3.017397E+13	-4.881596E-15	NaN
514	1.000000	0.009897	7.37008e+06	-51389.1	1005.82	-29752.6	0.000000	0.000000	6.010771	0.028840	NaN	0.000000	0.001522	0.001728	28.081	0.043831	0.000974	45.0093	144.944	-171.454	0.017863	0.008570	-0.999838	-1.001165	0.028840	45.0093	-1.000319	-2.291170E+13	-1.258749E-15	NaN
514	1.000000	0.017885	7.37008e+06	-51389.1	1005.82	-29752.6	0.000000	0.000000	6.018760	0.065423	NaN	0.000000	0.001575	0.001733	28.0807	0.067058	0.001602	41.847	-93.5655	-161.331	0.097496	0.016540	-0.991850	-0.993195	0.065423	41.847	-0.993023	-1.827335E+13	-3.580245E-15	NaN
514	1.000000	0.025934	7.37008e+06	-51389.1	1005.82	-29752.6	0.000000	0.000000	6.026808	0.040173	NaN	0.000000	0.001603	0.001717	28.0807	0.046464	0.001821	25.5183	55.3031	-163.047	0.084620	0.024604	-0.983801	-0.985131	0.040173	25.5183	-0.984982	-1.424034E+13	-2.821078E-15	NaN
514	1.000000	0.033857	7.37008e+06	-51389.1	1005.82	-29752.6	0.000000	0.000000	6.034734	0.098493	NaN	0.000000	0.001626	0.001719	28.0806	0.094012	0.001969	47.7453	-131.928	-162.279	0.172980	0.032530	-0.975878	-0.977205	0.098493	47.7453	-0.977425	-1.126461E+13	-8.743551E-15	NaN
514	1.000000	0.041846	7.37008e+06	-51389.1	1005.82	-29752.6	0.000000	0.000000	6.042721	0.053042	NaN	0.000000	0.001633	0.001742	28.0806	0.052423	0.002037	25.7346	-5.141040	-164.339	0.051734	0.040573	-0.967889	-0.969162	0.053042	25.7346	-0.969434	-8.791037E+12	-6.033679E-15	NaN
514	1.000000	0.049881	7.37008e+06	-51389.1	1005.82	-29752.6	0.000000	0.000000	6.050755	0.035989	NaN	0.000000	0.001623	0.001723	28.0812	0.020196	0.001971	10.2445	-159.395	-161.619	0.031604	0.048577	-0.959854	-0.961158	0.035989	10.2445	-0.962489	-7.086312E+12	-5.078701E-15	NaN
514	1.000000	0.057875	7.37008e+06	-51389.1	1005.82	-29752.6	0.000000	0.000000	6.058753	0.120591	NaN	0.000000	0.001624	0.001739	28.0806	0.052427	0.002028	25.8488	14.0646	-164.641	0.112157	0.056611	-0.951860	-0.953124	0.120591	25.8488	-0.955359	-5.679237E+12	-2.123368E-14	NaN
514	1.000000	0.065869	7.37008e+06	-51389.1	1005.82	-29752.6	0.000000	0.000000	6.066741	-0.016251	NaN	0.000000	0.001660	0.001761	28.0809	0.039160	0.001814	21.5892	94.69	-167.525	0.029861	0.064510	-0.943866	-0.945225	-0.016251	21.5892	-0.943301	-3.905469E+12	4.161172E-15	NaN
514	1.000000	0.073884	7.37008e+06	-51389.1	1005.82	-29752.6	0.000000	0.000000	6.074761	0.125725	NaN	0.000000	0.001669	0.001758	28.0803	0.082320	0.002053	40.0882	-26.6874	-168.25	0.114252	0.072591	-0.935851	-0.937144	0.125725	40.0882	-0.938203	-3.333487E+12	-3.771572E-14	NaN
514	1.000000	0.081892	7.37008e+06	-51389.1	1005.82	-29752.6	0.000000	0.000000	6.082765	0.005684	NaN	0.000000	0.001608	0.001736	28.0793	0.029711	0.001871	15.8802	-164.901	-162.774	0.064276	0.080597	-0.927843	-0.929138	0.005684	15.8802	-0.928111	-2.436144E+12	-2.333043E-15	NaN
514	1.000000	0.089907	7.37008e+06	-51389.1	1005.82	-29752.6	0.000000	0.000000	6.090783	0.080500	NaN	0.000000	0.001597	0.001784	28.0795	0.034096	0.001987	17.16	125.233	-165.673	0.129481	0.088532	-0.919828	-0.921203	0.080500	17.16	-0.923346	-2.100797E+12	-3.831856E-14	NaN
514	1.000000	0.097869	7.37008e+06	-51389.1	1005.82	-29752.6	0.000000	0.000000	6.098745	0.081959	NaN	0.000000	0.001613	0.001826	28.0793	0.103246	0.001931	53.466	-76.6011	-164.913	0.132876	0.096572	-0.911866	-0.913164	0.081959	53.466	-0.913016	-1.523681E+12	-5.379010E-14	NaN
514	1.000000	0.105894	7.37008e+06	-51389.1	1005.82	-29752.6	0.000000	0.000000	6.106768	0.058114	NaN	0.000000	0.001539	0.001810	28.0797	0.050787	0.002095	24.2451	-166.442	-162.794	0.106308	0.104558	-0.903841	-0.905177	0.058114	24.2451	-0.905639	-1.211306E+12	-4.797625E-14	NaN
514	1.000000	0.113910	7.37008e+06	-51389.1	1005.82	-29752.6	0.000000	0.000000	6.114784	0.037145	NaN	0.000000	0.001562	0.001784	28.0794	0.033026	0.002108	15.6644	53.4477	-160.294	-0.002233	0.112586	-0.895825	-0.897149	0.037145	15.6644	-0.897603	-9.433690E+11	-3.937441E-14	NaN
514	1.000000	0.121894	7.37008e+06	-51389.1	1005.82	-29752.6	0.000000	0.000000	6.122767	0.007020	NaN	0.000000	0.001592	0.001841	28.0795	0.067578	0.001949	34.6687	83.9358	-160.985	0.086454	0.120546	-0.887841	-0.889189	0.007020	34.6687	-0.887993	-6.994885E+11	-1.003606E-14	NaN
514	1.000000	0.129901	7.37008e+06	-51389.1	1005.82	-29752.6	0.000000	0.000000	6.130775	0.030630	NaN	0.000000	0.001580	0.001777	28.0795	0.058811	0.001998	29.4409	57.3112	-164.376	0.076093	0.128596	-0.879834	-0.881139	0.030630	29.4409	-0.880614	-5.559189E+11	-5.509811E-14	NaN
514	1.000000	0.137905	7.37008e+06	-51389.1	1005.82	-29752.6	0.000000	0.000000	6.138781	0.078549	NaN	0.000000	0.001573	0.001784	28.0793	0.067153	0.002018	33.2697	-160.177	-162.429	0.087792	0.136578	-0.871830	-0.873157	0.078549	33.2697	-0.873600	-4.468393E+11	-1.757874E-13	NaN
514	1.000000	0.145922	7.37008e+06	-51389.1	1005.82	-29752.6	0.000000	0.000000	6.146793	-0.023622	NaN	0.000000	0.001591	0.001784	28.0797	0.069681	0.001871	37.2382	-120.313	-167.228	0.053395	0.144630	-0.863814	-0.865105	-0.023622	37.2382	-0.863338	-3.245599E+11	7.278298E-14	NaN
514	1.000000	0.153911	7.37008e+06	-51389.1	1005.82	-29752.6	0.000000	0.000000	6.154786	0.053780	NaN	0.000000	0.001537	0.001787	28.0794	0.041122	0.002045	20.109	-1.058577	-164.769	0.068218	0.152554	-0.855824	-0.857181	0.053780	20.109	-0.857830	-2.733653E+11	-1.967321E-13	NaN
514	1.000000	0.161913	7.37008e+06	-51389.1	1005.82	-29752.6	0.000000	0.000000	6.162786	0.023030	NaN	0.000000	0.001573	0.001788	28.0796	0.095447	0.001920	49.7063	174.895	-161.805	0.001107	0.160599	-0.847822	-0.849136	0.023030	49.7063	-0.848169	-2.022777E+11	-1.138548E-13	NaN
514	1.000000	0.169897	7.37008e+06	-51389.1	1005.82	-29752.6	0.000000	0.000000	6.170770	0.022043	NaN	0.000000	0.001614	0.001785	28.0795	0.044752	0.002031	22.0316	-116.983	-166.83	0.004196	0.168665	-0.839838	-0.841070	0.022043	22.0316	-0.840588	-1.596852E+11	-1.380409E-13	NaN
514	1.000000	0.177915	7.37008e+06	-51389.1	1005.82	-29752.6	0.000000	0.000000	6.178788	0.008941	NaN	0.000000	0.001574	0.001810	28.0793	0.060879	0.001907	31.923	19.262	-164.218	0.017273	0.176638	-0.831820	-0.833097	0.008941	31.923	-0.832030	-1.222624E+11	-7.313145E-14	NaN
514	1.000000	0.185947	7.37008e+06	-51389.1	1005.82	-29752.6	0.000000	0.000000	6.186820	0.017433	NaN	0.000000	0.001609	0.001786	28.0795	0.030602	0.002058	14.8663	43.7996	-164.055	0.026105	0.184619	-0.823788	-0.825116	0.017433	14.8663	-0.824667	-9.716130E+10	-1.794202E-13	NaN
514	1.000000	0.193927	7.37008e+06	-51389.1	1005.82	-29752.6	0.000000	0.000000	6.194803	0.079391	NaN	0.000000	0.001564	0.001787	28.0793	0.048794	0.001939	25.166	-101.928	-164.215	0.120480	0.192601	-0.815808	-0.817134	0.079391	25.166	-0.818174	-7.933166E+10	-1.000752E-12	NaN
514	1.000000	0.201931	7.37008e+06	-51389.1	1005.82	-29752.6	0.000000	0.000000	6.202807	0.093341	NaN	0.000000	0.001545	0.001798	28.0799	0.060635	0.002151	28.1876	13.5337	-162.737	0.061706	0.200603	-0.807804	-0.809132	0.093341	28.1876	-0.810288	-6.201162E+10	-1.505224E-12	NaN
514	1.000000	0.209960	7.37008e+06	-51389.1	1005.82	-29752.6	0.000000	0.000000	6.210835	0.080747	NaN	0.000000	0.001591	0.001797	28.0796	0.037269	0.001974	18.8785	103.586	-167.819	0.122097	0.208673	-0.799775	-0.801062	0.080747	18.8785	-0.802983	-4.935788E+10	-1.635947E-12	NaN
514	1.000000	0.217912	7.37008e+06	-51389.1	1005.82	-29752.6	0.000000	0.000000	6.218787	0.061508	NaN	0.000000	0.001563	0.001806	28.0807	0.036689	0.002067	17.7538	-40.4785	-167.41	0.061598	0.216646	-0.791823	-0.793089	0.061508	17.7538	-0.794421	-3.776791E+10	-1.628565E-12	NaN
514	1.000000	0.225922	7.37008e+06	-51389.1	1005.82	-29752.6	0.000000	0.000000	6.226796	0.041688	NaN	0.000000	0.001619	0.001758	28.0805	0.086666	0.001945	44.5643	-63.782	-167.499	0.050619	0.224630	-0.783813	-0.785105	0.041688	44.5643	-0.784514	-2.770561E+10	-1.504671E-12	NaN
514	1.000000	0.233935	7.37008e+06	-51389.1	1005.82	-29752.6	0.000000	0.000000	6.234807	-0.019456	NaN	0.000000	0.001588	0.001784	28.0805	0.063304	0.001883	33.6222	81.6966	-162.223	-0.037253	0.232650	-0.775800	-0.777085	-0.019456	33.6222	-0.775366	-2.080897E+10	9.350052E-13	NaN
514	1.000000	0.241923	7.37008e+06	-51389.1	1005.82	-29752.6	0.000000	0.000000	6.242796	0.006839	NaN	0.000000	0.001596	0.001772	28.0808	0.023913	0.002003	11.9362	-1.719983	-167.464	-0.013542	0.240652	-0.767812	-0.769083	0.006839	11.9362	-0.768242	-1.664934E+10	-4.107934E-13	NaN
514	1.000000	0.249968	7.37008e+06	-51389.1	1005.82	-29752.6	0.000000	0.000000	6.250842	0.062052	NaN	0.000000	0.001580	0.001781	28.0805	0.073954	0.001998	37.0146	-136.196	-167.905	0.017140	0.248712	-0.759767	-0.761023	0.062052	37.0146	-0.761025	-1.328136E+10	-4.672131E-12	NaN
514	1.000000	0.257949	7.37008e+06	-51389.1	1005.82	-29752.6	0.000000	0.000000	6.258823	0.050499	NaN	0.000000	0.001572	0.001799	28.0806	0.158741	0.001986	79.9392	-81.524	-164.784	0.038589	0.256639	-0.751786	-0.753096	0.050499	79.9392	-0.752260	-1.009210E+10	-5.003836E-12	NaN
514	1.000000	0.265941	7.37008e+06	-51389.1	1005.82	-29752.6	0.000000	0.000000	6.266813	0.006353	NaN	0.000000	0.001573	0.001767	28.0805	0.027877	0.002080	13.4032	112.187	-161.84	0.042454	0.264636	-0.743794	-0.745099	0.006353	13.4032	-0.744150	-7.826535E+9	-8.117163E-13	NaN
514	1.000000	0.273954	7.37008e+06	-51389.1	1005.82	-29752.6	0.000000	0.000000	6.274828	0.042403	NaN	0.000000	0.001602	0.001722	28.0808	0.049703	0.002040	24.3672	-46.0317	-168.452	0.052356	0.272692	-0.735781	-0.737043	0.042403	24.3672	-0.737086	-6.271410E+9	-6.761272E-12	NaN
514	1.000000	0.281954	7.37008e+06	-51389.1	1005.82	-29752.6	0.000000	0.000000	6.282829	0.057532	NaN	0.000000	0.001551	0.001778	28.0804	0.085810	0.002022	42.4452	165.5	-164.571	0.025395	0.280692	-0.727781	-0.729043	0.057532	42.4452	-0.728797	-4.835216E+9	-1.189849E-11	NaN
514	1.000000	0.289978	7.37008e+06	-51389.1	1005.82	-29752.6	0.000000	0.000000	6.290850	0.008071	NaN	0.000000	0.001536	0.001794	28.0805	0.106784	0.002010	53.1189	166.18	-165.136	0.024168	0.288692	-0.719757	-0.721043	0.008071	53.1189	-0.719871	-3.653588E+9	-2.209129E-12	NaN
514	1.000000	0.297982	7.37008e+06	-51389.1	1005.82	-29752.6	0.000000	0.000000	6.298855	0.028905	NaN	0.000000	0.001548	0.001780	28.0803	0.035281	0.002122	16.6294	-23.1364	-163.03	0.065458	0.296708	-0.711753	-0.713027	0.028905	16.6294	-0.713057	-2.949609E+9	-9.799463E-12	NaN
514	1.000000	0.305958	7.37008e+06	-51389.1	1005.82	-29752.6	0.000000	0.000000	6.306834	0.093497	NaN	0.000000	0.001540	0.001804	28.0806	0.044390	0.002013	22.0502	173.025	-163.012	0.089127	0.304646	-0.703777	-0.705089	0.093497	22.0502	-0.706957	-2.435111E+9	-3.839548E-11	NaN
514	1.000000	0.313967	7.37008e+06	-51389.1	1005.82	-29752.6	0.000000	0.000000	6.314840	0.009665	NaN	0.000000	0.001553	0.001774	28.0808	0.110804	0.002068	53.5776	83.2998	-167.092	0.086091	0.312724	-0.695768	-0.697011	0.009665	53.5776	-0.695903	-1.720193E+9	-5.618572E-12	NaN
514	1.000000	0.321987	7.37008e+06	-51389.1	1005.82	-29752.6	0.000000	0.000000	6.322861	0.043833	NaN	0.000000	0.001550	0.001792	28.0804	0.116185	0.002022	57.4602	55.8685	-168.399	0.026669	0.320719	-0.687748	-0.689017	0.043833	57.4602	-0.688320	-1.355055E+9	-3.234747E-11	NaN
514	1.000000	0.329994	7.37008e+06	-51389.1	1005.82	-29752.6	0.000000	0.000000	6.330869	0.083986	NaN	0.000000	0.001534	0.001760	28.0806	0.163506	0.001991	82.1124	-96.8763	-163.486	0.084751	0.328655	-0.679741	-0.681080	0.083986	82.1124	-0.680508	-1.059641E+9	-7.925901E-11	NaN
514	1.000000	0.338005	7.37008e+06	-51389.1	1005.82	-29752.6	0.000000	0.000000	6.338880	0.062918	NaN	0.000000	0.001570	0.001743	28.0806	0.092684	0.002079	44.5874	130.669	-162.241	-0.027072	0.336645	-0.671730	-0.673090	0.062918	44.5874	-0.672788	-8.309001E+8	-7.572261E-11	NaN
514	1.000000	0.345974	7.37008e+06	-51389.1	1005.82	-29752.6	0.000000	0.000000	6.346849	0.062801	NaN	0.000000	0.001563	0.001789	28.0805	0.019466	0.001942	10.0256	98.9954	-163.822	0.090202	0.344713	-0.663761	-0.665022	0.062801	10.0256	-0.668459	-7.249419E+8	-8.662917E-11	NaN
514	1.000000	0.353994	7.37008e+06	-51389.1	1005.82	-29752.6	0.000000	0.000000	6.354867	0.016989	NaN	0.000000	0.001547	0.001792	28.0793	0.054810	0.001912	28.662	169.87	-166.349	0.145086	0.352675	-0.655741	-0.657060	0.016989	28.662	-0.656186	-4.922836E+8	-3.451063E-11	NaN
514	1.000000	0.361992	7.37008e+06	-51389.1	1005.82	-29752.6	0.000000	0.000000	6.362866	0.044576	NaN	0.000000	0.001547	0.001797	28.0793	0.103723	0.001949	53.2114	141.175	-163.177	0.002933	0.360711	-0.647743	-0.649024	0.044576	53.2114	-0.648372	-3.846920E+8	-1.158757E-10	NaN
514	1.000000	0.370014	7.37008e+06	-51389.1	1005.82	-29752.6	0.000000	0.000000	6.370888	0.044219	NaN	0.000000	0.001532	0.001784	28.0793	0.042523	0.002049	20.7517	-148.121	-164.411	0.030446	0.368729	-0.639721	-0.641006	0.044219	20.7517	-0.641319	-3.078855E+8	-1.436211E-10	NaN
514	1.000000	0.378004	7.37008e+06	-51389.1	1005.82	-29752.6	0.000000	0.000000	6.378881	0.136092	NaN	0.000000	0.001564	0.001740	28.0794	0.070442	0.001942	36.2697	-70.8653	-163.44	0.085432	0.376711	-0.631731	-0.633024	0.136092	36.2697	-0.634546	-2.485617E+8	-5.475166E-10	NaN
514	1.000000	0.386002	7.37008e+06	-51389.1	1005.82	-29752.6	0.000000	0.000000	6.386876	0.040955	NaN	0.000000	0.001567	0.001771	28.0792	0.097852	0.001997	48.9994	98.2054	-164.602	-0.009222	0.384709	-0.623733	-0.625026	0.040955	48.9994	-0.624360	-1.801172E+8	-2.273801E-10	NaN
514	1.000000	0.394026	7.37008e+06	-51389.1	1005.82	-29752.6	0.000000	0.000000	6.394898	0.003010	NaN	0.000000	0.001552	0.001769	28.0794	0.050949	0.002017	25.2561	33.8514	-163.22	0.021434	0.392637	-0.615709	-0.617098	0.003010	25.2561	-0.615798	-1.373631E+8	-2.191440E-11	NaN
514	1.000000	0.402016	7.37008e+06	-51389.1	1005.82	-29752.6	0.000000	0.000000	6.402890	0.031807	NaN	0.000000	0.001544	0.001750	28.0794	0.086312	0.001985	43.4719	-46.9325	-164.924	-0.021517	0.400693	-0.607719	-0.609042	0.031807	43.4719	-0.608267	-1.082114E+8	-2.939381E-10	NaN
514	1.000000	0.410015	7.37008e+06	-51389.1	1005.82	-29752.6	0.000000	0.000000	6.410890	0.066297	NaN	0.000000	0.001535	0.001752	28.0793	0.046831	0.002090	22.4125	18.0211	-164.119	0.088137	0.408770	-0.599720	-0.600965	0.066297	22.4125	-0.601938	-8.854231E+7	-7.487551E-10	NaN
514	1.000000	0.418035	7.37008e+06	-51389.1	1005.82	-29752.6	0.000000	0.000000	6.418910	0.081492	NaN	0.000000	0.001552	0.001741	28.0794	0.072151	0.001802	40.0293	11.3845	-165.373	0.046885	0.416702	-0.591700	-0.593033	0.081492	40.0293	-0.593227	-6.716622E+7	-1.213289E-9	NaN
514	1.000000	0.426063	7.37008e+06	-51389.1	1005.82	-29752.6	0.000000	0.000000	6.426936	0.028233	NaN	0.000000	0.001564	0.001746	28.0796	0.113978	0.001921	59.336	-15.093	-164.866	-0.022786	0.424700	-0.583672	-0.585035	0.028233	59.336	-0.584029	-5.015573E+7	-5.629059E-10	NaN
514	1.000000	0.434035	7.37008e+06	-51389.1	1005.82	-29752.6	0.000000	0.000000	6.434910	0.057074	NaN	0.000000	0.001545	0.001746	28.0794	0.096218	0.002058	46.7493	-56.2559	-166.14	0.052548	0.432756	-0.575700	-0.576979	0.057074	46.7493	-0.576616	-3.962849E+7	-1.440239E-9	NaN
514	1.000000	0.442040	7.37008e+06	-51389.1	1005.82	-29752.6	0.000000	0.000000	6.442912	-0.005274	NaN	0.000000	0.001597	0.001719	28.0792	0.029831	0.002107	14.1583	-88.3865	-159.497	0.019827	0.440675	-0.567695	-0.569060	-0.005274	14.1583	-0.567416	-2.957458E+7	1.783294E-10	NaN
514	1.000000	0.450064	7.37008e+06	-51389.1	1005.82	-29752.6	0.000000	0.000000	6.450940	0.069972	NaN	0.000000	0.001529	0.001744	28.0792	0.084993	0.001927	44.1046	53.8343	-164.655	0.114823	0.448740	-0.559671	-0.560995	0.069972	44.1046	-0.560860	-2.400386E+7	-2.915034E-9	NaN
514	1.000000	0.458069	7.37008e+06	-51389.1	1005.82	-29752.6	0.000000	0.000000	6.458943	0.061143	NaN	0.000000	0.001550	0.001744	28.0792	0.003720	0.002002	1.858648	-149.229	-162.822	0.020502	0.456725	-0.551666	-0.553010	0.061143	1.858648	-0.576339	-3.928099E+7	-1.556544E-9	NaN
514	1.000000	0.466032	7.37008e+06	-51389.1	1005.82	-29752.6	0.000000	0.000000	6.466908	0.081744	NaN	0.000000	0.001556	0.001745	28.0795	0.086067	0.002100	40.9921	49.6045	-167.567	0.119474	0.464728	-0.543703	-0.545007	0.081744	40.9921	-0.545199	-1.456914E+7	-5.610742E-9	NaN
514	1.000000	0.474071	7.37008e+06	-51389.1	1005.82	-29752.6	0.000000	0.000000	6.474947	0.082491	NaN	0.000000	0.001575	0.001729	28.079	0.067644	0.001968	34.3691	-118.544	-166.087	0.069189	0.472690	-0.535664	-0.537045	0.082491	34.3691	-0.537464	-1.138099E+7	-7.248113E-9	NaN
514	1.000000	0.482078	7.37008e+06	-51389.1	1005.82	-29752.6	0.000000	0.000000	6.482950	0.007777	NaN	0.000000	0.001541	0.001745	28.0795	0.138540	0.001940	71.4258	133.525	-164.099	0.070265	0.480734	-0.527657	-0.529001	0.007777	71.4258	-0.527739	-8.34008e+06	-9.325066E-10	NaN
514	1.000000	0.490036	7.37008e+06	-51389.1	1005.82	-29752.6	0.000000	0.000000	6.490912	0.093777	NaN	0.000000	0.001561	0.001741	28.0805	0.041123	0.001985	20.7203	7.331199	-163.348	0.027011	0.488778	-0.519699	-0.520957	0.093777	20.7203	-0.523094	-7.18812e+06	-1.304607E-8	NaN
514	1.000000	0.498049	7.37008e+06	-51389.1	1005.82	-29752.6	0.000000	0.000000	6.498925	0.090243	NaN	0.000000	0.001571	0.001763	28.0804	0.103254	0.001976	52.2521	-106.782	-159.916	0.064079	0.496738	-0.511686	-0.512997	0.090243	52.2521	-0.512981	-5.19912e+06	-1.735730E-8	NaN
514	1.000000	0.506070	7.37008e+06	-51389.1	1005.82	-29752.6	0.000000	0.000000	6.506945	0.048045	NaN	0.000000	0.001543	0.001761	28.0806	0.051362	0.001919	26.7703	111.294	-161.03	0.020907	0.504762	-0.503665	-0.504973	0.048045	26.7703	-0.505011	-4.02618e+06	-1.193309E-8	NaN
514	1.000000	0.514067	7.37008e+06	-51389.1	1005.82	-29752.6	0.000000	0.000000	6.514941	0.040987	NaN	0.000000	0.001562	0.001774	28.0805	0.046281	0.001953	23.6917	52.6622	-161.777	0.050131	0.512762	-0.495668	-0.496973	0.040987	23.6917	-0.496966	-3.10939e+06	-1.318179E-8	NaN
514	1.000000	0.522094	7.37008e+06	-51389.1	1005.82	-29752.6	0.000000	0.000000	6.522968	0.044154	NaN	0.000000	0.001577	0.001747	28.0806	0.041737	0.002021	20.6504	68.4981	-165.109	0.075800	0.520750	-0.487641	-0.488985	0.044154	20.6504	-0.489245	-2.42572e+06	-1.820227E-8	NaN
514	1.000000	0.530071	7.37008e+06	-51389.1	1005.82	-29752.6	0.000000	0.000000	6.530946	0.068881	NaN	0.000000	0.001585	0.001753	28.0805	0.065193	0.001966	33.1669	149.537	-166.148	0.041037	0.528765	-0.479664	-0.480970	0.068881	33.1669	-0.481221	-1.87337e+06	-3.676828E-8	NaN
514	1.000000	0.538045	7.37008e+06	-51389.1	1005.82	-29752.6	0.000000	0.000000	6.538919	0.031425	NaN	0.000000	0.001590	0.001744	28.0805	0.021313	0.001952	10.9169	50.373	-164.132	0.094577	0.536802	-0.471690	-0.472933	0.031425	10.9169	-0.473848	-1.47694e+06	-2.127714E-8	NaN
514	1.000000	0.546084	7.37008e+06	-51389.1	1005.82	-29752.6	0.000000	0.000000	6.546957	0.035911	NaN	0.000000	0.001562	0.001784	28.0805	0.046190	0.002097	22.0296	-32.2745	-166.973	0.092030	0.544766	-0.463651	-0.464969	0.035911	22.0296	-0.464874	-1.10529e+06	-3.248956E-8	NaN
514	1.000000	0.554094	7.37008e+06	-51389.1	1005.82	-29752.6	0.000000	0.000000	6.554967	0.018856	NaN	0.000000	0.001559	0.001767	28.0805	0.095097	0.001930	49.2701	-140.273	-164.191	0.036989	0.552747	-0.455641	-0.456988	0.018856	49.2701	-0.455928	-827516	-2.278652E-8	NaN
514	1.000000	0.562108	7.37008e+06	-51389.1	1005.82	-29752.6	0.000000	0.000000	6.562982	0.051229	NaN	0.000000	0.001553	0.001795	28.0818	0.069115	0.002015	34.2944	-115.32	-164.304	-0.010994	0.560769	-0.447627	-0.448966	0.051229	34.2944	-0.448747	-655693	-7.812987E-8	NaN
514	1.000000	0.570105	7.37008e+06	-51389.1	1005.82	-29752.6	0.000000	0.000000	6.570979	0.045538	NaN	0.000000	0.001620	0.001761	28.0806	0.062855	0.001959	32.0801	130.34	-164.22	0.088335	0.568783	-0.439630	-0.440952	0.045538	32.0801	-0.440695	-504856	-9.020056E-8	NaN
514	1.000000	0.578101	7.37008e+06	-51389.1	1005.82	-29752.6	0.000000	0.000000	6.578973	-0.004181	NaN	0.000000	0.001643	0.001799	28.0805	0.052748	0.002137	24.6852	55.1282	-164.905	-0.024219	0.576819	-0.431634	-0.432916	-0.004181	24.6852	-0.431507	-374436	1.116573E-8	NaN
514	1.000000	0.586049	7.37008e+06	-51389.1	1005.82	-29752.6	0.000000	0.000000	6.586922	0.023424	NaN	0.000000	0.001642	0.001770	28.0807	0.101452	0.002026	50.0634	-5.382252	-164.628	0.098875	0.584811	-0.423686	-0.424924	0.023424	50.0634	-0.424037	-293521	-7.980438E-8	NaN
514	1.000000	0.594095	7.37008e+06	-51389.1	1005.82	-29752.6	0.000000	0.000000	6.594970	0.071697	NaN	0.000000	0.001629	0.001718	28.0805	0.045368	0.002006	22.6212	135.204	-163.146	0.078090	0.592842	-0.415640	-0.416893	0.071697	22.6212	-0.418017	-241149	-2.973160E-7	NaN
514	1.000000	0.602121	7.37008e+06	-51389.1	1005.82	-29752.6	0.000000	0.000000	6.602996	0.056383	NaN	0.000000	0.001642	0.001682	28.0807	0.043745	0.001928	22.6924	113.623	-166.187	0.075078	0.600821	-0.407614	-0.408914	0.056383	22.6924	-0.409477	-182375	-3.091575E-7	NaN
514	1.000000	0.610100	7.37008e+06	-51389.1	1005.82	-29752.6	0.000000	0.000000	6.610975	0.075520	NaN	0.000000	0.001619	0.001733	28.0805	0.102597	0.001989	51.5784	-101.712	-163.131	0.089549	0.608784	-0.399635	-0.400951	0.075520	51.5784	-0.400733	-136915	-5.515827E-7	NaN
514	1.000000	0.618084	7.37008e+06	-51389.1	1005.82	-29752.6	0.000000	0.000000	6.618960	0.088212	NaN	0.000000	0.001636	0.001685	28.0807	0.097906	0.002056	47.62	-56.0559	-162.257	0.128682	0.616798	-0.391651	-0.392937	0.088212	47.62	-0.393040	-106325	-8.296419E-7	NaN
514	1.000000	0.626129	7.37008e+06	-51389.1	1005.82	-29752.6	0.000000	0.000000	6.627003	0.048901	NaN	0.000000	0.001594	0.001713	28.0797	0.094088	0.002060	45.6788	111.372	-165.598	0.091105	0.624796	-0.383606	-0.384939	0.048901	45.6788	-0.384409	-80004.6	-6.112229E-7	NaN
514	1.000000	0.634123	7.37008e+06	-51389.1	1005.82	-29752.6	0.000000	0.000000	6.634995	-0.016507	NaN	0.000000	0.001561	0.001714	28.0794	0.034530	0.001968	17.5477	30.3832	-164.647	0.052712	0.632806	-0.375612	-0.376930	-0.016507	17.5477	-0.374906	-58442.2	2.824440E-7	NaN
514	1.000000	0.642122	7.37008e+06	-51389.1	1005.82	-29752.6	0.000000	0.000000	6.642999	0.128107	NaN	0.000000	0.001594	0.001707	28.0792	0.067141	0.001931	34.778	-129.38	-162.353	0.121741	0.640792	-0.367613	-0.368943	0.128107	34.778	-0.370376	-50297	-2.547017E-6	NaN
514	1.000000	0.650153	7.37008e+06	-51389.1	1005.82	-29752.6	0.000000	0.000000	6.651025	-0.008041	NaN	0.000000	0.001584	0.001704	28.0795	0.048106	0.002134	22.5464	140.491	-162.985	0.023501	0.648790	-0.359582	-0.360945	-0.008041	22.5464	-0.359315	-34828.5	2.308673E-7	NaN
514	1.000000	0.658127	7.37008e+06	-51389.1	1005.82	-29752.6	0.000000	0.000000	6.658999	-0.004403	NaN	0.000000	0.001564	0.001768	28.0793	0.030659	0.001950	15.7247	-48.1343	-161.275	-0.072642	0.656799	-0.351608	-0.352936	-0.004403	15.7247	-0.351398	-26747.9	1.646049E-7	NaN
514	1.000000	0.666155	7.37008e+06	-51389.1	1005.82	-29752.6	0.000000	0.000000	6.667030	0.078562	NaN	0.000000	0.001579	0.001753	28.0794	0.089984	0.001985	45.3232	-108.409	-164.081	0.092095	0.664812	-0.343580	-0.344923	0.078562	45.3232	-0.344880	-21508.7	-3.652563E-6	NaN
514	1.000000	0.674134	7.37008e+06	-51389.1	1005.82	-29752.6	0.000000	0.000000	6.675008	0.048050	NaN	0.000000	0.001577	0.001721	28.0795	0.136814	0.001887	72.5172	-166.545	-162.604	-0.082967	0.672839	-0.335601	-0.336896	0.048050	72.5172	-0.336098	-16018.6	-2.999661E-6	NaN
514	1.000000	0.682146	7.37008e+06	-51389.1	1005.82	-29752.6	0.000000	0.000000	6.683021	0.059441	NaN	0.000000	0.001604	0.001738	28.0793	0.046370	0.002013	23.0313	-150.123	-164.49	0.110677	0.680779	-0.327589	-0.328956	0.059441	23.0313	-0.329524	-12837.6	-4.630248E-6	NaN
514	1.000000	0.690122	7.37008e+06	-51389.1	1005.82	-29752.6	0.000000	0.000000	6.690999	0.119883	NaN	0.000000	0.001595	0.001700	28.0793	0.107349	0.001998	53.7401	177.373	-162.972	0.136282	0.688854	-0.319613	-0.320881	0.119883	53.7401	-0.321287	-9717.8	-1.233638E-5	NaN
514	1.000000	0.698184	7.37008e+06	-51389.1	1005.82	-29752.6	0.000000	0.000000	6.699058	0.027734	NaN	0.000000	0.001597	0.001725	28.0793	0.053240	0.002046	26.0234	49.9669	-166.28	0.060013	0.696832	-0.311551	-0.312903	0.027734	26.0234	-0.312350	-7174.78	-3.865423E-6	NaN
514	1.000000	0.706131	7.37008e+06	-51389.1	1005.82	-29752.6	0.000000	0.000000	6.707006	0.055876	NaN	0.000000	0.001564	0.001771	28.0794	0.094963	0.002069	45.8936	-130.32	-161.233	-0.004392	0.704862	-0.303604	-0.304873	0.055876	45.8936	-0.304517	-5492.71	-1.017275E-5	NaN
514	1.000000	0.714147	7.37008e+06	-51389.1	1005.82	-29752.6	0.000000	0.000000	6.715020	0.020788	NaN	0.000000	0.001555	0.001693	28.0794	0.023816	0.002019	11.7945	-80.958	-167.438	0.077546	0.712860	-0.295588	-0.296875	0.020788	11.7945	-0.296910	-4232.4	-4.911524E-6	NaN
514	1.000000	0.722195	7.37008e+06	-51389.1	1005.82	-29752.6	0.000000	0.000000	6.723065	-0.045064	NaN	0.000000	0.001564	0.001733	28.0792	0.113075	0.001881	60.1054	71.0307	-168.649	-0.043456	0.720806	-0.287540	-0.288929	-0.045064	60.1054	-0.286978	-3005.92	1.499163E-5	NaN
514	1.000000	0.730141	7.37008e+06	-51389.1	1005.82	-29752.6	0.000000	0.000000	6.731013	-0.007493	NaN	0.000000	0.001558	0.001719	28.0794	0.027984	0.001936	14.4556	169.95	-165.944	-0.002479	0.728838	-0.279594	-0.280897	-0.007493	14.4556	-0.279205	-2296.01	3.263643E-6	NaN
514	1.000000	0.738160	7.37008e+06	-51389.1	1005.82	-29752.6	0.000000	0.000000	6.739033	0.002469	NaN	0.000000	0.001571	0.001711	28.0792	0.100641	0.002087	48.2157	11.6806	-166.208	0.077659	0.736834	-0.271575	-0.272901	0.002469	48.2157	-0.271613	-1762.18	-1.400972E-6	NaN
514	1.000000	0.746139	7.37008e+06	-51389.1	1005.82	-29752.6	0.000000	0.000000	6.747013	0.039595	NaN	0.000000	0.001502	0.001710	28.0793	0.101046	0.002109	47.906	78.4958	-162.678	0.079062	0.744823	-0.263596	-0.264912	0.039595	47.906	-0.264216	-1359.61	-2.912239E-5	NaN
514	1.000000	0.754178	7.37008e+06	-51389.1	1005.82	-29752.6	0.000000	0.000000	6.755054	0.086443	NaN	0.000000	0.001598	0.001718	28.0812	0.034158	0.001845	18.5099	149.661	-166.108	0.093181	0.752851	-0.255557	-0.256884	0.086443	18.5099	-0.259060	-1133.7	-7.624800E-5	NaN
514	1.000000	0.762203	7.37008e+06	-51389.1	1005.82	-29752.6	0.000000	0.000000	6.763075	-0.007872	NaN	0.000000	0.001588	0.001759	28.0842	0.138432	0.001931	71.7023	-61.2594	-167.638	0.078479	0.760817	-0.247532	-0.248918	-0.007872	71.7023	-0.247450	-750.715	1.048593E-5	NaN
514	1.000000	0.770179	7.37008e+06	-51389.1	1005.82	-29752.6	0.000000	0.000000	6.771055	0.081130	NaN	0.000000	0.001591	0.001755	28.0813	0.051278	0.002168	23.6555	-55.7929	-164.921	0.083326	0.768878	-0.239556	-0.240857	0.081130	23.6555	-0.242128	-620.524	-0.000131	NaN
514	1.000000	0.778195	7.37008e+06	-51389.1	1005.82	-29752.6	0.000000	0.000000	6.779068	0.008140	NaN	0.000000	0.001574	0.001708	28.0805	0.060261	0.001991	30.2718	-136.701	-163.244	0.058960	0.776812	-0.231540	-0.232923	0.008140	30.2718	-0.231742	-426.569	-1.908251E-5	NaN
514	1.000000	0.786163	7.37008e+06	-51389.1	1005.82	-29752.6	0.000000	0.000000	6.787037	0.041602	NaN	0.000000	0.001599	0.001724	28.0806	0.060103	0.002059	29.1854	4.683372	-162.462	0.011055	0.784898	-0.223572	-0.224837	0.041602	29.1854	-0.224641	-329.326	-0.000126	NaN
514	1.000000	0.794191	7.37008e+06	-51389.1	1005.82	-29752.6	0.000000	0.000000	6.795063	-0.005639	NaN	0.000000	0.001603	0.001724	28.0808	0.033304	0.002155	15.4538	157.018	-164.101	-0.044582	0.792824	-0.215544	-0.216911	-0.005639	15.4538	-0.215270	-233.273	2.417219E-5	NaN
514	1.000000	0.802159	7.37008e+06	-51389.1	1005.82	-29752.6	0.000000	0.000000	6.803034	0.052908	NaN	0.000000	0.001613	0.001735	28.0804	0.031735	0.001885	16.8394	170.144	-165.041	0.079628	0.800914	-0.207576	-0.208821	0.052908	16.8394	-0.209932	-191.302	-0.000277	NaN
514	1.000000	0.810183	7.37008e+06	-51389.1	1005.82	-29752.6	0.000000	0.000000	6.811059	0.098745	NaN	0.000000	0.001617	0.001738	28.0809	0.105713	0.002039	51.8479	122.63	-165.334	0.051760	0.808866	-0.199552	-0.200869	0.098745	51.8479	-0.200980	-136.71	-0.000722	NaN
514	1.000000	0.818205	7.37008e+06	-51389.1	1005.82	-29752.6	0.000000	0.000000	6.819081	0.074803	NaN	0.000000	0.001590	0.001748	28.0805	0.086533	0.002040	42.4209	52.1875	-158.525	0.094760	0.816978	-0.191530	-0.192757	0.074803	42.4209	-0.192852	-100.36	-0.000745	NaN
514	1.000000	0.826214	7.37008e+06	-51389.1	1005.82	-29752.6	0.000000	0.000000	6.827090	0.093247	NaN	0.000000	0.001590	0.001749	28.0804	0.009171	0.001891	4.850216	-177.901	-165.323	0.123109	0.824902	-0.183521	-0.184833	0.093247	4.850216	-0.197940	-121.841	-0.000765	NaN
514	1.000000	0.834160	7.37008e+06	-51389.1	1005.82	-29752.6	0.000000	0.000000	6.835034	0.056809	NaN	0.000000	0.001546	0.001717	28.0804	0.044194	0.002047	21.5925	-44.8393	-162.382	0.064350	0.832858	-0.175575	-0.176877	0.056809	21.5925	-0.177549	-55.4193	-0.001025	NaN
514	1.000000	0.842217	7.37008e+06	-51389.1	1005.82	-29752.6	0.000000	0.000000	6.843090	0.006866	NaN	0.000000	0.001564	0.001763	28.0804	0.013511	0.001985	6.807283	-58.0263	-161.708	0.101516	0.840912	-0.167518	-0.168823	0.006866	6.807283	-0.168274	-38.3345	-0.000179	NaN
514	1.000000	0.850228	7.37008e+06	-51389.1	1005.82	-29752.6	0.000000	0.000000	6.851103	0.074551	NaN	0.000000	0.001561	0.001692	28.0808	0.127892	0.001845	69.3169	-95.8341	-161.995	0.000901	0.848881	-0.159507	-0.160854	0.074551	69.3169	-0.160314	-27.7689	-0.002685	NaN
514	1.000000	0.858182	7.37008e+06	-51389.1	1005.82	-29752.6	0.000000	0.000000	6.859055	0.000967	NaN	0.000000	0.001532	0.001696	28.0806	0.083575	0.001979	42.2253	126.055	-162.708	0.106583	0.856904	-0.151553	-0.152831	0.000967	42.2253	-0.151570	-19.3452	-4.996335E-5	NaN
514	1.000000	0.866194	7.37008e+06	-51389.1	1005.82	-29752.6	0.000000	0.000000	6.867071	0.118111	NaN	0.000000	0.001531	0.001624	28.0806	0.081942	0.002075	39.495	18.6305	-166.71	0.131511	0.864931	-0.143541	-0.144804	0.118111	39.495	-0.145784	-15.1587	-0.007792	NaN
514	1.000000	0.874221	7.37008e+06	-51389.1	1005.82	-29752.6	0.000000	0.000000	6.875095	0.053524	NaN	0.000000	0.001538	0.001685	28.0807	0.091540	0.002004	45.6843	171.998	-166.542	0.034744	0.872936	-0.135514	-0.136799	0.053524	45.6843	-0.136393	-10.1115	-0.005293	NaN
514	1.000000	0.882202	7.37008e+06	-51389.1	1005.82	-29752.6	0.000000	0.000000	6.883076	0.045684	NaN	0.000000	0.001573	0.001709	28.0806	0.056624	0.001955	28.9703	30.7381	-166.399	0.092853	0.880952	-0.127533	-0.128783	0.045684	28.9703	-0.128716	-7.194626	-0.006350	NaN
514	1.000000	0.890240	7.37008e+06	-51389.1	1005.82	-29752.6	0.000000	0.000000	6.891112	-0.001914	NaN	0.000000	0.001570	0.001710	28.0806	0.037574	0.001999	18.798	-82.5415	-165.331	0.045265	0.888894	-0.119495	-0.120841	-0.001914	18.798	-0.119418	-4.702502	0.000407	NaN
514	1.000000	0.898233	7.37008e+06	-51389.1	1005.82	-29752.6	0.000000	0.000000	6.899111	0.135581	NaN	0.000000	0.001583	0.001709	28.0794	0.098514	0.001933	50.96	-30.0368	-165.875	0.105782	0.896915	-0.111502	-0.112820	0.135581	50.96	-0.113497	-3.556551	-0.038122	NaN
514	1.000000	0.906217	7.37008e+06	-51389.1	1005.82	-29752.6	0.000000	0.000000	6.907091	0.030404	NaN	0.000000	0.001588	0.001679	28.0795	0.033643	0.002041	16.4855	-118.813	-166.758	0.040134	0.904942	-0.103518	-0.104793	0.030404	16.4855	-0.104901	-2.339042	-0.012998	NaN
514	1.000000	0.914218	7.37008e+06	-51389.1	1005.82	-29752.6	0.000000	0.000000	6.915089	-0.029610	NaN	0.000000	0.001544	0.001678	28.0796	0.057897	0.002050	28.2369	121.248	-162.649	-0.051501	0.912945	-0.095517	-0.096790	-0.029610	28.2369	-0.094730	-1.390811	0.021290	NaN
514	1.000000	0.922222	7.37008e+06	-51389.1	1005.82	-29752.6	0.000000	0.000000	6.923095	0.002729	NaN	0.000000	0.001577	0.001665	28.0793	0.042554	0.001902	22.3778	-141.501	-163.147	0.062288	0.920909	-0.087513	-0.088827	0.002729	22.3778	-0.087604	-0.948836	-0.002876	NaN
514	1.000000	0.930240	7.37008e+06	-51389.1	1005.82	-29752.6	0.000000	0.000000	6.931114	0.038939	NaN	0.000000	0.001579	0.001707	28.0791	0.017135	0.001982	8.644999	-123.139	-167.541	0.126799	0.928936	-0.079495	-0.080799	0.038939	8.644999	-0.082873	-0.729215	-0.053399	NaN
514	1.000000	0.938254	7.37008e+06	-51389.1	1005.82	-29752.6	0.000000	0.000000	6.939129	0.058961	NaN	0.000000	0.001616	0.001698	28.0794	0.094035	0.001935	48.5995	164.224	-166.656	0.021564	0.936919	-0.071481	-0.072816	0.058961	48.5995	-0.072391	-0.394822	-0.149336	NaN
514	1.000000	0.946243	7.37008e+06	-51389.1	1005.82	-29752.6	0.000000	0.000000	6.947117	0.044223	NaN	0.000000	0.001605	0.001718	28.0794	0.142897	0.001999	71.492	-48.3464	-163.534	0.056572	0.944950	-0.063492	-0.064785	0.044223	71.492	-0.063956	-0.233087	-0.189728	NaN
514	1.000000	0.954282	7.37008e+06	-51389.1	1005.82	-29752.6	0.000000	0.000000	6.955155	0.023819	NaN	0.000000	0.001603	0.001748	28.0798	0.081497	0.002083	39.1161	-76.0873	-164.912	0.029685	0.952944	-0.055453	-0.056791	0.023819	39.1161	-0.055910	-0.136984	-0.173884	NaN
514	1.000000	0.962262	7.37008e+06	-51389.1	1005.82	-29752.6	0.000000	0.000000	6.963140	0.134883	NaN	0.000000	0.001580	0.001725	28.0794	0.025634	0.002033	12.6088	28.388	-165.226	0.049789	0.960917	-0.047473	-0.048818	0.134883	12.6088	-0.055496	-0.133194	-1.012682	NaN
514	1.000000	0.970275	7.37008e+06	-51389.1	1005.82	-29752.6	0.000000	0.000000	6.971149	0.040451	NaN	0.000000	0.001584	0.001710	28.079	0.067234	0.002061	32.6216	46.9643	-166.321	0.175294	0.968989	-0.039460	-0.040746	0.040451	32.6216	-0.040390	-0.046472	-0.870443	NaN
514	1.000000	0.978249	7.37008e+06	-51389.1	1005.82	-29752.6	0.000000	0.000000	6.979124	0.066348	NaN	0.000000	0.001578	0.001686	28.0793	0.058516	0.002058	28.435	133.285	-167.711	0.034114	0.977017	-0.031486	-0.032718	0.066348	28.435	-0.033236	-0.028441	-2.332811	NaN
514	1.000000	0.986284	7.37008e+06	-51389.1	1005.82	-29752.6	0.000000	0.000000	6.987163	0.154146	NaN	0.000000	0.001609	0.001689	28.0793	0.075979	0.001880	40.4141	-47.536	-161.46	0.171774	0.984967	-0.023451	-0.024768	0.154146	40.4141	-0.026311	-0.018266	-8.438790	NaN
514	1.000000	0.994292	7.37008e+06	-51389.1	1005.82	-29752.6	0.000000	0.000000	6.995165	0.012464	NaN	0.000000	0.001578	0.001702	28.0795	0.064065	0.002137	29.9848	-143.848	-166.649	0.036335	0.992987	-0.015443	-0.016748	0.012464	29.9848	-0.015755	-0.009732	-1.280704	NaN
514	1.000000	1.002252	7.37008e+06	-51389.1	1005.82	-29752.6	0.000000	0.000000	7.003124	-0.012292	NaN	0.000000	0.001591	0.001678	28.0796	0.053326	0.002124	25.104	64.7821	-167.005	-0.012547	1.000954	-0.007483	-0.008781	-0.012292	25.104	-0.007116	-0.004710	2.609961	NaN
514	1.000000	1.010218	7.37008e+06	-51389.1	1005.82	-29752.6	0.000000	0.000000	7.011215	3.039733	NaN	0.000000	0.001581	0.001679	28.0794	3.892138	0.001870	2081.08	11.0679	-167.857	1.604112	1.009001	0.000483	-0.000734	3.039733	2081.08	-0.000613	-0.000452	-6718.12	NaN
514	2.000000	1.015810	7.37008e+06	-51389.1	1005.82	-29752.6	0.000000	0.000000	7.017076	9.562256	NaN	0.000000	0.001607	0.001677	28.0794	9.211446	0.001680	5482.88	8.395501	-172.603	9.455440	1.015506	0.006075	0.005771	9.562256	5482.88	0.004767	0.003922	2438.21	79990.3
514	2.000000	1.017844	7.37008e+06	-51389.1	1005.82	-29752.6	0.000000	0.000000	7.019264	13.3313	NaN	0.000000	0.001633	0.001671	28.0794	11.2311	0.001548	7254.65	3.734008	-170.945	12.986	1.017472	0.008109	0.007737	13.3313	7254.65	0.006730	0.005769	2310.97	87267
514	2.000000	1.019801	7.37008e+06	-51389.1	1005.82	-29752.6	0.000000	0.000000	7.021332	15.9983	NaN	0.000000	0.001638	0.001695	28.0808	12.734	0.001705	7469.3	4.617794	-169.864	16.024	1.019408	0.010066	0.009673	15.9983	7469.3	0.008460	0.007520	2127.51	78695.9
514	2.000000	1.021744	7.37008e+06	-51389.1	1005.82	-29752.6	0.000000	0.000000	7.023398	19.0024	NaN	0.000000	0.001606	0.001695	28.0808	15.6102	0.001756	8887.73	7.074964	-175.085	17.639	1.021418	0.012009	0.011683	19.0024	8887.73	0.010406	0.009636	1972	82720.5
514	2.000000	1.023730	7.37008e+06	-51389.1	1005.82	-29752.6	0.000000	0.000000	7.025596	24.1584	NaN	0.000000	0.001628	0.001704	28.0808	17.06	0.001772	9625.36	6.517481	-175.625	22.8778	1.023407	0.013995	0.013672	24.1584	9625.36	0.012112	0.011625	2078.16	81563.5
514	2.000000	1.025736	7.37008e+06	-51389.1	1005.82	-29752.6	0.000000	0.000000	7.027699	26.512	NaN	0.000000	0.001610	0.001697	28.081	18.9707	0.001782	10645.6	3.115889	-172.005	25.2828	1.025376	0.016001	0.015641	26.512	10645.6	0.014133	0.014147	1874.04	81773.7
514	2.000000	1.027804	7.37008e+06	-51389.1	1005.82	-29752.6	0.000000	0.000000	7.029941	30.7425	NaN	0.000000	0.001612	0.001681	28.0804	21.5261	0.001829	11767	10.8073	179.791	31.1386	1.027393	0.018069	0.017658	30.7425	11767	0.016110	0.016794	1830.57	82958.9
514	2.000000	1.029670	7.37008e+06	-51389.1	1005.82	-29752.6	0.000000	0.000000	7.031935	33.8544	NaN	0.000000	0.001599	0.001678	28.0808	23.0863	0.001818	12698	7.317111	-178.966	31.6612	1.029390	0.019935	0.019655	33.8544	12698	0.017936	0.019401	1744.94	83289.7
514	2.000000	1.031739	7.37008e+06	-51389.1	1005.82	-29752.6	0.000000	0.000000	7.034226	39.2798	NaN	0.000000	0.001584	0.001704	28.0806	24.8363	0.001722	14421.9	5.170990	-177.648	39.3806	1.031472	0.022004	0.021737	39.2798	14421.9	0.019961	0.022481	1747.27	87879.8
514	2.000000	1.033711	7.37008e+06	-51389.1	1005.82	-29752.6	0.000000	0.000000	7.036500	46.6084	NaN	0.000000	0.001572	0.001676	28.0807	26.1428	0.001697	15407.5	2.339931	-175.872	45.1251	1.033474	0.023976	0.023739	46.6084	15407.5	0.021708	0.025297	1842.45	88505.7
514	2.000000	1.035712	7.37008e+06	-51389.1	1005.82	-29752.6	0.000000	0.000000	7.038796	53.7656	NaN	0.000000	0.001587	0.001694	28.081	28.6668	0.001618	17715.3	4.369911	179.458	52.7694	1.035422	0.025977	0.025687	53.7656	17715.3	0.023701	0.028695	1873.69	95547.4
514	2.000000	1.037716	7.37008e+06	-51389.1	1005.82	-29752.6	0.000000	0.000000	7.040997	58.5664	NaN	0.000000	0.001609	0.001662	28.0806	31.5902	0.001793	17622.6	9.060417	176.889	58.9171	1.037416	0.027981	0.027681	58.5664	17622.6	0.025488	0.031910	1835.36	90132
514	2.000000	1.039699	7.37008e+06	-51389.1	1005.82	-29752.6	0.000000	0.000000	7.043200	63.9073	NaN	0.000000	0.001609	0.001648	28.0818	33.2584	0.001846	18018.4	7.331486	178.593	64.1791	1.039386	0.029964	0.029651	63.9073	18018.4	0.027304	0.035342	1808.27	87568.3
514	2.000000	1.041675	7.37008e+06	-51389.1	1005.82	-29752.6	0.000000	0.000000	7.045525	72.4163	NaN	0.000000	0.001621	0.001660	28.0807	35.7965	0.001789	20011.5	6.035191	178.713	70.2641	1.041340	0.031940	0.031605	72.4163	20011.5	0.029226	0.039154	1849.53	92398.7
514	2.000000	1.043660	7.37008e+06	-51389.1	1005.82	-29752.6	0.000000	0.000000	7.047842	80.4822	NaN	0.000000	0.001594	0.001681	28.0807	36.5347	0.001734	21074.9	6.601833	176.915	79.1798	1.043424	0.033925	0.033689	80.4822	21074.9	0.031061	0.042971	1872.94	92886.3
514	2.000000	1.045632	7.37008e+06	-51389.1	1005.82	-29752.6	0.000000	0.000000	7.050101	87.465	NaN	0.000000	0.001540	0.001680	28.0809	39.0373	0.001782	21902.5	1.842133	-178.635	83.8913	1.045351	0.035897	0.035616	87.465	21902.5	0.032902	0.046974	1861.99	92329
514	2.000000	1.047758	7.37008e+06	-51389.1	1005.82	-29752.6	0.000000	0.000000	7.052518	94.527	NaN	0.000000	0.001584	0.001658	28.0807	40.8306	0.001865	21890.2	5.698119	178.638	96.4933	1.047367	0.038023	0.037632	94.527	21890.2	0.034784	0.051245	1844.6	88347.7
514	2.000000	1.049698	7.37008e+06	-51389.1	1005.82	-29752.6	0.000000	0.000000	7.054716	100.801	NaN	0.000000	0.001578	0.001644	28.082	42.1742	0.001793	23521.7	3.689093	179.091	100.573	1.049387	0.039963	0.039652	100.801	23521.7	0.036749	0.055896	1803.36	90897.2
514	2.000000	1.051653	7.37008e+06	-51389.1	1005.82	-29752.6	0.000000	0.000000	7.057046	109.937	NaN	0.000000	0.001624	0.001661	28.0807	44.0099	0.001836	23976.8	-0.787528	-177.233	107.798	1.051346	0.041918	0.041611	109.937	23976.8	0.038479	0.060156	1827.53	89315.2
514	2.000000	1.053626	7.37008e+06	-51389.1	1005.82	-29752.6	0.000000	0.000000	7.059500	121.62	NaN	0.000000	0.001625	0.001657	28.0795	45.8099	0.001810	25304.4	3.581210	178.909	120.221	1.053343	0.043891	0.043608	121.62	25304.4	0.040287	0.064772	1877.68	90839.9
514	2.000000	1.055675	7.37008e+06	-51389.1	1005.82	-29752.6	0.000000	0.000000	7.061746	126.42	NaN	0.000000	0.001623	0.001676	28.0795	49.0688	0.001699	28885.5	7.116426	173.76	126.467	1.055308	0.045940	0.045573	126.42	28885.5	0.042657	0.071076	1778.68	98990.5
514	2.000000	1.057735	7.37008e+06	-51389.1	1005.82	-29752.6	0.000000	0.000000	7.064211	136.271	NaN	0.000000	0.001613	0.001641	28.0795	51.6813	0.001823	28349.2	3.546724	178.31	137.688	1.057371	0.047999	0.047636	136.271	28349.2	0.044394	0.075877	1795.94	94028.3
514	2.000000	1.059643	7.37008e+06	-51389.1	1005.82	-29752.6	0.000000	0.000000	7.066445	144.174	NaN	0.000000	0.001647	0.001677	28.0804	53.1883	0.001880	28290.4	5.030144	176.137	143.099	1.059368	0.049908	0.049633	144.174	28290.4	0.046086	0.080701	1786.51	90985.5
514	2.000000	1.061626	7.37008e+06	-51389.1	1005.82	-29752.6	0.000000	0.000000	7.068884	155.286	NaN	0.000000	0.001664	0.001678	28.0795	53.8039	0.001805	29814.6	3.345499	177.35	151.689	1.061320	0.051891	0.051585	155.286	29814.6	0.047985	0.086286	1799.67	92732.5
514	2.000000	1.063622	7.37008e+06	-51389.1	1005.82	-29752.6	0.000000	0.000000	7.071497	170.282	NaN	0.000000	0.001689	0.001674	28.0796	54.5591	0.001856	29400.2	2.764909	178.303	167.853	1.063382	0.053887	0.053647	170.282	29400.2	0.049543	0.091006	1871.11	89040.7
514	2.000000	1.065653	7.37008e+06	-51389.1	1005.82	-29752.6	0.000000	0.000000	7.073885	178.962	NaN	0.000000	0.001699	0.001695	28.0795	58.9181	0.001884	31267.4	7.547253	172.916	177.733	1.065248	0.055918	0.055513	178.962	31267.4	0.051626	0.097505	1835.42	91485.6
514	2.000000	1.067694	7.37008e+06	-51389.1	1005.82	-29752.6	0.000000	0.000000	7.076382	190.062	NaN	0.000000	0.001695	0.001699	28.0793	60.6802	0.001913	31722.2	6.674218	173.779	190.232	1.067364	0.057959	0.057629	190.062	31722.2	0.053465	0.103424	1837.7	90120.9
514	2.000000	1.069656	7.37008e+06	-51389.1	1005.82	-29752.6	0.000000	0.000000	7.078757	200.103	NaN	0.000000	0.001687	0.001700	28.0795	61.642	0.001957	31495	5.042657	176.581	199.858	1.069297	0.059921	0.059562	200.103	31495	0.055156	0.109013	1835.6	87151.8
514	2.000000	1.071629	7.37008e+06	-51389.1	1005.82	-29752.6	0.000000	0.000000	7.081022	207.184	NaN	0.000000	0.001706	0.001681	28.0797	63.9227	0.001876	34076.6	4.920449	174.477	205.107	1.071468	0.061894	0.061733	207.184	34076.6	0.057334	0.116423	1779.57	91245
514	2.000000	1.073654	7.37008e+06	-51389.1	1005.82	-29752.6	0.000000	0.000000	7.083770	224.78	NaN	0.000000	0.001673	0.001683	28.0796	64.8648	0.001918	33815.1	6.967349	173.188	223.938	1.073259	0.063919	0.063524	224.78	33815.1	0.058934	0.122013	1842.27	88446.6
514	2.000000	1.075685	7.37008e+06	-51389.1	1005.82	-29752.6	0.000000	0.000000	7.086196	234.378	NaN	0.000000	0.001617	0.001673	28.0795	66.7354	0.001847	36125.6	9.461058	170.608	233.986	1.075305	0.065950	0.065570	234.378	36125.6	0.061084	0.129725	1806.73	91638.1
514	2.000000	1.077664	7.37008e+06	-51389.1	1005.82	-29752.6	0.000000	0.000000	7.088332	238.209	NaN	0.000000	0.001616	0.001675	28.0795	68.5043	0.001780	38491.8	5.063924	172.938	236.639	1.077470	0.067929	0.067735	238.209	38491.8	0.063288	0.137860	1727.9	94715.7
514	2.000000	1.079649	7.37008e+06	-51389.1	1005.82	-29752.6	0.000000	0.000000	7.091225	260.271	NaN	0.000000	0.001582	0.001698	28.0795	70.1748	0.001870	37527.3	6.866331	172.386	259.014	1.079292	0.069914	0.069557	260.271	37527.3	0.064713	0.143248	1816.93	90589.1
514	2.000000	1.081678	7.37008e+06	-51389.1	1005.82	-29752.6	0.000000	0.000000	7.093539	267.215	NaN	0.000000	0.001590	0.001695	28.0796	71.1166	0.001804	39428.5	-1.922092	-179.354	267.442	1.081324	0.071943	0.071589	267.215	39428.5	0.066860	0.151549	1763.23	92535.2
514	2.000000	1.083621	7.37008e+06	-51389.1	1005.82	-29752.6	0.000000	0.000000	7.096391	289.307	NaN	0.000000	0.001641	0.001678	28.0798	72.615	0.001825	39794	3.289926	174.967	285.386	1.083319	0.073886	0.073584	289.307	39794	0.068434	0.157775	1833.67	91531.9
514	2.000000	1.085697	7.37009e+06	-51389.1	1005.82	-29752.6	0.000000	0.000000	7.098813	297.734	NaN	0.000000	0.001657	0.001739	28.0795	75.2025	0.001780	42238.1	6.077553	172.324	300.048	1.085226	0.075962	0.075491	297.734	42238.1	0.070675	0.166846	1784.48	94475.6
514	2.000000	1.087700	7.37009e+06	-51389.1	1005.82	-29752.6	0.000000	0.000000	7.101390	311.676	NaN	0.000000	0.001678	0.001676	28.0811	76.8602	0.001815	42346	6.675443	172.64	311.662	1.087235	0.077965	0.077500	311.676	42346	0.072445	0.174177	1789.42	92702.2
514	2.000000	1.089589	7.37009e+06	-51389.1	1005.82	-29752.6	0.000000	0.000000	7.103914	327.123	NaN	0.000000	0.001696	0.001684	28.0809	78.9582	0.001831	43127.4	6.627440	171.089	324.307	1.089240	0.079854	0.079505	327.123	43127.4	0.074165	0.181442	1802.9	92503.3
514	2.000000	1.091604	7.37009e+06	-51389.1	1005.82	-29752.6	0.000000	0.000000	7.106490	340.777	NaN	0.000000	0.001647	0.001686	28.0807	80.0735	0.001803	44409.9	2.584940	174.755	336.961	1.091312	0.081869	0.081577	340.777	44409.9	0.076114	0.189844	1795.04	93122.5
514	2.000000	1.093614	7.37009e+06	-51389.1	1005.82	-29752.6	0.000000	0.000000	7.109204	357.868	NaN	0.000000	0.001592	0.001712	28.0811	81.6646	0.001836	44483.1	3.978373	173.454	356.182	1.093286	0.083879	0.083551	357.868	44483.1	0.077846	0.197459	1812.36	91459.5
514	2.000000	1.095549	7.37009e+06	-51389.1	1005.82	-29752.6	0.000000	0.000000	7.111672	370.844	NaN	0.000000	0.001566	0.001714	28.0808	83.5224	0.001759	47474.4	3.975033	173.429	365.623	1.095245	0.085814	0.085510	370.844	47474.4	0.079956	0.206927	1792.15	95350.8
514	2.000000	1.097598	7.37009e+06	-51389.1	1005.82	-29752.6	0.000000	0.000000	7.114205	382.617	NaN	0.000000	0.001577	0.001737	28.0809	86.5658	0.001932	44807.3	2.485870	174.843	379.465	1.097313	0.087863	0.087578	382.617	44807.3	0.081459	0.213799	1789.61	88535.8
514	2.000000	1.099556	7.37009e+06	-51389.1	1005.82	-29752.6	0.000000	0.000000	7.116803	398.167	NaN	0.000000	0.001595	0.001704	28.0807	87.6884	0.001825	48047.6	5.249105	171.641	393.804	1.099301	0.089821	0.089566	398.167	48047.6	0.083606	0.223795	1779.16	92793.9
514	2.000000	1.101654	7.37009e+06	-51389.1	1005.82	-29752.6	0.000000	0.000000	7.119397	410.24	NaN	0.000000	0.001598	0.001739	28.081	90.5854	0.001894	47824	3.017976	173.62	411.322	1.101340	0.091919	0.091605	410.24	47824	0.085485	0.232723	1762.78	90573.1
514	2.000000	1.103558	7.37009e+06	-51389.1	1005.82	-29752.6	0.000000	0.000000	7.122041	428.241	NaN	0.000000	0.001589	0.001711	28.0818	89.9324	0.001747	51490	1.992326	174.703	424.877	1.103314	0.093823	0.093579	428.241	51490	0.087585	0.242886	1763.13	95454.1
514	2.000000	1.105517	7.37009e+06	-51389.1	1005.82	-29752.6	0.000000	0.000000	7.124651	444.059	NaN	0.000000	0.001616	0.001712	28.0807	93.4824	0.001867	50077.9	4.577009	172.407	437.45	1.105220	0.095782	0.095485	444.059	50077.9	0.089131	0.250502	1772.68	91414.4
514	2.000000	1.107548	7.37009e+06	-51389.1	1005.82	-29752.6	0.000000	0.000000	7.127444	462.594	NaN	0.000000	0.001563	0.001698	28.0807	94.4685	0.001849	51094.7	2.150039	174.58	457.857	1.107305	0.097813	0.097570	462.594	51094.7	0.091023	0.259966	1779.44	91556.8
514	2.000000	1.109544	7.37009e+06	-51389.1	1005.82	-29752.6	0.000000	0.000000	7.130034	477.026	NaN	0.000000	0.001597	0.001708	28.0807	95.9352	0.001788	53664.5	3.216266	172.67	471.836	1.109239	0.099809	0.099504	477.026	53664.5	0.093142	0.270769	1761.75	94224
514	2.000000	1.111620	7.37009e+06	-51389.1	1005.82	-29752.6	0.000000	0.000000	7.132677	490.826	NaN	0.000000	0.001614	0.001656	28.0809	99.485	0.001763	56418.6	5.882236	169.476	490.601	1.111309	0.101885	0.101574	490.826	56418.6	0.095360	0.282288	1738.74	97017.3
514	2.000000	1.113520	7.37009e+06	-51389.1	1005.82	-29752.6	0.000000	0.000000	7.135327	509.049	NaN	0.000000	0.001592	0.001686	28.0808	98.0312	0.001743	56238.1	-1.160597	176.991	503.566	1.113317	0.103785	0.103582	509.049	56238.1	0.096996	0.290934	1749.71	95259.1