File: remote_trans/data/nanoindenter/0828-1/data/Data_2025-08-06,11h17m57s/2025-07-22_16-23-58_1_567.txt
2025-07-22, 16:23:58, 1
Index	Phase	Displacement	Time	Pos X	Pos Y	Pos Z	Rot A	Rot B	Piezo Z	Force A	Force B	Gripper	Voltage A	Voltage B	Temperature	Amplitude force	Amplitude pos	Stiffness	Phase shift	Phase excitation	Force A raw	Displacement raw	HMax	HMax raw	Real Force	Real Stiffness	Contact Depth	Area	Hardness	Reduced Mod.
[#]	[#]	[um]	[s]	[um]	[um]	[um]	[m°]	[m°]	[um]	[uN]	[uN]	[V]	[V]	[V]	[°C]	[uN]	[um]	[N/m]	[°]	[°]	[uN]	[um]	[um]	[um]	[uN]	[N/m]	[um]	[um^2]	[MPa]	[MPa]
567	1.000000	0.002274	7.37059e+06	-48739.1	1005.82	-29761.4	0.000000	0.000000	6.002780	0.057264	NaN	0.000000	0.001567	0.001700	28.0819	0.104930	0.000958	109.53	129.073	-163.007	0.034291	0.001021	-1.036576	-1.037829	0.057264	109.53	-1.036968	-7.131808E+13	-8.029399E-16	NaN
567	1.000000	0.010269	7.37059e+06	-48739.1	1005.82	-29761.4	0.000000	0.000000	6.010773	-3.735267E-5	NaN	0.000000	0.001605	0.001710	28.0818	0.084775	0.000987	85.8926	-32.8644	-157.837	-0.010262	0.008946	-1.028581	-1.029904	-3.735267E-5	85.8926	-1.028580	-5.500282E+13	6.791046E-19	NaN
567	1.000000	0.018237	7.37059e+06	-48739.1	1005.82	-29761.4	0.000000	0.000000	6.018743	0.041403	NaN	0.000000	0.001569	0.001700	28.0818	0.079739	0.001790	44.5442	49.069	-165.879	0.088516	0.016979	-1.020613	-1.021871	0.041403	44.5442	-1.021310	-4.391146E+13	-9.428782E-16	NaN
567	1.000000	0.026260	7.37059e+06	-48739.1	1005.82	-29761.4	0.000000	0.000000	6.026767	0.072200	NaN	0.000000	0.001575	0.001708	28.0817	0.009621	0.001757	5.475165	8.148539	-166.927	0.018454	0.024874	-1.012590	-1.013976	0.072200	5.475165	-1.022480	-4.553229E+13	-1.585687E-15	NaN
567	1.000000	0.034237	7.37059e+06	-48739.1	1005.82	-29761.4	0.000000	0.000000	6.034743	0.028896	NaN	0.000000	0.001549	0.001724	28.0818	0.117686	0.001840	63.9574	-5.757957	-160.482	0.114921	0.032912	-1.004612	-1.005938	0.028896	63.9574	-1.004951	-2.644993E+13	-1.092495E-15	NaN
567	1.000000	0.042264	7.37059e+06	-48739.1	1005.82	-29761.4	0.000000	0.000000	6.042770	0.032861	NaN	0.000000	0.001555	0.001704	28.0821	0.122329	0.002062	59.3167	155.033	-167.206	0.052146	0.040938	-0.996586	-0.997912	0.032861	59.3167	-0.997001	-2.067244E+13	-1.589609E-15	NaN
567	1.000000	0.050227	7.37059e+06	-48739.1	1005.82	-29761.4	0.000000	0.000000	6.050732	0.014709	NaN	0.000000	0.001585	0.001691	28.0819	0.050347	0.001842	27.337	-93.1446	-164.834	-0.047626	0.048915	-0.988622	-0.989934	0.014709	27.337	-0.989026	-1.614326E+13	-9.111262E-16	NaN
567	1.000000	0.058248	7.37059e+06	-48739.1	1005.82	-29761.4	0.000000	0.000000	6.058753	0.029723	NaN	0.000000	0.001618	0.001736	28.0821	0.153632	0.002036	75.4569	-141.271	-166.726	0.019235	0.056939	-0.980602	-0.981911	0.029723	75.4569	-0.980897	-1.254585E+13	-2.369177E-15	NaN
567	1.000000	0.066223	7.37059e+06	-48739.1	1005.82	-29761.4	0.000000	0.000000	6.066728	0.021253	NaN	0.000000	0.001625	0.001714	28.0818	0.051171	0.002056	24.8874	-46.2209	-164.114	0.027106	0.064919	-0.972627	-0.973931	0.021253	24.8874	-0.973267	-9.901285E+12	-2.146450E-15	NaN
567	1.000000	0.074230	7.37059e+06	-48739.1	1005.82	-29761.4	0.000000	0.000000	6.074735	0.013575	NaN	0.000000	0.001600	0.001714	28.0818	0.059255	0.002015	29.4043	158.313	-167.548	0.045607	0.072930	-0.964619	-0.965920	0.013575	29.4043	-0.964966	-7.652567E+12	-1.773854E-15	NaN
567	1.000000	0.082228	7.37059e+06	-48739.1	1005.82	-29761.4	0.000000	0.000000	6.082734	0.051242	NaN	0.000000	0.001602	0.001714	28.082	0.056320	0.001941	29.0163	173.124	-166.37	0.035332	0.080925	-0.956622	-0.957924	0.051242	29.0163	-0.957946	-6.154321E+12	-8.326210E-15	NaN
567	1.000000	0.090244	7.37059e+06	-48739.1	1005.82	-29761.4	0.000000	0.000000	6.090748	-0.008246	NaN	0.000000	0.001650	0.001700	28.0807	0.019479	0.001938	10.0491	-5.281121	-163.464	0.021377	0.088957	-0.948606	-0.949892	-0.008246	10.0491	-0.947990	-4.517768E+12	1.825287E-15	NaN
567	1.000000	0.098261	7.37059e+06	-48739.1	1005.82	-29761.4	0.000000	0.000000	6.098768	0.063360	NaN	0.000000	0.001613	0.001705	28.0808	0.077736	0.002083	37.3157	129.575	-164.999	0.009704	0.096954	-0.940589	-0.941895	0.063360	37.3157	-0.941862	-3.734714E+12	-1.696509E-14	NaN
567	1.000000	0.106265	7.37059e+06	-48739.1	1005.82	-29761.4	0.000000	0.000000	6.106773	0.072050	NaN	0.000000	0.001604	0.001704	28.0807	0.036682	0.001946	18.8473	-170.101	-167.616	0.075142	0.104932	-0.932584	-0.933918	0.072050	18.8473	-0.935451	-3.060311E+12	-2.354349E-14	NaN
567	1.000000	0.114299	7.37059e+06	-48739.1	1005.82	-29761.4	0.000000	0.000000	6.114808	0.110226	NaN	0.000000	0.001584	0.001687	28.0807	0.047804	0.001905	25.1001	-106.619	-164.143	0.049518	0.112966	-0.924550	-0.925884	0.110226	25.1001	-0.927844	-2.416001E+12	-4.562334E-14	NaN
567	1.000000	0.122268	7.37059e+06	-48739.1	1005.82	-29761.4	0.000000	0.000000	6.122774	0.045390	NaN	0.000000	0.001611	0.001698	28.0807	0.129857	0.001988	65.3259	134.677	-165.422	0.137107	0.120976	-0.916582	-0.917874	0.045390	65.3259	-0.917103	-1.730179E+12	-2.623406E-14	NaN
567	1.000000	0.130268	7.37059e+06	-48739.1	1005.82	-29761.4	0.000000	0.000000	6.130774	0.043587	NaN	0.000000	0.001629	0.001694	28.0806	0.103405	0.001889	54.7505	47.6416	-164.373	0.105999	0.128980	-0.908582	-0.909870	0.043587	54.7505	-0.909179	-1.352297E+12	-3.223179E-14	NaN
567	1.000000	0.138273	7.37059e+06	-48739.1	1005.82	-29761.4	0.000000	0.000000	6.138778	0.032837	NaN	0.000000	0.001620	0.001632	28.0807	0.010679	0.001917	5.570484	138.053	-164.968	0.063962	0.136903	-0.900577	-0.901947	0.032837	5.570484	-0.904998	-1.187402E+12	-2.765456E-14	NaN
567	1.000000	0.146282	7.37059e+06	-48739.1	1005.82	-29761.4	0.000000	0.000000	6.146788	0.034035	NaN	0.000000	0.001598	0.001685	28.0804	0.075289	0.001862	40.434	156.417	-164.998	0.056548	0.145005	-0.892567	-0.893845	0.034035	40.434	-0.893199	-8.225318E+11	-4.137792E-14	NaN
567	1.000000	0.154298	7.37059e+06	-48739.1	1005.82	-29761.4	0.000000	0.000000	6.154807	0.107765	NaN	0.000000	0.001597	0.001670	28.0809	0.080226	0.002048	39.1816	40.4692	-164.984	0.104889	0.153060	-0.884552	-0.885790	0.107765	39.1816	-0.886614	-6.701110E+11	-1.608165E-13	NaN
567	1.000000	0.162284	7.37059e+06	-48739.1	1005.82	-29761.4	0.000000	0.000000	6.162788	-0.011600	NaN	0.000000	0.001571	0.001686	28.0807	0.058896	0.002068	28.4848	-137.295	-166.369	-0.044168	0.160994	-0.876565	-0.877856	-0.011600	28.4848	-0.876260	-4.854280E+11	2.389574E-14	NaN
567	1.000000	0.170286	7.37059e+06	-48739.1	1005.82	-29761.4	0.000000	0.000000	6.170791	0.020983	NaN	0.000000	0.001639	0.001664	28.0808	0.096523	0.002012	47.9691	-151.388	-165.127	-0.029843	0.169013	-0.868564	-0.869837	0.020983	47.9691	-0.868892	-3.858816E+11	-5.437551E-14	NaN
567	1.000000	0.178275	7.37059e+06	-48739.1	1005.82	-29761.4	0.000000	0.000000	6.178777	-0.041671	NaN	0.000000	0.001630	0.001641	28.0809	0.043138	0.002030	21.254	18.6456	-164.472	-0.053529	0.177007	-0.860575	-0.861843	-0.041671	21.254	-0.859105	-2.844462E+11	1.464983E-13	NaN
567	1.000000	0.186297	7.37059e+06	-48739.1	1005.82	-29761.4	0.000000	0.000000	6.186801	0.001010	NaN	0.000000	0.001571	0.001639	28.0806	0.045061	0.001905	23.6557	-161.473	-165.68	-0.027613	0.184967	-0.852553	-0.853883	0.001010	23.6557	-0.852585	-2.321326E+11	-4.349603E-15	NaN
567	1.000000	0.194309	7.37059e+06	-48739.1	1005.82	-29761.4	0.000000	0.000000	6.194816	0.072719	NaN	0.000000	0.001562	0.001684	28.0811	0.002753	0.001965	1.400530	-102.506	-168.749	0.155972	0.193007	-0.844541	-0.845843	0.072719	1.400530	-0.883482	-6.078547E+11	-1.196319E-13	NaN
567	1.000000	0.202304	7.37059e+06	-48739.1	1005.82	-29761.4	0.000000	0.000000	6.202808	-0.010432	NaN	0.000000	0.001581	0.001698	28.0807	0.037194	0.002071	17.9627	4.007572	-165.145	-0.060125	0.201030	-0.836546	-0.837820	-0.010432	17.9627	-0.836110	-1.388650E+11	7.512103E-14	NaN
567	1.000000	0.210292	7.37059e+06	-48739.1	1005.82	-29761.4	0.000000	0.000000	6.210798	0.034732	NaN	0.000000	0.001601	0.001669	28.0809	0.043636	0.001981	22.0262	173.323	-163.396	-0.059070	0.208992	-0.828557	-0.829858	0.034732	22.0262	-0.829740	-1.138308E+11	-3.051188E-13	NaN
567	1.000000	0.218272	7.37059e+06	-48739.1	1005.82	-29761.4	0.000000	0.000000	6.218776	-0.008546	NaN	0.000000	0.001620	0.001681	28.0807	0.028715	0.001883	15.2508	-6.999556	-166.425	0.004429	0.217051	-0.820578	-0.821799	-0.008546	15.2508	-0.820157	-8.440080E+10	1.012542E-13	NaN
567	1.000000	0.226349	7.37059e+06	-48739.1	1005.82	-29761.4	0.000000	0.000000	6.226853	0.005146	NaN	0.000000	0.001628	0.001669	28.0816	0.083255	0.001927	43.2021	-92.1493	-168.311	-0.022611	0.225029	-0.812501	-0.813820	0.005146	43.2021	-0.812590	-6.663668E+10	-7.722848E-14	NaN
567	1.000000	0.234304	7.37059e+06	-48739.1	1005.82	-29761.4	0.000000	0.000000	6.234807	-0.023987	NaN	0.000000	0.001611	0.001682	28.0822	0.109754	0.002077	52.8371	78.9	-165.118	-0.020642	0.233021	-0.804546	-0.805829	-0.023987	52.8371	-0.804205	-5.127890E+10	4.677792E-13	NaN
567	1.000000	0.242340	7.37059e+06	-48739.1	1005.82	-29761.4	0.000000	0.000000	6.242844	0.010690	NaN	0.000000	0.001641	0.001670	28.0819	0.032128	0.001988	16.1576	139.758	-165.145	0.015521	0.241022	-0.796510	-0.797828	0.010690	16.1576	-0.797006	-4.094701E+10	-2.610699E-13	NaN
567	1.000000	0.250315	7.37059e+06	-48739.1	1005.82	-29761.4	0.000000	0.000000	6.250822	0.059638	NaN	0.000000	0.001636	0.001687	28.0819	0.020437	0.001874	10.9068	-179.012	-164.396	0.088331	0.249010	-0.788535	-0.789840	0.059638	10.9068	-0.792635	-3.571699E+10	-1.669739E-12	NaN
567	1.000000	0.258316	7.37059e+06	-48739.1	1005.82	-29761.4	0.000000	0.000000	6.258822	0.062326	NaN	0.000000	0.001627	0.001690	28.082	0.028212	0.002113	13.3514	-21.6847	-166.317	-0.071447	0.257021	-0.780534	-0.781829	0.062326	13.3514	-0.784035	-2.729359E+10	-2.283555E-12	NaN
567	1.000000	0.266319	7.37059e+06	-48739.1	1005.82	-29761.4	0.000000	0.000000	6.266822	-0.035738	NaN	0.000000	0.001605	0.001659	28.0822	0.092783	0.001975	46.9743	80.6213	-164.634	-0.045193	0.265031	-0.772531	-0.773818	-0.035738	46.9743	-0.771960	-1.870492E+10	1.910610E-12	NaN
567	1.000000	0.274338	7.37059e+06	-48739.1	1005.82	-29761.4	0.000000	0.000000	6.274843	0.010049	NaN	0.000000	0.001617	0.001679	28.0818	0.054840	0.001940	28.2623	83.5255	-168.704	-0.000903	0.272981	-0.764512	-0.765869	0.010049	28.2623	-0.764778	-1.493820E+10	-6.726760E-13	NaN
567	1.000000	0.282339	7.37059e+06	-48739.1	1005.82	-29761.4	0.000000	0.000000	6.282843	0.013959	NaN	0.000000	0.001616	0.001687	28.082	0.112191	0.002061	54.4438	131.875	-166.054	0.027733	0.281013	-0.756511	-0.757836	0.013959	54.4438	-0.756703	-1.159982E+10	-1.203368E-12	NaN
567	1.000000	0.290309	7.37059e+06	-48739.1	1005.82	-29761.4	0.000000	0.000000	6.290816	0.066165	NaN	0.000000	0.001620	0.001662	28.082	0.101644	0.001947	52.212	-45.2311	-166.131	0.052553	0.289054	-0.748541	-0.749796	0.066165	52.212	-0.749492	-9.253354E+9	-7.150343E-12	NaN
567	1.000000	0.298339	7.37059e+06	-48739.1	1005.82	-29761.4	0.000000	0.000000	6.298845	0.029234	NaN	0.000000	0.001627	0.001682	28.0819	0.088358	0.002041	43.2887	145.171	-166.671	0.106559	0.297021	-0.740511	-0.741828	0.029234	43.2887	-0.741017	-7.094299E+9	-4.120815E-12	NaN
567	1.000000	0.306354	7.37059e+06	-48739.1	1005.82	-29761.4	0.000000	0.000000	6.306859	0.015317	NaN	0.000000	0.001631	0.001660	28.0822	0.070848	0.002165	32.7272	-35.9235	-164.36	0.001113	0.305048	-0.732495	-0.733802	0.015317	32.7272	-0.732846	-5.490339E+9	-2.789888E-12	NaN
567	1.000000	0.314358	7.37059e+06	-48739.1	1005.82	-29761.4	0.000000	0.000000	6.314860	-0.064694	NaN	0.000000	0.001623	0.001726	28.0817	0.029203	0.001942	15.04	160.571	-162.827	0.046633	0.313078	-0.724492	-0.725772	-0.064694	15.04	-0.721266	-3.817112E+9	1.694832E-11	NaN
567	1.000000	0.322366	7.37059e+06	-48739.1	1005.82	-29761.4	0.000000	0.000000	6.322868	-0.053133	NaN	0.000000	0.001618	0.001701	28.0819	0.115001	0.002095	54.8877	-85.0505	-161.14	0.074797	0.321069	-0.716484	-0.717781	-0.053133	54.8877	-0.715758	-3.210754E+9	1.654839E-11	NaN
567	1.000000	0.330360	7.37059e+06	-48739.1	1005.82	-29761.4	0.000000	0.000000	6.330865	0.000529	NaN	0.000000	0.001627	0.001699	28.0819	0.099069	0.001864	53.1492	98.4478	-164.033	-0.035081	0.329049	-0.708489	-0.709801	0.000529	53.1492	-0.708497	-2.555844E+9	-2.069269E-13	NaN
567	1.000000	0.338367	7.37059e+06	-48739.1	1005.82	-29761.4	0.000000	0.000000	6.338876	0.095679	NaN	0.000000	0.001625	0.001656	28.0816	0.039359	0.001986	19.8205	-66.0506	-165.02	0.052656	0.337063	-0.700482	-0.701787	0.095679	19.8205	-0.704103	-2.226144E+9	-4.297978E-11	NaN
567	1.000000	0.346366	7.37059e+06	-48739.1	1005.82	-29761.4	0.000000	0.000000	6.346871	0.020777	NaN	0.000000	0.001576	0.001662	28.0821	0.021893	0.002077	10.5385	52.0569	-169.349	-0.007584	0.345006	-0.692484	-0.693844	0.020777	10.5385	-0.693963	-1.618329E+9	-1.283830E-11	NaN
567	1.000000	0.354359	7.37059e+06	-48739.1	1005.82	-29761.4	0.000000	0.000000	6.354865	0.050403	NaN	0.000000	0.001540	0.001665	28.0818	0.065893	0.001922	34.2817	-156.244	-165.371	-0.024912	0.353056	-0.684491	-0.685794	0.050403	34.2817	-0.685594	-1.243630E+9	-4.052854E-11	NaN
567	1.000000	0.362354	7.37059e+06	-48739.1	1005.82	-29761.4	0.000000	0.000000	6.362860	0.030611	NaN	0.000000	0.001555	0.001678	28.0813	0.112062	0.002119	52.8857	-67.5343	-165.719	0.037520	0.361071	-0.676495	-0.677779	0.030611	52.8857	-0.676930	-9.466914E+8	-3.233512E-11	NaN
567	1.000000	0.370384	7.3706e+06	-48739.1	1005.82	-29761.4	0.000000	0.000000	6.370887	-0.036775	NaN	0.000000	0.001549	0.001687	28.0808	0.056796	0.002101	27.0347	47.6209	-164.901	-0.018739	0.369074	-0.668465	-0.669776	-0.036775	27.0347	-0.667445	-7.021311E+8	5.237589E-11	NaN
567	1.000000	0.378369	7.3706e+06	-48739.1	1005.82	-29761.4	0.000000	0.000000	6.378876	0.054977	NaN	0.000000	0.001522	0.001659	28.0805	0.121534	0.002004	60.6457	93.7314	-162.621	0.042492	0.377110	-0.660481	-0.661740	0.054977	60.6457	-0.661161	-5.759230E+8	-9.545891E-11	NaN
567	1.000000	0.386374	7.3706e+06	-48739.1	1005.82	-29761.4	0.000000	0.000000	6.386878	-0.009350	NaN	0.000000	0.001601	0.001657	28.0807	0.029954	0.002078	14.4144	-83.4859	-166.078	-0.011696	0.385103	-0.652475	-0.653747	-0.009350	14.4144	-0.651989	-4.312193E+8	2.168261E-11	NaN
567	1.000000	0.394383	7.3706e+06	-48739.1	1005.82	-29761.4	0.000000	0.000000	6.394889	0.026028	NaN	0.000000	0.001577	0.001680	28.0806	0.137619	0.001942	70.8822	35.6876	-167.679	0.085997	0.393109	-0.644466	-0.645740	0.026028	70.8822	-0.644742	-3.430345E+8	-7.587553E-11	NaN
567	1.000000	0.402395	7.3706e+06	-48739.1	1005.82	-29761.4	0.000000	0.000000	6.402901	0.053826	NaN	0.000000	0.001583	0.001683	28.0807	0.067934	0.001993	34.0929	-136.97	-162.703	0.062557	0.401098	-0.636455	-0.637751	0.053826	34.0929	-0.637639	-2.740904E+8	-1.963798E-10	NaN
567	1.000000	0.410386	7.3706e+06	-48739.1	1005.82	-29761.4	0.000000	0.000000	6.410889	-0.025826	NaN	0.000000	0.001567	0.001675	28.0805	0.038257	0.001971	19.412	-177.541	-164.058	-0.049026	0.409053	-0.628464	-0.629797	-0.025826	19.412	-0.627466	-1.987099E+8	1.299678E-10	NaN
567	1.000000	0.418400	7.3706e+06	-48739.1	1005.82	-29761.4	0.000000	0.000000	6.418905	0.003173	NaN	0.000000	0.001584	0.001698	28.0805	0.056084	0.002153	26.0535	-124.303	-167.167	0.119843	0.417100	-0.620449	-0.621750	0.003173	26.0535	-0.620541	-1.596116E+8	-1.987955E-11	NaN
567	1.000000	0.426377	7.3706e+06	-48739.1	1005.82	-29761.4	0.000000	0.000000	6.426881	0.003860	NaN	0.000000	0.001583	0.001714	28.0808	0.064673	0.001921	33.6714	117.467	-163.708	-0.040831	0.425078	-0.612473	-0.613771	0.003860	33.6714	-0.612559	-1.239703E+8	-3.113426E-11	NaN
567	1.000000	0.434417	7.3706e+06	-48739.1	1005.82	-29761.4	0.000000	0.000000	6.434920	-0.033751	NaN	0.000000	0.001554	0.001665	28.0803	0.063096	0.002014	31.3262	-167.757	-166.046	-0.045624	0.433074	-0.604433	-0.605776	-0.033751	31.3262	-0.603625	-9.340499E+7	3.613356E-10	NaN
567	1.000000	0.442374	7.3706e+06	-48739.1	1005.82	-29761.4	0.000000	0.000000	6.442881	0.056892	NaN	0.000000	0.001551	0.001652	28.0807	0.055301	0.002042	27.0852	-72.0909	-164.927	0.021987	0.441115	-0.596476	-0.597735	0.056892	27.0852	-0.598051	-7.827362E+7	-7.268405E-10	NaN
567	1.000000	0.450424	7.3706e+06	-48739.1	1005.82	-29761.4	0.000000	0.000000	6.450927	-0.031043	NaN	0.000000	0.001540	0.001656	28.0803	0.052724	0.001959	26.9084	-10.5017	-165.993	-0.014278	0.449090	-0.588426	-0.589760	-0.031043	26.9084	-0.587561	-5.610893E+7	5.532677E-10	NaN
567	1.000000	0.458424	7.3706e+06	-48739.1	1005.82	-29761.4	0.000000	0.000000	6.458930	0.035072	NaN	0.000000	0.001519	0.001676	28.0802	0.030084	0.002049	14.6805	147.512	-168.199	0.003770	0.457138	-0.580426	-0.581712	0.035072	14.6805	-0.582217	-4.735057E+7	-7.406904E-10	NaN
567	1.000000	0.466430	7.3706e+06	-48739.1	1005.82	-29761.4	0.000000	0.000000	6.466933	-0.029793	NaN	0.000000	0.001570	0.001709	28.0806	0.069767	0.001925	36.2374	28.7208	-165.669	-0.005697	0.465079	-0.572420	-0.573771	-0.029793	36.2374	-0.571804	-3.400552E+7	8.761337E-10	NaN
567	1.000000	0.474416	7.3706e+06	-48739.1	1005.82	-29761.4	0.000000	0.000000	6.474922	0.048649	NaN	0.000000	0.001557	0.001662	28.0804	0.059801	0.001855	32.2429	-2.760584	-164.903	0.018683	0.473096	-0.564434	-0.565753	0.048649	32.2429	-0.565566	-2.788344E+7	-1.744728E-9	NaN
567	1.000000	0.482409	7.3706e+06	-48739.1	1005.82	-29761.4	0.000000	0.000000	6.482912	-0.029144	NaN	0.000000	0.001548	0.001708	28.0805	0.089883	0.001978	45.4312	-8.010062	-166.508	-0.121106	0.481114	-0.556441	-0.557736	-0.029144	45.4312	-0.555960	-2.053412E+7	1.419299E-9	NaN
567	1.000000	0.490416	7.3706e+06	-48739.1	1005.82	-29761.4	0.000000	0.000000	6.490920	-0.010609	NaN	0.000000	0.001537	0.001692	28.0804	0.052955	0.002009	26.3623	36.0219	-165.552	-0.041974	0.489036	-0.548434	-0.549813	-0.010609	26.3623	-0.548132	-1.599841E+7	6.631463E-10	NaN
567	1.000000	0.498440	7.3706e+06	-48739.1	1005.82	-29761.4	0.000000	0.000000	6.498945	0.036934	NaN	0.000000	0.001519	0.001690	28.0814	0.141236	0.001895	74.5252	-92.674	-163.942	-0.015744	0.497119	-0.540410	-0.541731	0.036934	74.5252	-0.540782	-1.265318E+7	-2.918951E-9	NaN
567	1.000000	0.506462	7.3706e+06	-48739.1	1005.82	-29761.4	0.000000	0.000000	6.506968	0.048585	NaN	0.000000	0.001540	0.001706	28.0817	0.040120	0.001949	20.5826	49.8288	-165.565	-0.014909	0.505114	-0.532388	-0.533736	0.048585	20.5826	-0.534158	-1.024009E+7	-4.744579E-9	NaN
567	1.000000	0.514405	7.3706e+06	-48739.1	1005.82	-29761.4	0.000000	0.000000	6.514913	0.105921	NaN	0.000000	0.001518	0.001708	28.0814	0.031602	0.002073	15.2417	175.344	-165.492	0.026376	0.513128	-0.524445	-0.525721	0.105921	15.2417	-0.529657	-8.86778e+06	-1.194449E-8	NaN
567	1.000000	0.522422	7.3706e+06	-48739.1	1005.82	-29761.4	0.000000	0.000000	6.522925	-0.014049	NaN	0.000000	0.001528	0.001650	28.0817	0.066469	0.001867	35.6099	-36.9758	-164.788	-0.000640	0.521071	-0.516428	-0.517779	-0.014049	35.6099	-0.516132	-5.7516e+06	2.442606E-9	NaN
567	1.000000	0.530458	7.3706e+06	-48739.1	1005.82	-29761.4	0.000000	0.000000	6.530961	-0.012913	NaN	0.000000	0.001521	0.001699	28.0813	0.051810	0.002041	25.3817	-71.5373	-166.192	0.048367	0.529122	-0.508392	-0.509728	-0.012913	25.3817	-0.508011	-4.43303e+06	2.912832E-9	NaN
567	1.000000	0.538458	7.3706e+06	-48739.1	1005.82	-29761.4	0.000000	0.000000	6.538964	0.046567	NaN	0.000000	0.001572	0.001715	28.0815	0.004194	0.002027	2.069196	98.3636	-163.267	0.043127	0.537178	-0.500392	-0.501672	0.046567	2.069196	-0.517270	-5.9652e+06	-7.806383E-9	NaN
567	1.000000	0.546458	7.3706e+06	-48739.1	1005.82	-29761.4	0.000000	0.000000	6.546961	-0.045353	NaN	0.000000	0.001587	0.001714	28.0814	0.036167	0.002045	17.6843	-68.4357	-168.351	0.009840	0.545124	-0.492391	-0.493725	-0.045353	17.6843	-0.490468	-2.52309e+06	1.797526E-8	NaN
567	1.000000	0.554465	7.3706e+06	-48739.1	1005.82	-29761.4	0.000000	0.000000	6.554967	-0.041328	NaN	0.000000	0.001584	0.001695	28.0815	0.076448	0.001867	40.9414	-71.1932	-164.776	-0.013046	0.553129	-0.484385	-0.485721	-0.041328	40.9414	-0.483628	-2.0244e+06	2.041489E-8	NaN
567	1.000000	0.562445	7.3706e+06	-48739.1	1005.82	-29761.4	0.000000	0.000000	6.562951	0.046523	NaN	0.000000	0.001559	0.001705	28.0815	0.082590	0.001998	41.3446	-118.155	-166.282	0.002797	0.561168	-0.476405	-0.477682	0.046523	41.3446	-0.477249	-1.64818e+06	-2.822701E-8	NaN
567	1.000000	0.570474	7.3706e+06	-48739.1	1005.82	-29761.4	0.000000	0.000000	6.570977	-0.025316	NaN	0.000000	0.001571	0.001667	28.0814	0.067713	0.002088	32.4347	121.074	-168.338	0.022351	0.569156	-0.468376	-0.469694	-0.025316	32.4347	-0.467791	-1.21454e+06	2.084420E-8	NaN
567	1.000000	0.578462	7.3706e+06	-48739.1	1005.82	-29761.4	0.000000	0.000000	6.578964	-0.046791	NaN	0.000000	0.001572	0.001668	28.0815	0.040709	0.002078	19.5889	-175.765	-162.7	-0.068022	0.577195	-0.460388	-0.461654	-0.046791	19.5889	-0.458596	-902175	5.186458E-8	NaN
567	1.000000	0.586481	7.3706e+06	-48739.1	1005.82	-29761.4	0.000000	0.000000	6.586984	-0.019224	NaN	0.000000	0.001555	0.001699	28.0813	0.029755	0.002108	14.1139	-130.118	-165.045	-0.016790	0.585142	-0.452369	-0.453708	-0.019224	14.1139	-0.451348	-713373	2.694773E-8	NaN
567	1.000000	0.594465	7.3706e+06	-48739.1	1005.82	-29761.4	0.000000	0.000000	6.594972	0.062047	NaN	0.000000	0.001562	0.001660	28.0814	0.063707	0.002147	29.6769	-160.653	-162.015	0.082333	0.593129	-0.444385	-0.445721	0.062047	29.6769	-0.445953	-598861	-1.036081E-7	NaN
567	1.000000	0.602472	7.3706e+06	-48739.1	1005.82	-29761.4	0.000000	0.000000	6.602976	0.008863	NaN	0.000000	0.001537	0.001698	28.0813	0.007831	0.001950	4.015292	104.703	-168.151	0.033243	0.601177	-0.436378	-0.437673	0.008863	4.015292	-0.438034	-463026	-1.914198E-8	NaN
567	1.000000	0.610467	7.3706e+06	-48739.1	1005.82	-29761.4	0.000000	0.000000	6.610973	0.045411	NaN	0.000000	0.001539	0.001679	28.0812	0.085501	0.001876	45.5787	-82.1908	-167.66	0.007874	0.609187	-0.428383	-0.429662	0.045411	45.5787	-0.429130	-346540	-1.310414E-7	NaN
567	1.000000	0.618474	7.3706e+06	-48739.1	1005.82	-29761.4	0.000000	0.000000	6.618980	0.044132	NaN	0.000000	0.001539	0.001692	28.0816	0.054507	0.002027	26.8899	81.9587	-162.532	0.072187	0.617139	-0.420376	-0.421711	0.044132	26.8899	-0.421607	-271144	-1.627626E-7	NaN
567	1.000000	0.626504	7.3706e+06	-48739.1	1005.82	-29761.4	0.000000	0.000000	6.627007	-0.033315	NaN	0.000000	0.001564	0.001711	28.0814	0.038576	0.001849	20.8591	-88.4854	-161.95	0.036002	0.625108	-0.412345	-0.413741	-0.033315	20.8591	-0.411148	-192628	1.729487E-7	NaN
567	1.000000	0.634487	7.3706e+06	-48739.1	1005.82	-29761.4	0.000000	0.000000	6.634992	0.023298	NaN	0.000000	0.001626	0.001699	28.0812	0.040345	0.002026	19.9112	-34.629	-164.436	-0.029032	0.633207	-0.404363	-0.405643	0.023298	19.9112	-0.405240	-158734	-1.467730E-7	NaN
567	1.000000	0.642502	7.3706e+06	-48739.1	1005.82	-29761.4	0.000000	0.000000	6.643008	0.043986	NaN	0.000000	0.001609	0.001703	28.08	0.151362	0.001991	76.0257	-22.1606	-158.312	0.073805	0.641123	-0.396347	-0.397726	0.043986	76.0257	-0.396781	-120246	-3.657985E-7	NaN
567	1.000000	0.650489	7.3706e+06	-48739.1	1005.82	-29761.4	0.000000	0.000000	6.650992	-0.020415	NaN	0.000000	0.001571	0.001704	28.0802	0.039729	0.001934	20.5442	95.8953	-165.773	-0.036613	0.649199	-0.388361	-0.389651	-0.020415	20.5442	-0.387616	-88929.4	2.295654E-7	NaN
567	1.000000	0.658498	7.3706e+06	-48739.1	1005.82	-29761.4	0.000000	0.000000	6.659001	-0.022081	NaN	0.000000	0.001548	0.001715	28.0801	0.117638	0.001883	62.4653	106.496	-167.018	0.045901	0.657114	-0.380352	-0.381735	-0.022081	62.4653	-0.380087	-69363.7	3.183323E-7	NaN
567	1.000000	0.666491	7.3706e+06	-48739.1	1005.82	-29761.4	0.000000	0.000000	6.666996	0.002331	NaN	0.000000	0.001589	0.001694	28.08	0.057064	0.002131	26.7785	-54.6962	-164.945	0.041603	0.665218	-0.372359	-0.373632	0.002331	26.7785	-0.372424	-53829.3	-4.330260E-8	NaN
567	1.000000	0.674515	7.3706e+06	-48739.1	1005.82	-29761.4	0.000000	0.000000	6.675019	0.008256	NaN	0.000000	0.001519	0.001719	28.0806	0.035402	0.001978	17.8973	-148.71	-162.909	-0.039507	0.673185	-0.364335	-0.365665	0.008256	17.8973	-0.364681	-41634.6	-1.982904E-7	NaN
567	1.000000	0.682514	7.3706e+06	-48739.1	1005.82	-29761.4	0.000000	0.000000	6.683021	0.045478	NaN	0.000000	0.001543	0.001709	28.0799	0.046532	0.002005	23.2136	76.8216	-163.839	-0.024787	0.681204	-0.356335	-0.357646	0.045478	23.2136	-0.357805	-33120.6	-1.373092E-6	NaN
567	1.000000	0.690528	7.3706e+06	-48739.1	1005.82	-29761.4	0.000000	0.000000	6.691033	0.027591	NaN	0.000000	0.001481	0.001672	28.0802	0.065877	0.002039	32.3105	140.356	-168.553	0.046335	0.689206	-0.348322	-0.349643	0.027591	32.3105	-0.348962	-24656.8	-1.119016E-6	NaN
567	1.000000	0.698505	7.3706e+06	-48739.1	1005.82	-29761.4	0.000000	0.000000	6.699011	0.030111	NaN	0.000000	0.001513	0.001720	28.08	0.118798	0.001896	62.6433	-10.4964	-166.08	0.092900	0.697232	-0.340345	-0.341617	0.030111	62.6433	-0.340705	-18699.5	-1.610259E-6	NaN
567	1.000000	0.706537	7.3706e+06	-48739.1	1005.82	-29761.4	0.000000	0.000000	6.707045	0.088230	NaN	0.000000	0.001506	0.001713	28.0799	0.009944	0.001907	5.214960	12.9958	-167.578	0.044760	0.705209	-0.332313	-0.333641	0.088230	5.214960	-0.345002	-21596.5	-4.085389E-6	NaN
567	1.000000	0.714509	7.3706e+06	-48739.1	1005.82	-29761.4	0.000000	0.000000	6.715014	-0.004596	NaN	0.000000	0.001524	0.001696	28.0802	0.106132	0.001972	53.8095	-90.5295	-167.984	0.012527	0.713153	-0.324340	-0.325697	-0.004596	53.8095	-0.324276	-10752.5	4.274306E-7	NaN
567	1.000000	0.722520	7.3706e+06	-48739.1	1005.82	-29761.4	0.000000	0.000000	6.723025	0.012805	NaN	0.000000	0.001517	0.001700	28.08	0.055466	0.001992	27.8505	129.602	-164.072	-0.012965	0.721239	-0.316330	-0.317611	0.012805	27.8505	-0.316675	-8311.01	-1.540719E-6	NaN
567	1.000000	0.730517	7.3706e+06	-48739.1	1005.82	-29761.4	0.000000	0.000000	6.731022	0.015943	NaN	0.000000	0.001563	0.001723	28.0803	0.047790	0.002000	23.8957	-177.176	-164.063	0.000302	0.729201	-0.308333	-0.309649	0.015943	23.8957	-0.308833	-6364.77	-2.504838E-6	NaN
567	1.000000	0.738578	7.3706e+06	-48739.1	1005.82	-29761.4	0.000000	0.000000	6.739079	-0.068731	NaN	0.000000	0.001530	0.001659	28.0801	0.052151	0.002052	25.4159	79.7967	-166.097	-0.006907	0.737253	-0.300272	-0.301597	-0.068731	25.4159	-0.298244	-4430.79	1.551210E-5	NaN
567	1.000000	0.746554	7.3706e+06	-48739.1	1005.82	-29761.4	0.000000	0.000000	6.747058	-0.020202	NaN	0.000000	0.001531	0.001742	28.0802	0.041621	0.001808	23.0168	-56.8377	-165.488	0.007111	0.745235	-0.292296	-0.293615	-0.020202	23.0168	-0.291637	-3530.37	5.722219E-6	NaN
567	1.000000	0.754524	7.3706e+06	-48739.1	1005.82	-29761.4	0.000000	0.000000	6.755033	0.099255	NaN	0.000000	0.001532	0.001707	28.0802	0.091299	0.002067	44.1666	175.793	-162.086	0.113327	0.753226	-0.284325	-0.285623	0.099255	44.1666	-0.286011	-2907.09	-3.414230E-5	NaN
567	1.000000	0.762555	7.3706e+06	-48739.1	1005.82	-29761.4	0.000000	0.000000	6.763059	-0.014830	NaN	0.000000	0.001588	0.001689	28.0802	0.127000	0.001842	68.9485	-49.9846	-162.109	0.005018	0.761218	-0.276295	-0.277632	-0.014830	68.9485	-0.276133	-2063.27	7.187724E-6	NaN
567	1.000000	0.770558	7.3706e+06	-48739.1	1005.82	-29761.4	0.000000	0.000000	6.771063	0.030970	NaN	0.000000	0.001582	0.001699	28.0803	0.027218	0.001896	14.3524	-75.2861	-166.522	0.041880	0.769236	-0.268292	-0.269614	0.030970	14.3524	-0.269910	-1660.28	-1.865322E-5	NaN
567	1.000000	0.778528	7.3706e+06	-48739.1	1005.82	-29761.4	0.000000	0.000000	6.779030	-0.049638	NaN	0.000000	0.001565	0.001685	28.0814	0.145382	0.002092	69.4827	-135.359	-164.582	-0.049352	0.777253	-0.260322	-0.261597	-0.049638	69.4827	-0.259786	-1163.17	4.267488E-5	NaN
567	1.000000	0.786550	7.3706e+06	-48739.1	1005.82	-29761.4	0.000000	0.000000	6.787053	-0.029058	NaN	0.000000	0.001557	0.001716	28.0813	0.102595	0.002020	50.7861	169.528	-167.462	-0.023080	0.785232	-0.252300	-0.253618	-0.029058	50.7861	-0.251871	-878.774	3.306708E-5	NaN
567	1.000000	0.794548	7.3706e+06	-48739.1	1005.82	-29761.4	0.000000	0.000000	6.795055	0.080640	NaN	0.000000	0.001542	0.001715	28.0813	0.111385	0.001948	57.1857	178.339	-166.972	0.102002	0.793226	-0.244302	-0.245624	0.080640	57.1857	-0.245360	-696.693	-0.000116	NaN
567	1.000000	0.802542	7.3706e+06	-48739.1	1005.82	-29761.4	0.000000	0.000000	6.803049	0.047186	NaN	0.000000	0.001578	0.001688	28.0812	0.083339	0.001877	44.3885	156.933	-168.899	0.045697	0.801267	-0.236307	-0.237583	0.047186	44.3885	-0.237105	-517.917	-9.110738E-5	NaN
567	1.000000	0.810542	7.3706e+06	-48739.1	1005.82	-29761.4	0.000000	0.000000	6.811046	0.004730	NaN	0.000000	0.001567	0.001689	28.0814	0.049956	0.001848	27.0344	-67.1318	-166.271	0.051022	0.809248	-0.228308	-0.229602	0.004730	27.0344	-0.228439	-378.308	-1.250361E-5	NaN
567	1.000000	0.818527	7.3706e+06	-48739.1	1005.82	-29761.4	0.000000	0.000000	6.819033	0.025924	NaN	0.000000	0.001595	0.001701	28.0813	0.036141	0.001926	18.7633	144.813	-159.894	0.051982	0.817235	-0.220322	-0.221615	0.025924	18.7633	-0.221359	-291.991	-8.878388E-5	NaN
567	1.000000	0.826562	7.3706e+06	-48739.1	1005.82	-29761.4	0.000000	0.000000	6.827065	-0.013580	NaN	0.000000	0.001564	0.001697	28.0814	0.013665	0.002142	6.379496	99.1549	-164.625	0.006893	0.825260	-0.212288	-0.213590	-0.013580	6.379496	-0.210692	-196.794	6.900602E-5	NaN
567	1.000000	0.834578	7.3706e+06	-48739.1	1005.82	-29761.4	0.000000	0.000000	6.835085	0.051563	NaN	0.000000	0.001555	0.001701	28.0814	0.056018	0.002069	27.0697	121.076	-166.085	0.002245	0.833233	-0.204272	-0.205617	0.051563	27.0697	-0.205700	-163.295	-0.000316	NaN
567	1.000000	0.842583	7.3706e+06	-48739.1	1005.82	-29761.4	0.000000	0.000000	6.843087	-0.010969	NaN	0.000000	0.001579	0.001691	28.0814	0.080233	0.001834	43.7524	-97.8937	-164.714	-0.015856	0.841264	-0.196267	-0.197586	-0.010969	43.7524	-0.196079	-113.515	9.662959E-5	NaN
567	1.000000	0.850595	7.3706e+06	-48739.1	1005.82	-29761.4	0.000000	0.000000	6.851100	0.032205	NaN	0.000000	0.001537	0.001701	28.0812	0.129625	0.001962	66.0831	-176.187	-166.98	0.040512	0.849263	-0.188255	-0.189587	0.032205	66.0831	-0.188620	-85.3009	-0.000378	NaN
567	1.000000	0.858577	7.3706e+06	-48739.1	1005.82	-29761.4	0.000000	0.000000	6.859081	-0.002836	NaN	0.000000	0.001562	0.001730	28.0812	0.032422	0.002053	15.7895	-68.1157	-166.973	-0.007879	0.857251	-0.180273	-0.181599	-0.002836	15.7895	-0.180138	-61.3511	4.622022E-5	NaN
567	1.000000	0.866600	7.3706e+06	-48739.1	1005.82	-29761.4	0.000000	0.000000	6.867108	0.085737	NaN	0.000000	0.001562	0.001684	28.0815	0.158000	0.002084	75.8052	-131.655	-165.41	0.069603	0.865306	-0.172249	-0.173544	0.085737	75.8052	-0.173098	-46.4759	-0.001845	NaN
567	1.000000	0.874588	7.3706e+06	-48739.1	1005.82	-29761.4	0.000000	0.000000	6.875094	0.039323	NaN	0.000000	0.001549	0.001689	28.0813	0.122381	0.001959	62.4711	-61.0756	-165	0.120808	0.873287	-0.164262	-0.165562	0.039323	62.4711	-0.164734	-33.2375	-0.001183	NaN
567	1.000000	0.882587	7.3706e+06	-48739.1	1005.82	-29761.4	0.000000	0.000000	6.883091	-0.004293	NaN	0.000000	0.001554	0.001730	28.0813	0.124272	0.002052	60.5647	-153.169	-167.135	0.051603	0.881280	-0.156263	-0.157570	-0.004293	60.5647	-0.156210	-23.4594	0.000183	NaN
567	1.000000	0.890602	7.3706e+06	-48739.1	1005.82	-29761.4	0.000000	0.000000	6.891112	0.144466	NaN	0.000000	0.001551	0.001722	28.0812	0.081271	0.002043	39.7832	58.5562	-166.73	0.128317	0.889223	-0.148248	-0.149627	0.144466	39.7832	-0.150972	-18.8669	-0.007657	NaN
567	1.000000	0.898583	7.3706e+06	-48739.1	1005.82	-29761.4	0.000000	0.000000	6.899088	0.026182	NaN	0.000000	0.001568	0.001687	28.0813	0.023157	0.002035	11.3796	133.731	-166.113	0.078000	0.897279	-0.140267	-0.141571	0.026182	11.3796	-0.141992	-12.8906	-0.002031	NaN
567	1.000000	0.906611	7.3706e+06	-48739.1	1005.82	-29761.4	0.000000	0.000000	6.907118	0.070800	NaN	0.000000	0.001565	0.001749	28.0813	0.008489	0.001973	4.302583	-38.0646	-164.816	0.038726	0.905262	-0.132239	-0.133588	0.070800	4.302583	-0.144580	-14.4011	-0.004916	NaN
567	1.000000	0.914589	7.3706e+06	-48739.1	1005.82	-29761.4	0.000000	0.000000	6.915095	0.043209	NaN	0.000000	0.001587	0.001707	28.08	0.083469	0.002054	40.6308	150.622	-164.262	0.031987	0.913315	-0.124261	-0.125535	0.043209	40.6308	-0.125058	-6.097429	-0.007086	NaN
567	1.000000	0.922597	7.3706e+06	-48739.1	1005.82	-29761.4	0.000000	0.000000	6.923100	-0.028563	NaN	0.000000	0.001646	0.001707	28.0801	0.021587	0.001980	10.9046	119.016	-164.084	-0.019957	0.921349	-0.116253	-0.117501	-0.028563	10.9046	-0.114288	-3.693248	0.007734	NaN
567	1.000000	0.930596	7.3706e+06	-48739.1	1005.82	-29761.4	0.000000	0.000000	6.931102	0.028865	NaN	0.000000	0.001611	0.001723	28.0799	0.096375	0.001978	48.7306	-162.07	-164.681	0.084015	0.929285	-0.108254	-0.109565	0.028865	48.7306	-0.108698	-2.820546	-0.010234	NaN
567	1.000000	0.938637	7.3706e+06	-48739.1	1005.82	-29761.4	0.000000	0.000000	6.939142	0.019626	NaN	0.000000	0.001585	0.001719	28.0803	0.041946	0.002024	20.7204	-154.031	-164.09	-0.060577	0.937339	-0.100213	-0.101511	0.019626	20.7204	-0.100923	-1.915093	-0.010248	NaN
567	1.000000	0.946602	7.3706e+06	-48739.1	1005.82	-29761.4	0.000000	0.000000	6.947107	0.012921	NaN	0.000000	0.001610	0.001719	28.0801	0.103743	0.002041	50.8405	24.2066	-167.462	0.022479	0.945287	-0.092248	-0.093563	0.012921	50.8405	-0.092438	-1.232004	-0.010488	NaN
567	1.000000	0.954632	7.3706e+06	-48739.1	1005.82	-29761.4	0.000000	0.000000	6.955139	0.050890	NaN	0.000000	0.001610	0.001673	28.0799	0.037969	0.001999	18.9925	67.166	-164.958	-0.070897	0.953351	-0.084217	-0.085498	0.050890	18.9925	-0.086227	-0.879553	-0.057859	NaN
567	1.000000	0.962614	7.3706e+06	-48739.1	1005.82	-29761.4	0.000000	0.000000	6.963118	-0.009423	NaN	0.000000	0.001585	0.001689	28.0801	0.071103	0.002095	33.9423	-162.807	-164.619	0.071045	0.961277	-0.076236	-0.077573	-0.009423	33.9423	-0.076027	-0.490914	0.019195	NaN
567	1.000000	0.970632	7.3706e+06	-48739.1	1005.82	-29761.4	0.000000	0.000000	6.971136	-0.018257	NaN	0.000000	0.001597	0.001687	28.08	0.054636	0.002069	26.4099	57.2178	-166.346	0.012392	0.969316	-0.068218	-0.069534	-0.018257	26.4099	-0.067699	-0.295636	0.061754	NaN
567	1.000000	0.978618	7.3706e+06	-48739.1	1005.82	-29761.4	0.000000	0.000000	6.979123	0.019528	NaN	0.000000	0.001621	0.001705	28.0799	0.051625	0.001961	26.3221	1.736730	-163.174	-0.004502	0.977361	-0.060232	-0.061489	0.019528	26.3221	-0.060788	-0.189696	-0.102944	NaN
567	1.000000	0.986641	7.3706e+06	-48739.1	1005.82	-29761.4	0.000000	0.000000	6.987142	-0.078091	NaN	0.000000	0.001607	0.001731	28.08	0.030906	0.001952	15.829	148.116	-163.455	-0.045454	0.985339	-0.052209	-0.053511	-0.078091	15.829	-0.048509	-0.082229	0.949682	NaN
567	1.000000	0.994637	7.3706e+06	-48739.1	1005.82	-29761.4	0.000000	0.000000	6.995140	-0.043764	NaN	0.000000	0.001597	0.001710	28.08	0.022504	0.002059	10.9316	168.235	-166.522	-7.251991E-5	0.993285	-0.044212	-0.045565	-0.043764	10.9316	-0.041210	-0.049222	0.889105	NaN
567	1.000000	1.002646	7.3706e+06	-48739.1	1005.82	-29761.4	0.000000	0.000000	7.003152	0.041315	NaN	0.000000	0.001630	0.001673	28.0801	0.019127	0.002038	9.385039	-107.905	-162.398	0.035728	1.001309	-0.036203	-0.037541	0.041315	9.385039	-0.039505	-0.043685	-0.945735	NaN
567	1.000000	1.010635	7.3706e+06	-48739.1	1005.82	-29761.4	0.000000	0.000000	7.011141	0.031877	NaN	0.000000	0.001636	0.001691	28.0798	0.067396	0.001995	33.7773	-122.955	-162.591	0.103786	1.009375	-0.028214	-0.029475	0.031877	33.7773	-0.028922	-0.021486	-1.483660	NaN
567	1.000000	1.018641	7.3706e+06	-48739.1	1005.82	-29761.4	0.000000	0.000000	7.019146	0.013756	NaN	0.000000	0.001635	0.001689	28.0801	0.069156	0.002011	34.3827	-102.901	-163.81	0.060938	1.017335	-0.020208	-0.021515	0.013756	34.3827	-0.020509	-0.012940	-1.063029	NaN
567	1.000000	1.026665	7.3706e+06	-48739.1	1005.82	-29761.4	0.000000	0.000000	7.027168	-0.042989	NaN	0.000000	0.001630	0.001680	28.0797	0.113371	0.001960	57.84	115.183	-162.997	-0.130578	1.025341	-0.012184	-0.013509	-0.042989	57.84	-0.011627	-0.007316	5.876392	NaN
567	1.000000	1.034642	7.3706e+06	-48739.1	1005.82	-29761.4	0.000000	0.000000	7.035149	0.050971	NaN	0.000000	0.001625	0.001699	28.08	0.122972	0.001970	62.4192	11.4076	-166.373	-0.038950	1.033325	-0.004208	-0.005525	0.050971	62.4192	-0.004820	-0.003303	-15.4306	NaN
567	1.000000	1.042614	7.3706e+06	-48739.1	1005.82	-29761.4	0.000000	0.000000	7.043395	6.721900	NaN	0.000000	0.001564	0.001720	28.08	6.838754	0.001734	3943.91	8.476368	-171.116	4.369718	1.041313	0.003764	0.002463	6.721900	3943.91	0.002486	0.001952	3443.94	81560.9
567	2.000000	1.046200	7.3706e+06	-48739.1	1005.82	-29761.4	0.000000	0.000000	7.047196	11.9543	NaN	0.000000	0.001548	0.001719	28.0812	10.7798	0.001803	5978.22	8.526810	-171.959	12.539	1.045892	0.007350	0.007042	11.9543	5978.22	0.005851	0.004923	2428.14	77843.1
567	2.000000	1.048156	7.3706e+06	-48739.1	1005.82	-29761.4	0.000000	0.000000	7.049353	16.849	NaN	0.000000	0.001569	0.001757	28.0813	13.2698	0.001755	7560.78	8.448403	-175.425	15.7259	1.047827	0.009306	0.008977	16.849	7560.78	0.007635	0.006669	2526.29	84585.3
567	2.000000	1.050191	7.3706e+06	-48739.1	1005.82	-29761.4	0.000000	0.000000	7.051587	21.697	NaN	0.000000	0.001573	0.001755	28.081	15.2486	0.001747	8729.64	8.618851	-176.551	21.4761	1.049811	0.011341	0.010962	21.697	8729.64	0.009477	0.008606	2521.07	85973.2
567	2.000000	1.052165	7.3706e+06	-48739.1	1005.82	-29761.4	0.000000	0.000000	7.053553	21.4845	NaN	0.000000	0.001545	0.001719	28.0811	16.6132	0.001678	9901.59	5.200446	-176.614	21.0782	1.051803	0.013315	0.012953	21.4845	9901.59	0.011688	0.011119	1932.3	85793.2
567	2.000000	1.054098	7.3706e+06	-48739.1	1005.82	-29761.4	0.000000	0.000000	7.055711	26.9593	NaN	0.000000	0.001534	0.001693	28.0811	19.1285	0.001907	10029.5	6.853822	-176.901	25.5584	1.053835	0.015248	0.014985	26.9593	10029.5	0.013232	0.013000	2073.87	80369.3
567	2.000000	1.056134	7.3706e+06	-48739.1	1005.82	-29761.4	0.000000	0.000000	7.057862	29.7794	NaN	0.000000	0.001550	0.001705	28.081	20.3753	0.001795	11348.1	9.847743	-179.627	30.5349	1.055825	0.017284	0.016975	29.7794	11348.1	0.015316	0.015709	1895.71	82722.3
567	2.000000	1.058086	7.3706e+06	-48739.1	1005.82	-29761.4	0.000000	0.000000	7.060070	35.9837	NaN	0.000000	0.001564	0.001651	28.0811	23.2221	0.001854	12525.2	6.819634	-179.518	33.7161	1.057741	0.019236	0.018891	35.9837	12525.2	0.017081	0.018162	1981.28	84914
567	2.000000	1.060083	7.3706e+06	-48739.1	1005.82	-29761.4	0.000000	0.000000	7.062151	38.0267	NaN	0.000000	0.001549	0.001687	28.081	24.4525	0.001777	13762.2	3.225334	-175.769	36.2636	1.059825	0.021234	0.020975	38.0267	13762.2	0.019161	0.021242	1790.21	86271.9
567	2.000000	1.062102	7.3706e+06	-48739.1	1005.82	-29761.4	0.000000	0.000000	7.064426	44.2609	NaN	0.000000	0.001553	0.001684	28.0811	26.7621	0.001915	13977.9	7.370364	179.772	44.2133	1.061826	0.023253	0.022976	44.2609	13977.9	0.020878	0.023940	1848.81	82537.2
567	2.000000	1.064078	7.3706e+06	-48739.1	1005.82	-29761.4	0.000000	0.000000	7.066778	53.4071	NaN	0.000000	0.001548	0.001741	28.0812	28.0336	0.001792	15643.5	4.278400	-177.607	50.7636	1.063736	0.025228	0.024886	53.4071	15643.5	0.022667	0.026908	1984.78	87129.5
567	2.000000	1.066060	7.3706e+06	-48739.1	1005.82	-29761.4	0.000000	0.000000	7.068984	58.8582	NaN	0.000000	0.001585	0.001684	28.0811	28.6785	0.001808	15861.4	3.613664	-176.921	58.0154	1.065721	0.027210	0.026871	58.8582	15861.4	0.024427	0.029981	1963.17	83693
567	2.000000	1.068053	7.3706e+06	-48739.1	1005.82	-29761.4	0.000000	0.000000	7.071098	61.7965	NaN	0.000000	0.001526	0.001710	28.0813	31.8551	0.001874	17002.8	2.636565	-176.761	59.978	1.067819	0.029203	0.028969	61.7965	17002.8	0.026477	0.033757	1830.61	84549
567	2.000000	1.070091	7.3706e+06	-48739.1	1005.82	-29761.4	0.000000	0.000000	7.073476	70.0688	NaN	0.000000	0.001553	0.001700	28.0811	33.1131	0.001902	17410.3	2.015626	-176.173	67.9229	1.069730	0.031241	0.030881	70.0688	17410.3	0.028222	0.037140	1886.61	82538.9
567	2.000000	1.072067	7.3706e+06	-48739.1	1005.82	-29761.4	0.000000	0.000000	7.075791	78.307	NaN	0.000000	0.001596	0.001705	28.0813	35.4248	0.001827	19389.1	7.266551	176.913	77.8555	1.071725	0.033217	0.032875	78.307	19389.1	0.030188	0.041134	1903.72	87343.9
567	2.000000	1.074065	7.3706e+06	-48739.1	1005.82	-29761.4	0.000000	0.000000	7.077978	82.9147	NaN	0.000000	0.001551	0.001724	28.0811	37.9115	0.001898	19969.5	5.206707	179.033	80.4632	1.073836	0.035215	0.034986	82.9147	19969.5	0.032101	0.045211	1833.95	85806.1
567	2.000000	1.076127	7.3706e+06	-48739.1	1005.82	-29761.4	0.000000	0.000000	7.080334	90.0374	NaN	0.000000	0.001574	0.001737	28.0813	39.0341	0.001859	20993.6	3.750239	-179.563	91.2133	1.075714	0.037278	0.036865	90.0374	20993.6	0.034061	0.049582	1815.92	86138.7
567	2.000000	1.077995	7.3706e+06	-48739.1	1005.82	-29761.4	0.000000	0.000000	7.082656	101.1	NaN	0.000000	0.001587	0.001710	28.0814	40.303	0.001877	21469.8	0.781369	-176.825	97.7251	1.077700	0.039145	0.038850	101.1	21469.8	0.035613	0.053184	1900.96	85057
567	2.000000	1.080053	7.3706e+06	-48739.1	1005.82	-29761.4	0.000000	0.000000	7.085082	110.049	NaN	0.000000	0.001565	0.001689	28.08	42.9553	0.001796	23917.4	6.136929	176.941	108.527	1.079715	0.041203	0.040866	110.049	23917.4	0.037752	0.058349	1886.06	90463
567	2.000000	1.082080	7.3706e+06	-48739.1	1005.82	-29761.4	0.000000	0.000000	7.087347	115.821	NaN	0.000000	0.001541	0.001718	28.08	43.1936	0.001819	23743.1	2.557961	179.977	114.97	1.081770	0.043231	0.042920	115.821	23743.1	0.039572	0.062927	1840.57	86475.3
567	2.000000	1.084117	7.3706e+06	-48739.1	1005.82	-29761.4	0.000000	0.000000	7.089830	126.678	NaN	0.000000	0.001610	0.001704	28.0798	45.9574	0.001816	25313.1	9.139023	175.189	129.1	1.083678	0.045268	0.044828	126.678	25313.1	0.041514	0.068001	1862.9	88687.5
567	2.000000	1.086028	7.3706e+06	-48739.1	1005.82	-29761.4	0.000000	0.000000	7.092074	134.795	NaN	0.000000	0.001560	0.001698	28.0799	46.3932	0.001798	25798.6	5.329584	177.188	132.583	1.085633	0.047178	0.046783	134.795	25798.6	0.043259	0.072723	1853.55	87404.5
567	2.000000	1.088005	7.3706e+06	-48739.1	1005.82	-29761.4	0.000000	0.000000	7.094337	141.748	NaN	0.000000	0.001582	0.001667	28.0799	48.6443	0.001831	26560.3	2.957467	178.562	139.575	1.087720	0.049155	0.048870	141.748	26560.3	0.045153	0.078021	1816.79	86876
567	2.000000	1.090070	7.3706e+06	-48739.1	1005.82	-29761.4	0.000000	0.000000	7.096706	149.12	NaN	0.000000	0.001557	0.001678	28.0798	50.8358	0.001767	28765.4	7.283480	175.143	148.855	1.089690	0.051221	0.050840	149.12	28765.4	0.047333	0.084347	1767.94	90491.9
567	2.000000	1.092061	7.3706e+06	-48739.1	1005.82	-29761.4	0.000000	0.000000	7.098927	154.718	NaN	0.000000	0.001544	0.001715	28.08	51.3054	0.001719	29841.5	1.681611	179.445	157.202	1.091814	0.053212	0.052964	154.718	29841.5	0.049323	0.090333	1712.76	90713.5
567	2.000000	1.094037	7.3706e+06	-48739.1	1005.82	-29761.4	0.000000	0.000000	7.101483	168.82	NaN	0.000000	0.001540	0.001686	28.0798	54.7952	0.001857	29508.7	4.944098	175.468	167.049	1.093751	0.055188	0.054901	168.82	29508.7	0.050897	0.095206	1773.22	87376.1
567	2.000000	1.096048	7.3706e+06	-48739.1	1005.82	-29761.4	0.000000	0.000000	7.103894	178.564	NaN	0.000000	0.001571	0.001710	28.0802	55.834	0.001729	32301	6.704984	173.56	177.414	1.095633	0.057198	0.056783	178.564	32301	0.053052	0.102079	1749.27	92367.8
567	2.000000	1.098009	7.3706e+06	-48739.1	1005.82	-29761.4	0.000000	0.000000	7.106346	190.513	NaN	0.000000	0.001520	0.001729	28.0801	57.4032	0.001769	32449.1	6.631056	173.634	187.77	1.097719	0.059159	0.058869	190.513	32449.1	0.054756	0.107677	1769.3	90347.1
567	2.000000	1.099990	7.3706e+06	-48739.1	1005.82	-29761.4	0.000000	0.000000	7.108775	201.408	NaN	0.000000	0.001576	0.001713	28.08	58.6503	0.001761	33307.6	3.540995	177.446	196.626	1.099546	0.061140	0.060696	201.408	33307.6	0.056605	0.113916	1768.04	90161.8
567	2.000000	1.101991	7.3706e+06	-48739.1	1005.82	-29761.4	0.000000	0.000000	7.111114	209.618	NaN	0.000000	0.001547	0.001662	28.0801	60.4035	0.001772	34083	5.951086	173.838	209.253	1.101675	0.063142	0.062825	209.618	34083	0.058529	0.120586	1738.33	89673.2
567	2.000000	1.103997	7.3706e+06	-48739.1	1005.82	-29761.4	0.000000	0.000000	7.113669	222.969	NaN	0.000000	0.001546	0.001680	28.0801	62.5945	0.001753	35710.6	3.851930	175.613	220.099	1.103751	0.065147	0.064902	222.969	35710.6	0.060464	0.127479	1749.06	91380.2
567	2.000000	1.106131	7.3706e+06	-48739.1	1005.82	-29761.4	0.000000	0.000000	7.116162	231.694	NaN	0.000000	0.001566	0.001648	28.0803	63.8366	0.001716	37190.2	5.438369	173.539	236.522	1.105741	0.067281	0.066891	231.694	37190.2	0.062609	0.135330	1712.07	92364.5
567	2.000000	1.107954	7.3706e+06	-48739.1	1005.82	-29761.4	0.000000	0.000000	7.118633	247.458	NaN	0.000000	0.001565	0.001699	28.0802	66.7297	0.001883	35430	3.712128	176.221	243.499	1.107649	0.069104	0.068799	247.458	35430	0.063866	0.140035	1767.12	86502.1
567	2.000000	1.110063	7.3706e+06	-48739.1	1005.82	-29761.4	0.000000	0.000000	7.121284	260.625	NaN	0.000000	0.001573	0.001698	28.0799	69.0032	0.001823	37859.9	9.216220	170.996	259.767	1.109613	0.071214	0.070763	260.625	37859.9	0.066051	0.148395	1756.29	89793
567	2.000000	1.112038	7.3706e+06	-48739.1	1005.82	-29761.4	0.000000	0.000000	7.123826	274.45	NaN	0.000000	0.001586	0.001681	28.0799	69.6458	0.001775	39235.2	3.797211	175.891	274.062	1.111587	0.073188	0.072737	274.45	39235.2	0.067942	0.155816	1761.37	90812
567	2.000000	1.113985	7.3706e+06	-48739.1	1005.82	-29761.4	0.000000	0.000000	7.126232	285.601	NaN	0.000000	0.001582	0.001667	28.0813	72.2478	0.001715	42137.6	2.517045	175.658	282.892	1.113740	0.075136	0.074890	285.601	42137.6	0.070052	0.164300	1738.29	94978.2
567	2.000000	1.116051	7.3706e+06	-48739.1	1005.82	-29761.4	0.000000	0.000000	7.128835	298.662	NaN	0.000000	0.001540	0.001705	28.0816	72.8157	0.001686	43192.6	0.006657	178.42	299.957	1.115706	0.077201	0.076856	298.662	43192.6	0.072015	0.172383	1732.55	95046.4
567	2.000000	1.117962	7.3706e+06	-48739.1	1005.82	-29761.4	0.000000	0.000000	7.131363	313.673	NaN	0.000000	0.001586	0.001700	28.0809	77.7165	0.001702	45669.5	8.928836	169.02	310.356	1.117654	0.079112	0.078804	313.673	45669.5	0.073961	0.180571	1737.12	98191.8
567	2.000000	1.120004	7.3706e+06	-48739.1	1005.82	-29761.4	0.000000	0.000000	7.133957	327.088	NaN	0.000000	0.001549	0.001696	28.0813	79.9781	0.001860	42999.2	4.366026	174.236	322.179	1.119653	0.081155	0.080803	327.088	42999.2	0.075449	0.186959	1749.51	90857.4
567	2.000000	1.122053	7.3706e+06	-48739.1	1005.82	-29761.4	0.000000	0.000000	7.136526	339.741	NaN	0.000000	0.001592	0.001657	28.0812	82.2085	0.001848	44489.9	7.462937	170.835	340.351	1.121610	0.083203	0.082760	339.741	44489.9	0.077476	0.195821	1734.96	91855.5
567	2.000000	1.123963	7.3706e+06	-48739.1	1005.82	-29761.4	0.000000	0.000000	7.139028	354.12	NaN	0.000000	0.001506	0.001688	28.0814	84.3336	0.001795	46980.8	6.054941	171.104	351.465	1.123800	0.085113	0.084951	354.12	46980.8	0.079460	0.204686	1730.07	94874.5
567	2.000000	1.125971	7.3706e+06	-48739.1	1005.82	-29761.4	0.000000	0.000000	7.141797	372.642	NaN	0.000000	0.001529	0.001718	28.0814	84.9924	0.001811	46934.6	6.049669	171.627	371.361	1.125614	0.087121	0.086764	372.642	46934.6	0.081166	0.212454	1753.99	93032.5
567	2.000000	1.127973	7.3706e+06	-48739.1	1005.82	-29761.4	0.000000	0.000000	7.144361	386.317	NaN	0.000000	0.001532	0.001698	28.081	86.8088	0.001770	49049	3.120788	173.752	382.537	1.127749	0.089123	0.088899	386.317	49049	0.083216	0.221963	1740.45	95118.1
567	2.000000	1.130055	7.3706e+06	-48739.1	1005.82	-29761.4	0.000000	0.000000	7.147235	405.567	NaN	0.000000	0.001518	0.001667	28.0816	89.4045	0.001685	53053.7	5.571824	171.141	405.105	1.129694	0.091206	0.090844	405.567	53053.7	0.085472	0.232660	1743.17	100491
567	2.000000	1.131972	7.3706e+06	-48739.1	1005.82	-29761.4	0.000000	0.000000	7.149847	422.472	NaN	0.000000	0.001499	0.001673	28.0812	90.4845	0.001821	49690.8	1.988137	174.951	419.398	1.131763	0.093122	0.092913	422.472	49690.8	0.086746	0.238801	1769.14	92903.4
567	2.000000	1.133923	7.3706e+06	-48739.1	1005.82	-29761.4	0.000000	0.000000	7.152482	439.11	NaN	0.000000	0.001551	0.001689	28.0812	92.1704	0.001668	55273.7	4.594456	171.654	433.729	1.133602	0.095074	0.094752	439.11	55273.7	0.089116	0.250425	1753.46	100915
567	2.000000	1.135991	7.3706e+06	-48739.1	1005.82	-29761.4	0.000000	0.000000	7.155055	451.391	NaN	0.000000	0.001488	0.001661	28.0811	91.7378	0.001684	54485.7	0.266989	176.175	450.164	1.135726	0.097142	0.096876	451.391	54485.7	0.090928	0.259491	1739.53	97722.5
567	2.000000	1.137978	7.3706e+06	-48739.1	1005.82	-29761.4	0.000000	0.000000	7.157895	472.157	NaN	0.000000	0.001513	0.001659	28.0812	94.7948	0.001742	54423.1	1.380243	175.409	470.646	1.137630	0.099128	0.098781	472.157	54423.1	0.092621	0.268094	1761.16	96031.2
567	2.000000	1.139993	7.3706e+06	-48739.1	1005.82	-29761.4	0.000000	0.000000	7.160549	487.685	NaN	0.000000	0.001532	0.001668	28.082	98.0609	0.001834	53480.3	6.246903	170.779	484.476	1.139609	0.101143	0.100760	487.685	53480.3	0.094304	0.276774	1762.03	92876.2
567	2.000000	1.141901	7.3706e+06	-48739.1	1005.82	-29761.4	0.000000	0.000000	7.162944	499.529	NaN	0.000000	0.001534	0.001621	28.0815	99.5267	0.001836	54208.1	5.396489	171.275	495.489	1.141745	0.103051	0.102895	499.529	54208.1	0.096140	0.286392	1744.21	92545.8
567	2.000000	1.143025	7.3706e+06	-48739.1	1005.82	-29761.4	0.000000	0.000000	7.164387	507.285	NaN	0.000000	0.001551	0.001626	28.0816	99.3371	0.001726	57540	0.319249	176.029	507.49	1.142706	0.104175	0.103856	507.285	57540	0.097563	0.293957	1725.71	96961.9