File: remote_trans/data/nanoindenter/0828-1/data/Data_2025-08-06,11h17m57s/2025-07-22_16-23-58_1_491.txt
2025-07-22, 16:23:58, 1
Index	Phase	Displacement	Time	Pos X	Pos Y	Pos Z	Rot A	Rot B	Piezo Z	Force A	Force B	Gripper	Voltage A	Voltage B	Temperature	Amplitude force	Amplitude pos	Stiffness	Phase shift	Phase excitation	Force A raw	Displacement raw	HMax	HMax raw	Real Force	Real Stiffness	Contact Depth	Area	Hardness	Reduced Mod.
[#]	[#]	[um]	[s]	[um]	[um]	[um]	[m°]	[m°]	[um]	[uN]	[uN]	[V]	[V]	[V]	[°C]	[uN]	[um]	[N/m]	[°]	[°]	[uN]	[um]	[um]	[um]	[uN]	[N/m]	[um]	[um^2]	[MPa]	[MPa]
491	1.000000	0.002477	7.36986e+06	-52539.1	1005.82	-29749	0.000000	0.000000	6.002800	-0.057001	NaN	0.000000	0.001618	0.001706	28.0805	0.056679	0.001020	55.5675	128.695	-165.669	-0.009795	0.001210	-1.139378	-1.140645	-0.057001	55.5675	-1.138609	-1.652281E+15	3.449814E-17	NaN
491	1.000000	0.012535	7.36986e+06	-52539.1	1005.82	-29749	0.000000	0.000000	6.012859	-0.041390	NaN	0.000000	0.001597	0.001692	28.0807	0.073140	0.001362	53.6918	-118.657	19.068	-0.000110	0.011091	-1.129320	-1.130764	-0.041390	53.6918	-1.128742	-1.218276E+15	3.397442E-17	NaN
491	1.000000	0.022430	7.36986e+06	-52539.1	1005.82	-29749	0.000000	0.000000	6.022755	-0.016989	NaN	0.000000	0.001581	0.001675	28.0818	0.054131	0.001850	29.2581	-144.647	-166.7	-0.059080	0.021122	-1.119425	-1.120733	-0.016989	29.2581	-1.118989	-9.013860E+14	1.884812E-17	NaN
491	1.000000	0.032403	7.36986e+06	-52539.1	1005.82	-29749	0.000000	0.000000	6.032729	0.018487	NaN	0.000000	0.001605	0.001681	28.0817	0.056831	0.001974	28.7888	15.2514	12.9431	-0.056669	0.031055	-1.109452	-1.110800	0.018487	28.7888	-1.109934	-6.813963E+14	-2.713128E-17	NaN
491	1.000000	0.042459	7.36986e+06	-52539.1	1005.82	-29749	0.000000	0.000000	6.042784	-0.012269	NaN	0.000000	0.001604	0.001660	28.0816	0.016925	0.001947	8.691064	24.7401	-165.144	-0.004303	0.041162	-1.099396	-1.100693	-0.012269	8.691064	-1.098337	-4.761512E+14	2.576625E-17	NaN
491	1.000000	0.052420	7.36986e+06	-52539.1	1005.82	-29749	0.000000	0.000000	6.052746	0.000539	NaN	0.000000	0.001596	0.001669	28.082	0.120778	0.002012	60.0414	136.094	13.3571	0.057207	0.051055	-1.089435	-1.090800	0.000539	60.0414	-1.089442	-3.616733E+14	-1.489978E-18	NaN
491	1.000000	0.062426	7.36986e+06	-52539.1	1005.82	-29749	0.000000	0.000000	6.062750	-0.056213	NaN	0.000000	0.001627	0.001696	28.0814	0.066527	0.002030	32.7784	113.243	-163.191	-0.029827	0.061126	-1.079429	-1.080729	-0.056213	32.7784	-1.078142	-2.550171E+14	2.204284E-16	NaN
491	1.000000	0.072456	7.36986e+06	-52539.1	1005.82	-29749	0.000000	0.000000	6.072783	0.023140	NaN	0.000000	0.001640	0.001691	28.0818	0.030353	0.002044	14.8493	86.7315	14.1303	-0.011196	0.071045	-1.069399	-1.070810	0.023140	14.8493	-1.070567	-2.017498E+14	-1.146949E-16	NaN
491	1.000000	0.082440	7.36986e+06	-52539.1	1005.82	-29749	0.000000	0.000000	6.082764	-0.042972	NaN	0.000000	0.001640	0.001656	28.0817	0.059487	0.002054	28.9663	129.398	-166.221	-0.083544	0.081137	-1.059415	-1.060718	-0.042972	28.9663	-1.058302	-1.380408E+14	3.112966E-16	NaN
491	1.000000	0.092454	7.36986e+06	-52539.1	1005.82	-29749	0.000000	0.000000	6.092782	0.060045	NaN	0.000000	0.001663	0.001702	28.0817	0.057528	0.002155	26.697	-156.729	16.4843	0.036718	0.091113	-1.049401	-1.050742	0.060045	26.697	-1.051088	-1.104172E+14	-5.437983E-16	NaN
491	1.000000	0.102436	7.36986e+06	-52539.1	1005.82	-29749	0.000000	0.000000	6.102761	-0.024061	NaN	0.000000	0.001611	0.001706	28.0815	0.087218	0.002067	42.1871	-117.936	-166.438	-0.081676	0.101172	-1.039419	-1.040683	-0.024061	42.1871	-1.038991	-7.592842E+13	3.168936E-16	NaN
491	1.000000	0.112453	7.36986e+06	-52539.1	1005.82	-29749	0.000000	0.000000	6.112778	-0.022485	NaN	0.000000	0.001635	0.001701	28.0818	0.061669	0.002114	29.1688	63.4188	10.2768	-0.029667	0.111058	-1.029402	-1.030797	-0.022485	29.1688	-1.028824	-5.541901E+13	4.057221E-16	NaN
491	1.000000	0.122484	7.36986e+06	-52539.1	1005.82	-29749	0.000000	0.000000	6.122809	-0.016189	NaN	0.000000	0.001621	0.001685	28.0817	0.056714	0.001940	29.2296	-11.7671	-165.968	-0.052895	0.121201	-1.019371	-1.020654	-0.016189	29.2296	-1.018956	-4.082266E+13	3.965572E-16	NaN
491	1.000000	0.132456	7.36986e+06	-52539.1	1005.82	-29749	0.000000	0.000000	6.132782	-0.000121	NaN	0.000000	0.001623	0.001700	28.0815	0.058751	0.002068	28.413	101.061	12.3781	0.031008	0.131105	-1.009398	-1.010750	-0.000121	28.413	-1.009395	-3.035589E+13	3.971539E-18	NaN
491	1.000000	0.142484	7.36986e+06	-52539.1	1005.82	-29749	0.000000	0.000000	6.142808	-0.037306	NaN	0.000000	0.001625	0.001689	28.0815	0.080982	0.001967	41.1602	23.3407	-165.324	-0.091568	0.141085	-0.999371	-1.000770	-0.037306	41.1602	-0.998691	-2.178439E+13	1.712513E-15	NaN
491	1.000000	0.152458	7.36986e+06	-52539.1	1005.82	-29749	0.000000	0.000000	6.152784	-0.000383	NaN	0.000000	0.001650	0.001684	28.0827	0.071538	0.001841	38.8653	179.078	16.1879	-0.054899	0.151111	-0.989397	-0.990744	-0.000383	38.8653	-0.989390	-1.632645E+13	2.347376E-17	NaN
491	1.000000	0.162453	7.36986e+06	-52539.1	1005.82	-29749	0.000000	0.000000	6.162780	0.012593	NaN	0.000000	0.001633	0.001698	28.0803	0.071738	0.002104	34.1032	36.7989	-167.525	0.010187	0.161184	-0.979402	-0.980671	0.012593	34.1032	-0.979679	-1.208039E+13	-1.042431E-15	NaN
491	1.000000	0.172468	7.36986e+06	-52539.1	1005.82	-29749	0.000000	0.000000	6.172794	0.004526	NaN	0.000000	0.001624	0.001638	28.0802	0.080194	0.001948	41.1733	162.821	15.8712	0.002491	0.171085	-0.969387	-0.970769	0.004526	41.1733	-0.969469	-8.800492E+12	-5.142479E-16	NaN
491	1.000000	0.182483	7.36986e+06	-52539.1	1005.82	-29749	0.000000	0.000000	6.182810	0.024351	NaN	0.000000	0.001588	0.001669	28.0802	0.093760	0.002024	46.3356	98.4254	-169.499	0.065327	0.181201	-0.959372	-0.960654	0.024351	46.3356	-0.959766	-6.512037E+12	-3.739315E-15	NaN
491	1.000000	0.192500	7.36986e+06	-52539.1	1005.82	-29749	0.000000	0.000000	6.192823	-0.049106	NaN	0.000000	0.001631	0.001697	28.0803	0.008451	0.002047	4.128844	48.26	14.3941	-0.086311	0.191090	-0.949355	-0.950765	-0.049106	4.128844	-0.940435	-3.572794E+12	1.374456E-14	NaN
491	1.000000	0.202486	7.36986e+06	-52539.1	1005.82	-29749	0.000000	0.000000	6.202810	-0.050436	NaN	0.000000	0.001583	0.001695	28.0804	0.066107	0.001965	33.6348	148.023	-166.385	-0.026057	0.201156	-0.939369	-0.940699	-0.050436	33.6348	-0.938244	-3.337699E+12	1.511098E-14	NaN
491	1.000000	0.212515	7.36986e+06	-52539.1	1005.82	-29749	0.000000	0.000000	6.212840	-0.011690	NaN	0.000000	0.001621	0.001640	28.0805	0.127376	0.001906	66.8292	-97.8417	16.2294	-0.031624	0.211095	-0.929340	-0.930760	-0.011690	66.8292	-0.929209	-2.520705E+12	4.637577E-15	NaN
491	1.000000	0.222486	7.36986e+06	-52539.1	1005.82	-29749	0.000000	0.000000	6.222813	0.036585	NaN	0.000000	0.001605	0.001632	28.0803	0.147352	0.002103	70.0591	125.456	-164.252	0.005086	0.221214	-0.919369	-0.920641	0.036585	70.0591	-0.919761	-1.879207E+12	-1.946823E-14	NaN
491	1.000000	0.232497	7.36986e+06	-52539.1	1005.82	-29749	0.000000	0.000000	6.232823	0.012106	NaN	0.000000	0.001600	0.001667	28.0804	0.047912	0.002053	23.34	88.7438	13.6933	-0.067311	0.231170	-0.909358	-0.910685	0.012106	23.34	-0.909747	-1.376402E+12	-8.795568E-15	NaN
491	1.000000	0.242485	7.36986e+06	-52539.1	1005.82	-29749	0.000000	0.000000	6.242810	-0.030204	NaN	0.000000	0.001617	0.001675	28.0804	0.025122	0.001898	13.2378	-176.396	-166.333	0.005611	0.241210	-0.899370	-0.900645	-0.030204	13.2378	-0.897659	-9.449869E+11	3.196267E-14	NaN
491	1.000000	0.252515	7.36986e+06	-52539.1	1005.82	-29749	0.000000	0.000000	6.252839	-0.057950	NaN	0.000000	0.001601	0.001689	28.0804	0.109230	0.002003	54.5215	44.7248	13.3825	0.008483	0.251132	-0.889340	-0.890723	-0.057950	54.5215	-0.888543	-7.115645E+11	8.144048E-14	NaN
491	1.000000	0.262514	7.36986e+06	-52539.1	1005.82	-29749	0.000000	0.000000	6.262839	-0.015509	NaN	0.000000	0.001596	0.001695	28.0806	0.068666	0.001791	38.3441	-101.655	-164.585	-0.013787	0.261202	-0.879341	-0.880653	-0.015509	38.3441	-0.879038	-5.292965E+11	2.930207E-14	NaN
491	1.000000	0.272484	7.36986e+06	-52539.1	1005.82	-29749	0.000000	0.000000	6.272814	0.105399	NaN	0.000000	0.001604	0.001702	28.0803	0.072076	0.001952	36.9227	-140.228	11.2301	0.013107	0.271140	-0.869371	-0.870715	0.105399	36.9227	-0.871512	-4.186985E+11	-2.517306E-13	NaN
491	1.000000	0.282496	7.36986e+06	-52539.1	1005.82	-29749	0.000000	0.000000	6.282819	-0.075831	NaN	0.000000	0.001609	0.001693	28.0802	0.045012	0.002168	20.7645	-38.7539	-166.067	-0.083272	0.281197	-0.859359	-0.860657	-0.075831	20.7645	-0.856620	-2.632462E+11	2.880609E-13	NaN
491	1.000000	0.292527	7.36986e+06	-52539.1	1005.82	-29749	0.000000	0.000000	6.292852	-0.016634	NaN	0.000000	0.001608	0.001706	28.081	0.038553	0.002070	18.6262	36.8883	10.6805	-0.044171	0.291165	-0.849328	-0.850689	-0.016634	18.6262	-0.848658	-2.053837E+11	8.098982E-14	NaN
491	1.000000	0.302527	7.36986e+06	-52539.1	1005.82	-29749	0.000000	0.000000	6.302855	0.047979	NaN	0.000000	0.001616	0.001670	28.0816	0.034824	0.001952	17.8356	57.3018	-168.943	-0.009483	0.301201	-0.839328	-0.840654	0.047979	17.8356	-0.841345	-1.634994E+11	-2.934507E-13	NaN
491	1.000000	0.312518	7.36986e+06	-52539.1	1005.82	-29749	0.000000	0.000000	6.312846	0.060256	NaN	0.000000	0.001617	0.001695	28.0812	0.054175	0.001980	27.3676	116.323	15.732	0.032958	0.311163	-0.829337	-0.830692	0.060256	27.3676	-0.830989	-1.183543E+11	-5.091140E-13	NaN
491	1.000000	0.322566	7.36986e+06	-52539.1	1005.82	-29749	0.000000	0.000000	6.322891	-0.028157	NaN	0.000000	0.001618	0.001668	28.0815	0.043197	0.002055	21.0205	168.558	-167.033	-0.010851	0.321189	-0.819288	-0.820666	-0.028157	21.0205	-0.818284	-7.960465E+10	3.537108E-13	NaN
491	1.000000	0.332566	7.36986e+06	-52539.1	1005.82	-29749	0.000000	0.000000	6.332893	0.030556	NaN	0.000000	0.001609	0.001697	28.0814	0.133154	0.001927	69.088	140.389	8.647781	0.009427	0.331221	-0.809289	-0.810634	0.030556	69.088	-0.809621	-6.073271E+10	-5.031224E-13	NaN
491	1.000000	0.342562	7.36986e+06	-52539.1	1005.82	-29749	0.000000	0.000000	6.342884	-0.087072	NaN	0.000000	0.001637	0.001713	28.0816	0.051448	0.002021	25.4572	-40.0684	-166.27	-0.020826	0.341246	-0.799293	-0.800609	-0.087072	25.4572	-0.796727	-4.059165E+10	2.145072E-12	NaN
491	1.000000	0.352543	7.36986e+06	-52539.1	1005.82	-29749	0.000000	0.000000	6.352868	-0.020669	NaN	0.000000	0.001634	0.001660	28.0812	0.077529	0.001936	40.0481	-75.3316	11.5548	-0.028891	0.351186	-0.789311	-0.790669	-0.020669	40.0481	-0.788924	-3.180348E+10	6.498837E-13	NaN
491	1.000000	0.362558	7.36986e+06	-52539.1	1005.82	-29749	0.000000	0.000000	6.362884	0.012932	NaN	0.000000	0.001604	0.001684	28.0815	0.033175	0.002103	15.7769	78.8694	-166.431	-0.063999	0.361230	-0.779297	-0.780625	0.012932	15.7769	-0.779912	-2.399026E+10	-5.390410E-13	NaN
491	1.000000	0.372539	7.36986e+06	-52539.1	1005.82	-29749	0.000000	0.000000	6.372865	0.003945	NaN	0.000000	0.001640	0.001685	28.0814	0.038157	0.002070	18.4333	68.4857	15.7267	0.034933	0.371233	-0.769316	-0.770622	0.003945	18.4333	-0.769476	-1.730555E+10	-2.279743E-13	NaN
491	1.000000	0.382563	7.36986e+06	-52539.1	1005.82	-29749	0.000000	0.000000	6.382888	-0.018350	NaN	0.000000	0.001621	0.001665	28.0814	0.041060	0.001982	20.7116	-37.5717	-168.896	-0.008686	0.381268	-0.759292	-0.760587	-0.018350	20.7116	-0.758628	-1.232056E+10	1.489399E-12	NaN
491	1.000000	0.392547	7.36986e+06	-52539.1	1005.82	-29749	0.000000	0.000000	6.392873	0.002692	NaN	0.000000	0.001593	0.001665	28.0812	0.157187	0.002120	74.1319	34.6347	16.8668	0.011567	0.391225	-0.749308	-0.750630	0.002692	74.1319	-0.749335	-9.208153E+9	-2.923561E-13	NaN
491	1.000000	0.402595	7.36986e+06	-52539.1	1005.82	-29749	0.000000	0.000000	6.402921	0.012647	NaN	0.000000	0.001627	0.001659	28.0814	0.022895	0.002025	11.3052	-53.4349	-167.021	-0.047981	0.401172	-0.739260	-0.740683	0.012647	11.3052	-0.740099	-6.892969E+9	-1.834825E-12	NaN
491	1.000000	0.412591	7.36986e+06	-52539.1	1005.82	-29749	0.000000	0.000000	6.412917	0.004560	NaN	0.000000	0.001701	0.001687	28.0814	0.037819	0.002051	18.4392	-150.582	13.8994	-0.043071	0.411236	-0.729264	-0.730619	0.004560	18.4392	-0.729450	-4.935257E+9	-9.239472E-13	NaN
491	1.000000	0.422582	7.36986e+06	-52539.1	1005.82	-29749	0.000000	0.000000	6.422906	-0.041279	NaN	0.000000	0.001664	0.001666	28.0813	0.092013	0.002021	45.519	75.734	-168.2	-0.001733	0.421297	-0.719273	-0.720558	-0.041279	45.519	-0.718593	-3.509799E+9	1.176115E-11	NaN
491	1.000000	0.432609	7.36986e+06	-52539.1	1005.82	-29749	0.000000	0.000000	6.432938	0.081574	NaN	0.000000	0.001597	0.001697	28.0805	0.041797	0.002008	20.8184	-141.153	12.8438	0.086882	0.431240	-0.709246	-0.710615	0.081574	20.8184	-0.712185	-2.869874E+9	-2.842412E-11	NaN
491	1.000000	0.442580	7.36986e+06	-52539.1	1005.82	-29749	0.000000	0.000000	6.442904	-0.055785	NaN	0.000000	0.001621	0.001671	28.0804	0.035135	0.001921	18.2859	90.6004	-166.585	-0.053000	0.441259	-0.699275	-0.700596	-0.055785	18.2859	-0.696987	-1.779819E+9	3.134302E-11	NaN
491	1.000000	0.452627	7.36986e+06	-52539.1	1005.82	-29749	0.000000	0.000000	6.452954	0.040989	NaN	0.000000	0.001626	0.001672	28.0802	0.066812	0.002051	32.5776	-31.352	13.1034	0.122488	0.451234	-0.689228	-0.690621	0.040989	32.5776	-0.690172	-1.436363E+9	-2.853640E-11	NaN
491	1.000000	0.462591	7.36986e+06	-52539.1	1005.82	-29749	0.000000	0.000000	6.462918	0.022202	NaN	0.000000	0.001623	0.001628	28.0801	0.051818	0.001942	26.6759	137.519	-166.845	0.043123	0.461250	-0.679264	-0.680605	0.022202	26.6759	-0.679888	-1.039149E+9	-2.136595E-11	NaN
491	1.000000	0.472606	7.36986e+06	-52539.1	1005.82	-29749	0.000000	0.000000	6.472935	0.091801	NaN	0.000000	0.001622	0.001650	28.0802	0.119910	0.001891	63.4218	-106.942	13.3371	-0.048663	0.471273	-0.669249	-0.670582	0.091801	63.4218	-0.670335	-7.690833E+8	-1.193636E-10	NaN
491	1.000000	0.482595	7.36986e+06	-52539.1	1005.82	-29749	0.000000	0.000000	6.482916	-0.113412	NaN	0.000000	0.001583	0.001683	28.0805	0.092501	0.001996	46.3448	137.339	-167.553	-0.129128	0.481251	-0.659260	-0.660604	-0.113412	46.3448	-0.657425	-5.119064E+8	2.215492E-10	NaN
491	1.000000	0.492584	7.36986e+06	-52539.1	1005.82	-29749	0.000000	0.000000	6.492909	-0.030062	NaN	0.000000	0.001608	0.001690	28.0802	0.070733	0.002035	34.763	-102.256	12.3295	0.034278	0.491280	-0.649270	-0.650575	-0.030062	34.763	-0.648622	-3.877424E+8	7.753210E-11	NaN
491	1.000000	0.502608	7.36986e+06	-52539.1	1005.82	-29749	0.000000	0.000000	6.502937	0.066975	NaN	0.000000	0.001645	0.001680	28.0804	0.060975	0.001942	31.3998	26.4959	-168.37	0.127475	0.501317	-0.639247	-0.640538	0.066975	31.3998	-0.640846	-3.033196E+8	-2.208066E-10	NaN
491	1.000000	0.512613	7.36986e+06	-52539.1	1005.82	-29749	0.000000	0.000000	6.512940	0.017626	NaN	0.000000	0.001631	0.001665	28.0804	0.117456	0.002050	57.2874	53.6226	15.4553	0.070653	0.511239	-0.629242	-0.630615	0.017626	57.2874	-0.629472	-2.117278E+8	-8.324850E-11	NaN
491	1.000000	0.522636	7.36986e+06	-52539.1	1005.82	-29749	0.000000	0.000000	6.522962	-0.006511	NaN	0.000000	0.001617	0.001654	28.0804	0.020217	0.001944	10.401	-169.659	-167.809	-0.000828	0.521285	-0.619219	-0.620570	-0.006511	10.401	-0.618749	-1.508139E+8	4.317322E-11	NaN
491	1.000000	0.532663	7.36986e+06	-52539.1	1005.82	-29749	0.000000	0.000000	6.532989	0.013588	NaN	0.000000	0.001604	0.001704	28.0802	0.010922	0.001908	5.724849	-95.4187	14.7496	0.024340	0.531211	-0.609192	-0.610644	0.013588	5.724849	-0.610973	-1.178946E+8	-1.152516E-10	NaN
491	1.000000	0.542624	7.36986e+06	-52539.1	1005.82	-29749	0.000000	0.000000	6.542951	0.021531	NaN	0.000000	0.001617	0.001658	28.0804	0.040238	0.002018	19.936	62.7094	-165.209	-0.112926	0.541354	-0.599231	-0.600501	0.021531	19.936	-0.600041	-8.337303E+7	-2.582502E-10	NaN
491	1.000000	0.552650	7.36986e+06	-52539.1	1005.82	-29749	0.000000	0.000000	6.552977	0.027242	NaN	0.000000	0.001589	0.001645	28.0804	0.037427	0.002131	17.5639	-116.119	9.551281	-0.008368	0.551274	-0.589205	-0.590581	0.027242	17.5639	-0.590368	-6.133928E+7	-4.441141E-10	NaN
491	1.000000	0.562655	7.36986e+06	-52539.1	1005.82	-29749	0.000000	0.000000	6.562981	0.005732	NaN	0.000000	0.001611	0.001683	28.0803	0.020343	0.001934	10.5193	25.3581	-166.206	-0.021301	0.561339	-0.579200	-0.580516	0.005732	10.5193	-0.579609	-4.358417E+7	-1.315145E-10	NaN
491	1.000000	0.572666	7.36986e+06	-52539.1	1005.82	-29749	0.000000	0.000000	6.572989	-0.058007	NaN	0.000000	0.001635	0.001694	28.0813	0.045095	0.001953	23.0946	-136.504	14.3035	-0.044295	0.571332	-0.569189	-0.570523	-0.058007	23.0946	-0.567306	-2.947105E+7	1.968282E-9	NaN
491	1.000000	0.582631	7.36986e+06	-52539.1	1005.82	-29749	0.000000	0.000000	6.582956	-0.002213	NaN	0.000000	0.001634	0.001666	28.0817	0.037362	0.001908	19.5814	-19.1973	-166.614	0.017926	0.581348	-0.559224	-0.560507	-0.002213	19.5814	-0.559140	-2.272344E+7	9.740312E-11	NaN
491	1.000000	0.592652	7.36986e+06	-52539.1	1005.82	-29749	0.000000	0.000000	6.592979	0.026463	NaN	0.000000	0.001619	0.001663	28.0817	0.020077	0.001898	10.5754	-61.5289	14.0538	0.002995	0.591271	-0.549203	-0.550584	0.026463	10.5754	-0.551080	-1.757549E+7	-1.505657E-9	NaN
491	1.000000	0.602673	7.36986e+06	-52539.1	1005.82	-29749	0.000000	0.000000	6.602995	-0.082407	NaN	0.000000	0.001621	0.001670	28.0815	0.025468	0.002005	12.7027	-58.5642	-166.992	0.045850	0.601408	-0.539182	-0.540447	-0.082407	12.7027	-0.534316	-1.029207E+7	8.006811E-9	NaN
491	1.000000	0.612637	7.36986e+06	-52539.1	1005.82	-29749	0.000000	0.000000	6.612962	-0.033516	NaN	0.000000	0.001618	0.001677	28.0814	0.052552	0.002237	23.4972	-120.324	12.405	-0.098243	0.611258	-0.529218	-0.530597	-0.033516	23.4972	-0.528148	-8.44991e+06	3.966432E-9	NaN
491	1.000000	0.622664	7.36986e+06	-52539.1	1005.82	-29749	0.000000	0.000000	6.622988	-0.023679	NaN	0.000000	0.001614	0.001679	28.0814	0.114637	0.002129	53.8577	83.2522	-166.095	0.032137	0.621341	-0.519191	-0.520514	-0.023679	53.8577	-0.518862	-6.27717e+06	3.772200E-9	NaN
491	1.000000	0.632640	7.36986e+06	-52539.1	1005.82	-29749	0.000000	0.000000	6.632965	-0.010792	NaN	0.000000	0.001647	0.001687	28.0816	0.041747	0.002034	20.527	67.5347	11.0798	-0.033589	0.631306	-0.509215	-0.510549	-0.010792	20.527	-0.508821	-4.54979e+06	2.371867E-9	NaN
491	1.000000	0.642681	7.36986e+06	-52539.1	1005.82	-29749	0.000000	0.000000	6.643009	0.062169	NaN	0.000000	0.001651	0.001701	28.0814	0.054158	0.002059	26.309	-7.680603	-166.713	0.007804	0.641409	-0.499174	-0.500445	0.062169	26.309	-0.500947	-3.53363e+06	-1.759363E-8	NaN
491	1.000000	0.652690	7.36986e+06	-52539.1	1005.82	-29749	0.000000	0.000000	6.653014	-0.045336	NaN	0.000000	0.001585	0.001676	28.0817	0.145337	0.001945	74.7098	57.0832	15.3797	-0.027373	0.651291	-0.489165	-0.490564	-0.045336	74.7098	-0.488710	-2.38434e+06	1.901404E-8	NaN
491	1.000000	0.662685	7.36986e+06	-52539.1	1005.82	-29749	0.000000	0.000000	6.663012	0.021282	NaN	0.000000	0.001628	0.001704	28.0817	0.047707	0.001916	24.9021	-40.3398	-170.353	0.048674	0.661334	-0.479170	-0.480521	0.021282	24.9021	-0.479811	-1.7901e+06	-1.188845E-8	NaN
491	1.000000	0.672684	7.36986e+06	-52539.1	1005.82	-29749	0.000000	0.000000	6.673009	-0.007867	NaN	0.000000	0.001650	0.001701	28.0816	0.083527	0.002055	40.6527	-125.868	12.9187	0.100264	0.671305	-0.469171	-0.470550	-0.007867	40.6527	-0.469026	-1.264e+06	6.223578E-9	NaN
491	1.000000	0.682691	7.36986e+06	-52539.1	1005.82	-29749	0.000000	0.000000	6.683017	0.015253	NaN	0.000000	0.001635	0.001654	28.0815	0.045544	0.002006	22.7063	21.5802	-167.175	-0.044098	0.681391	-0.459164	-0.460464	0.015253	22.7063	-0.459668	-934011	-1.633034E-8	NaN
491	1.000000	0.692703	7.36986e+06	-52539.1	1005.82	-29749	0.000000	0.000000	6.693029	0.003062	NaN	0.000000	0.001675	0.001674	28.0815	0.124272	0.002038	60.9654	-52.2673	10.0924	-0.011221	0.691322	-0.449152	-0.450533	0.003062	60.9654	-0.449189	-665159	-4.603622E-9	NaN
491	1.000000	0.702698	7.36986e+06	-52539.1	1005.82	-29749	0.000000	0.000000	6.703026	0.040523	NaN	0.000000	0.001678	0.001670	28.0805	0.032561	0.002042	15.942	-93.3529	-164.489	0.035482	0.701395	-0.439157	-0.440460	0.040523	15.942	-0.441063	-510938	-7.931006E-8	NaN
491	1.000000	0.712699	7.36986e+06	-52539.1	1005.82	-29749	0.000000	0.000000	6.713021	-0.092822	NaN	0.000000	0.001687	0.001693	28.0801	0.048156	0.001976	24.3747	116.443	11.5463	0.047949	0.711355	-0.429156	-0.430500	-0.092822	24.3747	-0.426300	-316004	2.937353E-7	NaN
491	1.000000	0.722695	7.36986e+06	-52539.1	1005.82	-29749	0.000000	0.000000	6.723018	-0.075653	NaN	0.000000	0.001691	0.001637	28.0802	0.020100	0.001979	10.1545	108.897	-164.663	-0.051665	0.721441	-0.419160	-0.420414	-0.075653	10.1545	-0.413572	-208531	3.627905E-7	NaN
491	1.000000	0.732726	7.36986e+06	-52539.1	1005.82	-29749	0.000000	0.000000	6.733052	-0.004544	NaN	0.000000	0.001610	0.001654	28.0801	0.090541	0.001922	47.1062	-141.79	15.0375	-0.106108	0.731310	-0.409128	-0.410545	-0.004544	47.1062	-0.409056	-179877	2.525939E-8	NaN
491	1.000000	0.742731	7.36986e+06	-52539.1	1005.82	-29749	0.000000	0.000000	6.743054	-0.059694	NaN	0.000000	0.001643	0.001664	28.0802	0.096949	0.001985	48.8464	81.4908	-169.344	-0.002533	0.741335	-0.399124	-0.400519	-0.059694	48.8464	-0.398208	-126016	4.737046E-7	NaN
491	1.000000	0.752694	7.36986e+06	-52539.1	1005.82	-29749	0.000000	0.000000	6.753018	-0.042262	NaN	0.000000	0.001614	0.001709	28.0802	0.051270	0.001940	26.4225	-74.5753	15.2448	0.040802	0.751356	-0.389161	-0.390499	-0.042262	26.4225	-0.387961	-89948.3	4.698492E-7	NaN
491	1.000000	0.762687	7.36986e+06	-52539.1	1005.82	-29749	0.000000	0.000000	6.763013	-0.007344	NaN	0.000000	0.001632	0.001712	28.0803	0.075977	0.002004	37.9077	-44.7123	-165.871	-0.016325	0.761393	-0.379168	-0.380462	-0.007344	37.9077	-0.379022	-66966.5	1.096736E-7	NaN
491	1.000000	0.772729	7.36986e+06	-52539.1	1005.82	-29749	0.000000	0.000000	6.773056	0.011268	NaN	0.000000	0.001590	0.001704	28.0804	0.003573	0.001946	1.836136	-123.703	13.7561	0.042827	0.771351	-0.369126	-0.370504	0.011268	1.836136	-0.373728	-56206	-2.004715E-7	NaN
491	1.000000	0.782720	7.36986e+06	-52539.1	1005.82	-29749	0.000000	0.000000	6.783046	-0.014252	NaN	0.000000	0.001602	0.001668	28.0801	0.059027	0.002004	29.4536	-39.0632	-165.845	-0.018935	0.781446	-0.359135	-0.360409	-0.014252	29.4536	-0.358772	-34204.6	4.166606E-7	NaN
491	1.000000	0.792756	7.36986e+06	-52539.1	1005.82	-29749	0.000000	0.000000	6.793080	-0.049193	NaN	0.000000	0.001629	0.001678	28.0799	0.123444	0.002159	57.1748	-176.667	12.9693	-0.041323	0.791395	-0.349099	-0.350460	-0.049193	57.1748	-0.348453	-24240.9	2.029337E-6	NaN
491	1.000000	0.802717	7.36986e+06	-52539.1	1005.82	-29749	0.000000	0.000000	6.803044	0.010707	NaN	0.000000	0.001573	0.001683	28.0802	0.051291	0.001969	26.043	9.800688	-164.716	-0.032757	0.801478	-0.339137	-0.340377	0.010707	26.043	-0.339446	-17925.6	-5.973185E-7	NaN
491	1.000000	0.812749	7.36986e+06	-52539.1	1005.82	-29749	0.000000	0.000000	6.813075	0.010834	NaN	0.000000	0.001646	0.001696	28.0803	0.062146	0.002082	29.8488	160.674	15.0143	-0.006897	0.811380	-0.329106	-0.330475	0.010834	29.8488	-0.329378	-12774.5	-8.481359E-7	NaN
491	1.000000	0.822748	7.36986e+06	-52539.1	1005.82	-29749	0.000000	0.000000	6.823075	0.016642	NaN	0.000000	0.001671	0.001680	28.0802	0.026018	0.001932	13.4682	70.9431	-163.355	0.013091	0.821440	-0.319107	-0.320415	0.016642	13.4682	-0.320033	-9313.84	-1.786847E-6	NaN
491	1.000000	0.832764	7.36986e+06	-52539.1	1005.82	-29749	0.000000	0.000000	6.833089	-0.025098	NaN	0.000000	0.001638	0.001677	28.0802	0.047564	0.001949	24.4014	-22.9521	13.6424	-0.031184	0.831415	-0.309091	-0.310440	-0.025098	24.4014	-0.308320	-6254.25	4.013029E-6	NaN
491	1.000000	0.842757	7.36986e+06	-52539.1	1005.82	-29749	0.000000	0.000000	6.843079	-0.086631	NaN	0.000000	0.001683	0.001654	28.0816	0.055967	0.002072	27.0047	-50.4265	-162.861	-0.050843	0.841407	-0.299098	-0.300448	-0.086631	27.0047	-0.296692	-4200.9	2.062198E-5	NaN
491	1.000000	0.852729	7.36986e+06	-52539.1	1005.82	-29749	0.000000	0.000000	6.853054	-0.023270	NaN	0.000000	0.001640	0.001673	28.0815	0.026361	0.001882	14.0082	62.2237	12.2709	-0.017843	0.851413	-0.289126	-0.290442	-0.023270	14.0082	-0.287880	-3101.14	7.503543E-6	NaN
491	1.000000	0.862748	7.36986e+06	-52539.1	1005.82	-29749	0.000000	0.000000	6.863076	0.045730	NaN	0.000000	0.001671	0.001655	28.0814	0.128446	0.001904	67.4696	160.631	-165.535	0.060498	0.861473	-0.279107	-0.280382	0.045730	67.4696	-0.279615	-2328.95	-1.963543E-5	NaN
491	1.000000	0.872755	7.36986e+06	-52539.1	1005.82	-29749	0.000000	0.000000	6.873078	-0.089616	NaN	0.000000	0.001684	0.001696	28.0815	0.023840	0.002040	11.6857	174.019	10.7638	-0.049761	0.871362	-0.269100	-0.270493	-0.089616	11.6857	-0.263348	-1318.73	6.795654E-5	NaN
491	1.000000	0.882753	7.36986e+06	-52539.1	1005.82	-29749	0.000000	0.000000	6.883075	-0.080773	NaN	0.000000	0.001668	0.001696	28.0818	0.026086	0.001999	13.0465	12.5029	-168.293	-0.055765	0.881483	-0.259102	-0.260372	-0.080773	13.0465	-0.254459	-963.343	8.384687E-5	NaN
491	1.000000	0.892787	7.36986e+06	-52539.1	1005.82	-29749	0.000000	0.000000	6.893116	0.079215	NaN	0.000000	0.001664	0.001701	28.0817	0.022956	0.001889	12.1508	-129.503	12.8564	0.004507	0.891429	-0.249068	-0.250426	0.079215	12.1508	-0.253957	-946.363	-8.370422E-5	NaN
491	1.000000	0.902778	7.36986e+06	-52539.1	1005.82	-29749	0.000000	0.000000	6.903101	-0.051461	NaN	0.000000	0.001650	0.001674	28.0815	0.029158	0.001894	15.3955	110.704	-167.377	-0.032291	0.901515	-0.239077	-0.240340	-0.051461	15.3955	-0.236570	-508.028	0.000101	NaN
491	1.000000	0.912805	7.36986e+06	-52539.1	1005.82	-29749	0.000000	0.000000	6.913131	0.002820	NaN	0.000000	0.001598	0.001688	28.0817	0.056357	0.002015	27.9667	-149.458	13.2351	-0.038725	0.911426	-0.229050	-0.230429	0.002820	27.9667	-0.229125	-387.879	-7.269658E-6	NaN
491	1.000000	0.922783	7.36986e+06	-52539.1	1005.82	-29749	0.000000	0.000000	6.923110	0.033009	NaN	0.000000	0.001609	0.001681	28.0817	0.045341	0.002013	22.5196	46.9377	-169.091	0.018954	0.921483	-0.219072	-0.220372	0.033009	22.5196	-0.220171	-279.518	-0.000118	NaN
491	1.000000	0.932811	7.36986e+06	-52539.1	1005.82	-29749	0.000000	0.000000	6.933135	-0.043069	NaN	0.000000	0.001606	0.001653	28.0817	0.104539	0.002074	50.4066	80.0171	13.1378	-0.040045	0.931474	-0.209044	-0.210381	-0.043069	50.4066	-0.208403	-180.685	0.000238	NaN
491	1.000000	0.942788	7.36986e+06	-52539.1	1005.82	-29749	0.000000	0.000000	6.943115	0.011114	NaN	0.000000	0.001644	0.001692	28.0819	0.049357	0.001967	25.0866	174.914	-163.668	0.126917	0.941506	-0.199067	-0.200349	0.011114	25.0866	-0.199399	-128.77	-8.631185E-5	NaN
491	1.000000	0.952768	7.36986e+06	-52539.1	1005.82	-29749	0.000000	0.000000	6.953097	0.072724	NaN	0.000000	0.001638	0.001695	28.0817	0.050690	0.002141	23.6788	62.1533	13.769	0.037319	0.951414	-0.189087	-0.190441	0.072724	23.6788	-0.191391	-94.8926	-0.000766	NaN
491	1.000000	0.962805	7.36986e+06	-52539.1	1005.82	-29749	0.000000	0.000000	6.963130	-0.009934	NaN	0.000000	0.001615	0.001714	28.0817	0.022714	0.001982	11.4601	-133.905	-164.655	0.013835	0.961474	-0.179050	-0.180381	-0.009934	11.4601	-0.178400	-57.3066	0.000173	NaN
491	1.000000	0.972805	7.36986e+06	-52539.1	1005.82	-29749	0.000000	0.000000	6.973128	-0.076831	NaN	0.000000	0.001618	0.001697	28.0818	0.055733	0.001978	28.1818	89.7823	16.9285	-0.007731	0.971493	-0.169049	-0.170362	-0.076831	28.1818	-0.167005	-36.4275	0.002109	NaN
491	1.000000	0.982831	7.36986e+06	-52539.1	1005.82	-29749	0.000000	0.000000	6.983154	-0.058616	NaN	0.000000	0.001605	0.001660	28.0806	0.088493	0.002114	41.8688	-127.756	-165.567	-0.070566	0.981440	-0.159024	-0.160415	-0.058616	41.8688	-0.157974	-25.2288	0.002323	NaN
491	1.000000	0.992853	7.36986e+06	-52539.1	1005.82	-29749	0.000000	0.000000	6.993179	0.008499	NaN	0.000000	0.001625	0.001706	28.0803	0.063485	0.002015	31.5032	-29.8294	12.0818	-0.003712	0.991467	-0.149002	-0.150388	0.008499	31.5032	-0.149205	-17.5178	-0.000485	NaN
491	1.000000	1.002841	7.36986e+06	-52539.1	1005.82	-29749	0.000000	0.000000	7.003170	0.062749	NaN	0.000000	0.001636	0.001684	28.0805	0.057424	0.001979	29.0214	-19.761	-165.672	-0.019886	1.001509	-0.139014	-0.140346	0.062749	29.0214	-0.140635	-12.1588	-0.005161	NaN
491	1.000000	1.012827	7.36986e+06	-52539.1	1005.82	-29749	0.000000	0.000000	7.013151	-0.043110	NaN	0.000000	0.001616	0.001686	28.0804	0.118025	0.001982	59.5382	-141.358	14.3464	-0.073696	1.011545	-0.129028	-0.130310	-0.043110	59.5382	-0.128485	-7.120437	0.006054	NaN
491	1.000000	1.022811	7.36986e+06	-52539.1	1005.82	-29749	0.000000	0.000000	7.023136	-0.031913	NaN	0.000000	0.001607	0.001695	28.0806	0.044656	0.001899	23.5132	10.1883	-163.914	0.067475	1.021520	-0.119044	-0.120335	-0.031913	23.5132	-0.118026	-4.406302	0.007243	NaN
491	1.000000	1.032825	7.36986e+06	-52539.1	1005.82	-29749	0.000000	0.000000	7.033152	0.021576	NaN	0.000000	0.001615	0.001680	28.0803	0.075919	0.002051	37.0208	146.379	14.459	-0.023458	1.031485	-0.109030	-0.110369	0.021576	37.0208	-0.109467	-2.928319	-0.007368	NaN
491	1.000000	1.042835	7.36986e+06	-52539.1	1005.82	-29749	0.000000	0.000000	7.043159	-0.028218	NaN	0.000000	0.001618	0.001694	28.0803	0.073922	0.001923	38.4325	-159.182	-166.323	-0.054051	1.041553	-0.099020	-0.100302	-0.028218	38.4325	-0.098469	-1.689301	0.016704	NaN
491	1.000000	1.052864	7.36986e+06	-52539.1	1005.82	-29749	0.000000	0.000000	7.053191	0.023247	NaN	0.000000	0.001593	0.001714	28.0802	0.057971	0.002188	26.4997	-165.426	15.8142	0.031530	1.051457	-0.088990	-0.090397	0.023247	26.4997	-0.089648	-1.060619	-0.021918	NaN
491	1.000000	1.062863	7.36986e+06	-52539.1	1005.82	-29749	0.000000	0.000000	7.063188	-0.016564	NaN	0.000000	0.001578	0.001701	28.0801	0.059046	0.002103	28.0703	-132.347	-168.133	0.029526	1.061547	-0.078992	-0.080308	-0.016564	28.0703	-0.078549	-0.569152	0.029104	NaN
491	1.000000	1.072851	7.36986e+06	-52539.1	1005.82	-29749	0.000000	0.000000	7.073175	-0.045515	NaN	0.000000	0.001573	0.001716	28.0801	0.093933	0.001729	54.3188	-65.8221	14.4535	-0.060122	1.071472	-0.069004	-0.070383	-0.045515	54.3188	-0.068376	-0.308410	0.147581	NaN
491	1.000000	1.082867	7.36986e+06	-52539.1	1005.82	-29749	0.000000	0.000000	7.083192	-0.007303	NaN	0.000000	0.001612	0.001696	28.0801	0.052401	0.002185	23.9774	-38.0959	-164.988	0.044799	1.081548	-0.058988	-0.060307	-0.007303	23.9774	-0.058760	-0.165873	0.044030	NaN
491	1.000000	1.092831	7.36986e+06	-52539.1	1005.82	-29749	0.000000	0.000000	7.093157	0.005204	NaN	0.000000	0.001623	0.001687	28.0801	0.046648	0.002084	22.3831	-60.6371	11.3835	-0.020333	1.091471	-0.049024	-0.050384	0.005204	22.3831	-0.049198	-0.086290	-0.060314	NaN
491	1.000000	1.102859	7.36986e+06	-52539.1	1005.82	-29749	0.000000	0.000000	7.103182	-0.062364	NaN	0.000000	0.001600	0.001719	28.0801	0.086001	0.002078	41.3808	78.4026	-163.025	-0.076214	1.101609	-0.038996	-0.040246	-0.062364	41.3808	-0.037866	-0.038978	1.599987	NaN
491	1.000000	1.112880	7.36986e+06	-52539.1	1005.82	-29749	0.000000	0.000000	7.113205	-0.029875	NaN	0.000000	0.001624	0.001716	28.0814	0.053657	0.001992	26.9351	40.4067	13.6404	-0.091238	1.111472	-0.028975	-0.030383	-0.029875	26.9351	-0.028143	-0.020457	1.460366	NaN
491	1.000000	1.122875	7.36986e+06	-52539.1	1005.82	-29749	0.000000	0.000000	7.123201	-0.018624	NaN	0.000000	0.001617	0.001681	28.0815	0.077281	0.001996	38.7227	100.737	-167.254	0.039199	1.121572	-0.018979	-0.020283	-0.018624	38.7227	-0.018619	-0.011581	1.608208	NaN
491	1.000000	1.132844	7.36986e+06	-52539.1	1005.82	-29749	0.000000	0.000000	7.133168	-0.065254	NaN	0.000000	0.001631	0.001677	28.0814	0.047503	0.001942	24.4662	98.1925	18.2442	-0.112031	1.131508	-0.009011	-0.010347	-0.065254	24.4662	-0.007010	-0.004647	14.0436	NaN
491	1.000000	1.142866	7.36986e+06	-52539.1	1005.82	-29749	0.000000	0.000000	7.143322	3.159543	NaN	0.000000	0.001604	0.001668	28.0815	2.582033	0.001803	1432.01	13.6636	-172.565	2.374657	1.141526	0.001011	-0.000329	3.159543	1432.01	-0.000643	-0.000475	-6652.03	NaN
491	2.000000	1.149966	7.36986e+06	-52539.1	1005.82	-29749	0.000000	0.000000	7.150678	9.403408	NaN	0.000000	0.001632	0.001684	28.0814	8.466063	0.001625	5208.89	5.055002	7.710545	8.552926	1.149653	0.008111	0.007798	9.403408	5208.89	0.006757	0.005795	1622.77	62517.9
491	2.000000	1.152464	7.36986e+06	-52539.1	1005.82	-29749	0.000000	0.000000	7.153279	11.8791	NaN	0.000000	0.001587	0.001680	28.0817	11.1038	0.001811	6132.94	7.904868	-173.717	11.6614	1.152117	0.010609	0.010262	11.8791	6132.94	0.009157	0.008259	1438.27	61655.3
491	2.000000	1.154954	7.36986e+06	-52539.1	1005.82	-29749	0.000000	0.000000	7.155950	16.3045	NaN	0.000000	0.001602	0.001717	28.0816	13.6706	0.001730	7901.45	6.475888	4.559794	15.4597	1.154579	0.013099	0.012724	16.3045	7901.45	0.011551	0.010957	1488.03	68965.5
491	2.000000	1.157418	7.36986e+06	-52539.1	1005.82	-29749	0.000000	0.000000	7.158599	20.7899	NaN	0.000000	0.001609	0.001702	28.0816	16.1978	0.001678	9655.54	5.364118	-176.642	20.902	1.157126	0.015563	0.015271	20.7899	9655.54	0.013948	0.013908	1494.76	74801.5
491	2.000000	1.159914	7.36986e+06	-52539.1	1005.82	-29749	0.000000	0.000000	7.161274	25.1356	NaN	0.000000	0.001618	0.001711	28.0813	18.8193	0.001733	10857.4	6.679558	1.212333	24.1832	1.159494	0.018059	0.017639	25.1356	10857.4	0.016323	0.017091	1470.73	75879.2
491	2.000000	1.162409	7.36986e+06	-52539.1	1005.82	-29749	0.000000	0.000000	7.163920	28.7991	NaN	0.000000	0.001646	0.001694	28.0817	21.7988	0.001799	12118.2	7.881992	177.42	28.815	1.162148	0.020554	0.020293	28.7991	12118.2	0.018772	0.020649	1394.68	77047.7
491	2.000000	1.164869	7.36986e+06	-52539.1	1005.82	-29749	0.000000	0.000000	7.166715	36.9754	NaN	0.000000	0.001633	0.001696	28.0818	24.1844	0.001750	13821.8	8.384601	-1.448100	35.1519	1.164479	0.023014	0.022624	36.9754	13821.8	0.021008	0.024150	1531.06	81260.2
491	2.000000	1.167336	7.36986e+06	-52539.1	1005.82	-29749	0.000000	0.000000	7.169468	43.9022	NaN	0.000000	0.001625	0.001736	28.0816	26.6234	0.001758	15145.2	4.841799	179.855	41.6204	1.166984	0.025481	0.025129	43.9022	15145.2	0.023307	0.028008	1567.47	82681
491	2.000000	1.169851	7.36986e+06	-52539.1	1005.82	-29749	0.000000	0.000000	7.172124	47.3482	NaN	0.000000	0.001613	0.001711	28.0816	29.6592	0.001875	15818.3	7.514110	-2.483483	46.1849	1.169546	0.027996	0.027691	47.3482	15818.3	0.025751	0.032396	1461.54	80294.8
491	2.000000	1.172354	7.36986e+06	-52539.1	1005.82	-29749	0.000000	0.000000	7.175034	57.2495	NaN	0.000000	0.001618	0.001696	28.0817	31.6254	0.001751	18061.3	3.397746	179.932	55.7025	1.172081	0.030499	0.030226	57.2495	18061.3	0.028121	0.036940	1549.8	85856.4
491	2.000000	1.174817	7.36986e+06	-52539.1	1005.82	-29749	0.000000	0.000000	7.177845	65.7042	NaN	0.000000	0.001649	0.001663	28.0804	32.8923	0.001734	18974	4.282217	-0.528892	62.3598	1.174512	0.032962	0.032658	65.7042	18974	0.030364	0.041503	1583.14	85093
491	2.000000	1.177318	7.36986e+06	-52539.1	1005.82	-29749	0.000000	0.000000	7.180643	72.9086	NaN	0.000000	0.001678	0.001717	28.0803	35.7395	0.001750	20421.2	7.274528	175.034	70.7776	1.177092	0.035463	0.035237	72.9086	20421.2	0.032786	0.046716	1560.69	86322.5
491	2.000000	1.179797	7.36986e+06	-52539.1	1005.82	-29749	0.000000	0.000000	7.183547	83.2685	NaN	0.000000	0.001674	0.001722	28.0804	38.0674	0.001793	21232.7	4.582068	-1.601892	80.2925	1.179509	0.037942	0.037654	83.2685	21232.7	0.035001	0.051747	1609.14	85277.4
491	2.000000	1.182394	7.36986e+06	-52539.1	1005.82	-29749	0.000000	0.000000	7.186454	90.8004	NaN	0.000000	0.001675	0.001677	28.0802	41.1157	0.001794	22922.2	6.299075	176.761	92.0581	1.181993	0.040539	0.040138	90.8004	22922.2	0.037568	0.057894	1568.4	87038.9
491	2.000000	1.184868	7.36986e+06	-52539.1	1005.82	-29749	0.000000	0.000000	7.189356	101.194	NaN	0.000000	0.001652	0.001695	28.0806	43.0856	0.001708	25221.6	5.026077	-3.567303	99.6929	1.184479	0.043013	0.042624	101.194	25221.6	0.040004	0.064038	1580.2	91059.6
491	2.000000	1.187318	7.36986e+06	-52539.1	1005.82	-29749	0.000000	0.000000	7.192239	111.736	NaN	0.000000	0.001686	0.001676	28.0802	44.7684	0.001791	24992.7	0.929198	179.744	109.865	1.187065	0.045463	0.045210	111.736	24992.7	0.042110	0.069595	1605.52	86556.1
491	2.000000	1.189799	7.36986e+06	-52539.1	1005.82	-29749	0.000000	0.000000	7.195118	121.405	NaN	0.000000	0.001709	0.001682	28.0804	47.1536	0.001820	25902.9	2.774459	-2.177732	116.25	1.189369	0.047944	0.047514	121.405	25902.9	0.044428	0.075973	1598	85860.2
491	2.000000	1.192273	7.36986e+06	-52539.1	1005.82	-29749	0.000000	0.000000	7.197924	129.493	NaN	0.000000	0.001676	0.001698	28.0802	51.1053	0.001834	27859.9	6.572673	172.974	126.819	1.192053	0.050418	0.050199	129.493	27859.9	0.046932	0.083165	1557.06	88263.4
491	2.000000	1.194863	7.36986e+06	-52539.1	1005.82	-29749	0.000000	0.000000	7.201078	143.199	NaN	0.000000	0.001657	0.001685	28.0806	52.5132	0.001837	28590.8	5.779982	-5.385211	141.5	1.194556	0.053008	0.052701	143.199	28590.8	0.049251	0.090113	1589.11	87017.5
491	2.000000	1.197363	7.36986e+06	-52539.1	1005.82	-29749	0.000000	0.000000	7.204049	154.666	NaN	0.000000	0.001720	0.001732	28.0802	55.0097	0.001826	30118.4	6.211226	173.334	155.853	1.197001	0.055508	0.055146	154.666	30118.4	0.051656	0.097601	1584.68	88080.1
491	2.000000	1.199810	7.36986e+06	-52539.1	1005.82	-29749	0.000000	0.000000	7.207067	168.526	NaN	0.000000	0.001664	0.001692	28.0807	57.0223	0.001800	31679.2	5.817815	-6.262347	166.638	1.199415	0.057955	0.057560	168.526	31679.2	0.053965	0.105061	1604.07	89294.7
491	2.000000	1.202308	7.36986e+06	-52539.1	1005.82	-29749	0.000000	0.000000	7.209879	176.17	NaN	0.000000	0.001671	0.001681	28.0802	60.6775	0.001875	32360.4	7.507791	170.715	175.156	1.201952	0.060453	0.060097	176.17	32360.4	0.056370	0.113114	1557.46	87908.3
491	2.000000	1.204784	7.36986e+06	-52539.1	1005.82	-29749	0.000000	0.000000	7.213242	197.737	NaN	0.000000	0.001700	0.001684	28.0804	60.7887	0.001734	35047.6	4.369884	-5.595921	192.576	1.204405	0.062929	0.062550	197.737	35047.6	0.058697	0.121179	1631.77	91985.1
491	2.000000	1.207267	7.36986e+06	-52539.1	1005.82	-29749	0.000000	0.000000	7.216036	205.29	NaN	0.000000	0.001707	0.001692	28.0802	63.9579	0.001766	36223.5	3.615010	173.946	201.593	1.206992	0.065412	0.065137	205.29	36223.5	0.061161	0.130005	1579.09	91787.6
491	2.000000	1.209762	7.36986e+06	-52539.1	1005.82	-29749	0.000000	0.000000	7.219373	225.76	NaN	0.000000	0.001685	0.001691	28.082	66.5063	0.001866	35636.4	2.798237	-4.541383	221.926	1.209405	0.067907	0.067550	225.76	35636.4	0.063156	0.137369	1643.46	87846.3
491	2.000000	1.212329	7.36986e+06	-52539.1	1005.82	-29749	0.000000	0.000000	7.222620	242.296	NaN	0.000000	0.001660	0.001688	28.0816	69.8293	0.001870	37334.7	3.991522	173.966	243.655	1.211995	0.070474	0.070141	242.296	37334.7	0.065607	0.146679	1651.88	89064
491	2.000000	1.214808	7.36986e+06	-52539.1	1005.82	-29749	0.000000	0.000000	7.225688	256.634	NaN	0.000000	0.001616	0.001693	28.0821	70.5111	0.001756	40164.2	4.005888	-6.607553	254.4	1.214497	0.072953	0.072642	256.634	40164.2	0.068161	0.156686	1637.89	92703.7
491	2.000000	1.217214	7.36986e+06	-52539.1	1005.82	-29749	0.000000	0.000000	7.228732	272.135	NaN	0.000000	0.001634	0.001703	28.0815	72.0512	0.001712	42097.9	1.656401	174.589	269.396	1.216988	0.075359	0.075133	272.135	42097.9	0.070511	0.166173	1637.67	94352.5
491	2.000000	1.219778	7.36986e+06	-52539.1	1005.82	-29749	0.000000	0.000000	7.231803	284.451	NaN	0.000000	0.001596	0.001700	28.0819	75.8817	0.001803	42091.2	4.279341	-7.190488	282.07	1.219438	0.077923	0.077583	284.451	42091.2	0.072854	0.175893	1617.18	91693.8
491	2.000000	1.222387	7.36986e+06	-52539.1	1005.82	-29749	0.000000	0.000000	7.234951	297.571	NaN	0.000000	0.001593	0.001675	28.0818	78.9364	0.001887	41835.6	5.280018	171.936	301.338	1.221948	0.080532	0.080093	297.571	41835.6	0.075197	0.185870	1600.97	88657.4
491	2.000000	1.224808	7.36986e+06	-52539.1	1005.82	-29749	0.000000	0.000000	7.238147	316.414	NaN	0.000000	0.001557	0.001665	28.0817	79.9406	0.001719	46515.3	5.982297	-9.531831	314.169	1.224337	0.082953	0.082482	316.414	46515.3	0.077851	0.197484	1602.23	95631.9
491	2.000000	1.227302	7.36986e+06	-52539.1	1005.82	-29749	0.000000	0.000000	7.241270	331.685	NaN	0.000000	0.001576	0.001669	28.0816	81.7966	0.001795	45577.5	5.505795	170.975	331.925	1.226928	0.085447	0.085073	331.685	45577.5	0.079989	0.207080	1601.72	91507
491	2.000000	1.229862	7.36986e+06	-52539.1	1005.82	-29749	0.000000	0.000000	7.244521	348.495	NaN	0.000000	0.001623	0.001685	28.0815	84.4735	0.001843	45838.6	4.776219	-8.477970	348.881	1.229385	0.088007	0.087530	348.495	45838.6	0.082305	0.217714	1600.7	89755.7
491	2.000000	1.232286	7.36986e+06	-52539.1	1005.82	-29749	0.000000	0.000000	7.247500	362.001	NaN	0.000000	0.001562	0.001693	28.0815	86.601	0.001787	48460	2.582641	172.825	360.242	1.231999	0.090431	0.090144	362.001	48460	0.084828	0.229584	1576.77	92403.1
491	2.000000	1.234818	7.36986e+06	-52539.1	1005.82	-29749	0.000000	0.000000	7.251005	385.635	NaN	0.000000	0.001608	0.001673	28.0814	87.9326	0.001846	47626	5.322522	-8.817249	382.896	1.234447	0.092963	0.092592	385.635	47626	0.086890	0.239502	1610.15	88912.5
491	2.000000	1.237265	7.36986e+06	-52539.1	1005.82	-29749	0.000000	0.000000	7.254177	403.293	NaN	0.000000	0.001618	0.001685	28.0816	90.4038	0.001863	48527.5	5.389740	170.713	403.722	1.236987	0.095410	0.095132	403.293	48527.5	0.089177	0.250728	1608.49	88544.2
491	2.000000	1.239697	7.36986e+06	-52539.1	1005.82	-29749	0.000000	0.000000	7.257647	428.529	NaN	0.000000	0.001634	0.001700	28.0815	92.4101	0.001721	53685.4	5.863995	-10.4043	422.262	1.239260	0.097842	0.097405	428.529	53685.4	0.091855	0.264186	1622.07	95427.8
491	2.000000	1.242304	7.36986e+06	-52539.1	1005.82	-29749	0.000000	0.000000	7.260802	441.855	NaN	0.000000	0.001632	0.001691	28.0802	95.8429	0.001815	52795.3	4.922516	170.478	441.396	1.242018	0.100449	0.100163	441.855	52795.3	0.094172	0.276089	1600.41	91800.3
491	2.000000	1.244732	7.36986e+06	-52539.1	1005.82	-29749	0.000000	0.000000	7.264187	465.122	NaN	0.000000	0.001591	0.001641	28.0803	96.285	0.001735	55497.4	2.465934	-7.380740	460.18	1.244391	0.102877	0.102536	465.122	55497.4	0.096591	0.288780	1610.64	94354.4
491	2.000000	1.247195	7.36986e+06	-52539.1	1005.82	-29749	0.000000	0.000000	7.267501	485.802	NaN	0.000000	0.001660	0.001663	28.0803	98.0724	0.001758	55798.8	3.314609	172.031	483.216	1.246842	0.105340	0.104987	485.802	55798.8	0.098811	0.300661	1615.78	92973.5