File: remote_trans/data/nanoindenter/0828-1/data/Data_2025-08-06,11h17m57s/2025-07-22_16-23-58_1_1154.txt
2025-07-22, 16:23:58, 1
Index	Phase	Displacement	Time	Pos X	Pos Y	Pos Z	Rot A	Rot B	Piezo Z	Force A	Force B	Gripper	Voltage A	Voltage B	Temperature	Amplitude force	Amplitude pos	Stiffness	Phase shift	Phase excitation	Force A raw	Displacement raw	HMax	HMax raw	Real Force	Real Stiffness	Contact Depth	Area	Hardness	Reduced Mod.
[#]	[#]	[um]	[s]	[um]	[um]	[um]	[m°]	[m°]	[um]	[uN]	[uN]	[V]	[V]	[V]	[°C]	[uN]	[um]	[N/m]	[°]	[°]	[uN]	[um]	[um]	[um]	[uN]	[N/m]	[um]	[um^2]	[MPa]	[MPa]
1154	1.000000	0.002066	7.37634e+06	-57839.1	1055.82	-29740.1	0.000000	0.000000	6.002790	-0.086566	NaN	0.000000	0.001643	0.001706	28.0829	0.055943	0.001010	55.3983	60.0387	-165.16	-0.131854	0.000838	-0.906437	-0.907665	-0.086566	55.3983	-0.905265	-1.197293E+12	7.230119E-14	NaN
1154	1.000000	0.010078	7.37634e+06	-57839.1	1055.82	-29740.1	0.000000	0.000000	6.010802	-0.080645	NaN	0.000000	0.001592	0.001676	28.0828	0.115415	0.001048	110.151	-148.271	-170.552	0.011193	0.008700	-0.898425	-0.899803	-0.080645	110.151	-0.897876	-9.514110E+11	8.476328E-14	NaN
1154	1.000000	0.017992	7.37634e+06	-57839.1	1055.82	-29740.1	0.000000	0.000000	6.018722	0.048463	NaN	0.000000	0.001584	0.001729	28.0827	0.073140	0.001638	44.6607	-142.978	-165.956	0.029761	0.016781	-0.890511	-0.891722	0.048463	44.6607	-0.891325	-7.759345E+11	-6.245717E-14	NaN
1154	1.000000	0.026051	7.37634e+06	-57839.1	1055.82	-29740.1	0.000000	0.000000	6.026777	-0.028166	NaN	0.000000	0.001608	0.001709	28.0829	0.022698	0.001853	12.2465	2.317732	-165.167	-0.065268	0.024736	-0.882452	-0.883767	-0.028166	12.2465	-0.880727	-5.578854E+11	5.048736E-14	NaN
1154	1.000000	0.034014	7.37634e+06	-57839.1	1055.82	-29740.1	0.000000	0.000000	6.034742	0.032034	NaN	0.000000	0.001548	0.001674	28.0831	0.075412	0.002065	36.5199	-99.7334	-163.713	0.029521	0.032775	-0.874490	-0.875729	0.032034	36.5199	-0.875147	-4.688967E+11	-6.831854E-14	NaN
1154	1.000000	0.042035	7.37634e+06	-57839.1	1055.82	-29740.1	0.000000	0.000000	6.042766	0.075599	NaN	0.000000	0.001576	0.001752	28.083	0.116870	0.001913	61.0915	27.9009	-164.494	0.055190	0.040748	-0.866468	-0.867755	0.075599	61.0915	-0.867396	-3.683120E+11	-2.052581E-13	NaN
1154	1.000000	0.050018	7.37634e+06	-57839.1	1055.82	-29740.1	0.000000	0.000000	6.050746	0.017599	NaN	0.000000	0.001590	0.001729	28.0823	0.117065	0.001955	59.8866	-124.119	-168.239	0.081658	0.048711	-0.858485	-0.859792	0.017599	59.8866	-0.858706	-2.809334E+11	-6.264633E-14	NaN
1154	1.000000	0.058054	7.37634e+06	-57839.1	1055.82	-29740.1	0.000000	0.000000	6.058782	0.014093	NaN	0.000000	0.001584	0.001727	28.0826	0.091478	0.001952	46.8587	-80.4491	-166.064	0.000108	0.056707	-0.850450	-0.851796	0.014093	46.8587	-0.850675	-2.187153E+11	-6.443678E-14	NaN
1154	1.000000	0.066057	7.37634e+06	-57839.1	1055.82	-29740.1	0.000000	0.000000	6.066787	0.081212	NaN	0.000000	0.001577	0.001737	28.0824	0.078998	0.002149	36.7598	-94.2	-166.611	0.073524	0.064730	-0.842447	-0.843774	0.081212	36.7598	-0.844104	-1.781896E+11	-4.557609E-13	NaN
1154	1.000000	0.074058	7.37634e+06	-57839.1	1055.82	-29740.1	0.000000	0.000000	6.074783	-0.049378	NaN	0.000000	0.001586	0.001707	28.0827	0.117387	0.002062	56.9365	176.702	-163.279	-0.003006	0.072750	-0.834446	-0.835753	-0.049378	56.9365	-0.833795	-1.291878E+11	3.822214E-13	NaN
1154	1.000000	0.082045	7.37634e+06	-57839.1	1055.82	-29740.1	0.000000	0.000000	6.082774	0.050236	NaN	0.000000	0.001638	0.001709	28.083	0.042411	0.002050	20.6853	-41.0874	-164.258	0.108243	0.080721	-0.826459	-0.827783	0.050236	20.6853	-0.828280	-1.087607E+11	-4.618912E-13	NaN
1154	1.000000	0.090051	7.37634e+06	-57839.1	1055.82	-29740.1	0.000000	0.000000	6.090778	-0.000246	NaN	0.000000	0.001653	0.001730	28.0827	0.052524	0.002006	26.1837	91.8124	-164.347	-0.021153	0.088727	-0.818453	-0.819776	-0.000246	26.1837	-0.818446	-8.000791E+10	3.071835E-15	NaN
1154	1.000000	0.098028	7.37634e+06	-57839.1	1055.82	-29740.1	0.000000	0.000000	6.098755	-0.006870	NaN	0.000000	0.001657	0.001684	28.0829	0.049866	0.001977	25.2269	-128.855	-165.043	-0.004678	0.096695	-0.810475	-0.811808	-0.006870	25.2269	-0.810271	-6.197976E+10	1.108438E-13	NaN
1154	1.000000	0.106052	7.37634e+06	-57839.1	1055.82	-29740.1	0.000000	0.000000	6.106781	0.043089	NaN	0.000000	0.001667	0.001689	28.0828	0.123578	0.001919	64.3963	29.1973	-169.049	-0.000677	0.104731	-0.802452	-0.803772	0.043089	64.3963	-0.802954	-4.931197E+10	-8.737958E-13	NaN
1154	1.000000	0.114044	7.37634e+06	-57839.1	1055.82	-29740.1	0.000000	0.000000	6.114772	0.016961	NaN	0.000000	0.001667	0.001711	28.0826	0.161277	0.002029	79.5009	-54.6653	-163.534	0.017632	0.112759	-0.794459	-0.795745	0.016961	79.5009	-0.794619	-3.800254E+10	-4.463182E-13	NaN
1154	1.000000	0.122054	7.37634e+06	-57839.1	1055.82	-29740.1	0.000000	0.000000	6.122784	0.065773	NaN	0.000000	0.001690	0.001686	28.0828	0.051178	0.001990	25.7158	-162.416	-161.974	0.035462	0.120760	-0.786449	-0.787744	0.065773	25.7158	-0.788367	-3.125436E+10	-2.104446E-12	NaN
1154	1.000000	0.130039	7.37634e+06	-57839.1	1055.82	-29740.1	0.000000	0.000000	6.130770	0.091119	NaN	0.000000	0.001669	0.001701	28.0817	0.049109	0.002045	24.0129	118.183	-165.312	-0.014390	0.128786	-0.778464	-0.779717	0.091119	24.0129	-0.781310	-2.506319E+10	-3.635564E-12	NaN
1154	1.000000	0.138056	7.37634e+06	-57839.1	1055.82	-29740.1	0.000000	0.000000	6.138786	0.065203	NaN	0.000000	0.001642	0.001720	28.0816	0.042769	0.001974	21.6712	-145.167	-167.243	-0.015516	0.136837	-0.770448	-0.771666	0.065203	21.6712	-0.772704	-1.914575E+10	-3.405608E-12	NaN
1154	1.000000	0.146084	7.37634e+06	-57839.1	1055.82	-29740.1	0.000000	0.000000	6.146814	0.053289	NaN	0.000000	0.001613	0.001762	28.0813	0.051602	0.002042	25.2713	-149.894	-163.603	0.026403	0.144793	-0.762419	-0.763710	0.053289	25.2713	-0.764001	-1.457884E+10	-3.655241E-12	NaN
1154	1.000000	0.154044	7.37634e+06	-57839.1	1055.82	-29740.1	0.000000	0.000000	6.154772	0.005574	NaN	0.000000	0.001624	0.001698	28.0816	0.082552	0.001935	42.6715	40.4473	-163.773	0.011309	0.152772	-0.754459	-0.755731	0.005574	42.6715	-0.754557	-1.084542E+10	-5.139375E-13	NaN
1154	1.000000	0.162065	7.37634e+06	-57839.1	1055.82	-29740.1	0.000000	0.000000	6.162796	0.090895	NaN	0.000000	0.001636	0.001713	28.0813	0.095290	0.002007	47.4681	71.3175	-163.32	0.044494	0.160775	-0.746438	-0.747729	0.090895	47.4681	-0.747874	-8.795892E+9	-1.033376E-11	NaN
1154	1.000000	0.170071	7.37634e+06	-57839.1	1055.82	-29740.1	0.000000	0.000000	6.170800	0.034774	NaN	0.000000	0.001666	0.001703	28.0818	0.035855	0.002016	17.7866	-62.6289	-166.41	0.061584	0.168752	-0.738432	-0.739751	0.034774	17.7866	-0.739899	-6.849741E+9	-5.076623E-12	NaN
1154	1.000000	0.178054	7.37634e+06	-57839.1	1055.82	-29740.1	0.000000	0.000000	6.178784	0.051026	NaN	0.000000	0.001639	0.001736	28.0816	0.151661	0.002108	71.9561	112.114	-165.14	0.102732	0.176753	-0.730449	-0.731750	0.051026	71.9561	-0.730981	-5.178163E+9	-9.854146E-12	NaN
1154	1.000000	0.186094	7.37634e+06	-57839.1	1055.82	-29740.1	0.000000	0.000000	6.186825	0.087271	NaN	0.000000	0.001635	0.001734	28.0816	0.078151	0.001994	39.1884	174.627	-163.014	0.078982	0.184792	-0.722410	-0.723711	0.087271	39.1884	-0.724080	-4.169711E+9	-2.092974E-11	NaN
1154	1.000000	0.194076	7.37634e+06	-57839.1	1055.82	-29740.1	0.000000	0.000000	6.194808	0.108079	NaN	0.000000	0.001631	0.001748	28.0816	0.036377	0.001884	19.306	-29.1253	-167.81	0.127117	0.192800	-0.714427	-0.715704	0.108079	19.306	-0.718626	-3.513456E+9	-3.076139E-11	NaN
1154	1.000000	0.202115	7.37634e+06	-57839.1	1055.82	-29740.1	0.000000	0.000000	6.202843	0.009817	NaN	0.000000	0.001619	0.001722	28.0813	0.022167	0.001900	11.6677	-15.311	-164.333	0.023146	0.200799	-0.706388	-0.707705	0.009817	11.6677	-0.707019	-2.439845E+9	-4.023625E-12	NaN
1154	1.000000	0.210087	7.37634e+06	-57839.1	1055.82	-29740.1	0.000000	0.000000	6.210817	0.059929	NaN	0.000000	0.001589	0.001701	28.0814	0.096413	0.001991	48.4269	-139.926	-165.569	0.092475	0.208786	-0.698416	-0.699717	0.059929	48.4269	-0.699344	-1.916793E+9	-3.126535E-11	NaN
1154	1.000000	0.218089	7.37634e+06	-57839.1	1055.82	-29740.1	0.000000	0.000000	6.218821	0.095570	NaN	0.000000	0.001575	0.001670	28.0814	0.038083	0.001970	19.3356	144.238	-165.424	0.000192	0.216792	-0.690414	-0.691711	0.095570	19.3356	-0.694121	-1.626404E+9	-5.876132E-11	NaN
1154	1.000000	0.226101	7.37634e+06	-57839.1	1055.82	-29740.1	0.000000	0.000000	6.226830	0.050728	NaN	0.000000	0.001611	0.001727	28.0812	0.025909	0.001994	12.9962	107.214	-166.451	-0.011924	0.224800	-0.682403	-0.683704	0.050728	12.9962	-0.685330	-1.233356E+9	-4.113013E-11	NaN
1154	1.000000	0.234105	7.37634e+06	-57839.1	1055.82	-29740.1	0.000000	0.000000	6.234836	0.088455	NaN	0.000000	0.001568	0.001715	28.0817	0.089440	0.002084	42.9109	135.338	-164.037	0.061499	0.232789	-0.674398	-0.675715	0.088455	42.9109	-0.675944	-9.177528E+8	-9.638242E-11	NaN
1154	1.000000	0.242098	7.37634e+06	-57839.1	1055.82	-29740.1	0.000000	0.000000	6.242827	0.047719	NaN	0.000000	0.001598	0.001693	28.0814	0.147483	0.001966	75.0331	-40.6912	-167.966	0.063669	0.240823	-0.666406	-0.667680	0.047719	75.0331	-0.666883	-6.897944E+8	-6.917875E-11	NaN
1154	1.000000	0.250118	7.37635e+06	-57839.1	1055.82	-29740.1	0.000000	0.000000	6.250847	0.033242	NaN	0.000000	0.001599	0.001748	28.0818	0.114449	0.001952	58.6452	-132.463	-168.654	0.018453	0.248874	-0.658385	-0.659629	0.033242	58.6452	-0.658810	-5.347766E+8	-6.216055E-11	NaN
1154	1.000000	0.258127	7.37635e+06	-57839.1	1055.82	-29740.1	0.000000	0.000000	6.258858	0.066199	NaN	0.000000	0.001605	0.001750	28.0814	0.071597	0.002029	35.2868	41.9649	-162.076	0.070973	0.256839	-0.650376	-0.651664	0.066199	35.2868	-0.651783	-4.284260E+8	-1.545175E-10	NaN
1154	1.000000	0.266098	7.37635e+06	-57839.1	1055.82	-29740.1	0.000000	0.000000	6.266825	0.003173	NaN	0.000000	0.001640	0.001761	28.0824	0.084206	0.001807	46.5945	-24.7001	-167.477	-0.042096	0.264784	-0.642406	-0.643719	0.003173	46.5945	-0.642457	-3.191485E+8	-9.942063E-12	NaN
1154	1.000000	0.274135	7.37635e+06	-57839.1	1055.82	-29740.1	0.000000	0.000000	6.274864	0.046332	NaN	0.000000	0.001648	0.001764	28.0824	0.077574	0.001913	40.5446	168.409	-165.489	0.146275	0.272821	-0.634368	-0.635682	0.046332	40.5446	-0.635225	-2.539579E+8	-1.824392E-10	NaN
1154	1.000000	0.282142	7.37635e+06	-57839.1	1055.82	-29740.1	0.000000	0.000000	6.282870	0.029117	NaN	0.000000	0.001684	0.001712	28.0824	0.079575	0.002039	39.0233	82.2293	-165.055	0.088256	0.280822	-0.626361	-0.627682	0.029117	39.0233	-0.626921	-1.953151E+8	-1.490776E-10	NaN
1154	1.000000	0.290139	7.37635e+06	-57839.1	1055.82	-29740.1	0.000000	0.000000	6.290868	0.022537	NaN	0.000000	0.001695	0.001675	28.0828	0.071159	0.001872	38.0215	10.5502	-165.404	0.017543	0.288829	-0.618364	-0.619675	0.022537	38.0215	-0.618809	-1.510971E+8	-1.491540E-10	NaN
1154	1.000000	0.298158	7.37635e+06	-57839.1	1055.82	-29740.1	0.000000	0.000000	6.298885	0.013496	NaN	0.000000	0.001707	0.001718	28.0831	0.101274	0.001831	55.3093	-67.0968	-164.848	0.024335	0.296818	-0.610346	-0.611685	0.013496	55.3093	-0.610529	-1.162488E+8	-1.160934E-10	NaN
1154	1.000000	0.306156	7.37635e+06	-57839.1	1055.82	-29740.1	0.000000	0.000000	6.306889	0.123175	NaN	0.000000	0.001640	0.001693	28.0828	0.030623	0.002001	15.3006	169.254	-163.499	0.111468	0.304844	-0.602347	-0.603659	0.123175	15.3006	-0.608385	-1.086155E+8	-1.134050E-9	NaN
1154	1.000000	0.314139	7.37635e+06	-57839.1	1055.82	-29740.1	0.000000	0.000000	6.314867	0.017356	NaN	0.000000	0.001611	0.001694	28.0825	0.064079	0.002104	30.4612	-67.1562	-165.366	0.046245	0.312802	-0.594365	-0.595701	0.017356	30.4612	-0.594792	-7.058528E+7	-2.458828E-10	NaN
1154	1.000000	0.322120	7.37635e+06	-57839.1	1055.82	-29740.1	0.000000	0.000000	6.322850	0.069249	NaN	0.000000	0.001541	0.001724	28.0825	0.067372	0.002050	32.8617	53.38	-164.047	0.049520	0.320830	-0.586383	-0.587673	0.069249	32.8617	-0.587964	-5.683161E+7	-1.218497E-9	NaN
1154	1.000000	0.330140	7.37635e+06	-57839.1	1055.82	-29740.1	0.000000	0.000000	6.330870	0.058406	NaN	0.000000	0.001624	0.001755	28.0826	0.187470	0.001893	99.05	-41.8472	-164.952	0.007459	0.328784	-0.578363	-0.579720	0.058406	99.05	-0.578805	-4.248516E+7	-1.374738E-9	NaN
1154	1.000000	0.338122	7.37635e+06	-57839.1	1055.82	-29740.1	0.000000	0.000000	6.338850	0.025374	NaN	0.000000	0.001623	0.001754	28.0825	0.058860	0.002004	29.3747	-145.054	-162.689	0.050407	0.336884	-0.570382	-0.571619	0.025374	29.3747	-0.571029	-3.317836E+7	-7.647664E-10	NaN
1154	1.000000	0.346149	7.37635e+06	-57839.1	1055.82	-29740.1	0.000000	0.000000	6.346878	0.058466	NaN	0.000000	0.001651	0.001701	28.0828	0.139222	0.002014	69.1249	-100.028	-168.644	0.021031	0.344807	-0.562355	-0.563696	0.058466	69.1249	-0.562989	-2.568737E+7	-2.276064E-9	NaN
1154	1.000000	0.354167	7.37635e+06	-57839.1	1055.82	-29740.1	0.000000	0.000000	6.354898	0.097623	NaN	0.000000	0.001636	0.001741	28.0824	0.052921	0.001984	26.668	-57.442	-164.7	0.069359	0.352896	-0.554336	-0.555607	0.097623	26.668	-0.557082	-2.128148E+7	-4.587208E-9	NaN
1154	1.000000	0.362177	7.37635e+06	-57839.1	1055.82	-29740.1	0.000000	0.000000	6.362908	0.094248	NaN	0.000000	0.001649	0.001715	28.0825	0.054477	0.002055	26.5097	155.947	-164.083	0.112990	0.360824	-0.546327	-0.547680	0.094248	26.5097	-0.548993	-1.644408E+7	-5.731401E-9	NaN
1154	1.000000	0.370158	7.37635e+06	-57839.1	1055.82	-29740.1	0.000000	0.000000	6.370889	0.075655	NaN	0.000000	0.001633	0.001711	28.0823	0.033521	0.002080	16.1188	-24.723	-164.684	0.102085	0.368814	-0.538345	-0.539689	0.075655	16.1188	-0.541865	-1.309850E+7	-5.775873E-9	NaN
1154	1.000000	0.378181	7.37635e+06	-57839.1	1055.82	-29740.1	0.000000	0.000000	6.378913	0.091394	NaN	0.000000	0.001642	0.001694	28.0825	0.048399	0.001946	24.8752	-91.1504	-163.204	0.037093	0.376898	-0.530322	-0.531606	0.091394	24.8752	-0.533077	-9.89247e+06	-9.238710E-9	NaN
1154	1.000000	0.386173	7.37635e+06	-57839.1	1055.82	-29740.1	0.000000	0.000000	6.386901	0.015214	NaN	0.000000	0.001605	0.001712	28.0826	0.071023	0.002048	34.686	161.435	-165.639	0.097217	0.384860	-0.522330	-0.523644	0.015214	34.686	-0.522659	-7.08875e+06	-2.146194E-9	NaN
1154	1.000000	0.394175	7.37635e+06	-57839.1	1055.82	-29740.1	0.000000	0.000000	6.394905	0.047246	NaN	0.000000	0.001645	0.001729	28.0825	0.035462	0.002089	16.9751	-1.346181	-160.366	0.093243	0.392856	-0.514328	-0.515648	0.047246	16.9751	-0.516415	-5.80403e+06	-8.140211E-9	NaN
1154	1.000000	0.402147	7.37635e+06	-57839.1	1055.82	-29740.1	0.000000	0.000000	6.402876	0.033743	NaN	0.000000	0.001653	0.001716	28.0815	0.098957	0.001825	54.2166	80.1096	-166.164	0.004714	0.400876	-0.506356	-0.507628	0.033743	54.2166	-0.506823	-4.26731e+06	-7.907359E-9	NaN
1154	1.000000	0.410157	7.37635e+06	-57839.1	1055.82	-29740.1	0.000000	0.000000	6.410886	0.054960	NaN	0.000000	0.001646	0.001709	28.0811	0.081675	0.001866	43.7781	20.8448	-166.206	0.072599	0.408864	-0.498347	-0.499640	0.054960	43.7781	-0.499288	-3.35033e+06	-1.640435E-8	NaN
1154	1.000000	0.418187	7.37635e+06	-57839.1	1055.82	-29740.1	0.000000	0.000000	6.418919	0.126241	NaN	0.000000	0.001674	0.001735	28.0811	0.049323	0.002075	23.7714	-165.174	-164.047	0.110081	0.416890	-0.490316	-0.491614	0.126241	23.7714	-0.494299	-2.85398e+06	-4.423328E-8	NaN
1154	1.000000	0.426192	7.37635e+06	-57839.1	1055.82	-29740.1	0.000000	0.000000	6.426920	0.023231	NaN	0.000000	0.001669	0.001797	28.0811	0.071067	0.001947	36.5026	64.1951	-164.089	0.024356	0.424902	-0.482312	-0.483601	0.023231	36.5026	-0.482789	-1.97042e+06	-1.178968E-8	NaN
1154	1.000000	0.434206	7.37635e+06	-57839.1	1055.82	-29740.1	0.000000	0.000000	6.434933	-0.009781	NaN	0.000000	0.001648	0.001735	28.0817	0.091371	0.001942	47.0477	-79.1281	-163.906	-0.030232	0.432878	-0.474297	-0.475625	-0.009781	47.0477	-0.474141	-1.49096e+06	6.560411E-9	NaN
1154	1.000000	0.442201	7.37635e+06	-57839.1	1055.82	-29740.1	0.000000	0.000000	6.442932	0.089079	NaN	0.000000	0.001636	0.001715	28.0818	0.041122	0.002030	20.261	-7.017266	-163.66	0.020514	0.440942	-0.466303	-0.467561	0.089079	20.261	-0.469600	-1.28765e+06	-6.917912E-8	NaN
1154	1.000000	0.450213	7.37635e+06	-57839.1	1055.82	-29740.1	0.000000	0.000000	6.450942	0.055375	NaN	0.000000	0.001668	0.001707	28.0811	0.089447	0.001851	48.3315	-131.811	-162.498	0.153013	0.448866	-0.458291	-0.459638	0.055375	48.3315	-0.459150	-918483	-6.028970E-8	NaN
1154	1.000000	0.458215	7.37635e+06	-57839.1	1055.82	-29740.1	0.000000	0.000000	6.458948	0.142577	NaN	0.000000	0.001612	0.001734	28.0813	0.049329	0.001966	25.0905	45.5878	-161.036	0.212076	0.456867	-0.450288	-0.451636	0.142577	25.0905	-0.454550	-791381	-1.801619E-7	NaN
1154	1.000000	0.466204	7.37635e+06	-57839.1	1055.82	-29740.1	0.000000	0.000000	6.466932	0.025678	NaN	0.000000	0.001618	0.001764	28.081	0.031261	0.001872	16.6963	-47.5077	-166.72	0.066852	0.464907	-0.442300	-0.443596	0.025678	16.6963	-0.443453	-552180	-4.650312E-8	NaN
1154	1.000000	0.474234	7.37635e+06	-57839.1	1055.82	-29740.1	0.000000	0.000000	6.474963	0.038226	NaN	0.000000	0.001614	0.001736	28.0812	0.089512	0.002071	43.2113	114.988	-166.36	0.027472	0.472903	-0.434269	-0.435601	0.038226	43.2113	-0.434933	-418607	-9.131783E-8	NaN
1154	1.000000	0.482177	7.37635e+06	-57839.1	1055.82	-29740.1	0.000000	0.000000	6.482910	0.132518	NaN	0.000000	0.001593	0.001719	28.0811	0.067185	0.002026	33.1604	-143.983	-163.16	0.138418	0.480897	-0.426326	-0.427606	0.132518	33.1604	-0.429323	-348726	-3.800046E-7	NaN
1154	1.000000	0.490208	7.37635e+06	-57839.1	1055.82	-29740.1	0.000000	0.000000	6.490940	0.120624	NaN	0.000000	0.001589	0.001737	28.0811	0.108571	0.002069	52.4628	118.044	-162.751	0.050896	0.488890	-0.418296	-0.419613	0.120624	52.4628	-0.420020	-257455	-4.685261E-7	NaN
1154	1.000000	0.498218	7.37635e+06	-57839.1	1055.82	-29740.1	0.000000	0.000000	6.498950	0.125472	NaN	0.000000	0.001538	0.001714	28.0813	0.050607	0.002037	24.842	-41.5033	-161.953	0.145975	0.496937	-0.410285	-0.411567	0.125472	24.842	-0.414074	-211981	-5.919021E-7	NaN
1154	1.000000	0.506222	7.37635e+06	-57839.1	1055.82	-29740.1	0.000000	0.000000	6.506953	0.100700	NaN	0.000000	0.001578	0.001716	28.0811	0.060180	0.002043	29.4536	-75.2257	-165.38	0.090145	0.504943	-0.402282	-0.403560	0.100700	29.4536	-0.404846	-156694	-6.426525E-7	NaN
1154	1.000000	0.514256	7.37635e+06	-57839.1	1055.82	-29740.1	0.000000	0.000000	6.514989	0.128929	NaN	0.000000	0.001594	0.001724	28.0809	0.087236	0.002153	40.5194	19.2833	-166.402	0.111296	0.512936	-0.394247	-0.395568	0.128929	40.5194	-0.396634	-119663	-1.077431E-6	NaN
1154	1.000000	0.522228	7.37635e+06	-57839.1	1055.82	-29740.1	0.000000	0.000000	6.522958	0.065813	NaN	0.000000	0.001586	0.001754	28.081	0.187838	0.001988	94.4945	-18.3144	-164.257	0.043683	0.520964	-0.386275	-0.387539	0.065813	94.4945	-0.386798	-86563.4	-7.602839E-7	NaN
1154	1.000000	0.530231	7.37635e+06	-57839.1	1055.82	-29740.1	0.000000	0.000000	6.530965	0.159869	NaN	0.000000	0.001644	0.001702	28.081	0.119874	0.002028	59.1143	-171.553	-166.923	0.162742	0.528949	-0.378272	-0.379554	0.159869	59.1143	-0.380300	-69855.6	-2.288564E-6	NaN
1154	1.000000	0.538251	7.37635e+06	-57839.1	1055.82	-29740.1	0.000000	0.000000	6.538984	0.157121	NaN	0.000000	0.001664	0.001751	28.0826	0.061028	0.001995	30.5917	59.389	-167.132	0.141864	0.536938	-0.370253	-0.371566	0.157121	30.5917	-0.374105	-56911.4	-2.760791E-6	NaN
1154	1.000000	0.546253	7.37635e+06	-57839.1	1055.82	-29740.1	0.000000	0.000000	6.546985	0.121505	NaN	0.000000	0.001667	0.001755	28.0823	0.027626	0.002054	13.4471	-54.233	-165.002	0.116033	0.544986	-0.362250	-0.363517	0.121505	13.4471	-0.369027	-48096.5	-2.526273E-6	NaN
1154	1.000000	0.554222	7.37635e+06	-57839.1	1055.82	-29740.1	0.000000	0.000000	6.554952	0.069104	NaN	0.000000	0.001640	0.001726	28.0825	0.115192	0.002021	57	58.2227	-164.044	0.156631	0.552938	-0.354281	-0.355565	0.069104	57	-0.355191	-30356.8	-2.276385E-6	NaN
1154	1.000000	0.562248	7.37635e+06	-57839.1	1055.82	-29740.1	0.000000	0.000000	6.562978	0.062635	NaN	0.000000	0.001632	0.001727	28.0824	0.025161	0.001981	12.7036	-142.961	-164.298	0.000835	0.560981	-0.346256	-0.347522	0.062635	12.7036	-0.349954	-25487.6	-2.457487E-6	NaN
1154	1.000000	0.570250	7.37635e+06	-57839.1	1055.82	-29740.1	0.000000	0.000000	6.570981	0.099795	NaN	0.000000	0.001664	0.001707	28.0823	0.042633	0.001976	21.5773	-68.8783	-164.271	0.052920	0.569009	-0.338254	-0.339494	0.099795	21.5773	-0.341722	-19348.7	-5.157686E-6	NaN
1154	1.000000	0.578248	7.37635e+06	-57839.1	1055.82	-29740.1	0.000000	0.000000	6.578980	0.121205	NaN	0.000000	0.001613	0.001707	28.0825	0.022149	0.001962	11.286	1.822917	-165.906	0.144760	0.576957	-0.330256	-0.331546	0.121205	11.286	-0.338310	-17255	-7.024360E-6	NaN
1154	1.000000	0.586287	7.37635e+06	-57839.1	1055.82	-29740.1	0.000000	0.000000	6.587019	0.107333	NaN	0.000000	0.001635	0.001699	28.0823	0.070291	0.002128	33.0355	-41.0916	-163.996	0.176986	0.584905	-0.322216	-0.323599	0.107333	33.0355	-0.324653	-10890.3	-9.855785E-6	NaN
1154	1.000000	0.594249	7.37635e+06	-57839.1	1055.82	-29740.1	0.000000	0.000000	6.594979	0.079099	NaN	0.000000	0.001613	0.001701	28.0827	0.031982	0.002072	15.4322	-0.769242	-165.875	0.051940	0.592928	-0.314255	-0.315575	0.079099	15.4322	-0.318099	-8722.48	-9.068390E-6	NaN
1154	1.000000	0.602290	7.37635e+06	-57839.1	1055.82	-29740.1	0.000000	0.000000	6.603022	0.121599	NaN	0.000000	0.001612	0.001702	28.0824	0.188968	0.002105	89.7518	-112.081	-167.862	0.115740	0.601012	-0.306213	-0.307491	0.121599	89.7518	-0.307229	-6025.91	-2.017929E-5	NaN
1154	1.000000	0.610259	7.37635e+06	-57839.1	1055.82	-29740.1	0.000000	0.000000	6.610992	0.144307	NaN	0.000000	0.001613	0.001708	28.0824	0.046131	0.001861	24.7892	17.796	-164.567	0.124914	0.608955	-0.298245	-0.299549	0.144307	24.7892	-0.302611	-5145.99	-2.804263E-5	NaN
1154	1.000000	0.618285	7.37635e+06	-57839.1	1055.82	-29740.1	0.000000	0.000000	6.619015	0.042829	NaN	0.000000	0.001636	0.001682	28.0822	0.121723	0.002117	57.5031	4.969933	-163.1	0.009989	0.616929	-0.290218	-0.291574	0.042829	57.5031	-0.290776	-3427.14	-1.249699E-5	NaN
1154	1.000000	0.626244	7.37635e+06	-57839.1	1055.82	-29740.1	0.000000	0.000000	6.626976	0.111944	NaN	0.000000	0.001601	0.001718	28.0823	0.049544	0.002001	24.7603	64.6421	-167.455	0.036348	0.625004	-0.282259	-0.283500	0.111944	24.7603	-0.285650	-2871.02	-3.899113E-5	NaN
1154	1.000000	0.634309	7.37635e+06	-57839.1	1055.82	-29740.1	0.000000	0.000000	6.635038	0.027717	NaN	0.000000	0.001617	0.001717	28.0832	0.157852	0.001910	82.64	152.08	-163.94	0.108744	0.632961	-0.274194	-0.275542	0.027717	82.64	-0.274445	-1945.37	-1.424775E-5	NaN
1154	1.000000	0.642289	7.37635e+06	-57839.1	1055.82	-29740.1	0.000000	0.000000	6.643017	0.005627	NaN	0.000000	0.001647	0.001747	28.0825	0.062610	0.001961	31.9268	-167.311	-163.375	-0.036214	0.640951	-0.266214	-0.267552	0.005627	31.9268	-0.266346	-1465.29	-3.840053E-6	NaN
1154	1.000000	0.650301	7.37635e+06	-57839.1	1055.82	-29740.1	0.000000	0.000000	6.651030	0.036170	NaN	0.000000	0.001613	0.001727	28.0826	0.034722	0.001971	17.6173	-175.564	-167.192	0.046643	0.648943	-0.258202	-0.259560	0.036170	17.6173	-0.259742	-1161.35	-3.114527E-5	NaN
1154	1.000000	0.658305	7.37635e+06	-57839.1	1055.82	-29740.1	0.000000	0.000000	6.659034	0.044786	NaN	0.000000	0.001596	0.001700	28.0823	0.056319	0.001993	28.2596	-169.555	-165.58	-0.046597	0.656944	-0.250198	-0.251560	0.044786	28.2596	-0.251387	-863.777	-5.184888E-5	NaN
1154	1.000000	0.666278	7.37635e+06	-57839.1	1055.82	-29740.1	0.000000	0.000000	6.667007	0.038576	NaN	0.000000	0.001561	0.001730	28.0823	0.016034	0.001969	8.143984	73.2835	-165.318	0.075469	0.664987	-0.242225	-0.243516	0.038576	8.143984	-0.245778	-707.189	-5.454816E-5	NaN
1154	1.000000	0.674272	7.37635e+06	-57839.1	1055.82	-29740.1	0.000000	0.000000	6.675001	0.045553	NaN	0.000000	0.001557	0.001673	28.0811	0.054102	0.001947	27.7823	64.6559	-165.303	0.062602	0.672918	-0.234232	-0.235585	0.045553	27.7823	-0.235462	-488.084	-9.333120E-5	NaN
1154	1.000000	0.682296	7.37635e+06	-57839.1	1055.82	-29740.1	0.000000	0.000000	6.683025	0.019907	NaN	0.000000	0.001624	0.001698	28.0813	0.071948	0.001990	36.1487	-164.138	-160.983	0.066092	0.681042	-0.226207	-0.227461	0.019907	36.1487	-0.226620	-354.029	-5.623021E-5	NaN
1154	1.000000	0.690278	7.37635e+06	-57839.1	1055.82	-29740.1	0.000000	0.000000	6.691008	0.061207	NaN	0.000000	0.001621	0.001715	28.0814	0.099195	0.002007	49.4242	123.503	-167.878	0.084492	0.688983	-0.218226	-0.219520	0.061207	49.4242	-0.219154	-269.25	-0.000227	NaN
1154	1.000000	0.698283	7.37635e+06	-57839.1	1055.82	-29740.1	0.000000	0.000000	6.699012	0.049337	NaN	0.000000	0.001619	0.001698	28.0813	0.175868	0.002113	83.2423	136.016	-166.366	0.051059	0.696984	-0.210220	-0.211520	0.049337	83.2423	-0.210665	-196.598	-0.000251	NaN
1154	1.000000	0.706277	7.37635e+06	-57839.1	1055.82	-29740.1	0.000000	0.000000	6.707003	-0.034070	NaN	0.000000	0.001625	0.001713	28.0812	0.069158	0.001940	35.6493	110.181	-163.923	-0.006996	0.705018	-0.202227	-0.203486	-0.034070	35.6493	-0.201510	-139.47	0.000244	NaN
1154	1.000000	0.714302	7.37635e+06	-57839.1	1055.82	-29740.1	0.000000	0.000000	6.715032	0.057616	NaN	0.000000	0.001622	0.001704	28.0812	0.077387	0.002053	37.7	-39.2895	-164.906	0.130660	0.713008	-0.194201	-0.195495	0.057616	37.7	-0.195347	-110.395	-0.000522	NaN
1154	1.000000	0.722327	7.37635e+06	-57839.1	1055.82	-29740.1	0.000000	0.000000	6.723055	0.028303	NaN	0.000000	0.001634	0.001681	28.0812	0.117910	0.001960	60.1462	89.9398	-163.942	0.040682	0.721025	-0.186176	-0.187478	0.028303	60.1462	-0.186529	-78.6813	-0.000360	NaN
1154	1.000000	0.730341	7.37635e+06	-57839.1	1055.82	-29740.1	0.000000	0.000000	6.731073	0.106300	NaN	0.000000	0.001625	0.001697	28.0812	0.076619	0.001974	38.8101	-65.9398	-162.955	0.130090	0.729008	-0.178162	-0.179495	0.106300	38.8101	-0.180216	-61.5388	-0.001727	NaN
1154	1.000000	0.738353	7.37635e+06	-57839.1	1055.82	-29740.1	0.000000	0.000000	6.739084	0.108124	NaN	0.000000	0.001626	0.001727	28.0811	0.116658	0.001901	61.3712	73.0919	-166.315	0.088303	0.737070	-0.170151	-0.171433	0.108124	61.3712	-0.171472	-43.5647	-0.002482	NaN
1154	1.000000	0.746333	7.37635e+06	-57839.1	1055.82	-29740.1	0.000000	0.000000	6.747064	0.084749	NaN	0.000000	0.001722	0.001762	28.0813	0.063952	0.001957	32.6803	86.6036	-166.403	0.143927	0.745023	-0.162170	-0.163481	0.084749	32.6803	-0.164115	-32.4155	-0.002614	NaN
1154	1.000000	0.754328	7.37635e+06	-57839.1	1055.82	-29740.1	0.000000	0.000000	6.755060	0.093988	NaN	0.000000	0.001678	0.001727	28.0811	0.162941	0.001946	83.7204	8.233193	-167.163	0.075992	0.753050	-0.154175	-0.155453	0.093988	83.7204	-0.155017	-22.3299	-0.004209	NaN
1154	1.000000	0.762319	7.37635e+06	-57839.1	1055.82	-29740.1	0.000000	0.000000	6.763051	0.105022	NaN	0.000000	0.001693	0.001719	28.081	0.107641	0.002160	49.8247	27.417	-164.487	0.081725	0.760999	-0.146184	-0.147504	0.105022	49.8247	-0.147765	-16.4859	-0.006370	NaN
1154	1.000000	0.770344	7.37635e+06	-57839.1	1055.82	-29740.1	0.000000	0.000000	6.771089	0.452050	NaN	0.000000	0.001663	0.001677	28.081	0.150118	0.002054	73.0683	8.233927	-165.908	0.342453	0.769022	-0.138160	-0.139481	0.452050	73.0683	-0.142800	-13.3453	-0.033873	NaN
1154	1.000000	0.778357	7.37635e+06	-57839.1	1055.82	-29740.1	0.000000	0.000000	6.779107	0.553204	NaN	0.000000	0.001660	0.001730	28.0809	0.140056	0.001874	74.753	-3.064944	-166.909	0.511193	0.777012	-0.130146	-0.131491	0.553204	74.753	-0.135696	-9.807715	-0.056405	NaN
1154	1.000000	0.786350	7.37635e+06	-57839.1	1055.82	-29740.1	0.000000	0.000000	6.787105	0.677778	NaN	0.000000	0.001666	0.001753	28.0815	0.297222	0.002023	146.939	6.318443	-161.015	0.662541	0.785023	-0.122153	-0.123480	0.677778	146.939	-0.125613	-6.253182	-0.108389	NaN
1154	1.000000	0.794347	7.37635e+06	-57839.1	1055.82	-29740.1	0.000000	0.000000	6.795112	0.915832	NaN	0.000000	0.001701	0.001759	28.081	0.289958	0.002014	143.97	14.4949	-162.683	0.918808	0.793041	-0.114156	-0.115462	0.915832	143.97	-0.118927	-4.595936	-0.199270	NaN
1154	1.000000	0.802361	7.37635e+06	-57839.1	1055.82	-29740.1	0.000000	0.000000	6.803130	1.017067	NaN	0.000000	0.001672	0.001770	28.0812	0.261490	0.002086	125.334	13.4278	-168.068	0.926291	0.801068	-0.106142	-0.107435	1.017067	125.334	-0.112228	-3.346710	-0.303900	NaN
1154	1.000000	0.810347	7.37635e+06	-57839.1	1055.82	-29740.1	0.000000	0.000000	6.811114	0.959506	NaN	0.000000	0.001613	0.001764	28.0823	0.239986	0.001971	121.77	39.9892	-167.728	0.951631	0.809066	-0.098156	-0.099437	0.959506	121.77	-0.104066	-2.243611	-0.427662	NaN
1154	1.000000	0.818351	7.37635e+06	-57839.1	1055.82	-29740.1	0.000000	0.000000	6.819120	1.003097	NaN	0.000000	0.001622	0.001737	28.0824	0.227868	0.001992	114.397	-15.6123	-166.409	1.022139	0.817043	-0.090152	-0.091460	1.003097	114.397	-0.096728	-1.543854	-0.649736	NaN
1154	1.000000	0.826377	7.37635e+06	-57839.1	1055.82	-29740.1	0.000000	0.000000	6.827153	1.169446	NaN	0.000000	0.001631	0.001712	28.0831	0.268221	0.001984	135.185	23.3755	-163.482	1.183426	0.825045	-0.082126	-0.083458	1.169446	135.185	-0.088614	-1.002672	-1.166330	NaN
1154	1.000000	0.834367	7.37635e+06	-57839.1	1055.82	-29740.1	0.000000	0.000000	6.835146	1.261402	NaN	0.000000	0.001615	0.001716	28.0824	0.368393	0.002036	180.928	29.098	-169.502	1.299403	0.833062	-0.074137	-0.075442	1.261402	180.928	-0.079365	-0.596737	-2.113831	NaN
1154	1.000000	0.842382	7.37635e+06	-57839.1	1055.82	-29740.1	0.000000	0.000000	6.843166	1.369045	NaN	0.000000	0.001634	0.001733	28.0825	0.363001	0.002029	178.949	6.905961	-167.088	1.414587	0.841044	-0.066121	-0.067459	1.369045	178.949	-0.071859	-0.382263	-3.581419	NaN
1154	1.000000	0.850362	7.37635e+06	-57839.1	1055.82	-29740.1	0.000000	0.000000	6.851146	1.384335	NaN	0.000000	0.001616	0.001720	28.0822	0.342240	0.001970	173.701	17.5878	-164.64	1.379095	0.849014	-0.058141	-0.059489	1.384335	173.701	-0.064119	-0.235535	-5.877416	NaN
1154	1.000000	0.858383	7.37635e+06	-57839.1	1055.82	-29740.1	0.000000	0.000000	6.859171	1.482492	NaN	0.000000	0.001584	0.001706	28.0822	0.301071	0.001985	151.702	1.510045	-164.969	1.439715	0.857112	-0.050120	-0.051391	1.482492	151.702	-0.057450	-0.151966	-9.755406	NaN
1154	1.000000	0.866339	7.37635e+06	-57839.1	1055.82	-29740.1	0.000000	0.000000	6.867132	1.593916	NaN	0.000000	0.001690	0.001710	28.0823	0.428343	0.001903	225.039	14.2526	-164.624	1.557512	0.865080	-0.042164	-0.043424	1.593916	225.039	-0.047476	-0.076491	-20.8378	NaN
1154	1.000000	0.874377	7.37635e+06	-57839.1	1055.82	-29740.1	0.000000	0.000000	6.875177	1.761340	NaN	0.000000	0.001703	0.001706	28.0823	0.467003	0.001914	244.006	11.6874	-165.694	1.740696	0.873031	-0.034126	-0.035472	1.761340	244.006	-0.039540	-0.043791	-40.2211	NaN
1154	1.000000	0.882380	7.37635e+06	-57839.1	1055.82	-29740.1	0.000000	0.000000	6.883192	2.055001	NaN	0.000000	0.001704	0.001681	28.0827	0.520426	0.001969	264.273	12.9187	-167.872	2.017698	0.881117	-0.026123	-0.027386	2.055001	264.273	-0.031955	-0.026129	-78.6487	NaN
1154	1.000000	0.890396	7.37635e+06	-57839.1	1055.82	-29740.1	0.000000	0.000000	6.891215	2.234992	NaN	0.000000	0.001706	0.001728	28.0824	0.660629	0.002090	316.032	17.0051	-165.234	2.236036	0.889092	-0.018108	-0.019412	2.234992	316.032	-0.023412	-0.015345	-145.646	NaN
1154	1.000000	0.898431	7.37635e+06	-57839.1	1055.82	-29740.1	0.000000	0.000000	6.899264	2.580157	NaN	0.000000	0.001714	0.001683	28.0824	0.799695	0.001978	404.244	22.46	-166.794	2.536278	0.897083	-0.010072	-0.011421	2.580157	404.244	-0.014859	-0.009191	-280.716	NaN
1154	1.000000	0.906374	7.37635e+06	-57839.1	1055.82	-29740.1	0.000000	0.000000	6.907232	3.165424	NaN	0.000000	0.001676	0.001723	28.0823	1.015639	0.001924	527.858	21.1265	-165.887	3.051336	0.905121	-0.002129	-0.003382	3.165424	527.858	-0.006627	-0.004416	-716.731	NaN
1154	1.000000	0.914393	7.37635e+06	-57839.1	1055.82	-29740.1	0.000000	0.000000	6.915278	3.844755	NaN	0.000000	0.001694	0.001671	28.0826	1.068490	0.001868	572.009	12.0877	-161.806	3.656645	0.913094	0.005889	0.004591	3.844755	572.009	0.000848	0.000645	5965.47	20585.6
1154	1.000000	0.922364	7.37635e+06	-57839.1	1055.82	-29740.1	0.000000	0.000000	6.923278	4.521769	NaN	0.000000	0.001699	0.001718	28.0827	1.157273	0.002025	571.557	14.7068	-161.646	4.355229	0.921075	0.013861	0.012572	4.521769	571.557	0.007928	0.006968	648.94	6255.77
1154	1.000000	0.930382	7.37635e+06	-57839.1	1055.82	-29740.1	0.000000	0.000000	6.931319	5.081275	NaN	0.000000	0.001687	0.001711	28.0822	1.554506	0.002116	734.803	22.6523	-169.877	4.927982	0.929073	0.021879	0.020570	5.081275	734.803	0.016693	0.017609	288.561	5059.14
1154	1.000000	0.938397	7.37635e+06	-57839.1	1055.82	-29740.1	0.000000	0.000000	6.939377	6.125619	NaN	0.000000	0.001677	0.001707	28.0827	1.886924	0.002010	938.585	20.2649	-169.847	6.004848	0.937135	0.029894	0.028632	6.125619	938.585	0.024999	0.031014	197.511	4869.31
1154	1.000000	0.946380	7.37635e+06	-57839.1	1055.82	-29740.1	0.000000	0.000000	6.947390	6.862177	NaN	0.000000	0.001688	0.001704	28.0814	1.854419	0.002072	894.95	20.8592	-168.114	6.822539	0.945069	0.037877	0.036566	6.862177	894.95	0.032126	0.045265	151.599	3843.17
1154	1.000000	0.954382	7.37635e+06	-57839.1	1055.82	-29740.1	0.000000	0.000000	6.955425	7.669324	NaN	0.000000	0.001677	0.001693	28.0812	1.978889	0.001940	1019.79	16.261	-165.377	7.609732	0.953108	0.045879	0.044605	7.669324	1019.79	0.040239	0.064646	118.635	3664.48
1154	1.000000	0.962423	7.37635e+06	-57839.1	1055.82	-29740.1	0.000000	0.000000	6.963511	8.761193	NaN	0.000000	0.001682	0.001741	28.0812	2.500314	0.001937	1290.82	20.0636	-169.056	8.511020	0.961119	0.053920	0.052616	8.761193	1290.82	0.048830	0.088830	98.6291	3956.94
1154	2.000000	0.967026	7.37635e+06	-57839.1	1055.82	-29740.1	0.000000	0.000000	6.968105	8.531656	NaN	0.000000	0.001705	0.001671	28.081	2.519405	0.001942	1297.16	12.9971	-166.137	8.610968	0.966662	0.058523	0.058159	8.531656	1297.16	0.053590	0.103832	82.1681	3677.92
1154	2.000000	0.968987	7.37635e+06	-57839.1	1055.82	-29740.1	0.000000	0.000000	6.970062	8.437778	NaN	0.000000	0.001614	0.001664	28.0812	2.754178	0.001938	1420.98	13.806	-166.589	8.418604	0.968646	0.060484	0.060143	8.437778	1420.98	0.056030	0.111959	75.3648	3879.99
1154	2.000000	0.970975	7.37635e+06	-57839.1	1055.82	-29740.1	0.000000	0.000000	6.972063	8.778400	NaN	0.000000	0.001612	0.001691	28.0813	2.926218	0.001954	1497.25	14.0683	-167.946	8.651739	0.970644	0.062471	0.062141	8.778400	1497.25	0.058074	0.118993	73.7724	3965.58
1154	2.000000	0.972948	7.37635e+06	-57839.1	1055.82	-29740.1	0.000000	0.000000	6.974044	8.954209	NaN	0.000000	0.001602	0.001733	28.0813	3.096299	0.002062	1501.29	14.413	-169.387	8.938244	0.972599	0.064445	0.064095	8.954209	1501.29	0.059971	0.125706	71.2314	3868.66
1154	2.000000	0.974917	7.37635e+06	-57839.1	1055.82	-29740.1	0.000000	0.000000	6.976025	9.251983	NaN	0.000000	0.001647	0.001728	28.0819	3.207561	0.002025	1583.68	16.4161	-169.537	9.158859	0.974625	0.066414	0.066122	9.251983	1583.68	0.062032	0.133197	69.461	3964.54
1154	2.000000	0.976906	7.37635e+06	-57839.1	1055.82	-29740.1	0.000000	0.000000	6.978030	9.638311	NaN	0.000000	0.001668	0.001695	28.0813	3.438973	0.001933	1779.09	13.5335	-169.437	9.583238	0.976599	0.068403	0.068096	9.638311	1779.09	0.064339	0.141827	67.9582	4316.11
1154	2.000000	0.978957	7.37635e+06	-57839.1	1055.82	-29740.1	0.000000	0.000000	6.980101	10.124	NaN	0.000000	0.001651	0.001719	28.0813	3.483688	0.001967	1770.92	12.3757	-166.9	10.168	0.978624	0.070454	0.070120	10.124	1770.92	0.066166	0.148844	68.0177	4193.79
1154	2.000000	0.980942	7.37635e+06	-57839.1	1055.82	-29740.1	0.000000	0.000000	6.982101	10.4923	NaN	0.000000	0.001638	0.001742	28.0812	3.674769	0.002008	1830.05	15.1565	-170.438	10.5159	0.980594	0.072438	0.072091	10.4923	1830.05	0.068138	0.156598	67.0017	4225.16
1154	2.000000	0.982925	7.37635e+06	-57839.1	1055.82	-29740.1	0.000000	0.000000	6.984108	11.085	NaN	0.000000	0.001639	0.001701	28.0816	3.797080	0.002056	1846.88	11.939	-165.757	11.0422	0.982644	0.074422	0.074141	11.085	1846.88	0.069920	0.163763	67.6893	4169.69
1154	2.000000	0.984942	7.37635e+06	-57839.1	1055.82	-29740.1	0.000000	0.000000	6.986140	11.4297	NaN	0.000000	0.001654	0.001708	28.0813	3.830648	0.001825	2099.22	12.2199	-170.86	11.6021	0.984655	0.076439	0.076152	11.4297	2099.22	0.072355	0.173801	65.7629	4600.51
1154	2.000000	0.986940	7.37635e+06	-57839.1	1055.82	-29740.1	0.000000	0.000000	6.988165	12.1108	NaN	0.000000	0.001656	0.001694	28.081	4.136039	0.001937	2135.12	13.7754	-169.413	12.2022	0.986575	0.078436	0.078072	12.1108	2135.12	0.074182	0.181515	66.7204	4578.67
1154	2.000000	0.988958	7.37635e+06	-57839.1	1055.82	-29740.1	0.000000	0.000000	6.990211	12.7678	NaN	0.000000	0.001631	0.001715	28.0808	4.291918	0.002066	2077.54	13.372	-167.734	12.892	0.988654	0.080455	0.080151	12.7678	2077.54	0.075846	0.188678	67.6701	4369.81
1154	2.000000	0.990915	7.37635e+06	-57839.1	1055.82	-29740.1	0.000000	0.000000	6.992207	13.7085	NaN	0.000000	0.001633	0.001653	28.081	4.526976	0.001953	2317.81	9.946097	-165.938	13.7346	0.990562	0.082412	0.082058	13.7085	2317.81	0.077976	0.198039	69.2211	4758.55
1154	2.000000	0.992854	7.37635e+06	-57839.1	1055.82	-29740.1	0.000000	0.000000	6.994177	14.4773	NaN	0.000000	0.001637	0.001716	28.0813	4.820784	0.001947	2475.88	12.7485	-169.097	14.2774	0.992595	0.084350	0.084092	14.4773	2475.88	0.079965	0.206969	69.9492	4972.22
1154	2.000000	0.994959	7.37635e+06	-57839.1	1055.82	-29740.1	0.000000	0.000000	6.996305	15.041	NaN	0.000000	0.001650	0.001727	28.0821	5.031512	0.001843	2729.62	9.477217	-166.817	15.151	0.994594	0.086456	0.086091	15.041	2729.62	0.082323	0.217798	69.0593	5343.77
1154	2.000000	0.996893	7.37635e+06	-57839.1	1055.82	-29740.1	0.000000	0.000000	6.998276	15.9379	NaN	0.000000	0.001619	0.001707	28.0824	5.368412	0.002113	2540.5	13.3089	-167.303	15.839	0.996572	0.088390	0.088069	15.9379	2540.5	0.083684	0.224166	71.0987	4902.4
1154	2.000000	0.998903	7.37635e+06	-57839.1	1055.82	-29740.1	0.000000	0.000000	7.000306	16.4142	NaN	0.000000	0.001643	0.001690	28.0825	5.725947	0.001956	2927.51	13.0203	-171.666	16.5092	0.998586	0.090400	0.090082	16.4142	2927.51	0.086195	0.236134	69.5122	5504.17
1154	2.000000	1.000888	7.37635e+06	-57839.1	1055.82	-29740.1	0.000000	0.000000	7.002331	17.4048	NaN	0.000000	0.001656	0.001692	28.0823	6.006862	0.002040	2944.56	14.9622	-171.246	17.329	1.000648	0.092385	0.092145	17.4048	2944.56	0.087952	0.244683	71.1323	5438.67
1154	2.000000	1.002910	7.37635e+06	-57839.1	1055.82	-29740.1	0.000000	0.000000	7.004389	18.2719	NaN	0.000000	0.001634	0.001657	28.0827	6.098710	0.001987	3069.62	11.6088	-167.906	18.5379	1.002583	0.094407	0.094080	18.2719	3069.62	0.089943	0.254542	71.7832	5558.76
1154	2.000000	1.004888	7.37635e+06	-57839.1	1055.82	-29740.1	0.000000	0.000000	7.006410	19.3128	NaN	0.000000	0.001671	0.001687	28.0824	6.382969	0.001875	3403.59	10.9927	-170.788	19.0963	1.004521	0.096384	0.096018	19.3128	3403.59	0.092129	0.265577	72.7201	6034.13
1154	2.000000	1.006880	7.37635e+06	-57839.1	1055.82	-29740.1	0.000000	0.000000	7.008439	20.2223	NaN	0.000000	0.001622	0.001683	28.0825	6.385912	0.001812	3523.62	9.778525	-169.895	20.2528	1.006606	0.098377	0.098103	20.2223	3523.62	0.094072	0.275572	73.3831	6132.59
1154	2.000000	1.008854	7.37635e+06	-57839.1	1055.82	-29740.1	0.000000	0.000000	7.010462	21.4093	NaN	0.000000	0.001645	0.001658	28.0823	6.802999	0.001896	3587.56	11.2222	-170.614	21.1632	1.008539	0.100350	0.100036	21.4093	3587.56	0.095875	0.284995	75.1215	6139.79
1154	2.000000	1.010887	7.37635e+06	-57839.1	1055.82	-29740.1	0.000000	0.000000	7.012522	22.0727	NaN	0.000000	0.001627	0.001695	28.0824	7.043311	0.001934	3642.01	10.4103	-169.337	22.0278	1.010586	0.102383	0.102083	22.0727	3642.01	0.097838	0.295428	74.7142	6121.93
1154	2.000000	1.012851	7.37635e+06	-57839.1	1055.82	-29740.1	0.000000	0.000000	7.014531	23.1465	NaN	0.000000	0.001645	0.001681	28.0824	7.284540	0.002060	3536.7	12.4888	-169.795	22.8319	1.012518	0.104348	0.104015	23.1465	3536.7	0.099439	0.304066	76.1232	5859.87
1154	2.000000	1.014864	7.37635e+06	-57839.1	1055.82	-29740.1	0.000000	0.000000	7.016581	24.043	NaN	0.000000	0.001645	0.001683	28.0824	7.738185	0.002073	3732.99	13.3503	-172.995	24.003	1.014580	0.106361	0.106077	24.043	3732.99	0.101530	0.315523	76.2007	6071.77
1154	2.000000	1.016892	7.37635e+06	-57839.1	1055.82	-29740.1	0.000000	0.000000	7.018664	25.3801	NaN	0.000000	0.001641	0.001724	28.0826	7.911528	0.002098	3771.19	12.6087	-170.917	25.6217	1.016560	0.108389	0.108056	25.3801	3771.19	0.103341	0.325606	77.9472	6038.16
1154	2.000000	1.018865	7.37635e+06	-57839.1	1055.82	-29740.1	0.000000	0.000000	7.020706	27.0599	NaN	0.000000	0.001613	0.001682	28.0825	7.920128	0.002000	3961	11.5317	-170.197	26.783	1.018539	0.110362	0.110036	27.0599	3961	0.105238	0.336325	80.4575	6240.21
1154	2.000000	1.020883	7.37635e+06	-57839.1	1055.82	-29740.1	0.000000	0.000000	7.022776	28.3341	NaN	0.000000	0.001648	0.001707	28.0825	8.092359	0.001931	4191.02	7.936526	-167.453	28.209	1.020548	0.112380	0.112045	28.3341	4191.02	0.107309	0.348217	81.3691	6488.85
1154	2.000000	1.022849	7.37635e+06	-57839.1	1055.82	-29740.1	0.000000	0.000000	7.024783	29.313	NaN	0.000000	0.001649	0.001695	28.0823	8.696135	0.002043	4256.76	12.6265	-171.6	29.0968	1.022626	0.114346	0.114123	29.313	4256.76	0.109181	0.359132	81.6217	6489.71
1154	2.000000	1.024891	7.37635e+06	-57839.1	1055.82	-29740.1	0.000000	0.000000	7.026908	31.3532	NaN	0.000000	0.001657	0.001689	28.0822	8.677046	0.001741	4983.6	7.576626	-170.032	31.6196	1.024618	0.116387	0.116115	31.3532	4983.6	0.111669	0.373884	83.8581	7446.43
1154	2.000000	1.026843	7.37635e+06	-57839.1	1055.82	-29740.1	0.000000	0.000000	7.028944	33.378	NaN	0.000000	0.001643	0.001703	28.0824	9.387302	0.001924	4879.71	12.4314	-173.696	33.471	1.026556	0.118340	0.118053	33.378	4879.71	0.113210	0.383163	87.1117	7202.37
1154	2.000000	1.028855	7.37635e+06	-57839.1	1055.82	-29740.1	0.000000	0.000000	7.031024	35.0335	NaN	0.000000	0.001622	0.001672	28.0821	9.884098	0.002092	4724.8	10.2376	-170.596	34.7211	1.028505	0.120352	0.120002	35.0335	4724.8	0.114791	0.392793	89.1908	6887.71
1154	2.000000	1.030802	7.37635e+06	-57839.1	1055.82	-29740.1	0.000000	0.000000	7.033031	36.483	NaN	0.000000	0.001623	0.001720	28.0812	10.0521	0.001946	5166.31	9.060653	-171.468	35.9186	1.030594	0.122299	0.122091	36.483	5166.31	0.117003	0.406459	89.7581	7403.64
1154	2.000000	1.032884	7.37635e+06	-57839.1	1055.82	-29740.1	0.000000	0.000000	7.035187	38.2926	NaN	0.000000	0.001588	0.001687	28.0813	10.2798	0.001887	5446.72	10.6312	-172.627	38.3397	1.032572	0.124381	0.124069	38.2926	5446.72	0.119108	0.419672	91.2442	7681.63
1154	2.000000	1.034850	7.37635e+06	-57839.1	1055.82	-29740.1	0.000000	0.000000	7.037251	40.6794	NaN	0.000000	0.001704	0.001698	28.0812	10.9499	0.001996	5485.66	11.6425	-173.828	40.6396	1.034526	0.126347	0.126023	40.6794	5485.66	0.120785	0.430339	94.5288	7640.06
1154	2.000000	1.036858	7.37635e+06	-57839.1	1055.82	-29740.1	0.000000	0.000000	7.039350	42.8816	NaN	0.000000	0.001683	0.001654	28.081	10.9665	0.001889	5806.42	11.2132	-173.512	43.1189	1.036581	0.128355	0.128077	42.8816	5806.42	0.122816	0.443428	96.7048	7966.54
1154	2.000000	1.038840	7.37635e+06	-57839.1	1055.82	-29740.1	0.000000	0.000000	7.041436	45.419	NaN	0.000000	0.001692	0.001664	28.0815	11.2259	0.001818	6174.34	11.4405	-175.686	44.9981	1.038522	0.130337	0.130018	45.419	6174.34	0.124820	0.456529	99.4875	8348.9
1154	2.000000	1.040876	7.37635e+06	-57839.1	1055.82	-29740.1	0.000000	0.000000	7.043556	47.4528	NaN	0.000000	0.001714	0.001693	28.0813	11.301	0.001856	6087.57	10.7106	-174.364	47.5358	1.040510	0.132373	0.132007	47.4528	6087.57	0.126526	0.467832	101.431	8131.53
1154	2.000000	1.042812	7.37635e+06	-57839.1	1055.82	-29740.1	0.000000	0.000000	7.045550	48.8629	NaN	0.000000	0.001649	0.001674	28.081	11.6657	0.001974	5910.97	10.0469	-173.068	48.0672	1.042546	0.134309	0.134043	48.8629	5910.97	0.128109	0.478432	102.131	7807.67
1154	2.000000	1.044823	7.37635e+06	-57839.1	1055.82	-29740.1	0.000000	0.000000	7.047629	50.5165	NaN	0.000000	0.001697	0.001688	28.081	12.4137	0.002000	6207.74	10.4112	-173.366	50.3921	1.044500	0.136320	0.135996	50.5165	6207.74	0.130217	0.492725	102.525	8079.87
1154	2.000000	1.046814	7.37635e+06	-57839.1	1055.82	-29740.1	0.000000	0.000000	7.049699	52.4176	NaN	0.000000	0.001695	0.001690	28.0812	12.7334	0.002016	6316.35	9.876670	-173.096	52.1955	1.046513	0.138311	0.138010	52.4176	6316.35	0.132087	0.505578	103.679	8116.06
1154	2.000000	1.048848	7.37635e+06	-57839.1	1055.82	-29740.1	0.000000	0.000000	7.051812	54.3605	NaN	0.000000	0.001738	0.001684	28.0812	13.162	0.002042	6445.46	12.026	-175.108	54.4503	1.048565	0.140345	0.140062	54.3605	6445.46	0.134020	0.519027	104.735	8173.96
1154	2.000000	1.050864	7.37635e+06	-57839.1	1055.82	-29740.1	0.000000	0.000000	7.053924	56.7069	NaN	0.000000	0.001719	0.001685	28.0812	13.1096	0.001942	6750.05	9.594891	-174.333	57.1442	1.050534	0.142360	0.142030	56.7069	6750.05	0.136060	0.533411	106.31	8444.02
1154	2.000000	1.052829	7.37635e+06	-57839.1	1055.82	-29740.1	0.000000	0.000000	7.056007	59.5579	NaN	0.000000	0.001692	0.001679	28.0812	13.2108	0.001944	6796.86	8.711016	-172.251	59.1329	1.052499	0.144325	0.143996	59.5579	6796.86	0.137753	0.545498	109.181	8407.85
1154	2.000000	1.054821	7.37635e+06	-57839.1	1055.82	-29740.1	0.000000	0.000000	7.058069	61.2533	NaN	0.000000	0.001707	0.001670	28.0813	13.7116	0.001928	7112.15	11.3719	-175.642	61.1556	1.054517	0.146318	0.146014	61.2533	7112.15	0.139859	0.560704	109.243	8677.75
1154	2.000000	1.056810	7.37635e+06	-57839.1	1055.82	-29740.1	0.000000	0.000000	7.060156	63.6485	NaN	0.000000	0.001725	0.001675	28.0811	13.9481	0.002072	6732.57	10.5909	-173.666	62.9871	1.056475	0.148307	0.147972	63.6485	6732.57	0.141216	0.570621	111.543	8142.92
1154	2.000000	1.058819	7.37635e+06	-57839.1	1055.82	-29740.1	0.000000	0.000000	7.062244	65.5705	NaN	0.000000	0.001717	0.001680	28.0811	14.0655	0.001935	7268.03	8.653438	-172.307	65.1152	1.058517	0.150316	0.150014	65.5705	7268.03	0.143549	0.587857	111.542	8660.72
1154	2.000000	1.060842	7.37635e+06	-57839.1	1055.82	-29740.1	0.000000	0.000000	7.064403	68.8695	NaN	0.000000	0.001700	0.001683	28.0811	14.7283	0.001888	7801.03	10.0869	-175.571	69.1066	1.060521	0.152338	0.152017	68.8695	7801.03	0.145717	0.604100	114.003	9170.03
1154	2.000000	1.062796	7.37635e+06	-57839.1	1055.82	-29740.1	0.000000	0.000000	7.066469	71.5783	NaN	0.000000	0.001593	0.001681	28.0816	14.8397	0.002014	7369.16	8.239795	-172.15	70.4548	1.062494	0.154293	0.153991	71.5783	7369.16	0.147008	0.613877	116.601	8593.12
1154	2.000000	1.064329	7.37635e+06	-57839.1	1055.82	-29740.1	0.000000	0.000000	7.068073	73.3166	NaN	0.000000	0.001649	0.001706	28.0827	14.9826	0.001968	7613.67	6.939266	7.886281	72.387	1.063967	0.155826	0.155463	73.3166	7613.67	0.148604	0.626066	117.107	8791.38