File: remote_trans/data/nanoindenter/0828-1/data/Data_2025-08-06,11h17m57s/2025-07-22_16-23-58_1_595.txt
2025-07-22, 16:23:58, 1
Index	Phase	Displacement	Time	Pos X	Pos Y	Pos Z	Rot A	Rot B	Piezo Z	Force A	Force B	Gripper	Voltage A	Voltage B	Temperature	Amplitude force	Amplitude pos	Stiffness	Phase shift	Phase excitation	Force A raw	Displacement raw	HMax	HMax raw	Real Force	Real Stiffness	Contact Depth	Area	Hardness	Reduced Mod.
[#]	[#]	[um]	[s]	[um]	[um]	[um]	[m°]	[m°]	[um]	[uN]	[uN]	[V]	[V]	[V]	[°C]	[uN]	[um]	[N/m]	[°]	[°]	[uN]	[um]	[um]	[um]	[uN]	[N/m]	[um]	[um^2]	[MPa]	[MPa]
595	1.000000	0.002335	7.37087e+06	-47339.1	1005.82	-29766.3	0.000000	0.000000	6.002785	0.023416	NaN	0.000000	0.001546	0.001709	28.082	0.120977	0.000975	124.056	36.1033	-165.665	-0.079849	0.001126	-1.099018	-1.100228	0.023416	124.056	-1.099160	-4.884147E+14	-4.794367E-17	NaN
595	1.000000	0.012408	7.37087e+06	-47339.1	1005.82	-29766.3	0.000000	0.000000	6.012854	-0.054366	NaN	0.000000	0.001568	0.001729	28.0821	0.038343	0.001221	31.4021	-40.774	21.2496	-0.015802	0.010958	-1.088945	-1.090395	-0.054366	31.4021	-1.087647	-3.421495E+14	1.588949E-16	NaN
595	1.000000	0.022311	7.37087e+06	-47339.1	1005.82	-29766.3	0.000000	0.000000	6.022758	-0.031995	NaN	0.000000	0.001562	0.001706	28.0824	0.054102	0.001741	31.0735	167.495	-170.32	-0.016358	0.020987	-1.079043	-1.080366	-0.031995	31.0735	-1.078271	-2.560304E+14	1.249664E-16	NaN
595	1.000000	0.032330	7.37087e+06	-47339.1	1005.82	-29766.3	0.000000	0.000000	6.032778	-0.024137	NaN	0.000000	0.001578	0.001713	28.0824	0.063304	0.001989	31.8207	150.351	15.9411	-0.073905	0.030983	-1.069023	-1.070371	-0.024137	31.8207	-1.068454	-1.889823E+14	1.277230E-16	NaN
595	1.000000	0.042298	7.37087e+06	-47339.1	1005.82	-29766.3	0.000000	0.000000	6.042746	-0.009491	NaN	0.000000	0.001541	0.001737	28.0824	0.044452	0.001856	23.9565	-33.3581	-166.672	-0.021402	0.040997	-1.059056	-1.060356	-0.009491	23.9565	-1.058759	-1.400039E+14	6.778917E-17	NaN
595	1.000000	0.052304	7.37087e+06	-47339.1	1005.82	-29766.3	0.000000	0.000000	6.052752	-0.009437	NaN	0.000000	0.001572	0.001779	28.0821	0.083370	0.001887	44.1838	21.3274	12.018	-0.077943	0.050942	-1.049049	-1.050412	-0.009437	44.1838	-1.048889	-1.031522E+14	9.148639E-17	NaN
595	1.000000	0.062283	7.37087e+06	-47339.1	1005.82	-29766.3	0.000000	0.000000	6.062731	-0.014676	NaN	0.000000	0.001558	0.001724	28.0822	0.059488	0.002032	29.2822	69.8905	-165.52	-0.043672	0.060979	-1.039070	-1.040374	-0.014676	29.2822	-1.038694	-7.523318E+13	1.950712E-16	NaN
595	1.000000	0.072301	7.37087e+06	-47339.1	1005.82	-29766.3	0.000000	0.000000	6.072748	-0.047014	NaN	0.000000	0.001558	0.001738	28.0821	0.073546	0.002010	36.5881	85.4628	13.6067	-0.080985	0.070955	-1.029052	-1.030398	-0.047014	36.5881	-1.028088	-5.417104E+13	8.678850E-16	NaN
595	1.000000	0.082325	7.37087e+06	-47339.1	1005.82	-29766.3	0.000000	0.000000	6.082772	-0.033718	NaN	0.000000	0.001538	0.001704	28.0811	0.055554	0.001962	28.3115	-107.831	-165.41	-0.048388	0.081028	-1.019029	-1.020325	-0.033718	28.3115	-1.018135	-3.979808E+13	8.472207E-16	NaN
595	1.000000	0.092340	7.37087e+06	-47339.1	1005.82	-29766.3	0.000000	0.000000	6.092787	-0.023697	NaN	0.000000	0.001613	0.001740	28.0809	0.068378	0.002040	33.5259	127.239	10.4951	-0.040290	0.090968	-1.009014	-1.010385	-0.023697	33.5259	-1.008484	-2.951023E+13	8.030168E-16	NaN
595	1.000000	0.102319	7.37087e+06	-47339.1	1005.82	-29766.3	0.000000	0.000000	6.102766	-0.039387	NaN	0.000000	0.001622	0.001733	28.0812	0.037842	0.002069	18.2908	134.807	-166.908	-0.047504	0.101006	-0.999034	-1.000348	-0.039387	18.2908	-0.997419	-2.094228E+13	1.880727E-15	NaN
595	1.000000	0.112348	7.37087e+06	-47339.1	1005.82	-29766.3	0.000000	0.000000	6.112794	-0.064467	NaN	0.000000	0.001589	0.001720	28.0814	0.082792	0.001979	41.8448	-8.339163	13.0799	-0.103476	0.110967	-0.989005	-0.990386	-0.064467	41.8448	-0.987850	-1.556511E+13	4.141772E-15	NaN
595	1.000000	0.122339	7.37087e+06	-47339.1	1005.82	-29766.3	0.000000	0.000000	6.122788	-0.005236	NaN	0.000000	0.001582	0.001758	28.0812	0.067999	0.001975	34.4346	130.833	-162.584	-0.021839	0.121056	-0.979014	-0.980298	-0.005236	34.4346	-0.978900	-1.179211E+13	4.440349E-16	NaN
595	1.000000	0.132299	7.37087e+06	-47339.1	1005.82	-29766.3	0.000000	0.000000	6.132749	0.035649	NaN	0.000000	0.001587	0.001763	28.081	0.070836	0.002078	34.0923	-177.068	12.9909	0.063250	0.130977	-0.969055	-0.970377	0.035649	34.0923	-0.969839	-8.902157E+12	-4.004533E-15	NaN
595	1.000000	0.142367	7.37087e+06	-47339.1	1005.82	-29766.3	0.000000	0.000000	6.142815	-0.005601	NaN	0.000000	0.001633	0.001708	28.0817	0.087493	0.002003	43.6823	112.553	-161.724	0.008839	0.141029	-0.958987	-0.960325	-0.005601	43.6823	-0.958890	-6.337379E+12	8.838491E-16	NaN
595	1.000000	0.152335	7.37087e+06	-47339.1	1005.82	-29766.3	0.000000	0.000000	6.152782	-0.033483	NaN	0.000000	0.001624	0.001716	28.0814	0.017957	0.001913	9.385886	93.7414	13.588	-0.069980	0.151028	-0.949018	-0.950325	-0.033483	9.385886	-0.946343	-4.292381E+12	7.800620E-15	NaN
595	1.000000	0.162363	7.37087e+06	-47339.1	1005.82	-29766.3	0.000000	0.000000	6.162809	-0.072739	NaN	0.000000	0.001630	0.001714	28.0816	0.094122	0.001916	49.1336	-114.632	-164.046	-0.152249	0.161074	-0.938990	-0.940280	-0.072739	49.1336	-0.937880	-3.300154E+12	2.204094E-14	NaN
595	1.000000	0.172332	7.37087e+06	-47339.1	1005.82	-29766.3	0.000000	0.000000	6.172779	-0.039774	NaN	0.000000	0.001533	0.001732	28.0811	0.078044	0.001986	39.3038	13.1384	12.7351	0.012836	0.170999	-0.929021	-0.930355	-0.039774	39.3038	-0.928262	-2.447591E+12	1.625044E-14	NaN
595	1.000000	0.182373	7.37087e+06	-47339.1	1005.82	-29766.3	0.000000	0.000000	6.182824	0.052681	NaN	0.000000	0.001555	0.001732	28.0815	0.022556	0.002060	10.9507	172.485	-165.991	0.055810	0.181036	-0.918980	-0.920317	0.052681	10.9507	-0.922588	-2.051861E+12	-2.567459E-14	NaN
595	1.000000	0.192321	7.37087e+06	-47339.1	1005.82	-29766.3	0.000000	0.000000	6.192769	-0.029794	NaN	0.000000	0.001553	0.001728	28.081	0.150980	0.001878	80.4046	-118.947	14.8488	-0.082291	0.191055	-0.909032	-0.910299	-0.029794	80.4046	-0.908754	-1.334546E+12	2.232533E-14	NaN
595	1.000000	0.202369	7.37087e+06	-47339.1	1005.82	-29766.3	0.000000	0.000000	6.202819	0.035944	NaN	0.000000	0.001533	0.001713	28.0812	0.263917	0.001970	133.949	-171.692	-168.053	0.014368	0.201100	-0.898984	-0.900254	0.035944	133.949	-0.899186	-9.909737E+11	-3.627093E-14	NaN
595	1.000000	0.212373	7.37087e+06	-47339.1	1005.82	-29766.3	0.000000	0.000000	6.212821	-0.020327	NaN	0.000000	0.001575	0.001706	28.0825	0.047257	0.002012	23.489	-173.485	14.5632	-0.025432	0.211003	-0.888980	-0.890351	-0.020327	23.489	-0.888331	-7.068943E+11	2.875502E-14	NaN
595	1.000000	0.222362	7.37087e+06	-47339.1	1005.82	-29766.3	0.000000	0.000000	6.222813	0.052311	NaN	0.000000	0.001567	0.001711	28.0824	0.100029	0.002034	49.1823	-77.5034	-163.629	0.000656	0.221141	-0.878991	-0.880213	0.052311	49.1823	-0.879789	-5.418200E+11	-9.654685E-14	NaN
595	1.000000	0.232394	7.37087e+06	-47339.1	1005.82	-29766.3	0.000000	0.000000	6.232844	0.025000	NaN	0.000000	0.001556	0.001686	28.0823	0.043407	0.001998	21.7277	58.6509	13.5971	0.033542	0.231055	-0.868959	-0.870299	0.025000	21.7277	-0.869822	-3.972231E+11	-6.293739E-14	NaN
595	1.000000	0.242364	7.37087e+06	-47339.1	1005.82	-29766.3	0.000000	0.000000	6.242812	-0.018166	NaN	0.000000	0.001576	0.001707	28.0823	0.054386	0.001936	28.0938	94.1085	-166.417	0.033555	0.241082	-0.858989	-0.860272	-0.018166	28.0938	-0.858504	-2.791736E+11	6.507115E-14	NaN
595	1.000000	0.252349	7.37087e+06	-47339.1	1005.82	-29766.3	0.000000	0.000000	6.252797	-0.020271	NaN	0.000000	0.001615	0.001719	28.0827	0.027833	0.002048	13.5871	148.163	12.3291	-0.003938	0.250985	-0.849004	-0.850368	-0.020271	13.5871	-0.847885	-2.004942E+11	1.011052E-13	NaN
595	1.000000	0.262365	7.37087e+06	-47339.1	1005.82	-29766.3	0.000000	0.000000	6.262811	-0.056250	NaN	0.000000	0.001602	0.001694	28.0823	0.072987	0.002021	36.1137	88.1789	-168.134	-0.058497	0.261071	-0.838988	-0.840282	-0.056250	36.1137	-0.837820	-1.464729E+11	3.840304E-13	NaN
595	1.000000	0.272363	7.37087e+06	-47339.1	1005.82	-29766.3	0.000000	0.000000	6.272812	0.011183	NaN	0.000000	0.001537	0.001699	28.0824	0.074350	0.001988	37.4061	44.6299	15.1838	-0.045660	0.271006	-0.828991	-0.830348	0.011183	37.4061	-0.829215	-1.119803E+11	-9.986258E-14	NaN
595	1.000000	0.282385	7.37087e+06	-47339.1	1005.82	-29766.3	0.000000	0.000000	6.282834	0.003547	NaN	0.000000	0.001543	0.001715	28.0825	0.095401	0.002057	46.3713	79.2865	-167.254	0.028526	0.281117	-0.818968	-0.820237	0.003547	46.3713	-0.819026	-8.147036E+10	-4.353981E-14	NaN
595	1.000000	0.292412	7.37087e+06	-47339.1	1005.82	-29766.3	0.000000	0.000000	6.292862	0.038440	NaN	0.000000	0.001560	0.001731	28.0827	0.055106	0.002070	26.616	-105.524	15.6523	0.064825	0.291039	-0.808941	-0.810314	0.038440	26.616	-0.810025	-6.150405E+10	-6.249926E-13	NaN
595	1.000000	0.302398	7.37087e+06	-47339.1	1005.82	-29766.3	0.000000	0.000000	6.302845	-0.034713	NaN	0.000000	0.001593	0.001731	28.0825	0.079684	0.001943	41.0207	95.7186	-168.452	-0.111074	0.301098	-0.798955	-0.800255	-0.034713	41.0207	-0.798321	-4.266442E+10	8.136243E-13	NaN
595	1.000000	0.312381	7.37087e+06	-47339.1	1005.82	-29766.3	0.000000	0.000000	6.312827	-0.077585	NaN	0.000000	0.001567	0.001751	28.0826	0.073487	0.001953	37.6246	124.095	8.917065	-0.051859	0.311051	-0.788972	-0.790303	-0.077585	37.6246	-0.787426	-3.034703E+10	2.556596E-12	NaN
595	1.000000	0.322407	7.37087e+06	-47339.1	1005.82	-29766.3	0.000000	0.000000	6.322854	-0.029961	NaN	0.000000	0.001594	0.001768	28.0827	0.054657	0.002008	27.225	-177.842	-165.529	0.032586	0.321154	-0.778947	-0.780200	-0.029961	27.225	-0.778121	-2.268293E+10	1.320844E-12	NaN
595	1.000000	0.332397	7.37087e+06	-47339.1	1005.82	-29766.3	0.000000	0.000000	6.332845	-0.007467	NaN	0.000000	0.001560	0.001754	28.0827	0.029819	0.002013	14.8131	143.255	12.2413	-0.005801	0.331034	-0.768957	-0.770320	-0.007467	14.8131	-0.768579	-1.682599E+10	4.437550E-13	NaN
595	1.000000	0.342428	7.37087e+06	-47339.1	1005.82	-29766.3	0.000000	0.000000	6.342877	-0.000341	NaN	0.000000	0.001541	0.001758	28.0826	0.032045	0.001981	16.1728	-35.1272	-164.329	0.006287	0.341114	-0.758925	-0.760239	-0.000341	16.1728	-0.758909	-1.242974E+10	2.740755E-14	NaN
595	1.000000	0.352413	7.37087e+06	-47339.1	1005.82	-29766.3	0.000000	0.000000	6.352859	-0.062407	NaN	0.000000	0.001537	0.001716	28.0815	0.052592	0.001883	27.9367	-1.137200	14.1759	-0.041611	0.351095	-0.748940	-0.750258	-0.062407	27.9367	-0.747265	-8.629422E+9	7.231851E-12	NaN
595	1.000000	0.362440	7.37087e+06	-47339.1	1005.82	-29766.3	0.000000	0.000000	6.362889	0.015324	NaN	0.000000	0.001527	0.001737	28.0819	0.064928	0.001949	33.3171	-64.393	-166.856	-0.060303	0.361109	-0.738914	-0.740244	0.015324	33.3171	-0.739259	-6.713678E+9	-2.282486E-12	NaN
595	1.000000	0.372448	7.37087e+06	-47339.1	1005.82	-29766.3	0.000000	0.000000	6.372896	-0.019252	NaN	0.000000	0.001571	0.001725	28.0816	0.054358	0.001995	27.2503	-65.7858	15.5312	-0.031634	0.371012	-0.728905	-0.730341	-0.019252	27.2503	-0.728375	-4.771591E+9	4.034763E-12	NaN
595	1.000000	0.382436	7.37087e+06	-47339.1	1005.82	-29766.3	0.000000	0.000000	6.382883	-0.035950	NaN	0.000000	0.001578	0.001723	28.0814	0.051626	0.001955	26.4023	0.535387	-166.942	-0.065200	0.381092	-0.718918	-0.720261	-0.035950	26.4023	-0.717896	-3.433859E+9	1.046927E-11	NaN
595	1.000000	0.392427	7.37087e+06	-47339.1	1005.82	-29766.3	0.000000	0.000000	6.392874	-0.048086	NaN	0.000000	0.001606	0.001682	28.0817	0.090477	0.002054	44.0495	-174.543	17.7626	0.038348	0.391028	-0.708926	-0.710326	-0.048086	44.0495	-0.708107	-2.524755E+9	1.904570E-11	NaN
595	1.000000	0.402447	7.37087e+06	-47339.1	1005.82	-29766.3	0.000000	0.000000	6.402895	-0.009040	NaN	0.000000	0.001605	0.001717	28.0814	0.075298	0.001994	37.7649	96.1561	-164.794	-0.070717	0.401108	-0.698907	-0.700245	-0.009040	37.7649	-0.698727	-1.879950E+9	4.808798E-12	NaN
595	1.000000	0.412479	7.37087e+06	-47339.1	1005.82	-29766.3	0.000000	0.000000	6.412927	-0.002909	NaN	0.000000	0.001606	0.001725	28.0816	0.045346	0.002004	22.6276	131.86	15.177	-0.014834	0.411098	-0.688875	-0.690256	-0.002909	22.6276	-0.688778	-1.374743E+9	2.115703E-12	NaN
595	1.000000	0.422466	7.37087e+06	-47339.1	1005.82	-29766.3	0.000000	0.000000	6.422914	0.002565	NaN	0.000000	0.001581	0.001691	28.0814	0.074624	0.001942	38.4282	83.4393	-163.166	0.015588	0.421126	-0.678888	-0.680227	0.002565	38.4282	-0.678938	-1.008502E+9	-2.543355E-12	NaN
595	1.000000	0.432467	7.37087e+06	-47339.1	1005.82	-29766.3	0.000000	0.000000	6.432914	-0.039953	NaN	0.000000	0.001605	0.001677	28.0819	0.121848	0.001988	61.2833	-58.8289	14.679	-0.050165	0.431088	-0.668887	-0.670266	-0.039953	61.2833	-0.668398	-7.235339E+8	5.521879E-11	NaN
595	1.000000	0.442444	7.37087e+06	-47339.1	1005.82	-29766.3	0.000000	0.000000	6.442893	0.031879	NaN	0.000000	0.001584	0.001672	28.0814	0.019816	0.002112	9.383278	-66.2171	-162.577	0.024645	0.441170	-0.658910	-0.660183	0.031879	9.383278	-0.661458	-5.813512E+8	-5.483602E-11	NaN
595	1.000000	0.452481	7.37087e+06	-47339.1	1005.82	-29766.3	0.000000	0.000000	6.452926	-0.086157	NaN	0.000000	0.001627	0.001678	28.0813	0.095166	0.002104	45.2365	-174.65	13.4655	-0.121080	0.451120	-0.648872	-0.650234	-0.086157	45.2365	-0.647444	-3.735822E+8	2.306227E-10	NaN
595	1.000000	0.462475	7.37087e+06	-47339.1	1005.82	-29766.3	0.000000	0.000000	6.462924	0.007937	NaN	0.000000	0.001529	0.001704	28.081	0.065686	0.001936	33.9298	111.235	-168.858	-0.118824	0.461174	-0.638878	-0.640179	0.007937	33.9298	-0.639053	-2.866166E+8	-2.769276E-11	NaN
595	1.000000	0.472480	7.37087e+06	-47339.1	1005.82	-29766.3	0.000000	0.000000	6.472926	-0.073450	NaN	0.000000	0.001534	0.001725	28.0812	0.085761	0.002038	42.0788	-160.585	15.6708	-0.087762	0.471139	-0.628873	-0.630214	-0.073450	42.0788	-0.627564	-1.993285E+8	3.684878E-10	NaN
595	1.000000	0.482472	7.37087e+06	-47339.1	1005.82	-29766.3	0.000000	0.000000	6.482921	0.017295	NaN	0.000000	0.001491	0.001697	28.0814	0.028968	0.001949	14.8613	-8.886897	-163.799	-0.082538	0.481208	-0.618882	-0.620146	0.017295	14.8613	-0.619755	-1.556902E+8	-1.110862E-10	NaN
595	1.000000	0.492509	7.37087e+06	-47339.1	1005.82	-29766.3	0.000000	0.000000	6.492955	-0.062538	NaN	0.000000	0.001528	0.001682	28.0825	0.100174	0.002041	49.0897	-84.2398	10.7709	-0.164191	0.491091	-0.608845	-0.610263	-0.062538	49.0897	-0.607889	-1.069228E+8	5.848894E-10	NaN
595	1.000000	0.502490	7.37087e+06	-47339.1	1005.82	-29766.3	0.000000	0.000000	6.502935	-0.079559	NaN	0.000000	0.001576	0.001676	28.0826	0.055927	0.002022	27.6545	23.345	-169.075	-0.102038	0.501186	-0.598864	-0.600167	-0.079559	27.6545	-0.596706	-7.500466E+7	1.060720E-9	NaN
595	1.000000	0.512473	7.37087e+06	-47339.1	1005.82	-29766.3	0.000000	0.000000	6.512918	-0.090895	NaN	0.000000	0.001542	0.001700	28.0826	0.080614	0.002030	39.7123	-135.802	16.0255	-0.065408	0.511141	-0.588880	-0.590213	-0.090895	39.7123	-0.587164	-5.540595E+7	1.640526E-9	NaN
595	1.000000	0.522530	7.37087e+06	-47339.1	1005.82	-29766.3	0.000000	0.000000	6.522980	0.048727	NaN	0.000000	0.001536	0.001725	28.0824	0.048080	0.002040	23.5728	168.164	-164.251	0.009033	0.521175	-0.578824	-0.580178	0.048727	23.5728	-0.580374	-4.465702E+7	-1.091146E-9	NaN
595	1.000000	0.532514	7.37087e+06	-47339.1	1005.82	-29766.3	0.000000	0.000000	6.532958	-0.104263	NaN	0.000000	0.001554	0.001730	28.0827	0.076278	0.002001	38.1143	-25.4071	15.3185	-0.094044	0.531138	-0.568839	-0.570216	-0.104263	38.1143	-0.566788	-2.898938E+7	3.596601E-9	NaN
595	1.000000	0.542500	7.37087e+06	-47339.1	1005.82	-29766.3	0.000000	0.000000	6.542948	0.002760	NaN	0.000000	0.001559	0.001694	28.0827	0.064786	0.002054	31.5489	-154.77	-164.746	-0.008583	0.541159	-0.558854	-0.560194	0.002760	31.5489	-0.558919	-2.256458E+7	-1.223296E-10	NaN
595	1.000000	0.552507	7.37087e+06	-47339.1	1005.82	-29766.3	0.000000	0.000000	6.552951	-0.102087	NaN	0.000000	0.001530	0.001683	28.0824	0.034998	0.002052	17.0531	-135.838	12.3348	-0.052976	0.551143	-0.548847	-0.550210	-0.102087	17.0531	-0.544357	-1.418293E+7	7.197849E-9	NaN
595	1.000000	0.562527	7.37087e+06	-47339.1	1005.82	-29766.3	0.000000	0.000000	6.562973	-0.042188	NaN	0.000000	0.001541	0.001692	28.0824	0.019593	0.002076	9.437939	83.9158	-162.041	-0.021197	0.561187	-0.538827	-0.540166	-0.042188	9.437939	-0.535474	-1.068006E+7	3.950133E-9	NaN
595	1.000000	0.572505	7.37087e+06	-47339.1	1005.82	-29766.3	0.000000	0.000000	6.572953	-0.008855	NaN	0.000000	0.001517	0.001735	28.0826	0.075439	0.001917	39.3534	104.498	9.662046	0.036612	0.571196	-0.528848	-0.530157	-0.008855	39.3534	-0.528679	-8.59474e+06	1.030336E-9	NaN
595	1.000000	0.582516	7.37087e+06	-47339.1	1005.82	-29766.3	0.000000	0.000000	6.582962	-0.056511	NaN	0.000000	0.001552	0.001709	28.0826	0.057254	0.001940	29.5088	114.223	-167.69	-0.064782	0.581181	-0.518837	-0.520172	-0.056511	29.5088	-0.517401	-5.99027e+06	9.433834E-9	NaN
595	1.000000	0.592525	7.37087e+06	-47339.1	1005.82	-29766.3	0.000000	0.000000	6.592973	-0.027473	NaN	0.000000	0.001513	0.001688	28.0825	0.083680	0.001982	42.2227	127.826	14.966	-0.059995	0.591187	-0.508828	-0.510166	-0.027473	42.2227	-0.508340	-4.48013e+06	6.132267E-9	NaN
595	1.000000	0.602528	7.37087e+06	-47339.1	1005.82	-29766.3	0.000000	0.000000	6.602974	-0.052650	NaN	0.000000	0.001568	0.001728	28.0828	0.049131	0.002047	23.9992	-106.456	-168.465	0.039666	0.601211	-0.498825	-0.500142	-0.052650	23.9992	-0.497180	-3.1309e+06	1.681633E-8	NaN
595	1.000000	0.612558	7.37087e+06	-47339.1	1005.82	-29766.3	0.000000	0.000000	6.613009	0.060315	NaN	0.000000	0.001569	0.001729	28.0826	0.106884	0.001913	55.8597	-162.778	14.8951	0.006072	0.611108	-0.488796	-0.490245	0.060315	55.8597	-0.489606	-2.45404e+06	-2.457777E-8	NaN
595	1.000000	0.622569	7.37087e+06	-47339.1	1005.82	-29766.3	0.000000	0.000000	6.623014	-0.082310	NaN	0.000000	0.001563	0.001736	28.0815	0.050931	0.001973	25.8156	-36.5614	-168.78	-0.014583	0.621243	-0.478785	-0.480111	-0.082310	25.8156	-0.476393	-1.60333e+06	5.133699E-8	NaN
595	1.000000	0.632536	7.37087e+06	-47339.1	1005.82	-29766.3	0.000000	0.000000	6.632982	-0.048998	NaN	0.000000	0.001541	0.001772	28.081	0.043167	0.001954	22.0881	8.971372	12.5831	-0.003458	0.631166	-0.468817	-0.470187	-0.048998	22.0881	-0.467154	-1.18981e+06	4.118163E-8	NaN
595	1.000000	0.642575	7.37087e+06	-47339.1	1005.82	-29766.3	0.000000	0.000000	6.643020	-0.079084	NaN	0.000000	0.001551	0.001705	28.0813	0.102022	0.002079	49.0754	162.725	-164.261	-0.064613	0.641254	-0.458779	-0.460099	-0.079084	49.0754	-0.457570	-872691	9.062128E-8	NaN
595	1.000000	0.652538	7.37087e+06	-47339.1	1005.82	-29766.3	0.000000	0.000000	6.652987	0.019818	NaN	0.000000	0.001536	0.001740	28.081	0.044522	0.002044	21.7797	56.2965	17.2714	0.050688	0.651148	-0.448815	-0.450205	0.019818	21.7797	-0.449498	-671849	-2.949786E-8	NaN
595	1.000000	0.662548	7.37087e+06	-47339.1	1005.82	-29766.3	0.000000	0.000000	6.662995	-0.041399	NaN	0.000000	0.001569	0.001751	28.0814	0.063265	0.002036	31.0673	7.951293	-165.78	0.000594	0.661275	-0.438805	-0.440078	-0.041399	31.0673	-0.437806	-459611	9.007296E-8	NaN
595	1.000000	0.672560	7.37087e+06	-47339.1	1005.82	-29766.3	0.000000	0.000000	6.673007	-0.035280	NaN	0.000000	0.001575	0.001712	28.0811	0.014155	0.001912	7.402136	-147.942	15.5442	-0.055658	0.671224	-0.428794	-0.430129	-0.035280	7.402136	-0.425219	-305059	1.156497E-7	NaN
595	1.000000	0.682576	7.37087e+06	-47339.1	1005.82	-29766.3	0.000000	0.000000	6.683023	-0.041950	NaN	0.000000	0.001570	0.001697	28.0814	0.023659	0.001984	11.9268	62.9902	-167.581	0.081573	0.681245	-0.418778	-0.420108	-0.041950	11.9268	-0.416140	-226797	1.849678E-7	NaN
595	1.000000	0.692558	7.37087e+06	-47339.1	1005.82	-29766.3	0.000000	0.000000	6.693005	-0.037420	NaN	0.000000	0.001609	0.001746	28.0812	0.138107	0.002071	66.693	102.003	14.7226	-0.029373	0.691229	-0.408796	-0.410124	-0.037420	66.693	-0.408375	-175909	2.127256E-7	NaN
595	1.000000	0.702592	7.37087e+06	-47339.1	1005.82	-29766.3	0.000000	0.000000	6.703038	-0.072266	NaN	0.000000	0.001582	0.001717	28.0813	0.100999	0.001963	51.4392	119.264	-168.036	-0.052116	0.701243	-0.398761	-0.400110	-0.072266	51.4392	-0.397708	-123963	5.829616E-7	NaN
595	1.000000	0.712571	7.37087e+06	-47339.1	1005.82	-29766.3	0.000000	0.000000	6.713017	-0.048717	NaN	0.000000	0.001612	0.001724	28.0811	0.062706	0.002158	29.0517	142.794	14.9946	-0.002757	0.711206	-0.388783	-0.390148	-0.048717	29.0517	-0.387525	-88663.9	5.494575E-7	NaN
595	1.000000	0.722598	7.37087e+06	-47339.1	1005.82	-29766.3	0.000000	0.000000	6.723046	-0.022518	NaN	0.000000	0.001601	0.001753	28.0814	0.024907	0.002013	12.3703	-63.5216	-165.973	0.057878	0.721291	-0.378755	-0.380063	-0.022518	12.3703	-0.377390	-63447.2	3.549164E-7	NaN
595	1.000000	0.732558	7.37087e+06	-47339.1	1005.82	-29766.3	0.000000	0.000000	6.733005	-0.022310	NaN	0.000000	0.001600	0.001736	28.0812	0.056032	0.002052	27.3031	163.049	14.9515	-0.046738	0.731140	-0.368796	-0.370214	-0.022310	27.3031	-0.368183	-46768	4.770366E-7	NaN
595	1.000000	0.742580	7.37087e+06	-47339.1	1005.82	-29766.3	0.000000	0.000000	6.743026	-0.054053	NaN	0.000000	0.001589	0.001783	28.0811	0.026662	0.002014	13.2358	-13.6385	-165.348	-0.082550	0.741272	-0.358773	-0.360081	-0.054053	13.2358	-0.355710	-30887.7	1.749984E-6	NaN
595	1.000000	0.752584	7.37087e+06	-47339.1	1005.82	-29766.3	0.000000	0.000000	6.753030	-0.048530	NaN	0.000000	0.001593	0.001776	28.0809	0.123267	0.001964	62.7599	-108.55	14.6756	-0.094815	0.751272	-0.348770	-0.350082	-0.048530	62.7599	-0.348190	-24028.1	2.019714E-6	NaN
595	1.000000	0.762575	7.37087e+06	-47339.1	1005.82	-29766.3	0.000000	0.000000	6.763020	-0.097732	NaN	0.000000	0.001593	0.001744	28.0826	0.057547	0.001987	28.9638	-0.860731	-162.838	-0.125151	0.761308	-0.338778	-0.340046	-0.097732	28.9638	-0.336247	-16099.3	6.070594E-6	NaN
595	1.000000	0.772605	7.37087e+06	-47339.1	1005.82	-29766.3	0.000000	0.000000	6.773054	0.014411	NaN	0.000000	0.001600	0.001736	28.0822	0.118401	0.001915	61.8323	-176.826	15.0862	0.052048	0.771183	-0.328748	-0.330171	0.014411	61.8323	-0.328923	-12579.9	-1.145529E-6	NaN
595	1.000000	0.782628	7.37087e+06	-47339.1	1005.82	-29766.3	0.000000	0.000000	6.783076	-0.020034	NaN	0.000000	0.001577	0.001723	28.0823	0.086409	0.001928	44.8213	-132.717	-164.129	-0.061499	0.781310	-0.318725	-0.320043	-0.020034	44.8213	-0.318390	-8809.17	2.274237E-6	NaN
595	1.000000	0.792587	7.37087e+06	-47339.1	1005.82	-29766.3	0.000000	0.000000	6.793035	-0.003483	NaN	0.000000	0.001578	0.001782	28.082	0.051271	0.002117	24.2241	-138.107	13.4846	-0.025033	0.791247	-0.308767	-0.310106	-0.003483	24.2241	-0.308659	-6327.03	5.505334E-7	NaN
595	1.000000	0.802601	7.37087e+06	-47339.1	1005.82	-29766.3	0.000000	0.000000	6.803047	-0.044329	NaN	0.000000	0.001613	0.001768	28.0822	0.067082	0.001869	35.8828	-157.519	-167.941	-0.071257	0.801332	-0.298753	-0.300021	-0.044329	35.8828	-0.297826	-4367.73	1.014929E-5	NaN
595	1.000000	0.812584	7.37087e+06	-47339.1	1005.82	-29766.3	0.000000	0.000000	6.813029	-0.087441	NaN	0.000000	0.001607	0.001778	28.0819	0.055739	0.001977	28.1946	98.2496	14.7033	-0.046094	0.811255	-0.288769	-0.290098	-0.087441	28.1946	-0.286443	-2950.85	2.963254E-5	NaN
595	1.000000	0.822645	7.37087e+06	-47339.1	1005.82	-29766.3	0.000000	0.000000	6.823090	-0.084747	NaN	0.000000	0.001620	0.001814	28.0822	0.087999	0.002007	43.8547	-165.507	-170.004	-0.155838	0.821297	-0.278708	-0.280057	-0.084747	43.8547	-0.277259	-2145.75	3.949501E-5	NaN
595	1.000000	0.832613	7.37087e+06	-47339.1	1005.82	-29766.3	0.000000	0.000000	6.833061	-0.018676	NaN	0.000000	0.001579	0.001770	28.0822	0.058465	0.002019	28.9559	163.901	13.4016	-0.069629	0.831303	-0.268740	-0.270050	-0.018676	28.9559	-0.268257	-1566.84	1.191980E-5	NaN
595	1.000000	0.842664	7.37087e+06	-47339.1	1005.82	-29766.3	0.000000	0.000000	6.843110	-0.078217	NaN	0.000000	0.001582	0.001733	28.0823	0.019274	0.002012	9.579226	13.6236	-164.147	-0.086325	0.841340	-0.258689	-0.260014	-0.078217	9.579226	-0.252565	-900.722	8.683811E-5	NaN
595	1.000000	0.852657	7.37087e+06	-47339.1	1005.82	-29766.3	0.000000	0.000000	6.853103	-0.053635	NaN	0.000000	0.001555	0.001709	28.082	0.109204	0.001930	56.5693	70.7218	14.7083	0.025624	0.851245	-0.248696	-0.250108	-0.053635	56.5693	-0.247985	-765.207	7.009167E-5	NaN
595	1.000000	0.862613	7.37087e+06	-47339.1	1005.82	-29766.3	0.000000	0.000000	6.863061	-0.024753	NaN	0.000000	0.001572	0.001682	28.0824	0.027889	0.001924	14.4928	-52.65	-164.975	-0.065602	0.861311	-0.238740	-0.240042	-0.024753	14.4928	-0.237459	-524.58	4.718591E-5	NaN
595	1.000000	0.872650	7.37087e+06	-47339.1	1005.82	-29766.3	0.000000	0.000000	6.873097	-0.046762	NaN	0.000000	0.001608	0.001712	28.0821	0.099695	0.002090	47.6905	-18.1886	16.5975	-0.051736	0.871262	-0.228703	-0.230092	-0.046762	47.6905	-0.227968	-371.871	0.000126	NaN
595	1.000000	0.882674	7.37087e+06	-47339.1	1005.82	-29766.3	0.000000	0.000000	6.883122	-0.029204	NaN	0.000000	0.001577	0.001705	28.082	0.087911	0.001921	45.7582	-158.018	-164.319	-0.049421	0.881339	-0.218679	-0.220014	-0.029204	45.7582	-0.218200	-259.947	0.000112	NaN
595	1.000000	0.892654	7.37087e+06	-47339.1	1005.82	-29766.3	0.000000	0.000000	6.893098	-0.115828	NaN	0.000000	0.001590	0.001748	28.0816	0.032732	0.001828	17.9096	-144.989	12.0459	-0.120073	0.891316	-0.208699	-0.210037	-0.115828	17.9096	-0.203849	-152.323	0.000760	NaN
595	1.000000	0.902677	7.37087e+06	-47339.1	1005.82	-29766.3	0.000000	0.000000	6.903124	-0.043538	NaN	0.000000	0.001621	0.001714	28.081	0.135562	0.001954	69.3887	161.614	-164.896	-0.022567	0.901351	-0.198677	-0.200002	-0.043538	69.3887	-0.198206	-123.076	0.000354	NaN
595	1.000000	0.912666	7.37087e+06	-47339.1	1005.82	-29766.3	0.000000	0.000000	6.913113	-0.038032	NaN	0.000000	0.001597	0.001759	28.081	0.051605	0.002022	25.5282	10.1665	12.8996	0.062687	0.911264	-0.188687	-0.190089	-0.038032	25.5282	-0.187570	-81.9124	0.000464	NaN
595	1.000000	0.922649	7.37088e+06	-47339.1	1005.82	-29766.3	0.000000	0.000000	6.923094	-0.088170	NaN	0.000000	0.001586	0.001726	28.0808	0.026770	0.001973	13.5672	-74.1747	-167.166	-0.009216	0.921370	-0.178704	-0.179984	-0.088170	13.5672	-0.173830	-47.8472	0.001843	NaN
595	1.000000	0.932668	7.37088e+06	-47339.1	1005.82	-29766.3	0.000000	0.000000	6.933117	0.009410	NaN	0.000000	0.001591	0.001746	28.081	0.023956	0.002110	11.3529	108.161	11.4764	0.038515	0.931273	-0.168686	-0.170080	0.009410	11.3529	-0.169307	-39.9554	-0.000236	NaN
595	1.000000	0.942671	7.37088e+06	-47339.1	1005.82	-29766.3	0.000000	0.000000	6.943120	-0.000711	NaN	0.000000	0.001602	0.001718	28.081	0.031974	0.002079	15.3759	-104.216	-166.697	0.014472	0.941381	-0.158682	-0.159973	-0.000711	15.3759	-0.158647	-25.9364	2.741664E-5	NaN
595	1.000000	0.952666	7.37088e+06	-47339.1	1005.82	-29766.3	0.000000	0.000000	6.953112	-0.058654	NaN	0.000000	0.001555	0.001737	28.0809	0.092747	0.002070	44.796	-54.3418	12.8902	-0.030761	0.951339	-0.148688	-0.150015	-0.058654	44.796	-0.147706	-16.4449	0.003567	NaN
595	1.000000	0.962668	7.37088e+06	-47339.1	1005.82	-29766.3	0.000000	0.000000	6.963116	-0.021433	NaN	0.000000	0.001584	0.001725	28.0808	0.060580	0.001859	32.5934	36.0268	-165.449	0.050829	0.961404	-0.138685	-0.139949	-0.021433	32.5934	-0.138192	-10.9372	0.001960	NaN
595	1.000000	0.972661	7.37088e+06	-47339.1	1005.82	-29766.3	0.000000	0.000000	6.973109	-0.020137	NaN	0.000000	0.001608	0.001750	28.0812	0.020355	0.002027	10.0416	151.962	13.9918	-0.022909	0.971340	-0.128692	-0.130013	-0.020137	10.0416	-0.127188	-6.716095	0.002998	NaN
595	1.000000	0.982695	7.37088e+06	-47339.1	1005.82	-29766.3	0.000000	0.000000	6.983143	-0.014000	NaN	0.000000	0.001574	0.001740	28.0811	0.026770	0.001937	13.8193	177.179	-166.342	-0.073414	0.981412	-0.118659	-0.119942	-0.014000	13.8193	-0.117899	-4.380189	0.003196	NaN
595	1.000000	0.992682	7.37088e+06	-47339.1	1005.82	-29766.3	0.000000	0.000000	6.993131	0.012038	NaN	0.000000	0.001590	0.001700	28.0811	0.061360	0.002021	30.3682	135.122	16.8493	-0.018871	0.991336	-0.108672	-0.110017	0.012038	30.3682	-0.108969	-2.858129	-0.004212	NaN
595	1.000000	1.002693	7.37088e+06	-47339.1	1005.82	-29766.3	0.000000	0.000000	7.003140	-0.047941	NaN	0.000000	0.001605	0.001697	28.081	0.044692	0.001913	23.3633	92.3434	-165.536	-0.035405	1.001386	-0.098660	-0.099967	-0.047941	23.3633	-0.097121	-1.575660	0.030426	NaN
595	1.000000	1.012693	7.37088e+06	-47339.1	1005.82	-29766.3	0.000000	0.000000	7.013138	-0.071700	NaN	0.000000	0.001576	0.001712	28.0813	0.021195	0.001965	10.7868	58.3965	13.3239	-0.006484	1.011336	-0.088661	-0.090017	-0.071700	10.7868	-0.083675	-0.762928	0.093980	NaN
595	1.000000	1.022695	7.37088e+06	-47339.1	1005.82	-29766.3	0.000000	0.000000	7.023141	-0.042323	NaN	0.000000	0.001588	0.001695	28.081	0.058654	0.002133	27.5007	-138.736	-165.693	0.000906	1.021374	-0.078659	-0.079979	-0.042323	27.5007	-0.077505	-0.535502	0.079035	NaN
595	1.000000	1.032702	7.37088e+06	-47339.1	1005.82	-29766.3	0.000000	0.000000	7.033149	-0.032855	NaN	0.000000	0.001628	0.001714	28.0823	0.115580	0.001893	61.0694	-26.5861	12.3494	-0.082716	1.031396	-0.068652	-0.069958	-0.032855	61.0694	-0.068248	-0.305970	0.107379	NaN
595	1.000000	1.042709	7.37088e+06	-47339.1	1005.82	-29766.3	0.000000	0.000000	7.043155	-0.064220	NaN	0.000000	0.001580	0.001731	28.0823	0.076615	0.002005	38.2066	-48.2406	-164.421	-0.066310	1.041388	-0.058644	-0.059966	-0.064220	38.2066	-0.057384	-0.151294	0.424470	NaN
595	1.000000	1.052734	7.37088e+06	-47339.1	1005.82	-29766.3	0.000000	0.000000	7.053181	-0.047496	NaN	0.000000	0.001572	0.001717	28.0822	0.032401	0.002044	15.849	-39.5135	12.8079	-0.062192	1.051371	-0.048619	-0.049982	-0.047496	15.849	-0.046372	-0.070781	0.671025	NaN
595	1.000000	1.062731	7.37088e+06	-47339.1	1005.82	-29766.3	0.000000	0.000000	7.063179	-0.017875	NaN	0.000000	0.001572	0.001705	28.082	0.068621	0.001998	34.3476	-4.905572	-165.814	-0.048089	1.061438	-0.038623	-0.039915	-0.017875	34.3476	-0.038232	-0.039982	0.447087	NaN
595	1.000000	1.072756	7.37088e+06	-47339.1	1005.82	-29766.3	0.000000	0.000000	7.073205	0.010934	NaN	0.000000	0.001596	0.001726	28.0821	0.167689	0.001979	84.7457	69.2056	8.805230	0.012191	1.071352	-0.028597	-0.030001	0.010934	84.7457	-0.028694	-0.021178	-0.516290	NaN
595	1.000000	1.082709	7.37088e+06	-47339.1	1005.82	-29766.3	0.000000	0.000000	7.083162	0.117119	NaN	0.000000	0.001588	0.001679	28.082	0.242119	0.002095	115.589	19.6618	-165.614	0.084435	1.081418	-0.018644	-0.019936	0.117119	115.589	-0.019404	-0.012130	-9.655696	NaN
595	1.000000	1.092781	7.37088e+06	-47339.1	1005.82	-29766.3	0.000000	0.000000	7.093242	0.310548	NaN	0.000000	0.001541	0.001677	28.0823	0.455225	0.002002	227.37	22.5781	14.9205	0.249019	1.091391	-0.008572	-0.009963	0.310548	227.37	-0.009597	-0.006156	-50.4432	NaN
595	1.000000	1.102618	7.37088e+06	-47339.1	1005.82	-29766.3	0.000000	0.000000	7.103379	7.601381	NaN	0.000000	0.001571	0.001671	28.0821	8.248351	0.001732	4761.38	15.3475	-177.179	6.065087	1.101347	0.001265	-6.752229E-6	7.601381	4761.38	6.740170E-5	5.043570E-5	150714	612543
595	2.000000	1.105799	7.37088e+06	-47339.1	1005.82	-29766.3	0.000000	0.000000	7.106725	11.6275	NaN	0.000000	0.001545	0.001666	28.0825	10.7954	0.001683	6414.72	8.080962	6.687160	11.0691	1.105398	0.004445	0.004045	11.6275	6414.72	0.003086	0.002452	4741.34	118347
595	2.000000	1.108299	7.37088e+06	-47339.1	1005.82	-29766.3	0.000000	0.000000	7.109389	15.5991	NaN	0.000000	0.001536	0.001677	28.0826	14.268	0.001637	8715.17	4.849368	-175.155	14.8652	1.108039	0.006945	0.006686	15.5991	8715.17	0.005603	0.004690	3325.77	116264
595	2.000000	1.110799	7.37088e+06	-47339.1	1005.82	-29766.3	0.000000	0.000000	7.112247	24.3227	NaN	0.000000	0.001552	0.001755	28.0824	17.3797	0.001716	10128	7.141875	4.113156	22.8152	1.110364	0.009445	0.009011	24.3227	10128	0.007644	0.006679	3641.67	113225
595	2.000000	1.113231	7.37088e+06	-47339.1	1005.82	-29766.3	0.000000	0.000000	7.114942	30.7067	NaN	0.000000	0.001515	0.001688	28.0825	20.8281	0.001686	12354.8	6.267089	-179.509	29.0834	1.112966	0.011878	0.011613	30.7067	12354.8	0.010014	0.009197	3338.94	117705
595	2.000000	1.115745	7.37088e+06	-47339.1	1005.82	-29766.3	0.000000	0.000000	7.117804	39.1744	NaN	0.000000	0.001538	0.001687	28.0825	24.0327	0.001741	13807.1	3.125985	3.243644	37.9406	1.115451	0.014392	0.014098	39.1744	13807.1	0.012264	0.011807	3317.82	116091
595	2.000000	1.118301	7.37088e+06	-47339.1	1005.82	-29766.3	0.000000	0.000000	7.120678	46.9176	NaN	0.000000	0.001556	0.001722	28.0828	27.1909	0.001809	15030.6	4.574630	-178.507	48.0359	1.117984	0.016947	0.016631	46.9176	15030.6	0.014606	0.014764	3177.89	113019
595	2.000000	1.120803	7.37088e+06	-47339.1	1005.82	-29766.3	0.000000	0.000000	7.123515	55.0564	NaN	0.000000	0.001494	0.001683	28.0811	29.7285	0.001747	17016.1	8.837916	-4.509435	54.5379	1.120379	0.019450	0.019026	55.0564	17016.1	0.017023	0.018078	3045.45	115626
595	2.000000	1.123252	7.37088e+06	-47339.1	1005.82	-29766.3	0.000000	0.000000	7.126306	63.3642	NaN	0.000000	0.001532	0.001694	28.0811	31.7495	0.001767	17964	5.878866	178.628	63.6493	1.122961	0.021899	0.021608	63.3642	17964	0.019253	0.021382	2963.41	112241
595	2.000000	1.125703	7.37088e+06	-47339.1	1005.82	-29766.3	0.000000	0.000000	7.129179	73.64	NaN	0.000000	0.001565	0.001704	28.0814	33.9838	0.001835	18519.8	5.488329	-0.898513	72.2426	1.125381	0.024349	0.024028	73.64	18519.8	0.021367	0.024736	2977.05	107584
595	2.000000	1.128153	7.37088e+06	-47339.1	1005.82	-29766.3	0.000000	0.000000	7.131859	79.2397	NaN	0.000000	0.001577	0.001719	28.0811	36.795	0.001854	19841.1	4.620272	178.782	75.5133	1.127899	0.026800	0.026545	79.2397	19841.1	0.023804	0.028876	2744.12	106677
595	2.000000	1.130709	7.37088e+06	-47339.1	1005.82	-29766.3	0.000000	0.000000	7.134941	92.0346	NaN	0.000000	0.001583	0.001704	28.0812	38.8356	0.001766	21986.4	7.172713	-4.287899	89.855	1.130316	0.029355	0.028962	92.0346	21986.4	0.026216	0.033264	2766.75	110138
595	2.000000	1.133177	7.37088e+06	-47339.1	1005.82	-29766.3	0.000000	0.000000	7.137827	102.189	NaN	0.000000	0.001616	0.001714	28.0814	40.8075	0.001734	23535.3	6.882279	174.942	99.8334	1.132860	0.031823	0.031506	102.189	23535.3	0.028567	0.037826	2701.54	110560
595	2.000000	1.135656	7.37088e+06	-47339.1	1005.82	-29766.3	0.000000	0.000000	7.140636	110.223	NaN	0.000000	0.001606	0.001732	28.0815	42.8642	0.001811	23665.2	-0.388833	3.267204	106.865	1.135284	0.034302	0.033931	110.223	23665.2	0.030809	0.042438	2597.3	104956
595	2.000000	1.138197	7.37088e+06	-47339.1	1005.82	-29766.3	0.000000	0.000000	7.143426	116.301	NaN	0.000000	0.001588	0.001689	28.0813	45.9915	0.001745	26363.1	3.565756	177.675	116.933	1.137981	0.036843	0.036627	116.301	26363.1	0.033535	0.048389	2403.47	109496
595	2.000000	1.140710	7.37088e+06	-47339.1	1005.82	-29766.3	0.000000	0.000000	7.146559	131.353	NaN	0.000000	0.001622	0.001694	28.0813	48.2375	0.001822	26471.2	5.849163	-4.051979	129.18	1.140346	0.039356	0.038992	131.353	26471.2	0.035635	0.053234	2467.45	104821
595	2.000000	1.143153	7.37088e+06	-47339.1	1005.82	-29766.4	0.000000	0.000000	7.149373	140.373	NaN	0.000000	0.001619	0.001671	28.0812	50.0055	0.001721	29053.5	2.081623	178.189	136.828	1.142841	0.041800	0.041487	140.373	29053.5	0.038176	0.059400	2363.2	108913
595	2.000000	1.145638	7.37088e+06	-47339.1	1005.82	-29766.4	0.000000	0.000000	7.152142	147.308	NaN	0.000000	0.001613	0.001683	28.0817	53.1917	0.001765	30128.9	4.736301	-5.048330	143.219	1.145382	0.044284	0.044029	147.308	30128.9	0.040617	0.065633	2244.4	107447
595	2.000000	1.148200	7.37088e+06	-47339.1	1005.82	-29766.4	0.000000	0.000000	7.155272	161.107	NaN	0.000000	0.001643	0.001705	28.0812	56.4641	0.001821	30999	3.125344	177	162.019	1.147912	0.046847	0.046559	161.107	30999	0.042949	0.071871	2241.6	105644
595	2.000000	1.150741	7.37088e+06	-47339.1	1005.82	-29766.4	0.000000	0.000000	7.158326	173.607	NaN	0.000000	0.001613	0.001715	28.0812	58.617	0.001894	30951.9	4.771209	-4.117399	172.779	1.150315	0.049387	0.048961	173.607	30951.9	0.045180	0.078100	2222.87	101189
595	2.000000	1.153091	7.37088e+06	-47339.1	1005.82	-29766.4	0.000000	0.000000	7.161458	192.622	NaN	0.000000	0.001652	0.001672	28.0817	61.0899	0.001873	32607.4	7.276441	172.736	187.893	1.152768	0.051737	0.051414	192.622	32607.4	0.047307	0.084271	2285.76	102625
595	2.000000	1.155637	7.37088e+06	-47339.1	1005.82	-29766.4	0.000000	0.000000	7.164695	209.411	NaN	0.000000	0.001649	0.001705	28.0825	61.9472	0.001792	34568.7	7.063805	-7.416021	205.446	1.155284	0.054284	0.053930	209.411	34568.7	0.049740	0.091612	2285.86	104347
595	2.000000	1.158121	7.37088e+06	-47339.1	1005.82	-29766.4	0.000000	0.000000	7.167352	213.612	NaN	0.000000	0.001669	0.001698	28.0823	64.5843	0.001725	37433.5	4.132590	174.286	210.483	1.157988	0.056768	0.056634	213.612	37433.5	0.052488	0.100259	2130.61	108012
595	2.000000	1.160665	7.37088e+06	-47339.1	1005.82	-29766.4	0.000000	0.000000	7.170835	236.453	NaN	0.000000	0.001669	0.001714	28.0822	66.1939	0.001754	37748.1	1.801221	-2.347444	233.7	1.160305	0.059312	0.058951	236.453	37748.1	0.054614	0.107206	2205.59	105331
595	2.000000	1.163143	7.37088e+06	-47339.1	1005.82	-29766.4	0.000000	0.000000	7.173913	251.058	NaN	0.000000	0.001690	0.001765	28.0827	70.1169	0.001802	38918.4	5.136893	174.135	248.233	1.162722	0.061790	0.061369	251.058	38918.4	0.056951	0.115104	2181.14	104805
595	2.000000	1.165729	7.37088e+06	-47339.1	1005.82	-29766.4	0.000000	0.000000	7.176956	262.162	NaN	0.000000	0.001648	0.001748	28.0821	73.9314	0.001845	40069	7.309026	-8.668642	264.036	1.165300	0.064376	0.063946	262.162	40069	0.059469	0.123910	2115.75	103999
595	2.000000	1.168132	7.37088e+06	-47339.1	1005.82	-29766.4	0.000000	0.000000	7.179905	275.447	NaN	0.000000	0.001667	0.001719	28.0826	74.9361	0.001746	42914.4	1.769368	176.172	273.071	1.167936	0.066778	0.066583	275.447	42914.4	0.061965	0.132947	2071.85	107532
595	2.000000	1.170782	7.37088e+06	-47339.1	1005.82	-29766.4	0.000000	0.000000	7.183281	293.108	NaN	0.000000	0.001623	0.001707	28.0822	77.8773	0.001848	42136.1	4.543809	-6.596557	295.015	1.170286	0.069428	0.068933	293.108	42136.1	0.064211	0.141340	2073.77	102399
595	2.000000	1.173129	7.37088e+06	-47339.1	1005.82	-29766.4	0.000000	0.000000	7.186556	315.696	NaN	0.000000	0.001692	0.001713	28.0827	80.2808	0.001764	45521.3	6.893834	170.366	312.999	1.172790	0.071775	0.071437	315.696	45521.3	0.066574	0.150431	2098.6	107231
595	2.000000	1.175659	7.37088e+06	-47339.1	1005.82	-29766.4	0.000000	0.000000	7.189680	330.149	NaN	0.000000	0.001649	0.001701	28.0821	81.6892	0.001752	46636	1.236095	-4.674699	327.581	1.175403	0.074305	0.074050	330.149	46636	0.068996	0.160026	2063.09	106512
595	2.000000	1.178147	7.37088e+06	-47339.1	1005.82	-29766.4	0.000000	0.000000	7.192613	340.956	NaN	0.000000	0.001551	0.001749	28.0827	85.1599	0.001776	47942.2	3.117671	173.557	339.808	1.177931	0.076794	0.076578	340.956	47942.2	0.071460	0.170076	2004.72	106211
595	2.000000	1.180592	7.37088e+06	-47339.1	1005.82	-29766.4	0.000000	0.000000	7.195982	363.433	NaN	0.000000	0.001551	0.001705	28.0826	87.2809	0.001855	47059.3	7.541175	-10.6764	356.903	1.180251	0.079238	0.078897	363.433	47059.3	0.073446	0.178389	2037.31	101797
595	2.000000	1.183121	7.37088e+06	-47339.1	1005.82	-29766.4	0.000000	0.000000	7.199242	381.214	NaN	0.000000	0.001541	0.001753	28.0826	88.1069	0.001807	48760.3	3.023398	173.717	379.688	1.182809	0.081767	0.081455	381.214	48760.3	0.075904	0.188929	2017.77	102492
595	2.000000	1.185545	7.37088e+06	-47339.1	1005.82	-29766.4	0.000000	0.000000	7.202331	397.387	NaN	0.000000	0.001505	0.001757	28.0822	91.2894	0.001851	49322.5	4.223744	-7.537879	391.538	1.185271	0.084192	0.083918	397.387	49322.5	0.078149	0.198808	1998.84	101065
595	2.000000	1.188070	7.37088e+06	-47339.1	1005.82	-29766.4	0.000000	0.000000	7.205499	413.041	NaN	0.000000	0.001513	0.001758	28.0812	93.094	0.001811	51404	2.493634	173.955	409.746	1.187963	0.086716	0.086610	413.041	51404	0.080690	0.210271	1964.32	102419
595	2.000000	1.190611	7.37088e+06	-47339.1	1005.82	-29766.4	0.000000	0.000000	7.208981	435.909	NaN	0.000000	0.001481	0.001736	28.0813	94.468	0.001739	54318.8	3.896256	-7.230290	430.457	1.190246	0.089258	0.088893	435.909	54318.8	0.083239	0.222074	1962.9	105311
595	2.000000	1.193153	7.37088e+06	-47339.1	1005.82	-29766.4	0.000000	0.000000	7.212498	459.613	NaN	0.000000	0.001536	0.001780	28.081	96.5725	0.001765	54726.1	4.241012	172.127	459.342	1.192695	0.091800	0.091341	459.613	54726.1	0.085501	0.232798	1974.3	103628
595	2.000000	1.195665	7.37088e+06	-47339.1	1005.82	-29766.4	0.000000	0.000000	7.215827	479.497	NaN	0.000000	0.001554	0.001726	28.0808	99.0847	0.001756	56412.9	4.677479	-9.415906	478.521	1.195297	0.094312	0.093944	479.497	56412.9	0.087937	0.244610	1960.25	104211
595	2.000000	1.198223	7.37088e+06	-47339.1	1005.82	-29766.4	0.000000	0.000000	7.218661	486.218	NaN	0.000000	0.001517	0.001730	28.0813	103.025	0.001807	57003.8	5.531610	169.674	490.921	1.198084	0.096870	0.096730	486.218	57003.8	0.090472	0.257197	1890.45	102694
595	2.000000	1.200612	7.37088e+06	-47339.1	1005.82	-29766.4	0.000000	0.000000	7.222617	524.316	NaN	0.000000	0.001542	0.001675	28.0811	103.527	0.001766	58615.7	3.083891	-7.154573	520.822	1.200183	0.099259	0.098829	524.316	58615.7	0.092550	0.267730	1958.38	103500
595	2.000000	1.202079	7.37088e+06	-47339.1	1005.82	-29766.4	0.000000	0.000000	7.224332	530.375	NaN	0.000000	0.001520	0.001705	28.0812	106.655	0.001801	59205.6	6.396965	169.186	529.397	1.201727	0.100725	0.100374	530.375	59205.6	0.094007	0.275233	1927	103106