File: remote_trans/data/nanoindenter/0828-1/data/Data_2025-08-06,11h17m57s/2025-07-22_16-23-58_1_1136.txt
2025-07-22, 16:23:58, 1
Index	Phase	Displacement	Time	Pos X	Pos Y	Pos Z	Rot A	Rot B	Piezo Z	Force A	Force B	Gripper	Voltage A	Voltage B	Temperature	Amplitude force	Amplitude pos	Stiffness	Phase shift	Phase excitation	Force A raw	Displacement raw	HMax	HMax raw	Real Force	Real Stiffness	Contact Depth	Area	Hardness	Reduced Mod.
[#]	[#]	[um]	[s]	[um]	[um]	[um]	[m°]	[m°]	[um]	[uN]	[uN]	[V]	[V]	[V]	[°C]	[uN]	[um]	[N/m]	[°]	[°]	[uN]	[um]	[um]	[um]	[uN]	[N/m]	[um]	[um^2]	[MPa]	[MPa]
1136	1.000000	0.002084	7.37617e+06	-56939.1	1055.82	-29737.7	0.000000	0.000000	6.002779	0.036597	NaN	0.000000	0.001544	0.001704	28.0838	0.082389	0.000891	92.4211	-134.475	-164.564	0.046724	0.000859	-1.073114	-1.074340	0.036597	92.4211	-1.073411	-2.203023E+14	-1.661209E-16	NaN
1136	1.000000	0.010060	7.37617e+06	-56939.1	1055.82	-29737.7	0.000000	0.000000	6.010754	0.027043	NaN	0.000000	0.001519	0.001752	28.0837	0.038114	0.001077	35.386	161.318	-167.287	0.042315	0.008741	-1.065139	-1.066457	0.027043	35.386	-1.065712	-1.736100E+14	-1.557714E-16	NaN
1136	1.000000	0.018070	7.37617e+06	-56939.1	1055.82	-29737.7	0.000000	0.000000	6.018764	-0.006055	NaN	0.000000	0.001538	0.001714	28.0838	0.022268	0.001682	13.2375	-27.211	-166.912	0.007018	0.016748	-1.057128	-1.058450	-0.006055	13.2375	-1.056785	-1.317091E+14	4.597575E-17	NaN
1136	1.000000	0.026099	7.37617e+06	-56939.1	1055.82	-29737.7	0.000000	0.000000	6.026794	0.036101	NaN	0.000000	0.001559	0.001702	28.084	0.075403	0.001939	38.8938	25.4678	-164.244	0.059116	0.024750	-1.049100	-1.050448	0.036101	38.8938	-1.049796	-1.060883E+14	-3.402893E-16	NaN
1136	1.000000	0.034067	7.37617e+06	-56939.1	1055.82	-29737.7	0.000000	0.000000	6.034762	0.034546	NaN	0.000000	0.001554	0.001708	28.084	0.023222	0.001883	12.332	103.547	-165.459	0.090966	0.032673	-1.041131	-1.042526	0.034546	12.332	-1.043232	-8.658226E+13	-3.989915E-16	NaN
1136	1.000000	0.042056	7.37617e+06	-56939.1	1055.82	-29737.7	0.000000	0.000000	6.042750	0.002930	NaN	0.000000	0.001597	0.001696	28.084	0.085761	0.002056	41.7096	-124.695	-168.692	0.045532	0.040795	-1.033142	-1.034404	0.002930	41.7096	-1.033195	-6.345354E+13	-4.617284E-17	NaN
1136	1.000000	0.050056	7.37617e+06	-56939.1	1055.82	-29737.7	0.000000	0.000000	6.050751	0.019006	NaN	0.000000	0.001586	0.001746	28.084	0.051003	0.002101	24.2808	143.159	-164.13	-0.029911	0.048726	-1.025142	-1.026472	0.019006	24.2808	-1.025729	-5.035321E+13	-3.774499E-16	NaN
1136	1.000000	0.058057	7.37617e+06	-56939.1	1055.82	-29737.7	0.000000	0.000000	6.058754	0.066423	NaN	0.000000	0.001542	0.001728	28.084	0.011886	0.001945	6.110818	67.5587	-165.542	0.001211	0.056726	-1.017141	-1.018472	0.066423	6.110818	-1.025294	-4.967883E+13	-1.337058E-15	NaN
1136	1.000000	0.066105	7.37617e+06	-56939.1	1055.82	-29737.7	0.000000	0.000000	6.066798	-0.004330	NaN	0.000000	0.001560	0.001746	28.084	0.148763	0.001819	81.7747	-149.764	-166.228	0.024219	0.064778	-1.009093	-1.010420	-0.004330	81.7747	-1.009054	-3.003625E+13	1.441479E-16	NaN
1136	1.000000	0.074048	7.37617e+06	-56939.1	1055.82	-29737.7	0.000000	0.000000	6.074738	-0.080335	NaN	0.000000	0.001521	0.001742	28.0839	0.078904	0.001981	39.8269	-79.2695	-165.011	-0.044219	0.072774	-1.001150	-1.002424	-0.080335	39.8269	-0.999638	-2.243315E+13	3.581088E-15	NaN
1136	1.000000	0.082044	7.37617e+06	-56939.1	1055.82	-29737.7	0.000000	0.000000	6.082737	-0.016197	NaN	0.000000	0.001543	0.001752	28.084	0.050136	0.001927	26.0162	-141.509	-163.335	0.000263	0.080738	-0.993154	-0.994460	-0.016197	26.0162	-0.992687	-1.808426E+13	8.956352E-16	NaN
1136	1.000000	0.090050	7.37617e+06	-56939.1	1055.82	-29737.7	0.000000	0.000000	6.090743	-0.027188	NaN	0.000000	0.001568	0.001677	28.0843	0.027039	0.002004	13.4917	75.8476	-168.856	-0.048229	0.088742	-0.985148	-0.986456	-0.027188	13.4917	-0.983636	-1.365835E+13	1.990584E-15	NaN
1136	1.000000	0.098030	7.37617e+06	-56939.1	1055.82	-29737.7	0.000000	0.000000	6.098726	0.057873	NaN	0.000000	0.001572	0.001714	28.0833	0.085754	0.002041	42.0189	-156.273	-166.673	0.040512	0.096720	-0.977169	-0.978478	0.057873	42.0189	-0.978201	-1.153930E+13	-5.015291E-15	NaN
1136	1.000000	0.106071	7.37617e+06	-56939.1	1055.82	-29737.7	0.000000	0.000000	6.106766	0.031914	NaN	0.000000	0.001583	0.001741	28.0829	0.079054	0.002008	39.3668	-17.1784	-164.576	0.006443	0.104833	-0.969128	-0.970365	0.031914	39.3668	-0.969736	-8.873581E+12	-3.596536E-15	NaN
1136	1.000000	0.114076	7.37617e+06	-56939.1	1055.82	-29737.7	0.000000	0.000000	6.114772	0.044205	NaN	0.000000	0.001597	0.001769	28.0828	0.052355	0.001985	26.3757	146.762	-169.285	0.010625	0.112781	-0.961122	-0.962417	0.044205	26.3757	-0.962379	-7.062232E+12	-6.259396E-15	NaN
1136	1.000000	0.122050	7.37617e+06	-56939.1	1055.82	-29737.7	0.000000	0.000000	6.122742	-0.047939	NaN	0.000000	0.001602	0.001718	28.0828	0.077188	0.001833	42.1056	-125.028	-165.324	0.025546	0.120771	-0.953148	-0.954427	-0.047939	42.1056	-0.952294	-5.163796E+12	9.283669E-15	NaN
1136	1.000000	0.130100	7.37617e+06	-56939.1	1055.82	-29737.7	0.000000	0.000000	6.130793	-0.017789	NaN	0.000000	0.001593	0.001744	28.0829	0.045698	0.002092	21.8405	178.938	-162.408	-0.008635	0.128744	-0.945098	-0.946454	-0.017789	21.8405	-0.944487	-4.052010E+12	4.390191E-15	NaN
1136	1.000000	0.138062	7.37617e+06	-56939.1	1055.82	-29737.7	0.000000	0.000000	6.138756	-0.004933	NaN	0.000000	0.001601	0.001751	28.0829	0.106863	0.001941	55.0502	-123.573	-167.667	-0.036005	0.136842	-0.937136	-0.938356	-0.004933	55.0502	-0.937069	-3.217991E+12	1.532982E-15	NaN
1136	1.000000	0.146091	7.37617e+06	-56939.1	1055.82	-29737.7	0.000000	0.000000	6.146786	0.023975	NaN	0.000000	0.001563	0.001732	28.0828	0.047526	0.002034	23.3648	-80.9996	-165.951	0.032009	0.144768	-0.929107	-0.930430	0.023975	23.3648	-0.929877	-2.573557E+12	-9.315928E-15	NaN
1136	1.000000	0.154103	7.37617e+06	-56939.1	1055.82	-29737.7	0.000000	0.000000	6.154795	-0.040572	NaN	0.000000	0.001563	0.001704	28.0826	0.041525	0.002081	19.9551	31.6277	-167.759	-0.003730	0.152762	-0.921096	-0.922437	-0.040572	19.9551	-0.919571	-1.868144E+12	2.171796E-14	NaN
1136	1.000000	0.162086	7.37617e+06	-56939.1	1055.82	-29737.7	0.000000	0.000000	6.162780	-0.000811	NaN	0.000000	0.001570	0.001727	28.0827	0.081758	0.002030	40.2749	-126.486	-165.753	-0.042558	0.160801	-0.913112	-0.914398	-0.000811	40.2749	-0.913097	-1.527517E+12	5.308859E-16	NaN
1136	1.000000	0.170118	7.37617e+06	-56939.1	1055.82	-29737.7	0.000000	0.000000	6.170814	0.046399	NaN	0.000000	0.001593	0.001696	28.0827	0.074218	0.001870	39.6884	62.9654	-164.277	0.004229	0.168770	-0.905080	-0.906428	0.046399	39.6884	-0.905957	-1.223355E+12	-3.792775E-14	NaN
1136	1.000000	0.178089	7.37617e+06	-56939.1	1055.82	-29737.7	0.000000	0.000000	6.178783	-0.004346	NaN	0.000000	0.001529	0.001678	28.0828	0.140865	0.001915	73.5529	38.5122	-165.01	0.035526	0.176761	-0.897109	-0.898437	-0.004346	73.5529	-0.897065	-9.276837E+11	4.684939E-15	NaN
1136	1.000000	0.186116	7.37617e+06	-56939.1	1055.82	-29737.7	0.000000	0.000000	6.186813	0.060085	NaN	0.000000	0.001552	0.001727	28.083	0.105194	0.001985	52.9901	-91.1478	-162.347	-0.006450	0.184767	-0.889082	-0.890432	0.060085	52.9901	-0.889932	-7.430191E+11	-8.086542E-14	NaN
1136	1.000000	0.194114	7.37617e+06	-56939.1	1055.82	-29737.7	0.000000	0.000000	6.194808	0.007600	NaN	0.000000	0.001601	0.001694	28.0827	0.045377	0.002007	22.6088	-65.9364	-164.286	0.055507	0.192798	-0.881084	-0.882401	0.007600	22.6088	-0.881336	-5.685657E+11	-1.336769E-14	NaN
1136	1.000000	0.202116	7.37617e+06	-56939.1	1055.82	-29737.7	0.000000	0.000000	6.202810	0.019748	NaN	0.000000	0.001631	0.001680	28.0829	0.057217	0.001925	29.72	74.2732	-166.332	0.051229	0.200818	-0.873083	-0.874380	0.019748	29.72	-0.873581	-4.465676E+11	-4.422255E-14	NaN
1136	1.000000	0.210122	7.37617e+06	-56939.1	1055.82	-29737.7	0.000000	0.000000	6.210817	0.034824	NaN	0.000000	0.001586	0.001678	28.0829	0.063410	0.001939	32.6996	55.616	-166.077	0.021532	0.208762	-0.865077	-0.866436	0.034824	32.6996	-0.865875	-3.512640E+11	-9.913775E-14	NaN
1136	1.000000	0.218122	7.37617e+06	-56939.1	1055.82	-29737.7	0.000000	0.000000	6.218819	0.070728	NaN	0.000000	0.001581	0.001722	28.083	0.065529	0.002034	32.2229	-158.731	-165.368	0.008010	0.216796	-0.857076	-0.858402	0.070728	32.2229	-0.858722	-2.810753E+11	-2.516334E-13	NaN
1136	1.000000	0.226138	7.37617e+06	-56939.1	1055.82	-29737.7	0.000000	0.000000	6.226833	0.041069	NaN	0.000000	0.001553	0.001763	28.0828	0.015575	0.001996	7.801335	32.5741	-167.717	-0.019883	0.224854	-0.849060	-0.850344	0.041069	7.801335	-0.853009	-2.352207E+11	-1.745984E-13	NaN
1136	1.000000	0.234165	7.37617e+06	-56939.1	1055.82	-29737.7	0.000000	0.000000	6.234856	-0.058920	NaN	0.000000	0.001536	0.001726	28.0842	0.053383	0.001968	27.1318	-158.013	-166.198	-0.015901	0.232858	-0.841033	-0.842340	-0.058920	27.1318	-0.839405	-1.538954E+11	3.828546E-13	NaN
1136	1.000000	0.242129	7.37617e+06	-56939.1	1055.82	-29737.7	0.000000	0.000000	6.242823	-0.013499	NaN	0.000000	0.001516	0.001714	28.0844	0.022993	0.001913	12.0219	-179.118	-167.088	0.002205	0.240852	-0.833069	-0.834346	-0.013499	12.0219	-0.832227	-1.230168E+11	1.097292E-13	NaN
1136	1.000000	0.250154	7.37617e+06	-56939.1	1055.82	-29737.7	0.000000	0.000000	6.250847	-0.038063	NaN	0.000000	0.001576	0.001749	28.0843	0.055721	0.001947	28.6223	119.389	-166.514	-0.035013	0.248796	-0.825044	-0.826402	-0.038063	28.6223	-0.824046	-9.529686E+10	3.994115E-13	NaN
1136	1.000000	0.258142	7.37617e+06	-56939.1	1055.82	-29737.7	0.000000	0.000000	6.258836	-0.011614	NaN	0.000000	0.001592	0.001758	28.0842	0.117101	0.002094	55.9152	-128.034	-165.087	0.016220	0.256812	-0.817056	-0.818386	-0.011614	55.9152	-0.816900	-7.623788E+10	1.523344E-13	NaN
1136	1.000000	0.266103	7.37617e+06	-56939.1	1055.82	-29737.7	0.000000	0.000000	6.266796	-0.036211	NaN	0.000000	0.001570	0.001727	28.0843	0.020455	0.001978	10.3391	-139.229	-167.789	-0.047173	0.264854	-0.809095	-0.810344	-0.036211	10.3391	-0.806468	-5.503589E+10	6.579522E-13	NaN
1136	1.000000	0.274142	7.37617e+06	-56939.1	1055.82	-29737.7	0.000000	0.000000	6.274837	0.013419	NaN	0.000000	0.001548	0.001760	28.0842	0.018149	0.001963	9.244479	-12.8499	-164.697	0.017055	0.272865	-0.801056	-0.802333	0.013419	9.244479	-0.802145	-4.808100E+10	-2.790851E-13	NaN
1136	1.000000	0.282135	7.37617e+06	-56939.1	1055.82	-29737.7	0.000000	0.000000	6.282828	-0.018760	NaN	0.000000	0.001595	0.001739	28.0839	0.004121	0.001969	2.092555	-6.114076	-166.49	-0.075159	0.280887	-0.793064	-0.794311	-0.018760	2.092555	-0.786340	-2.933365E+10	6.395418E-13	NaN
1136	1.000000	0.290150	7.37617e+06	-56939.1	1055.82	-29737.7	0.000000	0.000000	6.290840	-0.089897	NaN	0.000000	0.001579	0.001729	28.084	0.053045	0.002088	25.4054	134.612	-163.674	-0.020459	0.288849	-0.785048	-0.786349	-0.089897	25.4054	-0.782394	-2.592793E+10	3.467201E-12	NaN
1136	1.000000	0.298159	7.37617e+06	-56939.1	1055.82	-29737.7	0.000000	0.000000	6.298853	-0.003124	NaN	0.000000	0.001620	0.001724	28.0841	0.149731	0.002002	74.7869	109.154	-164.16	0.007286	0.296879	-0.777039	-0.778319	-0.003124	74.7869	-0.777008	-2.190637E+10	1.426158E-13	NaN
1136	1.000000	0.306173	7.37617e+06	-56939.1	1055.82	-29737.7	0.000000	0.000000	6.306863	-0.076820	NaN	0.000000	0.001580	0.001733	28.084	0.038950	0.002036	19.13	-14.222	-166.514	-0.100120	0.304840	-0.769026	-0.770358	-0.076820	19.13	-0.766014	-1.552750E+10	4.947329E-12	NaN
1136	1.000000	0.314164	7.37617e+06	-56939.1	1055.82	-29737.7	0.000000	0.000000	6.314858	0.005485	NaN	0.000000	0.001608	0.001689	28.0841	0.077620	0.002083	37.2698	-133.625	-166.31	-0.010092	0.312873	-0.761034	-0.762325	0.005485	37.2698	-0.761144	-1.333124E+10	-4.114674E-13	NaN
1136	1.000000	0.322168	7.37617e+06	-56939.1	1055.82	-29737.7	0.000000	0.000000	6.322860	-0.053928	NaN	0.000000	0.001586	0.001675	28.0841	0.069226	0.002008	34.481	162.391	-166.269	0.012188	0.320811	-0.753030	-0.754387	-0.053928	34.481	-0.751857	-9.965376E+9	5.411496E-12	NaN
1136	1.000000	0.330156	7.37617e+06	-56939.1	1055.82	-29737.7	0.000000	0.000000	6.330850	0.009738	NaN	0.000000	0.001554	0.001687	28.0842	0.104513	0.001965	53.1788	-162.673	-166.581	0.026932	0.328870	-0.745042	-0.746328	0.009738	53.1788	-0.745180	-8.083395E+9	-1.204670E-12	NaN
1136	1.000000	0.338170	7.37617e+06	-56939.1	1055.82	-29737.7	0.000000	0.000000	6.338865	0.024655	NaN	0.000000	0.001599	0.001708	28.0842	0.102234	0.002097	48.7445	5.629310	-168.004	0.024631	0.336837	-0.737028	-0.738362	0.024655	48.7445	-0.737407	-6.334861E+9	-3.891909E-12	NaN
1136	1.000000	0.346138	7.37617e+06	-56939.1	1055.82	-29737.7	0.000000	0.000000	6.346833	0.025313	NaN	0.000000	0.001622	0.001706	28.0839	0.037367	0.002013	18.5595	-72.302	-162.022	0.055671	0.344861	-0.729060	-0.730338	0.025313	18.5595	-0.730083	-5.034355E+9	-5.027979E-12	NaN
1136	1.000000	0.354187	7.37617e+06	-56939.1	1055.82	-29737.7	0.000000	0.000000	6.354882	0.024681	NaN	0.000000	0.001574	0.001722	28.0841	0.073845	0.001907	38.7196	-70.4082	-167.659	-0.008611	0.352906	-0.721011	-0.722292	0.024681	38.7196	-0.721489	-3.844017E+9	-6.420745E-12	NaN
1136	1.000000	0.362159	7.37617e+06	-56939.1	1055.82	-29737.7	0.000000	0.000000	6.362851	-0.032403	NaN	0.000000	0.001572	0.001702	28.0838	0.018647	0.002036	9.158867	-87.5535	-166.363	-0.002038	0.360914	-0.713039	-0.714284	-0.032403	9.158867	-0.710386	-2.712157E+9	1.194729E-11	NaN
1136	1.000000	0.370158	7.37617e+06	-56939.1	1055.82	-29737.7	0.000000	0.000000	6.370853	0.017610	NaN	0.000000	0.001606	0.001689	28.0833	0.110967	0.001961	56.599	122.522	-164.546	0.096734	0.368881	-0.705040	-0.706317	0.017610	56.599	-0.705273	-2.309575E+9	-7.624595E-12	NaN
1136	1.000000	0.378179	7.37617e+06	-56939.1	1055.82	-29737.7	0.000000	0.000000	6.378874	0.030202	NaN	0.000000	0.001583	0.001703	28.0827	0.103440	0.001918	53.9238	153.446	-170.395	0.039495	0.376892	-0.697019	-0.698307	0.030202	53.9238	-0.697439	-1.805334E+9	-1.672931E-11	NaN
1136	1.000000	0.386189	7.37617e+06	-56939.1	1055.82	-29737.7	0.000000	0.000000	6.386883	0.009407	NaN	0.000000	0.001562	0.001709	28.0825	0.016857	0.002034	8.285776	101.448	-164.283	-0.075076	0.384847	-0.689010	-0.690351	0.009407	8.285776	-0.689861	-1.422395E+9	-6.613580E-12	NaN
1136	1.000000	0.394201	7.37617e+06	-56939.1	1055.82	-29737.7	0.000000	0.000000	6.394893	-0.038110	NaN	0.000000	0.001586	0.001703	28.0828	0.086510	0.002019	42.8523	76.3604	-165.492	0.013770	0.392885	-0.680997	-0.682313	-0.038110	42.8523	-0.680330	-1.053708E+9	3.616739E-11	NaN
1136	1.000000	0.402185	7.37617e+06	-56939.1	1055.82	-29737.7	0.000000	0.000000	6.402878	-0.019184	NaN	0.000000	0.001539	0.001731	28.0824	0.082630	0.002065	40.0096	-115.982	-167.342	0.109746	0.400875	-0.673013	-0.674323	-0.019184	40.0096	-0.672653	-8.273780E+8	2.318594E-11	NaN
1136	1.000000	0.410190	7.37617e+06	-56939.1	1055.82	-29737.7	0.000000	0.000000	6.410887	0.075577	NaN	0.000000	0.001537	0.001739	28.0826	0.027012	0.002010	13.4369	133.263	-165.479	0.104885	0.408938	-0.665008	-0.666260	0.075577	13.4369	-0.669226	-7.426820E+8	-1.017621E-10	NaN
1136	1.000000	0.418216	7.37617e+06	-56939.1	1055.82	-29737.7	0.000000	0.000000	6.418912	0.039465	NaN	0.000000	0.001579	0.001718	28.0826	0.079528	0.001893	42.002	66.5586	-165.648	0.064690	0.416875	-0.656982	-0.658323	0.039465	42.002	-0.657687	-5.161548E+8	-7.646045E-11	NaN
1136	1.000000	0.426206	7.37617e+06	-56939.1	1055.82	-29737.7	0.000000	0.000000	6.426900	0.014615	NaN	0.000000	0.001585	0.001717	28.0828	0.021375	0.001890	11.3087	4.400182	-162.94	0.056105	0.424921	-0.648992	-0.650277	0.014615	11.3087	-0.649961	-4.044903E+8	-3.613311E-11	NaN
1136	1.000000	0.434181	7.37617e+06	-56939.1	1055.82	-29737.7	0.000000	0.000000	6.434876	0.035898	NaN	0.000000	0.001575	0.001719	28.0828	0.004430	0.002143	2.067086	-162.877	-164.126	0.107343	0.432857	-0.641017	-0.642341	0.035898	2.067086	-0.654042	-4.600883E+8	-7.802335E-11	NaN
1136	1.000000	0.442227	7.37617e+06	-56939.1	1055.82	-29737.7	0.000000	0.000000	6.442920	-0.015857	NaN	0.000000	0.001547	0.001701	28.0827	0.100643	0.001943	51.788	-110.91	-164.53	0.085255	0.440891	-0.632971	-0.634308	-0.015857	51.788	-0.632742	-2.347840E+8	6.754056E-11	NaN
1136	1.000000	0.450188	7.37617e+06	-56939.1	1055.82	-29737.7	0.000000	0.000000	6.450881	-0.028320	NaN	0.000000	0.001565	0.001728	28.0829	0.002200	0.002063	1.066296	-178.835	-166.893	-0.021734	0.448907	-0.625010	-0.626291	-0.028320	1.066296	-0.605090	-9.784749E+7	2.894308E-10	NaN
1136	1.000000	0.458214	7.37617e+06	-56939.1	1055.82	-29737.7	0.000000	0.000000	6.458906	-0.041281	NaN	0.000000	0.001552	0.001751	28.0827	0.034798	0.001905	18.2704	43.746	-163.302	-0.071359	0.456909	-0.616984	-0.618289	-0.041281	18.2704	-0.615289	-1.351670E+8	3.054075E-10	NaN
1136	1.000000	0.466244	7.37617e+06	-56939.1	1055.82	-29737.7	0.000000	0.000000	6.466939	0.029598	NaN	0.000000	0.001552	0.001733	28.0828	0.122988	0.001887	65.1612	18.2592	-164.572	-0.066173	0.464920	-0.608954	-0.610278	0.029598	65.1612	-0.609295	-1.117933E+8	-2.647571E-10	NaN
1136	1.000000	0.474247	7.37617e+06	-56939.1	1055.82	-29737.7	0.000000	0.000000	6.474943	0.036777	NaN	0.000000	0.001552	0.001733	28.0828	0.058848	0.001969	29.8825	132.331	-164.731	-0.001935	0.472880	-0.600951	-0.602319	0.036777	29.8825	-0.601874	-8.836246E+7	-4.162059E-10	NaN
1136	1.000000	0.482252	7.37617e+06	-56939.1	1055.82	-29737.7	0.000000	0.000000	6.482946	-0.010105	NaN	0.000000	0.001583	0.001734	28.0829	0.022407	0.002102	10.659	126.687	-165.464	0.035230	0.480953	-0.592946	-0.594245	-0.010105	10.659	-0.592235	-6.508431E+7	1.552572E-10	NaN
1136	1.000000	0.490222	7.37617e+06	-56939.1	1055.82	-29737.7	0.000000	0.000000	6.490918	0.030798	NaN	0.000000	0.001595	0.001717	28.0832	0.081584	0.001912	42.6684	-69.7111	-164.453	0.075965	0.488882	-0.584976	-0.586316	0.030798	42.6684	-0.585517	-5.258315E+7	-5.857067E-10	NaN
1136	1.000000	0.498232	7.37617e+06	-56939.1	1055.82	-29737.7	0.000000	0.000000	6.498926	0.013134	NaN	0.000000	0.001557	0.001743	28.083	0.118436	0.001973	60.0156	-121.023	-167.619	0.043734	0.496968	-0.576966	-0.578230	0.013134	60.0156	-0.577130	-4.028226E+7	-3.260428E-10	NaN
1136	1.000000	0.506257	7.37617e+06	-56939.1	1055.82	-29737.7	0.000000	0.000000	6.506953	0.040106	NaN	0.000000	0.001610	0.001716	28.0834	0.029718	0.001881	15.7988	-57.6048	-163.339	-0.008063	0.504924	-0.568941	-0.570274	0.040106	15.7988	-0.570845	-3.298395E+7	-1.215910E-9	NaN
1136	1.000000	0.514250	7.37617e+06	-56939.1	1055.82	-29737.7	0.000000	0.000000	6.514943	-0.027247	NaN	0.000000	0.001565	0.001756	28.0842	0.149642	0.002065	72.4803	-9.147685	-164.582	0.005470	0.512977	-0.560948	-0.562222	-0.027247	72.4803	-0.560666	-2.385569E+7	1.142160E-9	NaN
1136	1.000000	0.522246	7.37617e+06	-56939.1	1055.82	-29737.7	0.000000	0.000000	6.522940	0.018263	NaN	0.000000	0.001542	0.001702	28.0842	0.097179	0.001989	48.8585	50.313	-161.011	0.009929	0.520948	-0.552952	-0.554250	0.018263	48.8585	-0.553233	-1.882443E+7	-9.701711E-10	NaN
1136	1.000000	0.530240	7.37617e+06	-56939.1	1055.82	-29737.7	0.000000	0.000000	6.530935	0.036505	NaN	0.000000	0.001613	0.001695	28.0842	0.110972	0.002026	54.7814	143.675	-165.227	0.011417	0.528966	-0.544958	-0.546232	0.036505	54.7814	-0.545458	-1.469013E+7	-2.484998E-9	NaN
1136	1.000000	0.538254	7.37617e+06	-56939.1	1055.82	-29737.7	0.000000	0.000000	6.538946	-0.033044	NaN	0.000000	0.001595	0.001720	28.0841	0.050150	0.002073	24.1893	80.9435	-166.396	0.024872	0.536944	-0.536944	-0.538254	-0.033044	24.1893	-0.535920	-1.083316E+7	3.050306E-9	NaN
1136	1.000000	0.546233	7.37617e+06	-56939.1	1055.82	-29737.7	0.000000	0.000000	6.546930	0.070803	NaN	0.000000	0.001599	0.001706	28.084	0.046085	0.002029	22.7134	-9.247958	-162.987	0.042484	0.544958	-0.528965	-0.530240	0.070803	22.7134	-0.531303	-9.34694e+06	-7.574972E-9	NaN
1136	1.000000	0.554286	7.37617e+06	-56939.1	1055.82	-29737.7	0.000000	0.000000	6.554981	0.028558	NaN	0.000000	0.001641	0.001718	28.0839	0.068577	0.002046	33.5254	83.4984	-166.566	0.087831	0.552918	-0.520913	-0.522281	0.028558	33.5254	-0.521551	-6.84183e+06	-4.173971E-9	NaN
1136	1.000000	0.562239	7.37617e+06	-56939.1	1055.82	-29737.7	0.000000	0.000000	6.562935	0.063808	NaN	0.000000	0.001648	0.001722	28.084	0.104830	0.001860	56.3534	-167.133	-167.531	-0.011923	0.560976	-0.512960	-0.514222	0.063808	56.3534	-0.513809	-5.3389e+06	-1.195148E-8	NaN
1136	1.000000	0.570261	7.37617e+06	-56939.1	1055.82	-29737.7	0.000000	0.000000	6.570953	-0.031419	NaN	0.000000	0.001592	0.001718	28.0839	0.013010	0.001985	6.554812	106.401	-163.654	0.069167	0.568988	-0.504938	-0.506211	-0.031419	6.554812	-0.501343	-3.57888e+06	8.778992E-9	NaN
1136	1.000000	0.578282	7.37617e+06	-56939.1	1055.82	-29737.7	0.000000	0.000000	6.578979	0.068230	NaN	0.000000	0.001569	0.001745	28.084	0.123608	0.001923	64.2764	-118.173	-168.169	0.013962	0.576949	-0.496916	-0.498250	0.068230	64.2764	-0.497712	-3.18487e+06	-2.142318E-8	NaN
1136	1.000000	0.586285	7.37617e+06	-56939.1	1055.82	-29737.7	0.000000	0.000000	6.586977	-0.039794	NaN	0.000000	0.001600	0.001721	28.0842	0.016381	0.002004	8.174535	129.893	-164.644	0.032400	0.584972	-0.488914	-0.490226	-0.039794	8.174535	-0.485263	-2.13385e+06	1.864894E-8	NaN
1136	1.000000	0.594288	7.37617e+06	-56939.1	1055.82	-29737.7	0.000000	0.000000	6.594983	0.026265	NaN	0.000000	0.001585	0.001732	28.0842	0.059488	0.001952	30.4775	128.308	-169.207	0.018322	0.592951	-0.480910	-0.482247	0.026265	30.4775	-0.481557	-1.89373e+06	-1.386968E-8	NaN
1136	1.000000	0.602275	7.37617e+06	-56939.1	1055.82	-29737.7	0.000000	0.000000	6.602970	0.040882	NaN	0.000000	0.001616	0.001735	28.0845	0.038658	0.002069	18.6827	-91.4849	-164.77	0.065275	0.600920	-0.472924	-0.474278	0.040882	18.6827	-0.474565	-1.51148e+06	-2.704791E-8	NaN
1136	1.000000	0.610288	7.37617e+06	-56939.1	1055.82	-29737.7	0.000000	0.000000	6.610982	0.004271	NaN	0.000000	0.001585	0.001737	28.0841	0.034656	0.001965	17.6328	147.789	-162.457	0.026113	0.608979	-0.464910	-0.466219	0.004271	17.6328	-0.465092	-1.11311e+06	-3.837410E-9	NaN
1136	1.000000	0.618288	7.37617e+06	-56939.1	1055.82	-29737.7	0.000000	0.000000	6.618980	-0.043617	NaN	0.000000	0.001582	0.001761	28.0843	0.075045	0.001953	38.4194	-165.243	-164.493	0.014798	0.617056	-0.456910	-0.458142	-0.043617	38.4194	-0.456059	-831012	5.248610E-8	NaN
1136	1.000000	0.626308	7.37617e+06	-56939.1	1055.82	-29737.7	0.000000	0.000000	6.627002	-0.002099	NaN	0.000000	0.001599	0.001739	28.0839	0.090379	0.002033	44.4472	-171.167	-164.067	-0.060207	0.624968	-0.448890	-0.450231	-0.002099	44.4472	-0.448854	-657974	3.189438E-9	NaN
1136	1.000000	0.634290	7.37617e+06	-56939.1	1055.82	-29737.7	0.000000	0.000000	6.634985	0.020797	NaN	0.000000	0.001567	0.001713	28.0842	0.020975	0.001893	11.0784	-103.473	-166.819	0.102288	0.632994	-0.440908	-0.442204	0.020797	11.0784	-0.442316	-532166	-3.908012E-8	NaN
1136	1.000000	0.642298	7.37617e+06	-56939.1	1055.82	-29737.7	0.000000	0.000000	6.642988	-0.094658	NaN	0.000000	0.001588	0.001724	28.0841	0.037638	0.002096	17.9543	73.2267	-163.162	-0.127998	0.640979	-0.432900	-0.434219	-0.094658	17.9543	-0.428946	-344467	2.747960E-7	NaN
1136	1.000000	0.650306	7.37617e+06	-56939.1	1055.82	-29737.7	0.000000	0.000000	6.651003	0.072871	NaN	0.000000	0.001593	0.001677	28.0826	0.087478	0.002109	41.4796	115.261	-165.713	0.052410	0.648986	-0.424893	-0.426212	0.072871	41.4796	-0.426210	-315080	-2.312788E-7	NaN
1136	1.000000	0.658296	7.37617e+06	-56939.1	1055.82	-29737.7	0.000000	0.000000	6.658989	-0.010882	NaN	0.000000	0.001617	0.001705	28.0829	0.120827	0.001782	67.8003	-124.037	-164.408	0.069459	0.657030	-0.416902	-0.418168	-0.010882	67.8003	-0.416782	-231609	4.698374E-8	NaN
1136	1.000000	0.666309	7.37617e+06	-56939.1	1055.82	-29737.7	0.000000	0.000000	6.667001	-0.058883	NaN	0.000000	0.001593	0.001690	28.0826	0.106835	0.002008	53.1994	-147.316	-164.521	-0.005562	0.664985	-0.408889	-0.410213	-0.058883	53.1994	-0.408059	-174095	3.382239E-7	NaN
1136	1.000000	0.674333	7.37617e+06	-56939.1	1055.82	-29737.8	0.000000	0.000000	6.675028	0.045418	NaN	0.000000	0.001572	0.001708	28.083	0.065371	0.001971	33.1614	142.314	-165.612	0.018454	0.673026	-0.400865	-0.402172	0.045418	33.1614	-0.401893	-142226	-3.193383E-7	NaN
1136	1.000000	0.682308	7.37617e+06	-56939.1	1055.82	-29737.8	0.000000	0.000000	6.683001	-0.002931	NaN	0.000000	0.001594	0.001721	28.0829	0.079909	0.002022	39.51	-130.554	-161.701	-0.024148	0.681018	-0.392890	-0.394181	-0.002931	39.51	-0.392835	-105609	2.775603E-8	NaN
1136	1.000000	0.690318	7.37617e+06	-56939.1	1055.82	-29737.8	0.000000	0.000000	6.691014	0.039969	NaN	0.000000	0.001575	0.001636	28.0828	0.107875	0.002093	51.5302	167.908	-166.176	0.024070	0.689074	-0.384880	-0.386124	0.039969	51.5302	-0.385461	-82831.7	-4.825368E-7	NaN
1136	1.000000	0.698324	7.37617e+06	-56939.1	1055.82	-29737.8	0.000000	0.000000	6.699021	0.075127	NaN	0.000000	0.001576	0.001685	28.0832	0.111881	0.001988	56.2838	-114.897	-165.288	-0.024721	0.697010	-0.376874	-0.378188	0.075127	56.2838	-0.377875	-64474.1	-1.165224E-6	NaN
1136	1.000000	0.706291	7.37617e+06	-56939.1	1055.82	-29737.8	0.000000	0.000000	6.706987	0.051480	NaN	0.000000	0.001553	0.001675	28.0827	0.117592	0.002003	58.7014	126.579	-164.818	0.102923	0.705005	-0.368907	-0.370194	0.051480	58.7014	-0.369565	-48962.5	-1.051424E-6	NaN
1136	1.000000	0.714314	7.37617e+06	-56939.1	1055.82	-29737.8	0.000000	0.000000	6.715007	-0.022271	NaN	0.000000	0.001598	0.001683	28.0827	0.023643	0.002028	11.6586	144.327	-167.54	0.009849	0.713016	-0.360884	-0.362182	-0.022271	11.6586	-0.359451	-34987.5	6.365456E-7	NaN
1136	1.000000	0.722383	7.37617e+06	-56939.1	1055.82	-29737.8	0.000000	0.000000	6.723078	0.023232	NaN	0.000000	0.001564	0.001677	28.0826	0.018452	0.002098	8.792940	175.877	-168.641	0.034922	0.721066	-0.352815	-0.354133	0.023232	8.792940	-0.354796	-29960.4	-7.754382E-7	NaN
1136	1.000000	0.730352	7.37617e+06	-56939.1	1055.82	-29737.8	0.000000	0.000000	6.731047	0.032327	NaN	0.000000	0.001606	0.001703	28.0826	0.020756	0.001878	11.0547	81.8904	-167.256	0.090903	0.729033	-0.344847	-0.346166	0.032327	11.0547	-0.347040	-23121.3	-1.398168E-6	NaN
1136	1.000000	0.738334	7.37617e+06	-56939.1	1055.82	-29737.8	0.000000	0.000000	6.739026	-0.042248	NaN	0.000000	0.001556	0.001689	28.083	0.055540	0.001969	28.2063	-49.2092	-166.552	0.030484	0.737030	-0.336864	-0.338168	-0.042248	28.2063	-0.335741	-15827.4	2.669314E-6	NaN
1136	1.000000	0.746341	7.37617e+06	-56939.1	1055.82	-29737.8	0.000000	0.000000	6.747031	-0.094143	NaN	0.000000	0.001562	0.001687	28.0827	0.051612	0.001852	27.8627	-41.3146	-166.165	-0.075290	0.745048	-0.328857	-0.330151	-0.094143	27.8627	-0.326323	-11522.6	8.170265E-6	NaN
1136	1.000000	0.754327	7.37617e+06	-56939.1	1055.82	-29737.8	0.000000	0.000000	6.755017	-0.087500	NaN	0.000000	0.001559	0.001719	28.0832	0.040042	0.001961	20.4166	-132.164	-165.801	0.004287	0.752958	-0.320871	-0.322240	-0.087500	20.4166	-0.317657	-8592.7	1.018308E-5	NaN
1136	1.000000	0.762330	7.37617e+06	-56939.1	1055.82	-29737.8	0.000000	0.000000	6.763025	0.027979	NaN	0.000000	0.001596	0.001717	28.0825	0.032056	0.002045	15.6778	-32.5649	-167.503	0.013748	0.761075	-0.312868	-0.314123	0.027979	15.6778	-0.314206	-7642.4	-3.661021E-6	NaN
1136	1.000000	0.770350	7.37617e+06	-56939.1	1055.82	-29737.8	0.000000	0.000000	6.771044	-0.000902	NaN	0.000000	0.001569	0.001681	28.083	0.061244	0.001980	30.9274	-136.96	-162.526	-0.062869	0.769046	-0.304848	-0.306152	-0.000902	30.9274	-0.304826	-5551.01	1.625618E-7	NaN
1136	1.000000	0.778325	7.37617e+06	-56939.1	1055.82	-29737.8	0.000000	0.000000	6.779020	0.025532	NaN	0.000000	0.001600	0.001671	28.0828	0.141162	0.001975	71.4696	-161.071	-166.975	-0.042393	0.777016	-0.296873	-0.298182	0.025532	71.4696	-0.297141	-4266.15	-5.984752E-6	NaN
1136	1.000000	0.786373	7.37617e+06	-56939.1	1055.82	-29737.8	0.000000	0.000000	6.787066	-0.001372	NaN	0.000000	0.001611	0.001685	28.084	0.108299	0.002039	53.1141	80.8151	-164.899	-0.045440	0.784966	-0.288826	-0.290232	-0.001372	53.1141	-0.288806	-3201.91	4.284850E-7	NaN
1136	1.000000	0.794338	7.37617e+06	-56939.1	1055.82	-29737.8	0.000000	0.000000	6.795030	-0.040878	NaN	0.000000	0.001614	0.001722	28.0841	0.053923	0.001984	27.1783	-10.0842	-166.806	-0.026978	0.793036	-0.280861	-0.282162	-0.040878	27.1783	-0.279733	-2338.48	1.748051E-5	NaN
1136	1.000000	0.802394	7.37617e+06	-56939.1	1055.82	-29737.8	0.000000	0.000000	6.803088	0.002915	NaN	0.000000	0.001606	0.001731	28.0839	0.056479	0.002058	27.449	-46.7661	-166.867	0.031589	0.801080	-0.272804	-0.274118	0.002915	27.449	-0.272884	-1842.16	-1.582260E-6	NaN
1136	1.000000	0.810369	7.37617e+06	-56939.1	1055.82	-29737.8	0.000000	0.000000	6.811064	0.012808	NaN	0.000000	0.001572	0.001757	28.0838	0.074204	0.002165	34.2738	160.602	-163.458	-0.010310	0.809094	-0.264829	-0.266104	0.012808	34.2738	-0.265109	-1402.99	-9.129233E-6	NaN
1136	1.000000	0.818360	7.37617e+06	-56939.1	1055.82	-29737.8	0.000000	0.000000	6.819054	0.018570	NaN	0.000000	0.001591	0.001712	28.084	0.043689	0.001985	22.0107	-109.115	-166.493	0.028733	0.817101	-0.256838	-0.258097	0.018570	22.0107	-0.257471	-1071.8	-1.732605E-5	NaN
1136	1.000000	0.826368	7.37617e+06	-56939.1	1055.82	-29737.8	0.000000	0.000000	6.827063	0.017988	NaN	0.000000	0.001600	0.001690	28.0839	0.081937	0.001832	44.7329	-164.885	-163.504	0.028361	0.825078	-0.248830	-0.250120	0.017988	44.7329	-0.249132	-797.132	-2.256559E-5	NaN
1136	1.000000	0.834395	7.37617e+06	-56939.1	1055.82	-29737.8	0.000000	0.000000	6.835089	0.005842	NaN	0.000000	0.001614	0.001709	28.0841	0.002814	0.002022	1.391401	-88.6215	-161.514	-0.017330	0.833043	-0.240803	-0.242155	0.005842	1.391401	-0.243952	-662.452	-8.818205E-6	NaN
1136	1.000000	0.842400	7.37617e+06	-56939.1	1055.82	-29737.8	0.000000	0.000000	6.843095	0.030072	NaN	0.000000	0.001553	0.001706	28.0838	0.089055	0.001913	46.5506	163.536	-162.556	0.060341	0.841040	-0.232798	-0.234158	0.030072	46.5506	-0.233283	-451.08	-6.666557E-5	NaN
1136	1.000000	0.850389	7.37617e+06	-56939.1	1055.82	-29737.8	0.000000	0.000000	6.851082	-0.014368	NaN	0.000000	0.001569	0.001761	28.0845	0.074464	0.001949	38.2143	-78.0297	-167.101	-0.023994	0.849059	-0.224809	-0.226140	-0.014368	38.2143	-0.224527	-327.962	4.380870E-5	NaN
1136	1.000000	0.858388	7.37617e+06	-56939.1	1055.82	-29737.8	0.000000	0.000000	6.859083	0.014645	NaN	0.000000	0.001599	0.001750	28.084	0.046389	0.002011	23.0711	-91.758	-165.606	0.034292	0.857068	-0.216810	-0.218130	0.014645	23.0711	-0.217286	-251.323	-5.827078E-5	NaN
1136	1.000000	0.866424	7.37617e+06	-56939.1	1055.82	-29737.8	0.000000	0.000000	6.867119	0.029921	NaN	0.000000	0.001579	0.001742	28.0841	0.040360	0.002159	18.6911	144.467	-166.009	0.013758	0.865107	-0.208774	-0.210091	0.029921	18.6911	-0.209975	-191.608	-0.000156	NaN
1136	1.000000	0.874408	7.37617e+06	-56939.1	1055.82	-29737.8	0.000000	0.000000	6.875102	0.002287	NaN	0.000000	0.001581	0.001752	28.0839	0.118620	0.002031	58.4096	135.526	-165.015	0.028660	0.873101	-0.200790	-0.202097	0.002287	58.4096	-0.200820	-135.881	-1.683343E-5	NaN
1136	1.000000	0.882372	7.37617e+06	-56939.1	1055.82	-29737.8	0.000000	0.000000	6.883068	0.048684	NaN	0.000000	0.001564	0.001733	28.0841	0.050397	0.001858	27.1224	-16.5159	-164.975	0.040894	0.881077	-0.192827	-0.194121	0.048684	27.1224	-0.194173	-105.557	-0.000461	NaN
1136	1.000000	0.890405	7.37617e+06	-56939.1	1055.82	-29737.8	0.000000	0.000000	6.891099	0.015298	NaN	0.000000	0.001575	0.001733	28.0842	0.126522	0.001928	65.6171	-112.025	-167.494	0.075127	0.889109	-0.184793	-0.186090	0.015298	65.6171	-0.184968	-74.0619	-0.000207	NaN
1136	1.000000	0.898430	7.37617e+06	-56939.1	1055.82	-29737.8	0.000000	0.000000	6.899126	0.042642	NaN	0.000000	0.001620	0.001754	28.084	0.035054	0.002045	17.1387	142.643	-165.15	0.077362	0.897129	-0.176768	-0.178069	0.042642	17.1387	-0.178634	-57.8362	-0.000737	NaN
1136	1.000000	0.906426	7.37617e+06	-56939.1	1055.82	-29737.8	0.000000	0.000000	6.907119	-0.011696	NaN	0.000000	0.001608	0.001734	28.0843	0.129501	0.001874	69.0953	43.0505	-162.695	0.055459	0.905059	-0.168772	-0.170140	-0.011696	69.0953	-0.168645	-38.9093	0.000301	NaN
1136	1.000000	0.914391	7.37617e+06	-56939.1	1055.82	-29737.8	0.000000	0.000000	6.915085	-0.001399	NaN	0.000000	0.001612	0.001707	28.0843	0.058912	0.001956	30.1147	-38.6776	-163.738	0.025389	0.913133	-0.160807	-0.162065	-0.001399	30.1147	-0.160772	-28.2942	4.944548E-5	NaN
1136	1.000000	0.922439	7.37617e+06	-56939.1	1055.82	-29737.8	0.000000	0.000000	6.923136	0.079009	NaN	0.000000	0.001550	0.001717	28.0833	0.069691	0.002134	32.6604	151.52	-165.898	-0.004447	0.921101	-0.152759	-0.154097	0.079009	32.6604	-0.154573	-21.9229	-0.003604	NaN
1136	1.000000	0.930407	7.37617e+06	-56939.1	1055.82	-29737.8	0.000000	0.000000	6.931100	-0.008604	NaN	0.000000	0.001596	0.001783	28.0829	0.113231	0.001957	57.8511	-177.123	-163.075	-0.069735	0.929111	-0.144792	-0.146087	-0.008604	57.8511	-0.144680	-14.4626	0.000595	NaN
1136	1.000000	0.938439	7.37617e+06	-56939.1	1055.82	-29737.8	0.000000	0.000000	6.939133	-0.000464	NaN	0.000000	0.001600	0.001748	28.083	0.105105	0.001918	54.8086	18.9553	-165.55	0.049780	0.937098	-0.136759	-0.138100	-0.000464	54.8086	-0.136752	-10.2719	4.519527E-5	NaN
1136	1.000000	0.946431	7.37617e+06	-56939.1	1055.82	-29737.8	0.000000	0.000000	6.947123	-0.056688	NaN	0.000000	0.001587	0.001688	28.0832	0.099811	0.001926	51.8167	-141.637	-164.338	-0.006692	0.945099	-0.128767	-0.130099	-0.056688	51.8167	-0.127947	-6.949866	0.008157	NaN
1136	1.000000	0.954449	7.37617e+06	-56939.1	1055.82	-29737.8	0.000000	0.000000	6.955143	-0.001978	NaN	0.000000	0.001593	0.001687	28.083	0.022831	0.002042	11.1818	-11.4589	-165.211	0.023535	0.953099	-0.120749	-0.122099	-0.001978	11.1818	-0.120617	-4.971807	0.000398	NaN
1136	1.000000	0.962432	7.37617e+06	-56939.1	1055.82	-29737.8	0.000000	0.000000	6.963124	-0.030155	NaN	0.000000	0.001612	0.001689	28.0832	0.058594	0.001937	30.2567	-97.8201	-164.316	-0.012171	0.961172	-0.112767	-0.114026	-0.030155	30.2567	-0.112019	-3.313219	0.009102	NaN
1136	1.000000	0.970453	7.37617e+06	-56939.1	1055.82	-29737.8	0.000000	0.000000	6.971146	-0.006037	NaN	0.000000	0.001617	0.001687	28.0829	0.074335	0.002118	35.0977	71.8703	-166.186	-0.000230	0.969141	-0.104746	-0.106057	-0.006037	35.0977	-0.104617	-2.306133	0.002618	NaN
1136	1.000000	0.978441	7.37617e+06	-56939.1	1055.82	-29737.8	0.000000	0.000000	6.979136	0.036560	NaN	0.000000	0.001586	0.001711	28.083	0.073276	0.001976	37.0824	143.705	-166.073	-0.000907	0.977138	-0.096757	-0.098061	0.036560	37.0824	-0.097497	-1.606608	-0.022756	NaN
1136	1.000000	0.986468	7.37617e+06	-56939.1	1055.82	-29737.8	0.000000	0.000000	6.987164	0.047665	NaN	0.000000	0.001598	0.001712	28.0831	0.029739	0.001864	15.9528	-13.025	-165.119	0.038843	0.985136	-0.088730	-0.090062	0.047665	15.9528	-0.090971	-1.139044	-0.041847	NaN
1136	1.000000	0.994467	7.37617e+06	-56939.1	1055.82	-29737.8	0.000000	0.000000	6.995160	-0.017539	NaN	0.000000	0.001601	0.001720	28.0827	0.149320	0.001993	74.9188	-134.656	-161.573	0.013833	0.993125	-0.080731	-0.082073	-0.017539	74.9188	-0.080556	-0.639075	0.027445	NaN
1136	1.000000	1.002460	7.37617e+06	-56939.1	1055.82	-29737.8	0.000000	0.000000	7.003153	-0.015396	NaN	0.000000	0.001592	0.001697	28.0831	0.027039	0.001998	13.5363	43.463	-164.321	-0.050991	1.001178	-0.072738	-0.074020	-0.015396	13.5363	-0.071885	-0.382874	0.040211	NaN
1136	1.000000	1.010446	7.37617e+06	-56939.1	1055.82	-29737.8	0.000000	0.000000	7.011139	-0.010309	NaN	0.000000	0.001580	0.001713	28.0827	0.069840	0.002021	34.5597	138.31	-163.934	0.011369	1.009175	-0.064752	-0.066023	-0.010309	34.5597	-0.064529	-0.241812	0.042631	NaN
1136	1.000000	1.018438	7.37617e+06	-56939.1	1055.82	-29737.8	0.000000	0.000000	7.019134	0.037694	NaN	0.000000	0.001552	0.001711	28.0828	0.084480	0.002060	41.0008	-30.8721	-164.24	-0.019231	1.017166	-0.056760	-0.058032	0.037694	41.0008	-0.057449	-0.151964	-0.248046	NaN
1136	1.000000	1.026451	7.37617e+06	-56939.1	1055.82	-29737.8	0.000000	0.000000	7.027145	-0.014246	NaN	0.000000	0.001577	0.001666	28.0826	0.076906	0.002015	38.1716	-30.0676	-166.098	0.020644	1.025123	-0.048747	-0.050076	-0.014246	38.1716	-0.048467	-0.081989	0.173754	NaN
1136	1.000000	1.034468	7.37617e+06	-56939.1	1055.82	-29737.8	0.000000	0.000000	7.035158	-0.099971	NaN	0.000000	0.001571	0.001687	28.0825	0.057124	0.001951	29.2748	-81.8319	-165.046	-0.145059	1.033145	-0.040730	-0.042054	-0.099971	29.2748	-0.038168	-0.039805	2.511526	NaN
1136	1.000000	1.042509	7.37617e+06	-56939.1	1055.82	-29737.8	0.000000	0.000000	7.043207	0.085423	NaN	0.000000	0.001555	0.001671	28.0827	0.036087	0.001980	18.2232	7.648472	-163.246	0.050040	1.041182	-0.032689	-0.034017	0.085423	18.2232	-0.036205	-0.034764	-2.457197	NaN
1136	1.000000	1.050453	7.37617e+06	-56939.1	1055.82	-29737.8	0.000000	0.000000	7.051149	0.059765	NaN	0.000000	0.001559	0.001689	28.0824	0.099547	0.001977	50.3622	-164.632	-163.698	-0.005521	1.049241	-0.024745	-0.025957	0.059765	50.3622	-0.025635	-0.017530	-3.409294	NaN
1136	1.000000	1.058492	7.37617e+06	-56939.1	1055.82	-29737.8	0.000000	0.000000	7.059185	-0.024706	NaN	0.000000	0.001571	0.001718	28.0842	0.068007	0.002052	33.1482	61.5688	-167.223	0.010762	1.057154	-0.016706	-0.018044	-0.024706	33.1482	-0.016147	-0.009974	2.477010	NaN
1136	1.000000	1.066483	7.37617e+06	-56939.1	1055.82	-29737.8	0.000000	0.000000	7.067177	-0.005983	NaN	0.000000	0.001547	0.001689	28.084	0.046560	0.002078	22.4092	-132.652	-165.82	0.023990	1.065170	-0.008715	-0.010028	-0.005983	22.4092	-0.008515	-0.005532	1.081544	NaN
1136	1.000000	1.074438	7.37617e+06	-56939.1	1055.82	-29737.8	0.000000	0.000000	7.075286	3.768380	NaN	0.000000	0.001533	0.001688	28.084	4.787548	0.001815	2637.86	11.15	-167.165	2.028790	1.073121	-0.000761	-0.002077	3.768380	2637.86	-0.001832	-0.001323	-2849.4	NaN
1136	2.000000	1.078993	7.37617e+06	-56939.1	1055.82	-29737.8	0.000000	0.000000	7.080306	15.0635	NaN	0.000000	0.001523	0.001670	28.0841	11.3637	0.001663	6834.27	5.891659	-173.023	13.3942	1.078695	0.003795	0.003497	15.0635	6834.27	0.002142	0.001670	9021.98	152810
1136	2.000000	1.080981	7.37617e+06	-56939.1	1055.82	-29737.8	0.000000	0.000000	7.082654	23.8045	NaN	0.000000	0.001540	0.001686	28.084	12.5591	0.001417	8860.71	2.699581	-172.305	21.6731	1.080623	0.005783	0.005425	23.8045	8860.71	0.003768	0.003036	7840.09	146917
1136	2.000000	1.082989	7.37617e+06	-56939.1	1055.82	-29737.8	0.000000	0.000000	7.085043	33.0584	NaN	0.000000	0.001534	0.001683	28.0842	16.1052	0.001709	9421.35	1.659616	-171.769	31.7912	1.082682	0.007791	0.007484	33.0584	9421.35	0.005159	0.004279	7725.94	131590
1136	2.000000	1.084968	7.37617e+06	-56939.1	1055.82	-29737.8	0.000000	0.000000	7.087461	43.7431	NaN	0.000000	0.001572	0.001709	28.0842	18.607	0.001821	10219.4	4.263617	-173.791	41.9227	1.084666	0.009770	0.009468	43.7431	10219.4	0.006559	0.005602	7808.44	124745
1136	2.000000	1.086910	7.37617e+06	-56939.1	1055.82	-29737.8	0.000000	0.000000	7.089781	52.9066	NaN	0.000000	0.001545	0.001730	28.0841	20.1856	0.001656	12187.9	3.710435	-176.699	51.305	1.086576	0.011712	0.011378	52.9066	12187.9	0.008456	0.007516	7039.36	128444
1136	2.000000	1.088940	7.37617e+06	-56939.1	1055.82	-29737.8	0.000000	0.000000	7.092168	61.601	NaN	0.000000	0.001557	0.001743	28.0841	23.0396	0.001908	12072.2	6.103795	-178.315	60.7727	1.088700	0.013742	0.013501	61.601	12072.2	0.009915	0.009087	6779.07	115705
1136	2.000000	1.090917	7.37617e+06	-56939.1	1055.82	-29737.8	0.000000	0.000000	7.094639	73.6211	NaN	0.000000	0.001519	0.001673	28.0837	23.3239	0.001689	13805.6	0.379637	-173.161	72.1761	1.090615	0.015718	0.015417	73.6211	13805.6	0.011719	0.011155	6599.78	119424
1136	2.000000	1.092932	7.37617e+06	-56939.1	1055.82	-29737.8	0.000000	0.000000	7.097031	82.7729	NaN	0.000000	0.001560	0.001674	28.084	25.5513	0.001781	14350.4	4.330192	-177.828	80.56	1.092586	0.017734	0.017388	82.7729	14350.4	0.013408	0.013221	6260.91	114028
1136	2.000000	1.094995	7.37617e+06	-56939.1	1055.82	-29737.8	0.000000	0.000000	7.099415	90.5675	NaN	0.000000	0.001556	0.001679	28.0842	27.4356	0.001679	16339.8	5.317397	179.42	90.068	1.094679	0.019797	0.019480	90.5675	16339.8	0.015640	0.016148	5608.45	117478
1136	2.000000	1.096839	7.37617e+06	-56939.1	1055.82	-29737.8	0.000000	0.000000	7.101567	98.0534	NaN	0.000000	0.001578	0.001691	28.0841	29.0883	0.001774	16400.9	3.997838	-179.233	94.8817	1.096602	0.021641	0.021404	98.0534	16400.9	0.017157	0.018270	5367	110860
1136	2.000000	1.098944	7.37617e+06	-56939.1	1055.82	-29737.8	0.000000	0.000000	7.103643	97.3384	NaN	0.000000	0.001529	0.001727	28.0847	31.3584	0.001761	17804.4	3.840977	-179.894	95.953	1.098718	0.023746	0.023520	97.3384	17804.4	0.019645	0.021988	4426.86	109700
1136	2.000000	1.100833	7.37617e+06	-56939.1	1055.82	-29737.8	0.000000	0.000000	7.106334	116.846	NaN	0.000000	0.001585	0.001707	28.0839	32.2828	0.001799	17944	4.041022	-179.55	112.936	1.100571	0.025635	0.025373	116.846	17944	0.020751	0.023737	4922.62	106410
1136	2.000000	1.102817	7.37617e+06	-56939.1	1055.82	-29737.8	0.000000	0.000000	7.108598	123.653	NaN	0.000000	0.001538	0.001694	28.084	34.7668	0.001894	18357.2	3.999675	-178.99	119.703	1.102580	0.027618	0.027381	123.653	18357.2	0.022566	0.026737	4624.84	102571
1136	2.000000	1.104932	7.37617e+06	-56939.1	1055.82	-29737.8	0.000000	0.000000	7.111230	136.217	NaN	0.000000	0.001556	0.001731	28.0841	36.4739	0.001820	20045.5	4.375811	-179.222	135.095	1.104575	0.029734	0.029377	136.217	20045.5	0.024637	0.030359	4486.89	105111
1136	2.000000	1.106876	7.37617e+06	-56939.1	1055.82	-29737.8	0.000000	0.000000	7.113809	151.643	NaN	0.000000	0.001563	0.001687	28.0828	37.0077	0.001769	20918.2	2.029022	-177.942	150.181	1.106511	0.031678	0.031313	151.643	20918.2	0.026241	0.033312	4552.27	104713
1136	2.000000	1.108873	7.37617e+06	-56939.1	1055.82	-29737.8	0.000000	0.000000	7.116258	162.629	NaN	0.000000	0.001540	0.001675	28.0828	39.7513	0.001736	22891.9	3.722548	178.998	161.606	1.108571	0.033675	0.033373	162.629	22891.9	0.028347	0.037386	4349.96	108168
1136	2.000000	1.110965	7.37617e+06	-56939.1	1055.82	-29737.8	0.000000	0.000000	7.118767	172.779	NaN	0.000000	0.001571	0.001691	28.0829	41.0672	0.001743	23557.4	4.159960	178.716	176.812	1.110704	0.035766	0.035506	172.779	23557.4	0.030266	0.041296	4183.89	105912
1136	2.000000	1.112895	7.37617e+06	-56939.1	1055.82	-29737.8	0.000000	0.000000	7.121444	190.905	NaN	0.000000	0.001559	0.001695	28.083	43.9731	0.001860	23639.7	3.376756	179.823	191.95	1.112587	0.037697	0.037389	190.905	23639.7	0.031641	0.044213	4317.86	102717
1136	2.000000	1.114877	7.37617e+06	-56939.1	1055.82	-29737.8	0.000000	0.000000	7.124225	210.337	NaN	0.000000	0.001563	0.001693	28.0829	45.2864	0.001956	23155.6	5.556378	177.693	208.047	1.114552	0.039679	0.039354	210.337	23155.6	0.032866	0.046894	4485.34	97694.2
1136	2.000000	1.116783	7.37617e+06	-56939.1	1055.82	-29737.8	0.000000	0.000000	7.126558	220.727	NaN	0.000000	0.001585	0.001682	28.083	45.7383	0.001694	26993.1	1.915769	179.84	216.001	1.116491	0.041585	0.041293	220.727	26993.1	0.035452	0.052803	4180.18	107324
1136	2.000000	1.118829	7.37617e+06	-56939.1	1055.82	-29737.8	0.000000	0.000000	7.128915	228.293	NaN	0.000000	0.001557	0.001721	28.0831	48.5761	0.001735	28002.7	4.038680	176.702	225.879	1.118589	0.043631	0.043391	228.293	28002.7	0.037516	0.057767	3951.97	106447
1136	2.000000	1.120880	7.37617e+06	-56939.1	1055.82	-29737.8	0.000000	0.000000	7.131762	247.607	NaN	0.000000	0.001573	0.001722	28.0831	50.5427	0.001866	27088.6	5.625394	176.069	248.073	1.120629	0.045682	0.045431	247.607	27088.6	0.038827	0.061032	4057.03	100180
1136	2.000000	1.122830	7.37617e+06	-56939.1	1055.82	-29737.8	0.000000	0.000000	7.134258	260.893	NaN	0.000000	0.001546	0.001719	28.083	53.4777	0.001952	27400.9	4.280148	177.428	257.216	1.122512	0.047632	0.047314	260.893	27400.9	0.040491	0.065304	3995.04	97964.5
1136	2.000000	1.124900	7.37617e+06	-56939.1	1055.82	-29737.8	0.000000	0.000000	7.136842	273.409	NaN	0.000000	0.001565	0.001734	28.083	54.8668	0.001723	31839.1	2.877927	177.843	273.831	1.124557	0.049702	0.049359	273.409	31839.1	0.043261	0.072728	3759.36	107866
1136	2.000000	1.126852	7.37617e+06	-56939.1	1055.82	-29737.8	0.000000	0.000000	7.138780	273.038	NaN	0.000000	0.001555	0.001740	28.0831	55.6224	0.001792	31044.9	3.524630	176.887	270.25	1.126596	0.051654	0.051398	273.038	31044.9	0.045058	0.077752	3511.65	101720
1136	2.000000	1.128971	7.37617e+06	-56939.1	1055.82	-29737.8	0.000000	0.000000	7.141450	286.449	NaN	0.000000	0.001591	0.001766	28.0829	58.7276	0.001754	33489.7	5.073940	175.169	290.307	1.128677	0.053773	0.053479	286.449	33489.7	0.047358	0.084421	3393.11	105308
1136	2.000000	1.130834	7.37617e+06	-56939.1	1055.82	-29737.8	0.000000	0.000000	7.143924	301.287	NaN	0.000000	0.001607	0.001734	28.083	59.8517	0.001861	32163.7	6.707477	173.962	299.855	1.130573	0.055636	0.055375	301.287	32163.7	0.048610	0.088166	3417.27	98966.5
1136	2.000000	1.132805	7.37617e+06	-56939.1	1055.82	-29737.8	0.000000	0.000000	7.146690	320.638	NaN	0.000000	0.001551	0.001696	28.083	61.6205	0.001824	33787.9	3.549097	177.002	317.373	1.132491	0.057606	0.057293	320.638	33787.9	0.050489	0.093931	3413.54	100723
1136	2.000000	1.134843	7.37617e+06	-56939.1	1055.82	-29737.8	0.000000	0.000000	7.149224	332.677	NaN	0.000000	0.001548	0.001710	28.0828	63.5642	0.001950	32600.9	8.093667	173.81	330.014	1.134424	0.059645	0.059226	332.677	32600.9	0.051991	0.098667	3371.72	94823.6
1136	2.000000	1.136919	7.37617e+06	-56939.1	1055.82	-29737.8	0.000000	0.000000	7.151875	346.643	NaN	0.000000	0.001573	0.001723	28.0828	65.9461	0.001934	34098.3	7.807795	173.396	348.698	1.136462	0.061721	0.061264	346.643	34098.3	0.054096	0.105494	3285.91	95916.5
1136	2.000000	1.138845	7.37617e+06	-56939.1	1055.82	-29737.8	0.000000	0.000000	7.154215	356.724	NaN	0.000000	0.001533	0.001722	28.0829	65.8341	0.001897	34700.2	6.467532	173.976	356.435	1.138516	0.063646	0.063318	356.724	34700.2	0.055936	0.111641	3195.27	94884
1136	2.000000	1.140908	7.37617e+06	-56939.1	1055.82	-29737.8	0.000000	0.000000	7.156794	369.253	NaN	0.000000	0.001550	0.001739	28.0842	67.5282	0.001755	38478.6	8.459773	170.345	373.14	1.140554	0.065710	0.065356	369.253	38478.6	0.058513	0.120530	3063.58	101262
1136	2.000000	1.142788	7.37617e+06	-56939.1	1055.82	-29737.8	0.000000	0.000000	7.159064	378.737	NaN	0.000000	0.001572	0.001732	28.0843	67.6099	0.001801	37544.6	2.503221	176.994	374.321	1.142465	0.067590	0.067267	378.737	37544.6	0.060024	0.125896	3008.34	96675.2
1136	2.000000	1.144822	7.37617e+06	-56939.1	1055.82	-29737.8	0.000000	0.000000	7.160077	353.909	NaN	0.000000	0.001530	0.001721	28.0843	69.9514	0.001829	38237.1	3.166007	175.529	348.757	1.144614	0.069624	0.069416	353.909	38237.1	0.062682	0.135601	2609.94	94869.7
1136	2.000000	1.146752	7.37617e+06	-56939.1	1055.82	-29737.8	0.000000	0.000000	7.163671	394.344	NaN	0.000000	0.001566	0.001770	28.0843	71.3273	0.001845	38668.6	5.396257	173.875	388.697	1.146478	0.071554	0.071280	394.344	38668.6	0.063906	0.140184	2813.04	94358.8
1136	2.000000	1.148852	7.37617e+06	-56939.1	1055.82	-29737.8	0.000000	0.000000	7.165701	392.638	NaN	0.000000	0.001580	0.001763	28.0841	74.6506	0.001937	38535.6	4.765467	174.004	390.845	1.148635	0.073654	0.073437	392.638	38535.6	0.066013	0.148247	2648.54	91441.3
1136	2.000000	1.150926	7.37617e+06	-56939.1	1055.82	-29737.8	0.000000	0.000000	7.167645	389.516	NaN	0.000000	0.001589	0.001779	28.0842	74.8463	0.001803	41522.5	6.056681	172.112	391.974	1.150916	0.075728	0.075718	389.516	41522.5	0.068692	0.158808	2452.75	95196.4
1136	2.000000	1.152813	7.37617e+06	-56939.1	1055.82	-29737.8	0.000000	0.000000	7.170656	416.832	NaN	0.000000	0.001553	0.001742	28.0844	77.864	0.001855	41985.6	10.4354	168.274	413.495	1.152421	0.077615	0.077223	416.832	41985.6	0.070169	0.164775	2529.7	94499.1
1136	2.000000	1.154837	7.37617e+06	-56939.1	1055.82	-29737.8	0.000000	0.000000	7.173470	436.013	NaN	0.000000	0.001555	0.001678	28.0844	78.0338	0.001783	43753.7	2.709835	176.139	434.438	1.154456	0.079639	0.079258	436.013	43753.7	0.072165	0.173008	2520.19	96106.9
1136	2.000000	1.156837	7.37617e+06	-56939.1	1055.82	-29737.8	0.000000	0.000000	7.175836	444.919	NaN	0.000000	0.001592	0.001755	28.0842	78.9427	0.001814	43509.1	5.078814	173.856	444.94	1.156494	0.081639	0.081296	444.919	43509.1	0.073970	0.180609	2463.43	93536.9
1136	2.000000	1.158877	7.37617e+06	-56939.1	1055.82	-29737.8	0.000000	0.000000	7.178011	448.18	NaN	0.000000	0.001555	0.001687	28.0841	81.079	0.001782	45505.2	4.701291	174.345	449.425	1.158351	0.083679	0.083153	448.18	45505.2	0.076293	0.190623	2351.13	95224
1136	2.000000	1.160768	7.37617e+06	-56939.1	1055.82	-29737.8	0.000000	0.000000	7.180241	456.455	NaN	0.000000	0.001545	0.001696	28.0839	81.6667	0.001876	43543.4	1.482862	177.232	453.598	1.160546	0.085569	0.085348	456.455	43543.4	0.077707	0.196846	2318.85	89667
1136	2.000000	1.162817	7.37617e+06	-56939.1	1055.82	-29737.8	0.000000	0.000000	7.182621	464.466	NaN	0.000000	0.001579	0.001715	28.084	84.2757	0.001805	46690.6	4.947713	172.883	462.714	1.162521	0.087619	0.087322	464.466	46690.6	0.080159	0.207849	2234.64	93568.4
1136	2.000000	1.164785	7.37617e+06	-56939.1	1055.82	-29737.8	0.000000	0.000000	7.185231	480.097	NaN	0.000000	0.001556	0.001696	28.0841	85.9182	0.001877	45767.7	5.194883	173.655	475.997	1.164359	0.089586	0.089161	480.097	45767.7	0.081719	0.214999	2233.02	90180.8
1136	2.000000	1.166951	7.37617e+06	-56939.1	1055.82	-29737.8	0.000000	0.000000	7.187338	478.665	NaN	0.000000	0.001567	0.001706	28.0844	87.978	0.001821	48318.9	6.516884	171.55	487.444	1.166628	0.091752	0.091430	478.665	48318.9	0.084323	0.227181	2106.98	92619.8
1136	2.000000	1.168889	7.37617e+06	-56939.1	1055.82	-29737.8	0.000000	0.000000	7.189975	495.664	NaN	0.000000	0.001584	0.001700	28.0844	89.8178	0.001950	46052.3	5.583582	173.067	497.366	1.168512	0.093690	0.093314	495.664	46052.3	0.085618	0.233359	2124.04	87098.7
1136	2.000000	1.170776	7.37617e+06	-56939.1	1055.82	-29737.8	0.000000	0.000000	7.192315	506.647	NaN	0.000000	0.001611	0.001710	28.0842	90.5667	0.001873	48352.7	6.599623	171.322	502.913	1.170504	0.095578	0.095306	506.647	48352.7	0.087719	0.243543	2080.32	89517.2
1136	2.000000	1.172949	7.37617e+06	-56939.1	1055.82	-29737.8	0.000000	0.000000	7.194959	518.105	NaN	0.000000	0.001561	0.001696	28.0842	91.9739	0.001781	51639.3	6.685814	170.817	523.42	1.172575	0.097751	0.097377	518.105	51639.3	0.090226	0.255959	2024.17	93254.1
1136	2.000000	1.174874	7.37617e+06	-56939.1	1055.82	-29737.8	0.000000	0.000000	7.197124	523.933	NaN	0.000000	0.001576	0.001689	28.0831	94.1796	0.001890	49843.2	5.156228	172.91	524.402	1.174650	0.099676	0.099452	523.933	49843.2	0.091792	0.263866	1985.6	88651.8
1136	2.000000	1.176280	7.37617e+06	-56939.1	1055.82	-29737.8	0.000000	0.000000	7.199055	536.693	NaN	0.000000	0.001574	0.001672	28.083	96.0697	0.001943	49451.9	6.227602	-8.578289	531.692	1.175846	0.101082	0.100648	536.693	49451.9	0.092942	0.269740	1989.67	86992.9