File: remote_trans/data/nanoindenter/0828-1/data/Data_2025-08-06,11h17m57s/2025-07-22_16-23-58_1_586.txt
2025-07-22, 16:23:58, 1
Index	Phase	Displacement	Time	Pos X	Pos Y	Pos Z	Rot A	Rot B	Piezo Z	Force A	Force B	Gripper	Voltage A	Voltage B	Temperature	Amplitude force	Amplitude pos	Stiffness	Phase shift	Phase excitation	Force A raw	Displacement raw	HMax	HMax raw	Real Force	Real Stiffness	Contact Depth	Area	Hardness	Reduced Mod.
[#]	[#]	[um]	[s]	[um]	[um]	[um]	[m°]	[m°]	[um]	[uN]	[uN]	[V]	[V]	[V]	[°C]	[uN]	[um]	[N/m]	[°]	[°]	[uN]	[um]	[um]	[um]	[uN]	[N/m]	[um]	[um^2]	[MPa]	[MPa]
586	1.000000	0.003474	7.37078e+06	-47789.1	1005.82	-29764.7	0.000000	0.000000	6.002784	-0.018869	NaN	0.000000	0.001694	0.001753	28.0778	0.107976	0.000904	119.48	-37.1027	-160.987	-0.048527	0.002177	-1.058311	-1.059607	-0.018869	119.48	-1.058192	-1.375711E+14	1.371594E-16	NaN
586	1.000000	0.011447	7.37078e+06	-47789.1	1005.82	-29764.7	0.000000	0.000000	6.010759	0.018522	NaN	0.000000	0.001662	0.001750	28.0778	0.060326	0.001068	56.4676	89.2671	-166.369	0.037381	0.010131	-1.050337	-1.051654	0.018522	56.4676	-1.050583	-1.087065E+14	-1.703846E-16	NaN
586	1.000000	0.019445	7.37078e+06	-47789.1	1005.82	-29764.7	0.000000	0.000000	6.018757	0.033367	NaN	0.000000	0.001665	0.001742	28.0773	0.069780	0.001770	39.4219	-69.1197	-169.647	0.106723	0.018153	-1.042340	-1.043632	0.033367	39.4219	-1.042975	-8.589416E+13	-3.884654E-16	NaN
586	1.000000	0.027457	7.37078e+06	-47789.1	1005.82	-29764.7	0.000000	0.000000	6.026768	0.009726	NaN	0.000000	0.001650	0.001742	28.0775	0.078886	0.001795	43.9583	133.88	-164.197	0.007898	0.026171	-1.034328	-1.035614	0.009726	43.9583	-1.034494	-6.605750E+13	-1.472346E-16	NaN
586	1.000000	0.035425	7.37078e+06	-47789.1	1005.82	-29764.7	0.000000	0.000000	6.034734	-0.042530	NaN	0.000000	0.001662	0.001754	28.0775	0.088427	0.001978	44.7007	-0.764849	-166.982	-0.035793	0.034120	-1.026359	-1.027664	-0.042530	44.7007	-1.025646	-5.022371E+13	8.468129E-16	NaN
586	1.000000	0.043461	7.37078e+06	-47789.1	1005.82	-29764.7	0.000000	0.000000	6.042775	0.054985	NaN	0.000000	0.001633	0.001779	28.0777	0.099657	0.002020	49.3448	23.947	-168.865	0.081373	0.042145	-1.018323	-1.019640	0.054985	49.3448	-1.019159	-4.108064E+13	-1.338472E-15	NaN
586	1.000000	0.051448	7.37078e+06	-47789.1	1005.82	-29764.7	0.000000	0.000000	6.050759	0.009694	NaN	0.000000	0.001644	0.001737	28.0776	0.101843	0.001984	51.329	-148.019	-167.006	-0.055653	0.050113	-1.010337	-1.011671	0.009694	51.329	-1.010478	-3.139205E+13	-3.088154E-16	NaN
586	1.000000	0.059460	7.37078e+06	-47789.1	1005.82	-29764.7	0.000000	0.000000	6.058770	-0.036288	NaN	0.000000	0.001632	0.001721	28.0772	0.077759	0.001894	41.0628	76.2022	-164.857	-0.029914	0.058109	-1.002324	-1.003676	-0.036288	41.0628	-1.001661	-2.388565E+13	1.519229E-15	NaN
586	1.000000	0.067482	7.37078e+06	-47789.1	1005.82	-29764.7	0.000000	0.000000	6.066793	-0.013930	NaN	0.000000	0.001606	0.001711	28.0773	0.030796	0.002112	14.5796	-94.7343	-162.484	0.046151	0.066131	-0.994302	-0.995653	-0.013930	14.5796	-0.993586	-1.859527E+13	7.490996E-16	NaN
586	1.000000	0.075447	7.37078e+06	-47789.1	1005.82	-29764.7	0.000000	0.000000	6.074755	-0.057806	NaN	0.000000	0.001578	0.001738	28.0782	0.047244	0.002042	23.1334	-75.5378	-163.99	-0.035405	0.074151	-0.986338	-0.987634	-0.057806	23.1334	-0.984464	-1.401347E+13	4.125039E-15	NaN
586	1.000000	0.083449	7.37078e+06	-47789.1	1005.82	-29764.7	0.000000	0.000000	6.082759	-0.008947	NaN	0.000000	0.001587	0.001770	28.0777	0.040484	0.001965	20.6	88.8973	-166.909	-0.052797	0.082172	-0.978336	-0.979612	-0.008947	20.6	-0.978010	-1.147105E+13	7.799577E-16	NaN
586	1.000000	0.091484	7.37078e+06	-47789.1	1005.82	-29764.7	0.000000	0.000000	6.090797	0.045949	NaN	0.000000	0.001591	0.001744	28.0772	0.088248	0.001915	46.0847	-19.1696	-165.522	0.028601	0.090114	-0.970300	-0.971670	0.045949	46.0847	-0.971048	-9.242456E+12	-4.971551E-15	NaN
586	1.000000	0.099443	7.37078e+06	-47789.1	1005.82	-29764.7	0.000000	0.000000	6.098750	-0.099675	NaN	0.000000	0.001577	0.001749	28.0775	0.045042	0.001892	23.8111	153.993	-163.705	-0.099304	0.098128	-0.962342	-0.963656	-0.099675	23.8111	-0.959202	-6.399027E+12	1.557663E-14	NaN
586	1.000000	0.107453	7.37078e+06	-47789.1	1005.82	-29764.7	0.000000	0.000000	6.106761	-0.073844	NaN	0.000000	0.001538	0.001764	28.0776	0.037947	0.001956	19.4007	-137.672	-164.966	-0.006702	0.106161	-0.954332	-0.955623	-0.073844	19.4007	-0.951477	-5.034382E+12	1.466803E-14	NaN
586	1.000000	0.115462	7.37078e+06	-47789.1	1005.82	-29764.7	0.000000	0.000000	6.114773	0.000764	NaN	0.000000	0.001589	0.001757	28.0787	0.018387	0.002092	8.787654	22.8099	-168.13	0.027733	0.114217	-0.946323	-0.947568	0.000764	8.787654	-0.946388	-4.298437E+12	-1.778489E-16	NaN
586	1.000000	0.123455	7.37078e+06	-47789.1	1005.82	-29764.7	0.000000	0.000000	6.122762	-0.093888	NaN	0.000000	0.001575	0.001753	28.0784	0.095144	0.002093	45.4596	-33.3239	-163.903	-0.044954	0.122106	-0.938329	-0.939678	-0.093888	45.4596	-0.936780	-3.189325E+12	2.943817E-14	NaN
586	1.000000	0.131459	7.37078e+06	-47789.1	1005.82	-29764.7	0.000000	0.000000	6.130773	0.052461	NaN	0.000000	0.001573	0.001774	28.0785	0.069101	0.001929	35.819	-0.728158	-165.81	0.100862	0.130155	-0.930325	-0.931629	0.052461	35.819	-0.931424	-2.700287E+12	-1.942779E-14	NaN
586	1.000000	0.139465	7.37078e+06	-47789.1	1005.82	-29764.7	0.000000	0.000000	6.138774	-0.041427	NaN	0.000000	0.001581	0.001752	28.0787	0.018285	0.001897	9.636977	-61.5888	-163.722	0.067796	0.138141	-0.922320	-0.923644	-0.041427	9.636977	-0.919096	-1.840770E+12	2.250545E-14	NaN
586	1.000000	0.147495	7.37078e+06	-47789.1	1005.82	-29764.7	0.000000	0.000000	6.146805	-0.016159	NaN	0.000000	0.001564	0.001724	28.0787	0.043255	0.001976	21.8921	87.7449	-167.839	0.007966	0.146178	-0.914290	-0.915607	-0.016159	21.8921	-0.913736	-1.558192E+12	1.037045E-14	NaN
586	1.000000	0.155459	7.37078e+06	-47789.1	1005.82	-29764.7	0.000000	0.000000	6.154771	0.018376	NaN	0.000000	0.001560	0.001780	28.0789	0.068307	0.002106	32.4361	28.3241	-165.105	0.038633	0.154184	-0.906326	-0.907600	0.018376	32.4361	-0.906751	-1.253924E+12	-1.465451E-14	NaN
586	1.000000	0.163482	7.37078e+06	-47789.1	1005.82	-29764.7	0.000000	0.000000	6.162794	0.018018	NaN	0.000000	0.001585	0.001810	28.0786	0.095369	0.002045	46.6281	-71.0851	-163.005	0.031171	0.162198	-0.898302	-0.899586	0.018018	46.6281	-0.898592	-9.728461E+11	-1.852065E-14	NaN
586	1.000000	0.171490	7.37078e+06	-47789.1	1005.82	-29764.7	0.000000	0.000000	6.170801	0.019921	NaN	0.000000	0.001538	0.001774	28.0784	0.090412	0.002005	45.0994	139.452	-166.773	-0.029844	0.170160	-0.890295	-0.891624	0.019921	45.0994	-0.890626	-7.592420E+11	-2.623803E-14	NaN
586	1.000000	0.179481	7.37078e+06	-47789.1	1005.82	-29764.7	0.000000	0.000000	6.178793	0.018666	NaN	0.000000	0.001609	0.001776	28.079	0.139751	0.001884	74.1689	120.108	-162.812	0.053679	0.178131	-0.882304	-0.883653	0.018666	74.1689	-0.882493	-5.894055E+11	-3.166885E-14	NaN
586	1.000000	0.187494	7.37078e+06	-47789.1	1005.82	-29764.7	0.000000	0.000000	6.186804	-0.035322	NaN	0.000000	0.001580	0.001771	28.0785	0.122621	0.002127	57.6616	165.216	-164.684	-0.009114	0.186210	-0.874290	-0.875574	-0.035322	57.6616	-0.873831	-4.500569E+11	7.848407E-14	NaN
586	1.000000	0.195481	7.37078e+06	-47789.1	1005.82	-29764.7	0.000000	0.000000	6.194793	0.027337	NaN	0.000000	0.001598	0.001771	28.0787	0.038889	0.002081	18.6895	-52.1931	-164.314	0.046630	0.194223	-0.866304	-0.867562	0.027337	18.6895	-0.867401	-3.683632E+11	-7.421304E-14	NaN
586	1.000000	0.203511	7.37078e+06	-47789.1	1005.82	-29764.7	0.000000	0.000000	6.202823	0.018921	NaN	0.000000	0.001567	0.001756	28.0785	0.005774	0.002093	2.759162	151.731	-164.406	-0.012653	0.202165	-0.858274	-0.859620	0.018921	2.759162	-0.863417	-3.253628E+11	-5.815457E-14	NaN
586	1.000000	0.211506	7.37078e+06	-47789.1	1005.82	-29764.7	0.000000	0.000000	6.210818	0.027660	NaN	0.000000	0.001586	0.001790	28.0789	0.058444	0.001974	29.6035	-166.448	-164.953	0.024690	0.210107	-0.850278	-0.851678	0.027660	29.6035	-0.850979	-2.207981E+11	-1.252731E-13	NaN
586	1.000000	0.219511	7.37078e+06	-47789.1	1005.82	-29764.7	0.000000	0.000000	6.218822	0.006518	NaN	0.000000	0.001599	0.001769	28.0788	0.084358	0.001850	45.5946	133.283	-164.992	0.017484	0.218198	-0.842274	-0.843587	0.006518	45.5946	-0.842381	-1.688697E+11	-3.859883E-14	NaN
586	1.000000	0.227518	7.37078e+06	-47789.1	1005.82	-29764.7	0.000000	0.000000	6.226831	0.037484	NaN	0.000000	0.001562	0.001730	28.0786	0.054013	0.001909	28.2933	127.012	-164.41	0.051250	0.226159	-0.834266	-0.835625	0.037484	28.2933	-0.835260	-1.352279E+11	-2.771902E-13	NaN
586	1.000000	0.235498	7.37078e+06	-47789.1	1005.82	-29764.7	0.000000	0.000000	6.234810	0.042275	NaN	0.000000	0.001631	0.001783	28.0787	0.053105	0.002081	25.5231	8.881905	-168.21	0.102144	0.234189	-0.826287	-0.827596	0.042275	25.5231	-0.827529	-1.062414E+11	-3.979105E-13	NaN
586	1.000000	0.243531	7.37078e+06	-47789.1	1005.82	-29764.7	0.000000	0.000000	6.242843	0.027667	NaN	0.000000	0.001584	0.001755	28.0784	0.113055	0.002002	56.469	66.6105	-165.186	-0.014630	0.242160	-0.818253	-0.819624	0.027667	56.469	-0.818621	-8.044637E+10	-3.439158E-13	NaN
586	1.000000	0.251533	7.37078e+06	-47789.1	1005.82	-29764.7	0.000000	0.000000	6.250844	-0.015382	NaN	0.000000	0.001571	0.001780	28.0775	0.044770	0.002021	22.1478	13.3952	-165.84	-0.044557	0.250242	-0.810251	-0.811542	-0.015382	22.1478	-0.809730	-6.094162E+10	2.524003E-13	NaN
586	1.000000	0.259523	7.37078e+06	-47789.1	1005.82	-29764.7	0.000000	0.000000	6.258831	-0.068535	NaN	0.000000	0.001534	0.001780	28.0783	0.074336	0.001986	37.4264	30.5023	-169.538	-0.025899	0.258200	-0.802262	-0.803585	-0.068535	37.4264	-0.800888	-4.622990E+10	1.482478E-12	NaN
586	1.000000	0.267502	7.37078e+06	-47789.1	1005.82	-29764.7	0.000000	0.000000	6.266813	0.015261	NaN	0.000000	0.001577	0.001764	28.0774	0.059052	0.002048	28.838	22.7865	-168.484	0.045090	0.266194	-0.794283	-0.795591	0.015261	28.838	-0.794680	-3.807454E+10	-4.008288E-13	NaN
586	1.000000	0.275531	7.37078e+06	-47789.1	1005.82	-29764.7	0.000000	0.000000	6.274844	0.044512	NaN	0.000000	0.001560	0.001768	28.0775	0.020307	0.001885	10.7718	20.7698	-165.525	-0.010020	0.274239	-0.786254	-0.787546	0.044512	10.7718	-0.789353	-3.223243E+10	-1.380971E-12	NaN
586	1.000000	0.283545	7.37078e+06	-47789.1	1005.82	-29764.7	0.000000	0.000000	6.282854	-0.062158	NaN	0.000000	0.001530	0.001743	28.0773	0.052859	0.002108	25.0706	-35.399	-163.433	-0.026127	0.282207	-0.778239	-0.779577	-0.062158	25.0706	-0.776380	-2.147986E+10	2.893800E-12	NaN
586	1.000000	0.291541	7.37078e+06	-47789.1	1005.82	-29764.7	0.000000	0.000000	6.290850	-0.038189	NaN	0.000000	0.001574	0.001791	28.0773	0.044638	0.002091	21.3441	-55.6365	-165.48	-0.018691	0.290258	-0.770244	-0.771526	-0.038189	21.3441	-0.768902	-1.699721E+10	2.246768E-12	NaN
586	1.000000	0.299540	7.37078e+06	-47789.1	1005.82	-29764.7	0.000000	0.000000	6.298854	0.073994	NaN	0.000000	0.001536	0.001734	28.0775	0.065419	0.001948	33.5785	-112.971	-160.132	0.035661	0.298223	-0.762245	-0.763562	0.073994	33.5785	-0.763897	-1.453174E+10	-5.091910E-12	NaN
586	1.000000	0.307528	7.37078e+06	-47789.1	1005.82	-29764.7	0.000000	0.000000	6.306839	0.015075	NaN	0.000000	0.001562	0.001730	28.0774	0.045781	0.001876	24.4006	-95.3544	-166.169	0.044827	0.306216	-0.754257	-0.755568	0.015075	24.4006	-0.754720	-1.090099E+10	-1.382882E-12	NaN
586	1.000000	0.315555	7.37078e+06	-47789.1	1005.82	-29764.7	0.000000	0.000000	6.314869	0.058087	NaN	0.000000	0.001589	0.001741	28.0773	0.100593	0.002038	49.366	-13.7614	-169.173	-0.008657	0.314266	-0.746229	-0.747519	0.058087	49.366	-0.747112	-8.588220E+9	-6.763599E-12	NaN
586	1.000000	0.323535	7.37078e+06	-47789.1	1005.82	-29764.7	0.000000	0.000000	6.322849	0.070032	NaN	0.000000	0.001556	0.001772	28.0773	0.048955	0.002107	23.2353	-128.148	-167.013	0.080755	0.322235	-0.738250	-0.739550	0.070032	23.2353	-0.740510	-6.982459E+9	-1.002967E-11	NaN
586	1.000000	0.331548	7.37078e+06	-47789.1	1005.82	-29764.7	0.000000	0.000000	6.330861	0.049216	NaN	0.000000	0.001535	0.001732	28.0771	0.051423	0.001985	25.9045	69.7437	-166.516	-0.031385	0.330246	-0.730237	-0.731538	0.049216	25.9045	-0.731662	-5.290026E+9	-9.303638E-12	NaN
586	1.000000	0.339580	7.37078e+06	-47789.1	1005.82	-29764.7	0.000000	0.000000	6.338893	0.043820	NaN	0.000000	0.001545	0.001762	28.0774	0.126521	0.002073	61.0371	71.6452	-166.858	0.028100	0.338268	-0.722205	-0.723517	0.043820	61.0371	-0.722743	-3.998363E+9	-1.095942E-11	NaN
586	1.000000	0.347563	7.37078e+06	-47789.1	1005.82	-29764.7	0.000000	0.000000	6.346876	0.042780	NaN	0.000000	0.001536	0.001772	28.0773	0.083288	0.001906	43.6991	-80.9785	-164.792	0.083634	0.346243	-0.714222	-0.715542	0.042780	43.6991	-0.714956	-3.130910E+9	-1.366368E-11	NaN
586	1.000000	0.355570	7.37078e+06	-47789.1	1005.82	-29764.7	0.000000	0.000000	6.354882	0.020111	NaN	0.000000	0.001565	0.001790	28.0772	0.088197	0.001897	46.4849	-78.2737	-169.226	0.027282	0.354288	-0.706215	-0.707497	0.020111	46.4849	-0.706539	-2.403325E+9	-8.367891E-12	NaN
586	1.000000	0.363552	7.37078e+06	-47789.1	1005.82	-29764.7	0.000000	0.000000	6.362864	0.025282	NaN	0.000000	0.001562	0.001749	28.0775	0.032459	0.001984	16.358	-69.8405	-168.361	0.083357	0.362264	-0.698232	-0.699521	0.025282	16.358	-0.699392	-1.919647E+9	-1.317024E-11	NaN
586	1.000000	0.371578	7.37078e+06	-47789.1	1005.82	-29764.7	0.000000	0.000000	6.370891	0.045869	NaN	0.000000	0.001542	0.001759	28.0774	0.042735	0.002024	21.1115	128.526	-167.316	0.045915	0.370311	-0.690206	-0.691473	0.045869	21.1115	-0.691836	-1.513580E+9	-3.030496E-11	NaN
586	1.000000	0.379562	7.37078e+06	-47789.1	1005.82	-29764.7	0.000000	0.000000	6.378873	0.006491	NaN	0.000000	0.001571	0.001772	28.0773	0.036335	0.002023	17.9594	163.665	-165.445	0.028780	0.378274	-0.682222	-0.683511	0.006491	17.9594	-0.682493	-1.127986E+9	-5.754843E-12	NaN
586	1.000000	0.387558	7.37078e+06	-47789.1	1005.82	-29764.7	0.000000	0.000000	6.386869	-0.000458	NaN	0.000000	0.001635	0.001750	28.0784	0.073628	0.002002	36.7777	29.5525	-164.443	-0.101046	0.386276	-0.674226	-0.675508	-0.000458	36.7777	-0.674217	-8.691527E+8	5.264441E-13	NaN
586	1.000000	0.395563	7.37078e+06	-47789.1	1005.82	-29764.7	0.000000	0.000000	6.394878	0.088891	NaN	0.000000	0.001624	0.001752	28.0784	0.044262	0.002075	21.3355	47.7487	-168.612	0.027888	0.394216	-0.666221	-0.667568	0.088891	21.3355	-0.669346	-7.454881E+8	-1.192380E-10	NaN
586	1.000000	0.403605	7.37078e+06	-47789.1	1005.82	-29764.7	0.000000	0.000000	6.402919	0.068796	NaN	0.000000	0.001615	0.001758	28.0787	0.025682	0.002111	12.1665	6.117551	-164.949	0.084921	0.402309	-0.658180	-0.659475	0.068796	12.1665	-0.662421	-5.992682E+8	-1.148007E-10	NaN
586	1.000000	0.411612	7.37078e+06	-47789.1	1005.82	-29764.7	0.000000	0.000000	6.410925	0.057882	NaN	0.000000	0.001637	0.001769	28.0784	0.038070	0.002144	17.7554	28.788	-165.834	0.119497	0.410295	-0.650173	-0.651489	0.057882	17.7554	-0.652618	-4.398625E+8	-1.315916E-10	NaN
586	1.000000	0.419587	7.37078e+06	-47789.1	1005.82	-29764.7	0.000000	0.000000	6.418902	0.105342	NaN	0.000000	0.001571	0.001773	28.0787	0.030222	0.002025	14.9234	114.648	-167.86	0.065602	0.418327	-0.642198	-0.643458	0.105342	14.9234	-0.647492	-3.741552E+8	-2.815470E-10	NaN
586	1.000000	0.427559	7.37078e+06	-47789.1	1005.82	-29764.7	0.000000	0.000000	6.426871	0.034533	NaN	0.000000	0.001578	0.001742	28.0785	0.051465	0.001973	26.0783	-67.8295	-165.558	0.058116	0.426319	-0.634226	-0.635466	0.034533	26.0783	-0.635219	-2.539084E+8	-1.360069E-10	NaN
586	1.000000	0.435596	7.37078e+06	-47789.1	1005.82	-29764.7	0.000000	0.000000	6.434905	-0.060334	NaN	0.000000	0.001604	0.001782	28.0785	0.101231	0.001903	53.1937	88.2373	-167.338	-0.037475	0.434276	-0.626188	-0.627509	-0.060334	53.1937	-0.625338	-1.857737E+8	3.247729E-10	NaN
586	1.000000	0.443579	7.37078e+06	-47789.1	1005.82	-29764.7	0.000000	0.000000	6.442888	-0.035150	NaN	0.000000	0.001600	0.001786	28.0786	0.010559	0.001989	5.307509	25.257	-167.31	-0.035754	0.442300	-0.618206	-0.619485	-0.035150	5.307509	-0.613239	-1.266691E+8	2.774926E-10	NaN
586	1.000000	0.451603	7.37078e+06	-47789.1	1005.82	-29764.7	0.000000	0.000000	6.450912	-0.033350	NaN	0.000000	0.001600	0.001783	28.0785	0.066294	0.002009	33.0043	-152.574	-166.588	-0.054962	0.450333	-0.610182	-0.611452	-0.033350	33.0043	-0.609424	-1.122515E+8	2.970967E-10	NaN
586	1.000000	0.459627	7.37078e+06	-47789.1	1005.82	-29764.7	0.000000	0.000000	6.458941	0.065120	NaN	0.000000	0.001607	0.001765	28.0786	0.017528	0.001996	8.781298	-145.728	-165.468	0.077946	0.458275	-0.602157	-0.603509	0.065120	8.781298	-0.607719	-1.063487E+8	-6.123294E-10	NaN
586	1.000000	0.467598	7.37078e+06	-47789.1	1005.82	-29764.7	0.000000	0.000000	6.466908	-0.028245	NaN	0.000000	0.001595	0.001778	28.0785	0.032889	0.002004	16.4122	119.938	-167.326	-0.082805	0.466334	-0.594187	-0.595451	-0.028245	16.4122	-0.592896	-6.646426E+7	4.249679E-10	NaN
586	1.000000	0.475612	7.37078e+06	-47789.1	1005.82	-29764.7	0.000000	0.000000	6.474926	0.059520	NaN	0.000000	0.001599	0.001791	28.0786	0.025111	0.001995	12.5885	128.255	-165.532	0.034394	0.474237	-0.586172	-0.587548	0.059520	12.5885	-0.589718	-6.008757E+7	-9.905599E-10	NaN
586	1.000000	0.483631	7.37078e+06	-47789.1	1005.82	-29764.7	0.000000	0.000000	6.482942	0.004461	NaN	0.000000	0.001597	0.001817	28.0784	0.074853	0.001976	37.8746	176.631	-166.183	0.070258	0.482306	-0.578154	-0.579479	0.004461	37.8746	-0.578242	-4.173112E+7	-1.069050E-10	NaN
586	1.000000	0.491597	7.37078e+06	-47789.1	1005.82	-29764.7	0.000000	0.000000	6.490910	0.040144	NaN	0.000000	0.001594	0.001783	28.0784	0.097654	0.001941	50.324	-131.615	-167.796	0.107414	0.490263	-0.570187	-0.571521	0.040144	50.324	-0.570786	-3.292196E+7	-1.219364E-9	NaN
586	1.000000	0.499654	7.37078e+06	-47789.1	1005.82	-29764.7	0.000000	0.000000	6.498963	-0.043371	NaN	0.000000	0.001594	0.001813	28.0785	0.021984	0.001977	11.1174	-99.642	-166.321	-0.075675	0.498321	-0.562130	-0.563464	-0.043371	11.1174	-0.559204	-2.277044E+7	1.904701E-9	NaN
586	1.000000	0.507640	7.37078e+06	-47789.1	1005.82	-29764.7	0.000000	0.000000	6.506953	0.061158	NaN	0.000000	0.001614	0.001799	28.0791	0.095584	0.002003	47.7199	20.7875	-163.75	0.050947	0.506320	-0.554145	-0.555464	0.061158	47.7199	-0.555106	-1.998296E+7	-3.060533E-9	NaN
586	1.000000	0.515618	7.37078e+06	-47789.1	1005.82	-29764.7	0.000000	0.000000	6.514931	0.069102	NaN	0.000000	0.001573	0.001787	28.0786	0.041004	0.001965	20.8724	44.5674	-163.722	0.003482	0.514337	-0.546167	-0.547447	0.069102	20.8724	-0.548650	-1.626509E+7	-4.248461E-9	NaN
586	1.000000	0.523616	7.37078e+06	-47789.1	1005.82	-29764.7	0.000000	0.000000	6.522929	0.052045	NaN	0.000000	0.001594	0.001741	28.0772	0.046296	0.001901	24.3597	-154.731	-166.664	0.028094	0.522304	-0.538168	-0.539480	0.052045	24.3597	-0.539771	-1.225119E+7	-4.248131E-9	NaN
586	1.000000	0.531630	7.37078e+06	-47789.1	1005.82	-29764.7	0.000000	0.000000	6.530939	-0.036849	NaN	0.000000	0.001592	0.001791	28.0772	0.029236	0.001967	14.8668	-60.2545	-163.087	-0.034770	0.530321	-0.530155	-0.531464	-0.036849	14.8668	-0.528296	-8.49001e+06	4.340252E-9	NaN
586	1.000000	0.539661	7.37078e+06	-47789.1	1005.82	-29764.7	0.000000	0.000000	6.538972	-0.018754	NaN	0.000000	0.001593	0.001785	28.0771	0.093318	0.001977	47.2098	-5.641434	-168.395	0.033180	0.538371	-0.522123	-0.523413	-0.018754	47.2098	-0.521825	-6.90207e+06	2.717227E-9	NaN
586	1.000000	0.547627	7.37078e+06	-47789.1	1005.82	-29764.7	0.000000	0.000000	6.546937	-0.028590	NaN	0.000000	0.001580	0.001791	28.0774	0.071492	0.002144	33.3421	98.6668	-166.078	-0.028836	0.546366	-0.514157	-0.515419	-0.028590	33.3421	-0.513514	-5.28869e+06	5.405791E-9	NaN
586	1.000000	0.555650	7.37078e+06	-47789.1	1005.82	-29764.7	0.000000	0.000000	6.554960	-0.029789	NaN	0.000000	0.001606	0.001761	28.0774	0.097499	0.002029	48.0534	-118.818	-164.027	-0.016514	0.554353	-0.506134	-0.507431	-0.029789	48.0534	-0.505669	-4.11219e+06	7.243960E-9	NaN
586	1.000000	0.563669	7.37078e+06	-47789.1	1005.82	-29764.7	0.000000	0.000000	6.562982	0.032894	NaN	0.000000	0.001571	0.001772	28.0772	0.073602	0.002116	34.791	-109.289	-166.989	-0.028653	0.562337	-0.498115	-0.499448	0.032894	34.791	-0.498824	-3.30077e+06	-9.965559E-9	NaN
586	1.000000	0.571656	7.37078e+06	-47789.1	1005.82	-29764.7	0.000000	0.000000	6.570967	0.005627	NaN	0.000000	0.001564	0.001764	28.0771	0.135421	0.002136	63.4056	146.056	-168.711	0.038702	0.570344	-0.490129	-0.491441	0.005627	63.4056	-0.490195	-2.50105e+06	-2.249797E-9	NaN
586	1.000000	0.579690	7.37078e+06	-47789.1	1005.82	-29764.7	0.000000	0.000000	6.579000	-0.004529	NaN	0.000000	0.001578	0.001764	28.0772	0.116664	0.001882	62.0012	78.0064	-167.031	-0.007749	0.578307	-0.482095	-0.483478	-0.004529	62.0012	-0.482040	-1.92346e+06	2.354397E-9	NaN
586	1.000000	0.587673	7.37078e+06	-47789.1	1005.82	-29764.7	0.000000	0.000000	6.586988	0.101298	NaN	0.000000	0.001604	0.001777	28.0774	0.116301	0.001904	61.0917	120.039	-165.285	0.070986	0.586348	-0.474112	-0.475436	0.101298	61.0917	-0.475355	-1.55052e+06	-6.533134E-8	NaN
586	1.000000	0.595659	7.37078e+06	-47789.1	1005.82	-29764.7	0.000000	0.000000	6.594972	0.036356	NaN	0.000000	0.001593	0.001810	28.0775	0.079479	0.001853	42.8999	-12.7226	-165.059	-0.008427	0.594365	-0.466125	-0.467420	0.036356	42.8999	-0.466761	-1.1748e+06	-3.094645E-8	NaN
586	1.000000	0.603667	7.37078e+06	-47789.1	1005.82	-29764.7	0.000000	0.000000	6.602978	0.008870	NaN	0.000000	0.001583	0.001849	28.0774	0.094302	0.001864	50.5998	-85.0686	-164.725	0.043901	0.602374	-0.458118	-0.459410	0.008870	50.5998	-0.458249	-892099	-9.942941E-9	NaN
586	1.000000	0.611648	7.37078e+06	-47789.1	1005.82	-29764.7	0.000000	0.000000	6.610961	0.036207	NaN	0.000000	0.001604	0.001770	28.0773	0.026293	0.002063	12.7458	107.826	-166.751	0.051223	0.610402	-0.450136	-0.451382	0.036207	12.7458	-0.452267	-734947	-4.926480E-8	NaN
586	1.000000	0.619671	7.37078e+06	-47789.1	1005.82	-29764.7	0.000000	0.000000	6.618981	-0.019858	NaN	0.000000	0.001607	0.001761	28.0772	0.057621	0.002020	28.5316	108.721	-165.224	0.025501	0.618366	-0.442114	-0.443418	-0.019858	28.5316	-0.441592	-519788	3.820330E-8	NaN
586	1.000000	0.627663	7.37078e+06	-47789.1	1005.82	-29764.7	0.000000	0.000000	6.626974	-0.005109	NaN	0.000000	0.001592	0.001756	28.0773	0.118061	0.001973	59.8301	-31.5305	-164.703	-0.003498	0.626412	-0.434122	-0.435373	-0.005109	59.8301	-0.434057	-406850	1.255706E-8	NaN
586	1.000000	0.635696	7.37078e+06	-47789.1	1005.82	-29764.7	0.000000	0.000000	6.635009	0.051665	NaN	0.000000	0.001591	0.001758	28.0775	0.141074	0.001970	71.6018	140.884	-163.96	0.014851	0.634369	-0.426089	-0.427416	0.051665	71.6018	-0.426630	-319425	-1.617429E-7	NaN
586	1.000000	0.643663	7.37078e+06	-47789.1	1005.82	-29764.7	0.000000	0.000000	6.642974	-8.892505E-6	NaN	0.000000	0.001596	0.001761	28.0773	0.065298	0.002059	31.7089	-170.912	-165.248	-0.022462	0.642375	-0.418122	-0.419409	-8.892505E-6	31.7089	-0.418122	-241975	3.674973E-11	NaN
586	1.000000	0.651726	7.37078e+06	-47789.1	1005.82	-29764.7	0.000000	0.000000	6.651040	0.052671	NaN	0.000000	0.001572	0.001739	28.0777	0.069999	0.002000	34.9939	-140.137	-165.128	-0.021360	0.650399	-0.410058	-0.411386	0.052671	34.9939	-0.411187	-192876	-2.730824E-7	NaN
586	1.000000	0.659676	7.37078e+06	-47789.1	1005.82	-29764.7	0.000000	0.000000	6.658989	0.047225	NaN	0.000000	0.001545	0.001741	28.0785	0.038487	0.002190	17.5767	141.515	-166.679	0.017128	0.658374	-0.402108	-0.403411	0.047225	17.5767	-0.404123	-153025	-3.086073E-7	NaN
586	1.000000	0.667680	7.37078e+06	-47789.1	1005.82	-29764.7	0.000000	0.000000	6.666994	0.070112	NaN	0.000000	0.001577	0.001709	28.0785	0.058567	0.001904	30.7541	-39.1113	-166.172	0.071676	0.666384	-0.394105	-0.395401	0.070112	30.7541	-0.395815	-116485	-6.018991E-7	NaN
586	1.000000	0.675712	7.37078e+06	-47789.1	1005.82	-29764.7	0.000000	0.000000	6.675026	0.064890	NaN	0.000000	0.001574	0.001743	28.0784	0.086805	0.001966	44.1582	-175.993	-162.82	0.105266	0.674400	-0.386072	-0.387384	0.064890	44.1582	-0.387175	-87645.9	-7.403700E-7	NaN
586	1.000000	0.683668	7.37078e+06	-47789.1	1005.82	-29764.7	0.000000	0.000000	6.682980	0.018968	NaN	0.000000	0.001575	0.001734	28.0784	0.033077	0.002003	16.5149	-173.872	-162.162	0.036687	0.682414	-0.378116	-0.379371	0.018968	16.5149	-0.378978	-66867.3	-2.836709E-7	NaN
586	1.000000	0.691698	7.37078e+06	-47789.1	1005.82	-29764.7	0.000000	0.000000	6.691007	-0.056508	NaN	0.000000	0.001599	0.001740	28.0788	0.021676	0.001969	11.0076	52.7467	-164.777	0.012772	0.690407	-0.370087	-0.371378	-0.056508	11.0076	-0.366236	-43841.9	1.288901E-6	NaN
586	1.000000	0.699724	7.37078e+06	-47789.1	1005.82	-29764.7	0.000000	0.000000	6.699036	0.019275	NaN	0.000000	0.001619	0.001733	28.0785	0.123866	0.001845	67.1491	-53.1694	-166.72	0.044520	0.698417	-0.362061	-0.363367	0.019275	67.1491	-0.362276	-38435.3	-5.014827E-7	NaN
586	1.000000	0.707692	7.37078e+06	-47789.1	1005.82	-29764.7	0.000000	0.000000	6.707004	0.034725	NaN	0.000000	0.001629	0.001707	28.0786	0.116652	0.002046	57.0283	151.14	-169.333	0.064556	0.706335	-0.354093	-0.355450	0.034725	57.0283	-0.354549	-29714.5	-1.168605E-6	NaN
586	1.000000	0.715709	7.37078e+06	-47789.1	1005.82	-29764.7	0.000000	0.000000	6.715021	0.011560	NaN	0.000000	0.001624	0.001747	28.0783	0.086124	0.001956	44.0292	-172.177	-164.962	0.011751	0.714365	-0.346075	-0.347419	0.011560	44.0292	-0.346272	-22535	-5.129991E-7	NaN
586	1.000000	0.723704	7.37078e+06	-47789.1	1005.82	-29764.7	0.000000	0.000000	6.723016	0.024713	NaN	0.000000	0.001619	0.001735	28.0785	0.088761	0.001943	45.6891	137.727	-167.156	0.038668	0.722426	-0.338080	-0.339359	0.024713	45.6891	-0.338486	-17357	-1.423805E-6	NaN
586	1.000000	0.731711	7.37078e+06	-47789.1	1005.82	-29764.7	0.000000	0.000000	6.731022	-0.001203	NaN	0.000000	0.001602	0.001748	28.0787	0.144608	0.001998	72.3586	67.877	-168.237	-0.029087	0.730444	-0.330074	-0.331340	-0.001203	72.3586	-0.330061	-13072.1	9.203642E-8	NaN
586	1.000000	0.739739	7.37078e+06	-47789.1	1005.82	-29764.7	0.000000	0.000000	6.739051	0.009678	NaN	0.000000	0.001594	0.001762	28.0784	0.022963	0.002041	11.2529	17.6838	-164.018	-0.019372	0.738439	-0.322045	-0.323346	0.009678	11.2529	-0.322690	-10190.8	-9.497191E-7	NaN
586	1.000000	0.747706	7.37078e+06	-47789.1	1005.82	-29764.7	0.000000	0.000000	6.747015	-0.059375	NaN	0.000000	0.001611	0.001754	28.0785	0.072579	0.002041	35.5528	-31.6502	-165.064	-0.071010	0.746402	-0.314078	-0.315383	-0.059375	35.5528	-0.312826	-7291.87	8.142569E-6	NaN
586	1.000000	0.755760	7.37078e+06	-47789.1	1005.82	-29764.7	0.000000	0.000000	6.755071	-0.010506	NaN	0.000000	0.001617	0.001735	28.0786	0.113841	0.002030	56.0808	-63.589	-164.645	-0.004669	0.754433	-0.306024	-0.307352	-0.010506	56.0808	-0.305884	-5755.3	1.825525E-6	NaN
586	1.000000	0.763727	7.37078e+06	-47789.1	1005.82	-29764.7	0.000000	0.000000	6.763037	-0.028160	NaN	0.000000	0.001596	0.001741	28.0787	0.002692	0.001918	1.403845	22.1887	-162.195	-0.012743	0.762444	-0.298058	-0.299341	-0.028160	1.403845	-0.283013	-2620.48	1.074597E-5	NaN
586	1.000000	0.771749	7.37078e+06	-47789.1	1005.82	-29764.7	0.000000	0.000000	6.771060	0.001666	NaN	0.000000	0.001576	0.001739	28.0784	0.078902	0.001866	42.274	-49.1308	-166.993	-0.028341	0.770381	-0.290036	-0.291404	0.001666	42.274	-0.290066	-3344.14	-4.980517E-7	NaN
586	1.000000	0.779742	7.37078e+06	-47789.1	1005.82	-29764.7	0.000000	0.000000	6.779052	-0.035799	NaN	0.000000	0.001577	0.001765	28.0784	0.046985	0.001887	24.8959	-70.592	-163.91	-0.041298	0.778397	-0.282042	-0.283387	-0.035799	24.8959	-0.280964	-2440.67	1.466752E-5	NaN
586	1.000000	0.787753	7.37078e+06	-47789.1	1005.82	-29764.7	0.000000	0.000000	6.787061	-0.055897	NaN	0.000000	0.001629	0.001767	28.0784	0.147935	0.001968	75.1619	-62.3049	-164.618	-0.052136	0.786410	-0.274032	-0.275375	-0.055897	75.1619	-0.273474	-1880.55	2.972362E-5	NaN
586	1.000000	0.795749	7.37078e+06	-47789.1	1005.82	-29764.7	0.000000	0.000000	6.795060	-0.018745	NaN	0.000000	0.001611	0.001733	28.0773	0.037852	0.002036	18.5925	86.0663	-168.265	-0.050955	0.794408	-0.266035	-0.267377	-0.018745	18.5925	-0.265279	-1411.39	1.328094E-5	NaN
586	1.000000	0.803759	7.37078e+06	-47789.1	1005.82	-29764.7	0.000000	0.000000	6.803069	-0.019744	NaN	0.000000	0.001592	0.001817	28.0773	0.095020	0.002045	46.4722	-86.5231	-167.236	0.075978	0.802498	-0.258026	-0.259287	-0.019744	46.4722	-0.257707	-1080.8	1.826795E-5	NaN
586	1.000000	0.811758	7.37078e+06	-47789.1	1005.82	-29764.7	0.000000	0.000000	6.811066	-0.080260	NaN	0.000000	0.001595	0.001763	28.0771	0.037972	0.002026	18.7422	-3.316719	-165.011	0.006405	0.810412	-0.250027	-0.251373	-0.080260	18.7422	-0.246815	-733.892	0.000109	NaN
586	1.000000	0.819756	7.37078e+06	-47789.1	1005.82	-29764.7	0.000000	0.000000	6.819067	-0.002851	NaN	0.000000	0.001598	0.001748	28.0771	0.030559	0.001934	15.8013	-139.93	-167.291	0.046479	0.818441	-0.242029	-0.243344	-0.002851	15.8013	-0.241893	-615.311	4.633998E-6	NaN
586	1.000000	0.827770	7.37078e+06	-47789.1	1005.82	-29764.7	0.000000	0.000000	6.827081	0.012179	NaN	0.000000	0.001625	0.001756	28.0771	0.069031	0.001947	35.4516	41.5255	-163.502	0.014897	0.826411	-0.234015	-0.235374	0.012179	35.4516	-0.234272	-467.541	-2.604908E-5	NaN
586	1.000000	0.835715	7.37078e+06	-47789.1	1005.82	-29764.7	0.000000	0.000000	6.835024	-0.039971	NaN	0.000000	0.001617	0.001740	28.0774	0.042745	0.002067	20.677	-63.4346	-165.152	-0.015442	0.834482	-0.226070	-0.227302	-0.039971	20.677	-0.224620	-329.074	0.000121	NaN
586	1.000000	0.843777	7.37078e+06	-47789.1	1005.82	-29764.7	0.000000	0.000000	6.843087	-0.038477	NaN	0.000000	0.001586	0.001742	28.0772	0.094710	0.002043	46.3567	-81.1909	-169.921	-0.001903	0.842381	-0.218007	-0.219403	-0.038477	46.3567	-0.217385	-252.239	0.000153	NaN
586	1.000000	0.851787	7.37078e+06	-47789.1	1005.82	-29764.7	0.000000	0.000000	6.851099	0.030310	NaN	0.000000	0.001605	0.001782	28.0773	0.036288	0.001936	18.7391	171.086	-167.345	0.043208	0.850429	-0.209997	-0.211356	0.030310	18.7391	-0.211211	-200.635	-0.000151	NaN
586	1.000000	0.859745	7.37078e+06	-47789.1	1005.82	-29764.7	0.000000	0.000000	6.859057	0.025065	NaN	0.000000	0.001598	0.001780	28.0773	0.055607	0.002157	25.7772	-176.61	-168.17	0.080488	0.858435	-0.202040	-0.203349	0.025065	25.7772	-0.202769	-146.254	-0.000171	NaN
586	1.000000	0.867772	7.37078e+06	-47789.1	1005.82	-29764.7	0.000000	0.000000	6.867084	0.028509	NaN	0.000000	0.001615	0.001781	28.0772	0.060676	0.002021	30.0232	-46.633	-167.15	0.098575	0.866518	-0.194013	-0.195266	0.028509	30.0232	-0.194725	-107.806	-0.000264	NaN
586	1.000000	0.875801	7.37078e+06	-47789.1	1005.82	-29764.7	0.000000	0.000000	6.875112	-0.014585	NaN	0.000000	0.001619	0.001813	28.0775	0.023678	0.001926	12.2905	118.08	-169.154	0.020938	0.874507	-0.185983	-0.187278	-0.014585	12.2905	-0.185093	-74.4225	0.000196	NaN
586	1.000000	0.883820	7.37078e+06	-47789.1	1005.82	-29764.7	0.000000	0.000000	6.883131	0.006980	NaN	0.000000	0.001633	0.001788	28.0772	0.108567	0.002019	53.7687	-75.7527	-165.895	0.033513	0.882449	-0.177965	-0.179335	0.006980	53.7687	-0.178062	-56.5501	-0.000123	NaN
586	1.000000	0.891772	7.37078e+06	-47789.1	1005.82	-29764.7	0.000000	0.000000	6.891086	0.063221	NaN	0.000000	0.001618	0.001798	28.0774	0.018661	0.002089	8.933731	-171.311	-167.88	0.016437	0.890480	-0.170012	-0.171305	0.063221	8.933731	-0.175320	-50.7541	-0.001246	NaN
586	1.000000	0.899764	7.37078e+06	-47789.1	1005.82	-29764.7	0.000000	0.000000	6.899072	-0.065571	NaN	0.000000	0.001611	0.001765	28.0774	0.014460	0.002005	7.211500	96.7763	-169.054	0.001706	0.898499	-0.162021	-0.163286	-0.065571	7.211500	-0.155201	-22.501	0.002914	NaN
586	1.000000	0.907784	7.37078e+06	-47789.1	1005.82	-29764.7	0.000000	0.000000	6.907098	0.057654	NaN	0.000000	0.001618	0.001721	28.0772	0.075117	0.001987	37.7977	-51.2038	-166.438	0.076868	0.906487	-0.154000	-0.155297	0.057654	37.7977	-0.155144	-22.448	-0.002568	NaN
586	1.000000	0.915780	7.37078e+06	-47789.1	1005.82	-29764.7	0.000000	0.000000	6.915095	0.076828	NaN	0.000000	0.001602	0.001716	28.0776	0.010714	0.001914	5.596164	131.484	-167.866	0.032301	0.914526	-0.146004	-0.147258	0.076828	5.596164	-0.156301	-23.5477	-0.003263	NaN
586	1.000000	0.923846	7.37078e+06	-47789.1	1005.82	-29764.7	0.000000	0.000000	6.923158	0.025510	NaN	0.000000	0.001601	0.001755	28.0772	0.060054	0.002082	28.8507	178.738	-167.785	0.057081	0.922482	-0.137939	-0.139302	0.025510	28.8507	-0.138602	-11.134	-0.002291	NaN
586	1.000000	0.931777	7.37078e+06	-47789.1	1005.82	-29764.7	0.000000	0.000000	6.931091	0.071431	NaN	0.000000	0.001604	0.001753	28.0787	0.064915	0.002028	32.0138	-14.3479	-164.44	0.041839	0.930532	-0.130008	-0.131252	0.071431	32.0138	-0.131681	-8.214369	-0.008696	NaN
586	1.000000	0.939793	7.37078e+06	-47789.1	1005.82	-29764.7	0.000000	0.000000	6.939102	-0.029581	NaN	0.000000	0.001595	0.001783	28.0785	0.124052	0.002163	57.3519	-153.668	-168.755	0.013903	0.938482	-0.121992	-0.123302	-0.029581	57.3519	-0.121605	-5.204414	0.005684	NaN
586	1.000000	0.947818	7.37078e+06	-47789.1	1005.82	-29764.7	0.000000	0.000000	6.947127	-0.045601	NaN	0.000000	0.001619	0.001783	28.0783	0.067032	0.002061	32.5276	-141.726	-163.816	0.091644	0.946513	-0.113966	-0.115271	-0.045601	32.5276	-0.112915	-3.458795	0.013184	NaN
586	1.000000	0.955819	7.37078e+06	-47789.1	1005.82	-29764.7	0.000000	0.000000	6.955130	0.016346	NaN	0.000000	0.001605	0.001799	28.0786	0.065800	0.002175	30.2502	147.089	-165.517	0.100672	0.954481	-0.105966	-0.107303	0.016346	30.2502	-0.106371	-2.515882	-0.006497	NaN
586	1.000000	0.963817	7.37078e+06	-47789.1	1005.82	-29764.7	0.000000	0.000000	6.963126	-0.029583	NaN	0.000000	0.001575	0.001781	28.0784	0.078433	0.001994	39.3412	-145.304	-167.827	-0.014793	0.962482	-0.097968	-0.099302	-0.029583	39.3412	-0.097404	-1.598901	0.018502	NaN
586	1.000000	0.971815	7.37078e+06	-47789.1	1005.82	-29764.7	0.000000	0.000000	6.971128	0.038304	NaN	0.000000	0.001574	0.001798	28.0785	0.114117	0.002067	55.2051	104.838	-167.538	-0.019836	0.970531	-0.089969	-0.091254	0.038304	55.2051	-0.090490	-1.109915	-0.034510	NaN
586	1.000000	0.979824	7.37078e+06	-47789.1	1005.82	-29764.7	0.000000	0.000000	6.979136	0.012925	NaN	0.000000	0.001583	0.001792	28.0784	0.036566	0.001916	19.0877	149.615	-164.763	0.011578	0.978472	-0.081960	-0.083312	0.012925	19.0877	-0.082468	-0.712695	-0.018136	NaN
586	1.000000	0.987814	7.37078e+06	-47789.1	1005.82	-29764.7	0.000000	0.000000	6.987128	0.074832	NaN	0.000000	0.001560	0.001787	28.0786	0.099921	0.002052	48.6945	117.026	-166.818	0.028394	0.986529	-0.073971	-0.075255	0.074832	48.6945	-0.075124	-0.465281	-0.160832	NaN
586	1.000000	0.995847	7.37078e+06	-47789.1	1005.82	-29764.7	0.000000	0.000000	6.995161	0.071543	NaN	0.000000	0.001626	0.001796	28.0787	0.015184	0.002040	7.441395	102.369	-167.055	0.056459	0.994546	-0.065937	-0.067239	0.071543	7.441395	-0.073148	-0.413333	-0.173088	NaN
586	1.000000	1.003811	7.37078e+06	-47789.1	1005.82	-29764.7	0.000000	0.000000	7.003121	-0.012844	NaN	0.000000	0.001580	0.001741	28.0785	0.057321	0.002031	28.2215	-163.658	-169.105	-0.013684	1.002484	-0.057974	-0.059300	-0.012844	28.2215	-0.057633	-0.153843	0.083490	NaN
586	1.000000	1.011795	7.37078e+06	-47789.1	1005.82	-29764.7	0.000000	0.000000	7.011109	0.076198	NaN	0.000000	0.001594	0.001754	28.0788	0.053757	0.001956	27.4778	-36.1975	-166.174	0.052208	1.010490	-0.049990	-0.051295	0.076198	27.4778	-0.052070	-0.105337	-0.723372	NaN
586	1.000000	1.019826	7.37078e+06	-47789.1	1005.82	-29764.7	0.000000	0.000000	7.019139	0.050976	NaN	0.000000	0.001592	0.001776	28.0787	0.063015	0.001835	34.3379	-102.057	-166.063	0.084130	1.018498	-0.041958	-0.043286	0.050976	34.3379	-0.043072	-0.056107	-0.908539	NaN
586	1.000000	1.027847	7.37078e+06	-47789.1	1005.82	-29764.7	0.000000	0.000000	7.027158	-0.009647	NaN	0.000000	0.001566	0.001751	28.0787	0.109123	0.002068	52.755	133.179	-166.927	0.039242	1.026570	-0.033937	-0.035214	-0.009647	52.755	-0.033800	-0.029535	0.326634	NaN
586	1.000000	1.035830	7.37078e+06	-47789.1	1005.82	-29764.7	0.000000	0.000000	7.035142	0.022039	NaN	0.000000	0.001576	0.001777	28.0785	0.032223	0.002000	16.1153	-10.5498	-167.69	0.054143	1.034560	-0.025955	-0.027224	0.022039	16.1153	-0.026980	-0.019032	-1.157992	NaN
586	1.000000	1.043849	7.37078e+06	-47789.1	1005.82	-29764.7	0.000000	0.000000	7.043161	0.015336	NaN	0.000000	0.001567	0.001733	28.0785	0.014245	0.001951	7.302862	11.3182	-168.098	0.009153	1.042554	-0.017935	-0.019230	0.015336	7.302862	-0.019510	-0.012205	-1.256487	NaN
586	1.000000	1.051852	7.37078e+06	-47789.1	1005.82	-29764.7	0.000000	0.000000	7.051164	0.017790	NaN	0.000000	0.001598	0.001733	28.0786	0.005855	0.002069	2.829338	166.817	-167.9	0.022737	1.050542	-0.009933	-0.011242	0.017790	2.829338	-0.014648	-0.009066	-1.962304	NaN
586	1.000000	1.059865	7.37078e+06	-47789.1	1005.82	-29764.7	0.000000	0.000000	7.059233	1.374119	NaN	0.000000	0.001568	0.001762	28.0789	2.160591	0.002055	1051.14	10.309	-167.504	0.511972	1.058544	-0.001920	-0.003240	1.374119	1051.14	-0.002900	-0.002053	-669.176	NaN
586	2.000000	1.067235	7.37078e+06	-47789.1	1005.82	-29764.7	0.000000	0.000000	7.066950	9.813856	NaN	0.000000	0.001549	0.001762	28.0774	9.395103	0.001624	5786.87	8.439405	-171.695	9.052947	1.066492	0.005450	0.004707	9.813856	5786.87	0.004179	0.003396	2889.79	90725.7
586	2.000000	1.069370	7.37078e+06	-47789.1	1005.82	-29764.7	0.000000	0.000000	7.069217	13.0514	NaN	0.000000	0.001577	0.001770	28.0772	11.3507	0.001539	7374.42	6.415237	-174.716	11.5158	1.069023	0.007585	0.007238	13.0514	7374.42	0.006258	0.005311	2457.58	92454.2
586	2.000000	1.071417	7.37078e+06	-47789.1	1005.82	-29764.7	0.000000	0.000000	7.071279	13.4111	NaN	0.000000	0.001570	0.001763	28.0788	14.0554	0.001789	7858.52	4.817050	-172.51	13.018	1.071049	0.009632	0.009265	13.4111	7858.52	0.008352	0.007407	1810.56	83423.6
586	2.000000	1.073353	7.37078e+06	-47789.1	1005.82	-29764.7	0.000000	0.000000	7.073384	17.5143	NaN	0.000000	0.001549	0.001743	28.0772	15.3952	0.001687	9126.03	5.417354	-175.514	16.9016	1.072982	0.011568	0.011198	17.5143	9126.03	0.010129	0.009325	1878.26	86344.9
586	2.000000	1.075354	7.37078e+06	-47789.1	1005.82	-29764.7	0.000000	0.000000	7.075570	22.0037	NaN	0.000000	0.001578	0.001769	28.0773	18.2909	0.001802	10152.3	8.469287	-178.65	22.355	1.074990	0.013570	0.013206	22.0037	10152.3	0.011944	0.011423	1926.26	86785.3
586	2.000000	1.077347	7.37078e+06	-47789.1	1005.82	-29764.7	0.000000	0.000000	7.077742	26.3809	NaN	0.000000	0.001538	0.001763	28.0777	19.8128	0.001828	10839.5	7.429028	-177.242	25.9681	1.076978	0.015562	0.015193	26.3809	10839.5	0.013737	0.013638	1934.4	84802.8
586	2.000000	1.079285	7.37079e+06	-47789.1	1005.82	-29764.7	0.000000	0.000000	7.079791	29.0697	NaN	0.000000	0.001555	0.001780	28.0772	21.7618	0.001793	12140.2	8.020961	-178.264	28.1474	1.079003	0.017500	0.017218	29.0697	12140.2	0.015704	0.016236	1790.45	87048.3
586	2.000000	1.081282	7.37079e+06	-47789.1	1005.82	-29764.7	0.000000	0.000000	7.081946	32.9072	NaN	0.000000	0.001588	0.001761	28.0781	23.7279	0.001786	13286	4.006295	-177.306	30.8402	1.081040	0.019498	0.019255	32.9072	13286	0.017640	0.018969	1734.8	88134.9
586	2.000000	1.083291	7.37079e+06	-47789.1	1005.82	-29764.7	0.000000	0.000000	7.084175	38.2588	NaN	0.000000	0.001545	0.001759	28.0774	25.0655	0.001758	14259	5.788439	-179.412	36.972	1.083020	0.021507	0.021236	38.2588	14259	0.019494	0.021754	1758.73	88327.2
586	2.000000	1.085291	7.37079e+06	-47789.1	1005.82	-29764.7	0.000000	0.000000	7.086295	41.1763	NaN	0.000000	0.001546	0.001753	28.0774	27.7122	0.001897	14605.3	5.152837	-178.735	40.4088	1.084989	0.023506	0.023204	41.1763	14605.3	0.021392	0.024776	1661.92	84774.7
586	2.000000	1.087305	7.37079e+06	-47789.1	1005.82	-29764.7	0.000000	0.000000	7.088529	46.5094	NaN	0.000000	0.001570	0.001749	28.0776	29.6898	0.001779	16689.7	6.000159	178.814	46.3619	1.087085	0.025521	0.025300	46.5094	16689.7	0.023431	0.028223	1647.95	90766.2
586	2.000000	1.089285	7.37079e+06	-47789.1	1005.82	-29764.7	0.000000	0.000000	7.090937	56.9385	NaN	0.000000	0.001617	0.001726	28.0774	30.5538	0.001592	19197.5	2.862508	-179.579	55.9159	1.088967	0.027500	0.027183	56.9385	19197.5	0.025276	0.031520	1806.44	98793.1
586	2.000000	1.091299	7.37079e+06	-47789.1	1005.82	-29764.7	0.000000	0.000000	7.092945	56.796	NaN	0.000000	0.001595	0.001770	28.0787	35.1499	0.001955	17980.1	8.404188	176.361	56.4996	1.091048	0.029515	0.029264	56.796	17980.1	0.027145	0.035035	1621.13	87763.7
586	2.000000	1.093271	7.37079e+06	-47789.1	1005.82	-29764.7	0.000000	0.000000	7.095235	64.5232	NaN	0.000000	0.001574	0.001762	28.0774	34.5488	0.001776	19456.9	-0.606322	-176.025	62.8655	1.093000	0.031487	0.031215	64.5232	19456.9	0.029000	0.038696	1667.44	90367.5
586	2.000000	1.095253	7.37079e+06	-47789.1	1005.82	-29764.7	0.000000	0.000000	7.097512	71.7162	NaN	0.000000	0.001576	0.001738	28.0775	38.0431	0.001856	20494.6	4.114696	179.394	70.0347	1.094949	0.033468	0.033165	71.7162	20494.6	0.030844	0.042511	1687	90815.7
586	2.000000	1.097385	7.37079e+06	-47789.1	1005.82	-29764.7	0.000000	0.000000	7.099772	74.8212	NaN	0.000000	0.001593	0.001798	28.0774	39.6844	0.001818	21829.1	2.165582	-179.384	78.2119	1.097048	0.035600	0.035263	74.8212	21829.1	0.033030	0.047258	1583.26	91743.1
586	2.000000	1.099246	7.37079e+06	-47789.1	1005.82	-29764.7	0.000000	0.000000	7.102217	89.0127	NaN	0.000000	0.001576	0.001800	28.0774	42.2142	0.001780	23719.4	8.656264	173.095	88.1809	1.098877	0.037462	0.037092	89.0127	23719.4	0.034647	0.050927	1747.84	96029
586	2.000000	1.101254	7.37079e+06	-47789.1	1005.82	-29764.7	0.000000	0.000000	7.104320	91.3466	NaN	0.000000	0.001588	0.001802	28.0791	44.9183	0.001838	24439.7	5.832413	175.401	90.5314	1.100951	0.039469	0.039166	91.3466	24439.7	0.036666	0.055696	1640.1	94614.7
586	2.000000	1.103224	7.37079e+06	-47789.1	1005.82	-29764.7	0.000000	0.000000	7.106708	101.506	NaN	0.000000	0.001595	0.001792	28.0786	45.7942	0.001945	23538.8	3.657347	178.626	97.9335	1.102943	0.041439	0.041158	101.506	23538.8	0.038205	0.059472	1706.79	88186.5
586	2.000000	1.105266	7.37079e+06	-47789.1	1005.82	-29764.7	0.000000	0.000000	7.109089	109.738	NaN	0.000000	0.001566	0.001809	28.0787	47.7085	0.001856	25706	7.452706	174.62	109.116	1.104896	0.043481	0.043111	109.738	25706	0.040280	0.064753	1694.72	92295
586	2.000000	1.107248	7.37079e+06	-47789.1	1005.82	-29764.7	0.000000	0.000000	7.111310	115.556	NaN	0.000000	0.001622	0.001766	28.0789	49.4371	0.001769	27954.2	7.236366	173.705	113.578	1.106928	0.045464	0.045143	115.556	27954.2	0.042363	0.070279	1644.25	96340.5
586	2.000000	1.109254	7.37079e+06	-47789.1	1005.82	-29764.7	0.000000	0.000000	7.113707	125.055	NaN	0.000000	0.001606	0.001764	28.0786	49.9928	0.001845	27101.1	1.776881	179.213	124.048	1.108867	0.047470	0.047082	125.055	27101.1	0.044009	0.074798	1671.9	90534.5
586	2.000000	1.111344	7.37079e+06	-47789.1	1005.82	-29764.7	0.000000	0.000000	7.116034	130.844	NaN	0.000000	0.001582	0.001774	28.0794	54.4317	0.001947	27958.7	8.929716	171.903	135.142	1.111019	0.049559	0.049235	130.844	27958.7	0.046049	0.080594	1623.5	89978.4
586	2.000000	1.113237	7.37079e+06	-47789.1	1005.82	-29764.7	0.000000	0.000000	7.118372	141.659	NaN	0.000000	0.001611	0.001786	28.0787	54.0935	0.001825	29641.2	8.233212	171.442	139.806	1.113045	0.051452	0.051260	141.659	29641.2	0.047868	0.085937	1648.4	92380.1
586	2.000000	1.115193	7.37079e+06	-47789.1	1005.82	-29764.7	0.000000	0.000000	7.120758	152.136	NaN	0.000000	0.001593	0.001797	28.0788	56.2162	0.001729	32516.4	3.526109	175.726	150.342	1.114900	0.053408	0.053115	152.136	32516.4	0.049899	0.092101	1651.84	97891.1
586	2.000000	1.117288	7.37079e+06	-47789.1	1005.82	-29764.7	0.000000	0.000000	7.123315	163.366	NaN	0.000000	0.001583	0.001745	28.0785	59.1971	0.001914	30926.7	5.713187	175.188	163.53	1.116933	0.055503	0.055148	163.366	30926.7	0.051541	0.097237	1680.08	90613
586	2.000000	1.119303	7.37079e+06	-47789.1	1005.82	-29764.7	0.000000	0.000000	7.125781	174.318	NaN	0.000000	0.001580	0.001800	28.0786	60.623	0.001713	35399.3	5.816078	173.142	178.327	1.118897	0.057519	0.057113	174.318	35399.3	0.053825	0.104603	1666.48	99999.1
586	2.000000	1.121236	7.37079e+06	-47789.1	1005.82	-29764.7	0.000000	0.000000	7.128076	183.142	NaN	0.000000	0.001606	0.001810	28.0788	62.5473	0.001816	34444.4	1.899613	177.226	182.137	1.120946	0.059451	0.059161	183.142	34444.4	0.055463	0.110045	1664.24	94865
586	2.000000	1.123186	7.37079e+06	-47789.1	1005.82	-29764.7	0.000000	0.000000	7.130401	192.27	NaN	0.000000	0.001624	0.001796	28.0788	64.1131	0.001861	34449.4	4.181660	174.541	188.304	1.122862	0.061401	0.061078	192.27	34449.4	0.057215	0.116012	1657.33	92406.8
586	2.000000	1.125161	7.37079e+06	-47789.1	1005.82	-29764.7	0.000000	0.000000	7.132991	207.184	NaN	0.000000	0.001617	0.001839	28.0788	66.6227	0.001804	36938.6	3.099085	175.385	203.082	1.124945	0.063377	0.063161	207.184	36938.6	0.059170	0.122850	1686.49	96286.8
586	2.000000	1.127248	7.37079e+06	-47789.1	1005.82	-29764.7	0.000000	0.000000	7.135484	217.075	NaN	0.000000	0.001632	0.001786	28.0788	69.1201	0.001885	36671	1.879508	177.078	215.374	1.126881	0.065463	0.065097	217.075	36671	0.061024	0.129505	1676.19	93100.7
586	2.000000	1.129147	7.37079e+06	-47789.1	1005.82	-29764.7	0.000000	0.000000	7.138002	232.128	NaN	0.000000	0.001584	0.001756	28.0791	70.7759	0.001823	38833.1	6.730943	172.046	229.315	1.128838	0.067363	0.067054	232.128	38833.1	0.062880	0.136337	1702.61	96088
586	2.000000	1.131208	7.37079e+06	-47789.1	1005.82	-29764.7	0.000000	0.000000	7.140508	242.963	NaN	0.000000	0.001624	0.001739	28.0788	73.6766	0.001868	39440.4	4.725196	173.67	241.892	1.130829	0.069424	0.069044	242.963	39440.4	0.064804	0.143595	1692	95092.3
586	2.000000	1.133211	7.37079e+06	-47789.1	1005.82	-29764.7	0.000000	0.000000	7.142850	251.206	NaN	0.000000	0.001590	0.001753	28.0787	73.848	0.001771	41696.8	4.986999	172.775	248.352	1.132837	0.071426	0.071052	251.206	41696.8	0.066908	0.151736	1655.54	97798.3
586	2.000000	1.135298	7.37079e+06	-47789.1	1005.82	-29764.7	0.000000	0.000000	7.145491	264.682	NaN	0.000000	0.001610	0.001739	28.0775	77.2604	0.001884	41001.3	6.773884	171.069	268.572	1.134928	0.073513	0.073143	264.682	41001.3	0.068672	0.158727	1667.53	94025.5
586	2.000000	1.137216	7.37079e+06	-47789.1	1005.82	-29764.7	0.000000	0.000000	7.148030	279.766	NaN	0.000000	0.001606	0.001760	28.0777	78.3146	0.001766	44354.4	7.256983	170.027	277.235	1.136880	0.075432	0.075096	279.766	44354.4	0.070701	0.166952	1675.73	99177.9
586	2.000000	1.139135	7.37079e+06	-47789.1	1005.82	-29764.7	0.000000	0.000000	7.150726	298.668	NaN	0.000000	0.001586	0.001814	28.0777	79.1066	0.001863	42459.7	2.074426	175.978	293.032	1.138846	0.077351	0.077061	298.668	42459.7	0.072075	0.172632	1730.09	93366.3
586	2.000000	1.141170	7.37079e+06	-47789.1	1005.82	-29764.7	0.000000	0.000000	7.153163	308.46	NaN	0.000000	0.001609	0.001783	28.0774	81.2818	0.001705	47672.5	4.616348	171.837	304.621	1.140938	0.079385	0.079154	308.46	47672.5	0.074532	0.183012	1685.46	101813
586	2.000000	1.143088	7.37079e+06	-47789.1	1005.82	-29764.7	0.000000	0.000000	7.155643	322.143	NaN	0.000000	0.001588	0.001779	28.0778	81.7585	0.001726	47375.4	2.540142	173.817	315.015	1.142863	0.081303	0.081078	322.143	47375.4	0.076204	0.190235	1693.4	99238.7
586	2.000000	1.145147	7.37079e+06	-47789.1	1005.82	-29764.7	0.000000	0.000000	7.158363	338.195	NaN	0.000000	0.001613	0.001751	28.0776	84.2937	0.001672	50413.1	0.225547	175.982	332.545	1.144844	0.083363	0.083060	338.195	50413.1	0.078332	0.199621	1694.19	103089
586	2.000000	1.147224	7.37079e+06	-47789.1	1005.82	-29764.7	0.000000	0.000000	7.160874	348.756	NaN	0.000000	0.001607	0.001760	28.0776	87.7238	0.001720	51002.8	3.463496	172.443	346.987	1.146786	0.085440	0.085001	348.756	51002.8	0.080311	0.208543	1672.35	102040
586	2.000000	1.149124	7.37079e+06	-47789.1	1005.82	-29764.7	0.000000	0.000000	7.163501	366.469	NaN	0.000000	0.001595	0.001749	28.0775	89.4178	0.001614	55397.4	5.217270	170.343	362.805	1.148851	0.087339	0.087067	366.469	55397.4	0.082378	0.218051	1680.66	108389
586	2.000000	1.151226	7.37079e+06	-47789.1	1005.82	-29764.7	0.000000	0.000000	7.165976	375.513	NaN	0.000000	0.001658	0.001762	28.0776	93.4738	0.001816	51475.9	2.204260	173.689	374.639	1.150984	0.089442	0.089199	375.513	51475.9	0.083970	0.225515	1665.14	99035.3
586	2.000000	1.153253	7.37079e+06	-47789.1	1005.82	-29764.7	0.000000	0.000000	7.168638	390.98	NaN	0.000000	0.001696	0.001722	28.0778	94.1109	0.001690	55696.5	2.486567	173.6	395.418	1.152906	0.091468	0.091122	390.98	55696.5	0.086203	0.236175	1655.47	104709
586	2.000000	1.155121	7.37079e+06	-47789.1	1005.82	-29764.7	0.000000	0.000000	7.171033	403.763	NaN	0.000000	0.001649	0.001739	28.0776	96.4709	0.001699	56773.9	-0.190056	175.695	399.599	1.154964	0.093337	0.093179	403.763	56773.9	0.088003	0.244935	1648.45	104808
586	2.000000	1.157113	7.37079e+06	-47789.1	1005.82	-29764.7	0.000000	0.000000	7.174140	430.907	NaN	0.000000	0.001657	0.001786	28.0774	100.432	0.001828	54945.6	6.302101	169.754	424.147	1.156779	0.095328	0.094994	430.907	54945.6	0.089447	0.252069	1709.48	99987.6
586	2.000000	1.159197	7.37079e+06	-47789.1	1005.82	-29764.7	0.000000	0.000000	7.176857	446.288	NaN	0.000000	0.001660	0.001807	28.0774	101.513	0.001779	57049.5	4.367049	171.302	446.213	1.158912	0.097412	0.097128	446.288	57049.5	0.091545	0.262611	1699.42	101711
586	2.000000	1.161169	7.37079e+06	-47789.1	1005.82	-29764.7	0.000000	0.000000	7.179382	459.746	NaN	0.000000	0.001643	0.001785	28.0774	105.667	0.001889	55928.2	8.363196	167.225	459.369	1.160851	0.099385	0.099066	459.746	55928.2	0.093219	0.271165	1695.45	98126.7
586	2.000000	1.163210	7.37079e+06	-47789.1	1005.82	-29764.7	0.000000	0.000000	7.182121	476.721	NaN	0.000000	0.001684	0.001787	28.0777	105.875	0.001842	57492.1	6.446162	168.515	476.618	1.162806	0.101425	0.101021	476.721	57492.1	0.095207	0.281485	1693.59	99004.3
586	2.000000	1.165214	7.37079e+06	-47789.1	1005.82	-29764.7	0.000000	0.000000	7.184562	487.338	NaN	0.000000	0.001709	0.001750	28.0775	107.727	0.001762	61130.2	4.558221	170.215	487.353	1.165017	0.103430	0.103232	487.338	61130.2	0.097451	0.293355	1661.25	103117
586	2.000000	1.165556	7.37079e+06	-47789.1	1005.82	-29764.7	0.000000	0.000000	7.185303	497.056	NaN	0.000000	0.001669	0.001763	28.0773	107.894	0.001766	61096.3	5.375135	-10.4814	487.352	1.165309	0.103772	0.103524	497.056	61096.3	0.097670	0.294527	1687.64	102855