File: remote_trans/data/nanoindenter/0828-1/data/Data_2025-08-06,11h17m57s/2025-07-22_16-23-58_1_347.txt
2025-07-22, 16:23:58, 1
Index	Phase	Displacement	Time	Pos X	Pos Y	Pos Z	Rot A	Rot B	Piezo Z	Force A	Force B	Gripper	Voltage A	Voltage B	Temperature	Amplitude force	Amplitude pos	Stiffness	Phase shift	Phase excitation	Force A raw	Displacement raw	HMax	HMax raw	Real Force	Real Stiffness	Contact Depth	Area	Hardness	Reduced Mod.
[#]	[#]	[um]	[s]	[um]	[um]	[um]	[m°]	[m°]	[um]	[uN]	[uN]	[V]	[V]	[V]	[°C]	[uN]	[um]	[N/m]	[°]	[°]	[uN]	[um]	[um]	[um]	[uN]	[N/m]	[um]	[um^2]	[MPa]	[MPa]
347	1.000000	0.002274	7.36845e+06	-55989.1	955.819	-29740.5	0.000000	0.000000	6.002808	-0.085127	NaN	0.000000	0.001667	0.001717	28.0803	0.083788	0.000954	87.8485	-91.3798	-165.308	-0.024536	0.001024	-1.063014	-1.064264	-0.085127	87.8485	-1.062288	-1.561569E+14	5.451404E-16	NaN
347	1.000000	0.010230	7.36845e+06	-55989.1	955.819	-29740.5	0.000000	0.000000	6.010768	0.013826	NaN	0.000000	0.001646	0.001708	28.08	0.055191	0.001060	52.0655	5.530562	-166.377	0.025657	0.008873	-1.055058	-1.056415	0.013826	52.0655	-1.055258	-1.256272E+14	-1.100521E-16	NaN
347	1.000000	0.018202	7.36845e+06	-55989.1	955.818	-29740.5	0.000000	0.000000	6.018742	0.044444	NaN	0.000000	0.001636	0.001725	28.0789	0.061544	0.001679	36.6607	133.786	-163.023	0.023296	0.016862	-1.047086	-1.048426	0.044444	36.6607	-1.047995	-1.003378E+14	-4.429474E-16	NaN
347	1.000000	0.026262	7.36845e+06	-55989.1	955.817	-29740.5	0.000000	0.000000	6.026801	0.039356	NaN	0.000000	0.001649	0.001685	28.0792	0.063142	0.001834	34.4222	153.35	-165.417	0.043294	0.024942	-1.039026	-1.040346	0.039356	34.4222	-1.039884	-7.805526E+13	-5.042012E-16	NaN
347	1.000000	0.034243	7.36845e+06	-55989.1	955.819	-29740.5	0.000000	0.000000	6.034785	0.094195	NaN	0.000000	0.001667	0.001686	28.0788	0.062217	0.002099	29.6388	-99.6242	-166.514	0.036998	0.032892	-1.031045	-1.032396	0.094195	29.6388	-1.033429	-6.391398E+13	-1.473778E-15	NaN
347	1.000000	0.042193	7.36845e+06	-55989.1	955.819	-29740.5	0.000000	0.000000	6.042730	-0.011146	NaN	0.000000	0.001617	0.001722	28.0794	0.088114	0.001823	48.3329	1.673749	-168.416	-0.057979	0.040925	-1.023095	-1.024363	-0.011146	48.3329	-1.022922	-4.615990E+13	2.414738E-16	NaN
347	1.000000	0.050227	7.36845e+06	-55989.1	955.819	-29740.5	0.000000	0.000000	6.050765	-0.000870	NaN	0.000000	0.001639	0.001717	28.0787	0.070779	0.001820	38.8922	126.065	-163.545	-0.061361	0.048917	-1.015061	-1.016371	-0.000870	38.8922	-1.015044	-3.616292E+13	2.405201E-17	NaN
347	1.000000	0.058203	7.36845e+06	-55989.1	955.818	-29740.5	0.000000	0.000000	6.058744	0.076865	NaN	0.000000	0.001677	0.001706	28.0787	0.023586	0.002089	11.2895	-166.897	-162.538	0.009848	0.056883	-1.007085	-1.008405	0.076865	11.2895	-1.012191	-3.310340E+13	-2.321972E-15	NaN
347	1.000000	0.066194	7.36845e+06	-55989.1	955.819	-29740.5	0.000000	0.000000	6.066733	0.025258	NaN	0.000000	0.001668	0.001711	28.0789	0.025496	0.001863	13.6852	115.909	-168.044	-0.021885	0.064920	-0.999094	-1.000368	0.025258	13.6852	-1.000478	-2.302531E+13	-1.096966E-15	NaN
347	1.000000	0.074227	7.36845e+06	-55989.1	955.819	-29740.5	0.000000	0.000000	6.074763	-0.028820	NaN	0.000000	0.001674	0.001703	28.0788	0.034257	0.001840	18.6151	-116.611	-164.997	-0.075419	0.072917	-0.991061	-0.992371	-0.028820	18.6151	-0.989900	-1.658697E+13	1.737538E-15	NaN
347	1.000000	0.082192	7.36845e+06	-55989.1	955.819	-29740.5	0.000000	0.000000	6.082729	-0.018562	NaN	0.000000	0.001663	0.001705	28.0792	0.053618	0.002025	26.4803	60.4225	-166.047	0.013811	0.080900	-0.983096	-0.984389	-0.018562	26.4803	-0.982570	-1.321393E+13	1.404741E-15	NaN
347	1.000000	0.090224	7.36845e+06	-55989.1	955.819	-29740.5	0.000000	0.000000	6.090763	0.030865	NaN	0.000000	0.001686	0.001724	28.0788	0.096953	0.001898	51.0875	38.5472	-167.651	0.022299	0.088929	-0.975064	-0.976359	0.030865	51.0875	-0.975517	-1.061723E+13	-2.907100E-15	NaN
347	1.000000	0.098208	7.36845e+06	-55989.1	955.818	-29740.5	0.000000	0.000000	6.098746	-0.005596	NaN	0.000000	0.001678	0.001716	28.0788	0.095167	0.001954	48.7075	-122.397	-163.637	0.027988	0.096903	-0.967080	-0.968385	-0.005596	48.7075	-0.966994	-8.149725E+12	6.866724E-16	NaN
347	1.000000	0.106253	7.36845e+06	-55989.1	955.82	-29740.5	0.000000	0.000000	6.106791	0.023279	NaN	0.000000	0.001639	0.001739	28.0792	0.078619	0.001978	39.7562	-149.002	-165.313	0.010151	0.104856	-0.959035	-0.960432	0.023279	39.7562	-0.959474	-6.453330E+12	-3.607227E-15	NaN
347	1.000000	0.114230	7.36845e+06	-55989.1	955.818	-29740.5	0.000000	0.000000	6.114769	0.016622	NaN	0.000000	0.001637	0.001759	28.0789	0.134123	0.002002	66.9808	-157.872	-165.227	-0.020441	0.112962	-0.951058	-0.952326	0.016622	66.9808	-0.951244	-4.998056E+12	-3.325740E-15	NaN
347	1.000000	0.122276	7.36845e+06	-55989.1	955.82	-29740.5	0.000000	0.000000	6.122813	-0.020184	NaN	0.000000	0.001624	0.001724	28.0791	0.040534	0.002083	19.4614	167.313	-166.078	0.030226	0.120993	-0.943012	-0.944295	-0.020184	19.4614	-0.942234	-3.778131E+12	5.342209E-15	NaN
347	1.000000	0.130231	7.36845e+06	-55989.1	955.819	-29740.5	0.000000	0.000000	6.130769	-0.007996	NaN	0.000000	0.001613	0.001759	28.0789	0.102666	0.001991	51.5603	105.524	-159.914	0.062753	0.128953	-0.935057	-0.936336	-0.007996	51.5603	-0.934941	-3.012111E+12	2.654617E-15	NaN
347	1.000000	0.138223	7.36845e+06	-55989.1	955.819	-29740.5	0.000000	0.000000	6.138759	-0.036018	NaN	0.000000	0.001627	0.001688	28.0791	0.079531	0.002119	37.5251	-114.082	-163.651	-0.071253	0.136948	-0.927065	-0.928340	-0.036018	37.5251	-0.926346	-2.306067E+12	1.561875E-14	NaN
347	1.000000	0.146227	7.36845e+06	-55989.1	955.819	-29740.5	0.000000	0.000000	6.146764	-0.018916	NaN	0.000000	0.001645	0.001738	28.079	0.077744	0.002075	37.4638	-64.6996	-165.075	0.004832	0.144956	-0.919061	-0.920332	-0.018916	37.4638	-0.918683	-1.817269E+12	1.040902E-14	NaN
347	1.000000	0.154209	7.36845e+06	-55989.1	955.818	-29740.5	0.000000	0.000000	6.154747	0.011299	NaN	0.000000	0.001660	0.001733	28.0801	0.022774	0.002005	11.3613	-92.4256	-163.143	0.001645	0.152890	-0.911079	-0.912398	0.011299	11.3613	-0.911825	-1.468295E+12	-7.695116E-15	NaN
347	1.000000	0.162251	7.36845e+06	-55989.1	955.819	-29740.5	0.000000	0.000000	6.162790	0.028326	NaN	0.000000	0.001641	0.001738	28.0803	0.077534	0.001937	40.0299	23.855	-163.882	0.030405	0.160886	-0.903037	-0.904403	0.028326	40.0299	-0.903568	-1.135730E+12	-2.494048E-14	NaN
347	1.000000	0.170276	7.36845e+06	-55989.1	955.82	-29740.5	0.000000	0.000000	6.170815	0.013853	NaN	0.000000	0.001662	0.001742	28.0803	0.059778	0.001988	30.0719	-42.5451	-166.325	0.062044	0.168954	-0.895012	-0.896334	0.013853	30.0719	-0.895357	-8.796829E+11	-1.574827E-14	NaN
347	1.000000	0.178268	7.36845e+06	-55989.1	955.819	-29740.5	0.000000	0.000000	6.178806	0.011159	NaN	0.000000	0.001572	0.001739	28.0804	0.057570	0.002080	27.6816	-12.3223	-162.678	0.013494	0.176938	-0.887020	-0.888350	0.011159	27.6816	-0.887323	-6.850518E+11	-1.628871E-14	NaN
347	1.000000	0.186248	7.36846e+06	-55989.1	955.819	-29740.5	0.000000	0.000000	6.186787	0.043193	NaN	0.000000	0.001548	0.001760	28.0803	0.076397	0.002024	37.7379	-152.666	-165.057	0.093990	0.184999	-0.879040	-0.880289	0.043193	37.7379	-0.879899	-5.436713E+11	-7.944731E-14	NaN
347	1.000000	0.194263	7.36846e+06	-55989.1	955.819	-29740.5	0.000000	0.000000	6.194801	0.022445	NaN	0.000000	0.001581	0.001767	28.0801	0.039055	0.001794	21.7669	9.533688	-168.616	0.055025	0.192960	-0.871025	-0.872328	0.022445	21.7669	-0.871799	-4.224516E+11	-5.313005E-14	NaN
347	1.000000	0.202252	7.36846e+06	-55989.1	955.82	-29740.5	0.000000	0.000000	6.202789	-0.004951	NaN	0.000000	0.001578	0.001755	28.08	0.070892	0.002082	34.0514	-11.554	-166.127	0.013444	0.200977	-0.863036	-0.864311	-0.004951	34.0514	-0.862927	-3.204360E+11	1.545062E-14	NaN
347	1.000000	0.210250	7.36846e+06	-55989.1	955.819	-29740.5	0.000000	0.000000	6.210789	0.017687	NaN	0.000000	0.001550	0.001741	28.0801	0.091729	0.002080	44.104	148.544	-164.554	0.102433	0.208965	-0.855038	-0.856323	0.017687	44.104	-0.855339	-2.529418E+11	-6.992634E-14	NaN
347	1.000000	0.218295	7.36846e+06	-55989.1	955.819	-29740.5	0.000000	0.000000	6.218831	-0.055432	NaN	0.000000	0.001569	0.001774	28.0803	0.036086	0.001929	18.7062	51.6997	-168.281	0.053501	0.216913	-0.846993	-0.848375	-0.055432	18.7062	-0.844771	-1.819344E+11	3.046840E-13	NaN
347	1.000000	0.226262	7.36846e+06	-55989.1	955.819	-29740.5	0.000000	0.000000	6.226799	-0.013792	NaN	0.000000	0.001592	0.001727	28.0799	0.098989	0.001979	50.0104	44.065	-164.208	-0.033217	0.224992	-0.839026	-0.840296	-0.013792	50.0104	-0.838819	-1.511115E+11	9.126719E-14	NaN
347	1.000000	0.234238	7.36846e+06	-55989.1	955.818	-29740.5	0.000000	0.000000	6.234775	-0.011027	NaN	0.000000	0.001539	0.001728	28.0801	0.108046	0.001985	54.4332	-64.6921	-167.611	-0.033474	0.233002	-0.831050	-0.832286	-0.011027	54.4332	-0.830898	-1.180208E+11	9.343404E-14	NaN
347	1.000000	0.242289	7.36846e+06	-55989.1	955.819	-29740.5	0.000000	0.000000	6.242827	0.022166	NaN	0.000000	0.001520	0.001714	28.0799	0.059596	0.002106	28.2995	111.903	-163.524	-0.024342	0.240947	-0.822999	-0.824341	0.022166	28.2995	-0.823587	-9.393914E+10	-2.359572E-13	NaN
347	1.000000	0.250297	7.36846e+06	-55989.1	955.819	-29740.5	0.000000	0.000000	6.250835	0.009426	NaN	0.000000	0.001550	0.001733	28.0797	0.148812	0.002049	72.6326	129.858	-162.118	0.040131	0.249016	-0.814991	-0.816272	0.009426	72.6326	-0.815088	-7.204427E+10	-1.308308E-13	NaN
347	1.000000	0.258303	7.36846e+06	-55989.1	955.818	-29740.5	0.000000	0.000000	6.258842	0.039373	NaN	0.000000	0.001556	0.001736	28.0802	0.095815	0.001919	49.937	-84.2932	-163.126	0.019529	0.256934	-0.806986	-0.808354	0.039373	49.937	-0.807577	-5.697628E+10	-6.910348E-13	NaN
347	1.000000	0.266310	7.36846e+06	-55989.1	955.819	-29740.5	0.000000	0.000000	6.266848	0.000786	NaN	0.000000	0.001579	0.001730	28.0797	0.072114	0.002047	35.2232	3.114511	-165.177	0.059738	0.264942	-0.798978	-0.800346	0.000786	35.2232	-0.798995	-4.357313E+10	-1.803368E-14	NaN
347	1.000000	0.274282	7.36846e+06	-55989.1	955.818	-29740.5	0.000000	0.000000	6.274818	-0.053669	NaN	0.000000	0.001599	0.001759	28.0802	0.112486	0.002014	55.8502	-27.112	-167.893	0.012376	0.272987	-0.791006	-0.792302	-0.053669	55.8502	-0.790285	-3.318631E+10	1.617194E-12	NaN
347	1.000000	0.282306	7.36846e+06	-55989.1	955.819	-29740.5	0.000000	0.000000	6.282843	-0.027708	NaN	0.000000	0.001533	0.001768	28.0799	0.092603	0.002098	44.1409	-61.335	-164.367	-0.044521	0.281002	-0.782982	-0.784286	-0.027708	44.1409	-0.782511	-2.602251E+10	1.064786E-12	NaN
347	1.000000	0.290304	7.36846e+06	-55989.1	955.818	-29740.5	0.000000	0.000000	6.290842	0.012917	NaN	0.000000	0.001551	0.001781	28.0787	0.073444	0.002001	36.7063	-142.999	-165.566	0.020734	0.289012	-0.774984	-0.776276	0.012917	36.7063	-0.775248	-2.073250E+10	-6.230458E-13	NaN
347	1.000000	0.298277	7.36846e+06	-55989.1	955.818	-29740.5	0.000000	0.000000	6.298815	0.005657	NaN	0.000000	0.001522	0.001752	28.0787	0.091239	0.002132	42.7967	-135.392	-164.428	0.091388	0.297050	-0.767011	-0.768238	0.005657	42.7967	-0.767110	-1.606983E+10	-3.520495E-13	NaN
347	1.000000	0.306314	7.36846e+06	-55989.1	955.819	-29740.5	0.000000	0.000000	6.306854	0.050992	NaN	0.000000	0.001568	0.001755	28.0788	0.042867	0.001939	22.1126	-19.1606	-165.137	0.142642	0.304976	-0.758974	-0.760312	0.050992	22.1126	-0.760703	-1.314833E+10	-3.878212E-12	NaN
347	1.000000	0.314348	7.36846e+06	-55989.1	955.818	-29740.5	0.000000	0.000000	6.314886	-0.004003	NaN	0.000000	0.001577	0.001751	28.0793	0.081490	0.002020	40.3338	61.9434	-166.549	-0.023018	0.312994	-0.750940	-0.752294	-0.004003	40.3338	-0.750865	-9.660506E+9	4.143800E-13	NaN
347	1.000000	0.322340	7.36846e+06	-55989.1	955.819	-29740.5	0.000000	0.000000	6.322880	0.067739	NaN	0.000000	0.001594	0.001773	28.0788	0.004530	0.002031	2.230315	-148.954	-165.369	-0.044274	0.321024	-0.742948	-0.744264	0.067739	2.230315	-0.765727	-1.538874E+10	-4.401867E-12	NaN
347	1.000000	0.330308	7.36846e+06	-55989.1	955.818	-29740.5	0.000000	0.000000	6.330845	0.000731	NaN	0.000000	0.001583	0.001760	28.0788	0.047007	0.002050	22.9303	24.1362	-164.199	0.043717	0.329061	-0.734980	-0.736227	0.000731	22.9303	-0.735004	-5.874930E+9	-1.244131E-13	NaN
347	1.000000	0.338338	7.36846e+06	-55989.1	955.819	-29740.5	0.000000	0.000000	6.338875	-0.000634	NaN	0.000000	0.001574	0.001741	28.0788	0.058616	0.002001	29.2909	-170.434	-166.061	-0.005228	0.336997	-0.726950	-0.728291	-0.000634	29.2909	-0.726934	-4.560587E+9	1.390088E-13	NaN
347	1.000000	0.346342	7.36846e+06	-55989.1	955.818	-29740.5	0.000000	0.000000	6.346881	0.017745	NaN	0.000000	0.001545	0.001765	28.0787	0.146176	0.001961	74.5328	-128.343	-164.585	-0.022349	0.345054	-0.718946	-0.720234	0.017745	74.5328	-0.719124	-3.568878E+9	-4.972288E-12	NaN
347	1.000000	0.354325	7.36846e+06	-55989.1	955.818	-29740.5	0.000000	0.000000	6.354863	0.004627	NaN	0.000000	0.001538	0.001763	28.079	0.031078	0.001888	16.4624	-82.319	-161.986	-0.012906	0.353011	-0.710963	-0.712277	0.004627	16.4624	-0.711174	-2.780153E+9	-1.664135E-12	NaN
347	1.000000	0.362328	7.36846e+06	-55989.1	955.818	-29740.5	0.000000	0.000000	6.362866	0.021093	NaN	0.000000	0.001564	0.001812	28.0788	0.049127	0.001966	24.9822	156.659	-168.297	0.027615	0.361026	-0.702960	-0.704263	0.021093	24.9822	-0.703593	-2.190780E+9	-9.627876E-12	NaN
347	1.000000	0.370371	7.36846e+06	-55989.1	955.818	-29740.5	0.000000	0.000000	6.370908	-0.026729	NaN	0.000000	0.001606	0.001782	28.079	0.075347	0.002042	36.8907	88.8954	-167.696	-0.017326	0.369085	-0.694917	-0.696203	-0.026729	36.8907	-0.694373	-1.639370E+9	1.630454E-11	NaN
347	1.000000	0.378367	7.36846e+06	-55989.1	955.819	-29740.5	0.000000	0.000000	6.378907	0.038639	NaN	0.000000	0.001611	0.001773	28.0788	0.023271	0.002038	11.4197	-135.746	-165.424	0.075509	0.377095	-0.686921	-0.688193	0.038639	11.4197	-0.689458	-1.404486E+9	-2.751111E-11	NaN
347	1.000000	0.386373	7.36846e+06	-55989.1	955.819	-29740.5	0.000000	0.000000	6.386912	0.030292	NaN	0.000000	0.001603	0.001788	28.0787	0.134601	0.002014	66.8396	-80.5556	-166.442	-0.066665	0.384973	-0.678915	-0.680315	0.030292	66.8396	-0.679255	-1.018623E+9	-2.973867E-11	NaN
347	1.000000	0.394360	7.36846e+06	-55989.1	955.818	-29740.5	0.000000	0.000000	6.394897	-0.010437	NaN	0.000000	0.001608	0.001760	28.0788	0.053607	0.002135	25.1044	31.2266	-166.521	0.020826	0.393070	-0.670928	-0.672218	-0.010437	25.1044	-0.670617	-7.759433E+8	1.345016E-11	NaN
347	1.000000	0.402358	7.36846e+06	-55989.1	955.818	-29740.5	0.000000	0.000000	6.402896	0.007727	NaN	0.000000	0.001567	0.001768	28.0788	0.076875	0.002106	36.5088	102.665	-166.056	-0.014726	0.401066	-0.662930	-0.664222	0.007727	36.5088	-0.663089	-6.120350E+8	-1.262523E-11	NaN
347	1.000000	0.410314	7.36846e+06	-55989.1	955.819	-29740.5	0.000000	0.000000	6.410853	0.031281	NaN	0.000000	0.001601	0.001773	28.0794	0.094151	0.001941	48.5154	159.662	-167.086	-0.092787	0.409053	-0.654974	-0.656235	0.031281	48.5154	-0.655458	-4.811038E+8	-6.501960E-11	NaN
347	1.000000	0.418362	7.36846e+06	-55989.1	955.818	-29740.5	0.000000	0.000000	6.418900	0.013504	NaN	0.000000	0.001561	0.001746	28.079	0.053006	0.001872	28.3164	160.219	-169.875	-0.005315	0.417068	-0.646926	-0.648220	0.013504	28.3164	-0.647284	-3.717072E+8	-3.632859E-11	NaN
347	1.000000	0.426406	7.36846e+06	-55989.1	955.819	-29740.5	0.000000	0.000000	6.426944	0.010072	NaN	0.000000	0.001549	0.001730	28.0802	0.042456	0.002065	20.5559	174.523	-162.644	-0.005171	0.425043	-0.638882	-0.640245	0.010072	20.5559	-0.639249	-2.883960E+8	-3.492287E-11	NaN
347	1.000000	0.434393	7.36846e+06	-55989.1	955.819	-29740.5	0.000000	0.000000	6.434930	-0.038498	NaN	0.000000	0.001591	0.001757	28.0802	0.016555	0.001957	8.458857	27.1343	-166.244	0.009958	0.433125	-0.630895	-0.632163	-0.038498	8.458857	-0.627481	-1.988066E+8	1.936440E-10	NaN
347	1.000000	0.442360	7.36846e+06	-55989.1	955.819	-29740.5	0.000000	0.000000	6.442899	0.029691	NaN	0.000000	0.001590	0.001725	28.0803	0.011693	0.001972	5.928467	18.2038	-165.705	0.038204	0.441059	-0.622928	-0.624229	0.029691	5.928467	-0.626684	-1.938550E+8	-1.531631E-10	NaN
347	1.000000	0.450386	7.36846e+06	-55989.1	955.819	-29740.5	0.000000	0.000000	6.450924	-0.005139	NaN	0.000000	0.001621	0.001697	28.0806	0.093187	0.002031	45.8907	-15.7402	-168.191	-0.088464	0.449049	-0.614902	-0.616239	-0.005139	45.8907	-0.614818	-1.331645E+8	3.858896E-11	NaN
347	1.000000	0.458354	7.36846e+06	-55989.1	955.819	-29740.5	0.000000	0.000000	6.458892	0.025042	NaN	0.000000	0.001561	0.001704	28.0803	0.066019	0.002064	31.9923	-86.0936	-164.299	0.027153	0.457086	-0.606934	-0.608202	0.025042	31.9923	-0.607522	-1.056841E+8	-2.369479E-10	NaN
347	1.000000	0.466362	7.36846e+06	-55989.1	955.819	-29740.5	0.000000	0.000000	6.466902	0.068301	NaN	0.000000	0.001556	0.001733	28.0803	0.103796	0.001984	52.3209	-172.195	-166.311	-0.016722	0.465113	-0.598926	-0.600175	0.068301	52.3209	-0.599906	-8.301564E+7	-8.227542E-10	NaN
347	1.000000	0.474377	7.36846e+06	-55989.1	955.818	-29740.5	0.000000	0.000000	6.474915	0.003157	NaN	0.000000	0.001566	0.001736	28.0802	0.058940	0.001944	30.3146	-100.544	-165.415	0.058383	0.473086	-0.590911	-0.592202	0.003157	30.3146	-0.590989	-6.256117E+7	-5.045653E-11	NaN
347	1.000000	0.482393	7.36846e+06	-55989.1	955.82	-29740.5	0.000000	0.000000	6.482932	0.044984	NaN	0.000000	0.001602	0.001738	28.0802	0.035482	0.002128	16.6741	-92.8077	-163.428	0.008099	0.481113	-0.582895	-0.584175	0.044984	16.6741	-0.584919	-5.159308E+7	-8.719033E-10	NaN
347	1.000000	0.490379	7.36846e+06	-55989.1	955.818	-29740.5	0.000000	0.000000	6.490919	0.070269	NaN	0.000000	0.001566	0.001753	28.0803	0.051804	0.002058	25.1768	158.466	-165.702	-0.059617	0.489061	-0.574910	-0.576227	0.070269	25.1768	-0.577003	-4.011932E+7	-1.751512E-9	NaN
347	1.000000	0.498400	7.36846e+06	-55989.1	955.818	-29740.5	0.000000	0.000000	6.498935	-0.062359	NaN	0.000000	0.001593	0.001746	28.0805	0.094759	0.002024	46.8275	-177.853	-163.907	0.037206	0.497038	-0.566888	-0.568250	-0.062359	46.8275	-0.565889	-2.817223E+7	2.213475E-9	NaN
347	1.000000	0.506396	7.36846e+06	-55989.1	955.819	-29740.5	0.000000	0.000000	6.506934	-0.013976	NaN	0.000000	0.001648	0.001753	28.0807	0.073531	0.001968	37.3672	-154.11	-166.572	-0.067870	0.505065	-0.558892	-0.560223	-0.013976	37.3672	-0.558611	-2.234416E+7	6.254755E-10	NaN
347	1.000000	0.514414	7.36846e+06	-55989.1	955.819	-29740.5	0.000000	0.000000	6.514954	0.043424	NaN	0.000000	0.001621	0.001720	28.0801	0.105776	0.001987	53.2236	-170.871	-166.674	-0.014621	0.513068	-0.550874	-0.552220	0.043424	53.2236	-0.551486	-1.780453E+7	-2.438956E-9	NaN
347	1.000000	0.522402	7.36846e+06	-55989.1	955.82	-29740.5	0.000000	0.000000	6.522940	0.008686	NaN	0.000000	0.001601	0.001735	28.0803	0.062055	0.002002	30.9909	174.844	-168.991	0.051346	0.521133	-0.542886	-0.544155	0.008686	30.9909	-0.543096	-1.362362E+7	-6.375657E-10	NaN
347	1.000000	0.530433	7.36846e+06	-55989.1	955.819	-29740.5	0.000000	0.000000	6.530970	-0.015261	NaN	0.000000	0.001593	0.001752	28.0802	0.008160	0.001994	4.092187	66.4771	-165.085	0.003887	0.529081	-0.534856	-0.536207	-0.015261	4.092187	-0.532059	-9.57545e+06	1.593799E-9	NaN
347	1.000000	0.538438	7.36846e+06	-55989.1	955.819	-29740.5	0.000000	0.000000	6.538974	-0.028922	NaN	0.000000	0.001569	0.001796	28.0803	0.067950	0.001915	35.4866	88.0787	-165.284	-0.045606	0.537127	-0.526850	-0.528161	-0.028922	35.4866	-0.526239	-7.94933e+06	3.638297E-9	NaN
347	1.000000	0.546414	7.36846e+06	-55989.1	955.819	-29740.5	0.000000	0.000000	6.546950	-0.024463	NaN	0.000000	0.001607	0.001747	28.0805	0.064930	0.002103	30.8678	-162.033	-166.356	-0.066253	0.545116	-0.518874	-0.520172	-0.024463	30.8678	-0.518280	-6.16131e+06	3.970401E-9	NaN
347	1.000000	0.554434	7.36846e+06	-55989.1	955.819	-29740.5	0.000000	0.000000	6.554971	-0.024000	NaN	0.000000	0.001582	0.001725	28.0803	0.077498	0.002103	36.8548	126.536	-166.638	0.009852	0.553105	-0.510854	-0.512183	-0.024000	36.8548	-0.510365	-4.78082e+06	5.020005E-9	NaN
347	1.000000	0.562394	7.36846e+06	-55989.1	955.818	-29740.5	0.000000	0.000000	6.562933	0.036161	NaN	0.000000	0.001626	0.001736	28.0793	0.074227	0.001938	38.3027	11.6955	-166.306	0.037034	0.561085	-0.502894	-0.504203	0.036161	38.3027	-0.503602	-3.8482e+06	-9.396907E-9	NaN
347	1.000000	0.570441	7.36846e+06	-55989.1	955.818	-29740.5	0.000000	0.000000	6.570978	-0.015158	NaN	0.000000	0.001627	0.001761	28.0791	0.068056	0.001974	34.4692	-92.1469	-168.514	0.015627	0.569122	-0.494847	-0.496166	-0.015158	34.4692	-0.494517	-2.87407e+06	5.273922E-9	NaN
347	1.000000	0.578403	7.36846e+06	-55989.1	955.819	-29740.5	0.000000	0.000000	6.578940	-0.020967	NaN	0.000000	0.001581	0.001757	28.079	0.122018	0.001977	61.7033	-173.241	-167.879	0.054251	0.577104	-0.486885	-0.488184	-0.020967	61.7033	-0.486631	-2.22994e+06	9.402342E-9	NaN
347	1.000000	0.586456	7.36846e+06	-55989.1	955.819	-29740.5	0.000000	0.000000	6.586991	-0.048862	NaN	0.000000	0.001587	0.001735	28.079	0.071373	0.002056	34.7121	-173.756	-165.913	-0.030227	0.585108	-0.478832	-0.480181	-0.048862	34.7121	-0.477777	-1.67648e+06	2.914561E-8	NaN
347	1.000000	0.594417	7.36846e+06	-55989.1	955.818	-29740.5	0.000000	0.000000	6.594954	-0.010812	NaN	0.000000	0.001620	0.001734	28.0791	0.069064	0.002030	34.0252	-163.777	-166.381	0.020902	0.593111	-0.470871	-0.472177	-0.010812	34.0252	-0.470633	-1.33132e+06	8.121412E-9	NaN
347	1.000000	0.602434	7.36846e+06	-55989.1	955.818	-29740.5	0.000000	0.000000	6.602972	0.007968	NaN	0.000000	0.001586	0.001756	28.08	0.011700	0.001932	6.056466	-89.207	-169.71	0.035312	0.601151	-0.462854	-0.464137	0.007968	6.056466	-0.463841	-1.06898e+06	-7.454277E-9	NaN
347	1.000000	0.610418	7.36846e+06	-55989.1	955.82	-29740.5	0.000000	0.000000	6.610955	-0.034069	NaN	0.000000	0.001631	0.001753	28.0789	0.037196	0.002062	18.0428	-137.524	-164.618	0.063619	0.609146	-0.454870	-0.456142	-0.034069	18.0428	-0.453454	-763767	4.460644E-8	NaN
347	1.000000	0.618441	7.36846e+06	-55989.1	955.819	-29740.5	0.000000	0.000000	6.618980	0.025245	NaN	0.000000	0.001602	0.001719	28.0788	0.032830	0.001989	16.5086	129.481	-167.084	-0.004336	0.617171	-0.446847	-0.448117	0.025245	16.5086	-0.447994	-639869	-3.945394E-8	NaN
347	1.000000	0.626463	7.36846e+06	-55989.1	955.818	-29740.5	0.000000	0.000000	6.627001	0.000164	NaN	0.000000	0.001608	0.001719	28.0789	0.051163	0.001961	26.0919	137.107	-169.29	0.003798	0.625137	-0.438825	-0.440151	0.000164	26.0919	-0.438830	-475163	-3.453878E-10	NaN
347	1.000000	0.634451	7.36846e+06	-55989.1	955.819	-29740.5	0.000000	0.000000	6.634993	0.094063	NaN	0.000000	0.001580	0.001738	28.0789	0.077370	0.002103	36.7936	-81.3031	-164.407	0.125786	0.633210	-0.430837	-0.432078	0.094063	36.7936	-0.432754	-389954	-2.412169E-7	NaN
347	1.000000	0.642461	7.36846e+06	-55989.1	955.818	-29740.5	0.000000	0.000000	6.642996	-0.050484	NaN	0.000000	0.001603	0.001713	28.0796	0.067090	0.002071	32.3895	88.9206	-167.123	0.013901	0.641173	-0.422827	-0.424115	-0.050484	32.3895	-0.421658	-271600	1.858756E-7	NaN
347	1.000000	0.650467	7.36846e+06	-55989.1	955.817	-29740.5	0.000000	0.000000	6.651005	0.010649	NaN	0.000000	0.001602	0.001683	28.079	0.080639	0.002049	39.3564	-172.079	-163.217	0.009191	0.649177	-0.414821	-0.416111	0.010649	39.3564	-0.415024	-218676	-4.869927E-8	NaN
347	1.000000	0.658439	7.36846e+06	-55989.1	955.819	-29740.5	0.000000	0.000000	6.658977	0.010713	NaN	0.000000	0.001593	0.001747	28.079	0.073053	0.001925	37.9436	109.12	-169.287	-0.041458	0.657116	-0.406849	-0.408172	0.010713	37.9436	-0.407061	-168496	-6.357861E-8	NaN
347	1.000000	0.666471	7.36846e+06	-55989.1	955.818	-29740.5	0.000000	0.000000	6.667011	0.035918	NaN	0.000000	0.001601	0.001713	28.079	0.078719	0.001998	39.4	-53.7845	-163.826	0.073710	0.665150	-0.398817	-0.400138	0.035918	39.4	-0.399500	-131483	-2.731798E-7	NaN
347	1.000000	0.674488	7.36846e+06	-55989.1	955.819	-29740.5	0.000000	0.000000	6.675025	-0.024204	NaN	0.000000	0.001632	0.001702	28.079	0.043380	0.002064	21.0165	-7.080345	-165.224	-0.030053	0.673135	-0.390800	-0.392153	-0.024204	21.0165	-0.389936	-95997.2	2.521345E-7	NaN
347	1.000000	0.682518	7.36846e+06	-55989.1	955.818	-29740.5	0.000000	0.000000	6.683057	0.018539	NaN	0.000000	0.001619	0.001737	28.0792	0.075415	0.002079	36.2688	-49.1415	-164.987	-0.112947	0.681159	-0.382770	-0.384129	0.018539	36.2688	-0.383153	-76756.4	-2.415309E-7	NaN
347	1.000000	0.690492	7.36846e+06	-55989.1	955.818	-29740.5	0.000000	0.000000	6.691028	-0.058885	NaN	0.000000	0.001569	0.001735	28.0789	0.169388	0.002186	77.5023	150.689	-167.036	-0.103927	0.689154	-0.374796	-0.376134	-0.058885	77.5023	-0.374226	-57140.3	1.030526E-6	NaN
347	1.000000	0.698496	7.36846e+06	-55989.1	955.818	-29740.5	0.000000	0.000000	6.699032	-0.031771	NaN	0.000000	0.001629	0.001739	28.0811	0.040413	0.002056	19.6592	123.806	-164.876	-0.060119	0.697201	-0.366792	-0.368087	-0.031771	19.6592	-0.365580	-42896.8	7.406264E-7	NaN
347	1.000000	0.706469	7.36846e+06	-55989.1	955.817	-29740.5	0.000000	0.000000	6.707007	0.003414	NaN	0.000000	0.001619	0.001749	28.0802	0.065379	0.002061	31.72	168.29	-164.042	0.076426	0.705163	-0.358819	-0.360125	0.003414	31.72	-0.358900	-34351	-9.939938E-8	NaN
347	1.000000	0.714483	7.36846e+06	-55989.1	955.819	-29740.5	0.000000	0.000000	6.715023	0.063795	NaN	0.000000	0.001596	0.001706	28.0802	0.018628	0.002084	8.939145	-156.323	-166.61	0.025293	0.713180	-0.350805	-0.352108	0.063795	8.939145	-0.356158	-31351.6	-2.034824E-6	NaN
347	1.000000	0.722489	7.36846e+06	-55989.1	955.818	-29740.5	0.000000	0.000000	6.723026	-0.028021	NaN	0.000000	0.001607	0.001737	28.0802	0.053350	0.001941	27.4841	130.976	-167.911	-0.017028	0.721123	-0.342799	-0.344165	-0.028021	27.4841	-0.342034	-19551.9	1.433150E-6	NaN
347	1.000000	0.730506	7.36846e+06	-55989.1	955.819	-29740.5	0.000000	0.000000	6.731041	-0.064091	NaN	0.000000	0.001611	0.001761	28.0802	0.032807	0.002003	16.3802	69.8619	-164.068	-0.111011	0.729172	-0.334782	-0.336116	-0.064091	16.3802	-0.331848	-13883.5	4.616311E-6	NaN
347	1.000000	0.738511	7.36846e+06	-55989.1	955.819	-29740.5	0.000000	0.000000	6.739051	0.046078	NaN	0.000000	0.001618	0.001744	28.0804	0.035485	0.001908	18.5997	-161.069	-163.006	0.079238	0.737175	-0.326777	-0.328113	0.046078	18.5997	-0.328635	-12458.1	-3.698636E-6	NaN
347	1.000000	0.746536	7.36846e+06	-55989.1	955.818	-29740.5	0.000000	0.000000	6.747072	-0.028119	NaN	0.000000	0.001629	0.001714	28.0804	0.058526	0.001898	30.8421	-119.605	-164.066	0.023911	0.745213	-0.318752	-0.320075	-0.028119	30.8421	-0.318069	-8713.57	3.227088E-6	NaN
347	1.000000	0.754489	7.36846e+06	-55989.1	955.819	-29740.5	0.000000	0.000000	6.755025	-0.037668	NaN	0.000000	0.001629	0.001753	28.0803	0.094441	0.002054	45.9754	-173.553	-164.075	-0.029408	0.753215	-0.310799	-0.312073	-0.037668	45.9754	-0.310184	-6664.78	5.651866E-6	NaN
347	1.000000	0.762533	7.36846e+06	-55989.1	955.819	-29740.5	0.000000	0.000000	6.763073	0.063788	NaN	0.000000	0.001630	0.001736	28.08	0.080741	0.002064	39.1155	-164.229	-164.205	-0.056569	0.761160	-0.302755	-0.304128	0.063788	39.1155	-0.303978	-5392.48	-1.182908E-5	NaN
347	1.000000	0.770531	7.36846e+06	-55989.1	955.819	-29740.5	0.000000	0.000000	6.771068	-0.012263	NaN	0.000000	0.001589	0.001795	28.08	0.015346	0.001937	7.921821	118.39	-163.478	0.040216	0.769176	-0.294757	-0.296112	-0.012263	7.921821	-0.293596	-3776.7	3.246971E-6	NaN
347	1.000000	0.778545	7.36846e+06	-55989.1	955.819	-29740.5	0.000000	0.000000	6.779085	0.073975	NaN	0.000000	0.001641	0.001754	28.0802	0.063182	0.001905	33.1674	40.6851	-166.102	0.120016	0.777148	-0.286743	-0.288140	0.073975	33.1674	-0.288416	-3159.09	-2.341670E-5	NaN
347	1.000000	0.786519	7.36846e+06	-55989.1	955.819	-29740.5	0.000000	0.000000	6.787058	0.032189	NaN	0.000000	0.001645	0.001778	28.0802	0.104281	0.001930	54.0318	35.8993	-164.302	0.002820	0.785171	-0.278769	-0.280117	0.032189	54.0318	-0.279216	-2296.9	-1.401418E-5	NaN
347	1.000000	0.794528	7.36846e+06	-55989.1	955.819	-29740.5	0.000000	0.000000	6.795069	0.069512	NaN	0.000000	0.001630	0.001731	28.0804	0.035772	0.002066	17.3159	-8.941624	-168.179	0.065100	0.793162	-0.270760	-0.272126	0.069512	17.3159	-0.273770	-1900.09	-3.658333E-5	NaN
347	1.000000	0.802561	7.36846e+06	-55989.1	955.819	-29740.5	0.000000	0.000000	6.803099	0.010499	NaN	0.000000	0.001591	0.001771	28.08	0.105283	0.001862	56.5468	101.662	-162.6	0.015491	0.801268	-0.262727	-0.264020	0.010499	56.5468	-0.262867	-1296.58	-8.097316E-6	NaN
347	1.000000	0.810551	7.36846e+06	-55989.1	955.82	-29740.5	0.000000	0.000000	6.811089	-0.004047	NaN	0.000000	0.001621	0.001769	28.08	0.056969	0.002051	27.7738	16.6699	-162.323	-0.072301	0.809243	-0.254737	-0.256045	-0.004047	27.7738	-0.254627	-969.121	4.175860E-6	NaN
347	1.000000	0.818546	7.36846e+06	-55989.1	955.818	-29740.5	0.000000	0.000000	6.819084	0.009481	NaN	0.000000	0.001616	0.001746	28.0799	0.112684	0.001991	56.5851	-155.961	-164.679	-0.016312	0.817333	-0.246742	-0.247955	0.009481	56.5851	-0.246868	-735.277	-1.289422E-5	NaN
347	1.000000	0.826558	7.36846e+06	-55989.1	955.818	-29740.5	0.000000	0.000000	6.827096	0.002582	NaN	0.000000	0.001607	0.001778	28.08	0.067516	0.001965	34.3579	-124.887	-163.254	-0.020760	0.825251	-0.238730	-0.240037	0.002582	34.3579	-0.238787	-550.286	-4.692974E-6	NaN
347	1.000000	0.834532	7.36846e+06	-55989.1	955.818	-29740.5	0.000000	0.000000	6.835072	0.045515	NaN	0.000000	0.001602	0.001759	28.079	0.159585	0.002098	76.0758	-64.6263	-168.022	0.008044	0.833229	-0.230756	-0.232059	0.045515	76.0758	-0.231204	-418.332	-0.000109	NaN
347	1.000000	0.842557	7.36846e+06	-55989.1	955.818	-29740.5	0.000000	0.000000	6.843093	-0.047525	NaN	0.000000	0.001598	0.001735	28.0785	0.015637	0.001845	8.475690	-166.338	-161.235	-0.000143	0.841231	-0.222731	-0.224057	-0.047525	8.475690	-0.218526	-263.085	0.000181	NaN
347	1.000000	0.850542	7.36846e+06	-55989.1	955.819	-29740.5	0.000000	0.000000	6.851081	0.036789	NaN	0.000000	0.001602	0.001739	28.0791	0.064399	0.001954	32.964	105.201	-160.485	0.077140	0.849219	-0.214746	-0.216069	0.036789	32.964	-0.215583	-235.987	-0.000156	NaN
347	1.000000	0.858557	7.36846e+06	-55989.1	955.818	-29740.5	0.000000	0.000000	6.859096	0.023439	NaN	0.000000	0.001596	0.001758	28.0787	0.044953	0.002035	22.0938	16.1252	-164.9	0.011442	0.857247	-0.206731	-0.208041	0.023439	22.0938	-0.207527	-174.862	-0.000134	NaN
347	1.000000	0.866532	7.36846e+06	-55989.1	955.819	-29740.5	0.000000	0.000000	6.867070	-0.003664	NaN	0.000000	0.001596	0.001742	28.0788	0.059884	0.002107	28.4183	137.862	-166.748	-0.001976	0.865232	-0.198756	-0.200056	-0.003664	28.4183	-0.198659	-125.211	2.926652E-5	NaN
347	1.000000	0.874579	7.36846e+06	-55989.1	955.819	-29740.5	0.000000	0.000000	6.875117	0.002710	NaN	0.000000	0.001631	0.001763	28.0788	0.137348	0.001990	69.0351	93.784	-167.607	0.063262	0.873251	-0.190709	-0.192037	0.002710	69.0351	-0.190738	-92.5454	-2.928159E-5	NaN
347	1.000000	0.882552	7.36846e+06	-55989.1	955.819	-29740.5	0.000000	0.000000	6.883093	0.072937	NaN	0.000000	0.001602	0.001746	28.0787	0.016534	0.002107	7.848260	-31.279	-167.681	-0.005192	0.881270	-0.182736	-0.184018	0.072937	7.848260	-0.189706	-88.9437	-0.000820	NaN
347	1.000000	0.890547	7.36846e+06	-55989.1	955.818	-29740.5	0.000000	0.000000	6.891084	-0.037177	NaN	0.000000	0.001612	0.001736	28.0792	0.044764	0.002056	21.7703	-7.141527	-166.927	-0.121447	0.889204	-0.174741	-0.176084	-0.037177	21.7703	-0.173460	-47.1493	0.000788	NaN
347	1.000000	0.898576	7.36846e+06	-55989.1	955.819	-29740.5	0.000000	0.000000	6.899114	0.006360	NaN	0.000000	0.001609	0.001756	28.0788	0.083512	0.002043	40.8685	133.82	-165.045	0.075583	0.897233	-0.166712	-0.168055	0.006360	40.8685	-0.166829	-36.1709	-0.000176	NaN
347	1.000000	0.906569	7.36846e+06	-55989.1	955.819	-29740.5	0.000000	0.000000	6.907108	0.023931	NaN	0.000000	0.001597	0.001765	28.0787	0.017960	0.002053	8.748102	-105.933	-162.627	0.079772	0.905260	-0.158719	-0.160028	0.023931	8.748102	-0.160770	-28.2919	-0.000846	NaN
347	1.000000	0.914563	7.36846e+06	-55989.1	955.818	-29740.5	0.000000	0.000000	6.915101	-0.009828	NaN	0.000000	0.001572	0.001699	28.079	0.067588	0.001954	34.5895	176.483	-165.883	0.004084	0.913292	-0.150725	-0.151997	-0.009828	34.5895	-0.150512	-18.5068	0.000531	NaN
347	1.000000	0.922567	7.36846e+06	-55989.1	955.818	-29740.5	0.000000	0.000000	6.923104	-0.015782	NaN	0.000000	0.001595	0.001726	28.079	0.153384	0.001869	82.0455	-42.2423	-163.612	-0.017017	0.921251	-0.142721	-0.144037	-0.015782	82.0455	-0.142577	-13.2183	0.001194	NaN
347	1.000000	0.930573	7.36846e+06	-55989.1	955.818	-29740.5	0.000000	0.000000	6.931109	-0.047244	NaN	0.000000	0.001571	0.001730	28.0788	0.062900	0.001833	34.3215	79.7464	-165.501	-0.016797	0.929264	-0.134715	-0.136024	-0.047244	34.3215	-0.133682	-8.975848	0.005263	NaN
347	1.000000	0.938582	7.36846e+06	-55989.1	955.818	-29740.5	0.000000	0.000000	6.939120	0.005052	NaN	0.000000	0.001590	0.001718	28.0787	0.114915	0.002024	56.772	-36.0789	-163.76	-0.034728	0.937256	-0.126706	-0.128032	0.005052	56.772	-0.126773	-6.591143	-0.000766	NaN
347	1.000000	0.946566	7.36846e+06	-55989.1	955.819	-29740.5	0.000000	0.000000	6.947104	-0.006784	NaN	0.000000	0.001570	0.001741	28.079	0.099219	0.002050	48.3978	77.3252	-168.169	-0.070226	0.945253	-0.118722	-0.120035	-0.006784	48.3978	-0.118617	-4.529861	0.001498	NaN
347	1.000000	0.954587	7.36846e+06	-55989.1	955.819	-29740.5	0.000000	0.000000	6.955122	-0.075617	NaN	0.000000	0.001606	0.001742	28.079	0.100130	0.002007	49.8824	-36.7178	-168.159	-0.089367	0.953274	-0.110701	-0.112015	-0.075617	49.8824	-0.109564	-2.942208	0.025701	NaN
347	1.000000	0.962598	7.36846e+06	-55989.1	955.818	-29740.5	0.000000	0.000000	6.963134	-0.043641	NaN	0.000000	0.001551	0.001756	28.0789	0.029776	0.002063	14.4302	46.9478	-164.716	0.009895	0.961277	-0.102690	-0.104011	-0.043641	14.4302	-0.100422	-1.866851	0.023377	NaN
347	1.000000	0.970604	7.36846e+06	-55989.1	955.818	-29740.5	0.000000	0.000000	6.971141	-0.039722	NaN	0.000000	0.001578	0.001746	28.0799	0.027950	0.002040	13.6998	121.503	-168.007	0.020048	0.969266	-0.094684	-0.096022	-0.039722	13.6998	-0.092509	-1.236657	0.032120	NaN
347	1.000000	0.978593	7.36846e+06	-55989.1	955.818	-29740.5	0.000000	0.000000	6.979132	0.034974	NaN	0.000000	0.001563	0.001715	28.0801	0.016041	0.002007	7.990925	39.4799	-163.878	0.005195	0.977247	-0.086695	-0.088041	0.034974	7.990925	-0.089978	-1.079694	-0.032393	NaN
347	1.000000	0.986606	7.36846e+06	-55989.1	955.818	-29740.5	0.000000	0.000000	6.987142	-0.034336	NaN	0.000000	0.001590	0.001760	28.0803	0.098755	0.001972	50.0697	-132.251	-160.618	-0.064835	0.985326	-0.078682	-0.079962	-0.034336	50.0697	-0.078168	-0.556665	0.061682	NaN
347	1.000000	0.994579	7.36846e+06	-55989.1	955.818	-29740.5	0.000000	0.000000	6.995116	-0.020205	NaN	0.000000	0.001544	0.001737	28.0804	0.058431	0.001968	29.6846	-43.9445	-165.154	0.006945	0.993316	-0.070709	-0.071972	-0.020205	29.6846	-0.070198	-0.345306	0.058512	NaN
347	1.000000	1.002596	7.36846e+06	-55989.1	955.819	-29740.5	0.000000	0.000000	7.003134	-0.003631	NaN	0.000000	0.001578	0.001709	28.0803	0.111067	0.001961	56.6389	113.11	-166.408	0.024544	1.001334	-0.062692	-0.063954	-0.003631	56.6389	-0.062644	-0.214137	0.016955	NaN
347	1.000000	1.010614	7.36846e+06	-55989.1	955.818	-29740.5	0.000000	0.000000	7.011153	0.022124	NaN	0.000000	0.001622	0.001693	28.0802	0.068354	0.001980	34.5252	-129.449	-167.956	0.031559	1.009302	-0.054674	-0.055986	0.022124	34.5252	-0.055155	-0.130139	-0.170006	NaN
347	1.000000	1.018616	7.36846e+06	-55989.1	955.818	-29740.5	0.000000	0.000000	7.019153	-0.019713	NaN	0.000000	0.001611	0.001759	28.0803	0.023889	0.001968	12.1409	32.3608	-163.554	0.007950	1.017317	-0.046672	-0.047971	-0.019713	12.1409	-0.045454	-0.066355	0.297083	NaN
347	1.000000	1.026594	7.36846e+06	-55989.1	955.818	-29740.5	0.000000	0.000000	7.027132	0.024127	NaN	0.000000	0.001645	0.001742	28.0806	0.042510	0.002008	21.1716	2.091062	-164.315	0.028210	1.025272	-0.038694	-0.040016	0.024127	21.1716	-0.039549	-0.043819	-0.550593	NaN
347	1.000000	1.034614	7.36846e+06	-55989.1	955.819	-29740.5	0.000000	0.000000	7.035151	-0.003359	NaN	0.000000	0.001604	0.001768	28.0805	0.103082	0.002017	51.1067	141.127	-166.145	0.142975	1.033312	-0.030674	-0.031976	-0.003359	51.1067	-0.030625	-0.023958	0.140218	NaN
347	1.000000	1.042631	7.36846e+06	-55989.1	955.82	-29740.5	0.000000	0.000000	7.043169	-0.000799	NaN	0.000000	0.001618	0.001772	28.0804	0.040897	0.001897	21.5549	172.419	-166.608	0.052227	1.041242	-0.022657	-0.024046	-0.000799	21.5549	-0.022629	-0.014653	0.054496	NaN
347	1.000000	1.050649	7.36846e+06	-55989.1	955.819	-29740.5	0.000000	0.000000	7.051186	-0.030400	NaN	0.000000	0.001616	0.001755	28.0801	0.078171	0.001926	40.588	53.5493	-165.486	0.056346	1.049247	-0.014639	-0.016041	-0.030400	40.588	-0.014077	-0.008728	3.482884	NaN
347	1.000000	1.058658	7.36846e+06	-55989.1	955.819	-29740.5	0.000000	0.000000	7.059196	0.001104	NaN	0.000000	0.001626	0.001712	28.0804	0.006218	0.002077	2.994157	-151.21	-164.902	0.013649	1.057289	-0.006630	-0.007999	0.001104	2.994157	-0.006907	-0.004585	-0.240896	NaN
347	1.000000	1.066598	7.36846e+06	-55989.1	955.819	-29740.5	0.000000	0.000000	7.067136	0.004701	NaN	0.000000	0.001553	0.001723	28.0802	0.039404	0.001878	20.9762	17.0702	-163.81	0.052703	1.065272	0.001310	-1.602986E-5	0.004701	20.9762	0.001141	0.000872	5.389240	648.881
347	1.000000	1.074607	7.36846e+06	-55989.1	955.819	-29740.5	0.000000	0.000000	7.075318	4.221601	NaN	0.000000	0.001591	0.001722	28.0803	5.088206	0.001853	2745.52	16.6206	-170.619	3.215772	1.073296	0.009319	0.008008	4.221601	2745.52	0.008165	0.007213	585.276	29535.1
347	2.000000	1.080182	7.36846e+06	-55989.1	955.818	-29740.5	0.000000	0.000000	7.081074	8.591433	NaN	0.000000	0.001609	0.001675	28.0802	9.706812	0.001589	6107.17	9.297699	-174.75	8.300538	1.079879	0.014894	0.014591	8.591433	6107.17	0.013839	0.013769	623.987	47552
347	2.000000	1.082147	7.36846e+06	-55989.1	955.82	-29740.5	0.000000	0.000000	7.083200	12.5483	NaN	0.000000	0.001624	0.001681	28.0802	11.5903	0.001531	7571.06	6.212260	-173.722	11.8569	1.081812	0.016858	0.016523	12.5483	7571.06	0.015615	0.016115	778.683	54490.1
347	2.000000	1.084107	7.36846e+06	-55989.1	955.819	-29740.5	0.000000	0.000000	7.085259	14.9171	NaN	0.000000	0.001612	0.001689	28.0805	14.2694	0.001625	8781.08	7.425160	-176.362	13.7121	1.083835	0.018819	0.018547	14.9171	8781.08	0.017545	0.018830	792.186	58464.5
347	2.000000	1.086136	7.36846e+06	-55989.1	955.82	-29740.5	0.000000	0.000000	7.087476	19.5101	NaN	0.000000	0.001583	0.001708	28.0794	17.0989	0.001818	9404.83	7.066369	-174.951	18.0939	1.085845	0.020848	0.020557	19.5101	9404.83	0.019292	0.021442	909.909	58680.5
347	2.000000	1.088116	7.36846e+06	-55989.1	955.82	-29740.5	0.000000	0.000000	7.089575	22.3911	NaN	0.000000	0.001594	0.001710	28.079	19.4108	0.001807	10742.1	10.7547	178.804	22.2255	1.087844	0.022828	0.022556	22.3911	10742.1	0.021264	0.024568	911.387	62615
347	2.000000	1.090064	7.36846e+06	-55989.1	955.819	-29740.5	0.000000	0.000000	7.091715	27.0691	NaN	0.000000	0.001609	0.001672	28.0791	21.5147	0.001889	11388	4.120664	-175.249	25.331	1.089737	0.024776	0.024449	27.0691	11388	0.022993	0.027465	985.585	62781.5
347	2.000000	1.092091	7.36846e+06	-55989.1	955.819	-29740.5	0.000000	0.000000	7.093919	31.3511	NaN	0.000000	0.001594	0.001679	28.0791	22.9645	0.001810	12690.7	6.683973	-178.393	30.7345	1.091721	0.026803	0.026432	31.3511	12690.7	0.024950	0.030925	1013.78	65932.9
347	2.000000	1.094083	7.36846e+06	-55989.1	955.819	-29740.5	0.000000	0.000000	7.096157	37.3329	NaN	0.000000	0.001604	0.001648	28.0792	25.2115	0.001693	14894.8	2.917285	-176.655	36.8445	1.093780	0.028795	0.028492	37.3329	14894.8	0.026915	0.034592	1079.23	73167.5
347	2.000000	1.096106	7.36846e+06	-55989.1	955.82	-29740.5	0.000000	0.000000	7.098325	40.858	NaN	0.000000	0.001596	0.001698	28.0792	27.1454	0.001688	16078.5	5.042558	-177.998	41.5201	1.095821	0.030818	0.030533	40.858	16078.5	0.028912	0.038519	1060.72	74848.4
347	2.000000	1.098087	7.36846e+06	-55989.1	955.82	-29740.5	0.000000	0.000000	7.100574	47.3725	NaN	0.000000	0.001576	0.001676	28.0792	29.2496	0.001722	16982.4	4.782538	179.913	46.1381	1.097786	0.032799	0.032498	47.3725	16982.4	0.030707	0.042222	1121.99	75509.7
347	2.000000	1.100042	7.36846e+06	-55989.1	955.82	-29740.5	0.000000	0.000000	7.102753	52.8387	NaN	0.000000	0.001574	0.001669	28.079	31.2925	0.001809	17295	4.941947	-179.047	50.2824	1.099661	0.034754	0.034373	52.8387	17295	0.032462	0.046002	1148.62	73672.8
347	2.000000	1.102077	7.36846e+06	-55989.1	955.82	-29740.5	0.000000	0.000000	7.105046	59.0954	NaN	0.000000	0.001577	0.001653	28.079	32.0143	0.001685	19002.2	5.251976	-179.681	58.9611	1.101695	0.036789	0.036407	59.0954	19002.2	0.034457	0.050489	1170.46	77264.4
347	2.000000	1.104075	7.36846e+06	-55989.1	955.819	-29740.5	0.000000	0.000000	7.107167	62.0981	NaN	0.000000	0.001628	0.001723	28.0793	35.7379	0.001860	19209.9	5.815794	177.878	62.2246	1.103807	0.038787	0.038519	62.0981	19209.9	0.036363	0.054966	1129.75	74860.2
347	2.000000	1.106074	7.36846e+06	-55989.1	955.819	-29740.5	0.000000	0.000000	7.109581	72.174	NaN	0.000000	0.001625	0.001690	28.0803	37.2201	0.001816	20493.3	7.490109	176.31	70.6226	1.105681	0.040786	0.040393	72.174	20493.3	0.038144	0.059321	1216.68	76874.4
347	2.000000	1.108092	7.36846e+06	-55989.1	955.82	-29740.5	0.000000	0.000000	7.111757	75.9994	NaN	0.000000	0.001588	0.001680	28.079	39.4074	0.001960	20106.2	8.878138	176.182	77.0445	1.107673	0.042804	0.042385	75.9994	20106.2	0.039969	0.063949	1188.43	72641.6
347	2.000000	1.110080	7.36846e+06	-55989.1	955.819	-29740.5	0.000000	0.000000	7.113858	78.7692	NaN	0.000000	0.001605	0.001709	28.079	40.6543	0.001780	22841.8	4.238953	179.4	80.0515	1.109762	0.044791	0.044474	78.7692	22841.8	0.042205	0.069851	1127.67	78961.8
347	2.000000	1.112057	7.36846e+06	-55989.1	955.819	-29740.5	0.000000	0.000000	7.116254	88.9532	NaN	0.000000	0.001616	0.001723	28.079	42.064	0.001738	24198.5	4.728314	177.635	88.8802	1.111810	0.046769	0.046522	88.9532	24198.5	0.044012	0.074807	1189.11	80833.3
347	2.000000	1.114091	7.36846e+06	-55989.1	955.819	-29740.5	0.000000	0.000000	7.118713	99.2731	NaN	0.000000	0.001581	0.001689	28.0792	44.6689	0.001835	24337.6	2.355533	-179.146	100.364	1.113714	0.048803	0.048426	99.2731	24337.6	0.045744	0.079712	1245.39	78756.7
347	2.000000	1.116068	7.36846e+06	-55989.1	955.819	-29740.5	0.000000	0.000000	7.120969	106.045	NaN	0.000000	0.001601	0.001703	28.08	46.5494	0.001753	26552.1	3.729174	179.102	105.058	1.115732	0.050780	0.050444	106.045	26552.1	0.047785	0.085690	1237.55	82872.2
347	2.000000	1.118110	7.36846e+06	-55989.1	955.82	-29740.5	0.000000	0.000000	7.123340	114.049	NaN	0.000000	0.001594	0.001697	28.0792	49.1276	0.001721	28547.2	8.451498	173.296	116.929	1.117665	0.052822	0.052377	114.049	28547.2	0.049826	0.091876	1241.33	86047
347	2.000000	1.120063	7.36846e+06	-55989.1	955.819	-29740.5	0.000000	0.000000	7.125749	125.152	NaN	0.000000	0.001602	0.001677	28.0797	51.5066	0.001741	29581.6	8.116636	173.802	125.951	1.119698	0.054775	0.054410	125.152	29581.6	0.051602	0.097429	1284.55	86586.9
347	2.000000	1.122017	7.36846e+06	-55989.1	955.82	-29740.5	0.000000	0.000000	7.127990	132.105	NaN	0.000000	0.001595	0.001696	28.0804	51.9002	0.001758	29520.3	4.476654	175.895	130.609	1.121738	0.056729	0.056450	132.105	29520.3	0.053373	0.103124	1281.03	83987.6
347	2.000000	1.124009	7.36846e+06	-55989.1	955.82	-29740.5	0.000000	0.000000	7.130352	141.096	NaN	0.000000	0.001598	0.001662	28.0805	53.6508	0.001604	33452.4	0.823773	178.265	140.109	1.123727	0.058721	0.058439	141.096	33452.4	0.055558	0.110364	1278.46	92000
347	2.000000	1.126058	7.36846e+06	-55989.1	955.818	-29740.5	0.000000	0.000000	7.132869	152.499	NaN	0.000000	0.001586	0.001673	28.0809	55.975	0.001910	29313.1	1.416040	-179.265	151.334	1.125713	0.060770	0.060425	152.499	29313.1	0.056868	0.114818	1328.18	79036.9
347	2.000000	1.128059	7.36846e+06	-55989.1	955.819	-29740.5	0.000000	0.000000	7.135214	160.851	NaN	0.000000	0.001593	0.001686	28.0806	59.2192	0.001763	33599.2	8.364326	172.267	163.775	1.127679	0.062771	0.062391	160.851	33599.2	0.059180	0.122885	1308.95	87569.4
347	2.000000	1.130029	7.36846e+06	-55989.1	955.82	-29740.5	0.000000	0.000000	7.137691	173.181	NaN	0.000000	0.001590	0.001686	28.0803	60.4706	0.001855	32595.8	1.718703	179.296	172.026	1.129659	0.064741	0.064371	173.181	32595.8	0.060756	0.128534	1347.36	83066.6
347	2.000000	1.131943	7.36846e+06	-55989.1	955.82	-29740.5	0.000000	0.000000	7.139943	181.383	NaN	0.000000	0.001587	0.001679	28.0804	61.809	0.001889	32723.2	2.382802	178.093	176.432	1.131709	0.066655	0.066421	181.383	32723.2	0.062498	0.134917	1344.41	81394.6
347	2.000000	1.134008	7.36846e+06	-55989.1	955.819	-29740.5	0.000000	0.000000	7.142419	191.383	NaN	0.000000	0.001539	0.001692	28.0804	63.9761	0.001857	34453	2.221202	177.641	188.761	1.133698	0.068719	0.068410	191.383	34453	0.064553	0.142640	1341.72	83345
347	2.000000	1.136043	7.36846e+06	-55989.1	955.82	-29740.5	0.000000	0.000000	7.144832	200.586	NaN	0.000000	0.001551	0.001685	28.0806	66.6801	0.001782	37410.4	5.618760	174.467	198.788	1.135727	0.070754	0.070439	200.586	37410.4	0.066733	0.151053	1327.92	87942.9
347	2.000000	1.137930	7.36846e+06	-55989.1	955.82	-29740.5	0.000000	0.000000	7.147205	212.387	NaN	0.000000	0.001579	0.001669	28.0805	68.0315	0.001845	36876.6	6.037745	173.724	208.759	1.137638	0.072642	0.072350	212.387	36876.6	0.068322	0.157330	1349.95	84941.3
347	2.000000	1.140098	7.36846e+06	-55989.1	955.819	-29740.5	0.000000	0.000000	7.149802	222.814	NaN	0.000000	0.001580	0.001686	28.0803	70.9334	0.001906	37224.3	7.052354	173.298	225.557	1.139629	0.074809	0.074340	222.814	37224.3	0.070320	0.165393	1347.18	83626.1
347	2.000000	1.141983	7.36846e+06	-55989.1	955.82	-29740.5	0.000000	0.000000	7.152223	235.845	NaN	0.000000	0.001633	0.001683	28.0802	70.3875	0.001776	39625.6	1.866632	176.496	232.403	1.141655	0.076695	0.076367	235.845	39625.6	0.072231	0.173282	1361.04	86970.5
347	2.000000	1.143992	7.36846e+06	-55989.1	955.82	-29740.5	0.000000	0.000000	7.154640	245.757	NaN	0.000000	0.001601	0.001697	28.0803	74.1334	0.001831	40485.9	4.214148	174.17	244.303	1.143722	0.078704	0.078434	245.757	40485.9	0.074151	0.181384	1354.9	86851.4
347	2.000000	1.146057	7.36846e+06	-55989.1	955.819	-29740.5	0.000000	0.000000	7.157291	259.998	NaN	0.000000	0.001654	0.001649	28.0804	76.0724	0.001853	41050.4	8.000761	171.293	262.328	1.145604	0.080769	0.080316	259.998	41050.4	0.076019	0.189429	1372.54	86172.3
347	2.000000	1.147936	7.36846e+06	-55989.1	955.82	-29740.5	0.000000	0.000000	7.159911	278.009	NaN	0.000000	0.001621	0.001701	28.0803	77.2453	0.001689	45746.2	4.814220	172.836	274.936	1.147550	0.082648	0.082262	278.009	45746.2	0.078090	0.198547	1400.22	93798.6
347	2.000000	1.149955	7.36846e+06	-55989.1	955.82	-29740.5	0.000000	0.000000	7.162344	288.088	NaN	0.000000	0.001651	0.001704	28.0807	79.6787	0.001750	45536.1	2.543660	175.146	283.557	1.149729	0.084667	0.084441	288.088	45536.1	0.079922	0.206773	1393.26	91491.9
347	2.000000	1.151988	7.36846e+06	-55989.1	955.82	-29740.5	0.000000	0.000000	7.165082	305.213	NaN	0.000000	0.001640	0.001689	28.0803	81.5859	0.001804	45224.8	9.066660	169.3	303.106	1.151585	0.086700	0.086297	305.213	45224.8	0.081639	0.214628	1422.05	89188
347	2.000000	1.153960	7.36846e+06	-55989.1	955.82	-29740.5	0.000000	0.000000	7.167619	318.95	NaN	0.000000	0.001591	0.001673	28.0798	83.3735	0.001721	48450.5	3.960757	173.102	316.499	1.153721	0.088671	0.088433	318.95	48450.5	0.083734	0.224400	1421.34	93445.8
347	2.000000	1.155992	7.36846e+06	-55989.1	955.819	-29740.5	0.000000	0.000000	7.169880	324.5	NaN	0.000000	0.001621	0.001694	28.0791	85.6615	0.001794	47757.1	2.463951	175.176	321.162	1.155681	0.090704	0.090393	324.5	47757.1	0.085608	0.233312	1390.85	90332.3
347	2.000000	1.158062	7.36846e+06	-55989.1	955.82	-29740.5	0.000000	0.000000	7.172783	344.765	NaN	0.000000	0.001639	0.001672	28.079	88.3028	0.001817	48603.3	4.896156	172.504	347.387	1.157672	0.092774	0.092384	344.765	48603.3	0.087454	0.242247	1423.2	90221.4
347	2.000000	1.160017	7.36846e+06	-55989.1	955.82	-29740.5	0.000000	0.000000	7.175319	358.887	NaN	0.000000	0.001626	0.001653	28.0793	90.4201	0.001884	48004.4	6.661000	171.17	358.99	1.159666	0.094729	0.094378	358.887	48004.4	0.089122	0.250456	1432.94	87637.3
347	2.000000	1.161949	7.36846e+06	-55989.1	955.82	-29740.5	0.000000	0.000000	7.177751	371.03	NaN	0.000000	0.001605	0.001673	28.0794	90.4782	0.001814	49874.4	5.293480	172.217	369.46	1.161711	0.096661	0.096423	371.03	49874.4	0.091081	0.260263	1425.6	89319.2
347	2.000000	1.163958	7.36846e+06	-55989.1	955.82	-29740.5	0.000000	0.000000	7.180432	387.352	NaN	0.000000	0.001584	0.001660	28.0792	93.1819	0.001783	52270	5.975225	170.363	384.424	1.163608	0.098670	0.098320	387.352	52270	0.093112	0.270615	1431.38	91801.6
347	2.000000	1.165888	7.36846e+06	-55989.1	955.82	-29740.5	0.000000	0.000000	7.183051	404.1	NaN	0.000000	0.001601	0.001620	28.0788	95.3179	0.001843	51705.5	5.359203	171.709	398.414	1.165564	0.100600	0.100276	404.1	51705.5	0.094739	0.279040	1448.18	89428.7
347	2.000000	1.168110	7.36846e+06	-55989.1	955.82	-29740.5	0.000000	0.000000	7.185928	420.033	NaN	0.000000	0.001582	0.001684	28.0788	96.2801	0.001763	54603.6	5.659508	171.419	424.754	1.167554	0.102822	0.102266	420.033	54603.6	0.097053	0.291233	1442.26	92443.1
347	2.000000	1.170183	7.36846e+06	-55989.1	955.82	-29740.5	0.000000	0.000000	7.188109	422.669	NaN	0.000000	0.001677	0.001652	28.079	99.907	0.001802	55447.5	9.186772	167.519	433.918	1.169717	0.104894	0.104429	422.669	55447.5	0.099177	0.302645	1396.58	92084.8
347	2.000000	1.171907	7.36846e+06	-55989.1	955.82	-29740.5	0.000000	0.000000	7.191017	451.452	NaN	0.000000	0.001690	0.001670	28.0792	98.5043	0.001646	59856.8	4.706158	170.002	445.997	1.171538	0.106619	0.106250	451.452	59856.8	0.100962	0.312391	1445.15	97844.6
347	2.000000	1.173912	7.36846e+06	-55989.1	955.82	-29740.5	0.000000	0.000000	7.193368	459.838	NaN	0.000000	0.001654	0.001645	28.0788	101.885	0.001730	58895.4	4.107127	171.82	456.405	1.173598	0.108624	0.108310	459.838	58895.4	0.102768	0.322400	1426.3	94767
347	2.000000	1.176133	7.36846e+06	-55989.1	955.822	-29740.5	0.000000	0.000000	7.196386	479.235	NaN	0.000000	0.001626	0.001650	28.0789	104.626	0.001844	56747.1	10.3964	166.92	482.587	1.175608	0.110845	0.110320	479.235	56747.1	0.104511	0.332196	1442.63	89953.9
347	2.000000	1.177749	7.36846e+06	-55989.1	955.821	-29740.5	0.000000	0.000000	7.198766	497.786	NaN	0.000000	0.001677	0.001635	28.0787	106.201	0.001729	61436.2	7.994929	167.943	487.338	1.177391	0.112461	0.112103	497.786	61436.2	0.106384	0.342883	1451.76	95857.2