File: remote_trans/data/nanoindenter/0828-1/data/Data_2025-08-06,11h17m57s/2025-07-22_16-23-58_1_755.txt
2025-07-22, 16:23:58, 1
Index	Phase	Displacement	Time	Pos X	Pos Y	Pos Z	Rot A	Rot B	Piezo Z	Force A	Force B	Gripper	Voltage A	Voltage B	Temperature	Amplitude force	Amplitude pos	Stiffness	Phase shift	Phase excitation	Force A raw	Displacement raw	HMax	HMax raw	Real Force	Real Stiffness	Contact Depth	Area	Hardness	Reduced Mod.
[#]	[#]	[um]	[s]	[um]	[um]	[um]	[m°]	[m°]	[um]	[uN]	[uN]	[V]	[V]	[V]	[°C]	[uN]	[um]	[N/m]	[°]	[°]	[uN]	[um]	[um]	[um]	[uN]	[N/m]	[um]	[um^2]	[MPa]	[MPa]
755	1.000000	0.002725	7.37244e+06	-39339.1	1005.82	-29794.2	0.000000	0.000000	6.002817	0.005146	NaN	0.000000	0.001691	0.001690	28.0837	0.096452	0.000959	100.58	-33.1691	-162.356	0.005458	0.001424	-1.104624	-1.105925	0.005146	100.58	-1.104662	-5.789588E+14	-8.888216E-18	NaN
755	1.000000	0.012773	7.37244e+06	-39339.1	1005.82	-29794.2	0.000000	0.000000	6.012865	0.000850	NaN	0.000000	0.001665	0.001705	28.0826	0.031923	0.001278	24.9864	-46.4794	18.9302	-0.063323	0.011384	-1.094576	-1.095965	0.000850	24.9864	-1.094601	-4.242204E+14	-2.003718E-18	NaN
755	1.000000	0.022671	7.37244e+06	-39339.1	1005.82	-29794.2	0.000000	0.000000	6.022762	-0.020140	NaN	0.000000	0.001659	0.001700	28.0826	0.054656	0.001812	30.1633	-24.0857	-165.839	0.021373	0.021383	-1.084677	-1.085966	-0.020140	30.1633	-1.084177	-3.073360E+14	6.553197E-17	NaN
755	1.000000	0.032677	7.37244e+06	-39339.1	1005.82	-29794.2	0.000000	0.000000	6.032766	-0.078069	NaN	0.000000	0.001628	0.001712	28.0825	0.088967	0.001928	46.1364	9.630580	14.0651	-0.018043	0.031308	-1.074672	-1.076041	-0.078069	46.1364	-1.073403	-2.202420E+14	3.544698E-16	NaN
755	1.000000	0.042653	7.37244e+06	-39339.1	1005.82	-29794.2	0.000000	0.000000	6.042743	-0.038294	NaN	0.000000	0.001646	0.001715	28.0827	0.104306	0.002069	50.4088	91.2548	-164.37	0.012564	0.041354	-1.064696	-1.065995	-0.038294	50.4088	-1.064126	-1.652975E+14	2.316646E-16	NaN
755	1.000000	0.052662	7.37244e+06	-39339.1	1005.82	-29794.2	0.000000	0.000000	6.052755	0.022848	NaN	0.000000	0.001665	0.001728	28.0824	0.075373	0.001949	38.6784	-78.9906	12.8123	0.007618	0.051314	-1.054687	-1.056035	0.022848	38.6784	-1.055130	-1.251309E+14	-1.825950E-16	NaN
755	1.000000	0.062667	7.37244e+06	-39339.1	1005.82	-29794.2	0.000000	0.000000	6.062758	-0.019998	NaN	0.000000	0.001685	0.001704	28.0828	0.008635	0.001904	4.535003	165.184	-163.99	-0.018673	0.061328	-1.044682	-1.046020	-0.019998	4.535003	-1.041375	-8.174313E+13	2.446405E-16	NaN
755	1.000000	0.072676	7.37244e+06	-39339.1	1005.82	-29794.2	0.000000	0.000000	6.072769	0.034542	NaN	0.000000	0.001681	0.001685	28.0837	0.086897	0.001992	43.6172	168.194	10.9202	-0.054253	0.071253	-1.034673	-1.036095	0.034542	43.6172	-1.035267	-6.765751E+13	-5.105456E-16	NaN
755	1.000000	0.082649	7.37244e+06	-39339.1	1005.82	-29794.2	0.000000	0.000000	6.082740	-0.013883	NaN	0.000000	0.001687	0.001691	28.084	0.059147	0.001930	30.6505	97.2165	-168.798	-0.040095	0.081350	-1.024700	-1.025999	-0.013883	30.6505	-1.024360	-4.826260E+13	2.876473E-16	NaN
755	1.000000	0.092679	7.37244e+06	-39339.1	1005.82	-29794.2	0.000000	0.000000	6.092774	0.081784	NaN	0.000000	0.001672	0.001684	28.0839	0.038219	0.001923	19.874	-51.2639	13.3075	0.119665	0.091323	-1.014670	-1.016026	0.081784	19.874	-1.017756	-3.933347E+13	-2.079239E-15	NaN
755	1.000000	0.102674	7.37244e+06	-39339.1	1005.82	-29794.2	0.000000	0.000000	6.102765	-0.015069	NaN	0.000000	0.001648	0.001647	28.084	0.085178	0.002026	42.034	-46.4785	-167.232	-0.099235	0.101374	-1.004675	-1.005975	-0.015069	42.034	-1.004406	-2.600682E+13	5.794176E-16	NaN
755	1.000000	0.112693	7.37244e+06	-39339.1	1005.82	-29794.2	0.000000	0.000000	6.112781	-0.078259	NaN	0.000000	0.001674	0.001683	28.0845	0.106190	0.002051	51.7746	-112.646	11.2837	0.004245	0.111294	-0.994656	-0.996055	-0.078259	51.7746	-0.993523	-1.855884E+13	4.216822E-15	NaN
755	1.000000	0.122693	7.37244e+06	-39339.1	1005.82	-29794.2	0.000000	0.000000	6.122785	0.001071	NaN	0.000000	0.001659	0.001705	28.0842	0.031691	0.002045	15.4966	55.5517	-160.629	0.003035	0.121396	-0.984655	-0.985953	0.001071	15.4966	-0.984707	-1.411965E+13	-7.583904E-17	NaN
755	1.000000	0.132675	7.37244e+06	-39339.1	1005.82	-29794.2	0.000000	0.000000	6.132766	-0.015513	NaN	0.000000	0.001660	0.001694	28.0841	0.118701	0.001972	60.1967	63.8363	13.8456	0.098299	0.131300	-0.974674	-0.976049	-0.015513	60.1967	-0.974481	-1.028123E+13	1.508875E-15	NaN
755	1.000000	0.142676	7.37244e+06	-39339.1	1005.82	-29794.2	0.000000	0.000000	6.142769	0.040197	NaN	0.000000	0.001638	0.001691	28.084	0.113294	0.001988	56.9857	94.4383	-168.118	0.036299	0.141361	-0.964673	-0.965987	0.040197	56.9857	-0.965202	-7.708925E+12	-5.214397E-15	NaN
755	1.000000	0.152688	7.37244e+06	-39339.1	1005.82	-29794.2	0.000000	0.000000	6.152778	-0.045666	NaN	0.000000	0.001604	0.001683	28.0845	0.116123	0.002003	57.9718	40.696	13.2892	0.007671	0.151366	-0.954661	-0.955983	-0.045666	57.9718	-0.954070	-5.456521E+12	8.368998E-15	NaN
755	1.000000	0.162727	7.37244e+06	-39339.1	1005.82	-29794.2	0.000000	0.000000	6.162821	0.060210	NaN	0.000000	0.001642	0.001678	28.0841	0.071596	0.001937	36.9603	-120.16	-166.742	-0.062671	0.161347	-0.944622	-0.946002	0.060210	36.9603	-0.945844	-4.226396E+12	-1.424627E-14	NaN
755	1.000000	0.172730	7.37244e+06	-39339.1	1005.82	-29794.2	0.000000	0.000000	6.172820	-0.037479	NaN	0.000000	0.001665	0.001679	28.0841	0.026496	0.002094	12.6514	-143.973	16.4541	-0.023577	0.171317	-0.934619	-0.936031	-0.037479	12.6514	-0.932397	-2.783235E+12	1.346586E-14	NaN
755	1.000000	0.182733	7.37244e+06	-39339.1	1005.82	-29794.2	0.000000	0.000000	6.182825	-0.001620	NaN	0.000000	0.001639	0.001693	28.0842	0.126117	0.002014	62.6101	81.3487	-169.354	0.072293	0.181357	-0.924616	-0.925992	-0.001620	62.6101	-0.924596	-2.184015E+12	7.416294E-16	NaN
755	1.000000	0.192698	7.37244e+06	-39339.1	1005.82	-29794.2	0.000000	0.000000	6.192791	0.036869	NaN	0.000000	0.001622	0.001678	28.0839	0.067934	0.002077	32.7044	-14.7874	12.2237	0.023700	0.191366	-0.914651	-0.915982	0.036869	32.7044	-0.915497	-1.645882E+12	-2.240095E-14	NaN
755	1.000000	0.202719	7.37244e+06	-39339.1	1005.82	-29794.2	0.000000	0.000000	6.202811	0.013569	NaN	0.000000	0.001645	0.001698	28.0829	0.056557	0.002142	26.4019	68.7635	-168.34	-0.001862	0.201387	-0.904630	-0.905961	0.013569	26.4019	-0.905015	-1.188033E+12	-1.142132E-14	NaN
755	1.000000	0.212739	7.37244e+06	-39339.1	1005.82	-29794.2	0.000000	0.000000	6.212832	0.025216	NaN	0.000000	0.001615	0.001706	28.0827	0.034140	0.002104	16.2271	119.817	13.0844	-0.003067	0.211358	-0.894610	-0.895991	0.025216	16.2271	-0.895775	-8.911955E+11	-2.829499E-14	NaN
755	1.000000	0.222728	7.37244e+06	-39339.1	1005.82	-29794.2	0.000000	0.000000	6.222820	0.020067	NaN	0.000000	0.001615	0.001694	28.083	0.040277	0.001989	20.2516	-63.8272	-166.516	-0.071590	0.221358	-0.884621	-0.885991	0.020067	20.2516	-0.885364	-6.445258E+11	-3.113491E-14	NaN
755	1.000000	0.232730	7.37244e+06	-39339.1	1005.82	-29794.2	0.000000	0.000000	6.232824	0.063477	NaN	0.000000	0.001620	0.001713	28.0827	0.098439	0.002066	47.6454	106.199	16.4752	0.084003	0.231386	-0.874619	-0.875963	0.063477	47.6454	-0.875618	-4.758222E+11	-1.334044E-13	NaN
755	1.000000	0.242704	7.37244e+06	-39339.1	1005.82	-29794.2	0.000000	0.000000	6.242796	0.001887	NaN	0.000000	0.001659	0.001686	28.0828	0.200486	0.001902	105.408	-125.884	-165.871	-0.060348	0.241399	-0.864644	-0.865950	0.001887	105.408	-0.864658	-3.381874E+11	-5.578643E-15	NaN
755	1.000000	0.252745	7.37244e+06	-39339.1	1005.82	-29794.2	0.000000	0.000000	6.252836	-0.014412	NaN	0.000000	0.001662	0.001651	28.0825	0.039408	0.002198	17.9264	-75.9339	14.4343	-0.001221	0.251362	-0.854604	-0.855987	-0.014412	17.9264	-0.854001	-2.426094E+11	5.940283E-14	NaN
755	1.000000	0.262749	7.37244e+06	-39339.1	1005.82	-29794.2	0.000000	0.000000	6.262839	-0.040526	NaN	0.000000	0.001659	0.001688	28.0828	0.128991	0.001979	65.1645	70.9621	-166.721	-0.058046	0.261446	-0.844599	-0.845903	-0.040526	65.1645	-0.844133	-1.783520E+11	2.272260E-13	NaN
755	1.000000	0.272764	7.37244e+06	-39339.1	1005.82	-29794.2	0.000000	0.000000	6.272856	0.022136	NaN	0.000000	0.001649	0.001676	28.0825	0.048990	0.002046	23.9401	117.113	16.3037	-0.029693	0.271406	-0.834585	-0.835943	0.022136	23.9401	-0.835279	-1.353075E+11	-1.636011E-13	NaN
755	1.000000	0.282749	7.37244e+06	-39339.1	1005.82	-29794.2	0.000000	0.000000	6.282840	-0.029183	NaN	0.000000	0.001645	0.001668	28.0827	0.015497	0.002071	7.483422	-171.052	-165.643	0.001890	0.281444	-0.824600	-0.825904	-0.029183	7.483422	-0.821675	-8.849582E+10	3.297691E-13	NaN
755	1.000000	0.292762	7.37244e+06	-39339.1	1005.82	-29794.2	0.000000	0.000000	6.292853	-0.019523	NaN	0.000000	0.001630	0.001655	28.0827	0.036696	0.002000	18.3502	42.8258	13.6654	0.012168	0.291412	-0.814587	-0.815937	-0.019523	18.3502	-0.813789	-6.917841E+10	2.822141E-13	NaN
755	1.000000	0.302796	7.37244e+06	-39339.1	1005.82	-29794.2	0.000000	0.000000	6.302887	-0.021564	NaN	0.000000	0.001640	0.001689	28.0827	0.108288	0.002062	52.5117	57.899	-167.078	-0.022200	0.301441	-0.804553	-0.805908	-0.021564	52.5117	-0.804245	-5.134219E+10	4.199991E-13	NaN
755	1.000000	0.312773	7.37244e+06	-39339.1	1005.82	-29794.2	0.000000	0.000000	6.312861	-0.091913	NaN	0.000000	0.001639	0.001655	28.0827	0.061026	0.001996	30.5756	-66.3313	15.3379	-0.044694	0.311385	-0.794576	-0.795964	-0.091913	30.5756	-0.792321	-3.536791E+10	2.598760E-12	NaN
755	1.000000	0.322757	7.37244e+06	-39339.1	1005.82	-29794.2	0.000000	0.000000	6.322846	-0.061780	NaN	0.000000	0.001600	0.001683	28.0826	0.106039	0.001939	54.6788	-140.714	-165.76	-0.058861	0.321495	-0.784592	-0.785853	-0.061780	54.6788	-0.783744	-2.704624E+10	2.284226E-12	NaN
755	1.000000	0.332775	7.37244e+06	-39339.1	1005.82	-29794.2	0.000000	0.000000	6.332866	0.005653	NaN	0.000000	0.001600	0.001646	28.0828	0.072791	0.001908	38.1553	-138.178	13.0781	-0.005782	0.331461	-0.774574	-0.775887	0.005653	38.1553	-0.774685	-2.037044E+10	-2.775291E-13	NaN
755	1.000000	0.342785	7.37244e+06	-39339.1	1005.82	-29794.2	0.000000	0.000000	6.342878	0.038769	NaN	0.000000	0.001631	0.001687	28.0837	0.060667	0.001948	31.1439	139.877	-167.602	0.107700	0.341439	-0.764564	-0.765910	0.038769	31.1439	-0.765497	-1.527841E+10	-2.537499E-12	NaN
755	1.000000	0.352737	7.37244e+06	-39339.1	1005.82	-29794.2	0.000000	0.000000	6.352827	-0.022373	NaN	0.000000	0.001656	0.001673	28.0841	0.074710	0.001836	40.7008	116.282	9.924276	0.008908	0.351433	-0.754612	-0.755916	-0.022373	40.7008	-0.754200	-1.072467E+10	2.086131E-12	NaN
755	1.000000	0.362794	7.37244e+06	-39339.1	1005.82	-29794.2	0.000000	0.000000	6.362888	0.057025	NaN	0.000000	0.001692	0.001641	28.0838	0.069834	0.001976	35.3327	-140.676	-168.867	0.084713	0.361477	-0.744555	-0.745872	0.057025	35.3327	-0.745765	-8.233146E+9	-6.926251E-12	NaN
755	1.000000	0.372776	7.37244e+06	-39339.1	1005.82	-29794.2	0.000000	0.000000	6.372867	0.002725	NaN	0.000000	0.001605	0.001650	28.0842	0.115268	0.001889	61.0241	-146.032	12.2447	-0.015351	0.371428	-0.734573	-0.735921	0.002725	61.0241	-0.734607	-5.802049E+9	-4.696097E-13	NaN
755	1.000000	0.382794	7.37244e+06	-39339.1	1005.82	-29794.2	0.000000	0.000000	6.382884	-0.045809	NaN	0.000000	0.001667	0.001657	28.0839	0.045492	0.002141	21.2476	-69.3685	-164.051	0.000415	0.381461	-0.724554	-0.725888	-0.045809	21.2476	-0.722937	-4.022801E+9	1.138735E-11	NaN
755	1.000000	0.392761	7.37244e+06	-39339.1	1005.82	-29794.2	0.000000	0.000000	6.392856	0.075100	NaN	0.000000	0.001614	0.001699	28.0838	0.057839	0.002148	26.932	148.389	13.6273	0.059972	0.391429	-0.714587	-0.715919	0.075100	26.932	-0.716679	-3.305007E+9	-2.272309E-11	NaN
755	1.000000	0.402791	7.37244e+06	-39339.1	1005.82	-29794.2	0.000000	0.000000	6.402882	-0.013181	NaN	0.000000	0.001644	0.001683	28.0839	0.020037	0.002043	9.806837	-142.119	-165.885	-0.071083	0.401503	-0.704558	-0.705846	-0.013181	9.806837	-0.703550	-2.187792E+9	6.024610E-12	NaN
755	1.000000	0.412835	7.37244e+06	-39339.1	1005.82	-29794.2	0.000000	0.000000	6.412927	0.005495	NaN	0.000000	0.001644	0.001617	28.084	0.098894	0.001834	53.9368	-53.4233	13.7314	-0.006391	0.411460	-0.694513	-0.695889	0.005495	53.9368	-0.694590	-1.650565E+9	-3.329076E-12	NaN
755	1.000000	0.422807	7.37244e+06	-39339.1	1005.82	-29794.2	0.000000	0.000000	6.422899	-0.009341	NaN	0.000000	0.001668	0.001661	28.084	0.071271	0.001996	35.7026	-9.740349	-165.191	0.103687	0.421507	-0.684541	-0.685842	-0.009341	35.7026	-0.684345	-1.195694E+9	7.812362E-12	NaN
755	1.000000	0.432832	7.37244e+06	-39339.1	1005.82	-29794.2	0.000000	0.000000	6.432924	0.014852	NaN	0.000000	0.001635	0.001685	28.084	0.078820	0.001981	39.792	-174.118	14.221	0.060662	0.431416	-0.674517	-0.675932	0.014852	39.792	-0.674797	-8.851860E+8	-1.677786E-11	NaN
755	1.000000	0.442812	7.37244e+06	-39339.1	1005.82	-29794.2	0.000000	0.000000	6.442902	-0.045604	NaN	0.000000	0.001642	0.001700	28.0843	0.109487	0.002088	52.4296	159.202	-168.847	-0.098682	0.441566	-0.664537	-0.665783	-0.045604	52.4296	-0.663884	-6.275781E+8	7.266658E-11	NaN
755	1.000000	0.452833	7.37244e+06	-39339.1	1005.82	-29794.2	0.000000	0.000000	6.452924	0.001003	NaN	0.000000	0.001621	0.001650	28.0841	0.079444	0.001990	39.9135	158.14	8.428447	-0.028643	0.451474	-0.654516	-0.655875	0.001003	39.9135	-0.654535	-4.672973E+8	-2.145851E-12	NaN
755	1.000000	0.462832	7.37244e+06	-39339.1	1005.82	-29794.2	0.000000	0.000000	6.462924	0.008170	NaN	0.000000	0.001680	0.001656	28.084	0.063815	0.002012	31.7226	-92.0065	-169.717	0.004522	0.461492	-0.644516	-0.645856	0.008170	31.7226	-0.644709	-3.426829E+8	-2.384067E-11	NaN
755	1.000000	0.472836	7.37244e+06	-39339.1	1005.82	-29794.2	0.000000	0.000000	6.472929	0.030665	NaN	0.000000	0.001637	0.001689	28.0834	0.063523	0.001861	34.1346	-82.3853	10.3187	0.001110	0.471486	-0.634513	-0.635863	0.030665	34.1346	-0.635187	-2.536497E+8	-1.208938E-10	NaN
755	1.000000	0.482808	7.37244e+06	-39339.1	1005.82	-29794.2	0.000000	0.000000	6.482898	-0.019291	NaN	0.000000	0.001694	0.001651	28.083	0.083424	0.002023	41.2359	164.722	-168.272	-0.085345	0.481572	-0.624541	-0.625776	-0.019291	41.2359	-0.624190	-1.791508E+8	1.076795E-10	NaN
755	1.000000	0.492824	7.37244e+06	-39339.1	1005.82	-29794.2	0.000000	0.000000	6.492916	0.001850	NaN	0.000000	0.001721	0.001649	28.0831	0.060058	0.002114	28.4157	-114.982	16.6417	-0.059355	0.491542	-0.614525	-0.615807	0.001850	28.4157	-0.614573	-1.321366E+8	-1.399985E-11	NaN
755	1.000000	0.502829	7.37244e+06	-39339.1	1005.82	-29794.2	0.000000	0.000000	6.502918	-0.058624	NaN	0.000000	0.001695	0.001675	28.0827	0.128029	0.002207	58.0037	-145.771	-168.832	-0.045423	0.501581	-0.604520	-0.605768	-0.058624	58.0037	-0.603762	-9.381279E+7	6.249063E-10	NaN
755	1.000000	0.512842	7.37244e+06	-39339.1	1005.82	-29794.2	0.000000	0.000000	6.512932	-0.036273	NaN	0.000000	0.001695	0.001682	28.083	0.044558	0.002092	21.2995	-87.3491	12.0863	0.014293	0.511469	-0.594507	-0.595880	-0.036273	21.2995	-0.593229	-6.717112E+7	5.400046E-10	NaN
755	1.000000	0.522869	7.37244e+06	-39339.1	1005.82	-29794.2	0.000000	0.000000	6.522962	0.018147	NaN	0.000000	0.001673	0.001716	28.083	0.036408	0.002178	16.7128	59.9814	-165.14	0.060264	0.521533	-0.584479	-0.585815	0.018147	16.7128	-0.585294	-5.221167E+7	-3.475733E-10	NaN
755	1.000000	0.532829	7.37244e+06	-39339.1	1005.82	-29794.2	0.000000	0.000000	6.532920	-0.006925	NaN	0.000000	0.001663	0.001656	28.083	0.099812	0.001942	51.4085	116.75	10.9206	0.024366	0.531504	-0.574520	-0.575845	-0.006925	51.4085	-0.574419	-3.695519E+7	1.873981E-10	NaN
755	1.000000	0.542882	7.37244e+06	-39339.1	1005.82	-29794.2	0.000000	0.000000	6.542974	0.013981	NaN	0.000000	0.001655	0.001682	28.0829	0.096019	0.002066	46.4737	-83.4562	-165.1	0.026079	0.541547	-0.564467	-0.565802	0.013981	46.4737	-0.564693	-2.711924E+7	-5.155282E-10	NaN
755	1.000000	0.552870	7.37244e+06	-39339.1	1005.82	-29794.2	0.000000	0.000000	6.552963	0.026765	NaN	0.000000	0.001715	0.001673	28.0833	0.032330	0.001957	16.5184	152.883	10.8747	-0.010277	0.551529	-0.554479	-0.555820	0.026765	16.5184	-0.555694	-2.036079E+7	-1.314543E-9	NaN
755	1.000000	0.562825	7.37244e+06	-39339.1	1005.82	-29794.2	0.000000	0.000000	6.562918	0.039353	NaN	0.000000	0.001624	0.001670	28.0831	0.103614	0.002004	51.7049	35.2289	-165.659	-0.007878	0.561591	-0.544524	-0.545758	0.039353	51.7049	-0.545094	-1.452075E+7	-2.710153E-9	NaN
755	1.000000	0.572857	7.37244e+06	-39339.1	1005.82	-29794.2	0.000000	0.000000	6.572948	-0.006305	NaN	0.000000	0.001623	0.001658	28.0831	0.099090	0.001963	50.4718	69.5318	12.3817	-0.051067	0.571536	-0.534492	-0.535813	-0.006305	50.4718	-0.534398	-1.031893E+7	6.110084E-10	NaN
755	1.000000	0.582890	7.37244e+06	-39339.1	1005.82	-29794.2	0.000000	0.000000	6.582982	0.020439	NaN	0.000000	0.001635	0.001665	28.0829	0.056856	0.002073	27.4234	39.6161	-167.573	0.009470	0.581567	-0.524459	-0.525781	0.020439	27.4234	-0.525018	-7.64475e+06	-2.673568E-9	NaN
755	1.000000	0.592892	7.37244e+06	-39339.1	1005.82	-29794.2	0.000000	0.000000	6.592986	0.063305	NaN	0.000000	0.001652	0.001628	28.083	0.067079	0.001938	34.6176	-139.017	14.1628	0.026040	0.591490	-0.514457	-0.515859	0.063305	34.6176	-0.515828	-5.69585e+06	-1.111431E-8	NaN
755	1.000000	0.602898	7.37244e+06	-39339.1	1005.82	-29794.2	0.000000	0.000000	6.602989	-0.025967	NaN	0.000000	0.001636	0.001698	28.0828	0.102201	0.002046	49.9491	57.4717	-164.614	-0.016207	0.601634	-0.504450	-0.505714	-0.025967	49.9491	-0.504060	-3.90522e+06	6.649305E-9	NaN
755	1.000000	0.612892	7.37244e+06	-39339.1	1005.82	-29794.2	0.000000	0.000000	6.612983	-0.013240	NaN	0.000000	0.001623	0.001675	28.0842	0.064218	0.002014	31.8814	-136.933	15.2602	-0.051394	0.611514	-0.494457	-0.495835	-0.013240	31.8814	-0.494145	-2.83988e+06	4.662037E-9	NaN
755	1.000000	0.622898	7.37244e+06	-39339.1	1005.82	-29794.2	0.000000	0.000000	6.622991	0.014151	NaN	0.000000	0.001671	0.001716	28.0842	0.012510	0.001970	6.349850	-26.9613	-167.173	0.013746	0.621622	-0.484450	-0.485727	0.014151	6.349850	-0.486122	-2.1937e+06	-6.450866E-9	NaN
755	1.000000	0.632889	7.37244e+06	-39339.1	1005.82	-29794.2	0.000000	0.000000	6.632982	0.017775	NaN	0.000000	0.001667	0.001672	28.0841	0.014885	0.001964	7.579341	-168.206	14.129	0.038695	0.631533	-0.474460	-0.475815	0.017775	7.579341	-0.476218	-1.5943e+06	-1.114920E-8	NaN
755	1.000000	0.642885	7.37244e+06	-39339.1	1005.82	-29794.2	0.000000	0.000000	6.642977	0.015741	NaN	0.000000	0.001682	0.001697	28.0841	0.062022	0.001992	31.1324	-125.44	-164.912	-0.014067	0.641595	-0.464464	-0.465753	0.015741	31.1324	-0.464843	-1.10419e+06	-1.425552E-8	NaN
755	1.000000	0.652918	7.37244e+06	-39339.1	1005.82	-29794.2	0.000000	0.000000	6.653010	0.006810	NaN	0.000000	0.001673	0.001735	28.084	0.089965	0.002009	44.7766	103.258	15.0982	-0.092760	0.651538	-0.454430	-0.455811	0.006810	44.7766	-0.454545	-791242	-8.606142E-9	NaN
755	1.000000	0.662906	7.37244e+06	-39339.1	1005.82	-29794.2	0.000000	0.000000	6.663000	0.047344	NaN	0.000000	0.001672	0.001724	28.0843	0.113002	0.001974	57.2482	142.044	-166.136	-0.006082	0.661534	-0.444442	-0.445814	0.047344	57.2482	-0.445063	-581803	-8.137417E-8	NaN
755	1.000000	0.672906	7.37244e+06	-39339.1	1005.82	-29794.2	0.000000	0.000000	6.672996	-0.037959	NaN	0.000000	0.001676	0.001775	28.0839	0.097071	0.001965	49.4079	-151.281	13.6337	-0.007602	0.671599	-0.434443	-0.435749	-0.037959	49.4079	-0.433867	-404334	9.388018E-8	NaN
755	1.000000	0.682932	7.37244e+06	-39339.1	1005.82	-29794.2	0.000000	0.000000	6.683023	-0.016921	NaN	0.000000	0.001638	0.001740	28.0843	0.076438	0.002084	36.677	-16.3457	-171.327	-0.031993	0.681604	-0.424417	-0.425745	-0.016921	36.677	-0.424071	-293849	5.758337E-8	NaN
755	1.000000	0.692887	7.37244e+06	-39339.1	1005.82	-29794.2	0.000000	0.000000	6.692979	0.002395	NaN	0.000000	0.001745	0.001716	28.0841	0.045090	0.001984	22.7319	105.757	16.0328	0.079732	0.691590	-0.414461	-0.415759	0.002395	22.7319	-0.414540	-215243	-1.112491E-8	NaN
755	1.000000	0.702919	7.37244e+06	-39339.1	1005.82	-29794.2	0.000000	0.000000	6.703008	-0.041636	NaN	0.000000	0.001720	0.001772	28.0843	0.025551	0.001979	12.909	74.9239	-167.614	-0.001718	0.701630	-0.404430	-0.405719	-0.041636	12.909	-0.402011	-142780	2.916077E-7	NaN
755	1.000000	0.712926	7.37244e+06	-39339.1	1005.82	-29794.2	0.000000	0.000000	6.713016	-0.033616	NaN	0.000000	0.001607	0.001744	28.084	0.095927	0.002097	45.7388	-45.0038	14.6228	0.000847	0.711558	-0.394423	-0.395791	-0.033616	45.7388	-0.393871	-109273	3.076369E-7	NaN
755	1.000000	0.722938	7.37244e+06	-39339.1	1005.82	-29794.2	0.000000	0.000000	6.723030	0.013187	NaN	0.000000	0.001660	0.001755	28.0842	0.034353	0.001938	17.73	95.5965	-166.107	-0.054898	0.721604	-0.384411	-0.385745	0.013187	17.73	-0.384969	-81495.8	-1.618176E-7	NaN
755	1.000000	0.732939	7.37244e+06	-39339.1	1005.82	-29794.2	0.000000	0.000000	6.733029	-0.024504	NaN	0.000000	0.001642	0.001747	28.0842	0.067722	0.001872	36.1706	13.0984	11.448	-0.028322	0.731545	-0.374410	-0.375804	-0.024504	36.1706	-0.373902	-56530.2	4.334708E-7	NaN
755	1.000000	0.742950	7.37244e+06	-39339.1	1005.82	-29794.2	0.000000	0.000000	6.743040	-0.032948	NaN	0.000000	0.001643	0.001729	28.084	0.053258	0.001943	27.4068	161.91	-168.322	0.072831	0.741583	-0.364399	-0.365765	-0.032948	27.4068	-0.363497	-40028.3	8.231069E-7	NaN
755	1.000000	0.752953	7.37244e+06	-39339.1	1005.82	-29794.2	0.000000	0.000000	6.753043	-0.026845	NaN	0.000000	0.001666	0.001765	28.0828	0.125342	0.002046	61.259	-69.9841	14.373	-0.027876	0.751571	-0.354396	-0.355778	-0.026845	61.259	-0.354067	-29240.7	9.180858E-7	NaN
755	1.000000	0.762962	7.37244e+06	-39339.1	1005.82	-29794.2	0.000000	0.000000	6.763053	-0.026953	NaN	0.000000	0.001636	0.001736	28.0826	0.044570	0.001918	23.2378	-140.31	-162.065	0.023570	0.761641	-0.344387	-0.345708	-0.026953	23.2378	-0.343517	-20548.2	1.311709E-6	NaN
755	1.000000	0.773000	7.37244e+06	-39339.1	1005.82	-29794.2	0.000000	0.000000	6.773091	-0.018055	NaN	0.000000	0.001638	0.001733	28.0831	0.057368	0.002052	27.9617	-142.141	15.611	-0.015903	0.771618	-0.334349	-0.335731	-0.018055	27.9617	-0.333864	-14859.1	1.215073E-6	NaN
755	1.000000	0.782946	7.37244e+06	-39339.1	1005.82	-29794.2	0.000000	0.000000	6.783037	-0.008616	NaN	0.000000	0.001624	0.001733	28.0826	0.030572	0.001932	15.8277	-34.3958	-166.884	-0.014985	0.781680	-0.324403	-0.325669	-0.008616	15.8277	-0.323994	-10650.5	8.089507E-7	NaN
755	1.000000	0.792979	7.37244e+06	-39339.1	1005.82	-29794.2	0.000000	0.000000	6.793072	0.040707	NaN	0.000000	0.001626	0.001775	28.0826	0.028540	0.002070	13.7853	-149.401	15.0191	0.026404	0.791622	-0.314370	-0.315727	0.040707	13.7853	-0.316584	-8285.49	-4.913048E-6	NaN
755	1.000000	0.802959	7.37244e+06	-39339.1	1005.82	-29794.2	0.000000	0.000000	6.803049	-0.047686	NaN	0.000000	0.001573	0.001762	28.0826	0.072792	0.001946	37.4108	-93.9488	-167.725	-0.019262	0.801691	-0.304390	-0.305657	-0.047686	37.4108	-0.303434	-5292.96	9.009334E-6	NaN
755	1.000000	0.812962	7.37244e+06	-39339.1	1005.82	-29794.2	0.000000	0.000000	6.813053	-0.004321	NaN	0.000000	0.001609	0.001755	28.0828	0.078604	0.001976	39.7835	69.2373	12.3429	0.064887	0.811632	-0.294387	-0.295717	-0.004321	39.7835	-0.294305	-3870.02	1.116567E-6	NaN
755	1.000000	0.822995	7.37244e+06	-39339.1	1005.82	-29794.2	0.000000	0.000000	6.823088	0.025018	NaN	0.000000	0.001680	0.001775	28.0825	0.056370	0.002020	27.9063	14.153	-168.204	-0.009315	0.821663	-0.284353	-0.285686	0.025018	27.9063	-0.285026	-2809.66	-8.904416E-6	NaN
755	1.000000	0.832996	7.37244e+06	-39339.1	1005.82	-29794.2	0.000000	0.000000	6.833087	-0.003876	NaN	0.000000	0.001734	0.001761	28.0826	0.057648	0.001933	29.8185	119.234	15.4392	-0.021954	0.831613	-0.274353	-0.275736	-0.003876	29.8185	-0.274256	-1932.53	2.005656E-6	NaN
755	1.000000	0.842982	7.37244e+06	-39339.1	1005.82	-29794.2	0.000000	0.000000	6.843074	0.012382	NaN	0.000000	0.001687	0.001785	28.0827	0.055818	0.002051	27.2206	153.999	-164.773	0.057626	0.841670	-0.264367	-0.265679	0.012382	27.2206	-0.264708	-1383.34	-8.950943E-6	NaN
755	1.000000	0.852975	7.37244e+06	-39339.1	1005.82	-29794.2	0.000000	0.000000	6.853065	-0.038026	NaN	0.000000	0.001627	0.001777	28.0825	0.034374	0.001858	18.4967	52.5452	14.8168	0.065641	0.851695	-0.254374	-0.255653	-0.038026	18.4967	-0.252832	-909.293	4.181877E-5	NaN
755	1.000000	0.863012	7.37244e+06	-39339.1	1005.82	-29794.2	0.000000	0.000000	6.863105	0.047489	NaN	0.000000	0.001625	0.001794	28.0827	0.049811	0.001919	25.9518	64.7892	-167.453	-0.036735	0.861713	-0.244337	-0.245636	0.047489	25.9518	-0.245710	-705.466	-6.731584E-5	NaN
755	1.000000	0.872999	7.37244e+06	-39339.1	1005.82	-29794.2	0.000000	0.000000	6.873090	-0.007738	NaN	0.000000	0.001631	0.001768	28.0827	0.113333	0.002042	55.5106	-123.459	10.878	-0.022256	0.871662	-0.234350	-0.235687	-0.007738	55.5106	-0.234245	-467.077	1.656619E-5	NaN
755	1.000000	0.883018	7.37244e+06	-39339.1	1005.82	-29794.2	0.000000	0.000000	6.883108	-0.022970	NaN	0.000000	0.001656	0.001802	28.0838	0.035458	0.002071	17.1243	172.999	-166.437	-0.049687	0.881680	-0.224331	-0.225668	-0.022970	17.1243	-0.223325	-313.839	7.318970E-5	NaN
755	1.000000	0.892973	7.37244e+06	-39339.1	1005.82	-29794.2	0.000000	0.000000	6.893067	0.046970	NaN	0.000000	0.001639	0.001787	28.0841	0.080621	0.002012	40.0624	-48.9689	13.244	-0.001693	0.891607	-0.214376	-0.215742	0.046970	40.0624	-0.215255	-233.138	-0.000201	NaN
755	1.000000	0.903002	7.37244e+06	-39339.1	1005.82	-29794.2	0.000000	0.000000	6.903093	-0.004788	NaN	0.000000	0.001640	0.001791	28.0837	0.047616	0.001907	24.9648	155.51	-166.67	0.008272	0.901726	-0.204347	-0.205623	-0.004788	24.9648	-0.204203	-154.366	3.101875E-5	NaN
755	1.000000	0.912998	7.37244e+06	-39339.1	1005.82	-29794.2	0.000000	0.000000	6.913091	0.029059	NaN	0.000000	0.001649	0.001791	28.084	0.052561	0.001931	27.2256	-37.6421	16.1039	-0.016561	0.911696	-0.194351	-0.195653	0.029059	27.2256	-0.195151	-109.574	-0.000265	NaN
755	1.000000	0.923026	7.37244e+06	-39339.1	1005.82	-29794.2	0.000000	0.000000	6.923121	0.070091	NaN	0.000000	0.001656	0.001748	28.0841	0.034509	0.002048	16.8463	44.1046	-166.121	0.110016	0.921668	-0.184322	-0.185681	0.070091	16.8463	-0.187443	-81.5107	-0.000860	NaN
755	1.000000	0.933014	7.37244e+06	-39339.1	1005.82	-29794.2	0.000000	0.000000	6.933106	0.004389	NaN	0.000000	0.001656	0.001803	28.0842	0.113060	0.002024	55.8482	102.62	13.0621	-0.073324	0.931675	-0.174335	-0.175673	0.004389	55.8482	-0.174394	-48.9277	-8.970881E-5	NaN
755	1.000000	0.943013	7.37244e+06	-39339.1	1005.82	-29794.2	0.000000	0.000000	6.943104	-0.012642	NaN	0.000000	0.001630	0.001805	28.0839	0.016244	0.001996	8.138040	174.782	-168.782	-0.007247	0.941725	-0.164336	-0.165623	-0.012642	8.138040	-0.163171	-31.1974	0.000405	NaN
755	1.000000	0.953023	7.37244e+06	-39339.1	1005.82	-29794.2	0.000000	0.000000	6.953117	0.048748	NaN	0.000000	0.001644	0.001805	28.0843	0.028612	0.002056	13.9145	52.4298	8.426874	-0.013133	0.951705	-0.154325	-0.155644	0.048748	13.9145	-0.156953	-24.1899	-0.002015	NaN
755	1.000000	0.963053	7.37244e+06	-39339.1	1005.82	-29794.2	0.000000	0.000000	6.963145	0.007391	NaN	0.000000	0.001634	0.001808	28.084	0.075159	0.001987	37.8223	-165.864	-165.707	-0.033527	0.961704	-0.144296	-0.145645	0.007391	37.8223	-0.144442	-14.3166	-0.000516	NaN
755	1.000000	0.973017	7.37244e+06	-39339.1	1005.82	-29794.2	0.000000	0.000000	6.973108	-0.021284	NaN	0.000000	0.001656	0.001760	28.0839	0.071039	0.001913	37.1371	174.88	11.7805	-0.042407	0.971647	-0.134331	-0.135702	-0.021284	37.1371	-0.133902	-9.063192	0.002348	NaN
755	1.000000	0.983059	7.37244e+06	-39339.1	1005.82	-29794.2	0.000000	0.000000	6.983149	-0.039387	NaN	0.000000	0.001624	0.001762	28.0839	0.018527	0.002090	8.864908	133.947	-168.144	0.013201	0.981697	-0.124290	-0.125652	-0.039387	8.864908	-0.120958	-5.050992	0.007798	NaN
755	1.000000	0.993059	7.37244e+06	-39339.1	1005.82	-29794.2	0.000000	0.000000	6.993153	0.042666	NaN	0.000000	0.001614	0.001736	28.084	0.043448	0.001868	23.2646	-112.021	13.4992	-0.076388	0.991695	-0.114290	-0.115654	0.042666	23.2646	-0.115665	-3.942702	-0.010822	NaN
755	1.000000	1.003052	7.37244e+06	-39339.1	1005.82	-29794.2	0.000000	0.000000	7.003147	0.089478	NaN	0.000000	0.001609	0.001747	28.0841	0.066139	0.002011	32.8917	48.5174	-166.281	-0.015440	1.001768	-0.104297	-0.105581	0.089478	32.8917	-0.106337	-2.511688	-0.035624	NaN
755	1.000000	1.013034	7.37244e+06	-39339.1	1005.82	-29794.2	0.000000	0.000000	7.013128	0.061274	NaN	0.000000	0.001625	0.001761	28.0841	0.027671	0.002005	13.8044	-85.5773	11.9895	-0.003519	1.011699	-0.094315	-0.095649	0.061274	13.8044	-0.097644	-1.618857	-0.037850	NaN
755	1.000000	1.023050	7.37244e+06	-39339.1	1005.82	-29794.2	0.000000	0.000000	7.023143	0.023136	NaN	0.000000	0.001612	0.001768	28.0827	0.063922	0.002156	29.647	-86.5149	-168.14	0.075598	1.021738	-0.084299	-0.085610	0.023136	29.647	-0.084884	-0.816338	-0.028341	NaN
755	1.000000	1.033105	7.37244e+06	-39339.1	1005.82	-29794.2	0.000000	0.000000	7.033196	-0.033653	NaN	0.000000	0.001653	0.001767	28.0829	0.101749	0.002044	49.7796	-102.616	14.4882	-0.013616	1.031678	-0.074243	-0.075671	-0.033653	49.7796	-0.073736	-0.428240	0.078584	NaN
755	1.000000	1.043076	7.37244e+06	-39339.1	1005.82	-29794.2	0.000000	0.000000	7.043168	0.004777	NaN	0.000000	0.001676	0.001728	28.0827	0.034717	0.001944	17.8591	124.593	-164.389	-0.045593	1.041748	-0.064272	-0.065601	0.004777	17.8591	-0.064473	-0.240950	-0.019824	NaN
755	1.000000	1.053077	7.37244e+06	-39339.1	1005.82	-29794.2	0.000000	0.000000	7.053174	0.124545	NaN	0.000000	0.001655	0.001754	28.0826	0.289837	0.002033	142.576	12.2644	11.7101	0.127907	1.051718	-0.054272	-0.055631	0.124545	142.576	-0.054927	-0.128140	-0.971942	NaN
755	1.000000	1.063101	7.37244e+06	-39339.1	1005.82	-29794.2	0.000000	0.000000	7.063248	1.339154	NaN	0.000000	0.001680	0.001771	28.0826	0.869510	0.001862	466.928	15.7955	-166.323	1.351051	1.061751	-0.044248	-0.045598	1.339154	466.928	-0.046399	-0.070916	-18.8837	NaN
755	1.000000	1.073028	7.37244e+06	-39339.1	1005.82	-29794.2	0.000000	0.000000	7.073137	0.411065	NaN	0.000000	0.001699	0.001781	28.0828	0.528854	0.002051	257.857	23.8531	12.4345	0.289973	1.071739	-0.034320	-0.035610	0.411065	257.857	-0.035516	-0.033168	-12.3935	NaN
755	1.000000	1.083075	7.37244e+06	-39339.1	1005.82	-29794.2	0.000000	0.000000	7.083193	0.660261	NaN	0.000000	0.001628	0.001787	28.0826	0.856566	0.001977	433.225	13.6621	-168.586	0.674120	1.081758	-0.024274	-0.025590	0.660261	433.225	-0.025417	-0.017300	-38.165	NaN
755	1.000000	1.093103	7.37244e+06	-39339.1	1005.82	-29794.2	0.000000	0.000000	7.093260	1.588735	NaN	0.000000	0.001618	0.001760	28.0828	1.220070	0.001903	641.084	13.837	11.0593	1.477237	1.091695	-0.014246	-0.015654	1.588735	641.084	-0.016104	-0.009947	-159.713	NaN
755	1.000000	1.103102	7.37244e+06	-39339.1	1005.82	-29794.2	0.000000	0.000000	7.103310	2.831043	NaN	0.000000	0.001618	0.001753	28.0829	1.451641	0.001871	776.059	11.7385	-165.926	2.732041	1.101807	-0.004247	-0.005542	2.831043	776.059	-0.006983	-0.004630	-611.447	NaN
755	1.000000	1.113076	7.37244e+06	-39339.1	1005.82	-29794.2	0.000000	0.000000	7.113442	6.683195	NaN	0.000000	0.001612	0.001750	28.0827	5.623211	0.001968	2856.95	13.8535	6.787268	5.161561	1.111675	0.005727	0.004326	6.683195	2856.95	0.003973	0.003215	2078.74	46034.6
755	2.000000	1.117658	7.37244e+06	-39339.1	1005.82	-29794.2	0.000000	0.000000	7.118172	10.2572	NaN	0.000000	0.001640	0.001758	28.0828	9.390547	0.001713	5482.35	9.359600	-174.301	10.7048	1.117333	0.010310	0.009984	10.2572	5482.35	0.008906	0.007991	1283.53	56031.1
755	2.000000	1.120145	7.37244e+06	-39339.1	1005.82	-29794.2	0.000000	0.000000	7.120834	14.5505	NaN	0.000000	0.001643	0.001750	28.0828	11.0013	0.001668	6597.29	1.524689	12.8129	13.5608	1.119742	0.012796	0.012394	14.5505	6597.29	0.011142	0.010478	1388.63	58883.5
755	2.000000	1.122566	7.37244e+06	-39339.1	1005.82	-29794.2	0.000000	0.000000	7.123361	17.1253	NaN	0.000000	0.001687	0.001709	28.0832	13.7282	0.001848	7429.54	7.633312	-176.791	16.0912	1.122310	0.015217	0.014962	17.1253	7429.54	0.013488	0.013322	1285.48	58809.6
755	2.000000	1.125092	7.37244e+06	-39339.1	1005.82	-29794.2	0.000000	0.000000	7.126001	19.8725	NaN	0.000000	0.001657	0.001767	28.0828	15.0136	0.001764	8513.08	5.396138	5.361370	19.8576	1.124817	0.017744	0.017468	19.8725	8513.08	0.015993	0.016632	1194.82	60309.5
755	2.000000	1.127587	7.37244e+06	-39339.1	1005.82	-29794.2	0.000000	0.000000	7.128635	23.2835	NaN	0.000000	0.001671	0.001742	28.0841	17.71	0.001953	9068.05	9.032880	-178.6	23.4129	1.127226	0.020238	0.019877	23.2835	9068.05	0.018313	0.019960	1166.52	58642.1
755	2.000000	1.130038	7.37244e+06	-39339.1	1005.82	-29794.2	0.000000	0.000000	7.131190	25.7919	NaN	0.000000	0.001625	0.001766	28.0842	18.8392	0.001873	10059	6.986862	2.888748	24.6845	1.129684	0.022690	0.022335	25.7919	10059	0.020767	0.023761	1085.46	59620.4
755	2.000000	1.132512	7.37244e+06	-39339.1	1005.82	-29794.2	0.000000	0.000000	7.133872	30.866	NaN	0.000000	0.001603	0.001809	28.0845	21.1588	0.001875	11287.4	8.092038	-179.21	29.9081	1.132171	0.025164	0.024823	30.866	11287.4	0.023113	0.027672	1115.44	61993.9
755	2.000000	1.135053	7.37244e+06	-39339.1	1005.82	-29794.2	0.000000	0.000000	7.136473	32.3111	NaN	0.000000	0.001608	0.001811	28.084	22.3847	0.001976	11329.9	7.878731	0.995153	31.3618	1.134711	0.027704	0.027363	32.3111	11329.9	0.025566	0.032053	1008.06	57818.4
755	2.000000	1.137499	7.37244e+06	-39339.1	1005.82	-29794.2	0.000000	0.000000	7.139039	35.2645	NaN	0.000000	0.001629	0.001810	28.0842	24.3481	0.001747	13939.4	8.918982	177.495	34.4772	1.137287	0.030150	0.029938	35.2645	13939.4	0.028252	0.037199	947.984	66031.4
755	2.000000	1.140058	7.37244e+06	-39339.1	1005.82	-29794.2	0.000000	0.000000	7.141889	42.3393	NaN	0.000000	0.001633	0.001792	28.0843	26.0021	0.001873	13884	4.785138	3.386387	41.9847	1.139757	0.032709	0.032408	42.3393	13884	0.030422	0.041623	1017.21	62175.7
755	2.000000	1.142530	7.37244e+06	-39339.1	1005.82	-29794.2	0.000000	0.000000	7.144513	46.0336	NaN	0.000000	0.001655	0.001792	28.0844	27.6529	0.001748	15816.4	6.386629	178.45	45.3211	1.142241	0.035181	0.034892	46.0336	15816.4	0.032998	0.047187	975.554	66522.5
755	2.000000	1.145008	7.37244e+06	-39339.1	1005.82	-29794.2	0.000000	0.000000	7.147261	52.5843	NaN	0.000000	0.001664	0.001809	28.0843	30.1127	0.001703	17679.6	6.834374	-2.406796	50.9174	1.144702	0.037660	0.037353	52.5843	17679.6	0.035429	0.052749	996.869	70329.2
755	2.000000	1.147536	7.37244e+06	-39339.1	1005.82	-29794.2	0.000000	0.000000	7.149978	57.1798	NaN	0.000000	0.001661	0.001783	28.0842	33.0878	0.001794	18446.2	5.392877	179.456	57.733	1.147218	0.040188	0.039869	57.1798	18446.2	0.037863	0.058622	975.402	69606.8
755	2.000000	1.149995	7.37244e+06	-39339.1	1005.82	-29794.2	0.000000	0.000000	7.152747	64.7456	NaN	0.000000	0.001669	0.001773	28.0843	34.8552	0.001854	18803.4	7.296827	-2.639536	63.0858	1.149613	0.042646	0.042265	64.7456	18803.4	0.040063	0.064192	1008.62	67806.1
755	2.000000	1.152505	7.37244e+06	-39339.1	1005.82	-29794.2	0.000000	0.000000	7.155465	69.7996	NaN	0.000000	0.001640	0.001774	28.0843	37.3216	0.001821	20498.7	8.937321	174.331	68.8579	1.152159	0.045156	0.044811	69.7996	20498.7	0.042602	0.070926	984.113	70322.8
755	2.000000	1.154967	7.37244e+06	-39339.1	1005.82	-29794.2	0.000000	0.000000	7.158134	74.8245	NaN	0.000000	0.001701	0.001720	28.0843	39.0167	0.001870	20859	6.014837	-2.680102	71.5181	1.154651	0.047618	0.047303	74.8245	20859	0.044928	0.077383	966.937	68508.5
755	2.000000	1.157525	7.37244e+06	-39339.1	1005.82	-29794.2	0.000000	0.000000	7.161125	85.3956	NaN	0.000000	0.001702	0.001699	28.0843	41.4302	0.001793	23112.2	5.605462	176.056	85.5513	1.157207	0.050176	0.049859	85.3956	23112.2	0.047405	0.084560	1009.88	72615.7
755	2.000000	1.160015	7.37245e+06	-39339.1	1005.82	-29794.2	0.000000	0.000000	7.164022	95.2963	NaN	0.000000	0.001666	0.001787	28.0835	43.5326	0.001861	23396.6	7.604374	-4.872853	93.4412	1.159598	0.052666	0.052249	95.2963	23396.6	0.049611	0.091215	1044.75	70777.1
755	2.000000	1.162507	7.37245e+06	-39339.1	1005.82	-29794.2	0.000000	0.000000	7.166720	100.309	NaN	0.000000	0.001653	0.001762	28.0829	46.0007	0.001967	23391.4	9.763502	172.748	100.027	1.162245	0.055158	0.054896	100.309	23391.4	0.051942	0.098509	1018.27	68091.1
755	2.000000	1.164972	7.37245e+06	-39339.1	1005.82	-29794.2	0.000000	0.000000	7.169551	109.197	NaN	0.000000	0.001671	0.001749	28.083	48.2757	0.001875	25748.4	4.450011	-2.766606	106.736	1.164632	0.057623	0.057284	109.197	25748.4	0.054443	0.106638	1024	72038.9
755	2.000000	1.167530	7.37245e+06	-39339.1	1005.82	-29794.2	0.000000	0.000000	7.172668	122.811	NaN	0.000000	0.001697	0.001766	28.0832	50.1991	0.001888	26591.1	4.515049	177.178	124.207	1.167189	0.060181	0.059841	122.811	26591.1	0.056717	0.114300	1074.47	71859.9
755	2.000000	1.169989	7.37245e+06	-39339.1	1005.82	-29794.2	0.000000	0.000000	7.175540	132.83	NaN	0.000000	0.001709	0.001763	28.0832	52.2786	0.001858	28139.2	7.751754	-6.356507	130.941	1.169594	0.062641	0.062245	132.83	28139.2	0.059100	0.122602	1083.42	73423.6
755	2.000000	1.172431	7.37245e+06	-39339.1	1005.82	-29794.2	0.000000	0.000000	7.178637	148.778	NaN	0.000000	0.001694	0.001767	28.0832	53.7045	0.001713	31359.2	3.897002	176.074	146.12	1.172173	0.065083	0.064825	148.778	31359.2	0.061524	0.131331	1132.84	79059.5
755	2.000000	1.174986	7.37245e+06	-39339.1	1005.82	-29794.2	0.000000	0.000000	7.181456	155.224	NaN	0.000000	0.001684	0.001780	28.0834	56.5077	0.001848	30569.6	7.977741	-8.190331	153.204	1.174703	0.067637	0.067354	155.224	30569.6	0.063829	0.139894	1109.58	74672.8
755	2.000000	1.177477	7.37245e+06	-39339.1	1005.82	-29794.2	0.000000	0.000000	7.184700	173.544	NaN	0.000000	0.001685	0.001758	28.0832	58.6516	0.001728	33936	6.417892	172.235	172.65	1.177147	0.070129	0.069798	173.544	33936	0.066293	0.149337	1162.09	80232.5
755	2.000000	1.180035	7.37245e+06	-39339.1	1005.82	-29794.2	0.000000	0.000000	7.187680	183.801	NaN	0.000000	0.001672	0.001746	28.0832	60.5035	0.001745	34680.9	7.085357	-7.754911	185.224	1.179660	0.072687	0.072311	183.801	34680.9	0.068712	0.158887	1156.8	79491.4
755	2.000000	1.182415	7.37245e+06	-39339.1	1005.82	-29794.2	0.000000	0.000000	7.190785	201.47	NaN	0.000000	0.001673	0.001771	28.0832	62.1958	0.001809	34388.9	5.548595	173.733	197.288	1.182045	0.075066	0.074696	201.47	34388.9	0.070672	0.166833	1207.61	76922.1
755	2.000000	1.184928	7.37245e+06	-39339.1	1005.82	-29794.2	0.000000	0.000000	7.193697	211.173	NaN	0.000000	0.001714	0.001721	28.0829	64.6057	0.001824	35419.3	3.164534	-4.560794	206.817	1.184625	0.077579	0.077276	211.173	35419.3	0.073107	0.176957	1193.36	76926.9
755	2.000000	1.187385	7.37245e+06	-39339.1	1005.82	-29794.2	0.000000	0.000000	7.196948	230.485	NaN	0.000000	0.001701	0.001751	28.0834	67.3098	0.001759	38263.5	1.754109	176.594	225.612	1.187067	0.080036	0.079718	230.485	38263.5	0.075519	0.187258	1230.84	80786.2
755	2.000000	1.189933	7.37245e+06	-39339.1	1005.82	-29794.2	0.000000	0.000000	7.200344	251.11	NaN	0.000000	0.001675	0.001745	28.0831	69.3799	0.001823	38059.6	7.456704	-8.675357	246.584	1.189545	0.082585	0.082196	251.11	38059.6	0.077636	0.196531	1277.71	78437.1
755	2.000000	1.192408	7.37245e+06	-39339.1	1005.82	-29794.2	0.000000	0.000000	7.203556	269.058	NaN	0.000000	0.001706	0.001765	28.0833	70.9336	0.001782	39796.2	2.667882	175.867	266.257	1.192061	0.085060	0.084712	269.058	39796.2	0.079989	0.207078	1299.31	79900.2
755	2.000000	1.194958	7.37245e+06	-39339.1	1005.82	-29794.2	0.000000	0.000000	7.206743	284.559	NaN	0.000000	0.001681	0.001742	28.0843	73.5116	0.001784	41217.2	4.849076	-6.789466	282.701	1.194612	0.087609	0.087263	284.559	41217.2	0.082431	0.218299	1303.53	80598.2
755	2.000000	1.197451	7.37245e+06	-39339.1	1005.82	-29794.2	0.000000	0.000000	7.209923	301.279	NaN	0.000000	0.001695	0.001747	28.0848	75.8987	0.001721	44108.6	4.142544	173.458	300.784	1.197118	0.090102	0.089769	301.279	44108.6	0.084980	0.230304	1308.18	83974.2
755	2.000000	1.199948	7.37245e+06	-39339.1	1005.82	-29794.2	0.000000	0.000000	7.213562	329.074	NaN	0.000000	0.001705	0.001760	28.0843	78.9815	0.001765	44756.1	6.560498	-9.468804	326.553	1.199568	0.092599	0.092219	329.074	44756.1	0.087084	0.240445	1368.61	83390.7
755	2.000000	1.202397	7.37245e+06	-39339.1	1005.82	-29794.2	0.000000	0.000000	7.217066	354.728	NaN	0.000000	0.001685	0.001741	28.0845	80.436	0.001720	46759.9	5.842714	171.26	350.509	1.201971	0.095049	0.094622	354.728	46759.9	0.089359	0.251634	1409.7	85165.3
755	2.000000	1.204852	7.37245e+06	-39339.1	1005.82	-29794.2	0.000000	0.000000	7.220483	378.159	NaN	0.000000	0.001641	0.001784	28.0842	83.6095	0.001870	44713.1	3.446193	-6.248270	371.267	1.204412	0.097503	0.097063	378.159	44713.1	0.091160	0.260661	1450.77	80014.7
755	2.000000	1.207347	7.37245e+06	-39339.1	1005.82	-29794.2	0.000000	0.000000	7.223854	399.484	NaN	0.000000	0.001648	0.001739	28.0842	86.2877	0.001794	48101	3.074611	173.398	394.465	1.207122	0.099998	0.099773	399.484	48101	0.093769	0.274002	1457.96	83955.7
755	2.000000	1.209901	7.37245e+06	-39339.1	1005.82	-29794.2	0.000000	0.000000	7.227647	429.602	NaN	0.000000	0.001607	0.001786	28.084	87.9982	0.001746	50408.5	4.270591	-7.705594	423.435	1.209480	0.102553	0.102131	429.602	50408.5	0.096161	0.286505	1499.46	86042.1
755	2.000000	1.212361	7.37245e+06	-39339.1	1005.82	-29794.2	0.000000	0.000000	7.231392	460.888	NaN	0.000000	0.001597	0.001758	28.0845	89.0289	0.001663	53531.7	-0.876764	176.512	456.39	1.212070	0.105013	0.104721	460.888	53531.7	0.098555	0.299284	1539.97	89401
755	2.000000	1.214412	7.37245e+06	-39339.1	1005.82	-29794.2	0.000000	0.000000	7.234044	475.524	NaN	0.000000	0.001609	0.001785	28.0842	92.775	0.001712	54192.1	4.693847	171.356	472.654	1.214021	0.107063	0.106673	475.524	54192.1	0.100482	0.309753	1535.17	88961.3