File: remote_trans/data/nanoindenter/0828-1/data/Data_2025-08-06,11h17m57s/2025-07-22_16-23-58_1_538.txt
2025-07-22, 16:23:58, 1
Index	Phase	Displacement	Time	Pos X	Pos Y	Pos Z	Rot A	Rot B	Piezo Z	Force A	Force B	Gripper	Voltage A	Voltage B	Temperature	Amplitude force	Amplitude pos	Stiffness	Phase shift	Phase excitation	Force A raw	Displacement raw	HMax	HMax raw	Real Force	Real Stiffness	Contact Depth	Area	Hardness	Reduced Mod.
[#]	[#]	[um]	[s]	[um]	[um]	[um]	[m°]	[m°]	[um]	[uN]	[uN]	[V]	[V]	[V]	[°C]	[uN]	[um]	[N/m]	[°]	[°]	[uN]	[um]	[um]	[um]	[uN]	[N/m]	[um]	[um^2]	[MPa]	[MPa]
538	1.000000	0.002222	7.37031e+06	-50189.1	1005.82	-29756.5	0.000000	0.000000	6.002779	-0.075093	NaN	0.000000	0.001576	0.001753	28.08	0.037633	0.000920	40.9181	97.4373	-165.628	-0.018855	0.000949	-1.151553	-1.152826	-0.075093	40.9181	-1.150176	-2.361480E+15	3.179895E-17	NaN
538	1.000000	0.012313	7.37031e+06	-50189.1	1005.82	-29756.5	0.000000	0.000000	6.012872	-0.023701	NaN	0.000000	0.001571	0.001712	28.0802	0.018017	0.001249	14.4257	143.11	18.7989	-0.099144	0.010856	-1.141462	-1.142919	-0.023701	14.4257	-1.140229	-1.737053E+15	1.364438E-17	NaN
538	1.000000	0.022191	7.37031e+06	-50189.1	1005.82	-29756.5	0.000000	0.000000	6.022748	-0.062946	NaN	0.000000	0.001548	0.001696	28.0799	0.115141	0.001716	67.1067	142.557	-168.25	-0.018101	0.020855	-1.131584	-1.132919	-0.062946	67.1067	-1.130880	-1.301445E+15	4.836626E-17	NaN
538	1.000000	0.032202	7.37031e+06	-50189.1	1005.82	-29756.5	0.000000	0.000000	6.032758	-0.090364	NaN	0.000000	0.001657	0.001695	28.08	0.042282	0.001902	22.2319	-130.223	12.2492	-0.035902	0.030830	-1.121572	-1.122944	-0.090364	22.2319	-1.118524	-8.885202E+14	1.017016E-16	NaN
538	1.000000	0.042195	7.37031e+06	-50189.1	1005.82	-29756.5	0.000000	0.000000	6.042754	-0.031391	NaN	0.000000	0.001643	0.001706	28.0799	0.041404	0.002028	20.4119	39.1	-165.985	-0.022036	0.040875	-1.111580	-1.112900	-0.031391	20.4119	-1.110426	-6.918412E+14	4.537346E-17	NaN
538	1.000000	0.052200	7.37031e+06	-50189.1	1005.82	-29756.5	0.000000	0.000000	6.052758	-0.056972	NaN	0.000000	0.001624	0.001712	28.0801	0.065422	0.002048	31.9385	-179.358	12.4313	-0.050612	0.050797	-1.101574	-1.102978	-0.056972	31.9385	-1.100236	-5.049384E+14	1.128296E-16	NaN
538	1.000000	0.062184	7.37031e+06	-50189.1	1005.82	-29756.5	0.000000	0.000000	6.062741	-0.076488	NaN	0.000000	0.001613	0.001727	28.08	0.098424	0.001888	52.1245	34.0079	-164.789	-0.098462	0.060855	-1.091591	-1.092920	-0.076488	52.1245	-1.090490	-3.735892E+14	2.047389E-16	NaN
538	1.000000	0.072218	7.37031e+06	-50189.1	1005.82	-29756.5	0.000000	0.000000	6.072776	-0.060946	NaN	0.000000	0.001626	0.001715	28.08	0.049721	0.001988	25.0167	156.38	16.5984	-0.115150	0.070857	-1.081556	-1.082917	-0.060946	25.0167	-1.079729	-2.678419E+14	2.275439E-16	NaN
538	1.000000	0.082202	7.37031e+06	-50189.1	1005.82	-29756.5	0.000000	0.000000	6.082761	-0.031504	NaN	0.000000	0.001562	0.001732	28.079	0.019900	0.002075	9.591969	91.6341	-164.555	0.034396	0.080859	-1.071572	-1.072915	-0.031504	9.591969	-1.069109	-1.928500E+14	1.633606E-16	NaN
538	1.000000	0.092249	7.37031e+06	-50189.1	1005.82	-29756.5	0.000000	0.000000	6.092808	-0.015873	NaN	0.000000	0.001554	0.001747	28.0788	0.054103	0.001955	27.6779	53.0268	12.3963	-0.001711	0.090868	-1.061526	-1.062906	-0.015873	27.6779	-1.061096	-1.505039E+14	1.054632E-16	NaN
538	1.000000	0.102230	7.37031e+06	-50189.1	1005.82	-29756.5	0.000000	0.000000	6.102789	-0.042111	NaN	0.000000	0.001584	0.001730	28.0787	0.060019	0.001953	30.7357	86.5297	-165.039	-0.047223	0.100903	-1.051544	-1.052872	-0.042111	30.7357	-1.050517	-1.084820E+14	3.881838E-16	NaN
538	1.000000	0.112217	7.37031e+06	-50189.1	1005.82	-29756.5	0.000000	0.000000	6.112774	-0.070039	NaN	0.000000	0.001544	0.001724	28.0787	0.023968	0.001878	12.7646	71.1008	16.4167	0.005648	0.110869	-1.041558	-1.042905	-0.070039	12.7646	-1.037443	-7.237314E+13	9.677464E-16	NaN
538	1.000000	0.122237	7.37031e+06	-50189.1	1005.82	-29756.5	0.000000	0.000000	6.122797	0.001009	NaN	0.000000	0.001610	0.001673	28.079	0.128510	0.001900	67.6362	-29.5886	-165.095	-0.006627	0.120951	-1.031538	-1.032823	0.001009	67.6362	-1.031549	-6.029958E+13	-1.673687E-17	NaN
538	1.000000	0.132221	7.37031e+06	-50189.1	1005.82	-29756.5	0.000000	0.000000	6.132781	-0.006431	NaN	0.000000	0.001610	0.001709	28.079	0.113369	0.001976	57.3655	153.193	18.2275	0.058915	0.130795	-1.021553	-1.022979	-0.006431	57.3655	-1.021469	-4.412879E+13	1.457341E-16	NaN
538	1.000000	0.142233	7.37031e+06	-50189.1	1005.82	-29756.5	0.000000	0.000000	6.142792	-0.034407	NaN	0.000000	0.001579	0.001692	28.0788	0.045223	0.001857	24.3575	123.415	-162.925	-0.036359	0.140912	-1.011541	-1.012863	-0.034407	24.3575	-1.010482	-3.139539E+13	1.095939E-15	NaN
538	1.000000	0.152199	7.37031e+06	-50189.1	1005.82	-29756.5	0.000000	0.000000	6.152756	-0.063796	NaN	0.000000	0.001574	0.001686	28.0789	0.069500	0.002038	34.1008	131.37	12.9231	-0.043698	0.150902	-1.001576	-1.002872	-0.063796	34.1008	-1.000172	-2.280819E+13	2.797047E-15	NaN
538	1.000000	0.162232	7.37031e+06	-50189.1	1005.82	-29756.5	0.000000	0.000000	6.162792	0.010183	NaN	0.000000	0.001564	0.001706	28.0789	0.084580	0.002073	40.7928	116.441	-167.156	-0.048184	0.160914	-0.991543	-0.992861	0.010183	40.7928	-0.991730	-1.755538E+13	-5.800775E-16	NaN
538	1.000000	0.172245	7.37031e+06	-50189.1	1005.82	-29756.5	0.000000	0.000000	6.172803	-0.054454	NaN	0.000000	0.001597	0.001669	28.079	0.038004	0.001925	19.7465	-130.664	16.6247	-0.023351	0.170874	-0.981530	-0.982901	-0.054454	19.7465	-0.979461	-1.199921E+13	4.538095E-15	NaN
538	1.000000	0.182234	7.37031e+06	-50189.1	1005.82	-29756.5	0.000000	0.000000	6.182792	-0.051535	NaN	0.000000	0.001592	0.001729	28.0787	0.039004	0.001952	19.9848	-69.2061	-160.884	-0.020912	0.180912	-0.971540	-0.972863	-0.051535	19.9848	-0.969606	-8.838088E+12	5.830963E-15	NaN
538	1.000000	0.192252	7.37031e+06	-50189.1	1005.82	-29756.5	0.000000	0.000000	6.192816	0.102624	NaN	0.000000	0.001553	0.001728	28.0791	0.130817	0.001935	67.6013	-108.862	14.7385	-0.020650	0.190851	-0.961523	-0.962924	0.102624	67.6013	-0.962661	-7.124325E+12	-1.440476E-14	NaN
538	1.000000	0.202271	7.37031e+06	-50189.1	1005.82	-29756.5	0.000000	0.000000	6.202830	-0.030872	NaN	0.000000	0.001577	0.001695	28.0787	0.032963	0.002095	15.7308	-125.819	-164.013	0.008691	0.200960	-0.951503	-0.952815	-0.030872	15.7308	-0.950031	-4.813374E+12	6.413734E-15	NaN
538	1.000000	0.212252	7.37031e+06	-50189.1	1005.82	-29756.5	0.000000	0.000000	6.212811	-0.010742	NaN	0.000000	0.001558	0.001686	28.0799	0.105319	0.002129	49.4619	-69.4478	16.9635	0.008986	0.210856	-0.941523	-0.942918	-0.010742	49.4619	-0.941360	-3.676898E+12	2.921568E-15	NaN
538	1.000000	0.222246	7.37031e+06	-50189.1	1005.82	-29756.5	0.000000	0.000000	6.222804	-0.035280	NaN	0.000000	0.001567	0.001685	28.0799	0.136430	0.001990	68.5711	80.3679	-164.827	-0.075341	0.220944	-0.931529	-0.932830	-0.035280	68.5711	-0.931143	-2.676850E+12	1.317982E-14	NaN
538	1.000000	0.232285	7.37031e+06	-50189.1	1005.82	-29756.5	0.000000	0.000000	6.232842	-0.063927	NaN	0.000000	0.001550	0.001691	28.0801	0.103664	0.002059	50.3437	-152.06	12.0211	-0.128374	0.230917	-0.921490	-0.922858	-0.063927	50.3437	-0.920538	-1.925149E+12	3.320614E-14	NaN
538	1.000000	0.242262	7.37031e+06	-50189.1	1005.82	-29756.5	0.000000	0.000000	6.242818	-0.083524	NaN	0.000000	0.001581	0.001715	28.08	0.095198	0.001938	49.1314	55.2832	-163.961	-0.070165	0.240976	-0.911513	-0.912799	-0.083524	49.1314	-0.910238	-1.397571E+12	5.976349E-14	NaN
538	1.000000	0.252271	7.37031e+06	-50189.1	1005.82	-29756.5	0.000000	0.000000	6.252831	0.016840	NaN	0.000000	0.001586	0.001710	28.08	0.055988	0.001969	28.4354	-20.9459	16.5473	-0.021472	0.251018	-0.901504	-0.902756	0.016840	28.4354	-0.901948	-1.079911E+12	-1.559416E-14	NaN
538	1.000000	0.262276	7.37031e+06	-50189.1	1005.82	-29756.5	0.000000	0.000000	6.262835	-0.013883	NaN	0.000000	0.001610	0.001704	28.0802	0.064909	0.002030	31.9795	-18.0113	-166.125	0.090467	0.260962	-0.891499	-0.892812	-0.013883	31.9795	-0.891173	-7.722721E+11	1.797716E-14	NaN
538	1.000000	0.272289	7.37031e+06	-50189.1	1005.82	-29756.5	0.000000	0.000000	6.272848	-0.032674	NaN	0.000000	0.001593	0.001661	28.08	0.079609	0.001980	40.2118	120.074	13.585	-0.055521	0.270935	-0.881485	-0.882839	-0.032674	40.2118	-0.880876	-5.604699E+11	5.829807E-14	NaN
538	1.000000	0.282298	7.37031e+06	-50189.1	1005.82	-29756.5	0.000000	0.000000	6.282857	-0.027940	NaN	0.000000	0.001590	0.001660	28.0801	0.113159	0.002130	53.1347	-20.2884	-163.302	-0.032765	0.280928	-0.871477	-0.872847	-0.027940	53.1347	-0.871082	-4.131309E+11	6.762891E-14	NaN
538	1.000000	0.292294	7.37031e+06	-50189.1	1005.82	-29756.5	0.000000	0.000000	6.292853	-0.039780	NaN	0.000000	0.001598	0.001728	28.0799	0.188521	0.002002	94.1591	130.53	15.4137	-0.029781	0.290960	-0.861480	-0.862815	-0.039780	94.1591	-0.861163	-3.032962E+11	1.311603E-13	NaN
538	1.000000	0.302287	7.37031e+06	-50189.1	1005.82	-29756.5	0.000000	0.000000	6.302849	0.045067	NaN	0.000000	0.001591	0.001706	28.0803	0.078746	0.002005	39.2669	70.7871	-166.97	-0.100938	0.301035	-0.851487	-0.852739	0.045067	39.2669	-0.852348	-2.304254E+11	-1.955829E-13	NaN
538	1.000000	0.312288	7.37031e+06	-50189.1	1005.82	-29756.5	0.000000	0.000000	6.312847	-0.031115	NaN	0.000000	0.001589	0.001701	28.08	0.063355	0.002012	31.4913	-83.5297	11.2469	0.037325	0.310947	-0.841487	-0.842828	-0.031115	31.4913	-0.840746	-1.604697E+11	1.939025E-13	NaN
538	1.000000	0.322292	7.37031e+06	-50189.1	1005.82	-29756.5	0.000000	0.000000	6.322853	0.009361	NaN	0.000000	0.001608	0.001687	28.08	0.083992	0.002073	40.5158	9.272200	-162.709	0.044085	0.321013	-0.831482	-0.832762	0.009361	40.5158	-0.831656	-1.208438E+11	-7.746280E-14	NaN
538	1.000000	0.332329	7.37031e+06	-50189.1	1005.82	-29756.5	0.000000	0.000000	6.332888	-0.021835	NaN	0.000000	0.001554	0.001692	28.0802	0.084923	0.002063	41.1678	124.856	11.9641	-0.039683	0.330939	-0.821446	-0.822835	-0.021835	41.1678	-0.821048	-8.678033E+10	2.516171E-13	NaN
538	1.000000	0.342279	7.37031e+06	-50189.1	1005.82	-29756.5	0.000000	0.000000	6.342838	-0.023248	NaN	0.000000	0.001555	0.001703	28.0801	0.125365	0.002041	61.4193	-148.374	-163.664	-0.049243	0.340978	-0.811495	-0.812797	-0.023248	61.4193	-0.811212	-6.382767E+10	3.642377E-13	NaN
538	1.000000	0.352318	7.37031e+06	-50189.1	1005.82	-29756.5	0.000000	0.000000	6.352878	-0.013627	NaN	0.000000	0.001618	0.001719	28.0788	0.146520	0.002072	70.7089	-59.9853	15.3893	-0.008044	0.350954	-0.801456	-0.802820	-0.013627	70.7089	-0.801312	-4.684555E+10	2.909018E-13	NaN
538	1.000000	0.362338	7.37031e+06	-50189.1	1005.82	-29756.5	0.000000	0.000000	6.362896	-0.049682	NaN	0.000000	0.001625	0.001748	28.0789	0.077759	0.001930	40.2912	-130.628	-159.114	-0.042736	0.361027	-0.791436	-0.792748	-0.049682	40.2912	-0.790512	-3.342204E+10	1.486491E-12	NaN
538	1.000000	0.372336	7.37031e+06	-50189.1	1005.82	-29756.5	0.000000	0.000000	6.372894	-0.043769	NaN	0.000000	0.001595	0.001718	28.079	0.087720	0.001985	44.2014	-69.6072	14.9633	0.021303	0.370959	-0.781438	-0.782816	-0.043769	44.2014	-0.780696	-2.458578E+10	1.780240E-12	NaN
538	1.000000	0.382308	7.37031e+06	-50189.1	1005.82	-29756.5	0.000000	0.000000	6.382864	-0.096945	NaN	0.000000	0.001619	0.001684	28.0787	0.069089	0.001958	35.2799	69.4894	-162.266	-0.061674	0.381065	-0.771467	-0.772709	-0.096945	35.2799	-0.769406	-1.726743E+10	5.614327E-12	NaN
538	1.000000	0.392336	7.37031e+06	-50189.1	1005.82	-29756.5	0.000000	0.000000	6.392894	-0.057226	NaN	0.000000	0.001588	0.001708	28.0788	0.143593	0.002039	70.4066	16.6727	17.3595	-0.036803	0.390994	-0.761439	-0.762781	-0.057226	70.4066	-0.760829	-1.320015E+10	4.335275E-12	NaN
538	1.000000	0.402328	7.37031e+06	-50189.1	1005.82	-29756.5	0.000000	0.000000	6.402888	-0.014845	NaN	0.000000	0.001598	0.001701	28.0789	0.045737	0.002119	21.5795	144.772	-164.355	-0.080591	0.401032	-0.751446	-0.752742	-0.014845	21.5795	-0.750930	-9.680188E+9	1.533568E-12	NaN
538	1.000000	0.412369	7.37031e+06	-50189.1	1005.82	-29756.5	0.000000	0.000000	6.412926	-0.057368	NaN	0.000000	0.001590	0.001710	28.0787	0.055857	0.002012	27.7633	72.0616	15.3447	-0.011713	0.410969	-0.741406	-0.742805	-0.057368	27.7633	-0.739856	-6.840597E+9	8.386399E-12	NaN
538	1.000000	0.422337	7.37031e+06	-50189.1	1005.82	-29756.5	0.000000	0.000000	6.422893	-0.098978	NaN	0.000000	0.001585	0.001684	28.0788	0.119611	0.001958	61.0968	86.4018	-164.787	-0.136522	0.421035	-0.731438	-0.732740	-0.098978	61.0968	-0.730223	-5.056442E+9	1.957458E-11	NaN
538	1.000000	0.432325	7.37031e+06	-50189.1	1005.82	-29756.5	0.000000	0.000000	6.432884	-0.019704	NaN	0.000000	0.001568	0.001715	28.0787	0.112066	0.002109	53.1408	-154.811	14.4444	-0.010189	0.430977	-0.721450	-0.722797	-0.019704	53.1408	-0.721172	-3.805849E+9	5.177282E-12	NaN
538	1.000000	0.442366	7.37031e+06	-50189.1	1005.82	-29756.5	0.000000	0.000000	6.442926	0.008464	NaN	0.000000	0.001575	0.001697	28.079	0.033653	0.001900	17.7133	-141.529	-162.472	0.050177	0.441091	-0.711409	-0.712684	0.008464	17.7133	-0.711767	-2.832464E+9	-2.988228E-12	NaN
538	1.000000	0.452399	7.37031e+06	-50189.1	1005.82	-29756.5	0.000000	0.000000	6.452958	-0.022133	NaN	0.000000	0.001595	0.001691	28.0787	0.060371	0.001895	31.8633	-134.534	15.4788	-0.033934	0.451003	-0.701376	-0.702772	-0.022133	31.8633	-0.700855	-2.010030E+9	1.101104E-11	NaN
538	1.000000	0.462352	7.37031e+06	-50189.1	1005.82	-29756.5	0.000000	0.000000	6.462911	-0.013665	NaN	0.000000	0.001610	0.001701	28.0787	0.060603	0.002052	29.5303	-160.404	-167.217	-0.087656	0.461039	-0.691423	-0.692736	-0.013665	29.5303	-0.691076	-1.477808E+9	9.246851E-12	NaN
538	1.000000	0.472349	7.37031e+06	-50189.1	1005.82	-29756.5	0.000000	0.000000	6.472910	0.012871	NaN	0.000000	0.001662	0.001697	28.0787	0.058744	0.002015	29.1571	137.722	15.4448	-0.024451	0.470980	-0.681425	-0.682794	0.012871	29.1571	-0.681757	-1.102114E+9	-1.167839E-11	NaN
538	1.000000	0.482399	7.37031e+06	-50189.1	1005.82	-29756.5	0.000000	0.000000	6.482957	-0.031922	NaN	0.000000	0.001595	0.001689	28.079	0.090737	0.001894	47.8952	29.1021	-167.693	-0.076726	0.481027	-0.671376	-0.672747	-0.031922	47.8952	-0.670876	-7.823125E+8	4.080512E-11	NaN
538	1.000000	0.492364	7.37031e+06	-50189.1	1005.82	-29756.5	0.000000	0.000000	6.492924	0.006465	NaN	0.000000	0.001612	0.001735	28.0801	0.052159	0.001971	26.4663	-150.466	15.7237	-0.058297	0.491019	-0.661410	-0.662756	0.006465	26.4663	-0.661594	-5.838433E+8	-1.107366E-11	NaN
538	1.000000	0.502391	7.37031e+06	-50189.1	1005.82	-29756.5	0.000000	0.000000	6.502950	-0.024756	NaN	0.000000	0.001617	0.001694	28.0798	0.018580	0.002141	8.679584	-84.062	-166.126	0.042372	0.501136	-0.651384	-0.652638	-0.024756	8.679584	-0.649245	-3.954420E+8	6.260290E-11	NaN
538	1.000000	0.512364	7.37031e+06	-50189.1	1005.82	-29756.5	0.000000	0.000000	6.512921	-0.062694	NaN	0.000000	0.001614	0.001715	28.08	0.140000	0.001866	75.0376	172.309	15.897	-0.025709	0.511059	-0.641411	-0.642715	-0.062694	75.0376	-0.640784	-3.027259E+8	2.070982E-10	NaN
538	1.000000	0.522396	7.37031e+06	-50189.1	1005.82	-29756.5	0.000000	0.000000	6.522953	-0.067177	NaN	0.000000	0.001598	0.001714	28.0798	0.122552	0.001991	61.5401	154.755	-164.978	-0.090712	0.521099	-0.631379	-0.632676	-0.067177	61.5401	-0.630560	-2.191378E+8	3.065505E-10	NaN
538	1.000000	0.532407	7.37031e+06	-50189.1	1005.82	-29756.5	0.000000	0.000000	6.532965	-0.040656	NaN	0.000000	0.001584	0.001695	28.0798	0.036663	0.002018	18.1651	91.4463	15.9433	-0.041090	0.531057	-0.621368	-0.622718	-0.040656	18.1651	-0.619689	-1.553680E+8	2.616733E-10	NaN
538	1.000000	0.542389	7.37031e+06	-50189.1	1005.82	-29756.5	0.000000	0.000000	6.542949	-0.007579	NaN	0.000000	0.001581	0.001730	28.0799	0.078798	0.001985	39.703	60.8016	-165.706	-0.143079	0.541086	-0.611385	-0.612688	-0.007579	39.703	-0.611242	-1.189056E+8	6.373622E-11	NaN
538	1.000000	0.552398	7.37031e+06	-50189.1	1005.82	-29756.5	0.000000	0.000000	6.552954	-0.077380	NaN	0.000000	0.001605	0.001697	28.08	0.109071	0.002023	53.9159	-172.7	11.6324	-0.047468	0.551100	-0.601377	-0.602675	-0.077380	53.9159	-0.600300	-8.406185E+7	9.205155E-10	NaN
538	1.000000	0.562408	7.37031e+06	-50189.1	1005.82	-29756.5	0.000000	0.000000	6.562967	-0.034534	NaN	0.000000	0.001621	0.001697	28.0797	0.071597	0.001905	37.5819	157.823	-164.904	-0.108246	0.561080	-0.591366	-0.592694	-0.034534	37.5819	-0.590677	-6.194449E+7	5.574913E-10	NaN
538	1.000000	0.572410	7.37031e+06	-50189.1	1005.82	-29756.5	0.000000	0.000000	6.572969	-0.042204	NaN	0.000000	0.001605	0.001687	28.0799	0.090539	0.001937	46.7326	-126.674	14.8787	-0.042179	0.571068	-0.581364	-0.582706	-0.042204	46.7326	-0.580687	-4.510291E+7	9.357201E-10	NaN
538	1.000000	0.582417	7.37031e+06	-50189.1	1005.82	-29756.5	0.000000	0.000000	6.582976	-0.025522	NaN	0.000000	0.001601	0.001718	28.08	0.052078	0.001979	26.32	62.8717	-162.966	-0.031986	0.581124	-0.571357	-0.572651	-0.025522	26.32	-0.570630	-3.275949E+7	7.790723E-10	NaN
538	1.000000	0.592448	7.37031e+06	-50189.1	1005.82	-29756.5	0.000000	0.000000	6.593005	-0.075724	NaN	0.000000	0.001587	0.001737	28.08	0.128261	0.002077	61.754	-175.251	15.6842	-0.090552	0.591035	-0.561326	-0.562740	-0.075724	61.754	-0.560407	-2.365929E+7	3.200591E-9	NaN
538	1.000000	0.602430	7.37031e+06	-50189.1	1005.82	-29756.5	0.000000	0.000000	6.602987	-0.056260	NaN	0.000000	0.001585	0.001721	28.0797	0.059819	0.001930	30.996	74.739	-167.768	-0.028172	0.601107	-0.551345	-0.552668	-0.056260	30.996	-0.549983	-1.697172E+7	3.314950E-9	NaN
538	1.000000	0.612440	7.37031e+06	-50189.1	1005.82	-29756.5	0.000000	0.000000	6.612998	-0.040074	NaN	0.000000	0.001620	0.001721	28.08	0.077181	0.001996	38.6711	-149.723	14.3917	-0.060009	0.611057	-0.541334	-0.542718	-0.040074	38.6711	-0.540557	-1.256276E+7	3.189873E-9	NaN
538	1.000000	0.622440	7.37031e+06	-50189.1	1005.82	-29756.5	0.000000	0.000000	6.623001	0.024105	NaN	0.000000	0.001646	0.001677	28.0788	0.026601	0.001911	13.919	163.921	-166.298	-0.015532	0.621120	-0.531334	-0.532655	0.024105	13.919	-0.532633	-9.753e+06	-2.471550E-9	NaN
538	1.000000	0.632425	7.37031e+06	-50189.1	1005.82	-29756.5	0.000000	0.000000	6.632985	-0.005171	NaN	0.000000	0.001667	0.001742	28.0788	0.065771	0.002016	32.6246	-179.387	14.9686	0.044744	0.631064	-0.521350	-0.522710	-0.005171	32.6246	-0.521231	-6.77193e+06	7.635495E-10	NaN
538	1.000000	0.642440	7.37031e+06	-50189.1	1005.82	-29756.5	0.000000	0.000000	6.642999	-0.013492	NaN	0.000000	0.001671	0.001706	28.0787	0.078673	0.001994	39.4612	5.119226	-165.484	-0.044820	0.641128	-0.511335	-0.512646	-0.013492	39.4612	-0.511078	-4.89138e+06	2.758418E-9	NaN
538	1.000000	0.652438	7.37031e+06	-50189.1	1005.82	-29756.5	0.000000	0.000000	6.652997	-0.037950	NaN	0.000000	0.001651	0.001733	28.0789	0.122315	0.001938	63.1283	-35.0973	12.9155	0.010356	0.651093	-0.501336	-0.502682	-0.037950	63.1283	-0.500886	-3.52672e+06	1.076061E-8	NaN
538	1.000000	0.662468	7.37031e+06	-50189.1	1005.82	-29756.5	0.000000	0.000000	6.663027	-0.004832	NaN	0.000000	0.001688	0.001749	28.0789	0.072013	0.002062	34.918	69.5134	-165.154	-0.011084	0.661138	-0.491307	-0.492637	-0.004832	34.918	-0.491203	-2.58347e+06	1.870518E-9	NaN
538	1.000000	0.672419	7.37031e+06	-50189.1	1005.82	-29756.5	0.000000	0.000000	6.672972	-0.169277	NaN	0.000000	0.001698	0.001723	28.0788	0.025525	0.002182	11.6977	-141.995	13.1384	-0.162668	0.671101	-0.481356	-0.482674	-0.169277	11.6977	-0.470502	-1.32572e+06	1.276868E-7	NaN
538	1.000000	0.682407	7.37031e+06	-50189.1	1005.82	-29756.5	0.000000	0.000000	6.682964	-0.065583	NaN	0.000000	0.001675	0.001671	28.0786	0.080979	0.001939	41.7569	-62.904	-167.245	-0.052547	0.681138	-0.471367	-0.472636	-0.065583	41.7569	-0.470189	-1.31239e+06	4.997248E-8	NaN
538	1.000000	0.692480	7.37031e+06	-50189.1	1005.82	-29756.5	0.000000	0.000000	6.693040	-0.015368	NaN	0.000000	0.001652	0.001752	28.0788	0.133183	0.001945	68.4577	132.278	13.9016	-0.039451	0.691127	-0.461294	-0.462647	-0.015368	68.4577	-0.461126	-979117	1.569612E-8	NaN
538	1.000000	0.702479	7.37031e+06	-50189.1	1005.82	-29756.5	0.000000	0.000000	6.703036	-0.061973	NaN	0.000000	0.001666	0.001755	28.0787	0.043381	0.002128	20.386	-6.492959	-163.426	-0.016489	0.701092	-0.451296	-0.452682	-0.061973	20.386	-0.449016	-661429	9.369508E-8	NaN
538	1.000000	0.712472	7.37031e+06	-50189.1	1005.82	-29756.5	0.000000	0.000000	6.713031	-0.022218	NaN	0.000000	0.001666	0.001793	28.0788	0.073527	0.001830	40.1776	-78.6229	12.1591	-0.064946	0.711131	-0.441302	-0.442644	-0.022218	40.1776	-0.440887	-508028	4.373427E-8	NaN
538	1.000000	0.722467	7.37031e+06	-50189.1	1005.82	-29756.5	0.000000	0.000000	6.723027	-0.013233	NaN	0.000000	0.001656	0.001789	28.079	0.026415	0.002028	13.0255	-3.330504	-164.748	-0.021038	0.721131	-0.431307	-0.432644	-0.013233	13.0255	-0.430545	-362890	3.646502E-8	NaN
538	1.000000	0.732475	7.37031e+06	-50189.1	1005.82	-29756.5	0.000000	0.000000	6.733032	-0.062890	NaN	0.000000	0.001637	0.001767	28.079	0.042619	0.001994	21.3782	116.988	14.7979	-0.081730	0.731111	-0.421300	-0.422664	-0.062890	21.3782	-0.419094	-249780	2.517814E-7	NaN
538	1.000000	0.742482	7.37031e+06	-50189.1	1005.82	-29756.5	0.000000	0.000000	6.743039	-0.075053	NaN	0.000000	0.001655	0.001766	28.0787	0.067142	0.001995	33.6589	96.8293	-166.013	0.000106	0.741204	-0.411292	-0.412571	-0.075053	33.6589	-0.409620	-183228	4.096150E-7	NaN
538	1.000000	0.752475	7.37031e+06	-50189.1	1005.82	-29756.5	0.000000	0.000000	6.753034	-0.023296	NaN	0.000000	0.001645	0.001751	28.0788	0.089159	0.002064	43.1927	-99.9273	15.4454	-0.002886	0.751126	-0.401299	-0.402649	-0.023296	43.1927	-0.400895	-137643	1.692484E-7	NaN
538	1.000000	0.762488	7.37031e+06	-50189.1	1005.82	-29756.5	0.000000	0.000000	6.763047	-0.045467	NaN	0.000000	0.001589	0.001746	28.0799	0.057085	0.002114	27.004	-73.7189	-164.815	-0.087588	0.761171	-0.391286	-0.392604	-0.045467	27.004	-0.390023	-96272	4.722793E-7	NaN
538	1.000000	0.772521	7.37031e+06	-50189.1	1005.82	-29756.5	0.000000	0.000000	6.773080	-0.035589	NaN	0.000000	0.001554	0.001756	28.08	0.118684	0.002044	58.0723	-150.303	13.1817	-0.042877	0.771109	-0.381253	-0.382665	-0.035589	58.0723	-0.380794	-71003	5.012336E-7	NaN
538	1.000000	0.782496	7.37031e+06	-50189.1	1005.82	-29756.5	0.000000	0.000000	6.783055	-0.025189	NaN	0.000000	0.001594	0.001760	28.0799	0.088715	0.002140	41.4511	31.7371	-166.767	-0.013043	0.781208	-0.371279	-0.372566	-0.025189	41.4511	-0.370823	-51047.8	4.934404E-7	NaN
538	1.000000	0.792508	7.37031e+06	-50189.1	1005.82	-29756.5	0.000000	0.000000	6.793067	-0.010874	NaN	0.000000	0.001565	0.001754	28.08	0.045446	0.001967	23.1058	-134.693	19.1392	0.087138	0.791161	-0.361267	-0.362613	-0.010874	23.1058	-0.360914	-36732.9	2.960387E-7	NaN
538	1.000000	0.802531	7.37031e+06	-50189.1	1005.82	-29756.5	0.000000	0.000000	6.803090	-0.030215	NaN	0.000000	0.001671	0.001772	28.0801	0.069000	0.001863	37.0287	-133.021	-164.822	-0.034312	0.801218	-0.351244	-0.352556	-0.030215	37.0287	-0.350632	-26071.7	1.158900E-6	NaN
538	1.000000	0.812514	7.37031e+06	-50189.1	1005.82	-29756.5	0.000000	0.000000	6.813073	-0.020092	NaN	0.000000	0.001655	0.001818	28.0798	0.034737	0.002041	17.023	-119.907	14.7551	-0.051256	0.811168	-0.341260	-0.342606	-0.020092	17.023	-0.340375	-18493.5	1.086409E-6	NaN
538	1.000000	0.822502	7.37031e+06	-50189.1	1005.82	-29756.5	0.000000	0.000000	6.823063	0.010296	NaN	0.000000	0.001641	0.001765	28.0799	0.064947	0.001939	33.497	17.1229	-164.512	0.021214	0.821221	-0.331272	-0.332554	0.010296	33.497	-0.331503	-13723.1	-7.502663E-7	NaN
538	1.000000	0.832520	7.37031e+06	-50189.1	1005.82	-29756.5	0.000000	0.000000	6.833078	-0.039635	NaN	0.000000	0.001631	0.001760	28.0799	0.022430	0.002175	10.3117	177.374	16.5931	-0.122899	0.831156	-0.321255	-0.322618	-0.039635	10.3117	-0.318372	-8803.75	4.502096E-6	NaN
538	1.000000	0.842542	7.37031e+06	-50189.1	1005.82	-29756.5	0.000000	0.000000	6.843102	0.008154	NaN	0.000000	0.001683	0.001760	28.0804	0.013562	0.001965	6.903303	-171.966	-164.208	-0.009345	0.841228	-0.311232	-0.312546	0.008154	6.903303	-0.312118	-7118.47	-1.145486E-6	NaN
538	1.000000	0.852511	7.37031e+06	-50189.1	1005.82	-29756.5	0.000000	0.000000	6.853072	0.017706	NaN	0.000000	0.001659	0.001782	28.0799	0.111989	0.002036	54.9964	2.207248	16.8356	0.081432	0.851195	-0.301263	-0.302579	0.017706	54.9964	-0.301505	-4954.79	-3.573595E-6	NaN
538	1.000000	0.862518	7.37031e+06	-50189.1	1005.82	-29756.5	0.000000	0.000000	6.863076	-0.052050	NaN	0.000000	0.001613	0.001759	28.0802	0.116256	0.001953	59.5169	164.577	-164.716	0.005732	0.861244	-0.291256	-0.292530	-0.052050	59.5169	-0.290600	-3406.39	1.528005E-5	NaN
538	1.000000	0.872553	7.37031e+06	-50189.1	1005.82	-29756.5	0.000000	0.000000	6.873109	-0.086499	NaN	0.000000	0.001592	0.001750	28.08	0.040099	0.002066	19.4095	108.735	16.1186	-0.017895	0.871167	-0.281222	-0.282608	-0.086499	19.4095	-0.277879	-2192.57	3.945085E-5	NaN
538	1.000000	0.882546	7.37032e+06	-50189.1	1005.82	-29756.5	0.000000	0.000000	6.883104	-0.044243	NaN	0.000000	0.001658	0.001821	28.0801	0.022324	0.001972	11.3227	-44.7974	-163.427	-0.005012	0.881195	-0.271228	-0.272579	-0.044243	11.3227	-0.268298	-1569.1	2.819641E-5	NaN
538	1.000000	0.892531	7.37032e+06	-50189.1	1005.82	-29756.5	0.000000	0.000000	6.893088	-0.080131	NaN	0.000000	0.001616	0.001789	28.0798	0.078950	0.002037	38.7493	123.089	15.0705	-0.088408	0.891190	-0.261243	-0.262585	-0.080131	38.7493	-0.259692	-1159.31	6.911986E-5	NaN
538	1.000000	0.902543	7.37032e+06	-50189.1	1005.82	-29756.5	0.000000	0.000000	6.903104	0.020153	NaN	0.000000	0.001614	0.001815	28.0788	0.049603	0.002017	24.5941	72.1206	-164.172	0.003292	0.901218	-0.251231	-0.252556	0.020153	24.5941	-0.251846	-877.984	-2.295357E-5	NaN
538	1.000000	0.912566	7.37032e+06	-50189.1	1005.82	-29756.5	0.000000	0.000000	6.913125	-0.009316	NaN	0.000000	0.001659	0.001818	28.0789	0.072973	0.002186	33.3838	48.4186	16.5334	-0.082933	0.911220	-0.241209	-0.242555	-0.009316	33.3838	-0.241000	-595.878	1.563396E-5	NaN
538	1.000000	0.922571	7.37032e+06	-50189.1	1005.82	-29756.5	0.000000	0.000000	6.923129	-0.058621	NaN	0.000000	0.001635	0.001787	28.0787	0.091154	0.001917	47.5625	47.6849	-164.318	-0.008871	0.921280	-0.231203	-0.232494	-0.058621	47.5625	-0.230279	-404.498	0.000145	NaN
538	1.000000	0.932544	7.37032e+06	-50189.1	1005.82	-29756.5	0.000000	0.000000	6.933101	-0.050312	NaN	0.000000	0.001631	0.001838	28.0786	0.103638	0.001912	54.2048	-121.418	15.5883	-0.075991	0.931155	-0.221231	-0.222620	-0.050312	54.2048	-0.220535	-283.283	0.000178	NaN
538	1.000000	0.942569	7.37032e+06	-50189.1	1005.82	-29756.5	0.000000	0.000000	6.943128	-0.016063	NaN	0.000000	0.001622	0.001823	28.0788	0.086574	0.001923	45.0103	143.969	-165.717	-0.021540	0.941285	-0.211205	-0.212490	-0.016063	45.0103	-0.210938	-198.608	8.087743E-5	NaN
538	1.000000	0.952553	7.37032e+06	-50189.1	1005.82	-29756.5	0.000000	0.000000	6.953112	-0.011026	NaN	0.000000	0.001637	0.001763	28.0789	0.045610	0.002048	22.2659	-70.1456	17.4247	0.048988	0.951188	-0.201222	-0.202587	-0.011026	22.2659	-0.200850	-136.039	8.104741E-5	NaN
538	1.000000	0.962588	7.37032e+06	-50189.1	1005.82	-29756.5	0.000000	0.000000	6.963148	-0.000784	NaN	0.000000	0.001633	0.001802	28.0788	0.094267	0.002147	43.916	-16.0701	-164.255	-0.007597	0.961279	-0.191186	-0.192496	-0.000784	43.916	-0.191173	-94.1032	8.336443E-6	NaN
538	1.000000	0.972557	7.37032e+06	-50189.1	1005.82	-29756.5	0.000000	0.000000	6.973117	-0.001156	NaN	0.000000	0.001600	0.001801	28.0787	0.035146	0.001973	17.8104	115.815	15.7623	-0.016064	0.971202	-0.181217	-0.182572	-0.001156	17.8104	-0.181169	-63.8742	1.809809E-5	NaN
538	1.000000	0.982601	7.37032e+06	-50189.1	1005.82	-29756.5	0.000000	0.000000	6.983159	-0.030702	NaN	0.000000	0.001652	0.001778	28.0788	0.040471	0.001992	20.3121	57.8252	-164.332	0.015344	0.981302	-0.171174	-0.172473	-0.030702	20.3121	-0.170040	-41.1447	0.000746	NaN
538	1.000000	0.992535	7.37032e+06	-50189.1	1005.82	-29756.5	0.000000	0.000000	6.993094	-0.027938	NaN	0.000000	0.001626	0.001793	28.0789	0.035123	0.001837	19.115	25.505	16.551	-0.039445	0.991191	-0.161239	-0.162583	-0.027938	19.115	-0.160143	-27.5757	0.001013	NaN
538	1.000000	1.002577	7.37032e+06	-50189.1	1005.82	-29756.5	0.000000	0.000000	7.003135	-0.055653	NaN	0.000000	0.001634	0.001758	28.0788	0.074226	0.002123	34.9656	31.3602	-165.014	-0.025366	1.001245	-0.151198	-0.152530	-0.055653	34.9656	-0.150004	-18.1166	0.003072	NaN
538	1.000000	1.012554	7.37032e+06	-50189.1	1005.82	-29756.5	0.000000	0.000000	7.013113	-0.027891	NaN	0.000000	0.001626	0.001793	28.0787	0.094133	0.001956	48.1278	-34.9893	16.3575	-0.120207	1.011215	-0.141220	-0.142560	-0.027891	48.1278	-0.140785	-12.2378	0.002279	NaN
538	1.000000	1.022611	7.37032e+06	-50189.1	1005.82	-29756.5	0.000000	0.000000	7.023168	-0.080882	NaN	0.000000	0.001624	0.001780	28.0792	0.092007	0.001965	46.8141	-8.747739	-163.79	-0.013630	1.021337	-0.131163	-0.132438	-0.080882	46.8141	-0.129868	-7.576008	0.010676	NaN
538	1.000000	1.032631	7.37032e+06	-50189.1	1005.82	-29756.5	0.000000	0.000000	7.033192	0.021704	NaN	0.000000	0.001588	0.001827	28.0797	0.053358	0.001963	27.1784	155.602	11.4354	0.023894	1.031273	-0.121143	-0.122501	0.021704	27.1784	-0.121742	-5.237480	-0.004144	NaN
538	1.000000	1.042602	7.37032e+06	-50189.1	1005.82	-29756.5	0.000000	0.000000	7.043160	-0.047075	NaN	0.000000	0.001579	0.001810	28.0802	0.085694	0.002007	42.7068	-119.309	-168.803	-0.082583	1.041290	-0.111173	-0.112484	-0.047075	42.7068	-0.110346	-3.056101	0.015404	NaN
538	1.000000	1.052593	7.37032e+06	-50189.1	1005.82	-29756.5	0.000000	0.000000	7.053151	-0.059763	NaN	0.000000	0.001584	0.001801	28.0802	0.108497	0.001898	57.1774	-156.62	15.2855	-0.074133	1.051231	-0.101181	-0.102543	-0.059763	57.1774	-0.100397	-1.864552	0.032052	NaN
538	1.000000	1.062635	7.37032e+06	-50189.1	1005.82	-29756.5	0.000000	0.000000	7.063196	0.028563	NaN	0.000000	0.001588	0.001797	28.0801	0.044672	0.002005	22.2806	-18.2281	-164.472	-0.042370	1.061311	-0.091139	-0.092463	0.028563	22.2806	-0.092101	-1.210041	-0.023605	NaN
538	1.000000	1.072609	7.37032e+06	-50189.1	1005.82	-29756.5	0.000000	0.000000	7.073168	-0.016816	NaN	0.000000	0.001616	0.001802	28.0798	0.057245	0.002112	27.1028	-137.805	13.2933	-0.038039	1.071252	-0.081166	-0.082523	-0.016816	27.1028	-0.080700	-0.644403	0.026095	NaN
538	1.000000	1.082617	7.37032e+06	-50189.1	1005.82	-29756.5	0.000000	0.000000	7.083174	-0.064635	NaN	0.000000	0.001613	0.001817	28.08	0.075638	0.001973	38.3396	10.0397	-163.478	-0.037112	1.081247	-0.071158	-0.072527	-0.064635	38.3396	-0.069894	-0.338875	0.190733	NaN
538	1.000000	1.092611	7.37032e+06	-50189.1	1005.82	-29756.5	0.000000	0.000000	7.093172	0.021167	NaN	0.000000	0.001640	0.001820	28.0801	0.066722	0.001901	35.102	-141.399	14.9207	-0.021930	1.091262	-0.061164	-0.062513	0.021167	35.102	-0.061616	-0.200268	-0.105695	NaN
538	1.000000	1.102626	7.37032e+06	-50189.1	1005.82	-29756.5	0.000000	0.000000	7.103184	-0.064451	NaN	0.000000	0.001607	0.001819	28.0802	0.086559	0.001925	44.9655	111.043	-162.224	-0.056276	1.101376	-0.051148	-0.052399	-0.064451	44.9655	-0.050073	-0.091716	0.702719	NaN
538	1.000000	1.112650	7.37032e+06	-50189.1	1005.82	-29756.5	0.000000	0.000000	7.113209	-0.031238	NaN	0.000000	0.001639	0.001786	28.08	0.075796	0.001962	38.6346	119.209	16.3413	-0.029960	1.111282	-0.041124	-0.042493	-0.031238	38.6346	-0.040518	-0.046891	0.666178	NaN
538	1.000000	1.122621	7.37032e+06	-50189.1	1005.82	-29756.5	0.000000	0.000000	7.123179	-0.063254	NaN	0.000000	0.001616	0.001818	28.0797	0.068851	0.001965	35.0312	101.476	-166.432	-0.043516	1.121306	-0.031153	-0.032468	-0.063254	35.0312	-0.029799	-0.022718	2.784287	NaN
538	1.000000	1.132618	7.37032e+06	-50189.1	1005.82	-29756.5	0.000000	0.000000	7.133175	-0.077800	NaN	0.000000	0.001643	0.001777	28.0803	0.023981	0.002007	11.9466	122.214	15.9955	-0.046045	1.131275	-0.021156	-0.022499	-0.077800	11.9466	-0.016272	-0.010052	7.739931	NaN
538	1.000000	1.142613	7.37032e+06	-50189.1	1005.82	-29756.5	0.000000	0.000000	7.143173	0.012821	NaN	0.000000	0.001626	0.001815	28.0801	0.070370	0.002047	34.3821	175.558	-164.171	-0.005595	1.141289	-0.011162	-0.012485	0.012821	34.3821	-0.011441	-0.007210	-1.778308	NaN
538	1.000000	1.152611	7.37032e+06	-50189.1	1005.82	-29756.5	0.000000	0.000000	7.153251	1.942217	NaN	0.000000	0.001653	0.001791	28.08	2.734370	0.001863	1467.48	9.133092	10.3171	0.749246	1.151301	-0.001163	-0.002473	1.942217	1467.48	-0.002156	-0.001547	-1255.3	NaN
538	2.000000	1.160215	7.37032e+06	-50189.1	1005.82	-29756.5	0.000000	0.000000	7.161162	9.409952	NaN	0.000000	0.001597	0.001811	28.0798	9.602992	0.001735	5533.35	6.881157	-170.346	9.351451	1.159877	0.006440	0.006103	9.409952	5533.35	0.005165	0.004284	2196.41	77236.7
538	2.000000	1.162666	7.37032e+06	-50189.1	1005.82	-29756.5	0.000000	0.000000	7.163783	13.5442	NaN	0.000000	0.001607	0.001796	28.0789	11.7679	0.001570	7496.05	7.188686	7.466425	12.5623	1.162318	0.008892	0.008543	13.5442	7496.05	0.007537	0.006570	2061.46	84492.2
538	2.000000	1.165130	7.37032e+06	-50189.1	1005.82	-29756.5	0.000000	0.000000	7.166397	17.2062	NaN	0.000000	0.001609	0.001776	28.0786	14.4046	0.001713	8406.84	7.984266	-174.115	16.9723	1.164791	0.011355	0.011016	17.2062	8406.84	0.009820	0.008982	1915.55	81042
538	2.000000	1.167621	7.37032e+06	-50189.1	1005.82	-29756.5	0.000000	0.000000	7.169051	21.1573	NaN	0.000000	0.001616	0.001757	28.0787	16.9618	0.001600	10602.6	2.863214	7.203625	20.2477	1.167286	0.013847	0.013512	21.1573	10602.6	0.012350	0.011912	1776.06	88753.3
538	2.000000	1.170075	7.37032e+06	-50189.1	1005.82	-29756.5	0.000000	0.000000	7.171698	25.8493	NaN	0.000000	0.001625	0.001741	28.0786	20.5524	0.001876	10955.3	6.175720	-176.111	24.1161	1.169823	0.016300	0.016048	25.8493	10955.3	0.014531	0.014665	1762.7	82654.1
538	2.000000	1.172615	7.37032e+06	-50189.1	1005.82	-29756.5	0.000000	0.000000	7.174474	31.5899	NaN	0.000000	0.001600	0.001779	28.0788	22.3152	0.001667	13387.9	4.886738	3.731108	30.4142	1.172265	0.018841	0.018491	31.5899	13387.9	0.017071	0.018147	1740.79	90799.8
538	2.000000	1.175072	7.37032e+06	-50189.1	1005.82	-29756.5	0.000000	0.000000	7.177261	39.6048	NaN	0.000000	0.001599	0.001779	28.0785	25.3158	0.001799	14071.5	9.983539	177.509	37.743	1.174764	0.021297	0.020990	39.6048	14071.5	0.019187	0.021280	1861.12	88130.3
538	2.000000	1.177566	7.37032e+06	-50189.1	1005.82	-29756.5	0.000000	0.000000	7.179977	45.0073	NaN	0.000000	0.001627	0.001770	28.0787	27.0136	0.001676	16118.9	4.540065	1.792026	43.0959	1.177197	0.023792	0.023423	45.0073	16118.9	0.021698	0.025281	1780.31	92622.1
538	2.000000	1.180136	7.37032e+06	-50189.1	1005.82	-29756.5	0.000000	0.000000	7.182785	50.8217	NaN	0.000000	0.001559	0.001780	28.0789	30.9825	0.002013	15394.7	7.470323	-178.827	50.9227	1.179704	0.026361	0.025930	50.8217	15394.7	0.023885	0.029019	1751.35	82566.9
538	2.000000	1.182622	7.37032e+06	-50189.1	1005.82	-29756.5	0.000000	0.000000	7.185565	57.9355	NaN	0.000000	0.001558	0.001730	28.0787	32.5132	0.001791	18148.6	8.452313	-2.216379	57.6168	1.182305	0.028848	0.028531	57.9355	18148.6	0.026454	0.033713	1718.47	90305.6
538	2.000000	1.185026	7.37032e+06	-50189.1	1005.82	-29756.5	0.000000	0.000000	7.188420	68.9009	NaN	0.000000	0.001592	0.001731	28.0787	34.6946	0.001892	18341.5	3.943486	-178.339	65.9925	1.184750	0.031252	0.030976	68.9009	18341.5	0.028434	0.037561	1834.37	86464.8
538	2.000000	1.187558	7.37032e+06	-50189.1	1005.82	-29756.5	0.000000	0.000000	7.191261	76.4421	NaN	0.000000	0.001668	0.001774	28.0787	37.4611	0.001856	20187.5	3.968644	1.236574	74.3845	1.187136	0.033783	0.033361	76.4421	20187.5	0.030943	0.042721	1789.33	89234.9
538	2.000000	1.190069	7.37032e+06	-50189.1	1005.82	-29756.5	0.000000	0.000000	7.194074	83.77	NaN	0.000000	0.001661	0.001843	28.0789	39.7082	0.001845	21516.6	5.407613	179.081	83.3241	1.189771	0.036295	0.035997	83.77	21516.6	0.033375	0.048029	1744.15	89700.5
538	2.000000	1.192604	7.37032e+06	-50189.1	1005.82	-29756.5	0.000000	0.000000	7.197105	95.8429	NaN	0.000000	0.001662	0.001852	28.0788	40.6873	0.001851	21977.7	2.388444	1.910436	95.2504	1.192256	0.038830	0.038481	95.8429	21977.7	0.035559	0.053056	1806.45	87174.4
538	2.000000	1.195079	7.37032e+06	-50189.1	1005.82	-29756.5	0.000000	0.000000	7.199973	105.411	NaN	0.000000	0.001608	0.001826	28.079	43.5366	0.001820	23923.4	4.500311	179.834	106.333	1.194756	0.041304	0.040981	105.411	23923.4	0.038000	0.058961	1787.81	90014.7
538	2.000000	1.197528	7.37032e+06	-50189.1	1005.82	-29756.5	0.000000	0.000000	7.202969	118.711	NaN	0.000000	0.001578	0.001784	28.0802	45.6647	0.001745	26173	3.113482	-0.306816	114.199	1.197168	0.043753	0.043393	118.711	26173	0.040351	0.064940	1828.01	93836.2
538	2.000000	1.200013	7.37032e+06	-50189.1	1005.82	-29756.5	0.000000	0.000000	7.205731	125.446	NaN	0.000000	0.001655	0.001799	28.0799	49.2641	0.001794	27454.2	5.069809	176.648	122.109	1.199798	0.046238	0.046023	125.446	27454.2	0.042811	0.071496	1754.59	93808.5
538	2.000000	1.202547	7.37032e+06	-50189.1	1005.82	-29756.5	0.000000	0.000000	7.208988	143.039	NaN	0.000000	0.001638	0.001764	28.0802	51.0443	0.001849	27603.2	7.795567	-4.824346	141.444	1.202183	0.048772	0.048409	143.039	27603.2	0.044886	0.077263	1851.32	90729
538	2.000000	1.205078	7.37032e+06	-50189.1	1005.82	-29756.5	0.000000	0.000000	7.212029	155.422	NaN	0.000000	0.001654	0.001753	28.0799	53.7444	0.001714	31352	8.313641	172.913	156.5	1.204667	0.051304	0.050893	155.422	31352	0.047586	0.085097	1826.41	98193.4
538	2.000000	1.207536	7.37032e+06	-50189.1	1005.82	-29756.5	0.000000	0.000000	7.214968	167.107	NaN	0.000000	0.001589	0.001743	28.0802	56.1897	0.001772	31709.9	5.613294	-4.824095	166.091	1.207229	0.053762	0.053454	167.107	31709.9	0.049809	0.091825	1819.83	95606.5
538	2.000000	1.210044	7.37032e+06	-50189.1	1005.82	-29756.5	0.000000	0.000000	7.218079	181.792	NaN	0.000000	0.001572	0.001807	28.0799	58.8762	0.001834	32098	3.959264	176.894	180.462	1.209682	0.056269	0.055907	181.792	32098	0.052022	0.098764	1840.67	93314.9
538	2.000000	1.212558	7.37032e+06	-50189.1	1005.82	-29756.5	0.000000	0.000000	7.221293	198.803	NaN	0.000000	0.001588	0.001802	28.0802	60.2654	0.001785	33764.7	5.115363	-4.249077	196.433	1.212044	0.058784	0.058269	198.803	33764.7	0.054368	0.106390	1868.62	94576.9
538	2.000000	1.215004	7.37032e+06	-50189.1	1005.82	-29756.5	0.000000	0.000000	7.224171	209.303	NaN	0.000000	0.001554	0.001789	28.0801	62.6611	0.001710	36641.6	6.832071	172.875	206.613	1.214616	0.061230	0.060842	209.303	36641.6	0.056945	0.115083	1818.71	98682.7
538	2.000000	1.217498	7.37032e+06	-50189.1	1005.82	-29756.5	0.000000	0.000000	7.227224	222.893	NaN	0.000000	0.001546	0.001781	28.0805	64.3792	0.001759	36595	2.872264	-3.057105	218.665	1.217145	0.063724	0.063371	222.893	36595	0.059156	0.122798	1815.12	95411.3
538	2.000000	1.219966	7.37032e+06	-50189.1	1005.82	-29756.5	0.000000	0.000000	7.230400	240.126	NaN	0.000000	0.001531	0.001789	28.0801	66.9335	0.001658	40364.9	2.480008	175.799	235.482	1.219717	0.066192	0.065943	240.126	40364.9	0.061730	0.132085	1817.97	101473
538	2.000000	1.222556	7.37032e+06	-50189.1	1005.82	-29756.5	0.000000	0.000000	7.233580	254.452	NaN	0.000000	0.001562	0.001803	28.0803	69.4841	0.001751	39679.8	5.725079	-6.141079	254.007	1.222221	0.068782	0.068447	254.452	39679.8	0.063972	0.140437	1811.86	96739.1
538	2.000000	1.225047	7.37032e+06	-50189.1	1005.82	-29756.5	0.000000	0.000000	7.236574	266.692	NaN	0.000000	0.001547	0.001807	28.0802	72.1453	0.001742	41416.2	4.341053	174.03	267.421	1.224787	0.071273	0.071013	266.692	41416.2	0.066443	0.149922	1778.87	97726.3
538	2.000000	1.227454	7.37032e+06	-50189.1	1005.82	-29756.5	0.000000	0.000000	7.239758	285.59	NaN	0.000000	0.001519	0.001740	28.0801	74.6256	0.001709	43663.8	9.377865	-10.8123	279.986	1.227132	0.073680	0.073358	285.59	43663.8	0.068774	0.159137	1794.62	100002
538	2.000000	1.229959	7.37032e+06	-50189.1	1005.82	-29756.5	0.000000	0.000000	7.242825	299.261	NaN	0.000000	0.001491	0.001734	28.0787	78.246	0.001957	39977.7	5.889047	172.883	295.907	1.229701	0.076185	0.075927	299.261	39977.7	0.070571	0.166417	1798.26	89534.9
538	2.000000	1.232485	7.37032e+06	-50189.1	1005.82	-29756.5	0.000000	0.000000	7.246256	321.267	NaN	0.000000	0.001523	0.001720	28.079	78.8266	0.001813	43478.5	5.115145	-6.584096	317.492	1.232191	0.078711	0.078416	321.267	43478.5	0.073169	0.177218	1812.84	94361.4
538	2.000000	1.234970	7.37032e+06	-50189.1	1005.82	-29756.5	0.000000	0.000000	7.249354	336.177	NaN	0.000000	0.001546	0.001744	28.079	80.539	0.001818	44300	4.732951	173.223	334.513	1.234663	0.081195	0.080888	336.177	44300	0.075504	0.187195	1795.87	93546.9
538	2.000000	1.237394	7.37032e+06	-50189.1	1005.82	-29756.5	0.000000	0.000000	7.252531	354.506	NaN	0.000000	0.001557	0.001709	28.0789	82.9696	0.001762	47097.4	3.777238	-5.673269	346.435	1.237061	0.083619	0.083286	354.506	47097.4	0.077974	0.198028	1790.18	96695.5
538	2.000000	1.239928	7.37032e+06	-50189.1	1005.82	-29756.5	0.000000	0.000000	7.255712	370.234	NaN	0.000000	0.001542	0.001696	28.0789	86.2576	0.001808	47707	5.837995	171.452	364.906	1.239722	0.086154	0.085948	370.234	47707	0.080333	0.208643	1774.48	95423
538	2.000000	1.242469	7.37032e+06	-50189.1	1005.82	-29756.5	0.000000	0.000000	7.258955	387.285	NaN	0.000000	0.001549	0.001688	28.0791	86.7237	0.001688	51364.3	2.883565	-5.906220	381.447	1.242204	0.088695	0.088429	387.285	51364.3	0.083040	0.221139	1751.32	99793.5
538	2.000000	1.244982	7.37032e+06	-50189.1	1005.82	-29756.5	0.000000	0.000000	7.262520	412.877	NaN	0.000000	0.001579	0.001704	28.0789	89.2915	0.001779	50180.7	5.591367	171.946	410.937	1.244610	0.091208	0.090835	412.877	50180.7	0.085037	0.230578	1790.62	95477.5
538	2.000000	1.247372	7.37032e+06	-50189.1	1005.82	-29756.5	0.000000	0.000000	7.265727	432.754	NaN	0.000000	0.001546	0.001684	28.0788	90.9644	0.001806	50372.5	4.384156	-6.746953	424.608	1.247067	0.093598	0.093293	432.754	50372.5	0.087154	0.240785	1797.26	93789
538	2.000000	1.249977	7.37032e+06	-50189.1	1005.82	-29756.5	0.000000	0.000000	7.268622	439.808	NaN	0.000000	0.001559	0.001680	28.0788	93.0886	0.001652	56355.8	2.670774	173.431	437.216	1.249725	0.096202	0.095951	439.808	56355.8	0.090349	0.256579	1714.12	101649
538	2.000000	1.252553	7.37032e+06	-50189.1	1005.82	-29756.5	0.000000	0.000000	7.272168	463.402	NaN	0.000000	0.001577	0.001684	28.0794	96.1014	0.001812	53027	6.190327	-9.102322	460.414	1.252083	0.098778	0.098309	463.402	53027	0.092224	0.266063	1741.7	93924.3
538	2.000000	1.254974	7.37032e+06	-50189.1	1005.82	-29756.5	0.000000	0.000000	7.275571	487.278	NaN	0.000000	0.001593	0.001763	28.0791	98.5617	0.001831	53825.4	3.860838	173.193	486.455	1.254618	0.101199	0.100843	487.278	53825.4	0.094410	0.277324	1757.07	93382.7
538	2.000000	1.257418	7.37032e+06	-50189.1	1005.82	-29756.5	0.000000	0.000000	7.278717	504.344	NaN	0.000000	0.001548	0.001786	28.0789	102.22	0.001775	57592.5	6.355187	-9.924040	497.321	1.256967	0.103644	0.103193	504.344	57592.5	0.097076	0.291357	1731.02	97482.4
538	2.000000	1.257954	7.37032e+06	-50189.1	1005.82	-29756.5	0.000000	0.000000	7.279429	508.641	NaN	0.000000	0.001552	0.001820	28.0787	102.477	0.001794	57121.4	4.909572	171.403	507.158	1.257682	0.104179	0.103908	508.641	57121.4	0.097501	0.293623	1732.3	96311.4