File: remote_trans/data/nanoindenter/0828-1/data/Data_2025-08-06,11h17m57s/2025-07-22_16-23-58_1_105.txt
2025-07-22, 16:23:58, 1
Index	Phase	Displacement	Time	Pos X	Pos Y	Pos Z	Rot A	Rot B	Piezo Z	Force A	Force B	Gripper	Voltage A	Voltage B	Temperature	Amplitude force	Amplitude pos	Stiffness	Phase shift	Phase excitation	Force A raw	Displacement raw	HMax	HMax raw	Real Force	Real Stiffness	Contact Depth	Area	Hardness	Reduced Mod.
[#]	[#]	[um]	[s]	[um]	[um]	[um]	[m°]	[m°]	[um]	[uN]	[uN]	[V]	[V]	[V]	[°C]	[uN]	[um]	[N/m]	[°]	[°]	[uN]	[um]	[um]	[um]	[uN]	[N/m]	[um]	[um^2]	[MPa]	[MPa]
105	1.000000	0.002464	7.36606e+06	-43889.1	955.818	-29777.5	0.000000	0.000000	6.002782	0.071280	NaN	0.000000	0.001528	0.001701	28.0973	0.012416	0.000987	12.5754	-103.696	-164.848	0.073277	0.001241	-1.707397	-1.708620	0.071280	12.5754	-1.711649	-7.263926E+22	-9.812846E-25	NaN
105	1.000000	0.014506	7.36606e+06	-43889.1	955.819	-29777.5	0.000000	0.000000	6.014822	0.018556	NaN	0.000000	0.001519	0.001624	28.0973	0.096765	0.001577	61.3491	121.499	-166.111	-0.076044	0.013337	-1.695355	-1.696524	0.018556	61.3491	-1.695582	-4.443750E+22	-4.175860E-25	NaN
105	1.000000	0.026499	7.36606e+06	-43889.1	955.818	-29777.5	0.000000	0.000000	6.026809	-0.109625	NaN	0.000000	0.001538	0.001676	28.0965	0.114699	0.001803	63.619	-53.2473	-166.273	-0.134940	0.025151	-1.683363	-1.684711	-0.109625	63.619	-1.682071	-2.939228E+22	3.729712E-24	NaN
105	1.000000	0.038451	7.36606e+06	-43889.1	955.819	-29777.5	0.000000	0.000000	6.038766	0.014565	NaN	0.000000	0.001554	0.001683	28.0945	0.082233	0.001886	43.5932	171.03	-167.077	0.028772	0.037078	-1.671411	-1.672784	0.014565	43.5932	-1.671661	-2.137553E+22	-6.813866E-25	NaN
105	1.000000	0.050446	7.36606e+06	-43889.1	955.818	-29777.5	0.000000	0.000000	6.050760	-0.025287	NaN	0.000000	0.001516	0.001700	28.0963	0.083185	0.001978	42.05	-149.203	-167.884	-0.020094	0.049138	-1.659415	-1.660724	-0.025287	42.05	-1.658964	-1.449369E+22	1.744673E-24	NaN
105	1.000000	0.062425	7.36606e+06	-43889.1	955.818	-29777.4	0.000000	0.000000	6.062740	0.013487	NaN	0.000000	0.001503	0.001662	28.097	0.110641	0.001894	58.4133	-78.0779	-166.016	-0.034618	0.061143	-1.647437	-1.648719	0.013487	58.4133	-1.647610	-1.023917E+22	-1.317173E-24	NaN
105	1.000000	0.074418	7.36606e+06	-43889.1	955.819	-29777.4	0.000000	0.000000	6.074730	-0.056527	NaN	0.000000	0.001544	0.001662	28.0969	0.111894	0.002014	55.5509	167.181	-167.697	-0.098115	0.073141	-1.635444	-1.636721	-0.056527	55.5509	-1.634681	-6.892638E+21	8.201000E-24	NaN
105	1.000000	0.086459	7.36606e+06	-43889.1	955.819	-29777.4	0.000000	0.000000	6.086774	-0.010361	NaN	0.000000	0.001519	0.001650	28.0963	0.081032	0.002039	39.7495	-73.3612	-168.294	0.014991	0.085152	-1.623402	-1.624710	-0.010361	39.7495	-1.623207	-4.851078E+21	2.135863E-24	NaN
105	1.000000	0.098453	7.36606e+06	-43889.1	955.818	-29777.4	0.000000	0.000000	6.098768	0.010840	NaN	0.000000	0.001508	0.001682	28.0954	0.031165	0.002111	14.7629	0.048378	-161.657	0.059084	0.097104	-1.611409	-1.612758	0.010840	14.7629	-1.611960	-3.437810E+21	-3.153265E-24	NaN
105	1.000000	0.110438	7.36606e+06	-43889.1	955.818	-29777.4	0.000000	0.000000	6.110752	-0.010269	NaN	0.000000	0.001564	0.001697	28.0955	0.061261	0.001828	33.5135	10.751	-165.139	-0.005846	0.109125	-1.599424	-1.600736	-0.010269	33.5135	-1.599194	-2.325472E+21	4.415877E-24	NaN
105	1.000000	0.122443	7.36606e+06	-43889.1	955.818	-29777.4	0.000000	0.000000	6.122755	-0.049620	NaN	0.000000	0.001542	0.001655	28.0949	0.130086	0.001989	65.4041	-6.819535	-162.963	-0.024622	0.121143	-1.587419	-1.588718	-0.049620	65.4041	-1.586850	-1.593364E+21	3.114160E-23	NaN
105	1.000000	0.134450	7.36606e+06	-43889.1	955.818	-29777.4	0.000000	0.000000	6.134765	0.015111	NaN	0.000000	0.001505	0.001660	28.0954	0.030827	0.002028	15.2013	-123.079	-165.253	-0.089662	0.133146	-1.575412	-1.576716	0.015111	15.2013	-1.576158	-1.148334E+21	-1.315887E-23	NaN
105	1.000000	0.146494	7.36606e+06	-43889.1	955.819	-29777.4	0.000000	0.000000	6.146810	0.028309	NaN	0.000000	0.001504	0.001666	28.0951	0.059470	0.002113	28.14	90.113	-166.887	0.060850	0.145178	-1.563368	-1.564684	0.028309	28.14	-1.564122	-7.942015E+20	-3.564485E-23	NaN
105	1.000000	0.158480	7.36606e+06	-43889.1	955.818	-29777.4	0.000000	0.000000	6.158798	0.089406	NaN	0.000000	0.001519	0.001689	28.0969	0.066994	0.002071	32.3415	52.9211	-166.528	0.077918	0.157181	-1.551382	-1.552681	0.089406	32.3415	-1.553456	-5.727755E+20	-1.560929E-22	NaN
105	1.000000	0.170482	7.36606e+06	-43889.1	955.818	-29777.4	0.000000	0.000000	6.170793	-0.086359	NaN	0.000000	0.001574	0.001666	28.0954	0.065276	0.001998	32.6725	-179.888	-165.598	-0.062127	0.169157	-1.539380	-1.540705	-0.086359	32.6725	-1.537398	-3.501505E+20	2.466340E-22	NaN
105	1.000000	0.182487	7.36606e+06	-43889.1	955.818	-29777.4	0.000000	0.000000	6.182804	0.060183	NaN	0.000000	0.001532	0.001691	28.0967	0.076342	0.001989	38.3779	-146.077	-169.038	-0.071027	0.181142	-1.527375	-1.528720	0.060183	38.3779	-1.528551	-2.669834E+20	-2.254188E-22	NaN
105	1.000000	0.194478	7.36606e+06	-43889.1	955.818	-29777.4	0.000000	0.000000	6.194795	0.065680	NaN	0.000000	0.001556	0.001694	28.0953	0.034178	0.002013	16.9787	48.0045	-167.72	0.139925	0.193159	-1.515384	-1.516702	0.065680	16.9787	-1.518285	-1.948993E+20	-3.369938E-22	NaN
105	1.000000	0.206476	7.36606e+06	-43889.1	955.818	-29777.4	0.000000	0.000000	6.206794	0.076730	NaN	0.000000	0.001560	0.001711	28.0964	0.008093	0.002044	3.958644	55.9949	-170.032	-0.019172	0.205172	-1.503386	-1.504690	0.076730	3.958644	-1.517923	-1.927470E+20	-3.980852E-22	NaN
105	1.000000	0.218512	7.36606e+06	-43889.1	955.818	-29777.4	0.000000	0.000000	6.218828	0.024878	NaN	0.000000	0.001563	0.001701	28.096	0.099108	0.001875	52.8574	-90.1787	-167.925	-0.003905	0.217160	-1.491349	-1.492702	0.024878	52.8574	-1.491702	-8.625701E+19	-2.884125E-22	NaN
105	1.000000	0.230523	7.36606e+06	-43889.1	955.819	-29777.4	0.000000	0.000000	6.230839	0.029877	NaN	0.000000	0.001544	0.001696	28.0978	0.053749	0.002137	25.1462	105.825	-165.609	0.023529	0.229177	-1.479339	-1.480685	0.029877	25.1462	-1.480230	-6.066931E+19	-4.924550E-22	NaN
105	1.000000	0.242495	7.36606e+06	-43889.1	955.819	-29777.4	0.000000	0.000000	6.242811	0.036375	NaN	0.000000	0.001573	0.001682	28.0977	0.048228	0.001899	25.391	105.485	-166.151	0.008688	0.241208	-1.467367	-1.468654	0.036375	25.391	-1.468441	-4.225721E+19	-8.608059E-22	NaN
105	1.000000	0.254533	7.36606e+06	-43889.1	955.819	-29777.4	0.000000	0.000000	6.254849	0.037968	NaN	0.000000	0.001557	0.001722	28.099	0.064817	0.001991	32.5486	35.576	-167.071	0.004672	0.253238	-1.455329	-1.456624	0.037968	32.5486	-1.456204	-2.902919E+19	-1.307915E-21	NaN
105	1.000000	0.266504	7.36606e+06	-43889.1	955.818	-29777.4	0.000000	0.000000	6.266819	0.000943	NaN	0.000000	0.001546	0.001688	28.0961	0.049780	0.002064	24.1159	30.3203	-163.997	0.012486	0.265248	-1.443358	-1.444614	0.000943	24.1159	-1.443387	-1.958863E+19	-4.811548E-23	NaN
105	1.000000	0.278509	7.36606e+06	-43889.1	955.818	-29777.4	0.000000	0.000000	6.278823	-0.019798	NaN	0.000000	0.001547	0.001668	28.0978	0.088179	0.001999	44.1206	-2.363770	-166.104	-0.057859	0.277183	-1.431353	-1.432679	-0.019798	44.1206	-1.431016	-1.339944E+19	1.477550E-21	NaN
105	1.000000	0.290522	7.36606e+06	-43889.1	955.818	-29777.4	0.000000	0.000000	6.290836	-0.017403	NaN	0.000000	0.001617	0.001680	28.0953	0.009493	0.001833	5.178133	-83.3844	-165.559	-0.002629	0.289236	-1.419340	-1.420626	-0.017403	5.178133	-1.416819	-8.665312E+18	2.008393E-21	NaN
105	1.000000	0.302538	7.36606e+06	-43889.1	955.819	-29777.4	0.000000	0.000000	6.302849	-0.091691	NaN	0.000000	0.001564	0.001695	28.0982	0.057013	0.002070	27.5457	-117.352	-168.436	-0.163083	0.301231	-1.407323	-1.408631	-0.091691	27.5457	-1.404827	-5.995846E+18	1.529236E-20	NaN
105	1.000000	0.314536	7.36606e+06	-43889.1	955.818	-29777.4	0.000000	0.000000	6.314851	0.002574	NaN	0.000000	0.001605	0.001716	28.0955	0.082096	0.002094	39.2117	-158.898	-165.842	-0.071175	0.313205	-1.395326	-1.396657	0.002574	39.2117	-1.395375	-4.485117E+18	-5.739768E-22	NaN
105	1.000000	0.326551	7.36606e+06	-43889.1	955.819	-29777.4	0.000000	0.000000	6.326864	-0.042224	NaN	0.000000	0.001607	0.001677	28.0975	0.106531	0.001969	54.0927	-53.6887	-165.523	-0.085644	0.325226	-1.383311	-1.384635	-0.042224	54.0927	-1.382725	-3.040917E+18	1.388532E-20	NaN
105	1.000000	0.338566	7.36606e+06	-43889.1	955.818	-29777.4	0.000000	0.000000	6.338878	-0.049371	NaN	0.000000	0.001589	0.001684	28.0941	0.123649	0.002007	61.615	117.029	-168.531	-0.060119	0.337279	-1.371296	-1.372583	-0.049371	61.615	-1.370695	-2.101218E+18	2.349640E-20	NaN
105	1.000000	0.350567	7.36607e+06	-43889.1	955.819	-29777.4	0.000000	0.000000	6.350880	-0.035263	NaN	0.000000	0.001567	0.001659	28.0952	0.057087	0.001919	29.7532	135.765	-164.043	-0.032605	0.349272	-1.359295	-1.360590	-0.035263	29.7532	-1.358406	-1.440281E+18	2.448351E-20	NaN
105	1.000000	0.362565	7.36607e+06	-43889.1	955.818	-29777.4	0.000000	0.000000	6.362879	-0.021247	NaN	0.000000	0.001528	0.001658	28.0933	0.045973	0.002050	22.4261	175.705	-170.111	-0.067749	0.361266	-1.347297	-1.348596	-0.021247	22.4261	-1.346586	-1.001499E+18	2.121555E-20	NaN
105	1.000000	0.374561	7.36607e+06	-43889.1	955.818	-29777.4	0.000000	0.000000	6.374875	-0.012605	NaN	0.000000	0.001512	0.001639	28.0962	0.057851	0.002073	27.9017	176.831	-165.919	-0.053486	0.373291	-1.335301	-1.336571	-0.012605	27.9017	-1.334962	-7.005490E+17	1.799336E-20	NaN
105	1.000000	0.386529	7.36607e+06	-43889.1	955.819	-29777.4	0.000000	0.000000	6.386841	-0.045629	NaN	0.000000	0.001535	0.001660	28.095	0.056046	0.002060	27.2112	-11.1811	-169.482	-0.151593	0.385233	-1.323333	-1.324629	-0.045629	27.2112	-1.322075	-4.713330E+17	9.680737E-20	NaN
105	1.000000	0.398583	7.36607e+06	-43889.1	955.818	-29777.4	0.000000	0.000000	6.398895	-0.070048	NaN	0.000000	0.001540	0.001678	28.097	0.040207	0.001942	20.6986	57.041	-164.346	-0.059288	0.397269	-1.311278	-1.312593	-0.070048	20.6986	-1.308740	-3.127401E+17	2.239809E-19	NaN
105	1.000000	0.410593	7.36607e+06	-43889.1	955.818	-29777.4	0.000000	0.000000	6.410906	-0.040214	NaN	0.000000	0.001541	0.001691	28.0943	0.063197	0.001863	33.9246	111.419	-164.086	-0.025593	0.409348	-1.299269	-1.300514	-0.040214	33.9246	-1.298380	-2.273747E+17	1.768624E-19	NaN
105	1.000000	0.422588	7.36607e+06	-43889.1	955.818	-29777.4	0.000000	0.000000	6.422902	-0.011055	NaN	0.000000	0.001502	0.001668	28.0956	0.073988	0.001907	38.7968	59.1511	-166.418	-0.057894	0.421255	-1.287274	-1.288607	-0.011055	38.7968	-1.287061	-1.604965E+17	6.888121E-20	NaN
105	1.000000	0.434569	7.36607e+06	-43889.1	955.819	-29777.4	0.000000	0.000000	6.434883	0.001945	NaN	0.000000	0.001498	0.001710	28.0925	0.074548	0.001935	38.5331	127.332	-168.28	0.022436	0.433311	-1.275293	-1.276551	0.001945	38.5331	-1.275331	-1.118578E+17	-1.738449E-20	NaN
105	1.000000	0.446607	7.36607e+06	-43889.1	955.818	-29777.4	0.000000	0.000000	6.446918	-0.075198	NaN	0.000000	0.001549	0.001689	28.0975	0.037376	0.002107	17.7417	93.8545	-166.442	-0.043136	0.445344	-1.263255	-1.264518	-0.075198	17.7417	-1.260076	-6.993414E+16	1.075266E-18	NaN
105	1.000000	0.458618	7.36607e+06	-43889.1	955.818	-29777.4	0.000000	0.000000	6.458931	-0.037301	NaN	0.000000	0.001533	0.001700	28.0953	0.126911	0.002028	62.5827	167.371	-165.978	-0.009869	0.457284	-1.251244	-1.252578	-0.037301	62.5827	-1.250797	-5.255136E+16	7.097966E-19	NaN
105	1.000000	0.470629	7.36607e+06	-43889.1	955.818	-29777.4	0.000000	0.000000	6.470943	-0.007952	NaN	0.000000	0.001479	0.001727	28.0987	0.116200	0.001985	58.5429	114.323	-165.996	0.021543	0.469304	-1.239233	-1.240558	-0.007952	58.5429	-1.239131	-3.668781E+16	2.167489E-19	NaN
105	1.000000	0.482608	7.36607e+06	-43889.1	955.819	-29777.4	0.000000	0.000000	6.482922	-0.012583	NaN	0.000000	0.001513	0.001698	28.0947	0.104255	0.001834	56.8343	-26.163	-164.87	0.031731	0.481281	-1.227254	-1.228581	-0.012583	56.8343	-1.227088	-2.531440E+16	4.970605E-19	NaN
105	1.000000	0.494644	7.36607e+06	-43889.1	955.819	-29777.4	0.000000	0.000000	6.494960	0.028600	NaN	0.000000	0.001499	0.001764	28.0992	0.121660	0.002065	58.92	-171.575	-162.637	0.092740	0.493391	-1.215218	-1.216471	0.028600	58.92	-1.215582	-1.775684E+16	-1.610622E-18	NaN
105	1.000000	0.506631	7.36607e+06	-43889.1	955.818	-29777.4	0.000000	0.000000	6.506944	-0.039674	NaN	0.000000	0.001551	0.001764	28.0936	0.055000	0.001987	27.6841	2.781648	-164.144	-0.005621	0.505327	-1.203231	-1.204535	-0.039674	27.6841	-1.202156	-1.173872E+16	3.379726E-18	NaN
105	1.000000	0.518616	7.36607e+06	-43889.1	955.818	-29777.4	0.000000	0.000000	6.518932	0.045485	NaN	0.000000	0.001572	0.001702	28.0972	0.029969	0.002010	14.9093	131.369	-163.748	0.047418	0.517340	-1.191246	-1.192522	0.045485	14.9093	-1.193534	-8.998306E+15	-5.054835E-18	NaN
105	1.000000	0.530654	7.36607e+06	-43889.1	955.818	-29777.4	0.000000	0.000000	6.530967	-0.048104	NaN	0.000000	0.001537	0.001701	28.0939	0.029563	0.001933	15.2941	24.0519	-167.457	-0.086200	0.529318	-1.179208	-1.180544	-0.048104	15.2941	-1.176849	-5.378402E+15	8.943958E-18	NaN
105	1.000000	0.542636	7.36607e+06	-43889.1	955.818	-29777.4	0.000000	0.000000	6.542950	-0.005361	NaN	0.000000	0.001517	0.001696	28.0986	0.105109	0.002019	52.0621	128.57	-169.188	0.012449	0.541302	-1.167226	-1.168560	-0.005361	52.0621	-1.167149	-3.987320E+15	1.344604E-18	NaN
105	1.000000	0.554669	7.36607e+06	-43889.1	955.819	-29777.4	0.000000	0.000000	6.554982	-0.043880	NaN	0.000000	0.001484	0.001738	28.0955	0.066615	0.002107	31.6105	-33.5721	-165.625	-0.026200	0.553295	-1.155192	-1.156567	-0.043880	31.6105	-1.154151	-2.669758E+15	1.643603E-17	NaN
105	1.000000	0.566653	7.36607e+06	-43889.1	955.819	-29777.4	0.000000	0.000000	6.566966	-0.030567	NaN	0.000000	0.001518	0.001693	28.0986	0.026478	0.002045	12.9506	-172.272	-167.053	0.064928	0.565296	-1.143209	-1.144566	-0.030567	12.9506	-1.141439	-1.803152E+15	1.695172E-17	NaN
105	1.000000	0.578663	7.36607e+06	-43889.1	955.818	-29777.4	0.000000	0.000000	6.578980	0.044672	NaN	0.000000	0.001561	0.001675	28.0947	0.116082	0.001909	60.8022	81.1635	-167.299	-0.012973	0.577325	-1.131198	-1.132537	0.044672	60.8022	-1.131750	-1.336867E+15	-3.341517E-17	NaN
105	1.000000	0.590661	7.36607e+06	-43889.1	955.818	-29777.4	0.000000	0.000000	6.590975	-0.034970	NaN	0.000000	0.001514	0.001690	28.0979	0.068179	0.001903	35.8202	-76.411	-166.805	-0.114926	0.589309	-1.119200	-1.120552	-0.034970	35.8202	-1.118468	-8.869952E+14	3.942508E-17	NaN
105	1.000000	0.602670	7.36607e+06	-43889.1	955.818	-29777.4	0.000000	0.000000	6.602984	-0.006458	NaN	0.000000	0.001548	0.001668	28.0923	0.050414	0.002029	24.8426	85.6284	-163.731	-0.077808	0.601367	-1.107192	-1.108495	-0.006458	24.8426	-1.106997	-6.222765E+14	1.037793E-17	NaN
105	1.000000	0.614662	7.36607e+06	-43889.1	955.819	-29777.4	0.000000	0.000000	6.614979	0.047185	NaN	0.000000	0.001584	0.001695	28.0976	0.066516	0.002048	32.4856	-90.2382	-167.426	-0.017687	0.613398	-1.095200	-1.096464	0.047185	32.4856	-1.096289	-4.469408E+14	-1.055732E-16	NaN
105	1.000000	0.626662	7.36607e+06	-43889.1	955.818	-29777.4	0.000000	0.000000	6.626975	-0.039173	NaN	0.000000	0.001627	0.001679	28.0944	0.011293	0.001888	5.980309	-150.382	-166.035	0.013193	0.625366	-1.083200	-1.084496	-0.039173	5.980309	-1.078287	-2.561630E+14	1.529229E-16	NaN
105	1.000000	0.638683	7.36607e+06	-43889.1	955.818	-29777.4	0.000000	0.000000	6.638995	-0.077293	NaN	0.000000	0.001654	0.001699	28.0983	0.093387	0.002042	45.7436	-177.216	-165.404	-0.007833	0.637387	-1.071179	-1.072475	-0.077293	45.7436	-1.069911	-1.976970E+14	3.909655E-16	NaN
105	1.000000	0.650669	7.36607e+06	-43889.1	955.818	-29777.4	0.000000	0.000000	6.650985	0.022433	NaN	0.000000	0.001637	0.001667	28.093	0.091621	0.001959	46.7786	14.7647	-164.487	-0.006480	0.649345	-1.059192	-1.060517	0.022433	46.7786	-1.059552	-1.434836E+14	-1.563468E-16	NaN
105	1.000000	0.662703	7.36607e+06	-43889.1	955.818	-29777.4	0.000000	0.000000	6.663020	0.051893	NaN	0.000000	0.001640	0.001737	28.0972	0.043173	0.002094	20.6187	-47.2214	-169.488	0.017668	0.661406	-1.047159	-1.048456	0.051893	20.6187	-1.049046	-1.036563E+14	-5.006285E-16	NaN
105	1.000000	0.674681	7.36607e+06	-43889.1	955.817	-29777.4	0.000000	0.000000	6.674994	-0.028475	NaN	0.000000	0.001637	0.001705	28.0917	0.058989	0.001990	29.6449	-172.405	-163.786	-0.080758	0.673359	-1.035181	-1.036503	-0.028475	29.6449	-1.034460	-6.598925E+13	4.315128E-16	NaN
105	1.000000	0.686719	7.36607e+06	-43889.1	955.818	-29777.4	0.000000	0.000000	6.687033	-0.024983	NaN	0.000000	0.001678	0.001719	28.0975	0.037620	0.002005	18.7664	67.9989	-165.828	-0.036258	0.685429	-1.023143	-1.024432	-0.024983	18.7664	-1.022144	-4.506105E+13	5.544255E-16	NaN
105	1.000000	0.698722	7.36607e+06	-43889.1	955.818	-29777.4	0.000000	0.000000	6.699039	0.045472	NaN	0.000000	0.001660	0.001756	28.0927	0.099310	0.001863	53.2937	-11.4673	-169.61	-0.020735	0.697407	-1.011140	-1.012454	0.045472	53.2937	-1.011780	-3.268400E+13	-1.391276E-15	NaN
105	1.000000	0.710716	7.36607e+06	-43889.1	955.818	-29777.4	0.000000	0.000000	6.711032	0.029196	NaN	0.000000	0.001658	0.001729	28.0986	0.128554	0.002024	63.526	52.5622	-165.894	-0.035735	0.709374	-0.999146	-1.000488	0.029196	63.526	-0.999491	-2.233111E+13	-1.307425E-15	NaN
105	1.000000	0.722725	7.36607e+06	-43889.1	955.819	-29777.4	0.000000	0.000000	6.723040	0.012986	NaN	0.000000	0.001645	0.001750	28.0948	0.132119	0.002041	64.7424	-33.2618	-168.776	0.014650	0.721442	-0.987137	-0.988420	0.012986	64.7424	-0.987287	-1.529601E+13	-8.489607E-16	NaN
105	1.000000	0.734710	7.36607e+06	-43889.1	955.818	-29777.4	0.000000	0.000000	6.735025	-0.000941	NaN	0.000000	0.001649	0.001687	28.1002	0.080220	0.001995	40.2093	-136.711	-166.796	0.001418	0.733439	-0.975152	-0.976423	-0.000941	40.2093	-0.975134	-1.049187E+13	8.970918E-17	NaN
105	1.000000	0.746753	7.36607e+06	-43889.1	955.818	-29777.4	0.000000	0.000000	6.747070	0.056508	NaN	0.000000	0.001621	0.001724	28.094	0.107302	0.001954	54.9179	-166.199	-171.012	0.024992	0.745382	-0.963109	-0.964479	0.056508	54.9179	-0.963881	-7.399178E+12	-7.637052E-15	NaN
105	1.000000	0.758709	7.36607e+06	-43889.1	955.818	-29777.4	0.000000	0.000000	6.759026	0.042163	NaN	0.000000	0.001647	0.001724	28.1	0.014602	0.002043	7.147018	-97.1909	-168.949	-0.017419	0.757454	-0.951152	-0.952407	0.042163	7.147018	-0.955577	-5.717861E+12	-7.373868E-15	NaN
105	1.000000	0.770739	7.36607e+06	-43889.1	955.818	-29777.4	0.000000	0.000000	6.771051	-0.049192	NaN	0.000000	0.001640	0.001710	28.0929	0.045045	0.001964	22.9301	98.1979	-171.661	-0.011530	0.769432	-0.939123	-0.940429	-0.049192	22.9301	-0.937514	-3.262854E+12	1.507640E-14	NaN
105	1.000000	0.782732	7.36607e+06	-43889.1	955.818	-29777.4	0.000000	0.000000	6.783047	0.015613	NaN	0.000000	0.001655	0.001732	28.1006	0.067062	0.002030	33.0422	-19.1216	-165.26	0.003386	0.781420	-0.927130	-0.928441	0.015613	33.0422	-0.927484	-2.389131E+12	-6.534859E-15	NaN
105	1.000000	0.794764	7.36607e+06	-43889.1	955.819	-29777.4	0.000000	0.000000	6.795079	0.004551	NaN	0.000000	0.001680	0.001733	28.0942	0.094753	0.002004	47.2711	-167.706	-164.882	-0.012033	0.793438	-0.915098	-0.916424	0.004551	47.2711	-0.915170	-1.629234E+12	-2.793294E-15	NaN
105	1.000000	0.806773	7.36607e+06	-43889.1	955.818	-29777.4	0.000000	0.000000	6.807090	0.035351	NaN	0.000000	0.001617	0.001701	28.1003	0.097705	0.001971	49.5631	-75.4932	-165.505	0.022837	0.805389	-0.903088	-0.904473	0.035351	49.5631	-0.903623	-1.137686E+12	-3.107235E-14	NaN
105	1.000000	0.818791	7.36607e+06	-43889.1	955.818	-29777.4	0.000000	0.000000	6.819105	-0.004908	NaN	0.000000	0.001655	0.001724	28.093	0.077168	0.001937	39.8364	-150.173	-168.519	0.030862	0.817410	-0.891071	-0.892452	-0.004908	39.8364	-0.890979	-7.676175E+11	6.393663E-15	NaN
105	1.000000	0.830764	7.36607e+06	-43889.1	955.819	-29777.4	0.000000	0.000000	6.831079	0.011360	NaN	0.000000	0.001630	0.001746	28.0998	0.019491	0.001994	9.776389	77.1308	-164.808	-0.001316	0.829468	-0.879098	-0.880394	0.011360	9.776389	-0.879970	-5.448749E+11	-2.084952E-14	NaN
105	1.000000	0.842774	7.36607e+06	-43889.1	955.819	-29777.4	0.000000	0.000000	6.843088	-0.009106	NaN	0.000000	0.001603	0.001768	28.0918	0.177154	0.001997	88.7141	-23.6281	-166.547	0.003906	0.841496	-0.867088	-0.868366	-0.009106	88.7141	-0.867011	-3.639182E+11	2.502218E-14	NaN
105	1.000000	0.854754	7.36607e+06	-43889.1	955.818	-29777.4	0.000000	0.000000	6.855068	-0.027220	NaN	0.000000	0.001636	0.001743	28.0996	0.061576	0.001990	30.9441	120.741	-164.956	-0.011317	0.853468	-0.855107	-0.856394	-0.027220	30.9441	-0.854448	-2.460135E+11	1.106424E-13	NaN
105	1.000000	0.866802	7.36607e+06	-43889.1	955.818	-29777.4	0.000000	0.000000	6.867117	-0.011551	NaN	0.000000	0.001606	0.001765	28.0919	0.115683	0.002018	57.3119	-31.8463	-166.772	0.052914	0.865452	-0.843059	-0.844410	-0.011551	57.3119	-0.842908	-1.716686E+11	6.728454E-14	NaN
105	1.000000	0.878770	7.36607e+06	-43889.1	955.818	-29777.4	0.000000	0.000000	6.879089	0.123927	NaN	0.000000	0.001672	0.001721	28.0997	0.110061	0.001873	58.7675	88.9738	-165.968	0.028427	0.877433	-0.831092	-0.832429	0.123927	58.7675	-0.832674	-1.247445E+11	-9.934433E-13	NaN
105	1.000000	0.890796	7.36607e+06	-43889.1	955.818	-29777.4	0.000000	0.000000	6.891109	-0.042520	NaN	0.000000	0.001659	0.001772	28.0924	0.063730	0.002005	31.7793	-80.4792	-166.523	-0.031914	0.889477	-0.819066	-0.820385	-0.042520	31.7793	-0.818063	-7.905658E+10	5.378395E-13	NaN
105	1.000000	0.902746	7.36607e+06	-43889.1	955.818	-29777.4	0.000000	0.000000	6.903059	-0.047161	NaN	0.000000	0.001669	0.001738	28.0991	0.021352	0.002039	10.4694	-166.313	-168.562	-0.064680	0.901511	-0.807116	-0.808350	-0.047161	10.4694	-0.803737	-5.053475E+10	9.332298E-13	NaN
105	1.000000	0.914797	7.36607e+06	-43889.1	955.819	-29777.4	0.000000	0.000000	6.915110	-0.046561	NaN	0.000000	0.001661	0.001723	28.0916	0.079885	0.002093	38.1739	-65.0508	-164.712	0.018626	0.913487	-0.795065	-0.796375	-0.046561	38.1739	-0.794150	-3.744919E+10	1.243316E-12	NaN
105	1.000000	0.926799	7.36607e+06	-43889.1	955.819	-29777.4	0.000000	0.000000	6.927112	-0.032796	NaN	0.000000	0.001679	0.001731	28.0999	0.132381	0.001899	69.6946	43.5538	-167.784	-0.008334	0.925517	-0.783063	-0.784345	-0.032796	69.6946	-0.782710	-2.618507E+10	1.252481E-12	NaN
105	1.000000	0.938799	7.36607e+06	-43889.1	955.818	-29777.4	0.000000	0.000000	6.939116	0.075699	NaN	0.000000	0.001672	0.001745	28.0919	0.115855	0.001948	59.4647	-172.408	-163.975	0.075489	0.937507	-0.771063	-0.772355	0.075699	59.4647	-0.772018	-1.873874E+10	-4.039681E-12	NaN
105	1.000000	0.950827	7.36607e+06	-43889.1	955.818	-29777.4	0.000000	0.000000	6.951142	0.006174	NaN	0.000000	0.001693	0.001706	28.0996	0.017651	0.002014	8.763761	79.8376	-169.822	0.014611	0.949476	-0.759035	-0.760386	0.006174	8.763761	-0.759563	-1.268713E+10	-4.866686E-13	NaN
105	1.000000	0.962815	7.36607e+06	-43889.1	955.818	-29777.4	0.000000	0.000000	6.963132	0.040712	NaN	0.000000	0.001691	0.001711	28.0913	0.082289	0.001923	42.789	-84.9657	-168.766	0.066655	0.961488	-0.747046	-0.748374	0.040712	42.789	-0.747760	-8.764497E+9	-4.645127E-12	NaN
105	1.000000	0.974806	7.36607e+06	-43889.1	955.818	-29777.4	0.000000	0.000000	6.975117	-0.090460	NaN	0.000000	0.001711	0.001703	28.1004	0.081743	0.001900	43.0291	1.078700	-163.701	-0.078339	0.973562	-0.735056	-0.736299	-0.090460	43.0291	-0.733479	-5.600472E+9	1.615223E-11	NaN
105	1.000000	0.986834	7.36607e+06	-43889.1	955.818	-29777.4	0.000000	0.000000	6.987147	-0.053577	NaN	0.000000	0.001673	0.001732	28.0904	0.115528	0.002044	56.5327	-83.6311	-166.595	-0.007846	0.985487	-0.723028	-0.724375	-0.053577	56.5327	-0.722317	-3.945188E+9	1.358046E-11	NaN
105	1.000000	0.998849	7.36607e+06	-43889.1	955.819	-29777.4	0.000000	0.000000	6.999165	0.021068	NaN	0.000000	0.001702	0.001685	28.1006	0.029050	0.001937	14.9978	170.439	-166.55	-0.003129	0.997501	-0.711012	-0.712361	0.021068	14.9978	-0.712066	-2.859182E+9	-7.368453E-12	NaN
105	1.000000	1.010835	7.36607e+06	-43889.1	955.819	-29777.4	0.000000	0.000000	7.011152	0.064343	NaN	0.000000	0.001680	0.001663	28.0917	0.056990	0.001992	28.6064	-123.955	-165.961	0.069767	1.009543	-0.699027	-0.700318	0.064343	28.6064	-0.700714	-2.001161E+9	-3.215307E-11	NaN
105	1.000000	1.022850	7.36607e+06	-43889.1	955.818	-29777.4	0.000000	0.000000	7.023163	-0.038899	NaN	0.000000	0.001680	0.001679	28.1017	0.171937	0.001877	91.6067	-175.334	-163.903	-0.030333	1.021519	-0.687011	-0.688343	-0.038899	91.6067	-0.686693	-1.287413E+9	3.021470E-11	NaN
105	1.000000	1.034860	7.36607e+06	-43889.1	955.818	-29777.4	0.000000	0.000000	7.035174	-0.020330	NaN	0.000000	0.001687	0.001696	28.0928	0.071292	0.002014	35.394	171.229	-165.239	-0.071693	1.033495	-0.675002	-0.676367	-0.020330	35.394	-0.674571	-8.789065E+8	2.313061E-11	NaN
105	1.000000	1.046842	7.36607e+06	-43889.1	955.818	-29777.4	0.000000	0.000000	7.047157	-0.001969	NaN	0.000000	0.001700	0.001692	28.1026	0.152296	0.001948	78.1819	175.057	-167.343	0.015405	1.045559	-0.663020	-0.664302	-0.001969	78.1819	-0.663001	-6.103316E+8	3.226593E-12	NaN
105	1.000000	1.058870	7.36607e+06	-43889.1	955.818	-29777.4	0.000000	0.000000	7.059184	-0.027988	NaN	0.000000	0.001700	0.001704	28.0917	0.061391	0.001968	31.189	-49.0883	-164.459	-0.030890	1.057545	-0.650991	-0.652316	-0.027988	31.189	-0.650318	-4.090744E+8	6.841673E-11	NaN
105	1.000000	1.070868	7.36607e+06	-43889.1	955.818	-29777.4	0.000000	0.000000	7.071179	-0.087994	NaN	0.000000	0.001623	0.001679	28.1007	0.057999	0.001988	29.1783	-16.4887	-163.921	0.038618	1.069546	-0.638994	-0.640315	-0.087994	29.1783	-0.636732	-2.663441E+8	3.303758E-10	NaN
105	1.000000	1.082886	7.36607e+06	-43889.1	955.818	-29777.4	0.000000	0.000000	7.083200	-0.007343	NaN	0.000000	0.001586	0.001708	28.091	0.027614	0.001959	14.0928	-166.817	-165.14	0.044537	1.081536	-0.626976	-0.628326	-0.007343	14.0928	-0.626585	-1.932523E+8	3.799711E-11	NaN
105	1.000000	1.094849	7.36607e+06	-43889.1	955.818	-29777.4	0.000000	0.000000	7.095165	0.035886	NaN	0.000000	0.001558	0.001743	28.1012	0.065813	0.002069	31.8026	176.901	-165.914	0.070548	1.093554	-0.615013	-0.616308	0.035886	31.8026	-0.615859	-1.376271E+8	-2.607457E-10	NaN
105	1.000000	1.106880	7.36607e+06	-43889.1	955.817	-29777.4	0.000000	0.000000	7.107194	-0.017931	NaN	0.000000	0.001555	0.001769	28.093	0.025028	0.002073	12.0726	-100.042	-165.296	0.037668	1.105580	-0.602982	-0.604282	-0.017931	12.0726	-0.601868	-8.834529E+7	2.029670E-10	NaN
105	1.000000	1.118875	7.36607e+06	-43889.1	955.818	-29777.4	0.000000	0.000000	7.119190	-0.014801	NaN	0.000000	0.001667	0.001718	28.1017	0.076035	0.002211	34.3966	-173.605	-167.233	0.029959	1.117555	-0.590986	-0.592307	-0.014801	34.3966	-0.590664	-6.191770E+7	2.390367E-10	NaN
105	1.000000	1.130897	7.36607e+06	-43889.1	955.818	-29777.4	0.000000	0.000000	7.131210	-0.037552	NaN	0.000000	0.001618	0.001730	28.0909	0.115524	0.001920	60.1712	157.779	-164.026	-0.027095	1.129590	-0.578965	-0.580272	-0.037552	60.1712	-0.578497	-4.207050E+7	8.925953E-10	NaN
105	1.000000	1.142909	7.36607e+06	-43889.1	955.818	-29777.4	0.000000	0.000000	7.143224	0.008749	NaN	0.000000	0.001653	0.001707	28.1	0.092062	0.002065	44.5774	132.45	-166.216	-0.021898	1.141588	-0.566953	-0.568274	0.008749	44.5774	-0.567100	-2.927913E+7	-2.987982E-10	NaN
105	1.000000	1.154896	7.36607e+06	-43889.1	955.819	-29777.4	0.000000	0.000000	7.155208	-0.057057	NaN	0.000000	0.001675	0.001719	28.089	0.033036	0.002082	15.8642	145.114	-163.287	-0.087112	1.153584	-0.554966	-0.556278	-0.057057	15.8642	-0.552268	-1.825453E+7	3.125653E-9	NaN
105	1.000000	1.166896	7.36607e+06	-43889.1	955.818	-29777.4	0.000000	0.000000	7.167209	-0.042061	NaN	0.000000	0.001649	0.001741	28.0997	0.193569	0.002068	93.5935	-149.09	-167.502	-0.002722	1.165626	-0.542966	-0.544235	-0.042061	93.5935	-0.542629	-1.342168E+7	3.133774E-9	NaN
105	1.000000	1.178900	7.36607e+06	-43889.1	955.818	-29777.4	0.000000	0.000000	7.179212	-0.064649	NaN	0.000000	0.001687	0.001712	28.0906	0.024711	0.002033	12.1561	175.321	-164.55	-0.082271	1.177598	-0.530962	-0.532264	-0.064649	12.1561	-0.526973	-8.13816e+06	7.943986E-9	NaN
105	1.000000	1.190897	7.36607e+06	-43889.1	955.818	-29777.4	0.000000	0.000000	7.191209	-0.070488	NaN	0.000000	0.001684	0.001730	28.1009	0.094475	0.001916	49.3156	-22.8207	-164.134	-0.076296	1.189593	-0.518965	-0.520269	-0.070488	49.3156	-0.517893	-6.08541e+06	1.158312E-8	NaN
105	1.000000	1.202901	7.36607e+06	-43889.1	955.818	-29777.4	0.000000	0.000000	7.203213	-0.047161	NaN	0.000000	0.001684	0.001712	28.0907	0.083945	0.001932	43.4507	62.6666	-165.409	-0.039532	1.201661	-0.506961	-0.508201	-0.047161	43.4507	-0.506147	-4.17572e+06	1.129405E-8	NaN
105	1.000000	1.214937	7.36607e+06	-43889.1	955.818	-29777.4	0.000000	0.000000	7.215252	0.014661	NaN	0.000000	0.001647	0.001702	28.1008	0.046604	0.001961	23.7659	-153.957	-167.411	0.054525	1.213584	-0.494925	-0.496278	0.014661	23.7659	-0.495388	-2.95561e+06	-4.960403E-9	NaN
105	1.000000	1.226899	7.36607e+06	-43889.1	955.818	-29777.4	0.000000	0.000000	7.227215	0.041423	NaN	0.000000	0.001696	0.001690	28.0896	0.090933	0.001977	46.0006	105.228	-165.04	-0.013714	1.225591	-0.482963	-0.484271	0.041423	46.0006	-0.483638	-2.0251e+06	-2.045487E-8	NaN
105	1.000000	1.238905	7.36607e+06	-43889.1	955.819	-29777.4	0.000000	0.000000	7.239219	-0.011591	NaN	0.000000	0.001674	0.001643	28.0991	0.112090	0.001958	57.2424	-165.654	-162.229	0.004143	1.237636	-0.470957	-0.472226	-0.011591	57.2424	-0.470805	-1.33875e+06	8.658064E-9	NaN
105	1.000000	1.250951	7.36607e+06	-43889.1	955.819	-29777.4	0.000000	0.000000	7.251265	-0.017145	NaN	0.000000	0.001639	0.001675	28.0897	0.020671	0.001995	10.3608	-145.234	-167.133	-0.010364	1.249604	-0.458911	-0.460258	-0.017145	10.3608	-0.457670	-875522	1.958224E-8	NaN
105	1.000000	1.262950	7.36607e+06	-43889.1	955.819	-29777.4	0.000000	0.000000	7.263264	-0.006479	NaN	0.000000	0.001640	0.001648	28.1013	0.042632	0.002003	21.2824	-107.176	-169.655	-0.017006	1.261645	-0.446912	-0.448217	-0.006479	21.2824	-0.446684	-613234	1.056522E-8	NaN
105	1.000000	1.274970	7.36607e+06	-43889.1	955.819	-29777.4	0.000000	0.000000	7.275283	-0.027429	NaN	0.000000	0.001662	0.001696	28.0917	0.023341	0.001957	11.9298	-112.617	-166.351	-0.072044	1.273621	-0.434892	-0.436241	-0.027429	11.9298	-0.433168	-395236	6.939778E-8	NaN
105	1.000000	1.286948	7.36607e+06	-43889.1	955.82	-29777.4	0.000000	0.000000	7.287260	-0.065326	NaN	0.000000	0.001593	0.001675	28.1027	0.082810	0.001980	41.8331	-5.588192	-165.765	-0.016918	1.285670	-0.422913	-0.424192	-0.065326	41.8331	-0.421742	-272344	2.398651E-7	NaN
105	1.000000	1.298946	7.36607e+06	-43889.1	955.818	-29777.4	0.000000	0.000000	7.299258	-0.070600	NaN	0.000000	0.001628	0.001676	28.0902	0.073577	0.001903	38.6611	-100.615	-165.882	-0.027388	1.297663	-0.410916	-0.412199	-0.070600	38.6611	-0.409546	-182787	3.862422E-7	NaN
105	1.000000	1.310947	7.36607e+06	-43889.1	955.819	-29777.4	0.000000	0.000000	7.311262	0.003316	NaN	0.000000	0.001592	0.001686	28.1027	0.028958	0.002021	14.3279	95.3594	-165.431	0.082204	1.309693	-0.398914	-0.400169	0.003316	14.3279	-0.399088	-129714	-2.556375E-8	NaN
105	1.000000	1.322962	7.36607e+06	-43889.1	955.82	-29777.4	0.000000	0.000000	7.323277	-0.002876	NaN	0.000000	0.001597	0.001661	28.0903	0.063070	0.001964	32.121	-128.572	-169.73	0.019260	1.321687	-0.386900	-0.388174	-0.002876	32.121	-0.386833	-86663.1	3.318882E-8	NaN
105	1.000000	1.334977	7.36607e+06	-43889.1	955.819	-29777.4	0.000000	0.000000	7.335289	-0.054989	NaN	0.000000	0.001590	0.001701	28.102	0.060983	0.002024	30.135	-115.593	-169.132	-0.082989	1.333679	-0.374885	-0.376183	-0.054989	30.135	-0.373516	-55813	9.852382E-7	NaN
105	1.000000	1.346959	7.36607e+06	-43889.1	955.819	-29777.4	0.000000	0.000000	7.347273	-0.020089	NaN	0.000000	0.001554	0.001710	28.0919	0.075550	0.002049	36.8791	-152.364	-166.513	-0.045267	1.345679	-0.362903	-0.364183	-0.020089	36.8791	-0.362494	-38715.5	5.188913E-7	NaN
105	1.000000	1.359008	7.36607e+06	-43889.1	955.82	-29777.4	0.000000	0.000000	7.359322	-0.012524	NaN	0.000000	0.001594	0.001719	28.1037	0.019324	0.001943	9.946529	-49.819	-168.082	0.021093	1.357673	-0.350854	-0.352189	-0.012524	9.946529	-0.349909	-25450	4.921203E-7	NaN
105	1.000000	1.370990	7.36607e+06	-43889.1	955.819	-29777.4	0.000000	0.000000	7.371306	0.015141	NaN	0.000000	0.001550	0.001703	28.0917	0.091753	0.001959	46.8312	-156.074	-167.919	0.021989	1.369651	-0.338871	-0.340211	0.015141	46.8312	-0.339114	-17726.9	-8.541499E-7	NaN
105	1.000000	1.382982	7.36607e+06	-43889.1	955.82	-29777.4	0.000000	0.000000	7.383294	-0.062137	NaN	0.000000	0.001594	0.001671	28.1032	0.096677	0.002025	47.7532	-81.3265	-166.474	-0.008041	1.381715	-0.326879	-0.328147	-0.062137	47.7532	-0.325904	-11360.5	5.469565E-6	NaN
105	1.000000	1.394990	7.36607e+06	-43889.1	955.819	-29777.4	0.000000	0.000000	7.395305	-0.007444	NaN	0.000000	0.001587	0.001702	28.0903	0.061968	0.001827	33.9183	107.822	-169.282	-0.018502	1.393680	-0.314871	-0.316182	-0.007444	33.9183	-0.314707	-7773.56	9.575890E-7	NaN
105	1.000000	1.406986	7.36607e+06	-43889.1	955.82	-29777.4	0.000000	0.000000	7.407301	0.018226	NaN	0.000000	0.001575	0.001701	28.1014	0.054049	0.002073	26.0704	106.699	-164.827	0.075942	1.405685	-0.302876	-0.304177	0.018226	26.0704	-0.303400	-5286.92	-3.447378E-6	NaN
105	1.000000	1.418990	7.36607e+06	-43889.1	955.82	-29777.4	0.000000	0.000000	7.419302	-0.051959	NaN	0.000000	0.001567	0.001721	28.0898	0.038623	0.001983	19.4802	-35.1666	-166.134	-0.106743	1.417708	-0.290872	-0.292154	-0.051959	19.4802	-0.288871	-3209.14	1.619109E-5	NaN
105	1.000000	1.431010	7.36607e+06	-43889.1	955.82	-29777.4	0.000000	0.000000	7.431325	0.001498	NaN	0.000000	0.001647	0.001719	28.1022	0.023164	0.001901	12.1819	53.7554	-165.697	0.013907	1.429716	-0.278852	-0.280146	0.001498	12.1819	-0.278944	-2275.26	-6.583071E-7	NaN
105	1.000000	1.443035	7.36607e+06	-43889.1	955.82	-29777.4	0.000000	0.000000	7.443350	0.020484	NaN	0.000000	0.001699	0.001709	28.0905	0.033059	0.002024	16.3306	-30.0366	-171.567	0.107623	1.441739	-0.266827	-0.268123	0.020484	16.3306	-0.267768	-1540.21	-1.329928E-5	NaN
105	1.000000	1.455034	7.36607e+06	-43889.1	955.82	-29777.4	0.000000	0.000000	7.455350	0.030769	NaN	0.000000	0.001587	0.001713	28.1033	0.092091	0.001914	48.1211	-152.238	-167.632	0.044362	1.453652	-0.254828	-0.256210	0.030769	48.1211	-0.255307	-992.756	-3.099346E-5	NaN
105	1.000000	1.467024	7.36607e+06	-43889.1	955.82	-29777.4	0.000000	0.000000	7.467338	-0.015652	NaN	0.000000	0.001576	0.001762	28.0893	0.061564	0.002012	30.5992	-175.987	-168.611	-0.096482	1.465717	-0.242838	-0.244145	-0.015652	30.5992	-0.242454	-627.821	2.493081E-5	NaN
105	1.000000	1.479033	7.36607e+06	-43889.1	955.82	-29777.4	0.000000	0.000000	7.479349	0.037497	NaN	0.000000	0.001595	0.001732	28.1016	0.039990	0.001966	20.3433	166.785	-163.707	0.040231	1.477720	-0.230829	-0.232142	0.037497	20.3433	-0.232211	-433.901	-8.641829E-5	NaN
105	1.000000	1.491017	7.36607e+06	-43889.1	955.82	-29777.4	0.000000	0.000000	7.491331	-0.014227	NaN	0.000000	0.001588	0.001789	28.0893	0.067776	0.002026	33.4588	73.6538	-172.162	-0.030550	1.489711	-0.218845	-0.220150	-0.014227	33.4588	-0.218526	-263.089	5.407818E-5	NaN
105	1.000000	1.503058	7.36607e+06	-43889.1	955.82	-29777.4	0.000000	0.000000	7.503372	-0.003534	NaN	0.000000	0.001557	0.001745	28.1031	0.092503	0.001947	47.517	117.591	-167.375	0.023903	1.501769	-0.206804	-0.208093	-0.003534	47.517	-0.206748	-169.839	2.080847E-5	NaN
105	1.000000	1.515039	7.36607e+06	-43889.1	955.819	-29777.4	0.000000	0.000000	7.515355	0.026597	NaN	0.000000	0.001573	0.001746	28.0894	0.095579	0.002103	45.4501	113.26	-169.945	0.025400	1.513740	-0.194823	-0.196122	0.026597	45.4501	-0.195261	-110.035	-0.000242	NaN
105	1.000000	1.527080	7.36607e+06	-43889.1	955.82	-29777.4	0.000000	0.000000	7.527397	0.069090	NaN	0.000000	0.001600	0.001719	28.1032	0.044441	0.001954	22.7381	-116.229	-167.018	0.056726	1.525736	-0.182782	-0.184125	0.069090	22.7381	-0.185061	-74.3288	-0.000930	NaN
105	1.000000	1.539080	7.36607e+06	-43889.1	955.82	-29777.4	0.000000	0.000000	7.539394	-0.007314	NaN	0.000000	0.001584	0.001732	28.09	0.032102	0.001966	16.3323	11.8771	-167.278	0.039962	1.537737	-0.170782	-0.172125	-0.007314	16.3323	-0.170446	-41.8172	0.000175	NaN
105	1.000000	1.551066	7.36607e+06	-43889.1	955.819	-29777.4	0.000000	0.000000	7.551381	0.013509	NaN	0.000000	0.001644	0.001722	28.1035	0.039501	0.001941	20.349	-90.5309	-167.45	0.063366	1.549758	-0.158796	-0.160104	0.013509	20.349	-0.159294	-26.6333	-0.000507	NaN
105	1.000000	1.563100	7.36607e+06	-43889.1	955.82	-29777.4	0.000000	0.000000	7.563412	-0.064172	NaN	0.000000	0.001701	0.001709	28.0902	0.087095	0.002100	41.466	65.8916	-168.144	-0.032423	1.561784	-0.146761	-0.148077	-0.064172	41.466	-0.145601	-15.0408	0.004266	NaN
105	1.000000	1.575110	7.36607e+06	-43889.1	955.82	-29777.4	0.000000	0.000000	7.575428	0.063314	NaN	0.000000	0.001680	0.001727	28.1046	0.059847	0.002058	29.0809	-140.8	-164.587	-0.021395	1.573757	-0.134751	-0.136105	0.063314	29.0809	-0.136384	-10.1078	-0.006264	NaN
105	1.000000	1.587088	7.36607e+06	-43889.1	955.819	-29777.4	0.000000	0.000000	7.587401	-0.028629	NaN	0.000000	0.001664	0.001754	28.0905	0.101827	0.002099	48.5183	102.192	-163.98	0.005839	1.585762	-0.122774	-0.124100	-0.028629	48.5183	-0.122331	-5.381634	0.005320	NaN
105	1.000000	1.599079	7.36607e+06	-43889.1	955.819	-29777.4	0.000000	0.000000	7.599392	-0.038147	NaN	0.000000	0.001656	0.001664	28.1052	0.172571	0.002019	85.4638	-156.549	-167.829	-0.035326	1.597812	-0.110783	-0.112050	-0.038147	85.4638	-0.110448	-3.071244	0.012421	NaN
105	1.000000	1.611096	7.36607e+06	-43889.1	955.819	-29777.4	0.000000	0.000000	7.611412	0.018290	NaN	0.000000	0.001654	0.001704	28.0911	0.029146	0.002044	14.258	1.130714	-165.278	-0.012596	1.609784	-0.098765	-0.100078	0.018290	14.258	-0.099728	-1.801899	-0.010150	NaN
105	1.000000	1.623097	7.36607e+06	-43889.1	955.821	-29777.4	0.000000	0.000000	7.623411	-0.022635	NaN	0.000000	0.001666	0.001694	28.1032	0.065707	0.002040	32.2029	98.9767	-166.737	0.011650	1.621792	-0.086765	-0.088070	-0.022635	32.2029	-0.086238	-0.880077	0.025720	NaN
105	1.000000	1.635131	7.36607e+06	-43889.1	955.82	-29777.4	0.000000	0.000000	7.635445	-0.000676	NaN	0.000000	0.001660	0.001719	28.09	0.125715	0.002058	61.0956	48.6583	-168.084	-0.034066	1.633816	-0.074731	-0.076046	-0.000676	61.0956	-0.074723	-0.454295	0.001487	NaN
105	1.000000	1.647126	7.36607e+06	-43889.1	955.82	-29777.4	0.000000	0.000000	7.647441	0.005007	NaN	0.000000	0.001646	0.001719	28.1043	0.039887	0.002015	19.7997	175.402	-169.805	0.024016	1.645844	-0.062735	-0.064018	0.005007	19.7997	-0.062925	-0.218074	-0.022959	NaN
105	1.000000	1.659149	7.36607e+06	-43889.1	955.82	-29777.4	0.000000	0.000000	7.659467	0.070417	NaN	0.000000	0.001648	0.001708	28.0903	0.075837	0.001859	40.8015	81.2393	-163.895	0.015564	1.657830	-0.050712	-0.052032	0.070417	40.8015	-0.052007	-0.104879	-0.671408	NaN
105	1.000000	1.671136	7.36607e+06	-43889.1	955.82	-29777.4	0.000000	0.000000	7.671451	0.024486	NaN	0.000000	0.001562	0.001685	28.1053	0.044918	0.002132	21.0643	-132.313	-166.233	0.070543	1.669788	-0.038726	-0.040073	0.024486	21.0643	-0.039598	-0.043969	-0.556886	NaN
105	1.000000	1.683150	7.36607e+06	-43889.1	955.82	-29777.4	0.000000	0.000000	7.683465	-0.001420	NaN	0.000000	0.001573	0.001722	28.0882	0.038803	0.001942	19.9795	-47.0734	-167.252	-0.065725	1.681792	-0.026712	-0.028070	-0.001420	19.9795	-0.026658	-0.018659	0.076121	NaN
105	1.000000	1.695113	7.36607e+06	-43889.1	955.819	-29777.4	0.000000	0.000000	7.695427	-0.019092	NaN	0.000000	0.001591	0.001705	28.1042	0.058729	0.002067	28.4106	86.3707	-167.956	0.026682	1.693872	-0.014749	-0.015990	-0.019092	28.4106	-0.014245	-0.008827	2.162929	NaN
105	1.000000	1.707176	7.36607e+06	-43889.1	955.82	-29777.4	0.000000	0.000000	7.707495	0.104046	NaN	0.000000	0.001646	0.001711	28.0873	0.159835	0.001892	84.4776	-18.0095	-165.841	0.112582	1.705843	-0.002686	-0.004018	0.104046	84.4776	-0.003610	-0.002524	-41.2169	NaN
105	2.000000	1.717690	7.36607e+06	-43889.1	955.821	-29777.4	0.000000	0.000000	7.718436	10.5014	NaN	0.000000	0.001661	0.001704	28.1027	8.433371	0.001656	5093.04	6.887168	-172.147	10.4978	1.717337	0.007828	0.007475	10.5014	5093.04	0.006282	0.005334	1968.88	63714.4
105	2.000000	1.720668	7.36607e+06	-43889.1	955.821	-29777.4	0.000000	0.000000	7.721656	16.3679	NaN	0.000000	0.001664	0.001713	28.0879	11.1379	0.001552	7176.47	1.887444	-172.764	15.8268	1.720312	0.010807	0.010450	16.3679	7176.47	0.009096	0.008194	1997.5	72432.1
105	2.000000	1.723619	7.36607e+06	-43889.1	955.82	-29777.4	0.000000	0.000000	7.724657	17.6048	NaN	0.000000	0.001637	0.001751	28.1045	14.3417	0.001704	8417.72	6.444633	-176.131	17.7693	1.723364	0.013757	0.013502	17.6048	8417.72	0.012188	0.011716	1502.57	71050.9
105	2.000000	1.726571	7.36607e+06	-43889.1	955.821	-29777.4	0.000000	0.000000	7.727853	23.5318	NaN	0.000000	0.001648	0.001724	28.0887	17.0837	0.001741	9811.47	2.175850	-174.012	22.3668	1.726360	0.016710	0.016498	23.5318	9811.47	0.014911	0.015167	1551.56	72788.6
105	2.000000	1.729608	7.36607e+06	-43889.1	955.821	-29777.4	0.000000	0.000000	7.731229	31.7721	NaN	0.000000	0.001636	0.001696	28.1059	20.1831	0.001929	10461.1	7.625022	-178.195	31.4847	1.729213	0.019746	0.019352	31.7721	10461.1	0.017468	0.018719	1697.31	69856.8
105	2.000000	1.732586	7.36607e+06	-43889.1	955.821	-29777.4	0.000000	0.000000	7.734619	41.8051	NaN	0.000000	0.001621	0.001733	28.0875	22.6416	0.001668	13570.2	3.753621	-178.079	40.8564	1.732247	0.022724	0.022385	41.8051	13570.2	0.020413	0.023196	1802.26	81405.4
105	2.000000	1.735573	7.36607e+06	-43889.1	955.821	-29777.4	0.000000	0.000000	7.737601	41.6795	NaN	0.000000	0.001624	0.001715	28.1049	25.3516	0.001787	14188.2	4.127304	-179.645	41.4344	1.735305	0.025712	0.025443	41.6795	14188.2	0.023508	0.028358	1469.78	76977.5
105	2.000000	1.738599	7.36607e+06	-43889.1	955.821	-29777.4	0.000000	0.000000	7.740882	47.9006	NaN	0.000000	0.001630	0.001703	28.0876	28.7432	0.001921	14962.5	5.665918	179.913	47.9925	1.738230	0.028737	0.028368	47.9006	14962.5	0.026336	0.033491	1430.27	74699
105	2.000000	1.741626	7.36607e+06	-43889.1	955.821	-29777.4	0.000000	0.000000	7.744457	61.2209	NaN	0.000000	0.001597	0.001687	28.1051	31.2779	0.001781	17557.3	5.753030	178.682	64.354	1.741348	0.031764	0.031486	61.2209	17557.3	0.029149	0.038998	1569.87	81229.3
105	2.000000	1.744609	7.36607e+06	-43889.1	955.821	-29777.4	0.000000	0.000000	7.747864	71.5335	NaN	0.000000	0.001568	0.001717	28.0896	33.5082	0.001736	19298.8	6.001826	177.531	72.783	1.744241	0.034747	0.034379	71.5335	19298.8	0.031967	0.044920	1592.46	83192.5
105	2.000000	1.747558	7.36607e+06	-43889.1	955.82	-29777.4	0.000000	0.000000	7.751187	80.6383	NaN	0.000000	0.001528	0.001694	28.1068	36.1601	0.001755	20609.4	5.497867	176.325	78.6497	1.747254	0.037696	0.037393	80.6383	20609.4	0.034761	0.051192	1575.22	83222.1
105	2.000000	1.750523	7.36607e+06	-43889.1	955.82	-29777.4	0.000000	0.000000	7.754534	89.9102	NaN	0.000000	0.001589	0.001711	28.0903	38.5911	0.001820	21198.7	3.439907	178.695	87.6523	1.750220	0.040662	0.040358	89.9102	21198.7	0.037481	0.057679	1558.79	80644
105	2.000000	1.753521	7.36607e+06	-43889.1	955.821	-29777.4	0.000000	0.000000	7.757870	98.1475	NaN	0.000000	0.001639	0.001739	28.106	41.8049	0.001885	22172.9	3.607751	177.625	96.1761	1.753182	0.043659	0.043320	98.1475	22172.9	0.040339	0.064908	1512.09	79514.4
105	2.000000	1.756541	7.36607e+06	-43889.1	955.821	-29777.4	0.000000	0.000000	7.761373	109.887	NaN	0.000000	0.001648	0.001704	28.0886	43.5084	0.001800	24168.7	3.534717	177.347	109.455	1.756262	0.046679	0.046401	109.887	24168.7	0.043269	0.072750	1510.46	81867
105	2.000000	1.759468	7.36607e+06	-43889.1	955.821	-29777.4	0.000000	0.000000	7.764823	122.631	NaN	0.000000	0.001641	0.001731	28.1058	45.8605	0.001751	26191.3	2.377708	177.744	119.175	1.759275	0.049606	0.049413	122.631	26191.3	0.046095	0.080726	1519.1	84221.8
105	2.000000	1.762546	7.36607e+06	-43889.1	955.821	-29777.4	0.000000	0.000000	7.768648	140.809	NaN	0.000000	0.001656	0.001695	28.0898	48.6649	0.001655	29400	2.278152	177.333	140.15	1.762187	0.052684	0.052325	140.809	29400	0.049092	0.089627	1571.06	89722.5
105	2.000000	1.765470	7.36607e+06	-43889.1	955.821	-29777.4	0.000000	0.000000	7.771958	150.174	NaN	0.000000	0.001642	0.001705	28.1072	52.3334	0.001843	28402.6	1.298848	178.677	145.989	1.765177	0.055608	0.055315	150.174	28402.6	0.051643	0.097559	1539.31	83080.2
105	2.000000	1.768467	7.36607e+06	-43889.1	955.821	-29777.4	0.000000	0.000000	7.775641	166.884	NaN	0.000000	0.001556	0.001735	28.0891	54.9635	0.001739	31611.5	2.648612	176.076	162.511	1.768109	0.058605	0.058247	166.884	31611.5	0.054646	0.107312	1555.12	88164.5
105	2.000000	1.771488	7.36607e+06	-43889.1	955.822	-29777.4	0.000000	0.000000	7.779109	177.747	NaN	0.000000	0.001567	0.001741	28.1073	57.8859	0.001749	33102.1	5.848378	172.394	175.072	1.771140	0.061626	0.061279	177.747	33102.1	0.057599	0.117339	1514.81	88289.1
105	2.000000	1.774534	7.36607e+06	-43889.1	955.821	-29777.4	0.000000	0.000000	7.782553	187.429	NaN	0.000000	0.001676	0.001699	28.0887	60.1179	0.001759	34168.3	4.369545	173.71	185.473	1.774262	0.064672	0.064401	187.429	34168.3	0.060558	0.127817	1466.38	87317.6
105	2.000000	1.777485	7.36607e+06	-43889.1	955.82	-29777.4	0.000000	0.000000	7.786412	209.536	NaN	0.000000	0.001645	0.001719	28.1042	62.2847	0.001717	36279.8	2.972892	174.585	206.876	1.777279	0.067623	0.067417	209.536	36279.8	0.063291	0.137875	1519.76	89268
105	2.000000	1.780595	7.36607e+06	-43889.1	955.821	-29777.4	0.000000	0.000000	7.790229	226.74	NaN	0.000000	0.001653	0.001703	28.0864	65.1083	0.001840	35393.1	4.292002	173.79	230.563	1.780208	0.070733	0.070346	226.74	35393.1	0.065928	0.147921	1532.85	84077.1
105	2.000000	1.783497	7.36607e+06	-43889.1	955.821	-29777.4	0.000000	0.000000	7.794111	250.561	NaN	0.000000	0.001631	0.001740	28.1061	67.8026	0.001773	38243.1	5.960319	171.751	248.617	1.783157	0.073636	0.073296	250.561	38243.1	0.068722	0.158927	1576.58	87644.9
105	2.000000	1.786452	7.36607e+06	-43889.1	955.821	-29777.4	0.000000	0.000000	7.797806	268.583	NaN	0.000000	0.001657	0.001688	28.0877	70.6432	0.001830	38611.7	5.190809	172.083	264.474	1.786018	0.076590	0.076156	268.583	38611.7	0.071373	0.169717	1582.53	85630.8
105	2.000000	1.789501	7.36607e+06	-43889.1	955.82	-29777.4	0.000000	0.000000	7.801466	283.444	NaN	0.000000	0.001650	0.001708	28.1062	73.0339	0.001755	41620.6	3.235262	174.128	283.545	1.789095	0.079639	0.079233	283.444	41620.6	0.074531	0.183007	1548.82	88889.1
105	2.000000	1.792539	7.36607e+06	-43889.1	955.82	-29777.4	0.000000	0.000000	7.805452	306.507	NaN	0.000000	0.001627	0.001727	28.0872	77.5934	0.001791	43312.9	3.391191	172.628	306.214	1.792155	0.082677	0.082294	306.507	43312.9	0.077369	0.195351	1569.01	89533
105	2.000000	1.795488	7.36607e+06	-43889.1	955.821	-29777.4	0.000000	0.000000	7.809121	324.011	NaN	0.000000	0.001624	0.001751	28.1052	80.8777	0.001826	44302.7	3.871023	172.605	323.059	1.795195	0.085626	0.085334	324.011	44302.7	0.080141	0.207770	1559.47	88799.8
105	2.000000	1.798429	7.36607e+06	-43889.1	955.82	-29777.4	0.000000	0.000000	7.812773	341.311	NaN	0.000000	0.001644	0.001756	28.0868	83.4808	0.001852	45067	6.763169	169.287	337.212	1.798156	0.088568	0.088294	341.311	45067	0.082887	0.220427	1548.41	87700
105	2.000000	1.801469	7.36607e+06	-43889.1	955.82	-29777.4	0.000000	0.000000	7.816992	370.008	NaN	0.000000	0.001681	0.001710	28.1053	84.9818	0.001728	49177.2	1.742131	174.415	368.24	1.801078	0.091607	0.091216	370.008	49177.2	0.085964	0.235023	1574.35	92679.2
105	2.000000	1.804475	7.36607e+06	-43889.1	955.82	-29777.4	0.000000	0.000000	7.820664	386.206	NaN	0.000000	0.001681	0.001727	28.088	88.0897	0.001839	47896.1	6.601057	169.645	384.941	1.804165	0.094614	0.094303	386.206	47896.1	0.088566	0.247706	1559.13	87923.5
105	2.000000	1.807451	7.36607e+06	-43889.1	955.82	-29777.4	0.000000	0.000000	7.824698	411.963	NaN	0.000000	0.001746	0.001788	28.1067	89.4158	0.001619	55212.4	5.318066	169.616	409.307	1.807058	0.097589	0.097196	411.963	55212.4	0.091993	0.264885	1555.25	98012.4
105	2.000000	1.810518	7.36607e+06	-43889.1	955.819	-29777.4	0.000000	0.000000	7.828405	427.501	NaN	0.000000	0.001720	0.001763	28.0878	90.9057	0.001832	49619.5	0.404484	175.281	427.876	1.810248	0.100657	0.100386	427.501	49619.5	0.094195	0.276208	1547.75	86259.5
105	2.000000	1.813400	7.36607e+06	-43889.1	955.82	-29777.4	0.000000	0.000000	7.832495	456.897	NaN	0.000000	0.001699	0.001724	28.1068	94.5476	0.001841	51365.8	4.501231	170.893	451.913	1.813086	0.103538	0.103224	456.897	51365.8	0.096867	0.290246	1574.17	87109.2
105	2.000000	1.816096	7.36607e+06	-43889.1	955.822	-29777.4	0.000000	0.000000	7.835951	475.394	NaN	0.000000	0.001729	0.001723	28.0791	97.4144	0.001770	55033.8	4.763216	-9.773210	478.779	1.815642	0.106235	0.105781	475.394	55033.8	0.099756	0.305789	1554.65	90926.7