File: remote_trans/data/nanoindenter/0828-1/data/Data_2025-08-06,11h17m57s/2025-07-22_16-23-58_1_609.txt
2025-07-22, 16:23:58, 1
Index	Phase	Displacement	Time	Pos X	Pos Y	Pos Z	Rot A	Rot B	Piezo Z	Force A	Force B	Gripper	Voltage A	Voltage B	Temperature	Amplitude force	Amplitude pos	Stiffness	Phase shift	Phase excitation	Force A raw	Displacement raw	HMax	HMax raw	Real Force	Real Stiffness	Contact Depth	Area	Hardness	Reduced Mod.
[#]	[#]	[um]	[s]	[um]	[um]	[um]	[m°]	[m°]	[um]	[uN]	[uN]	[V]	[V]	[V]	[°C]	[uN]	[um]	[N/m]	[°]	[°]	[uN]	[um]	[um]	[um]	[uN]	[N/m]	[um]	[um^2]	[MPa]	[MPa]
609	1.000000	0.002306	7.37101e+06	-46639.1	1005.82	-29768.5	0.000000	0.000000	6.002808	-0.052586	NaN	0.000000	0.001611	0.001767	28.0819	0.158757	0.000882	180.057	-76.3137	-159.069	-0.063058	0.001023	-1.164803	-1.166086	-0.052586	180.057	-1.164584	-3.683838E+15	1.427480E-17	NaN
609	1.000000	0.012385	7.37101e+06	-46639.1	1005.82	-29768.5	0.000000	0.000000	6.012888	-0.044184	NaN	0.000000	0.001628	0.001772	28.0818	0.031172	0.001321	23.5932	-1.092129	15.4973	0.030558	0.010941	-1.154723	-1.156168	-0.044184	23.5932	-1.153319	-2.602012E+15	1.698085E-17	NaN
609	1.000000	0.022264	7.37101e+06	-46639.1	1005.82	-29768.5	0.000000	0.000000	6.022766	-0.049000	NaN	0.000000	0.001583	0.001816	28.0817	0.084961	0.001741	48.8004	-40.4639	-165.546	-0.118072	0.020921	-1.144845	-1.146188	-0.049000	48.8004	-1.144092	-1.957075E+15	2.503759E-17	NaN
609	1.000000	0.032249	7.37101e+06	-46639.1	1005.82	-29768.5	0.000000	0.000000	6.032752	-0.032211	NaN	0.000000	0.001596	0.001779	28.0818	0.101921	0.001969	51.7518	-80.7903	19.8657	-0.015015	0.030904	-1.134860	-1.136205	-0.032211	51.7518	-1.134393	-1.450579E+15	2.220558E-17	NaN
609	1.000000	0.042234	7.37101e+06	-46639.1	1005.82	-29768.5	0.000000	0.000000	6.042739	0.018269	NaN	0.000000	0.001571	0.001786	28.0819	0.057510	0.002153	26.7108	-134.859	-163.765	0.087419	0.040935	-1.124874	-1.126174	0.018269	26.7108	-1.125387	-1.098364E+15	-1.663288E-17	NaN
609	1.000000	0.052255	7.37101e+06	-46639.1	1005.82	-29768.5	0.000000	0.000000	6.052758	-0.028882	NaN	0.000000	0.001566	0.001806	28.0815	0.012627	0.001993	6.334100	-28.6161	15.7849	-0.023040	0.050906	-1.114854	-1.116203	-0.028882	6.334100	-1.111434	-7.137240E+14	4.046678E-17	NaN
609	1.000000	0.062236	7.37101e+06	-46639.1	1005.82	-29768.5	0.000000	0.000000	6.062736	-0.115139	NaN	0.000000	0.001570	0.001799	28.0817	0.119849	0.001977	60.6172	74.5733	-166.587	-0.138624	0.060881	-1.104873	-1.106227	-0.115139	60.6172	-1.103448	-5.576367E+14	2.064764E-16	NaN
609	1.000000	0.072280	7.37101e+06	-46639.1	1005.82	-29768.5	0.000000	0.000000	6.072782	-0.079308	NaN	0.000000	0.001562	0.001792	28.0816	0.036922	0.001919	19.2443	-149.52	14.0256	-0.057576	0.070891	-1.094828	-1.096217	-0.079308	19.2443	-1.091737	-3.882743E+14	2.042569E-16	NaN
609	1.000000	0.082243	7.37101e+06	-46639.1	1005.82	-29768.5	0.000000	0.000000	6.082745	-0.049549	NaN	0.000000	0.001581	0.001778	28.0814	0.039567	0.002097	18.8674	-52.1523	-165.204	-0.068746	0.080938	-1.084866	-1.086171	-0.049549	18.8674	-1.082896	-2.954018E+14	1.677350E-16	NaN
609	1.000000	0.092251	7.37101e+06	-46639.1	1005.82	-29768.5	0.000000	0.000000	6.092753	-0.055812	NaN	0.000000	0.001584	0.001770	28.0813	0.022903	0.002108	10.8638	-23.0904	16.2291	-0.036358	0.090895	-1.074858	-1.076213	-0.055812	10.8638	-1.071005	-2.044983E+14	2.729210E-16	NaN
609	1.000000	0.102260	7.37101e+06	-46639.1	1005.82	-29768.5	0.000000	0.000000	6.102764	-0.012042	NaN	0.000000	0.001564	0.001826	28.0816	0.072340	0.002018	35.8541	-167.681	-167.699	-0.041184	0.100931	-1.064848	-1.066177	-0.012042	35.8541	-1.064596	-1.677212E+14	7.179873E-17	NaN
609	1.000000	0.112269	7.37101e+06	-46639.1	1005.82	-29768.5	0.000000	0.000000	6.112771	-0.057124	NaN	0.000000	0.001589	0.001827	28.0815	0.048292	0.002070	23.3317	-46.4513	21.0754	-0.018778	0.110913	-1.054840	-1.056196	-0.057124	23.3317	-1.053004	-1.171624E+14	4.875641E-16	NaN
609	1.000000	0.122272	7.37101e+06	-46639.1	1005.82	-29768.5	0.000000	0.000000	6.122775	-0.014757	NaN	0.000000	0.001608	0.001785	28.0814	0.056349	0.001885	29.8953	-20.3502	-164.571	-0.032433	0.120973	-1.044837	-1.046136	-0.014757	29.8953	-1.044467	-8.995504E+13	1.640490E-16	NaN
609	1.000000	0.132309	7.37101e+06	-46639.1	1005.82	-29768.5	0.000000	0.000000	6.132812	-0.042758	NaN	0.000000	0.001598	0.001804	28.0816	0.027203	0.001978	13.75	6.694015	15.2817	-0.054384	0.130876	-1.034800	-1.036233	-0.042758	13.75	-1.032467	-6.203919E+13	6.892066E-16	NaN
609	1.000000	0.142281	7.37101e+06	-46639.1	1005.82	-29768.5	0.000000	0.000000	6.142784	-0.026639	NaN	0.000000	0.001631	0.001807	28.0826	0.120942	0.001954	61.8938	-140.035	-164.181	0.057054	0.140966	-1.024828	-1.026142	-0.026639	61.8938	-1.024505	-4.847971E+13	5.494943E-16	NaN
609	1.000000	0.152326	7.37101e+06	-46639.1	1005.82	-29768.5	0.000000	0.000000	6.152830	0.014856	NaN	0.000000	0.001566	0.001801	28.0827	0.124477	0.002013	61.8375	-92.5515	16.0498	0.101890	0.150937	-1.014783	-1.016172	0.014856	61.8375	-1.014963	-3.607261E+13	-4.118434E-16	NaN
609	1.000000	0.162290	7.37101e+06	-46639.1	1005.82	-29768.5	0.000000	0.000000	6.162794	-0.025600	NaN	0.000000	0.001611	0.001866	28.0827	0.136791	0.001986	68.8917	173.095	-169.021	-0.077207	0.161021	-1.004818	-1.006087	-0.025600	68.8917	-1.004539	-2.611449E+13	9.802893E-16	NaN
609	1.000000	0.172304	7.37101e+06	-46639.1	1005.82	-29768.5	0.000000	0.000000	6.172806	-0.046164	NaN	0.000000	0.001587	0.001804	28.0824	0.142783	0.002062	69.2605	97.2117	9.561945	-0.038468	0.170961	-0.994805	-0.996147	-0.046164	69.2605	-0.994305	-1.901460E+13	2.427795E-15	NaN
609	1.000000	0.182280	7.37101e+06	-46639.1	1005.82	-29768.5	0.000000	0.000000	6.182787	0.074333	NaN	0.000000	0.001564	0.001845	28.0827	0.085995	0.002115	40.6642	101.841	-167.263	0.048645	0.180984	-0.984829	-0.986125	0.074333	40.6642	-0.986200	-1.478867E+13	-5.026382E-15	NaN
609	1.000000	0.192316	7.37101e+06	-46639.1	1005.82	-29768.5	0.000000	0.000000	6.192819	-0.026444	NaN	0.000000	0.001594	0.001832	28.0827	0.050384	0.001943	25.9246	36.265	13.1016	-0.078939	0.190973	-0.974793	-0.976135	-0.026444	25.9246	-0.974027	-1.013766E+13	2.608495E-15	NaN
609	1.000000	0.202306	7.37101e+06	-46639.1	1005.82	-29768.5	0.000000	0.000000	6.202810	-0.011031	NaN	0.000000	0.001548	0.001827	28.0824	0.047679	0.001974	24.1582	82.095	-162.743	0.016912	0.201000	-0.964803	-0.966108	-0.011031	24.1582	-0.964460	-7.533462E+12	1.464267E-15	NaN
609	1.000000	0.212297	7.37101e+06	-46639.1	1005.82	-29768.5	0.000000	0.000000	6.212799	-0.057079	NaN	0.000000	0.001581	0.001807	28.0825	0.074151	0.001825	40.64	-178.664	16.6068	-0.079677	0.210937	-0.954812	-0.956171	-0.057079	40.64	-0.953758	-5.403964E+12	1.056237E-14	NaN
609	1.000000	0.222325	7.37101e+06	-46639.1	1005.82	-29768.5	0.000000	0.000000	6.222829	0.004776	NaN	0.000000	0.001553	0.001811	28.0826	0.186332	0.001945	95.8168	92.9988	-165.547	-0.001897	0.221014	-0.944784	-0.946095	0.004776	95.8168	-0.944821	-4.094309E+12	-1.166614E-15	NaN
609	1.000000	0.232339	7.37101e+06	-46639.1	1005.82	-29768.5	0.000000	0.000000	6.232842	-0.024037	NaN	0.000000	0.001579	0.001820	28.0827	0.062480	0.002042	30.6019	-150.339	13.1029	0.012512	0.230980	-0.934770	-0.936129	-0.024037	30.6019	-0.934181	-2.941824E+12	8.170784E-15	NaN
609	1.000000	0.242326	7.37101e+06	-46639.1	1005.82	-29768.5	0.000000	0.000000	6.242829	-0.029454	NaN	0.000000	0.001541	0.001815	28.0829	0.041687	0.001957	21.2994	-12.7334	-166.938	0.025526	0.240993	-0.924782	-0.926115	-0.029454	21.2994	-0.923745	-2.126998E+12	1.384755E-14	NaN
609	1.000000	0.252338	7.37101e+06	-46639.1	1005.82	-29768.5	0.000000	0.000000	6.252841	-0.030735	NaN	0.000000	0.001555	0.001829	28.0829	0.136196	0.002038	66.8423	142.941	12.073	0.031475	0.250980	-0.914771	-0.916128	-0.030735	66.8423	-0.914426	-1.591972E+12	1.930611E-14	NaN
609	1.000000	0.262359	7.37101e+06	-46639.1	1005.82	-29768.5	0.000000	0.000000	6.262860	-0.082811	NaN	0.000000	0.001554	0.001819	28.083	0.152345	0.001934	78.7689	121.862	-169.78	-0.013407	0.261023	-0.904750	-0.906085	-0.082811	78.7689	-0.903961	-1.149702E+12	7.202784E-14	NaN
609	1.000000	0.272342	7.37101e+06	-46639.1	1005.82	-29768.5	0.000000	0.000000	6.272845	-0.018533	NaN	0.000000	0.001577	0.001805	28.0816	0.040553	0.002016	20.1183	104.387	16.0465	-0.022994	0.270967	-0.894767	-0.896142	-0.018533	20.1183	-0.894076	-8.452978E+11	2.192426E-14	NaN
609	1.000000	0.282346	7.37101e+06	-46639.1	1005.82	-29768.5	0.000000	0.000000	6.282850	-0.003505	NaN	0.000000	0.001563	0.001819	28.0818	0.020454	0.002077	9.848059	92.1963	-163.655	-0.018606	0.281031	-0.884763	-0.886078	-0.003505	9.848059	-0.884496	-6.273374E+11	5.587114E-15	NaN
609	1.000000	0.292336	7.37101e+06	-46639.1	1005.82	-29768.5	0.000000	0.000000	6.292840	-0.010519	NaN	0.000000	0.001588	0.001816	28.0821	0.090012	0.002055	43.7977	72.5608	13.4167	-0.086240	0.290994	-0.874772	-0.876115	-0.010519	43.7977	-0.874592	-4.608567E+11	2.282435E-14	NaN
609	1.000000	0.302353	7.37101e+06	-46639.1	1005.82	-29768.5	0.000000	0.000000	6.302856	-0.041952	NaN	0.000000	0.001635	0.001847	28.0817	0.042487	0.001859	22.8493	136.733	-165.979	-0.028410	0.301081	-0.864756	-0.866028	-0.041952	22.8493	-0.863379	-3.249732E+11	1.290935E-13	NaN
609	1.000000	0.312362	7.37101e+06	-46639.1	1005.82	-29768.5	0.000000	0.000000	6.312864	-0.057729	NaN	0.000000	0.001592	0.001834	28.0818	0.031371	0.002076	15.108	89.8369	12.0051	-0.031204	0.311032	-0.854747	-0.856077	-0.057729	15.108	-0.851881	-2.270961E+11	2.542034E-13	NaN
609	1.000000	0.322369	7.37101e+06	-46639.1	1005.82	-29768.5	0.000000	0.000000	6.322876	0.044658	NaN	0.000000	0.001584	0.001826	28.0818	0.028623	0.002040	14.0325	117.44	-168.687	0.022408	0.321073	-0.844739	-0.846035	0.044658	14.0325	-0.847126	-1.958020E+11	-2.280770E-13	NaN
609	1.000000	0.332369	7.37101e+06	-46639.1	1005.82	-29768.5	0.000000	0.000000	6.332870	-0.088409	NaN	0.000000	0.001574	0.001807	28.0818	0.139888	0.002020	69.2367	42.7355	14.8778	-0.033499	0.331072	-0.834740	-0.836037	-0.088409	69.2367	-0.833782	-1.291337E+11	6.846346E-13	NaN
609	1.000000	0.342377	7.37101e+06	-46639.1	1005.82	-29768.5	0.000000	0.000000	6.342882	0.027298	NaN	0.000000	0.001588	0.001787	28.0815	0.015236	0.002079	7.330332	-11.0881	-165.374	-0.042441	0.341019	-0.824732	-0.826089	0.027298	7.330332	-0.827525	-1.062270E+11	-2.569812E-13	NaN
609	1.000000	0.352366	7.37101e+06	-46639.1	1005.82	-29768.5	0.000000	0.000000	6.352873	0.066555	NaN	0.000000	0.001583	0.001782	28.0816	0.091171	0.002070	44.0518	135.9	10.7408	0.035941	0.350957	-0.814742	-0.816151	0.066555	44.0518	-0.815875	-7.383666E+10	-9.013839E-13	NaN
609	1.000000	0.362412	7.37101e+06	-46639.1	1005.82	-29768.5	0.000000	0.000000	6.362918	0.035004	NaN	0.000000	0.001575	0.001792	28.0818	0.052865	0.002146	24.6386	96.4183	-166.163	0.002009	0.361141	-0.804696	-0.805967	0.035004	24.6386	-0.805762	-5.383498E+10	-6.502001E-13	NaN
609	1.000000	0.372376	7.37101e+06	-46639.1	1005.82	-29768.5	0.000000	0.000000	6.372881	0.015677	NaN	0.000000	0.001593	0.001797	28.0814	0.034176	0.002085	16.3946	-163.852	15.7199	0.001103	0.371053	-0.794733	-0.796056	0.015677	16.3946	-0.795450	-3.900210E+10	-4.019506E-13	NaN
609	1.000000	0.382389	7.37101e+06	-46639.1	1005.82	-29768.5	0.000000	0.000000	6.382891	-0.065061	NaN	0.000000	0.001587	0.001805	28.0815	0.059806	0.001967	30.4069	-24.0938	-163.323	-0.105960	0.381056	-0.784720	-0.786052	-0.065061	30.4069	-0.783115	-2.651894E+10	2.453395E-12	NaN
609	1.000000	0.392400	7.37101e+06	-46639.1	1005.82	-29768.5	0.000000	0.000000	6.392906	0.055638	NaN	0.000000	0.001571	0.001863	28.0816	0.116704	0.002013	57.9879	-131.542	17.8034	0.086604	0.391021	-0.774709	-0.776087	0.055638	57.9879	-0.775428	-2.084976E+10	-2.668522E-12	NaN
609	1.000000	0.402363	7.37101e+06	-46639.1	1005.82	-29768.5	0.000000	0.000000	6.402866	-0.032961	NaN	0.000000	0.001562	0.001810	28.0819	0.119443	0.002101	56.8522	-3.591913	-164.716	-0.011356	0.401099	-0.764746	-0.766009	-0.032961	56.8522	-0.764311	-1.472112E+10	2.239050E-12	NaN
609	1.000000	0.412412	7.37101e+06	-46639.1	1005.82	-29768.5	0.000000	0.000000	6.412916	-0.015230	NaN	0.000000	0.001557	0.001835	28.0831	0.047149	0.002009	23.4669	-174.407	13.9044	-0.086992	0.411065	-0.754696	-0.756043	-0.015230	23.4669	-0.754209	-1.072786E+10	1.419664E-12	NaN
609	1.000000	0.422426	7.37101e+06	-46639.1	1005.82	-29768.5	0.000000	0.000000	6.422930	-0.018622	NaN	0.000000	0.001569	0.001805	28.083	0.082589	0.002100	39.3322	174.151	-164.975	-0.083515	0.421071	-0.744683	-0.746037	-0.018622	39.3322	-0.744327	-7.870293E+9	2.366097E-12	NaN
609	1.000000	0.432396	7.37101e+06	-46639.1	1005.82	-29768.5	0.000000	0.000000	6.432900	-0.005006	NaN	0.000000	0.001551	0.001782	28.083	0.094003	0.001944	48.3618	16.6847	10.9374	0.010411	0.431084	-0.734713	-0.736025	-0.005006	48.3618	-0.734635	-5.807287E+9	8.620102E-13	NaN
609	1.000000	0.442416	7.37101e+06	-46639.1	1005.82	-29768.5	0.000000	0.000000	6.442919	-0.033489	NaN	0.000000	0.001607	0.001801	28.083	0.140183	0.002036	68.8459	-132.925	-164.811	0.014137	0.441135	-0.724692	-0.725974	-0.033489	68.8459	-0.724328	-4.202268E+9	7.969291E-12	NaN
609	1.000000	0.452442	7.37101e+06	-46639.1	1005.82	-29768.5	0.000000	0.000000	6.452944	-0.050888	NaN	0.000000	0.001593	0.001823	28.0827	0.031439	0.002016	15.5919	-122.711	11.904	-0.051016	0.451038	-0.714667	-0.716070	-0.050888	15.5919	-0.712219	-2.872977E+9	1.771266E-11	NaN
609	1.000000	0.462416	7.37101e+06	-46639.1	1005.82	-29768.5	0.000000	0.000000	6.462920	-0.013337	NaN	0.000000	0.001586	0.001793	28.0841	0.062482	0.002078	30.0743	-95.212	-166.32	-0.054389	0.461149	-0.704693	-0.705959	-0.013337	30.0743	-0.704360	-2.244214E+9	5.942922E-12	NaN
609	1.000000	0.472426	7.37101e+06	-46639.1	1005.82	-29768.5	0.000000	0.000000	6.472928	-0.047791	NaN	0.000000	0.001568	0.001825	28.0833	0.028593	0.002021	14.1512	-14.9406	12.6675	-0.062018	0.471086	-0.694683	-0.696022	-0.047791	14.1512	-0.692150	-1.528614E+9	3.126458E-11	NaN
609	1.000000	0.482425	7.37101e+06	-46639.1	1005.82	-29768.5	0.000000	0.000000	6.482928	-0.020428	NaN	0.000000	0.001556	0.001812	28.0829	0.062282	0.002025	30.7495	-128.558	-167.928	-0.029509	0.481110	-0.684684	-0.685999	-0.020428	30.7495	-0.684185	-1.189701E+9	1.717057E-11	NaN
609	1.000000	0.492449	7.37101e+06	-46639.1	1005.82	-29768.5	0.000000	0.000000	6.492952	-0.045219	NaN	0.000000	0.001548	0.001821	28.0829	0.089729	0.001949	46.0367	104.24	17.6	-0.009854	0.491078	-0.674659	-0.676031	-0.045219	46.0367	-0.673923	-8.611308E+8	5.251174E-11	NaN
609	1.000000	0.502433	7.37101e+06	-46639.1	1005.82	-29768.5	0.000000	0.000000	6.502935	-0.041210	NaN	0.000000	0.001538	0.001826	28.0828	0.063624	0.002072	30.7087	-174.061	-165.278	-0.048594	0.501163	-0.664676	-0.665946	-0.041210	30.7087	-0.663669	-6.233397E+8	6.611105E-11	NaN
609	1.000000	0.512442	7.37101e+06	-46639.1	1005.82	-29768.5	0.000000	0.000000	6.512945	-0.047544	NaN	0.000000	0.001556	0.001843	28.0831	0.164892	0.001979	83.3332	-163.785	15.6696	-0.009240	0.511033	-0.654666	-0.656075	-0.047544	83.3332	-0.654238	-4.629464E+8	1.026978E-10	NaN
609	1.000000	0.522472	7.37101e+06	-46639.1	1005.82	-29768.5	0.000000	0.000000	6.522976	-0.026509	NaN	0.000000	0.001550	0.001835	28.083	0.065339	0.001925	33.9422	12.8994	-163.799	-0.019961	0.521148	-0.644636	-0.645961	-0.026509	33.9422	-0.644050	-3.356255E+8	7.898522E-11	NaN
609	1.000000	0.532458	7.37101e+06	-46639.1	1005.82	-29768.5	0.000000	0.000000	6.532960	-0.046285	NaN	0.000000	0.001615	0.001846	28.083	0.111761	0.001961	57.0057	-122.573	16.3317	0.008675	0.531078	-0.634651	-0.636031	-0.046285	57.0057	-0.634042	-2.446333E+8	1.892007E-10	NaN
609	1.000000	0.542473	7.37101e+06	-46639.1	1005.82	-29768.5	0.000000	0.000000	6.542976	-0.051184	NaN	0.000000	0.001630	0.001835	28.0827	0.035587	0.001953	18.2183	-162.777	-166.939	-0.064502	0.541124	-0.624635	-0.625985	-0.051184	18.2183	-0.622528	-1.699729E+8	3.011328E-10	NaN
609	1.000000	0.552462	7.37101e+06	-46639.1	1005.82	-29768.5	0.000000	0.000000	6.552966	-0.010731	NaN	0.000000	0.001627	0.001804	28.0818	0.011342	0.002068	5.483531	-5.167722	13.585	-0.048183	0.551132	-0.614647	-0.615977	-0.010731	5.483531	-0.613179	-1.264288E+8	8.488041E-11	NaN
609	1.000000	0.562471	7.37101e+06	-46639.1	1005.82	-29768.5	0.000000	0.000000	6.562974	-0.015581	NaN	0.000000	0.001626	0.001789	28.0817	0.048837	0.001986	24.5952	-135.863	-162.113	-0.032156	0.561171	-0.604638	-0.605937	-0.015581	24.5952	-0.604163	-9.501191E+7	1.639944E-10	NaN
609	1.000000	0.572476	7.37101e+06	-46639.1	1005.82	-29768.5	0.000000	0.000000	6.572979	-0.030111	NaN	0.000000	0.001640	0.001803	28.0816	0.121633	0.002043	59.5478	111.26	15.2592	-0.044697	0.571102	-0.594633	-0.596007	-0.030111	59.5478	-0.594254	-6.938966E+7	4.339444E-10	NaN
609	1.000000	0.582465	7.37101e+06	-46639.1	1005.82	-29768.5	0.000000	0.000000	6.582967	-0.048440	NaN	0.000000	0.001612	0.001810	28.082	0.034969	0.002009	17.4061	-21.6179	-167.381	-0.039266	0.581172	-0.584644	-0.585937	-0.048440	17.4061	-0.582557	-4.786383E+7	1.012037E-9	NaN
609	1.000000	0.592448	7.37101e+06	-46639.1	1005.82	-29768.5	0.000000	0.000000	6.592950	-0.072895	NaN	0.000000	0.001629	0.001778	28.0818	0.089238	0.002093	42.6462	-23.1268	16.3301	-0.050140	0.591133	-0.574660	-0.575976	-0.072895	42.6462	-0.573378	-3.575224E+7	2.038894E-9	NaN
609	1.000000	0.602458	7.37101e+06	-46639.1	1005.82	-29768.5	0.000000	0.000000	6.602961	-0.042192	NaN	0.000000	0.001627	0.001825	28.0818	0.105397	0.001969	53.5344	100.573	-165.038	0.004356	0.601124	-0.564651	-0.565984	-0.042192	53.5344	-0.564059	-2.657795E+7	1.587494E-9	NaN
609	1.000000	0.612514	7.37101e+06	-46639.1	1005.82	-29768.5	0.000000	0.000000	6.613017	-0.030356	NaN	0.000000	0.001646	0.001739	28.0819	0.027622	0.002035	13.5721	171.389	14.3397	0.025713	0.611114	-0.554595	-0.555995	-0.030356	13.5721	-0.552918	-1.863631E+7	1.628855E-9	NaN
609	1.000000	0.622459	7.37101e+06	-46639.1	1005.82	-29768.5	0.000000	0.000000	6.622963	0.001274	NaN	0.000000	0.001649	0.001811	28.0819	0.024550	0.001992	12.3233	-152.749	-165.99	0.013688	0.621200	-0.544650	-0.545908	0.001274	12.3233	-0.544727	-1.435168E+7	-8.874460E-11	NaN
609	1.000000	0.632464	7.37101e+06	-46639.1	1005.82	-29768.5	0.000000	0.000000	6.632972	0.080763	NaN	0.000000	0.001623	0.001768	28.0819	0.066234	0.001951	33.9456	161.821	18.0052	0.044462	0.631129	-0.534644	-0.535979	0.080763	33.9456	-0.536429	-1.101068E+7	-7.334996E-9	NaN
609	1.000000	0.642476	7.37101e+06	-46639.1	1005.82	-29768.5	0.000000	0.000000	6.642979	-0.037529	NaN	0.000000	0.001650	0.001804	28.0818	0.094406	0.002015	46.8406	155.926	-166.286	-0.023108	0.641191	-0.524633	-0.525918	-0.037529	46.8406	-0.524032	-7.40716e+06	5.066589E-9	NaN
609	1.000000	0.652493	7.37101e+06	-46639.1	1005.82	-29768.5	0.000000	0.000000	6.652993	-0.083954	NaN	0.000000	0.001637	0.001789	28.0822	0.015309	0.002098	7.298563	-6.103749	14.2781	-0.066755	0.651153	-0.514616	-0.515956	-0.083954	7.298563	-0.505989	-4.1546e+06	2.020760E-8	NaN
609	1.000000	0.662505	7.37101e+06	-46639.1	1005.82	-29768.5	0.000000	0.000000	6.663010	0.011895	NaN	0.000000	0.001628	0.001817	28.0818	0.077940	0.001941	40.1444	-89.5855	-165.893	-0.009131	0.661187	-0.504604	-0.505922	0.011895	40.1444	-0.504826	-4.00236e+06	-2.971946E-9	NaN
609	1.000000	0.672513	7.37101e+06	-46639.1	1005.82	-29768.5	0.000000	0.000000	6.673016	-0.047048	NaN	0.000000	0.001647	0.001811	28.0821	0.069864	0.001941	35.9914	-1.632159	15.1748	-0.022584	0.671144	-0.494595	-0.495965	-0.047048	35.9914	-0.493615	-2.79186e+06	1.685181E-8	NaN
609	1.000000	0.682502	7.37101e+06	-46639.1	1005.82	-29768.5	0.000000	0.000000	6.683005	-0.048377	NaN	0.000000	0.001616	0.001830	28.0831	0.100658	0.002047	49.1631	-125.005	-164.547	-0.050871	0.681215	-0.484606	-0.485894	-0.048377	49.1631	-0.483868	-2.04014e+06	2.371239E-8	NaN
609	1.000000	0.692505	7.37101e+06	-46639.1	1005.82	-29768.5	0.000000	0.000000	6.693006	-0.080628	NaN	0.000000	0.001566	0.001774	28.0834	0.069045	0.002132	32.384	4.051862	13.4191	-0.090483	0.691159	-0.474603	-0.475950	-0.080628	32.384	-0.472736	-1.42486e+06	5.658680E-8	NaN
609	1.000000	0.702528	7.37101e+06	-46639.1	1005.82	-29768.5	0.000000	0.000000	6.703033	0.013718	NaN	0.000000	0.001550	0.001778	28.0831	0.046130	0.001983	23.2604	-113.124	-165.969	-0.012243	0.701208	-0.464581	-0.465900	0.013718	23.2604	-0.465023	-1.11063e+06	-1.235113E-8	NaN
609	1.000000	0.712530	7.37101e+06	-46639.1	1005.82	-29768.5	0.000000	0.000000	6.713032	-0.056069	NaN	0.000000	0.001549	0.001790	28.0832	0.028161	0.001839	15.3099	161.303	13.6302	-0.097939	0.711144	-0.454579	-0.455965	-0.056069	15.3099	-0.451832	-724672	7.737194E-8	NaN
609	1.000000	0.722531	7.37101e+06	-46639.1	1005.82	-29768.5	0.000000	0.000000	6.723033	-0.050450	NaN	0.000000	0.001618	0.001811	28.0833	0.125700	0.002148	58.5251	93.9657	-164.611	-0.013144	0.721229	-0.444578	-0.445880	-0.050450	58.5251	-0.443931	-560817	8.995845E-8	NaN
609	1.000000	0.732506	7.37101e+06	-46639.1	1005.82	-29768.5	0.000000	0.000000	6.733009	-0.039417	NaN	0.000000	0.001547	0.001804	28.0833	0.089767	0.001952	45.9898	-71.8676	14.9674	-0.038590	0.731168	-0.434602	-0.435941	-0.039417	45.9898	-0.433960	-405558	9.719266E-8	NaN
609	1.000000	0.742549	7.37101e+06	-46639.1	1005.82	-29768.5	0.000000	0.000000	6.743051	-0.058052	NaN	0.000000	0.001555	0.001817	28.0832	0.105120	0.002115	49.6979	-76.8315	-163.907	-0.059524	0.741220	-0.424560	-0.425888	-0.058052	49.6979	-0.423684	-290160	2.000684E-7	NaN
609	1.000000	0.752547	7.37101e+06	-46639.1	1005.82	-29768.5	0.000000	0.000000	6.753052	0.001094	NaN	0.000000	0.001553	0.001770	28.0832	0.131252	0.001968	66.6896	-71.9736	14.9118	-0.002274	0.751161	-0.414561	-0.415948	0.001094	66.6896	-0.414573	-215476	-5.076985E-9	NaN
609	1.000000	0.762564	7.37101e+06	-46639.1	1005.82	-29768.5	0.000000	0.000000	6.763066	-0.049702	NaN	0.000000	0.001571	0.001801	28.0835	0.077668	0.001967	39.4838	-38.9603	-163.228	-0.021522	0.761260	-0.404545	-0.405849	-0.049702	39.4838	-0.403601	-150424	3.304105E-7	NaN
609	1.000000	0.772520	7.37101e+06	-46639.1	1005.82	-29768.5	0.000000	0.000000	6.773022	-0.032882	NaN	0.000000	0.001579	0.001766	28.0831	0.121628	0.002034	59.8056	31.0276	13.2162	0.041561	0.771146	-0.394589	-0.395963	-0.032882	59.8056	-0.394177	-110376	2.979050E-7	NaN
609	1.000000	0.782578	7.37101e+06	-46639.1	1005.82	-29768.5	0.000000	0.000000	6.783081	-0.047214	NaN	0.000000	0.001555	0.001756	28.0832	0.029020	0.001975	14.6947	-0.777398	-169.23	-0.003092	0.781244	-0.384530	-0.385865	-0.047214	14.6947	-0.382121	-74184.3	6.364413E-7	NaN
609	1.000000	0.792538	7.37101e+06	-46639.1	1005.82	-29768.5	0.000000	0.000000	6.793040	-0.049408	NaN	0.000000	0.001559	0.001780	28.0833	0.022198	0.001966	11.2917	-105.594	12.9586	-0.058031	0.791170	-0.374571	-0.375939	-0.049408	11.2917	-0.371289	-51842.9	9.530359E-7	NaN
609	1.000000	0.802577	7.37101e+06	-46639.1	1005.82	-29768.5	0.000000	0.000000	6.803078	-0.087608	NaN	0.000000	0.001534	0.001798	28.0832	0.043701	0.002064	21.1711	8.368821	-167.499	-0.088238	0.801267	-0.364531	-0.365841	-0.087608	21.1711	-0.361428	-37366.3	2.344570E-6	NaN
609	1.000000	0.812557	7.37101e+06	-46639.1	1005.82	-29768.5	0.000000	0.000000	6.813059	-0.035175	NaN	0.000000	0.001530	0.001799	28.0832	0.110400	0.001933	57.1184	64.6264	15.16	-0.049740	0.811212	-0.354552	-0.355896	-0.035175	57.1184	-0.354090	-29262.8	1.202022E-6	NaN
609	1.000000	0.822578	7.37101e+06	-46639.1	1005.82	-29768.5	0.000000	0.000000	6.823083	0.002240	NaN	0.000000	0.001564	0.001766	28.0819	0.075502	0.002047	36.89	-45.1195	-165.065	0.067754	0.821207	-0.344530	-0.345902	0.002240	36.89	-0.344576	-21290.5	-1.052137E-7	NaN
609	1.000000	0.832585	7.37101e+06	-46639.1	1005.82	-29768.5	0.000000	0.000000	6.833089	-0.023335	NaN	0.000000	0.001566	0.001833	28.0823	0.133033	0.002131	62.4307	62.4961	13.5014	0.034035	0.831192	-0.334523	-0.335917	-0.023335	62.4307	-0.334243	-15049.6	1.550523E-6	NaN
609	1.000000	0.842596	7.37101e+06	-46639.1	1005.82	-29768.5	0.000000	0.000000	6.843103	0.064771	NaN	0.000000	0.001549	0.001797	28.0817	0.042635	0.001980	21.5327	140.983	-164.367	0.034140	0.841304	-0.324513	-0.325805	0.064771	21.5327	-0.326769	-11697.5	-5.537173E-6	NaN
609	1.000000	0.852572	7.37101e+06	-46639.1	1005.82	-29768.5	0.000000	0.000000	6.853073	-0.059714	NaN	0.000000	0.001575	0.001749	28.0822	0.020119	0.001972	10.2022	-156.1	14.2871	-0.071577	0.851281	-0.314537	-0.315828	-0.059714	10.2022	-0.310147	-6656.32	8.971068E-6	NaN
609	1.000000	0.862584	7.37101e+06	-46639.1	1005.82	-29768.5	0.000000	0.000000	6.863089	0.007559	NaN	0.000000	0.001562	0.001791	28.0819	0.100368	0.002016	49.7764	-42.2818	-168.301	-0.058533	0.861268	-0.304525	-0.305840	0.007559	49.7764	-0.304638	-5515.54	-1.370469E-6	NaN
609	1.000000	0.872558	7.37101e+06	-46639.1	1005.82	-29768.5	0.000000	0.000000	6.873060	-0.058259	NaN	0.000000	0.001562	0.001789	28.082	0.049648	0.001971	25.1932	-131.601	16.3951	-0.062665	0.871223	-0.294550	-0.295885	-0.058259	25.1932	-0.292816	-3676.62	1.584574E-5	NaN
609	1.000000	0.882583	7.37101e+06	-46639.1	1005.82	-29768.5	0.000000	0.000000	6.883086	-0.034786	NaN	0.000000	0.001556	0.001797	28.0818	0.060648	0.002095	28.9461	-70.0986	-166.758	-0.092320	0.881294	-0.284525	-0.285815	-0.034786	28.9461	-0.283624	-2676.52	1.299657E-5	NaN
609	1.000000	0.892597	7.37101e+06	-46639.1	1005.82	-29768.5	0.000000	0.000000	6.893103	0.041549	NaN	0.000000	0.001533	0.001781	28.0819	0.123454	0.002101	58.7504	-51.2984	18.8082	0.024895	0.891220	-0.274512	-0.275889	0.041549	58.7504	-0.275042	-1986.27	-2.091809E-5	NaN
609	1.000000	0.902606	7.37101e+06	-46639.1	1005.82	-29768.5	0.000000	0.000000	6.903108	-0.049747	NaN	0.000000	0.001516	0.001740	28.0824	0.094291	0.001913	49.2885	-147.352	-164.093	-0.050375	0.901296	-0.264503	-0.265813	-0.049747	49.2885	-0.263746	-1337.32	3.719895E-5	NaN
609	1.000000	0.912619	7.37101e+06	-46639.1	1005.82	-29768.5	0.000000	0.000000	6.913121	-0.068242	NaN	0.000000	0.001527	0.001727	28.0819	0.017571	0.001883	9.332884	-11.1616	16.6182	-0.003866	0.911260	-0.254490	-0.255849	-0.068242	9.332884	-0.249006	-793.558	8.599501E-5	NaN
609	1.000000	0.922596	7.37101e+06	-46639.1	1005.82	-29768.5	0.000000	0.000000	6.923100	-0.028972	NaN	0.000000	0.001528	0.001749	28.0821	0.056145	0.001958	28.6706	-43.1798	-164.381	-0.003146	0.921250	-0.244512	-0.245858	-0.028972	28.6706	-0.243754	-657.78	4.404436E-5	NaN
609	1.000000	0.932623	7.37101e+06	-46639.1	1005.82	-29768.5	0.000000	0.000000	6.933123	-0.102104	NaN	0.000000	0.001567	0.001707	28.0819	0.188663	0.001967	95.9004	41.2382	10.741	-0.076293	0.931254	-0.234486	-0.235855	-0.102104	95.9004	-0.233687	-457.745	0.000223	NaN
609	1.000000	0.942611	7.37101e+06	-46639.1	1005.82	-29768.5	0.000000	0.000000	6.943116	0.023074	NaN	0.000000	0.001587	0.001796	28.0825	0.103602	0.001901	54.4992	70.9542	-164.965	-0.009367	0.941342	-0.224497	-0.225767	0.023074	54.4992	-0.224815	-331.432	-6.962031E-5	NaN
609	1.000000	0.952622	7.37101e+06	-46639.1	1005.82	-29768.5	0.000000	0.000000	6.953124	-0.053140	NaN	0.000000	0.001593	0.001771	28.0826	0.139762	0.001922	72.7278	-110.577	14.422	-0.052734	0.951272	-0.214487	-0.215837	-0.053140	72.7278	-0.213939	-222.039	0.000239	NaN
609	1.000000	0.962632	7.37101e+06	-46639.1	1005.82	-29768.5	0.000000	0.000000	6.963135	-0.030308	NaN	0.000000	0.001613	0.001732	28.0833	0.040083	0.001991	20.1285	-179.563	-166.785	0.006875	0.961333	-0.204477	-0.205776	-0.030308	20.1285	-0.203348	-149.477	0.000203	NaN
609	1.000000	0.972638	7.37101e+06	-46639.1	1005.82	-29768.5	0.000000	0.000000	6.973141	-0.031485	NaN	0.000000	0.001638	0.001771	28.0835	0.091850	0.001980	46.3885	-158.985	12.6848	-0.083874	0.971301	-0.194470	-0.195808	-0.031485	46.3885	-0.193961	-104.707	0.000301	NaN
609	1.000000	0.982655	7.37101e+06	-46639.1	1005.82	-29768.5	0.000000	0.000000	6.983160	0.010426	NaN	0.000000	0.001640	0.001739	28.0831	0.081905	0.002039	40.1757	59.9322	-165.888	-0.015028	0.981311	-0.184453	-0.185798	0.010426	40.1757	-0.184648	-73.1468	-0.000143	NaN
609	1.000000	0.992641	7.37101e+06	-46639.1	1005.82	-29768.5	0.000000	0.000000	6.993145	-0.005776	NaN	0.000000	0.001657	0.001740	28.0836	0.082294	0.002098	39.2207	-22.3331	12.151	0.118163	0.991323	-0.174467	-0.175785	-0.005776	39.2207	-0.174357	-48.8566	0.000118	NaN
609	1.000000	1.002629	7.37101e+06	-46639.1	1005.82	-29768.5	0.000000	0.000000	7.003130	-0.071285	NaN	0.000000	0.001648	0.001777	28.0833	0.065530	0.002007	32.6499	178.561	-163.679	-0.077626	1.001383	-0.164480	-0.165725	-0.071285	32.6499	-0.162842	-30.7837	0.002316	NaN
609	1.000000	1.012595	7.37101e+06	-46639.1	1005.82	-29768.5	0.000000	0.000000	7.013095	-0.098446	NaN	0.000000	0.001611	0.001734	28.0836	0.029190	0.001945	15.0102	-46.2749	12.5153	-0.099108	1.011236	-0.154514	-0.155873	-0.098446	15.0102	-0.149595	-17.8078	0.005528	NaN
609	1.000000	1.022638	7.37101e+06	-46639.1	1005.82	-29768.5	0.000000	0.000000	7.023144	0.038979	NaN	0.000000	0.001602	0.001774	28.0834	0.089769	0.001998	44.9297	-54.2683	-167.612	-0.071293	1.021324	-0.144471	-0.145785	0.038979	44.9297	-0.145121	-14.7371	-0.002645	NaN
609	1.000000	1.032649	7.37101e+06	-46639.1	1005.82	-29768.5	0.000000	0.000000	7.033151	-0.038469	NaN	0.000000	0.001589	0.001741	28.0835	0.093953	0.001857	50.6051	29.3083	11.4266	-0.003194	1.031276	-0.134460	-0.135833	-0.038469	50.6051	-0.133890	-9.058498	0.004247	NaN
609	1.000000	1.042657	7.37101e+06	-46639.1	1005.82	-29768.5	0.000000	0.000000	7.043159	-0.047861	NaN	0.000000	0.001607	0.001744	28.0835	0.117976	0.002014	58.5831	-69.7255	-165.389	0.006397	1.041397	-0.124452	-0.125712	-0.047861	58.5831	-0.123839	-5.767356	0.008299	NaN
609	1.000000	1.052655	7.37101e+06	-46639.1	1005.82	-29768.5	0.000000	0.000000	7.053157	-0.061689	NaN	0.000000	0.001553	0.001750	28.0834	0.064951	0.002143	30.3151	42.9248	13.1418	-0.042445	1.051289	-0.114454	-0.115820	-0.061689	30.3151	-0.112928	-3.460903	0.017825	NaN
609	1.000000	1.062657	7.37101e+06	-46639.1	1005.82	-29768.5	0.000000	0.000000	7.063157	-0.097818	NaN	0.000000	0.001585	0.001787	28.0833	0.038976	0.002081	18.7266	50.8654	-166.814	-0.103757	1.061379	-0.104452	-0.105729	-0.097818	18.7266	-0.100534	-1.877563	0.052098	NaN
609	1.000000	1.072685	7.37101e+06	-46639.1	1005.82	-29768.5	0.000000	0.000000	7.073189	-0.020640	NaN	0.000000	0.001616	0.001775	28.0834	0.152726	0.002010	75.9776	-15.3438	13.4622	0.003423	1.071290	-0.094423	-0.095819	-0.020640	75.9776	-0.094220	-1.353928	0.015244	NaN
609	1.000000	1.082664	7.37101e+06	-46639.1	1005.82	-29768.5	0.000000	0.000000	7.083169	0.034474	NaN	0.000000	0.001602	0.001753	28.0835	0.037458	0.001988	18.8427	87.2568	-165.197	-0.014189	1.081354	-0.084445	-0.085754	0.034474	18.8427	-0.085817	-0.859814	-0.040095	NaN
609	1.000000	1.092671	7.37101e+06	-46639.1	1005.82	-29768.5	0.000000	0.000000	7.093170	-0.107325	NaN	0.000000	0.001624	0.001767	28.0822	0.077435	0.002041	37.9435	-165.764	15.9932	-0.082438	1.091316	-0.074438	-0.075793	-0.107325	37.9435	-0.072317	-0.393053	0.273055	NaN
609	1.000000	1.102682	7.37101e+06	-46639.1	1005.82	-29768.5	0.000000	0.000000	7.103184	-0.073740	NaN	0.000000	0.001625	0.001757	28.0821	0.063926	0.002056	31.0953	166.656	-163.259	-0.051132	1.101432	-0.064426	-0.065676	-0.073740	31.0953	-0.062648	-0.214187	0.344280	NaN
609	1.000000	1.112713	7.37101e+06	-46639.1	1005.82	-29768.5	0.000000	0.000000	7.113213	-0.114528	NaN	0.000000	0.001651	0.001728	28.0824	0.085868	0.002116	40.5781	-138.666	15.1436	0.003583	1.111287	-0.054395	-0.055822	-0.114528	40.5781	-0.052279	-0.106866	1.071692	NaN
609	1.000000	1.122691	7.37101e+06	-46639.1	1005.82	-29768.5	0.000000	0.000000	7.123195	-0.012767	NaN	0.000000	0.001542	0.001755	28.0823	0.019607	0.001928	10.1714	-46.8351	-161.557	-0.041221	1.121340	-0.044417	-0.045769	-0.012767	10.1714	-0.043476	-0.057727	0.221156	NaN
609	1.000000	1.132680	7.37101e+06	-46639.1	1005.82	-29768.5	0.000000	0.000000	7.133180	-0.106063	NaN	0.000000	0.001500	0.001726	28.0821	0.035240	0.001932	18.2392	-29.9702	15.7669	-0.118640	1.131312	-0.034429	-0.035797	-0.106063	18.2392	-0.030067	-0.023113	4.588971	NaN
609	1.000000	1.142690	7.37101e+06	-46639.1	1005.82	-29768.5	0.000000	0.000000	7.143193	-0.024901	NaN	0.000000	0.001563	0.001711	28.0823	0.076505	0.001914	39.9632	69.2693	-163.41	-0.064857	1.141383	-0.024419	-0.025726	-0.024901	39.9632	-0.023952	-0.015845	1.571513	NaN
609	1.000000	1.152700	7.37101e+06	-46639.1	1005.82	-29768.5	0.000000	0.000000	7.153203	-0.027375	NaN	0.000000	0.001542	0.001742	28.0821	0.113696	0.001941	58.5646	-4.067548	14.2342	-0.027575	1.151362	-0.014409	-0.015746	-0.027375	58.5646	-0.014058	-0.008718	3.140269	NaN
609	1.000000	1.162702	7.37101e+06	-46639.1	1005.82	-29768.5	0.000000	0.000000	7.163208	0.046943	NaN	0.000000	0.001547	0.001748	28.0824	0.163968	0.001953	83.9735	-2.127258	-164.481	-0.012044	1.161418	-0.004407	-0.005691	0.046943	83.9735	-0.004826	-0.003307	-14.1952	NaN
609	2.000000	1.171720	7.37101e+06	-46639.1	1005.82	-29768.5	0.000000	0.000000	7.172574	8.494619	NaN	0.000000	0.001551	0.001755	28.0822	8.727289	0.001701	5130.11	9.677443	7.275108	8.001141	1.171192	0.004611	0.004083	8.494619	5130.11	0.003370	0.002693	3153.92	90313.7
609	2.000000	1.174286	7.37101e+06	-46639.1	1005.82	-29768.5	0.000000	0.000000	7.175273	11.7402	NaN	0.000000	0.001540	0.001738	28.0823	11.1941	0.001669	6707.66	7.582988	-173.127	11.6327	1.173974	0.007177	0.006866	11.7402	6707.66	0.005864	0.004936	2378.43	87227.3
609	2.000000	1.176763	7.37101e+06	-46639.1	1005.82	-29768.5	0.000000	0.000000	7.177929	16.0935	NaN	0.000000	0.001505	0.001737	28.0822	14.4351	0.001707	8457.69	3.860064	8.033826	15.5871	1.176425	0.009654	0.009316	16.0935	8457.69	0.008227	0.007277	2211.53	90582.9
609	2.000000	1.179246	7.37101e+06	-46639.1	1005.82	-29768.5	0.000000	0.000000	7.180619	21.1389	NaN	0.000000	0.001510	0.001773	28.0823	18.0005	0.001677	10733.5	6.303243	-177.823	20.189	1.178947	0.012137	0.011838	21.1389	10733.5	0.010660	0.009924	2129.99	98437.6
609	2.000000	1.181771	7.37101e+06	-46639.1	1005.82	-29768.5	0.000000	0.000000	7.183314	25.2734	NaN	0.000000	0.001509	0.001752	28.0822	19.5774	0.001980	9887.26	7.011733	6.468687	26.1206	1.181332	0.014663	0.014224	25.2734	9887.26	0.012745	0.012395	2038.96	81137.6
609	2.000000	1.184198	7.37101e+06	-46639.1	1005.82	-29768.5	0.000000	0.000000	7.185984	31.1917	NaN	0.000000	0.001508	0.001745	28.0821	21.4292	0.001898	11288.9	4.264888	-172.546	31.0154	1.183809	0.017089	0.016701	31.1917	11288.9	0.015017	0.015308	2037.61	83361.4
609	2.000000	1.186664	7.37101e+06	-46639.1	1005.82	-29768.5	0.000000	0.000000	7.188681	36.7937	NaN	0.000000	0.001516	0.001745	28.0836	24.7284	0.001779	13901.2	5.173474	2.142077	34.4892	1.186352	0.019556	0.019244	36.7937	13901.2	0.017571	0.018868	1950.07	92462.3
609	2.000000	1.189190	7.37101e+06	-46639.1	1005.82	-29768.5	0.000000	0.000000	7.191399	41.4688	NaN	0.000000	0.001515	0.001740	28.0834	27.3739	0.001750	15644.6	6.863197	-179.804	41.5259	1.188915	0.022082	0.021807	41.4688	15644.6	0.020094	0.022690	1827.66	94890.7
609	2.000000	1.191717	7.37101e+06	-46639.1	1005.82	-29768.5	0.000000	0.000000	7.194292	50.377	NaN	0.000000	0.001526	0.001757	28.0836	29.8157	0.001971	15130.7	8.612095	-0.988563	47.6612	1.191372	0.024608	0.024264	50.377	15130.7	0.022111	0.025969	1939.91	85784.4
609	2.000000	1.194182	7.37101e+06	-46639.1	1005.82	-29768.5	0.000000	0.000000	7.196919	54.3173	NaN	0.000000	0.001531	0.001808	28.0836	32.1143	0.001920	16723.9	7.587395	179.186	53.1327	1.193904	0.027074	0.026796	54.3173	16723.9	0.024638	0.030360	1789.12	87692.3
609	2.000000	1.196724	7.37101e+06	-46639.1	1005.82	-29768.5	0.000000	0.000000	7.199869	64.2169	NaN	0.000000	0.001525	0.001762	28.0844	34.5511	0.001679	20574.4	4.659391	-1.196731	62.9901	1.196264	0.029616	0.029155	64.2169	20574.4	0.027275	0.035284	1819.98	100071
609	2.000000	1.199218	7.37101e+06	-46639.1	1005.82	-29768.5	0.000000	0.000000	7.202685	72.0794	NaN	0.000000	0.001529	0.001788	28.0835	37.5431	0.001745	21517.7	3.251016	-179.447	72.3426	1.198891	0.032109	0.031783	72.0794	21517.7	0.029597	0.039912	1805.95	98404.8
609	2.000000	1.201662	7.37101e+06	-46639.1	1005.82	-29768.5	0.000000	0.000000	7.205638	84.4513	NaN	0.000000	0.001545	0.001775	28.0836	40.0292	0.001889	21192.5	5.709793	-0.718048	82.0976	1.201289	0.034554	0.034181	84.4513	21192.5	0.031565	0.044050	1917.17	92253.4
609	2.000000	1.204129	7.37101e+06	-46639.1	1005.82	-29768.5	0.000000	0.000000	7.208360	90.6385	NaN	0.000000	0.001579	0.001772	28.0834	41.4744	0.001865	22235.2	0.857652	-176.813	89.1431	1.203825	0.037021	0.036716	90.6385	22235.2	0.033964	0.049360	1836.27	91438
609	2.000000	1.206666	7.37101e+06	-46639.1	1005.82	-29768.5	0.000000	0.000000	7.211399	102.852	NaN	0.000000	0.001538	0.001763	28.0836	43.9168	0.001851	23731.6	5.094560	-1.679289	100.211	1.206263	0.039557	0.039154	102.852	23731.6	0.036307	0.054833	1875.74	92593.5
609	2.000000	1.209102	7.37101e+06	-46639.1	1005.82	-29768.5	0.000000	0.000000	7.214253	113.028	NaN	0.000000	0.001516	0.001754	28.0834	46.7364	0.001833	25501.1	5.765394	176.692	108.925	1.208826	0.041994	0.041718	113.028	25501.1	0.038669	0.060635	1864.07	94617.3
609	2.000000	1.211696	7.37101e+06	-46639.1	1005.82	-29768.5	0.000000	0.000000	7.217319	124.501	NaN	0.000000	0.001553	0.001760	28.0834	48.877	0.001889	25878.9	7.089505	-4.043411	122.535	1.211254	0.044588	0.044145	124.501	25878.9	0.040979	0.066584	1869.84	91629.3
609	2.000000	1.214199	7.37101e+06	-46639.1	1005.82	-29768.5	0.000000	0.000000	7.220254	135.015	NaN	0.000000	0.001557	0.001766	28.0834	50.8617	0.001806	28161.8	7.707143	174.397	135.899	1.213765	0.047090	0.046656	135.015	28161.8	0.043495	0.073371	1840.16	94988.4
609	2.000000	1.216664	7.37101e+06	-46639.1	1005.82	-29768.5	0.000000	0.000000	7.223279	148.638	NaN	0.000000	0.001553	0.001754	28.0831	53.762	0.001793	29981.5	7.810721	-6.497274	146.136	1.216218	0.049556	0.049110	148.638	29981.5	0.045837	0.079983	1858.38	96856.5
609	2.000000	1.219132	7.37101e+06	-46639.1	1005.82	-29768.5	0.000000	0.000000	7.226201	159.679	NaN	0.000000	0.001537	0.001738	28.0823	56.0573	0.001884	29754.4	2.755618	177.97	158.32	1.218898	0.052023	0.051789	159.679	29754.4	0.047998	0.086327	1849.7	92523.2
609	2.000000	1.221667	7.37101e+06	-46639.1	1005.82	-29768.5	0.000000	0.000000	7.229314	173.751	NaN	0.000000	0.001537	0.001745	28.0818	57.8695	0.001908	30327.6	7.006740	-5.520020	170.694	1.221218	0.054558	0.054109	173.751	30327.6	0.050261	0.093222	1863.84	90751.2
609	2.000000	1.224183	7.37101e+06	-46639.1	1005.82	-29768.5	0.000000	0.000000	7.232263	184.261	NaN	0.000000	0.001519	0.001753	28.0823	59.8049	0.001725	34667.7	4.272694	175.531	184.548	1.223894	0.057075	0.056786	184.261	34667.7	0.053089	0.102198	1802.97	99077.9
609	2.000000	1.226631	7.37101e+06	-46639.1	1005.82	-29768.5	0.000000	0.000000	7.235245	197.289	NaN	0.000000	0.001551	0.001763	28.0821	62.8327	0.001833	34280.5	2.831203	-2.833416	194.839	1.226357	0.059522	0.059248	197.289	34280.5	0.055206	0.109180	1807.01	94787.1
609	2.000000	1.229129	7.37101e+06	-46639.1	1005.82	-29768.5	0.000000	0.000000	7.238416	213.641	NaN	0.000000	0.001575	0.001769	28.082	65.1315	0.001767	36853.7	1.516302	177.762	212.346	1.228746	0.062021	0.061637	213.641	36853.7	0.057673	0.117596	1816.75	98188
609	2.000000	1.231741	7.37101e+06	-46639.1	1005.82	-29768.5	0.000000	0.000000	7.241612	227.831	NaN	0.000000	0.001565	0.001738	28.0819	68.263	0.001724	39594	10.2118	-10.1036	231.191	1.231181	0.064633	0.064072	227.831	39594	0.060317	0.126948	1794.68	101529
609	2.000000	1.234087	7.37101e+06	-46639.1	1005.82	-29768.5	0.000000	0.000000	7.244600	243.45	NaN	0.000000	0.001557	0.001740	28.0821	69.9496	0.001786	39162.1	8.336663	170.6	240.37	1.233812	0.066978	0.066704	243.45	39162.1	0.062316	0.134244	1813.49	97654.5
609	2.000000	1.236604	7.37101e+06	-46639.1	1005.82	-29768.5	0.000000	0.000000	7.247443	251.392	NaN	0.000000	0.001579	0.001746	28.082	71.9837	0.001709	42116.1	1.249030	-3.288656	247.39	1.236306	0.069495	0.069197	251.392	42116.1	0.065018	0.144416	1740.74	101254
609	2.000000	1.239145	7.37101e+06	-46639.1	1005.82	-29768.5	0.000000	0.000000	7.250851	272.477	NaN	0.000000	0.001576	0.001800	28.0821	76.0108	0.001799	42248.6	2.027750	175.904	271.011	1.238924	0.072036	0.071815	272.477	42248.6	0.067199	0.152881	1782.28	98720.6
609	2.000000	1.241549	7.37101e+06	-46639.1	1005.82	-29768.5	0.000000	0.000000	7.254098	292.994	NaN	0.000000	0.001560	0.001757	28.0819	77.5492	0.001798	43126.2	2.998403	-4.817441	285.19	1.241217	0.074440	0.074108	292.994	43126.2	0.069345	0.161432	1814.97	98066.1
609	2.000000	1.244097	7.37101e+06	-46639.1	1005.82	-29768.5	0.000000	0.000000	7.257315	309.258	NaN	0.000000	0.001564	0.001784	28.082	80.5816	0.001933	41689.5	5.063173	173.755	306.773	1.243735	0.076989	0.076627	309.258	41689.5	0.071425	0.169933	1819.88	92397.6
609	2.000000	1.246563	7.37101e+06	-46639.1	1005.82	-29768.5	0.000000	0.000000	7.260667	330.808	NaN	0.000000	0.001552	0.001767	28.0821	82.9517	0.001902	43607.7	6.853716	-8.264838	326.118	1.246194	0.079455	0.079085	330.808	43607.7	0.073765	0.179741	1840.47	93975
609	2.000000	1.249079	7.37101e+06	-46639.1	1005.82	-29768.5	0.000000	0.000000	7.263703	343.456	NaN	0.000000	0.001523	0.001758	28.082	83.9801	0.001784	47080.2	3.484137	174.427	342.861	1.248790	0.081971	0.081681	343.456	47080.2	0.076499	0.191526	1793.26	98287.3
609	2.000000	1.251598	7.37101e+06	-46639.1	1005.82	-29768.5	0.000000	0.000000	7.267151	366.064	NaN	0.000000	0.001544	0.001773	28.0823	85.0581	0.001690	50329.7	2.002759	-4.270224	361.658	1.251289	0.084489	0.084181	366.064	50329.7	0.079034	0.202767	1805.34	102117
609	2.000000	1.254099	7.37101e+06	-46639.1	1005.82	-29768.5	0.000000	0.000000	7.270507	386.855	NaN	0.000000	0.001508	0.001782	28.0831	87.7589	0.001720	51029.8	4.698093	172.446	386.766	1.253781	0.086991	0.086672	386.855	51029.8	0.081305	0.213091	1815.45	100998
609	2.000000	1.256625	7.37101e+06	-46639.1	1005.82	-29768.5	0.000000	0.000000	7.273544	399.283	NaN	0.000000	0.001551	0.001755	28.0835	91.0058	0.001775	51268.9	3.036665	-6.185437	397.949	1.256348	0.089516	0.089240	399.283	51268.9	0.083675	0.224122	1781.54	98942.9
609	2.000000	1.259064	7.37101e+06	-46639.1	1005.82	-29768.5	0.000000	0.000000	7.277042	425.049	NaN	0.000000	0.001532	0.001742	28.0832	95.2061	0.001844	51618	6.124322	171.054	421.811	1.258733	0.091955	0.091625	425.049	51618	0.085779	0.234134	1815.41	97463.6
609	2.000000	1.261564	7.37101e+06	-46639.1	1005.82	-29768.5	0.000000	0.000000	7.280510	448.598	NaN	0.000000	0.001541	0.001750	28.0835	97.0888	0.001852	52414.4	9.013096	-12.1199	442.706	1.261190	0.094455	0.094081	448.598	52414.4	0.088036	0.245098	1830.28	96728.4
609	2.000000	1.264044	7.37102e+06	-46639.1	1005.82	-29768.5	0.000000	0.000000	7.283855	469.619	NaN	0.000000	0.001519	0.001730	28.0832	98.2766	0.001838	53463.3	6.268055	170.643	465.333	1.263799	0.096936	0.096691	469.619	53463.3	0.090348	0.256571	1830.36	96432.8
609	2.000000	1.266586	7.37102e+06	-46639.1	1005.82	-29768.5	0.000000	0.000000	7.287264	490.72	NaN	0.000000	0.001539	0.001746	28.0832	101.184	0.001780	56829.9	6.067903	-9.149841	488.173	1.266069	0.099477	0.098960	490.72	56829.9	0.093001	0.270043	1817.19	99915.7
609	2.000000	1.269000	7.37102e+06	-46639.1	1005.82	-29768.5	0.000000	0.000000	7.290423	508.852	NaN	0.000000	0.001492	0.001739	28.0831	104.063	0.001906	54609.6	5.224813	171.633	501.825	1.268721	0.101891	0.101613	508.852	54609.6	0.094903	0.279896	1818	94306.9
609	2.000000	1.270038	7.37102e+06	-46639.1	1005.82	-29768.5	0.000000	0.000000	7.291534	510.619	NaN	0.000000	0.001530	0.001697	28.0832	103.821	0.001844	56300.5	2.391620	173.733	506.28	1.269918	0.102929	0.102809	510.619	56300.5	0.096127	0.286325	1783.35	96129.2