File: remote_trans/data/nanoindenter/0828-1/data/Data_2025-08-06,11h17m57s/2025-07-22_16-23-58_1_471.txt
2025-07-22, 16:23:58, 1
Index	Phase	Displacement	Time	Pos X	Pos Y	Pos Z	Rot A	Rot B	Piezo Z	Force A	Force B	Gripper	Voltage A	Voltage B	Temperature	Amplitude force	Amplitude pos	Stiffness	Phase shift	Phase excitation	Force A raw	Displacement raw	HMax	HMax raw	Real Force	Real Stiffness	Contact Depth	Area	Hardness	Reduced Mod.
[#]	[#]	[um]	[s]	[um]	[um]	[um]	[m°]	[m°]	[um]	[uN]	[uN]	[V]	[V]	[V]	[°C]	[uN]	[um]	[N/m]	[°]	[°]	[uN]	[um]	[um]	[um]	[uN]	[N/m]	[um]	[um^2]	[MPa]	[MPa]
471	1.000000	0.002414	7.36966e+06	-53539.1	1005.82	-29746.1	0.000000	0.000000	6.002799	0.064793	NaN	0.000000	0.001598	0.001713	28.0819	0.051649	0.000819	63.0647	-130.089	-163.324	0.102523	0.001128	-1.062951	-1.064238	0.064793	63.0647	-1.063722	-1.632437E+14	-3.969093E-16	NaN
471	1.000000	0.010383	7.36966e+06	-53539.1	1005.82	-29746.1	0.000000	0.000000	6.010767	0.044030	NaN	0.000000	0.001627	0.001700	28.0819	0.056951	0.000923	61.7268	-148.123	-169.204	0.061336	0.009060	-1.054983	-1.056306	0.044030	61.7268	-1.055518	-1.266425E+14	-3.476702E-16	NaN
471	1.000000	0.018384	7.36966e+06	-53539.1	1005.82	-29746.1	0.000000	0.000000	6.018767	0.027592	NaN	0.000000	0.001606	0.001686	28.0817	0.100478	0.001778	56.5253	-163.588	-167.818	-0.032232	0.017006	-1.046981	-1.048360	0.027592	56.5253	-1.047348	-9.834601E+13	-2.805655E-16	NaN
471	1.000000	0.026408	7.36966e+06	-53539.1	1005.82	-29746.1	0.000000	0.000000	6.026789	-0.013860	NaN	0.000000	0.001599	0.001700	28.0818	0.117356	0.001810	64.8322	108.937	-161.873	-0.030530	0.025036	-1.038957	-1.040330	-0.013860	64.8322	-1.038797	-7.547298E+13	1.836417E-16	NaN
471	1.000000	0.034339	7.36966e+06	-53539.1	1005.82	-29746.1	0.000000	0.000000	6.034723	0.061513	NaN	0.000000	0.001561	0.001715	28.0818	0.081612	0.001913	42.6558	105.046	-163.74	0.105337	0.033030	-1.031027	-1.032336	0.061513	42.6558	-1.032108	-6.135292E+13	-1.002615E-15	NaN
471	1.000000	0.042388	7.36966e+06	-53539.1	1005.82	-29746.1	0.000000	0.000000	6.042770	-0.001008	NaN	0.000000	0.001535	0.001698	28.0818	0.008713	0.001846	4.719441	160.035	-169.056	0.044745	0.041060	-1.022978	-1.024306	-0.001008	4.719441	-1.022817	-4.601080E+13	2.190699E-17	NaN
471	1.000000	0.050374	7.36966e+06	-53539.1	1005.82	-29746.1	0.000000	0.000000	6.050757	0.038300	NaN	0.000000	0.001549	0.001679	28.0819	0.066749	0.002105	31.708	-136.761	-164.356	0.045864	0.049113	-1.014992	-1.016253	0.038300	31.708	-1.015898	-3.713239E+13	-1.031442E-15	NaN
471	1.000000	0.058361	7.36966e+06	-53539.1	1005.82	-29746.1	0.000000	0.000000	6.058743	-0.001817	NaN	0.000000	0.001508	0.001677	28.0842	0.114783	0.002070	55.4416	-177.165	-165.455	0.003397	0.057065	-1.007005	-1.008301	-0.001817	55.4416	-1.006980	-2.816672E+13	6.451311E-17	NaN
471	1.000000	0.066386	7.36966e+06	-53539.1	1005.82	-29746.1	0.000000	0.000000	6.066765	-0.060708	NaN	0.000000	0.001516	0.001709	28.0853	0.060310	0.002016	29.9083	163.819	-166.161	0.044825	0.065083	-0.998980	-1.000283	-0.060708	29.9083	-0.997458	-2.096719E+13	2.895393E-15	NaN
471	1.000000	0.074385	7.36966e+06	-53539.1	1005.82	-29746.1	0.000000	0.000000	6.074769	0.053619	NaN	0.000000	0.001547	0.001698	28.083	0.100706	0.001960	51.3778	77.9392	-169.394	0.096939	0.073037	-0.990981	-0.992329	0.053619	51.3778	-0.991763	-1.757356E+13	-3.051107E-15	NaN
471	1.000000	0.082395	7.36966e+06	-53539.1	1005.82	-29746.1	0.000000	0.000000	6.082775	-0.029196	NaN	0.000000	0.001552	0.001682	28.0825	0.064369	0.001981	32.4958	-125.959	-161.875	0.043728	0.081011	-0.982971	-0.984355	-0.029196	32.4958	-0.982297	-1.310272E+13	2.228276E-15	NaN
471	1.000000	0.090407	7.36966e+06	-53539.1	1005.82	-29746.1	0.000000	0.000000	6.090790	0.019616	NaN	0.000000	0.001515	0.001738	28.0818	0.066585	0.001955	34.0656	-95.6039	-163.831	0.043520	0.089072	-0.974958	-0.976293	0.019616	34.0656	-0.975390	-1.057551E+13	-1.854843E-15	NaN
471	1.000000	0.098380	7.36966e+06	-53539.1	1005.82	-29746.1	0.000000	0.000000	6.098764	0.044237	NaN	0.000000	0.001549	0.001718	28.0808	0.051845	0.002039	25.4231	-179.923	-168.795	0.086468	0.097050	-0.966986	-0.968315	0.044237	25.4231	-0.968291	-8.484460E+12	-5.213827E-15	NaN
471	1.000000	0.106383	7.36966e+06	-53539.1	1005.82	-29746.1	0.000000	0.000000	6.106769	0.096170	NaN	0.000000	0.001525	0.001705	28.0807	0.066812	0.001992	33.5339	44.408	-165.26	0.101157	0.105082	-0.958983	-0.960284	0.096170	33.5339	-0.961133	-6.794389E+12	-1.415439E-14	NaN
471	1.000000	0.114397	7.36966e+06	-53539.1	1005.82	-29746.1	0.000000	0.000000	6.114781	0.058732	NaN	0.000000	0.001566	0.001739	28.0807	0.107197	0.002000	53.6038	-103.819	-165.193	0.038988	0.113014	-0.950969	-0.952352	0.058732	53.6038	-0.951791	-5.083656E+12	-1.155316E-14	NaN
471	1.000000	0.122407	7.36966e+06	-53539.1	1005.82	-29746.1	0.000000	0.000000	6.122790	0.041395	NaN	0.000000	0.001550	0.001680	28.0807	0.105712	0.001959	53.9696	-44.6518	-164.904	0.066683	0.121118	-0.942959	-0.944248	0.041395	53.9696	-0.943534	-3.933813E+12	-1.052297E-14	NaN
471	1.000000	0.130346	7.36966e+06	-53539.1	1005.82	-29746.1	0.000000	0.000000	6.130728	0.027090	NaN	0.000000	0.001572	0.001696	28.0802	0.086433	0.002059	41.979	86.0921	-165.333	0.011267	0.129095	-0.935020	-0.936271	0.027090	41.979	-0.935504	-3.065337E+12	-8.837517E-15	NaN
471	1.000000	0.138374	7.36966e+06	-53539.1	1005.82	-29746.1	0.000000	0.000000	6.138756	0.017703	NaN	0.000000	0.001531	0.001659	28.0807	0.043160	0.002020	21.37	115.568	-165.83	0.032959	0.137059	-0.926992	-0.928307	0.017703	21.37	-0.927613	-2.398721E+12	-7.380206E-15	NaN
471	1.000000	0.146401	7.36966e+06	-53539.1	1005.82	-29746.1	0.000000	0.000000	6.146783	0.021135	NaN	0.000000	0.001552	0.001688	28.0805	0.066075	0.002081	31.746	76.1231	-166.204	-0.005810	0.145090	-0.918965	-0.920276	0.021135	31.746	-0.919464	-1.861963E+12	-1.135081E-14	NaN
471	1.000000	0.154431	7.36966e+06	-53539.1	1005.82	-29746.1	0.000000	0.000000	6.154813	0.033413	NaN	0.000000	0.001582	0.001769	28.0805	0.066203	0.002069	31.9942	-164.644	-166.093	0.027582	0.153106	-0.910935	-0.912260	0.033413	31.9942	-0.911719	-1.463439E+12	-2.283168E-14	NaN
471	1.000000	0.162416	7.36966e+06	-53539.1	1005.82	-29746.1	0.000000	0.000000	6.162800	0.063937	NaN	0.000000	0.001599	0.001683	28.0804	0.126398	0.001832	69.0041	-33.6799	-167.849	0.065862	0.161045	-0.902950	-0.904321	0.063937	69.0041	-0.903645	-1.138458E+12	-5.616087E-14	NaN
471	1.000000	0.170414	7.36966e+06	-53539.1	1005.82	-29746.1	0.000000	0.000000	6.170796	0.001955	NaN	0.000000	0.001545	0.001733	28.0806	0.043866	0.002036	21.5429	147.225	-163.936	0.007322	0.169083	-0.894952	-0.896283	0.001955	21.5429	-0.895020	-8.704888E+11	-2.245596E-15	NaN
471	1.000000	0.178397	7.36966e+06	-53539.1	1005.82	-29746.1	0.000000	0.000000	6.178779	0.031504	NaN	0.000000	0.001570	0.001716	28.0807	0.076679	0.001954	39.2427	168.38	-166.21	0.010788	0.177095	-0.886969	-0.888271	0.031504	39.2427	-0.887571	-6.903720E+11	-4.563382E-14	NaN
471	1.000000	0.186414	7.36966e+06	-53539.1	1005.82	-29746.1	0.000000	0.000000	6.186795	-0.018798	NaN	0.000000	0.001577	0.001721	28.0805	0.075924	0.002045	37.1206	-26.6402	-167.487	-0.043884	0.185095	-0.878952	-0.880271	-0.018798	37.1206	-0.878572	-5.216687E+11	3.603478E-14	NaN
471	1.000000	0.194423	7.36966e+06	-53539.1	1005.82	-29746.1	0.000000	0.000000	6.194807	0.047436	NaN	0.000000	0.001556	0.001703	28.0808	0.038047	0.002040	18.6471	0.342094	-165.284	0.036858	0.193158	-0.870943	-0.872208	0.047436	18.6471	-0.872851	-4.365244E+11	-1.086685E-13	NaN
471	1.000000	0.202426	7.36966e+06	-53539.1	1005.82	-29746.1	0.000000	0.000000	6.202811	0.065649	NaN	0.000000	0.001591	0.001698	28.0805	0.159700	0.001997	79.9568	152.117	-164.329	0.038423	0.201117	-0.862939	-0.864248	0.065649	79.9568	-0.863555	-3.267670E+11	-2.009047E-13	NaN
471	1.000000	0.210427	7.36966e+06	-53539.1	1005.82	-29746.1	0.000000	0.000000	6.210811	0.069096	NaN	0.000000	0.001542	0.001689	28.0809	0.066138	0.002054	32.1939	88.7477	-166.456	0.107485	0.209144	-0.854939	-0.856222	0.069096	32.1939	-0.856549	-2.626639E+11	-2.630568E-13	NaN
471	1.000000	0.218449	7.36966e+06	-53539.1	1005.82	-29746.1	0.000000	0.000000	6.218832	0.021052	NaN	0.000000	0.001525	0.001729	28.0808	0.084052	0.001927	43.6114	152.641	-167.162	-0.012479	0.217131	-0.846917	-0.848235	0.021052	43.6114	-0.847279	-1.967361E+11	-1.070070E-13	NaN
471	1.000000	0.226445	7.36966e+06	-53539.1	1005.82	-29746.1	0.000000	0.000000	6.226825	-0.030637	NaN	0.000000	0.001562	0.001734	28.0807	0.127676	0.001992	64.1054	166.419	-166.843	-0.049194	0.225095	-0.838921	-0.840271	-0.030637	64.1054	-0.838563	-1.499067E+11	2.043733E-13	NaN
471	1.000000	0.234467	7.36966e+06	-53539.1	1005.82	-29746.1	0.000000	0.000000	6.234851	0.052820	NaN	0.000000	0.001559	0.001731	28.0816	0.133774	0.002035	65.724	43.2716	-164.923	-0.013706	0.233102	-0.830899	-0.832264	0.052820	65.724	-0.831501	-1.202632E+11	-4.392007E-13	NaN
471	1.000000	0.242470	7.36966e+06	-53539.1	1005.82	-29746.1	0.000000	0.000000	6.242854	0.054320	NaN	0.000000	0.001536	0.001728	28.0819	0.020336	0.002038	9.979148	74.4601	-165.989	0.112752	0.241152	-0.822896	-0.824214	0.054320	9.979148	-0.826979	-1.044310E+11	-5.201477E-13	NaN
471	1.000000	0.250450	7.36966e+06	-53539.1	1005.82	-29746.1	0.000000	0.000000	6.250833	0.028777	NaN	0.000000	0.001587	0.001738	28.0823	0.051566	0.001863	27.682	-125.275	-166.814	0.049362	0.249128	-0.814916	-0.816238	0.028777	27.682	-0.815695	-7.342311E+10	-3.919292E-13	NaN
471	1.000000	0.258471	7.36966e+06	-53539.1	1005.82	-29746.1	0.000000	0.000000	6.258854	0.037212	NaN	0.000000	0.001582	0.001707	28.0818	0.150799	0.002013	74.9213	-21.101	-169.919	0.075323	0.257132	-0.806895	-0.808234	0.037212	74.9213	-0.807268	-5.642858E+10	-6.594459E-13	NaN
471	1.000000	0.266453	7.36966e+06	-53539.1	1005.82	-29746.1	0.000000	0.000000	6.266836	0.035645	NaN	0.000000	0.001579	0.001720	28.0822	0.037332	0.002109	17.705	18.3573	-169.567	0.090883	0.265178	-0.798913	-0.800188	0.035645	17.705	-0.800423	-4.556205E+10	-7.823346E-13	NaN
471	1.000000	0.274444	7.36966e+06	-53539.1	1005.82	-29746.1	0.000000	0.000000	6.274826	0.017140	NaN	0.000000	0.001544	0.001695	28.0823	0.009384	0.001867	5.025746	84.156	-167.155	-0.043574	0.273134	-0.790922	-0.792232	0.017140	5.025746	-0.793480	-3.667221E+10	-4.673799E-13	NaN
471	1.000000	0.282472	7.36966e+06	-53539.1	1005.82	-29746.1	0.000000	0.000000	6.282855	0.036373	NaN	0.000000	0.001579	0.001745	28.082	0.047218	0.002019	23.3892	105.921	-168.214	0.007550	0.281114	-0.782893	-0.784252	0.036373	23.3892	-0.784060	-2.731452E+10	-1.331636E-12	NaN
471	1.000000	0.290455	7.36966e+06	-53539.1	1005.82	-29746.1	0.000000	0.000000	6.290840	0.084111	NaN	0.000000	0.001618	0.001723	28.0822	0.088081	0.002084	42.2558	-16.0644	-166.089	0.139866	0.289146	-0.774911	-0.776220	0.084111	42.2558	-0.776404	-2.149599E+10	-3.912873E-12	NaN
471	1.000000	0.298481	7.36966e+06	-53539.1	1005.82	-29746.1	0.000000	0.000000	6.298862	0.008408	NaN	0.000000	0.001608	0.001725	28.0821	0.011564	0.001935	5.977883	-89.1468	-166.951	0.066670	0.297153	-0.766885	-0.768213	0.008408	5.977883	-0.767940	-1.649292E+10	-5.097922E-13	NaN
471	1.000000	0.306458	7.36966e+06	-53539.1	1005.82	-29746.1	0.000000	0.000000	6.306839	-0.007629	NaN	0.000000	0.001622	0.001713	28.0821	0.025693	0.002085	12.324	-48.4325	-165.501	-0.009477	0.305215	-0.758908	-0.760151	-0.007629	12.324	-0.758444	-1.224976E+10	6.228042E-13	NaN
471	1.000000	0.314477	7.36966e+06	-53539.1	1005.82	-29746.1	0.000000	0.000000	6.314856	-0.058442	NaN	0.000000	0.001545	0.001686	28.0821	0.065107	0.002058	31.6377	-10.6249	-166.141	-0.043569	0.313188	-0.750889	-0.752178	-0.058442	31.6377	-0.749503	-9.256708E+9	6.313496E-12	NaN
471	1.000000	0.322503	7.36966e+06	-53539.1	1005.82	-29746.1	0.000000	0.000000	6.322887	0.072522	NaN	0.000000	0.001567	0.001714	28.082	0.060843	0.001898	32.0636	-73.7826	-165.907	0.005168	0.321154	-0.742863	-0.744212	0.072522	32.0636	-0.744559	-7.927733E+9	-9.147914E-12	NaN
471	1.000000	0.330480	7.36966e+06	-53539.1	1005.82	-29746.1	0.000000	0.000000	6.330862	0.007854	NaN	0.000000	0.001566	0.001681	28.0823	0.111983	0.002015	55.5733	87.5089	-165.698	0.038465	0.329138	-0.734886	-0.736227	0.007854	55.5733	-0.734992	-5.872641E+9	-1.337329E-12	NaN
471	1.000000	0.338501	7.36966e+06	-53539.1	1005.82	-29746.1	0.000000	0.000000	6.338885	0.070131	NaN	0.000000	0.001551	0.001716	28.0825	0.097019	0.001994	48.6436	113.979	-164.753	0.107108	0.337200	-0.726865	-0.728166	0.070131	48.6436	-0.727946	-4.707808E+9	-1.489678E-11	NaN
471	1.000000	0.346502	7.36966e+06	-53539.1	1005.82	-29746.1	0.000000	0.000000	6.346884	0.000325	NaN	0.000000	0.001576	0.001698	28.0817	0.029034	0.001922	15.1078	19.1017	-166.202	0.080279	0.345199	-0.718863	-0.720167	0.000325	15.1078	-0.718880	-3.541533E+9	-9.188350E-14	NaN
471	1.000000	0.354489	7.36966e+06	-53539.1	1005.82	-29746.1	0.000000	0.000000	6.354869	-0.051170	NaN	0.000000	0.001611	0.001717	28.0822	0.069088	0.001978	34.9199	55.8971	-162.415	0.025960	0.353162	-0.710876	-0.712204	-0.051170	34.9199	-0.709777	-2.660787E+9	1.923114E-11	NaN
471	1.000000	0.362488	7.36966e+06	-53539.1	1005.82	-29746.1	0.000000	0.000000	6.362872	0.050310	NaN	0.000000	0.001572	0.001709	28.0821	0.060880	0.002035	29.9135	161.243	-164.061	0.036423	0.361153	-0.702877	-0.704213	0.050310	29.9135	-0.704139	-2.228660E+9	-2.257395E-11	NaN
471	1.000000	0.370468	7.36966e+06	-53539.1	1005.82	-29746.1	0.000000	0.000000	6.370854	0.092621	NaN	0.000000	0.001612	0.001764	28.082	0.134049	0.001987	67.4682	140.582	-165.181	0.056774	0.369162	-0.694897	-0.696204	0.092621	67.4682	-0.695927	-1.721479E+9	-5.380301E-11	NaN
471	1.000000	0.378513	7.36966e+06	-53539.1	1005.82	-29746.1	0.000000	0.000000	6.378897	0.041618	NaN	0.000000	0.001581	0.001724	28.0809	0.073469	0.002026	36.2638	27.373	-166.37	0.037586	0.377165	-0.686852	-0.688200	0.041618	36.2638	-0.687713	-1.329426E+9	-3.130552E-11	NaN
471	1.000000	0.386516	7.36966e+06	-53539.1	1005.82	-29746.1	0.000000	0.000000	6.386895	-0.051299	NaN	0.000000	0.001553	0.001709	28.0809	0.105374	0.002087	50.4945	55.4891	-167.921	-0.063542	0.385219	-0.678850	-0.680147	-0.051299	50.4945	-0.678088	-9.818803E+8	5.224546E-11	NaN
471	1.000000	0.394471	7.36966e+06	-53539.1	1005.82	-29746.1	0.000000	0.000000	6.394858	0.118584	NaN	0.000000	0.001567	0.001710	28.081	0.019673	0.001874	10.5001	57.8691	-165.067	0.117206	0.393162	-0.670895	-0.672203	0.118584	10.5001	-0.679365	-1.022157E+9	-1.160131E-10	NaN
471	1.000000	0.402530	7.36966e+06	-53539.1	1005.82	-29746.1	0.000000	0.000000	6.402909	-0.047341	NaN	0.000000	0.001584	0.001715	28.0809	0.090334	0.002014	44.8424	122.723	-165.434	-0.021188	0.401235	-0.662836	-0.664131	-0.047341	44.8424	-0.662045	-5.922043E+8	7.994023E-11	NaN
471	1.000000	0.410490	7.36966e+06	-53539.1	1005.82	-29746.1	0.000000	0.000000	6.410873	0.024340	NaN	0.000000	0.001546	0.001703	28.0808	0.026208	0.002060	12.721	-155.609	-164.092	0.006864	0.409184	-0.654875	-0.656182	0.024340	12.721	-0.656310	-4.942226E+8	-4.924901E-11	NaN
471	1.000000	0.418484	7.36966e+06	-53539.1	1005.82	-29746.1	0.000000	0.000000	6.418867	0.045023	NaN	0.000000	0.001536	0.001725	28.0809	0.080305	0.001950	41.1715	-179.216	-167.555	0.115682	0.417247	-0.646882	-0.648119	0.045023	41.1715	-0.647702	-3.766482E+8	-1.195360E-10	NaN
471	1.000000	0.426500	7.36966e+06	-53539.1	1005.82	-29746.1	0.000000	0.000000	6.426883	0.038897	NaN	0.000000	0.001516	0.001744	28.081	0.057299	0.002054	27.9018	123.818	-166.965	0.049752	0.425217	-0.638866	-0.640149	0.038897	27.9018	-0.639911	-2.944923E+8	-1.320823E-10	NaN
471	1.000000	0.434535	7.36966e+06	-53539.1	1005.82	-29746.1	0.000000	0.000000	6.434917	0.016097	NaN	0.000000	0.001528	0.001662	28.0807	0.073852	0.002079	35.5163	-77.0072	-162.645	0.058909	0.433255	-0.630831	-0.632111	0.016097	35.5163	-0.631171	-2.234114E+8	-7.205136E-11	NaN
471	1.000000	0.442534	7.36966e+06	-53539.1	1005.82	-29746.1	0.000000	0.000000	6.442917	0.038996	NaN	0.000000	0.001505	0.001737	28.0809	0.078555	0.002122	37.0265	-22.5771	-164.061	0.050251	0.441185	-0.622832	-0.624181	0.038996	37.0265	-0.623622	-1.759594E+8	-2.216205E-10	NaN
471	1.000000	0.450524	7.36966e+06	-53539.1	1005.82	-29746.1	0.000000	0.000000	6.450906	0.009853	NaN	0.000000	0.001578	0.001700	28.081	0.028645	0.002102	13.6294	-168.769	-164.825	0.048362	0.449243	-0.614841	-0.616122	0.009853	13.6294	-0.615384	-1.355703E+8	-7.268122E-11	NaN
471	1.000000	0.458534	7.36966e+06	-53539.1	1005.82	-29746.1	0.000000	0.000000	6.458918	0.074131	NaN	0.000000	0.001508	0.001739	28.081	0.059092	0.001905	31.0158	33.2	-162.216	0.004940	0.457265	-0.606832	-0.608101	0.074131	31.0158	-0.608625	-1.094436E+8	-6.773472E-10	NaN
471	1.000000	0.466538	7.36966e+06	-53539.1	1005.82	-29746.1	0.000000	0.000000	6.466921	0.030224	NaN	0.000000	0.001549	0.001707	28.081	0.036111	0.001998	18.0773	158.189	-167.621	0.002253	0.465233	-0.598827	-0.600132	0.030224	18.0773	-0.600081	-8.347997E+7	-3.620526E-10	NaN
471	1.000000	0.474544	7.36966e+06	-53539.1	1005.82	-29746.1	0.000000	0.000000	6.474930	0.107473	NaN	0.000000	0.001521	0.001695	28.0806	0.040943	0.002026	20.2098	111.026	-167.422	0.144812	0.473209	-0.590822	-0.592156	0.107473	20.2098	-0.594810	-7.062676E+7	-1.521706E-9	NaN
471	1.000000	0.482528	7.36966e+06	-53539.1	1005.82	-29746.1	0.000000	0.000000	6.482910	0.020263	NaN	0.000000	0.001556	0.001704	28.0809	0.035905	0.002061	17.4173	-28.3572	-163.265	0.073043	0.481200	-0.582838	-0.584166	0.020263	17.4173	-0.583711	-4.965132E+7	-4.080973E-10	NaN
471	1.000000	0.490527	7.36966e+06	-53539.1	1005.82	-29746.1	0.000000	0.000000	6.490912	0.092427	NaN	0.000000	0.001560	0.001703	28.0809	0.083984	0.002016	41.6535	-103.318	-168.844	0.049665	0.489202	-0.574839	-0.576164	0.092427	41.6535	-0.576503	-3.948702E+7	-2.340699E-9	NaN
471	1.000000	0.498570	7.36966e+06	-53539.1	1005.82	-29746.1	0.000000	0.000000	6.498952	0.007264	NaN	0.000000	0.001534	0.001701	28.0812	0.148771	0.002024	73.4858	126.238	-168.231	0.034172	0.497278	-0.566796	-0.568088	0.007264	73.4858	-0.566870	-2.906509E+7	-2.499071E-10	NaN
471	1.000000	0.506548	7.36966e+06	-53539.1	1005.82	-29746.1	0.000000	0.000000	6.506929	0.004842	NaN	0.000000	0.001525	0.001683	28.081	0.059692	0.001889	31.5968	-93.2478	-165.117	0.028998	0.505276	-0.558818	-0.560090	0.004842	31.5968	-0.558933	-2.257453E+7	-2.144929E-10	NaN
471	1.000000	0.514559	7.36966e+06	-53539.1	1005.82	-29746.1	0.000000	0.000000	6.514945	0.101079	NaN	0.000000	0.001504	0.001701	28.0821	0.043810	0.001951	22.4598	133.269	-169.042	0.013007	0.513250	-0.550807	-0.552116	0.101079	22.4598	-0.554182	-1.940285E+7	-5.209509E-9	NaN
471	1.000000	0.522563	7.36966e+06	-53539.1	1005.82	-29746.1	0.000000	0.000000	6.522942	-0.057655	NaN	0.000000	0.001531	0.001725	28.0822	0.068258	0.002052	33.2638	-174.703	-167.45	-0.038049	0.521264	-0.542803	-0.544102	-0.057655	33.2638	-0.541503	-1.294803E+7	4.452813E-9	NaN
471	1.000000	0.530551	7.36966e+06	-53539.1	1005.82	-29746.1	0.000000	0.000000	6.530936	0.074582	NaN	0.000000	0.001489	0.001743	28.0819	0.103769	0.001827	56.7862	103.095	-163.653	0.093493	0.529257	-0.534815	-0.536109	0.074582	56.7862	-0.535800	-1.079166E+7	-6.911054E-9	NaN
471	1.000000	0.538567	7.36966e+06	-53539.1	1005.82	-29746.1	0.000000	0.000000	6.538950	0.022748	NaN	0.000000	0.001516	0.001722	28.0823	0.051717	0.002082	24.8454	158.903	-169.463	0.039025	0.537270	-0.526798	-0.528095	0.022748	24.8454	-0.527485	-8.2726e+06	-2.749832E-9	NaN
471	1.000000	0.546590	7.36966e+06	-53539.1	1005.82	-29746.1	0.000000	0.000000	6.546972	-0.001312	NaN	0.000000	0.001559	0.001698	28.0819	0.045686	0.001892	24.1518	-83.6855	-170.947	-0.000422	0.545238	-0.518775	-0.520127	-0.001312	24.1518	-0.518735	-6.2517e+06	2.098775E-10	NaN
471	1.000000	0.554578	7.36966e+06	-53539.1	1005.82	-29746.1	0.000000	0.000000	6.554961	0.026334	NaN	0.000000	0.001534	0.001686	28.0822	0.153593	0.001990	77.1889	47.82	-166.644	-0.035183	0.553204	-0.510788	-0.512162	0.026334	77.1889	-0.511044	-4.88595e+06	-5.389671E-9	NaN
471	1.000000	0.562584	7.36966e+06	-53539.1	1005.82	-29746.1	0.000000	0.000000	6.562968	0.053576	NaN	0.000000	0.001552	0.001650	28.0819	0.052571	0.001899	27.6825	-13.6098	-168.14	0.010955	0.561320	-0.502782	-0.504046	0.053576	27.6825	-0.504233	-3.92697e+06	-1.364307E-8	NaN
471	1.000000	0.570569	7.36966e+06	-53539.1	1005.82	-29746.1	0.000000	0.000000	6.570952	0.029796	NaN	0.000000	0.001536	0.001705	28.082	0.104906	0.001852	56.6458	-71.7385	-165.997	0.047692	0.569303	-0.494797	-0.496063	0.029796	56.6458	-0.495191	-2.93702e+06	-1.014500E-8	NaN
471	1.000000	0.578597	7.36966e+06	-53539.1	1005.82	-29746.1	0.000000	0.000000	6.578981	0.062356	NaN	0.000000	0.001509	0.001712	28.0823	0.068880	0.002115	32.5749	-104.298	-167.146	0.085860	0.577293	-0.486769	-0.488073	0.062356	32.5749	-0.488204	-2.34583e+06	-2.658173E-8	NaN
471	1.000000	0.586578	7.36966e+06	-53539.1	1005.82	-29746.1	0.000000	0.000000	6.586961	0.019585	NaN	0.000000	0.001547	0.001714	28.0822	0.117599	0.002079	56.5714	116.972	-168.548	0.073563	0.585257	-0.478787	-0.480108	0.019585	56.5714	-0.479047	-1.74657e+06	-1.121364E-8	NaN
471	1.000000	0.594578	7.36966e+06	-53539.1	1005.82	-29746.1	0.000000	0.000000	6.594959	-0.003361	NaN	0.000000	0.001510	0.001745	28.0824	0.045713	0.001920	23.8047	-66.6231	-167.332	-0.004301	0.593307	-0.470788	-0.472059	-0.003361	23.8047	-0.470682	-1.33344e+06	2.520719E-9	NaN
471	1.000000	0.602603	7.36966e+06	-53539.1	1005.82	-29746.1	0.000000	0.000000	6.602984	-0.004289	NaN	0.000000	0.001516	0.001709	28.0821	0.049722	0.002049	24.2701	53.0909	-166.362	-0.011685	0.601344	-0.462763	-0.464021	-0.004289	24.2701	-0.462630	-1.02796e+06	4.171999E-9	NaN
471	1.000000	0.610616	7.36967e+06	-53539.1	1005.82	-29746.1	0.000000	0.000000	6.610996	-0.030657	NaN	0.000000	0.001480	0.001744	28.082	0.078266	0.001932	40.5024	-36.4339	-161.749	-0.008392	0.609321	-0.454750	-0.456044	-0.030657	40.5024	-0.454182	-782014	3.920320E-8	NaN
471	1.000000	0.618598	7.36967e+06	-53539.1	1005.82	-29746.1	0.000000	0.000000	6.618978	-0.037465	NaN	0.000000	0.001525	0.001762	28.0822	0.128091	0.001945	65.8462	-30.9442	-170.124	-0.013201	0.617341	-0.446768	-0.448025	-0.037465	65.8462	-0.446341	-606459	6.177710E-8	NaN
471	1.000000	0.626607	7.36967e+06	-53539.1	1005.82	-29746.1	0.000000	0.000000	6.626990	0.048822	NaN	0.000000	0.001535	0.001723	28.0821	0.099642	0.002029	49.0993	-87.3504	-164.728	0.012602	0.625333	-0.438759	-0.440032	0.048822	49.0993	-0.439505	-485711	-1.005168E-7	NaN
471	1.000000	0.634604	7.36967e+06	-53539.1	1005.82	-29746.1	0.000000	0.000000	6.634988	0.055473	NaN	0.000000	0.001490	0.001713	28.0823	0.035416	0.002055	17.2321	19.606	-167.7	0.094954	0.633263	-0.430762	-0.432103	0.055473	17.2321	-0.433176	-395346	-1.403153E-7	NaN
471	1.000000	0.642631	7.36967e+06	-53539.1	1005.82	-29746.1	0.000000	0.000000	6.643014	0.035655	NaN	0.000000	0.001477	0.001723	28.0821	0.043911	0.002056	21.3616	-83.7648	-165.843	0.022223	0.641272	-0.422735	-0.424094	0.035655	21.3616	-0.423986	-293037	-1.216752E-7	NaN
471	1.000000	0.650633	7.36967e+06	-53539.1	1005.82	-29746.1	0.000000	0.000000	6.651015	0.014141	NaN	0.000000	0.001597	0.001711	28.0811	0.097661	0.001914	51.0378	165.005	-169.465	-0.026434	0.649316	-0.414733	-0.416049	0.014141	51.0378	-0.414940	-218076	-6.484355E-8	NaN
471	1.000000	0.658619	7.36967e+06	-53539.1	1005.82	-29746.1	0.000000	0.000000	6.659002	0.023598	NaN	0.000000	0.001557	0.001766	28.0809	0.071866	0.001993	36.0674	75.461	-166.296	0.008467	0.657319	-0.406747	-0.408046	0.023598	36.0674	-0.407237	-169473	-1.392407E-7	NaN
471	1.000000	0.666635	7.36967e+06	-53539.1	1005.82	-29746.1	0.000000	0.000000	6.667015	-0.030727	NaN	0.000000	0.001564	0.001727	28.0808	0.097173	0.001933	50.2749	177.019	-166.009	-0.010415	0.665351	-0.398731	-0.400015	-0.030727	50.2749	-0.398272	-126284	2.433197E-7	NaN
471	1.000000	0.674649	7.36967e+06	-53539.1	1005.82	-29746.1	0.000000	0.000000	6.675030	-0.000573	NaN	0.000000	0.001575	0.001754	28.0808	0.082235	0.002124	38.711	-47.3875	-163.905	0.094752	0.673327	-0.390717	-0.392039	-0.000573	38.711	-0.390706	-98461.6	5.815227E-9	NaN
471	1.000000	0.682648	7.36967e+06	-53539.1	1005.82	-29746.1	0.000000	0.000000	6.683030	0.000690	NaN	0.000000	0.001550	0.001768	28.0808	0.099106	0.001907	51.9683	99.7528	-167.508	0.004572	0.681330	-0.382718	-0.384036	0.000690	51.9683	-0.382728	-75686	-9.122029E-9	NaN
471	1.000000	0.690614	7.36967e+06	-53539.1	1005.82	-29746.1	0.000000	0.000000	6.690998	0.049984	NaN	0.000000	0.001586	0.001714	28.0813	0.077835	0.002118	36.7419	-62.6032	-170.071	0.012825	0.689362	-0.374752	-0.376004	0.049984	36.7419	-0.375772	-60140.6	-8.311205E-7	NaN
471	1.000000	0.698621	7.36967e+06	-53539.1	1005.82	-29746.1	0.000000	0.000000	6.699004	0.042497	NaN	0.000000	0.001622	0.001742	28.0807	0.094279	0.002050	45.997	124.531	-165.852	0.037725	0.697345	-0.366745	-0.368021	0.042497	45.997	-0.367438	-45626.4	-9.314229E-7	NaN
471	1.000000	0.706614	7.36967e+06	-53539.1	1005.82	-29746.1	0.000000	0.000000	6.706996	0.022196	NaN	0.000000	0.001574	0.001766	28.0805	0.051798	0.002063	25.1059	-20.5388	-166.363	0.092198	0.705351	-0.358752	-0.360014	0.022196	25.1059	-0.359415	-34945.6	-6.351451E-7	NaN
471	1.000000	0.714668	7.36967e+06	-53539.1	1005.82	-29746.1	0.000000	0.000000	6.715049	-0.009807	NaN	0.000000	0.001587	0.001785	28.0808	0.066126	0.001943	34.0328	-83.775	-164.162	-0.002004	0.713324	-0.350698	-0.352042	-0.009807	34.0328	-0.350482	-25941.2	3.780358E-7	NaN
471	1.000000	0.722649	7.36967e+06	-53539.1	1005.82	-29746.1	0.000000	0.000000	6.723031	0.022073	NaN	0.000000	0.001611	0.001745	28.0809	0.023472	0.001855	12.6562	-174.668	-166.219	0.096981	0.721338	-0.342717	-0.344028	0.022073	12.6562	-0.344025	-20901.2	-1.056051E-6	NaN
471	1.000000	0.730655	7.36967e+06	-53539.1	1005.82	-29746.1	0.000000	0.000000	6.731036	-0.007037	NaN	0.000000	0.001567	0.001796	28.081	0.058987	0.002013	29.2996	162.338	-166.554	0.025187	0.729329	-0.334711	-0.336037	-0.007037	29.2996	-0.334531	-15196.2	4.631063E-7	NaN
471	1.000000	0.738675	7.36967e+06	-53539.1	1005.82	-29746.1	0.000000	0.000000	6.739060	0.089221	NaN	0.000000	0.001593	0.001751	28.0808	0.008024	0.001977	4.057435	62.3317	-163.511	0.030906	0.737367	-0.326691	-0.327999	0.089221	4.057435	-0.343183	-20319.8	-4.390827E-6	NaN
471	1.000000	0.746678	7.36967e+06	-53539.1	1005.82	-29746.1	0.000000	0.000000	6.747062	0.056119	NaN	0.000000	0.001562	0.001734	28.0813	0.086626	0.001978	43.7861	131.228	-167.498	0.049355	0.745337	-0.318687	-0.320029	0.056119	43.7861	-0.319649	-9193.21	-6.104358E-6	NaN
471	1.000000	0.754683	7.36967e+06	-53539.1	1005.82	-29746.1	0.000000	0.000000	6.755065	0.020111	NaN	0.000000	0.001517	0.001742	28.0807	0.063598	0.002033	31.2785	-73.011	-165.306	0.041855	0.753404	-0.310683	-0.311962	0.020111	31.2785	-0.311165	-6891.24	-2.918354E-6	NaN
471	1.000000	0.762678	7.36967e+06	-53539.1	1005.82	-29746.1	0.000000	0.000000	6.763062	0.053718	NaN	0.000000	0.001507	0.001738	28.0808	0.056927	0.002075	27.4359	5.651279	-167.065	0.084454	0.761383	-0.302688	-0.303983	0.053718	27.4359	-0.304157	-5425.42	-9.901221E-6	NaN
471	1.000000	0.770655	7.36967e+06	-53539.1	1005.82	-29746.1	0.000000	0.000000	6.771036	-0.011496	NaN	0.000000	0.001549	0.001741	28.0806	0.123694	0.001931	64.0485	-83.0825	-168.511	-0.006343	0.769366	-0.294711	-0.296000	-0.011496	64.0485	-0.294576	-3906.26	2.942852E-6	NaN
471	1.000000	0.778665	7.36967e+06	-53539.1	1005.82	-29746.1	0.000000	0.000000	6.779049	0.057993	NaN	0.000000	0.001577	0.001774	28.0805	0.052465	0.001870	28.0496	119.6	-165.628	0.058374	0.777375	-0.286701	-0.287990	0.057993	28.0496	-0.288251	-3141.16	-1.846215E-5	NaN
471	1.000000	0.786677	7.36967e+06	-53539.1	1005.82	-29746.1	0.000000	0.000000	6.787059	0.030123	NaN	0.000000	0.001575	0.001766	28.0825	0.095109	0.001843	51.6059	-110.164	-166.632	0.079756	0.785323	-0.278689	-0.280043	0.030123	51.6059	-0.279127	-2289.79	-1.315525E-5	NaN
471	1.000000	0.794691	7.36967e+06	-53539.1	1005.82	-29746.1	0.000000	0.000000	6.795075	0.070808	NaN	0.000000	0.001551	0.001728	28.0821	0.043324	0.002025	21.3989	93.678	-171.363	0.036770	0.793360	-0.270675	-0.272006	0.070808	21.3989	-0.273157	-1859.83	-3.807215E-5	NaN
471	1.000000	0.802644	7.36967e+06	-53539.1	1005.82	-29746.1	0.000000	0.000000	6.803027	0.028096	NaN	0.000000	0.001588	0.001745	28.0821	0.123777	0.002018	61.3285	-90.2896	-169.467	0.029723	0.801369	-0.262722	-0.263997	0.028096	61.3285	-0.263065	-1305.69	-2.151799E-5	NaN
471	1.000000	0.810695	7.36967e+06	-53539.1	1005.82	-29746.1	0.000000	0.000000	6.811076	-0.011787	NaN	0.000000	0.001621	0.001778	28.082	0.039548	0.002063	19.1704	-27.0028	-165.972	0.029134	0.809357	-0.254671	-0.256009	-0.011787	19.1704	-0.254210	-954.866	1.234386E-5	NaN
471	1.000000	0.818690	7.36967e+06	-53539.1	1005.82	-29746.1	0.000000	0.000000	6.819072	0.013181	NaN	0.000000	0.001594	0.001741	28.0819	0.143336	0.001936	74.0505	108.758	-165.959	0.025771	0.817376	-0.246676	-0.247990	0.013181	74.0505	-0.246810	-733.755	-1.796439E-5	NaN
471	1.000000	0.826698	7.36967e+06	-53539.1	1005.82	-29746.1	0.000000	0.000000	6.827078	-0.035219	NaN	0.000000	0.001645	0.001743	28.0821	0.008954	0.002052	4.362836	167.284	-165.952	-0.009803	0.825386	-0.238668	-0.239979	-0.035219	4.362836	-0.232614	-440.277	7.999309E-5	NaN
471	1.000000	0.834666	7.36967e+06	-53539.1	1005.82	-29746.1	0.000000	0.000000	6.835049	0.051321	NaN	0.000000	0.001616	0.001773	28.0818	0.070654	0.002070	34.1378	64.897	-164.018	0.005376	0.833413	-0.230700	-0.231953	0.051321	34.1378	-0.231828	-427.904	-0.000120	NaN
471	1.000000	0.842688	7.36967e+06	-53539.1	1005.82	-29746.1	0.000000	0.000000	6.843070	0.001346	NaN	0.000000	0.001584	0.001726	28.0824	0.143977	0.001946	73.9828	-5.183396	-170.203	0.054891	0.841377	-0.222678	-0.223989	0.001346	73.9828	-0.222691	-306.628	-4.389283E-6	NaN
471	1.000000	0.850684	7.36967e+06	-53539.1	1005.82	-29746.1	0.000000	0.000000	6.851067	0.043776	NaN	0.000000	0.001584	0.001748	28.0821	0.085130	0.001913	44.4909	95.4464	-161.502	0.096418	0.849396	-0.214682	-0.215970	0.043776	44.4909	-0.215420	-234.566	-0.000187	NaN
471	1.000000	0.858699	7.36967e+06	-53539.1	1005.82	-29746.1	0.000000	0.000000	6.859081	0.009549	NaN	0.000000	0.001628	0.001731	28.0817	0.051816	0.002063	25.1108	118.061	-164.653	0.026541	0.857373	-0.206667	-0.207993	0.009549	25.1108	-0.206952	-171.14	-5.579603E-5	NaN
471	1.000000	0.866696	7.36967e+06	-53539.1	1005.82	-29746.1	0.000000	0.000000	6.867078	-0.002613	NaN	0.000000	0.001619	0.001759	28.0816	0.098913	0.001903	51.9758	-119.59	-166.405	-0.008205	0.865387	-0.198670	-0.199979	-0.002613	51.9758	-0.198632	-125.081	2.088760E-5	NaN
471	1.000000	0.874706	7.36967e+06	-53539.1	1005.82	-29746.1	0.000000	0.000000	6.875088	0.003677	NaN	0.000000	0.001591	0.001716	28.0818	0.033613	0.002029	16.5691	142.856	-165.054	-0.024921	0.873418	-0.190659	-0.191948	0.003677	16.5691	-0.190826	-92.8568	-3.959910E-5	NaN
471	1.000000	0.882730	7.36967e+06	-53539.1	1005.82	-29746.1	0.000000	0.000000	6.883114	0.044574	NaN	0.000000	0.001588	0.001775	28.0821	0.109095	0.001997	54.6256	-121.007	-167.098	0.123991	0.881412	-0.182635	-0.183954	0.044574	54.6256	-0.183247	-69.2699	-0.000643	NaN
471	1.000000	0.890693	7.36967e+06	-53539.1	1005.82	-29746.1	0.000000	0.000000	6.891075	0.012871	NaN	0.000000	0.001595	0.001740	28.082	0.072880	0.001919	37.9811	140.943	-163.531	0.060071	0.889379	-0.174673	-0.175987	0.012871	37.9811	-0.174927	-49.9725	-0.000258	NaN
471	1.000000	0.898723	7.36967e+06	-53539.1	1005.82	-29746.1	0.000000	0.000000	6.899107	0.044829	NaN	0.000000	0.001578	0.001723	28.0822	0.051953	0.001980	26.2329	-147.706	-170.024	0.050840	0.897416	-0.166642	-0.167949	0.044829	26.2329	-0.167924	-37.7992	-0.001186	NaN
471	1.000000	0.906734	7.36967e+06	-53539.1	1005.82	-29746.1	0.000000	0.000000	6.907116	0.009178	NaN	0.000000	0.001573	0.001741	28.0821	0.078001	0.002050	38.0446	36.708	-164.954	-0.078622	0.905431	-0.158632	-0.159935	0.009178	38.0446	-0.158813	-26.1129	-0.000351	NaN
471	1.000000	0.914712	7.36967e+06	-53539.1	1005.82	-29746.1	0.000000	0.000000	6.915093	-0.015311	NaN	0.000000	0.001594	0.001754	28.0817	0.109985	0.002101	52.3555	78.551	-167.651	-0.030545	0.913477	-0.150654	-0.151888	-0.015311	52.3555	-0.150435	-18.4471	0.000830	NaN
471	1.000000	0.922726	7.36967e+06	-53539.1	1005.82	-29746.1	0.000000	0.000000	6.923110	0.038294	NaN	0.000000	0.001583	0.001745	28.0808	0.058887	0.001888	31.1844	-105.177	-163.861	0.041269	0.921442	-0.142639	-0.143924	0.038294	31.1844	-0.143560	-13.7873	-0.002778	NaN
471	1.000000	0.930734	7.36967e+06	-53539.1	1005.82	-29746.1	0.000000	0.000000	6.931119	0.071793	NaN	0.000000	0.001588	0.001720	28.0808	0.062861	0.001972	31.877	-11.2479	-164.815	0.038878	0.929419	-0.134632	-0.135947	0.071793	31.877	-0.136321	-10.0798	-0.007122	NaN
471	1.000000	0.938734	7.36967e+06	-53539.1	1005.82	-29746.1	0.000000	0.000000	6.939114	-0.023268	NaN	0.000000	0.001589	0.001721	28.0811	0.049393	0.002040	24.209	-32.4921	-168.866	0.001696	0.937408	-0.126632	-0.127958	-0.023268	24.209	-0.125911	-6.338573	0.003671	NaN
471	1.000000	0.946749	7.36967e+06	-53539.1	1005.82	-29746.1	0.000000	0.000000	6.947131	0.008035	NaN	0.000000	0.001579	0.001773	28.0805	0.130632	0.002111	61.8955	132.191	-165.656	0.065185	0.945406	-0.118617	-0.119960	0.008035	61.8955	-0.118714	-4.550538	-0.001766	NaN
471	1.000000	0.954727	7.36967e+06	-53539.1	1005.82	-29746.1	0.000000	0.000000	6.955112	0.068054	NaN	0.000000	0.001654	0.001754	28.0808	0.071330	0.001977	36.074	-134.04	-168.792	0.131378	0.953459	-0.110638	-0.111907	0.068054	36.074	-0.112053	-3.318652	-0.020507	NaN
471	1.000000	0.962735	7.36967e+06	-53539.1	1005.82	-29746.1	0.000000	0.000000	6.963117	0.010485	NaN	0.000000	0.001669	0.001785	28.0807	0.088132	0.002117	41.6373	168.043	-169.72	0.021702	0.961484	-0.102631	-0.103882	0.010485	41.6373	-0.102819	-2.107707	-0.004975	NaN
471	1.000000	0.970754	7.36967e+06	-53539.1	1005.82	-29746.1	0.000000	0.000000	6.971136	0.010121	NaN	0.000000	0.001649	0.001752	28.0809	0.037368	0.002116	17.6585	-103.388	-168.437	-0.005002	0.969450	-0.094611	-0.095915	0.010121	17.6585	-0.095041	-1.413699	-0.007159	NaN
471	1.000000	0.978766	7.36967e+06	-53539.1	1005.82	-29746.1	0.000000	0.000000	6.979150	0.064475	NaN	0.000000	0.001590	0.001744	28.081	0.050062	0.001945	25.7364	86.6511	-166.275	0.026522	0.977423	-0.086600	-0.087943	0.064475	25.7364	-0.088479	-0.995310	-0.064778	NaN
471	1.000000	0.986769	7.36967e+06	-53539.1	1005.82	-29746.1	0.000000	0.000000	6.987152	0.043454	NaN	0.000000	0.001585	0.001722	28.0807	0.071505	0.002015	35.4883	139.232	-163.333	-0.044618	0.985411	-0.078597	-0.079955	0.043454	35.4883	-0.079515	-0.601923	-0.072193	NaN
471	1.000000	0.994769	7.36967e+06	-53539.1	1005.82	-29746.1	0.000000	0.000000	6.995150	-0.002200	NaN	0.000000	0.001561	0.001742	28.0813	0.054404	0.002010	27.0644	-48.3027	-163.339	0.037089	0.993463	-0.070597	-0.071903	-0.002200	27.0644	-0.070536	-0.352551	0.006239	NaN
471	1.000000	1.002760	7.36967e+06	-53539.1	1005.82	-29746.1	0.000000	0.000000	7.003143	0.031376	NaN	0.000000	0.001557	0.001752	28.0807	0.092705	0.001967	47.122	33.3178	-164.284	0.032043	1.001425	-0.062606	-0.063941	0.031376	47.122	-0.063105	-0.220630	-0.142213	NaN
471	1.000000	1.010777	7.36967e+06	-53539.1	1005.82	-29746.1	0.000000	0.000000	7.011161	0.045353	NaN	0.000000	0.001528	0.001770	28.0807	0.057468	0.001907	30.1347	128.733	-166.365	0.055455	1.009456	-0.054588	-0.055910	0.045353	30.1347	-0.055717	-0.135207	-0.335435	NaN
471	1.000000	1.018787	7.36967e+06	-53539.1	1005.82	-29746.1	0.000000	0.000000	7.019172	0.091840	NaN	0.000000	0.001547	0.001756	28.0807	0.025585	0.002111	12.1198	-108.066	-168.054	0.128250	1.017473	-0.046579	-0.047893	0.091840	12.1198	-0.052262	-0.106746	-0.860357	NaN
471	1.000000	1.026771	7.36967e+06	-53539.1	1005.82	-29746.1	0.000000	0.000000	7.027153	0.015571	NaN	0.000000	0.001534	0.001747	28.0807	0.164789	0.001945	84.7434	-110.359	-167.918	0.039177	1.025467	-0.038595	-0.039899	0.015571	84.7434	-0.038733	-0.041396	-0.376141	NaN
471	1.000000	1.034755	7.36967e+06	-53539.1	1005.82	-29746.1	0.000000	0.000000	7.035137	0.012893	NaN	0.000000	0.001559	0.001766	28.0813	0.196122	0.002098	93.4638	-96.6932	-168.266	0.010925	1.033481	-0.030611	-0.031885	0.012893	93.4638	-0.030714	-0.024097	-0.535068	NaN
471	1.000000	1.042786	7.36967e+06	-53539.1	1005.82	-29746.1	0.000000	0.000000	7.043165	-0.052488	NaN	0.000000	0.001549	0.001767	28.0807	0.054507	0.002104	25.9103	17.8572	-165.328	-0.054942	1.041507	-0.022580	-0.023859	-0.052488	25.9103	-0.021061	-0.013365	3.927170	NaN
471	1.000000	1.050791	7.36967e+06	-53539.1	1005.82	-29746.1	0.000000	0.000000	7.051170	-0.070066	NaN	0.000000	0.001571	0.001753	28.0809	0.102572	0.001982	51.7542	24.4871	-168.927	-0.059155	1.049492	-0.014574	-0.015874	-0.070066	51.7542	-0.013559	-0.008426	8.315462	NaN
471	1.000000	1.058786	7.36967e+06	-53539.1	1005.82	-29746.1	0.000000	0.000000	7.059168	0.017870	NaN	0.000000	0.001543	0.001751	28.082	0.029879	0.002128	14.0407	-79.6676	-164.307	0.004508	1.057554	-0.006580	-0.007812	0.017870	14.0407	-0.007534	-0.004958	-3.604401	NaN
471	1.000000	1.066740	7.36967e+06	-53539.1	1005.82	-29746.1	0.000000	0.000000	7.067268	3.549388	NaN	0.000000	0.001555	0.001771	28.0822	4.179609	0.001765	2367.84	8.198339	-169.041	2.243319	1.065468	0.001374	0.000102	3.549388	2367.84	0.000250	0.000188	18896.6	157849
471	2.000000	1.072334	7.36967e+06	-53539.1	1005.82	-29746.1	0.000000	0.000000	7.073122	9.866731	NaN	0.000000	0.001594	0.001770	28.0822	9.317484	0.001414	6591.32	7.175045	-174.504	9.878307	1.072024	0.006968	0.006659	9.866731	6591.32	0.005846	0.004919	2006.03	85867.4
471	2.000000	1.074284	7.36967e+06	-53539.1	1005.82	-29746.1	0.000000	0.000000	7.075163	12.0815	NaN	0.000000	0.001586	0.001792	28.0819	12.4838	0.001879	6643.15	8.192624	-175.566	11.6173	1.073993	0.008918	0.008627	12.0815	6643.15	0.007554	0.006588	1833.89	74778
471	2.000000	1.076340	7.36967e+06	-53539.1	1005.82	-29746.1	0.000000	0.000000	7.077355	15.3858	NaN	0.000000	0.001597	0.001784	28.082	14.026	0.001765	7946.33	5.831129	-173.23	15.6413	1.075940	0.010975	0.010575	15.3858	7946.33	0.009522	0.008656	1777.57	78035.7
471	2.000000	1.078230	7.36967e+06	-53539.1	1005.82	-29746.1	0.000000	0.000000	7.079406	19.3101	NaN	0.000000	0.001586	0.001756	28.0819	16.5202	0.001614	10233.8	6.074376	-177.727	18.7028	1.077948	0.012864	0.012582	19.3101	10233.8	0.011449	0.010837	1781.89	89816.5
471	2.000000	1.080334	7.36967e+06	-53539.1	1005.82	-29746.1	0.000000	0.000000	7.081656	22.87	NaN	0.000000	0.001587	0.001759	28.082	18.7676	0.001803	10410.9	4.108081	-174.194	22.815	1.079944	0.014968	0.014578	22.87	10410.9	0.013321	0.013111	1744.39	83071.2
471	2.000000	1.082212	7.36967e+06	-53539.1	1005.82	-29746.1	0.000000	0.000000	7.083738	27.8326	NaN	0.000000	0.001546	0.001805	28.0819	21.4028	0.001884	11361.2	6.102439	-178.663	26.2349	1.081947	0.016846	0.016581	27.8326	11361.2	0.015009	0.015297	1819.49	83925.6
471	2.000000	1.084266	7.36967e+06	-53539.1	1005.82	-29746.1	0.000000	0.000000	7.085992	32.6906	NaN	0.000000	0.001593	0.001781	28.082	23.0244	0.001781	12929.1	9.066450	178.416	33.2658	1.083921	0.018900	0.018555	32.6906	12929.1	0.017004	0.018051	1811	87920
471	2.000000	1.086249	7.36967e+06	-53539.1	1005.82	-29746.1	0.000000	0.000000	7.088239	39.0971	NaN	0.000000	0.001559	0.001754	28.0824	24.5382	0.001654	14831.2	7.831643	176.895	39.1091	1.085932	0.020883	0.020566	39.0971	14831.2	0.018906	0.020853	1874.91	93835.5
471	2.000000	1.088248	7.36967e+06	-53539.1	1005.82	-29746.1	0.000000	0.000000	7.090441	44.0283	NaN	0.000000	0.001587	0.001764	28.0822	26.9817	0.001768	15258.8	3.326808	-176.708	44.5763	1.087908	0.022882	0.022543	44.0283	15258.8	0.020718	0.023683	1859.04	90588.3
471	2.000000	1.090310	7.36967e+06	-53539.1	1005.82	-29746.1	0.000000	0.000000	7.092696	48.7467	NaN	0.000000	0.001584	0.001749	28.0825	29.9944	0.001898	15800.6	9.352012	176.39	50.8832	1.089918	0.024944	0.024552	48.7467	15800.6	0.022630	0.026845	1815.88	88108.3
471	2.000000	1.092257	7.36967e+06	-53539.1	1005.82	-29746.1	0.000000	0.000000	7.094939	55.9387	NaN	0.000000	0.001555	0.001750	28.0819	31.538	0.001827	17261	8.245639	176.529	57.1839	1.091924	0.026891	0.026559	55.9387	17261	0.024461	0.030042	1862.03	90986.6
471	2.000000	1.094200	7.36967e+06	-53539.1	1005.82	-29746.1	0.000000	0.000000	7.097197	63.5896	NaN	0.000000	0.001567	0.001748	28.0818	32.8786	0.001768	18600.2	-0.173845	-176.57	62.3748	1.093931	0.028834	0.028566	63.5896	18600.2	0.026270	0.033366	1905.81	93033
471	2.000000	1.096266	7.36967e+06	-53539.1	1005.82	-29746.1	0.000000	0.000000	7.099717	74.6064	NaN	0.000000	0.001579	0.001722	28.0819	34.7685	0.001839	18909.2	8.502881	174.745	74.9561	1.095857	0.030901	0.030492	74.6064	18909.2	0.027941	0.036585	2039.26	90322.5
471	2.000000	1.098194	7.36967e+06	-53539.1	1005.82	-29746.1	0.000000	0.000000	7.101902	80.8867	NaN	0.000000	0.001555	0.001729	28.0821	36.4336	0.001765	20638.8	5.175817	177.766	79.5974	1.097859	0.032828	0.032493	80.8867	20638.8	0.029889	0.040513	1996.56	93682.9
471	2.000000	1.100282	7.36967e+06	-53539.1	1005.82	-29746.1	0.000000	0.000000	7.104205	86.1068	NaN	0.000000	0.001578	0.001718	28.0822	38.1045	0.001661	22940.7	3.045323	178.951	84.6192	1.099958	0.034916	0.034592	86.1068	22940.7	0.032101	0.045211	1904.56	98573.1
471	2.000000	1.102184	7.36967e+06	-53539.1	1005.82	-29746.1	0.000000	0.000000	7.106477	95.1008	NaN	0.000000	0.001584	0.001727	28.0807	40.7282	0.001795	22689.8	6.966216	174.639	93.0379	1.101862	0.036818	0.036497	95.1008	22689.8	0.033674	0.048704	1952.62	93933.4
471	2.000000	1.104241	7.36967e+06	-53539.1	1005.82	-29746.1	0.000000	0.000000	7.108837	102.485	NaN	0.000000	0.001600	0.001783	28.0809	43.7024	0.001793	24379.9	5.745234	175.464	102.848	1.103948	0.038875	0.038583	102.485	24379.9	0.035722	0.053440	1917.75	96353.9
471	2.000000	1.106191	7.36967e+06	-53539.1	1005.82	-29746.1	0.000000	0.000000	7.111256	113.876	NaN	0.000000	0.001614	0.001728	28.0812	44.2559	0.001816	24364.1	6.034108	176.249	113.555	1.105782	0.040825	0.040416	113.876	24364.1	0.037320	0.057285	1987.9	93004.5
471	2.000000	1.108213	7.36967e+06	-53539.1	1005.82	-29746.1	0.000000	0.000000	7.113593	121.509	NaN	0.000000	0.001601	0.001773	28.0807	46.711	0.001823	25625	4.500890	177.123	121.788	1.107804	0.042848	0.042438	121.509	25625	0.039291	0.062210	1953.21	93866
471	2.000000	1.110240	7.36967e+06	-53539.1	1005.82	-29746.1	0.000000	0.000000	7.115778	125.356	NaN	0.000000	0.001592	0.001763	28.0808	48.657	0.001759	27654	3.603646	176.641	126.478	1.109928	0.044874	0.044562	125.356	27654	0.041474	0.067894	1846.34	96964.8
471	2.000000	1.112246	7.36967e+06	-53539.1	1005.82	-29746.1	0.000000	0.000000	7.118336	138.768	NaN	0.000000	0.001582	0.001771	28.0806	49.9441	0.001765	28294.6	2.921877	176.94	139.705	1.111874	0.046881	0.046508	138.768	28294.6	0.043202	0.072566	1912.31	95964.3
471	2.000000	1.114211	7.36967e+06	-53539.1	1005.82	-29746.1	0.000000	0.000000	7.120586	145.696	NaN	0.000000	0.001580	0.001764	28.0809	53.362	0.001766	30212.9	6.050238	173.173	146.889	1.113905	0.048846	0.048539	145.696	30212.9	0.045229	0.078238	1862.21	98686
471	2.000000	1.116087	7.36967e+06	-53539.1	1005.82	-29746.1	0.000000	0.000000	7.123100	161.221	NaN	0.000000	0.001594	0.001732	28.0808	53.2072	0.001692	31441.5	4.715604	174.505	156.006	1.115795	0.050722	0.050429	161.221	31441.5	0.046876	0.083002	1942.38	99708.5
471	2.000000	1.118163	7.36967e+06	-53539.1	1005.82	-29746.1	0.000000	0.000000	7.125580	171.057	NaN	0.000000	0.001570	0.001736	28.0808	57.0594	0.001866	30575.2	3.533953	176.717	168.512	1.117752	0.052797	0.052386	171.057	30575.2	0.048601	0.088139	1940.77	94093.4
471	2.000000	1.120218	7.36967e+06	-53539.1	1005.82	-29746.1	0.000000	0.000000	7.128026	180.564	NaN	0.000000	0.001579	0.001735	28.0808	59.941	0.001627	36844.4	6.119313	170.727	179.385	1.119930	0.054852	0.054564	180.564	36844.4	0.051176	0.096084	1879.23	108597
471	2.000000	1.122174	7.36967e+06	-53539.1	1005.82	-29746.1	0.000000	0.000000	7.130745	199.092	NaN	0.000000	0.001640	0.001756	28.0808	61.6053	0.001873	32889.4	8.195986	170.763	197.147	1.121863	0.056808	0.056497	199.092	32889.4	0.052268	0.099554	1999.85	95236
471	2.000000	1.124153	7.36967e+06	-53539.1	1005.82	-29746.1	0.000000	0.000000	7.133248	211.831	NaN	0.000000	0.001595	0.001783	28.081	63.5161	0.001831	34682.8	6.261097	172.173	208.82	1.123822	0.058788	0.058456	211.831	34682.8	0.054207	0.105858	2001.08	97392.4
471	2.000000	1.126222	7.36967e+06	-53539.1	1005.82	-29746.1	0.000000	0.000000	7.135791	223.349	NaN	0.000000	0.001600	0.001749	28.0807	64.3506	0.001820	35354.6	7.586484	170.782	223.93	1.125857	0.060857	0.060491	223.349	35354.6	0.056118	0.112259	1989.59	96407.1
471	2.000000	1.128185	7.36967e+06	-53539.1	1005.82	-29746.1	0.000000	0.000000	7.138160	233.238	NaN	0.000000	0.001616	0.001773	28.0809	66.7777	0.001816	36765.9	1.466904	176.28	231.994	1.127879	0.062819	0.062513	233.238	36765.9	0.058061	0.118947	1960.86	97396.1
471	2.000000	1.130120	7.36967e+06	-53539.1	1005.82	-29746.1	0.000000	0.000000	7.140780	249.889	NaN	0.000000	0.001610	0.001752	28.0809	68.4187	0.001791	38192.1	3.000039	174.127	245.428	1.129845	0.064754	0.064479	249.889	38192.1	0.059847	0.125260	1994.97	98592
471	2.000000	1.132120	7.36967e+06	-53539.1	1005.82	-29746.1	0.000000	0.000000	7.143420	265.467	NaN	0.000000	0.001627	0.001759	28.0807	69.7638	0.001651	42243	4.435711	172.659	262.583	1.131768	0.066754	0.066402	265.467	42243	0.062041	0.133227	1992.59	105738
471	2.000000	1.134197	7.36967e+06	-53539.1	1005.82	-29746.1	0.000000	0.000000	7.145894	275.112	NaN	0.000000	0.001582	0.001691	28.0806	73.6038	0.001821	40426	5.999102	171.046	275.442	1.133814	0.068831	0.068448	275.112	40426	0.063727	0.139510	1971.98	98885
471	2.000000	1.136123	7.36967e+06	-53539.1	1005.82	-29746.1	0.000000	0.000000	7.148264	285.918	NaN	0.000000	0.001581	0.001726	28.0819	73.9339	0.001812	40802.9	3.908473	173.414	282.021	1.135793	0.070757	0.070427	285.918	40802.9	0.065501	0.146271	1954.71	97473.4
471	2.000000	1.138130	7.36967e+06	-53539.1	1005.82	-29746.1	0.000000	0.000000	7.150825	299.37	NaN	0.000000	0.001587	0.001740	28.0819	77.3876	0.001690	45804.2	6.726923	169.092	296.134	1.137759	0.072764	0.072393	299.37	45804.2	0.067862	0.155500	1925.21	106124
471	2.000000	1.140167	7.36967e+06	-53539.1	1005.82	-29746.1	0.000000	0.000000	7.153580	316.822	NaN	0.000000	0.001608	0.001745	28.0823	79.7437	0.001775	44926.3	4.809070	171.461	315.432	1.139876	0.074801	0.074510	316.822	44926.3	0.069512	0.162107	1954.39	101947
471	2.000000	1.142128	7.36967e+06	-53539.1	1005.82	-29746.1	0.000000	0.000000	7.156175	332.217	NaN	0.000000	0.001601	0.001724	28.0821	80.9662	0.001842	43949.4	2.102755	174.608	329.492	1.141731	0.076763	0.076365	332.217	43949.4	0.071093	0.168564	1970.87	97801.3
471	2.000000	1.144158	7.36967e+06	-53539.1	1005.82	-29746.1	0.000000	0.000000	7.158478	338.873	NaN	0.000000	0.001639	0.001696	28.082	83.7389	0.001789	46818.4	3.489898	172.165	337.553	1.143949	0.078792	0.078583	338.873	46818.4	0.073363	0.178038	1903.38	101376
471	2.000000	1.146146	7.36967e+06	-53539.1	1005.82	-29746.1	0.000000	0.000000	7.161264	358.274	NaN	0.000000	0.001596	0.001706	28.0818	84.4011	0.001894	44565.1	4.315480	171.964	355.883	1.145873	0.080780	0.080507	358.274	44565.1	0.074751	0.183948	1947.68	94933.5
471	2.000000	1.148097	7.36967e+06	-53539.1	1005.82	-29746.1	0.000000	0.000000	7.163902	374.98	NaN	0.000000	0.001565	0.001714	28.0817	87.525	0.001844	47453.5	6.322324	169.598	370.627	1.147760	0.082731	0.082394	374.98	47453.5	0.076805	0.192864	1944.27	98722.3
471	2.000000	1.150205	7.36967e+06	-53539.1	1005.82	-29746.1	0.000000	0.000000	7.166622	389.872	NaN	0.000000	0.001574	0.001733	28.0821	88.7155	0.001848	47994.5	5.628302	170.239	390.616	1.149872	0.084839	0.084507	389.872	47994.5	0.078746	0.201475	1935.09	97691
471	2.000000	1.152093	7.36967e+06	-53539.1	1005.82	-29746.1	0.000000	0.000000	7.169294	408.905	NaN	0.000000	0.001598	0.001723	28.0821	89.1252	0.001782	50027.2	4.039889	171.33	405.529	1.151821	0.086727	0.086455	408.905	50027.2	0.080597	0.209847	1948.58	99776.4
471	2.000000	1.154100	7.36967e+06	-53539.1	1005.82	-29746.1	0.000000	0.000000	7.171811	421.325	NaN	0.000000	0.001540	0.001716	28.0816	92.323	0.001758	52516.2	4.589778	169.87	417.305	1.153835	0.088734	0.088469	421.325	52516.2	0.082717	0.219630	1918.34	102381
471	2.000000	1.156084	7.36967e+06	-53539.1	1005.82	-29746.1	0.000000	0.000000	7.174648	442.064	NaN	0.000000	0.001580	0.001742	28.0818	92.9611	0.001934	48076.9	3.584533	172.498	438.362	1.155763	0.090718	0.090397	442.064	48076.9	0.083822	0.224812	1966.37	92640.3
471	2.000000	1.158077	7.36967e+06	-53539.1	1005.82	-29746.1	0.000000	0.000000	7.177277	457.522	NaN	0.000000	0.001558	0.001717	28.0818	95.8946	0.001805	53141.8	4.442729	170.329	453.678	1.157774	0.092711	0.092408	457.522	53141.8	0.086254	0.236421	1935.2	99854.2
471	2.000000	1.160178	7.36967e+06	-53539.1	1005.82	-29746.1	0.000000	0.000000	7.180346	481.071	NaN	0.000000	0.001575	0.001751	28.0819	98.3251	0.001743	56416.4	6.077935	169.407	480.366	1.159786	0.094812	0.094420	481.071	56416.4	0.088416	0.246968	1947.91	103719
471	2.000000	1.162028	7.36967e+06	-53539.1	1005.82	-29746.1	0.000000	0.000000	7.183005	500.745	NaN	0.000000	0.001576	0.001728	28.0819	99.8407	0.001803	55377.1	6.114419	168.824	495.026	1.161687	0.096662	0.096321	500.745	55377.1	0.089880	0.254229	1969.66	100344
471	2.000000	1.164112	7.36967e+06	-53539.1	1005.82	-29746.1	0.000000	0.000000	7.185387	507.973	NaN	0.000000	0.001584	0.001734	28.0821	101.458	0.001751	57951.6	1.395687	173.12	506.123	1.163812	0.098746	0.098446	507.973	57951.6	0.092172	0.265797	1911.13	102698
471	2.000000	1.166092	7.36967e+06	-53539.1	1005.82	-29746.1	0.000000	0.000000	7.188006	523.502	NaN	0.000000	0.001578	0.001740	28.0821	102.975	0.001800	57220.5	5.890696	168.489	521.651	1.165989	0.100726	0.100623	523.502	57220.5	0.093864	0.274494	1907.15	99783.4
471	2.000000	1.168027	7.36967e+06	-53539.1	1005.82	-29746.1	0.000000	0.000000	7.190874	546.18	NaN	0.000000	0.001596	0.001731	28.0816	105.491	0.001809	58309.1	2.831912	171.672	538.999	1.167743	0.102661	0.102377	546.18	58309.1	0.095636	0.283740	1924.93	100011
471	2.000000	1.170084	7.36967e+06	-53539.1	1005.82	-29746.1	0.000000	0.000000	7.194002	572.206	NaN	0.000000	0.001602	0.001735	28.0805	107.908	0.001753	61567.1	4.716879	170.078	567.694	1.169619	0.104719	0.104253	572.206	61567.1	0.097748	0.294946	1940.04	103574