File: remote_trans/data/nanoindenter/0828-1/data/Data_2025-08-06,11h17m57s/2025-07-22_16-23-58_1_640.txt
2025-07-22, 16:23:58, 1
Index	Phase	Displacement	Time	Pos X	Pos Y	Pos Z	Rot A	Rot B	Piezo Z	Force A	Force B	Gripper	Voltage A	Voltage B	Temperature	Amplitude force	Amplitude pos	Stiffness	Phase shift	Phase excitation	Force A raw	Displacement raw	HMax	HMax raw	Real Force	Real Stiffness	Contact Depth	Area	Hardness	Reduced Mod.
[#]	[#]	[um]	[s]	[um]	[um]	[um]	[m°]	[m°]	[um]	[uN]	[uN]	[V]	[V]	[V]	[°C]	[uN]	[um]	[N/m]	[°]	[°]	[uN]	[um]	[um]	[um]	[uN]	[N/m]	[um]	[um^2]	[MPa]	[MPa]
640	1.000000	0.002855	7.37131e+06	-45089.1	1005.82	-29773.6	0.000000	0.000000	6.002816	0.065681	NaN	0.000000	0.001732	0.001673	28.0822	0.036124	0.001029	35.1117	-83.7461	-170.512	0.035727	0.001562	-1.115829	-1.117122	0.065681	35.1117	-1.117232	-8.537562E+14	-7.693167E-17	NaN
640	1.000000	0.012892	7.37131e+06	-45089.1	1005.82	-29773.6	0.000000	0.000000	6.012850	0.000648	NaN	0.000000	0.001738	0.001707	28.0822	0.049502	0.001145	43.2449	-120.702	16.464	-0.000301	0.011394	-1.105792	-1.107290	0.000648	43.2449	-1.105803	-5.997450E+14	-1.080875E-18	NaN
640	1.000000	0.022804	7.37131e+06	-45089.1	1005.82	-29773.6	0.000000	0.000000	6.022766	0.096128	NaN	0.000000	0.001671	0.001686	28.082	0.084466	0.001586	53.2643	134.783	-166.743	0.062789	0.021397	-1.095880	-1.097287	0.096128	53.2643	-1.097233	-4.601792E+14	-2.088920E-16	NaN
640	1.000000	0.032780	7.37131e+06	-45089.1	1005.82	-29773.6	0.000000	0.000000	6.032737	-0.018320	NaN	0.000000	0.001675	0.001706	28.0822	0.155895	0.001873	83.2154	-135.296	14.7477	-0.010625	0.031435	-1.085904	-1.087249	-0.018320	83.2154	-1.085739	-3.225459E+14	5.679939E-17	NaN
640	1.000000	0.042820	7.37131e+06	-45089.1	1005.82	-29773.6	0.000000	0.000000	6.042777	-0.025131	NaN	0.000000	0.001719	0.001680	28.0819	0.032351	0.001962	16.4868	156.329	-166.778	-0.059193	0.041494	-1.075864	-1.077190	-0.025131	16.4868	-1.074721	-2.294100E+14	1.095445E-16	NaN
640	1.000000	0.052810	7.37131e+06	-45089.1	1005.82	-29773.6	0.000000	0.000000	6.052770	0.041064	NaN	0.000000	0.001665	0.001667	28.082	0.089120	0.001958	45.512	146.522	11.8327	0.065873	0.051448	-1.065874	-1.067236	0.041064	45.512	-1.066550	-1.781727E+14	-2.304728E-16	NaN
640	1.000000	0.062789	7.37131e+06	-45089.1	1005.82	-29773.6	0.000000	0.000000	6.062748	0.037977	NaN	0.000000	0.001696	0.001706	28.082	0.030532	0.001932	15.8044	169.603	-167.505	0.030458	0.061477	-1.055896	-1.057207	0.037977	15.8044	-1.057698	-1.354818E+14	-2.803136E-16	NaN
640	1.000000	0.072791	7.37131e+06	-45089.1	1005.82	-29773.6	0.000000	0.000000	6.072748	-0.034796	NaN	0.000000	0.001678	0.001653	28.0831	0.103247	0.001831	56.3902	-142.208	12.573	0.008913	0.071460	-1.045893	-1.047224	-0.034796	56.3902	-1.045430	-9.267861E+13	3.754448E-16	NaN
640	1.000000	0.082804	7.37131e+06	-45089.1	1005.82	-29773.6	0.000000	0.000000	6.082762	0.009424	NaN	0.000000	0.001690	0.001680	28.083	0.049471	0.001995	24.796	-84.9716	-166.95	0.042254	0.081505	-1.035880	-1.037179	0.009424	24.796	-1.036165	-6.956580E+13	-1.354670E-16	NaN
640	1.000000	0.092800	7.37131e+06	-45089.1	1005.82	-29773.6	0.000000	0.000000	6.092760	0.044658	NaN	0.000000	0.001672	0.001640	28.083	0.059572	0.002139	27.8483	81.0667	15.6807	0.033583	0.091468	-1.025884	-1.027216	0.044658	27.8483	-1.027087	-5.251635E+13	-8.503662E-16	NaN
640	1.000000	0.102802	7.37131e+06	-45089.1	1005.82	-29773.6	0.000000	0.000000	6.102756	-0.074103	NaN	0.000000	0.001694	0.001684	28.0832	0.026435	0.002036	12.987	-135.794	-169.996	-0.085521	0.101487	-1.015882	-1.017197	-0.074103	12.987	-1.011603	-3.250552E+13	2.279703E-15	NaN
640	1.000000	0.112842	7.37131e+06	-45089.1	1005.82	-29773.6	0.000000	0.000000	6.112799	-0.020173	NaN	0.000000	0.001686	0.001674	28.0829	0.148367	0.002048	72.4536	-131.76	13.2082	-0.056649	0.111460	-1.005842	-1.007224	-0.020173	72.4536	-1.005633	-2.701501E+13	7.467310E-16	NaN
640	1.000000	0.122821	7.37131e+06	-45089.1	1005.82	-29773.6	0.000000	0.000000	6.122782	0.078095	NaN	0.000000	0.001716	0.001714	28.083	0.059805	0.002112	28.3178	-141.771	-166.299	0.005341	0.121486	-0.995863	-0.997198	0.078095	28.3178	-0.997932	-2.127760E+13	-3.670313E-15	NaN
640	1.000000	0.132817	7.37131e+06	-45089.1	1005.82	-29773.6	0.000000	0.000000	6.132776	0.020778	NaN	0.000000	0.001715	0.001662	28.083	0.037628	0.001965	19.152	-28.8751	15.2031	0.035057	0.131437	-0.985867	-0.987248	0.020778	19.152	-0.986681	-1.501078E+13	-1.384194E-15	NaN
640	1.000000	0.142817	7.37131e+06	-45089.1	1005.82	-29773.6	0.000000	0.000000	6.142777	0.041719	NaN	0.000000	0.001674	0.001690	28.0833	0.038895	0.001918	20.2778	-39.8123	-164.94	0.084943	0.141532	-0.975867	-0.977152	0.041719	20.2778	-0.977410	-1.125940E+13	-3.705301E-15	NaN
640	1.000000	0.152780	7.37131e+06	-45089.1	1005.82	-29773.6	0.000000	0.000000	6.152737	-0.001617	NaN	0.000000	0.001687	0.001663	28.0828	0.068164	0.001973	34.5571	-106.27	11.5568	-0.017705	0.151451	-0.965904	-0.967233	-0.001617	34.5571	-0.965869	-7.870274E+12	2.054339E-16	NaN
640	1.000000	0.162834	7.37131e+06	-45089.1	1005.82	-29773.6	0.000000	0.000000	6.162791	-0.017320	NaN	0.000000	0.001667	0.001647	28.0832	0.130209	0.002099	62.0393	148.521	-167.895	0.000406	0.161534	-0.955850	-0.957150	-0.017320	62.0393	-0.955641	-5.729204E+12	3.023033E-15	NaN
640	1.000000	0.172841	7.37131e+06	-45089.1	1005.82	-29773.6	0.000000	0.000000	6.172800	0.006778	NaN	0.000000	0.001667	0.001693	28.0832	0.063381	0.002022	31.3489	-98.7464	16.1691	0.074880	0.171482	-0.945843	-0.947203	0.006778	31.3489	-0.946005	-4.247589E+12	-1.595698E-15	NaN
640	1.000000	0.182812	7.37131e+06	-45089.1	1005.82	-29773.6	0.000000	0.000000	6.182768	-0.048633	NaN	0.000000	0.001668	0.001700	28.083	0.045843	0.002069	22.1625	-75.5601	-165.014	0.059353	0.181512	-0.935872	-0.937172	-0.048633	22.1625	-0.934226	-2.945980E+12	1.650809E-14	NaN
640	1.000000	0.192872	7.37131e+06	-45089.1	1005.82	-29773.6	0.000000	0.000000	6.192828	-0.045238	NaN	0.000000	0.001675	0.001704	28.0829	0.042666	0.002118	20.1462	120.876	13.4514	-0.039968	0.191422	-0.925812	-0.927262	-0.045238	20.1462	-0.924128	-2.152493E+12	2.101661E-14	NaN
640	1.000000	0.202884	7.37131e+06	-45089.1	1005.82	-29773.6	0.000000	0.000000	6.202844	0.055489	NaN	0.000000	0.001690	0.001685	28.083	0.068095	0.002021	33.6919	81.6601	-163.437	0.114546	0.201586	-0.915800	-0.917098	0.055489	33.6919	-0.917035	-1.726531E+12	-3.213925E-14	NaN
640	1.000000	0.212828	7.37131e+06	-45089.1	1005.82	-29773.6	0.000000	0.000000	6.212788	0.038224	NaN	0.000000	0.001662	0.001696	28.0819	0.037253	0.002015	18.4906	16.5458	14.5165	-0.028377	0.211461	-0.905856	-0.907223	0.038224	18.4906	-0.907406	-1.279759E+12	-2.986786E-14	NaN
640	1.000000	0.222866	7.37131e+06	-45089.1	1005.82	-29773.6	0.000000	0.000000	6.222823	-0.039091	NaN	0.000000	0.001651	0.001663	28.0816	0.026790	0.001987	13.4831	-28.9291	-164.889	-0.076017	0.221526	-0.895818	-0.897158	-0.039091	13.4831	-0.893643	-8.339883E+11	4.687203E-14	NaN
640	1.000000	0.232853	7.37131e+06	-45089.1	1005.82	-29773.6	0.000000	0.000000	6.232813	0.045653	NaN	0.000000	0.001655	0.001672	28.0818	0.059016	0.001951	30.2538	-159.644	15.0741	0.099407	0.231470	-0.885831	-0.887215	0.045653	30.2538	-0.886963	-6.774112E+11	-6.739404E-14	NaN
640	1.000000	0.242881	7.37131e+06	-45089.1	1005.82	-29773.6	0.000000	0.000000	6.242835	-0.088641	NaN	0.000000	0.001625	0.001651	28.0817	0.049198	0.002059	23.8954	-178.843	-166.748	0.034770	0.241599	-0.875803	-0.877085	-0.088641	23.8954	-0.873021	-4.388455E+11	2.019878E-13	NaN
640	1.000000	0.252878	7.37131e+06	-45089.1	1005.82	-29773.6	0.000000	0.000000	6.252839	0.065788	NaN	0.000000	0.001665	0.001702	28.0818	0.096473	0.001830	52.7131	151.709	11.5167	0.070422	0.251496	-0.865806	-0.867188	0.065788	52.7131	-0.866742	-3.608798E+11	-1.822989E-13	NaN
640	1.000000	0.262865	7.37131e+06	-45089.1	1005.82	-29773.6	0.000000	0.000000	6.262821	-0.051754	NaN	0.000000	0.001749	0.001686	28.082	0.134168	0.001997	67.1743	46.6828	-164.583	-0.113447	0.261573	-0.855819	-0.857111	-0.051754	67.1743	-0.855241	-2.521763E+11	2.052301E-13	NaN
640	1.000000	0.272865	7.37131e+06	-45089.1	1005.82	-29773.6	0.000000	0.000000	6.272823	-0.003958	NaN	0.000000	0.001697	0.001668	28.0818	0.054567	0.001972	27.6755	-179.885	12.7422	0.068900	0.271473	-0.845819	-0.847211	-0.003958	27.6755	-0.845712	-1.873551E+11	2.112464E-14	NaN
640	1.000000	0.282878	7.37131e+06	-45089.1	1005.82	-29773.6	0.000000	0.000000	6.282835	-0.025300	NaN	0.000000	0.001686	0.001672	28.0819	0.022457	0.002127	10.5594	-169.117	-164.654	-0.029466	0.281572	-0.835806	-0.837112	-0.025300	10.5594	-0.834009	-1.300522E+11	1.945358E-13	NaN
640	1.000000	0.292882	7.37131e+06	-45089.1	1005.82	-29773.6	0.000000	0.000000	6.292838	-0.057780	NaN	0.000000	0.001740	0.001639	28.0819	0.144819	0.002142	67.6167	-173.583	11.1518	-0.068535	0.291517	-0.825802	-0.827167	-0.057780	67.6167	-0.825161	-9.867041E+10	5.855849E-13	NaN
640	1.000000	0.302884	7.37131e+06	-45089.1	1005.82	-29773.6	0.000000	0.000000	6.302846	0.086950	NaN	0.000000	0.001770	0.001660	28.0817	0.048828	0.002064	23.6597	116.195	-169.604	0.051601	0.301590	-0.815800	-0.817094	0.086950	23.6597	-0.818556	-8.028447E+10	-1.083018E-12	NaN
640	1.000000	0.312901	7.37131e+06	-45089.1	1005.82	-29773.6	0.000000	0.000000	6.312859	0.011821	NaN	0.000000	0.001765	0.001670	28.082	0.070176	0.001923	36.4913	-124.496	16.1615	0.007321	0.311608	-0.805784	-0.807076	0.011821	36.4913	-0.806027	-5.428207E+10	-2.177785E-13	NaN
640	1.000000	0.322868	7.37131e+06	-45089.1	1005.82	-29773.6	0.000000	0.000000	6.322826	0.017008	NaN	0.000000	0.001675	0.001698	28.0817	0.061498	0.002076	29.6165	-142.238	-163.755	0.035185	0.321579	-0.795816	-0.797105	0.017008	29.6165	-0.796247	-3.998641E+10	-4.253486E-13	NaN
640	1.000000	0.332912	7.37131e+06	-45089.1	1005.82	-29773.6	0.000000	0.000000	6.332869	-0.025830	NaN	0.000000	0.001686	0.001652	28.0816	0.121558	0.002042	59.5435	-89.3467	14.8301	-0.053474	0.331563	-0.785772	-0.787121	-0.025830	59.5435	-0.785447	-2.852582E+10	9.054894E-13	NaN
640	1.000000	0.342901	7.37131e+06	-45089.1	1005.82	-29773.6	0.000000	0.000000	6.342856	-0.089381	NaN	0.000000	0.001668	0.001647	28.0829	0.087164	0.002032	42.8852	28.3435	-167.701	-0.085423	0.341627	-0.775783	-0.777057	-0.089381	42.8852	-0.774220	-2.007565E+10	4.452194E-12	NaN
640	1.000000	0.352940	7.37131e+06	-45089.1	1005.82	-29773.6	0.000000	0.000000	6.352899	0.045283	NaN	0.000000	0.001638	0.001662	28.0833	0.055311	0.002027	27.2878	-76.8056	12.9474	0.109507	0.351535	-0.765745	-0.767149	0.045283	27.2878	-0.766989	-1.600905E+10	-2.828560E-12	NaN
640	1.000000	0.362921	7.37131e+06	-45089.1	1005.82	-29773.6	0.000000	0.000000	6.362880	0.008624	NaN	0.000000	0.001650	0.001701	28.083	0.067158	0.002073	32.4015	-137.749	-169.901	-0.022189	0.361571	-0.755763	-0.757113	0.008624	32.4015	-0.755962	-1.133356E+10	-7.608848E-13	NaN
640	1.000000	0.372945	7.37131e+06	-45089.1	1005.82	-29773.6	0.000000	0.000000	6.372902	-0.031424	NaN	0.000000	0.001659	0.001687	28.0833	0.089437	0.001983	45.0923	-64.7223	17.215	0.026685	0.371617	-0.745739	-0.747067	-0.031424	45.0923	-0.745216	-8.092670E+9	3.883023E-12	NaN
640	1.000000	0.382956	7.37131e+06	-45089.1	1005.82	-29773.6	0.000000	0.000000	6.382911	-0.066423	NaN	0.000000	0.001646	0.001643	28.0831	0.102925	0.002105	48.8884	40.2453	-167.352	-0.081663	0.381607	-0.735728	-0.737077	-0.066423	48.8884	-0.734709	-5.820753E+9	1.141146E-11	NaN
640	1.000000	0.392933	7.37131e+06	-45089.1	1005.82	-29773.6	0.000000	0.000000	6.392889	-0.034481	NaN	0.000000	0.001685	0.001677	28.0835	0.046468	0.002014	23.0765	71.2813	15.2484	-0.031011	0.391544	-0.725751	-0.727140	-0.034481	23.0765	-0.724631	-4.242431E+9	8.127590E-12	NaN
640	1.000000	0.402906	7.37131e+06	-45089.1	1005.82	-29773.6	0.000000	0.000000	6.402863	-0.020854	NaN	0.000000	0.001608	0.001702	28.0832	0.078942	0.001966	40.1451	115.437	-166.749	-0.061099	0.401660	-0.715778	-0.717024	-0.020854	40.1451	-0.715388	-3.173709E+9	6.570922E-12	NaN
640	1.000000	0.412945	7.37131e+06	-45089.1	1005.82	-29773.6	0.000000	0.000000	6.412902	-0.032333	NaN	0.000000	0.001623	0.001650	28.0834	0.042243	0.001978	21.3579	-152.273	13.7519	-0.072066	0.411558	-0.705739	-0.707126	-0.032333	21.3579	-0.704603	-2.261451E+9	1.429731E-11	NaN
640	1.000000	0.422963	7.37131e+06	-45089.1	1005.82	-29773.6	0.000000	0.000000	6.422924	0.093951	NaN	0.000000	0.001640	0.001679	28.0836	0.110868	0.001971	56.2598	79.08	-168.333	0.162388	0.421629	-0.695722	-0.697055	0.093951	56.2598	-0.696974	-1.779109E+9	-5.280763E-11	NaN
640	1.000000	0.432965	7.37131e+06	-45089.1	1005.82	-29773.6	0.000000	0.000000	6.432925	0.045500	NaN	0.000000	0.001614	0.001651	28.0834	0.090402	0.001914	47.235	-141.997	12.15	0.003254	0.431584	-0.685719	-0.687100	0.045500	47.235	-0.686442	-1.277268E+9	-3.562266E-11	NaN
640	1.000000	0.442929	7.37131e+06	-45089.1	1005.82	-29773.6	0.000000	0.000000	6.442883	-0.073347	NaN	0.000000	0.001623	0.001689	28.0832	0.099044	0.002028	48.8333	-124.577	-164.263	-0.026810	0.441663	-0.675756	-0.677021	-0.073347	48.8333	-0.674629	-8.805133E+8	8.330062E-11	NaN
640	1.000000	0.452959	7.37131e+06	-45089.1	1005.82	-29773.6	0.000000	0.000000	6.452915	-0.036582	NaN	0.000000	0.001622	0.001682	28.0834	0.105065	0.001975	53.2091	57.7968	11.0515	0.002909	0.451568	-0.665726	-0.667116	-0.036582	53.2091	-0.665210	-6.543614E+8	5.590489E-11	NaN
640	1.000000	0.462932	7.37131e+06	-45089.1	1005.82	-29773.6	0.000000	0.000000	6.462888	-0.025589	NaN	0.000000	0.001603	0.001681	28.0832	0.044375	0.001983	22.3818	-80.6419	-166.301	-0.014994	0.461629	-0.655753	-0.657055	-0.025589	22.3818	-0.654895	-4.726382E+8	5.414168E-11	NaN
640	1.000000	0.472956	7.37131e+06	-45089.1	1005.82	-29773.6	0.000000	0.000000	6.472914	0.005264	NaN	0.000000	0.001650	0.001738	28.0831	0.067412	0.001978	34.0731	-74.4806	13.3935	0.059775	0.471616	-0.645728	-0.647068	0.005264	34.0731	-0.645844	-3.551848E+8	-1.482169E-11	NaN
640	1.000000	0.482996	7.37131e+06	-45089.1	1005.82	-29773.6	0.000000	0.000000	6.482954	0.007001	NaN	0.000000	0.001633	0.001685	28.082	0.110342	0.002060	53.5512	64.0905	-170.173	-0.025515	0.481675	-0.635688	-0.637009	0.007001	53.5512	-0.635786	-2.584990E+8	-2.708408E-11	NaN
640	1.000000	0.492993	7.37131e+06	-45089.1	1005.82	-29773.6	0.000000	0.000000	6.492954	0.069192	NaN	0.000000	0.001640	0.001732	28.0819	0.094543	0.002002	47.2134	-151.373	13.5974	0.082355	0.491598	-0.625691	-0.627086	0.069192	47.2134	-0.626790	-1.945073E+8	-3.557299E-10	NaN
640	1.000000	0.502970	7.37131e+06	-45089.1	1005.82	-29773.6	0.000000	0.000000	6.502928	0.006925	NaN	0.000000	0.001680	0.001711	28.0819	0.071634	0.001938	36.9587	-101.345	-165.427	-0.011750	0.501699	-0.615714	-0.616985	0.006925	36.9587	-0.615855	-1.376071E+8	-5.032576E-11	NaN
640	1.000000	0.512987	7.37131e+06	-45089.1	1005.82	-29773.6	0.000000	0.000000	6.512943	-0.031657	NaN	0.000000	0.001623	0.001671	28.0818	0.053466	0.002038	26.2312	173.75	14.2866	-0.000284	0.511605	-0.605698	-0.607079	-0.031657	26.2312	-0.604792	-9.692758E+7	3.266017E-10	NaN
640	1.000000	0.523012	7.37131e+06	-45089.1	1005.82	-29773.6	0.000000	0.000000	6.522971	0.032681	NaN	0.000000	0.001659	0.001699	28.0819	0.065235	0.002035	32.0632	149.235	-162.957	0.048424	0.521677	-0.595672	-0.597007	0.032681	32.0632	-0.596436	-7.436544E+7	-4.394669E-10	NaN
640	1.000000	0.532981	7.37131e+06	-45089.1	1005.82	-29773.6	0.000000	0.000000	6.532937	-0.032364	NaN	0.000000	0.001638	0.001695	28.0822	0.012522	0.001978	6.330926	-92.8368	12.3672	0.036345	0.531679	-0.585703	-0.587006	-0.032364	6.330926	-0.581869	-4.682975E+7	6.910941E-10	NaN
640	1.000000	0.543006	7.37131e+06	-45089.1	1005.82	-29773.6	0.000000	0.000000	6.542968	0.101949	NaN	0.000000	0.001639	0.001680	28.0818	0.126730	0.002016	62.8672	-164.355	-167.615	0.064603	0.541694	-0.575678	-0.576990	0.101949	62.8672	-0.576895	-3.998137E+7	-2.549917E-9	NaN
640	1.000000	0.553005	7.37131e+06	-45089.1	1005.82	-29773.6	0.000000	0.000000	6.552963	0.009105	NaN	0.000000	0.001644	0.001654	28.0817	0.056877	0.002081	27.3266	-131.101	14.2532	-0.066026	0.551667	-0.565679	-0.567017	0.009105	27.3266	-0.565929	-2.820774E+7	-3.227929E-10	NaN
640	1.000000	0.563003	7.37131e+06	-45089.1	1005.82	-29773.6	0.000000	0.000000	6.562962	0.014600	NaN	0.000000	0.001629	0.001670	28.0821	0.061322	0.002090	29.3467	-52.2549	-163.593	-0.022052	0.561662	-0.555681	-0.557022	0.014600	29.3467	-0.556054	-2.059562E+7	-7.089124E-10	NaN
640	1.000000	0.573020	7.37131e+06	-45089.1	1005.82	-29773.6	0.000000	0.000000	6.572980	0.033025	NaN	0.000000	0.001632	0.001731	28.0816	0.041714	0.002084	20.0211	-150.35	11.9041	-0.008399	0.571649	-0.545664	-0.547035	0.033025	20.0211	-0.546901	-1.538234E+7	-2.146949E-9	NaN
640	1.000000	0.583022	7.37131e+06	-45089.1	1005.82	-29773.6	0.000000	0.000000	6.582982	0.048901	NaN	0.000000	0.001640	0.001712	28.0819	0.075145	0.001901	39.5188	57.6674	-166.983	0.125277	0.581693	-0.535662	-0.536991	0.048901	39.5188	-0.536590	-1.106768E+7	-4.418321E-9	NaN
640	1.000000	0.593018	7.37131e+06	-45089.1	1005.82	-29773.6	0.000000	0.000000	6.592977	0.039045	NaN	0.000000	0.001646	0.001701	28.0818	0.047547	0.002008	23.6784	-91.1471	13.265	0.031580	0.591660	-0.525667	-0.527024	0.039045	23.6784	-0.526903	-8.12006e+06	-4.808458E-9	NaN
640	1.000000	0.603018	7.37131e+06	-45089.1	1005.82	-29773.6	0.000000	0.000000	6.602975	-0.028463	NaN	0.000000	0.001583	0.001718	28.0822	0.023829	0.001970	12.0991	-173.917	-168.265	1.008575E-5	0.601658	-0.515666	-0.517026	-0.028463	12.0991	-0.513901	-5.35475e+06	5.315506E-9	NaN
640	1.000000	0.613027	7.37131e+06	-45089.1	1005.82	-29773.6	0.000000	0.000000	6.612984	-0.011162	NaN	0.000000	0.001576	0.001695	28.0821	0.072976	0.002104	34.6847	86.9712	18.7587	-0.011757	0.611626	-0.505658	-0.507058	-0.011162	34.6847	-0.505416	-4.07893e+06	2.736604E-9	NaN
640	1.000000	0.623041	7.37131e+06	-45089.1	1005.82	-29773.6	0.000000	0.000000	6.622997	-0.053744	NaN	0.000000	0.001595	0.001709	28.0831	0.181778	0.002056	88.3971	78.8014	-167.602	-0.011045	0.621743	-0.495643	-0.496941	-0.053744	88.3971	-0.495187	-2.93661e+06	1.830125E-8	NaN
640	1.000000	0.633027	7.37131e+06	-45089.1	1005.82	-29773.6	0.000000	0.000000	6.632984	-0.015841	NaN	0.000000	0.001607	0.001713	28.0829	0.026806	0.002057	13.0288	137.874	19.0533	-0.060326	0.631632	-0.485657	-0.487052	-0.015841	13.0288	-0.484745	-2.09857e+06	7.548261E-9	NaN
640	1.000000	0.643073	7.37131e+06	-45089.1	1005.82	-29773.6	0.000000	0.000000	6.643029	-0.030643	NaN	0.000000	0.001656	0.001652	28.0832	0.056370	0.002002	28.1508	-174.308	-168.422	0.003246	0.641733	-0.475611	-0.476951	-0.030643	28.1508	-0.474795	-1.52275e+06	2.012346E-8	NaN
640	1.000000	0.653068	7.37131e+06	-45089.1	1005.82	-29773.6	0.000000	0.000000	6.653026	-0.006055	NaN	0.000000	0.001589	0.001653	28.0829	0.040218	0.001946	20.6687	-30.297	16.5525	0.026091	0.651712	-0.465616	-0.466972	-0.006055	20.6687	-0.465396	-1.1241e+06	5.386100E-9	NaN
640	1.000000	0.663054	7.37131e+06	-45089.1	1005.82	-29773.6	0.000000	0.000000	6.663015	0.070664	NaN	0.000000	0.001594	0.001672	28.0831	0.068679	0.001937	35.4605	-97.6505	-166.486	0.054054	0.661790	-0.455630	-0.456894	0.070664	35.4605	-0.457124	-860188	-8.214951E-8	NaN
640	1.000000	0.673057	7.37131e+06	-45089.1	1005.82	-29773.6	0.000000	0.000000	6.673014	-0.023981	NaN	0.000000	0.001617	0.001663	28.0831	0.067785	0.002069	32.7668	-126.706	13.117	-0.041551	0.671703	-0.445627	-0.446981	-0.023981	32.7668	-0.445079	-582102	4.119654E-8	NaN
640	1.000000	0.683063	7.37131e+06	-45089.1	1005.82	-29773.6	0.000000	0.000000	6.683019	-0.060878	NaN	0.000000	0.001629	0.001679	28.0832	0.114044	0.002076	54.943	116.871	-166.042	-0.084741	0.681714	-0.435621	-0.436970	-0.060878	54.943	-0.434790	-416661	1.461098E-7	NaN
640	1.000000	0.693102	7.37131e+06	-45089.1	1005.82	-29773.6	0.000000	0.000000	6.693061	0.026504	NaN	0.000000	0.001615	0.001680	28.0829	0.141412	0.002022	69.9522	-76.1637	14.2405	0.021776	0.691652	-0.425582	-0.427033	0.026504	69.9522	-0.425866	-311568	-8.506526E-8	NaN
640	1.000000	0.703087	7.37131e+06	-45089.1	1005.82	-29773.6	0.000000	0.000000	6.703041	-0.087302	NaN	0.000000	0.001634	0.001684	28.0832	0.115130	0.001957	58.8416	83.3478	-170.625	-0.050068	0.701740	-0.415597	-0.416945	-0.087302	58.8416	-0.414485	-214851	4.063394E-7	NaN
640	1.000000	0.713064	7.37131e+06	-45089.1	1005.82	-29773.6	0.000000	0.000000	6.713023	0.030894	NaN	0.000000	0.001632	0.001696	28.0833	0.095002	0.001952	48.6782	-164.537	13.6452	0.005721	0.711669	-0.405620	-0.407015	0.030894	48.6782	-0.406096	-163252	-1.892440E-7	NaN
640	1.000000	0.723074	7.37131e+06	-45089.1	1005.82	-29773.6	0.000000	0.000000	6.723032	0.006139	NaN	0.000000	0.001643	0.001700	28.0831	0.057445	0.002070	27.7456	39.212	-167.703	0.005359	0.721815	-0.395610	-0.396869	0.006139	27.7456	-0.395776	-116336	-5.277208E-8	NaN
640	1.000000	0.733068	7.37131e+06	-45089.1	1005.82	-29773.6	0.000000	0.000000	6.733027	0.028369	NaN	0.000000	0.001653	0.001674	28.083	0.163608	0.001959	83.533	-164.291	13.0955	-0.029491	0.731699	-0.385616	-0.386985	0.028369	83.533	-0.385871	-83959	-3.378939E-7	NaN
640	1.000000	0.743068	7.37131e+06	-45089.1	1005.82	-29773.6	0.000000	0.000000	6.743027	0.036022	NaN	0.000000	0.001640	0.001671	28.0835	0.047765	0.001920	24.8749	152.286	-163.197	0.108393	0.741795	-0.375616	-0.376890	0.036022	24.8749	-0.376703	-62021	-5.807995E-7	NaN
640	1.000000	0.753081	7.37131e+06	-45089.1	1005.82	-29773.6	0.000000	0.000000	6.753039	0.020870	NaN	0.000000	0.001648	0.001656	28.082	0.089967	0.001950	46.1482	-168.554	14.2766	0.044813	0.751720	-0.365603	-0.366964	0.020870	46.1482	-0.365943	-43416.1	-4.806902E-7	NaN
640	1.000000	0.763091	7.37131e+06	-45089.1	1005.82	-29773.6	0.000000	0.000000	6.763050	0.014420	NaN	0.000000	0.001673	0.001663	28.0819	0.065294	0.002111	30.9312	-93.3469	-165.775	0.115417	0.761793	-0.355593	-0.356891	0.014420	30.9312	-0.355942	-31127.6	-4.632547E-7	NaN
640	1.000000	0.773080	7.37131e+06	-45089.1	1005.82	-29773.6	0.000000	0.000000	6.773040	0.053322	NaN	0.000000	0.001648	0.001667	28.0822	0.046984	0.002045	22.9754	77.6179	13.6591	0.024572	0.771749	-0.345604	-0.346935	0.053322	22.9754	-0.347345	-23358.4	-2.282784E-6	NaN
640	1.000000	0.783093	7.37131e+06	-45089.1	1005.82	-29773.6	0.000000	0.000000	6.783051	0.011282	NaN	0.000000	0.001657	0.001646	28.0824	0.059668	0.002070	28.8217	140.589	-164.831	0.022881	0.781820	-0.335591	-0.336864	0.011282	28.8217	-0.335885	-15904.1	-7.093752E-7	NaN
640	1.000000	0.793089	7.37131e+06	-45089.1	1005.82	-29773.6	0.000000	0.000000	6.793047	-0.004902	NaN	0.000000	0.001671	0.001672	28.0822	0.103278	0.001876	55.0618	158.745	14.3727	0.035578	0.791767	-0.325595	-0.326917	-0.004902	55.0618	-0.325528	-11217.3	4.370341E-7	NaN
640	1.000000	0.803061	7.37131e+06	-45089.1	1005.82	-29773.6	0.000000	0.000000	6.803018	-0.025860	NaN	0.000000	0.001645	0.001704	28.0822	0.110361	0.002015	54.7591	11.0613	-164.675	0.045849	0.801763	-0.315623	-0.316921	-0.025860	54.7591	-0.315269	-7923.54	3.263682E-6	NaN
640	1.000000	0.813125	7.37131e+06	-45089.1	1005.82	-29773.6	0.000000	0.000000	6.813083	-0.005683	NaN	0.000000	0.001655	0.001677	28.0821	0.012542	0.002014	6.226789	-74.284	14.4406	0.013166	0.811713	-0.305559	-0.306971	-0.005683	6.226789	-0.304874	-5560.15	1.022174E-6	NaN
640	1.000000	0.823103	7.37131e+06	-45089.1	1005.82	-29773.6	0.000000	0.000000	6.823062	0.026492	NaN	0.000000	0.001723	0.001630	28.0822	0.014541	0.001852	7.852502	-22.8156	-162.729	0.054219	0.821792	-0.295581	-0.296892	0.026492	7.852502	-0.298112	-4410.71	-6.006286E-6	NaN
640	1.000000	0.833144	7.37131e+06	-45089.1	1005.82	-29773.6	0.000000	0.000000	6.833102	-0.011177	NaN	0.000000	0.001649	0.001672	28.082	0.053680	0.001949	27.5478	84.0517	13.5351	-0.049592	0.831771	-0.285540	-0.286913	-0.011177	27.5478	-0.285236	-2830.13	3.949410E-6	NaN
640	1.000000	0.843140	7.37131e+06	-45089.1	1005.82	-29773.6	0.000000	0.000000	6.843097	-0.000820	NaN	0.000000	0.001638	0.001668	28.0818	0.027420	0.002046	13.4007	-113.273	-166.696	0.053160	0.841804	-0.275545	-0.276880	-0.000820	13.4007	-0.275499	-2018.14	4.062321E-7	NaN
640	1.000000	0.853107	7.37132e+06	-45089.1	1005.82	-29773.6	0.000000	0.000000	6.853063	-0.057397	NaN	0.000000	0.001658	0.001609	28.0823	0.066642	0.001901	35.0507	-16.95	15.6843	-0.077242	0.851786	-0.265577	-0.266899	-0.057397	35.0507	-0.264349	-1365.99	4.201891E-5	NaN
640	1.000000	0.863139	7.37132e+06	-45089.1	1005.82	-29773.6	0.000000	0.000000	6.863095	-0.051918	NaN	0.000000	0.001637	0.001632	28.0819	0.098500	0.001917	51.3892	154.368	-167.518	-0.056400	0.861880	-0.255545	-0.256804	-0.051918	51.3892	-0.254787	-974.634	5.326917E-5	NaN
640	1.000000	0.873129	7.37132e+06	-45089.1	1005.82	-29773.6	0.000000	0.000000	6.873088	0.016613	NaN	0.000000	0.001615	0.001680	28.0822	0.154437	0.002072	74.5433	-131.032	13.0304	-0.007440	0.871819	-0.245555	-0.246865	0.016613	74.5433	-0.245722	-705.781	-2.353785E-5	NaN
640	1.000000	0.883116	7.37132e+06	-45089.1	1005.82	-29773.6	0.000000	0.000000	6.883072	-0.054046	NaN	0.000000	0.001602	0.001661	28.0822	0.033623	0.002069	16.2545	118.659	-164.9	0.037014	0.881816	-0.235568	-0.236868	-0.054046	16.2545	-0.233074	-447.687	0.000121	NaN
640	1.000000	0.893165	7.37132e+06	-45089.1	1005.82	-29773.6	0.000000	0.000000	6.893122	-0.012895	NaN	0.000000	0.001603	0.001677	28.0837	0.096113	0.001970	48.795	-97.3557	9.221878	0.024800	0.891806	-0.225519	-0.226878	-0.012895	48.795	-0.225321	-337.624	3.819256E-5	NaN
640	1.000000	0.903180	7.37132e+06	-45089.1	1005.82	-29773.6	0.000000	0.000000	6.903137	-0.003860	NaN	0.000000	0.001607	0.001680	28.0832	0.044606	0.002028	21.9991	76.1757	-163.563	-0.002594	0.901811	-0.215504	-0.216873	-0.003860	21.9991	-0.215373	-234.158	1.648628E-5	NaN
640	1.000000	0.913138	7.37132e+06	-45089.1	1005.82	-29773.6	0.000000	0.000000	6.913097	0.027878	NaN	0.000000	0.001609	0.001685	28.0834	0.050635	0.002027	24.9754	-158.021	20.8566	0.004462	0.911773	-0.205547	-0.206911	0.027878	24.9754	-0.206384	-167.535	-0.000166	NaN
640	1.000000	0.923141	7.37132e+06	-45089.1	1005.82	-29773.6	0.000000	0.000000	6.923099	-0.000160	NaN	0.000000	0.001698	0.001661	28.0833	0.136535	0.001880	72.6168	-161.42	-164.444	-0.036205	0.921821	-0.195543	-0.196863	-0.000160	72.6168	-0.195541	-111.215	1.435189E-6	NaN
640	1.000000	0.933168	7.37132e+06	-45089.1	1005.82	-29773.6	0.000000	0.000000	6.933122	-0.090317	NaN	0.000000	0.001699	0.001680	28.0835	0.097682	0.002047	47.7136	178.998	15.7456	-0.066609	0.931764	-0.185516	-0.186920	-0.090317	47.7136	-0.184096	-71.5956	0.001261	NaN
640	1.000000	0.943146	7.37132e+06	-45089.1	1005.82	-29773.6	0.000000	0.000000	6.943104	0.018250	NaN	0.000000	0.001658	0.001683	28.0834	0.057952	0.001969	29.4324	-128.973	-164.847	-0.053298	0.941828	-0.175539	-0.176856	0.018250	29.4324	-0.176004	-52.1445	-0.000350	NaN
640	1.000000	0.953187	7.37132e+06	-45089.1	1005.82	-29773.6	0.000000	0.000000	6.953145	0.016122	NaN	0.000000	0.001728	0.001673	28.0837	0.045452	0.002062	22.0454	-14.6275	12.2618	0.049684	0.951818	-0.165497	-0.166866	0.016122	22.0454	-0.166046	-35.0469	-0.000460	NaN
640	1.000000	0.963200	7.37132e+06	-45089.1	1005.82	-29773.6	0.000000	0.000000	6.963156	-0.044310	NaN	0.000000	0.001690	0.001717	28.0837	0.005421	0.001899	2.853911	-145.93	-168.672	-0.022312	0.961862	-0.155484	-0.156823	-0.044310	2.853911	-0.143839	-13.9526	0.003176	NaN
640	1.000000	0.973182	7.37132e+06	-45089.1	1005.82	-29773.6	0.000000	0.000000	6.973140	-0.010638	NaN	0.000000	0.001679	0.001742	28.0837	0.018660	0.002094	8.912269	126.741	13.1934	0.046207	0.971843	-0.145502	-0.146841	-0.010638	8.912269	-0.144606	-14.4172	0.000738	NaN
640	1.000000	0.983182	7.37132e+06	-45089.1	1005.82	-29773.6	0.000000	0.000000	6.983140	0.005089	NaN	0.000000	0.001718	0.001684	28.0834	0.077888	0.002210	35.2395	-87.55	-165.269	0.031913	0.981880	-0.135502	-0.136804	0.005089	35.2395	-0.135610	-9.770792	-0.000521	NaN
640	1.000000	0.993169	7.37132e+06	-45089.1	1005.82	-29773.6	0.000000	0.000000	6.993129	0.056888	NaN	0.000000	0.001666	0.001719	28.0835	0.040094	0.002105	19.0476	-101.503	14.7574	0.093973	0.991827	-0.125515	-0.126857	0.056888	19.0476	-0.127755	-6.890032	-0.008257	NaN
640	1.000000	1.003195	7.37132e+06	-45089.1	1005.82	-29773.6	0.000000	0.000000	7.003153	-0.003488	NaN	0.000000	0.001688	0.001701	28.0837	0.139171	0.001962	70.9175	86.8822	-163.584	-0.013670	1.001845	-0.115489	-0.116839	-0.003488	70.9175	-0.115452	-3.903207	0.000894	NaN
640	1.000000	1.013185	7.37132e+06	-45089.1	1005.82	-29773.6	0.000000	0.000000	7.013142	-0.009582	NaN	0.000000	0.001602	0.001711	28.0833	0.139041	0.001845	75.3813	-179.049	16.3576	0.010207	1.011842	-0.105499	-0.106842	-0.009582	75.3813	-0.105404	-2.398252	0.003995	NaN
640	1.000000	1.023208	7.37132e+06	-45089.1	1005.82	-29773.6	0.000000	0.000000	7.023165	-0.024974	NaN	0.000000	0.001676	0.001701	28.0832	0.040318	0.001971	20.4528	-162.999	-162.081	0.000135	1.021910	-0.095476	-0.096775	-0.024974	20.4528	-0.094561	-1.378448	0.018117	NaN
640	1.000000	1.033170	7.37132e+06	-45089.1	1005.82	-29773.6	0.000000	0.000000	7.033127	-0.006205	NaN	0.000000	0.001678	0.001695	28.0824	0.099335	0.001978	50.2077	3.331111	15.1865	0.035550	1.031812	-0.085514	-0.086872	-0.006205	50.2077	-0.085422	-0.841143	0.007377	NaN
640	1.000000	1.043197	7.37132e+06	-45089.1	1005.82	-29773.6	0.000000	0.000000	7.043158	0.072463	NaN	0.000000	0.001672	0.001709	28.0822	0.008327	0.002098	3.967971	-10.73	-170.747	0.112127	1.041834	-0.075487	-0.076850	0.072463	3.967971	-0.089183	-1.034205	-0.070067	NaN
640	1.000000	1.053193	7.37132e+06	-45089.1	1005.82	-29773.6	0.000000	0.000000	7.053150	-0.003102	NaN	0.000000	0.001640	0.001781	28.0821	0.052172	0.002063	25.2932	163.198	14.0386	-0.041692	1.051874	-0.065491	-0.066810	-0.003102	25.2932	-0.065399	-0.255647	0.012135	NaN
640	1.000000	1.063222	7.37132e+06	-45089.1	1005.82	-29773.6	0.000000	0.000000	7.063180	0.005581	NaN	0.000000	0.001647	0.001714	28.0822	0.109772	0.001983	55.3487	28.4864	-165.578	-0.022377	1.061910	-0.055462	-0.056774	0.005581	55.3487	-0.055538	-0.133572	-0.041786	NaN
640	1.000000	1.073202	7.37132e+06	-45089.1	1005.82	-29773.6	0.000000	0.000000	7.073158	-0.039611	NaN	0.000000	0.001633	0.001748	28.0823	0.101543	0.002003	50.6894	-118.757	12.2371	-0.057760	1.071807	-0.045483	-0.046877	-0.039611	50.6894	-0.044896	-0.063801	0.620844	NaN
640	1.000000	1.083219	7.37132e+06	-45089.1	1005.82	-29773.6	0.000000	0.000000	7.083177	0.009977	NaN	0.000000	0.001643	0.001709	28.082	0.146240	0.001985	73.6829	-68.9393	-163.473	0.014512	1.081898	-0.035465	-0.036786	0.009977	73.6829	-0.035567	-0.033282	-0.299759	NaN
640	1.000000	1.093218	7.37132e+06	-45089.1	1005.82	-29773.6	0.000000	0.000000	7.093177	0.034654	NaN	0.000000	0.001615	0.001742	28.0821	0.061987	0.001931	32.1044	-41.5391	14.1646	0.083830	1.091846	-0.025466	-0.026839	0.034654	32.1044	-0.026276	-0.018227	-1.901238	NaN
640	1.000000	1.103232	7.37132e+06	-45089.1	1005.82	-29773.6	0.000000	0.000000	7.103193	0.077369	NaN	0.000000	0.001629	0.001747	28.0821	0.060637	0.002060	29.4361	-5.436391	-163.588	0.064613	1.101883	-0.015452	-0.016801	0.077369	29.4361	-0.017423	-0.010783	-7.174949	NaN
640	1.000000	1.113223	7.37132e+06	-45089.1	1005.82	-29773.6	0.000000	0.000000	7.113189	0.186231	NaN	0.000000	0.001624	0.001722	28.0823	0.482897	0.001939	248.998	17.2998	11.4744	-0.037861	1.111898	-0.005461	-0.006786	0.186231	248.998	-0.006022	-0.004050	-45.9863	NaN
640	2.000000	1.122653	7.37132e+06	-45089.1	1005.82	-29773.6	0.000000	0.000000	7.122960	8.510351	NaN	0.000000	0.001672	0.001726	28.0821	9.159570	0.001703	5378.78	11.6635	-176.024	7.775582	1.121875	0.003969	0.003191	8.510351	5378.78	0.002782	0.002197	3873.19	104838
640	2.000000	1.125330	7.37132e+06	-45089.1	1005.82	-29773.6	0.000000	0.000000	7.125815	12.8259	NaN	0.000000	0.001684	0.001680	28.0819	11.643	0.001699	6854.79	6.484049	7.080249	12.1522	1.124923	0.006646	0.006239	12.8259	6854.79	0.005243	0.004356	2944.36	94889.8
640	2.000000	1.127792	7.37132e+06	-45089.1	1005.82	-29773.6	0.000000	0.000000	7.128478	17.7164	NaN	0.000000	0.001675	0.001690	28.0825	14.487	0.001595	9081.28	3.327583	-173.429	16.6458	1.127445	0.009108	0.008761	17.7164	9081.28	0.007645	0.006680	2652.24	101517
640	2.000000	1.130235	7.37132e+06	-45089.1	1005.82	-29773.6	0.000000	0.000000	7.131151	23.3157	NaN	0.000000	0.001680	0.001717	28.0818	18.036	0.001730	10423.3	7.219035	1.781423	21.5783	1.129897	0.011550	0.011213	23.3157	10423.3	0.009873	0.009040	2579.03	100157
640	2.000000	1.132780	7.37132e+06	-45089.1	1005.82	-29773.6	0.000000	0.000000	7.133830	26.5609	NaN	0.000000	0.001654	0.001698	28.0833	21.0606	0.001897	11103.4	8.512498	-178.371	26.7527	1.132474	0.014096	0.013790	26.5609	11103.4	0.012302	0.011854	2240.68	93174.4
640	2.000000	1.135233	7.37132e+06	-45089.1	1005.82	-29773.6	0.000000	0.000000	7.136543	32.8848	NaN	0.000000	0.001677	0.001728	28.0834	23.5292	0.001757	13389	6.470076	0.553787	31.3117	1.134876	0.016549	0.016192	32.8848	13389	0.014707	0.014897	2207.48	100224
640	2.000000	1.137706	7.37132e+06	-45089.1	1005.82	-29773.6	0.000000	0.000000	7.139319	40.26	NaN	0.000000	0.001641	0.001742	28.0836	25.66	0.001646	15586.9	2.802939	-177.911	38.6293	1.137441	0.019022	0.018757	40.26	15586.9	0.017084	0.018166	2216.19	105657
640	2.000000	1.140249	7.37132e+06	-45089.1	1005.82	-29773.6	0.000000	0.000000	7.142109	46.2601	NaN	0.000000	0.001639	0.001714	28.0831	28.2033	0.001791	15749.9	0.513819	5.125531	45.6896	1.139883	0.021565	0.021199	46.2601	15749.9	0.019362	0.021550	2146.62	98022.5
640	2.000000	1.142736	7.37132e+06	-45089.1	1005.82	-29773.6	0.000000	0.000000	7.144803	51.3026	NaN	0.000000	0.001609	0.001684	28.0834	31.4027	0.001801	17434.8	5.105092	179.814	51.9064	1.142467	0.024052	0.023783	51.3026	17434.8	0.021845	0.025525	2009.89	99702.3
640	2.000000	1.145258	7.37132e+06	-45089.1	1005.82	-29773.6	0.000000	0.000000	7.147779	62.3697	NaN	0.000000	0.001680	0.001695	28.0832	33.2299	0.001790	18565.1	4.806260	-0.464079	62.6191	1.144892	0.026574	0.026208	62.3697	18565.1	0.024054	0.029317	2127.4	99062.3
640	2.000000	1.147748	7.37132e+06	-45089.1	1005.82	-29773.6	0.000000	0.000000	7.150452	66.8227	NaN	0.000000	0.001665	0.001693	28.0836	34.9711	0.001598	21889.3	2.852974	179.114	68.6734	1.147474	0.029064	0.028790	66.8227	21889.3	0.026774	0.034322	1946.92	107949
640	2.000000	1.150173	7.37132e+06	-45089.1	1005.82	-29773.6	0.000000	0.000000	7.153308	77.2987	NaN	0.000000	0.001674	0.001746	28.0832	38.5818	0.001924	20053.3	5.994946	-2.465287	74.2728	1.149849	0.031489	0.031165	77.2987	20053.3	0.028598	0.037888	2040.21	94126.5
640	2.000000	1.152705	7.37132e+06	-45089.1	1005.82	-29773.6	0.000000	0.000000	7.156151	84.8777	NaN	0.000000	0.001656	0.001744	28.0832	40.8322	0.001816	22481.6	8.291063	173.053	83.223	1.152349	0.034020	0.033665	84.8777	22481.6	0.031189	0.043244	1962.76	98773
640	2.000000	1.155260	7.37132e+06	-45089.1	1005.82	-29773.6	0.000000	0.000000	7.159100	94.4395	NaN	0.000000	0.001688	0.001707	28.0833	41.886	0.001768	23694.8	3.402978	-1.131379	95.7695	1.154935	0.036576	0.036251	94.4395	23694.8	0.033586	0.048506	1946.98	98294.5
640	2.000000	1.157696	7.37132e+06	-45089.1	1005.82	-29773.6	0.000000	0.000000	7.161986	105.399	NaN	0.000000	0.001661	0.001717	28.0833	45.5344	0.001844	24693.4	5.681771	175.776	104.393	1.157335	0.039012	0.038651	105.399	24693.4	0.035810	0.053650	1964.58	97402.7
640	2.000000	1.160196	7.37132e+06	-45089.1	1005.82	-29773.6	0.000000	0.000000	7.164948	116.637	NaN	0.000000	0.001667	0.001712	28.0833	47.9532	0.001899	25251.5	5.246497	-3.799204	115.301	1.159842	0.041512	0.041158	116.637	25251.5	0.038047	0.059079	1974.25	94916.6
640	2.000000	1.162671	7.37132e+06	-45089.1	1005.82	-29773.6	0.000000	0.000000	7.167889	127.959	NaN	0.000000	0.001640	0.001732	28.0832	50.0484	0.001615	30998.7	6.692300	172.195	126.029	1.162382	0.043987	0.043698	127.959	30998.7	0.040891	0.066351	1928.51	109950
640	2.000000	1.165224	7.37132e+06	-45089.1	1005.82	-29773.6	0.000000	0.000000	7.170848	137.829	NaN	0.000000	0.001674	0.001714	28.0832	51.4482	0.001824	28208.2	2.482916	-1.863647	136.143	1.164880	0.046540	0.046196	137.829	28208.2	0.042876	0.071671	1923.08	96266.7
640	2.000000	1.167662	7.37132e+06	-45089.1	1005.82	-29773.6	0.000000	0.000000	7.173920	153.257	NaN	0.000000	0.001698	0.001717	28.0821	54.9638	0.001706	32222.7	7.651890	171.423	152.042	1.167325	0.048978	0.048641	153.257	32222.7	0.045411	0.078758	1945.92	104903
640	2.000000	1.170133	7.37132e+06	-45089.1	1005.82	-29773.6	0.000000	0.000000	7.176770	162.474	NaN	0.000000	0.001685	0.001721	28.082	57.5745	0.001838	31316	2.699851	-3.695359	158.552	1.169898	0.051449	0.051214	162.474	31316	0.047558	0.085015	1911.13	98127.9
640	2.000000	1.172667	7.37132e+06	-45089.1	1005.82	-29773.6	0.000000	0.000000	7.179993	179.25	NaN	0.000000	0.001714	0.001692	28.082	60.0396	0.001791	33516	4.604626	174.034	178.626	1.172385	0.053983	0.053701	179.25	33516	0.049971	0.092325	1941.51	100778
640	2.000000	1.175179	7.37132e+06	-45089.1	1005.82	-29773.6	0.000000	0.000000	7.182992	191.083	NaN	0.000000	0.001740	0.001731	28.0818	61.0472	0.001713	35639.2	3.132022	-5.056983	188.053	1.174862	0.056495	0.056178	191.083	35639.2	0.052474	0.100212	1906.78	102859
640	2.000000	1.177647	7.37132e+06	-45089.1	1005.82	-29773.6	0.000000	0.000000	7.186186	208.751	NaN	0.000000	0.001775	0.001747	28.082	64.1769	0.001754	36593	8.031833	170.142	206.685	1.177387	0.058963	0.058703	208.751	36593	0.054684	0.107440	1942.96	101997
640	2.000000	1.180073	7.37132e+06	-45089.1	1005.82	-29773.6	0.000000	0.000000	7.189149	221.823	NaN	0.000000	0.001742	0.001725	28.0819	67.5313	0.001828	36951.5	5.379232	-7.259344	215.932	1.179705	0.061389	0.061021	221.823	36951.5	0.056887	0.114882	1930.87	99604.5
640	2.000000	1.182610	7.37132e+06	-45089.1	1005.82	-29773.6	0.000000	0.000000	7.192219	234.795	NaN	0.000000	0.001687	0.001701	28.0819	69.7618	0.001837	37977	2.308441	175.924	230.804	1.182305	0.063926	0.063621	234.795	37977	0.059289	0.123270	1904.72	98824.5
640	2.000000	1.185210	7.37132e+06	-45089.1	1005.82	-29773.6	0.000000	0.000000	7.195467	250.56	NaN	0.000000	0.001661	0.001704	28.0821	71.8297	0.001782	40305	8.027925	-10.6327	250.999	1.184873	0.066525	0.066189	250.56	40305	0.061863	0.132574	1889.97	101135
640	2.000000	1.187653	7.37132e+06	-45089.1	1005.82	-29773.6	0.000000	0.000000	7.198611	267.61	NaN	0.000000	0.001675	0.001702	28.0821	73.1539	0.001766	41429.2	4.958509	172.361	267.326	1.187322	0.068969	0.068638	267.61	41429.2	0.064124	0.141012	1897.78	100798
640	2.000000	1.190158	7.37132e+06	-45089.1	1005.82	-29773.6	0.000000	0.000000	7.201654	280.688	NaN	0.000000	0.001675	0.001730	28.0817	76.8403	0.001865	41197.8	5.776268	-8.710469	278.592	1.189830	0.071474	0.071146	280.688	41197.8	0.066364	0.149614	1876.08	97310.9
640	2.000000	1.192656	7.37132e+06	-45089.1	1005.82	-29773.6	0.000000	0.000000	7.204927	299.557	NaN	0.000000	0.001710	0.001696	28.082	78.1862	0.001928	40549.7	3.631290	174.248	297.633	1.192305	0.073972	0.073621	299.557	40549.7	0.068431	0.157764	1898.77	93273.2
640	2.000000	1.195164	7.37132e+06	-45089.1	1005.82	-29773.6	0.000000	0.000000	7.208170	317.428	NaN	0.000000	0.001690	0.001730	28.0821	78.6783	0.001694	46446.8	2.072285	-5.250857	313.639	1.194780	0.076480	0.076096	317.428	46446.8	0.071354	0.169640	1871.19	103030
640	2.000000	1.197579	7.37132e+06	-45089.1	1005.82	-29773.6	0.000000	0.000000	7.211416	337.637	NaN	0.000000	0.001672	0.001700	28.0823	81.3221	0.001751	46432.5	4.893403	171.913	335.338	1.197299	0.078895	0.078615	337.637	46432.5	0.073442	0.178369	1892.91	100447
640	2.000000	1.200183	7.37132e+06	-45089.1	1005.82	-29773.6	0.000000	0.000000	7.214640	352.711	NaN	0.000000	0.001686	0.001708	28.0823	84.1572	0.001715	49078.9	7.928150	-11.6595	352.132	1.199670	0.081499	0.080986	352.711	49078.9	0.076109	0.189823	1858.1	102919
640	2.000000	1.202552	7.37132e+06	-45089.1	1005.82	-29773.6	0.000000	0.000000	7.217713	369.871	NaN	0.000000	0.001696	0.001730	28.0833	86.7683	0.001876	46262.9	2.223685	174.268	364.472	1.202297	0.083867	0.083613	369.871	46262.9	0.077871	0.197573	1872.07	95091.8
640	2.000000	1.205136	7.37132e+06	-45089.1	1005.82	-29773.6	0.000000	0.000000	7.221189	391.546	NaN	0.000000	0.001696	0.001726	28.0834	88.4107	0.001855	47649.9	3.439737	-6.701149	387.363	1.204827	0.086452	0.086143	391.546	47649.9	0.080289	0.208443	1878.43	95354.6
640	2.000000	1.207588	7.37132e+06	-45089.1	1005.82	-29773.6	0.000000	0.000000	7.224342	408.597	NaN	0.000000	0.001687	0.001715	28.0833	91.0421	0.001808	50356.3	4.629813	171.449	406.042	1.207300	0.088904	0.088616	408.597	50356.3	0.082819	0.220106	1856.37	98064.4
640	2.000000	1.210104	7.37132e+06	-45089.1	1005.82	-29773.6	0.000000	0.000000	7.227795	431.412	NaN	0.000000	0.001649	0.001717	28.0827	95.0104	0.001875	50669.2	6.568240	-10.7121	427.288	1.209719	0.091420	0.091035	431.412	50669.2	0.085034	0.230564	1871.12	96409.9
640	2.000000	1.212615	7.37132e+06	-45089.1	1005.82	-29773.6	0.000000	0.000000	7.231209	453.371	NaN	0.000000	0.001655	0.001764	28.0837	96.2338	0.001778	54129.3	1.623331	174.152	450.387	1.212296	0.093931	0.093612	453.371	54129.3	0.087649	0.243201	1864.18	100282
640	2.000000	1.215119	7.37132e+06	-45089.1	1005.82	-29773.6	0.000000	0.000000	7.234153	464.069	NaN	0.000000	0.001693	0.001732	28.0829	97.4745	0.001882	51790.9	0.979517	-4.946971	460.84	1.214919	0.096435	0.096235	464.069	51790.9	0.089715	0.253404	1831.34	93998.3
640	2.000000	1.217653	7.37132e+06	-45089.1	1005.82	-29773.6	0.000000	0.000000	7.237711	488.978	NaN	0.000000	0.001674	0.001721	28.083	100.14	0.001751	57193.4	3.759535	171.253	488.881	1.217355	0.098969	0.098671	488.978	57193.4	0.092557	0.267763	1826.16	100982
640	2.000000	1.220169	7.37132e+06	-45089.1	1005.82	-29773.6	0.000000	0.000000	7.241228	513.333	NaN	0.000000	0.001699	0.001705	28.0828	102.84	0.001789	57478.6	3.793786	-8.220917	514.547	1.219681	0.101485	0.100997	513.333	57478.6	0.094787	0.279292	1837.98	99368.9
640	2.000000	1.221033	7.37132e+06	-45089.1	1005.82	-29773.6	0.000000	0.000000	7.242399	520.802	NaN	0.000000	0.001709	0.001683	28.0826	103.729	0.001787	58031.5	7.587752	-11.8703	513.982	1.220770	0.102349	0.102086	520.802	58031.5	0.095618	0.283643	1836.12	99552.3