File: remote_trans/data/nanoindenter/0828-1/data/Data_2025-08-06,11h17m57s/2025-07-22_16-23-58_1_337.txt
2025-07-22, 16:23:58, 1
Index	Phase	Displacement	Time	Pos X	Pos Y	Pos Z	Rot A	Rot B	Piezo Z	Force A	Force B	Gripper	Voltage A	Voltage B	Temperature	Amplitude force	Amplitude pos	Stiffness	Phase shift	Phase excitation	Force A raw	Displacement raw	HMax	HMax raw	Real Force	Real Stiffness	Contact Depth	Area	Hardness	Reduced Mod.
[#]	[#]	[um]	[s]	[um]	[um]	[um]	[m°]	[m°]	[um]	[uN]	[uN]	[V]	[V]	[V]	[°C]	[uN]	[um]	[N/m]	[°]	[°]	[uN]	[um]	[um]	[um]	[uN]	[N/m]	[um]	[um^2]	[MPa]	[MPa]
337	1.000000	0.002445	7.36836e+06	-55489.1	955.817	-29741.8	0.000000	0.000000	6.002805	0.015458	NaN	0.000000	0.001514	0.001734	28.0782	0.044606	0.000907	49.1715	-174.474	-171.846	-0.019246	0.001192	-1.013341	-1.014593	0.015458	49.1715	-1.013576	-3.455527E+13	-4.473405E-16	NaN
337	1.000000	0.010412	7.36836e+06	-55489.1	955.818	-29741.8	0.000000	0.000000	6.010767	-0.082143	NaN	0.000000	0.001516	0.001772	28.0794	0.069713	0.000943	73.9218	157.37	-168.61	-0.022335	0.009110	-1.005374	-1.006676	-0.082143	73.9218	-1.004541	-2.611545E+13	3.145380E-15	NaN
337	1.000000	0.018417	7.36836e+06	-55489.1	955.817	-29741.8	0.000000	0.000000	6.018776	0.004587	NaN	0.000000	0.001540	0.001756	28.0793	0.077680	0.001784	43.5408	124.675	-166.561	0.059816	0.017123	-0.997369	-0.998663	0.004587	43.5408	-0.997448	-2.096074E+13	-2.188504E-16	NaN
337	1.000000	0.026406	7.36836e+06	-55489.1	955.819	-29741.8	0.000000	0.000000	6.026762	-0.058153	NaN	0.000000	0.001523	0.001712	28.0795	0.083098	0.001782	46.6376	135.048	-163.572	-0.115618	0.025122	-0.989380	-0.990664	-0.058153	46.6376	-0.988445	-1.585501E+13	3.667811E-15	NaN
337	1.000000	0.034390	7.36836e+06	-55489.1	955.818	-29741.8	0.000000	0.000000	6.034752	0.068641	NaN	0.000000	0.001536	0.001734	28.0792	0.035035	0.001909	18.3522	-10.8276	-161.159	0.009718	0.033104	-0.981396	-0.982681	0.068641	18.3522	-0.984201	-1.389958E+13	-4.938363E-15	NaN
337	1.000000	0.042386	7.36836e+06	-55489.1	955.819	-29741.8	0.000000	0.000000	6.042743	-0.050566	NaN	0.000000	0.001530	0.001713	28.0795	0.038928	0.001973	19.7342	42.0354	-162.813	-0.071925	0.041016	-0.973399	-0.974770	-0.050566	19.7342	-0.971478	-9.366515E+12	5.398617E-15	NaN
337	1.000000	0.050359	7.36836e+06	-55489.1	955.819	-29741.8	0.000000	0.000000	6.050720	0.034983	NaN	0.000000	0.001541	0.001717	28.0792	0.101971	0.002014	50.6317	176.704	-163.841	0.028713	0.049107	-0.965426	-0.966679	0.034983	50.6317	-0.965944	-7.888657E+12	-4.434630E-15	NaN
337	1.000000	0.058371	7.36836e+06	-55489.1	955.817	-29741.8	0.000000	0.000000	6.058729	-0.035008	NaN	0.000000	0.001511	0.001695	28.0793	0.174236	0.001964	88.6946	112.412	-170.876	-0.067830	0.057132	-0.957415	-0.958654	-0.035008	88.6946	-0.957119	-5.998198E+12	5.836392E-15	NaN
337	1.000000	0.066391	7.36836e+06	-55489.1	955.819	-29741.8	0.000000	0.000000	6.066749	-0.041285	NaN	0.000000	0.001522	0.001697	28.0792	0.006412	0.002050	3.127894	67.9425	-167.491	-0.138395	0.065089	-0.949395	-0.950696	-0.041285	3.127894	-0.939495	-3.469984E+12	1.189784E-14	NaN
337	1.000000	0.074402	7.36836e+06	-55489.1	955.819	-29741.8	0.000000	0.000000	6.074759	-0.041065	NaN	0.000000	0.001570	0.001696	28.0792	0.102446	0.002003	51.1519	70.4482	-166.199	-0.080717	0.073063	-0.941384	-0.942723	-0.041065	51.1519	-0.940782	-3.611456E+12	1.137083E-14	NaN
337	1.000000	0.082384	7.36836e+06	-55489.1	955.818	-29741.8	0.000000	0.000000	6.082744	0.003180	NaN	0.000000	0.001516	0.001723	28.0794	0.015008	0.001967	7.629256	-55.4549	-164.976	-0.011264	0.081066	-0.933401	-0.934720	0.003180	7.629256	-0.933714	-2.899472E+12	-1.096806E-15	NaN
337	1.000000	0.090403	7.36836e+06	-55489.1	955.818	-29741.8	0.000000	0.000000	6.090759	-0.079319	NaN	0.000000	0.001518	0.001689	28.0793	0.048154	0.002028	23.7405	92.3261	-161.755	-0.029227	0.089060	-0.925383	-0.926726	-0.079319	23.7405	-0.922877	-2.070352E+12	3.831185E-14	NaN
337	1.000000	0.098403	7.36836e+06	-55489.1	955.818	-29741.8	0.000000	0.000000	6.098763	-0.002648	NaN	0.000000	0.001488	0.001676	28.0797	0.072629	0.002124	34.1932	-142.241	-162.146	-0.045537	0.097091	-0.917382	-0.918695	-0.002648	34.1932	-0.917324	-1.742112E+12	1.520113E-15	NaN
337	1.000000	0.106405	7.36836e+06	-55489.1	955.819	-29741.8	0.000000	0.000000	6.106767	0.056023	NaN	0.000000	0.001508	0.001704	28.0793	0.154009	0.002045	75.3132	-63.8808	-167.302	0.033664	0.105049	-0.909380	-0.910737	0.056023	75.3132	-0.909938	-1.384605E+12	-4.046107E-14	NaN
337	1.000000	0.114401	7.36836e+06	-55489.1	955.819	-29741.8	0.000000	0.000000	6.114761	0.019530	NaN	0.000000	0.001528	0.001682	28.0793	0.054540	0.002010	27.1297	43.3354	-167.222	0.074972	0.113142	-0.901385	-0.902644	0.019530	27.1297	-0.901925	-1.079125E+12	-1.809807E-14	NaN
337	1.000000	0.122420	7.36836e+06	-55489.1	955.818	-29741.8	0.000000	0.000000	6.122779	-0.024758	NaN	0.000000	0.001530	0.001700	28.0794	0.026365	0.001925	13.6984	122.512	-166.071	0.012759	0.121182	-0.893365	-0.894604	-0.024758	13.6984	-0.892010	-7.926474E+11	3.123398E-14	NaN
337	1.000000	0.130428	7.36836e+06	-55489.1	955.818	-29741.8	0.000000	0.000000	6.130788	-0.001492	NaN	0.000000	0.001548	0.001716	28.0796	0.047659	0.001822	26.1621	14.1075	-166.471	-0.066790	0.129089	-0.885357	-0.886697	-0.001492	26.1621	-0.885314	-6.435294E+11	2.319218E-15	NaN
337	1.000000	0.138405	7.36836e+06	-55489.1	955.818	-29741.8	0.000000	0.000000	6.138765	0.007651	NaN	0.000000	0.001496	0.001722	28.0793	0.073295	0.001976	37.0841	120.809	-165.259	-0.012561	0.137169	-0.877380	-0.878617	0.007651	37.0841	-0.877535	-5.050958E+11	-1.514716E-14	NaN
337	1.000000	0.146437	7.36836e+06	-55489.1	955.819	-29741.8	0.000000	0.000000	6.146797	0.015546	NaN	0.000000	0.001505	0.001714	28.0782	0.008125	0.001967	4.130853	73.7935	-165.991	0.010118	0.145065	-0.869349	-0.870721	0.015546	4.130853	-0.872171	-4.273864E+11	-3.637362E-14	NaN
337	1.000000	0.154470	7.36836e+06	-55489.1	955.818	-29741.8	0.000000	0.000000	6.154829	-0.019369	NaN	0.000000	0.001505	0.001750	28.0783	0.049222	0.002041	24.1213	-148.457	-165.681	-0.150463	0.153109	-0.861316	-0.862677	-0.019369	24.1213	-0.860713	-2.990719E+11	6.476272E-14	NaN
337	1.000000	0.162432	7.36836e+06	-55489.1	955.818	-29741.8	0.000000	0.000000	6.162789	-0.066292	NaN	0.000000	0.001521	0.001759	28.0783	0.113793	0.002063	55.1662	30.5317	-167.593	-0.043694	0.161141	-0.853353	-0.854645	-0.066292	55.1662	-0.852452	-2.311750E+11	2.867606E-13	NaN
337	1.000000	0.170452	7.36836e+06	-55489.1	955.818	-29741.8	0.000000	0.000000	6.170811	9.604719E-5	NaN	0.000000	0.001524	0.001736	28.0781	0.106476	0.001988	53.5563	178.012	-164.228	-0.032376	0.169164	-0.845334	-0.846621	9.604719E-5	53.5563	-0.845335	-1.851649E+11	-5.187116E-16	NaN
337	1.000000	0.178428	7.36836e+06	-55489.1	955.818	-29741.8	0.000000	0.000000	6.178786	-0.018138	NaN	0.000000	0.001489	0.001697	28.078	0.070785	0.001964	36.0348	-78.89	-164.169	-0.016104	0.177108	-0.837358	-0.838678	-0.018138	36.0348	-0.836980	-1.426856E+11	1.271219E-13	NaN
337	1.000000	0.186421	7.36836e+06	-55489.1	955.818	-29741.8	0.000000	0.000000	6.186780	0.006245	NaN	0.000000	0.001512	0.001723	28.0781	0.050776	0.001985	25.5806	-50.6574	-163.273	-0.014026	0.185109	-0.829365	-0.830677	0.006245	25.5806	-0.829548	-1.131512E+11	-5.519475E-14	NaN
337	1.000000	0.194469	7.36836e+06	-55489.1	955.819	-29741.8	0.000000	0.000000	6.194826	-0.055627	NaN	0.000000	0.001527	0.001721	28.0783	0.054045	0.002024	26.7062	145.677	-168.959	-0.021393	0.193140	-0.821317	-0.822646	-0.055627	26.7062	-0.819754	-8.334524E+10	6.674328E-13	NaN
337	1.000000	0.202456	7.36836e+06	-55489.1	955.818	-29741.8	0.000000	0.000000	6.202812	-0.070553	NaN	0.000000	0.001510	0.001736	28.0782	0.041340	0.001986	20.8144	-77.4509	-166.087	-0.062593	0.201097	-0.813330	-0.814689	-0.070553	20.8144	-0.810788	-6.298802E+10	1.120095E-12	NaN
337	1.000000	0.210407	7.36836e+06	-55489.1	955.818	-29741.8	0.000000	0.000000	6.210766	0.006298	NaN	0.000000	0.001514	0.001750	28.0781	0.095632	0.001934	49.4452	-85.0423	-162.259	-0.003423	0.209120	-0.805379	-0.806665	0.006298	49.4452	-0.805475	-5.335387E+10	-1.180481E-13	NaN
337	1.000000	0.218466	7.36836e+06	-55489.1	955.818	-29741.8	0.000000	0.000000	6.218827	0.026038	NaN	0.000000	0.001498	0.001766	28.0781	0.030920	0.002006	15.4139	37.4576	-163.139	-0.029126	0.217148	-0.797319	-0.798637	0.026038	15.4139	-0.798586	-4.301995E+10	-6.052453E-13	NaN
337	1.000000	0.226449	7.36836e+06	-55489.1	955.818	-29741.8	0.000000	0.000000	6.226808	-0.010508	NaN	0.000000	0.001523	0.001733	28.078	0.073595	0.002009	36.6307	60.7056	-166.543	-0.081322	0.225160	-0.789337	-0.790626	-0.010508	36.6307	-0.789121	-3.200009E+10	3.283842E-13	NaN
337	1.000000	0.234424	7.36836e+06	-55489.1	955.818	-29741.8	0.000000	0.000000	6.234784	0.013546	NaN	0.000000	0.001534	0.001705	28.0778	0.066460	0.001960	33.9139	-45.3312	-167.358	0.037198	0.233118	-0.781361	-0.782667	0.013546	33.9139	-0.781661	-2.533949E+10	-5.345736E-13	NaN
337	1.000000	0.242459	7.36836e+06	-55489.1	955.818	-29741.8	0.000000	0.000000	6.242819	0.032870	NaN	0.000000	0.001516	0.001744	28.078	0.028026	0.002133	13.1364	4.675632	-161.958	0.029561	0.241167	-0.773327	-0.774619	0.032870	13.1364	-0.775204	-2.070363E+10	-1.587639E-12	NaN
337	1.000000	0.250477	7.36836e+06	-55489.1	955.818	-29741.8	0.000000	0.000000	6.250838	0.037894	NaN	0.000000	0.001480	0.001741	28.0778	0.097523	0.002077	46.943	155.4	-165.537	-0.000744	0.249185	-0.765309	-0.766601	0.037894	46.943	-0.765914	-1.547917E+10	-2.448092E-12	NaN
337	1.000000	0.258479	7.36836e+06	-55489.1	955.818	-29741.8	0.000000	0.000000	6.258838	0.015095	NaN	0.000000	0.001506	0.001670	28.0781	0.090537	0.002058	43.9843	150.398	-163.682	0.041925	0.257158	-0.757307	-0.758628	0.015095	43.9843	-0.757564	-1.191698E+10	-1.266673E-12	NaN
337	1.000000	0.266453	7.36836e+06	-55489.1	955.818	-29741.8	0.000000	0.000000	6.266810	-0.044537	NaN	0.000000	0.001504	0.001736	28.078	0.130719	0.001971	66.3357	11.5676	-165.28	-0.069020	0.265169	-0.749333	-0.750617	-0.044537	66.3357	-0.748829	-9.063195E+9	4.914086E-12	NaN
337	1.000000	0.274490	7.36836e+06	-55489.1	955.819	-29741.8	0.000000	0.000000	6.274851	0.047605	NaN	0.000000	0.001511	0.001682	28.078	0.104395	0.001974	52.8941	172.064	-163.32	-0.021727	0.273152	-0.741296	-0.742634	0.047605	52.8941	-0.741971	-7.309716E+9	-6.512539E-12	NaN
337	1.000000	0.282502	7.36836e+06	-55489.1	955.819	-29741.8	0.000000	0.000000	6.282860	-0.038845	NaN	0.000000	0.001515	0.001720	28.0791	0.009592	0.001970	4.867689	85.3805	-163.552	-0.055658	0.281148	-0.733283	-0.734637	-0.038845	4.867689	-0.727298	-4.612947E+9	8.420919E-12	NaN
337	1.000000	0.290504	7.36836e+06	-55489.1	955.819	-29741.8	0.000000	0.000000	6.290866	0.068489	NaN	0.000000	0.001517	0.001689	28.0793	0.033755	0.002009	16.7977	-157.95	-162.59	0.000792	0.289177	-0.725282	-0.726609	0.068489	16.7977	-0.728339	-4.766237E+9	-1.436956E-11	NaN
337	1.000000	0.298477	7.36836e+06	-55489.1	955.819	-29741.8	0.000000	0.000000	6.298838	0.038324	NaN	0.000000	0.001529	0.001668	28.0792	0.029761	0.002163	13.7602	65.1988	-163.862	-0.002893	0.297146	-0.717308	-0.718640	0.038324	13.7602	-0.719397	-3.599600E+9	-1.064678E-11	NaN
337	1.000000	0.306475	7.36836e+06	-55489.1	955.819	-29741.8	0.000000	0.000000	6.306834	-0.010424	NaN	0.000000	0.001515	0.001709	28.0795	0.030040	0.001944	15.4509	-168.566	-164.891	-3.632308E-5	0.305158	-0.709310	-0.710628	-0.010424	15.4509	-0.708804	-2.580645E+9	4.039167E-12	NaN
337	1.000000	0.314497	7.36836e+06	-55489.1	955.818	-29741.8	0.000000	0.000000	6.314855	-0.018435	NaN	0.000000	0.001527	0.001720	28.0793	0.067275	0.001969	34.1634	108.907	-161.95	0.015939	0.313201	-0.701289	-0.702584	-0.018435	34.1634	-0.700884	-2.011903E+9	9.162736E-12	NaN
337	1.000000	0.322487	7.36836e+06	-55489.1	955.819	-29741.8	0.000000	0.000000	6.322848	0.025374	NaN	0.000000	0.001496	0.001721	28.0793	0.035910	0.002127	16.8835	-19.2665	-164.185	0.078016	0.321229	-0.693298	-0.694557	0.025374	16.8835	-0.694425	-1.642049E+9	-1.545255E-11	NaN
337	1.000000	0.330478	7.36836e+06	-55489.1	955.819	-29741.8	0.000000	0.000000	6.330835	-0.067338	NaN	0.000000	0.001576	0.001720	28.0803	0.175205	0.001963	89.2599	-64.8138	-165.128	-0.036143	0.329193	-0.685307	-0.686592	-0.067338	89.2599	-0.684742	-1.210713E+9	5.561871E-11	NaN
337	1.000000	0.338546	7.36836e+06	-55489.1	955.819	-29741.8	0.000000	0.000000	6.338905	0.008774	NaN	0.000000	0.001557	0.001752	28.0793	0.136773	0.002098	65.1985	174.946	-165.401	-0.030971	0.337219	-0.677240	-0.678566	0.008774	65.1985	-0.677341	-9.590380E+8	-9.149123E-12	NaN
337	1.000000	0.346500	7.36836e+06	-55489.1	955.819	-29741.8	0.000000	0.000000	6.346857	-0.067939	NaN	0.000000	0.001562	0.001738	28.0796	0.127177	0.002005	63.4246	-98.2652	-165.053	0.044168	0.345225	-0.669285	-0.670561	-0.067939	63.4246	-0.668482	-7.254578E+8	9.364938E-11	NaN
337	1.000000	0.354507	7.36836e+06	-55489.1	955.817	-29741.8	0.000000	0.000000	6.354866	-0.004979	NaN	0.000000	0.001532	0.001702	28.0793	0.030690	0.001960	15.6555	171.948	-164.149	-0.024674	0.353232	-0.661278	-0.662553	-0.004979	15.6555	-0.661040	-5.737341E+8	8.678324E-12	NaN
337	1.000000	0.362533	7.36836e+06	-55489.1	955.819	-29741.8	0.000000	0.000000	6.362892	-0.022147	NaN	0.000000	0.001553	0.001670	28.0793	0.130746	0.001904	68.667	-168.745	-166.148	0.065598	0.361209	-0.653252	-0.654577	-0.022147	68.667	-0.653011	-4.453514E+8	4.972874E-11	NaN
337	1.000000	0.370526	7.36836e+06	-55489.1	955.818	-29741.8	0.000000	0.000000	6.370886	0.013285	NaN	0.000000	0.001529	0.001718	28.0795	0.177796	0.002050	86.7149	-134.795	-164.73	-0.010633	0.369233	-0.645259	-0.646553	0.013285	86.7149	-0.645374	-3.499518E+8	-3.796144E-11	NaN
337	1.000000	0.378555	7.36836e+06	-55489.1	955.818	-29741.8	0.000000	0.000000	6.378912	-0.041941	NaN	0.000000	0.001592	0.001720	28.0793	0.141556	0.002094	67.5856	-117.533	-165.991	-0.048361	0.377232	-0.637231	-0.638553	-0.041941	67.5856	-0.636766	-2.666274E+8	1.573010E-10	NaN
337	1.000000	0.386523	7.36836e+06	-55489.1	955.819	-29741.8	0.000000	0.000000	6.386881	-0.035976	NaN	0.000000	0.001581	0.001729	28.0793	0.076367	0.001978	38.6156	-3.496630	-165.565	0.020145	0.385206	-0.629263	-0.630580	-0.035976	38.6156	-0.628564	-2.057321E+8	1.748680E-10	NaN
337	1.000000	0.394543	7.36836e+06	-55489.1	955.818	-29741.8	0.000000	0.000000	6.394906	0.089465	NaN	0.000000	0.001609	0.001735	28.0792	0.017424	0.002059	8.462737	53.0723	-159.819	0.052048	0.393290	-0.621243	-0.622495	0.089465	8.462737	-0.629171	-2.097227E+8	-4.265873E-10	NaN
337	1.000000	0.402535	7.36836e+06	-55489.1	955.819	-29741.8	0.000000	0.000000	6.402894	-0.011802	NaN	0.000000	0.001614	0.001709	28.0794	0.078916	0.001967	40.1104	166.758	-165.764	-0.057224	0.401231	-0.613251	-0.614555	-0.011802	40.1104	-0.613030	-1.258333E+8	9.378778E-11	NaN
337	1.000000	0.410532	7.36836e+06	-55489.1	955.817	-29741.8	0.000000	0.000000	6.410893	0.027268	NaN	0.000000	0.001554	0.001710	28.0794	0.055264	0.001986	27.8254	79.9446	-165.12	-0.034990	0.409180	-0.605253	-0.606606	0.027268	27.8254	-0.605988	-1.006712E+8	-2.708632E-10	NaN
337	1.000000	0.418528	7.36836e+06	-55489.1	955.817	-29741.8	0.000000	0.000000	6.418889	0.025017	NaN	0.000000	0.001517	0.001690	28.0781	0.049477	0.002023	24.4572	-120.443	-165.649	-0.035240	0.417166	-0.597257	-0.598619	0.025017	24.4572	-0.598024	-7.820763E+7	-3.198815E-10	NaN
337	1.000000	0.426587	7.36836e+06	-55489.1	955.818	-29741.8	0.000000	0.000000	6.426943	-0.084012	NaN	0.000000	0.001536	0.001722	28.078	0.059357	0.002096	28.3133	70.9871	-164.924	-0.041298	0.425214	-0.589199	-0.590572	-0.084012	28.3133	-0.586973	-5.507175E+7	1.525502E-9	NaN
337	1.000000	0.434574	7.36836e+06	-55489.1	955.819	-29741.8	0.000000	0.000000	6.434933	-0.009319	NaN	0.000000	0.001514	0.001701	28.078	0.111494	0.002034	54.8245	123.973	-164.637	0.016902	0.433269	-0.581212	-0.582517	-0.009319	54.8245	-0.581084	-4.567627E+7	2.040236E-10	NaN
337	1.000000	0.442531	7.36836e+06	-55489.1	955.819	-29741.8	0.000000	0.000000	6.442892	0.044082	NaN	0.000000	0.001529	0.001715	28.0781	0.036422	0.002102	17.3258	23.2096	-163.187	0.163102	0.441148	-0.573254	-0.574637	0.044082	17.3258	-0.575163	-3.783952E+7	-1.164973E-9	NaN
337	1.000000	0.450554	7.36836e+06	-55489.1	955.819	-29741.8	0.000000	0.000000	6.450911	-0.058360	NaN	0.000000	0.001512	0.001694	28.0782	0.081043	0.001978	40.964	-170.34	-161.605	-0.000934	0.449243	-0.565231	-0.566542	-0.058360	40.964	-0.564163	-2.666556E+7	2.188581E-9	NaN
337	1.000000	0.458574	7.36836e+06	-55489.1	955.818	-29741.8	0.000000	0.000000	6.458933	-0.007983	NaN	0.000000	0.001487	0.001669	28.0779	0.078283	0.001960	39.9385	-24.1906	-164.51	-0.035990	0.457246	-0.557212	-0.558539	-0.007983	39.9385	-0.557062	-2.126782E+7	3.753758E-10	NaN
337	1.000000	0.466595	7.36836e+06	-55489.1	955.818	-29741.8	0.000000	0.000000	6.466955	0.004976	NaN	0.000000	0.001552	0.001734	28.0779	0.125742	0.001966	63.9554	8.554249	-161.55	-0.008028	0.465244	-0.549190	-0.550542	0.004976	63.9554	-0.549248	-1.657855E+7	-3.001768E-10	NaN
337	1.000000	0.474553	7.36836e+06	-55489.1	955.818	-29741.8	0.000000	0.000000	6.474914	0.037886	NaN	0.000000	0.001486	0.001737	28.0778	0.081636	0.001989	41.0367	-121.016	-162.753	0.020892	0.473204	-0.541233	-0.542582	0.037886	41.0367	-0.541925	-1.312356E+7	-2.886886E-9	NaN
337	1.000000	0.482582	7.36836e+06	-55489.1	955.819	-29741.8	0.000000	0.000000	6.482942	0.023106	NaN	0.000000	0.001506	0.001717	28.078	0.127206	0.001980	64.248	-158.765	-161.163	0.026798	0.481253	-0.533203	-0.534533	0.023106	64.248	-0.533473	-1.001839E+7	-2.306373E-9	NaN
337	1.000000	0.490544	7.36836e+06	-55489.1	955.819	-29741.8	0.000000	0.000000	6.490903	-0.017185	NaN	0.000000	0.001527	0.001715	28.0782	0.042160	0.002068	20.3862	47.6366	-163.729	-0.099796	0.489263	-0.525242	-0.526523	-0.017185	20.3862	-0.524609	-7.5454e+06	2.277486E-9	NaN
337	1.000000	0.498599	7.36836e+06	-55489.1	955.819	-29741.8	0.000000	0.000000	6.498958	-0.010146	NaN	0.000000	0.001500	0.001724	28.0778	0.047545	0.002065	23.0212	28.5046	-164.169	0.077634	0.497327	-0.517187	-0.518459	-0.010146	23.0212	-0.516856	-5.88662e+06	1.723641E-9	NaN
337	1.000000	0.506585	7.36836e+06	-55489.1	955.819	-29741.8	0.000000	0.000000	6.506946	0.035880	NaN	0.000000	0.001534	0.001733	28.0779	0.051521	0.002132	24.1644	-55.666	-163.224	0.037133	0.505260	-0.509201	-0.510526	0.035880	24.1644	-0.510314	-4.77302e+06	-7.517157E-9	NaN
337	1.000000	0.514584	7.36836e+06	-55489.1	955.818	-29741.8	0.000000	0.000000	6.514942	-0.018444	NaN	0.000000	0.001561	0.001784	28.0778	0.074086	0.002132	34.7445	103.365	-165.076	-0.015780	0.513297	-0.501202	-0.502488	-0.018444	34.7445	-0.500804	-3.51745e+06	5.243436E-9	NaN
337	1.000000	0.522601	7.36836e+06	-55489.1	955.818	-29741.8	0.000000	0.000000	6.522961	0.023073	NaN	0.000000	0.001583	0.001753	28.0778	0.101449	0.002018	50.2788	-121.948	-166.833	0.075401	0.521253	-0.493185	-0.494533	0.023073	50.2788	-0.493529	-2.78416e+06	-8.287083E-9	NaN
337	1.000000	0.530576	7.36836e+06	-55489.1	955.819	-29741.8	0.000000	0.000000	6.530937	0.057061	NaN	0.000000	0.001572	0.001758	28.0782	0.103599	0.002080	49.8118	151.697	-162.763	-0.017920	0.529284	-0.485210	-0.486501	0.057061	49.8118	-0.486069	-2.18998e+06	-2.605529E-8	NaN
337	1.000000	0.538594	7.36836e+06	-55489.1	955.819	-29741.8	0.000000	0.000000	6.538952	-0.015506	NaN	0.000000	0.001597	0.001736	28.0782	0.054911	0.002092	26.254	151.905	-161.469	-0.044465	0.537268	-0.477192	-0.478518	-0.015506	26.254	-0.476749	-1.62181e+06	9.561184E-9	NaN
337	1.000000	0.546597	7.36836e+06	-55489.1	955.818	-29741.8	0.000000	0.000000	6.546957	0.007722	NaN	0.000000	0.001559	0.001749	28.0778	0.063930	0.002108	30.3263	-98.9773	-166.851	-0.008042	0.545272	-0.469188	-0.470513	0.007722	30.3263	-0.469379	-1.2785e+06	-6.039817E-9	NaN
337	1.000000	0.554635	7.36836e+06	-55489.1	955.818	-29741.8	0.000000	0.000000	6.554995	0.033357	NaN	0.000000	0.001556	0.001734	28.0792	0.076820	0.001856	41.3833	-154.066	-165.474	0.009059	0.553301	-0.461151	-0.462485	0.033357	41.3833	-0.461755	-999266	-3.338132E-8	NaN
337	1.000000	0.562607	7.36836e+06	-55489.1	955.818	-29741.8	0.000000	0.000000	6.562967	0.009672	NaN	0.000000	0.001548	0.001738	28.0791	0.082396	0.002045	40.2948	155.271	-165.766	0.055780	0.561297	-0.453178	-0.454488	0.009672	40.2948	-0.453359	-761415	-1.270239E-8	NaN
337	1.000000	0.570607	7.36836e+06	-55489.1	955.818	-29741.8	0.000000	0.000000	6.570966	0.009489	NaN	0.000000	0.001526	0.001733	28.079	0.154414	0.002096	73.6574	39.8314	-163.387	0.029507	0.569288	-0.445179	-0.446497	0.009489	73.6574	-0.445275	-585835	-1.619817E-8	NaN
337	1.000000	0.578634	7.36836e+06	-55489.1	955.819	-29741.8	0.000000	0.000000	6.578991	-0.048301	NaN	0.000000	0.001536	0.001748	28.0791	0.088973	0.001964	45.3005	34.6016	-167.079	-0.041714	0.577321	-0.437152	-0.438464	-0.048301	45.3005	-0.436352	-438390	1.101780E-7	NaN
337	1.000000	0.586608	7.36836e+06	-55489.1	955.818	-29741.8	0.000000	0.000000	6.586969	0.038760	NaN	0.000000	0.001539	0.001744	28.0791	0.067381	0.001906	35.3572	-112.855	-164.053	-0.068927	0.585316	-0.429177	-0.430470	0.038760	35.3572	-0.430000	-356497	-1.087258E-7	NaN
337	1.000000	0.594605	7.36836e+06	-55489.1	955.818	-29741.8	0.000000	0.000000	6.594967	0.069877	NaN	0.000000	0.001507	0.001757	28.0793	0.045132	0.001949	23.1525	-149.273	-170.559	-0.083778	0.593307	-0.421181	-0.422478	0.069877	23.1525	-0.423444	-287901	-2.427128E-7	NaN
337	1.000000	0.602616	7.36836e+06	-55489.1	955.818	-29741.8	0.000000	0.000000	6.602970	-0.120988	NaN	0.000000	0.001524	0.001732	28.0792	0.046374	0.001919	24.1668	-95.8537	-167.085	-0.107245	0.601258	-0.413170	-0.414528	-0.120988	24.1668	-0.409415	-182003	6.647562E-7	NaN
337	1.000000	0.610646	7.36836e+06	-55489.1	955.818	-29741.8	0.000000	0.000000	6.611006	0.013931	NaN	0.000000	0.001508	0.001746	28.0792	0.041211	0.001911	21.5615	-128.861	-162.589	-0.034998	0.609302	-0.405140	-0.406484	0.013931	21.5615	-0.405624	-160746	-8.666251E-8	NaN
337	1.000000	0.618648	7.36836e+06	-55489.1	955.818	-29741.8	0.000000	0.000000	6.619010	0.043995	NaN	0.000000	0.001552	0.001731	28.0794	0.065389	0.002115	30.9135	-148.319	-161.386	0.004460	0.617327	-0.397137	-0.398458	0.043995	30.9135	-0.398205	-126003	-3.491577E-7	NaN
337	1.000000	0.626612	7.36836e+06	-55489.1	955.818	-29741.8	0.000000	0.000000	6.626972	0.016405	NaN	0.000000	0.001541	0.001701	28.0791	0.039461	0.002040	19.3476	-125.166	-164.194	0.056900	0.625290	-0.389174	-0.390496	0.016405	19.3476	-0.389810	-95597.1	-1.716051E-7	NaN
337	1.000000	0.634629	7.36836e+06	-55489.1	955.818	-29741.8	0.000000	0.000000	6.634987	-0.033088	NaN	0.000000	0.001520	0.001710	28.0792	0.076593	0.001892	40.4913	117.277	-165.799	-0.042302	0.633340	-0.381157	-0.382446	-0.033088	40.4913	-0.380544	-70419.7	4.698739E-7	NaN
337	1.000000	0.642631	7.36836e+06	-55489.1	955.818	-29741.8	0.000000	0.000000	6.642991	0.006701	NaN	0.000000	0.001522	0.001677	28.0793	0.052623	0.002124	24.7752	-62.4751	-162.905	-0.022098	0.641322	-0.373154	-0.374464	0.006701	24.7752	-0.373357	-55519.9	-1.206988E-7	NaN
337	1.000000	0.650654	7.36836e+06	-55489.1	955.818	-29741.8	0.000000	0.000000	6.651016	0.076629	NaN	0.000000	0.001517	0.001687	28.0791	0.080126	0.002033	39.4032	-39.8518	-160.892	0.034785	0.649359	-0.365132	-0.366427	0.076629	39.4032	-0.366590	-44359.9	-1.727450E-6	NaN
337	1.000000	0.658650	7.36836e+06	-55489.1	955.819	-29741.8	0.000000	0.000000	6.659010	0.021014	NaN	0.000000	0.001532	0.001729	28.0791	0.072251	0.002153	33.5595	114.966	-165.032	0.100121	0.657300	-0.357136	-0.358486	0.021014	33.5595	-0.357606	-32901.5	-6.386952E-7	NaN
337	1.000000	0.666640	7.36836e+06	-55489.1	955.818	-29741.8	0.000000	0.000000	6.666997	-0.064159	NaN	0.000000	0.001520	0.001729	28.079	0.123922	0.002103	58.9328	-83.1204	-161.617	-0.072797	0.665339	-0.349146	-0.350446	-0.064159	58.9328	-0.348329	-24140.3	2.657779E-6	NaN
337	1.000000	0.674677	7.36836e+06	-55489.1	955.818	-29741.8	0.000000	0.000000	6.675036	-0.007930	NaN	0.000000	0.001491	0.001706	28.079	0.072911	0.002091	34.8728	149.92	-163.083	-0.002803	0.673348	-0.341108	-0.342438	-0.007930	34.8728	-0.340938	-18845.9	4.207947E-7	NaN
337	1.000000	0.682651	7.36836e+06	-55489.1	955.819	-29741.8	0.000000	0.000000	6.683009	-0.020010	NaN	0.000000	0.001492	0.001694	28.0793	0.069993	0.001919	36.4658	-149.803	-167.448	-0.005645	0.681361	-0.333135	-0.334425	-0.020010	36.4658	-0.332723	-14299	1.399387E-6	NaN
337	1.000000	0.690643	7.36836e+06	-55489.1	955.818	-29741.8	0.000000	0.000000	6.691003	0.016899	NaN	0.000000	0.001469	0.001716	28.0779	0.050046	0.001988	25.1797	-15.9617	-161.035	-0.098706	0.689274	-0.325142	-0.326512	0.016899	25.1797	-0.325646	-11261.9	-1.500515E-6	NaN
337	1.000000	0.698638	7.36836e+06	-55489.1	955.818	-29741.8	0.000000	0.000000	6.698997	-0.019689	NaN	0.000000	0.001546	0.001730	28.0783	0.007672	0.001934	3.966843	-50.2131	-163.094	-0.027208	0.697358	-0.317147	-0.318428	-0.019689	3.966843	-0.313425	-7441.99	2.645659E-6	NaN
337	1.000000	0.706656	7.36836e+06	-55489.1	955.819	-29741.8	0.000000	0.000000	6.707016	0.028420	NaN	0.000000	0.001549	0.001705	28.0779	0.061954	0.002002	30.9502	172.798	-163.936	0.013864	0.705368	-0.309130	-0.310418	0.028420	30.9502	-0.309819	-6582.21	-4.317673E-6	NaN
337	1.000000	0.714677	7.36836e+06	-55489.1	955.818	-29741.8	0.000000	0.000000	6.715036	-0.003089	NaN	0.000000	0.001500	0.001711	28.078	0.058191	0.001928	30.1806	-30.6908	-166.16	0.079037	0.713308	-0.301109	-0.302477	-0.003089	30.1806	-0.301032	-4875.18	6.336924E-7	NaN
337	1.000000	0.722666	7.36836e+06	-55489.1	955.819	-29741.8	0.000000	0.000000	6.723025	-0.013852	NaN	0.000000	0.001498	0.001690	28.0779	0.094181	0.002071	45.4853	-38.979	-164.945	-0.159893	0.721390	-0.293120	-0.294395	-0.013852	45.4853	-0.292891	-3686.18	3.757869E-6	NaN
337	1.000000	0.730656	7.36836e+06	-55489.1	955.819	-29741.8	0.000000	0.000000	6.731015	0.013088	NaN	0.000000	0.001527	0.001696	28.0785	0.128176	0.002083	61.543	-169.202	-164.163	-0.015234	0.729411	-0.285130	-0.286375	0.013088	61.543	-0.285289	-2835.42	-4.615928E-6	NaN
337	1.000000	0.738659	7.36836e+06	-55489.1	955.819	-29741.8	0.000000	0.000000	6.739014	-0.106721	NaN	0.000000	0.001496	0.001712	28.0782	0.074219	0.001894	39.1766	-4.103240	-163.897	-0.103072	0.737328	-0.277126	-0.278458	-0.106721	39.1766	-0.275083	-1989.1	5.365295E-5	NaN
337	1.000000	0.746689	7.36836e+06	-55489.1	955.818	-29741.8	0.000000	0.000000	6.747047	-0.014188	NaN	0.000000	0.001465	0.001702	28.0779	0.159848	0.002059	77.6505	-166.69	-164.372	-0.026035	0.745381	-0.269097	-0.270405	-0.014188	77.6505	-0.268960	-1605.94	8.834457E-6	NaN
337	1.000000	0.754703	7.36836e+06	-55489.1	955.818	-29741.8	0.000000	0.000000	6.755063	-0.004365	NaN	0.000000	0.001442	0.001715	28.078	0.108937	0.002136	50.9995	-34.3861	-165.973	-0.020942	0.753391	-0.261082	-0.262394	-0.004365	50.9995	-0.261018	-1214.82	3.593504E-6	NaN
337	1.000000	0.762693	7.36836e+06	-55489.1	955.818	-29741.8	0.000000	0.000000	6.763054	0.055338	NaN	0.000000	0.001458	0.001715	28.0778	0.029845	0.002016	14.8012	40.9966	-167.088	0.010413	0.761377	-0.253093	-0.254409	0.055338	14.8012	-0.255897	-1013.73	-5.458901E-5	NaN
337	1.000000	0.770690	7.36836e+06	-55489.1	955.818	-29741.8	0.000000	0.000000	6.771049	-0.015526	NaN	0.000000	0.001493	0.001704	28.0779	0.108033	0.002094	51.5934	-151.174	-162.695	0.064535	0.769364	-0.245095	-0.246422	-0.015526	51.5934	-0.244869	-684.577	2.268024E-5	NaN
337	1.000000	0.778694	7.36836e+06	-55489.1	955.818	-29741.8	0.000000	0.000000	6.779053	0.002936	NaN	0.000000	0.001506	0.001732	28.0779	0.017892	0.002025	8.835075	43.9624	-161.789	-0.037667	0.777390	-0.237092	-0.238396	0.002936	8.835075	-0.237341	-522.356	-5.620688E-6	NaN
337	1.000000	0.786706	7.36836e+06	-55489.1	955.819	-29741.8	0.000000	0.000000	6.787065	-0.007011	NaN	0.000000	0.001530	0.001697	28.0778	0.046086	0.001983	23.2386	-139.047	-165.034	-0.021168	0.785338	-0.229080	-0.230448	-0.007011	23.2386	-0.228854	-384.062	1.825584E-5	NaN
337	1.000000	0.794700	7.36836e+06	-55489.1	955.819	-29741.8	0.000000	0.000000	6.795058	-0.024066	NaN	0.000000	0.001478	0.001778	28.0779	0.125294	0.001920	65.2606	148.624	-166.173	-0.020407	0.793362	-0.221086	-0.222424	-0.024066	65.2606	-0.220809	-286.158	8.409878E-5	NaN
337	1.000000	0.802715	7.36836e+06	-55489.1	955.819	-29741.8	0.000000	0.000000	6.803071	-0.058601	NaN	0.000000	0.001514	0.001728	28.0779	0.085870	0.002044	42.0015	11.551	-168.213	-0.048038	0.801392	-0.213071	-0.214393	-0.058601	42.0015	-0.212025	-206.805	0.000283	NaN
337	1.000000	0.810742	7.36836e+06	-55489.1	955.819	-29741.8	0.000000	0.000000	6.811098	-0.064599	NaN	0.000000	0.001441	0.001733	28.078	0.011732	0.002066	5.677834	-106.615	-162.144	-0.071281	0.809410	-0.205044	-0.206375	-0.064599	5.677834	-0.196511	-115.399	0.000560	NaN
337	1.000000	0.818710	7.36836e+06	-55489.1	955.819	-29741.8	0.000000	0.000000	6.819069	-0.006876	NaN	0.000000	0.001535	0.001773	28.0781	0.102807	0.002101	48.9222	50.8543	-163.755	0.006238	0.817393	-0.197076	-0.198392	-0.006876	48.9222	-0.196971	-117.434	5.855424E-5	NaN
337	1.000000	0.826714	7.36836e+06	-55489.1	955.818	-29741.8	0.000000	0.000000	6.827072	-0.022909	NaN	0.000000	0.001525	0.001781	28.0796	0.033061	0.002008	16.4621	-23.0975	-164.151	-0.030166	0.825458	-0.189072	-0.190328	-0.022909	16.4621	-0.188028	-83.3736	0.000275	NaN
337	1.000000	0.834714	7.36836e+06	-55489.1	955.818	-29741.8	0.000000	0.000000	6.835074	-0.000703	NaN	0.000000	0.001548	0.001791	28.0791	0.125906	0.001860	67.6996	172.105	-164.267	0.017552	0.833409	-0.181071	-0.182377	-0.000703	67.6996	-0.181063	-63.6123	1.104991E-5	NaN
337	1.000000	0.842698	7.36836e+06	-55489.1	955.819	-29741.8	0.000000	0.000000	6.843057	-0.023882	NaN	0.000000	0.001510	0.001779	28.0794	0.122160	0.002063	59.2083	19.7568	-167.922	-0.010148	0.841443	-0.173087	-0.174342	-0.023882	59.2083	-0.172785	-45.9017	0.000520	NaN
337	1.000000	0.850703	7.36836e+06	-55489.1	955.818	-29741.8	0.000000	0.000000	6.851062	-0.011898	NaN	0.000000	0.001587	0.001753	28.079	0.113365	0.002041	55.54	-93.5193	-167.993	-0.062766	0.849388	-0.165083	-0.166398	-0.011898	55.54	-0.164922	-33.4916	0.000355	NaN
337	1.000000	0.858746	7.36836e+06	-55489.1	955.818	-29741.8	0.000000	0.000000	6.859106	0.012104	NaN	0.000000	0.001561	0.001785	28.0792	0.076054	0.001955	38.9043	82.9477	-164.207	0.011964	0.857371	-0.157039	-0.158415	0.012104	38.9043	-0.157273	-24.5108	-0.000494	NaN
337	1.000000	0.866740	7.36836e+06	-55489.1	955.818	-29741.8	0.000000	0.000000	6.867099	-0.006840	NaN	0.000000	0.001597	0.001771	28.079	0.027015	0.001918	14.0876	-8.701320	-165.616	0.011093	0.865406	-0.149045	-0.150379	-0.006840	14.0876	-0.148681	-17.1359	0.000399	NaN
337	1.000000	0.874736	7.36836e+06	-55489.1	955.818	-29741.8	0.000000	0.000000	6.875095	-0.003659	NaN	0.000000	0.001505	0.001755	28.0792	0.050101	0.001804	27.7735	-137.12	-165.341	-0.063049	0.873422	-0.141050	-0.142364	-0.003659	27.7735	-0.140951	-12.3256	0.000297	NaN
337	1.000000	0.882728	7.36836e+06	-55489.1	955.819	-29741.8	0.000000	0.000000	6.883087	0.000209	NaN	0.000000	0.001519	0.001780	28.0796	0.030920	0.001990	15.5378	179.087	-166.02	0.012972	0.881413	-0.133058	-0.134372	0.000209	15.5378	-0.133068	-8.735479	-2.396577E-5	NaN
337	1.000000	0.890742	7.36836e+06	-55489.1	955.819	-29741.8	0.000000	0.000000	6.891104	0.063638	NaN	0.000000	0.001541	0.001838	28.0791	0.030877	0.002116	14.5899	44.0029	-166.259	-0.069947	0.889406	-0.125044	-0.126379	0.063638	14.5899	-0.128315	-7.066131	-0.009006	NaN
337	1.000000	0.898742	7.36836e+06	-55489.1	955.819	-29741.8	0.000000	0.000000	6.899100	-0.030499	NaN	0.000000	0.001512	0.001815	28.079	0.044912	0.002049	21.9199	64.2331	-164.069	0.004497	0.897432	-0.117043	-0.118353	-0.030499	21.9199	-0.116000	-4.005638	0.007614	NaN
337	1.000000	0.906747	7.36836e+06	-55489.1	955.817	-29741.8	0.000000	0.000000	6.907109	0.062557	NaN	0.000000	0.001521	0.001796	28.0791	0.093155	0.001929	48.2972	100.677	-167.748	-0.012049	0.905454	-0.109039	-0.110332	0.062557	48.2972	-0.110010	-3.006685	-0.020806	NaN
337	1.000000	0.914757	7.36836e+06	-55489.1	955.818	-29741.8	0.000000	0.000000	6.915112	-0.099096	NaN	0.000000	0.001506	0.001788	28.0792	0.051292	0.002078	24.6883	83.6254	-164.397	-0.055115	0.913444	-0.101029	-0.102342	-0.099096	24.6883	-0.098019	-1.650511	0.060040	NaN
337	1.000000	0.922772	7.36836e+06	-55489.1	955.819	-29741.8	0.000000	0.000000	6.923132	0.015894	NaN	0.000000	0.001526	0.001803	28.0791	0.091689	0.001986	46.1614	176.457	-164.329	-0.007971	0.921442	-0.093014	-0.094344	0.015894	46.1614	-0.093272	-1.287789	-0.012342	NaN
337	1.000000	0.930786	7.36836e+06	-55489.1	955.819	-29741.8	0.000000	0.000000	6.931146	0.003625	NaN	0.000000	0.001482	0.001770	28.0795	0.061867	0.001897	32.6159	128.762	-162.36	0.032893	0.929425	-0.084999	-0.086361	0.003625	32.6159	-0.085083	-0.825436	-0.004391	NaN
337	1.000000	0.938786	7.36836e+06	-55489.1	955.819	-29741.8	0.000000	0.000000	6.939146	0.023767	NaN	0.000000	0.001473	0.001789	28.0793	0.081495	0.002166	37.6235	-1.556920	-164.3	0.002225	0.937422	-0.077000	-0.078363	0.023767	37.6235	-0.077473	-0.534526	-0.044464	NaN
337	1.000000	0.946740	7.36836e+06	-55489.1	955.818	-29741.8	0.000000	0.000000	6.947098	-0.021794	NaN	0.000000	0.001468	0.001786	28.0792	0.075156	0.002012	37.346	156.756	-161.958	-0.034234	0.945450	-0.069046	-0.070336	-0.021794	37.346	-0.068608	-0.312910	0.069650	NaN
337	1.000000	0.954790	7.36836e+06	-55489.1	955.819	-29741.8	0.000000	0.000000	6.955148	-0.016572	NaN	0.000000	0.001509	0.001759	28.0793	0.028547	0.001899	15.0304	105.53	-166.601	-0.077847	0.953445	-0.060996	-0.062340	-0.016572	15.0304	-0.060169	-0.182114	0.090998	NaN
337	1.000000	0.962759	7.36836e+06	-55489.1	955.818	-29741.8	0.000000	0.000000	6.963118	-0.006985	NaN	0.000000	0.001495	0.001736	28.0782	0.024205	0.001946	12.4366	176.988	-162.301	-0.043714	0.961459	-0.053027	-0.054326	-0.006985	12.4366	-0.052605	-0.109300	0.063905	NaN
337	1.000000	0.970791	7.36836e+06	-55489.1	955.818	-29741.8	0.000000	0.000000	6.971149	-0.047514	NaN	0.000000	0.001461	0.001771	28.0781	0.103419	0.002006	51.5436	117.106	-162.327	-0.018054	0.969462	-0.044994	-0.046323	-0.047514	51.5436	-0.044303	-0.061190	0.776503	NaN
337	1.000000	0.978785	7.36836e+06	-55489.1	955.817	-29741.8	0.000000	0.000000	6.979144	-0.008322	NaN	0.000000	0.001463	0.001722	28.0782	0.045802	0.001975	23.1909	-8.483809	-161.217	-0.015318	0.977481	-0.037001	-0.038304	-0.008322	23.1909	-0.036731	-0.036044	0.230875	NaN
337	1.000000	0.986789	7.36836e+06	-55489.1	955.817	-29741.8	0.000000	0.000000	6.987149	0.018927	NaN	0.000000	0.001504	0.001735	28.0784	0.051382	0.001969	26.0969	-175.819	-161.949	-0.080786	0.985417	-0.028997	-0.030369	0.018927	26.0969	-0.029541	-0.022346	-0.847002	NaN
337	1.000000	0.994791	7.36836e+06	-55489.1	955.818	-29741.8	0.000000	0.000000	6.995148	-0.062923	NaN	0.000000	0.001504	0.001721	28.0778	0.094097	0.001988	47.3364	-128.342	-165.128	-0.027489	0.993473	-0.020994	-0.022312	-0.062923	47.3364	-0.019997	-0.012559	5.010273	NaN
337	1.000000	1.002827	7.36836e+06	-55489.1	955.817	-29741.8	0.000000	0.000000	7.003187	0.006941	NaN	0.000000	0.001524	0.001700	28.0778	0.086200	0.002124	40.588	178.723	-165.249	-0.005734	1.001432	-0.012958	-0.014353	0.006941	40.588	-0.013087	-0.008152	-0.851388	NaN
337	1.000000	1.010789	7.36836e+06	-55489.1	955.818	-29741.8	0.000000	0.000000	7.011148	-0.008335	NaN	0.000000	0.001562	0.001702	28.0779	0.020713	0.002020	10.2526	155.5	-164.636	-0.038911	1.009433	-0.004997	-0.006353	-0.008335	10.2526	-0.004387	-0.003028	2.752409	NaN
337	1.000000	1.018775	7.36836e+06	-55489.1	955.818	-29741.8	0.000000	0.000000	7.019175	0.998588	NaN	0.000000	0.001574	0.001728	28.0779	1.546222	0.001948	793.7	10.5286	-165.849	0.316657	1.017474	0.002989	0.001688	0.998588	793.7	0.002046	0.001592	627.306	18175.1
337	1.000000	1.026689	7.36836e+06	-55489.1	955.818	-29741.8	0.000000	0.000000	7.027354	7.444521	NaN	0.000000	0.001555	0.001739	28.0783	8.157402	0.001720	4741.3	15.8542	-176.184	6.194037	1.025445	0.010903	0.009659	7.444521	4741.3	0.009726	0.008878	838.524	45973.8
337	2.000000	1.029359	7.36836e+06	-55489.1	955.818	-29741.8	0.000000	0.000000	7.030158	10.6949	NaN	0.000000	0.001570	0.001742	28.0778	10.3201	0.001611	6404.4	8.960892	-176.211	9.557456	1.029037	0.013573	0.013252	10.6949	6404.4	0.012321	0.011876	900.522	53692.2
337	2.000000	1.031356	7.36836e+06	-55489.1	955.818	-29741.8	0.000000	0.000000	7.032219	12.2378	NaN	0.000000	0.001557	0.001712	28.0778	12.5246	0.001718	7291.83	6.673356	-173.02	11.6416	1.031094	0.015571	0.015308	12.2378	7291.83	0.014312	0.014379	851.097	55558.2
337	2.000000	1.033341	7.36836e+06	-55489.1	955.818	-29741.8	0.000000	0.000000	7.034360	16.022	NaN	0.000000	0.001593	0.001712	28.0778	14.0873	0.001702	8276.96	6.780986	-173.514	15.4097	1.033041	0.017556	0.017255	16.022	8276.96	0.016104	0.016786	954.502	58367.8
337	2.000000	1.035367	7.36836e+06	-55489.1	955.817	-29741.8	0.000000	0.000000	7.036520	19.2791	NaN	0.000000	0.001558	0.001733	28.0778	16.5026	0.001841	8965.12	7.983148	-175.706	19.878	1.035067	0.019582	0.019281	19.2791	8965.12	0.017969	0.019451	991.182	58730.3
337	2.000000	1.037310	7.36836e+06	-55489.1	955.818	-29741.8	0.000000	0.000000	7.038611	22.8969	NaN	0.000000	0.001583	0.001738	28.0785	18.2465	0.001742	10476.6	4.170956	-173.035	21.5201	1.036974	0.021524	0.021188	22.8969	10476.6	0.019885	0.022362	1023.9	64008.1
337	2.000000	1.039280	7.36836e+06	-55489.1	955.817	-29741.8	0.000000	0.000000	7.040828	28.9066	NaN	0.000000	0.001573	0.001727	28.0779	20.0314	0.001824	10980.5	4.294141	-173.332	27.9295	1.038930	0.023494	0.023145	28.9066	10980.5	0.021520	0.024987	1156.86	63465.5
337	2.000000	1.041263	7.36836e+06	-55489.1	955.818	-29741.8	0.000000	0.000000	7.042876	30.4798	NaN	0.000000	0.001600	0.001732	28.0776	22.6825	0.001794	12645.6	6.029649	-178.256	28.6482	1.041049	0.025477	0.025263	30.4798	12645.6	0.023669	0.028640	1064.26	68269.7
337	2.000000	1.043295	7.36836e+06	-55489.1	955.818	-29741.8	0.000000	0.000000	7.045121	35.6514	NaN	0.000000	0.001574	0.001747	28.0778	23.875	0.001822	13101.6	9.229874	179.597	34.7172	1.043031	0.027509	0.027246	35.6514	13101.6	0.025469	0.031874	1118.53	67047.4
337	2.000000	1.045299	7.36836e+06	-55489.1	955.819	-29741.8	0.000000	0.000000	7.047354	41.2324	NaN	0.000000	0.001535	0.001726	28.0787	26.1781	0.001790	14627.9	3.448343	-175.67	40.4474	1.044961	0.029513	0.029175	41.2324	14627.9	0.027399	0.035525	1160.65	70906.5
337	2.000000	1.047279	7.36836e+06	-55489.1	955.819	-29741.8	0.000000	0.000000	7.049605	47.8153	NaN	0.000000	0.001544	0.001758	28.0796	28.6377	0.001902	15055	7.174968	-178.794	45.4554	1.046952	0.031494	0.031166	47.8153	15055	0.029112	0.038922	1228.48	69719.5
337	2.000000	1.049273	7.36836e+06	-55489.1	955.818	-29741.8	0.000000	0.000000	7.051846	53.8085	NaN	0.000000	0.001497	0.001738	28.0793	30.9981	0.001889	16406	8.633062	178.066	53.0343	1.048966	0.033488	0.033181	53.8085	16406	0.031028	0.042901	1254.25	72367.6
337	2.000000	1.051241	7.36836e+06	-55489.1	955.819	-29741.8	0.000000	0.000000	7.054020	58.8094	NaN	0.000000	0.001496	0.001763	28.079	32.2706	0.001735	18604.6	4.662024	-179.724	56.7751	1.051011	0.035456	0.035225	58.8094	18604.6	0.033085	0.047381	1241.2	78089.3
337	2.000000	1.053293	7.36836e+06	-55489.1	955.818	-29741.8	0.000000	0.000000	7.056401	66.8083	NaN	0.000000	0.001464	0.001718	28.0794	33.7529	0.001873	18024.7	8.866723	178.581	67.2218	1.052851	0.037508	0.037065	66.8083	18024.7	0.034728	0.051114	1307.05	72840.4
337	2.000000	1.055265	7.36836e+06	-55489.1	955.817	-29741.8	0.000000	0.000000	7.058595	72.2223	NaN	0.000000	0.001504	0.001731	28.079	36.2615	0.001849	19608.4	3.382749	-178.105	71.074	1.054967	0.039479	0.039181	72.2223	19608.4	0.036717	0.055819	1293.87	75827.3
337	2.000000	1.057292	7.36836e+06	-55489.1	955.819	-29741.8	0.000000	0.000000	7.060956	80.3298	NaN	0.000000	0.001494	0.001716	28.0793	37.7787	0.001779	21232.6	6.226774	179.326	79.0121	1.056898	0.041506	0.041113	80.3298	21232.6	0.038669	0.060633	1324.85	78781
337	2.000000	1.059266	7.36836e+06	-55489.1	955.818	-29741.8	0.000000	0.000000	7.063192	86.7191	NaN	0.000000	0.001505	0.001754	28.0793	39.7248	0.001740	22828.4	4.607885	179.58	88.3927	1.058964	0.043480	0.043178	86.7191	22828.4	0.040631	0.065669	1320.54	81389.4
337	2.000000	1.061173	7.36837e+06	-55489.1	955.819	-29741.8	0.000000	0.000000	7.065406	94.1708	NaN	0.000000	0.001521	0.001751	28.0791	42.0692	0.001746	24092.3	3.348657	179.384	89.6309	1.060904	0.045387	0.045119	94.1708	24092.3	0.042456	0.070529	1335.21	82883.8
337	2.000000	1.063286	7.36837e+06	-55489.1	955.818	-29741.8	0.000000	0.000000	7.067995	105.741	NaN	0.000000	0.001571	0.001741	28.0793	43.1465	0.001811	23827	2.082699	-178.315	105.947	1.062900	0.047500	0.047114	105.741	23827	0.044172	0.075254	1405.11	79355.6
337	2.000000	1.065231	7.36837e+06	-55489.1	955.818	-29741.8	0.000000	0.000000	7.070228	112.717	NaN	0.000000	0.001521	0.001735	28.079	46.3455	0.001748	26515.2	7.140956	174.281	111.667	1.064931	0.049446	0.049146	112.717	26515.2	0.046258	0.081198	1388.18	85015.3
337	2.000000	1.067257	7.36837e+06	-55489.1	955.818	-29741.8	0.000000	0.000000	7.072659	122.577	NaN	0.000000	0.001524	0.001715	28.0794	47.9258	0.001699	28200.3	4.134855	177.982	120.065	1.066937	0.051472	0.051152	122.577	28200.3	0.048212	0.086966	1409.49	87368
337	2.000000	1.069231	7.36837e+06	-55489.1	955.817	-29741.8	0.000000	0.000000	7.074985	131.115	NaN	0.000000	0.001491	0.001679	28.0793	49.817	0.001853	26881	2.821770	179.484	130.843	1.068965	0.053446	0.053179	131.115	26881	0.049788	0.091758	1428.92	81076.9
337	2.000000	1.071265	7.36837e+06	-55489.1	955.818	-29741.8	0.000000	0.000000	7.077446	141.503	NaN	0.000000	0.001494	0.001729	28.079	51.9018	0.001851	28037.7	8.398014	174.07	141.561	1.070815	0.055480	0.055029	141.503	28037.7	0.051695	0.097723	1448	81943.8
337	2.000000	1.073205	7.36837e+06	-55489.1	955.819	-29741.8	0.000000	0.000000	7.079818	152.014	NaN	0.000000	0.001502	0.001754	28.0794	51.9355	0.001784	29105.1	2.676769	179.043	150.769	1.072891	0.057420	0.057105	152.014	29105.1	0.053502	0.103546	1468.08	82637.5
337	2.000000	1.075254	7.36837e+06	-55489.1	955.818	-29741.8	0.000000	0.000000	7.082173	159.462	NaN	0.000000	0.001530	0.001723	28.0793	55.1065	0.001757	31366.9	5.213500	175.157	158.823	1.074922	0.059468	0.059137	159.462	31366.9	0.055655	0.110691	1440.6	86136.7
337	2.000000	1.077252	7.36837e+06	-55489.1	955.817	-29741.8	0.000000	0.000000	7.084687	172.015	NaN	0.000000	0.001504	0.001751	28.0795	56.5139	0.001805	31314.8	1.459526	-179.707	171.612	1.076921	0.061466	0.061135	172.015	31314.8	0.057346	0.116465	1476.96	83835
337	2.000000	1.079165	7.36837e+06	-55489.1	955.818	-29741.8	0.000000	0.000000	7.087112	184.467	NaN	0.000000	0.001485	0.001737	28.079	58.4646	0.001726	33870.9	2.615696	177.786	180.706	1.078846	0.063379	0.063061	184.467	33870.9	0.059294	0.123290	1496.2	88132.4
337	2.000000	1.081250	7.36837e+06	-55489.1	955.818	-29741.8	0.000000	0.000000	7.089553	193.108	NaN	0.000000	0.001493	0.001733	28.078	62.4377	0.001802	34639.6	6.377682	174.145	193.739	1.080832	0.065464	0.065046	193.108	34639.6	0.061283	0.130449	1480.34	87624.7
337	2.000000	1.083211	7.36837e+06	-55489.1	955.819	-29741.8	0.000000	0.000000	7.092110	207.584	NaN	0.000000	0.001481	0.001756	28.0782	61.9883	0.001888	32834.6	3.860341	177.866	205.562	1.082862	0.067425	0.067076	207.584	32834.6	0.062684	0.135608	1530.77	81463.5
337	2.000000	1.085166	7.36837e+06	-55489.1	955.818	-29741.8	0.000000	0.000000	7.094492	217.982	NaN	0.000000	0.001495	0.001718	28.078	65.4383	0.001695	38601.1	6.822256	172.322	214.801	1.084905	0.069380	0.069119	217.982	38601.1	0.065145	0.144901	1504.35	92648.3
337	2.000000	1.087270	7.36837e+06	-55489.1	955.819	-29741.8	0.000000	0.000000	7.097081	229.757	NaN	0.000000	0.001475	0.001740	28.0781	67.5595	0.001762	38340	4.264584	175.933	229.062	1.086885	0.071484	0.071099	229.757	38340	0.066990	0.152059	1510.97	89829.4
337	2.000000	1.089275	7.36837e+06	-55489.1	955.819	-29741.8	0.000000	0.000000	7.099564	241.37	NaN	0.000000	0.001468	0.001730	28.0783	69.0789	0.001805	38261.4	2.977216	177.107	241.98	1.088875	0.073489	0.073089	241.37	38261.4	0.068758	0.159072	1517.36	87647
337	2.000000	1.091259	7.36837e+06	-55489.1	955.819	-29741.8	0.000000	0.000000	7.102072	254.121	NaN	0.000000	0.001492	0.001737	28.078	72.3397	0.001831	39512.5	5.719235	173.927	253.725	1.090803	0.075473	0.075018	254.121	39512.5	0.070650	0.166741	1524.04	88406.9
337	2.000000	1.093281	7.36837e+06	-55489.1	955.819	-29741.8	0.000000	0.000000	7.104537	264.884	NaN	0.000000	0.001468	0.001735	28.0782	72.7464	0.001699	42818.8	5.094999	173.251	267.403	1.092894	0.077495	0.077108	264.884	42818.8	0.072856	0.175898	1505.89	93277.5
337	2.000000	1.095178	7.36837e+06	-55489.1	955.819	-29741.8	0.000000	0.000000	7.107158	282.471	NaN	0.000000	0.001499	0.001732	28.0779	75.5297	0.001764	42828.7	3.216052	175.463	279.899	1.094903	0.079393	0.079117	282.471	42828.7	0.074446	0.182644	1546.57	91559.8
337	2.000000	1.097184	7.36837e+06	-55489.1	955.819	-29741.8	0.000000	0.000000	7.109873	299.731	NaN	0.000000	0.001526	0.001769	28.0779	78.4925	0.001795	43721.2	6.498030	172.424	295.434	1.096787	0.081398	0.081001	299.731	43721.2	0.076257	0.190466	1573.67	91528.6
337	2.000000	1.099205	7.36837e+06	-55489.1	955.819	-29741.8	0.000000	0.000000	7.112133	305.54	NaN	0.000000	0.001520	0.001727	28.0779	79.2034	0.001778	44549.6	1.943689	176.134	304.024	1.099002	0.083419	0.083217	305.54	44549.6	0.078275	0.199370	1532.53	91156.4
337	2.000000	1.101155	7.36837e+06	-55489.1	955.82	-29741.8	0.000000	0.000000	7.114977	327.256	NaN	0.000000	0.001486	0.001767	28.0779	81.9653	0.001748	46903	2.798455	175.413	322.751	1.100834	0.085369	0.085049	327.256	46903	0.080136	0.207747	1575.26	94017.1
337	2.000000	1.103247	7.36837e+06	-55489.1	955.819	-29741.8	0.000000	0.000000	7.117612	340.458	NaN	0.000000	0.001480	0.001720	28.0784	82.8265	0.001810	45749.8	3.432021	174.726	343.56	1.102874	0.087461	0.087089	340.458	45749.8	0.081880	0.215744	1578.06	89989.8
337	2.000000	1.105115	7.36837e+06	-55489.1	955.819	-29741.8	0.000000	0.000000	7.120162	357.035	NaN	0.000000	0.001514	0.001747	28.0778	83.0541	0.001718	48335.8	-4.945755	-177.08	350.398	1.104793	0.089330	0.089008	357.035	48335.8	0.083790	0.224662	1589.21	93170.3
337	2.000000	1.107251	7.36837e+06	-55489.1	955.82	-29741.8	0.000000	0.000000	7.123037	375.004	NaN	0.000000	0.001476	0.001722	28.078	87.9026	0.001827	48122	5.096458	172.654	374.623	1.106818	0.091465	0.091032	375.004	48122	0.085621	0.233371	1606.9	91011.1
337	2.000000	1.109168	7.36837e+06	-55489.1	955.82	-29741.8	0.000000	0.000000	7.125655	392.04	NaN	0.000000	0.001513	0.001755	28.0782	89.7707	0.001853	48456.8	4.621004	172.885	389.96	1.108911	0.093383	0.093125	392.04	48456.8	0.087315	0.241569	1622.89	90075.7
337	2.000000	1.111070	7.36837e+06	-55489.1	955.819	-29741.8	0.000000	0.000000	7.128085	404.89	NaN	0.000000	0.001478	0.001821	28.0782	91.4374	0.001786	51185.8	2.243311	175.117	396.867	1.110834	0.095284	0.095049	404.89	51185.8	0.089352	0.251597	1609.28	93233.2
337	2.000000	1.113120	7.36837e+06	-55489.1	955.82	-29741.8	0.000000	0.000000	7.130941	424.468	NaN	0.000000	0.001497	0.001738	28.0784	93.4212	0.001827	51133.9	5.595689	171.87	419.715	1.112770	0.097335	0.096984	424.468	51133.9	0.091109	0.260403	1630.05	91550.3
337	2.000000	1.115111	7.36837e+06	-55489.1	955.819	-29741.8	0.000000	0.000000	7.133502	438.332	NaN	0.000000	0.001499	0.001721	28.0793	94.4928	0.001769	53423.8	0.914353	175.888	433.86	1.114863	0.099325	0.099077	438.332	53423.8	0.093171	0.270918	1617.95	93775.3
337	2.000000	1.117235	7.36837e+06	-55489.1	955.819	-29741.8	0.000000	0.000000	7.136107	450.014	NaN	0.000000	0.001518	0.001726	28.0792	97.3309	0.001778	54728.8	3.107442	173.841	448.808	1.116933	0.101449	0.101147	450.014	54728.8	0.095282	0.281882	1596.46	94179.3
337	2.000000	1.119168	7.36837e+06	-55489.1	955.819	-29741.8	0.000000	0.000000	7.138316	456.71	NaN	0.000000	0.001532	0.001732	28.0793	98.5078	0.001814	54316.5	1.782557	174.802	455.52	1.119157	0.103383	0.103372	456.71	54316.5	0.097076	0.291360	1567.51	91936.8
337	2.000000	1.121208	7.36837e+06	-55489.1	955.818	-29741.8	0.000000	0.000000	7.141800	491.817	NaN	0.000000	0.001494	0.001723	28.0795	102.017	0.001859	54873.7	5.217707	172.127	494.55	1.120843	0.105423	0.105057	491.817	54873.7	0.098700	0.300066	1639.03	91522.7
337	2.000000	1.123188	7.36837e+06	-55489.1	955.818	-29741.8	0.000000	0.000000	7.144798	516.587	NaN	0.000000	0.001490	0.001738	28.0793	102.547	0.001876	54670.1	6.202870	171.939	515.47	1.122745	0.107402	0.106960	516.587	54670.1	0.100315	0.308842	1672.66	89878.3
337	2.000000	1.125117	7.36837e+06	-55489.1	955.819	-29741.8	0.000000	0.000000	7.147260	529.533	NaN	0.000000	0.001536	0.001716	28.0792	104.04	0.001834	56723.9	3.070373	173.556	526.666	1.124895	0.109331	0.109110	529.533	56723.9	0.102330	0.319956	1655.02	91620.8
337	2.000000	1.126216	7.36837e+06	-55489.1	955.82	-29741.8	0.000000	0.000000	7.148747	538.947	NaN	0.000000	0.001539	0.001777	28.0795	104.272	0.001875	55615.6	5.319151	171.619	540.5	1.125855	0.110431	0.110070	538.947	55615.6	0.103163	0.324605	1660.32	89185