File: remote_trans/data/nanoindenter/0828-1/data/Data_2025-08-06,11h17m57s/2025-07-22_16-23-58_1_677.txt
2025-07-22, 16:23:58, 1
Index	Phase	Displacement	Time	Pos X	Pos Y	Pos Z	Rot A	Rot B	Piezo Z	Force A	Force B	Gripper	Voltage A	Voltage B	Temperature	Amplitude force	Amplitude pos	Stiffness	Phase shift	Phase excitation	Force A raw	Displacement raw	HMax	HMax raw	Real Force	Real Stiffness	Contact Depth	Area	Hardness	Reduced Mod.
[#]	[#]	[um]	[s]	[um]	[um]	[um]	[m°]	[m°]	[um]	[uN]	[uN]	[V]	[V]	[V]	[°C]	[uN]	[um]	[N/m]	[°]	[°]	[uN]	[um]	[um]	[um]	[uN]	[N/m]	[um]	[um^2]	[MPa]	[MPa]
677	1.000000	0.002539	7.37167e+06	-43239.1	1005.82	-29779.7	0.000000	0.000000	6.002786	-0.030651	NaN	0.000000	0.001715	0.001693	28.081	0.078056	0.001017	76.7415	-124.195	-161.599	0.009161	0.001259	-1.207150	-1.208430	-0.030651	76.7415	-1.206850	-1.356666E+16	2.259274E-18	NaN
677	1.000000	0.012614	7.37167e+06	-43239.1	1005.82	-29779.7	0.000000	0.000000	6.012862	-0.005579	NaN	0.000000	0.001733	0.001675	28.0807	0.045483	0.001124	40.448	108.439	19.8221	-0.053597	0.011205	-1.197075	-1.198485	-0.005579	40.448	-1.196972	-1.000452E+16	5.576340E-19	NaN
677	1.000000	0.022488	7.37167e+06	-43239.1	1005.82	-29779.7	0.000000	0.000000	6.022734	-0.027873	NaN	0.000000	0.001638	0.001692	28.0804	0.118064	0.001709	69.0948	-64.5623	-163.486	-0.057476	0.021211	-1.187202	-1.188479	-0.027873	69.0948	-1.186899	-7.333120E+15	3.800975E-18	NaN
677	1.000000	0.032501	7.37167e+06	-43239.1	1005.82	-29779.7	0.000000	0.000000	6.032745	-0.088030	NaN	0.000000	0.001657	0.001735	28.0799	0.096742	0.001916	50.4923	-32.0739	12.4735	-0.062557	0.031144	-1.177188	-1.178546	-0.088030	50.4923	-1.175880	-5.220094E+15	1.686369E-17	NaN
677	1.000000	0.042506	7.37167e+06	-43239.1	1005.82	-29779.6	0.000000	0.000000	6.042754	0.020111	NaN	0.000000	0.001617	0.001709	28.0804	0.045694	0.002052	22.2699	124.356	-162.349	-0.035257	0.041149	-1.167184	-1.168540	0.020111	22.2699	-1.167861	-4.075887E+15	-4.934246E-18	NaN
677	1.000000	0.052494	7.37167e+06	-43239.1	1005.82	-29779.6	0.000000	0.000000	6.052739	-0.054229	NaN	0.000000	0.001638	0.001710	28.0801	0.041515	0.001931	21.5007	-33.7513	15.6167	-0.015000	0.051159	-1.157196	-1.158530	-0.054229	21.5007	-1.155304	-2.766456E+15	1.960229E-17	NaN
677	1.000000	0.062519	7.37167e+06	-43239.1	1005.82	-29779.6	0.000000	0.000000	6.062767	0.003059	NaN	0.000000	0.001655	0.001740	28.08	0.129716	0.001970	65.8539	-172.334	-163.559	-0.124879	0.061203	-1.147170	-1.148486	0.003059	65.8539	-1.147205	-2.154520E+15	-1.419579E-18	NaN
677	1.000000	0.072529	7.37167e+06	-43239.1	1005.82	-29779.6	0.000000	0.000000	6.072777	0.003660	NaN	0.000000	0.001646	0.001709	28.0815	0.060841	0.002078	29.285	133.165	15.2511	-0.075955	0.071197	-1.137160	-1.138493	0.003660	29.285	-1.137254	-1.584584E+15	-2.310026E-18	NaN
677	1.000000	0.082527	7.37167e+06	-43239.1	1005.82	-29779.6	0.000000	0.000000	6.082773	-0.046332	NaN	0.000000	0.001664	0.001705	28.0816	0.039116	0.002061	18.9798	-2.719264	-166.546	-0.008725	0.081189	-1.127163	-1.128500	-0.046332	18.9798	-1.125332	-1.096485E+15	4.225545E-17	NaN
677	1.000000	0.092521	7.37167e+06	-43239.1	1005.82	-29779.6	0.000000	0.000000	6.092767	-0.043555	NaN	0.000000	0.001633	0.001697	28.0818	0.076057	0.001965	38.7124	-84.239	14.7974	0.011114	0.091186	-1.117168	-1.118503	-0.043555	38.7124	-1.116324	-8.301492E+14	5.246587E-17	NaN
677	1.000000	0.102522	7.37167e+06	-43239.1	1005.82	-29779.6	0.000000	0.000000	6.102770	0.006934	NaN	0.000000	0.001617	0.001717	28.0815	0.012538	0.002135	5.873470	-125.62	-164.432	-0.011269	0.101228	-1.107167	-1.108461	0.006934	5.873470	-1.108053	-6.429176E+14	-1.078450E-17	NaN
677	1.000000	0.112503	7.37167e+06	-43239.1	1005.82	-29779.6	0.000000	0.000000	6.112747	-0.097349	NaN	0.000000	0.001646	0.001745	28.0818	0.068344	0.001875	36.4441	150.898	17.699	-0.047218	0.111152	-1.097186	-1.098537	-0.097349	36.4441	-1.095183	-4.319133E+14	2.253904E-16	NaN
677	1.000000	0.122518	7.37167e+06	-43239.1	1005.82	-29779.6	0.000000	0.000000	6.122763	-0.078895	NaN	0.000000	0.001637	0.001729	28.0816	0.059671	0.002000	29.8282	55.619	-167.315	-0.012551	0.121231	-1.087171	-1.088458	-0.078895	29.8282	-1.085187	-3.170918E+14	2.488094E-16	NaN
677	1.000000	0.132544	7.37167e+06	-43239.1	1005.82	-29779.6	0.000000	0.000000	6.132790	-0.043672	NaN	0.000000	0.001632	0.001728	28.0815	0.127218	0.002190	58.0905	4.007806	16.6708	-0.060044	0.131221	-1.077146	-1.078468	-0.043672	58.0905	-1.076582	-2.430002E+14	1.797199E-16	NaN
677	1.000000	0.142543	7.37167e+06	-43239.1	1005.82	-29779.6	0.000000	0.000000	6.142788	-0.063303	NaN	0.000000	0.001617	0.001733	28.0818	0.070460	0.001956	36.026	-54.3633	-166.268	-0.062481	0.141225	-1.067146	-1.068464	-0.063303	36.026	-1.065828	-1.742368E+14	3.633176E-16	NaN
677	1.000000	0.152520	7.37167e+06	-43239.1	1005.82	-29779.6	0.000000	0.000000	6.152765	-0.075769	NaN	0.000000	0.001622	0.001732	28.0817	0.077815	0.001999	38.9259	-27.4639	14.7711	-0.098530	0.151145	-1.057169	-1.058544	-0.075769	38.9259	-1.055710	-1.273971E+14	5.947490E-16	NaN
677	1.000000	0.162525	7.37167e+06	-43239.1	1005.82	-29779.6	0.000000	0.000000	6.162769	-0.087081	NaN	0.000000	0.001635	0.001747	28.0817	0.070080	0.002011	34.8503	96.3619	-168.299	-0.138973	0.161276	-1.047164	-1.048414	-0.087081	34.8503	-1.045290	-9.227725E+13	9.436930E-16	NaN
677	1.000000	0.172522	7.37167e+06	-43239.1	1005.82	-29779.6	0.000000	0.000000	6.172766	-0.073027	NaN	0.000000	0.001627	0.001761	28.0817	0.011930	0.001918	6.220875	-86.0291	16.3325	0.044968	0.171153	-1.037168	-1.038536	-0.073027	6.220875	-1.028363	-5.463439E+13	1.336640E-15	NaN
677	1.000000	0.182526	7.37167e+06	-43239.1	1005.82	-29779.6	0.000000	0.000000	6.182771	-0.062986	NaN	0.000000	0.001603	0.001719	28.0818	0.078827	0.001826	43.1792	177.071	-166.297	-0.100792	0.181232	-1.027163	-1.028457	-0.062986	43.1792	-1.026069	-5.088698E+13	1.237755E-15	NaN
677	1.000000	0.192533	7.37167e+06	-43239.1	1005.82	-29779.6	0.000000	0.000000	6.192779	-0.031408	NaN	0.000000	0.001602	0.001696	28.0816	0.110205	0.002029	54.3181	117.97	17.7162	-0.126165	0.191192	-1.017157	-1.018497	-0.031408	54.3181	-1.016723	-3.809396E+13	8.244984E-16	NaN
677	1.000000	0.202591	7.37167e+06	-43239.1	1005.82	-29779.6	0.000000	0.000000	6.202838	-0.018728	NaN	0.000000	0.001579	0.001717	28.0813	0.040072	0.002092	19.1561	93.8653	-164.415	0.003036	0.201277	-1.007098	-1.008412	-0.018728	19.1561	-1.006365	-2.763459E+13	6.776953E-16	NaN
677	1.000000	0.212589	7.37167e+06	-43239.1	1005.82	-29779.6	0.000000	0.000000	6.212836	-0.030829	NaN	0.000000	0.001597	0.001696	28.0805	0.117742	0.002022	58.2226	-101.027	15.0766	0.016189	0.211217	-0.997100	-0.998472	-0.030829	58.2226	-0.996703	-2.048212E+13	1.505171E-15	NaN
677	1.000000	0.222572	7.37167e+06	-43239.1	1005.82	-29779.6	0.000000	0.000000	6.222817	-0.060690	NaN	0.000000	0.001652	0.001745	28.0804	0.045077	0.001936	23.2828	158.238	-162.976	-0.102877	0.221242	-0.987117	-0.988447	-0.060690	23.2828	-0.985162	-1.432031E+13	4.238064E-15	NaN
677	1.000000	0.232577	7.37167e+06	-43239.1	1005.82	-29779.6	0.000000	0.000000	6.232820	-0.095860	NaN	0.000000	0.001637	0.001701	28.0813	0.054377	0.001998	27.2198	-97.5654	17.3902	-0.020137	0.231239	-0.977113	-0.978450	-0.095860	27.2198	-0.974471	-1.027828E+13	9.326496E-15	NaN
677	1.000000	0.242580	7.37167e+06	-43239.1	1005.82	-29779.6	0.000000	0.000000	6.242825	-0.054622	NaN	0.000000	0.001634	0.001708	28.0804	0.074247	0.001904	38.988	-126.677	-166.602	0.003102	0.241288	-0.967110	-0.968402	-0.054622	38.988	-0.966059	-7.916691E+12	6.899637E-15	NaN
677	1.000000	0.252595	7.37167e+06	-43239.1	1005.82	-29779.6	0.000000	0.000000	6.252842	-0.028637	NaN	0.000000	0.001665	0.001726	28.0808	0.068557	0.002060	33.2787	-167.713	14.5132	0.058788	0.251241	-0.957094	-0.958448	-0.028637	33.2787	-0.956449	-5.874710E+12	4.874570E-15	NaN
677	1.000000	0.262588	7.37167e+06	-43239.1	1005.82	-29779.6	0.000000	0.000000	6.262833	-0.067558	NaN	0.000000	0.001618	0.001733	28.0804	0.103542	0.002061	50.2497	91.2203	-163.747	-0.007413	0.261317	-0.947101	-0.948372	-0.067558	50.2497	-0.946093	-4.259240E+12	1.586141E-14	NaN
677	1.000000	0.272579	7.37167e+06	-43239.1	1005.82	-29779.6	0.000000	0.000000	6.272826	-0.017653	NaN	0.000000	0.001627	0.001731	28.0806	0.053110	0.002013	26.3899	-34.2945	11.1483	-0.002749	0.271209	-0.937110	-0.938480	-0.017653	26.3899	-0.936608	-3.172311E+12	5.564720E-15	NaN
677	1.000000	0.282579	7.37167e+06	-43239.1	1005.82	-29779.6	0.000000	0.000000	6.282827	-0.005253	NaN	0.000000	0.001597	0.001718	28.0806	0.042735	0.002156	19.8209	29.0009	-162.108	-0.043804	0.281278	-0.927110	-0.928411	-0.005253	19.8209	-0.926911	-2.346983E+12	2.238195E-15	NaN
677	1.000000	0.292608	7.37167e+06	-43239.1	1005.82	-29779.6	0.000000	0.000000	6.292850	-0.120216	NaN	0.000000	0.001622	0.001721	28.0811	0.052319	0.002145	24.3882	151.95	11.9345	-0.114013	0.291234	-0.917082	-0.918455	-0.120216	24.3882	-0.913385	-1.541265E+12	7.799813E-14	NaN
677	1.000000	0.302624	7.37167e+06	-43239.1	1005.82	-29779.6	0.000000	0.000000	6.302868	-0.081593	NaN	0.000000	0.001571	0.001712	28.0806	0.059260	0.002105	28.1507	-119.042	-163.217	-0.044952	0.301297	-0.907065	-0.908393	-0.081593	28.1507	-0.904892	-1.183472E+12	6.894344E-14	NaN
677	1.000000	0.312637	7.37167e+06	-43239.1	1005.82	-29779.6	0.000000	0.000000	6.312880	-0.105853	NaN	0.000000	0.001582	0.001747	28.0805	0.044720	0.002033	21.9997	-109.359	16.1731	-0.134748	0.311235	-0.897052	-0.898454	-0.105853	21.9997	-0.893444	-8.288261E+11	1.277142E-13	NaN
677	1.000000	0.322599	7.37167e+06	-43239.1	1005.82	-29779.6	0.000000	0.000000	6.322847	-0.000736	NaN	0.000000	0.001594	0.001750	28.0807	0.067685	0.002041	33.1706	171.496	-160.967	-0.049947	0.321278	-0.887090	-0.888412	-0.000736	33.1706	-0.887074	-6.797592E+11	1.082274E-15	NaN
677	1.000000	0.332648	7.37167e+06	-43239.1	1005.82	-29779.6	0.000000	0.000000	6.332898	0.045382	NaN	0.000000	0.001583	0.001712	28.0806	0.097119	0.001945	49.9339	-87.4441	17.825	0.010038	0.331300	-0.877041	-0.878389	0.045382	49.9339	-0.877723	-5.080557E+11	-8.932562E-14	NaN
677	1.000000	0.342622	7.37167e+06	-43239.1	1005.82	-29779.6	0.000000	0.000000	6.342868	-0.040375	NaN	0.000000	0.001608	0.001720	28.0812	0.049450	0.002098	23.5675	-168.463	-160.867	-0.133298	0.341320	-0.867067	-0.868369	-0.040375	23.5675	-0.865782	-3.502489E+11	1.152766E-13	NaN
677	1.000000	0.352646	7.37167e+06	-43239.1	1005.82	-29779.6	0.000000	0.000000	6.352891	-0.065514	NaN	0.000000	0.001591	0.001735	28.0817	0.028861	0.002169	13.3058	75.8854	14.823	0.006304	0.351256	-0.857044	-0.858433	-0.065514	13.3058	-0.853351	-2.377441E+11	2.755673E-13	NaN
677	1.000000	0.362618	7.37167e+06	-43239.1	1005.82	-29779.6	0.000000	0.000000	6.362864	-0.047849	NaN	0.000000	0.001621	0.001712	28.0821	0.050802	0.001968	25.815	27.2548	-165.621	-0.050994	0.361296	-0.847071	-0.848394	-0.047849	25.815	-0.845681	-1.871727E+11	2.556426E-13	NaN
677	1.000000	0.372611	7.37167e+06	-43239.1	1005.82	-29779.6	0.000000	0.000000	6.372857	-0.048538	NaN	0.000000	0.001617	0.001701	28.0819	0.074467	0.001914	38.9117	-175.814	12.1258	-0.003675	0.371207	-0.837078	-0.838482	-0.048538	38.9117	-0.836142	-1.390036E+11	3.491880E-13	NaN
677	1.000000	0.382650	7.37167e+06	-43239.1	1005.82	-29779.6	0.000000	0.000000	6.382894	-0.103033	NaN	0.000000	0.001591	0.001745	28.0819	0.131271	0.001994	65.8393	73.5189	-164.373	-0.073395	0.381344	-0.827039	-0.828345	-0.103033	65.8393	-0.825865	-1.008643E+11	1.021503E-12	NaN
677	1.000000	0.392640	7.37167e+06	-43239.1	1005.82	-29779.6	0.000000	0.000000	6.392885	-0.051743	NaN	0.000000	0.001619	0.001717	28.0824	0.012530	0.002037	6.150505	127.743	11.9434	-0.053055	0.391237	-0.817050	-0.818452	-0.051743	6.150505	-0.810740	-6.289469E+10	8.226879E-13	NaN
677	1.000000	0.402675	7.37167e+06	-43239.1	1005.82	-29779.6	0.000000	0.000000	6.402920	-0.072774	NaN	0.000000	0.001597	0.001695	28.0817	0.062352	0.001890	32.9897	146.726	-163.948	0.028660	0.401375	-0.807014	-0.808314	-0.072774	32.9897	-0.805360	-5.316239E+10	1.368897E-12	NaN
677	1.000000	0.412669	7.37167e+06	-43239.1	1005.82	-29779.6	0.000000	0.000000	6.412917	-0.009710	NaN	0.000000	0.001576	0.001706	28.0817	0.082943	0.001878	44.1585	-20.4795	19.7692	-0.027034	0.411292	-0.797020	-0.798397	-0.009710	44.1585	-0.796855	-4.075371E+10	2.382535E-13	NaN
677	1.000000	0.422656	7.37167e+06	-43239.1	1005.82	-29779.6	0.000000	0.000000	6.422903	-0.015968	NaN	0.000000	0.001584	0.001742	28.0817	0.093771	0.001977	47.4205	76.1423	-165.897	0.008796	0.421343	-0.787034	-0.788347	-0.015968	47.4205	-0.786781	-2.974138E+10	5.368935E-13	NaN
677	1.000000	0.432648	7.37167e+06	-43239.1	1005.82	-29779.6	0.000000	0.000000	6.432891	-0.118863	NaN	0.000000	0.001598	0.001758	28.0817	0.027554	0.001887	14.6018	-63.971	13.8728	-0.069529	0.431310	-0.777041	-0.778379	-0.118863	14.6018	-0.770936	-1.811487E+10	6.561613E-12	NaN
677	1.000000	0.442666	7.37167e+06	-43239.1	1005.82	-29779.6	0.000000	0.000000	6.442915	0.039334	NaN	0.000000	0.001568	0.001741	28.0816	0.078285	0.001923	40.7127	175.979	-164.836	0.004883	0.441365	-0.767023	-0.768324	0.039334	40.7127	-0.767748	-1.639392E+10	-2.399278E-12	NaN
677	1.000000	0.452660	7.37167e+06	-43239.1	1005.82	-29779.6	0.000000	0.000000	6.452902	-0.122685	NaN	0.000000	0.001531	0.001708	28.0815	0.019656	0.002050	9.586101	-165.91	13.5833	-0.114141	0.451308	-0.757030	-0.758381	-0.122685	9.586101	-0.747431	-8.674582E+9	1.414307E-11	NaN
677	1.000000	0.462682	7.37167e+06	-43239.1	1005.82	-29779.6	0.000000	0.000000	6.462925	-0.112675	NaN	0.000000	0.001528	0.001720	28.0817	0.087309	0.001972	44.2717	67.6813	-170.935	-0.140376	0.461335	-0.747008	-0.748354	-0.112675	44.2717	-0.745099	-8.062960E+9	1.397437E-11	NaN
677	1.000000	0.472663	7.37167e+06	-43239.1	1005.82	-29779.6	0.000000	0.000000	6.472908	-0.084632	NaN	0.000000	0.001532	0.001761	28.0817	0.013727	0.001895	7.244010	68.7413	12.5928	-0.030207	0.471356	-0.737026	-0.738334	-0.084632	7.244010	-0.728264	-4.754898E+9	1.779885E-11	NaN
677	1.000000	0.482681	7.37167e+06	-43239.1	1005.82	-29779.6	0.000000	0.000000	6.482927	-0.034953	NaN	0.000000	0.001548	0.001742	28.0805	0.036060	0.002079	17.3424	178.229	-165.067	-0.071280	0.481353	-0.727008	-0.728336	-0.034953	17.3424	-0.725497	-4.359388E+9	8.017908E-12	NaN
677	1.000000	0.492707	7.37167e+06	-43239.1	1005.82	-29779.6	0.000000	0.000000	6.492954	-0.013345	NaN	0.000000	0.001507	0.001752	28.0804	0.031440	0.002116	14.8595	34.764	12.3093	-0.104405	0.491341	-0.716982	-0.718348	-0.013345	14.8595	-0.716309	-3.266838E+9	4.084858E-12	NaN
677	1.000000	0.502675	7.37167e+06	-43239.1	1005.82	-29779.6	0.000000	0.000000	6.502921	-0.042775	NaN	0.000000	0.001557	0.001716	28.0808	0.035577	0.002101	16.9319	11.3471	-163.181	0.046998	0.501430	-0.707014	-0.708259	-0.042775	16.9319	-0.705119	-2.298419E+9	1.861077E-11	NaN
677	1.000000	0.512719	7.37167e+06	-43239.1	1005.82	-29779.6	0.000000	0.000000	6.512965	-0.064319	NaN	0.000000	0.001557	0.001737	28.0802	0.091227	0.001937	47.1018	-8.340117	15.5285	0.024387	0.511369	-0.696970	-0.698321	-0.064319	47.1018	-0.695946	-1.722491E+9	3.734071E-11	NaN
677	1.000000	0.522710	7.37167e+06	-43239.1	1005.82	-29779.6	0.000000	0.000000	6.522954	-0.080777	NaN	0.000000	0.001519	0.001717	28.0805	0.044318	0.001953	22.6956	-75.4395	-166.489	-0.085398	0.521422	-0.686980	-0.688268	-0.080777	22.6956	-0.684310	-1.194387E+9	6.763030E-11	NaN
677	1.000000	0.532687	7.37167e+06	-43239.1	1005.82	-29779.6	0.000000	0.000000	6.532931	-0.092115	NaN	0.000000	0.001565	0.001740	28.0804	0.044644	0.001949	22.902	-56.6537	19.8542	-0.097934	0.531391	-0.677002	-0.678298	-0.092115	22.902	-0.673986	-8.628510E+8	1.067566E-10	NaN
677	1.000000	0.542697	7.37167e+06	-43239.1	1005.82	-29779.6	0.000000	0.000000	6.542941	-0.078344	NaN	0.000000	0.001545	0.001741	28.0808	0.088533	0.001947	45.4636	47.9234	-168.636	-0.011075	0.541399	-0.666992	-0.668290	-0.078344	45.4636	-0.665700	-6.645504E+8	1.178896E-10	NaN
677	1.000000	0.552727	7.37167e+06	-43239.1	1005.82	-29779.6	0.000000	0.000000	6.552974	-0.019649	NaN	0.000000	0.001569	0.001698	28.0805	0.124078	0.001993	62.2468	173.812	15.3263	-0.053017	0.551333	-0.656962	-0.658356	-0.019649	62.2468	-0.656726	-5.007403E+8	3.923978E-11	NaN
677	1.000000	0.562702	7.37167e+06	-43239.1	1005.82	-29779.6	0.000000	0.000000	6.562948	-0.047883	NaN	0.000000	0.001596	0.001712	28.0805	0.057419	0.002003	28.6725	12.3472	-165.282	-0.024778	0.561418	-0.646987	-0.648271	-0.047883	28.6725	-0.645735	-3.539619E+8	1.352775E-10	NaN
677	1.000000	0.572726	7.37167e+06	-43239.1	1005.82	-29779.6	0.000000	0.000000	6.572974	0.004570	NaN	0.000000	0.001554	0.001719	28.0804	0.021835	0.001777	12.2871	-69.8339	13.7369	-0.012726	0.571379	-0.636963	-0.638310	0.004570	12.2871	-0.637242	-2.706751E+8	-1.688366E-11	NaN
677	1.000000	0.582733	7.37167e+06	-43239.1	1005.82	-29779.6	0.000000	0.000000	6.582977	-0.079295	NaN	0.000000	0.001561	0.001696	28.0806	0.066832	0.001791	37.3116	5.246058	-164.64	-0.018677	0.581397	-0.626956	-0.628292	-0.079295	37.3116	-0.625362	-1.859191E+8	4.265045E-10	NaN
677	1.000000	0.592712	7.37167e+06	-43239.1	1005.82	-29779.6	0.000000	0.000000	6.592954	-0.154854	NaN	0.000000	0.001612	0.001724	28.0805	0.131567	0.001892	69.5405	-179.825	14.0186	-0.179188	0.591361	-0.616977	-0.618328	-0.154854	69.5405	-0.615307	-1.352425E+8	1.145012E-9	NaN
677	1.000000	0.602713	7.37167e+06	-43239.1	1005.82	-29779.6	0.000000	0.000000	6.602957	-0.093540	NaN	0.000000	0.001575	0.001723	28.0808	0.088678	0.002155	41.1466	-10.5241	-167.277	-0.129688	0.601417	-0.606976	-0.608272	-0.093540	41.1466	-0.605271	-9.840943E+7	9.505214E-10	NaN
677	1.000000	0.612739	7.37167e+06	-43239.1	1005.82	-29779.6	0.000000	0.000000	6.612985	-0.045220	NaN	0.000000	0.001607	0.001697	28.0809	0.036841	0.002177	16.9216	-148.565	14.2392	-0.024404	0.611424	-0.596950	-0.598265	-0.045220	16.9216	-0.594946	-7.093037E+7	6.375313E-10	NaN
677	1.000000	0.622739	7.37167e+06	-43239.1	1005.82	-29779.6	0.000000	0.000000	6.622985	-0.042518	NaN	0.000000	0.001572	0.001725	28.0821	0.094891	0.002089	45.4132	-0.019981	-163.169	0.022880	0.621442	-0.586950	-0.588248	-0.042518	45.4132	-0.586248	-5.381848E+7	7.900231E-10	NaN
677	1.000000	0.632781	7.37167e+06	-43239.1	1005.82	-29779.6	0.000000	0.000000	6.633024	-0.104726	NaN	0.000000	0.001570	0.001762	28.0818	0.115874	0.002021	57.3225	77.8942	15.7064	-0.121361	0.631454	-0.576909	-0.578235	-0.104726	57.3225	-0.575538	-3.829414E+7	2.734769E-9	NaN
677	1.000000	0.642770	7.37167e+06	-43239.1	1005.82	-29779.6	0.000000	0.000000	6.643017	-0.015297	NaN	0.000000	0.001579	0.001723	28.082	0.064872	0.002023	32.0678	-76.0331	-163.185	0.113473	0.641437	-0.566919	-0.568253	-0.015297	32.0678	-0.566562	-2.878140E+7	5.314767E-10	NaN
677	1.000000	0.652760	7.37167e+06	-43239.1	1005.82	-29779.6	0.000000	0.000000	6.653005	-0.049613	NaN	0.000000	0.001619	0.001760	28.0819	0.128988	0.002019	63.8957	129.464	15.8003	-0.025276	0.651378	-0.556930	-0.558311	-0.049613	63.8957	-0.556347	-2.078922E+7	2.386477E-9	NaN
677	1.000000	0.662745	7.37167e+06	-43239.1	1005.82	-29779.6	0.000000	0.000000	6.662992	-0.016292	NaN	0.000000	0.001620	0.001777	28.0818	0.075092	0.002012	37.3248	-176.036	-168.931	-0.034028	0.661433	-0.546945	-0.548257	-0.016292	37.3248	-0.546617	-1.524384E+7	1.068732E-9	NaN
677	1.000000	0.672771	7.37167e+06	-43239.1	1005.82	-29779.6	0.000000	0.000000	6.673015	-0.083123	NaN	0.000000	0.001585	0.001757	28.0819	0.061220	0.002052	29.838	50.9165	15.2711	-0.036084	0.671422	-0.536919	-0.538267	-0.083123	29.838	-0.534829	-1.046213E+7	7.945158E-9	NaN
677	1.000000	0.682773	7.37167e+06	-43239.1	1005.82	-29779.6	0.000000	0.000000	6.683019	-0.038615	NaN	0.000000	0.001625	0.001716	28.0817	0.088357	0.002094	42.2023	-124.769	-163.308	-0.099986	0.681479	-0.526916	-0.528211	-0.038615	42.2023	-0.526230	-7.94701e+06	4.859070E-9	NaN
677	1.000000	0.692763	7.37167e+06	-43239.1	1005.82	-29779.6	0.000000	0.000000	6.693008	-0.049424	NaN	0.000000	0.001610	0.001751	28.0822	0.158383	0.002094	75.6393	179.605	16.3095	-0.089704	0.691389	-0.516927	-0.518300	-0.049424	75.6393	-0.516437	-5.808e+06	8.509672E-9	NaN
677	1.000000	0.702808	7.37167e+06	-43239.1	1005.82	-29779.6	0.000000	0.000000	6.703052	-0.070818	NaN	0.000000	0.001652	0.001835	28.0818	0.079475	0.002024	39.2668	97.8152	-167.518	-0.098411	0.701462	-0.506882	-0.508227	-0.070818	39.2668	-0.505529	-4.09373e+06	1.729920E-8	NaN
677	1.000000	0.712793	7.37167e+06	-43239.1	1005.82	-29779.6	0.000000	0.000000	6.713041	-0.015144	NaN	0.000000	0.001628	0.001771	28.0819	0.101268	0.002018	50.1788	12.49	16.8095	0.001772	0.711415	-0.496896	-0.498274	-0.015144	50.1788	-0.496670	-3.07994e+06	4.916891E-9	NaN
677	1.000000	0.722780	7.37167e+06	-43239.1	1005.82	-29779.6	0.000000	0.000000	6.723026	-0.044541	NaN	0.000000	0.001623	0.001779	28.0819	0.042681	0.002049	20.8257	-42.5883	-162.683	0.035405	0.721520	-0.486909	-0.488169	-0.044541	20.8257	-0.485305	-2.13677e+06	2.084510E-8	NaN
677	1.000000	0.732784	7.37167e+06	-43239.1	1005.82	-29779.6	0.000000	0.000000	6.733029	-0.065090	NaN	0.000000	0.001622	0.001747	28.0818	0.117609	0.002051	57.3338	95.8785	19.3963	-0.065352	0.731457	-0.476906	-0.478232	-0.065090	57.3338	-0.476054	-1.58588e+06	4.104340E-8	NaN
677	1.000000	0.742783	7.37167e+06	-43239.1	1005.82	-29779.6	0.000000	0.000000	6.743030	-0.016474	NaN	0.000000	0.001652	0.001758	28.0815	0.046445	0.001860	24.9726	-136.742	-168.623	-0.082070	0.741467	-0.466906	-0.468222	-0.016474	24.9726	-0.466412	-1.16161e+06	1.418211E-8	NaN
677	1.000000	0.752782	7.37167e+06	-43239.1	1005.82	-29779.6	0.000000	0.000000	6.753027	-0.054500	NaN	0.000000	0.001653	0.001738	28.081	0.085467	0.002095	40.7885	114.91	17.0405	0.006166	0.751377	-0.456908	-0.458313	-0.054500	40.7885	-0.455905	-826900	6.590910E-8	NaN
677	1.000000	0.762821	7.37168e+06	-43239.1	1005.82	-29779.6	0.000000	0.000000	6.763067	-0.058254	NaN	0.000000	0.001641	0.001697	28.0803	0.035025	0.001953	17.9359	35.4343	-164.856	-0.070660	0.761485	-0.446868	-0.448204	-0.058254	17.9359	-0.444432	-570016	1.021965E-7	NaN
677	1.000000	0.772851	7.37168e+06	-43239.1	1005.82	-29779.6	0.000000	0.000000	6.773096	-0.082168	NaN	0.000000	0.001640	0.001728	28.0802	0.103099	0.001956	52.7224	-51.7399	12.1307	-0.061233	0.771408	-0.436838	-0.438281	-0.082168	52.7224	-0.435669	-428755	1.916420E-7	NaN
677	1.000000	0.782810	7.37168e+06	-43239.1	1005.82	-29779.6	0.000000	0.000000	6.783055	-0.053787	NaN	0.000000	0.001628	0.001742	28.0802	0.040794	0.002122	19.2268	45.0113	-169.102	-0.034820	0.781474	-0.426880	-0.428216	-0.053787	19.2268	-0.424782	-300739	1.788484E-7	NaN
677	1.000000	0.792797	7.37168e+06	-43239.1	1005.82	-29779.6	0.000000	0.000000	6.793044	-0.017402	NaN	0.000000	0.001634	0.001723	28.0805	0.135104	0.001980	68.2415	-55.7417	14.2731	0.003997	0.791473	-0.416892	-0.418216	-0.017402	68.2415	-0.416701	-230997	7.533491E-8	NaN
677	1.000000	0.802822	7.37168e+06	-43239.1	1005.82	-29779.6	0.000000	0.000000	6.803066	-0.071895	NaN	0.000000	0.001636	0.001747	28.0802	0.016971	0.002100	8.082272	-98.9939	-165.966	-0.067926	0.801477	-0.406868	-0.408212	-0.071895	8.082272	-0.400196	-134521	5.344552E-7	NaN
677	1.000000	0.812817	7.37168e+06	-43239.1	1005.82	-29779.6	0.000000	0.000000	6.813062	-0.074860	NaN	0.000000	0.001649	0.001739	28.0802	0.107811	0.001972	54.6609	-40.9037	15.3288	-0.046333	0.811469	-0.396872	-0.398220	-0.074860	54.6609	-0.395845	-116601	6.420190E-7	NaN
677	1.000000	0.822825	7.37168e+06	-43239.1	1005.82	-29779.6	0.000000	0.000000	6.823071	-0.049767	NaN	0.000000	0.001621	0.001714	28.0803	0.041406	0.002056	20.1365	-93.5236	-165.075	-0.014842	0.821546	-0.386864	-0.388143	-0.049767	20.1365	-0.385011	-81609.6	6.098182E-7	NaN
677	1.000000	0.832831	7.37168e+06	-43239.1	1005.82	-29779.6	0.000000	0.000000	6.833076	-0.049625	NaN	0.000000	0.001624	0.001774	28.0803	0.047693	0.002001	23.8338	-4.987220	12.5673	-0.055098	0.831461	-0.376859	-0.378228	-0.049625	23.8338	-0.375297	-59202.8	8.382162E-7	NaN
677	1.000000	0.842859	7.37168e+06	-43239.1	1005.82	-29779.6	0.000000	0.000000	6.843103	-0.095872	NaN	0.000000	0.001618	0.001741	28.0801	0.090977	0.001952	46.6119	-128.176	-163.527	-0.018415	0.841473	-0.366831	-0.368217	-0.095872	46.6119	-0.365288	-42482.2	2.256766E-6	NaN
677	1.000000	0.852838	7.37168e+06	-43239.1	1005.82	-29779.6	0.000000	0.000000	6.853080	-0.120518	NaN	0.000000	0.001620	0.001744	28.0802	0.086183	0.002066	41.7227	-121.118	17.3523	-0.084576	0.851472	-0.356852	-0.358217	-0.120518	41.7227	-0.354685	-29849.5	4.037511E-6	NaN
677	1.000000	0.862841	7.37168e+06	-43239.1	1005.82	-29779.6	0.000000	0.000000	6.863086	-0.066471	NaN	0.000000	0.001612	0.001707	28.0805	0.107244	0.002117	50.6636	-52.2873	-165.772	-0.070458	0.861542	-0.346848	-0.348148	-0.066471	50.6636	-0.345864	-22229	2.990263E-6	NaN
677	1.000000	0.872840	7.37168e+06	-43239.1	1005.82	-29779.6	0.000000	0.000000	6.873087	-0.013133	NaN	0.000000	0.001606	0.001683	28.0804	0.107504	0.001932	55.6511	-16.901	17.4285	-0.032895	0.871478	-0.336849	-0.338211	-0.013133	55.6511	-0.336672	-16330.9	8.041986E-7	NaN
677	1.000000	0.882847	7.37168e+06	-43239.1	1005.82	-29779.6	0.000000	0.000000	6.883095	-0.005581	NaN	0.000000	0.001625	0.001732	28.0803	0.120112	0.002075	57.8739	96.5072	-160.988	-0.065536	0.881602	-0.326842	-0.328088	-0.005581	57.8739	-0.326770	-11697.9	4.770886E-7	NaN
677	1.000000	0.892846	7.37168e+06	-43239.1	1005.82	-29779.6	0.000000	0.000000	6.893095	0.039747	NaN	0.000000	0.001628	0.001755	28.0817	0.082696	0.002028	40.7737	-26.6811	14.2033	-0.006665	0.891487	-0.316843	-0.318202	0.039747	40.7737	-0.317574	-8568.69	-4.638681E-6	NaN
677	1.000000	0.902877	7.37168e+06	-43239.1	1005.82	-29779.6	0.000000	0.000000	6.903123	-0.054487	NaN	0.000000	0.001619	0.001712	28.0816	0.067836	0.001971	34.4093	172.179	-166.228	-0.062367	0.901510	-0.306812	-0.308179	-0.054487	34.4093	-0.305625	-5704.58	9.551415E-6	NaN
677	1.000000	0.912836	7.37168e+06	-43239.1	1005.82	-29779.6	0.000000	0.000000	6.913079	-0.132687	NaN	0.000000	0.001596	0.001728	28.0816	0.014295	0.002002	7.139083	175.547	14.7301	-0.082625	0.911466	-0.296853	-0.298224	-0.132687	7.139083	-0.282913	-2611.42	5.081045E-5	NaN
677	1.000000	0.922860	7.37168e+06	-43239.1	1005.82	-29779.6	0.000000	0.000000	6.923107	-0.007856	NaN	0.000000	0.001633	0.001709	28.0814	0.092134	0.001905	48.3709	66.5565	-166.211	0.036117	0.921563	-0.286830	-0.288126	-0.007856	48.3709	-0.286708	-2978	2.638040E-6	NaN
677	1.000000	0.932870	7.37168e+06	-43239.1	1005.82	-29779.6	0.000000	0.000000	6.933114	-0.094818	NaN	0.000000	0.001659	0.001739	28.0817	0.040366	0.001825	22.1134	-5.332179	15.1162	-0.115758	0.931525	-0.276819	-0.278164	-0.094818	22.1134	-0.273603	-1889.04	5.019354E-5	NaN
677	1.000000	0.942899	7.37168e+06	-43239.1	1005.82	-29779.6	0.000000	0.000000	6.943146	-0.018644	NaN	0.000000	0.001618	0.001760	28.0814	0.020618	0.001930	10.6827	127.984	-162.865	0.003959	0.941589	-0.266791	-0.268100	-0.018644	10.6827	-0.265482	-1421.48	1.311605E-5	NaN
677	1.000000	0.952868	7.37168e+06	-43239.1	1005.82	-29779.6	0.000000	0.000000	6.953114	-0.045273	NaN	0.000000	0.001647	0.001705	28.0817	0.077831	0.001969	39.5335	101.582	11.4957	-0.016409	0.951502	-0.256822	-0.258187	-0.045273	39.5335	-0.255963	-1016.09	4.455618E-5	NaN
677	1.000000	0.962880	7.37168e+06	-43239.1	1005.82	-29779.6	0.000000	0.000000	6.963124	-0.082746	NaN	0.000000	0.001624	0.001735	28.0814	0.081386	0.002039	39.9195	-129.242	-168.918	-0.123480	0.961582	-0.246810	-0.248107	-0.082746	39.9195	-0.245255	-694.086	0.000119	NaN
677	1.000000	0.972905	7.37168e+06	-43239.1	1005.82	-29779.6	0.000000	0.000000	6.973151	-0.030737	NaN	0.000000	0.001623	0.001780	28.082	0.091526	0.002058	44.4823	-115.413	16.218	-0.034585	0.971518	-0.236784	-0.238171	-0.030737	44.4823	-0.236266	-502.48	6.117005E-5	NaN
677	1.000000	0.982904	7.37168e+06	-43239.1	1005.82	-29779.6	0.000000	0.000000	6.983150	-0.045889	NaN	0.000000	0.001624	0.001736	28.0816	0.119064	0.002118	56.2184	-67.0596	-163.833	-0.068011	0.981579	-0.226785	-0.228110	-0.045889	56.2184	-0.226173	-348.3	0.000132	NaN
677	1.000000	0.992880	7.37168e+06	-43239.1	1005.82	-29779.6	0.000000	0.000000	6.993126	-0.057666	NaN	0.000000	0.001648	0.001762	28.0819	0.102473	0.001997	51.3077	-107.004	15.8124	-0.059993	0.991539	-0.216809	-0.218150	-0.057666	51.3077	-0.215966	-239.355	0.000241	NaN
677	1.000000	1.002882	7.37168e+06	-43239.1	1005.82	-29779.6	0.000000	0.000000	7.003129	-0.013284	NaN	0.000000	0.001609	0.001752	28.0819	0.100398	0.001936	51.8652	59.4454	-163.322	0.008477	1.001584	-0.206808	-0.208105	-0.013284	51.8652	-0.206616	-168.997	7.860499E-5	NaN
677	1.000000	1.012899	7.37168e+06	-43239.1	1005.82	-29779.6	0.000000	0.000000	7.013144	-0.065484	NaN	0.000000	0.001605	0.001786	28.0818	0.062130	0.001992	31.1933	-53.8408	18.8491	-0.031824	1.011525	-0.196790	-0.198164	-0.065484	31.1933	-0.195216	-109.844	0.000596	NaN
677	1.000000	1.022889	7.37168e+06	-43239.1	1005.82	-29779.6	0.000000	0.000000	7.023136	-0.004369	NaN	0.000000	0.001620	0.001743	28.082	0.046653	0.001979	23.5694	-144.075	-163.585	-0.031401	1.021582	-0.186801	-0.188108	-0.004369	23.5694	-0.186662	-79.0855	5.524445E-5	NaN
677	1.000000	1.032906	7.37168e+06	-43239.1	1005.82	-29779.6	0.000000	0.000000	7.033152	-0.048024	NaN	0.000000	0.001658	0.001725	28.0805	0.060437	0.002018	29.9438	-52.0943	10.2364	-0.090976	1.031513	-0.176783	-0.178177	-0.048024	29.9438	-0.175580	-51.28	0.000937	NaN
677	1.000000	1.042905	7.37168e+06	-43239.1	1005.82	-29779.6	0.000000	0.000000	7.043148	-0.102229	NaN	0.000000	0.001587	0.001702	28.081	0.045493	0.002001	22.7348	-173.497	-167.257	-0.158362	1.041639	-0.166784	-0.168051	-0.102229	22.7348	-0.163412	-31.5042	0.003245	NaN
677	1.000000	1.052909	7.37168e+06	-43239.1	1005.82	-29779.6	0.000000	0.000000	7.053156	-0.036183	NaN	0.000000	0.001607	0.001730	28.0807	0.075992	0.001997	38.0556	167.44	13.7535	-0.035461	1.051506	-0.156780	-0.158183	-0.036183	38.0556	-0.156067	-23.3213	0.001552	NaN
677	1.000000	1.062933	7.37168e+06	-43239.1	1005.82	-29779.6	0.000000	0.000000	7.063179	-0.038040	NaN	0.000000	0.001618	0.001745	28.0805	0.108380	0.002056	52.7114	-92.2565	-165.162	-0.021910	1.061632	-0.146756	-0.148057	-0.038040	52.7114	-0.146215	-15.4386	0.002464	NaN
677	1.000000	1.072962	7.37168e+06	-43239.1	1005.82	-29779.6	0.000000	0.000000	7.073205	-0.127785	NaN	0.000000	0.001590	0.001709	28.0805	0.047970	0.002011	23.8543	20.8082	16.7396	-0.109162	1.071597	-0.136727	-0.138092	-0.127785	23.8543	-0.132709	-8.597778	0.014863	NaN
677	1.000000	1.082943	7.37168e+06	-43239.1	1005.82	-29779.6	0.000000	0.000000	7.083188	-0.066049	NaN	0.000000	0.001604	0.001690	28.0804	0.039021	0.001975	19.755	16.225	-166.935	-0.048654	1.081626	-0.126747	-0.128063	-0.066049	19.755	-0.124239	-5.873715	0.011245	NaN
677	1.000000	1.092933	7.37168e+06	-43239.1	1005.82	-29779.6	0.000000	0.000000	7.093178	-0.081937	NaN	0.000000	0.001586	0.001739	28.0804	0.013099	0.002088	6.274630	6.736954	15.5748	-0.069861	1.091560	-0.116756	-0.118129	-0.081937	6.274630	-0.106962	-2.590328	0.031632	NaN
677	1.000000	1.102955	7.37168e+06	-43239.1	1005.82	-29779.6	0.000000	0.000000	7.103201	-0.038110	NaN	0.000000	0.001618	0.001694	28.0804	0.043653	0.001984	21.9998	-134.366	-163.759	-0.068157	1.101635	-0.106735	-0.108054	-0.038110	21.9998	-0.105435	-2.401968	0.015866	NaN
677	1.000000	1.112967	7.37168e+06	-43239.1	1005.82	-29779.6	0.000000	0.000000	7.113215	0.010925	NaN	0.000000	0.001631	0.001711	28.0806	0.072745	0.002007	36.2529	55.3706	16.6461	0.040837	1.111535	-0.096722	-0.098155	0.010925	36.2529	-0.096948	-1.561598	-0.006996	NaN
677	1.000000	1.122929	7.37168e+06	-43239.1	1005.82	-29779.6	0.000000	0.000000	7.123173	-0.098279	NaN	0.000000	0.001621	0.001677	28.0802	0.047814	0.001934	24.7264	-13.6607	-169.169	-0.070815	1.121654	-0.086760	-0.088035	-0.098279	24.7264	-0.083779	-0.767379	0.128070	NaN
677	1.000000	1.132968	7.37168e+06	-43239.1	1005.82	-29779.6	0.000000	0.000000	7.133213	-0.080417	NaN	0.000000	0.001599	0.001687	28.0804	0.079730	0.001923	41.4574	0.769520	18.3198	-0.014638	1.131568	-0.076721	-0.078121	-0.080417	41.4574	-0.075266	-0.469244	0.171375	NaN
677	1.000000	1.142925	7.37168e+06	-43239.1	1005.82	-29779.6	0.000000	0.000000	7.143168	-0.117191	NaN	0.000000	0.001597	0.001694	28.0803	0.117017	0.001950	60.021	-171.081	-167.061	-0.078546	1.141608	-0.066765	-0.068081	-0.117191	60.021	-0.065300	-0.254038	0.461314	NaN
677	1.000000	1.152967	7.37168e+06	-43239.1	1005.82	-29779.6	0.000000	0.000000	7.153213	-0.034359	NaN	0.000000	0.001622	0.001659	28.0805	0.036307	0.001896	19.152	140.652	14.407	0.003759	1.151554	-0.056723	-0.058136	-0.034359	19.152	-0.055377	-0.132123	0.260052	NaN
677	1.000000	1.162950	7.37168e+06	-43239.1	1005.82	-29779.6	0.000000	0.000000	7.163195	-0.063190	NaN	0.000000	0.001589	0.001709	28.0813	0.075589	0.002090	36.1677	-142.704	-166.782	-0.089322	1.161626	-0.046740	-0.048063	-0.063190	36.1677	-0.045429	-0.066240	0.953959	NaN
677	1.000000	1.172951	7.37168e+06	-43239.1	1005.82	-29779.6	0.000000	0.000000	7.173198	-0.019679	NaN	0.000000	0.001630	0.001727	28.0816	0.107088	0.002009	53.3113	-96.7745	17.5215	-0.022287	1.171548	-0.036738	-0.038141	-0.019679	53.3113	-0.036461	-0.035381	0.556203	NaN
677	1.000000	1.182946	7.37168e+06	-43239.1	1005.82	-29779.6	0.000000	0.000000	7.183188	-0.135817	NaN	0.000000	0.001598	0.001736	28.0817	0.026399	0.001976	13.3571	50.3856	-168.112	-0.075789	1.181703	-0.026743	-0.027986	-0.135817	13.3571	-0.019117	-0.011926	11.3878	NaN
677	1.000000	1.192953	7.37168e+06	-43239.1	1005.82	-29779.6	0.000000	0.000000	7.193198	-0.055854	NaN	0.000000	0.001624	0.001717	28.0815	0.092938	0.001967	47.2426	-113.615	11.9558	-0.033391	1.191543	-0.016736	-0.018146	-0.055854	47.2426	-0.015850	-0.009791	5.704845	NaN
677	1.000000	1.202964	7.37168e+06	-43239.1	1005.82	-29779.6	0.000000	0.000000	7.203210	-0.045040	NaN	0.000000	0.001602	0.001696	28.0816	0.096302	0.002037	47.2663	13.4817	-162.504	-0.135505	1.201673	-0.006725	-0.008016	-0.045040	47.2663	-0.006010	-0.004043	11.1414	NaN
677	2.000000	1.212679	7.37168e+06	-43239.1	1005.82	-29779.6	0.000000	0.000000	7.213291	8.853766	NaN	0.000000	0.001597	0.001707	28.0816	8.876720	0.001625	5461	8.198814	8.727546	6.250015	1.211556	0.002990	0.001866	8.853766	5461	0.001774	0.001373	6448.95	134656
677	2.000000	1.215576	7.37168e+06	-43239.1	1005.82	-29779.6	0.000000	0.000000	7.216469	15.6876	NaN	0.000000	0.001641	0.001707	28.0828	11.9777	0.001465	8173.89	7.381986	-174.758	15.5564	1.215224	0.005887	0.005535	15.6876	8173.89	0.004447	0.003635	4316.21	123873
677	2.000000	1.218000	7.37168e+06	-43239.1	1005.82	-29779.6	0.000000	0.000000	7.219179	22.6698	NaN	0.000000	0.001610	0.001681	28.0818	15.3523	0.001699	9035.43	6.349897	4.590619	20.5243	1.217663	0.008310	0.007973	22.6698	9035.43	0.006429	0.005475	4140.42	111563
677	2.000000	1.220467	7.37168e+06	-43239.1	1005.82	-29779.6	0.000000	0.000000	7.221885	28.4833	NaN	0.000000	0.001608	0.001717	28.0816	18.9222	0.001905	9935.4	6.541659	-176.156	26.3768	1.220223	0.010777	0.010533	28.4833	9935.4	0.008627	0.007695	3701.34	103477
677	2.000000	1.223019	7.37168e+06	-43239.1	1005.82	-29779.6	0.000000	0.000000	7.224794	37.1615	NaN	0.000000	0.001599	0.001708	28.0819	19.9244	0.001662	11986.4	5.245742	4.576410	35.1302	1.222546	0.013330	0.012857	37.1615	11986.4	0.011005	0.010319	3601.14	107804
677	2.000000	1.225540	7.37168e+06	-43239.1	1005.82	-29779.6	0.000000	0.000000	7.227595	43.9667	NaN	0.000000	0.001621	0.001703	28.0819	21.8723	0.001682	13003.3	2.340242	-175.145	44.0715	1.225215	0.015851	0.015525	43.9667	13003.3	0.013315	0.013104	3355.32	103784
677	2.000000	1.228038	7.37168e+06	-43239.1	1005.82	-29779.6	0.000000	0.000000	7.230260	48.0342	NaN	0.000000	0.001640	0.001721	28.0816	24.9535	0.001743	14315.7	6.245976	1.828351	48.741	1.227581	0.018349	0.017891	48.0342	14315.7	0.015832	0.016411	2926.9	102098
677	2.000000	1.230470	7.37168e+06	-43239.1	1005.82	-29779.6	0.000000	0.000000	7.232985	55.1812	NaN	0.000000	0.001653	0.001728	28.0816	27.6262	0.001833	15073.7	5.758865	-179.389	54.1759	1.230198	0.020780	0.020509	55.1812	15073.7	0.018035	0.019548	2822.89	98502.1
677	2.000000	1.232997	7.37168e+06	-43239.1	1005.82	-29779.6	0.000000	0.000000	7.235764	61.3073	NaN	0.000000	0.001588	0.001696	28.0818	28.5624	0.001730	16508.3	2.308514	3.650721	60.2502	1.232647	0.023307	0.022958	61.3073	16508.3	0.020522	0.023369	2623.41	98662.8
677	2.000000	1.235462	7.37168e+06	-43239.1	1005.82	-29779.6	0.000000	0.000000	7.238496	67.804	NaN	0.000000	0.001629	0.001734	28.0804	30.5822	0.001801	16979.9	4.646561	-178.387	66.9271	1.235146	0.025772	0.025456	67.804	16979.9	0.022778	0.027096	2502.34	94244.1
677	2.000000	1.237936	7.37168e+06	-43239.1	1005.82	-29779.6	0.000000	0.000000	7.241243	74.4294	NaN	0.000000	0.001625	0.001727	28.0803	33.0936	0.001948	16984.7	0.997643	5.627981	71.0787	1.237520	0.028247	0.027830	74.4294	16984.7	0.024960	0.030944	2405.32	88215.5
677	2.000000	1.240433	7.37168e+06	-43239.1	1005.82	-29779.6	0.000000	0.000000	7.244046	81.8594	NaN	0.000000	0.001631	0.001712	28.0804	34.8081	0.001719	20250.4	8.136029	175.972	79.7632	1.240126	0.030744	0.030437	81.8594	20250.4	0.027712	0.036136	2265.34	97328.1
677	2.000000	1.242965	7.37168e+06	-43239.1	1005.82	-29779.6	0.000000	0.000000	7.246862	88.7864	NaN	0.000000	0.001626	0.001685	28.0804	35.6194	0.001753	20318.4	1.413284	3.983235	86.9214	1.242672	0.033276	0.032983	88.7864	20318.4	0.029999	0.040741	2179.29	91970.4
677	2.000000	1.245428	7.37168e+06	-43239.1	1005.82	-29779.6	0.000000	0.000000	7.249770	99.6126	NaN	0.000000	0.001612	0.001756	28.0804	37.7223	0.001738	21701.9	4.409001	179.444	98.0764	1.245150	0.035738	0.035461	99.6126	21701.9	0.032296	0.045636	2182.74	92814.1
677	2.000000	1.247944	7.37168e+06	-43239.1	1005.82	-29779.6	0.000000	0.000000	7.252548	105.968	NaN	0.000000	0.001640	0.001728	28.0805	41.6368	0.001917	21723.2	2.217335	2.451171	103.09	1.247512	0.038255	0.037823	105.968	21723.2	0.034597	0.050811	2085.54	88047.9
677	2.000000	1.250427	7.37168e+06	-43239.1	1005.82	-29779.6	0.000000	0.000000	7.255369	114.206	NaN	0.000000	0.001652	0.001703	28.0806	43.8134	0.001842	23788.7	6.063780	177.63	114.74	1.250047	0.040738	0.040358	114.206	23788.7	0.037137	0.056840	2009.26	91162.9
677	2.000000	1.252947	7.37168e+06	-43239.1	1005.82	-29779.6	0.000000	0.000000	7.258443	127.681	NaN	0.000000	0.001639	0.001717	28.0806	44.5013	0.001776	25064.1	6.939752	-3.715323	125.381	1.252540	0.043258	0.042851	127.681	25064.1	0.039438	0.062583	2040.2	91537.1
677	2.000000	1.255424	7.37168e+06	-43239.1	1005.82	-29779.6	0.000000	0.000000	7.261149	133.252	NaN	0.000000	0.001609	0.001732	28.0806	46.8647	0.001786	26236.5	4.026810	178.449	132.199	1.255164	0.045735	0.045474	133.252	26236.5	0.041926	0.069100	1928.39	91188.3
677	2.000000	1.257888	7.37168e+06	-43239.1	1005.82	-29779.6	0.000000	0.000000	7.264184	147.164	NaN	0.000000	0.001621	0.001724	28.0804	49.5921	0.001759	28194.9	5.132981	-3.868576	142.163	1.257538	0.048198	0.047849	147.164	28194.9	0.044284	0.075567	1947.47	93708.3
677	2.000000	1.260387	7.37168e+06	-43239.1	1005.82	-29779.6	0.000000	0.000000	7.267172	159.05	NaN	0.000000	0.001605	0.001745	28.0807	51.9807	0.001823	28511.4	0.218098	-178.667	156.031	1.260097	0.050698	0.050408	159.05	28511.4	0.046514	0.081944	1940.97	90998.4
677	2.000000	1.262857	7.37168e+06	-43239.1	1005.82	-29779.6	0.000000	0.000000	7.269867	164.504	NaN	0.000000	0.001627	0.001726	28.0805	55.4328	0.001849	29975.4	4.121230	-3.160815	158.505	1.262611	0.053168	0.052922	164.504	29975.4	0.049052	0.089506	1837.92	91540.4
677	2.000000	1.265420	7.37168e+06	-43239.1	1005.82	-29779.6	0.000000	0.000000	7.273232	184.037	NaN	0.000000	0.001618	0.001754	28.0804	56.956	0.001910	29818	2.613217	179.043	183.484	1.265035	0.055731	0.055346	184.037	29818	0.051102	0.095850	1920.06	87994.7
677	2.000000	1.267868	7.37168e+06	-43239.1	1005.82	-29779.6	0.000000	0.000000	7.276022	192.352	NaN	0.000000	0.001601	0.001736	28.0803	59.5745	0.001802	33067	2.618381	-2.463616	187.261	1.267437	0.058179	0.057747	192.352	33067	0.053816	0.104573	1839.41	93424.1
677	2.000000	1.270393	7.37168e+06	-43239.1	1005.82	-29779.6	0.000000	0.000000	7.279114	206.155	NaN	0.000000	0.001560	0.001736	28.082	62.3697	0.001856	33600.3	2.932783	177.757	205.894	1.270182	0.060704	0.060492	206.155	33600.3	0.056102	0.112204	1837.33	91645.7
677	2.000000	1.272975	7.37168e+06	-43239.1	1005.82	-29779.6	0.000000	0.000000	7.282278	220.319	NaN	0.000000	0.001594	0.001738	28.0817	64.3713	0.001791	35934.2	4.137395	-3.997191	218.909	1.272548	0.063286	0.062858	220.319	35934.2	0.058687	0.121143	1818.67	94326.3
677	2.000000	1.275316	7.37168e+06	-43239.1	1005.82	-29779.6	0.000000	0.000000	7.284961	228.619	NaN	0.000000	0.001598	0.001712	28.0818	66.9223	0.001918	34895.5	2.973111	176.732	225.193	1.275153	0.065627	0.065464	228.619	34895.5	0.060713	0.128379	1780.82	88980.6
677	2.000000	1.277922	7.37168e+06	-43239.1	1005.82	-29779.6	0.000000	0.000000	7.288296	246.356	NaN	0.000000	0.001601	0.001771	28.0817	69.3733	0.001845	37597.7	5.353850	-6.269955	245.281	1.277567	0.068233	0.067878	246.356	37597.7	0.063319	0.137978	1785.47	92476.2
677	2.000000	1.280407	7.37168e+06	-43239.1	1005.82	-29779.6	0.000000	0.000000	7.291520	264.342	NaN	0.000000	0.001603	0.001730	28.082	71.8662	0.001880	38236.2	5.233515	173.44	263.814	1.280012	0.070718	0.070322	264.342	38236.2	0.065533	0.146393	1805.71	91303.6
677	2.000000	1.282826	7.37168e+06	-43239.1	1005.82	-29779.6	0.000000	0.000000	7.294563	279.535	NaN	0.000000	0.001585	0.001745	28.0817	72.6932	0.001786	40696.2	4.957204	-6.068109	273.01	1.282413	0.073137	0.072724	279.535	40696.2	0.067985	0.155989	1792.02	94141.4
677	2.000000	1.285397	7.37168e+06	-43239.1	1005.82	-29779.6	0.000000	0.000000	7.297772	295.045	NaN	0.000000	0.001552	0.001745	28.0818	74.0928	0.001800	41165	3.083407	175.85	294.986	1.285082	0.075708	0.075392	295.045	41165	0.070332	0.165442	1783.37	92465
677	2.000000	1.287775	7.37168e+06	-43239.1	1005.82	-29779.6	0.000000	0.000000	7.300883	312.877	NaN	0.000000	0.001608	0.001746	28.0819	77.6282	0.001805	43005.6	4.884673	-6.872060	304.741	1.287394	0.078086	0.077705	312.877	43005.6	0.072629	0.174948	1788.4	93938.4
677	2.000000	1.290408	7.37168e+06	-43239.1	1005.82	-29779.6	0.000000	0.000000	7.303937	323.135	NaN	0.000000	0.001623	0.001699	28.0818	80.3818	0.001729	46494.6	3.582205	173.864	322.788	1.290260	0.080718	0.080570	323.135	46494.6	0.075506	0.187204	1726.11	98178.8
677	2.000000	1.292891	7.37168e+06	-43239.1	1005.82	-29779.6	0.000000	0.000000	7.307394	346.836	NaN	0.000000	0.001674	0.001762	28.0817	81.3508	0.001751	46458.2	4.834179	-6.933810	343.22	1.292529	0.083202	0.082839	346.836	46458.2	0.077603	0.196382	1766.13	95782.1
677	2.000000	1.295279	7.37168e+06	-43239.1	1005.82	-29779.6	0.000000	0.000000	7.310635	367.596	NaN	0.000000	0.001667	0.001745	28.0818	82.2255	0.001757	46787.4	2.495594	175.047	360.692	1.295027	0.085589	0.085338	367.596	46787.4	0.079697	0.205755	1786.57	94238.1
677	2.000000	1.297852	7.37168e+06	-43239.1	1005.82	-29779.6	0.000000	0.000000	7.313943	385.473	NaN	0.000000	0.001664	0.001760	28.0821	86.1263	0.001753	49140.2	9.617642	-12.4839	379.614	1.297420	0.088163	0.087731	385.473	49140.2	0.082279	0.217594	1771.52	96247
677	2.000000	1.300499	7.37168e+06	-43239.1	1005.82	-29779.6	0.000000	0.000000	7.317226	400.938	NaN	0.000000	0.001693	0.001806	28.0817	90.0293	0.001741	51696.4	10.5826	167.306	405.21	1.299884	0.090810	0.090195	400.938	51696.4	0.084993	0.230370	1740.41	98405.9
677	2.000000	1.302842	7.37168e+06	-43239.1	1005.82	-29779.6	0.000000	0.000000	7.320347	419.86	NaN	0.000000	0.001681	0.001765	28.081	91.7457	0.001900	48285.9	5.903837	-8.563083	415.222	1.302545	0.093153	0.092855	419.86	48285.9	0.086631	0.238244	1762.31	90382.2
677	2.000000	1.305370	7.37168e+06	-43239.1	1005.82	-29779.6	0.000000	0.000000	7.323621	438.002	NaN	0.000000	0.001702	0.001780	28.0804	93.2832	0.001737	53714.8	4.588240	172.007	436.712	1.305118	0.095681	0.095429	438.002	53714.8	0.089565	0.252660	1733.57	97633.6
677	2.000000	1.307881	7.37168e+06	-43239.1	1005.82	-29779.6	0.000000	0.000000	7.326742	452.855	NaN	0.000000	0.001674	0.001791	28.0809	95.9758	0.001885	50915.7	1.059602	-3.898541	449.953	1.307601	0.098192	0.097911	452.855	50915.7	0.091521	0.262488	1725.24	90796.7
677	2.000000	1.310394	7.37168e+06	-43239.1	1005.82	-29779.6	0.000000	0.000000	7.330272	477.616	NaN	0.000000	0.001686	0.001814	28.0805	98.8411	0.001833	53929.6	2.152632	174.819	479.358	1.309997	0.100705	0.100308	477.616	53929.6	0.094062	0.275521	1733.5	93869.2
677	2.000000	1.311330	7.37168e+06	-43239.1	1005.82	-29779.6	0.000000	0.000000	7.331635	487.993	NaN	0.000000	0.001705	0.001811	28.0808	98.041	0.001722	56945.2	4.370861	172.69	484.606	1.310947	0.101641	0.101257	487.993	56945.2	0.095214	0.281522	1733.41	98056