File: remote_trans/data/nanoindenter/0828-1/data/Data_2025-08-06,11h17m57s/2025-07-22_16-23-58_1_724.txt
2025-07-22, 16:23:58, 1
Index	Phase	Displacement	Time	Pos X	Pos Y	Pos Z	Rot A	Rot B	Piezo Z	Force A	Force B	Gripper	Voltage A	Voltage B	Temperature	Amplitude force	Amplitude pos	Stiffness	Phase shift	Phase excitation	Force A raw	Displacement raw	HMax	HMax raw	Real Force	Real Stiffness	Contact Depth	Area	Hardness	Reduced Mod.
[#]	[#]	[um]	[s]	[um]	[um]	[um]	[m°]	[m°]	[um]	[uN]	[uN]	[V]	[V]	[V]	[°C]	[uN]	[um]	[N/m]	[°]	[°]	[uN]	[um]	[um]	[um]	[uN]	[N/m]	[um]	[um^2]	[MPa]	[MPa]
724	1.000000	0.002566	7.37214e+06	-40889.1	1005.82	-29788.2	0.000000	0.000000	6.002779	-0.019545	NaN	0.000000	0.001600	0.001700	28.0824	0.087647	0.001087	80.639	-70.0351	-163.171	0.001513	0.001319	-1.168645	-1.169892	-0.019545	80.639	-1.168463	-4.152300E+15	4.706936E-18	NaN
724	1.000000	0.012637	7.37214e+06	-40889.1	1005.82	-29788.2	0.000000	0.000000	6.012851	0.010630	NaN	0.000000	0.001598	0.001731	28.0822	0.115668	0.001301	88.9296	-64.3374	14.0066	-0.020475	0.011242	-1.158574	-1.159969	0.010630	88.9296	-1.158664	-3.068715E+15	-3.463833E-18	NaN
724	1.000000	0.022557	7.37214e+06	-40889.1	1005.82	-29788.2	0.000000	0.000000	6.022770	-0.027650	NaN	0.000000	0.001613	0.001764	28.0825	0.038131	0.001728	22.0622	-146.136	-167.116	-0.029509	0.021252	-1.148653	-1.149959	-0.027650	22.0622	-1.147713	-2.188588E+15	1.263371E-17	NaN
724	1.000000	0.032528	7.37214e+06	-40889.1	1005.82	-29788.2	0.000000	0.000000	6.032739	-0.069368	NaN	0.000000	0.001616	0.001696	28.0825	0.051796	0.001946	26.6122	-46.9569	11.2769	-0.119560	0.031167	-1.138683	-1.140043	-0.069368	26.6122	-1.136728	-1.559032E+15	4.449414E-17	NaN
724	1.000000	0.042528	7.37214e+06	-40889.1	1005.82	-29788.2	0.000000	0.000000	6.042743	0.000557	NaN	0.000000	0.001658	0.001712	28.0824	0.029469	0.001995	14.7728	-32.2931	-165.611	-0.002829	0.041216	-1.128682	-1.129995	0.000557	14.7728	-1.128711	-1.217107E+15	-4.576675E-19	NaN
724	1.000000	0.052531	7.37214e+06	-40889.1	1005.82	-29788.2	0.000000	0.000000	6.052746	0.031827	NaN	0.000000	0.001687	0.001713	28.0828	0.067971	0.002036	33.3923	113.136	11.0765	0.121248	0.051235	-1.118680	-1.119975	0.031827	33.3923	-1.119395	-9.127500E+14	-3.486893E-17	NaN
724	1.000000	0.062526	7.37214e+06	-40889.1	1005.82	-29788.2	0.000000	0.000000	6.062739	-0.017489	NaN	0.000000	0.001633	0.001725	28.0815	0.049635	0.001972	25.1651	27.7391	-168.575	0.004085	0.061209	-1.108685	-1.110001	-0.017489	25.1651	-1.108164	-6.451275E+14	2.710865E-17	NaN
724	1.000000	0.072553	7.37214e+06	-40889.1	1005.82	-29788.2	0.000000	0.000000	6.072769	0.024819	NaN	0.000000	0.001602	0.001710	28.0812	0.052354	0.002120	24.697	-96.9253	16.9473	0.043495	0.071163	-1.098657	-1.100048	0.024819	24.697	-1.099411	-4.922217E+14	-5.042274E-17	NaN
724	1.000000	0.082529	7.37214e+06	-40889.1	1005.82	-29788.2	0.000000	0.000000	6.082740	-0.087946	NaN	0.000000	0.001621	0.001719	28.081	0.051933	0.001997	26.0086	45.8342	-167.756	-0.123914	0.081262	-1.088682	-1.089949	-0.087946	26.0086	-1.086146	-3.266290E+14	2.692526E-16	NaN
724	1.000000	0.092566	7.37214e+06	-40889.1	1005.82	-29788.2	0.000000	0.000000	6.092782	0.044086	NaN	0.000000	0.001608	0.001705	28.0811	0.117684	0.001945	60.4958	136.533	19.1995	-0.027701	0.091186	-1.078645	-1.080024	0.044086	60.4958	-1.079191	-2.634236E+14	-1.673591E-16	NaN
724	1.000000	0.102548	7.37214e+06	-40889.1	1005.82	-29788.2	0.000000	0.000000	6.102763	-0.000254	NaN	0.000000	0.001606	0.001735	28.081	0.066231	0.001999	33.1246	136.831	-167.784	-0.031206	0.101294	-1.068662	-1.069917	-0.000254	33.1246	-1.068656	-1.901684E+14	1.335935E-18	NaN
724	1.000000	0.112549	7.37214e+06	-40889.1	1005.82	-29788.2	0.000000	0.000000	6.112761	-0.042146	NaN	0.000000	0.001546	0.001741	28.0811	0.073202	0.001943	37.6655	176.924	10.3141	-0.069721	0.111250	-1.058662	-1.059961	-0.042146	37.6655	-1.057823	-1.360068E+14	3.098850E-16	NaN
724	1.000000	0.122555	7.37214e+06	-40889.1	1005.82	-29788.2	0.000000	0.000000	6.122770	0.015584	NaN	0.000000	0.001565	0.001692	28.0809	0.024640	0.001873	13.1543	-3.172453	-167.451	-0.017080	0.121283	-1.048656	-1.049927	0.015584	13.1543	-1.049544	-1.052660E+14	-1.480462E-16	NaN
724	1.000000	0.132586	7.37214e+06	-40889.1	1005.82	-29788.2	0.000000	0.000000	6.132800	-0.026882	NaN	0.000000	0.001586	0.001724	28.0815	0.068865	0.002039	33.7788	-176.592	12.0174	-0.062279	0.131163	-1.038624	-1.040047	-0.026882	33.7788	-1.038027	-7.369569E+13	3.647715E-16	NaN
724	1.000000	0.142586	7.37214e+06	-40889.1	1005.82	-29788.2	0.000000	0.000000	6.142800	0.014583	NaN	0.000000	0.001533	0.001710	28.0806	0.028739	0.002152	13.3556	-116.751	-167.182	0.037682	0.141256	-1.028625	-1.029954	0.014583	13.3556	-1.029444	-5.649399E+13	-2.581272E-16	NaN
724	1.000000	0.152592	7.37214e+06	-40889.1	1005.82	-29788.2	0.000000	0.000000	6.152808	0.025383	NaN	0.000000	0.001627	0.001737	28.0811	0.008366	0.002081	4.020442	73.0447	14.6968	0.069186	0.151198	-1.018618	-1.020013	0.025383	4.020442	-1.023353	-4.678102E+13	-5.425894E-16	NaN
724	1.000000	0.162579	7.37214e+06	-40889.1	1005.82	-29788.2	0.000000	0.000000	6.162795	0.027258	NaN	0.000000	0.001632	0.001723	28.0808	0.041372	0.001989	20.7989	-15.9782	-166.695	0.012330	0.161215	-1.008631	-1.009996	0.027258	20.7989	-1.009614	-3.056260E+13	-8.918589E-16	NaN
724	1.000000	0.172600	7.37214e+06	-40889.1	1005.82	-29788.2	0.000000	0.000000	6.172816	0.028185	NaN	0.000000	0.001628	0.001703	28.0815	0.053043	0.001966	26.9743	44.818	12.0691	-0.012505	0.171230	-0.998610	-0.999980	0.028185	26.9743	-0.999394	-2.226434E+13	-1.265913E-15	NaN
724	1.000000	0.182608	7.37214e+06	-40889.1	1005.82	-29788.2	0.000000	0.000000	6.182823	0.026960	NaN	0.000000	0.001558	0.001687	28.0807	0.114019	0.002004	56.8919	-22.967	-166.058	-0.051504	0.181302	-0.988603	-0.989909	0.026960	56.8919	-0.988958	-1.610949E+13	-1.673567E-15	NaN
724	1.000000	0.192613	7.37214e+06	-40889.1	1005.82	-29788.2	0.000000	0.000000	6.192828	0.008462	NaN	0.000000	0.001558	0.001685	28.081	0.068753	0.002001	34.3513	-99.9142	12.7076	0.017752	0.191241	-0.978598	-0.979970	0.008462	34.3513	-0.978783	-1.174919E+13	-7.201915E-16	NaN
724	1.000000	0.202636	7.37214e+06	-40889.1	1005.82	-29788.2	0.000000	0.000000	6.202851	0.030443	NaN	0.000000	0.001594	0.001684	28.0824	0.044439	0.001974	22.5086	-132.735	-165.712	0.037754	0.201313	-0.968575	-0.969898	0.030443	22.5086	-0.969589	-8.833386E+12	-3.446320E-15	NaN
724	1.000000	0.212613	7.37214e+06	-40889.1	1005.82	-29788.2	0.000000	0.000000	6.212827	-0.018566	NaN	0.000000	0.001561	0.001697	28.0822	0.067212	0.002086	32.2131	-77.1891	10.3666	-0.029077	0.211183	-0.958597	-0.960028	-0.018566	32.2131	-0.958165	-6.196255E+12	2.996308E-15	NaN
724	1.000000	0.222591	7.37214e+06	-40889.1	1005.82	-29788.2	0.000000	0.000000	6.222807	0.030359	NaN	0.000000	0.001556	0.001690	28.082	0.031848	0.001969	16.1781	-146.567	-167.15	-0.010954	0.221345	-0.948620	-0.949866	0.030359	16.1781	-0.950027	-4.812752E+12	-6.308032E-15	NaN
724	1.000000	0.232606	7.37214e+06	-40889.1	1005.82	-29788.2	0.000000	0.000000	6.232821	0.019523	NaN	0.000000	0.001590	0.001713	28.0823	0.095400	0.002037	46.8412	-84.443	15.6474	0.036223	0.231198	-0.938605	-0.940013	0.019523	46.8412	-0.938917	-3.408226E+12	-5.728098E-15	NaN
724	1.000000	0.242642	7.37214e+06	-40889.1	1005.82	-29788.2	0.000000	0.000000	6.242856	0.005959	NaN	0.000000	0.001580	0.001670	28.0824	0.041549	0.001860	22.3358	101.837	-168.105	0.016642	0.241291	-0.928569	-0.929920	0.005959	22.3358	-0.928769	-2.486475E+12	-2.396437E-15	NaN
724	1.000000	0.252606	7.37214e+06	-40889.1	1005.82	-29788.2	0.000000	0.000000	6.252822	0.031589	NaN	0.000000	0.001573	0.001674	28.0823	0.081850	0.002068	39.5853	32.3788	13.3968	-0.027402	0.251256	-0.918605	-0.919955	0.031589	39.5853	-0.919203	-1.846915E+12	-1.710381E-14	NaN
724	1.000000	0.262606	7.37214e+06	-40889.1	1005.82	-29788.2	0.000000	0.000000	6.262818	-0.056683	NaN	0.000000	0.001552	0.001718	28.0823	0.036921	0.002044	18.0657	-169.681	-164.901	-0.043853	0.261307	-0.908605	-0.909904	-0.056683	18.0657	-0.906252	-1.234618E+12	4.591170E-14	NaN
724	1.000000	0.272633	7.37214e+06	-40889.1	1005.82	-29788.2	0.000000	0.000000	6.272846	-0.024646	NaN	0.000000	0.001597	0.001724	28.0825	0.072579	0.001974	36.7624	-164.655	18.7508	-0.014126	0.271222	-0.898578	-0.899988	-0.024646	36.7624	-0.898075	-9.573075E+11	2.574465E-14	NaN
724	1.000000	0.282650	7.37214e+06	-40889.1	1005.82	-29788.2	0.000000	0.000000	6.282865	0.018681	NaN	0.000000	0.001593	0.001692	28.082	0.049753	0.001906	26.1083	-171.455	-164.377	-0.015367	0.281334	-0.888561	-0.889877	0.018681	26.1083	-0.889098	-7.239656E+11	-2.580347E-14	NaN
724	1.000000	0.292629	7.37214e+06	-40889.1	1005.82	-29788.2	0.000000	0.000000	6.292843	-0.020814	NaN	0.000000	0.001633	0.001679	28.0821	0.034730	0.002091	16.6092	122.224	13.8848	-0.103726	0.291301	-0.878581	-0.879909	-0.020814	16.6092	-0.877642	-5.067707E+11	4.107106E-14	NaN
724	1.000000	0.302664	7.37214e+06	-40889.1	1005.82	-29788.2	0.000000	0.000000	6.302875	-0.098849	NaN	0.000000	0.001624	0.001678	28.082	0.055041	0.002017	27.2905	-170.855	-167.019	-0.073629	0.301310	-0.868546	-0.869900	-0.098849	27.2905	-0.865830	-3.507665E+11	2.818085E-13	NaN
724	1.000000	0.312624	7.37214e+06	-40889.1	1005.82	-29788.2	0.000000	0.000000	6.312835	-0.083004	NaN	0.000000	0.001646	0.001732	28.0821	0.061603	0.001960	31.4341	168.066	14.204	-0.082470	0.311262	-0.858587	-0.859949	-0.083004	31.4341	-0.856607	-2.631398E+11	3.154386E-13	NaN
724	1.000000	0.322669	7.37214e+06	-40889.1	1005.82	-29788.2	0.000000	0.000000	6.322883	0.007697	NaN	0.000000	0.001567	0.001719	28.0822	0.057432	0.002081	27.5982	74.2295	-165.913	0.037248	0.321305	-0.848542	-0.849906	0.007697	27.5982	-0.848751	-2.059806E+11	-3.736684E-14	NaN
724	1.000000	0.332641	7.37214e+06	-40889.1	1005.82	-29788.2	0.000000	0.000000	6.332854	-0.031975	NaN	0.000000	0.001575	0.001721	28.082	0.127283	0.002105	60.4747	63.0326	14.139	-0.030062	0.331268	-0.838570	-0.839942	-0.031975	60.4747	-0.838173	-1.480967E+11	2.159044E-13	NaN
724	1.000000	0.342663	7.37214e+06	-40889.1	1005.82	-29788.2	0.000000	0.000000	6.342877	-0.012366	NaN	0.000000	0.001543	0.001694	28.0819	0.025131	0.001947	12.909	-112.904	-166.108	0.014013	0.341357	-0.828547	-0.829854	-0.012366	12.909	-0.827829	-1.072392E+11	1.153114E-13	NaN
724	1.000000	0.352658	7.37214e+06	-40889.1	1005.82	-29788.2	0.000000	0.000000	6.352872	-0.025472	NaN	0.000000	0.001595	0.001693	28.0812	0.072518	0.002063	35.1524	-3.210409	10.8236	-0.018742	0.351327	-0.818552	-0.819884	-0.025472	35.1524	-0.818009	-7.892407E+10	3.227373E-13	NaN
724	1.000000	0.362675	7.37214e+06	-40889.1	1005.82	-29788.2	0.000000	0.000000	6.362890	0.009901	NaN	0.000000	0.001661	0.001687	28.081	0.057128	0.001946	29.3552	1.354695	-165.303	0.047913	0.361354	-0.808536	-0.809856	0.009901	29.3552	-0.808789	-5.917449E+10	-1.673162E-13	NaN
724	1.000000	0.372653	7.37214e+06	-40889.1	1005.82	-29788.2	0.000000	0.000000	6.372865	-0.049890	NaN	0.000000	0.001658	0.001721	28.081	0.032539	0.001862	17.4768	-4.620102	14.0712	-0.038039	0.371326	-0.798558	-0.799885	-0.049890	17.4768	-0.796417	-4.019971E+10	1.241046E-12	NaN
724	1.000000	0.382663	7.37214e+06	-40889.1	1005.82	-29788.2	0.000000	0.000000	6.382874	-0.067138	NaN	0.000000	0.001663	0.001720	28.0811	0.031103	0.001975	15.7448	-179.365	-166.576	-0.112594	0.381363	-0.788548	-0.789848	-0.067138	15.7448	-0.785350	-2.843915E+10	2.360773E-12	NaN
724	1.000000	0.392674	7.37214e+06	-40889.1	1005.82	-29788.2	0.000000	0.000000	6.392888	0.007128	NaN	0.000000	0.001606	0.001723	28.0812	0.092227	0.001978	46.6372	30.9401	14.3386	-0.072880	0.391328	-0.778537	-0.779883	0.007128	46.6372	-0.778652	-2.306254E+10	-3.090814E-13	NaN
724	1.000000	0.402673	7.37214e+06	-40889.1	1005.82	-29788.2	0.000000	0.000000	6.402886	-0.041317	NaN	0.000000	0.001575	0.001665	28.0811	0.051081	0.002054	24.8714	-109.767	-165.517	-0.006470	0.401337	-0.768537	-0.769874	-0.041317	24.8714	-0.767291	-1.616122E+10	2.556556E-12	NaN
724	1.000000	0.412684	7.37214e+06	-40889.1	1005.82	-29788.2	0.000000	0.000000	6.412897	-0.014718	NaN	0.000000	0.001594	0.001681	28.0809	0.097369	0.002001	48.6522	-100.586	14.4179	0.003618	0.411320	-0.758527	-0.759891	-0.014718	48.6522	-0.758300	-1.219486E+10	1.206905E-12	NaN
724	1.000000	0.422702	7.37214e+06	-40889.1	1005.82	-29788.2	0.000000	0.000000	6.422916	3.682125E-5	NaN	0.000000	0.001594	0.001718	28.0812	0.068385	0.002004	34.1256	-169.951	-165.513	0.022206	0.421406	-0.748509	-0.749804	3.682125E-5	34.1256	-0.748510	-8.972912E+9	-4.103601E-15	NaN
724	1.000000	0.432684	7.37214e+06	-40889.1	1005.82	-29788.2	0.000000	0.000000	6.432900	0.025742	NaN	0.000000	0.001578	0.001762	28.0814	0.072520	0.002136	33.9565	-168.041	14.7086	-0.013944	0.431298	-0.738526	-0.739913	0.025742	33.9565	-0.739095	-6.679233E+9	-3.853976E-12	NaN
724	1.000000	0.442698	7.37214e+06	-40889.1	1005.82	-29788.2	0.000000	0.000000	6.442914	0.037464	NaN	0.000000	0.001608	0.001731	28.0811	0.056586	0.001939	29.1759	13.8443	-163.413	-0.012246	0.441367	-0.728512	-0.729843	0.037464	29.1759	-0.729475	-4.939210E+9	-7.585022E-12	NaN
724	1.000000	0.452724	7.37214e+06	-40889.1	1005.82	-29788.2	0.000000	0.000000	6.452936	-0.057308	NaN	0.000000	0.001609	0.001700	28.0809	0.098810	0.001955	50.5292	56.8837	12.9296	-0.066635	0.451363	-0.718487	-0.719848	-0.057308	50.5292	-0.717636	-3.405925E+9	1.682588E-11	NaN
724	1.000000	0.462708	7.37214e+06	-40889.1	1005.82	-29788.2	0.000000	0.000000	6.462924	0.042975	NaN	0.000000	0.001620	0.001736	28.0814	0.045428	0.002045	22.2161	1.667662	-165.495	-0.016636	0.461392	-0.708503	-0.709819	0.042975	22.2161	-0.709954	-2.675566E+9	-1.606188E-11	NaN
724	1.000000	0.472731	7.37214e+06	-40889.1	1005.82	-29788.2	0.000000	0.000000	6.472947	0.023532	NaN	0.000000	0.001624	0.001714	28.0822	0.059796	0.001852	32.2832	-138.547	17.5085	0.032460	0.471372	-0.698479	-0.699839	0.023532	32.2832	-0.699026	-1.897707E+9	-1.240034E-11	NaN
724	1.000000	0.482697	7.37214e+06	-40889.1	1005.82	-29788.2	0.000000	0.000000	6.482910	-0.042306	NaN	0.000000	0.001645	0.001709	28.0822	0.010458	0.001908	5.481836	-163.511	-165.545	-0.077147	0.481409	-0.688514	-0.689801	-0.042306	5.481836	-0.682725	-1.136253E+9	3.723314E-11	NaN
724	1.000000	0.492723	7.37214e+06	-40889.1	1005.82	-29788.2	0.000000	0.000000	6.492936	-0.042176	NaN	0.000000	0.001608	0.001695	28.0823	0.111538	0.002059	54.1678	-126.917	13.8592	0.021164	0.491368	-0.678488	-0.679843	-0.042176	54.1678	-0.677904	-9.761869E+8	4.320519E-11	NaN
724	1.000000	0.502769	7.37214e+06	-40889.1	1005.82	-29788.2	0.000000	0.000000	6.502984	0.012095	NaN	0.000000	0.001635	0.001738	28.0824	0.016618	0.002019	8.230102	-168.502	-167.049	0.052431	0.501395	-0.668441	-0.669815	0.012095	8.230102	-0.669543	-7.501380E+8	-1.612307E-11	NaN
724	1.000000	0.512711	7.37214e+06	-40889.1	1005.82	-29788.2	0.000000	0.000000	6.512927	0.047789	NaN	0.000000	0.001598	0.001726	28.0821	0.057953	0.002081	27.8535	-8.876802	13.6887	0.072539	0.511334	-0.658500	-0.659877	0.047789	27.8535	-0.659787	-5.515051E+8	-8.665258E-11	NaN
724	1.000000	0.522726	7.37214e+06	-40889.1	1005.82	-29788.2	0.000000	0.000000	6.522940	-0.023566	NaN	0.000000	0.001590	0.001726	28.0822	0.056970	0.001944	29.3087	35.1879	-169.08	0.053882	0.521389	-0.648484	-0.649822	-0.023566	29.3087	-0.647881	-3.787798E+8	6.221657E-11	NaN
724	1.000000	0.532740	7.37214e+06	-40889.1	1005.82	-29788.2	0.000000	0.000000	6.532954	-0.019610	NaN	0.000000	0.001566	0.001723	28.0825	0.097950	0.001973	49.6351	47.5222	9.867598	-0.037395	0.531365	-0.638471	-0.639845	-0.019610	49.6351	-0.638174	-2.787638E+8	7.034752E-11	NaN
724	1.000000	0.542724	7.37214e+06	-40889.1	1005.82	-29788.2	0.000000	0.000000	6.542938	-0.020324	NaN	0.000000	0.001606	0.001712	28.0823	0.071582	0.001934	37.0201	-154.189	-166.746	0.045131	0.541390	-0.628486	-0.629821	-0.020324	37.0201	-0.628075	-2.025732E+8	1.003308E-10	NaN
724	1.000000	0.552778	7.37214e+06	-40889.1	1005.82	-29788.2	0.000000	0.000000	6.552990	-0.068472	NaN	0.000000	0.001625	0.001715	28.0823	0.060253	0.001981	30.4189	-174.558	9.526328	-0.034298	0.551377	-0.618433	-0.619834	-0.068472	30.4189	-0.616744	-1.415393E+8	4.837692E-10	NaN
724	1.000000	0.562753	7.37214e+06	-40889.1	1005.82	-29788.2	0.000000	0.000000	6.562964	-0.076235	NaN	0.000000	0.001647	0.001761	28.0824	0.105838	0.002104	50.3063	-61.1133	-166.857	0.002251	0.561508	-0.608458	-0.609703	-0.076235	50.3063	-0.607321	-1.050148E+8	7.259441E-10	NaN
724	1.000000	0.572750	7.37214e+06	-40889.1	1005.82	-29788.2	0.000000	0.000000	6.572961	-0.082479	NaN	0.000000	0.001636	0.001743	28.0824	0.065535	0.001984	33.0268	112.75	13.7026	-0.124346	0.571446	-0.598460	-0.599764	-0.082479	33.0268	-0.596587	-7.472285E+7	1.103797E-9	NaN
724	1.000000	0.582747	7.37214e+06	-40889.1	1005.82	-29788.2	0.000000	0.000000	6.582962	0.015795	NaN	0.000000	0.001611	0.001773	28.0823	0.027719	0.001964	14.1156	113.179	-167.968	-0.042248	0.581414	-0.588464	-0.589797	0.015795	14.1156	-0.589303	-5.929987E+7	-2.663585E-10	NaN
724	1.000000	0.592774	7.37214e+06	-40889.1	1005.82	-29788.2	0.000000	0.000000	6.592987	-0.033920	NaN	0.000000	0.001596	0.001667	28.0823	0.105037	0.002044	51.3987	160.975	16.9238	0.007332	0.591358	-0.578437	-0.579853	-0.033920	51.3987	-0.577942	-4.133453E+7	8.206114E-10	NaN
724	1.000000	0.602783	7.37214e+06	-40889.1	1005.82	-29788.2	0.000000	0.000000	6.602998	-0.001809	NaN	0.000000	0.001612	0.001694	28.0824	0.080572	0.001950	41.3284	-3.994842	-165.922	0.073869	0.601456	-0.568427	-0.569755	-0.001809	41.3284	-0.568394	-3.051027E+7	5.929046E-11	NaN
724	1.000000	0.612810	7.37214e+06	-40889.1	1005.82	-29788.2	0.000000	0.000000	6.613023	-0.016808	NaN	0.000000	0.001585	0.001707	28.0812	0.069346	0.001918	36.1507	156.168	9.618602	-0.013265	0.611404	-0.558401	-0.559806	-0.016808	36.1507	-0.558052	-2.194971E+7	7.657354E-10	NaN
724	1.000000	0.622775	7.37214e+06	-40889.1	1005.82	-29788.2	0.000000	0.000000	6.622988	-0.031043	NaN	0.000000	0.001601	0.001706	28.0812	0.054518	0.002117	25.7529	-95.6315	-165.272	-0.052571	0.621507	-0.548436	-0.549703	-0.031043	25.7529	-0.547532	-1.569509E+7	1.977887E-9	NaN
724	1.000000	0.632787	7.37214e+06	-40889.1	1005.82	-29788.2	0.000000	0.000000	6.632999	-0.056189	NaN	0.000000	0.001626	0.001693	28.0815	0.008151	0.002033	4.008926	17.5024	14.4297	-0.029203	0.631397	-0.538423	-0.539814	-0.056189	4.008926	-0.527911	-8.38616e+06	6.700216E-9	NaN
724	1.000000	0.642835	7.37214e+06	-40889.1	1005.82	-29788.2	0.000000	0.000000	6.643046	-0.082760	NaN	0.000000	0.001611	0.001690	28.0813	0.067034	0.001893	35.4194	-11.0636	-168.525	-0.110790	0.641507	-0.528376	-0.529704	-0.082760	35.4194	-0.526623	-8.04765e+06	1.028371E-8	NaN
724	1.000000	0.652809	7.37214e+06	-40889.1	1005.82	-29788.2	0.000000	0.000000	6.653020	-0.069035	NaN	0.000000	0.001564	0.001710	28.0813	0.109713	0.001953	56.1626	-104.236	9.592977	0.055174	0.651371	-0.518402	-0.519839	-0.069035	56.1626	-0.517480	-6.00545e+06	1.149540E-8	NaN
724	1.000000	0.662804	7.37214e+06	-40889.1	1005.82	-29788.2	0.000000	0.000000	6.663020	0.035797	NaN	0.000000	0.001667	0.001722	28.0811	0.077848	0.002059	37.8001	74.9304	-170.923	-0.078999	0.661495	-0.508407	-0.509716	0.035797	37.8001	-0.509117	-4.59321e+06	-7.793557E-9	NaN
724	1.000000	0.672790	7.37214e+06	-40889.1	1005.82	-29788.2	0.000000	0.000000	6.673005	0.021097	NaN	0.000000	0.001647	0.001696	28.0812	0.038011	0.002099	18.1049	91.8537	14.0144	0.051847	0.671443	-0.498421	-0.499768	0.021097	18.1049	-0.499295	-3.35101e+06	-6.295729E-9	NaN
724	1.000000	0.682810	7.37214e+06	-40889.1	1005.82	-29788.2	0.000000	0.000000	6.683023	-0.039140	NaN	0.000000	0.001610	0.001673	28.0814	0.028862	0.002017	14.3124	165.113	-169.402	-0.018999	0.681538	-0.488401	-0.489673	-0.039140	14.3124	-0.486350	-2.20986e+06	1.771142E-8	NaN
724	1.000000	0.692810	7.37214e+06	-40889.1	1005.82	-29788.2	0.000000	0.000000	6.693023	-0.033745	NaN	0.000000	0.001681	0.001708	28.0813	0.138867	0.001981	70.1085	73.4016	7.199543	-0.018889	0.691426	-0.478401	-0.479784	-0.033745	70.1085	-0.478040	-1.69077e+06	1.995842E-8	NaN
724	1.000000	0.702796	7.37214e+06	-40889.1	1005.82	-29788.2	0.000000	0.000000	6.703009	-0.044757	NaN	0.000000	0.001641	0.001731	28.0811	0.074039	0.002004	36.9446	-33.1007	-171.594	-0.001382	0.701485	-0.468414	-0.469726	-0.044757	36.9446	-0.467506	-1.20341e+06	3.719173E-8	NaN
724	1.000000	0.712844	7.37214e+06	-40889.1	1005.82	-29788.2	0.000000	0.000000	6.713058	-0.016836	NaN	0.000000	0.001657	0.001698	28.081	0.107739	0.002041	52.7846	-170.933	10.9547	0.007241	0.711488	-0.458367	-0.459722	-0.016836	52.7846	-0.458127	-888582	1.894675E-8	NaN
724	1.000000	0.722823	7.37214e+06	-40889.1	1005.82	-29788.2	0.000000	0.000000	6.723036	-0.020711	NaN	0.000000	0.001629	0.001723	28.0811	0.012530	0.002032	6.167856	68.4952	-163.022	-0.056675	0.721556	-0.448388	-0.449654	-0.020711	6.167856	-0.445869	-597236	3.467830E-8	NaN
724	1.000000	0.732819	7.37214e+06	-40889.1	1005.82	-29788.2	0.000000	0.000000	6.733034	0.018120	NaN	0.000000	0.001662	0.001722	28.081	0.121864	0.002023	60.2468	-61.4538	13.2587	0.018313	0.731429	-0.438392	-0.439782	0.018120	60.2468	-0.438618	-471900	-3.839747E-8	NaN
724	1.000000	0.742823	7.37214e+06	-40889.1	1005.82	-29788.2	0.000000	0.000000	6.743036	-0.037001	NaN	0.000000	0.001628	0.001724	28.0812	0.055023	0.002015	27.3093	-36.6228	-167.069	-0.107914	0.741525	-0.428388	-0.429686	-0.037001	27.3093	-0.427372	-327240	1.130712E-7	NaN
724	1.000000	0.752825	7.37214e+06	-40889.1	1005.82	-29788.2	0.000000	0.000000	6.753038	-0.028151	NaN	0.000000	0.001590	0.001734	28.0823	0.061233	0.002034	30.1053	163.73	13.653	-0.006833	0.751494	-0.418386	-0.419717	-0.028151	30.1053	-0.417684	-238540	1.180153E-7	NaN
724	1.000000	0.762823	7.37214e+06	-40889.1	1005.82	-29788.2	0.000000	0.000000	6.763037	-0.001062	NaN	0.000000	0.001618	0.001712	28.0823	0.104752	0.002009	52.1512	75.0232	-164.567	0.014370	0.761502	-0.408388	-0.409709	-0.001062	52.1512	-0.408372	-175893	6.037112E-9	NaN
724	1.000000	0.772810	7.37214e+06	-40889.1	1005.82	-29788.2	0.000000	0.000000	6.773025	0.017351	NaN	0.000000	0.001662	0.001700	28.0821	0.049842	0.001887	26.4144	-103.432	12.3126	-0.011551	0.771469	-0.398400	-0.399742	0.017351	26.4144	-0.398893	-128885	-1.346260E-7	NaN
724	1.000000	0.782835	7.37214e+06	-40889.1	1005.82	-29788.2	0.000000	0.000000	6.783051	0.042416	NaN	0.000000	0.001598	0.001731	28.082	0.131165	0.001887	69.492	118.993	-162.786	-0.035759	0.781505	-0.388376	-0.389706	0.042416	69.492	-0.388834	-92571.6	-4.581971E-7	NaN
724	1.000000	0.792824	7.37214e+06	-40889.1	1005.82	-29788.2	0.000000	0.000000	6.793037	-0.049577	NaN	0.000000	0.001632	0.001704	28.0822	0.049424	0.002034	24.3033	170.718	9.104296	-0.052488	0.791454	-0.378386	-0.379757	-0.049577	24.3033	-0.376856	-62337.3	7.953005E-7	NaN
724	1.000000	0.802853	7.37214e+06	-40889.1	1005.82	-29788.2	0.000000	0.000000	6.803063	-0.083769	NaN	0.000000	0.001617	0.001709	28.0823	0.056268	0.001939	29.0179	85.1824	-164.735	-0.021509	0.801537	-0.368358	-0.369674	-0.083769	29.0179	-0.366193	-43778.7	1.913456E-6	NaN
724	1.000000	0.812848	7.37214e+06	-40889.1	1005.82	-29788.2	0.000000	0.000000	6.813065	0.066905	NaN	0.000000	0.001608	0.001724	28.0823	0.146244	0.001977	73.9541	-42.766	12.7647	0.087553	0.811457	-0.358363	-0.359754	0.066905	73.9541	-0.359041	-34513	-1.938545E-6	NaN
724	1.000000	0.822883	7.37214e+06	-40889.1	1005.82	-29788.2	0.000000	0.000000	6.823096	-0.022519	NaN	0.000000	0.001590	0.001663	28.0822	0.082685	0.001969	41.9935	-128.364	-167.52	-0.067624	0.821507	-0.348328	-0.349703	-0.022519	41.9935	-0.347926	-23816.9	9.455239E-7	NaN
724	1.000000	0.832868	7.37214e+06	-40889.1	1005.82	-29788.2	0.000000	0.000000	6.833081	-0.038947	NaN	0.000000	0.001623	0.001719	28.0827	0.073812	0.002015	36.6338	26.0498	17.0184	-0.026034	0.831523	-0.338342	-0.339687	-0.038947	36.6338	-0.337545	-16817.1	2.315907E-6	NaN
724	1.000000	0.842870	7.37214e+06	-40889.1	1005.82	-29788.2	0.000000	0.000000	6.843080	-0.100325	NaN	0.000000	0.001654	0.001688	28.0823	0.005795	0.001891	3.064993	-1.945842	-163.935	-0.113019	0.841526	-0.328341	-0.329685	-0.100325	3.064993	-0.303791	-5358.1	1.872405E-5	NaN
724	1.000000	0.852865	7.37214e+06	-40889.1	1005.82	-29788.2	0.000000	0.000000	6.853079	0.003787	NaN	0.000000	0.001603	0.001702	28.0822	0.080563	0.001934	41.6617	92.244	12.3931	-0.029625	0.851491	-0.318346	-0.319719	0.003787	41.6617	-0.318414	-8816.29	-4.295207E-7	NaN
724	1.000000	0.862886	7.37214e+06	-40889.1	1005.82	-29788.2	0.000000	0.000000	6.863103	0.049118	NaN	0.000000	0.001583	0.001674	28.0821	0.054994	0.002013	27.3157	-63.2117	-167.088	0.139622	0.861577	-0.308324	-0.309634	0.049118	27.3157	-0.309673	-6549.57	-7.499409E-6	NaN
724	1.000000	0.872898	7.37214e+06	-40889.1	1005.82	-29788.2	0.000000	0.000000	6.873110	-0.032827	NaN	0.000000	0.001615	0.001713	28.0824	0.088482	0.001869	47.341	-50.9363	12.8652	0.063087	0.871564	-0.298313	-0.299646	-0.032827	47.341	-0.297793	-4362.75	7.524488E-6	NaN
724	1.000000	0.882892	7.37214e+06	-40889.1	1005.82	-29788.2	0.000000	0.000000	6.883107	0.013299	NaN	0.000000	0.001601	0.001667	28.0809	0.019644	0.001936	10.1489	-171.419	-165.095	0.083786	0.881609	-0.288318	-0.289601	0.013299	10.1489	-0.289301	-3257.08	-4.083179E-6	NaN
724	1.000000	0.892884	7.37214e+06	-40889.1	1005.82	-29788.2	0.000000	0.000000	6.893099	0.022467	NaN	0.000000	0.001581	0.001691	28.081	0.092214	0.002019	45.6675	-109.174	15.1698	-0.048069	0.891572	-0.278326	-0.279638	0.022467	45.6675	-0.278695	-2255.69	-9.960117E-6	NaN
724	1.000000	0.902885	7.37214e+06	-40889.1	1005.82	-29788.2	0.000000	0.000000	6.903099	-0.009855	NaN	0.000000	0.001572	0.001697	28.0812	0.123179	0.002089	58.9669	134.295	-166.686	-0.053082	0.901552	-0.268325	-0.269659	-0.009855	58.9669	-0.268200	-1563.75	6.302110E-6	NaN
724	1.000000	0.912902	7.37214e+06	-40889.1	1005.82	-29788.2	0.000000	0.000000	6.913116	-0.027415	NaN	0.000000	0.001553	0.001703	28.0811	0.102939	0.001934	53.2207	-58.854	14.9885	-0.083023	0.911527	-0.258308	-0.259683	-0.027415	53.2207	-0.257922	-1089.03	2.517393E-5	NaN
724	1.000000	0.922872	7.37214e+06	-40889.1	1005.82	-29788.2	0.000000	0.000000	6.923087	0.005958	NaN	0.000000	0.001569	0.001679	28.0811	0.063571	0.001970	32.2753	95.5234	-167.383	0.030666	0.921551	-0.248339	-0.249660	0.005958	32.2753	-0.248477	-778.749	-7.650528E-6	NaN
724	1.000000	0.932914	7.37214e+06	-40889.1	1005.82	-29788.2	0.000000	0.000000	6.933130	0.040372	NaN	0.000000	0.001596	0.001716	28.0809	0.112184	0.002051	54.7023	-103.359	13.1698	0.029047	0.931497	-0.238297	-0.239713	0.040372	54.7023	-0.238850	-551.552	-7.319779E-5	NaN
724	1.000000	0.942927	7.37214e+06	-40889.1	1005.82	-29788.2	0.000000	0.000000	6.943142	0.005317	NaN	0.000000	0.001596	0.001687	28.0812	0.042546	0.002001	21.2579	-160.661	-165.238	0.005201	0.941586	-0.228283	-0.229625	0.005317	21.2579	-0.228471	-378.748	-1.403735E-5	NaN
724	1.000000	0.952929	7.37214e+06	-40889.1	1005.82	-29788.2	0.000000	0.000000	6.953142	-0.041471	NaN	0.000000	0.001580	0.001718	28.0809	0.086022	0.002000	43.0175	11.9515	13.7694	-0.047772	0.951585	-0.218281	-0.219626	-0.041471	43.0175	-0.217558	-253.861	0.000163	NaN
724	1.000000	0.962928	7.37214e+06	-40889.1	1005.82	-29788.2	0.000000	0.000000	6.963144	0.038690	NaN	0.000000	0.001583	0.001713	28.0808	0.073827	0.002053	35.9527	123.039	-166.414	-0.029697	0.961588	-0.208283	-0.209623	0.038690	35.9527	-0.209090	-185.385	-0.000209	NaN
724	1.000000	0.972911	7.37214e+06	-40889.1	1005.82	-29788.2	0.000000	0.000000	6.973125	-0.020562	NaN	0.000000	0.001574	0.001694	28.0809	0.048615	0.001823	26.664	-171.911	13.3698	-0.071268	0.971593	-0.198299	-0.199618	-0.020562	26.664	-0.197721	-120.83	0.000170	NaN
724	1.000000	0.982928	7.37214e+06	-40889.1	1005.82	-29788.2	0.000000	0.000000	6.983142	-0.021938	NaN	0.000000	0.001611	0.001662	28.0811	0.023050	0.002005	11.4952	134.152	-165.571	-0.005094	0.981616	-0.188282	-0.189595	-0.021938	11.4952	-0.186851	-79.6669	0.000275	NaN
724	1.000000	0.992930	7.37214e+06	-40889.1	1005.82	-29788.2	0.000000	0.000000	6.993143	-0.033786	NaN	0.000000	0.001547	0.001703	28.0809	0.069815	0.001830	38.144	36.1113	13.4068	-0.000755	0.991527	-0.178281	-0.179684	-0.033786	38.144	-0.177617	-55.568	0.000608	NaN
724	1.000000	1.002960	7.37214e+06	-40889.1	1005.82	-29788.2	0.000000	0.000000	7.003171	-0.071750	NaN	0.000000	0.001600	0.001679	28.0809	0.069138	0.002080	33.2459	41.4583	-168.02	-0.035787	1.001612	-0.168251	-0.169599	-0.071750	33.2459	-0.166633	-35.8856	0.001999	NaN
724	1.000000	1.012929	7.37214e+06	-40889.1	1005.82	-29788.2	0.000000	0.000000	7.013141	-0.049043	NaN	0.000000	0.001598	0.001700	28.0808	0.157522	0.002154	73.1423	-164.341	11.2095	-0.076507	1.011546	-0.158282	-0.159664	-0.049043	73.1423	-0.157779	-25.0272	0.001960	NaN
724	1.000000	1.022942	7.37214e+06	-40889.1	1005.82	-29788.2	0.000000	0.000000	7.023156	-0.006249	NaN	0.000000	0.001570	0.001654	28.082	0.040113	0.002163	18.5411	51.5273	-167.39	0.049609	1.021631	-0.148269	-0.149580	-0.006249	18.5411	-0.148016	-16.6618	0.000375	NaN
724	1.000000	1.032920	7.37214e+06	-40889.1	1005.82	-29788.2	0.000000	0.000000	7.033132	-0.066682	NaN	0.000000	0.001545	0.001683	28.0823	0.056383	0.002048	27.5336	102.28	12.5896	-0.091169	1.031533	-0.138290	-0.139678	-0.066682	27.5336	-0.136474	-10.1475	0.006571	NaN
724	1.000000	1.042946	7.37214e+06	-40889.1	1005.82	-29788.2	0.000000	0.000000	7.043159	-0.044870	NaN	0.000000	0.001600	0.001702	28.082	0.055800	0.001955	28.5483	63.0595	-168.767	-0.033485	1.041651	-0.128264	-0.129560	-0.044870	28.5483	-0.127085	-6.684941	0.006712	NaN
724	1.000000	1.052972	7.37214e+06	-40889.1	1005.82	-29788.2	0.000000	0.000000	7.053188	0.028936	NaN	0.000000	0.001568	0.001686	28.0823	0.069894	0.001901	36.7766	125.681	12.8822	-0.041043	1.051604	-0.118239	-0.119607	0.028936	36.7766	-0.118829	-4.574921	-0.006325	NaN
724	1.000000	1.062957	7.37214e+06	-40889.1	1005.82	-29788.2	0.000000	0.000000	7.063171	-0.000636	NaN	0.000000	0.001575	0.001688	28.082	0.026336	0.001966	13.3964	67.8233	-168.156	0.027547	1.061666	-0.108254	-0.109545	-0.000636	13.3964	-0.108218	-2.755146	0.000231	NaN
724	1.000000	1.072945	7.37214e+06	-40889.1	1005.82	-29788.2	0.000000	0.000000	7.073157	-0.063461	NaN	0.000000	0.001577	0.001699	28.0819	0.149136	0.002001	74.5292	-74.3872	12.6611	-0.016365	1.071627	-0.098265	-0.099584	-0.063461	74.5292	-0.097627	-1.617439	0.039235	NaN
724	1.000000	1.082956	7.37214e+06	-40889.1	1005.82	-29788.2	0.000000	0.000000	7.083170	-0.018194	NaN	0.000000	0.001595	0.001683	28.0819	0.047320	0.001809	26.1599	117.002	-167.405	0.055650	1.081619	-0.088254	-0.089591	-0.018194	26.1599	-0.087733	-0.955549	0.019041	NaN
724	1.000000	1.092975	7.37214e+06	-40889.1	1005.82	-29788.2	0.000000	0.000000	7.093188	-0.035300	NaN	0.000000	0.001568	0.001677	28.082	0.053487	0.001897	28.2012	-12.3353	16.2531	-0.076792	1.091653	-0.078236	-0.079558	-0.035300	28.2012	-0.077297	-0.529023	0.066727	NaN
724	1.000000	1.102974	7.37214e+06	-40889.1	1005.82	-29788.2	0.000000	0.000000	7.103190	0.056795	NaN	0.000000	0.001566	0.001675	28.0819	0.069960	0.001963	35.6464	119.274	-168.91	0.036497	1.101670	-0.068237	-0.069541	0.056795	35.6464	-0.069432	-0.329342	-0.172449	NaN
724	1.000000	1.112969	7.37214e+06	-40889.1	1005.82	-29788.2	0.000000	0.000000	7.113183	-0.025178	NaN	0.000000	0.001584	0.001687	28.0819	0.112859	0.002020	55.8586	-29.9517	12.1796	0.049366	1.111623	-0.058241	-0.059588	-0.025178	55.8586	-0.057903	-0.156656	0.160722	NaN
724	1.000000	1.123002	7.37214e+06	-40889.1	1005.82	-29788.2	0.000000	0.000000	7.123215	-0.031585	NaN	0.000000	0.001558	0.001692	28.0818	0.016343	0.002079	7.862759	52.3382	-164.757	-0.072692	1.121651	-0.048209	-0.049560	-0.031585	7.862759	-0.045196	-0.065162	0.484720	NaN
724	1.000000	1.132961	7.37214e+06	-40889.1	1005.82	-29788.2	0.000000	0.000000	7.133176	0.011252	NaN	0.000000	0.001582	0.001677	28.082	0.099816	0.001984	50.3033	-35.03	11.6974	-0.002949	1.131677	-0.038249	-0.039534	0.011252	50.3033	-0.038417	-0.040498	-0.277843	NaN
724	1.000000	1.142912	7.37214e+06	-40889.1	1005.82	-29788.2	0.000000	0.000000	7.143124	-0.041002	NaN	0.000000	0.001595	0.001672	28.0819	0.102369	0.001934	52.9447	-11.3359	-165.05	0.034973	1.141680	-0.028299	-0.029531	-0.041002	52.9447	-0.027718	-0.019922	2.058115	NaN
724	1.000000	1.153000	7.37214e+06	-40889.1	1005.82	-29788.2	0.000000	0.000000	7.153216	0.057504	NaN	0.000000	0.001579	0.001724	28.0814	0.059701	0.001974	30.2511	-81.484	14.0126	-0.048045	1.151640	-0.018211	-0.019571	0.057504	30.2511	-0.019637	-0.012296	-4.676539	NaN
724	1.000000	1.162981	7.37214e+06	-40889.1	1005.82	-29788.2	0.000000	0.000000	7.163195	-0.011807	NaN	0.000000	0.001572	0.001770	28.081	0.098166	0.002142	45.8365	-15.6576	-161.762	-0.020655	1.161685	-0.008230	-0.009526	-0.011807	45.8365	-0.008036	-0.005253	2.247711	NaN
724	1.000000	1.172913	7.37214e+06	-40889.1	1005.82	-29788.2	0.000000	0.000000	7.173429	7.335855	NaN	0.000000	0.001581	0.001768	28.0807	7.591077	0.001803	4210.63	15.5094	5.197140	5.763154	1.171682	0.001703	0.000472	7.335855	4210.63	0.000396	0.000298	24596.8	222758
724	2.000000	1.176527	7.37214e+06	-40889.1	1005.82	-29788.2	0.000000	0.000000	7.177317	14.0141	NaN	0.000000	0.001593	0.001776	28.0807	10.2563	0.001465	7000.83	0.973980	-170.807	13.2258	1.176099	0.005316	0.004888	14.0141	7000.83	0.003815	0.003077	4553.85	115300
724	2.000000	1.178993	7.37214e+06	-40889.1	1005.82	-29788.2	0.000000	0.000000	7.179854	15.7376	NaN	0.000000	0.001584	0.001779	28.081	13.7516	0.001714	8022.79	8.433048	2.130282	14.7626	1.178680	0.007782	0.007469	15.7376	8022.79	0.006311	0.005362	2935.11	100102
724	2.000000	1.181478	7.37214e+06	-40889.1	1005.82	-29788.2	0.000000	0.000000	7.182647	23.2461	NaN	0.000000	0.001587	0.001791	28.0805	17.1648	0.001722	9969.87	6.063903	-177.989	22.7894	1.181191	0.010267	0.009980	23.2461	9969.87	0.008518	0.007581	3066.44	104618
724	2.000000	1.183998	7.37214e+06	-40889.1	1005.82	-29788.2	0.000000	0.000000	7.185426	29.5449	NaN	0.000000	0.001588	0.001795	28.0808	18.8393	0.001741	10823.4	2.931982	6.048530	28.7558	1.183602	0.012787	0.012391	29.5449	10823.4	0.010740	0.010015	2949.95	98810.7
724	2.000000	1.186409	7.37214e+06	-40889.1	1005.82	-29788.2	0.000000	0.000000	7.188049	34.6984	NaN	0.000000	0.001608	0.001805	28.0808	21.3271	0.001820	11716.5	7.381385	179.996	32.4675	1.186089	0.015198	0.014879	34.6984	11716.5	0.012977	0.012682	2736.06	95055.6
724	2.000000	1.188959	7.37214e+06	-40889.1	1005.82	-29788.2	0.000000	0.000000	7.190865	41.1715	NaN	0.000000	0.001602	0.001777	28.0813	24.0139	0.001871	12837.4	4.185672	2.580962	39.8899	1.188602	0.017748	0.017392	41.1715	12837.4	0.015342	0.015745	2614.92	93471.9
724	2.000000	1.191465	7.37214e+06	-40889.1	1005.82	-29788.2	0.000000	0.000000	7.193509	44.5424	NaN	0.000000	0.001604	0.001755	28.0808	26.7667	0.001966	13617.5	6.247148	-179.476	45.5588	1.191130	0.020254	0.019919	44.5424	13617.5	0.017801	0.019203	2319.5	89780.5
724	2.000000	1.193957	7.37214e+06	-40889.1	1005.82	-29788.2	0.000000	0.000000	7.196378	53.7071	NaN	0.000000	0.001595	0.001763	28.081	27.7379	0.001740	15943	0.824021	4.273702	52.097	1.193539	0.022746	0.022329	53.7071	15943	0.020220	0.022889	2346.46	96279.7
724	2.000000	1.196423	7.37214e+06	-40889.1	1005.82	-29788.2	0.000000	0.000000	7.199204	62.4641	NaN	0.000000	0.001624	0.001730	28.081	29.9845	0.001755	17082.5	4.044098	179.554	60.697	1.196125	0.025212	0.024915	62.4641	17082.5	0.022469	0.026572	2350.74	95743.7
724	2.000000	1.198987	7.37214e+06	-40889.1	1005.82	-29788.2	0.000000	0.000000	7.202048	69.2726	NaN	0.000000	0.001590	0.001775	28.0811	32.8033	0.001797	18259.4	5.399874	-0.790269	70.451	1.198541	0.027776	0.027330	69.2726	18259.4	0.024931	0.030890	2242.58	94919
724	2.000000	1.201455	7.37214e+06	-40889.1	1005.82	-29788.2	0.000000	0.000000	7.204855	77.5117	NaN	0.000000	0.001663	0.001749	28.081	35.736	0.001840	19424.9	6.768262	176.25	77.1378	1.201118	0.030244	0.029907	77.5117	19424.9	0.027252	0.035240	2199.56	94540.2
724	2.000000	1.203900	7.37214e+06	-40889.1	1005.82	-29788.2	0.000000	0.000000	7.207592	84.6294	NaN	0.000000	0.001630	0.001725	28.0824	37.3403	0.001731	21567.7	8.091937	-6.022441	82.2293	1.203610	0.032689	0.032400	84.6294	21567.7	0.029746	0.040220	2104.19	98255.8
724	2.000000	1.206413	7.37214e+06	-40889.1	1005.82	-29788.2	0.000000	0.000000	7.210696	98.9869	NaN	0.000000	0.001645	0.001793	28.0823	38.6912	0.001762	21956.6	5.055114	177.134	98.2945	1.206093	0.035203	0.034882	98.9869	21956.6	0.031821	0.044603	2219.27	94985
724	2.000000	1.208918	7.37214e+06	-40889.1	1005.82	-29788.2	0.000000	0.000000	7.213332	102.2	NaN	0.000000	0.001566	0.001762	28.0828	43.093	0.001944	22172.6	7.833129	-5.956093	102.086	1.208473	0.037707	0.037263	102.2	22172.6	0.034250	0.050015	2043.38	90581.6
724	2.000000	1.211509	7.37214e+06	-40889.1	1005.82	-29788.2	0.000000	0.000000	7.216252	110.203	NaN	0.000000	0.001605	0.001767	28.082	45.0513	0.001969	22880.9	6.800751	175.168	113.83	1.211098	0.040298	0.039887	110.203	22880.9	0.036686	0.055744	1976.96	88542
724	2.000000	1.213899	7.37214e+06	-40889.1	1005.82	-29788.2	0.000000	0.000000	7.219295	126.065	NaN	0.000000	0.001609	0.001766	28.0824	46.8651	0.001884	24873.5	5.357918	-3.622516	124.723	1.213647	0.042689	0.042436	126.065	24873.5	0.038888	0.061185	2060.38	91872.8
724	2.000000	1.216424	7.37214e+06	-40889.1	1005.82	-29788.2	0.000000	0.000000	7.222329	138.481	NaN	0.000000	0.001615	0.001752	28.0823	49.8502	0.001743	28593.3	11.7829	167.824	138.891	1.216053	0.045213	0.044842	138.481	28593.3	0.041581	0.068177	2031.19	100050
724	2.000000	1.218839	7.37214e+06	-40889.1	1005.82	-29788.2	0.000000	0.000000	7.225371	153.729	NaN	0.000000	0.001583	0.001744	28.0822	50.4094	0.001813	27796.8	0.816501	-0.911202	150.71	1.218548	0.047628	0.047338	153.729	27796.8	0.043481	0.073333	2096.33	93782
724	2.000000	1.221364	7.37214e+06	-40889.1	1005.82	-29788.2	0.000000	0.000000	7.228246	162.236	NaN	0.000000	0.001575	0.001731	28.0819	54.0269	0.001860	29054.4	3.292048	176.864	161.131	1.221108	0.050154	0.049898	162.236	29054.4	0.045966	0.080353	2019.04	93644.9
724	2.000000	1.223900	7.37214e+06	-40889.1	1005.82	-29788.2	0.000000	0.000000	7.231399	177.248	NaN	0.000000	0.001605	0.001749	28.0822	55.4336	0.001715	32327.6	4.149678	-5.997618	174.146	1.223628	0.052690	0.052418	177.248	32327.6	0.048577	0.088067	2012.65	99526.8
724	2.000000	1.226371	7.37214e+06	-40889.1	1005.82	-29788.2	0.000000	0.000000	7.234472	191.911	NaN	0.000000	0.001588	0.001779	28.0821	57.8937	0.001712	33820.6	7.321702	170.333	191.605	1.226130	0.055160	0.054920	191.911	33820.6	0.050904	0.095229	2015.25	100131
724	2.000000	1.228857	7.37214e+06	-40889.1	1005.82	-29788.2	0.000000	0.000000	7.237538	206.031	NaN	0.000000	0.001597	0.001739	28.0821	60.5782	0.001861	32552.4	4.332265	-5.683150	202.532	1.228510	0.057646	0.057300	206.031	32552.4	0.052899	0.101584	2028.19	93313.5
724	2.000000	1.231378	7.37214e+06	-40889.1	1005.82	-29788.2	0.000000	0.000000	7.240499	216.726	NaN	0.000000	0.001584	0.001776	28.0819	63.4846	0.001809	35088.8	6.561583	170.974	215.164	1.231048	0.060168	0.059837	216.726	35088.8	0.055535	0.110287	1965.11	96534
724	2.000000	1.233942	7.37214e+06	-40889.1	1005.82	-29788.2	0.000000	0.000000	7.243575	229.198	NaN	0.000000	0.001593	0.001705	28.0824	63.8054	0.001816	35139.5	0.016772	-1.881221	228.038	1.233593	0.062731	0.062382	229.198	35139.5	0.057839	0.118174	1939.5	93391.7
724	2.000000	1.236362	7.37214e+06	-40889.1	1005.82	-29788.2	0.000000	0.000000	7.246489	241.21	NaN	0.000000	0.001616	0.001705	28.0818	65.192	0.001689	38606.7	-0.045470	177.789	239.972	1.236113	0.065151	0.064902	241.21	38606.7	0.060465	0.127481	1892.12	98789.9
724	2.000000	1.238865	7.37214e+06	-40889.1	1005.82	-29788.2	0.000000	0.000000	7.249745	259.525	NaN	0.000000	0.001578	0.001689	28.0808	69.316	0.001853	37408.8	5.582859	-8.312610	255.811	1.238505	0.067655	0.067295	259.525	37408.8	0.062451	0.134745	1926.04	93108.6
724	2.000000	1.241342	7.37214e+06	-40889.1	1005.82	-29788.2	0.000000	0.000000	7.252901	276.039	NaN	0.000000	0.001538	0.001705	28.0805	71.1748	0.001838	38721	3.787183	174.162	274.432	1.241004	0.070132	0.069794	276.039	38721	0.064785	0.143524	1923.3	93380.9
724	2.000000	1.244006	7.37214e+06	-40889.1	1005.82	-29788.2	0.000000	0.000000	7.256160	290.537	NaN	0.000000	0.001560	0.001711	28.0809	73.9835	0.001835	40308.9	9.275057	-11.3502	294.769	1.243390	0.072795	0.072179	290.537	40308.9	0.067389	0.153630	1891.15	93958.6
724	2.000000	1.246303	7.37214e+06	-40889.1	1005.82	-29788.2	0.000000	0.000000	7.259647	319.502	NaN	0.000000	0.001575	0.001706	28.0805	74.0184	0.001705	43415.3	5.811991	170.244	315.345	1.246028	0.075092	0.074818	319.502	43415.3	0.069573	0.162354	1967.93	98443
724	2.000000	1.248803	7.37214e+06	-40889.1	1005.82	-29788.2	0.000000	0.000000	7.262496	327.988	NaN	0.000000	0.001555	0.001731	28.0808	77.2157	0.001787	43215.1	3.417872	-6.644131	322.116	1.248412	0.077592	0.077202	327.988	43215.1	0.071900	0.171903	1907.99	95228.5
724	2.000000	1.251289	7.37214e+06	-40889.1	1005.82	-29788.2	0.000000	0.000000	7.265635	343.87	NaN	0.000000	0.001562	0.001715	28.0808	80.9592	0.001736	46623.4	7.446305	168.834	340.003	1.251017	0.080078	0.079806	343.87	46623.4	0.074547	0.183073	1878.32	99555.4
724	2.000000	1.253938	7.37214e+06	-40889.1	1005.82	-29788.2	0.000000	0.000000	7.268955	360.208	NaN	0.000000	0.001579	0.001722	28.0809	83.3726	0.001741	47894.7	6.541370	-10.4582	361.055	1.253532	0.082727	0.082321	360.208	47894.7	0.077086	0.194103	1855.75	99321.7
724	2.000000	1.256348	7.37214e+06	-40889.1	1005.82	-29788.2	0.000000	0.000000	7.272192	380.308	NaN	0.000000	0.001563	0.001668	28.0807	85.5176	0.001789	47796.4	4.410775	171.403	379.775	1.256036	0.085137	0.084826	380.308	47796.4	0.079170	0.203377	1869.97	96831.8
724	2.000000	1.258793	7.37214e+06	-40889.1	1005.82	-29788.2	0.000000	0.000000	7.275522	401.863	NaN	0.000000	0.001593	0.001691	28.0807	88.4066	0.001820	48585.8	4.605063	-9.210768	395.432	1.258414	0.087582	0.087204	401.863	48585.8	0.081379	0.213431	1882.87	96084.6
724	2.000000	1.261386	7.37214e+06	-40889.1	1005.82	-29788.2	0.000000	0.000000	7.278801	418.535	NaN	0.000000	0.001568	0.001691	28.081	90.7976	0.001842	49282.3	4.209148	171.275	419.046	1.261050	0.090176	0.089840	418.535	49282.3	0.083806	0.224740	1862.31	94978.3
724	2.000000	1.263810	7.37214e+06	-40889.1	1005.82	-29788.2	0.000000	0.000000	7.282050	438.612	NaN	0.000000	0.001583	0.001698	28.0808	91.5005	0.001867	49012.3	2.318837	-6.574475	432.509	1.263543	0.092599	0.092332	438.612	49012.3	0.085887	0.234653	1869.19	92441
724	2.000000	1.266288	7.37214e+06	-40889.1	1005.82	-29788.2	0.000000	0.000000	7.285519	462.749	NaN	0.000000	0.001609	0.001725	28.0807	91.816	0.001774	51746	-0.260403	175.696	457.977	1.266012	0.095077	0.094802	462.749	51746	0.088370	0.246740	1875.45	95176.6
724	2.000000	1.268840	7.37214e+06	-40889.1	1005.82	-29788.2	0.000000	0.000000	7.288655	476.952	NaN	0.000000	0.001601	0.001722	28.0805	96.1084	0.001806	53227.2	3.997790	-8.753351	474.154	1.268540	0.097629	0.097329	476.952	53227.2	0.090909	0.259392	1838.73	95483.5
724	2.000000	1.271333	7.37214e+06	-40889.1	1005.82	-29788.2	0.000000	0.000000	7.291880	494.766	NaN	0.000000	0.001585	0.001683	28.0815	99.2755	0.001876	52920.5	3.146485	171.692	492.987	1.271085	0.100122	0.099874	494.766	52920.5	0.093110	0.270603	1828.39	92946.1
724	2.000000	1.272857	7.37214e+06	-40889.1	1005.82	-29788.2	0.000000	0.000000	7.294109	511.929	NaN	0.000000	0.001590	0.001704	28.0819	100.098	0.001840	54397.5	7.435702	-12.4872	509.783	1.272483	0.101646	0.101272	511.929	54397.5	0.094588	0.278252	1839.8	94217.7