File: remote_trans/data/nanoindenter/0828-1/data/Data_2025-08-06,11h17m57s/2025-07-22_16-23-58_1_398.txt
2025-07-22, 16:23:58, 1
Index	Phase	Displacement	Time	Pos X	Pos Y	Pos Z	Rot A	Rot B	Piezo Z	Force A	Force B	Gripper	Voltage A	Voltage B	Temperature	Amplitude force	Amplitude pos	Stiffness	Phase shift	Phase excitation	Force A raw	Displacement raw	HMax	HMax raw	Real Force	Real Stiffness	Contact Depth	Area	Hardness	Reduced Mod.
[#]	[#]	[um]	[s]	[um]	[um]	[um]	[m°]	[m°]	[um]	[uN]	[uN]	[V]	[V]	[V]	[°C]	[uN]	[um]	[N/m]	[°]	[°]	[uN]	[um]	[um]	[um]	[uN]	[N/m]	[um]	[um^2]	[MPa]	[MPa]
398	1.000000	0.002925	7.36895e+06	-57189.1	1005.82	-29737.4	0.000000	0.000000	6.002827	0.004147	NaN	0.000000	0.001650	0.001624	28.082	0.070493	0.000964	73.1205	-114.551	-166.504	-0.005474	0.001636	-1.162813	-1.164102	0.004147	73.1205	-1.162855	-3.492498E+15	-1.187278E-18	NaN
398	1.000000	0.012974	7.36895e+06	-57189.1	1005.82	-29737.4	0.000000	0.000000	6.012878	0.046601	NaN	0.000000	0.001654	0.001599	28.082	0.093028	0.001269	73.2869	19.3504	14.0563	0.045815	0.011517	-1.152763	-1.154220	0.046601	73.2869	-1.153240	-2.595706E+15	-1.795329E-17	NaN
398	1.000000	0.022878	7.36895e+06	-57189.1	1005.82	-29737.4	0.000000	0.000000	6.022778	-0.033155	NaN	0.000000	0.001670	0.001630	28.0822	0.124366	0.001701	73.1036	-97.2659	-165.422	0.054266	0.021539	-1.142860	-1.144198	-0.033155	73.1036	-1.142520	-1.864338E+15	1.778387E-17	NaN
398	1.000000	0.032851	7.36895e+06	-57189.1	1005.82	-29737.4	0.000000	0.000000	6.032752	-0.012385	NaN	0.000000	0.001673	0.001633	28.0822	0.034817	0.001787	19.4848	-62.4132	15.6727	-0.001840	0.031441	-1.132887	-1.134296	-0.012385	19.4848	-1.132410	-1.364422E+15	9.077298E-18	NaN
398	1.000000	0.042829	7.36895e+06	-57189.1	1005.82	-29737.4	0.000000	0.000000	6.042733	0.029369	NaN	0.000000	0.001691	0.001612	28.0809	0.107786	0.001902	56.6689	-84.7464	-164.999	0.029183	0.041558	-1.122908	-1.124179	0.029369	56.6689	-1.123297	-1.029676E+15	-2.852262E-17	NaN
398	1.000000	0.052851	7.36895e+06	-57189.1	1005.82	-29737.4	0.000000	0.000000	6.052753	-0.002463	NaN	0.000000	0.001674	0.001614	28.0811	0.031068	0.001969	15.7755	-130.92	16.7385	-0.008025	0.051487	-1.112887	-1.114250	-0.002463	15.7755	-1.112770	-7.437961E+14	3.310816E-18	NaN
398	1.000000	0.062847	7.36895e+06	-57189.1	1005.82	-29737.4	0.000000	0.000000	6.062751	0.045837	NaN	0.000000	0.001678	0.001612	28.081	0.078988	0.001996	39.5707	-16.2125	-165.718	0.048876	0.061613	-1.102890	-1.104124	0.045837	39.5707	-1.103759	-5.630203E+14	-8.141325E-17	NaN
398	1.000000	0.072848	7.36895e+06	-57189.1	1005.82	-29737.4	0.000000	0.000000	6.072751	0.011671	NaN	0.000000	0.001655	0.001646	28.081	0.027177	0.001983	13.7051	87.7673	16.538	0.016659	0.071505	-1.092889	-1.094232	0.011671	13.7051	-1.093528	-4.103731E+14	-2.843898E-17	NaN
398	1.000000	0.082864	7.36895e+06	-57189.1	1005.82	-29737.4	0.000000	0.000000	6.082764	-0.054065	NaN	0.000000	0.001670	0.001665	28.0811	0.047072	0.001948	24.1613	126.885	-164.802	-0.100993	0.081536	-1.082873	-1.084202	-0.054065	24.1613	-1.081195	-2.802625E+14	1.929102E-16	NaN
398	1.000000	0.092888	7.36895e+06	-57189.1	1005.82	-29737.4	0.000000	0.000000	6.092791	0.021574	NaN	0.000000	0.001630	0.001616	28.0811	0.056990	0.002070	27.5319	146.942	19.6115	-0.053582	0.091537	-1.072849	-1.074201	0.021574	27.5319	-1.073437	-2.204765E+14	-9.785071E-17	NaN
398	1.000000	0.102880	7.36895e+06	-57189.1	1005.82	-29737.4	0.000000	0.000000	6.102782	-0.016586	NaN	0.000000	0.001579	0.001621	28.0807	0.074944	0.002073	36.1567	-143.575	-165.056	-0.029206	0.101566	-1.062857	-1.064171	-0.016586	36.1567	-1.062513	-1.572501E+14	1.054763E-16	NaN
398	1.000000	0.112874	7.36895e+06	-57189.1	1005.82	-29737.4	0.000000	0.000000	6.112776	0.010895	NaN	0.000000	0.001601	0.001642	28.081	0.123070	0.001939	63.4797	-40.2744	16.3297	-0.010617	0.111524	-1.052864	-1.054214	0.010895	63.4797	-1.052993	-1.171226E+14	-9.302015E-17	NaN
398	1.000000	0.122878	7.36895e+06	-57189.1	1005.82	-29737.4	0.000000	0.000000	6.122782	0.046911	NaN	0.000000	0.001636	0.001606	28.0813	0.167346	0.001958	85.4847	102.363	-163.887	0.064208	0.121534	-1.042859	-1.044204	0.046911	85.4847	-1.043271	-8.668600E+13	-5.411556E-16	NaN
398	1.000000	0.132883	7.36895e+06	-57189.1	1005.82	-29737.4	0.000000	0.000000	6.132786	0.025075	NaN	0.000000	0.001628	0.001634	28.0809	0.036528	0.001939	18.8429	134.084	15.8163	0.116246	0.131515	-1.032854	-1.034222	0.025075	18.8429	-1.033853	-6.475849E+13	-3.872026E-16	NaN
398	1.000000	0.142865	7.36895e+06	-57189.1	1005.82	-29737.4	0.000000	0.000000	6.142767	-0.008422	NaN	0.000000	0.001655	0.001600	28.0811	0.124556	0.001993	62.5072	94.897	-166.693	0.040605	0.141583	-1.022873	-1.024155	-0.008422	62.5072	-1.022771	-4.594529E+13	1.833068E-16	NaN
398	1.000000	0.152887	7.36895e+06	-57189.1	1005.82	-29737.4	0.000000	0.000000	6.152788	-0.026654	NaN	0.000000	0.001617	0.001577	28.081	0.039663	0.001915	20.7162	175.121	17.5711	0.036290	0.151536	-1.012850	-1.014201	-0.026654	20.7162	-1.011885	-3.279109E+13	8.128396E-16	NaN
398	1.000000	0.162877	7.36895e+06	-57189.1	1005.82	-29737.4	0.000000	0.000000	6.162780	0.023286	NaN	0.000000	0.001635	0.001601	28.0813	0.084745	0.001928	43.9636	-62.0506	-162.488	-0.058246	0.161580	-1.002861	-1.004157	0.023286	43.9636	-1.003258	-2.509751E+13	-9.278126E-16	NaN
398	1.000000	0.172889	7.36895e+06	-57189.1	1005.82	-29737.4	0.000000	0.000000	6.172795	0.085464	NaN	0.000000	0.001635	0.001614	28.0814	0.064431	0.002075	31.0443	50.628	14.2408	0.052159	0.171530	-0.992848	-0.994208	0.085464	31.0443	-0.994913	-1.937648E+13	-4.410683E-15	NaN
398	1.000000	0.182911	7.36895e+06	-57189.1	1005.82	-29737.4	0.000000	0.000000	6.182816	0.069061	NaN	0.000000	0.001631	0.001605	28.0822	0.082710	0.002051	40.336	-151.705	-165.125	0.083566	0.181628	-0.982826	-0.984110	0.069061	40.336	-0.984110	-1.386061E+13	-4.982519E-15	NaN
398	1.000000	0.192919	7.36895e+06	-57189.1	1005.82	-29737.4	0.000000	0.000000	6.192821	-0.001011	NaN	0.000000	0.001610	0.001621	28.0823	0.035126	0.001969	17.8362	-163.207	14.7042	0.042466	0.191563	-0.972819	-0.974174	-0.001011	17.8362	-0.972776	-9.751643E+12	1.036581E-16	NaN
398	1.000000	0.202906	7.36895e+06	-57189.1	1005.82	-29737.4	0.000000	0.000000	6.202810	0.033616	NaN	0.000000	0.001625	0.001624	28.0826	0.069493	0.002062	33.6943	-98.315	-163.838	0.051546	0.201611	-0.962831	-0.964126	0.033616	33.6943	-0.963579	-7.330297E+12	-4.585965E-15	NaN
398	1.000000	0.212912	7.36895e+06	-57189.1	1005.82	-29737.4	0.000000	0.000000	6.212815	0.018296	NaN	0.000000	0.001607	0.001633	28.082	0.110808	0.002045	54.1981	-144.588	16.4284	0.006454	0.211562	-0.952825	-0.954175	0.018296	54.1981	-0.953079	-5.291095E+12	-3.457809E-15	NaN
398	1.000000	0.222920	7.36895e+06	-57189.1	1005.82	-29737.4	0.000000	0.000000	6.222823	0.035603	NaN	0.000000	0.001635	0.001616	28.0822	0.098424	0.002128	46.2454	-151.911	-163.389	0.025688	0.221618	-0.942818	-0.944120	0.035603	46.2454	-0.943395	-3.916892E+12	-9.089703E-15	NaN
398	1.000000	0.232902	7.36895e+06	-57189.1	1005.82	-29737.4	0.000000	0.000000	6.232805	0.023535	NaN	0.000000	0.001642	0.001662	28.0823	0.046956	0.001866	25.1615	-42.3421	14.7418	0.007288	0.231564	-0.932835	-0.934174	0.023535	25.1615	-0.933537	-2.883575E+12	-8.161808E-15	NaN
398	1.000000	0.242911	7.36895e+06	-57189.1	1005.82	-29737.4	0.000000	0.000000	6.242814	0.012381	NaN	0.000000	0.001623	0.001635	28.0825	0.051102	0.002024	25.2534	-149.771	-166.556	-0.001081	0.241563	-0.922826	-0.924175	0.012381	25.2534	-0.923194	-2.090854E+12	-5.921708E-15	NaN
398	1.000000	0.252916	7.36895e+06	-57189.1	1005.82	-29737.4	0.000000	0.000000	6.252818	-0.002745	NaN	0.000000	0.001659	0.001612	28.0822	0.083109	0.002071	40.1279	70.191	16.9061	0.038041	0.251556	-0.912821	-0.914181	-0.002745	40.1279	-0.912770	-1.512083E+12	1.815049E-15	NaN
398	1.000000	0.262939	7.36895e+06	-57189.1	1005.82	-29737.4	0.000000	0.000000	6.262841	-0.009015	NaN	0.000000	0.001669	0.001591	28.0823	0.122265	0.002060	59.3529	-100.408	-164.338	-0.022969	0.261645	-0.902799	-0.904092	-0.009015	59.3529	-0.902685	-1.104946E+12	8.158341E-15	NaN
398	1.000000	0.272968	7.36896e+06	-57189.1	1005.82	-29737.4	0.000000	0.000000	6.272871	0.023987	NaN	0.000000	0.001649	0.001611	28.0824	0.036134	0.001863	19.3998	-145.539	16.8679	-0.063497	0.271579	-0.892769	-0.894159	0.023987	19.3998	-0.893697	-8.353773E+11	-2.871439E-14	NaN
398	1.000000	0.282941	7.36896e+06	-57189.1	1005.82	-29737.4	0.000000	0.000000	6.282844	0.014037	NaN	0.000000	0.001621	0.001630	28.082	0.081404	0.002086	39.0279	28.1929	-164.707	-0.066064	0.281677	-0.882796	-0.884061	0.014037	39.0279	-0.883066	-6.000202E+11	-2.339352E-14	NaN
398	1.000000	0.292947	7.36896e+06	-57189.1	1005.82	-29737.4	0.000000	0.000000	6.292850	0.018471	NaN	0.000000	0.001655	0.001628	28.0821	0.124636	0.002024	61.5805	-85.941	16.6324	0.057090	0.291600	-0.872790	-0.874138	0.018471	61.5805	-0.873015	-4.387665E+11	-4.209768E-14	NaN
398	1.000000	0.302946	7.36896e+06	-57189.1	1005.82	-29737.4	0.000000	0.000000	6.302849	0.024888	NaN	0.000000	0.001624	0.001633	28.0822	0.050369	0.002044	24.6479	-141.882	-165.49	-0.035791	0.301644	-0.862792	-0.864094	0.024888	24.6479	-0.863549	-3.267023E+11	-7.617831E-14	NaN
398	1.000000	0.312981	7.36896e+06	-57189.1	1005.82	-29737.4	0.000000	0.000000	6.312885	0.042397	NaN	0.000000	0.001620	0.001636	28.081	0.098304	0.002036	48.2881	-124.518	11.8656	0.089799	0.311588	-0.852756	-0.854150	0.042397	48.2881	-0.853415	-2.382189E+11	-1.779732E-13	NaN
398	1.000000	0.322996	7.36896e+06	-57189.1	1005.82	-29737.4	0.000000	0.000000	6.322898	0.003380	NaN	0.000000	0.001619	0.001626	28.081	0.093713	0.002141	43.7675	-119.962	-168.624	0.080348	0.321628	-0.842742	-0.844109	0.003380	43.7675	-0.842800	-1.710885E+11	-1.975625E-14	NaN
398	1.000000	0.332977	7.36896e+06	-57189.1	1005.82	-29737.4	0.000000	0.000000	6.332883	0.089811	NaN	0.000000	0.001646	0.001686	28.0809	0.075542	0.002053	36.8037	-172.742	15.7154	0.036901	0.331609	-0.832760	-0.834128	0.089811	36.8037	-0.834590	-1.324328E+11	-6.781664E-13	NaN
398	1.000000	0.342964	7.36896e+06	-57189.1	1005.82	-29737.4	0.000000	0.000000	6.342868	0.031303	NaN	0.000000	0.001608	0.001670	28.0811	0.077411	0.001934	40.0308	-163.576	-164.859	-0.026573	0.341652	-0.822773	-0.824086	0.031303	40.0308	-0.823359	-9.327480E+10	-3.355968E-13	NaN
398	1.000000	0.352978	7.36896e+06	-57189.1	1005.82	-29737.4	0.000000	0.000000	6.352880	0.003351	NaN	0.000000	0.001635	0.001654	28.081	0.117284	0.002114	55.485	-136.167	16.4896	0.086844	0.351616	-0.812760	-0.814121	0.003351	55.485	-0.812805	-6.708525E+10	-4.995287E-14	NaN
398	1.000000	0.362974	7.36896e+06	-57189.1	1005.82	-29737.4	0.000000	0.000000	6.362875	-0.025221	NaN	0.000000	0.001622	0.001647	28.0809	0.091727	0.002038	45.0022	170.807	-166.776	0.019287	0.361719	-0.802763	-0.804018	-0.025221	45.0022	-0.802343	-4.837993E+10	5.213181E-13	NaN
398	1.000000	0.372972	7.36896e+06	-57189.1	1005.82	-29737.4	0.000000	0.000000	6.372878	0.076794	NaN	0.000000	0.001627	0.001611	28.0812	0.071518	0.002083	34.3267	-113.063	13.2912	-0.013913	0.371627	-0.792765	-0.794110	0.076794	34.3267	-0.794443	-3.779353E+10	-2.031936E-12	NaN
398	1.000000	0.383032	7.36896e+06	-57189.1	1005.82	-29737.4	0.000000	0.000000	6.382934	0.010917	NaN	0.000000	0.001621	0.001663	28.081	0.125822	0.002050	61.3906	173.518	-162.999	0.000408	0.381636	-0.782706	-0.784101	0.010917	61.3906	-0.782839	-2.629121E+10	-4.152482E-13	NaN
398	1.000000	0.392964	7.36896e+06	-57189.1	1005.82	-29737.4	0.000000	0.000000	6.392868	0.043354	NaN	0.000000	0.001615	0.001645	28.0811	0.073905	0.001935	38.1939	48.592	13.722	0.099017	0.391609	-0.772773	-0.774128	0.043354	38.1939	-0.773625	-1.970533E+10	-2.200129E-12	NaN
398	1.000000	0.402963	7.36896e+06	-57189.1	1005.82	-29737.4	0.000000	0.000000	6.402868	0.068857	NaN	0.000000	0.001590	0.001639	28.0809	0.039216	0.001978	19.8298	-157.657	-164.541	0.055391	0.401693	-0.762774	-0.764044	0.068857	19.8298	-0.765379	-1.522167E+10	-4.523588E-12	NaN
398	1.000000	0.412993	7.36896e+06	-57189.1	1005.82	-29737.4	0.000000	0.000000	6.412895	-0.005580	NaN	0.000000	0.001642	0.001618	28.0811	0.034568	0.002045	16.9068	141.522	13.6272	-0.036691	0.411687	-0.752744	-0.754051	-0.005580	16.9068	-0.752497	-1.016727E+10	5.488231E-13	NaN
398	1.000000	0.423007	7.36896e+06	-57189.1	1005.82	-29737.4	0.000000	0.000000	6.422912	0.083372	NaN	0.000000	0.001599	0.001664	28.0811	0.051014	0.002012	25.3558	-64.4229	-165.403	0.063173	0.421674	-0.742731	-0.744063	0.083372	25.3558	-0.745197	-8.087719E+9	-1.030845E-11	NaN
398	1.000000	0.433018	7.36896e+06	-57189.1	1005.82	-29737.4	0.000000	0.000000	6.432921	0.022857	NaN	0.000000	0.001598	0.001640	28.0811	0.042911	0.001934	22.1838	42.7464	14.9678	-0.057137	0.431609	-0.732719	-0.734128	0.022857	22.1838	-0.733492	-5.602685E+9	-4.079639E-12	NaN
398	1.000000	0.443021	7.36896e+06	-57189.1	1005.82	-29737.4	0.000000	0.000000	6.442927	0.084927	NaN	0.000000	0.001656	0.001674	28.0809	0.062013	0.001970	31.4856	-29.1083	-163.351	0.034542	0.441661	-0.722716	-0.724077	0.084927	31.4856	-0.724739	-4.256945E+9	-1.995017E-11	NaN
398	1.000000	0.453014	7.36896e+06	-57189.1	1005.82	-29737.4	0.000000	0.000000	6.452917	0.017775	NaN	0.000000	0.001637	0.001671	28.0823	0.109139	0.002059	53.0172	-90.335	17.2791	-0.047420	0.451697	-0.712723	-0.714041	0.017775	53.0172	-0.712974	-2.941956E+9	-6.041934E-12	NaN
398	1.000000	0.463008	7.36896e+06	-57189.1	1005.82	-29737.4	0.000000	0.000000	6.462911	0.020137	NaN	0.000000	0.001612	0.001668	28.0826	0.051627	0.001990	25.9403	-133.935	-161.756	0.044991	0.461752	-0.702729	-0.703985	0.020137	25.9403	-0.703312	-2.171452E+9	-9.273576E-12	NaN
398	1.000000	0.473037	7.36896e+06	-57189.1	1005.82	-29737.4	0.000000	0.000000	6.472941	0.046916	NaN	0.000000	0.001605	0.001674	28.0821	0.053378	0.001858	28.7256	148.687	14.6588	0.074766	0.471708	-0.692700	-0.694029	0.046916	28.7256	-0.693925	-1.616422E+9	-2.902472E-11	NaN
398	1.000000	0.483016	7.36896e+06	-57189.1	1005.82	-29737.4	0.000000	0.000000	6.482918	-0.008753	NaN	0.000000	0.001633	0.001670	28.0823	0.074336	0.002036	36.508	47.5425	-163.665	-0.079979	0.481722	-0.682721	-0.684015	-0.008753	36.508	-0.682541	-1.129685E+9	7.747796E-12	NaN
398	1.000000	0.493023	7.36896e+06	-57189.1	1005.82	-29737.4	0.000000	0.000000	6.492928	0.071594	NaN	0.000000	0.001610	0.001662	28.0825	0.074777	0.001986	37.6549	43.8813	14.7779	-0.023734	0.491648	-0.672714	-0.674089	0.071594	37.6549	-0.674140	-8.670502E+8	-8.257228E-11	NaN
398	1.000000	0.503017	7.36896e+06	-57189.1	1005.82	-29737.4	0.000000	0.000000	6.502920	0.034324	NaN	0.000000	0.001656	0.001663	28.0824	0.052857	0.002008	26.3197	179.498	-162.606	0.022755	0.501754	-0.662721	-0.663983	0.034324	26.3197	-0.663699	-6.239135E+8	-5.501473E-11	NaN
398	1.000000	0.513037	7.36896e+06	-57189.1	1005.82	-29737.4	0.000000	0.000000	6.512940	0.022343	NaN	0.000000	0.001671	0.001581	28.0823	0.080399	0.001984	40.5163	-148.961	15.1873	0.014266	0.511731	-0.652700	-0.654007	0.022343	40.5163	-0.653114	-4.468034E+8	-5.000618E-11	NaN
398	1.000000	0.523038	7.36896e+06	-57189.1	1005.82	-29737.4	0.000000	0.000000	6.522941	0.010717	NaN	0.000000	0.001640	0.001615	28.0824	0.113392	0.002080	54.5254	23.3816	-168.047	0.109518	0.521707	-0.642699	-0.644031	0.010717	54.5254	-0.642846	-3.231022E+8	-3.316868E-11	NaN
398	1.000000	0.533053	7.36896e+06	-57189.1	1005.82	-29737.4	0.000000	0.000000	6.532958	0.076779	NaN	0.000000	0.001629	0.001623	28.0828	0.075893	0.002000	37.9444	-114.059	11.8476	-0.013226	0.531702	-0.632684	-0.634035	0.076779	37.9444	-0.634202	-2.458760E+8	-3.122685E-10	NaN
398	1.000000	0.543044	7.36896e+06	-57189.1	1005.82	-29737.4	0.000000	0.000000	6.542947	0.033259	NaN	0.000000	0.001585	0.001646	28.0822	0.035407	0.001951	18.1471	76.8546	-168.771	0.045265	0.541694	-0.622694	-0.624044	0.033259	18.1471	-0.624068	-1.784617E+8	-1.863639E-10	NaN
398	1.000000	0.553054	7.36896e+06	-57189.1	1005.82	-29737.4	0.000000	0.000000	6.552958	0.057157	NaN	0.000000	0.001628	0.001625	28.0824	0.044104	0.002023	21.7976	46.3637	17.2089	-0.027743	0.551704	-0.612683	-0.614033	0.057157	21.7976	-0.614650	-1.324578E+8	-4.315132E-10	NaN
398	1.000000	0.563053	7.36896e+06	-57189.1	1005.82	-29737.4	0.000000	0.000000	6.562956	0.024885	NaN	0.000000	0.001616	0.001584	28.0821	0.071796	0.002064	34.7923	-115.469	-166.872	-0.077234	0.561745	-0.602684	-0.603993	0.024885	34.7923	-0.603221	-9.221619E+7	-2.698516E-10	NaN
398	1.000000	0.573035	7.36896e+06	-57189.1	1005.82	-29737.4	0.000000	0.000000	6.572938	0.026640	NaN	0.000000	0.001633	0.001605	28.0824	0.018339	0.001874	9.787678	98.4701	16.6071	0.005253	0.571732	-0.592702	-0.594006	0.026640	9.787678	-0.594743	-7.047690E+7	-3.779962E-10	NaN
398	1.000000	0.583061	7.36896e+06	-57189.1	1005.82	-29737.4	0.000000	0.000000	6.582963	-0.002026	NaN	0.000000	0.001644	0.001561	28.0815	0.055868	0.001855	30.1148	-96.1231	-164.632	0.006631	0.581731	-0.582676	-0.584007	-0.002026	30.1148	-0.582626	-4.796897E+7	4.223161E-11	NaN
398	1.000000	0.593080	7.36896e+06	-57189.1	1005.82	-29737.4	0.000000	0.000000	6.592982	-0.010699	NaN	0.000000	0.001628	0.001594	28.081	0.112277	0.002004	56.0353	172.528	15.8857	0.099804	0.591708	-0.572657	-0.574029	-0.010699	56.0353	-0.572514	-3.478261E+7	3.075857E-10	NaN
398	1.000000	0.603065	7.36896e+06	-57189.1	1005.82	-29737.4	0.000000	0.000000	6.602968	0.020453	NaN	0.000000	0.001661	0.001571	28.0812	0.057193	0.002070	27.6256	-113.767	-164.598	-0.003965	0.601748	-0.562672	-0.563990	0.020453	27.6256	-0.563227	-2.588294E+7	-7.902245E-10	NaN
398	1.000000	0.613082	7.36896e+06	-57189.1	1005.82	-29737.4	0.000000	0.000000	6.612986	0.038814	NaN	0.000000	0.001648	0.001553	28.081	0.032375	0.001896	17.0744	147.595	13.8289	-0.059936	0.611738	-0.552655	-0.554000	0.038814	17.0744	-0.554360	-1.951335E+7	-1.989103E-9	NaN
398	1.000000	0.623065	7.36896e+06	-57189.1	1005.82	-29737.4	0.000000	0.000000	6.622970	0.059433	NaN	0.000000	0.001692	0.001581	28.0811	0.170505	0.002015	84.6334	-168.965	-168.727	0.067396	0.621806	-0.542672	-0.543932	0.059433	84.6334	-0.543199	-1.366835E+7	-4.348206E-9	NaN
398	1.000000	0.633071	7.36896e+06	-57189.1	1005.82	-29737.4	0.000000	0.000000	6.632975	0.037943	NaN	0.000000	0.001711	0.001616	28.0809	0.019034	0.002058	9.248429	-30.0892	15.8523	-0.004917	0.631763	-0.532666	-0.533975	0.037943	9.248429	-0.535743	-1.077214E+7	-3.522292E-9	NaN
398	1.000000	0.643132	7.36896e+06	-57189.1	1005.82	-29737.4	0.000000	0.000000	6.643036	0.050422	NaN	0.000000	0.001698	0.001579	28.0811	0.076662	0.001942	39.478	-64.7743	-165.482	0.009326	0.641791	-0.522606	-0.523947	0.050422	39.478	-0.523564	-7.29707e+06	-6.909921E-9	NaN
398	1.000000	0.653087	7.36896e+06	-57189.1	1005.82	-29737.4	0.000000	0.000000	6.652990	0.012104	NaN	0.000000	0.001650	0.001560	28.0809	0.113293	0.002020	56.076	-72.0603	14.3737	0.042443	0.651716	-0.512650	-0.514021	0.012104	56.076	-0.512812	-5.17101e+06	-2.340682E-9	NaN
398	1.000000	0.663113	7.36896e+06	-57189.1	1005.82	-29737.4	0.000000	0.000000	6.663015	-0.001944	NaN	0.000000	0.001564	0.001553	28.0807	0.067276	0.001915	35.133	-84.646	-163.819	-0.003313	0.661794	-0.502624	-0.503943	-0.001944	35.133	-0.502582	-3.72424e+06	5.220682E-10	NaN
398	1.000000	0.673076	7.36896e+06	-57189.1	1005.82	-29737.4	0.000000	0.000000	6.672981	0.070361	NaN	0.000000	0.001605	0.001564	28.0809	0.015541	0.002033	7.642989	154.649	16.2482	0.017086	0.671718	-0.492662	-0.494020	0.070361	7.642989	-0.499566	-3.38036e+06	-2.081452E-8	NaN
398	1.000000	0.683093	7.36896e+06	-57189.1	1005.82	-29737.4	0.000000	0.000000	6.682996	0.022331	NaN	0.000000	0.001627	0.001557	28.0808	0.023588	0.002026	11.645	-152	-164.914	0.070100	0.681819	-0.482644	-0.483918	0.022331	11.645	-0.484082	-2.05427e+06	-1.087065E-8	NaN
398	1.000000	0.693131	7.36896e+06	-57189.1	1005.82	-29737.4	0.000000	0.000000	6.693036	0.082464	NaN	0.000000	0.001602	0.001606	28.0809	0.021126	0.001950	10.8347	16.9858	15.6195	0.073316	0.691752	-0.472607	-0.473985	0.082464	10.8347	-0.478315	-1.70582e+06	-4.834262E-8	NaN
398	1.000000	0.703119	7.36896e+06	-57189.1	1005.82	-29737.4	0.000000	0.000000	6.703020	-0.021530	NaN	0.000000	0.001629	0.001580	28.0807	0.125708	0.001842	68.2587	138.035	-163.737	-0.012864	0.701826	-0.462618	-0.463911	-0.021530	68.2587	-0.462382	-1.01972e+06	2.111387E-8	NaN
398	1.000000	0.713148	7.36896e+06	-57189.1	1005.82	-29737.4	0.000000	0.000000	6.713048	-0.035072	NaN	0.000000	0.001590	0.001591	28.081	0.025914	0.002011	12.8859	-121.777	15.1763	-0.041539	0.711813	-0.452590	-0.453924	-0.035072	12.8859	-0.450548	-695126	5.045424E-8	NaN
398	1.000000	0.723097	7.36896e+06	-57189.1	1005.82	-29737.4	0.000000	0.000000	6.723002	0.063503	NaN	0.000000	0.001608	0.001597	28.0822	0.027031	0.001951	13.8522	27.9097	-166.766	0.063990	0.721755	-0.442640	-0.443982	0.063503	13.8522	-0.446079	-601306	-1.056092E-7	NaN
398	1.000000	0.733114	7.36896e+06	-57189.1	1005.82	-29737.4	0.000000	0.000000	6.733017	0.015586	NaN	0.000000	0.001588	0.001565	28.082	0.060787	0.002181	27.8674	-56.4522	12.7127	-0.060645	0.731767	-0.432623	-0.433971	0.015586	27.8674	-0.433043	-393631	-3.959499E-8	NaN
398	1.000000	0.743119	7.36896e+06	-57189.1	1005.82	-29737.4	0.000000	0.000000	6.743019	-0.036465	NaN	0.000000	0.001622	0.001590	28.0822	0.065167	0.002050	31.7833	90.4806	-163.472	-0.091366	0.741818	-0.422619	-0.423919	-0.036465	31.7833	-0.421758	-272487	1.338212E-7	NaN
398	1.000000	0.753156	7.36896e+06	-57189.1	1005.82	-29737.4	0.000000	0.000000	6.753059	0.030716	NaN	0.000000	0.001607	0.001591	28.0824	0.027857	0.002015	13.8223	-174.25	18.2631	0.043363	0.751781	-0.412581	-0.413956	0.030716	13.8223	-0.414248	-213194	-1.440765E-7	NaN
398	1.000000	0.763171	7.36896e+06	-57189.1	1005.82	-29737.4	0.000000	0.000000	6.763077	0.109006	NaN	0.000000	0.001663	0.001590	28.0822	0.062511	0.001949	32.0658	35.0168	-165.169	0.070723	0.761870	-0.402567	-0.403868	0.109006	32.0658	-0.405116	-158091	-6.895195E-7	NaN
398	1.000000	0.773165	7.36896e+06	-57189.1	1005.82	-29737.4	0.000000	0.000000	6.773070	0.080150	NaN	0.000000	0.001621	0.001589	28.0821	0.084847	0.001957	43.3618	6.456443	12.9115	0.078705	0.771823	-0.392573	-0.393914	0.080150	43.3618	-0.393959	-109589	-7.313714E-7	NaN
398	1.000000	0.783166	7.36896e+06	-57189.1	1005.82	-29737.4	0.000000	0.000000	6.783069	0.027496	NaN	0.000000	0.001668	0.001606	28.0821	0.111012	0.001964	56.5224	119.533	-164.473	0.034305	0.781797	-0.382572	-0.383941	0.027496	56.5224	-0.382936	-76209.8	-3.607981E-7	NaN
398	1.000000	0.793160	7.36896e+06	-57189.1	1005.82	-29737.4	0.000000	0.000000	6.793063	0.021710	NaN	0.000000	0.001652	0.001625	28.0822	0.011993	0.002060	5.821374	102.182	14.6039	0.084531	0.791810	-0.372578	-0.373928	0.021710	5.821374	-0.375375	-59354.8	-3.657622E-7	NaN
398	1.000000	0.803163	7.36896e+06	-57189.1	1005.82	-29737.4	0.000000	0.000000	6.803066	0.034227	NaN	0.000000	0.001625	0.001629	28.0822	0.158169	0.001818	87.0184	-137.34	-165.359	0.001656	0.801842	-0.362575	-0.363895	0.034227	87.0184	-0.362870	-39201.9	-8.730831E-7	NaN
398	1.000000	0.813173	7.36896e+06	-57189.1	1005.82	-29737.4	0.000000	0.000000	6.813077	0.037598	NaN	0.000000	0.001619	0.001632	28.0822	0.098904	0.001893	52.2351	116.603	15.2618	0.049321	0.811805	-0.352564	-0.353932	0.037598	52.2351	-0.353104	-28315.8	-1.327812E-6	NaN
398	1.000000	0.823181	7.36896e+06	-57189.1	1005.82	-29737.4	0.000000	0.000000	6.823084	0.030968	NaN	0.000000	0.001596	0.001606	28.0825	0.022323	0.002053	10.8725	80.7043	-166.737	0.020296	0.821862	-0.342556	-0.343875	0.030968	10.8725	-0.344693	-21374	-1.448878E-6	NaN
398	1.000000	0.833165	7.36896e+06	-57189.1	1005.82	-29737.4	0.000000	0.000000	6.833065	-0.026619	NaN	0.000000	0.001621	0.001613	28.0821	0.079634	0.001979	40.2386	-141.908	16.819	-0.028872	0.831789	-0.332573	-0.333948	-0.026619	40.2386	-0.332077	-13991	1.902586E-6	NaN
398	1.000000	0.843151	7.36896e+06	-57189.1	1005.82	-29737.4	0.000000	0.000000	6.843053	-0.010125	NaN	0.000000	0.001619	0.001602	28.0823	0.014748	0.002006	7.351108	167.595	-165.32	0.086408	0.841834	-0.322586	-0.323903	-0.010125	7.351108	-0.321553	-9806.04	1.032527E-6	NaN
398	1.000000	0.853164	7.36896e+06	-57189.1	1005.82	-29737.4	0.000000	0.000000	6.853066	0.017333	NaN	0.000000	0.001620	0.001603	28.0823	0.057554	0.001942	29.6418	-77.7479	20.7979	-0.002507	0.851833	-0.312574	-0.313904	0.017333	29.6418	-0.313012	-7338.36	-2.362023E-6	NaN
398	1.000000	0.863191	7.36896e+06	-57189.1	1005.82	-29737.4	0.000000	0.000000	6.863096	0.072520	NaN	0.000000	0.001629	0.001642	28.081	0.032892	0.002064	15.9349	91.7367	-165.65	-0.025132	0.861898	-0.302546	-0.303839	0.072520	15.9349	-0.305959	-5770.19	-1.256812E-5	NaN
398	1.000000	0.873194	7.36896e+06	-57189.1	1005.82	-29737.4	0.000000	0.000000	6.873097	0.030279	NaN	0.000000	0.001629	0.001612	28.081	0.063943	0.001826	35.0097	106.971	17.0327	0.018884	0.871806	-0.292543	-0.293931	0.030279	35.0097	-0.293192	-3724.55	-8.129578E-6	NaN
398	1.000000	0.883214	7.36896e+06	-57189.1	1005.82	-29737.4	0.000000	0.000000	6.883116	-0.013069	NaN	0.000000	0.001605	0.001626	28.0809	0.059529	0.001949	30.5441	-137.144	-163.878	0.032572	0.881897	-0.282523	-0.283841	-0.013069	30.5441	-0.282202	-2547.81	5.129420E-6	NaN
398	1.000000	0.893197	7.36896e+06	-57189.1	1005.82	-29737.4	0.000000	0.000000	6.893099	0.004353	NaN	0.000000	0.001631	0.001596	28.0812	0.036104	0.001991	18.1312	-104.683	12.5029	-0.043167	0.891899	-0.272540	-0.273839	0.004353	18.1312	-0.272720	-1831.69	-2.376484E-6	NaN
398	1.000000	0.903184	7.36896e+06	-57189.1	1005.82	-29737.4	0.000000	0.000000	6.903090	0.086850	NaN	0.000000	0.001594	0.001583	28.081	0.087795	0.002025	43.3485	19.9239	-169.282	0.081234	0.901876	-0.262554	-0.263862	0.086850	43.3485	-0.264056	-1352	-6.423790E-5	NaN
398	1.000000	0.913223	7.36896e+06	-57189.1	1005.82	-29737.4	0.000000	0.000000	6.913125	0.000613	NaN	0.000000	0.001576	0.001610	28.0811	0.103332	0.001928	53.6065	46.6858	14.645	0.021631	0.911864	-0.252515	-0.253874	0.000613	53.6065	-0.252523	-899.386	-6.812764E-7	NaN
398	1.000000	0.923231	7.36896e+06	-57189.1	1005.82	-29737.4	0.000000	0.000000	6.923135	0.055363	NaN	0.000000	0.001582	0.001603	28.081	0.061284	0.001961	31.2488	-37.5031	-163.872	0.123189	0.921888	-0.242507	-0.243850	0.055363	31.2488	-0.243835	-659.693	-8.392253E-5	NaN
398	1.000000	0.933187	7.36896e+06	-57189.1	1005.82	-29737.4	0.000000	0.000000	6.933093	0.080741	NaN	0.000000	0.001599	0.001584	28.0815	0.125734	0.001948	64.5373	-101.234	17.4084	0.093908	0.931836	-0.232550	-0.233901	0.080741	64.5373	-0.233488	-454.456	-0.000178	NaN
398	1.000000	0.943215	7.36896e+06	-57189.1	1005.82	-29737.4	0.000000	0.000000	6.943121	0.092654	NaN	0.000000	0.001595	0.001585	28.0808	0.095559	0.001954	48.9032	78.6522	-166.945	0.069682	0.941886	-0.222522	-0.223852	0.092654	48.9032	-0.223943	-321.025	-0.000289	NaN
398	1.000000	0.953216	7.36896e+06	-57189.1	1005.82	-29737.4	0.000000	0.000000	6.953118	0.007471	NaN	0.000000	0.001597	0.001587	28.081	0.002896	0.001822	1.589018	-38.16	17.4337	-0.023142	0.951855	-0.212522	-0.213883	0.007471	1.589018	-0.216048	-240.08	-3.111852E-5	NaN
398	1.000000	0.963213	7.36896e+06	-57189.1	1005.82	-29737.4	0.000000	0.000000	6.963118	0.059057	NaN	0.000000	0.001593	0.001577	28.081	0.086904	0.001949	44.5903	155.569	-161.212	0.109398	0.961902	-0.202524	-0.203835	0.059057	44.5903	-0.203517	-150.435	-0.000393	NaN
398	1.000000	0.973246	7.36896e+06	-57189.1	1005.82	-29737.4	0.000000	0.000000	6.973148	-0.011662	NaN	0.000000	0.001623	0.001613	28.0808	0.064512	0.002008	32.1298	-35.396	13.3296	-0.009283	0.971860	-0.192491	-0.193878	-0.011662	32.1298	-0.192219	-97.9553	0.000119	NaN
398	1.000000	0.983218	7.36896e+06	-57189.1	1005.82	-29737.4	0.000000	0.000000	6.983123	0.064569	NaN	0.000000	0.001600	0.001585	28.0808	0.134465	0.002130	63.1264	138.481	-163.666	-0.021431	0.981952	-0.182519	-0.183786	0.064569	63.1264	-0.183286	-69.3749	-0.000931	NaN
398	1.000000	0.993259	7.36896e+06	-57189.1	1005.82	-29737.4	0.000000	0.000000	6.993162	0.011090	NaN	0.000000	0.001572	0.001596	28.0818	0.079243	0.001945	40.7455	39.3965	14.3862	0.076914	0.991847	-0.172478	-0.173891	0.011090	40.7455	-0.172682	-45.7153	-0.000243	NaN
398	1.000000	1.003260	7.36896e+06	-57189.1	1005.82	-29737.4	0.000000	0.000000	7.003160	-0.052244	NaN	0.000000	0.001599	0.001581	28.0823	0.068933	0.002085	33.0636	-153.974	-163.917	-0.054664	1.001904	-0.162478	-0.163834	-0.052244	33.0636	-0.161293	-28.9014	0.001808	NaN
398	1.000000	1.013249	7.36896e+06	-57189.1	1005.82	-29737.4	0.000000	0.000000	7.013152	0.008447	NaN	0.000000	0.001607	0.001573	28.0822	0.072997	0.002006	36.3942	139.596	16.2545	0.003661	1.011952	-0.152488	-0.153786	0.008447	36.3942	-0.152662	-20.2481	-0.000417	NaN
398	1.000000	1.023258	7.36896e+06	-57189.1	1005.82	-29737.4	0.000000	0.000000	7.023159	-0.019325	NaN	0.000000	0.001578	0.001591	28.0822	0.045982	0.001971	23.331	-50.9493	-161.97	-0.042233	1.021929	-0.142479	-0.143809	-0.019325	23.331	-0.141858	-12.8165	0.001508	NaN
398	1.000000	1.033246	7.36896e+06	-57189.1	1005.82	-29737.4	0.000000	0.000000	7.033150	0.036314	NaN	0.000000	0.001553	0.001586	28.0822	0.106911	0.002086	51.2439	-170.004	13.9066	-0.027670	1.031870	-0.132491	-0.133867	0.036314	51.2439	-0.133023	-8.717969	-0.004165	NaN
398	1.000000	1.043255	7.36896e+06	-57189.1	1005.82	-29737.4	0.000000	0.000000	7.043159	0.033478	NaN	0.000000	0.001567	0.001593	28.0821	0.024419	0.002050	11.9113	-85.1146	-163.87	0.051828	1.041942	-0.122482	-0.123796	0.033478	11.9113	-0.124590	-5.968692	-0.005609	NaN
398	1.000000	1.053240	7.36896e+06	-57189.1	1005.82	-29737.4	0.000000	0.000000	7.053143	0.001601	NaN	0.000000	0.001587	0.001600	28.0821	0.080401	0.001924	41.7992	158.406	14.7242	0.065456	1.051890	-0.112497	-0.113847	0.001601	41.7992	-0.112526	-3.394837	-0.000472	NaN
398	1.000000	1.063272	7.36896e+06	-57189.1	1005.82	-29737.4	0.000000	0.000000	7.063174	-0.003539	NaN	0.000000	0.001584	0.001594	28.0819	0.115016	0.002001	57.4879	152.891	-164.586	-0.028792	1.061961	-0.102466	-0.103777	-0.003539	57.4879	-0.102419	-2.065689	0.001713	NaN
398	1.000000	1.073265	7.36896e+06	-57189.1	1005.82	-29737.4	0.000000	0.000000	7.073166	-0.036605	NaN	0.000000	0.001610	0.001595	28.082	0.131066	0.001949	67.2402	103.583	13.8193	0.023581	1.071890	-0.092472	-0.093847	-0.036605	67.2402	-0.092064	-1.207656	0.030311	NaN
398	1.000000	1.083263	7.36896e+06	-57189.1	1005.82	-29737.4	0.000000	0.000000	7.083166	0.044157	NaN	0.000000	0.001594	0.001592	28.0821	0.158697	0.002159	73.5052	88.842	-164.947	0.002201	1.081980	-0.082475	-0.083758	0.044157	73.5052	-0.082925	-0.731362	-0.060376	NaN
398	1.000000	1.093282	7.36896e+06	-57189.1	1005.82	-29737.4	0.000000	0.000000	7.093188	0.076753	NaN	0.000000	0.001592	0.001582	28.0819	0.143325	0.001970	72.743	-166.435	12.797	0.096216	1.091873	-0.072455	-0.073864	0.076753	72.743	-0.073246	-0.415793	-0.184596	NaN
398	1.000000	1.103279	7.36896e+06	-57189.1	1005.82	-29737.4	0.000000	0.000000	7.103179	-0.041341	NaN	0.000000	0.001582	0.001590	28.082	0.091478	0.001918	47.6904	179.362	-165.838	-0.072032	1.101941	-0.062458	-0.063796	-0.041341	47.6904	-0.061808	-0.202797	0.203853	NaN
398	1.000000	1.113257	7.36896e+06	-57189.1	1005.82	-29737.4	0.000000	0.000000	7.113158	-0.025241	NaN	0.000000	0.001634	0.001640	28.0822	0.066874	0.002014	33.2038	137.667	12.3127	-0.023270	1.111914	-0.052481	-0.053823	-0.025241	33.2038	-0.051911	-0.104186	0.242265	NaN
398	1.000000	1.123282	7.36896e+06	-57189.1	1005.82	-29737.4	0.000000	0.000000	7.123183	-0.020230	NaN	0.000000	0.001619	0.001630	28.0821	0.096886	0.001949	49.722	110.845	-164.578	-0.007827	1.121941	-0.042455	-0.043797	-0.020230	49.722	-0.042150	-0.052584	0.384723	NaN
398	1.000000	1.133309	7.36896e+06	-57189.1	1005.82	-29737.4	0.000000	0.000000	7.133209	-0.042548	NaN	0.000000	0.001590	0.001647	28.0809	0.144652	0.001886	76.6995	-25.9674	15.1316	0.055594	1.131932	-0.032428	-0.033806	-0.042548	76.6995	-0.032012	-0.026228	1.622249	NaN
398	1.000000	1.143294	7.36896e+06	-57189.1	1005.82	-29737.4	0.000000	0.000000	7.143197	0.019362	NaN	0.000000	0.001557	0.001629	28.0811	0.066860	0.002018	33.1246	-89.6856	-162.57	-0.012197	1.141963	-0.022444	-0.023775	0.019362	33.1246	-0.022882	-0.014873	-1.301842	NaN
398	1.000000	1.153312	7.36896e+06	-57189.1	1005.82	-29737.4	0.000000	0.000000	7.153213	-0.026272	NaN	0.000000	0.001620	0.001654	28.0814	0.099329	0.002060	48.2227	14.2904	16.3183	0.033718	1.151977	-0.012425	-0.013761	-0.026272	48.2227	-0.012017	-0.007538	3.485257	NaN
398	1.000000	1.163310	7.36896e+06	-57189.1	1005.82	-29737.4	0.000000	0.000000	7.163211	-0.029648	NaN	0.000000	0.001652	0.001653	28.0811	0.169244	0.002103	80.4582	149.846	-163.062	0.017577	1.161999	-0.002428	-0.003738	-0.029648	80.4582	-0.002151	-0.001544	19.2041	NaN
398	1.000000	1.173257	7.36896e+06	-57189.1	1005.82	-29737.4	0.000000	0.000000	7.173450	7.072302	NaN	0.000000	0.001617	0.001623	28.081	7.615077	0.001849	4117.99	14.0899	8.269727	5.682189	1.171888	0.007519	0.006150	7.072302	4117.99	0.006231	0.005285	1338.11	51751.6
398	2.000000	1.176880	7.36896e+06	-57189.1	1005.82	-29737.4	0.000000	0.000000	7.177257	11.5367	NaN	0.000000	0.001642	0.001655	28.0812	10.5393	0.001644	6412.24	4.933669	-170.69	10.891	1.176591	0.011143	0.010853	11.5367	6412.24	0.009794	0.008953	1288.58	61915.4
398	2.000000	1.179345	7.36896e+06	-57189.1	1005.82	-29737.4	0.000000	0.000000	7.179853	14.7317	NaN	0.000000	0.001689	0.001612	28.0811	13.7118	0.001759	7794.33	8.066372	5.827231	13.5017	1.179011	0.013607	0.013274	14.7317	7794.33	0.012190	0.011718	1257.19	65784.9
398	2.000000	1.181870	7.36896e+06	-57189.1	1005.82	-29737.4	0.000000	0.000000	7.182521	18.2051	NaN	0.000000	0.001661	0.001624	28.0807	16.3046	0.001916	8508.23	8.236640	-174.19	18.8595	1.181556	0.016133	0.015819	18.2051	8508.23	0.014528	0.014661	1241.74	64199.5
398	2.000000	1.184365	7.36896e+06	-57189.1	1005.82	-29737.4	0.000000	0.000000	7.185261	24.1626	NaN	0.000000	0.001657	0.001625	28.0808	18.5743	0.001689	10998.6	7.641142	2.897482	24.3051	1.183986	0.018628	0.018248	24.1626	10998.6	0.016980	0.018017	1341.1	74863.3
398	2.000000	1.186814	7.36896e+06	-57189.1	1005.82	-29737.4	0.000000	0.000000	7.187960	30.2375	NaN	0.000000	0.001703	0.001627	28.0817	21.0776	0.001843	11438.2	9.380996	-178.759	29.728	1.186480	0.021076	0.020742	30.2375	11438.2	0.019094	0.021138	1430.47	71878.1
398	2.000000	1.189316	7.36896e+06	-57189.1	1005.82	-29737.4	0.000000	0.000000	7.190642	34.6086	NaN	0.000000	0.001648	0.001643	28.0809	22.9013	0.001626	14088.4	1.910564	6.288488	32.7513	1.188976	0.023579	0.023238	34.6086	14088.4	0.021737	0.025345	1365.51	80851.8
398	2.000000	1.191804	7.36896e+06	-57189.1	1005.82	-29737.4	0.000000	0.000000	7.193281	38.2952	NaN	0.000000	0.001660	0.001611	28.081	27.2411	0.001876	14517.7	7.629510	-179.958	38.1591	1.191564	0.026066	0.025827	38.2952	14517.7	0.024088	0.029377	1303.56	77386.2
398	2.000000	1.194328	7.36896e+06	-57189.1	1005.82	-29737.4	0.000000	0.000000	7.196183	47.457	NaN	0.000000	0.001686	0.001638	28.0811	29.4072	0.001726	17038.1	9.325207	-2.812125	46.847	1.193906	0.028591	0.028168	47.457	17038.1	0.026502	0.033805	1403.86	84665.4
398	2.000000	1.196779	7.36896e+06	-57189.1	1005.82	-29737.4	0.000000	0.000000	7.198866	53.1084	NaN	0.000000	0.001659	0.001609	28.0812	30.7867	0.001712	17986.5	4.575738	-178.554	50.8916	1.196485	0.031042	0.030747	53.1084	17986.5	0.028827	0.038348	1384.91	83916.7
398	2.000000	1.199267	7.36896e+06	-57189.1	1005.82	-29737.4	0.000000	0.000000	7.201669	60.7531	NaN	0.000000	0.001696	0.001641	28.0819	33.4246	0.001825	18316.4	1.580984	3.298370	58.5655	1.198999	0.033529	0.033262	60.7531	18316.4	0.031042	0.042931	1415.14	80766.1
398	2.000000	1.201770	7.36896e+06	-57189.1	1005.82	-29737.4	0.000000	0.000000	7.204632	71.953	NaN	0.000000	0.001634	0.001642	28.082	36.6331	0.001766	20739	5.941401	177.742	70.042	1.201477	0.036032	0.035740	71.953	20739	0.033430	0.048153	1494.24	86347.1
398	2.000000	1.204332	7.36896e+06	-57189.1	1005.82	-29737.4	0.000000	0.000000	7.207445	78.0342	NaN	0.000000	0.001621	0.001573	28.0821	37.97	0.001800	21095.7	5.103515	0.079662	77.5601	1.203907	0.038595	0.038169	78.0342	21095.7	0.035820	0.053673	1453.88	83193.1
398	2.000000	1.206756	7.36896e+06	-57189.1	1005.82	-29737.4	0.000000	0.000000	7.210295	88.3846	NaN	0.000000	0.001644	0.001623	28.0822	39.7422	0.001717	23142.3	3.118379	-179.945	86.5813	1.206483	0.041019	0.040746	88.3846	23142.3	0.038154	0.059346	1489.32	86793.1
398	2.000000	1.209258	7.36896e+06	-57189.1	1005.82	-29737.4	0.000000	0.000000	7.213264	99.7359	NaN	0.000000	0.001608	0.001594	28.082	42.5107	0.001727	24618.2	2.088598	0.926185	97.8528	1.208942	0.043521	0.043205	99.7359	24618.2	0.040482	0.065280	1527.81	88031.7
398	2.000000	1.211814	7.36896e+06	-57189.1	1005.82	-29737.4	0.000000	0.000000	7.216100	106.541	NaN	0.000000	0.001618	0.001562	28.082	46.2911	0.001808	25600.1	2.394703	179.815	106.699	1.211472	0.046077	0.045735	106.541	25600.1	0.042955	0.071889	1482.01	87233.3
398	2.000000	1.214229	7.36896e+06	-57189.1	1005.82	-29737.4	0.000000	0.000000	7.219079	120.255	NaN	0.000000	0.001585	0.001591	28.082	47.0364	0.001637	28734.2	3.089718	-1.585716	116.493	1.213871	0.048491	0.048134	120.255	28734.2	0.045353	0.078592	1530.12	93645
398	2.000000	1.216788	7.36896e+06	-57189.1	1005.82	-29737.4	0.000000	0.000000	7.222045	130.149	NaN	0.000000	0.001642	0.001615	28.0823	49.7126	0.001795	27700.1	4.072145	178.404	130.393	1.216437	0.051050	0.050700	130.149	27700.1	0.047526	0.084921	1532.58	86845.2
398	2.000000	1.219248	7.36896e+06	-57189.1	1005.82	-29737.4	0.000000	0.000000	7.224802	137.363	NaN	0.000000	0.001629	0.001645	28.0821	51.565	0.001860	27728.6	0.304677	1.451703	135.88	1.218929	0.053511	0.053192	137.363	27728.6	0.049795	0.091781	1496.64	83622.8
398	2.000000	1.221772	7.36896e+06	-57189.1	1005.82	-29737.4	0.000000	0.000000	7.228018	154.19	NaN	0.000000	0.001601	0.001619	28.0821	54.2893	0.001758	30876.9	4.258846	176.697	153.727	1.221459	0.056034	0.055722	154.19	30876.9	0.052289	0.099620	1547.78	89378.5
398	2.000000	1.224203	7.36896e+06	-57189.1	1005.82	-29737.4	0.000000	0.000000	7.230933	165.955	NaN	0.000000	0.001594	0.001640	28.0824	54.7497	0.001622	33761.5	1.954693	-1.392910	160.539	1.224015	0.058465	0.058277	165.955	33761.5	0.054779	0.107754	1540.13	93967.6
398	2.000000	1.226783	7.36896e+06	-57189.1	1005.82	-29737.4	0.000000	0.000000	7.234168	181.881	NaN	0.000000	0.001587	0.001617	28.0823	58.113	0.001789	32488.5	8.303124	172.841	183.292	1.226359	0.061045	0.060622	181.881	32488.5	0.056846	0.114744	1585.11	87627
398	2.000000	1.229229	7.36896e+06	-57189.1	1005.82	-29737.4	0.000000	0.000000	7.237115	194.061	NaN	0.000000	0.001561	0.001581	28.0823	61.2387	0.001832	33419.8	8.967931	-8.717729	191.834	1.228851	0.063491	0.063113	194.061	33419.8	0.059136	0.122728	1581.23	87157.5
398	2.000000	1.231662	7.36896e+06	-57189.1	1005.82	-29737.4	0.000000	0.000000	7.240468	216.432	NaN	0.000000	0.001619	0.001601	28.0812	62.6654	0.001702	36819.5	1.695893	178.473	211.219	1.231294	0.065924	0.065557	216.432	36819.5	0.061515	0.131299	1648.39	92837
398	2.000000	1.234285	7.36896e+06	-57189.1	1005.82	-29737.4	0.000000	0.000000	7.243535	227.209	NaN	0.000000	0.001606	0.001637	28.0812	65.2094	0.001662	39233.8	5.868573	-6.653435	226.182	1.233979	0.068548	0.068242	227.209	39233.8	0.064204	0.141315	1607.82	95354.1
398	2.000000	1.236739	7.36896e+06	-57189.1	1005.82	-29737.4	0.000000	0.000000	7.246774	246.304	NaN	0.000000	0.001652	0.001622	28.081	68.9479	0.001826	37750.3	8.848116	170.872	245.23	1.236352	0.071001	0.070615	246.304	37750.3	0.066108	0.148616	1657.32	89466.7
398	2.000000	1.239277	7.36896e+06	-57189.1	1005.82	-29737.4	0.000000	0.000000	7.249766	257.311	NaN	0.000000	0.001683	0.001612	28.081	72.5509	0.001762	41184.7	9.734427	-10.8892	257.752	1.238862	0.073540	0.073124	257.311	41184.7	0.068854	0.159457	1613.67	94229.6
398	2.000000	1.241765	7.36896e+06	-57189.1	1005.82	-29737.4	0.000000	0.000000	7.252641	266.724	NaN	0.000000	0.001668	0.001629	28.0809	74.4498	0.001795	41477.1	4.752071	173.423	266.975	1.241514	0.076027	0.075777	266.724	41477.1	0.071204	0.169021	1578.06	92174.7
398	2.000000	1.244300	7.36896e+06	-57189.1	1005.82	-29737.4	0.000000	0.000000	7.255798	281.83	NaN	0.000000	0.001664	0.001637	28.0809	75.4531	0.001697	44449.9	2.474986	-3.980892	283.616	1.244054	0.078563	0.078317	281.83	44449.9	0.073808	0.179921	1566.41	95742.2
398	2.000000	1.246830	7.36896e+06	-57189.1	1005.82	-29737.4	0.000000	0.000000	7.259262	304.554	NaN	0.000000	0.001722	0.001653	28.081	78.3375	0.001813	43208.8	5.287820	173.445	309.617	1.246276	0.081092	0.080539	304.554	43208.8	0.075806	0.188505	1615.63	90925.1
398	2.000000	1.249218	7.36896e+06	-57189.1	1005.82	-29737.4	0.000000	0.000000	7.262261	319.402	NaN	0.000000	0.001619	0.001675	28.0813	82.6272	0.001889	43744.6	8.840348	-10.4757	315.182	1.248799	0.083480	0.083062	319.402	43744.6	0.078004	0.198163	1611.81	89781.3
398	2.000000	1.251672	7.36896e+06	-57189.1	1005.82	-29737.4	0.000000	0.000000	7.265729	344.032	NaN	0.000000	0.001594	0.001697	28.0811	83.6827	0.001857	45059.4	5.401312	172.878	339.612	1.251477	0.085935	0.085739	344.032	45059.4	0.080209	0.208076	1653.4	90250.1
398	2.000000	1.254244	7.36896e+06	-57189.1	1005.82	-29737.4	0.000000	0.000000	7.269183	365.469	NaN	0.000000	0.001602	0.001697	28.0809	84.8548	0.001798	47195.4	4.651954	-6.686540	361.919	1.253871	0.088506	0.088134	365.469	47195.4	0.082699	0.219545	1664.67	92026.2
398	2.000000	1.256692	7.36896e+06	-57189.1	1005.82	-29737.4	0.000000	0.000000	7.272268	380.969	NaN	0.000000	0.001616	0.001667	28.0809	87.3712	0.001827	47829.6	4.486136	173.355	380.543	1.256317	0.090954	0.090579	380.969	47829.6	0.084981	0.230309	1654.16	91057.3
398	2.000000	1.259137	7.36896e+06	-57189.1	1005.82	-29737.4	0.000000	0.000000	7.275590	402.261	NaN	0.000000	0.001645	0.001702	28.0809	89.1846	0.001777	50183.1	5.041573	-7.157924	395.534	1.258818	0.093400	0.093081	402.261	50183.1	0.087388	0.241923	1662.76	93216.3
398	2.000000	1.261611	7.36896e+06	-57189.1	1005.82	-29737.4	0.000000	0.000000	7.278935	423.44	NaN	0.000000	0.001619	0.001713	28.0812	91.9889	0.001793	51295.6	1.186443	176.243	417.635	1.261416	0.095873	0.095678	423.44	51295.6	0.089682	0.253243	1672.07	93128.9
398	2.000000	1.264276	7.36896e+06	-57189.1	1005.82	-29737.4	0.000000	0.000000	7.282209	438.225	NaN	0.000000	0.001613	0.001712	28.0809	94.4551	0.001767	53442	3.796646	-6.257656	439.975	1.263924	0.098539	0.098186	438.225	53442	0.092389	0.266906	1641.87	94509.9
398	2.000000	1.266698	7.36896e+06	-57189.1	1005.82	-29737.4	0.000000	0.000000	7.285709	464.438	NaN	0.000000	0.001638	0.001694	28.0821	94.4591	0.001716	55038.9	2.490891	174.571	462.728	1.266384	0.100961	0.100647	464.438	55038.9	0.094632	0.278482	1667.75	95289.5
398	2.000000	1.269170	7.36896e+06	-57189.1	1005.82	-29737.4	0.000000	0.000000	7.288802	479.533	NaN	0.000000	0.001610	0.001668	28.0818	98.7074	0.001926	51241.8	3.855071	-6.885445	473.668	1.268940	0.103433	0.103202	479.533	51241.8	0.096414	0.287844	1665.95	87260.6
398	2.000000	1.271731	7.36896e+06	-57189.1	1005.82	-29737.4	0.000000	0.000000	7.292410	504.994	NaN	0.000000	0.001611	0.001680	28.0823	100.294	0.001752	57248.7	4.193593	171.964	506.45	1.271457	0.105993	0.105720	504.994	57248.7	0.099378	0.303731	1662.63	94906.1
398	2.000000	1.273270	7.36896e+06	-57189.1	1005.82	-29737.4	0.000000	0.000000	7.294683	522.814	NaN	0.000000	0.001621	0.001693	28.082	99.6934	0.001728	57686.4	0.942374	-4.086234	524.287	1.272766	0.107533	0.107028	522.814	57686.4	0.100735	0.311143	1680.3	94485.7