File: remote_trans/data/nanoindenter/0828-1/data/Data_2025-08-06,11h17m57s/2025-07-22_16-23-58_1_734.txt
2025-07-22, 16:23:58, 1
Index	Phase	Displacement	Time	Pos X	Pos Y	Pos Z	Rot A	Rot B	Piezo Z	Force A	Force B	Gripper	Voltage A	Voltage B	Temperature	Amplitude force	Amplitude pos	Stiffness	Phase shift	Phase excitation	Force A raw	Displacement raw	HMax	HMax raw	Real Force	Real Stiffness	Contact Depth	Area	Hardness	Reduced Mod.
[#]	[#]	[um]	[s]	[um]	[um]	[um]	[m°]	[m°]	[um]	[uN]	[uN]	[V]	[V]	[V]	[°C]	[uN]	[um]	[N/m]	[°]	[°]	[uN]	[um]	[um]	[um]	[uN]	[N/m]	[um]	[um^2]	[MPa]	[MPa]
734	1.000000	0.002080	7.37223e+06	-40389.1	1005.82	-29790.1	0.000000	0.000000	6.002784	-0.027018	NaN	0.000000	0.001779	0.001768	28.0818	0.095771	0.000925	103.559	-153.523	-168.416	0.043609	0.000827	-1.047607	-1.048860	-0.027018	103.559	-1.047412	-9.854149E+13	2.741771E-16	NaN
734	1.000000	0.010041	7.37223e+06	-40389.1	1005.82	-29790.1	0.000000	0.000000	6.010747	0.037188	NaN	0.000000	0.001743	0.001757	28.0815	0.042679	0.000821	51.9972	-106.796	-163.753	-0.060323	0.008714	-1.039646	-1.040973	0.037188	51.9972	-1.040183	-7.878123E+13	-4.720374E-16	NaN
734	1.000000	0.018042	7.37223e+06	-40389.1	1005.82	-29790.1	0.000000	0.000000	6.018749	0.032453	NaN	0.000000	0.001707	0.001776	28.0817	0.024621	0.001773	13.8872	-83.7178	-166.145	0.058734	0.016694	-1.031645	-1.032993	0.032453	13.8872	-1.033398	-6.385238E+13	-5.082527E-16	NaN
734	1.000000	0.026083	7.37223e+06	-40389.1	1005.82	-29790.1	0.000000	0.000000	6.026786	-0.043497	NaN	0.000000	0.001682	0.001773	28.0814	0.066596	0.001864	35.7316	-27.8454	-161.981	-0.071037	0.024708	-1.023604	-1.024979	-0.043497	35.7316	-1.022691	-4.583055E+13	9.490775E-16	NaN
734	1.000000	0.034021	7.37223e+06	-40389.1	1005.82	-29790.1	0.000000	0.000000	6.034725	-0.022137	NaN	0.000000	0.001734	0.001765	28.0813	0.078261	0.001800	43.4853	10.7406	-166.894	0.027333	0.032725	-1.015666	-1.016962	-0.022137	43.4853	-1.015285	-3.643369E+13	6.076004E-16	NaN
734	1.000000	0.042044	7.37223e+06	-40389.1	1005.82	-29790.1	0.000000	0.000000	6.042747	-0.057412	NaN	0.000000	0.001713	0.001764	28.0828	0.041163	0.002057	20.0125	155.133	-163.86	0.016912	0.040691	-1.007643	-1.008996	-0.057412	20.0125	-1.005491	-2.689635E+13	2.134582E-15	NaN
734	1.000000	0.050037	7.37223e+06	-40389.1	1005.82	-29790.1	0.000000	0.000000	6.050739	-0.066015	NaN	0.000000	0.001732	0.001771	28.0827	0.108392	0.001896	57.1699	56.5656	-161.893	0.028284	0.048708	-0.999650	-1.000979	-0.066015	57.1699	-0.998784	-2.184736E+13	3.021669E-15	NaN
734	1.000000	0.058056	7.37223e+06	-40389.1	1005.82	-29790.1	0.000000	0.000000	6.058761	0.009275	NaN	0.000000	0.001705	0.001772	28.0828	0.050235	0.002016	24.9126	-133.074	-166.313	-0.015354	0.056735	-0.991631	-0.992952	0.009275	24.9126	-0.991911	-1.765399E+13	-5.253890E-16	NaN
734	1.000000	0.066035	7.37223e+06	-40389.1	1005.82	-29790.1	0.000000	0.000000	6.066739	-0.007159	NaN	0.000000	0.001749	0.001781	28.0824	0.121600	0.001971	61.6962	-100.834	-164.886	0.002606	0.064729	-0.983652	-0.984958	-0.007159	61.6962	-0.983565	-1.362825E+13	5.253311E-16	NaN
734	1.000000	0.074042	7.37223e+06	-40389.1	1005.82	-29790.1	0.000000	0.000000	6.074747	0.003503	NaN	0.000000	0.001733	0.001729	28.0824	0.044299	0.001958	22.6286	143.834	-164.503	-0.006522	0.072732	-0.975645	-0.976955	0.003503	22.6286	-0.975761	-1.069796E+13	-3.274512E-16	NaN
734	1.000000	0.082040	7.37223e+06	-40389.1	1005.82	-29790.1	0.000000	0.000000	6.082746	0.032611	NaN	0.000000	0.001716	0.001776	28.0841	0.034044	0.002160	15.7608	157.109	-165.066	0.019403	0.080744	-0.967647	-0.968943	0.032611	15.7608	-0.969199	-8.727121E+12	-3.736692E-15	NaN
734	1.000000	0.090042	7.37223e+06	-40389.1	1005.82	-29790.1	0.000000	0.000000	6.090747	0.017953	NaN	0.000000	0.001729	0.001769	28.0825	0.054821	0.001978	27.7147	-32.6896	-162.864	0.049711	0.088719	-0.959645	-0.960968	0.017953	27.7147	-0.960131	-6.586254E+12	-2.725869E-15	NaN
734	1.000000	0.098047	7.37223e+06	-40389.1	1005.82	-29790.1	0.000000	0.000000	6.098750	-0.040865	NaN	0.000000	0.001708	0.001732	28.0825	0.047828	0.001849	25.8616	73.0205	-166.078	-0.132264	0.096725	-0.951640	-0.952962	-0.040865	25.8616	-0.950455	-4.877090E+12	8.378905E-15	NaN
734	1.000000	0.106076	7.37223e+06	-40389.1	1005.82	-29790.1	0.000000	0.000000	6.106780	-0.027253	NaN	0.000000	0.001711	0.001807	28.0824	0.080678	0.002000	40.3484	165.067	-165.22	-0.083855	0.104720	-0.943611	-0.944967	-0.027253	40.3484	-0.943105	-3.881676E+12	7.021064E-15	NaN
734	1.000000	0.114064	7.37223e+06	-40389.1	1005.82	-29790.1	0.000000	0.000000	6.114769	-0.017920	NaN	0.000000	0.001721	0.001794	28.0823	0.018834	0.001938	9.716763	163.858	-163.725	-0.053149	0.112724	-0.935623	-0.936963	-0.017920	9.716763	-0.934240	-2.947213E+12	6.080194E-15	NaN
734	1.000000	0.122095	7.37223e+06	-40389.1	1005.82	-29790.1	0.000000	0.000000	6.122798	-0.031801	NaN	0.000000	0.001729	0.001779	28.0829	0.069226	0.002054	33.71	161.843	-166.759	-0.084544	0.120758	-0.927592	-0.928929	-0.031801	33.71	-0.926885	-2.345049E+12	1.356094E-14	NaN
734	1.000000	0.130060	7.37223e+06	-40389.1	1005.82	-29790.1	0.000000	0.000000	6.130768	0.089211	NaN	0.000000	0.001713	0.001739	28.0825	0.104336	0.001996	52.283	82.0923	-165.671	0.082548	0.128750	-0.919627	-0.920937	0.089211	52.283	-0.920907	-1.947381E+12	-4.581095E-14	NaN
734	1.000000	0.138067	7.37223e+06	-40389.1	1005.82	-29790.1	0.000000	0.000000	6.138769	-0.077276	NaN	0.000000	0.001783	0.001731	28.0827	0.126782	0.002043	62.0483	101.997	-163.039	-0.087416	0.136738	-0.911620	-0.912949	-0.077276	62.0483	-0.910685	-1.417168E+12	5.452835E-14	NaN
734	1.000000	0.146085	7.37223e+06	-40389.1	1005.82	-29790.1	0.000000	0.000000	6.146792	0.045651	NaN	0.000000	0.001758	0.001771	28.0826	0.097899	0.002043	47.9075	-145.567	-166.691	-0.019136	0.144742	-0.903602	-0.904945	0.045651	47.9075	-0.904317	-1.162487E+12	-3.926994E-14	NaN
734	1.000000	0.154073	7.37223e+06	-40389.1	1005.82	-29790.1	0.000000	0.000000	6.154776	-0.061968	NaN	0.000000	0.001765	0.001773	28.0823	0.102937	0.002074	49.6401	-100.062	-167.479	-0.023652	0.152761	-0.895614	-0.896926	-0.061968	49.6401	-0.894678	-8.612736E+11	7.194909E-14	NaN
734	1.000000	0.162082	7.37223e+06	-40389.1	1005.82	-29790.1	0.000000	0.000000	6.162787	0.002174	NaN	0.000000	0.001762	0.001747	28.0826	0.125036	0.002021	61.8825	150.605	-161.332	0.034051	0.160763	-0.887605	-0.888924	0.002174	61.8825	-0.887632	-6.916688E+11	-3.142419E-15	NaN
734	1.000000	0.170072	7.37223e+06	-40389.1	1005.82	-29790.1	0.000000	0.000000	6.170778	0.022400	NaN	0.000000	0.001786	0.001757	28.0823	0.052766	0.002037	25.8998	-2.010082	-162.405	-0.070727	0.168766	-0.879615	-0.880921	0.022400	25.8998	-0.880263	-5.498844E+11	-4.073585E-14	NaN
734	1.000000	0.178095	7.37223e+06	-40389.1	1005.82	-29790.1	0.000000	0.000000	6.178799	-0.029026	NaN	0.000000	0.001757	0.001769	28.0815	0.116422	0.002035	57.2034	-102.315	-164.522	-0.065127	0.176767	-0.871592	-0.872920	-0.029026	57.2034	-0.871212	-4.147981E+11	6.997630E-14	NaN
734	1.000000	0.186087	7.37223e+06	-40389.1	1005.82	-29790.1	0.000000	0.000000	6.186793	0.024996	NaN	0.000000	0.001743	0.001751	28.0812	0.077812	0.001937	40.1744	115.873	-162.765	-0.029188	0.184772	-0.863600	-0.864915	0.024996	40.1744	-0.864067	-3.320150E+11	-7.528578E-14	NaN
734	1.000000	0.194128	7.37223e+06	-40389.1	1005.82	-29790.1	0.000000	0.000000	6.194832	-0.014111	NaN	0.000000	0.001731	0.001772	28.0812	0.031265	0.001967	15.8956	50.749	-163.161	0.070353	0.192792	-0.855559	-0.856895	-0.014111	15.8956	-0.854894	-2.494572E+11	5.656727E-14	NaN
734	1.000000	0.202105	7.37223e+06	-40389.1	1005.82	-29790.1	0.000000	0.000000	6.202810	-0.020854	NaN	0.000000	0.001695	0.001746	28.0813	0.104721	0.002005	52.2201	170.86	-164.156	-0.034876	0.200802	-0.847582	-0.848885	-0.020854	52.2201	-0.847282	-1.967571E+11	1.059880E-13	NaN
734	1.000000	0.210120	7.37223e+06	-40389.1	1005.82	-29790.1	0.000000	0.000000	6.210819	-0.161412	NaN	0.000000	0.001723	0.001765	28.0814	0.087501	0.001993	43.9132	96.2047	-167.715	-0.082592	0.208862	-0.839567	-0.840825	-0.161412	43.9132	-0.836810	-1.419288E+11	1.137274E-12	NaN
734	1.000000	0.218113	7.37223e+06	-40389.1	1005.82	-29790.1	0.000000	0.000000	6.218818	0.012867	NaN	0.000000	0.001716	0.001772	28.0818	0.081288	0.001933	42.0462	79.6596	-162.555	-0.016800	0.216780	-0.831574	-0.832907	0.012867	42.0462	-0.831804	-1.214032E+11	-1.059874E-13	NaN
734	1.000000	0.226137	7.37224e+06	-40389.1	1005.82	-29790.1	0.000000	0.000000	6.226841	-0.026140	NaN	0.000000	0.001744	0.001733	28.0814	0.059213	0.002087	28.3676	-12.4813	-166.898	-0.026922	0.224828	-0.823550	-0.824859	-0.026140	28.3676	-0.822859	-9.182922E+10	2.846562E-13	NaN
734	1.000000	0.234127	7.37224e+06	-40389.1	1005.82	-29790.1	0.000000	0.000000	6.234832	-0.003322	NaN	0.000000	0.001759	0.001728	28.0813	0.064878	0.002020	32.1186	171.684	-160.744	0.034278	0.232780	-0.815560	-0.816907	-0.003322	32.1186	-0.815482	-7.293566E+10	4.554932E-14	NaN
734	1.000000	0.242099	7.37224e+06	-40389.1	1005.82	-29790.1	0.000000	0.000000	6.242803	-0.020608	NaN	0.000000	0.001780	0.001741	28.0812	0.027868	0.001972	14.1344	22.5953	-162.916	-0.056588	0.240842	-0.807588	-0.808845	-0.020608	14.1344	-0.806495	-5.508196E+10	3.741281E-13	NaN
734	1.000000	0.250133	7.37224e+06	-40389.1	1005.82	-29790.1	0.000000	0.000000	6.250837	-0.023615	NaN	0.000000	0.001751	0.001758	28.0817	0.046610	0.002006	23.2389	-53.3734	-162.211	-0.040952	0.248804	-0.799554	-0.800883	-0.023615	23.2389	-0.798792	-4.329698E+10	5.454163E-13	NaN
734	1.000000	0.258132	7.37224e+06	-40389.1	1005.82	-29790.1	0.000000	0.000000	6.258838	0.020536	NaN	0.000000	0.001758	0.001784	28.0816	0.032814	0.001871	17.5425	57.5724	-163.683	0.086870	0.256820	-0.791555	-0.792867	0.020536	17.5425	-0.792433	-3.549125E+10	-5.786283E-13	NaN
734	1.000000	0.266118	7.37224e+06	-40389.1	1005.82	-29790.1	0.000000	0.000000	6.266823	0.003695	NaN	0.000000	0.001757	0.001769	28.0814	0.043686	0.001993	21.9174	173.067	-165.1	-0.068439	0.264827	-0.783569	-0.784860	0.003695	21.9174	-0.783696	-2.700513E+10	-1.368443E-13	NaN
734	1.000000	0.274138	7.37224e+06	-40389.1	1005.82	-29790.1	0.000000	0.000000	6.274841	-0.031290	NaN	0.000000	0.001769	0.001750	28.0816	0.090502	0.002039	44.3848	-122.519	-165.051	0.013260	0.272777	-0.775550	-0.776910	-0.031290	44.3848	-0.775021	-2.058546E+10	1.520005E-12	NaN
734	1.000000	0.282163	7.37224e+06	-40389.1	1005.82	-29790.1	0.000000	0.000000	6.282865	-0.073718	NaN	0.000000	0.001747	0.001733	28.0815	0.080122	0.001956	40.9651	-179.001	-167.627	-0.061723	0.280823	-0.767524	-0.768864	-0.073718	40.9651	-0.766174	-1.560553E+10	4.723848E-12	NaN
734	1.000000	0.290136	7.37224e+06	-40389.1	1005.82	-29790.1	0.000000	0.000000	6.290839	-0.036107	NaN	0.000000	0.001735	0.001715	28.0817	0.018835	0.001991	9.458284	4.002340	-163.308	0.005470	0.288818	-0.759551	-0.760869	-0.036107	9.458284	-0.756688	-1.159431E+10	3.114199E-12	NaN
734	1.000000	0.298165	7.37224e+06	-40389.1	1005.82	-29790.1	0.000000	0.000000	6.298872	0.052950	NaN	0.000000	0.001742	0.001726	28.0816	0.035470	0.002029	17.4801	-74.7651	-162.468	0.007358	0.296819	-0.751522	-0.752868	0.052950	17.4801	-0.753794	-1.058923E+10	-5.000395E-12	NaN
734	1.000000	0.306145	7.37224e+06	-40389.1	1005.82	-29790.1	0.000000	0.000000	6.306850	0.012472	NaN	0.000000	0.001762	0.001733	28.0817	0.047135	0.002095	22.4996	-127.379	-168.266	-0.040733	0.304844	-0.743542	-0.744843	0.012472	22.4996	-0.743958	-7.779608E+9	-1.603210E-12	NaN
734	1.000000	0.314160	7.37224e+06	-40389.1	1005.82	-29790.1	0.000000	0.000000	6.314865	-0.014865	NaN	0.000000	0.001759	0.001732	28.0833	0.195031	0.002171	89.8268	60.9424	-165.223	-0.084391	0.312884	-0.735527	-0.736803	-0.014865	89.8268	-0.735402	-5.948747E+9	2.498914E-12	NaN
734	1.000000	0.322132	7.37224e+06	-40389.1	1005.82	-29790.1	0.000000	0.000000	6.322836	-0.032075	NaN	0.000000	0.001766	0.001718	28.0827	0.148516	0.001974	75.2174	19.4036	-167.983	-0.018145	0.320832	-0.727555	-0.728855	-0.032075	75.2174	-0.727235	-4.603815E+9	6.967071E-12	NaN
734	1.000000	0.330160	7.37224e+06	-40389.1	1005.82	-29790.1	0.000000	0.000000	6.330866	0.018282	NaN	0.000000	0.001767	0.001727	28.083	0.028740	0.001987	14.4617	-97.1948	-166.232	0.089762	0.328889	-0.719527	-0.720798	0.018282	14.4617	-0.720475	-3.723482E+9	-4.910022E-12	NaN
734	1.000000	0.338177	7.37224e+06	-40389.1	1005.82	-29790.1	0.000000	0.000000	6.338885	0.084947	NaN	0.000000	0.001731	0.001716	28.0829	0.055797	0.001943	28.7145	22.9146	-163.273	0.044855	0.336869	-0.711510	-0.712818	0.084947	28.7145	-0.713729	-3.012533E+9	-2.819796E-11	NaN
734	1.000000	0.346165	7.37224e+06	-40389.1	1005.82	-29790.1	0.000000	0.000000	6.346871	0.026888	NaN	0.000000	0.001712	0.001728	28.0828	0.093912	0.002132	44.0426	158.161	-165.136	0.136832	0.344913	-0.703522	-0.704774	0.026888	44.0426	-0.703980	-2.217533E+9	-1.212520E-11	NaN
734	1.000000	0.354169	7.37224e+06	-40389.1	1005.82	-29790.1	0.000000	0.000000	6.354872	-0.064124	NaN	0.000000	0.001751	0.001704	28.0831	0.075063	0.001958	38.3413	34.0445	-163.392	-0.018503	0.352856	-0.695518	-0.696831	-0.064124	38.3413	-0.694263	-1.633702E+9	3.925094E-11	NaN
734	1.000000	0.362165	7.37224e+06	-40389.1	1005.82	-29790.1	0.000000	0.000000	6.362872	0.057735	NaN	0.000000	0.001759	0.001727	28.0828	0.091291	0.002035	44.8621	166.599	-166.409	0.067847	0.360865	-0.687522	-0.688822	0.057735	44.8621	-0.688487	-1.362205E+9	-4.238359E-11	NaN
734	1.000000	0.370151	7.37224e+06	-40389.1	1005.82	-29790.1	0.000000	0.000000	6.370859	0.064820	NaN	0.000000	0.001766	0.001738	28.0831	0.024408	0.002050	11.9054	162.954	-162.994	0.033893	0.368866	-0.679536	-0.680821	0.064820	11.9054	-0.683619	-1.168680E+9	-5.546413E-11	NaN
734	1.000000	0.378154	7.37224e+06	-40389.1	1005.82	-29790.1	0.000000	0.000000	6.378857	-0.059285	NaN	0.000000	0.001779	0.001703	28.0829	0.043863	0.001815	24.1617	-9.376634	-162.574	-0.033409	0.376894	-0.671533	-0.672793	-0.059285	24.1617	-0.669693	-7.536740E+8	7.866145E-11	NaN
734	1.000000	0.386207	7.37224e+06	-40389.1	1005.82	-29790.1	0.000000	0.000000	6.386907	-0.103782	NaN	0.000000	0.001782	0.001699	28.0828	0.096175	0.002127	45.2118	167.426	-161.39	-0.048153	0.384887	-0.663480	-0.664800	-0.103782	45.2118	-0.661759	-5.868930E+8	1.768325E-10	NaN
734	1.000000	0.394164	7.37224e+06	-40389.1	1005.82	-29790.1	0.000000	0.000000	6.394867	-0.053156	NaN	0.000000	0.001750	0.001718	28.0829	0.079087	0.002081	38.0065	-171.474	-165.759	-0.058357	0.392936	-0.655523	-0.656751	-0.053156	38.0065	-0.654474	-4.663964E+8	1.139718E-10	NaN
734	1.000000	0.402193	7.37224e+06	-40389.1	1005.82	-29790.1	0.000000	0.000000	6.402896	-0.038630	NaN	0.000000	0.001748	0.001716	28.0826	0.062089	0.001960	31.6775	-95.8198	-167.018	0.022986	0.400864	-0.647494	-0.648823	-0.038630	31.6775	-0.646580	-3.635300E+8	1.062636E-10	NaN
734	1.000000	0.410178	7.37224e+06	-40389.1	1005.82	-29790.1	0.000000	0.000000	6.410882	-0.037668	NaN	0.000000	0.001774	0.001726	28.0831	0.081257	0.001908	42.5935	68.4602	-164.219	-0.079002	0.408947	-0.639509	-0.640740	-0.037668	42.5935	-0.638846	-2.847406E+8	1.322901E-10	NaN
734	1.000000	0.418199	7.37224e+06	-40389.1	1005.82	-29790.1	0.000000	0.000000	6.418904	-0.004664	NaN	0.000000	0.001795	0.001724	28.0826	0.073397	0.001945	37.7285	-20.2126	-165.805	-0.049393	0.416860	-0.631488	-0.632827	-0.004664	37.7285	-0.631395	-2.249997E+8	2.072796E-11	NaN
734	1.000000	0.426187	7.37224e+06	-40389.1	1005.82	-29790.1	0.000000	0.000000	6.426892	0.018807	NaN	0.000000	0.001774	0.001709	28.0828	0.031663	0.002051	15.4352	39.4542	-164.629	0.035360	0.424906	-0.623500	-0.624781	0.018807	15.4352	-0.624414	-1.804247E+8	-1.042385E-10	NaN
734	1.000000	0.434184	7.37224e+06	-40389.1	1005.82	-29790.1	0.000000	0.000000	6.434887	-0.043293	NaN	0.000000	0.001772	0.001704	28.0827	0.035982	0.002009	17.9146	63.2865	-167.045	-0.140288	0.432892	-0.615503	-0.616795	-0.043293	17.9146	-0.613691	-1.284952E+8	3.369255E-10	NaN
734	1.000000	0.442200	7.37224e+06	-40389.1	1005.82	-29790.1	0.000000	0.000000	6.442902	-0.052297	NaN	0.000000	0.001751	0.001714	28.0826	0.103451	0.002081	49.7071	119.111	-168.157	-0.024134	0.440889	-0.607487	-0.608798	-0.052297	49.7071	-0.606698	-1.029629E+8	5.079250E-10	NaN
734	1.000000	0.450215	7.37224e+06	-40389.1	1005.82	-29790.1	0.000000	0.000000	6.450919	-0.035163	NaN	0.000000	0.001782	0.001706	28.0818	0.068562	0.002010	34.1181	-168.052	-163.553	0.004268	0.448900	-0.599472	-0.600787	-0.035163	34.1181	-0.598699	-7.989888E+7	4.400931E-10	NaN
734	1.000000	0.458223	7.37224e+06	-40389.1	1005.82	-29790.1	0.000000	0.000000	6.458924	-0.096431	NaN	0.000000	0.001786	0.001732	28.0813	0.097007	0.001916	50.6347	-124.069	-168.811	-0.085723	0.456906	-0.591464	-0.592781	-0.096431	50.6347	-0.590036	-6.069549E+7	1.588759E-9	NaN
734	1.000000	0.466209	7.37224e+06	-40389.1	1005.82	-29790.1	0.000000	0.000000	6.466912	-0.043438	NaN	0.000000	0.001777	0.001731	28.0815	0.062567	0.001990	31.4399	133.166	-168.129	-0.028613	0.464911	-0.583478	-0.584776	-0.043438	31.4399	-0.582442	-4.768989E+7	9.108511E-10	NaN
734	1.000000	0.474201	7.37224e+06	-40389.1	1005.82	-29790.1	0.000000	0.000000	6.474906	-0.016382	NaN	0.000000	0.001770	0.001714	28.0814	0.043992	0.002057	21.3855	48.6256	-166.415	0.024605	0.472887	-0.575486	-0.576800	-0.016382	21.3855	-0.574911	-3.753806E+7	4.364105E-10	NaN
734	1.000000	0.482196	7.37224e+06	-40389.1	1005.82	-29790.1	0.000000	0.000000	6.482898	-0.064459	NaN	0.000000	0.001763	0.001729	28.0814	0.037675	0.001903	19.7959	-141.077	-167.149	-0.170172	0.480955	-0.567491	-0.568732	-0.064459	19.7959	-0.565049	-2.742877E+7	2.350035E-9	NaN
734	1.000000	0.490232	7.37224e+06	-40389.1	1005.82	-29790.1	0.000000	0.000000	6.490936	-0.025279	NaN	0.000000	0.001735	0.001751	28.0817	0.077150	0.001969	39.1822	130.44	-167.943	0.004123	0.488959	-0.559455	-0.560728	-0.025279	39.1822	-0.558971	-2.260164E+7	1.118471E-9	NaN
734	1.000000	0.498228	7.37224e+06	-40389.1	1005.82	-29790.1	0.000000	0.000000	6.498931	-0.044040	NaN	0.000000	0.001773	0.001749	28.0814	0.078005	0.002059	37.8793	124.239	-164.913	-0.035990	0.496923	-0.551459	-0.552764	-0.044040	37.8793	-0.550587	-1.730163E+7	2.545453E-9	NaN
734	1.000000	0.506238	7.37224e+06	-40389.1	1005.82	-29790.1	0.000000	0.000000	6.506942	-0.016720	NaN	0.000000	0.001778	0.001768	28.0817	0.081768	0.001914	42.7194	-50.5333	-164.405	0.020065	0.504940	-0.543449	-0.544747	-0.016720	42.7194	-0.543156	-1.364941E+7	1.224925E-9	NaN
734	1.000000	0.514274	7.37224e+06	-40389.1	1005.82	-29790.1	0.000000	0.000000	6.514975	-0.080278	NaN	0.000000	0.001746	0.001782	28.0816	0.072883	0.001993	36.5631	106.053	-162.162	-0.096851	0.512950	-0.535413	-0.536737	-0.080278	36.5631	-0.533767	-1.011284E+7	7.938271E-9	NaN
734	1.000000	0.522240	7.37224e+06	-40389.1	1005.82	-29790.1	0.000000	0.000000	6.522942	-0.066506	NaN	0.000000	0.001774	0.001773	28.0816	0.050142	0.001958	25.6093	68.7105	-167.021	-0.028230	0.520941	-0.527447	-0.528746	-0.066506	25.6093	-0.525499	-7.76333e+06	8.566699E-9	NaN
734	1.000000	0.530244	7.37224e+06	-40389.1	1005.82	-29790.1	0.000000	0.000000	6.530949	0.003354	NaN	0.000000	0.001805	0.001746	28.0819	0.096670	0.001997	48.4004	120.607	-162.475	0.022500	0.528931	-0.519443	-0.520756	0.003354	48.4004	-0.519495	-6.40583e+06	-5.235638E-10	NaN
734	1.000000	0.538250	7.37224e+06	-40389.1	1005.82	-29790.1	0.000000	0.000000	6.538955	0.001591	NaN	0.000000	0.001770	0.001767	28.0816	0.034360	0.002072	16.5845	-150.445	-165.08	0.012481	0.536926	-0.511437	-0.512761	0.001591	16.5845	-0.511509	-4.95936e+06	-3.208343E-10	NaN
734	1.000000	0.546254	7.37224e+06	-40389.1	1005.82	-29790.1	0.000000	0.000000	6.546960	0.007678	NaN	0.000000	0.001772	0.001747	28.0817	0.132954	0.002022	65.7416	-88.0771	-165.311	0.077451	0.544942	-0.503433	-0.504745	0.007678	65.7416	-0.503520	-3.83808e+06	-2.000607E-9	NaN
734	1.000000	0.554237	7.37224e+06	-40389.1	1005.82	-29790.1	0.000000	0.000000	6.554941	-0.023039	NaN	0.000000	0.001785	0.001778	28.0815	0.064037	0.001932	33.1435	45.2209	-166.778	0.013251	0.552962	-0.495450	-0.496725	-0.023039	33.1435	-0.494929	-2.91232e+06	7.910738E-9	NaN
734	1.000000	0.562268	7.37224e+06	-40389.1	1005.82	-29790.1	0.000000	0.000000	6.562972	-0.024489	NaN	0.000000	0.001707	0.001745	28.0817	0.103966	0.002009	51.7603	-79.0694	-164.411	-0.018913	0.560940	-0.487419	-0.488747	-0.024489	51.7603	-0.487064	-2.2613e+06	1.082971E-8	NaN
734	1.000000	0.570285	7.37224e+06	-40389.1	1005.82	-29790.1	0.000000	0.000000	6.570991	0.042700	NaN	0.000000	0.001700	0.001706	28.0819	0.019647	0.001927	10.1935	-11.4474	-161.884	0.008833	0.568922	-0.479402	-0.480765	0.042700	10.1935	-0.482544	-1.95495e+06	-2.184224E-8	NaN
734	1.000000	0.578270	7.37224e+06	-40389.1	1005.82	-29790.1	0.000000	0.000000	6.578970	-0.118839	NaN	0.000000	0.001671	0.001743	28.0819	0.005292	0.002009	2.634454	-79.341	-167.83	-0.066382	0.577025	-0.471417	-0.472662	-0.118839	2.634454	-0.437585	-456317	2.604309E-7	NaN
734	1.000000	0.586282	7.37224e+06	-40389.1	1005.82	-29790.1	0.000000	0.000000	6.586987	-0.004279	NaN	0.000000	0.001704	0.001748	28.0829	0.103938	0.002018	51.5063	130.212	-163.055	0.022182	0.584956	-0.463405	-0.464731	-0.004279	51.5063	-0.463343	-1.0519e+06	4.067871E-9	NaN
734	1.000000	0.594268	7.37224e+06	-40389.1	1005.82	-29790.1	0.000000	0.000000	6.594974	0.027023	NaN	0.000000	0.001692	0.001738	28.0829	0.011010	0.002009	5.478945	108.607	-165.399	0.000144	0.592987	-0.455419	-0.456700	0.027023	5.478945	-0.459118	-917544	-2.945189E-8	NaN
734	1.000000	0.602274	7.37224e+06	-40389.1	1005.82	-29790.1	0.000000	0.000000	6.602979	0.001829	NaN	0.000000	0.001705	0.001712	28.083	0.104372	0.002092	49.8826	146.019	-164.234	0.015105	0.600997	-0.447413	-0.448690	0.001829	49.8826	-0.447441	-628482	-2.909643E-9	NaN
734	1.000000	0.610269	7.37224e+06	-40389.1	1005.82	-29790.1	0.000000	0.000000	6.610973	-0.021967	NaN	0.000000	0.001695	0.001691	28.083	0.022471	0.002087	10.7645	71.7464	-165.57	-0.012358	0.608999	-0.439418	-0.440688	-0.021967	10.7645	-0.437888	-460835	4.766767E-8	NaN
734	1.000000	0.618293	7.37224e+06	-40389.1	1005.82	-29790.1	0.000000	0.000000	6.618997	-0.009412	NaN	0.000000	0.001722	0.001748	28.0831	0.097199	0.001924	50.5077	-41.0669	-161.772	-0.011850	0.616970	-0.431394	-0.432717	-0.009412	50.5077	-0.431255	-371371	2.534517E-8	NaN
734	1.000000	0.626289	7.37224e+06	-40389.1	1005.82	-29790.1	0.000000	0.000000	6.626995	0.032928	NaN	0.000000	0.001678	0.001741	28.083	0.028798	0.002041	14.1094	-141.082	-164.13	0.004443	0.624937	-0.423398	-0.424750	0.032928	14.1094	-0.425148	-304356	-1.081877E-7	NaN
734	1.000000	0.634288	7.37224e+06	-40389.1	1005.82	-29790.1	0.000000	0.000000	6.634993	0.003310	NaN	0.000000	0.001676	0.001750	28.0829	0.053016	0.002007	26.4102	116.208	-163.321	0.018414	0.633017	-0.415399	-0.416670	0.003310	26.4102	-0.415493	-222050	-1.490658E-8	NaN
734	1.000000	0.642302	7.37224e+06	-40389.1	1005.82	-29790.1	0.000000	0.000000	6.643005	-0.053685	NaN	0.000000	0.001709	0.001745	28.0832	0.066375	0.001975	33.605	-118.374	-167.064	-0.037302	0.640992	-0.407385	-0.408695	-0.053685	33.605	-0.406187	-163736	3.278729E-7	NaN
734	1.000000	0.650300	7.37224e+06	-40389.1	1005.82	-29790.1	0.000000	0.000000	6.651004	-0.023353	NaN	0.000000	0.001684	0.001767	28.0828	0.079723	0.002047	38.9418	-5.760105	-163.285	-0.071487	0.648998	-0.399387	-0.400689	-0.023353	38.9418	-0.398938	-129075	1.809257E-7	NaN
734	1.000000	0.658297	7.37224e+06	-40389.1	1005.82	-29790.1	0.000000	0.000000	6.659001	-0.012009	NaN	0.000000	0.001725	0.001765	28.0831	0.050928	0.001998	25.4851	-88.9528	-165.262	-0.049210	0.656996	-0.391390	-0.392691	-0.012009	25.4851	-0.391037	-99539.3	1.206414E-7	NaN
734	1.000000	0.666319	7.37224e+06	-40389.1	1005.82	-29790.1	0.000000	0.000000	6.667025	0.022063	NaN	0.000000	0.001682	0.001721	28.0828	0.050641	0.001949	25.9856	-76.3569	-162.895	-0.037199	0.665040	-0.383368	-0.384647	0.022063	25.9856	-0.384005	-78945.3	-2.794764E-7	NaN
734	1.000000	0.674301	7.37224e+06	-40389.1	1005.82	-29790.1	0.000000	0.000000	6.675007	0.000998	NaN	0.000000	0.001642	0.001730	28.083	0.029336	0.002000	14.6667	124.835	-167.434	0.012760	0.672998	-0.375386	-0.376689	0.000998	14.6667	-0.375437	-59476.6	-1.677705E-8	NaN
734	1.000000	0.682343	7.37224e+06	-40389.1	1005.82	-29790.1	0.000000	0.000000	6.683045	-0.052220	NaN	0.000000	0.001674	0.001748	28.083	0.035864	0.001908	18.7954	-118.207	-168.108	-0.124629	0.680999	-0.367344	-0.368688	-0.052220	18.7954	-0.365261	-42443.9	1.230327E-6	NaN
734	1.000000	0.690320	7.37224e+06	-40389.1	1005.82	-29790.1	0.000000	0.000000	6.691025	0.019465	NaN	0.000000	0.001693	0.001739	28.0827	0.128806	0.002082	61.8654	72.7895	-165.538	0.009318	0.688984	-0.359367	-0.360703	0.019465	61.8654	-0.359603	-35165	-5.535363E-7	NaN
734	1.000000	0.698276	7.37224e+06	-40389.1	1005.82	-29790.1	0.000000	0.000000	6.698977	-0.086603	NaN	0.000000	0.001707	0.001739	28.083	0.052408	0.001958	26.7675	159.792	-166.357	-0.011248	0.696966	-0.351411	-0.352721	-0.086603	26.7675	-0.348985	-24675.3	3.509688E-6	NaN
734	1.000000	0.706326	7.37224e+06	-40389.1	1005.82	-29790.1	0.000000	0.000000	6.707033	0.049066	NaN	0.000000	0.001685	0.001724	28.0826	0.066092	0.002085	31.6915	144.355	-166.136	-0.032368	0.704958	-0.343361	-0.344729	0.049066	31.6915	-0.344522	-21252.1	-2.308759E-6	NaN
734	1.000000	0.714305	7.37224e+06	-40389.1	1005.82	-29790.1	0.000000	0.000000	6.715010	0.021296	NaN	0.000000	0.001682	0.001724	28.0829	0.063488	0.002018	31.4676	-20.6278	-165.276	-0.011848	0.713006	-0.335382	-0.336681	0.021296	31.4676	-0.335890	-15907	-1.338763E-6	NaN
734	1.000000	0.722288	7.37224e+06	-40389.1	1005.82	-29790.1	0.000000	0.000000	6.722989	-0.096005	NaN	0.000000	0.001663	0.001701	28.0817	0.048199	0.001955	24.6493	-19.8412	-161.651	-0.062078	0.721049	-0.327399	-0.328638	-0.096005	24.6493	-0.324478	-10825.9	8.868047E-6	NaN
734	1.000000	0.730331	7.37224e+06	-40389.1	1005.82	-29790.1	0.000000	0.000000	6.731034	-0.058008	NaN	0.000000	0.001704	0.001747	28.0814	0.058078	0.002060	28.1952	-121.203	-162.729	-0.045174	0.729038	-0.319356	-0.320649	-0.058008	28.1952	-0.317813	-8638.26	6.715244E-6	NaN
734	1.000000	0.738357	7.37224e+06	-40389.1	1005.82	-29790.1	0.000000	0.000000	6.739062	-0.007398	NaN	0.000000	0.001699	0.001726	28.0815	0.037925	0.001980	19.1581	-132.274	-165.847	0.033887	0.737005	-0.311330	-0.312682	-0.007398	19.1581	-0.311040	-6861.96	1.078132E-6	NaN
734	1.000000	0.746342	7.37224e+06	-40389.1	1005.82	-29790.1	0.000000	0.000000	6.747045	-0.045685	NaN	0.000000	0.001719	0.001750	28.0814	0.052978	0.001905	27.812	73.1556	-166.224	-0.037761	0.745024	-0.303345	-0.304663	-0.045685	27.812	-0.302113	-5059.01	9.030403E-6	NaN
734	1.000000	0.754327	7.37224e+06	-40389.1	1005.82	-29790.1	0.000000	0.000000	6.755030	-0.032014	NaN	0.000000	0.001692	0.001681	28.0817	0.105456	0.001908	55.2617	163.467	-167.38	0.059431	0.753041	-0.295360	-0.296646	-0.032014	55.2617	-0.294926	-3953.47	8.097577E-6	NaN
734	1.000000	0.762378	7.37224e+06	-40389.1	1005.82	-29790.1	0.000000	0.000000	6.763083	-0.001810	NaN	0.000000	0.001685	0.001738	28.0814	0.093579	0.001993	46.9462	-71.8481	-161.212	0.022671	0.761035	-0.287309	-0.288652	-0.001810	46.9462	-0.287280	-3037.52	5.959660E-7	NaN
734	1.000000	0.770321	7.37224e+06	-40389.1	1005.82	-29790.1	0.000000	0.000000	6.771027	0.040993	NaN	0.000000	0.001696	0.001708	28.0814	0.049735	0.002111	23.5642	-122.56	-162.912	0.023778	0.769030	-0.279366	-0.280657	0.040993	23.5642	-0.280671	-2415.96	-1.696759E-5	NaN
734	1.000000	0.778319	7.37224e+06	-40389.1	1005.82	-29790.1	0.000000	0.000000	6.779022	-0.042151	NaN	0.000000	0.001654	0.001710	28.0817	0.038060	0.002069	18.3995	31.0443	-165.147	-0.067216	0.777040	-0.271368	-0.272647	-0.042151	18.3995	-0.269650	-1645.23	2.562015E-5	NaN
734	1.000000	0.786345	7.37224e+06	-40389.1	1005.82	-29790.1	0.000000	0.000000	6.787046	-0.100432	NaN	0.000000	0.001676	0.001743	28.0816	0.037681	0.002167	17.3853	-121.484	-165.908	-0.061889	0.785060	-0.263342	-0.264627	-0.100432	17.3853	-0.259010	-1131.7	8.874440E-5	NaN
734	1.000000	0.794358	7.37224e+06	-40389.1	1005.82	-29790.1	0.000000	0.000000	6.795059	-0.092301	NaN	0.000000	0.001634	0.001714	28.0815	0.022890	0.002048	11.1788	50.564	-165.774	0.002450	0.793074	-0.255329	-0.256613	-0.092301	11.1788	-0.249137	-797.273	0.000116	NaN
734	1.000000	0.802356	7.37224e+06	-40389.1	1005.82	-29790.1	0.000000	0.000000	6.803061	-0.014858	NaN	0.000000	0.001648	0.001722	28.0814	0.018151	0.002146	8.456351	-133.525	-165.891	0.014497	0.800991	-0.247331	-0.248696	-0.014858	8.456351	-0.246013	-713.153	2.083482E-5	NaN
734	1.000000	0.810345	7.37224e+06	-40389.1	1005.82	-29790.1	0.000000	0.000000	6.811050	-0.003977	NaN	0.000000	0.001686	0.001714	28.0815	0.072261	0.001982	36.4509	136.654	-166.004	-0.013676	0.809061	-0.239342	-0.240626	-0.003977	36.4509	-0.239260	-559.743	7.105294E-6	NaN
734	1.000000	0.818404	7.37224e+06	-40389.1	1005.82	-29790.1	0.000000	0.000000	6.819109	-0.012890	NaN	0.000000	0.001690	0.001688	28.0817	0.010233	0.001953	5.238540	27.4878	-161.616	0.007242	0.817057	-0.231283	-0.232630	-0.012890	5.238540	-0.229437	-392.307	3.285730E-5	NaN
734	1.000000	0.826391	7.37224e+06	-40389.1	1005.82	-29790.1	0.000000	0.000000	6.827096	0.005476	NaN	0.000000	0.001671	0.001697	28.0817	0.078257	0.001977	39.5858	51.327	-166.117	-0.065894	0.825067	-0.223296	-0.224621	0.005476	39.5858	-0.223400	-314.702	-1.739920E-5	NaN
734	1.000000	0.834387	7.37224e+06	-40389.1	1005.82	-29790.1	0.000000	0.000000	6.835090	-0.056536	NaN	0.000000	0.001694	0.001703	28.0817	0.081164	0.002071	39.1829	-61.7333	-165.897	0.010637	0.833083	-0.215300	-0.216604	-0.056536	39.1829	-0.214218	-224.348	0.000252	NaN
734	1.000000	0.842342	7.37224e+06	-40389.1	1005.82	-29790.1	0.000000	0.000000	6.843047	0.015075	NaN	0.000000	0.001657	0.001727	28.0817	0.058385	0.001911	30.552	141.599	-164.414	0.013904	0.841048	-0.207345	-0.208639	0.015075	30.552	-0.207715	-176.1	-8.560464E-5	NaN
734	1.000000	0.850388	7.37224e+06	-40389.1	1005.82	-29790.1	0.000000	0.000000	6.851093	-0.012448	NaN	0.000000	0.001675	0.001725	28.0819	0.120364	0.001831	65.7406	-161.791	-165.406	-0.064951	0.849090	-0.199299	-0.200597	-0.012448	65.7406	-0.199157	-127.595	9.755998E-5	NaN
734	1.000000	0.858435	7.37224e+06	-40389.1	1005.82	-29790.1	0.000000	0.000000	6.859137	-0.059099	NaN	0.000000	0.001677	0.001731	28.0826	0.056020	0.002129	26.3186	-76.2989	-166.263	-0.020987	0.857064	-0.191252	-0.192623	-0.059099	26.3186	-0.189568	-88.4731	0.000668	NaN
734	1.000000	0.866359	7.37224e+06	-40389.1	1005.82	-29790.1	0.000000	0.000000	6.867063	-0.021561	NaN	0.000000	0.001701	0.001733	28.0827	0.113253	0.001889	59.9435	-134.169	-166.901	0.071242	0.865082	-0.183328	-0.184605	-0.021561	59.9435	-0.183058	-68.7612	0.000314	NaN
734	1.000000	0.874400	7.37224e+06	-40389.1	1005.82	-29790.1	0.000000	0.000000	6.875104	-0.009062	NaN	0.000000	0.001734	0.001737	28.0829	0.013670	0.001884	7.256552	-19.2514	-164.502	-0.003902	0.873048	-0.175287	-0.176639	-0.009062	7.256552	-0.174351	-48.8443	0.000186	NaN
734	1.000000	0.882399	7.37224e+06	-40389.1	1005.82	-29790.1	0.000000	0.000000	6.883103	-0.014922	NaN	0.000000	0.001726	0.001715	28.0826	0.046454	0.001994	23.2995	44.9224	-164.893	-0.014270	0.881028	-0.167288	-0.168659	-0.014922	23.2995	-0.166808	-36.1402	0.000413	NaN
734	1.000000	0.890376	7.37224e+06	-40389.1	1005.82	-29790.1	0.000000	0.000000	6.891079	-0.034304	NaN	0.000000	0.001706	0.001730	28.0828	0.077950	0.002083	37.4252	2.285201	-162.52	-0.006640	0.889056	-0.159311	-0.160631	-0.034304	37.4252	-0.158624	-25.9115	0.001324	NaN
734	1.000000	0.898384	7.37224e+06	-40389.1	1005.82	-29790.1	0.000000	0.000000	6.899087	-0.050768	NaN	0.000000	0.001670	0.001763	28.0829	0.069498	0.001941	35.8026	0.755818	-164.557	-0.004029	0.897098	-0.151303	-0.152589	-0.050768	35.8026	-0.150239	-18.2963	0.002775	NaN
734	1.000000	0.906407	7.37224e+06	-40389.1	1005.82	-29790.1	0.000000	0.000000	6.907111	-0.023208	NaN	0.000000	0.001708	0.001711	28.083	0.108933	0.001955	55.7199	-93.9924	-163.672	-0.005277	0.905087	-0.143280	-0.144600	-0.023208	55.7199	-0.142967	-13.4415	0.001727	NaN
734	1.000000	0.914402	7.37224e+06	-40389.1	1005.82	-29790.1	0.000000	0.000000	6.915107	0.009307	NaN	0.000000	0.001671	0.001733	28.0831	0.042544	0.001999	21.279	34.7038	-161.804	0.056891	0.913108	-0.135285	-0.136579	0.009307	21.279	-0.135613	-9.772036	-0.000952	NaN
734	1.000000	0.922381	7.37224e+06	-40389.1	1005.82	-29790.1	0.000000	0.000000	6.923086	-0.003603	NaN	0.000000	0.001676	0.001705	28.0828	0.064219	0.001907	33.6796	21.71	-165.936	0.049243	0.921090	-0.127306	-0.128597	-0.003603	33.6796	-0.127226	-6.727446	0.000536	NaN
734	1.000000	0.930386	7.37224e+06	-40389.1	1005.82	-29790.1	0.000000	0.000000	6.931093	0.033055	NaN	0.000000	0.001697	0.001681	28.083	0.051258	0.001970	26.0159	-120.741	-167.395	0.003891	0.929120	-0.119301	-0.120567	0.033055	26.0159	-0.120254	-4.888758	-0.006761	NaN
734	1.000000	0.938402	7.37224e+06	-40389.1	1005.82	-29790.1	0.000000	0.000000	6.939106	-0.019197	NaN	0.000000	0.001691	0.001757	28.0828	0.123113	0.001948	63.1909	-37.5194	-163.195	-0.039185	0.937102	-0.111285	-0.112585	-0.019197	63.1909	-0.111057	-3.163038	0.006069	NaN
734	1.000000	0.946414	7.37224e+06	-40389.1	1005.82	-29790.1	0.000000	0.000000	6.947119	-0.006323	NaN	0.000000	0.001688	0.001712	28.0831	0.043916	0.002094	20.9725	-130.358	-165.857	-0.015616	0.945099	-0.103273	-0.104588	-0.006323	20.9725	-0.103047	-2.131947	0.002966	NaN
734	1.000000	0.954425	7.37224e+06	-40389.1	1005.82	-29790.1	0.000000	0.000000	6.955132	0.054293	NaN	0.000000	0.001696	0.001699	28.083	0.067480	0.002106	32.0467	178.909	-163.605	0.079485	0.953092	-0.095262	-0.096595	0.054293	32.0467	-0.096533	-1.528229	-0.035527	NaN
734	1.000000	0.962431	7.37224e+06	-40389.1	1005.82	-29790.1	0.000000	0.000000	6.963137	0.004119	NaN	0.000000	0.001693	0.001710	28.0829	0.034722	0.001958	17.7352	166.906	-163.21	0.010770	0.961105	-0.087256	-0.088582	0.004119	17.7352	-0.087430	-0.939806	-0.004383	NaN
734	1.000000	0.970442	7.37224e+06	-40389.1	1005.82	-29790.1	0.000000	0.000000	6.971145	-0.046595	NaN	0.000000	0.001681	0.001714	28.083	0.169284	0.002019	83.8635	10.0426	-164.606	-0.072291	0.969152	-0.079245	-0.080535	-0.046595	83.8635	-0.078828	-0.578457	0.080550	NaN
734	1.000000	0.978436	7.37224e+06	-40389.1	1005.82	-29790.1	0.000000	0.000000	6.979139	-0.039434	NaN	0.000000	0.001706	0.001702	28.0828	0.031154	0.002043	15.2478	44.9189	-166.54	-0.051370	0.977158	-0.071251	-0.072529	-0.039434	15.2478	-0.069312	-0.326894	0.120633	NaN
734	1.000000	0.986407	7.37224e+06	-40389.1	1005.82	-29790.1	0.000000	0.000000	6.987113	0.041917	NaN	0.000000	0.001651	0.001716	28.083	0.034244	0.002059	16.6288	63.3112	-166.527	-0.031808	0.985139	-0.063280	-0.064548	0.041917	16.6288	-0.065171	-0.251950	-0.166370	NaN
734	1.000000	0.994414	7.37224e+06	-40389.1	1005.82	-29790.1	0.000000	0.000000	6.995119	0.000413	NaN	0.000000	0.001695	0.001740	28.0823	0.122579	0.001970	62.2384	-21.6413	-163.468	-0.035344	0.993146	-0.055273	-0.056541	0.000413	62.2384	-0.055278	-0.131234	-0.003151	NaN
734	1.000000	1.002437	7.37224e+06	-40389.1	1005.82	-29790.1	0.000000	0.000000	7.003144	0.039964	NaN	0.000000	0.001669	0.001773	28.0818	0.121197	0.002141	56.6115	-8.695202	-165.506	0.024725	1.001107	-0.047250	-0.048580	0.039964	56.6115	-0.047780	-0.078134	-0.511480	NaN
734	1.000000	1.010433	7.37224e+06	-40389.1	1005.82	-29790.1	0.000000	0.000000	7.011138	0.001621	NaN	0.000000	0.001713	0.001761	28.0817	0.051089	0.001990	25.6691	160.54	-167.284	-0.010184	1.009087	-0.039254	-0.040600	0.001621	25.6691	-0.039301	-0.043069	-0.037645	NaN
734	1.000000	1.018451	7.37224e+06	-40389.1	1005.82	-29790.1	0.000000	0.000000	7.019158	0.050241	NaN	0.000000	0.001680	0.001762	28.0814	0.094740	0.001984	47.7473	-79.2354	-163.913	-0.031690	1.017155	-0.031236	-0.032532	0.050241	47.7473	-0.032025	-0.026249	-1.913991	NaN
734	1.000000	1.026437	7.37224e+06	-40389.1	1005.82	-29790.1	0.000000	0.000000	7.027146	0.112481	NaN	0.000000	0.001687	0.001728	28.0815	0.326452	0.001932	168.934	-26.7753	-164.968	-0.008594	1.025078	-0.023250	-0.024609	0.112481	168.934	-0.023750	-0.015656	-7.184614	NaN
734	1.000000	1.034455	7.37224e+06	-40389.1	1005.82	-29790.1	0.000000	0.000000	7.035228	1.646577	NaN	0.000000	0.001694	0.001695	28.0815	1.022963	0.001926	531.156	17.3279	-166.245	1.597136	1.033096	-0.015232	-0.016591	1.646577	531.156	-0.017557	-0.010870	-151.477	NaN
734	1.000000	1.042465	7.37224e+06	-40389.1	1005.82	-29790.1	0.000000	0.000000	7.043218	1.164496	NaN	0.000000	0.001720	0.001703	28.0819	1.005670	0.001972	509.951	10.6644	-163.838	1.088681	1.041140	-0.007222	-0.008547	1.164496	509.951	-0.008935	-0.005775	-201.638	NaN
734	1.000000	1.050459	7.37224e+06	-40389.1	1005.82	-29790.1	0.000000	0.000000	7.051214	1.211785	NaN	0.000000	0.001730	0.001767	28.0818	1.246671	0.002042	610.597	13.9372	-165.528	1.138737	1.049132	0.000772	-0.000555	1.211785	610.597	-0.000717	-0.000528	-2294.37	NaN
734	1.000000	1.058446	7.37224e+06	-40389.1	1005.82	-29790.1	0.000000	0.000000	7.059262	2.706148	NaN	0.000000	0.001746	0.001774	28.0815	1.782874	0.001995	893.882	12.3627	-165.408	2.390095	1.057219	0.008759	0.007532	2.706148	893.882	0.006489	0.005533	489.063	10978.9
734	1.000000	1.066440	7.37224e+06	-40389.1	1005.82	-29790.1	0.000000	0.000000	7.067338	4.693041	NaN	0.000000	0.001738	0.001756	28.0816	2.457161	0.001952	1258.57	13.243	-164.77	4.237813	1.065127	0.016753	0.015440	4.693041	1258.57	0.013956	0.013918	337.181	9746.66
734	1.000000	1.074437	7.37224e+06	-40389.1	1005.82	-29790.1	0.000000	0.000000	7.075472	8.032464	NaN	0.000000	0.001731	0.001751	28.0817	3.908337	0.001891	2066.94	14.6457	-168.999	7.466010	1.073157	0.024750	0.023470	8.032464	2066.94	0.021835	0.025508	314.898	11823.9
734	2.000000	1.078073	7.37224e+06	-40389.1	1005.82	-29790.1	0.000000	0.000000	7.079155	9.188674	NaN	0.000000	0.001738	0.001768	28.0818	4.879728	0.002002	2437.71	10.3155	-168.551	8.994559	1.077771	0.028385	0.028084	9.188674	2437.71	0.025558	0.032039	286.793	12442.6
734	2.000000	1.080014	7.37224e+06	-40389.1	1005.82	-29790.1	0.000000	0.000000	7.081141	10.2588	NaN	0.000000	0.001722	0.001744	28.0818	5.121905	0.001921	2666.44	6.017263	-165.862	9.853893	1.079730	0.030327	0.030043	10.2588	2666.44	0.027442	0.035608	288.103	12910.1
734	2.000000	1.082057	7.37224e+06	-40389.1	1005.82	-29790.1	0.000000	0.000000	7.083204	10.7605	NaN	0.000000	0.001715	0.001771	28.0816	5.910885	0.002006	2946.5	8.594704	-169.117	11.0119	1.081723	0.032370	0.032036	10.7605	2946.5	0.029631	0.039982	269.135	13463.2
734	2.000000	1.084025	7.37224e+06	-40389.1	1005.82	-29790.1	0.000000	0.000000	7.085226	12.0508	NaN	0.000000	0.001730	0.001751	28.0818	6.510384	0.001966	3311.04	6.699014	-168.317	12.013	1.083682	0.034338	0.033995	12.0508	3311.04	0.031609	0.044144	272.989	14398
734	2.000000	1.086006	7.37224e+06	-40389.1	1005.82	-29790.1	0.000000	0.000000	7.087226	12.5367	NaN	0.000000	0.001781	0.001739	28.0815	7.066376	0.001903	3714.2	8.494320	-171.898	12.5637	1.085668	0.036319	0.035981	12.5367	3714.2	0.033787	0.048959	256.063	15336.3
734	2.000000	1.087974	7.37224e+06	-40389.1	1005.82	-29790.1	0.000000	0.000000	7.089247	13.8194	NaN	0.000000	0.001764	0.001727	28.0818	7.813396	0.001968	3970.91	7.126652	-168.97	13.688	1.087677	0.038287	0.037990	13.8194	3970.91	0.035677	0.053333	259.114	15709.6
734	2.000000	1.089998	7.37224e+06	-40389.1	1005.82	-29790.1	0.000000	0.000000	7.091306	14.679	NaN	0.000000	0.001728	0.001715	28.0821	8.535807	0.001899	4494.62	9.131612	-171.575	15.1674	1.089668	0.040310	0.039981	14.679	4494.62	0.037861	0.058618	250.419	16961
734	2.000000	1.091955	7.37224e+06	-40389.1	1005.82	-29790.1	0.000000	0.000000	7.093252	14.3969	NaN	0.000000	0.001742	0.001726	28.0831	9.085184	0.001885	4820.49	10.6522	-174.1	14.5258	1.091665	0.042268	0.041978	14.3969	4820.49	0.040028	0.064102	224.595	17395.2
734	2.000000	1.093995	7.37224e+06	-40389.1	1005.82	-29790.1	0.000000	0.000000	7.095308	14.7978	NaN	0.000000	0.001779	0.001749	28.0831	9.808931	0.001973	4971.94	8.487640	-171.211	15.7284	1.093709	0.044308	0.044022	14.7978	4971.94	0.042076	0.069502	212.911	17230.6
734	2.000000	1.095998	7.37224e+06	-40389.1	1005.82	-29790.1	0.000000	0.000000	7.097350	15.7377	NaN	0.000000	0.001772	0.001755	28.0829	10.4331	0.001947	5358.04	12.6569	-172.975	16.8135	1.095635	0.046311	0.045948	15.7377	5358.04	0.044108	0.075076	209.624	17866.1
734	2.000000	1.097949	7.37224e+06	-40389.1	1005.82	-29790.1	0.000000	0.000000	7.099347	16.8635	NaN	0.000000	0.001780	0.001736	28.0829	11.2064	0.001785	6278.73	7.452373	-172.567	16.2495	1.097655	0.048262	0.047968	16.8635	6278.73	0.046248	0.081169	207.757	20134.9
734	2.000000	1.099961	7.37224e+06	-40389.1	1005.82	-29790.1	0.000000	0.000000	7.101442	18.868	NaN	0.000000	0.001725	0.001740	28.0828	12.2845	0.001934	6350.82	7.842100	-172.376	17.9855	1.099614	0.050274	0.049927	18.868	6350.82	0.048046	0.086470	218.204	19732
734	2.000000	1.101956	7.37224e+06	-40389.1	1005.82	-29790.1	0.000000	0.000000	7.103482	19.9645	NaN	0.000000	0.001717	0.001737	28.083	13.7473	0.001848	7440.6	9.653074	-176.28	19.9816	1.101605	0.052269	0.051918	19.9645	7440.6	0.050257	0.093209	214.19	22266.5
734	2.000000	1.103956	7.37224e+06	-40389.1	1005.82	-29790.1	0.000000	0.000000	7.105590	22.6119	NaN	0.000000	0.001748	0.001749	28.083	15.1724	0.002055	7384.78	11.7949	-175.282	23.2832	1.103586	0.054269	0.053899	22.6119	7384.78	0.051972	0.098607	229.313	21486
734	2.000000	1.105962	7.37224e+06	-40389.1	1005.82	-29790.1	0.000000	0.000000	7.107624	23.2866	NaN	0.000000	0.001748	0.001714	28.083	16.3823	0.001947	8414.72	8.254496	-174.36	23.8798	1.105629	0.056275	0.055942	23.2866	8414.72	0.054200	0.105834	220.029	23632
734	2.000000	1.107922	7.37224e+06	-40389.1	1005.82	-29790.1	0.000000	0.000000	7.109793	28.3731	NaN	0.000000	0.001769	0.001736	28.0829	17.5804	0.001876	9372.63	9.277966	-177.26	27.5754	1.107682	0.058235	0.057995	28.3731	9372.63	0.055964	0.111736	253.93	25617.6
734	2.000000	1.109990	7.37224e+06	-40389.1	1005.82	-29790.1	0.000000	0.000000	7.111863	28.4175	NaN	0.000000	0.001766	0.001718	28.0829	18.8553	0.001788	10548.2	11.8232	-179.831	29.5885	1.109625	0.060303	0.059938	28.4175	10548.2	0.058282	0.119721	237.365	27852.8
734	2.000000	1.111932	7.37224e+06	-40389.1	1005.82	-29790.1	0.000000	0.000000	7.114004	33.271	NaN	0.000000	0.001723	0.001707	28.0834	19.8141	0.001711	11581.8	2.688616	-171.812	32.3796	1.111628	0.062245	0.061941	33.271	11581.8	0.060090	0.126133	263.778	29794.5
734	2.000000	1.113951	7.37224e+06	-40389.1	1005.82	-29790.1	0.000000	0.000000	7.116203	37.6308	NaN	0.000000	0.001722	0.001766	28.083	23.093	0.001921	12020.3	10.8561	-179.774	37.4158	1.113563	0.064264	0.063876	37.6308	12020.3	0.061917	0.132770	283.428	30139.7
734	2.000000	1.115887	7.37224e+06	-40389.1	1005.82	-29790.1	0.000000	0.000000	7.118291	41.3337	NaN	0.000000	0.001715	0.001749	28.0829	24.4277	0.001862	13121.6	6.749670	-177.998	39.7271	1.115604	0.066200	0.065917	41.3337	13121.6	0.063838	0.139929	295.39	32048.3
734	2.000000	1.117973	7.37224e+06	-40389.1	1005.82	-29790.1	0.000000	0.000000	7.120488	44.0589	NaN	0.000000	0.001693	0.001737	28.0832	26.5911	0.001912	13907.4	8.520615	-179.889	44.9178	1.117693	0.068286	0.068006	44.0589	13907.4	0.065910	0.147849	298	33045.3
734	2.000000	1.119989	7.37224e+06	-40389.1	1005.82	-29790.1	0.000000	0.000000	7.122767	50.4439	NaN	0.000000	0.001691	0.001773	28.0829	27.583	0.001870	14747.6	9.181088	179.872	53.5397	1.119679	0.070302	0.069992	50.4439	14747.6	0.067737	0.155004	325.435	34223.3
734	2.000000	1.121884	7.37224e+06	-40389.1	1005.82	-29790.1	0.000000	0.000000	7.124992	58.4806	NaN	0.000000	0.001715	0.001728	28.0833	29.9539	0.001766	16957.4	7.381526	178.732	56.4665	1.121579	0.072197	0.071892	58.4806	16957.4	0.069611	0.162508	359.863	38432.2
734	2.000000	1.123916	7.37224e+06	-40389.1	1005.82	-29790.1	0.000000	0.000000	7.127092	60.1438	NaN	0.000000	0.001711	0.001767	28.0828	31.4672	0.001679	18744.8	5.294485	-179.468	58.3233	1.123623	0.074229	0.073936	60.1438	18744.8	0.071822	0.171579	350.532	41344.8
734	2.000000	1.125917	7.37224e+06	-40389.1	1005.82	-29790.1	0.000000	0.000000	7.129414	67.9315	NaN	0.000000	0.001676	0.001755	28.0818	34.0135	0.001877	18125.6	5.862443	179.992	67.8017	1.125548	0.076230	0.075861	67.9315	18125.6	0.073420	0.178276	381.047	39221.1
734	2.000000	1.127936	7.37224e+06	-40389.1	1005.82	-29790.1	0.000000	0.000000	7.131699	74.4105	NaN	0.000000	0.001664	0.001720	28.0818	35.4668	0.001823	19450	3.922839	-178.991	74.918	1.127687	0.078249	0.078000	74.4105	19450	0.075380	0.186659	398.643	41130.8
734	2.000000	1.129899	7.37224e+06	-40389.1	1005.82	-29790.1	0.000000	0.000000	7.134029	83.3449	NaN	0.000000	0.001677	0.001731	28.0815	38.1105	0.001883	20235	10.6052	174.375	82.3938	1.129527	0.080212	0.079840	83.3449	20235	0.077123	0.194263	429.031	41945
734	2.000000	1.131841	7.37224e+06	-40389.1	1005.82	-29790.1	0.000000	0.000000	7.136158	87.9066	NaN	0.000000	0.001699	0.001723	28.0826	39.4149	0.001828	21558.2	1.897683	-177.758	84.546	1.131609	0.082154	0.081922	87.9066	21558.2	0.079095	0.203042	432.948	43711.3
734	2.000000	1.133950	7.37224e+06	-40389.1	1005.82	-29790.1	0.000000	0.000000	7.138620	96.4879	NaN	0.000000	0.001698	0.001731	28.0816	42.028	0.001817	23130.1	6.946938	177.195	96.4051	1.133625	0.084263	0.083938	96.4879	23130.1	0.081134	0.212307	454.474	45863.7
734	2.000000	1.135887	7.37224e+06	-40389.1	1005.82	-29790.1	0.000000	0.000000	7.140873	104.184	NaN	0.000000	0.001688	0.001777	28.0817	43.4789	0.001865	23311	7.003980	176.788	103.094	1.135550	0.086200	0.085863	104.184	23311	0.082848	0.220243	473.041	45381.9
734	2.000000	1.137851	7.37224e+06	-40389.1	1005.82	-29790.1	0.000000	0.000000	7.143217	113.428	NaN	0.000000	0.001669	0.001782	28.0815	45.1601	0.001758	25693.2	5.003222	178.261	111.565	1.137514	0.088164	0.087827	113.428	25693.2	0.084853	0.229700	493.81	48979.1
734	2.000000	1.139846	7.37224e+06	-40389.1	1005.82	-29790.1	0.000000	0.000000	7.145482	119.983	NaN	0.000000	0.001669	0.001777	28.0817	46.6135	0.001841	25324.4	6.427880	176.439	117.178	1.139571	0.090159	0.089884	119.983	25324.4	0.086605	0.238120	503.876	47414.9
734	2.000000	1.141872	7.37224e+06	-40389.1	1005.82	-29790.1	0.000000	0.000000	7.147916	129.918	NaN	0.000000	0.001691	0.001752	28.082	48.8075	0.001920	25425.6	8.533561	174.134	128.151	1.141480	0.092185	0.091793	129.918	25425.6	0.088353	0.246657	526.714	46773.3
734	2.000000	1.143966	7.37224e+06	-40389.1	1005.82	-29790.1	0.000000	0.000000	7.150270	136.243	NaN	0.000000	0.001694	0.001744	28.0815	49.8362	0.001817	27420.6	5.152625	177.073	138.454	1.143512	0.094279	0.093825	136.243	27420.6	0.090552	0.257597	528.899	49360.5
734	2.000000	1.145917	7.37224e+06	-40389.1	1005.82	-29790.1	0.000000	0.000000	7.152741	148.9	NaN	0.000000	0.001718	0.001741	28.0819	49.7114	0.001557	31919.7	2.499750	177.744	149.693	1.145610	0.096230	0.095923	148.9	31919.7	0.092731	0.268656	554.241	56264.4
734	2.000000	1.147862	7.37224e+06	-40389.1	1005.82	-29790.1	0.000000	0.000000	7.154833	152.472	NaN	0.000000	0.001643	0.001738	28.0816	54.741	0.001815	30161.2	7.966951	173.562	149.3	1.147568	0.098175	0.097881	152.472	30161.2	0.094383	0.277189	550.064	52340
734	2.000000	1.149899	7.37224e+06	-40389.1	1005.82	-29790.1	0.000000	0.000000	7.157221	161.007	NaN	0.000000	0.001669	0.001748	28.0816	55.2629	0.001665	33188.2	3.291288	177.061	160.369	1.149651	0.100212	0.099964	161.007	33188.2	0.096574	0.288690	557.716	56434
734	2.000000	1.151847	7.37224e+06	-40389.1	1005.82	-29790.1	0.000000	0.000000	7.159626	172.144	NaN	0.000000	0.001689	0.001719	28.0817	58.5882	0.001919	30536.4	2.478688	178.884	168.663	1.151496	0.102160	0.101809	172.144	30536.4	0.097932	0.295930	581.705	51285.7
734	2.000000	1.153891	7.37224e+06	-40389.1	1005.82	-29790.1	0.000000	0.000000	7.162160	184.074	NaN	0.000000	0.001697	0.001715	28.0815	61.0762	0.001828	33416.9	6.237745	174.408	182.546	1.153523	0.104204	0.103836	184.074	33416.9	0.100072	0.307514	598.587	55056.4
734	2.000000	1.155884	7.37224e+06	-40389.1	1005.82	-29790.1	0.000000	0.000000	7.164522	193.033	NaN	0.000000	0.001688	0.001728	28.0819	62.131	0.001799	34540.4	3.589495	176.632	193.948	1.155608	0.106197	0.105921	193.033	34540.4	0.102006	0.318156	606.723	55947.4
734	2.000000	1.157909	7.37224e+06	-40389.1	1005.82	-29790.1	0.000000	0.000000	7.167054	205.387	NaN	0.000000	0.001701	0.001687	28.0815	65.5486	0.001886	34747.1	5.818756	174.416	207.221	1.157606	0.108222	0.107919	205.387	34747.1	0.103789	0.328120	625.95	55421.1
734	2.000000	1.159817	7.37224e+06	-40389.1	1005.82	-29790.1	0.000000	0.000000	7.169713	223.645	NaN	0.000000	0.001662	0.001750	28.0829	65.7837	0.001856	35445.1	5.901186	174.928	220.849	1.159504	0.110130	0.109817	223.645	35445.1	0.105398	0.337235	663.173	55765.1
734	2.000000	1.161780	7.37224e+06	-40389.1	1005.82	-29790.1	0.000000	0.000000	7.172025	232.155	NaN	0.000000	0.001693	0.001730	28.0828	68.3954	0.001805	37900	7.113008	172.847	226.278	1.161425	0.112093	0.111738	232.155	37900	0.107499	0.349316	664.599	58587.3
734	2.000000	1.163893	7.37224e+06	-40389.1	1005.82	-29790.1	0.000000	0.000000	7.174617	243.818	NaN	0.000000	0.001667	0.001755	28.0827	71.3597	0.001923	37110.5	7.920385	172.136	242.413	1.163485	0.114206	0.113798	243.818	37110.5	0.109278	0.359701	677.834	56532.6
734	2.000000	1.165865	7.37224e+06	-40389.1	1005.82	-29790.1	0.000000	0.000000	7.177098	256.188	NaN	0.000000	0.001687	0.001796	28.083	71.4578	0.001784	40046.7	4.690736	174.331	254.766	1.165535	0.116178	0.115848	256.188	40046.7	0.111380	0.372157	688.386	59975.9
734	2.000000	1.167957	7.37224e+06	-40389.1	1005.82	-29790.1	0.000000	0.000000	7.179492	263.518	NaN	0.000000	0.001679	0.001817	28.0825	73.8488	0.001786	41345.8	3.541159	175.418	266.742	1.167609	0.118270	0.117922	263.518	41345.8	0.113490	0.384861	684.71	60890.9
734	2.000000	1.169859	7.37224e+06	-40389.1	1005.82	-29790.1	0.000000	0.000000	7.182006	278.439	NaN	0.000000	0.001697	0.001786	28.0824	74.7083	0.001754	42590.7	5.352783	172.934	277.839	1.169593	0.120172	0.119906	278.439	42590.7	0.115268	0.395725	703.619	61857.4
734	2.000000	1.171844	7.37224e+06	-40389.1	1005.82	-29790.1	0.000000	0.000000	7.184647	294.37	NaN	0.000000	0.001696	0.001804	28.0826	77.8081	0.001731	44943.4	7.250954	170.916	293.569	1.171478	0.122157	0.121791	294.37	44943.4	0.117245	0.407969	721.549	64287.4
734	2.000000	1.173868	7.37224e+06	-40389.1	1005.82	-29790.1	0.000000	0.000000	7.187161	306.305	NaN	0.000000	0.001683	0.001785	28.0826	79.5946	0.001734	45904.7	5.322819	173.778	305.439	1.173456	0.124181	0.123769	306.305	45904.7	0.119177	0.420106	729.113	64707
734	2.000000	1.174841	7.37224e+06	-40389.1	1005.82	-29790.1	0.000000	0.000000	7.188086	305.157	NaN	0.000000	0.001697	0.001769	28.0827	80.2506	0.001809	44352.7	1.686169	176.531	303.644	1.174620	0.125154	0.124933	305.157	44352.7	0.119994	0.425290	717.527	62137.1