File: remote_trans/data/nanoindenter/0828-1/data/Data_2025-08-06,11h17m57s/2025-07-22_16-23-58_1_280.txt
2025-07-22, 16:23:58, 1
Index	Phase	Displacement	Time	Pos X	Pos Y	Pos Z	Rot A	Rot B	Piezo Z	Force A	Force B	Gripper	Voltage A	Voltage B	Temperature	Amplitude force	Amplitude pos	Stiffness	Phase shift	Phase excitation	Force A raw	Displacement raw	HMax	HMax raw	Real Force	Real Stiffness	Contact Depth	Area	Hardness	Reduced Mod.
[#]	[#]	[um]	[s]	[um]	[um]	[um]	[m°]	[m°]	[um]	[uN]	[uN]	[V]	[V]	[V]	[°C]	[uN]	[um]	[N/m]	[°]	[°]	[uN]	[um]	[um]	[um]	[uN]	[N/m]	[um]	[um^2]	[MPa]	[MPa]
280	1.000000	0.002826	7.36779e+06	-52639.1	955.818	-29749	0.000000	0.000000	6.002819	0.051901	NaN	0.000000	0.001594	0.001696	28.0792	0.028635	0.001042	27.4786	47.06	-164.512	0.040955	0.001570	-1.059534	-1.060790	0.051901	27.4786	-1.060951	-1.498293E+14	-3.464017E-16	NaN
280	1.000000	0.010789	7.36779e+06	-52639.1	955.819	-29749	0.000000	0.000000	6.010784	0.089520	NaN	0.000000	0.001636	0.001679	28.0791	0.005171	0.000941	5.493005	-32.5339	-170.111	-0.022270	0.009472	-1.051571	-1.052888	0.089520	5.493005	-1.063793	-1.636054E+14	-5.471713E-16	NaN
280	1.000000	0.018769	7.36779e+06	-52639.1	955.818	-29749	0.000000	0.000000	6.018763	0.059677	NaN	0.000000	0.001594	0.001677	28.0789	0.092556	0.001592	58.1322	-0.554113	-167.738	0.087247	0.017418	-1.043591	-1.044942	0.059677	58.1322	-1.044361	-8.966118E+13	-6.655840E-16	NaN
280	1.000000	0.026787	7.36779e+06	-52639.1	955.819	-29749	0.000000	0.000000	6.026781	0.061736	NaN	0.000000	0.001599	0.001643	28.0787	0.082057	0.001868	43.9199	136.85	-165.1	0.068878	0.025447	-1.035573	-1.036913	0.061736	43.9199	-1.036627	-7.056810E+13	-8.748459E-16	NaN
280	1.000000	0.034745	7.36779e+06	-52639.1	955.819	-29749	0.000000	0.000000	6.034739	0.059890	NaN	0.000000	0.001560	0.001685	28.079	0.074348	0.002015	36.8969	-29.3414	-164.33	0.088617	0.033401	-1.027615	-1.028959	0.059890	36.8969	-1.028833	-5.543412E+13	-1.080381E-15	NaN
280	1.000000	0.042772	7.36779e+06	-52639.1	955.817	-29749	0.000000	0.000000	6.042767	0.089475	NaN	0.000000	0.001601	0.001643	28.0789	0.147011	0.001917	76.6761	86.2164	-164.586	0.044934	0.041437	-1.019588	-1.020923	0.089475	76.6761	-1.020463	-4.277449E+13	-2.091791E-15	NaN
280	1.000000	0.050756	7.36779e+06	-52639.1	955.818	-29749	0.000000	0.000000	6.050750	0.062743	NaN	0.000000	0.001581	0.001658	28.0789	0.028087	0.001951	14.3987	-128.824	-169.639	0.092004	0.049508	-1.011604	-1.012852	0.062743	14.3987	-1.014872	-3.597064E+13	-1.744275E-15	NaN
280	1.000000	0.058731	7.36779e+06	-52639.1	955.819	-29749	0.000000	0.000000	6.058723	0.011229	NaN	0.000000	0.001594	0.001663	28.0794	0.091208	0.002009	45.4009	150.928	-165.856	-0.003367	0.057470	-1.003629	-1.004890	0.011229	45.4009	-1.003814	-2.553408E+13	-4.397676E-16	NaN
280	1.000000	0.066769	7.36779e+06	-52639.1	955.819	-29749	0.000000	0.000000	6.066758	-0.067341	NaN	0.000000	0.001573	0.001655	28.0788	0.066866	0.001899	35.2149	-76.756	-168.722	-0.070066	0.065418	-0.995591	-0.996942	-0.067341	35.2149	-0.994157	-1.892732E+13	3.557864E-15	NaN
280	1.000000	0.074772	7.36779e+06	-52639.1	955.819	-29749	0.000000	0.000000	6.074763	0.010853	NaN	0.000000	0.001553	0.001668	28.0791	0.069364	0.002019	34.348	159.482	-166.932	0.001923	0.073451	-0.987588	-0.988909	0.010853	34.348	-0.987825	-1.555328E+13	-6.977956E-16	NaN
280	1.000000	0.082776	7.36779e+06	-52639.1	955.819	-29749	0.000000	0.000000	6.082769	0.039004	NaN	0.000000	0.001600	0.001671	28.0789	0.069919	0.002028	34.4831	-86.4301	-163.962	0.038218	0.081452	-0.979584	-0.980908	0.039004	34.4831	-0.980432	-1.236602E+13	-3.154136E-15	NaN
280	1.000000	0.090744	7.36779e+06	-52639.1	955.819	-29749	0.000000	0.000000	6.090735	-0.012846	NaN	0.000000	0.001580	0.001673	28.0789	0.061011	0.002037	29.9459	70.5262	-165.189	0.036465	0.089467	-0.971616	-0.972893	-0.012846	29.9459	-0.971294	-9.313402E+12	1.379350E-15	NaN
280	1.000000	0.098772	7.36779e+06	-52639.1	955.819	-29749	0.000000	0.000000	6.098762	-0.022302	NaN	0.000000	0.001580	0.001667	28.0789	0.049455	0.002107	23.4683	-86.7895	-163.421	-0.022434	0.097511	-0.963588	-0.964849	-0.022302	23.4683	-0.962876	-7.171932E+12	3.109621E-15	NaN
280	1.000000	0.106747	7.36779e+06	-52639.1	955.818	-29749	0.000000	0.000000	6.106740	0.049431	NaN	0.000000	0.001571	0.001683	28.0788	0.089365	0.001976	45.2325	75.9777	-166.656	0.051251	0.105456	-0.955613	-0.956904	0.049431	45.2325	-0.956433	-5.871843E+12	-8.418370E-15	NaN
280	1.000000	0.114782	7.36779e+06	-52639.1	955.819	-29749	0.000000	0.000000	6.114772	-0.018709	NaN	0.000000	0.001528	0.001651	28.0778	0.117231	0.001818	64.4794	143.018	-164.351	-0.021393	0.113468	-0.947578	-0.948892	-0.018709	64.4794	-0.947361	-4.430271E+12	4.223050E-15	NaN
280	1.000000	0.122805	7.36779e+06	-52639.1	955.819	-29749	0.000000	0.000000	6.122795	-0.032470	NaN	0.000000	0.001514	0.001671	28.0776	0.079946	0.002087	38.3079	-83.7899	-165.811	-0.035789	0.121516	-0.939555	-0.940844	-0.032470	38.3079	-0.938919	-3.408439E+12	9.526239E-15	NaN
280	1.000000	0.130782	7.36779e+06	-52639.1	955.818	-29749	0.000000	0.000000	6.130774	0.004326	NaN	0.000000	0.001578	0.001621	28.0777	0.049344	0.002220	22.2299	-56.6855	-164.729	0.031018	0.129495	-0.931578	-0.932865	0.004326	22.2299	-0.931724	-2.725601E+12	-1.587338E-15	NaN
280	1.000000	0.138823	7.36779e+06	-52639.1	955.818	-29749	0.000000	0.000000	6.138815	0.031970	NaN	0.000000	0.001592	0.001641	28.0776	0.016214	0.002066	7.849474	-85.4331	-163.901	0.003569	0.137504	-0.923537	-0.924856	0.031970	7.849474	-0.926592	-2.323787E+12	-1.375782E-14	NaN
280	1.000000	0.146751	7.36779e+06	-52639.1	955.819	-29749	0.000000	0.000000	6.146747	0.100177	NaN	0.000000	0.001573	0.001672	28.0777	0.056580	0.001881	30.0765	0.788229	-161.895	0.076452	0.145476	-0.915609	-0.916884	0.100177	30.0765	-0.918107	-1.785023E+12	-5.612074E-14	NaN
280	1.000000	0.154798	7.36779e+06	-52639.1	955.819	-29749	0.000000	0.000000	6.154789	0.001151	NaN	0.000000	0.001562	0.001663	28.0778	0.070350	0.001879	37.4452	125.244	-165.037	-0.070555	0.153442	-0.907562	-0.908918	0.001151	37.4452	-0.907586	-1.286913E+12	-8.945881E-16	NaN
280	1.000000	0.162794	7.36779e+06	-52639.1	955.818	-29749	0.000000	0.000000	6.162786	0.036100	NaN	0.000000	0.001522	0.001662	28.0776	0.047877	0.001931	24.7951	117.696	-162.886	0.009978	0.161466	-0.899566	-0.900894	0.036100	24.7951	-0.900658	-1.037434E+12	-3.479732E-14	NaN
280	1.000000	0.170818	7.36779e+06	-52639.1	955.818	-29749	0.000000	0.000000	6.170810	0.016854	NaN	0.000000	0.001569	0.001671	28.0778	0.072304	0.002074	34.8687	158.528	-162.971	0.033237	0.169480	-0.891542	-0.892880	0.016854	34.8687	-0.891905	-7.900643E+11	-2.133207E-14	NaN
280	1.000000	0.178810	7.36779e+06	-52639.1	955.818	-29749	0.000000	0.000000	6.178802	0.016878	NaN	0.000000	0.001560	0.001680	28.0775	0.064675	0.002034	31.7921	124.306	-165.352	0.012436	0.177521	-0.883550	-0.884839	0.016878	31.7921	-0.883948	-6.167307E+11	-2.736742E-14	NaN
280	1.000000	0.186826	7.36779e+06	-52639.1	955.818	-29749	0.000000	0.000000	6.186815	-0.061844	NaN	0.000000	0.001592	0.001656	28.078	0.034568	0.002027	17.0554	-72.6229	-167.366	0.036490	0.185541	-0.875534	-0.876819	-0.061844	17.0554	-0.872815	-4.360347E+11	1.418322E-13	NaN
280	1.000000	0.194815	7.36779e+06	-52639.1	955.819	-29749	0.000000	0.000000	6.194808	0.046439	NaN	0.000000	0.001560	0.001689	28.0778	0.122273	0.001965	62.2115	-55.7907	-166.293	0.038595	0.193530	-0.867545	-0.868830	0.046439	62.2115	-0.868105	-3.765365E+11	-1.233313E-13	NaN
280	1.000000	0.202787	7.36779e+06	-52639.1	955.817	-29749	0.000000	0.000000	6.202779	0.021805	NaN	0.000000	0.001575	0.001669	28.0779	0.061521	0.001966	31.2934	-179.995	-165.108	0.024891	0.201529	-0.859573	-0.860831	0.021805	31.2934	-0.860096	-2.933709E+11	-7.432730E-14	NaN
280	1.000000	0.210836	7.36779e+06	-52639.1	955.818	-29749	0.000000	0.000000	6.210829	0.054277	NaN	0.000000	0.001590	0.001662	28.0779	0.095095	0.001938	49.0752	137.353	-166.635	-0.000872	0.209538	-0.851524	-0.852822	0.054277	49.0752	-0.852354	-2.304675E+11	-2.355090E-13	NaN
280	1.000000	0.218832	7.36779e+06	-52639.1	955.818	-29749	0.000000	0.000000	6.218826	0.062550	NaN	0.000000	0.001539	0.001650	28.0777	0.046223	0.001911	24.1933	82.9575	-167.404	0.027370	0.217531	-0.843528	-0.844829	0.062550	24.1933	-0.845467	-1.859293E+11	-3.364171E-13	NaN
280	1.000000	0.226836	7.36779e+06	-52639.1	955.819	-29749	0.000000	0.000000	6.226827	-0.010925	NaN	0.000000	0.001572	0.001653	28.0779	0.059840	0.002040	29.3356	-113.128	-166.029	-0.004116	0.225557	-0.835524	-0.836803	-0.010925	29.3356	-0.835245	-1.351656E+11	8.082429E-14	NaN
280	1.000000	0.234815	7.36779e+06	-52639.1	955.818	-29749	0.000000	0.000000	6.234809	0.047670	NaN	0.000000	0.001590	0.001652	28.0778	0.108098	0.002144	50.4073	-49.3199	-165.146	0.017666	0.233534	-0.827545	-0.828826	0.047670	50.4073	-0.828254	-1.086715E+11	-4.386617E-13	NaN
280	1.000000	0.242813	7.36779e+06	-52639.1	955.817	-29749	0.000000	0.000000	6.242806	0.029975	NaN	0.000000	0.001595	0.001680	28.0777	0.101747	0.001978	51.4471	67.0698	-162.318	0.059045	0.241494	-0.819547	-0.820866	0.029975	51.4471	-0.819984	-8.394428E+10	-3.570778E-13	NaN
280	1.000000	0.250843	7.36779e+06	-52639.1	955.818	-29749	0.000000	0.000000	6.250836	0.057333	NaN	0.000000	0.001629	0.001684	28.0792	0.041279	0.001939	21.2941	-153.687	-162.563	0.057474	0.249519	-0.811517	-0.812841	0.057333	21.2941	-0.813537	-6.863558E+10	-8.353262E-13	NaN
280	1.000000	0.258846	7.36779e+06	-52639.1	955.818	-29749	0.000000	0.000000	6.258836	-0.040237	NaN	0.000000	0.001611	0.001712	28.0789	0.022251	0.002157	10.3179	-35.4408	-168.156	-0.013024	0.257563	-0.803514	-0.804797	-0.040237	10.3179	-0.800589	-4.579959E+10	8.785505E-13	NaN
280	1.000000	0.266816	7.36779e+06	-52639.1	955.819	-29749	0.000000	0.000000	6.266808	0.031383	NaN	0.000000	0.001589	0.001680	28.0792	0.139065	0.002017	68.9404	52.1486	-165.866	0.097965	0.265561	-0.795544	-0.796799	0.031383	68.9404	-0.795886	-3.953728E+10	-7.937551E-13	NaN
280	1.000000	0.274852	7.36779e+06	-52639.1	955.818	-29749	0.000000	0.000000	6.274842	-0.017285	NaN	0.000000	0.001645	0.001659	28.0791	0.027156	0.001877	14.4669	-21.3223	-168.096	-0.027418	0.273549	-0.787508	-0.788811	-0.017285	14.4669	-0.786612	-2.958466E+10	5.842596E-13	NaN
280	1.000000	0.282869	7.36779e+06	-52639.1	955.82	-29749	0.000000	0.000000	6.282860	0.002721	NaN	0.000000	0.001599	0.001637	28.0792	0.060214	0.002122	28.3788	173.503	-166.932	-0.040234	0.281563	-0.779491	-0.780797	0.002721	28.3788	-0.779563	-2.372998E+10	-1.146839E-13	NaN
280	1.000000	0.290856	7.36779e+06	-52639.1	955.819	-29749	0.000000	0.000000	6.290848	0.011187	NaN	0.000000	0.001597	0.001689	28.0791	0.047833	0.001937	24.6981	74.4382	-164.741	0.039451	0.289542	-0.771504	-0.772818	0.011187	24.6981	-0.771843	-1.863665E+10	-6.002524E-13	NaN
280	1.000000	0.298877	7.36779e+06	-52639.1	955.819	-29749	0.000000	0.000000	6.298868	-0.022255	NaN	0.000000	0.001596	0.001705	28.0789	0.101053	0.001937	52.1574	-25.8049	-165.727	0.040266	0.297504	-0.763483	-0.764856	-0.022255	52.1574	-0.763163	-1.420114E+10	1.567119E-12	NaN
280	1.000000	0.306867	7.36779e+06	-52639.1	955.818	-29749	0.000000	0.000000	6.306862	0.086916	NaN	0.000000	0.001582	0.001711	28.0793	0.107607	0.002019	53.2927	-53.7215	-165.374	0.121340	0.305539	-0.755493	-0.756821	0.086916	53.2927	-0.756716	-1.160441E+10	-7.489930E-12	NaN
280	1.000000	0.314845	7.36779e+06	-52639.1	955.818	-29749	0.000000	0.000000	6.314836	-0.011441	NaN	0.000000	0.001548	0.001687	28.0789	0.099859	0.002035	49.0786	-22.9248	-168.231	0.009483	0.313546	-0.747515	-0.748814	-0.011441	49.0786	-0.747340	-8.649769E+9	1.322679E-12	NaN
280	1.000000	0.322850	7.36779e+06	-52639.1	955.818	-29749	0.000000	0.000000	6.322842	0.000630	NaN	0.000000	0.001594	0.001653	28.0786	0.051666	0.001984	26.0424	-45.9451	-163.096	-0.043478	0.321602	-0.739510	-0.740758	0.000630	26.0424	-0.739528	-6.770534E+9	-9.302552E-14	NaN
280	1.000000	0.330840	7.36779e+06	-52639.1	955.819	-29749	0.000000	0.000000	6.330831	-0.011623	NaN	0.000000	0.001553	0.001688	28.0789	0.152444	0.001951	78.1282	-167.806	-165.389	-0.020827	0.329537	-0.731520	-0.732823	-0.011623	78.1282	-0.731408	-5.248119E+9	2.214792E-12	NaN
280	1.000000	0.338886	7.36779e+06	-52639.1	955.818	-29749	0.000000	0.000000	6.338877	-0.005055	NaN	0.000000	0.001594	0.001669	28.0789	0.073466	0.001992	36.8789	156.594	-164.715	0.061519	0.337576	-0.723474	-0.724784	-0.005055	36.8789	-0.723371	-4.077975E+9	1.239618E-12	NaN
280	1.000000	0.346889	7.36779e+06	-52639.1	955.819	-29749	0.000000	0.000000	6.346880	-0.009779	NaN	0.000000	0.001534	0.001715	28.0792	0.011488	0.001963	5.852764	-85.4366	-164.552	-0.021459	0.345571	-0.715471	-0.716789	-0.009779	5.852764	-0.714218	-3.059163E+9	3.196579E-12	NaN
280	1.000000	0.354896	7.36779e+06	-52639.1	955.818	-29749	0.000000	0.000000	6.354891	0.081417	NaN	0.000000	0.001547	0.001684	28.0791	0.057670	0.002019	28.5613	-158.157	-164.66	0.052234	0.353595	-0.707464	-0.708765	0.081417	28.5613	-0.709602	-2.646153E+9	-3.076789E-11	NaN
280	1.000000	0.362921	7.36779e+06	-52639.1	955.819	-29749	0.000000	0.000000	6.362914	0.030452	NaN	0.000000	0.001560	0.001703	28.0792	0.048515	0.001957	24.7878	-80.405	-163.359	0.043371	0.361599	-0.699439	-0.700761	0.030452	24.7878	-0.700360	-1.979021E+9	-1.538734E-11	NaN
280	1.000000	0.370871	7.36779e+06	-52639.1	955.818	-29749	0.000000	0.000000	6.370860	-0.039209	NaN	0.000000	0.001575	0.001699	28.079	0.041938	0.002034	20.6201	81.2346	-164.465	-0.026220	0.369591	-0.691489	-0.692769	-0.039209	20.6201	-0.690063	-1.431469E+9	2.739074E-11	NaN
280	1.000000	0.378883	7.36779e+06	-52639.1	955.818	-29749	0.000000	0.000000	6.378877	0.058403	NaN	0.000000	0.001571	0.001752	28.0791	0.079488	0.002041	38.95	-54.377	-165.188	0.014152	0.377543	-0.683477	-0.684817	0.058403	38.95	-0.684601	-1.205372E+9	-4.845236E-11	NaN
280	1.000000	0.386914	7.36779e+06	-52639.1	955.818	-29749	0.000000	0.000000	6.386906	0.012925	NaN	0.000000	0.001563	0.001708	28.0783	0.028388	0.001911	14.8525	-14.6953	-162.988	-0.037205	0.385619	-0.675446	-0.676741	0.012925	14.8525	-0.676098	-9.222239E+8	-1.401542E-11	NaN
280	1.000000	0.394878	7.36779e+06	-52639.1	955.82	-29749	0.000000	0.000000	6.394868	-0.029481	NaN	0.000000	0.001581	0.001692	28.0778	0.066471	0.001935	34.3601	113.358	-164.371	-0.048309	0.393625	-0.667482	-0.668735	-0.029481	34.3601	-0.666839	-6.888342E+8	4.279818E-11	NaN
280	1.000000	0.402897	7.36779e+06	-52639.1	955.82	-29749	0.000000	0.000000	6.402890	0.060534	NaN	0.000000	0.001577	0.001724	28.0783	0.066863	0.002033	32.8954	-67.7947	-166.763	-0.056730	0.401604	-0.659463	-0.660756	0.060534	32.8954	-0.660843	-5.701928E+8	-1.061647E-10	NaN
280	1.000000	0.410932	7.36779e+06	-52639.1	955.818	-29749	0.000000	0.000000	6.410924	0.007891	NaN	0.000000	0.001575	0.001676	28.078	0.152158	0.002052	74.1341	142.595	-166.928	0.070586	0.409577	-0.651428	-0.652783	0.007891	74.1341	-0.651508	-4.247240E+8	-1.858021E-11	NaN
280	1.000000	0.418892	7.36779e+06	-52639.1	955.819	-29749	0.000000	0.000000	6.418883	-0.002922	NaN	0.000000	0.001561	0.001720	28.0782	0.044080	0.002066	21.3365	-89.1115	-166.1	0.039659	0.417586	-0.643468	-0.644774	-0.002922	21.3365	-0.643365	-3.284402E+8	8.895644E-12	NaN
280	1.000000	0.426881	7.36779e+06	-52639.1	955.818	-29749	0.000000	0.000000	6.426875	0.054293	NaN	0.000000	0.001581	0.001662	28.0781	0.017583	0.002047	8.587652	-43.2782	-164.809	-0.036337	0.425566	-0.635479	-0.636794	0.054293	8.587652	-0.640220	-2.973804E+8	-1.825721E-10	NaN
280	1.000000	0.434912	7.36779e+06	-52639.1	955.819	-29749	0.000000	0.000000	6.434903	-0.000504	NaN	0.000000	0.001600	0.001685	28.078	0.009283	0.001851	5.014781	154.297	-166.71	0.016265	0.433625	-0.627448	-0.628735	-0.000504	5.014781	-0.627373	-1.981243E+8	2.544425E-12	NaN
280	1.000000	0.442945	7.36779e+06	-52639.1	955.818	-29749	0.000000	0.000000	6.442936	0.000547	NaN	0.000000	0.001571	0.001704	28.0783	0.064048	0.002021	31.6943	-103.143	-162.595	0.064394	0.441616	-0.619415	-0.620744	0.000547	31.6943	-0.619428	-1.540902E+8	-3.549933E-12	NaN
280	1.000000	0.450943	7.3678e+06	-52639.1	955.818	-29749	0.000000	0.000000	6.450934	-0.023481	NaN	0.000000	0.001579	0.001701	28.0779	0.154945	0.002027	76.4361	130.671	-166.834	0.014977	0.449603	-0.611417	-0.612757	-0.023481	76.4361	-0.611186	-1.186958E+8	1.978233E-10	NaN
280	1.000000	0.458934	7.3678e+06	-52639.1	955.819	-29749	0.000000	0.000000	6.458924	-0.021258	NaN	0.000000	0.001598	0.001710	28.0781	0.084157	0.002063	40.7988	170.917	-168.06	-0.035807	0.457597	-0.603426	-0.604763	-0.021258	40.7988	-0.603035	-9.167605E+7	2.318832E-10	NaN
280	1.000000	0.466955	7.3678e+06	-52639.1	955.819	-29749	0.000000	0.000000	6.466947	0.018088	NaN	0.000000	0.001570	0.001681	28.0781	0.071964	0.001908	37.7086	41.2977	-159.68	0.097520	0.465626	-0.595405	-0.596734	0.018088	37.7086	-0.595765	-7.279848E+7	-2.484619E-10	NaN
280	1.000000	0.474921	7.3678e+06	-52639.1	955.819	-29749	0.000000	0.000000	6.474913	0.021751	NaN	0.000000	0.001608	0.001692	28.0782	0.052034	0.002012	25.8575	43.2843	-168.224	-0.025203	0.473671	-0.587439	-0.588689	0.021751	25.8575	-0.588070	-5.702329E+7	-3.814407E-10	NaN
280	1.000000	0.482922	7.3678e+06	-52639.1	955.818	-29749	0.000000	0.000000	6.482916	0.080455	NaN	0.000000	0.001600	0.001721	28.0782	0.077635	0.002017	38.4814	-111.205	-165.683	0.058679	0.481681	-0.579438	-0.580679	0.080455	38.4814	-0.581006	-4.556297E+7	-1.765796E-9	NaN
280	1.000000	0.490931	7.3678e+06	-52639.1	955.819	-29749	0.000000	0.000000	6.490921	-0.017485	NaN	0.000000	0.001598	0.001695	28.078	0.037282	0.001863	20.0113	-49.2505	-164.09	-0.005033	0.489634	-0.571429	-0.572726	-0.017485	20.0113	-0.570774	-3.290992E+7	5.313135E-10	NaN
280	1.000000	0.498948	7.3678e+06	-52639.1	955.818	-29749	0.000000	0.000000	6.498938	-0.020040	NaN	0.000000	0.001666	0.001671	28.0784	0.061166	0.001847	33.1117	-112.027	-163.699	-0.012344	0.497624	-0.563412	-0.564736	-0.020040	33.1117	-0.562958	-2.566235E+7	7.808995E-10	NaN
280	1.000000	0.506967	7.3678e+06	-52639.1	955.819	-29749	0.000000	0.000000	6.506962	0.078002	NaN	0.000000	0.001589	0.001674	28.0782	0.061328	0.002001	30.653	172	-166.541	0.034329	0.505602	-0.555392	-0.556758	0.078002	30.653	-0.557301	-2.143062E+7	-3.639725E-9	NaN
280	1.000000	0.514961	7.3678e+06	-52639.1	955.819	-29749	0.000000	0.000000	6.514951	-0.033980	NaN	0.000000	0.001601	0.001650	28.078	0.065302	0.002006	32.5528	128.07	-163.833	-0.079603	0.513632	-0.547399	-0.548728	-0.033980	32.5528	-0.546616	-1.524321E+7	2.229209E-9	NaN
280	1.000000	0.522949	7.3678e+06	-52639.1	955.818	-29749	0.000000	0.000000	6.522941	0.014426	NaN	0.000000	0.001641	0.001705	28.0793	0.138397	0.001889	73.2539	166.139	-167.552	0.043735	0.521651	-0.539411	-0.540709	0.014426	73.2539	-0.539559	-1.216862E+7	-1.185473E-9	NaN
280	1.000000	0.530958	7.3678e+06	-52639.1	955.818	-29749	0.000000	0.000000	6.530949	-0.006684	NaN	0.000000	0.001572	0.001692	28.0791	0.028910	0.001954	14.7975	-64.0508	-165.675	0.052646	0.529665	-0.531402	-0.532695	-0.006684	14.7975	-0.531063	-9.27563e+06	7.206225E-10	NaN
280	1.000000	0.538945	7.3678e+06	-52639.1	955.819	-29749	0.000000	0.000000	6.538937	0.016438	NaN	0.000000	0.001607	0.001709	28.0791	0.106134	0.002085	50.8989	173.361	-168.309	0.074546	0.537640	-0.523415	-0.524720	0.016438	50.8989	-0.523657	-7.31895e+06	-2.245985E-9	NaN
280	1.000000	0.546954	7.3678e+06	-52639.1	955.819	-29749	0.000000	0.000000	6.546945	-0.016655	NaN	0.000000	0.001601	0.001683	28.079	0.072807	0.002052	35.4868	-129.918	-165.324	-0.020804	0.545657	-0.515406	-0.516703	-0.016655	35.4868	-0.515054	-5.55627e+06	2.997600E-9	NaN
280	1.000000	0.554959	7.3678e+06	-52639.1	955.817	-29749	0.000000	0.000000	6.554952	0.040921	NaN	0.000000	0.001616	0.001722	28.0793	0.100615	0.001866	53.9278	92.5826	-161.464	0.009800	0.553654	-0.507401	-0.508706	0.040921	53.9278	-0.507970	-4.42728e+06	-9.242923E-9	NaN
280	1.000000	0.562979	7.3678e+06	-52639.1	955.818	-29749	0.000000	0.000000	6.562971	0.023716	NaN	0.000000	0.001598	0.001708	28.0791	0.037444	0.001993	18.7887	161.699	-164.441	0.017710	0.561660	-0.499381	-0.500700	0.023716	18.7887	-0.500328	-3.4641e+06	-6.846164E-9	NaN
280	1.000000	0.570972	7.3678e+06	-52639.1	955.819	-29749	0.000000	0.000000	6.570965	0.050655	NaN	0.000000	0.001567	0.001700	28.0789	0.034833	0.002037	17.1042	19.2926	-162.893	0.014636	0.569707	-0.491388	-0.492653	0.050655	17.1042	-0.493610	-2.79138e+06	-1.814693E-8	NaN
280	1.000000	0.578973	7.3678e+06	-52639.1	955.817	-29749	0.000000	0.000000	6.578968	0.086918	NaN	0.000000	0.001602	0.001671	28.0792	0.054101	0.002145	25.221	82.2364	-163.814	0.090125	0.577717	-0.483387	-0.484643	0.086918	25.221	-0.485971	-2.18312e+06	-3.981366E-8	NaN
280	1.000000	0.586985	7.3678e+06	-52639.1	955.819	-29749	0.000000	0.000000	6.586977	0.012733	NaN	0.000000	0.001606	0.001723	28.0793	0.041445	0.001863	22.2462	-87.0393	-168.014	0.066309	0.585702	-0.475375	-0.476658	0.012733	22.2462	-0.475804	-1.57315e+06	-8.093702E-9	NaN
280	1.000000	0.594973	7.3678e+06	-52639.1	955.818	-29749	0.000000	0.000000	6.594963	-0.042827	NaN	0.000000	0.001614	0.001689	28.0792	0.088425	0.001996	44.3042	9.777866	-168.02	0.042106	0.593694	-0.467387	-0.468666	-0.042827	44.3042	-0.466662	-1.17104e+06	3.657179E-8	NaN
280	1.000000	0.603001	7.3678e+06	-52639.1	955.817	-29749	0.000000	0.000000	6.602994	0.056737	NaN	0.000000	0.001605	0.001690	28.0791	0.083099	0.001931	43.026	151.833	-165.963	-0.023087	0.601687	-0.459359	-0.460673	0.056737	43.026	-0.460348	-954798	-5.942301E-8	NaN
280	1.000000	0.610987	7.3678e+06	-52639.1	955.819	-29749	0.000000	0.000000	6.610982	0.087861	NaN	0.000000	0.001590	0.001691	28.079	0.078319	0.001960	39.9544	24.6804	-164.521	0.074432	0.609684	-0.451373	-0.452676	0.087861	39.9544	-0.453022	-753161	-1.166567E-7	NaN
280	1.000000	0.619015	7.3678e+06	-52639.1	955.818	-29749	0.000000	0.000000	6.619006	-0.004302	NaN	0.000000	0.001569	0.001722	28.0796	0.051349	0.001986	25.8537	21.873	-164.829	0.095599	0.617614	-0.443345	-0.444746	-0.004302	25.8537	-0.443220	-548014	7.849968E-9	NaN
280	1.000000	0.627022	7.3678e+06	-52639.1	955.818	-29749	0.000000	0.000000	6.627015	0.024184	NaN	0.000000	0.001536	0.001740	28.0792	0.055926	0.002037	27.4552	144.788	-165.958	0.053737	0.625689	-0.435338	-0.436671	0.024184	27.4552	-0.435998	-433370	-5.580454E-8	NaN
280	1.000000	0.634989	7.3678e+06	-52639.1	955.819	-29749	0.000000	0.000000	6.634980	-0.005703	NaN	0.000000	0.001574	0.001723	28.0792	0.084449	0.001778	47.4855	74.8955	-166.526	0.000425	0.633669	-0.427371	-0.428691	-0.005703	47.4855	-0.427281	-326270	1.748085E-8	NaN
280	1.000000	0.643006	7.3678e+06	-52639.1	955.819	-29749	0.000000	0.000000	6.643000	0.080860	NaN	0.000000	0.001592	0.001710	28.0792	0.138495	0.002006	69.0522	-174.292	-166.615	0.044697	0.641690	-0.419354	-0.420670	0.080860	69.0522	-0.420232	-259245	-3.119068E-7	NaN
280	1.000000	0.651013	7.3678e+06	-52639.1	955.818	-29749	0.000000	0.000000	6.651004	-0.008522	NaN	0.000000	0.001592	0.001744	28.0793	0.118051	0.002098	56.2654	61.3422	-167.511	0.001408	0.649709	-0.411347	-0.412651	-0.008522	56.2654	-0.411233	-193168	4.411633E-8	NaN
280	1.000000	0.659026	7.3678e+06	-52639.1	955.82	-29749	0.000000	0.000000	6.659019	0.045881	NaN	0.000000	0.001596	0.001697	28.0782	0.046011	0.001968	23.3798	75.204	-166.85	0.005946	0.657672	-0.403334	-0.404688	0.045881	23.3798	-0.404806	-156490	-2.931902E-7	NaN
280	1.000000	0.666996	7.3678e+06	-52639.1	955.819	-29749	0.000000	0.000000	6.666989	0.038337	NaN	0.000000	0.001581	0.001723	28.0779	0.071001	0.001923	36.9308	-116.144	-164.437	0.028386	0.665728	-0.395364	-0.396632	0.038337	36.9308	-0.396142	-117746	-3.255931E-7	NaN
280	1.000000	0.675044	7.3678e+06	-52639.1	955.819	-29749	0.000000	0.000000	6.675037	0.034297	NaN	0.000000	0.001604	0.001686	28.0778	0.067004	0.001932	34.6764	-73.3921	-165.54	0.026505	0.673690	-0.387316	-0.388670	0.034297	34.6764	-0.388058	-90235.2	-3.800884E-7	NaN
280	1.000000	0.683040	7.3678e+06	-52639.1	955.819	-29749	0.000000	0.000000	6.683035	0.075278	NaN	0.000000	0.001607	0.001725	28.0777	0.092489	0.002028	45.6128	-163.991	-165.861	0.017897	0.681716	-0.379320	-0.380644	0.075278	45.6128	-0.380557	-70450.9	-1.068521E-6	NaN
280	1.000000	0.691033	7.3678e+06	-52639.1	955.818	-29749	0.000000	0.000000	6.691025	0.014512	NaN	0.000000	0.001601	0.001727	28.0778	0.077947	0.002067	37.7168	-14.1576	-166.247	-0.045405	0.689779	-0.371327	-0.372581	0.014512	37.7168	-0.371615	-52406.7	-2.769053E-7	NaN
280	1.000000	0.699056	7.3678e+06	-52639.1	955.818	-29749	0.000000	0.000000	6.699050	0.050459	NaN	0.000000	0.001603	0.001673	28.078	0.058077	0.002060	28.1895	27.4473	-167.391	0.061586	0.697707	-0.363304	-0.364653	0.050459	28.1895	-0.364646	-41586.2	-1.213361E-6	NaN
280	1.000000	0.707039	7.3678e+06	-52639.1	955.819	-29749	0.000000	0.000000	6.707031	0.032704	NaN	0.000000	0.001603	0.001719	28.0777	0.142502	0.001939	73.4834	-93.8495	-166.328	0.196938	0.705733	-0.355321	-0.356627	0.032704	73.4834	-0.355655	-30830.6	-1.060756E-6	NaN
280	1.000000	0.715016	7.3678e+06	-52639.1	955.819	-29749	0.000000	0.000000	6.715012	0.101859	NaN	0.000000	0.001603	0.001679	28.0777	0.108029	0.001848	58.468	91.0831	-165.506	0.087365	0.713770	-0.347344	-0.348590	0.101859	58.468	-0.348650	-24401.1	-4.174338E-6	NaN
280	1.000000	0.723031	7.3678e+06	-52639.1	955.818	-29749	0.000000	0.000000	6.723023	0.022678	NaN	0.000000	0.001632	0.001709	28.0777	0.109823	0.002028	54.1585	-122.312	-167.876	0.004103	0.721749	-0.339329	-0.340611	0.022678	54.1585	-0.339643	-18044.6	-1.256786E-6	NaN
280	1.000000	0.731047	7.3678e+06	-52639.1	955.819	-29749	0.000000	0.000000	6.731041	0.068408	NaN	0.000000	0.001581	0.001701	28.0779	0.071510	0.002079	34.3895	176.056	-163.344	0.027327	0.729749	-0.331313	-0.332611	0.068408	34.3895	-0.332805	-14338.4	-4.770977E-6	NaN
280	1.000000	0.739064	7.3678e+06	-52639.1	955.819	-29749	0.000000	0.000000	6.739056	0.011562	NaN	0.000000	0.001552	0.001660	28.0779	0.099099	0.001978	50.0976	102.6	-162.718	0.002426	0.737774	-0.323296	-0.324586	0.011562	50.0976	-0.323469	-10463	-1.104995E-6	NaN
280	1.000000	0.747054	7.3678e+06	-52639.1	955.82	-29749	0.000000	0.000000	6.747046	0.019539	NaN	0.000000	0.001578	0.001692	28.078	0.081238	0.002053	39.5714	64.484	-164.874	0.095734	0.745754	-0.315306	-0.316606	0.019539	39.5714	-0.315676	-8033.93	-2.432055E-6	NaN
280	1.000000	0.755042	7.3678e+06	-52639.1	955.818	-29749	0.000000	0.000000	6.755033	-0.013784	NaN	0.000000	0.001603	0.001682	28.0778	0.101501	0.002163	46.9165	-105.765	-164.798	-0.040730	0.753790	-0.307318	-0.308570	-0.013784	46.9165	-0.307097	-5998.79	2.297759E-6	NaN
280	1.000000	0.763059	7.3678e+06	-52639.1	955.819	-29749	0.000000	0.000000	6.763048	-0.057143	NaN	0.000000	0.001558	0.001683	28.0778	0.078487	0.001969	39.8627	148.161	-162.102	-0.054574	0.761780	-0.299301	-0.300580	-0.057143	39.8627	-0.298226	-4428	1.290497E-5	NaN
280	1.000000	0.771054	7.3678e+06	-52639.1	955.819	-29749	0.000000	0.000000	6.771047	0.042867	NaN	0.000000	0.001565	0.001716	28.0776	0.072825	0.001994	36.5221	96.847	-164.857	0.063677	0.769713	-0.291306	-0.292647	0.042867	36.5221	-0.292186	-3597.75	-1.191499E-5	NaN
280	1.000000	0.779046	7.3678e+06	-52639.1	955.819	-29749	0.000000	0.000000	6.779036	-0.027363	NaN	0.000000	0.001550	0.001734	28.0778	0.080168	0.001994	40.1987	83.7201	-169.365	-0.042462	0.777801	-0.283314	-0.284559	-0.027363	40.1987	-0.282804	-2601.52	1.051811E-5	NaN
280	1.000000	0.787069	7.3678e+06	-52639.1	955.819	-29749	0.000000	0.000000	6.787062	0.042951	NaN	0.000000	0.001561	0.001688	28.078	0.048934	0.001947	25.139	0.971402	-164.637	0.035811	0.785782	-0.275291	-0.276578	0.042951	25.139	-0.276572	-2095.03	-2.050126E-5	NaN
280	1.000000	0.795038	7.3678e+06	-52639.1	955.819	-29749	0.000000	0.000000	6.795029	0.000408	NaN	0.000000	0.001555	0.001686	28.0791	0.143623	0.001999	71.8487	-104.826	-166.271	-0.113935	0.793766	-0.267322	-0.268594	0.000408	71.8487	-0.267326	-1516.56	-2.692845E-7	NaN
280	1.000000	0.803066	7.3678e+06	-52639.1	955.819	-29749	0.000000	0.000000	6.803060	0.057634	NaN	0.000000	0.001534	0.001690	28.0792	0.069913	0.001941	36.0142	44.8899	-166.454	0.009298	0.801793	-0.259294	-0.260567	0.057634	36.0142	-0.260494	-1192.59	-4.832679E-5	NaN
280	1.000000	0.811086	7.3678e+06	-52639.1	955.819	-29749	0.000000	0.000000	6.811080	0.060911	NaN	0.000000	0.001558	0.001702	28.079	0.009625	0.002119	4.542957	72.2967	-165.108	0.041201	0.809732	-0.251274	-0.252628	0.060911	4.542957	-0.261330	-1228.25	-4.959189E-5	NaN
280	1.000000	0.819098	7.3678e+06	-52639.1	955.819	-29749	0.000000	0.000000	6.819093	0.087047	NaN	0.000000	0.001573	0.001717	28.079	0.065899	0.001940	33.9601	-70.4472	-165.366	0.085380	0.817805	-0.243262	-0.244555	0.087047	33.9601	-0.245184	-692.326	-0.000126	NaN
280	1.000000	0.827097	7.3678e+06	-52639.1	955.818	-29749	0.000000	0.000000	6.827088	-0.005742	NaN	0.000000	0.001551	0.001691	28.0789	0.019342	0.001857	10.4137	90.1407	-164.346	0.000343	0.825748	-0.235263	-0.236612	-0.005742	10.4137	-0.234849	-477.4	1.202789E-5	NaN
280	1.000000	0.835106	7.3678e+06	-52639.1	955.817	-29749	0.000000	0.000000	6.835099	0.044639	NaN	0.000000	0.001575	0.001705	28.079	0.109058	0.002031	53.7073	118.834	-167.236	0.079664	0.833824	-0.227254	-0.228536	0.044639	53.7073	-0.227878	-370.647	-0.000120	NaN
280	1.000000	0.843065	7.3678e+06	-52639.1	955.819	-29749	0.000000	0.000000	6.843056	-0.008030	NaN	0.000000	0.001563	0.001698	28.0793	0.046252	0.001922	24.0615	175.52	-164.551	-0.116535	0.841817	-0.219295	-0.220543	-0.008030	24.0615	-0.219045	-268.166	2.994348E-5	NaN
280	1.000000	0.851099	7.3678e+06	-52639.1	955.818	-29749	0.000000	0.000000	6.851092	0.048983	NaN	0.000000	0.001571	0.001715	28.0791	0.162112	0.001976	82.0596	179.289	-163.736	-0.008867	0.849778	-0.211261	-0.212582	0.048983	82.0596	-0.211709	-204.389	-0.000240	NaN
280	1.000000	0.859090	7.3678e+06	-52639.1	955.818	-29749	0.000000	0.000000	6.859083	0.033335	NaN	0.000000	0.001535	0.001694	28.0788	0.026612	0.002029	13.1175	104.787	-166.317	0.003529	0.857771	-0.203270	-0.204589	0.033335	13.1175	-0.205176	-160.112	-0.000208	NaN
280	1.000000	0.867113	7.3678e+06	-52639.1	955.819	-29749	0.000000	0.000000	6.867108	0.086739	NaN	0.000000	0.001636	0.001684	28.0789	0.064705	0.001975	32.7614	137.911	-164.057	0.110178	0.865772	-0.195247	-0.196588	0.086739	32.7614	-0.197232	-118.608	-0.000731	NaN
280	1.000000	0.875106	7.3678e+06	-52639.1	955.818	-29749	0.000000	0.000000	6.875101	0.088598	NaN	0.000000	0.001610	0.001665	28.079	0.075431	0.001963	38.4203	75.4231	-164.007	0.023721	0.873809	-0.187254	-0.188551	0.088598	38.4203	-0.188984	-86.5034	-0.001024	NaN
280	1.000000	0.883079	7.3678e+06	-52639.1	955.817	-29749	0.000000	0.000000	6.883072	0.027109	NaN	0.000000	0.001645	0.001696	28.079	0.059074	0.002069	28.5506	-161.672	-165.746	0.046388	0.881798	-0.179281	-0.180562	0.027109	28.5506	-0.179993	-61.0019	-0.000444	NaN
280	1.000000	0.891077	7.3678e+06	-52639.1	955.818	-29749	0.000000	0.000000	6.891071	0.053722	NaN	0.000000	0.001600	0.001689	28.0791	0.030094	0.002110	14.2642	159.317	-165.369	0.012565	0.889769	-0.171283	-0.172591	0.053722	14.2642	-0.174107	-48.3757	-0.001111	NaN
280	1.000000	0.899133	7.3678e+06	-52639.1	955.818	-29749	0.000000	0.000000	6.899124	-0.000989	NaN	0.000000	0.001656	0.001710	28.0788	0.038033	0.002057	18.4887	-142.252	-165.657	-0.041436	0.897851	-0.163227	-0.164509	-0.000989	18.4887	-0.163187	-31.2176	3.166626E-5	NaN
280	1.000000	0.907131	7.3678e+06	-52639.1	955.819	-29749	0.000000	0.000000	6.907123	0.022712	NaN	0.000000	0.001669	0.001715	28.079	0.032586	0.002001	16.2841	-92.6835	-165.527	0.034991	0.905765	-0.155229	-0.156595	0.022712	16.2841	-0.156275	-23.5225	-0.000966	NaN
280	1.000000	0.915128	7.3678e+06	-52639.1	955.818	-29749	0.000000	0.000000	6.915118	-0.028224	NaN	0.000000	0.001638	0.001707	28.0787	0.022850	0.002016	11.3324	168.102	-165.182	-0.012249	0.913765	-0.147232	-0.148595	-0.028224	11.3324	-0.145364	-14.8899	0.001896	NaN
280	1.000000	0.923097	7.3678e+06	-52639.1	955.82	-29749	0.000000	0.000000	6.923088	-0.024446	NaN	0.000000	0.001604	0.001701	28.0788	0.080681	0.001990	40.5344	49.926	-161.638	-0.116028	0.921842	-0.139263	-0.140518	-0.024446	40.5344	-0.138810	-11.2351	0.002176	NaN
280	1.000000	0.931099	7.3678e+06	-52639.1	955.818	-29749	0.000000	0.000000	6.931091	0.026987	NaN	0.000000	0.001640	0.001714	28.0777	0.031693	0.002069	15.3146	-101.759	-162.51	0.040759	0.929763	-0.131261	-0.132597	0.026987	15.3146	-0.132583	-8.549637	-0.003156	NaN
280	1.000000	0.939093	7.3678e+06	-52639.1	955.819	-29749	0.000000	0.000000	6.939090	0.143931	NaN	0.000000	0.001553	0.001683	28.0778	0.076229	0.001958	38.9272	-132.206	-165.641	0.090485	0.937764	-0.123267	-0.124595	0.143931	38.9272	-0.126040	-6.375835	-0.022575	NaN
280	1.000000	0.947125	7.3678e+06	-52639.1	955.817	-29749	0.000000	0.000000	6.947117	0.033263	NaN	0.000000	0.001562	0.001673	28.0781	0.058000	0.001951	29.727	-100.23	-161.522	0.045556	0.945849	-0.115235	-0.116511	0.033263	29.727	-0.116074	-4.019765	-0.008275	NaN
280	1.000000	0.955148	7.3678e+06	-52639.1	955.819	-29749	0.000000	0.000000	6.955141	0.025423	NaN	0.000000	0.001552	0.001718	28.0776	0.028838	0.001994	14.4657	-44.4804	-166.718	0.065024	0.953847	-0.107212	-0.108513	0.025423	14.4657	-0.108530	-2.797465	-0.009088	NaN
280	1.000000	0.963133	7.3678e+06	-52639.1	955.819	-29749	0.000000	0.000000	6.963126	0.030039	NaN	0.000000	0.001549	0.001711	28.0779	0.107511	0.001898	56.6552	-66.5116	-164.404	-0.002400	0.961808	-0.099227	-0.100552	0.030039	56.6552	-0.099624	-1.792416	-0.016759	NaN
280	1.000000	0.971179	7.3678e+06	-52639.1	955.819	-29749	0.000000	0.000000	6.971171	0.026665	NaN	0.000000	0.001540	0.001722	28.0777	0.119625	0.001913	62.547	-175.674	-163.103	0.084238	0.969811	-0.091181	-0.092549	0.026665	62.547	-0.091501	-1.171872	-0.022754	NaN
280	1.000000	0.979156	7.3678e+06	-52639.1	955.818	-29749	0.000000	0.000000	6.979147	-0.004687	NaN	0.000000	0.001521	0.001718	28.0778	0.113233	0.001971	57.4365	-60.5692	-164.89	0.020132	0.977844	-0.083204	-0.084516	-0.004687	57.4365	-0.083143	-0.740402	0.006330	NaN
280	1.000000	0.987181	7.3678e+06	-52639.1	955.817	-29749	0.000000	0.000000	6.987170	-0.048708	NaN	0.000000	0.001543	0.001691	28.0783	0.102416	0.002026	50.5581	-167.632	-160.735	-0.059089	0.985874	-0.075179	-0.076486	-0.048708	50.5581	-0.074456	-0.447125	0.108937	NaN
280	1.000000	0.995150	7.3678e+06	-52639.1	955.819	-29749	0.000000	0.000000	6.995139	-0.044690	NaN	0.000000	0.001513	0.001718	28.0778	0.071913	0.001978	36.3493	50.3393	-163.847	0.039321	0.993848	-0.067210	-0.068512	-0.044690	36.3493	-0.066288	-0.270492	0.165216	NaN
280	1.000000	1.003151	7.3678e+06	-52639.1	955.817	-29749	0.000000	0.000000	7.003145	0.057238	NaN	0.000000	0.001540	0.001705	28.0778	0.084693	0.002093	40.4633	61.7971	-167.564	0.032564	1.001865	-0.059209	-0.060495	0.057238	40.4633	-0.060270	-0.183326	-0.312220	NaN
280	1.000000	1.011197	7.3678e+06	-52639.1	955.818	-29749	0.000000	0.000000	7.011191	0.052589	NaN	0.000000	0.001551	0.001697	28.0781	0.129962	0.002150	60.4361	11.4537	-165.992	0.111019	1.009822	-0.051163	-0.052538	0.052589	60.4361	-0.051815	-0.103500	-0.508104	NaN
280	1.000000	1.019161	7.3678e+06	-52639.1	955.817	-29749	0.000000	0.000000	7.019154	0.035361	NaN	0.000000	0.001555	0.001717	28.0779	0.131809	0.002054	64.1752	23.2256	-168.225	0.020311	1.017911	-0.043199	-0.044449	0.035361	64.1752	-0.043612	-0.058282	-0.606717	NaN
280	1.000000	1.027159	7.3678e+06	-52639.1	955.819	-29749	0.000000	0.000000	7.027151	0.031333	NaN	0.000000	0.001545	0.001731	28.078	0.102045	0.001977	51.6147	-152.286	-164.029	0.040907	1.025869	-0.035201	-0.036491	0.031333	51.6147	-0.035657	-0.033487	-0.935669	NaN
280	1.000000	1.035150	7.3678e+06	-52639.1	955.819	-29749	0.000000	0.000000	7.035139	-0.048312	NaN	0.000000	0.001562	0.001708	28.0776	0.063058	0.001959	32.1899	-157.391	-168.004	-0.061997	1.033872	-0.027210	-0.028488	-0.048312	32.1899	-0.026085	-0.018015	2.681692	NaN
280	1.000000	1.043162	7.3678e+06	-52639.1	955.818	-29749	0.000000	0.000000	7.043154	0.029966	NaN	0.000000	0.001565	0.001716	28.0778	0.025812	0.002133	12.0997	-89.4127	-165.516	0.057133	1.041857	-0.019198	-0.020503	0.029966	12.0997	-0.021056	-0.013361	-2.242729	NaN
280	1.000000	1.051164	7.3678e+06	-52639.1	955.818	-29749	0.000000	0.000000	7.051156	0.014470	NaN	0.000000	0.001607	0.001719	28.0777	0.058257	0.001965	29.6521	50.5433	-165.107	0.136201	1.049812	-0.011196	-0.012548	0.014470	29.6521	-0.011562	-0.007278	-1.988064	NaN
280	1.000000	1.059171	7.3678e+06	-52639.1	955.819	-29749	0.000000	0.000000	7.059160	-0.060811	NaN	0.000000	0.001584	0.001716	28.0778	0.030664	0.002021	15.1715	-128.446	-165.028	0.041457	1.057868	-0.003189	-0.004492	-0.060811	15.1715	-0.000182	-0.000136	447.695	NaN
280	1.000000	1.067179	7.3678e+06	-52639.1	955.818	-29749	0.000000	0.000000	7.067213	1.025859	NaN	0.000000	0.001577	0.001674	28.0791	1.609737	0.001886	853.353	7.014024	-165.188	0.289683	1.065861	0.004819	0.003501	1.025859	853.353	0.003918	0.003167	323.944	13854.6
280	1.000000	1.075023	7.3678e+06	-52639.1	955.819	-29749	0.000000	0.000000	7.075359	8.389675	NaN	0.000000	0.001615	0.001667	28.0789	8.111537	0.001750	4634.15	11.7559	-172.787	6.535363	1.073847	0.012663	0.011487	8.389675	4634.15	0.011305	0.010669	786.396	40991.3
280	2.000000	1.077725	7.3678e+06	-52639.1	955.818	-29749	0.000000	0.000000	7.078154	10.6252	NaN	0.000000	0.001608	0.001642	28.0792	11.3414	0.001801	6296.98	9.032917	-175.411	10.611	1.077456	0.015365	0.015096	10.6252	6296.98	0.014100	0.014104	753.36	48443.9
280	2.000000	1.079720	7.3678e+06	-52639.1	955.818	-29749	0.000000	0.000000	7.080217	12.3046	NaN	0.000000	0.001612	0.001622	28.0791	12.6132	0.001563	8069.92	4.777273	-173.68	11.9584	1.079428	0.017360	0.017068	12.3046	8069.92	0.016216	0.016942	726.295	56645.6
280	2.000000	1.081695	7.3678e+06	-52639.1	955.819	-29749	0.000000	0.000000	7.082377	16.8061	NaN	0.000000	0.001618	0.001659	28.0795	15.2809	0.001671	9143.91	2.617484	-171.705	16.5442	1.081381	0.019335	0.019021	16.8061	9143.91	0.017956	0.019432	864.857	59929.9
280	2.000000	1.083684	7.3678e+06	-52639.1	955.818	-29749	0.000000	0.000000	7.084522	20.5993	NaN	0.000000	0.001578	0.001697	28.0788	17.9642	0.001885	9529.35	8.223580	-175.619	19.0934	1.083352	0.021324	0.020992	20.5993	9529.35	0.019703	0.022077	933.052	58595.4
280	2.000000	1.085625	7.3678e+06	-52639.1	955.817	-29749	0.000000	0.000000	7.086616	24.306	NaN	0.000000	0.001586	0.001676	28.0792	20.464	0.001703	12016	4.495594	-176.402	22.7042	1.085295	0.023265	0.022935	24.306	12016	0.021747	0.025363	958.324	68934.2
280	2.000000	1.087668	7.3678e+06	-52639.1	955.818	-29749	0.000000	0.000000	7.088835	28.5777	NaN	0.000000	0.001587	0.001664	28.0794	22.5201	0.001688	13343.2	3.295259	-175.339	28.6293	1.087410	0.025308	0.025050	28.5777	13343.2	0.023702	0.028697	995.852	71964.4
280	2.000000	1.089661	7.3678e+06	-52639.1	955.819	-29749	0.000000	0.000000	7.091096	35.0986	NaN	0.000000	0.001573	0.001671	28.0792	24.2093	0.001756	13786.1	1.010003	-173.658	34.9037	1.089341	0.027301	0.026981	35.0986	13786.1	0.025392	0.031732	1106.1	70707.8
280	2.000000	1.091630	7.3678e+06	-52639.1	955.818	-29749	0.000000	0.000000	7.093331	41.5756	NaN	0.000000	0.001607	0.001659	28.0794	26.6855	0.001841	14493.4	3.243046	-175.823	41.2547	1.091345	0.029270	0.028985	41.5756	14493.4	0.027118	0.034982	1188.48	70798
280	2.000000	1.093617	7.3678e+06	-52639.1	955.817	-29749	0.000000	0.000000	7.095528	46.6691	NaN	0.000000	0.001566	0.001680	28.079	29.3213	0.001909	15357.9	6.508442	-179.416	44.6571	1.093400	0.031257	0.031040	46.6691	15357.9	0.028978	0.038652	1207.42	71370.5
280	2.000000	1.095608	7.3678e+06	-52639.1	955.818	-29749	0.000000	0.000000	7.097928	56.6181	NaN	0.000000	0.001619	0.001678	28.0793	30.6812	0.001682	18238.9	2.497548	-177.885	55.5954	1.095258	0.033248	0.032898	56.6181	18238.9	0.030920	0.042673	1326.8	80666.9
280	2.000000	1.097605	7.3678e+06	-52639.1	955.818	-29749	0.000000	0.000000	7.100159	62.309	NaN	0.000000	0.001600	0.001686	28.0794	33.7513	0.001737	19434.4	3.220792	-179.441	59.5563	1.097357	0.035245	0.034997	62.309	19434.4	0.032840	0.046836	1330.36	82045.1
280	2.000000	1.099580	7.3678e+06	-52639.1	955.819	-29749	0.000000	0.000000	7.102527	71.867	NaN	0.000000	0.001627	0.001692	28.0793	35.2423	0.001821	19348.3	6.347898	178.772	69.5973	1.099253	0.037220	0.036893	71.867	19348.3	0.034435	0.050437	1424.87	78711.8
280	2.000000	1.101551	7.3678e+06	-52639.1	955.818	-29749	0.000000	0.000000	7.104492	71.7182	NaN	0.000000	0.001602	0.001681	28.0799	37.4635	0.001784	20995.7	4.614235	178.622	68.6093	1.101374	0.039191	0.039014	71.7182	20995.7	0.036630	0.055608	1289.7	81345.7
280	2.000000	1.103554	7.3678e+06	-52639.1	955.818	-29749	0.000000	0.000000	7.107108	86.6181	NaN	0.000000	0.001582	0.001670	28.0795	39.1985	0.001671	23459.2	3.649727	178.48	82.4405	1.103266	0.041194	0.040906	86.6181	23459.2	0.038425	0.060021	1443.13	87485
280	2.000000	1.105580	7.3678e+06	-52639.1	955.819	-29749	0.000000	0.000000	7.109195	88.1079	NaN	0.000000	0.001596	0.001657	28.0795	40.4441	0.001726	23429.2	0.443521	-178.089	87.4686	1.105312	0.043220	0.042952	88.1079	23429.2	0.040400	0.065065	1354.14	83918.3
280	2.000000	1.107597	7.3678e+06	-52639.1	955.819	-29749	0.000000	0.000000	7.111467	94.2996	NaN	0.000000	0.001641	0.001676	28.078	42.9862	0.001829	23499.8	-0.084349	-177.187	93.1737	1.107337	0.045237	0.044977	94.2996	23499.8	0.042228	0.069912	1348.83	81200.8
280	2.000000	1.109634	7.3678e+06	-52639.1	955.819	-29749	0.000000	0.000000	7.113894	103.809	NaN	0.000000	0.001639	0.001671	28.0778	45.0499	0.001886	23887.7	4.756322	177.261	102.775	1.109352	0.047274	0.046992	103.809	23887.7	0.044014	0.074814	1387.57	79791.5
280	2.000000	1.111541	7.3678e+06	-52639.1	955.818	-29749	0.000000	0.000000	7.116182	113.052	NaN	0.000000	0.001606	0.001658	28.0783	45.2576	0.001766	25620.3	-0.942125	-176.849	109.166	1.111325	0.049181	0.048965	113.052	25620.3	0.045871	0.080081	1411.73	82716.7
280	2.000000	1.113579	7.3678e+06	-52639.1	955.818	-29749	0.000000	0.000000	7.118475	119.261	NaN	0.000000	0.001632	0.001672	28.0776	48.4929	0.001825	26575	3.534215	178.135	115.647	1.113336	0.051219	0.050976	119.261	26575	0.047853	0.085892	1388.51	82845.8
280	2.000000	1.115655	7.3678e+06	-52639.1	955.819	-29749	0.000000	0.000000	7.120992	129.984	NaN	0.000000	0.001627	0.001645	28.0787	49.8273	0.001684	29581.6	4.553708	176.081	131.075	1.115293	0.053295	0.052933	129.984	29581.6	0.049999	0.092410	1406.6	88906.8
280	2.000000	1.117577	7.3678e+06	-52639.1	955.819	-29749	0.000000	0.000000	7.123368	141.004	NaN	0.000000	0.001636	0.001683	28.078	53.1448	0.001842	28849.5	4.796976	176.321	139.487	1.117267	0.055217	0.054907	141.004	28849.5	0.051552	0.097269	1449.63	84513.2
280	2.000000	1.119559	7.3678e+06	-52639.1	955.82	-29749	0.000000	0.000000	7.125648	148.278	NaN	0.000000	0.001640	0.001690	28.0778	53.2357	0.001791	29725.3	2.141396	178.835	145.972	1.119295	0.057199	0.056935	148.278	29725.3	0.053457	0.103399	1434.04	84458.3
280	2.000000	1.121559	7.3678e+06	-52639.1	955.819	-29749	0.000000	0.000000	7.128113	159.547	NaN	0.000000	0.001638	0.001666	28.078	56.0638	0.001765	31760	6.075241	174.183	156.798	1.121197	0.059199	0.058837	159.547	31760	0.055432	0.109939	1451.24	87514
280	2.000000	1.123605	7.3678e+06	-52639.1	955.819	-29749	0.000000	0.000000	7.130543	168.897	NaN	0.000000	0.001629	0.001681	28.0778	57.702	0.001787	32296.7	6.139989	174.626	168.861	1.123229	0.061245	0.060869	168.897	32296.7	0.057323	0.116383	1451.21	86494.1
280	2.000000	1.125567	7.3678e+06	-52639.1	955.818	-29749	0.000000	0.000000	7.132858	177.471	NaN	0.000000	0.001623	0.001666	28.0783	59.7901	0.001863	32086.3	5.542171	174.098	175.852	1.125233	0.063207	0.062873	177.471	32086.3	0.059059	0.122456	1449.26	83772.6
280	2.000000	1.127511	7.3678e+06	-52639.1	955.818	-29749	0.000000	0.000000	7.135244	188.232	NaN	0.000000	0.001617	0.001690	28.0778	61.5071	0.001845	33337.2	3.728178	176.007	184.417	1.127278	0.065151	0.064918	188.232	33337.2	0.060916	0.129114	1457.88	84764.9
280	2.000000	1.129661	7.3678e+06	-52639.1	955.818	-29749	0.000000	0.000000	7.137721	196.173	NaN	0.000000	0.001641	0.001622	28.0778	62.8468	0.001762	35670.7	8.974112	170.196	199.344	1.129225	0.067301	0.066865	196.173	35670.7	0.063177	0.137446	1427.28	87906.3
280	2.000000	1.131541	7.3678e+06	-52639.1	955.818	-29749	0.000000	0.000000	7.140313	213.496	NaN	0.000000	0.001602	0.001633	28.0779	64.5965	0.001813	35636.7	3.674091	176.746	211.85	1.131165	0.069181	0.068805	213.496	35636.7	0.064687	0.143151	1491.4	86054.4
280	2.000000	1.133549	7.3678e+06	-52639.1	955.819	-29749	0.000000	0.000000	7.142674	222.068	NaN	0.000000	0.001591	0.001690	28.0778	66.4563	0.001739	38207.1	4.566542	174.955	219.881	1.133296	0.071189	0.070936	222.068	38207.1	0.066830	0.151433	1466.44	89703
280	2.000000	1.135501	7.3678e+06	-52639.1	955.819	-29749	0.000000	0.000000	7.145078	233.064	NaN	0.000000	0.001638	0.001653	28.0781	67.5927	0.001840	36738.9	2.582715	176.793	229.441	1.135231	0.073141	0.072871	233.064	36738.9	0.068383	0.157572	1479.1	84559
280	2.000000	1.137599	7.3678e+06	-52639.1	955.818	-29749	0.000000	0.000000	7.147379	238.015	NaN	0.000000	0.001648	0.001704	28.0776	69.8908	0.001745	40052.2	1.991637	176.46	240.023	1.137324	0.075239	0.074964	238.015	40052.2	0.070782	0.167283	1422.83	89469.2
280	2.000000	1.139542	7.3678e+06	-52639.1	955.819	-29749	0.000000	0.000000	7.149945	253.147	NaN	0.000000	0.001658	0.001712	28.0778	71.6706	0.001844	38857.4	6.073936	173.15	252.295	1.139279	0.077182	0.076919	253.147	38857.4	0.072296	0.173554	1458.61	85217.6
280	2.000000	1.141678	7.3678e+06	-52639.1	955.819	-29749	0.000000	0.000000	7.152349	259.661	NaN	0.000000	0.001616	0.001693	28.0791	75.0646	0.001883	39865.4	6.834049	172.207	267.975	1.141320	0.079318	0.078960	259.661	39865.4	0.074433	0.182588	1422.12	85238.1
280	2.000000	1.143510	7.3678e+06	-52639.1	955.819	-29749	0.000000	0.000000	7.155079	281.497	NaN	0.000000	0.001630	0.001709	28.0791	75.1285	0.001793	41893.5	3.156781	175.919	278.134	1.143148	0.081150	0.080788	281.497	41893.5	0.076111	0.189829	1482.89	87849.2
280	2.000000	1.145558	7.3678e+06	-52639.1	955.818	-29749	0.000000	0.000000	7.157456	289.509	NaN	0.000000	0.001605	0.001705	28.0793	76.8875	0.001890	40670.7	2.269437	176.16	288.077	1.145285	0.083198	0.082925	289.509	40670.7	0.077859	0.197519	1465.72	83608.4
280	2.000000	1.147477	7.3678e+06	-52639.1	955.82	-29749	0.000000	0.000000	7.159990	304.457	NaN	0.000000	0.001617	0.001692	28.079	78.2631	0.001680	46580.8	1.816302	175.406	299.35	1.147279	0.085117	0.084919	304.457	46580.8	0.080215	0.208105	1463	93290.7
280	2.000000	1.149579	7.3678e+06	-52639.1	955.82	-29749	0.000000	0.000000	7.162623	317.355	NaN	0.000000	0.001633	0.001681	28.0793	79.9981	0.001793	44621.2	5.422694	172.388	318.543	1.149267	0.087219	0.086907	317.355	44621.2	0.081885	0.215768	1470.82	87764.9
280	2.000000	1.151619	7.3678e+06	-52639.1	955.819	-29749	0.000000	0.000000	7.165328	333.518	NaN	0.000000	0.001616	0.001698	28.0791	83.016	0.001853	44799.9	6.680089	171.855	337.406	1.151221	0.089259	0.088861	333.518	44799.9	0.083676	0.224126	1488.08	86457.7
280	2.000000	1.153646	7.3678e+06	-52639.1	955.819	-29749	0.000000	0.000000	7.167908	346.965	NaN	0.000000	0.001615	0.001688	28.0793	84.7491	0.001840	46062.7	5.991050	172.939	350.694	1.153089	0.091286	0.090729	346.965	46062.7	0.085637	0.233450	1486.25	87101.6
280	2.000000	1.155484	7.3678e+06	-52639.1	955.819	-29749	0.000000	0.000000	7.170180	357.531	NaN	0.000000	0.001578	0.001693	28.0792	85.6306	0.001761	48625.5	3.490494	173.593	354.792	1.155220	0.093124	0.092860	357.531	48625.5	0.087610	0.243007	1471.28	90121.4
280	2.000000	1.157511	7.3678e+06	-52639.1	955.819	-29749	0.000000	0.000000	7.172798	371.921	NaN	0.000000	0.001614	0.001693	28.0789	89.2933	0.001834	48689.2	5.601954	171.711	368.212	1.157237	0.095151	0.094877	371.921	48689.2	0.089422	0.251945	1476.19	88624.3
280	2.000000	1.159571	7.3678e+06	-52639.1	955.819	-29749	0.000000	0.000000	7.175552	388.777	NaN	0.000000	0.001576	0.001718	28.0792	89.8029	0.001677	53542.7	6.963253	169.876	389.4	1.159136	0.097211	0.096776	388.777	53542.7	0.091765	0.263727	1474.16	95256.9
280	2.000000	1.161537	7.3678e+06	-52639.1	955.818	-29749	0.000000	0.000000	7.177996	400.403	NaN	0.000000	0.001595	0.001726	28.0788	90.701	0.001615	56170.5	2.754740	173.652	400.219	1.161206	0.099177	0.098846	400.403	56170.5	0.093831	0.274320	1459.62	97983.5
280	2.000000	1.163589	7.3678e+06	-52639.1	955.82	-29749	0.000000	0.000000	7.180817	419.115	NaN	0.000000	0.001588	0.001686	28.079	94.1053	0.001896	49637.1	5.329757	173.314	419.4	1.163104	0.101229	0.100744	419.115	49637.1	0.094896	0.279860	1497.59	85725.3
280	2.000000	1.165527	7.3678e+06	-52639.1	955.82	-29749	0.000000	0.000000	7.183262	431.418	NaN	0.000000	0.001571	0.001695	28.0792	96.8328	0.001936	50005.1	5.098225	171.708	429.428	1.165220	0.103167	0.102860	431.418	50005.1	0.096697	0.289341	1491.04	84934.2
280	2.000000	1.167557	7.3678e+06	-52639.1	955.819	-29749	0.000000	0.000000	7.185105	426.896	NaN	0.000000	0.001657	0.001676	28.0789	98.9065	0.001793	55152.6	3.029408	172.984	425.343	1.167385	0.105197	0.105025	426.896	55152.6	0.099391	0.303806	1405.16	91419.9
280	2.000000	1.169551	7.3678e+06	-52639.1	955.819	-29749	0.000000	0.000000	7.188679	465.297	NaN	0.000000	0.001662	0.001715	28.079	99.6102	0.001848	53887.3	4.044152	173.01	467.475	1.169193	0.107191	0.106833	465.297	53887.3	0.100715	0.311032	1495.98	88278.9
280	2.000000	1.171361	7.3678e+06	-52639.1	955.819	-29749	0.000000	0.000000	7.191319	485.482	NaN	0.000000	0.001618	0.001739	28.0789	101.72	0.001841	55256.9	2.383475	174.122	476.433	1.171096	0.109001	0.108736	485.482	55256.9	0.102411	0.320409	1515.19	89188.1
280	2.000000	1.173512	7.3678e+06	-52639.1	955.819	-29749	0.000000	0.000000	7.194320	506.162	NaN	0.000000	0.001616	0.001720	28.079	104.168	0.001831	56876.5	7.601766	169.066	504.538	1.173133	0.111152	0.110773	506.162	56876.5	0.104477	0.332005	1524.56	90184.9
280	2.000000	1.174530	7.3678e+06	-52639.1	955.819	-29749	0.000000	0.000000	7.195203	502.857	NaN	0.000000	0.001659	0.001704	28.0792	103.104	0.001735	59440.7	-0.502218	176.352	501.212	1.174320	0.112170	0.111960	502.857	59440.7	0.105825	0.339675	1480.41	93180.6