File: remote_trans/data/nanoindenter/0828-1/data/Data_2025-08-06,11h17m57s/2025-07-22_16-23-58_1_413.txt
2025-07-22, 16:23:58, 1
Index	Phase	Displacement	Time	Pos X	Pos Y	Pos Z	Rot A	Rot B	Piezo Z	Force A	Force B	Gripper	Voltage A	Voltage B	Temperature	Amplitude force	Amplitude pos	Stiffness	Phase shift	Phase excitation	Force A raw	Displacement raw	HMax	HMax raw	Real Force	Real Stiffness	Contact Depth	Area	Hardness	Reduced Mod.
[#]	[#]	[um]	[s]	[um]	[um]	[um]	[m°]	[m°]	[um]	[uN]	[uN]	[V]	[V]	[V]	[°C]	[uN]	[um]	[N/m]	[°]	[°]	[uN]	[um]	[um]	[um]	[uN]	[N/m]	[um]	[um^2]	[MPa]	[MPa]
413	1.000000	0.002601	7.3691e+06	-56439.1	1005.82	-29739.1	0.000000	0.000000	6.002825	-0.027403	NaN	0.000000	0.001735	0.001631	28.0821	0.040949	0.000912	44.8947	-132.129	-161.995	-3.544889E-5	0.001340	-1.023431	-1.024692	-0.027403	44.8947	-1.022974	-4.623391E+13	5.926961E-16	NaN
413	1.000000	0.010559	7.3691e+06	-56439.1	1005.82	-29739.1	0.000000	0.000000	6.010783	-0.032917	NaN	0.000000	0.001713	0.001640	28.0819	0.061419	0.000976	62.9067	146.881	-165.464	-0.134866	0.009224	-1.015473	-1.016808	-0.032917	62.9067	-1.015081	-3.620419E+13	9.092046E-16	NaN
413	1.000000	0.018575	7.3691e+06	-56439.1	1005.82	-29739.1	0.000000	0.000000	6.018798	-0.058279	NaN	0.000000	0.001738	0.001656	28.0817	0.126040	0.001670	75.464	-90.6295	-166.98	-0.090368	0.017171	-1.007457	-1.008861	-0.058279	75.464	-1.006878	-2.807722E+13	2.075681E-15	NaN
413	1.000000	0.026583	7.3691e+06	-56439.1	1005.82	-29739.1	0.000000	0.000000	6.026807	-0.026274	NaN	0.000000	0.001746	0.001640	28.082	0.043423	0.001901	22.8427	-80.3729	-162.225	-0.003487	0.025212	-0.999449	-1.000820	-0.026274	22.8427	-0.998586	-2.171389E+13	1.210006E-15	NaN
413	1.000000	0.034524	7.3691e+06	-56439.1	1005.82	-29739.1	0.000000	0.000000	6.034751	0.030188	NaN	0.000000	0.001732	0.001632	28.0816	0.132461	0.001966	67.3919	170.166	-167.495	0.015973	0.033219	-0.991508	-0.992813	0.030188	67.3919	-0.991844	-1.761747E+13	-1.713509E-15	NaN
413	1.000000	0.042532	7.3691e+06	-56439.1	1005.82	-29739.1	0.000000	0.000000	6.042756	-0.038301	NaN	0.000000	0.001739	0.001676	28.0816	0.118139	0.002064	57.2492	166.035	-166.335	-0.120666	0.041204	-0.983500	-0.984828	-0.038301	57.2492	-0.982999	-1.339086E+13	2.860245E-15	NaN
413	1.000000	0.050535	7.3691e+06	-56439.1	1005.82	-29739.1	0.000000	0.000000	6.050757	-0.063792	NaN	0.000000	0.001715	0.001672	28.0816	0.139746	0.002106	66.342	-130.8	-165.964	0.000304	0.049256	-0.975497	-0.976776	-0.063792	66.342	-0.974776	-1.037597E+13	6.148013E-15	NaN
413	1.000000	0.058534	7.3691e+06	-56439.1	1005.82	-29739.1	0.000000	0.000000	6.058757	-0.063556	NaN	0.000000	0.001746	0.001643	28.0816	0.046177	0.001801	25.6408	154.228	-166.375	-0.076685	0.057241	-0.967498	-0.968791	-0.063556	25.6408	-0.965639	-7.814277E+12	8.133284E-15	NaN
413	1.000000	0.066574	7.3691e+06	-56439.1	1005.82	-29739.1	0.000000	0.000000	6.066797	-0.073265	NaN	0.000000	0.001683	0.001652	28.0818	0.017208	0.002019	8.521925	-88.5154	-165.971	-0.097715	0.065185	-0.959458	-0.960847	-0.073265	8.521925	-0.953010	-5.279845E+12	1.387644E-14	NaN
413	1.000000	0.074557	7.3691e+06	-56439.1	1005.82	-29739.1	0.000000	0.000000	6.074780	-0.057277	NaN	0.000000	0.001695	0.001645	28.0818	0.093526	0.002020	46.3023	-64.6816	-166.002	-0.034798	0.073208	-0.951475	-0.952825	-0.057277	46.3023	-0.950547	-4.891108E+12	1.171045E-14	NaN
413	1.000000	0.082549	7.3691e+06	-56439.1	1005.82	-29739.1	0.000000	0.000000	6.082772	-0.058523	NaN	0.000000	0.001688	0.001657	28.0813	0.047327	0.002055	23.0349	-168.211	-163.77	-0.051355	0.081209	-0.943483	-0.944823	-0.058523	23.0349	-0.941578	-3.701884E+12	1.580896E-14	NaN
413	1.000000	0.090528	7.3691e+06	-56439.1	1005.82	-29739.1	0.000000	0.000000	6.090751	-0.066475	NaN	0.000000	0.001689	0.001630	28.0811	0.090744	0.002062	43.9973	160.033	-167.182	-0.059756	0.089231	-0.935504	-0.936801	-0.066475	43.9973	-0.934371	-2.959233E+12	2.246369E-14	NaN
413	1.000000	0.098533	7.3691e+06	-56439.1	1005.82	-29739.1	0.000000	0.000000	6.098759	0.007878	NaN	0.000000	0.001687	0.001659	28.0807	0.100495	0.001931	52.0516	92.5732	-166.029	-0.029173	0.097267	-0.927499	-0.928765	0.007878	52.0516	-0.927612	-2.398678E+12	-3.284374E-15	NaN
413	1.000000	0.106531	7.3691e+06	-56439.1	1005.82	-29739.1	0.000000	0.000000	6.106755	-0.032806	NaN	0.000000	0.001686	0.001663	28.0805	0.018388	0.002057	8.937122	145.871	-161.755	-0.112790	0.105243	-0.919501	-0.920789	-0.032806	8.937122	-0.916748	-1.711194E+12	1.917147E-14	NaN
413	1.000000	0.114563	7.3691e+06	-56439.1	1005.82	-29739.1	0.000000	0.000000	6.114786	-0.044431	NaN	0.000000	0.001711	0.001672	28.0806	0.162067	0.002016	80.374	-121.797	-160.769	-0.041576	0.113266	-0.911470	-0.912767	-0.044431	80.374	-0.911055	-1.433548E+12	3.099339E-14	NaN
413	1.000000	0.122547	7.3691e+06	-56439.1	1005.82	-29739.1	0.000000	0.000000	6.122771	-0.036051	NaN	0.000000	0.001683	0.001647	28.0807	0.057937	0.001954	29.6502	-22.2202	-168.608	-0.019843	0.121258	-0.903485	-0.904774	-0.036051	29.6502	-0.902573	-1.101121E+12	3.274039E-14	NaN
413	1.000000	0.130524	7.3691e+06	-56439.1	1005.82	-29739.1	0.000000	0.000000	6.130746	-0.069374	NaN	0.000000	0.001692	0.001661	28.0811	0.108453	0.002018	53.7332	-154.052	-168.717	-0.022816	0.129217	-0.895508	-0.896815	-0.069374	53.7332	-0.894540	-8.575950E+11	8.089325E-14	NaN
413	1.000000	0.138551	7.3691e+06	-56439.1	1005.82	-29739.1	0.000000	0.000000	6.138774	-0.074963	NaN	0.000000	0.001731	0.001602	28.0808	0.080470	0.001983	40.5874	10.0832	-167.11	-0.124947	0.137229	-0.887481	-0.888803	-0.074963	40.5874	-0.886095	-6.593716E+11	1.136893E-13	NaN
413	1.000000	0.146582	7.3691e+06	-56439.1	1005.82	-29739.1	0.000000	0.000000	6.146804	-0.082547	NaN	0.000000	0.001748	0.001640	28.0807	0.027369	0.002100	13.0336	-149.247	-162.004	-0.093170	0.145304	-0.879450	-0.880728	-0.082547	13.0336	-0.874700	-4.624115E+11	1.785138E-13	NaN
413	1.000000	0.154556	7.3691e+06	-56439.1	1005.82	-29739.1	0.000000	0.000000	6.154781	-0.018368	NaN	0.000000	0.001768	0.001642	28.0807	0.092308	0.002057	44.8669	-40.8309	-168.368	-0.030640	0.153296	-0.871476	-0.872736	-0.018368	44.8669	-0.871169	-4.142426E+11	4.434029E-14	NaN
413	1.000000	0.162574	7.3691e+06	-56439.1	1005.82	-29739.1	0.000000	0.000000	6.162797	-0.043152	NaN	0.000000	0.001752	0.001649	28.0807	0.040303	0.001968	20.4821	-39.7718	-167.694	-0.104437	0.161238	-0.863459	-0.864794	-0.043152	20.4821	-0.861879	-3.101316E+11	1.391412E-13	NaN
413	1.000000	0.170553	7.3691e+06	-56439.1	1005.82	-29739.1	0.000000	0.000000	6.170776	-0.060176	NaN	0.000000	0.001809	0.001666	28.0807	0.030414	0.002044	14.8764	46.4708	-166.506	-0.097457	0.169249	-0.855479	-0.856783	-0.060176	14.8764	-0.852445	-2.311264E+11	2.603593E-13	NaN
413	1.000000	0.178575	7.3691e+06	-56439.1	1005.82	-29739.1	0.000000	0.000000	6.178798	-0.076438	NaN	0.000000	0.001779	0.001665	28.0811	0.036840	0.002090	17.6294	158.12	-165.385	-0.007058	0.177199	-0.847457	-0.848833	-0.076438	17.6294	-0.844205	-1.787537E+11	4.276172E-13	NaN
413	1.000000	0.186559	7.3691e+06	-56439.1	1005.82	-29739.1	0.000000	0.000000	6.186782	-0.062831	NaN	0.000000	0.001776	0.001625	28.0808	0.091930	0.001882	48.8503	-151.944	-164.563	-0.059684	0.185293	-0.839473	-0.840739	-0.062831	48.8503	-0.838509	-1.496536E+11	4.198412E-13	NaN
413	1.000000	0.194593	7.3691e+06	-56439.1	1005.82	-29739.1	0.000000	0.000000	6.194817	-0.046403	NaN	0.000000	0.001736	0.001653	28.0808	0.060851	0.001966	30.9521	6.101144	-163.664	-0.030009	0.193301	-0.831439	-0.832731	-0.046403	30.9521	-0.830315	-1.158905E+11	4.004057E-13	NaN
413	1.000000	0.202568	7.3691e+06	-56439.1	1005.82	-29739.1	0.000000	0.000000	6.202789	-0.114232	NaN	0.000000	0.001768	0.001661	28.0809	0.076079	0.001989	38.2519	-155.901	-162.531	-0.058281	0.201296	-0.823464	-0.824736	-0.114232	38.2519	-0.821224	-8.725877E+10	1.309119E-12	NaN
413	1.000000	0.210588	7.3691e+06	-56439.1	1005.82	-29739.1	0.000000	0.000000	6.210812	-0.016991	NaN	0.000000	0.001772	0.001618	28.0807	0.032579	0.002047	15.9176	-70.8641	-163.864	0.043575	0.209284	-0.815444	-0.816749	-0.016991	15.9176	-0.814644	-7.105088E+10	2.391392E-13	NaN
413	1.000000	0.218588	7.3691e+06	-56439.1	1005.82	-29739.1	0.000000	0.000000	6.218810	-0.066908	NaN	0.000000	0.001771	0.001651	28.0816	0.093458	0.002097	44.5633	-85.3805	-164.546	-0.041250	0.217300	-0.807445	-0.808733	-0.066908	44.5633	-0.806319	-5.477958E+10	1.221399E-12	NaN
413	1.000000	0.226593	7.3691e+06	-56439.1	1005.82	-29739.1	0.000000	0.000000	6.226814	-0.105933	NaN	0.000000	0.001772	0.001675	28.0823	0.134338	0.001940	69.2496	-5.437233	-160.998	-0.084642	0.225335	-0.799439	-0.800697	-0.105933	69.2496	-0.798292	-4.262580E+10	2.485185E-12	NaN
413	1.000000	0.234586	7.3691e+06	-56439.1	1005.82	-29739.1	0.000000	0.000000	6.234808	-0.076672	NaN	0.000000	0.001774	0.001677	28.0824	0.155406	0.001973	78.7633	-179.006	-163.147	-0.129440	0.233304	-0.791446	-0.792729	-0.076672	78.7633	-0.790716	-3.363666E+10	2.279428E-12	NaN
413	1.000000	0.242591	7.3691e+06	-56439.1	1005.82	-29739.1	0.000000	0.000000	6.242812	-0.099606	NaN	0.000000	0.001777	0.001645	28.082	0.056422	0.002001	28.1921	157.455	-165.262	-0.097511	0.241287	-0.783441	-0.784745	-0.099606	28.1921	-0.780791	-2.465958E+10	4.039225E-12	NaN
413	1.000000	0.250616	7.3691e+06	-56439.1	1005.82	-29739.1	0.000000	0.000000	6.250839	-0.042241	NaN	0.000000	0.001792	0.001653	28.0821	0.055944	0.002003	27.9235	77.6878	-166.663	-0.035566	0.249276	-0.775417	-0.776756	-0.042241	27.9235	-0.774282	-2.011493E+10	2.099962E-12	NaN
413	1.000000	0.258616	7.3691e+06	-56439.1	1005.82	-29739.1	0.000000	0.000000	6.258844	0.040279	NaN	0.000000	0.001799	0.001646	28.0821	0.041971	0.002023	20.7487	146.276	-166.437	0.019089	0.257323	-0.767416	-0.768709	0.040279	20.7487	-0.768872	-1.698099E+10	-2.372002E-12	NaN
413	1.000000	0.266595	7.3691e+06	-56439.1	1005.82	-29739.1	0.000000	0.000000	6.266817	-0.087091	NaN	0.000000	0.001791	0.001663	28.0821	0.150347	0.002029	74.111	-34.4927	-164.09	0.013198	0.265283	-0.759437	-0.760749	-0.087091	74.111	-0.758555	-1.229271E+10	7.084768E-12	NaN
413	1.000000	0.274620	7.3691e+06	-56439.1	1005.82	-29739.1	0.000000	0.000000	6.274842	-0.070818	NaN	0.000000	0.001790	0.001633	28.0825	0.102483	0.001997	51.3185	-179.45	-165.532	-0.015888	0.273259	-0.751412	-0.752773	-0.070818	51.3185	-0.750377	-9.513845E+9	7.443649E-12	NaN
413	1.000000	0.282637	7.3691e+06	-56439.1	1005.82	-29739.1	0.000000	0.000000	6.282861	-0.043946	NaN	0.000000	0.001831	0.001663	28.0821	0.036195	0.002109	17.1652	-91.7119	-168.716	0.018777	0.281313	-0.743395	-0.744719	-0.043946	17.1652	-0.741475	-7.196919E+9	6.106223E-12	NaN
413	1.000000	0.290608	7.3691e+06	-56439.1	1005.82	-29739.1	0.000000	0.000000	6.290831	-0.043856	NaN	0.000000	0.001804	0.001675	28.0821	0.077212	0.002073	37.2447	-109.474	-168.487	-0.075155	0.289359	-0.735425	-0.736673	-0.043856	37.2447	-0.734541	-5.790214E+9	7.574144E-12	NaN
413	1.000000	0.298635	7.3691e+06	-56439.1	1005.82	-29739.1	0.000000	0.000000	6.298861	-0.000123	NaN	0.000000	0.001784	0.001668	28.0819	0.057558	0.002045	28.1495	-130.758	-166.22	0.088136	0.297286	-0.727397	-0.728746	-0.000123	28.1495	-0.727394	-4.626842E+9	2.668933E-14	NaN
413	1.000000	0.306618	7.3691e+06	-56439.1	1005.82	-29739.1	0.000000	0.000000	6.306842	-0.032599	NaN	0.000000	0.001801	0.001632	28.0819	0.022494	0.001963	11.4611	83.2534	-171.559	-0.057489	0.305344	-0.719415	-0.720688	-0.032599	11.4611	-0.717281	-3.368163E+9	9.678623E-12	NaN
413	1.000000	0.314626	7.3691e+06	-56439.1	1005.82	-29739.1	0.000000	0.000000	6.314850	-0.037686	NaN	0.000000	0.001792	0.001621	28.0821	0.050834	0.001963	25.8954	176.148	-166.74	-0.007167	0.313344	-0.711406	-0.712688	-0.037686	25.8954	-0.710315	-2.706092E+9	1.392622E-11	NaN
413	1.000000	0.322646	7.3691e+06	-56439.1	1005.82	-29739.1	0.000000	0.000000	6.322869	-0.057418	NaN	0.000000	0.001803	0.001655	28.0823	0.080173	0.001927	41.5945	-81.0446	-163.888	-0.081758	0.321327	-0.703386	-0.704705	-0.057418	41.5945	-0.702351	-2.106849E+9	2.725283E-11	NaN
413	1.000000	0.330643	7.3691e+06	-56439.1	1005.82	-29739.1	0.000000	0.000000	6.330866	-0.043727	NaN	0.000000	0.001822	0.001636	28.0822	0.127255	0.002095	60.7319	-117.375	-166.152	-0.076117	0.329324	-0.695389	-0.696708	-0.043727	60.7319	-0.694849	-1.664096E+9	2.627681E-11	NaN
413	1.000000	0.338664	7.3691e+06	-56439.1	1005.82	-29739.1	0.000000	0.000000	6.338888	-0.041431	NaN	0.000000	0.001779	0.001598	28.082	0.058009	0.002005	28.928	118.229	-162.932	-0.034688	0.337331	-0.687368	-0.688702	-0.041431	28.928	-0.686294	-1.271343E+9	3.258837E-11	NaN
413	1.000000	0.346670	7.3691e+06	-56439.1	1005.82	-29739.1	0.000000	0.000000	6.346895	-0.013326	NaN	0.000000	0.001822	0.001660	28.0821	0.057339	0.001976	29.0192	-88.4066	-167.379	-0.108928	0.345365	-0.679362	-0.680667	-0.013326	29.0192	-0.679017	-1.011037E+9	1.318039E-11	NaN
413	1.000000	0.354666	7.3691e+06	-56439.1	1005.82	-29739.1	0.000000	0.000000	6.354890	-0.033703	NaN	0.000000	0.001780	0.001634	28.0818	0.077634	0.002015	38.5338	68.3509	-164.471	-0.070290	0.353341	-0.671366	-0.672691	-0.033703	38.5338	-0.670710	-7.782371E+8	4.330652E-11	NaN
413	1.000000	0.362632	7.3691e+06	-56439.1	1005.82	-29739.1	0.000000	0.000000	6.362854	-0.082264	NaN	0.000000	0.001800	0.001651	28.0808	0.031430	0.002073	15.1587	162.14	-165.726	-0.131208	0.361384	-0.663400	-0.664648	-0.082264	15.1587	-0.659330	-5.436092E+8	1.513288E-10	NaN
413	1.000000	0.370647	7.3691e+06	-56439.1	1005.82	-29739.1	0.000000	0.000000	6.370868	-0.106782	NaN	0.000000	0.001798	0.001648	28.0808	0.024130	0.002098	11.5041	139.435	-164.99	-0.031538	0.369387	-0.655386	-0.656645	-0.106782	11.5041	-0.648424	-3.853281E+8	2.771185E-10	NaN
413	1.000000	0.378644	7.3691e+06	-56439.1	1005.82	-29739.1	0.000000	0.000000	6.378868	-0.041903	NaN	0.000000	0.001793	0.001683	28.0807	0.030936	0.002047	15.1155	129.769	-166.012	0.065316	0.377315	-0.647388	-0.648717	-0.041903	15.1155	-0.645309	-3.492351E+8	1.199855E-10	NaN
413	1.000000	0.386683	7.3691e+06	-56439.1	1005.82	-29739.1	0.000000	0.000000	6.386908	-0.026685	NaN	0.000000	0.001739	0.001646	28.0806	0.057684	0.002025	28.4929	165.644	-166.491	0.006253	0.385367	-0.639349	-0.640665	-0.026685	28.4929	-0.638646	-2.829538E+8	9.430728E-11	NaN
413	1.000000	0.394640	7.3691e+06	-56439.1	1005.82	-29739.1	0.000000	0.000000	6.394862	-0.077404	NaN	0.000000	0.001688	0.001649	28.0806	0.073373	0.002027	36.1893	177.351	-165.792	-0.082229	0.393356	-0.631392	-0.632676	-0.077404	36.1893	-0.629788	-2.138506E+8	3.619539E-10	NaN
413	1.000000	0.402672	7.3691e+06	-56439.1	1005.82	-29739.1	0.000000	0.000000	6.402896	-0.025152	NaN	0.000000	0.001648	0.001684	28.0807	0.120539	0.001939	62.176	62.3519	-166.947	-0.100561	0.401374	-0.623360	-0.624658	-0.025152	62.176	-0.623057	-1.728411E+8	1.455197E-10	NaN
413	1.000000	0.410694	7.3691e+06	-56439.1	1005.82	-29739.1	0.000000	0.000000	6.410913	-0.143001	NaN	0.000000	0.001759	0.001646	28.0808	0.038773	0.001989	19.4979	70.6593	-167.15	-0.180868	0.409378	-0.615338	-0.616654	-0.143001	19.4979	-0.609838	-1.137321E+8	1.257353E-9	NaN
413	1.000000	0.418658	7.3691e+06	-56439.1	1005.82	-29739.1	0.000000	0.000000	6.418880	-0.073171	NaN	0.000000	0.001761	0.001656	28.0809	0.076299	0.002002	38.1201	-73.1966	-163.583	-0.102141	0.417331	-0.607374	-0.608701	-0.073171	38.1201	-0.605935	-1.005014E+8	7.280597E-10	NaN
413	1.000000	0.426677	7.3691e+06	-56439.1	1005.82	-29739.1	0.000000	0.000000	6.426899	-0.086620	NaN	0.000000	0.001733	0.001649	28.0809	0.020022	0.002067	9.688541	73.4935	-166.959	-0.071558	0.425373	-0.599355	-0.600659	-0.086620	9.688541	-0.592650	-6.594651E+7	1.313485E-9	NaN
413	1.000000	0.434674	7.3691e+06	-56439.1	1005.82	-29739.1	0.000000	0.000000	6.434896	-0.085077	NaN	0.000000	0.001728	0.001643	28.0807	0.110638	0.002138	51.753	99.0579	-165.291	-0.119610	0.433416	-0.591358	-0.592617	-0.085077	51.753	-0.590125	-6.086894E+7	1.397714E-9	NaN
413	1.000000	0.442680	7.3691e+06	-56439.1	1005.82	-29739.1	0.000000	0.000000	6.442903	-0.041725	NaN	0.000000	0.001732	0.001673	28.0808	0.022503	0.001915	11.7489	-167.173	-165.652	-0.065228	0.441415	-0.583352	-0.584617	-0.041725	11.7489	-0.580689	-4.510582E+7	9.250498E-10	NaN
413	1.000000	0.450691	7.3691e+06	-56439.1	1005.82	-29739.1	0.000000	0.000000	6.450916	-0.012077	NaN	0.000000	0.001779	0.001651	28.0807	0.021582	0.001841	11.7224	-75.7299	-164.773	0.031331	0.449397	-0.575341	-0.576635	-0.012077	11.7224	-0.574568	-3.713092E+7	3.252566E-10	NaN
413	1.000000	0.458717	7.3691e+06	-56439.1	1005.82	-29739.1	0.000000	0.000000	6.458941	-0.053770	NaN	0.000000	0.001743	0.001631	28.0809	0.050301	0.001928	26.0894	138.591	-167.763	-0.079309	0.457402	-0.567315	-0.568630	-0.053770	26.0894	-0.565769	-2.806441E+7	1.915949E-9	NaN
413	1.000000	0.466688	7.3691e+06	-56439.1	1005.82	-29739.1	0.000000	0.000000	6.466912	-0.028427	NaN	0.000000	0.001737	0.001621	28.0811	0.010976	0.002046	5.365642	4.076334	-167.744	-0.023938	0.465392	-0.559344	-0.560640	-0.028427	5.365642	-0.555371	-2.015227E+7	1.410597E-9	NaN
413	1.000000	0.474708	7.3691e+06	-56439.1	1005.82	-29739.1	0.000000	0.000000	6.474935	0.041592	NaN	0.000000	0.001722	0.001675	28.0808	0.022187	0.002092	10.6067	150.626	-163.93	-0.067571	0.473353	-0.551324	-0.552680	0.041592	10.6067	-0.554265	-1.945429E+7	-2.137945E-9	NaN
413	1.000000	0.482681	7.3691e+06	-56439.1	1005.82	-29739.1	0.000000	0.000000	6.482906	0.006345	NaN	0.000000	0.001699	0.001639	28.0809	0.090601	0.001899	47.6999	-74.1444	-166.643	-0.013037	0.481374	-0.543352	-0.544658	0.006345	47.6999	-0.543451	-1.377883E+7	-4.604557E-10	NaN
413	1.000000	0.490711	7.3691e+06	-56439.1	1005.82	-29739.1	0.000000	0.000000	6.490934	-0.058542	NaN	0.000000	0.001735	0.001639	28.081	0.060560	0.001900	31.8662	170.763	-167.121	-0.036310	0.489422	-0.535321	-0.536610	-0.058542	31.8662	-0.533943	-1.017007E+7	5.756331E-9	NaN
413	1.000000	0.498723	7.3691e+06	-56439.1	1005.82	-29739.1	0.000000	0.000000	6.498946	-0.047387	NaN	0.000000	0.001759	0.001666	28.0824	0.024934	0.002108	11.8274	55.7207	-162.944	-0.080632	0.497396	-0.527309	-0.528636	-0.047387	11.8274	-0.524304	-7.47211e+06	6.341906E-9	NaN
413	1.000000	0.506686	7.3691e+06	-56439.1	1005.82	-29739.1	0.000000	0.000000	6.506911	-0.029760	NaN	0.000000	0.001737	0.001656	28.0824	0.118419	0.001886	62.8014	-93.175	-165.071	0.006119	0.505421	-0.519346	-0.520611	-0.029760	62.8014	-0.518990	-6.30312e+06	4.721439E-9	NaN
413	1.000000	0.514744	7.3691e+06	-56439.1	1005.82	-29739.1	0.000000	0.000000	6.514966	-0.090509	NaN	0.000000	0.001760	0.001688	28.0823	0.102034	0.001933	52.7784	119.832	-166.147	-0.146019	0.513442	-0.511288	-0.512591	-0.090509	52.7784	-0.510002	-4.72541e+06	1.915374E-8	NaN
413	1.000000	0.522728	7.3691e+06	-56439.1	1005.82	-29739.1	0.000000	0.000000	6.522950	-0.081975	NaN	0.000000	0.001772	0.001681	28.0826	0.005167	0.001988	2.598511	9.810450	-163.044	-0.066473	0.521371	-0.503305	-0.504661	-0.081975	2.598511	-0.479644	-1.78052e+06	4.604008E-8	NaN
413	1.000000	0.530746	7.3691e+06	-56439.1	1005.82	-29739.1	0.000000	0.000000	6.530971	-0.024151	NaN	0.000000	0.001742	0.001666	28.0822	0.117686	0.002022	58.2102	-157.572	-167.032	-0.032413	0.529412	-0.495286	-0.496620	-0.024151	58.2102	-0.494974	-2.91661e+06	8.280379E-9	NaN
413	1.000000	0.538723	7.3691e+06	-56439.1	1005.82	-29739.1	0.000000	0.000000	6.538946	-0.054759	NaN	0.000000	0.001753	0.001651	28.0823	0.062070	0.002036	30.4794	-104.599	-163.203	-0.106010	0.537422	-0.487309	-0.488610	-0.054759	30.4794	-0.485962	-2.18242e+06	2.509110E-8	NaN
413	1.000000	0.546698	7.3691e+06	-56439.1	1005.82	-29739.1	0.000000	0.000000	6.546922	-0.020245	NaN	0.000000	0.001753	0.001700	28.0822	0.066433	0.002012	33.0263	27.5884	-165.331	0.073702	0.545435	-0.479334	-0.480597	-0.020245	33.0263	-0.478875	-1.73688e+06	1.165606E-8	NaN
413	1.000000	0.554740	7.3691e+06	-56439.1	1005.82	-29739.1	0.000000	0.000000	6.554965	-0.011922	NaN	0.000000	0.001734	0.001636	28.0822	0.079757	0.002013	39.6137	74.3494	-164.042	0.049010	0.553457	-0.471293	-0.472575	-0.011922	39.6137	-0.471067	-1.35011e+06	8.830094E-9	NaN
413	1.000000	0.562729	7.3691e+06	-56439.1	1005.82	-29739.1	0.000000	0.000000	6.562953	-0.041611	NaN	0.000000	0.001739	0.001640	28.0824	0.016565	0.001914	8.653123	82.0936	-163.968	-0.012156	0.561376	-0.463303	-0.464656	-0.041611	8.653123	-0.459697	-934877	4.450923E-8	NaN
413	1.000000	0.570733	7.3691e+06	-56439.1	1005.82	-29739.1	0.000000	0.000000	6.570956	-0.056893	NaN	0.000000	0.001767	0.001610	28.082	0.113311	0.002064	54.9011	159.74	-163.638	-0.068698	0.569448	-0.455299	-0.456584	-0.056893	54.9011	-0.454522	-790670	7.195549E-8	NaN
413	1.000000	0.578761	7.3691e+06	-56439.1	1005.82	-29739.1	0.000000	0.000000	6.578982	-0.105538	NaN	0.000000	0.001741	0.001656	28.0824	0.133297	0.002181	61.1051	78.7921	-162.405	-0.124914	0.577448	-0.447271	-0.448584	-0.105538	61.1051	-0.445976	-599304	1.761001E-7	NaN
413	1.000000	0.586737	7.3691e+06	-56439.1	1005.82	-29739.1	0.000000	0.000000	6.586959	-0.080685	NaN	0.000000	0.001693	0.001649	28.0821	0.054067	0.001880	28.7548	167.401	-165.571	-0.033761	0.585416	-0.439295	-0.440616	-0.080685	28.7548	-0.437191	-450509	1.790962E-7	NaN
413	1.000000	0.594729	7.3691e+06	-56439.1	1005.82	-29739.1	0.000000	0.000000	6.594955	0.019854	NaN	0.000000	0.001705	0.001615	28.0823	0.148184	0.002052	72.2082	92.5057	-164.522	-0.033329	0.593455	-0.431303	-0.432577	0.019854	72.2082	-0.431509	-374463	-5.302092E-8	NaN
413	1.000000	0.602780	7.3691e+06	-56439.1	1005.82	-29739.1	0.000000	0.000000	6.603006	0.010131	NaN	0.000000	0.001723	0.001629	28.0821	0.078881	0.002067	38.1686	45.2497	-166.65	0.020981	0.601415	-0.423252	-0.424617	0.010131	38.1686	-0.423451	-287968	-3.517955E-8	NaN
413	1.000000	0.610726	7.3691e+06	-56439.1	1005.82	-29739.1	0.000000	0.000000	6.610949	-0.040721	NaN	0.000000	0.001706	0.001630	28.082	0.014445	0.002021	7.148380	-40.1547	-166.682	-0.016126	0.609453	-0.415306	-0.416579	-0.040721	7.148380	-0.411034	-191913	2.121838E-7	NaN
413	1.000000	0.618765	7.3691e+06	-56439.1	1005.82	-29739.1	0.000000	0.000000	6.618988	-0.046710	NaN	0.000000	0.001711	0.001633	28.0823	0.182997	0.001922	95.218	52.9028	-166.422	0.010651	0.617440	-0.407267	-0.408593	-0.046710	95.218	-0.406899	-167605	2.786903E-7	NaN
413	1.000000	0.626778	7.3691e+06	-56439.1	1005.82	-29739.1	0.000000	0.000000	6.627002	-0.039857	NaN	0.000000	0.001720	0.001628	28.0821	0.066645	0.001939	34.3776	-68.1925	-162.984	-0.032786	0.625422	-0.399254	-0.400610	-0.039857	34.3776	-0.398384	-126750	3.144545E-7	NaN
413	1.000000	0.634775	7.3691e+06	-56439.1	1005.82	-29739.1	0.000000	0.000000	6.634998	-0.071981	NaN	0.000000	0.001703	0.001628	28.081	0.029989	0.002047	14.6513	-44.0965	-165.126	-0.080166	0.633474	-0.391257	-0.392558	-0.071981	14.6513	-0.387572	-88801.7	8.105807E-7	NaN
413	1.000000	0.642778	7.3691e+06	-56439.1	1005.82	-29739.1	0.000000	0.000000	6.643005	0.025502	NaN	0.000000	0.001693	0.001605	28.0809	0.073224	0.002084	35.1281	135.885	-164.771	0.062174	0.641468	-0.383254	-0.384564	0.025502	35.1281	-0.383798	-78409.1	-3.252391E-7	NaN
413	1.000000	0.650789	7.3691e+06	-56439.1	1005.82	-29739.1	0.000000	0.000000	6.651013	-0.030597	NaN	0.000000	0.001716	0.001587	28.0809	0.058693	0.002054	28.5801	-129.189	-165.398	-0.023291	0.649483	-0.375243	-0.376549	-0.030597	28.5801	-0.374440	-57547.1	5.316807E-7	NaN
413	1.000000	0.658787	7.3691e+06	-56439.1	1005.82	-29739.1	0.000000	0.000000	6.659009	-0.080627	NaN	0.000000	0.001708	0.001596	28.0809	0.070518	0.002154	32.7394	-75.9208	-166.424	-0.034622	0.657473	-0.367245	-0.368559	-0.080627	32.7394	-0.365398	-42637.8	1.890984E-6	NaN
413	1.000000	0.666794	7.3691e+06	-56439.1	1005.82	-29739.1	0.000000	0.000000	6.667018	-0.039910	NaN	0.000000	0.001675	0.001619	28.081	0.032509	0.002000	16.2518	-68.0231	-161.976	0.003024	0.665488	-0.359238	-0.360544	-0.039910	16.2518	-0.357396	-32672.8	1.221504E-6	NaN
413	1.000000	0.674769	7.3691e+06	-56439.1	1005.82	-29739.1	0.000000	0.000000	6.674993	-0.033101	NaN	0.000000	0.001664	0.001596	28.0809	0.106522	0.001962	54.2895	-92.8155	-164.895	-0.028167	0.673483	-0.351263	-0.352549	-0.033101	54.2895	-0.350806	-26224.2	1.262225E-6	NaN
413	1.000000	0.682796	7.3691e+06	-56439.1	1005.82	-29739.1	0.000000	0.000000	6.683022	0.009980	NaN	0.000000	0.001666	0.001627	28.0809	0.054604	0.001928	28.325	-29.666	-161.997	0.043154	0.681503	-0.343236	-0.344529	0.009980	28.325	-0.343501	-20537.2	-4.859617E-7	NaN
413	1.000000	0.690782	7.3691e+06	-56439.1	1005.82	-29739.1	0.000000	0.000000	6.691006	-0.024742	NaN	0.000000	0.001682	0.001629	28.081	0.044323	0.001868	23.728	124.224	-165.712	-0.059380	0.689509	-0.335250	-0.336523	-0.024742	23.728	-0.334468	-15164	1.631643E-6	NaN
413	1.000000	0.698794	7.3691e+06	-56439.1	1005.82	-29739.1	0.000000	0.000000	6.699018	-0.025336	NaN	0.000000	0.001699	0.001657	28.0807	0.087706	0.001960	44.7367	-21.6128	-160.851	-0.066547	0.697480	-0.327239	-0.328552	-0.025336	44.7367	-0.326814	-11715.3	2.162634E-6	NaN
413	1.000000	0.706823	7.3691e+06	-56439.1	1005.82	-29739.1	0.000000	0.000000	6.707044	-0.100563	NaN	0.000000	0.001705	0.001626	28.0809	0.062374	0.002056	30.3331	-105.835	-163.672	-0.105345	0.705507	-0.319209	-0.320525	-0.100563	30.3331	-0.316723	-8324.58	1.208021E-5	NaN
413	1.000000	0.714784	7.3691e+06	-56439.1	1005.82	-29739.1	0.000000	0.000000	6.715006	-0.073751	NaN	0.000000	0.001705	0.001671	28.081	0.118092	0.002057	57.3967	3.117504	-165.674	-0.086768	0.713446	-0.311248	-0.312586	-0.073751	57.3967	-0.310285	-6687.6	1.102802E-5	NaN
413	1.000000	0.722812	7.3691e+06	-56439.1	1005.82	-29739.1	0.000000	0.000000	6.723035	-0.055081	NaN	0.000000	0.001674	0.001603	28.0808	0.019256	0.001909	10.0864	126.406	-166.652	-0.038433	0.721490	-0.303220	-0.304542	-0.055081	10.0864	-0.299125	-4566.69	1.206138E-5	NaN
413	1.000000	0.730802	7.3691e+06	-56439.1	1005.82	-29739.1	0.000000	0.000000	6.731023	-0.099632	NaN	0.000000	0.001706	0.001615	28.0811	0.142099	0.002039	69.6754	-57.2568	-167.662	-0.070505	0.729490	-0.295231	-0.296542	-0.099632	69.6754	-0.294158	-3850.46	2.587526E-5	NaN
413	1.000000	0.738807	7.3691e+06	-56439.1	1005.82	-29739.1	0.000000	0.000000	6.739029	-0.078119	NaN	0.000000	0.001688	0.001628	28.0807	0.101681	0.002041	49.8152	76.2065	-165.994	-0.052500	0.737521	-0.287226	-0.288511	-0.078119	49.8152	-0.286049	-2910.96	2.683630E-5	NaN
413	1.000000	0.746829	7.3691e+06	-56439.1	1005.82	-29739.1	0.000000	0.000000	6.747051	-0.102202	NaN	0.000000	0.001709	0.001639	28.0807	0.072863	0.001972	36.9472	130.041	-168.072	-0.051169	0.745505	-0.279203	-0.280527	-0.102202	36.9472	-0.277128	-2136	4.784738E-5	NaN
413	1.000000	0.754804	7.3691e+06	-56439.1	1005.82	-29739.1	0.000000	0.000000	6.755028	-0.024667	NaN	0.000000	0.001698	0.001625	28.0806	0.078339	0.002029	38.6054	-16.4437	-164.481	0.022835	0.753521	-0.271228	-0.272511	-0.024667	38.6054	-0.270749	-1709.74	1.442760E-5	NaN
413	1.000000	0.762823	7.3691e+06	-56439.1	1005.82	-29739.1	0.000000	0.000000	6.763046	-0.064300	NaN	0.000000	0.001719	0.001620	28.0807	0.097739	0.001948	50.1652	26.4239	-163.331	-0.033915	0.761487	-0.263209	-0.264545	-0.064300	50.1652	-0.262248	-1268.64	5.068440E-5	NaN
413	1.000000	0.770854	7.3691e+06	-56439.1	1005.82	-29739.1	0.000000	0.000000	6.771076	-0.066937	NaN	0.000000	0.001691	0.001637	28.082	0.134728	0.001829	73.6806	58.6656	-165.478	-0.080918	0.769536	-0.255179	-0.256496	-0.066937	73.6806	-0.254497	-964.658	6.938899E-5	NaN
413	1.000000	0.778826	7.3691e+06	-56439.1	1005.82	-29739.1	0.000000	0.000000	6.779050	-0.054770	NaN	0.000000	0.001690	0.001638	28.0818	0.053588	0.001975	27.138	-8.257475	-165.523	-0.087270	0.777534	-0.247206	-0.248498	-0.054770	27.138	-0.245692	-705.026	7.768469E-5	NaN
413	1.000000	0.786834	7.3691e+06	-56439.1	1005.82	-29739.1	0.000000	0.000000	6.787055	-0.100490	NaN	0.000000	0.001689	0.001670	28.0821	0.130055	0.001822	71.373	-149.032	-163.423	-0.057018	0.785524	-0.239198	-0.240508	-0.100490	71.373	-0.238142	-537.658	0.000187	NaN
413	1.000000	0.794852	7.3691e+06	-56439.1	1005.82	-29739.1	0.000000	0.000000	6.795074	-0.092703	NaN	0.000000	0.001730	0.001610	28.082	0.088235	0.001982	44.518	103.136	-163.688	-0.113095	0.793551	-0.231180	-0.232481	-0.092703	44.518	-0.229618	-394.903	0.000235	NaN
413	1.000000	0.802850	7.3691e+06	-56439.1	1005.82	-29739.1	0.000000	0.000000	6.803074	-0.036154	NaN	0.000000	0.001728	0.001626	28.0818	0.068598	0.002050	33.4577	8.769703	-165.719	-0.058052	0.801568	-0.223183	-0.224464	-0.036154	33.4577	-0.222372	-303.06	0.000119	NaN
413	1.000000	0.810841	7.3691e+06	-56439.1	1005.82	-29739.1	0.000000	0.000000	6.811065	-0.046287	NaN	0.000000	0.001667	0.001611	28.0824	0.045293	0.001913	23.6818	-134.066	-162.825	0.076573	0.809509	-0.215191	-0.216524	-0.046287	23.6818	-0.213725	-220.288	0.000210	NaN
413	1.000000	0.818845	7.3691e+06	-56439.1	1005.82	-29739.1	0.000000	0.000000	6.819071	0.018627	NaN	0.000000	0.001717	0.001672	28.082	0.113888	0.001994	57.1124	-177.468	-165.142	0.016000	0.817564	-0.207187	-0.208469	0.018627	57.1124	-0.207432	-174.242	-0.000107	NaN
413	1.000000	0.826864	7.3691e+06	-56439.1	1005.82	-29739.1	0.000000	0.000000	6.827086	-0.076008	NaN	0.000000	0.001670	0.001653	28.0822	0.135298	0.002076	65.1666	-143.472	-164.116	-0.023975	0.825513	-0.199168	-0.200519	-0.076008	65.1666	-0.198294	-123.486	0.000616	NaN
413	1.000000	0.834852	7.3691e+06	-56439.1	1005.82	-29739.1	0.000000	0.000000	6.835078	0.017950	NaN	0.000000	0.001704	0.001618	28.082	0.084470	0.002054	41.1205	-133.031	-167.531	0.022299	0.833532	-0.191180	-0.192500	0.017950	41.1205	-0.191508	-95.3192	-0.000188	NaN
413	1.000000	0.842858	7.3691e+06	-56439.1	1005.82	-29739.1	0.000000	0.000000	6.843081	-0.064189	NaN	0.000000	0.001660	0.001657	28.082	0.027737	0.001964	14.1246	145.355	-166.473	-0.061668	0.841494	-0.183174	-0.184539	-0.064189	14.1246	-0.179766	-60.4622	0.001062	NaN
413	1.000000	0.850882	7.3691e+06	-56439.1	1005.82	-29739.1	0.000000	0.000000	6.851106	-0.031393	NaN	0.000000	0.001674	0.001616	28.0823	0.061737	0.001915	32.2371	25.2617	-163.94	-0.045586	0.849516	-0.175150	-0.176516	-0.031393	32.2371	-0.174419	-48.9778	0.000641	NaN
413	1.000000	0.858856	7.3691e+06	-56439.1	1005.82	-29739.1	0.000000	0.000000	6.859079	-0.073958	NaN	0.000000	0.001708	0.001604	28.0821	0.053064	0.002021	26.2616	-77.7043	-166.691	-0.118610	0.857537	-0.167176	-0.168495	-0.073958	26.2616	-0.165063	-33.6837	0.002196	NaN
413	1.000000	0.866863	7.3691e+06	-56439.1	1005.82	-29739.1	0.000000	0.000000	6.867085	-0.080625	NaN	0.000000	0.001676	0.001634	28.0824	0.006432	0.001824	3.526219	-169.277	-161.335	-0.071350	0.865529	-0.159169	-0.160503	-0.080625	3.526219	-0.142021	-12.9066	0.006247	NaN
413	1.000000	0.874859	7.3691e+06	-56439.1	1005.82	-29739.1	0.000000	0.000000	6.875082	-0.052081	NaN	0.000000	0.001699	0.001634	28.0821	0.127876	0.001973	64.8246	0.006821	-165.551	-0.037842	0.873559	-0.151173	-0.152474	-0.052081	64.8246	-0.150571	-18.5526	0.002807	NaN
413	1.000000	0.882863	7.3691e+06	-56439.1	1005.82	-29739.1	0.000000	0.000000	6.883089	0.029084	NaN	0.000000	0.001696	0.001679	28.0822	0.044312	0.002006	22.0865	-5.013928	-167.673	-0.030208	0.881572	-0.143169	-0.144460	0.029084	22.0865	-0.144157	-14.1433	-0.002056	NaN
413	1.000000	0.890872	7.3691e+06	-56439.1	1005.82	-29739.1	0.000000	0.000000	6.891096	-0.036690	NaN	0.000000	0.001676	0.001607	28.0821	0.117832	0.001799	65.4937	168.526	-164.665	-0.075460	0.889537	-0.135161	-0.136495	-0.036690	65.4937	-0.134740	-9.404391	0.003901	NaN
413	1.000000	0.898866	7.3691e+06	-56439.1	1005.82	-29739.1	0.000000	0.000000	6.899089	-0.055681	NaN	0.000000	0.001636	0.001665	28.0821	0.122312	0.001938	63.0992	164.915	-167.33	-0.038471	0.897572	-0.127166	-0.128460	-0.055681	63.0992	-0.126504	-6.511449	0.008551	NaN
413	1.000000	0.906892	7.3691e+06	-56439.1	1005.82	-29739.1	0.000000	0.000000	6.907120	0.067496	NaN	0.000000	0.001653	0.001632	28.0811	0.067566	0.001954	34.5725	19.8439	-163.107	0.061574	0.905581	-0.119141	-0.120451	0.067496	34.5725	-0.120605	-4.969049	-0.013583	NaN
413	1.000000	0.914874	7.3691e+06	-56439.1	1005.82	-29739.1	0.000000	0.000000	6.915100	0.007269	NaN	0.000000	0.001654	0.001632	28.0809	0.098083	0.002165	45.2968	-15.5334	-166.115	0.027911	0.913508	-0.111158	-0.112524	0.007269	45.2968	-0.111279	-3.197075	-0.002274	NaN
413	1.000000	0.922892	7.3691e+06	-56439.1	1005.82	-29739.1	0.000000	0.000000	6.923118	0.003294	NaN	0.000000	0.001684	0.001622	28.0811	0.147961	0.001940	76.279	72.7583	-164.378	-0.033581	0.921552	-0.103140	-0.104480	0.003294	76.279	-0.103172	-2.145392	-0.001535	NaN
413	1.000000	0.930877	7.3691e+06	-56439.1	1005.82	-29739.1	0.000000	0.000000	6.931098	-0.092530	NaN	0.000000	0.001707	0.001624	28.0808	0.110609	0.001893	58.4241	-81.4925	-164.972	-0.012632	0.929562	-0.095155	-0.096471	-0.092530	58.4241	-0.093968	-1.336039	0.069257	NaN
413	1.000000	0.938906	7.3691e+06	-56439.1	1005.82	-29739.1	0.000000	0.000000	6.939133	0.035111	NaN	0.000000	0.001759	0.001629	28.0808	0.153787	0.002054	74.8879	-144.572	-167.361	0.025951	0.937539	-0.087127	-0.088493	0.035111	74.8879	-0.087478	-0.942303	-0.037261	NaN
413	1.000000	0.946889	7.3691e+06	-56439.1	1005.82	-29739.1	0.000000	0.000000	6.947116	0.036452	NaN	0.000000	0.001753	0.001611	28.0809	0.047506	0.001808	26.2687	34.1517	-165.898	0.050548	0.945614	-0.079143	-0.080418	0.036452	26.2687	-0.080184	-0.625572	-0.058269	NaN
413	1.000000	0.954909	7.3691e+06	-56439.1	1005.82	-29739.1	0.000000	0.000000	6.955133	-0.047225	NaN	0.000000	0.001699	0.001631	28.0808	0.051084	0.002005	25.4836	129.792	-166.008	-0.130249	0.953622	-0.071123	-0.072410	-0.047225	25.4836	-0.069733	-0.335527	0.140749	NaN
413	1.000000	0.962945	7.3691e+06	-56439.1	1005.82	-29739.1	0.000000	0.000000	6.963167	-0.084872	NaN	0.000000	0.001745	0.001646	28.081	0.063961	0.001875	34.1208	44.2771	-172.027	-0.054110	0.961634	-0.063087	-0.064398	-0.084872	34.1208	-0.061221	-0.195164	0.434877	NaN
413	1.000000	0.970911	7.3691e+06	-56439.1	1005.82	-29739.1	0.000000	0.000000	6.971135	-0.041708	NaN	0.000000	0.001761	0.001615	28.0809	0.079848	0.001975	40.4316	126.793	-166.841	-0.010102	0.969631	-0.055121	-0.056401	-0.041708	40.4316	-0.054347	-0.123172	0.338613	NaN
413	1.000000	0.978899	7.3691e+06	-56439.1	1005.82	-29739.1	0.000000	0.000000	6.979125	-0.009225	NaN	0.000000	0.001724	0.001594	28.0811	0.060378	0.002043	29.5601	-43.1015	-164.568	-0.024757	0.977606	-0.047133	-0.048427	-0.009225	29.5601	-0.046899	-0.073451	0.125588	NaN
413	1.000000	0.986908	7.3691e+06	-56439.1	1005.82	-29739.1	0.000000	0.000000	6.987134	0.020246	NaN	0.000000	0.001724	0.001666	28.0807	0.097043	0.001880	51.6173	-145.745	-168.979	-0.064285	0.985524	-0.039124	-0.040508	0.020246	51.6173	-0.039418	-0.043421	-0.466271	NaN
413	1.000000	0.994919	7.3691e+06	-56439.1	1005.82	-29739.1	0.000000	0.000000	6.995141	-0.083162	NaN	0.000000	0.001715	0.001630	28.0809	0.047650	0.002040	23.3601	46.9975	-166.755	-0.006246	0.993629	-0.031113	-0.032403	-0.083162	23.3601	-0.028443	-0.020846	3.989349	NaN
413	1.000000	1.002932	7.3691e+06	-56439.1	1005.82	-29739.1	0.000000	0.000000	7.003155	-0.057922	NaN	0.000000	0.001769	0.001606	28.081	0.086063	0.002036	42.2621	4.833559	-162.757	-0.035433	1.001614	-0.023100	-0.024418	-0.057922	42.2621	-0.022072	-0.014181	4.084498	NaN
413	1.000000	1.010925	7.3691e+06	-56439.1	1005.82	-29739.1	0.000000	0.000000	7.011151	0.001830	NaN	0.000000	0.001721	0.001636	28.0807	0.129839	0.002051	63.2969	-148.976	-165.732	0.027768	1.009639	-0.015107	-0.016393	0.001830	63.2969	-0.015128	-0.009353	-0.195694	NaN
413	1.000000	1.018919	7.3691e+06	-56439.1	1005.82	-29739.1	0.000000	0.000000	7.019142	-0.070477	NaN	0.000000	0.001719	0.001638	28.0813	0.203125	0.001958	103.728	102.943	-164.398	-0.132418	1.017649	-0.007113	-0.008383	-0.070477	103.728	-0.006603	-0.004403	16.0083	NaN
413	1.000000	1.026886	7.3691e+06	-56439.1	1005.82	-29739.1	0.000000	0.000000	7.027141	0.720762	NaN	0.000000	0.001755	0.001641	28.081	1.208256	0.001891	639.087	2.033833	-164.83	0.101653	1.025605	0.000854	-0.000427	0.720762	639.087	7.713292E-6	5.765077E-6	125022	243181
413	2.000000	1.034343	7.3691e+06	-56439.1	1005.82	-29739.1	0.000000	0.000000	7.034942	9.077856	NaN	0.000000	0.001757	0.001665	28.0809	8.800032	0.001573	5595.27	9.731061	-172.505	8.076284	1.033539	0.008311	0.007506	9.077856	5595.27	0.007094	0.006127	1481.61	65308.6
413	2.000000	1.036498	7.3691e+06	-56439.1	1005.82	-29739.1	0.000000	0.000000	7.037244	12.6487	NaN	0.000000	0.001725	0.001656	28.0822	12.4388	0.001654	7519.05	7.069521	-176.548	11.3118	1.036203	0.010466	0.010171	12.6487	7519.05	0.009204	0.008310	1522.01	75356.9
413	2.000000	1.038491	7.3691e+06	-56439.1	1005.82	-29739.1	0.000000	0.000000	7.039396	16.514	NaN	0.000000	0.001765	0.001649	28.0817	13.7154	0.001671	8208.21	5.495140	-173.551	15.017	1.038087	0.012459	0.012054	16.514	8208.21	0.010950	0.010256	1610.1	74049.5
413	2.000000	1.040439	7.3691e+06	-56439.1	1005.82	-29739.1	0.000000	0.000000	7.041377	17.3125	NaN	0.000000	0.001763	0.001620	28.0824	16.8637	0.001832	9205.16	9.573857	-178.756	16.7622	1.040165	0.014407	0.014132	17.3125	9205.16	0.012997	0.012706	1362.54	74610.4
413	2.000000	1.042506	7.3691e+06	-56439.1	1005.82	-29739.1	0.000000	0.000000	7.043657	22.4926	NaN	0.000000	0.001757	0.001602	28.0821	17.8756	0.001731	10326.4	8.361042	-176.732	23.5253	1.042152	0.016474	0.016120	22.4926	10326.4	0.014841	0.015074	1492.2	76844.7
413	2.000000	1.044459	7.3691e+06	-56439.1	1005.82	-29739.1	0.000000	0.000000	7.045677	24.1229	NaN	0.000000	0.001748	0.001610	28.0825	20.0318	0.001691	11847	7.915754	-178.496	25.1575	1.044192	0.018427	0.018160	24.1229	11847	0.016900	0.017903	1347.42	80894.6
413	2.000000	1.046473	7.3691e+06	-56439.1	1005.82	-29739.1	0.000000	0.000000	7.047893	29.0371	NaN	0.000000	0.001741	0.001649	28.083	22.0553	0.001902	11595.7	6.656875	-175.563	30.6074	1.046218	0.020440	0.020186	29.0371	11595.7	0.018562	0.020333	1428.06	74295.8
413	2.000000	1.048425	7.3691e+06	-56439.1	1005.82	-29739.1	0.000000	0.000000	7.050034	33.6291	NaN	0.000000	0.001753	0.001637	28.0821	24.2569	0.001802	13459.5	10.7629	176.954	32.8167	1.048122	0.022393	0.022090	33.6291	13459.5	0.020519	0.023364	1439.35	80450.3
413	2.000000	1.050417	7.36911e+06	-56439.1	1005.82	-29739.1	0.000000	0.000000	7.052293	40.123	NaN	0.000000	0.001736	0.001614	28.0831	26.0169	0.001744	14915.3	2.813683	-176.918	38.3816	1.050178	0.024385	0.024146	40.123	14915.3	0.022368	0.026400	1519.81	83869.4
413	2.000000	1.052481	7.36911e+06	-56439.1	1005.82	-29739.1	0.000000	0.000000	7.054462	42.648	NaN	0.000000	0.001705	0.001603	28.0821	28.7253	0.001855	15484.3	7.386319	179.716	42.4935	1.052112	0.026449	0.026079	42.648	15484.3	0.024384	0.029904	1426.17	81809.1
413	2.000000	1.054440	7.36911e+06	-56439.1	1005.82	-29739.1	0.000000	0.000000	7.056593	46.8712	NaN	0.000000	0.001769	0.001586	28.0822	30.0225	0.001704	17621.7	7.230422	177.765	47.9245	1.054127	0.028407	0.028095	46.8712	17621.7	0.026413	0.033636	1393.5	87784.9
413	2.000000	1.056412	7.36911e+06	-56439.1	1005.82	-29739.1	0.000000	0.000000	7.058783	52.1469	NaN	0.000000	0.001758	0.001606	28.0823	31.7613	0.001699	18697.2	4.162167	-178.714	50.9862	1.056037	0.030380	0.030005	52.1469	18697.2	0.028288	0.037271	1399.13	88483.8
413	2.000000	1.058362	7.36911e+06	-56439.1	1005.82	-29739.1	0.000000	0.000000	7.061117	61.4785	NaN	0.000000	0.001754	0.001622	28.0821	33.2212	0.001863	17833.8	7.499601	179.891	59.7465	1.058059	0.032330	0.032026	61.4785	17833.8	0.029745	0.040217	1528.69	81248.2
413	2.000000	1.060384	7.36911e+06	-56439.1	1005.82	-29739.1	0.000000	0.000000	7.063366	66.9906	NaN	0.000000	0.001773	0.001599	28.0826	35.3526	0.001817	19459.6	5.166132	179.772	63.9298	1.060022	0.034352	0.033990	66.9906	19459.6	0.031770	0.044493	1505.65	84287.1
413	2.000000	1.062425	7.36911e+06	-56439.1	1005.82	-29739.1	0.000000	0.000000	7.065715	74.4719	NaN	0.000000	0.001768	0.001627	28.0821	36.4392	0.001762	20677.3	2.383008	-177.439	73.8369	1.062112	0.036393	0.036079	74.4719	20677.3	0.033692	0.048744	1527.8	85566.5
413	2.000000	1.064441	7.36911e+06	-56439.1	1005.82	-29739.1	0.000000	0.000000	7.067894	78.4535	NaN	0.000000	0.001733	0.001609	28.082	38.2687	0.001675	22840.2	3.279909	179.162	79.0894	1.064084	0.038409	0.038052	78.4535	22840.2	0.035833	0.053703	1460.87	90047.6
413	2.000000	1.066414	7.36911e+06	-56439.1	1005.82	-29739.1	0.000000	0.000000	7.070096	83.9979	NaN	0.000000	0.001706	0.001668	28.0821	41.5646	0.001739	23901.7	8.129717	173.713	84.3096	1.066228	0.040382	0.040195	83.9979	23901.7	0.037747	0.058335	1439.93	90414.8
413	2.000000	1.068430	7.36911e+06	-56439.1	1005.82	-29739.1	0.000000	0.000000	7.072585	95.4989	NaN	0.000000	0.001679	0.001662	28.0821	42.458	0.001657	25619.2	6.013117	176.681	96.2558	1.068056	0.042398	0.042024	95.4989	25619.2	0.039603	0.063005	1515.72	93250.1
413	2.000000	1.070427	7.36911e+06	-56439.1	1005.82	-29739.1	0.000000	0.000000	7.074875	102.619	NaN	0.000000	0.001667	0.001572	28.0825	46.4164	0.001887	24597.7	11.1745	172.836	104.439	1.070026	0.044395	0.043993	102.619	24597.7	0.041266	0.067342	1523.85	86601.6
413	2.000000	1.072389	7.36911e+06	-56439.1	1005.82	-29739.1	0.000000	0.000000	7.077207	111.643	NaN	0.000000	0.001676	0.001648	28.0807	47.6426	0.001813	26273.8	5.825292	176.885	110.526	1.072047	0.046356	0.046015	111.643	26273.8	0.043170	0.072476	1540.41	89166
413	2.000000	1.074461	7.36911e+06	-56439.1	1005.82	-29739.1	0.000000	0.000000	7.079606	119.569	NaN	0.000000	0.001675	0.001629	28.0806	49.594	0.001857	26706	9.742022	174.004	122.156	1.074019	0.048429	0.047987	119.569	26706	0.045071	0.077788	1537.11	87483.2
413	2.000000	1.076357	7.36911e+06	-56439.1	1005.82	-29739.1	0.000000	0.000000	7.081865	128.415	NaN	0.000000	0.001686	0.001616	28.0811	51.1668	0.001725	29655.3	0.810026	-179.811	126.8	1.076130	0.050324	0.050098	128.415	29655.3	0.047077	0.083592	1536.21	93711.5
413	2.000000	1.078405	7.36911e+06	-56439.1	1005.82	-29739.1	0.000000	0.000000	7.084406	140.381	NaN	0.000000	0.001681	0.001642	28.0809	53.3218	0.001815	29382.8	7.907961	174.17	140.35	1.078017	0.052373	0.051985	140.381	29382.8	0.048790	0.088709	1582.48	90132.6
413	2.000000	1.080329	7.36911e+06	-56439.1	1005.82	-29739.1	0.000000	0.000000	7.086675	148.767	NaN	0.000000	0.001669	0.001647	28.082	56.1354	0.001845	30425.1	7.015132	174.053	146.338	1.080005	0.054297	0.053973	148.767	30425.1	0.050630	0.094369	1576.44	90487.8
413	2.000000	1.082461	7.36911e+06	-56439.1	1005.82	-29739.1	0.000000	0.000000	7.089258	159.726	NaN	0.000000	0.001671	0.001648	28.0807	57.4714	0.001760	32646.8	6.876578	174.399	160.643	1.081940	0.056429	0.055908	159.726	32646.8	0.052760	0.101134	1579.36	93791.9
413	2.000000	1.084315	7.36911e+06	-56439.1	1005.82	-29739.1	0.000000	0.000000	7.091535	170.006	NaN	0.000000	0.001674	0.001649	28.0808	58.2966	0.001816	32109.3	3.263968	177.078	166.209	1.084024	0.058283	0.057992	170.006	32109.3	0.054312	0.106207	1600.7	90017.4
413	2.000000	1.086365	7.36911e+06	-56439.1	1005.82	-29739.1	0.000000	0.000000	7.093976	179.512	NaN	0.000000	0.001647	0.001621	28.0809	61.6819	0.001794	34379.4	4.792563	175.272	177.997	1.086065	0.060333	0.060033	179.512	34379.4	0.056417	0.113274	1584.76	93326.7
413	2.000000	1.088261	7.36911e+06	-56439.1	1005.82	-29739.1	0.000000	0.000000	7.096336	190.801	NaN	0.000000	0.001673	0.001622	28.0809	61.5761	0.001701	36206.4	3.229606	176.323	185.16	1.087965	0.062229	0.061933	190.801	36206.4	0.058276	0.119699	1594	95611.9
413	2.000000	1.090376	7.36911e+06	-56439.1	1005.82	-29739.1	0.000000	0.000000	7.099075	205.954	NaN	0.000000	0.001682	0.001672	28.0811	65.0075	0.001756	37020.7	8.828354	170.802	205.357	1.090006	0.064344	0.063974	205.954	37020.7	0.060172	0.126425	1629.06	95126.5
413	2.000000	1.092500	7.36911e+06	-56439.1	1005.82	-29739.1	0.000000	0.000000	7.101392	210.661	NaN	0.000000	0.001706	0.001640	28.0808	67.3286	0.001694	39751.9	6.980372	172.07	217.647	1.092203	0.066468	0.066171	210.661	39751.9	0.062493	0.134900	1561.61	98883.9
413	2.000000	1.094319	7.36911e+06	-56439.1	1005.82	-29739.1	0.000000	0.000000	7.103744	223.617	NaN	0.000000	0.001685	0.001635	28.081	68.1085	0.001753	38842.1	2.191951	176.924	222.553	1.094142	0.068287	0.068110	223.617	38842.1	0.063969	0.140423	1592.45	94701.5
413	2.000000	1.096355	7.36911e+06	-56439.1	1005.82	-29739.1	0.000000	0.000000	7.106505	241.224	NaN	0.000000	0.001683	0.001623	28.081	70.6718	0.001806	39140.5	4.931370	175.051	240.47	1.096055	0.070323	0.070022	241.224	39140.5	0.065700	0.147039	1640.54	93257.3
413	2.000000	1.098432	7.36911e+06	-56439.1	1005.82	-29739.1	0.000000	0.000000	7.108918	249.399	NaN	0.000000	0.001678	0.001624	28.0807	71.7369	0.001860	38569.5	3.566356	175.597	253.521	1.098099	0.072400	0.072067	249.399	38569.5	0.067550	0.154266	1616.69	89718.7
413	2.000000	1.100241	7.36911e+06	-56439.1	1005.82	-29739.1	0.000000	0.000000	7.111378	265.203	NaN	0.000000	0.001664	0.001635	28.081	74.1684	0.001775	41776	4.475925	174.192	259.273	1.100028	0.074209	0.073996	265.203	41776	0.069448	0.161850	1638.58	94873.3
413	2.000000	1.102302	7.36911e+06	-56439.1	1005.82	-29739.1	0.000000	0.000000	7.113898	276.387	NaN	0.000000	0.001651	0.001639	28.0808	76.4756	0.001832	41733.7	1.435257	177.592	272.905	1.102006	0.076269	0.075974	276.387	41733.7	0.071302	0.169426	1631.31	92633.8
413	2.000000	1.104343	7.36911e+06	-56439.1	1005.82	-29739.1	0.000000	0.000000	7.116687	294.559	NaN	0.000000	0.001674	0.001626	28.0823	78.2238	0.001777	44013	4.975712	172.994	293.26	1.103960	0.078311	0.077928	294.559	44013	0.073292	0.177736	1657.29	95382.1
413	2.000000	1.106325	7.36911e+06	-56439.1	1005.82	-29739.1	0.000000	0.000000	7.119091	304.8	NaN	0.000000	0.001712	0.001639	28.0822	82.1628	0.001816	45248.9	5.015053	172.906	301.494	1.105983	0.080293	0.079951	304.8	45248.9	0.075241	0.186059	1638.19	95842.1
413	2.000000	1.108300	7.36911e+06	-56439.1	1005.82	-29739.1	0.000000	0.000000	7.121669	319.482	NaN	0.000000	0.001670	0.001633	28.0822	82.3509	0.001838	44807.6	2.466556	175.857	316.653	1.108024	0.082267	0.081991	319.482	44807.6	0.076920	0.193370	1652.18	93095.6
413	2.000000	1.110415	7.36911e+06	-56439.1	1005.82	-29739.1	0.000000	0.000000	7.123950	323.508	NaN	0.000000	0.001686	0.001633	28.0822	84.9016	0.001826	46506.1	4.416347	173.264	327.147	1.110217	0.084383	0.084185	323.508	46506.1	0.079165	0.203357	1590.84	94222.2
413	2.000000	1.112369	7.36911e+06	-56439.1	1005.82	-29739.1	0.000000	0.000000	7.126930	348.43	NaN	0.000000	0.001718	0.001610	28.0822	86.9594	0.001716	50688.7	8.516094	169.305	346.328	1.111872	0.086337	0.085840	348.43	50688.7	0.081182	0.212524	1639.49	100457
413	2.000000	1.114282	7.36911e+06	-56439.1	1005.82	-29739.1	0.000000	0.000000	7.129204	357.227	NaN	0.000000	0.001667	0.001586	28.0831	87.1074	0.001745	49931.1	0.962460	176.304	354.072	1.114110	0.088250	0.088077	357.227	49931.1	0.082884	0.220411	1620.73	97169
413	2.000000	1.116331	7.36911e+06	-56439.1	1005.82	-29739.1	0.000000	0.000000	7.131769	369.751	NaN	0.000000	0.001672	0.001626	28.0823	91.13	0.001829	49831.7	5.282668	171.607	368.252	1.116119	0.090299	0.090086	369.751	49831.7	0.084734	0.229135	1613.68	95111.6
413	2.000000	1.118302	7.36911e+06	-56439.1	1005.82	-29739.1	0.000000	0.000000	7.134343	384.421	NaN	0.000000	0.001688	0.001604	28.0822	91.2165	0.001714	53231	3.933372	172.9	383.894	1.117973	0.092270	0.091941	384.421	53231	0.086854	0.239325	1606.27	99413.2
413	2.000000	1.120226	7.36911e+06	-56439.1	1005.82	-29739.2	0.000000	0.000000	7.136663	394.052	NaN	0.000000	0.001687	0.001625	28.0821	94.3395	0.001867	50534.7	2.172223	174.848	387.367	1.120003	0.094194	0.093971	394.052	50534.7	0.088345	0.246618	1597.82	92971.6
413	2.000000	1.122387	7.36911e+06	-56439.1	1005.82	-29739.2	0.000000	0.000000	7.139775	417.18	NaN	0.000000	0.001709	0.001608	28.0822	96.2152	0.001766	54473.9	4.051338	172.87	420.011	1.121943	0.096355	0.095911	417.18	54473.9	0.090611	0.257892	1617.65	98003.7
413	2.000000	1.124334	7.36911e+06	-56439.1	1005.82	-29739.1	0.000000	0.000000	7.142184	428.398	NaN	0.000000	0.001684	0.001642	28.0828	96.9411	0.001819	53291.6	1.909321	175.03	427.161	1.124084	0.098302	0.098052	428.398	53291.6	0.092273	0.266313	1608.63	94348.6
413	2.000000	1.126283	7.36911e+06	-56439.1	1005.82	-29739.1	0.000000	0.000000	7.145014	449.801	NaN	0.000000	0.001700	0.001614	28.0824	99.9791	0.001777	56249.8	5.186729	171.228	446.918	1.126017	0.100251	0.099985	449.801	56249.8	0.094253	0.276513	1626.69	97732
413	2.000000	1.128326	7.36911e+06	-56439.1	1005.82	-29739.1	0.000000	0.000000	7.147768	467.083	NaN	0.000000	0.001647	0.001593	28.0823	100.596	0.001823	55166.8	6.317056	170.351	466.108	1.127996	0.102294	0.101964	467.083	55166.8	0.095944	0.285361	1636.81	94352.5
413	2.000000	1.130274	7.36911e+06	-56439.1	1005.82	-29739.1	0.000000	0.000000	7.150405	483.82	NaN	0.000000	0.001651	0.001607	28.0823	102.118	0.001776	57514.2	3.224917	173.317	482.197	1.129983	0.104242	0.103951	483.82	57514.2	0.097933	0.295937	1634.88	96593.7
413	2.000000	1.132305	7.36911e+06	-56439.1	1005.82	-29739.2	0.000000	0.000000	7.153205	502.529	NaN	0.000000	0.001649	0.001636	28.0822	104.705	0.001830	57223	4.374897	172.889	499.875	1.131924	0.106273	0.105892	502.529	57223	0.099687	0.305411	1645.42	94602.3
413	2.000000	1.132801	7.36911e+06	-56439.1	1005.82	-29739.1	0.000000	0.000000	7.153860	506.389	NaN	0.000000	0.001626	0.001615	28.0824	105.161	0.001866	56358.2	2.209917	-5.695586	502.367	1.132509	0.106769	0.106476	506.389	56358.2	0.100030	0.307285	1647.95	92888