File: remote_trans/data/nanoindenter/0828-1/data/Data_2025-08-06,11h17m57s/2025-07-22_16-23-58_1_574.txt
2025-07-22, 16:23:58, 1
Index	Phase	Displacement	Time	Pos X	Pos Y	Pos Z	Rot A	Rot B	Piezo Z	Force A	Force B	Gripper	Voltage A	Voltage B	Temperature	Amplitude force	Amplitude pos	Stiffness	Phase shift	Phase excitation	Force A raw	Displacement raw	HMax	HMax raw	Real Force	Real Stiffness	Contact Depth	Area	Hardness	Reduced Mod.
[#]	[#]	[um]	[s]	[um]	[um]	[um]	[m°]	[m°]	[um]	[uN]	[uN]	[V]	[V]	[V]	[°C]	[uN]	[um]	[N/m]	[°]	[°]	[uN]	[um]	[um]	[um]	[uN]	[N/m]	[um]	[um^2]	[MPa]	[MPa]
574	1.000000	0.002283	7.37066e+06	-48389.1	1005.82	-29762.6	0.000000	0.000000	6.002764	-0.032139	NaN	0.000000	0.001583	0.001740	28.0796	0.057574	0.001018	56.5502	132.968	-170.8	0.036883	0.001056	-1.115726	-1.116953	-0.032139	56.5502	-1.115300	-8.042841E+14	3.995942E-17	NaN
574	1.000000	0.012358	7.37066e+06	-48389.1	1005.82	-29762.6	0.000000	0.000000	6.012837	-0.073591	NaN	0.000000	0.001560	0.001688	28.0794	0.049777	0.001235	40.3155	140.824	16.1858	-0.087754	0.010926	-1.105651	-1.107083	-0.073591	40.3155	-1.104282	-5.721967E+14	1.286121E-16	NaN
574	1.000000	0.022254	7.37066e+06	-48389.1	1005.82	-29762.6	0.000000	0.000000	6.022733	-0.068456	NaN	0.000000	0.001517	0.001739	28.0794	0.046773	0.001547	30.2419	173.884	-165.924	-0.063250	0.020961	-1.095756	-1.097048	-0.068456	30.2419	-1.094058	-4.171525E+14	1.641042E-16	NaN
574	1.000000	0.032271	7.37066e+06	-48389.1	1005.82	-29762.6	0.000000	0.000000	6.032751	-0.027209	NaN	0.000000	0.001538	0.001689	28.0794	0.099398	0.001952	50.9095	42.3009	13.271	0.006189	0.030906	-1.085739	-1.087103	-0.027209	50.9095	-1.085338	-3.185710E+14	8.541056E-17	NaN
574	1.000000	0.042260	7.37066e+06	-48389.1	1005.82	-29762.6	0.000000	0.000000	6.042742	0.009820	NaN	0.000000	0.001561	0.001699	28.0796	0.032274	0.002044	15.7886	-152.558	-168.625	0.030062	0.040963	-1.075749	-1.077046	0.009820	15.7886	-1.076215	-2.402628E+14	-4.087061E-17	NaN
574	1.000000	0.052262	7.37066e+06	-48389.1	1005.82	-29762.6	0.000000	0.000000	6.052742	-0.061600	NaN	0.000000	0.001585	0.001744	28.0796	0.008584	0.002009	4.272494	-145.966	14.1416	-0.074837	0.050920	-1.065747	-1.067089	-0.061600	4.272494	-1.054933	-1.243734E+14	4.952794E-16	NaN
574	1.000000	0.062259	7.37066e+06	-48389.1	1005.82	-29762.6	0.000000	0.000000	6.062738	-0.059259	NaN	0.000000	0.001565	0.001710	28.0797	0.059346	0.001954	30.3645	-20.7575	-168.063	-0.094140	0.060965	-1.055750	-1.057044	-0.059259	30.3645	-1.054287	-1.219090E+14	4.860909E-16	NaN
574	1.000000	0.072251	7.37066e+06	-48389.1	1005.82	-29762.6	0.000000	0.000000	6.072732	-0.036823	NaN	0.000000	0.001563	0.001706	28.0796	0.052922	0.002020	26.2013	21.7346	12.9606	-0.066268	0.070927	-1.045758	-1.047082	-0.036823	26.2013	-1.044704	-9.061749E+13	4.063577E-16	NaN
574	1.000000	0.082277	7.37066e+06	-48389.1	1005.82	-29762.6	0.000000	0.000000	6.082755	-0.085757	NaN	0.000000	0.001555	0.001775	28.0798	0.052113	0.001989	26.2035	29.3414	-165.223	-0.032905	0.080925	-1.035732	-1.037084	-0.085757	26.2035	-1.033278	-6.361608E+13	1.348037E-15	NaN
574	1.000000	0.092268	7.37066e+06	-48389.1	1005.82	-29762.6	0.000000	0.000000	6.092748	-0.067098	NaN	0.000000	0.001527	0.001769	28.0784	0.073085	0.001884	38.7965	114.862	13.0421	-0.118383	0.090938	-1.025741	-1.027071	-0.067098	38.7965	-1.024444	-4.838778E+13	1.386681E-15	NaN
574	1.000000	0.102278	7.37066e+06	-48389.1	1005.82	-29762.6	0.000000	0.000000	6.102757	-0.066830	NaN	0.000000	0.001537	0.001756	28.0782	0.019551	0.002039	9.587060	-26.216	-166.846	-0.063759	0.100987	-1.015731	-1.017023	-0.066830	9.587060	-1.010503	-3.141632E+13	2.127251E-15	NaN
574	1.000000	0.112291	7.37066e+06	-48389.1	1005.82	-29762.6	0.000000	0.000000	6.112771	-0.056697	NaN	0.000000	0.001615	0.001788	28.0783	0.055939	0.002020	27.6952	26.3555	13.5523	-0.096319	0.110935	-1.005718	-1.007074	-0.056697	27.6952	-1.004183	-2.582737E+13	2.195229E-15	NaN
574	1.000000	0.122273	7.37066e+06	-48389.1	1005.82	-29762.6	0.000000	0.000000	6.122752	-0.077970	NaN	0.000000	0.001605	0.001809	28.0784	0.014985	0.002094	7.154977	156.531	-165.395	0.035038	0.121002	-0.995736	-0.997007	-0.077970	7.154977	-0.987563	-1.542733E+13	5.054016E-15	NaN
574	1.000000	0.132305	7.37066e+06	-48389.1	1005.82	-29762.6	0.000000	0.000000	6.132783	-0.082730	NaN	0.000000	0.001587	0.001737	28.0782	0.168819	0.001996	84.5937	-70.5578	15.3096	-0.087121	0.130903	-0.985704	-0.987106	-0.082730	84.5937	-0.984971	-1.423558E+13	5.811462E-15	NaN
574	1.000000	0.142291	7.37066e+06	-48389.1	1005.82	-29762.6	0.000000	0.000000	6.142773	-0.000391	NaN	0.000000	0.001605	0.001722	28.0783	0.092076	0.001957	47.0398	51.1253	-168.83	-0.074299	0.141032	-0.975718	-0.976978	-0.000391	47.0398	-0.975711	-1.068143E+13	3.661161E-17	NaN
574	1.000000	0.152327	7.37066e+06	-48389.1	1005.82	-29762.6	0.000000	0.000000	6.152806	-0.061016	NaN	0.000000	0.001625	0.001739	28.0783	0.143382	0.001995	71.8718	-170.446	13.9264	-0.111472	0.150918	-0.965682	-0.967091	-0.061016	71.8718	-0.965045	-7.671587E+12	7.953463E-15	NaN
574	1.000000	0.162317	7.37066e+06	-48389.1	1005.82	-29762.6	0.000000	0.000000	6.162793	-0.136372	NaN	0.000000	0.001604	0.001735	28.0783	0.124508	0.001896	65.6517	-6.057297	-163.938	-0.021072	0.161064	-0.955693	-0.956945	-0.136372	65.6517	-0.954135	-5.467460E+12	2.494243E-14	NaN
574	1.000000	0.172318	7.37066e+06	-48389.1	1005.82	-29762.6	0.000000	0.000000	6.172800	0.000586	NaN	0.000000	0.001609	0.001740	28.0782	0.038727	0.001951	19.849	13.9469	14.7324	-0.016168	0.170965	-0.945691	-0.947044	0.000586	19.849	-0.945713	-4.209245E+12	-1.393267E-16	NaN
574	1.000000	0.182311	7.37066e+06	-48389.1	1005.82	-29762.6	0.000000	0.000000	6.182789	-0.082345	NaN	0.000000	0.001572	0.001754	28.0784	0.080143	0.002076	38.6086	58.1131	-163.22	-0.065041	0.181008	-0.935698	-0.937001	-0.082345	38.6086	-0.934099	-2.934341E+12	2.806264E-14	NaN
574	1.000000	0.192322	7.37066e+06	-48389.1	1005.82	-29762.6	0.000000	0.000000	6.192801	-0.074797	NaN	0.000000	0.001610	0.001677	28.0785	0.083661	0.001932	43.3066	51.3077	16.025	-0.128205	0.190990	-0.925687	-0.927019	-0.074797	43.3066	-0.924392	-2.170189E+12	3.446555E-14	NaN
574	1.000000	0.202321	7.37066e+06	-48389.1	1005.82	-29762.6	0.000000	0.000000	6.202804	0.004504	NaN	0.000000	0.001556	0.001687	28.0785	0.066610	0.001880	35.4272	-157.251	-168.093	-0.028452	0.200977	-0.915688	-0.917032	0.004504	35.4272	-0.915783	-1.660607E+12	-2.712103E-15	NaN
574	1.000000	0.212349	7.37066e+06	-48389.1	1005.82	-29762.6	0.000000	0.000000	6.212829	-0.050766	NaN	0.000000	0.001555	0.001676	28.0785	0.075152	0.001822	41.2498	-150.149	11.3839	-0.064886	0.210960	-0.905660	-0.907050	-0.050766	41.2498	-0.904737	-1.177799E+12	4.310206E-14	NaN
574	1.000000	0.222338	7.37066e+06	-48389.1	1005.82	-29762.6	0.000000	0.000000	6.222819	-0.040181	NaN	0.000000	0.001551	0.001699	28.0786	0.055234	0.001892	29.1876	-70.7397	-166.809	-0.083839	0.221091	-0.895671	-0.896918	-0.040181	29.1876	-0.894638	-8.602233E+11	4.670976E-14	NaN
574	1.000000	0.232342	7.37066e+06	-48389.1	1005.82	-29762.6	0.000000	0.000000	6.232822	-0.034259	NaN	0.000000	0.001535	0.001689	28.0799	0.111226	0.001935	57.4886	78.4029	12.3371	-0.015889	0.230979	-0.885667	-0.887030	-0.034259	57.4886	-0.885220	-6.416485E+11	5.339223E-14	NaN
574	1.000000	0.242368	7.37066e+06	-48389.1	1005.82	-29762.6	0.000000	0.000000	6.242848	-0.050461	NaN	0.000000	0.001523	0.001698	28.0796	0.056167	0.002035	27.5993	-99.7641	-166.467	-0.110163	0.241021	-0.875641	-0.876988	-0.050461	27.5993	-0.874270	-4.562557E+11	1.105972E-13	NaN
574	1.000000	0.252347	7.37066e+06	-48389.1	1005.82	-29762.6	0.000000	0.000000	6.252827	-0.028530	NaN	0.000000	0.001527	0.001713	28.0798	0.108772	0.002002	54.3201	-175.804	13.5824	-0.014133	0.251021	-0.865663	-0.866988	-0.028530	54.3201	-0.865269	-3.446879E+11	8.277079E-14	NaN
574	1.000000	0.262368	7.37066e+06	-48389.1	1005.82	-29762.6	0.000000	0.000000	6.262850	-0.003846	NaN	0.000000	0.001514	0.001713	28.08	0.046856	0.002022	23.1735	-153.984	-166.614	-0.049600	0.261050	-0.855641	-0.856959	-0.003846	23.1735	-0.855517	-2.543495E+11	1.512244E-14	NaN
574	1.000000	0.272340	7.37066e+06	-48389.1	1005.82	-29762.6	0.000000	0.000000	6.272820	-0.043219	NaN	0.000000	0.001536	0.001740	28.0798	0.121864	0.002034	59.9167	156.619	13.0755	-0.052442	0.271002	-0.845670	-0.847007	-0.043219	59.9167	-0.845129	-1.839775E+11	2.349165E-13	NaN
574	1.000000	0.282360	7.37066e+06	-48389.1	1005.82	-29762.6	0.000000	0.000000	6.282839	-0.071510	NaN	0.000000	0.001554	0.001718	28.0796	0.083761	0.001999	41.8963	-92.4808	-165.714	-0.084455	0.281020	-0.835649	-0.836989	-0.071510	41.8963	-0.834369	-1.315205E+11	5.437201E-13	NaN
574	1.000000	0.292413	7.37066e+06	-48389.1	1005.82	-29762.6	0.000000	0.000000	6.292893	-0.037265	NaN	0.000000	0.001557	0.001721	28.0797	0.110016	0.002022	54.4154	-164.469	15.7505	-0.053427	0.291061	-0.825597	-0.826948	-0.037265	54.4154	-0.825083	-9.843088E+10	3.785899E-13	NaN
574	1.000000	0.302382	7.37066e+06	-48389.1	1005.82	-29762.6	0.000000	0.000000	6.302863	-0.034429	NaN	0.000000	0.001539	0.001736	28.0796	0.076261	0.001975	38.6092	51.0745	-165.906	-0.064078	0.301103	-0.815627	-0.816906	-0.034429	38.6092	-0.814958	-7.175161E+10	4.798371E-13	NaN
574	1.000000	0.312392	7.37066e+06	-48389.1	1005.82	-29762.6	0.000000	0.000000	6.312871	-0.061165	NaN	0.000000	0.001527	0.001697	28.0796	0.086119	0.002054	41.9344	121.71	9.941841	-0.050985	0.311012	-0.805617	-0.806997	-0.061165	41.9344	-0.804523	-5.179109E+10	1.180999E-12	NaN
574	1.000000	0.322384	7.37066e+06	-48389.1	1005.82	-29762.6	0.000000	0.000000	6.322860	-0.127562	NaN	0.000000	0.001539	0.001712	28.0795	0.062496	0.001827	34.2154	-171.152	-166.077	-0.053898	0.321086	-0.795626	-0.796923	-0.127562	34.2154	-0.792829	-3.593424E+10	3.549867E-12	NaN
574	1.000000	0.332369	7.37066e+06	-48389.1	1005.82	-29762.6	0.000000	0.000000	6.332850	-0.024851	NaN	0.000000	0.001533	0.001693	28.0798	0.032604	0.001892	17.2366	-76.1333	12.636	-0.025334	0.331021	-0.785640	-0.786988	-0.024851	17.2366	-0.784559	-2.774441E+10	8.957055E-13	NaN
574	1.000000	0.342408	7.37066e+06	-48389.1	1005.82	-29762.6	0.000000	0.000000	6.342888	-0.055077	NaN	0.000000	0.001575	0.001701	28.0795	0.009275	0.002030	4.569595	-121.376	-166.903	-0.056416	0.341092	-0.775601	-0.776917	-0.055077	4.569595	-0.766562	-1.579615E+10	3.486733E-12	NaN
574	1.000000	0.352381	7.37066e+06	-48389.1	1005.82	-29762.6	0.000000	0.000000	6.352862	-0.030933	NaN	0.000000	0.001537	0.001690	28.0796	0.121458	0.001946	62.4144	152.979	15.2932	-0.009462	0.351057	-0.765628	-0.766952	-0.030933	62.4144	-0.765256	-1.516337E+10	2.039967E-12	NaN
574	1.000000	0.362419	7.37066e+06	-48389.1	1005.82	-29762.6	0.000000	0.000000	6.362898	-0.075509	NaN	0.000000	0.001544	0.001705	28.0794	0.093299	0.001901	49.0918	-97.6119	-165.047	-0.040792	0.361127	-0.755590	-0.756882	-0.075509	49.0918	-0.754436	-1.080437E+10	6.988765E-12	NaN
574	1.000000	0.372406	7.37066e+06	-48389.1	1005.82	-29762.6	0.000000	0.000000	6.372886	-0.057476	NaN	0.000000	0.001532	0.001726	28.0785	0.045211	0.001997	22.6422	-19.4613	14.0484	0.025463	0.371057	-0.745603	-0.746953	-0.057476	22.6422	-0.743699	-7.716684E+9	7.448251E-12	NaN
574	1.000000	0.382393	7.37066e+06	-48389.1	1005.82	-29762.6	0.000000	0.000000	6.382873	-0.064196	NaN	0.000000	0.001528	0.001701	28.0784	0.043124	0.001910	22.5778	-17.3136	-165.958	-0.007915	0.381101	-0.735616	-0.736908	-0.064196	22.5778	-0.733483	-5.601177E+9	1.146112E-11	NaN
574	1.000000	0.392387	7.37066e+06	-48389.1	1005.82	-29762.6	0.000000	0.000000	6.392866	-0.068784	NaN	0.000000	0.001543	0.001686	28.0786	0.106162	0.002081	51.0175	-27.6481	15.3436	-0.101885	0.391063	-0.725623	-0.726946	-0.068784	51.0175	-0.724611	-4.239884E+9	1.622300E-11	NaN
574	1.000000	0.402427	7.37066e+06	-48389.1	1005.82	-29762.6	0.000000	0.000000	6.402907	-0.044893	NaN	0.000000	0.001527	0.001712	28.0786	0.110998	0.002096	52.9604	-79.5931	-164.827	-0.058301	0.401104	-0.715582	-0.716905	-0.044893	52.9604	-0.714947	-3.130004E+9	1.434280E-11	NaN
574	1.000000	0.412405	7.37066e+06	-48389.1	1005.82	-29762.6	0.000000	0.000000	6.412885	-0.056519	NaN	0.000000	0.001536	0.001699	28.0785	0.027888	0.002038	13.6806	111.447	14.5224	-0.056523	0.411013	-0.705604	-0.706996	-0.056519	13.6806	-0.702506	-2.117130E+9	2.669598E-11	NaN
574	1.000000	0.422424	7.37066e+06	-48389.1	1005.82	-29762.6	0.000000	0.000000	6.422903	-0.077104	NaN	0.000000	0.001512	0.001673	28.0782	0.029916	0.002054	14.5624	169.439	-170.745	0.032458	0.421105	-0.695585	-0.696904	-0.077104	14.5624	-0.691614	-1.503055E+9	5.129841E-11	NaN
574	1.000000	0.432429	7.37066e+06	-48389.1	1005.82	-29762.6	0.000000	0.000000	6.432911	-0.012002	NaN	0.000000	0.001551	0.001679	28.0784	0.096748	0.001978	48.9029	173.246	14.371	-0.064494	0.431047	-0.685580	-0.686962	-0.012002	48.9029	-0.685396	-1.235907E+9	9.711034E-12	NaN
574	1.000000	0.442412	7.37066e+06	-48389.1	1005.82	-29762.6	0.000000	0.000000	6.442889	-0.115517	NaN	0.000000	0.001517	0.001669	28.0787	0.034197	0.001994	17.1503	149.261	-166.106	-0.173660	0.441174	-0.675598	-0.676835	-0.115517	17.1503	-0.670546	-7.742151E+8	1.492049E-10	NaN
574	1.000000	0.452454	7.37066e+06	-48389.1	1005.82	-29762.6	0.000000	0.000000	6.452932	-0.103338	NaN	0.000000	0.001544	0.001681	28.0785	0.021576	0.002100	10.2735	157.753	14.9162	-0.079715	0.451113	-0.665555	-0.666896	-0.103338	10.2735	-0.658011	-5.214555E+8	1.981715E-10	NaN
574	1.000000	0.462432	7.37066e+06	-48389.1	1005.82	-29762.6	0.000000	0.000000	6.462913	-0.025750	NaN	0.000000	0.001556	0.001686	28.0784	0.051794	0.002177	23.7964	-102.281	-166.532	0.007843	0.461125	-0.655577	-0.656884	-0.025750	23.7964	-0.654766	-4.707128E+8	5.470426E-11	NaN
574	1.000000	0.472462	7.37066e+06	-48389.1	1005.82	-29762.6	0.000000	0.000000	6.472939	-0.120287	NaN	0.000000	0.001537	0.001636	28.0786	0.071982	0.002087	34.4841	-131.571	15.1453	-0.123299	0.471053	-0.645547	-0.646956	-0.120287	34.4841	-0.642931	-3.239618E+8	3.712998E-10	NaN
574	1.000000	0.482457	7.37066e+06	-48389.1	1005.82	-29762.6	0.000000	0.000000	6.482936	-0.092752	NaN	0.000000	0.001523	0.001718	28.0786	0.111424	0.002004	55.6016	-31.3896	-166.132	-0.096056	0.481117	-0.635552	-0.636892	-0.092752	55.6016	-0.634301	-2.466438E+8	3.760585E-10	NaN
574	1.000000	0.492448	7.37066e+06	-48389.1	1005.82	-29762.6	0.000000	0.000000	6.492927	-0.065185	NaN	0.000000	0.001570	0.001693	28.0786	0.045534	0.001969	23.1286	-27.4661	14.1458	-0.083098	0.491080	-0.625561	-0.626929	-0.065185	23.1286	-0.623448	-1.749908E+8	3.725064E-10	NaN
574	1.000000	0.502453	7.37066e+06	-48389.1	1005.82	-29762.6	0.000000	0.000000	6.502934	-0.044895	NaN	0.000000	0.001553	0.001679	28.0796	0.085673	0.001996	42.9284	56.0308	-164.454	-0.144975	0.501192	-0.615556	-0.616817	-0.044895	42.9284	-0.614771	-1.329674E+8	3.376421E-10	NaN
574	1.000000	0.512452	7.37066e+06	-48389.1	1005.82	-29762.6	0.000000	0.000000	6.512929	-0.106689	NaN	0.000000	0.001575	0.001703	28.0797	0.089900	0.001855	48.4533	-114.642	17.7883	-0.105647	0.511094	-0.605557	-0.606915	-0.106689	48.4533	-0.603906	-9.424220E+7	1.132073E-9	NaN
574	1.000000	0.522484	7.37066e+06	-48389.1	1005.82	-29762.6	0.000000	0.000000	6.522964	-0.045040	NaN	0.000000	0.001566	0.001702	28.0796	0.081253	0.002123	38.2698	78.6942	-167.959	-0.022977	0.521176	-0.595525	-0.596833	-0.045040	38.2698	-0.594642	-7.025061E+7	6.411289E-10	NaN
574	1.000000	0.532463	7.37066e+06	-48389.1	1005.82	-29762.6	0.000000	0.000000	6.532945	-0.015595	NaN	0.000000	0.001564	0.001717	28.0796	0.044641	0.001910	23.3729	-103.634	15.7097	-0.032485	0.531072	-0.585546	-0.586937	-0.015595	23.3729	-0.585045	-5.180134E+7	3.010532E-10	NaN
574	1.000000	0.542476	7.37066e+06	-48389.1	1005.82	-29762.6	0.000000	0.000000	6.542954	-0.104080	NaN	0.000000	0.001540	0.001677	28.0796	0.065837	0.001987	33.1285	5.695601	-166.28	-0.048717	0.541204	-0.575533	-0.576806	-0.104080	33.1285	-0.573177	-3.552381E+7	2.929855E-9	NaN
574	1.000000	0.552494	7.37066e+06	-48389.1	1005.82	-29762.6	0.000000	0.000000	6.552974	-0.043203	NaN	0.000000	0.001566	0.001692	28.0799	0.090525	0.001899	47.6602	132.515	13.4002	-0.068427	0.551116	-0.565516	-0.566893	-0.043203	47.6602	-0.564836	-2.724299E+7	1.585845E-9	NaN
574	1.000000	0.562476	7.37066e+06	-48389.1	1005.82	-29762.6	0.000000	0.000000	6.562956	-0.046816	NaN	0.000000	0.001578	0.001643	28.0796	0.068682	0.002046	33.5621	-146.605	-165.983	-0.077002	0.561178	-0.555534	-0.556831	-0.046816	33.5621	-0.554487	-1.959261E+7	2.389447E-9	NaN
574	1.000000	0.572482	7.37066e+06	-48389.1	1005.82	-29762.6	0.000000	0.000000	6.572964	-0.016729	NaN	0.000000	0.001570	0.001692	28.0795	0.059781	0.002052	29.132	-26.5595	16.4963	-0.069764	0.571145	-0.545527	-0.546864	-0.016729	29.132	-0.545096	-1.452155E+7	1.152016E-9	NaN
574	1.000000	0.582489	7.37066e+06	-48389.1	1005.82	-29762.6	0.000000	0.000000	6.582969	-0.055728	NaN	0.000000	0.001565	0.001684	28.0795	0.038881	0.002015	19.2975	-174.894	-164.341	-0.048224	0.581168	-0.535520	-0.536841	-0.055728	19.2975	-0.533354	-9.98039e+06	5.583729E-9	NaN
574	1.000000	0.592513	7.37066e+06	-48389.1	1005.82	-29762.6	0.000000	0.000000	6.592993	-0.051331	NaN	0.000000	0.001559	0.001692	28.0795	0.132943	0.001885	70.5282	-61.5827	15.6131	-0.120606	0.591100	-0.525496	-0.526910	-0.051331	70.5282	-0.524950	-7.62809e+06	6.729256E-9	NaN
574	1.000000	0.602489	7.37066e+06	-48389.1	1005.82	-29762.6	0.000000	0.000000	6.602968	-0.074720	NaN	0.000000	0.001530	0.001666	28.0794	0.062836	0.001935	32.4671	129.709	-168.369	-0.112707	0.601178	-0.515520	-0.516831	-0.074720	32.4671	-0.513794	-5.33638e+06	1.400207E-8	NaN
574	1.000000	0.612497	7.37066e+06	-48389.1	1005.82	-29762.6	0.000000	0.000000	6.612976	-0.054637	NaN	0.000000	0.001535	0.001677	28.0793	0.044501	0.001942	22.9202	127.811	10.4007	-0.054061	0.611146	-0.505513	-0.506863	-0.054637	22.9202	-0.503725	-3.86337e+06	1.414220E-8	NaN
574	1.000000	0.622485	7.37066e+06	-48389.1	1005.82	-29762.6	0.000000	0.000000	6.622965	-0.048742	NaN	0.000000	0.001562	0.001666	28.0796	0.021610	0.001934	11.173	-115.682	-164.715	-0.093669	0.621219	-0.495524	-0.496790	-0.048742	11.173	-0.492252	-2.67214e+06	1.824085E-8	NaN
574	1.000000	0.632506	7.37066e+06	-48389.1	1005.82	-29762.6	0.000000	0.000000	6.632989	0.021457	NaN	0.000000	0.001566	0.001686	28.0792	0.018217	0.002008	9.070486	-62.753	13.299	0.031977	0.631142	-0.485503	-0.486867	0.021457	9.070486	-0.487277	-2.27687e+06	-9.423778E-9	NaN
574	1.000000	0.642502	7.37066e+06	-48389.1	1005.82	-29762.6	0.000000	0.000000	6.642981	-0.066974	NaN	0.000000	0.001553	0.001681	28.0784	0.033806	0.001969	17.1666	159.812	-167.912	-0.088945	0.641221	-0.475507	-0.476788	-0.066974	17.1666	-0.472581	-1.41774e+06	4.723989E-8	NaN
574	1.000000	0.652496	7.37066e+06	-48389.1	1005.82	-29762.6	0.000000	0.000000	6.652976	-0.045768	NaN	0.000000	0.001549	0.001652	28.0785	0.052675	0.002114	24.9197	-128.097	13.4685	-0.077492	0.651136	-0.465513	-0.466873	-0.045768	24.9197	-0.464136	-1.07923e+06	4.240829E-8	NaN
574	1.000000	0.662517	7.37066e+06	-48389.1	1005.82	-29762.6	0.000000	0.000000	6.662996	-0.060721	NaN	0.000000	0.001546	0.001646	28.0786	0.116719	0.001956	59.6794	-75.4115	-167.511	-0.167798	0.661245	-0.455493	-0.456765	-0.060721	59.6794	-0.454729	-795997	7.628293E-8	NaN
574	1.000000	0.672508	7.37066e+06	-48389.1	1005.82	-29762.6	0.000000	0.000000	6.672988	-0.050770	NaN	0.000000	0.001552	0.001683	28.0782	0.036620	0.002001	18.2982	102.408	13.8849	-0.062899	0.671158	-0.445501	-0.446851	-0.050770	18.2982	-0.443420	-551586	9.204448E-8	NaN
574	1.000000	0.682529	7.37066e+06	-48389.1	1005.82	-29762.6	0.000000	0.000000	6.683011	0.006882	NaN	0.000000	0.001552	0.001652	28.0785	0.025649	0.002006	12.7876	-126.663	-166.811	-0.015631	0.681263	-0.435480	-0.436746	0.006882	12.7876	-0.435884	-431760	-1.594002E-8	NaN
574	1.000000	0.692534	7.37066e+06	-48389.1	1005.82	-29762.6	0.000000	0.000000	6.693017	0.006900	NaN	0.000000	0.001557	0.001686	28.0784	0.021872	0.002025	10.8014	72.0305	18.0761	-0.015432	0.691135	-0.425475	-0.426874	0.006900	10.8014	-0.425954	-312458	-2.208209E-8	NaN
574	1.000000	0.702527	7.37066e+06	-48389.1	1005.82	-29762.6	0.000000	0.000000	6.703007	-0.061983	NaN	0.000000	0.001534	0.001685	28.0785	0.087564	0.001939	45.1705	-4.135323	-168.328	-0.037915	0.701196	-0.415482	-0.416813	-0.061983	45.1705	-0.414453	-214626	2.887943E-7	NaN
574	1.000000	0.712533	7.37066e+06	-48389.1	1005.82	-29762.6	0.000000	0.000000	6.713012	-0.064628	NaN	0.000000	0.001580	0.001725	28.0783	0.146444	0.002099	69.7584	-87.2032	16.9636	-0.049845	0.711219	-0.405476	-0.406790	-0.064628	69.7584	-0.404782	-156365	4.133137E-7	NaN
574	1.000000	0.722550	7.37067e+06	-48389.1	1005.82	-29762.6	0.000000	0.000000	6.723029	-0.067570	NaN	0.000000	0.001558	0.001684	28.0786	0.080864	0.001975	40.9379	-111.772	-167.785	-0.119311	0.721239	-0.395460	-0.396770	-0.067570	40.9379	-0.394222	-110539	6.112730E-7	NaN
574	1.000000	0.732580	7.37067e+06	-48389.1	1005.82	-29762.6	0.000000	0.000000	6.733060	-0.057853	NaN	0.000000	0.001566	0.001695	28.0787	0.052886	0.001984	26.6559	143.48	11.3644	-0.072702	0.731218	-0.385429	-0.386791	-0.057853	26.6559	-0.383801	-78416.2	7.377649E-7	NaN
574	1.000000	0.742539	7.37067e+06	-48389.1	1005.82	-29762.6	0.000000	0.000000	6.743019	-0.050639	NaN	0.000000	0.001550	0.001678	28.0785	0.056217	0.002049	27.4429	-22.4517	-171.299	-0.133866	0.741257	-0.375470	-0.376752	-0.050639	27.4429	-0.374086	-56876.6	8.903317E-7	NaN
574	1.000000	0.752554	7.37067e+06	-48389.1	1005.82	-29762.6	0.000000	0.000000	6.753035	-0.012015	NaN	0.000000	0.001548	0.001675	28.0784	0.102741	0.002038	50.4077	162.978	14.0014	-0.112912	0.751168	-0.365455	-0.366841	-0.012015	50.4077	-0.365276	-42466.1	2.829391E-7	NaN
574	1.000000	0.762588	7.37067e+06	-48389.1	1005.82	-29762.6	0.000000	0.000000	6.763066	-0.103944	NaN	0.000000	0.001563	0.001676	28.0785	0.011173	0.002118	5.276158	-5.561905	-168.048	-0.042695	0.761248	-0.355421	-0.356761	-0.103944	5.276158	-0.340646	-18662.2	5.569744E-6	NaN
574	1.000000	0.772560	7.37067e+06	-48389.1	1005.82	-29762.6	0.000000	0.000000	6.773037	-0.126311	NaN	0.000000	0.001634	0.001644	28.0791	0.038769	0.002049	18.9219	-53.6616	12.3793	-0.022631	0.771185	-0.345449	-0.346824	-0.126311	18.9219	-0.340442	-18535.4	6.814595E-6	NaN
574	1.000000	0.782591	7.37067e+06	-48389.1	1005.82	-29762.6	0.000000	0.000000	6.783071	-0.050196	NaN	0.000000	0.001620	0.001680	28.0797	0.087512	0.001967	44.4989	-65.7035	-167.195	-0.185333	0.781254	-0.335418	-0.336755	-0.050196	44.4989	-0.334572	-15217.3	3.298610E-6	NaN
574	1.000000	0.792595	7.37067e+06	-48389.1	1005.82	-29762.6	0.000000	0.000000	6.793076	-0.015191	NaN	0.000000	0.001576	0.001700	28.0798	0.088174	0.001906	46.2593	39.0971	10.7321	0.001751	0.791167	-0.325415	-0.326842	-0.015191	46.2593	-0.325168	-11081.7	1.370827E-6	NaN
574	1.000000	0.802599	7.37067e+06	-48389.1	1005.82	-29762.6	0.000000	0.000000	6.803081	-0.017360	NaN	0.000000	0.001588	0.001676	28.0798	0.117683	0.001977	59.5317	108.657	-163.982	0.024762	0.801284	-0.315410	-0.316725	-0.017360	59.5317	-0.315191	-7902.56	2.196727E-6	NaN
574	1.000000	0.812556	7.37067e+06	-48389.1	1005.82	-29762.6	0.000000	0.000000	6.813035	-0.085522	NaN	0.000000	0.001582	0.001692	28.0799	0.053529	0.002127	25.1665	-177.94	14.7899	-0.105030	0.811227	-0.305453	-0.306783	-0.085522	25.1665	-0.302904	-5197.93	1.645311E-5	NaN
574	1.000000	0.822605	7.37067e+06	-48389.1	1005.82	-29762.6	0.000000	0.000000	6.823086	-0.013194	NaN	0.000000	0.001540	0.001675	28.0798	0.021107	0.002034	10.3755	174.265	-167.091	0.018523	0.821315	-0.295404	-0.296694	-0.013194	10.3755	-0.294450	-3889.38	3.392202E-6	NaN
574	1.000000	0.832608	7.37067e+06	-48389.1	1005.82	-29762.6	0.000000	0.000000	6.833088	-0.058889	NaN	0.000000	0.001558	0.001658	28.0798	0.079024	0.002013	39.2576	20.3953	15.6335	-0.000720	0.831211	-0.285401	-0.286798	-0.058889	39.2576	-0.284276	-2737.66	2.151056E-5	NaN
574	1.000000	0.842577	7.37067e+06	-48389.1	1005.82	-29762.6	0.000000	0.000000	6.843058	-0.026854	NaN	0.000000	0.001565	0.001655	28.08	0.108583	0.002007	54.0943	-160.534	-168.206	-0.076315	0.841305	-0.275432	-0.276704	-0.026854	54.0943	-0.275059	-1987.47	1.351164E-5	NaN
574	1.000000	0.852583	7.37067e+06	-48389.1	1005.82	-29762.6	0.000000	0.000000	6.853064	-0.022598	NaN	0.000000	0.001601	0.001678	28.08	0.017105	0.001895	9.027474	-134.841	17.7856	-0.006071	0.851309	-0.265426	-0.266700	-0.022598	9.027474	-0.263549	-1328.1	1.701516E-5	NaN
574	1.000000	0.862648	7.37067e+06	-48389.1	1005.82	-29762.6	0.000000	0.000000	6.863128	-0.053404	NaN	0.000000	0.001566	0.001673	28.08	0.084959	0.002051	41.427	-103.301	-166.231	-0.066706	0.861279	-0.255361	-0.256731	-0.053404	41.427	-0.254395	-961.154	5.556211E-5	NaN
574	1.000000	0.872620	7.37067e+06	-48389.1	1005.82	-29762.6	0.000000	0.000000	6.873102	-0.005562	NaN	0.000000	0.001596	0.001661	28.0799	0.070345	0.002106	33.4015	60.4311	13.4805	-0.099564	0.871248	-0.245389	-0.246761	-0.005562	33.4015	-0.245264	-694.316	8.010437E-6	NaN
574	1.000000	0.882646	7.37067e+06	-48389.1	1005.82	-29762.6	0.000000	0.000000	6.883127	-0.024518	NaN	0.000000	0.001590	0.001663	28.0799	0.073098	0.001919	38.0956	60.4443	-167.239	-0.037868	0.881298	-0.235363	-0.236712	-0.024518	38.0956	-0.234880	-477.931	5.129994E-5	NaN
574	1.000000	0.892652	7.37067e+06	-48389.1	1005.82	-29762.6	0.000000	0.000000	6.893129	-0.132128	NaN	0.000000	0.001593	0.001692	28.0799	0.085127	0.001927	44.1832	168.125	12.7544	-0.130528	0.891267	-0.225357	-0.226742	-0.132128	44.1832	-0.223114	-311.423	0.000424	NaN
574	1.000000	0.902628	7.37067e+06	-48389.1	1005.82	-29762.6	0.000000	0.000000	6.903106	-0.076190	NaN	0.000000	0.001566	0.001698	28.0797	0.074983	0.001960	38.2479	-52.4084	-165.798	0.024031	0.901311	-0.215382	-0.216698	-0.076190	38.2479	-0.213888	-221.62	0.000344	NaN
574	1.000000	0.912626	7.37067e+06	-48389.1	1005.82	-29762.6	0.000000	0.000000	6.913104	-0.101193	NaN	0.000000	0.001534	0.001677	28.0785	0.048090	0.002055	23.4029	24.4055	14.803	-0.081570	0.911242	-0.205383	-0.206767	-0.101193	23.4029	-0.202140	-142.827	0.000709	NaN
574	1.000000	0.922642	7.37067e+06	-48389.1	1005.82	-29762.6	0.000000	0.000000	6.923121	-0.061992	NaN	0.000000	0.001507	0.001701	28.0785	0.037618	0.002021	18.6171	15.1167	-168.352	-0.206704	0.921352	-0.195367	-0.196658	-0.061992	18.6171	-0.192870	-100.428	0.000617	NaN
574	1.000000	0.932633	7.37067e+06	-48389.1	1005.82	-29762.6	0.000000	0.000000	6.933112	-0.069165	NaN	0.000000	0.001524	0.001685	28.0784	0.067026	0.001968	34.0529	-19.6908	13.9338	-0.072598	0.931250	-0.185376	-0.186759	-0.069165	34.0529	-0.183853	-70.9215	0.000975	NaN
574	1.000000	0.942622	7.37067e+06	-48389.1	1005.82	-29762.6	0.000000	0.000000	6.943101	-0.057841	NaN	0.000000	0.001545	0.001707	28.0782	0.084789	0.002044	41.4746	-28.953	-167.95	-0.079296	0.941328	-0.175388	-0.176681	-0.057841	41.4746	-0.174342	-48.8269	0.001185	NaN
574	1.000000	0.952671	7.37067e+06	-48389.1	1005.82	-29762.6	0.000000	0.000000	6.953148	-0.133096	NaN	0.000000	0.001565	0.001719	28.0787	0.040481	0.001850	21.8843	-30.5092	11.1207	-0.133106	0.951284	-0.165338	-0.166725	-0.133096	21.8843	-0.160776	-28.2989	0.004703	NaN
574	1.000000	0.962659	7.37067e+06	-48389.1	1005.82	-29762.6	0.000000	0.000000	6.963137	-0.098518	NaN	0.000000	0.001567	0.001682	28.0785	0.107753	0.002111	51.0507	96.7588	-167.717	0.001931	0.961313	-0.155350	-0.156697	-0.098518	51.0507	-0.153902	-21.3207	0.004621	NaN
574	1.000000	0.972646	7.37067e+06	-48389.1	1005.82	-29762.6	0.000000	0.000000	6.973124	-0.103791	NaN	0.000000	0.001588	0.001670	28.0786	0.051668	0.002062	25.0514	-32.8412	10.6838	-0.074606	0.971312	-0.145363	-0.146697	-0.103791	25.0514	-0.142256	-13.0373	0.007961	NaN
574	1.000000	0.982668	7.37067e+06	-48389.1	1005.82	-29762.6	0.000000	0.000000	6.983149	-0.034377	NaN	0.000000	0.001539	0.001683	28.0785	0.103136	0.002116	48.7409	27.5182	-167.417	-0.085330	0.981361	-0.135341	-0.136648	-0.034377	48.7409	-0.134812	-9.434091	0.003644	NaN
574	1.000000	0.992633	7.37067e+06	-48389.1	1005.82	-29762.6	0.000000	0.000000	6.993113	-0.054728	NaN	0.000000	0.001568	0.001649	28.0787	0.095512	0.002135	44.7397	143.228	10.9337	-0.001318	0.991282	-0.125376	-0.126727	-0.054728	44.7397	-0.124459	-5.932918	0.009224	NaN
574	1.000000	1.002652	7.37067e+06	-48389.1	1005.82	-29762.6	0.000000	0.000000	7.003134	-1.126433E-5	NaN	0.000000	0.001612	0.001661	28.0786	0.136711	0.001981	69.0156	-149.861	-165.225	-0.011784	1.001328	-0.115358	-0.116681	-1.126433E-5	69.0156	-0.115357	-3.885695	2.898924E-6	NaN
574	1.000000	1.012673	7.37067e+06	-48389.1	1005.82	-29762.6	0.000000	0.000000	7.013153	-0.064070	NaN	0.000000	0.001535	0.001674	28.0785	0.031229	0.001914	16.3188	-159.886	13.0502	0.049257	1.011327	-0.105336	-0.106682	-0.064070	16.3188	-0.102391	-2.062738	0.031061	NaN
574	1.000000	1.022697	7.37067e+06	-48389.1	1005.82	-29762.6	0.000000	0.000000	7.023177	-0.043323	NaN	0.000000	0.001551	0.001657	28.0784	0.042895	0.001942	22.0858	-144.11	-164.302	-0.130484	1.021349	-0.095313	-0.096660	-0.043323	22.0858	-0.093841	-1.327174	0.032643	NaN
574	1.000000	1.032683	7.37067e+06	-48389.1	1005.82	-29762.6	0.000000	0.000000	7.033162	-0.080925	NaN	0.000000	0.001531	0.001671	28.0788	0.067663	0.002038	33.2072	174.441	11.4096	-0.089574	1.031285	-0.085326	-0.086724	-0.080925	33.2072	-0.083498	-0.755358	0.107135	NaN
574	1.000000	1.042673	7.37067e+06	-48389.1	1005.82	-29762.6	0.000000	0.000000	7.043152	-0.063831	NaN	0.000000	0.001534	0.001671	28.0783	0.052512	0.002067	25.4019	-43.3507	-162.848	-0.026958	1.041365	-0.075337	-0.076645	-0.063831	25.4019	-0.073452	-0.420973	0.151626	NaN
574	1.000000	1.052672	7.37067e+06	-48389.1	1005.82	-29762.6	0.000000	0.000000	7.053154	-0.018781	NaN	0.000000	0.001543	0.001679	28.0796	0.069667	0.002063	33.7624	120.05	10.3593	-0.054345	1.051346	-0.065337	-0.066663	-0.018781	33.7624	-0.064920	-0.247939	0.075747	NaN
574	1.000000	1.062683	7.37067e+06	-48389.1	1005.82	-29762.6	0.000000	0.000000	7.063165	-0.020796	NaN	0.000000	0.001571	0.001724	28.0797	0.047899	0.001843	25.9829	102.726	-167.175	0.036392	1.061338	-0.055326	-0.056671	-0.020796	25.9829	-0.054725	-0.126392	0.164534	NaN
574	1.000000	1.072674	7.37067e+06	-48389.1	1005.82	-29762.6	0.000000	0.000000	7.073155	-0.031352	NaN	0.000000	0.001571	0.001631	28.0798	0.070098	0.002061	34.0066	-69.7011	16.0331	-0.090259	1.071339	-0.045335	-0.046670	-0.031352	34.0066	-0.044644	-0.062676	0.500221	NaN
574	1.000000	1.082699	7.37067e+06	-48389.1	1005.82	-29762.6	0.000000	0.000000	7.083178	-0.077340	NaN	0.000000	0.001582	0.001636	28.0798	0.068600	0.002120	32.3583	141.481	-167.034	-0.064055	1.081360	-0.035310	-0.036649	-0.077340	32.3583	-0.033517	-0.028981	2.668668	NaN
574	1.000000	1.092713	7.37067e+06	-48389.1	1005.82	-29762.6	0.000000	0.000000	7.093193	-0.064343	NaN	0.000000	0.001580	0.001707	28.0798	0.040907	0.001887	21.6791	75.289	16.3881	-0.088941	1.091344	-0.025296	-0.026665	-0.064343	21.6791	-0.023070	-0.015038	4.278568	NaN
574	1.000000	1.102686	7.37067e+06	-48389.1	1005.82	-29762.6	0.000000	0.000000	7.103164	-0.091439	NaN	0.000000	0.001542	0.001677	28.08	0.050417	0.001971	25.5782	-32.0494	-167.407	-0.020335	1.101431	-0.015323	-0.016578	-0.091439	25.5782	-0.012642	-0.007896	11.5799	NaN
574	1.000000	1.112688	7.37067e+06	-48389.1	1005.82	-29762.6	0.000000	0.000000	7.113168	-0.063316	NaN	0.000000	0.001596	0.001659	28.0798	0.098565	0.001877	52.5226	88.0705	10.045	0.021433	1.111352	-0.005321	-0.006658	-0.063316	52.5226	-0.004417	-0.003047	20.7792	NaN
574	1.000000	1.122710	7.37067e+06	-48389.1	1005.82	-29762.6	0.000000	0.000000	7.123190	-0.032022	NaN	0.000000	0.001610	0.001666	28.0799	0.171670	0.002053	83.6046	171.252	-166.911	-0.069544	1.121417	0.004701	0.003408	-0.032022	83.6046	0.004988	0.004122	-7.767985	1189.68
574	1.000000	1.132689	7.37067e+06	-48389.1	1005.82	-29762.6	0.000000	0.000000	7.133321	3.666403	NaN	0.000000	0.001557	0.001676	28.0798	4.698661	0.001855	2532.72	13.0839	11.2129	2.755507	1.131353	0.014680	0.013343	3.666403	2532.72	0.013594	0.013456	272.477	19948.3
574	2.000000	1.139287	7.37067e+06	-48389.1	1005.82	-29762.6	0.000000	0.000000	7.140099	8.017949	NaN	0.000000	0.001584	0.001609	28.0809	9.082675	0.001660	5471.41	11.6191	-174.826	8.413642	1.138944	0.021278	0.020935	8.017949	5471.41	0.020179	0.022825	351.284	33088
574	2.000000	1.141692	7.37067e+06	-48389.1	1005.82	-29762.6	0.000000	0.000000	7.142618	10.8084	NaN	0.000000	0.001583	0.001663	28.0798	11.4835	0.001689	6799.97	7.660277	3.487850	9.583199	1.141375	0.023683	0.023366	10.8084	6799.97	0.022491	0.026608	406.207	38086.7
574	2.000000	1.144209	7.37067e+06	-48389.1	1005.82	-29762.6	0.000000	0.000000	7.145248	13.5447	NaN	0.000000	0.001630	0.001664	28.0803	13.6461	0.001958	6970.38	8.113885	-174.35	13.493	1.143983	0.026200	0.025974	13.5447	6970.38	0.024743	0.030549	443.377	36436
574	2.000000	1.146702	7.37067e+06	-48389.1	1005.82	-29762.6	0.000000	0.000000	7.147850	16.2	NaN	0.000000	0.001612	0.001661	28.08	15.5205	0.001890	8213.69	6.307272	4.890415	14.5985	1.146338	0.028692	0.028329	16.2	8213.69	0.027213	0.035165	460.678	40017.8
574	2.000000	1.149144	7.37067e+06	-48389.1	1005.82	-29762.6	0.000000	0.000000	7.150486	20.9214	NaN	0.000000	0.001646	0.001685	28.0801	17.6279	0.001702	10354.8	4.350492	-175.694	19.8775	1.148915	0.031135	0.030905	20.9214	10354.8	0.029620	0.039959	523.575	47326.8
574	2.000000	1.151656	7.37067e+06	-48389.1	1005.82	-29762.6	0.000000	0.000000	7.153201	25.8665	NaN	0.000000	0.001651	0.001647	28.0784	20.4729	0.001751	11689	5.890593	1.336170	25.3171	1.151407	0.033647	0.033398	25.8665	11689	0.031987	0.044963	575.288	50364.4
574	2.000000	1.154202	7.37067e+06	-48389.1	1005.82	-29762.6	0.000000	0.000000	7.155957	30.9539	NaN	0.000000	0.001652	0.001671	28.0787	23.6688	0.001831	12925.9	2.830412	-176.781	30.6102	1.153848	0.036193	0.035839	30.9539	12925.9	0.034397	0.050351	614.761	52629.5
574	2.000000	1.156697	7.37067e+06	-48389.1	1005.82	-29762.6	0.000000	0.000000	7.158775	38.8157	NaN	0.000000	0.001579	0.001690	28.0785	26.2679	0.001849	14203.8	6.985683	0.244946	38.1396	1.156306	0.038688	0.038297	38.8157	14203.8	0.036638	0.055629	697.764	55020.8
574	2.000000	1.159171	7.37067e+06	-48389.1	1005.82	-29762.6	0.000000	0.000000	7.161479	44.4274	NaN	0.000000	0.001585	0.001633	28.0795	29.1652	0.001936	15063.7	7.987444	177.886	43.958	1.158849	0.041162	0.040840	44.4274	15063.7	0.038950	0.061342	724.256	55568.3
574	2.000000	1.161624	7.37067e+06	-48389.1	1005.82	-29762.6	0.000000	0.000000	7.164280	52.8681	NaN	0.000000	0.001586	0.001652	28.0784	31.4849	0.001762	17864.9	8.294384	-4.969490	50.9992	1.161319	0.043615	0.043310	52.8681	17864.9	0.041396	0.067685	781.089	62737.4
574	2.000000	1.164149	7.37067e+06	-48389.1	1005.82	-29762.6	0.000000	0.000000	7.167173	61.8179	NaN	0.000000	0.001580	0.001643	28.0796	34.5049	0.001771	19479.1	7.110873	175.513	61.385	1.163792	0.046140	0.045783	61.8179	19479.1	0.043760	0.074106	834.185	65375.6
574	2.000000	1.166659	7.37067e+06	-48389.1	1005.82	-29762.6	0.000000	0.000000	7.169925	67.6959	NaN	0.000000	0.001570	0.001654	28.0785	36.6759	0.001898	19324.2	7.549370	-3.837184	65.8462	1.166281	0.048650	0.048272	67.6959	19324.2	0.046023	0.080518	840.757	62219.7
574	2.000000	1.169107	7.37067e+06	-48389.1	1005.82	-29762.6	0.000000	0.000000	7.172653	74.5435	NaN	0.000000	0.001591	0.001606	28.0785	38.5556	0.001852	20823.2	3.058003	179.085	72.4806	1.168860	0.051097	0.050851	74.5435	20823.2	0.048413	0.087570	851.249	64290.1
574	2.000000	1.171662	7.37067e+06	-48389.1	1005.82	-29762.6	0.000000	0.000000	7.175532	82.4049	NaN	0.000000	0.001578	0.001665	28.0786	40.5181	0.001817	22304.5	4.076702	-1.601563	81.2614	1.171288	0.053653	0.053279	82.4049	22304.5	0.050882	0.095159	865.968	66060.4
574	2.000000	1.174162	7.37067e+06	-48389.1	1005.82	-29762.6	0.000000	0.000000	7.178227	87.1319	NaN	0.000000	0.001605	0.001656	28.0799	43.4721	0.001863	23330.3	4.982014	176.097	87.7064	1.173913	0.056153	0.055904	87.1319	23330.3	0.053352	0.103055	845.49	66398.6
574	2.000000	1.176674	7.37067e+06	-48389.1	1005.82	-29762.6	0.000000	0.000000	7.181207	98.5296	NaN	0.000000	0.001596	0.001675	28.0785	44.8644	0.001737	25826.4	4.333239	-4.012082	96.8542	1.176302	0.058664	0.058293	98.5296	25826.4	0.055803	0.111191	886.132	70762.5
574	2.000000	1.179114	7.37067e+06	-48389.1	1005.82	-29762.6	0.000000	0.000000	7.184062	108.634	NaN	0.000000	0.001609	0.001652	28.0785	46.9513	0.001814	25876.7	3.925872	176.749	106.457	1.178895	0.061104	0.060886	108.634	25876.7	0.057956	0.118580	916.126	68655.7
574	2.000000	1.181592	7.37067e+06	-48389.1	1005.82	-29762.6	0.000000	0.000000	7.186897	117.303	NaN	0.000000	0.001606	0.001682	28.0784	48.2497	0.001693	28494.8	-0.415918	0.184856	113.679	1.181281	0.063583	0.063272	117.303	28494.8	0.060496	0.127592	919.355	72883.1
574	2.000000	1.184079	7.37067e+06	-48389.1	1005.82	-29762.6	0.000000	0.000000	7.190070	134.003	NaN	0.000000	0.001606	0.001647	28.0806	52.0888	0.001786	29173	3.521677	176.307	131.229	1.183819	0.066070	0.065810	134.003	29173	0.062625	0.135388	989.774	72437.5
574	2.000000	1.186556	7.37067e+06	-48389.1	1005.82	-29762.6	0.000000	0.000000	7.193053	146.307	NaN	0.000000	0.001601	0.001669	28.0795	53.9988	0.001762	30648.7	8.151687	-8.781512	140.735	1.186152	0.068547	0.068143	146.307	30648.7	0.064966	0.144217	1014.49	73735.6
574	2.000000	1.189098	7.37067e+06	-48389.1	1005.82	-29762.6	0.000000	0.000000	7.196174	160.392	NaN	0.000000	0.001599	0.001669	28.08	55.3083	0.001725	32069.7	6.088760	173.881	159.177	1.188661	0.071088	0.070651	160.392	32069.7	0.067337	0.153426	1045.4	74802.9
574	2.000000	1.191571	7.37067e+06	-48389.1	1005.82	-29762.6	0.000000	0.000000	7.199148	172.551	NaN	0.000000	0.001610	0.001656	28.0798	59.1654	0.001841	32142.9	2.432765	-2.894529	169.007	1.191320	0.073562	0.073310	172.551	32142.9	0.069536	0.162205	1063.79	72916.6
574	2.000000	1.194126	7.37067e+06	-48389.1	1005.82	-29762.6	0.000000	0.000000	7.201627	170.725	NaN	0.000000	0.001603	0.001627	28.0802	62.715	0.001845	34000.1	5.366081	172.45	168.365	1.194010	0.076117	0.076001	170.725	34000.1	0.072351	0.173781	982.411	74516.5
574	2.000000	1.196600	7.37067e+06	-48389.1	1005.82	-29762.6	0.000000	0.000000	7.205352	201.133	NaN	0.000000	0.001593	0.001646	28.0799	64.0697	0.001786	35879.5	7.822918	-9.275991	195.762	1.196235	0.078591	0.078225	201.133	35879.5	0.074387	0.182388	1102.77	76757.5
574	2.000000	1.199117	7.37067e+06	-48389.1	1005.82	-29762.6	0.000000	0.000000	7.208299	211.607	NaN	0.000000	0.001591	0.001680	28.0798	66.2521	0.001822	36354.4	3.081915	175.151	213.586	1.198742	0.081108	0.080733	211.607	36354.4	0.076742	0.192592	1098.74	75685.3
574	2.000000	1.201590	7.37067e+06	-48389.1	1005.82	-29762.6	0.000000	0.000000	7.211253	223.3	NaN	0.000000	0.001620	0.001679	28.0799	68.0998	0.001731	39330.6	1.352185	-4.010945	220.948	1.201259	0.083581	0.083250	223.3	39330.6	0.079323	0.204068	1094.24	79545.8
574	2.000000	1.204117	7.37067e+06	-48389.1	1005.82	-29762.6	0.000000	0.000000	7.214450	239.608	NaN	0.000000	0.001633	0.001683	28.0799	71.6285	0.001837	38988.8	2.325978	174.607	238.91	1.203860	0.086108	0.085851	239.608	38988.8	0.081499	0.213982	1119.76	77005.9
574	2.000000	1.206522	7.37067e+06	-48389.1	1005.82	-29762.6	0.000000	0.000000	7.217508	255.49	NaN	0.000000	0.001606	0.001649	28.0798	73.6136	0.001797	40968.9	7.457666	-9.907321	248.766	1.206106	0.088512	0.088096	255.49	40968.9	0.083835	0.224877	1136.14	78932.4
574	2.000000	1.209135	7.37067e+06	-48389.1	1005.82	-29762.6	0.000000	0.000000	7.220766	271.166	NaN	0.000000	0.001586	0.001632	28.0796	75.6604	0.001805	41920.4	8.117442	169.354	275.55	1.208742	0.091126	0.090733	271.166	41920.4	0.086275	0.236519	1146.49	78752.6
574	2.000000	1.211442	7.37067e+06	-48389.1	1005.82	-29762.6	0.000000	0.000000	7.223656	285.346	NaN	0.000000	0.001611	0.001659	28.0799	78.5904	0.001742	45107.3	7.981701	-11.3521	276.474	1.211144	0.093433	0.093135	285.346	45107.3	0.088688	0.248309	1149.16	82703.6
574	2.000000	1.214090	7.37067e+06	-48389.1	1005.82	-29762.6	0.000000	0.000000	7.226885	299.474	NaN	0.000000	0.001625	0.001684	28.0797	82.311	0.001939	42445.6	6.155064	170.366	297.373	1.213882	0.096081	0.095873	299.474	42445.6	0.090790	0.258792	1157.2	76230.8
574	2.000000	1.216582	7.37067e+06	-48389.1	1005.82	-29762.6	0.000000	0.000000	7.230378	323.813	NaN	0.000000	0.001632	0.001692	28.0796	82.7573	0.001747	47363.5	2.519180	-6.196927	320.682	1.216201	0.098573	0.098192	323.813	47363.5	0.093445	0.272330	1189.05	82922
574	2.000000	1.219183	7.37067e+06	-48389.1	1005.82	-29762.6	0.000000	0.000000	7.233307	331.792	NaN	0.000000	0.001644	0.001679	28.0783	85.0512	0.001889	45030.4	3.562987	173.554	339.11	1.218772	0.101174	0.100763	331.792	45030.4	0.095648	0.283800	1169.11	77227.8
574	2.000000	1.221614	7.37067e+06	-48389.1	1005.82	-29762.6	0.000000	0.000000	7.236728	355.888	NaN	0.000000	0.001633	0.001685	28.0787	88.916	0.001788	49731.1	6.838720	-10.7579	355.8	1.221174	0.103605	0.103165	355.888	49731.1	0.098238	0.297573	1195.97	83292.2
574	2.000000	1.224057	7.37067e+06	-48389.1	1005.82	-29762.6	0.000000	0.000000	7.239646	367.444	NaN	0.000000	0.001599	0.001689	28.0784	91.3476	0.001818	50239	3.616119	172.062	367.521	1.223772	0.106048	0.105762	367.444	50239	0.100562	0.310195	1184.56	82413.3
574	2.000000	1.226598	7.37067e+06	-48389.1	1005.82	-29762.6	0.000000	0.000000	7.243040	388.167	NaN	0.000000	0.001637	0.001621	28.0784	93.3265	0.001813	51470.6	6.704421	-11.2794	386.234	1.226223	0.108589	0.108213	388.167	51470.6	0.102933	0.323318	1200.57	82702.4
574	2.000000	1.229103	7.37067e+06	-48389.1	1005.82	-29762.6	0.000000	0.000000	7.246304	406.63	NaN	0.000000	0.001591	0.001649	28.0785	94.3459	0.001801	52380.4	5.731669	169.515	409.22	1.228833	0.111094	0.110823	406.63	52380.4	0.105272	0.336516	1208.35	82497.2
574	2.000000	1.231512	7.37067e+06	-48389.1	1005.82	-29762.6	0.000000	0.000000	7.249482	425.337	NaN	0.000000	0.001618	0.001636	28.0784	96.2487	0.001756	54819	1.894726	-7.155723	419.999	1.231214	0.113503	0.113205	425.337	54819	0.107684	0.350389	1213.9	84611.4
574	2.000000	1.234015	7.37067e+06	-48389.1	1005.82	-29762.6	0.000000	0.000000	7.252943	448.64	NaN	0.000000	0.001579	0.001641	28.0785	99.2517	0.001734	57229.5	3.337410	171.253	445.953	1.233718	0.116006	0.115709	448.64	57229.5	0.110127	0.364707	1230.14	86580.8
574	2.000000	1.236551	7.37067e+06	-48389.1	1005.82	-29762.6	0.000000	0.000000	7.256433	471.834	NaN	0.000000	0.001613	0.001613	28.0784	100.104	0.001696	59013.4	0.604322	-6.091449	467.283	1.236224	0.118542	0.118215	471.834	59013.4	0.112545	0.379148	1244.46	87562.8