File: remote_trans/data/nanoindenter/0828-1/data/Data_2025-08-06,11h17m57s/2025-07-22_16-23-58_1_62.txt
2025-07-22, 16:23:58, 1
Index	Phase	Displacement	Time	Pos X	Pos Y	Pos Z	Rot A	Rot B	Piezo Z	Force A	Force B	Gripper	Voltage A	Voltage B	Temperature	Amplitude force	Amplitude pos	Stiffness	Phase shift	Phase excitation	Force A raw	Displacement raw	HMax	HMax raw	Real Force	Real Stiffness	Contact Depth	Area	Hardness	Reduced Mod.
[#]	[#]	[um]	[s]	[um]	[um]	[um]	[m°]	[m°]	[um]	[uN]	[uN]	[V]	[V]	[V]	[°C]	[uN]	[um]	[N/m]	[°]	[°]	[uN]	[um]	[um]	[um]	[uN]	[N/m]	[um]	[um^2]	[MPa]	[MPa]
62	1.000000	0.002353	7.36565e+06	-41739.1	955.818	-29785.8	0.000000	0.000000	6.002823	-0.009000	NaN	0.000000	0.001683	0.001640	28.1282	0.034776	0.000932	37.3133	-119.549	-169.961	-0.000501	0.001056	-1.108972	-1.110269	-0.009000	37.3133	-1.108791	-6.577579E+14	1.368330E-17	NaN
62	1.000000	0.010334	7.36565e+06	-41739.1	955.819	-29785.8	0.000000	0.000000	6.010808	0.065727	NaN	0.000000	0.001620	0.001661	28.1285	0.088239	0.000989	89.2425	22.9535	-168.377	0.063580	0.009003	-1.100991	-1.102322	0.065727	89.2425	-1.101543	-5.257493E+14	-1.250160E-16	NaN
62	1.000000	0.018272	7.36565e+06	-41739.1	955.819	-29785.8	0.000000	0.000000	6.018744	0.038854	NaN	0.000000	0.001672	0.001609	28.1291	0.034000	0.001641	20.7205	125.133	-160.957	0.013829	0.016956	-1.093053	-1.094369	0.038854	20.7205	-1.094459	-4.223629E+14	-9.199118E-17	NaN
62	1.000000	0.026329	7.36565e+06	-41739.1	955.819	-29785.8	0.000000	0.000000	6.026805	0.115345	NaN	0.000000	0.001672	0.001639	28.1292	0.107549	0.001905	56.4453	72.2411	-165.668	0.114227	0.024977	-1.084996	-1.086348	0.115345	56.4453	-1.086528	-3.305161E+14	-3.489839E-16	NaN
62	1.000000	0.034288	7.36565e+06	-41739.1	955.819	-29785.8	0.000000	0.000000	6.034758	-0.021247	NaN	0.000000	0.001661	0.001670	28.1289	0.011097	0.001956	5.673212	-42.2612	-165.362	-0.060228	0.032931	-1.077037	-1.078394	-0.021247	5.673212	-1.074228	-2.259390E+14	9.403936E-17	NaN
62	1.000000	0.042281	7.36565e+06	-41739.1	955.819	-29785.8	0.000000	0.000000	6.042752	-0.019043	NaN	0.000000	0.001666	0.001642	28.1306	0.037128	0.001971	18.8391	-144.631	-169.438	0.022096	0.041006	-1.069043	-1.070319	-0.019043	18.8391	-1.068285	-1.879976E+14	1.012912E-16	NaN
62	1.000000	0.050319	7.36565e+06	-41739.1	955.818	-29785.8	0.000000	0.000000	6.050792	0.050335	NaN	0.000000	0.001651	0.001650	28.1296	0.030449	0.001985	15.3401	86.9191	-166.095	0.060830	0.048948	-1.061006	-1.062377	0.050335	15.3401	-1.063467	-1.619606E+14	-3.107857E-16	NaN
62	1.000000	0.058267	7.36565e+06	-41739.1	955.819	-29785.8	0.000000	0.000000	6.058739	0.023961	NaN	0.000000	0.001653	0.001659	28.1287	0.064643	0.002015	32.084	-168.852	-167.303	0.081777	0.056957	-1.053058	-1.054368	0.023961	32.084	-1.053618	-1.194130E+14	-2.006582E-16	NaN
62	1.000000	0.066303	7.36565e+06	-41739.1	955.818	-29785.8	0.000000	0.000000	6.066774	0.014397	NaN	0.000000	0.001696	0.001622	28.1297	0.047313	0.002006	23.5875	-18.1059	-165.589	0.052817	0.064972	-1.045022	-1.046352	0.014397	23.5875	-1.045480	-9.282210E+13	-1.551045E-16	NaN
62	1.000000	0.074299	7.36565e+06	-41739.1	955.819	-29785.8	0.000000	0.000000	6.074770	-0.004813	NaN	0.000000	0.001704	0.001663	28.1289	0.061736	0.002009	30.7322	-68.8039	-164.829	0.058806	0.072999	-1.037026	-1.038326	-0.004813	30.7322	-1.036909	-7.118625E+13	6.761436E-17	NaN
62	1.000000	0.082297	7.36565e+06	-41739.1	955.818	-29785.8	0.000000	0.000000	6.082771	0.086767	NaN	0.000000	0.001672	0.001645	28.1294	0.031981	0.001917	16.6828	15.3351	-167.743	0.004163	0.080970	-1.029028	-1.030355	0.086767	16.6828	-1.032929	-6.293197E+13	-1.378749E-15	NaN
62	1.000000	0.090289	7.36565e+06	-41739.1	955.818	-29785.8	0.000000	0.000000	6.090760	0.014048	NaN	0.000000	0.001664	0.001673	28.1291	0.049244	0.001943	25.3384	14.2232	-165.955	0.031402	0.088990	-1.021036	-1.022335	0.014048	25.3384	-1.021452	-4.410535E+13	-3.185092E-16	NaN
62	1.000000	0.098280	7.36565e+06	-41739.1	955.819	-29785.8	0.000000	0.000000	6.098753	0.060323	NaN	0.000000	0.001658	0.001649	28.13	0.018448	0.001948	9.469650	-99.2573	-165.166	0.015187	0.096952	-1.013045	-1.014373	0.060323	9.469650	-1.017823	-3.941485E+13	-1.530476E-15	NaN
62	1.000000	0.106314	7.36565e+06	-41739.1	955.819	-29785.8	0.000000	0.000000	6.106786	0.034193	NaN	0.000000	0.001561	0.001669	28.1303	0.029113	0.002057	14.1534	-26.4056	-164.072	-0.011969	0.105045	-1.005011	-1.006280	0.034193	14.1534	-1.006823	-2.802972E+13	-1.219879E-15	NaN
62	1.000000	0.114298	7.36565e+06	-41739.1	955.819	-29785.8	0.000000	0.000000	6.114770	0.049847	NaN	0.000000	0.001576	0.001675	28.1301	0.070969	0.001899	37.3648	-123.739	-164.986	0.097988	0.112953	-0.997027	-0.998372	0.049847	37.3648	-0.998028	-2.134111E+13	-2.335716E-15	NaN
62	1.000000	0.122296	7.36565e+06	-41739.1	955.819	-29785.8	0.000000	0.000000	6.122769	0.059728	NaN	0.000000	0.001560	0.001667	28.13	0.063281	0.002058	30.7441	93.6902	-167.239	0.055981	0.120992	-0.989029	-0.990333	0.059728	30.7441	-0.990486	-1.689113E+13	-3.536066E-15	NaN
62	1.000000	0.130319	7.36565e+06	-41739.1	955.819	-29785.8	0.000000	0.000000	6.130792	0.058584	NaN	0.000000	0.001571	0.001674	28.1297	0.068706	0.001993	34.4717	106.183	-163.275	-0.019719	0.129001	-0.981006	-0.982324	0.058584	34.4717	-0.982280	-1.309579E+13	-4.473469E-15	NaN
62	1.000000	0.138359	7.36565e+06	-41739.1	955.819	-29785.8	0.000000	0.000000	6.138831	0.017548	NaN	0.000000	0.001603	0.001678	28.129	0.029824	0.001996	14.9385	98.6293	-166.005	-0.008914	0.137020	-0.972966	-0.974305	0.017548	14.9385	-0.973847	-1.008104E+13	-1.740714E-15	NaN
62	1.000000	0.146346	7.36565e+06	-41739.1	955.818	-29785.8	0.000000	0.000000	6.146817	0.011891	NaN	0.000000	0.001603	0.001696	28.1287	0.058762	0.002008	29.2578	101.163	-164.008	-0.023111	0.144994	-0.964979	-0.966331	0.011891	29.2578	-0.965284	-7.728554E+12	-1.538518E-15	NaN
62	1.000000	0.154315	7.36565e+06	-41739.1	955.819	-29785.8	0.000000	0.000000	6.154787	0.038574	NaN	0.000000	0.001601	0.001692	28.1287	0.091733	0.002015	45.5295	164.635	-165.414	0.083548	0.153040	-0.957010	-0.958284	0.038574	45.5295	-0.957646	-6.097127E+12	-6.326622E-15	NaN
62	1.000000	0.162335	7.36565e+06	-41739.1	955.819	-29785.8	0.000000	0.000000	6.162806	0.013693	NaN	0.000000	0.001585	0.001682	28.1286	0.054087	0.001967	27.4993	-172.64	-167.614	0.004949	0.160995	-0.948990	-0.950330	0.013693	27.4993	-0.949363	-4.714576E+12	-2.904298E-15	NaN
62	1.000000	0.170319	7.36565e+06	-41739.1	955.818	-29785.8	0.000000	0.000000	6.170792	0.045106	NaN	0.000000	0.001636	0.001672	28.1293	0.024502	0.001964	12.4742	-176.274	-165.145	0.079120	0.169052	-0.941006	-0.942273	0.045106	12.4742	-0.943718	-3.956359E+12	-1.140091E-14	NaN
62	1.000000	0.178340	7.36565e+06	-41739.1	955.819	-29785.8	0.000000	0.000000	6.178812	0.013106	NaN	0.000000	0.001660	0.001687	28.1295	0.068425	0.002159	31.6981	-27.9832	-166.91	0.093617	0.177007	-0.932984	-0.934318	0.013106	31.6981	-0.933295	-2.861936E+12	-4.579588E-15	NaN
62	1.000000	0.186321	7.36565e+06	-41739.1	955.819	-29785.8	0.000000	0.000000	6.186793	0.012501	NaN	0.000000	0.001650	0.001707	28.1287	0.113522	0.002078	54.6243	-136.728	-162.774	0.052553	0.185012	-0.925004	-0.926313	0.012501	54.6243	-0.925175	-2.223689E+12	-5.621653E-15	NaN
62	1.000000	0.194340	7.36565e+06	-41739.1	955.819	-29785.8	0.000000	0.000000	6.194811	0.001731	NaN	0.000000	0.001567	0.001672	28.1287	0.037831	0.002026	18.6733	145.23	-162.939	0.035660	0.193011	-0.916985	-0.918314	0.001731	18.6733	-0.917055	-1.727580E+12	-1.002169E-15	NaN
62	1.000000	0.202349	7.36565e+06	-41739.1	955.818	-29785.8	0.000000	0.000000	6.202823	0.082372	NaN	0.000000	0.001553	0.001689	28.1286	0.026287	0.001988	13.2222	-163.562	-164.49	0.075860	0.201032	-0.908976	-0.910293	0.082372	13.2222	-0.913649	-1.553973E+12	-5.300740E-14	NaN
62	1.000000	0.210331	7.36565e+06	-41739.1	955.818	-29785.8	0.000000	0.000000	6.210803	0.029306	NaN	0.000000	0.001547	0.001673	28.1286	0.028511	0.002011	14.1801	24.0552	-172.182	0.048146	0.209033	-0.900994	-0.902292	0.029306	14.1801	-0.902544	-1.100111E+12	-2.663913E-14	NaN
62	1.000000	0.218354	7.36565e+06	-41739.1	955.819	-29785.8	0.000000	0.000000	6.218827	0.074830	NaN	0.000000	0.001569	0.001696	28.1279	0.070412	0.002030	34.685	-25.8521	-164.973	0.035743	0.216997	-0.892971	-0.894328	0.074830	34.685	-0.894589	-8.589116E+11	-8.712227E-14	NaN
62	1.000000	0.226321	7.36565e+06	-41739.1	955.82	-29785.8	0.000000	0.000000	6.226794	0.056207	NaN	0.000000	0.001593	0.001704	28.1277	0.058888	0.002063	28.5515	-32.8673	-168.271	0.101387	0.225043	-0.885004	-0.886282	0.056207	28.5515	-0.886480	-6.673144E+11	-8.422867E-14	NaN
62	1.000000	0.234367	7.36565e+06	-41739.1	955.818	-29785.8	0.000000	0.000000	6.234839	0.019903	NaN	0.000000	0.001608	0.001648	28.1275	0.026639	0.002151	12.3865	-127.179	-164.562	-0.013246	0.233023	-0.876958	-0.878302	0.019903	12.3865	-0.878163	-5.150637E+11	-3.864272E-14	NaN
62	1.000000	0.242355	7.36565e+06	-41739.1	955.818	-29785.8	0.000000	0.000000	6.242827	0.026785	NaN	0.000000	0.001600	0.001649	28.1273	0.083178	0.001878	44.2793	90.6763	-160.878	0.027193	0.241021	-0.868969	-0.870304	0.026785	44.2793	-0.869423	-3.923194E+11	-6.827328E-14	NaN
62	1.000000	0.250338	7.36565e+06	-41739.1	955.818	-29785.8	0.000000	0.000000	6.250811	0.036552	NaN	0.000000	0.001605	0.001639	28.1283	0.080430	0.001967	40.8922	127.99	-163.955	-0.033889	0.249027	-0.860986	-0.862298	0.036552	40.8922	-0.861657	-3.079965E+11	-1.186764E-13	NaN
62	1.000000	0.258387	7.36565e+06	-41739.1	955.819	-29785.8	0.000000	0.000000	6.258859	0.024492	NaN	0.000000	0.001556	0.001662	28.1287	0.077448	0.002061	37.5821	-122.01	-163.73	0.001102	0.257039	-0.852938	-0.854286	0.024492	37.5821	-0.853426	-2.383046E+11	-1.027763E-13	NaN
62	1.000000	0.266370	7.36565e+06	-41739.1	955.819	-29785.8	0.000000	0.000000	6.266843	0.046350	NaN	0.000000	0.001594	0.001646	28.1285	0.119634	0.001865	64.1616	42.5471	-163.141	0.030172	0.265051	-0.844955	-0.846274	0.046350	64.1616	-0.845496	-1.861000E+11	-2.490585E-13	NaN
62	1.000000	0.274391	7.36565e+06	-41739.1	955.819	-29785.8	0.000000	0.000000	6.274862	-0.001835	NaN	0.000000	0.001566	0.001635	28.1286	0.074976	0.001973	38.0012	-147.835	-162.94	0.045505	0.273074	-0.836934	-0.838251	-0.001835	38.0012	-0.836898	-1.423185E+11	1.289235E-14	NaN
62	1.000000	0.282367	7.36565e+06	-41739.1	955.819	-29785.8	0.000000	0.000000	6.282838	0.005247	NaN	0.000000	0.001618	0.001659	28.1285	0.049998	0.002017	24.7866	162.465	-169.345	0.133834	0.281044	-0.828958	-0.830281	0.005247	24.7866	-0.829117	-1.116383E+11	-4.699765E-14	NaN
62	1.000000	0.290366	7.36565e+06	-41739.1	955.819	-29785.8	0.000000	0.000000	6.290837	0.003544	NaN	0.000000	0.001591	0.001656	28.1281	0.055949	0.002035	27.4991	-129.098	-167.144	0.011299	0.289125	-0.820959	-0.822200	0.003544	27.4991	-0.821055	-8.680036E+10	-4.082509E-14	NaN
62	1.000000	0.298354	7.36565e+06	-41739.1	955.818	-29785.8	0.000000	0.000000	6.298824	-0.016564	NaN	0.000000	0.001586	0.001665	28.1276	0.089522	0.002002	44.7113	-76.0133	-164.565	0.050934	0.297108	-0.812971	-0.814217	-0.016564	44.7113	-0.812693	-6.685119E+10	2.477693E-13	NaN
62	1.000000	0.306376	7.36565e+06	-41739.1	955.819	-29785.8	0.000000	0.000000	6.306848	0.041567	NaN	0.000000	0.001645	0.001664	28.1273	0.081037	0.002109	38.4227	126.921	-163.281	0.064121	0.305069	-0.804949	-0.806256	0.041567	38.4227	-0.805761	-5.383274E+10	-7.721593E-13	NaN
62	1.000000	0.314384	7.36565e+06	-41739.1	955.819	-29785.8	0.000000	0.000000	6.314855	0.010283	NaN	0.000000	0.001626	0.001669	28.128	0.099939	0.002026	49.3252	-139.29	-168.034	0.022174	0.313106	-0.796941	-0.798219	0.010283	49.3252	-0.797097	-4.106389E+10	-2.504058E-13	NaN
62	1.000000	0.322386	7.36565e+06	-41739.1	955.819	-29785.8	0.000000	0.000000	6.322859	0.069029	NaN	0.000000	0.001615	0.001635	28.1287	0.023969	0.002006	11.951	-119.886	-169.121	0.018459	0.321111	-0.788939	-0.790214	0.069029	11.951	-0.793271	-3.643394E+10	-1.894632E-12	NaN
62	1.000000	0.330380	7.36565e+06	-41739.1	955.819	-29785.8	0.000000	0.000000	6.330857	0.132056	NaN	0.000000	0.001633	0.001607	28.1287	0.037303	0.001943	19.2013	-66.164	-163.48	0.163361	0.329054	-0.780944	-0.782271	0.132056	19.2013	-0.786103	-2.911687E+10	-4.535389E-12	NaN
62	1.000000	0.338394	7.36565e+06	-41739.1	955.819	-29785.8	0.000000	0.000000	6.338868	0.082066	NaN	0.000000	0.001629	0.001617	28.1296	0.084124	0.002066	40.7177	105.226	-166.308	0.070804	0.337103	-0.772931	-0.774222	0.082066	40.7177	-0.774443	-2.021635E+10	-4.059373E-12	NaN
62	1.000000	0.346398	7.36565e+06	-41739.1	955.82	-29785.8	0.000000	0.000000	6.346868	-0.005412	NaN	0.000000	0.001632	0.001663	28.1295	0.032036	0.001947	16.4574	13.3913	-163.799	0.016302	0.345127	-0.764927	-0.766198	-0.005412	16.4574	-0.764681	-1.489253E+10	3.634069E-13	NaN
62	1.000000	0.354388	7.36565e+06	-41739.1	955.819	-29785.8	0.000000	0.000000	6.354864	0.130495	NaN	0.000000	0.001655	0.001634	28.13	0.084017	0.002023	41.5251	-78.1247	-162.628	0.144118	0.353125	-0.756937	-0.758200	0.130495	41.5251	-0.759294	-1.258033E+10	-1.037295E-11	NaN
62	1.000000	0.362443	7.36565e+06	-41739.1	955.818	-29785.8	0.000000	0.000000	6.362916	0.043369	NaN	0.000000	0.001645	0.001661	28.1305	0.076189	0.002027	37.581	-157.084	-166.093	0.078850	0.361138	-0.748882	-0.750187	0.043369	37.581	-0.749747	-9.327867E+9	-4.649427E-12	NaN
62	1.000000	0.370414	7.36565e+06	-41739.1	955.818	-29785.8	0.000000	0.000000	6.370890	0.127836	NaN	0.000000	0.001663	0.001685	28.1288	0.018245	0.002004	9.106522	111.27	-162.818	0.107793	0.369092	-0.740911	-0.742233	0.127836	9.106522	-0.751439	-9.835781E+9	-1.299705E-11	NaN
62	1.000000	0.378412	7.36565e+06	-41739.1	955.818	-29785.8	0.000000	0.000000	6.378885	0.040287	NaN	0.000000	0.001651	0.001645	28.1288	0.030433	0.001924	15.8156	-56.7824	-163.211	0.044045	0.377138	-0.732913	-0.734187	0.040287	15.8156	-0.734823	-5.841644E+9	-6.896451E-12	NaN
62	1.000000	0.386446	7.36565e+06	-41739.1	955.82	-29785.8	0.000000	0.000000	6.386917	0.013838	NaN	0.000000	0.001662	0.001643	28.1282	0.086658	0.001987	43.6041	86.3844	-168.181	0.006406	0.385115	-0.724879	-0.726210	0.013838	43.6041	-0.725117	-4.307708E+9	-3.212431E-12	NaN
62	1.000000	0.394462	7.36565e+06	-41739.1	955.819	-29785.8	0.000000	0.000000	6.394934	0.040016	NaN	0.000000	0.001657	0.001656	28.1283	0.011800	0.002030	5.811594	-132.055	-167.978	0.016661	0.393119	-0.716863	-0.718206	0.040016	5.811594	-0.722028	-3.909518E+9	-1.023551E-11	NaN
62	1.000000	0.402444	7.36565e+06	-41739.1	955.819	-29785.8	0.000000	0.000000	6.402917	0.044203	NaN	0.000000	0.001660	0.001634	28.1284	0.034736	0.002069	16.7866	-25.8478	-165.904	0.029032	0.401113	-0.708881	-0.710212	0.044203	16.7866	-0.710856	-2.752487E+9	-1.605939E-11	NaN
62	1.000000	0.410443	7.36565e+06	-41739.1	955.819	-29785.8	0.000000	0.000000	6.410914	0.001613	NaN	0.000000	0.001613	0.001622	28.1285	0.098826	0.002001	49.3844	37.5173	-162.624	0.042656	0.409085	-0.700882	-0.702240	0.001613	49.3844	-0.700906	-2.013299E+9	-8.010329E-13	NaN
62	1.000000	0.418423	7.36565e+06	-41739.1	955.817	-29785.8	0.000000	0.000000	6.418894	0.008233	NaN	0.000000	0.001620	0.001663	28.1301	0.081072	0.002009	40.3631	67.3901	-166.745	0.080603	0.417115	-0.692902	-0.694210	0.008233	40.3631	-0.693055	-1.572762E+9	-5.234841E-12	NaN
62	1.000000	0.426444	7.36565e+06	-41739.1	955.819	-29785.8	0.000000	0.000000	6.426913	-0.043768	NaN	0.000000	0.001632	0.001615	28.1292	0.097014	0.002082	46.5888	-69.5243	-166.589	-0.040291	0.425142	-0.684881	-0.686183	-0.043768	46.5888	-0.684176	-1.189348E+9	3.680038E-11	NaN
62	1.000000	0.434467	7.36565e+06	-41739.1	955.819	-29785.8	0.000000	0.000000	6.434940	0.050730	NaN	0.000000	0.001598	0.001656	28.1293	0.119125	0.002077	57.3445	118.587	-165.634	0.089915	0.433139	-0.676858	-0.678186	0.050730	57.3445	-0.677522	-9.645095E+8	-5.259691E-11	NaN
62	1.000000	0.442455	7.36565e+06	-41739.1	955.818	-29785.8	0.000000	0.000000	6.442925	-0.015931	NaN	0.000000	0.001565	0.001661	28.1294	0.066449	0.001795	37.0092	13.3534	-166.132	0.035305	0.441119	-0.668870	-0.670206	-0.015931	37.0092	-0.668547	-7.269418E+8	2.191571E-11	NaN
62	1.000000	0.450438	7.36565e+06	-41739.1	955.819	-29785.8	0.000000	0.000000	6.450911	0.053981	NaN	0.000000	0.001624	0.001659	28.1282	0.021427	0.001982	10.8086	-59.2937	-163.456	-0.035532	0.449125	-0.660887	-0.662200	0.053981	10.8086	-0.664632	-6.425540E+8	-8.401079E-11	NaN
62	1.000000	0.458479	7.36565e+06	-41739.1	955.819	-29785.8	0.000000	0.000000	6.458950	0.003265	NaN	0.000000	0.001608	0.001684	28.127	0.073230	0.002036	35.9759	25.5562	-165.028	0.000311	0.457113	-0.652846	-0.654212	0.003265	35.9759	-0.652914	-4.440023E+8	-7.353085E-12	NaN
62	1.000000	0.466466	7.36565e+06	-41739.1	955.82	-29785.8	0.000000	0.000000	6.466938	0.031701	NaN	0.000000	0.001636	0.001688	28.1273	0.054776	0.002008	27.2839	-6.355727	-167.942	0.102334	0.465114	-0.644859	-0.646211	0.031701	27.2839	-0.645730	-3.539122E+8	-8.957276E-11	NaN
62	1.000000	0.474422	7.36565e+06	-41739.1	955.818	-29785.8	0.000000	0.000000	6.474900	0.163483	NaN	0.000000	0.001596	0.001701	28.1271	0.073131	0.002053	35.6299	163.78	-162.539	0.059288	0.473173	-0.636903	-0.638152	0.163483	35.6299	-0.640344	-2.985468E+8	-5.475947E-10	NaN
62	1.000000	0.482466	7.36565e+06	-41739.1	955.819	-29785.8	0.000000	0.000000	6.482937	0.009231	NaN	0.000000	0.001545	0.001682	28.1277	0.092575	0.001986	46.6121	-70.9594	-167.635	0.064342	0.481181	-0.628859	-0.630144	0.009231	46.6121	-0.629007	-2.086368E+8	-4.424296E-11	NaN
62	1.000000	0.490476	7.36565e+06	-41739.1	955.819	-29785.8	0.000000	0.000000	6.490947	0.014242	NaN	0.000000	0.001563	0.001705	28.1277	0.151485	0.001938	78.1687	40.7466	-171.454	-0.061013	0.489197	-0.620849	-0.622128	0.014242	78.1687	-0.620986	-1.618752E+8	-8.797862E-11	NaN
62	1.000000	0.498476	7.36565e+06	-41739.1	955.819	-29785.8	0.000000	0.000000	6.498946	-0.029950	NaN	0.000000	0.001589	0.001692	28.1279	0.094205	0.002021	46.6115	49.1503	-163.52	-0.063738	0.497149	-0.612849	-0.614176	-0.029950	46.6115	-0.612367	-1.232172E+8	2.430637E-10	NaN
62	1.000000	0.506457	7.36565e+06	-41739.1	955.818	-29785.8	0.000000	0.000000	6.506930	0.055769	NaN	0.000000	0.001615	0.001672	28.1282	0.056113	0.002018	27.8034	-172.484	-164.677	0.005865	0.505134	-0.604868	-0.606191	0.055769	27.8034	-0.606373	-1.019060E+8	-5.472560E-10	NaN
62	1.000000	0.514471	7.36565e+06	-41739.1	955.819	-29785.8	0.000000	0.000000	6.514944	0.062377	NaN	0.000000	0.001601	0.001676	28.1279	0.041016	0.001927	21.2829	57.2959	-168.595	0.022295	0.513166	-0.596854	-0.598159	0.062377	21.2829	-0.599052	-8.079935E+7	-7.719959E-10	NaN
62	1.000000	0.522492	7.36565e+06	-41739.1	955.818	-29785.8	0.000000	0.000000	6.522967	0.107093	NaN	0.000000	0.001636	0.001675	28.1281	0.068079	0.002015	33.7808	-108.264	-164.862	0.088019	0.521152	-0.588833	-0.590173	0.107093	33.7808	-0.591211	-6.300236E+7	-1.699831E-9	NaN
62	1.000000	0.530460	7.36565e+06	-41739.1	955.819	-29785.8	0.000000	0.000000	6.530934	0.067545	NaN	0.000000	0.001582	0.001679	28.1271	0.045933	0.002109	21.7836	26.8086	-164.974	-0.047613	0.529180	-0.580865	-0.582145	0.067545	21.7836	-0.583190	-4.883702E+7	-1.383060E-9	NaN
62	1.000000	0.538493	7.36565e+06	-41739.1	955.818	-29785.8	0.000000	0.000000	6.538966	0.049004	NaN	0.000000	0.001591	0.001650	28.1267	0.030086	0.002085	14.4266	-103.684	-164.202	0.124832	0.537135	-0.572831	-0.574190	0.049004	14.4266	-0.575379	-3.810069E+7	-1.286175E-9	NaN
62	1.000000	0.546483	7.36565e+06	-41739.1	955.817	-29785.8	0.000000	0.000000	6.546958	0.091788	NaN	0.000000	0.001587	0.001640	28.1269	0.043277	0.002027	21.3539	-73.1507	-165.576	0.083853	0.545168	-0.564842	-0.566157	0.091788	21.3539	-0.568066	-3.019275E+7	-3.040082E-9	NaN
62	1.000000	0.554492	7.36565e+06	-41739.1	955.819	-29785.8	0.000000	0.000000	6.554963	0.003670	NaN	0.000000	0.001586	0.001630	28.1266	0.044752	0.001998	22.3957	45.6416	-164.725	0.012497	0.553165	-0.556833	-0.558160	0.003670	22.3957	-0.556956	-2.119635E+7	-1.731480E-10	NaN
62	1.000000	0.562492	7.36565e+06	-41739.1	955.819	-29785.8	0.000000	0.000000	6.562963	0.017228	NaN	0.000000	0.001600	0.001676	28.1268	0.041850	0.002122	19.723	165.695	-165.413	-0.007119	0.561206	-0.548833	-0.550119	0.017228	19.723	-0.549488	-1.670588E+7	-1.031229E-9	NaN
62	1.000000	0.570508	7.36565e+06	-41739.1	955.818	-29785.8	0.000000	0.000000	6.570980	0.025697	NaN	0.000000	0.001601	0.001686	28.127	0.112165	0.002028	55.2947	-18.5834	-165.876	0.140647	0.569225	-0.540817	-0.542100	0.025697	55.2947	-0.541165	-1.280907E+7	-2.006164E-9	NaN
62	1.000000	0.578489	7.36565e+06	-41739.1	955.818	-29785.8	0.000000	0.000000	6.578960	0.016241	NaN	0.000000	0.001612	0.001732	28.1279	0.032269	0.001960	16.4675	-101.541	-169.069	0.003005	0.577218	-0.532836	-0.534107	0.016241	16.4675	-0.533576	-1.005136E+7	-1.615760E-9	NaN
62	1.000000	0.586514	7.36565e+06	-41739.1	955.819	-29785.8	0.000000	0.000000	6.586984	-0.030752	NaN	0.000000	0.001585	0.001704	28.1282	0.083626	0.002015	41.4956	32.378	-164.244	0.061524	0.585216	-0.524811	-0.526109	-0.030752	41.4956	-0.524255	-7.46031e+06	4.122099E-9	NaN
62	1.000000	0.594530	7.36565e+06	-41739.1	955.82	-29785.8	0.000000	0.000000	6.595003	0.057840	NaN	0.000000	0.001618	0.001658	28.1287	0.020177	0.001930	10.4567	119.312	-166.628	0.065296	0.593241	-0.516795	-0.518084	0.057840	10.4567	-0.520944	-6.70996e+06	-8.620051E-9	NaN
62	1.000000	0.602523	7.36565e+06	-41739.1	955.818	-29785.8	0.000000	0.000000	6.602997	0.064699	NaN	0.000000	0.001609	0.001707	28.1286	0.118610	0.001894	62.6263	154.849	-171.193	-0.010178	0.601227	-0.508802	-0.510098	0.064699	62.6263	-0.509577	-4.6614e+06	-1.387982E-8	NaN
62	1.000000	0.610522	7.36565e+06	-41739.1	955.82	-29785.8	0.000000	0.000000	6.610996	0.073345	NaN	0.000000	0.001611	0.001712	28.1284	0.078806	0.001962	40.1729	147.02	-166.202	0.069271	0.609185	-0.500803	-0.502140	0.073345	40.1729	-0.502172	-3.67551e+06	-1.995503E-8	NaN
62	1.000000	0.618503	7.36565e+06	-41739.1	955.818	-29785.8	0.000000	0.000000	6.618977	0.086614	NaN	0.000000	0.001570	0.001660	28.1278	0.039675	0.002071	19.1546	91.5784	-167.381	-0.003635	0.617241	-0.492822	-0.494084	0.086614	19.1546	-0.496213	-3.03511e+06	-2.853739E-8	NaN
62	1.000000	0.626517	7.36565e+06	-41739.1	955.818	-29785.8	0.000000	0.000000	6.626991	0.075419	NaN	0.000000	0.001552	0.001698	28.1285	0.071023	0.001960	36.2292	-116.064	-163.191	0.023206	0.625249	-0.484808	-0.486076	0.075419	36.2292	-0.486369	-2.21127e+06	-3.410683E-8	NaN
62	1.000000	0.634513	7.36565e+06	-41739.1	955.819	-29785.8	0.000000	0.000000	6.634985	0.014882	NaN	0.000000	0.001586	0.001703	28.1277	0.092325	0.002121	43.5317	178.217	-167.485	0.058670	0.633219	-0.476812	-0.478106	0.014882	43.5317	-0.477068	-1.6386e+06	-9.082409E-9	NaN
62	1.000000	0.642510	7.36565e+06	-41739.1	955.817	-29785.8	0.000000	0.000000	6.642980	-0.014256	NaN	0.000000	0.001617	0.001665	28.1278	0.096955	0.002046	47.395	22.6807	-168.157	-0.060029	0.641225	-0.468815	-0.470100	-0.014256	47.395	-0.468589	-1.24629e+06	1.143875E-8	NaN
62	1.000000	0.650525	7.36565e+06	-41739.1	955.818	-29785.8	0.000000	0.000000	6.650997	0.023864	NaN	0.000000	0.001612	0.001664	28.1281	0.057350	0.001936	29.6182	-176.916	-164.635	0.017610	0.649224	-0.460800	-0.462101	0.023864	29.6182	-0.461404	-987988	-2.415421E-8	NaN
62	1.000000	0.658519	7.36565e+06	-41739.1	955.818	-29785.8	0.000000	0.000000	6.658992	0.045123	NaN	0.000000	0.001571	0.001703	28.1287	0.115537	0.001941	59.5265	36.2625	-165.201	-0.003139	0.657184	-0.452806	-0.454141	0.045123	59.5265	-0.453374	-761809	-5.923184E-8	NaN
62	1.000000	0.666558	7.36565e+06	-41739.1	955.819	-29785.8	0.000000	0.000000	6.667029	-0.001170	NaN	0.000000	0.001609	0.001721	28.1287	0.067829	0.002056	32.9887	138.179	-168.262	0.138931	0.665262	-0.444767	-0.446063	-0.001170	32.9887	-0.444740	-575746	2.032614E-9	NaN
62	1.000000	0.674543	7.36565e+06	-41739.1	955.818	-29785.8	0.000000	0.000000	6.675014	0.010215	NaN	0.000000	0.001624	0.001682	28.1287	0.074083	0.002049	36.1506	-166.531	-165.218	0.072920	0.673259	-0.436782	-0.438066	0.010215	36.1506	-0.436994	-447635	-2.281892E-8	NaN
62	1.000000	0.682542	7.36565e+06	-41739.1	955.819	-29785.8	0.000000	0.000000	6.683014	0.028341	NaN	0.000000	0.001652	0.001705	28.1288	0.073855	0.001881	39.2693	-87.3366	-167.691	0.012356	0.681279	-0.428783	-0.430046	0.028341	39.2693	-0.429324	-348738	-8.126648E-8	NaN
62	1.000000	0.690549	7.36565e+06	-41739.1	955.818	-29785.8	0.000000	0.000000	6.691018	-0.030062	NaN	0.000000	0.001623	0.001737	28.1287	0.085107	0.001901	44.7711	-112.99	-162.14	-0.037659	0.689247	-0.420776	-0.422078	-0.030062	44.7711	-0.420273	-259585	1.158087E-7	NaN
62	1.000000	0.698557	7.36565e+06	-41739.1	955.819	-29785.8	0.000000	0.000000	6.699028	0.000804	NaN	0.000000	0.001624	0.001710	28.1277	0.073530	0.002019	36.4214	-101.1	-165.842	0.043609	0.697200	-0.412768	-0.414125	0.000804	36.4214	-0.412785	-203228	-3.957221E-9	NaN
62	1.000000	0.706579	7.36565e+06	-41739.1	955.819	-29785.8	0.000000	0.000000	6.707051	0.042498	NaN	0.000000	0.001618	0.001702	28.1279	0.038783	0.002121	18.2809	148.128	-162.046	0.093503	0.705279	-0.404746	-0.406046	0.042498	18.2809	-0.406490	-165370	-2.569902E-7	NaN
62	1.000000	0.714525	7.36565e+06	-41739.1	955.818	-29785.8	0.000000	0.000000	6.714999	0.073780	NaN	0.000000	0.001651	0.001698	28.1279	0.006600	0.002158	3.058347	140.123	-161.385	0.075869	0.713268	-0.396800	-0.398057	0.073780	3.058347	-0.414893	-217737	-3.388491E-7	NaN
62	1.000000	0.722548	7.36565e+06	-41739.1	955.818	-29785.8	0.000000	0.000000	6.723018	-0.031772	NaN	0.000000	0.001651	0.001697	28.1277	0.062496	0.002001	31.2295	-97.2691	-166.555	0.017294	0.721245	-0.388777	-0.390080	-0.031772	31.2295	-0.388014	-90104.3	3.526168E-7	NaN
62	1.000000	0.730576	7.36565e+06	-41739.1	955.819	-29785.8	0.000000	0.000000	6.731050	0.061359	NaN	0.000000	0.001633	0.001709	28.1273	0.068802	0.001961	35.0892	100.655	-164.352	-0.048223	0.729282	-0.380748	-0.382042	0.061359	35.0892	-0.382060	-74035.9	-8.287778E-7	NaN
62	1.000000	0.738537	7.36565e+06	-41739.1	955.819	-29785.8	0.000000	0.000000	6.739012	0.095864	NaN	0.000000	0.001624	0.001696	28.1273	0.158147	0.001993	79.3541	-102.17	-163.911	0.043107	0.737249	-0.372788	-0.374076	0.095864	79.3541	-0.373694	-56142.2	-1.707515E-6	NaN
62	1.000000	0.746574	7.36565e+06	-41739.1	955.819	-29785.8	0.000000	0.000000	6.747046	0.035776	NaN	0.000000	0.001616	0.001689	28.1274	0.058622	0.002034	28.8239	60.4539	-163.541	0.111698	0.745228	-0.364751	-0.366097	0.035776	28.8239	-0.365682	-43042.1	-8.311901E-7	NaN
62	1.000000	0.754588	7.36565e+06	-41739.1	955.818	-29785.8	0.000000	0.000000	6.755063	0.106684	NaN	0.000000	0.001629	0.001697	28.1279	0.065923	0.001930	34.1582	131.959	-164.767	0.044573	0.753244	-0.356737	-0.358081	0.106684	34.1582	-0.359080	-34557.3	-3.087169E-6	NaN
62	1.000000	0.762584	7.36565e+06	-41739.1	955.819	-29785.8	0.000000	0.000000	6.763059	0.102607	NaN	0.000000	0.001585	0.001703	28.1274	0.061246	0.002027	30.2097	-80.1913	-164.425	0.135075	0.761202	-0.348741	-0.350123	0.102607	30.2097	-0.351288	-26649.9	-3.850195E-6	NaN
62	1.000000	0.770587	7.36565e+06	-41739.1	955.818	-29785.8	0.000000	0.000000	6.771059	0.019461	NaN	0.000000	0.001587	0.001674	28.1272	0.077417	0.001947	39.77	22.1838	-167.38	0.081739	0.769305	-0.340738	-0.342020	0.019461	39.77	-0.341105	-18951.9	-1.026885E-6	NaN
62	1.000000	0.778593	7.36565e+06	-41739.1	955.818	-29785.8	0.000000	0.000000	6.779065	0.035868	NaN	0.000000	0.001648	0.001700	28.1264	0.051961	0.002202	23.5974	-3.731220	-166.729	0.016587	0.777227	-0.332732	-0.334098	0.035868	23.5974	-0.333872	-14862.9	-2.413263E-6	NaN
62	1.000000	0.786601	7.36565e+06	-41739.1	955.817	-29785.8	0.000000	0.000000	6.787072	0.000719	NaN	0.000000	0.001648	0.001730	28.1259	0.030998	0.001925	16.1044	169.106	-164.836	0.096916	0.785257	-0.324724	-0.326068	0.000719	16.1044	-0.324758	-10929	-6.576134E-8	NaN
62	1.000000	0.794574	7.36565e+06	-41739.1	955.818	-29785.8	0.000000	0.000000	6.795047	0.041533	NaN	0.000000	0.001616	0.001701	28.1264	0.061370	0.001956	31.3688	-134.889	-166.19	0.075383	0.793289	-0.316751	-0.318036	0.041533	31.3688	-0.317744	-8618.01	-4.819380E-6	NaN
62	1.000000	0.802620	7.36565e+06	-41739.1	955.819	-29785.8	0.000000	0.000000	6.803092	0.029769	NaN	0.000000	0.001624	0.001718	28.1259	0.075553	0.001991	37.9482	22.8423	-164.835	0.061407	0.801281	-0.308705	-0.310044	0.029769	37.9482	-0.309293	-6465.34	-4.604382E-6	NaN
62	1.000000	0.810601	7.36565e+06	-41739.1	955.818	-29785.8	0.000000	0.000000	6.811072	0.021961	NaN	0.000000	0.001627	0.001705	28.1267	0.058550	0.002050	28.5673	156.715	-165.047	0.083695	0.809269	-0.300724	-0.302056	0.021961	28.5673	-0.301301	-4920.34	-4.463253E-6	NaN
62	1.000000	0.818629	7.36565e+06	-41739.1	955.818	-29785.8	0.000000	0.000000	6.819098	-0.046175	NaN	0.000000	0.001616	0.001711	28.1269	0.126086	0.001935	65.1631	137.865	-167.667	-0.061992	0.817346	-0.292696	-0.293979	-0.046175	65.1631	-0.292165	-3595.08	1.284403E-5	NaN
62	1.000000	0.826627	7.36565e+06	-41739.1	955.818	-29785.8	0.000000	0.000000	6.827098	0.009384	NaN	0.000000	0.001637	0.001674	28.1268	0.031681	0.001898	16.6944	-114.162	-163.376	0.098546	0.825295	-0.284698	-0.286030	0.009384	16.6944	-0.285120	-2818.82	-3.328894E-6	NaN
62	1.000000	0.834579	7.36565e+06	-41739.1	955.818	-29785.8	0.000000	0.000000	6.835054	0.109192	NaN	0.000000	0.001622	0.001684	28.1274	0.031797	0.002004	15.8691	30.6675	-166.014	0.201199	0.833316	-0.276746	-0.278009	0.109192	15.8691	-0.281907	-2521.85	-4.329824E-5	NaN
62	1.000000	0.842614	7.36565e+06	-41739.1	955.819	-29785.8	0.000000	0.000000	6.843086	0.023532	NaN	0.000000	0.001664	0.001655	28.1269	0.133758	0.002224	60.1323	-17.2521	-164.534	0.068944	0.841289	-0.268711	-0.270036	0.023532	60.1323	-0.269004	-1608.44	-1.463021E-5	NaN
62	1.000000	0.850610	7.36565e+06	-41739.1	955.819	-29785.8	0.000000	0.000000	6.851085	0.100791	NaN	0.000000	0.001662	0.001648	28.1271	0.047123	0.001899	24.8114	150.173	-166.056	0.093382	0.849354	-0.260715	-0.261971	0.100791	24.8114	-0.263761	-1338.05	-7.532672E-5	NaN
62	1.000000	0.858616	7.36565e+06	-41739.1	955.819	-29785.8	0.000000	0.000000	6.859086	-0.020287	NaN	0.000000	0.001613	0.001679	28.126	0.090445	0.002128	42.5019	-80.4018	-166.075	0.099638	0.857342	-0.252709	-0.253983	-0.020287	42.5019	-0.252351	-893.887	2.269497E-5	NaN
62	1.000000	0.866616	7.36565e+06	-41739.1	955.819	-29785.8	0.000000	0.000000	6.867090	0.069481	NaN	0.000000	0.001597	0.001684	28.1271	0.079999	0.002039	39.2401	72.5567	-163.182	0.007922	0.865376	-0.244709	-0.245949	0.069481	39.2401	-0.246037	-713.769	-9.734379E-5	NaN
62	1.000000	0.874630	7.36565e+06	-41739.1	955.818	-29785.8	0.000000	0.000000	6.875102	0.035251	NaN	0.000000	0.001584	0.001669	28.1271	0.024474	0.001920	12.7491	118.048	-167.647	0.122275	0.873263	-0.236695	-0.238062	0.035251	12.7491	-0.238769	-549.928	-6.410096E-5	NaN
62	1.000000	0.882624	7.36565e+06	-41739.1	955.818	-29785.8	0.000000	0.000000	6.883095	0.013768	NaN	0.000000	0.001609	0.001684	28.1266	0.075991	0.001990	38.19	-60.105	-171.403	-0.027900	0.881303	-0.228701	-0.230022	0.013768	38.19	-0.228971	-385.715	-3.569365E-5	NaN
62	1.000000	0.890652	7.36565e+06	-41739.1	955.818	-29785.8	0.000000	0.000000	6.891121	-0.044388	NaN	0.000000	0.001637	0.001673	28.1276	0.025114	0.002048	12.2603	12.4465	-164.877	0.113832	0.889264	-0.220673	-0.222061	-0.044388	12.2603	-0.217958	-257.629	0.000172	NaN
62	1.000000	0.898653	7.36565e+06	-41739.1	955.818	-29785.8	0.000000	0.000000	6.899122	-0.044433	NaN	0.000000	0.001601	0.001691	28.1282	0.075208	0.001996	37.6782	100.323	-165.33	-0.001073	0.897335	-0.212672	-0.213990	-0.044433	37.6782	-0.211787	-204.987	0.000217	NaN
62	1.000000	0.906636	7.36565e+06	-41739.1	955.819	-29785.8	0.000000	0.000000	6.907109	0.072259	NaN	0.000000	0.001626	0.001688	28.1281	0.049557	0.002090	23.7138	105.805	-168.553	0.066841	0.905313	-0.204689	-0.206012	0.072259	23.7138	-0.206975	-171.286	-0.000422	NaN
62	1.000000	0.914671	7.36565e+06	-41739.1	955.819	-29785.8	0.000000	0.000000	6.915143	0.029791	NaN	0.000000	0.001629	0.001672	28.1279	0.032095	0.001959	16.3834	0.732200	-165.034	0.037382	0.913375	-0.196654	-0.197950	0.029791	16.3834	-0.198018	-122.2	-0.000244	NaN
62	1.000000	0.922643	7.36565e+06	-41739.1	955.818	-29785.8	0.000000	0.000000	6.923115	0.018999	NaN	0.000000	0.001655	0.001693	28.128	0.101029	0.002047	49.3452	176.403	-168.996	0.115465	0.921369	-0.188682	-0.189956	0.018999	49.3452	-0.188971	-86.4607	-0.000220	NaN
62	1.000000	0.930674	7.36565e+06	-41739.1	955.82	-29785.8	0.000000	0.000000	6.931145	0.018412	NaN	0.000000	0.001649	0.001690	28.1275	0.111753	0.001901	58.788	-178.892	-165.726	-0.021233	0.929297	-0.180651	-0.182028	0.018412	58.788	-0.180886	-63.1726	-0.000291	NaN
62	1.000000	0.938656	7.36565e+06	-41739.1	955.819	-29785.8	0.000000	0.000000	6.939131	0.097811	NaN	0.000000	0.001628	0.001686	28.1274	0.111314	0.001828	60.8958	34.6534	-163.096	0.061726	0.937324	-0.172669	-0.174001	0.097811	60.8958	-0.173873	-47.9291	-0.002041	NaN
62	1.000000	0.946661	7.36565e+06	-41739.1	955.819	-29785.8	0.000000	0.000000	6.947132	0.005948	NaN	0.000000	0.001637	0.001671	28.1275	0.070744	0.002014	35.1208	17.7939	-166.132	0.056573	0.945379	-0.164664	-0.165946	0.005948	35.1208	-0.164791	-33.3144	-0.000179	NaN
62	1.000000	0.954671	7.36565e+06	-41739.1	955.818	-29785.8	0.000000	0.000000	6.955145	0.070230	NaN	0.000000	0.001657	0.001674	28.1269	0.013847	0.001991	6.955157	119.709	-166.493	0.010396	0.953385	-0.156654	-0.157940	0.070230	6.955157	-0.164227	-32.5622	-0.002157	NaN
62	1.000000	0.962674	7.36565e+06	-41739.1	955.818	-29785.8	0.000000	0.000000	6.963143	-0.039911	NaN	0.000000	0.001642	0.001693	28.1265	0.098873	0.001872	52.8158	39.0619	-167.98	0.039742	0.961389	-0.148651	-0.149936	-0.039911	52.8158	-0.148085	-16.71	0.002388	NaN
62	1.000000	0.970652	7.36565e+06	-41739.1	955.818	-29785.8	0.000000	0.000000	6.971124	0.021624	NaN	0.000000	0.001645	0.001627	28.1271	0.136098	0.002022	67.3203	29.9893	-166.527	0.045623	0.969343	-0.140673	-0.141982	0.021624	67.3203	-0.140914	-12.3058	-0.001757	NaN
62	1.000000	0.978695	7.36565e+06	-41739.1	955.819	-29785.8	0.000000	0.000000	6.979170	0.111193	NaN	0.000000	0.001626	0.001678	28.1284	0.096427	0.001788	53.9274	50.3912	-166.934	0.068273	0.977360	-0.132630	-0.133965	0.111193	53.9274	-0.134177	-9.173866	-0.012121	NaN
62	1.000000	0.986691	7.36565e+06	-41739.1	955.819	-29785.8	0.000000	0.000000	6.987160	-0.051569	NaN	0.000000	0.001619	0.001660	28.1277	0.026871	0.001998	13.4502	-175.498	-164.989	-0.079643	0.985398	-0.124634	-0.125927	-0.051569	13.4502	-0.121758	-5.241278	0.009839	NaN
62	1.000000	0.994669	7.36565e+06	-41739.1	955.818	-29785.8	0.000000	0.000000	6.995141	0.034252	NaN	0.000000	0.001620	0.001654	28.1278	0.082275	0.002026	40.6132	26.7721	-166.777	-0.041356	0.993360	-0.116656	-0.117965	0.034252	40.6132	-0.117289	-4.256461	-0.008047	NaN
62	1.000000	1.002689	7.36565e+06	-41739.1	955.82	-29785.8	0.000000	0.000000	7.003161	0.047827	NaN	0.000000	0.001603	0.001653	28.1264	0.058407	0.002119	27.5645	4.676217	-166.845	0.026133	1.001373	-0.108636	-0.109952	0.047827	27.5645	-0.109938	-2.996116	-0.015963	NaN
62	1.000000	1.010688	7.36565e+06	-41739.1	955.82	-29785.8	0.000000	0.000000	7.011162	0.069238	NaN	0.000000	0.001661	0.001642	28.1257	0.046720	0.002059	22.6898	43.8086	-165.801	0.041058	1.009361	-0.100636	-0.101964	0.069238	22.6898	-0.102925	-2.118934	-0.032676	NaN
62	1.000000	1.018675	7.36565e+06	-41739.1	955.82	-29785.8	0.000000	0.000000	7.019147	0.045324	NaN	0.000000	0.001634	0.001628	28.1255	0.043843	0.002050	21.3826	79.4681	-166.504	0.128478	1.017351	-0.092650	-0.093974	0.045324	21.3826	-0.094240	-1.355375	-0.033440	NaN
62	1.000000	1.026667	7.36565e+06	-41739.1	955.82	-29785.8	0.000000	0.000000	7.027140	0.045416	NaN	0.000000	0.001597	0.001676	28.1256	0.006582	0.002010	3.275062	-132.282	-166.184	0.051972	1.025411	-0.084657	-0.085914	0.045416	3.275062	-0.095058	-1.414926	-0.032098	NaN
62	1.000000	1.034673	7.36565e+06	-41739.1	955.819	-29785.8	0.000000	0.000000	7.035143	-0.027457	NaN	0.000000	0.001622	0.001667	28.1257	0.101595	0.002052	49.5153	4.593943	-167.811	-0.025500	1.033387	-0.076652	-0.077938	-0.027457	49.5153	-0.076236	-0.497006	0.055245	NaN
62	1.000000	1.042702	7.36565e+06	-41739.1	955.819	-29785.8	0.000000	0.000000	7.043229	1.356450	NaN	0.000000	0.001643	0.001666	28.1257	1.180889	0.001907	619.241	11.6462	-168.267	0.959872	1.041361	-0.068623	-0.069964	1.356450	619.241	-0.070266	-0.346742	-3.911992	NaN
62	1.000000	1.050696	7.36565e+06	-41739.1	955.821	-29785.8	0.000000	0.000000	7.051337	4.138911	NaN	0.000000	0.001641	0.001661	28.1253	1.814095	0.001869	970.824	9.270864	-166.872	3.667501	1.049334	-0.060629	-0.061991	4.138911	970.824	-0.063826	-0.231145	-17.9061	NaN
62	1.000000	1.058693	7.36565e+06	-41739.1	955.819	-29785.8	0.000000	0.000000	7.059402	5.781027	NaN	0.000000	0.001617	0.001699	28.1261	1.992010	0.002051	971.333	17.1335	-167.565	5.847984	1.057388	-0.052632	-0.053937	5.781027	971.333	-0.057095	-0.148393	-38.9577	NaN
62	1.000000	1.066704	7.36565e+06	-41739.1	955.821	-29785.8	0.000000	0.000000	7.067395	5.351825	NaN	0.000000	0.001652	0.001688	28.1258	1.845372	0.001947	947.992	11.0281	-166.099	5.396303	1.065390	-0.044621	-0.045935	5.351825	947.992	-0.048855	-0.084246	-63.5263	NaN
62	1.000000	1.074691	7.36565e+06	-41739.1	955.821	-29785.8	0.000000	0.000000	7.075390	5.545699	NaN	0.000000	0.001622	0.001665	28.126	3.003947	0.001977	1519.12	12.9244	-168.649	5.024508	1.073404	-0.036634	-0.037921	5.545699	1519.12	-0.039372	-0.043281	-128.133	NaN
62	2.000000	1.079366	7.36565e+06	-41739.1	955.82	-29785.8	0.000000	0.000000	7.080205	8.965754	NaN	0.000000	0.001616	0.001651	28.1261	7.508045	0.001690	4442.97	7.143232	-169.61	9.090247	1.079037	-0.031959	-0.032288	8.965754	4442.97	-0.033472	-0.028894	-310.299	NaN
62	2.000000	1.081340	7.36565e+06	-41739.1	955.82	-29785.8	0.000000	0.000000	7.082297	11.8264	NaN	0.000000	0.001579	0.001646	28.1252	8.643995	0.001644	5257.99	4.409268	-167.718	12.1232	1.080999	-0.029985	-0.030326	11.8264	5257.99	-0.031672	-0.025647	-461.112	NaN
62	2.000000	1.083282	7.36565e+06	-41739.1	955.821	-29785.8	0.000000	0.000000	7.084316	13.6956	NaN	0.000000	0.001580	0.001615	28.1256	11.8801	0.001672	7104	10.2418	179.411	13.2504	1.083026	-0.028043	-0.028299	13.6956	7104	-0.029489	-0.022273	-614.904	NaN
62	2.000000	1.085329	7.36565e+06	-41739.1	955.82	-29785.8	0.000000	0.000000	7.086514	17.3779	NaN	0.000000	0.001652	0.001692	28.125	14.3869	0.001723	8350.8	7.460155	-174.511	16.6946	1.085025	-0.025996	-0.026300	17.3779	8350.8	-0.027557	-0.019723	-881.112	NaN
62	2.000000	1.087281	7.36565e+06	-41739.1	955.821	-29785.8	0.000000	0.000000	7.088654	21.9669	NaN	0.000000	0.001621	0.001697	28.1247	16.3131	0.001716	9505.38	5.776640	-174.387	21.1224	1.086928	-0.024044	-0.024397	21.9669	9505.38	-0.025778	-0.017682	-1242.34	NaN
62	2.000000	1.089305	7.36565e+06	-41739.1	955.821	-29785.8	0.000000	0.000000	7.090849	26.101	NaN	0.000000	0.001667	0.001661	28.1249	19.2783	0.001855	10391.6	5.809873	-175.006	26.4285	1.088939	-0.022019	-0.022386	26.101	10391.6	-0.023903	-0.015799	-1652.02	NaN
62	2.000000	1.091201	7.36565e+06	-41739.1	955.82	-29785.8	0.000000	0.000000	7.092931	30.6517	NaN	0.000000	0.001637	0.001679	28.1251	21.3256	0.001737	12278.7	7.007076	179.766	27.7971	1.090946	-0.020124	-0.020379	30.6517	12278.7	-0.021997	-0.014118	-2171.07	NaN
62	2.000000	1.093268	7.36565e+06	-41739.1	955.819	-29785.8	0.000000	0.000000	7.095247	36.6888	NaN	0.000000	0.001598	0.001654	28.1278	23.0679	0.001653	13958.9	10.0489	176.344	37.4358	1.092937	-0.018057	-0.018388	36.6888	13958.9	-0.020028	-0.012582	-2916.03	NaN
62	2.000000	1.095351	7.36565e+06	-41739.1	955.82	-29785.8	0.000000	0.000000	7.097531	41.5781	NaN	0.000000	0.001610	0.001696	28.1275	25.0908	0.001925	13031.8	11.0409	179.046	44.5295	1.094927	-0.015974	-0.016398	41.5781	13031.8	-0.018367	-0.011409	-3644.36	NaN
62	2.000000	1.097260	7.36565e+06	-41739.1	955.82	-29785.8	0.000000	0.000000	7.099629	46.1966	NaN	0.000000	0.001636	0.001642	28.127	26.9383	0.001721	15653.9	5.210646	-178.752	45.44	1.096930	-0.014065	-0.014395	46.1966	15653.9	-0.016278	-0.010055	-4594.18	NaN
62	2.000000	1.099220	7.36565e+06	-41739.1	955.82	-29785.8	0.000000	0.000000	7.101802	51.3636	NaN	0.000000	0.001603	0.001676	28.1269	30.0538	0.001913	15706.5	3.418205	-177.618	50.2515	1.098919	-0.012105	-0.012406	51.3636	15706.5	-0.014558	-0.009012	-5699.5	NaN
62	2.000000	1.101277	7.36565e+06	-41739.1	955.821	-29785.8	0.000000	0.000000	7.104175	59.0599	NaN	0.000000	0.001637	0.001661	28.1262	31.8949	0.001941	16433.8	8.456396	177.836	59.6417	1.100964	-0.010048	-0.010361	59.0599	16433.8	-0.012744	-0.007955	-7424.49	NaN
62	2.000000	1.103301	7.36565e+06	-41739.1	955.82	-29785.8	0.000000	0.000000	7.106411	64.2062	NaN	0.000000	0.001615	0.001673	28.1261	33.3806	0.001761	18956.6	6.560539	177.351	67.3485	1.102956	-0.008024	-0.008369	64.2062	18956.6	-0.010564	-0.006709	-9569.58	NaN
62	2.000000	1.105265	7.36565e+06	-41739.1	955.821	-29785.8	0.000000	0.000000	7.108778	74.0101	NaN	0.000000	0.001600	0.001694	28.1261	34.9063	0.001818	19205.6	6.076172	178.367	73.4727	1.104912	-0.006060	-0.006413	74.0101	19205.6	-0.008950	-0.005784	-12795.7	NaN
62	2.000000	1.107205	7.36565e+06	-41739.1	955.82	-29785.8	0.000000	0.000000	7.110889	78.1951	NaN	0.000000	0.001589	0.001700	28.1261	36.2392	0.001792	20226.3	7.292875	176.014	77.0358	1.106872	-0.004120	-0.004453	78.1951	20226.3	-0.007020	-0.004652	-16808.2	NaN
62	2.000000	1.109200	7.36565e+06	-41739.1	955.821	-29785.8	0.000000	0.000000	7.113136	84.3048	NaN	0.000000	0.001611	0.001694	28.1259	38.247	0.001780	21492.7	4.465754	177.866	82.5295	1.108927	-0.002125	-0.002398	84.3048	21492.7	-0.005067	-0.003459	-24375.9	NaN
62	2.000000	1.111235	7.36565e+06	-41739.1	955.821	-29785.8	0.000000	0.000000	7.115624	95.3376	NaN	0.000000	0.001635	0.001709	28.1265	38.9247	0.001758	22143.7	4.614473	178.239	93.8113	1.110815	-9.009617E-5	-0.000510	95.3376	22143.7	-0.003319	-0.002333	-40864.8	NaN
62	2.000000	1.113250	7.36565e+06	-41739.1	955.821	-29785.8	0.000000	0.000000	7.117801	99.2902	NaN	0.000000	0.001659	0.001689	28.1267	41.5478	0.001805	23015.7	4.674812	177.676	100.56	1.112911	0.001925	0.001586	99.2902	23015.7	-0.001311	-0.000955	-103937	NaN
62	2.000000	1.115213	7.36565e+06	-41739.1	955.821	-29785.8	0.000000	0.000000	7.120254	111.195	NaN	0.000000	0.001650	0.001698	28.1268	43.7575	0.001818	24069.1	6.113820	176.938	111.719	1.114840	0.003888	0.003515	111.195	24069.1	0.000423	0.000319	348506	1.23111e+06
62	2.000000	1.117228	7.36565e+06	-41739.1	955.82	-29785.8	0.000000	0.000000	7.122468	116.043	NaN	0.000000	0.001579	0.001699	28.1269	45.4865	0.001801	25258.3	6.393248	175.466	115.422	1.116868	0.005903	0.005543	116.043	25258.3	0.002457	0.001928	60195.5	525594
62	2.000000	1.119217	7.36565e+06	-41739.1	955.821	-29785.8	0.000000	0.000000	7.124831	125.158	NaN	0.000000	0.001604	0.001716	28.1274	47.9232	0.001718	27888.5	6.336812	174.885	124.905	1.118885	0.007892	0.007560	125.158	27888.5	0.004526	0.003705	33780.2	418602
62	2.000000	1.121198	7.36565e+06	-41739.1	955.82	-29785.8	0.000000	0.000000	7.127206	134.72	NaN	0.000000	0.001637	0.001698	28.1263	49.2558	0.001880	26204.9	8.272021	174.005	133.32	1.120824	0.009873	0.009499	134.72	26204.9	0.006017	0.005081	26514.7	335880
62	2.000000	1.123195	7.36565e+06	-41739.1	955.82	-29785.8	0.000000	0.000000	7.129691	146.622	NaN	0.000000	0.001638	0.001718	28.1256	51.0378	0.001763	28948.5	6.833607	173.03	145.066	1.122888	0.011870	0.011563	146.622	28948.5	0.008071	0.007116	20605.6	313540
62	2.000000	1.125153	7.36565e+06	-41739.1	955.821	-29785.8	0.000000	0.000000	7.132107	157.765	NaN	0.000000	0.001647	0.001733	28.1258	53.5607	0.001776	30150.5	6.482817	174.138	155.043	1.124908	0.013828	0.013583	157.765	30150.5	0.009903	0.009074	17385.8	289174
62	2.000000	1.127213	7.36565e+06	-41739.1	955.82	-29785.8	0.000000	0.000000	7.134776	172.556	NaN	0.000000	0.001599	0.001712	28.1246	54.8333	0.001824	30058	4.056251	176.507	171.869	1.126807	0.015888	0.015482	172.556	30058	0.011583	0.010994	15695.3	261910
62	2.000000	1.129138	7.36565e+06	-41739.1	955.821	-29785.8	0.000000	0.000000	7.137043	180.887	NaN	0.000000	0.001585	0.001720	28.125	58.5478	0.001895	30891.8	6.394835	173.292	176.934	1.128962	0.017813	0.017638	180.887	30891.8	0.013421	0.013238	13664.7	245308
62	2.000000	1.131140	7.36565e+06	-41739.1	955.821	-29785.8	0.000000	0.000000	7.139683	196.42	NaN	0.000000	0.001607	0.001694	28.125	58.8486	0.001795	32783.9	3.643886	175.997	194.845	1.130825	0.019815	0.019501	196.42	32783.9	0.015321	0.015716	12498.2	238926
62	2.000000	1.133146	7.36565e+06	-41739.1	955.82	-29785.8	0.000000	0.000000	7.142147	207.54	NaN	0.000000	0.001616	0.001721	28.126	61.2918	0.001734	35341.4	1.375367	177.054	203.819	1.132925	0.021821	0.021600	207.54	35341.4	0.017417	0.018645	11131.2	236471
62	2.000000	1.135150	7.36565e+06	-41739.1	955.821	-29785.8	0.000000	0.000000	7.144929	226.493	NaN	0.000000	0.001623	0.001677	28.1257	63.9497	0.001852	34529	4.927616	174.073	223.44	1.134855	0.023825	0.023530	226.493	34529	0.018905	0.020851	10862.2	218468
62	2.000000	1.137139	7.36565e+06	-41739.1	955.821	-29785.8	0.000000	0.000000	7.147459	239.649	NaN	0.000000	0.001636	0.001717	28.1253	65.2038	0.001769	36854.8	2.554137	175.752	235.92	1.136900	0.025814	0.025575	239.649	36854.8	0.020937	0.024036	9970.24	217186
62	2.000000	1.139142	7.36565e+06	-41739.1	955.821	-29785.8	0.000000	0.000000	7.149992	252.536	NaN	0.000000	0.001610	0.001671	28.1257	68.0019	0.001926	35316.1	2.595146	176.248	250.57	1.138952	0.027817	0.027627	252.536	35316.1	0.022454	0.026547	9512.84	198034
62	2.000000	1.141130	7.36565e+06	-41739.1	955.821	-29785.8	0.000000	0.000000	7.152717	270.474	NaN	0.000000	0.001645	0.001659	28.125	68.6857	0.001766	38884	7.274449	171.093	266.867	1.140799	0.029805	0.029475	270.474	38884	0.024588	0.030270	8935.3	204191
62	2.000000	1.143210	7.36565e+06	-41739.1	955.822	-29785.8	0.000000	0.000000	7.155285	282.339	NaN	0.000000	0.001633	0.001654	28.1245	70.1068	0.001684	41634.7	5.532745	172.021	283.282	1.142857	0.031885	0.031533	282.339	41634.7	0.026799	0.034370	8214.58	205180
62	2.000000	1.145211	7.36565e+06	-41739.1	955.822	-29785.8	0.000000	0.000000	7.158059	301.154	NaN	0.000000	0.001668	0.001676	28.1245	73.0442	0.001796	40667.1	5.536993	173.282	300.192	1.144797	0.033886	0.033472	301.154	40667.1	0.028332	0.037358	8061.39	192233
62	2.000000	1.147190	7.36565e+06	-41739.1	955.821	-29785.8	0.000000	0.000000	7.160589	314.57	NaN	0.000000	0.001667	0.001665	28.1243	75.1122	0.001718	43720.6	6.924271	170.086	316.051	1.146794	0.035865	0.035469	314.57	43720.6	0.030469	0.041721	7539.94	195562
62	2.000000	1.149153	7.36565e+06	-41739.1	955.821	-29785.8	0.000000	0.000000	7.163195	330.213	NaN	0.000000	0.001658	0.001666	28.1249	78.4777	0.001888	41558.6	6.950461	171.256	327.402	1.148805	0.037828	0.037480	330.213	41558.6	0.031869	0.044706	7386.34	179577
62	2.000000	1.151072	7.36565e+06	-41739.1	955.821	-29785.8	0.000000	0.000000	7.165781	346.442	NaN	0.000000	0.001645	0.001643	28.1248	78.635	0.001871	42036.6	4.967639	172.664	342.494	1.150817	0.039747	0.039492	346.442	42036.6	0.033566	0.048459	7149.14	174467
62	2.000000	1.153109	7.36565e+06	-41739.1	955.821	-29785.8	0.000000	0.000000	7.168494	362.886	NaN	0.000000	0.001653	0.001664	28.1257	81.3565	0.001833	44381.1	7.523540	169.388	358.359	1.152816	0.041784	0.041491	362.886	44381.1	0.035652	0.053275	6811.58	175675
62	2.000000	1.155208	7.36565e+06	-41739.1	955.822	-29785.8	0.000000	0.000000	7.171311	380.362	NaN	0.000000	0.001675	0.001644	28.1253	82.9924	0.001865	44492.1	5.863714	171.658	383.021	1.154860	0.043883	0.043535	380.362	44492.1	0.037471	0.057657	6596.95	169289
62	2.000000	1.157133	7.36565e+06	-41739.1	955.821	-29785.8	0.000000	0.000000	7.174046	400.071	NaN	0.000000	0.001680	0.001696	28.1257	83.3534	0.001687	49417.4	3.379139	173.12	396.883	1.156810	0.045808	0.045485	400.071	49417.4	0.039736	0.063348	6315.44	179385
62	2.000000	1.159130	7.36565e+06	-41739.1	955.821	-29785.8	0.000000	0.000000	7.176694	415.901	NaN	0.000000	0.001665	0.001651	28.1252	86.2248	0.001730	49854.6	3.619708	172.371	413.693	1.158838	0.047805	0.047513	415.901	49854.6	0.041548	0.068091	6108.02	174556
62	2.000000	1.161159	7.36565e+06	-41739.1	955.821	-29785.8	0.000000	0.000000	7.179433	433.188	NaN	0.000000	0.001634	0.001609	28.126	86.5319	0.001705	50749.2	3.315815	173.274	430.706	1.160785	0.049834	0.049460	433.188	50749.2	0.043432	0.073199	5917.92	171375
62	2.000000	1.163072	7.36565e+06	-41739.1	955.822	-29785.8	0.000000	0.000000	7.181988	448.819	NaN	0.000000	0.001630	0.001643	28.1254	90.9807	0.001905	47768.3	3.701835	172.907	443.548	1.162773	0.051747	0.051448	448.819	47768.3	0.044700	0.076739	5848.67	157546
62	2.000000	1.165147	7.36565e+06	-41739.1	955.821	-29785.8	0.000000	0.000000	7.184844	467.808	NaN	0.000000	0.001643	0.001640	28.1252	92.8055	0.001781	52112.4	5.726932	170.064	464.2	1.164769	0.053822	0.053444	467.808	52112.4	0.047089	0.083629	5593.87	164641
62	2.000000	1.167135	7.36565e+06	-41739.1	955.821	-29785.8	0.000000	0.000000	7.187618	486.93	NaN	0.000000	0.001589	0.001651	28.1258	92.6031	0.001629	56858.9	2.515111	172.588	483.803	1.166795	0.055810	0.055470	486.93	56858.9	0.049387	0.090529	5378.7	172654
62	2.000000	1.169166	7.36565e+06	-41739.1	955.821	-29785.8	0.000000	0.000000	7.190140	498.87	NaN	0.000000	0.001641	0.001636	28.1254	97.8386	0.001854	52758.6	4.887954	170.64	500.063	1.168931	0.057842	0.057606	498.87	52758.6	0.050750	0.094745	5265.42	156599
62	2.000000	1.171245	7.36565e+06	-41739.1	955.821	-29785.8	0.000000	0.000000	7.192991	517.657	NaN	0.000000	0.001620	0.001630	28.1255	98.1059	0.001734	56572	5.600349	169.823	522.805	1.170906	0.059920	0.059581	517.657	56572	0.053058	0.102098	5070.2	161758
62	2.000000	1.173115	7.36565e+06	-41739.1	955.821	-29785.8	0.000000	0.000000	7.195910	543.186	NaN	0.000000	0.001647	0.001636	28.1262	100.104	0.001912	52343.6	5.981781	170.336	543.246	1.172814	0.061790	0.061489	543.186	52343.6	0.054007	0.105200	5163.35	147444
62	2.000000	1.175062	7.36565e+06	-41739.1	955.821	-29785.8	0.000000	0.000000	7.198963	570.085	NaN	0.000000	0.001617	0.001673	28.1261	100.164	0.001763	56818.7	2.577441	173.471	564.562	1.174717	0.063737	0.063392	570.085	56818.7	0.056212	0.112578	5063.91	154717
62	2.000000	1.176723	7.36565e+06	-41739.1	955.821	-29785.8	0.000000	0.000000	7.200602	569.569	NaN	0.000000	0.001630	0.001674	28.087	102.003	0.001796	56799.1	5.580380	-10.5115	571.914	1.176413	0.065398	0.065088	569.569	56799.1	0.057877	0.118306	4814.37	150873