File: remote_trans/data/nanoindenter/0828-1/data/Data_2025-08-06,11h17m57s/2025-07-22_16-23-58_1_1182.txt
2025-07-22, 16:23:58, 1
Index	Phase	Displacement	Time	Pos X	Pos Y	Pos Z	Rot A	Rot B	Piezo Z	Force A	Force B	Gripper	Voltage A	Voltage B	Temperature	Amplitude force	Amplitude pos	Stiffness	Phase shift	Phase excitation	Force A raw	Displacement raw	HMax	HMax raw	Real Force	Real Stiffness	Contact Depth	Area	Hardness	Reduced Mod.
[#]	[#]	[um]	[s]	[um]	[um]	[um]	[m°]	[m°]	[um]	[uN]	[uN]	[V]	[V]	[V]	[°C]	[uN]	[um]	[N/m]	[°]	[°]	[uN]	[um]	[um]	[um]	[uN]	[N/m]	[um]	[um^2]	[MPa]	[MPa]
1182	1.000000	0.002635	7.37661e+06	-56489.1	1105.82	-29738.6	0.000000	0.000000	6.002839	0.021893	NaN	0.000000	0.001568	0.001734	28.084	0.138305	0.000960	144.107	127.484	-165.096	0.014539	0.001308	-1.163331	-1.164658	0.021893	144.107	-1.163445	-3.556642E+15	-6.155520E-18	NaN
1182	1.000000	0.012655	7.37661e+06	-56489.1	1105.82	-29738.6	0.000000	0.000000	6.012857	-0.019367	NaN	0.000000	0.001601	0.001737	28.084	0.030900	0.001255	24.616	171.636	19.6544	-0.002943	0.011231	-1.153311	-1.154735	-0.019367	24.616	-1.152721	-2.554428E+15	7.581910E-18	NaN
1182	1.000000	0.022540	7.37661e+06	-56489.1	1105.82	-29738.6	0.000000	0.000000	6.022747	0.089680	NaN	0.000000	0.001573	0.001728	28.084	0.039862	0.001719	23.1948	-65.3268	-162.348	0.002823	0.021237	-1.143426	-1.144729	0.089680	23.1948	-1.146326	-2.096807E+15	-4.276962E-17	NaN
1182	1.000000	0.032564	7.37661e+06	-56489.1	1105.82	-29738.6	0.000000	0.000000	6.032765	-0.052463	NaN	0.000000	0.001604	0.001708	28.0836	0.094804	0.001924	49.2724	-174.085	14.2451	-0.026377	0.031166	-1.133402	-1.134799	-0.052463	49.2724	-1.132603	-1.372575E+15	3.822251E-17	NaN
1182	1.000000	0.042559	7.37661e+06	-56489.1	1105.82	-29738.6	0.000000	0.000000	6.042764	0.046223	NaN	0.000000	0.001610	0.001709	28.0828	0.016476	0.001995	8.259092	-135.543	-166.845	0.039679	0.041228	-1.123407	-1.124738	0.046223	8.259092	-1.127605	-1.176226E+15	-3.929734E-17	NaN
1182	1.000000	0.052559	7.37661e+06	-56489.1	1105.82	-29738.6	0.000000	0.000000	6.052763	0.018345	NaN	0.000000	0.001607	0.001722	28.0826	0.069176	0.002004	34.5174	-26.6031	12.5392	-0.052626	0.051216	-1.113407	-1.114749	0.018345	34.5174	-1.113806	-7.679955E+14	-2.388743E-17	NaN
1182	1.000000	0.062567	7.37661e+06	-56489.1	1105.82	-29738.6	0.000000	0.000000	6.062771	0.026896	NaN	0.000000	0.001572	0.001731	28.0828	0.067093	0.002039	32.9036	40.0384	-165.141	0.113502	0.061281	-1.103399	-1.104684	0.026896	32.9036	-1.104012	-5.674380E+14	-4.739854E-17	NaN
1182	1.000000	0.072539	7.37661e+06	-56489.1	1105.82	-29738.6	0.000000	0.000000	6.072741	-0.036046	NaN	0.000000	0.001596	0.001698	28.0828	0.081387	0.001922	42.3433	-42.3297	15.2878	0.031244	0.071225	-1.093427	-1.094741	-0.036046	42.3433	-1.092788	-4.010997E+14	8.986827E-17	NaN
1182	1.000000	0.082567	7.37661e+06	-56489.1	1105.82	-29738.6	0.000000	0.000000	6.082774	0.092699	NaN	0.000000	0.001609	0.001735	28.0828	0.053610	0.001988	26.9731	-19.9782	-165.448	-0.007872	0.081191	-1.083399	-1.084775	0.092699	26.9731	-1.085976	-3.249241E+14	-2.852945E-16	NaN
1182	1.000000	0.092553	7.37661e+06	-56489.1	1105.82	-29738.6	0.000000	0.000000	6.092754	-0.036657	NaN	0.000000	0.001594	0.001701	28.0826	0.074058	0.001837	40.3078	-75.1323	14.251	0.002859	0.091203	-1.073413	-1.074763	-0.036657	40.3078	-1.072731	-2.157153E+14	1.699335E-16	NaN
1182	1.000000	0.102551	7.37661e+06	-56489.1	1105.82	-29738.6	0.000000	0.000000	6.102756	0.050999	NaN	0.000000	0.001561	0.001712	28.0825	0.046067	0.002003	22.9995	-3.607010	-162.987	0.088151	0.101266	-1.063415	-1.064700	0.050999	22.9995	-1.065078	-1.702383E+14	-2.995719E-16	NaN
1182	1.000000	0.112548	7.37661e+06	-56489.1	1105.82	-29738.6	0.000000	0.000000	6.112754	0.072067	NaN	0.000000	0.001578	0.001725	28.0828	0.105846	0.002044	51.7956	-67.7753	13.3675	0.048973	0.111250	-1.053418	-1.054716	0.072067	51.7956	-1.054461	-1.225690E+14	-5.879692E-16	NaN
1182	1.000000	0.122568	7.37661e+06	-56489.1	1105.82	-29738.6	0.000000	0.000000	6.122772	0.016219	NaN	0.000000	0.001600	0.001753	28.0826	0.088224	0.002076	42.4968	90.3374	-163.8	-0.088918	0.121263	-1.043398	-1.044703	0.016219	42.4968	-1.043684	-8.780199E+13	-1.847254E-16	NaN
1182	1.000000	0.132534	7.37661e+06	-56489.1	1105.82	-29738.6	0.000000	0.000000	6.132739	0.046272	NaN	0.000000	0.001597	0.001745	28.0829	0.046557	0.002066	22.5342	-167.205	15.7394	-0.002054	0.131199	-1.033431	-1.034767	0.046272	22.5342	-1.034971	-6.704181E+13	-6.902008E-16	NaN
1182	1.000000	0.142595	7.37661e+06	-56489.1	1105.82	-29738.6	0.000000	0.000000	6.142798	-0.002368	NaN	0.000000	0.001620	0.001751	28.0826	0.094420	0.002165	43.6137	14.3151	-167.63	-0.061358	0.141287	-1.023371	-1.024679	-0.002368	43.6137	-1.023330	-4.674716E+13	5.065576E-17	NaN
1182	1.000000	0.152580	7.37661e+06	-56489.1	1105.82	-29738.6	0.000000	0.000000	6.152782	-0.039730	NaN	0.000000	0.001632	0.001744	28.0829	0.069657	0.002061	33.7918	-92.3979	15.2851	-0.067737	0.151224	-1.013385	-1.014741	-0.039730	33.7918	-1.012504	-3.342552E+13	1.188617E-15	NaN
1182	1.000000	0.162569	7.37661e+06	-56489.1	1105.82	-29738.6	0.000000	0.000000	6.162774	0.038762	NaN	0.000000	0.001636	0.001725	28.0827	0.029217	0.001985	14.7209	-33.7085	-160.992	0.025146	0.161290	-1.003397	-1.004676	0.038762	14.7209	-1.005372	-2.679707E+13	-1.446496E-15	NaN
1182	1.000000	0.172588	7.37661e+06	-56489.1	1105.82	-29738.6	0.000000	0.000000	6.172789	-0.047537	NaN	0.000000	0.001592	0.001745	28.0842	0.030868	0.002029	15.2157	179.62	14.4231	-0.003811	0.171244	-0.993378	-0.994722	-0.047537	15.2157	-0.991035	-1.718115E+13	2.766784E-15	NaN
1182	1.000000	0.182629	7.37661e+06	-56489.1	1105.82	-29738.6	0.000000	0.000000	6.182831	-0.017784	NaN	0.000000	0.001593	0.001718	28.0838	0.082796	0.001946	42.5515	-133.112	-162.944	0.093149	0.181302	-0.983337	-0.984664	-0.017784	42.5515	-0.983024	-1.340123E+13	1.327024E-15	NaN
1182	1.000000	0.192613	7.37661e+06	-56489.1	1105.82	-29738.6	0.000000	0.000000	6.192813	-0.073326	NaN	0.000000	0.001589	0.001768	28.0839	0.045174	0.001943	23.2551	-109.985	18.9053	-0.066621	0.191266	-0.973353	-0.974700	-0.073326	23.2551	-0.970988	-9.225359E+12	7.948347E-15	NaN
1182	1.000000	0.202613	7.37661e+06	-56489.1	1105.82	-29738.6	0.000000	0.000000	6.202816	-0.015531	NaN	0.000000	0.001630	0.001732	28.0836	0.172232	0.001957	88.011	-97.2283	-164.917	0.084561	0.201307	-0.963353	-0.964659	-0.015531	88.011	-0.963220	-7.249054E+12	2.142548E-15	NaN
1182	1.000000	0.212623	7.37661e+06	-56489.1	1105.82	-29738.6	0.000000	0.000000	6.212824	-0.047845	NaN	0.000000	0.001659	0.001738	28.0841	0.035475	0.001872	18.9459	46.3726	14.6589	0.053842	0.211306	-0.953343	-0.954660	-0.047845	18.9459	-0.951449	-5.029988E+12	9.511879E-15	NaN
1182	1.000000	0.222638	7.37661e+06	-56489.1	1105.82	-29738.6	0.000000	0.000000	6.222842	0.010475	NaN	0.000000	0.001626	0.001696	28.0841	0.073545	0.002052	35.8402	114.741	-164.856	0.032168	0.221287	-0.943328	-0.944679	0.010475	35.8402	-0.943547	-3.935397E+12	-2.661720E-15	NaN
1182	1.000000	0.232634	7.37661e+06	-56489.1	1105.82	-29738.6	0.000000	0.000000	6.232835	-0.052947	NaN	0.000000	0.001625	0.001665	28.0837	0.068584	0.002024	33.891	-97.8707	14.0325	0.074978	0.231250	-0.933332	-0.934715	-0.052947	33.891	-0.932160	-2.762820E+12	1.916396E-14	NaN
1182	1.000000	0.242631	7.37661e+06	-56489.1	1105.82	-29738.6	0.000000	0.000000	6.242834	0.004881	NaN	0.000000	0.001645	0.001722	28.0837	0.029235	0.002187	13.3678	73.0531	-164.426	-0.011119	0.241326	-0.923335	-0.924640	0.004881	13.3678	-0.923609	-2.118012E+12	-2.304722E-15	NaN
1182	1.000000	0.252615	7.37661e+06	-56489.1	1105.82	-29738.6	0.000000	0.000000	6.252820	0.045395	NaN	0.000000	0.001615	0.001656	28.0839	0.128529	0.002061	62.3475	104.632	12.6048	0.050791	0.251297	-0.913351	-0.914669	0.045395	62.3475	-0.913897	-1.565998E+12	-2.898778E-14	NaN
1182	1.000000	0.262637	7.37661e+06	-56489.1	1105.82	-29738.6	0.000000	0.000000	6.262839	-0.015957	NaN	0.000000	0.001618	0.001678	28.0842	0.021714	0.002000	10.8561	-28.2036	-162.635	0.103482	0.261285	-0.903329	-0.904681	-0.015957	10.8561	-0.902227	-1.089318E+12	1.464829E-14	NaN
1182	1.000000	0.272649	7.37661e+06	-56489.1	1105.82	-29738.6	0.000000	0.000000	6.272854	0.064275	NaN	0.000000	0.001618	0.001668	28.084	0.035819	0.001942	18.4432	159.097	13.2505	0.000643	0.271287	-0.893317	-0.894679	0.064275	18.4432	-0.895931	-8.955282E+11	-7.177363E-14	NaN
1182	1.000000	0.282638	7.37661e+06	-56489.1	1105.82	-29738.6	0.000000	0.000000	6.282838	-0.079376	NaN	0.000000	0.001586	0.001681	28.0836	0.031666	0.002066	15.3298	49.93	-165.883	0.023403	0.281369	-0.883328	-0.884597	-0.079376	15.3298	-0.879444	-5.360337E+11	1.480800E-13	NaN
1182	1.000000	0.292639	7.37661e+06	-56489.1	1105.82	-29738.6	0.000000	0.000000	6.292843	0.022856	NaN	0.000000	0.001618	0.001712	28.0837	0.016537	0.001872	8.834778	79.4132	15.8679	-0.012678	0.291315	-0.873327	-0.874651	0.022856	8.834778	-0.875267	-4.706536E+11	-4.856187E-14	NaN
1182	1.000000	0.302658	7.37661e+06	-56489.1	1105.82	-29738.6	0.000000	0.000000	6.302865	0.073676	NaN	0.000000	0.001623	0.001676	28.0836	0.164302	0.002065	79.5683	68.0448	-162.389	-0.018560	0.301338	-0.863307	-0.864628	0.073676	79.5683	-0.864002	-3.313461E+11	-2.223546E-13	NaN
1182	1.000000	0.312669	7.37661e+06	-56489.1	1105.82	-29738.6	0.000000	0.000000	6.312872	-0.002489	NaN	0.000000	0.001569	0.001672	28.0823	0.138624	0.001849	74.9649	22.6132	13.7919	0.028048	0.311287	-0.853296	-0.854679	-0.002489	74.9649	-0.853272	-2.371571E+11	1.049721E-14	NaN
1182	1.000000	0.322651	7.37661e+06	-56489.1	1105.82	-29738.6	0.000000	0.000000	6.322856	0.045292	NaN	0.000000	0.001603	0.001676	28.0824	0.114908	0.001962	58.5795	42.0913	-165.722	0.072865	0.321362	-0.843315	-0.844604	0.045292	58.5795	-0.843895	-1.770330E+11	-2.558404E-13	NaN
1182	1.000000	0.332667	7.37661e+06	-56489.1	1105.82	-29738.6	0.000000	0.000000	6.332872	0.038240	NaN	0.000000	0.001577	0.001707	28.0827	0.078626	0.001999	39.34	-158.513	9.609365	-0.010635	0.331276	-0.833298	-0.834689	0.038240	39.34	-0.834028	-1.301273E+11	-2.938631E-13	NaN
1182	1.000000	0.342680	7.37661e+06	-56489.1	1105.82	-29738.6	0.000000	0.000000	6.342887	0.077341	NaN	0.000000	0.001564	0.001693	28.0825	0.111173	0.001885	58.9797	-113.879	-160.438	0.037874	0.341338	-0.823285	-0.824628	0.077341	58.9797	-0.824269	-9.596064E+10	-8.059618E-13	NaN
1182	1.000000	0.352672	7.37661e+06	-56489.1	1105.82	-29738.6	0.000000	0.000000	6.352876	0.019122	NaN	0.000000	0.001587	0.001665	28.0825	0.007498	0.002071	3.620648	-115.232	17.7006	0.051003	0.351293	-0.813294	-0.814672	0.019122	3.620648	-0.817255	-7.708748E+10	-2.480550E-13	NaN
1182	1.000000	0.362675	7.37661e+06	-56489.1	1105.82	-29738.6	0.000000	0.000000	6.362880	0.047800	NaN	0.000000	0.001589	0.001698	28.0826	0.071744	0.002057	34.8696	172.797	-165.383	0.078513	0.361369	-0.803291	-0.804596	0.047800	34.8696	-0.804319	-5.146217E+10	-9.288401E-13	NaN
1182	1.000000	0.372670	7.37661e+06	-56489.1	1105.82	-29738.6	0.000000	0.000000	6.372874	0.007382	NaN	0.000000	0.001595	0.001658	28.0828	0.094387	0.001955	48.2869	41.1803	14.2231	0.082180	0.371278	-0.793296	-0.794687	0.007382	48.2869	-0.793410	-3.659274E+10	-2.017441E-13	NaN
1182	1.000000	0.382726	7.37661e+06	-56489.1	1105.82	-29738.6	0.000000	0.000000	6.382929	-0.010974	NaN	0.000000	0.001589	0.001680	28.0825	0.037768	0.001954	19.3277	25.5162	-164.2	0.085004	0.381385	-0.783239	-0.784581	-0.010974	19.3277	-0.782814	-2.627009E+10	4.177362E-13	NaN
1182	1.000000	0.392697	7.37661e+06	-56489.1	1105.82	-29738.6	0.000000	0.000000	6.392901	0.013765	NaN	0.000000	0.001615	0.001674	28.0823	0.120057	0.002021	59.4141	161.994	13.0958	-0.000442	0.391350	-0.773269	-0.774616	0.013765	59.4141	-0.773442	-1.959321E+10	-7.025343E-13	NaN
1182	1.000000	0.402688	7.37661e+06	-56489.1	1105.82	-29738.6	0.000000	0.000000	6.402893	0.062126	NaN	0.000000	0.001582	0.001700	28.0827	0.053421	0.002099	25.4521	-17.5225	-160.348	0.070149	0.401352	-0.763278	-0.764614	0.062126	25.4521	-0.765109	-1.509365E+10	-4.116011E-12	NaN
1182	1.000000	0.412682	7.37661e+06	-56489.1	1105.82	-29738.6	0.000000	0.000000	6.412882	-0.070708	NaN	0.000000	0.001581	0.001730	28.0824	0.023961	0.001969	12.1704	80.2077	17.5418	-0.018442	0.411413	-0.753284	-0.754553	-0.070708	12.1704	-0.748927	-9.090988E+9	7.777803E-12	NaN
1182	1.000000	0.422721	7.37661e+06	-56489.1	1105.82	-29738.6	0.000000	0.000000	6.422926	0.027310	NaN	0.000000	0.001591	0.001691	28.0826	0.097290	0.001825	53.3166	70.2797	-166.808	-0.046782	0.421404	-0.743245	-0.744562	0.027310	53.3166	-0.743629	-7.699750E+9	-3.546850E-12	NaN
1182	1.000000	0.432715	7.37661e+06	-56489.1	1105.82	-29738.6	0.000000	0.000000	6.432920	0.031007	NaN	0.000000	0.001559	0.001710	28.0823	0.091218	0.001977	46.147	49.29	17.9826	0.097329	0.431378	-0.733250	-0.734588	0.031007	46.147	-0.733754	-5.648986E+9	-5.489014E-12	NaN
1182	1.000000	0.442725	7.37661e+06	-56489.1	1105.82	-29738.6	0.000000	0.000000	6.442929	0.024303	NaN	0.000000	0.001640	0.001679	28.0833	0.088835	0.002078	42.7568	165.644	-162.176	-0.025906	0.441388	-0.723241	-0.724578	0.024303	42.7568	-0.723667	-4.116054E+9	-5.904521E-12	NaN
1182	1.000000	0.452693	7.37661e+06	-56489.1	1105.82	-29738.6	0.000000	0.000000	6.452897	0.018970	NaN	0.000000	0.001609	0.001652	28.0836	0.082605	0.002058	40.1361	-121.351	13.4376	-0.027611	0.451333	-0.713273	-0.714633	0.018970	40.1361	-0.713627	-3.002940E+9	-6.317285E-12	NaN
1182	1.000000	0.462702	7.37661e+06	-56489.1	1105.82	-29738.6	0.000000	0.000000	6.462907	0.038963	NaN	0.000000	0.001605	0.001657	28.0836	0.058328	0.001933	30.1699	70.5073	-166.372	0.027630	0.461384	-0.703264	-0.704582	0.038963	30.1699	-0.704233	-2.235242E+9	-1.743100E-11	NaN
1182	1.000000	0.472714	7.37661e+06	-56489.1	1105.82	-29738.6	0.000000	0.000000	6.472920	0.064012	NaN	0.000000	0.001608	0.001676	28.0834	0.041210	0.001983	20.7819	52.3114	15.3653	0.007721	0.471373	-0.693252	-0.694593	0.064012	20.7819	-0.695562	-1.701812E+9	-3.761412E-11	NaN
1182	1.000000	0.482714	7.37661e+06	-56489.1	1105.82	-29738.6	0.000000	0.000000	6.482914	-0.071650	NaN	0.000000	0.001578	0.001667	28.0837	0.074694	0.002202	33.9248	131.312	-165.615	0.060648	0.481370	-0.683252	-0.684596	-0.071650	33.9248	-0.681668	-1.099043E+9	6.519348E-11	NaN
1182	1.000000	0.492707	7.37661e+06	-56489.1	1105.82	-29738.6	0.000000	0.000000	6.492908	-0.061346	NaN	0.000000	0.001586	0.001667	28.0833	0.098434	0.002026	48.5917	151.805	17.5742	-0.062880	0.491366	-0.673258	-0.674600	-0.061346	48.5917	-0.672312	-8.185137E+8	7.494819E-11	NaN
1182	1.000000	0.502733	7.37661e+06	-56489.1	1105.82	-29738.6	0.000000	0.000000	6.502937	0.019862	NaN	0.000000	0.001551	0.001682	28.0834	0.043440	0.002134	20.3541	123.65	-166.321	0.068442	0.501479	-0.663233	-0.664487	0.019862	20.3541	-0.663965	-6.291718E+8	-3.156834E-11	NaN
1182	1.000000	0.512752	7.37661e+06	-56489.1	1105.82	-29738.6	0.000000	0.000000	6.512958	0.079494	NaN	0.000000	0.001502	0.001673	28.0838	0.032647	0.001995	16.3668	60.8007	16.9145	-0.000198	0.511371	-0.653214	-0.654595	0.079494	16.3668	-0.656857	-5.028129E+8	-1.580993E-10	NaN
1182	1.000000	0.522745	7.37661e+06	-56489.1	1105.82	-29738.6	0.000000	0.000000	6.522950	0.035540	NaN	0.000000	0.001596	0.001710	28.0836	0.032064	0.001892	16.9458	1.962474	-164.801	0.068102	0.521444	-0.643220	-0.644522	0.035540	16.9458	-0.644793	-3.435923E+8	-1.034374E-10	NaN
1182	1.000000	0.532770	7.37661e+06	-56489.1	1105.82	-29738.6	0.000000	0.000000	6.532970	-0.086432	NaN	0.000000	0.001631	0.001714	28.0835	0.085680	0.002033	42.1518	-123.258	11.8979	-0.074079	0.531391	-0.633196	-0.634575	-0.086432	42.1518	-0.631658	-2.268759E+8	3.809676E-10	NaN
1182	1.000000	0.542732	7.37661e+06	-56489.1	1105.82	-29738.6	0.000000	0.000000	6.542935	-0.018489	NaN	0.000000	0.001622	0.001699	28.0839	0.005690	0.002119	2.685522	7.418767	-166.064	-0.007417	0.541428	-0.623233	-0.624538	-0.018489	2.685522	-0.618070	-1.476050E+8	1.252582E-10	NaN
1182	1.000000	0.552776	7.37661e+06	-56489.1	1105.82	-29738.6	0.000000	0.000000	6.552978	-0.042307	NaN	0.000000	0.001628	0.001723	28.0835	0.077294	0.002055	37.6079	140.062	12.9561	-0.042235	0.551369	-0.613190	-0.614597	-0.042307	37.6079	-0.612346	-1.231369E+8	3.435790E-10	NaN
1182	1.000000	0.562761	7.37661e+06	-56489.1	1105.82	-29738.6	0.000000	0.000000	6.562966	0.040431	NaN	0.000000	0.001626	0.001706	28.0839	0.140587	0.001901	73.95	-96.8828	-166.429	0.006900	0.561457	-0.603205	-0.604509	0.040431	73.95	-0.603615	-9.337582E+7	-4.329900E-10	NaN
1182	1.000000	0.572769	7.37661e+06	-56489.1	1105.82	-29738.6	0.000000	0.000000	6.572972	-0.018212	NaN	0.000000	0.001628	0.001729	28.084	0.042741	0.002014	21.2272	-94.2211	14.9169	-0.095082	0.571361	-0.593197	-0.594605	-0.018212	21.2272	-0.592553	-6.574456E+7	2.770127E-10	NaN
1182	1.000000	0.582763	7.37661e+06	-56489.1	1105.82	-29738.6	0.000000	0.000000	6.582964	-0.060777	NaN	0.000000	0.001637	0.001694	28.0828	0.029745	0.001877	15.851	153.831	-162.465	0.014600	0.581434	-0.583202	-0.584531	-0.060777	15.851	-0.580327	-4.458967E+7	1.363026E-9	NaN
1182	1.000000	0.592757	7.37661e+06	-56489.1	1105.82	-29738.6	0.000000	0.000000	6.592962	0.057405	NaN	0.000000	0.001602	0.001705	28.0825	0.017357	0.002055	8.446532	-36.5952	12.2303	-0.005120	0.591425	-0.573209	-0.574541	0.057405	8.446532	-0.578306	-4.181633E+7	-1.372787E-9	NaN
1182	1.000000	0.602778	7.37661e+06	-56489.1	1105.82	-29738.6	0.000000	0.000000	6.602982	0.009213	NaN	0.000000	0.001659	0.001705	28.0828	0.087896	0.001952	45.0227	80.8477	-159.646	-0.034694	0.601470	-0.563188	-0.564495	0.009213	45.0227	-0.563341	-2.597715E+7	-3.546643E-10	NaN
1182	1.000000	0.612781	7.37661e+06	-56489.1	1105.82	-29738.6	0.000000	0.000000	6.612981	-0.072178	NaN	0.000000	0.001619	0.001701	28.0827	0.073447	0.001993	36.8443	18.6333	14.5125	-0.001478	0.611379	-0.553185	-0.554587	-0.072178	36.8443	-0.551715	-1.793542E+7	4.024334E-9	NaN
1182	1.000000	0.622767	7.37661e+06	-56489.1	1105.82	-29738.6	0.000000	0.000000	6.622970	-0.010299	NaN	0.000000	0.001635	0.001681	28.0828	0.087798	0.001976	44.437	105.864	-165.287	0.079579	0.621459	-0.543199	-0.544507	-0.010299	44.437	-0.543025	-1.359264E+7	7.576666E-10	NaN
1182	1.000000	0.632786	7.37661e+06	-56489.1	1105.82	-29738.6	0.000000	0.000000	6.632990	0.027987	NaN	0.000000	0.001644	0.001724	28.0826	0.030843	0.001984	15.5484	17.2308	14.0972	-0.031327	0.631406	-0.533180	-0.534560	0.027987	15.5484	-0.534530	-1.036259E+7	-2.700764E-9	NaN
1182	1.000000	0.642779	7.37661e+06	-56489.1	1105.82	-29738.6	0.000000	0.000000	6.642981	-0.015578	NaN	0.000000	0.001631	0.001699	28.0826	0.066021	0.002054	32.1486	-84.8729	-162.69	0.016603	0.641488	-0.523187	-0.524478	-0.015578	32.1486	-0.522824	-7.12626e+06	2.185994E-9	NaN
1182	1.000000	0.652822	7.37661e+06	-56489.1	1105.82	-29738.6	0.000000	0.000000	6.653027	0.021873	NaN	0.000000	0.001647	0.001677	28.0828	0.035941	0.001982	18.1337	49.1506	16.0044	0.034319	0.651496	-0.513143	-0.514469	0.021873	18.1337	-0.514048	-5.38e+06	-4.065684E-9	NaN
1182	1.000000	0.662816	7.37661e+06	-56489.1	1105.82	-29738.6	0.000000	0.000000	6.663016	-0.065617	NaN	0.000000	0.001645	0.001675	28.0826	0.126426	0.001999	63.2503	148.574	-163.015	-0.085315	0.661521	-0.503150	-0.504445	-0.065617	63.2503	-0.502372	-3.69914e+06	1.773855E-8	NaN
1182	1.000000	0.672797	7.37661e+06	-56489.1	1105.82	-29738.6	0.000000	0.000000	6.673001	0.028594	NaN	0.000000	0.001685	0.001684	28.0829	0.036972	0.002034	18.1746	-166.053	12.1933	0.005395	0.671432	-0.493169	-0.494533	0.028594	18.1746	-0.494349	-2.85857e+06	-1.000292E-8	NaN
1182	1.000000	0.682817	7.37661e+06	-56489.1	1105.82	-29738.6	0.000000	0.000000	6.683019	-0.009187	NaN	0.000000	0.001698	0.001680	28.0827	0.068338	0.002013	33.9533	157.92	-163.469	0.004081	0.681469	-0.483149	-0.484497	-0.009187	33.9533	-0.482946	-1.98044e+06	4.638872E-9	NaN
1182	1.000000	0.692803	7.37661e+06	-56489.1	1105.82	-29738.6	0.000000	0.000000	6.693008	0.058340	NaN	0.000000	0.001652	0.001685	28.0831	0.078449	0.002052	38.2372	-127.3	13.7782	0.044257	0.691474	-0.473163	-0.474492	0.058340	38.2372	-0.474307	-1.49898e+06	-3.891977E-8	NaN
1182	1.000000	0.702822	7.37661e+06	-56489.1	1105.82	-29738.6	0.000000	0.000000	6.703027	0.024361	NaN	0.000000	0.001656	0.001666	28.0827	0.050727	0.001916	26.4762	-90.0853	-165.739	0.079246	0.701485	-0.463143	-0.464481	0.024361	26.4762	-0.463834	-1.06874e+06	-2.279432E-8	NaN
1182	1.000000	0.712846	7.37661e+06	-56489.1	1105.82	-29738.6	0.000000	0.000000	6.713049	0.012597	NaN	0.000000	0.001632	0.001635	28.0831	0.038958	0.001931	20.174	-30.4647	14.598	0.064694	0.711443	-0.453120	-0.454523	0.012597	20.174	-0.453588	-767109	-1.642080E-8	NaN
1182	1.000000	0.722806	7.37661e+06	-56489.1	1105.82	-29738.6	0.000000	0.000000	6.723009	0.001630	NaN	0.000000	0.001606	0.001693	28.084	0.002066	0.001986	1.040159	-141.053	-164.241	-0.001370	0.721466	-0.443160	-0.444499	0.001630	1.040159	-0.444335	-568226	-2.869124E-9	NaN
1182	1.000000	0.732829	7.37661e+06	-56489.1	1105.82	-29738.6	0.000000	0.000000	6.733032	-0.009606	NaN	0.000000	0.001624	0.001681	28.0843	0.089057	0.002053	43.3786	-142.756	16.6111	0.030096	0.731504	-0.433137	-0.434462	-0.009606	43.3786	-0.432971	-392710	2.446192E-8	NaN
1182	1.000000	0.742854	7.37661e+06	-56489.1	1105.82	-29738.6	0.000000	0.000000	6.743058	0.012038	NaN	0.000000	0.001644	0.001643	28.0842	0.021149	0.002169	9.750805	155.929	-166.499	0.007233	0.741537	-0.423111	-0.424429	0.012038	9.750805	-0.424037	-293525	-4.101147E-8	NaN
1182	1.000000	0.752835	7.37661e+06	-56489.1	1105.82	-29738.6	0.000000	0.000000	6.753041	0.074465	NaN	0.000000	0.001594	0.001648	28.0841	0.083789	0.001979	42.3432	-3.387423	15.6984	0.087658	0.751491	-0.413131	-0.414475	0.074465	42.3432	-0.414450	-214607	-3.469845E-7	NaN
1182	1.000000	0.762841	7.37661e+06	-56489.1	1105.82	-29738.6	0.000000	0.000000	6.763045	0.010055	NaN	0.000000	0.001594	0.001651	28.0841	0.143891	0.002068	69.5802	-157.257	-163.858	0.014637	0.761522	-0.403125	-0.404443	0.010055	69.5802	-0.403233	-148620	-6.765463E-8	NaN
1182	1.000000	0.772848	7.37661e+06	-56489.1	1105.82	-29738.6	0.000000	0.000000	6.773051	-0.013575	NaN	0.000000	0.001619	0.001671	28.0845	0.030213	0.002000	15.1077	-103.609	12.6795	-0.012876	0.771526	-0.393118	-0.394440	-0.013575	15.1077	-0.392444	-104259	1.302038E-7	NaN
1182	1.000000	0.782845	7.37661e+06	-56489.1	1105.82	-29738.6	0.000000	0.000000	6.783049	0.020261	NaN	0.000000	0.001621	0.001670	28.0841	0.060319	0.002104	28.6636	-164.049	-165.444	-0.052200	0.781537	-0.383121	-0.384429	0.020261	28.6636	-0.383651	-78028.4	-2.596626E-7	NaN
1182	1.000000	0.792874	7.37661e+06	-56489.1	1105.82	-29738.6	0.000000	0.000000	6.793079	0.035411	NaN	0.000000	0.001593	0.001617	28.0841	0.067770	0.002104	32.2109	150.069	16.5073	-0.005495	0.791502	-0.373092	-0.374464	0.035411	32.2109	-0.373916	-56557.2	-6.261123E-7	NaN
1182	1.000000	0.802847	7.37661e+06	-56489.1	1105.82	-29738.6	0.000000	0.000000	6.803049	-0.014510	NaN	0.000000	0.001634	0.001692	28.084	0.073525	0.001767	41.6095	148.718	-164.59	0.063278	0.801562	-0.363119	-0.364404	-0.014510	41.6095	-0.362858	-39186.1	3.702848E-7	NaN
1182	1.000000	0.812835	7.37661e+06	-56489.1	1105.82	-29738.6	0.000000	0.000000	6.813042	0.091594	NaN	0.000000	0.001649	0.001686	28.084	0.061432	0.002028	30.287	90.9475	16.644	0.064435	0.811553	-0.353131	-0.354413	0.091594	30.287	-0.355399	-30568.7	-2.996327E-6	NaN
1182	1.000000	0.822856	7.37661e+06	-56489.1	1105.82	-29738.6	0.000000	0.000000	6.823061	0.034635	NaN	0.000000	0.001614	0.001671	28.0839	0.086430	0.002007	43.0612	120.973	-162.842	0.015603	0.821578	-0.343110	-0.344388	0.034635	43.0612	-0.343713	-20683.8	-1.674475E-6	NaN
1182	1.000000	0.832878	7.37661e+06	-56489.1	1105.82	-29738.6	0.000000	0.000000	6.833079	-0.065837	NaN	0.000000	0.001576	0.001663	28.084	0.120255	0.001956	61.4734	99.1277	12.3559	-0.052871	0.831553	-0.333087	-0.334413	-0.065837	61.4734	-0.332284	-14089.1	4.672904E-6	NaN
1182	1.000000	0.842899	7.37661e+06	-56489.1	1105.82	-29738.6	0.000000	0.000000	6.843103	0.031254	NaN	0.000000	0.001628	0.001711	28.0839	0.057061	0.002132	26.7668	-2.546731	-168.539	0.034665	0.841614	-0.323067	-0.324352	0.031254	26.7668	-0.323943	-10631.9	-2.939668E-6	NaN
1182	1.000000	0.852860	7.37661e+06	-56489.1	1105.82	-29738.6	0.000000	0.000000	6.853061	-0.048390	NaN	0.000000	0.001623	0.001673	28.0834	0.065811	0.002082	31.6143	145.423	16.4997	0.083333	0.851506	-0.313106	-0.314460	-0.048390	31.6143	-0.311958	-7079.64	6.835139E-6	NaN
1182	1.000000	0.862866	7.37661e+06	-56489.1	1105.82	-29738.6	0.000000	0.000000	6.863072	0.077128	NaN	0.000000	0.001622	0.001667	28.0827	0.042861	0.001930	22.2127	84.6248	-166.237	0.152569	0.861569	-0.303100	-0.304397	0.077128	22.2127	-0.305704	-5720.08	-1.348380E-5	NaN
1182	1.000000	0.872928	7.37661e+06	-56489.1	1105.82	-29738.6	0.000000	0.000000	6.873134	0.072438	NaN	0.000000	0.001628	0.001684	28.0827	0.014162	0.001936	7.314954	85.3788	12.1326	0.062703	0.871515	-0.293038	-0.294451	0.072438	7.314954	-0.300465	-4781.4	-1.514992E-5	NaN
1182	1.000000	0.882922	7.37661e+06	-56489.1	1105.82	-29738.6	0.000000	0.000000	6.883128	0.067296	NaN	0.000000	0.001625	0.001619	28.0828	0.094089	0.002062	45.6317	-4.169248	-165.028	0.034300	0.881628	-0.283044	-0.284338	0.067296	45.6317	-0.284150	-2725.75	-2.468893E-5	NaN
1182	1.000000	0.892894	7.37661e+06	-56489.1	1105.82	-29738.6	0.000000	0.000000	6.893097	-0.001032	NaN	0.000000	0.001635	0.001633	28.0828	0.024569	0.001909	12.8671	-32.8175	16.881	-0.064257	0.891577	-0.273072	-0.274389	-0.001032	12.8671	-0.273012	-1850.41	5.577055E-7	NaN
1182	1.000000	0.902908	7.37661e+06	-56489.1	1105.82	-29738.6	0.000000	0.000000	6.903112	0.023236	NaN	0.000000	0.001613	0.001633	28.0827	0.036704	0.002022	18.1562	-127.749	-162.248	0.035822	0.901565	-0.263058	-0.264401	0.023236	18.1562	-0.264018	-1350.19	-1.720908E-5	NaN
1182	1.000000	0.912924	7.37661e+06	-56489.1	1105.82	-29738.6	0.000000	0.000000	6.913129	0.059399	NaN	0.000000	0.001580	0.001686	28.0827	0.010065	0.001950	5.160524	18.9959	15.3684	0.082922	0.911477	-0.253042	-0.254489	0.059399	5.160524	-0.261675	-1243.29	-4.777610E-5	NaN
1182	1.000000	0.922912	7.37661e+06	-56489.1	1105.82	-29738.6	0.000000	0.000000	6.923114	-0.024153	NaN	0.000000	0.001655	0.001705	28.083	0.099549	0.002026	49.1459	-132.938	-162.63	0.053900	0.921605	-0.243054	-0.244361	-0.024153	49.1459	-0.242685	-633.053	3.815389E-5	NaN
1182	1.000000	0.932933	7.37661e+06	-56489.1	1105.82	-29738.6	0.000000	0.000000	6.933137	0.021189	NaN	0.000000	0.001581	0.001728	28.0829	0.064468	0.001975	32.6475	-66.0765	14.7168	0.053764	0.931567	-0.233033	-0.234399	0.021189	32.6475	-0.233520	-454.971	-4.657292E-5	NaN
1182	1.000000	0.942919	7.37661e+06	-56489.1	1105.82	-29738.6	0.000000	0.000000	6.943122	-0.009382	NaN	0.000000	0.001598	0.001696	28.083	0.012072	0.001978	6.101787	-154.406	-165.514	0.032210	0.941595	-0.223047	-0.224371	-0.009382	6.101787	-0.221894	-297.786	3.150431E-5	NaN
1182	1.000000	0.952934	7.37661e+06	-56489.1	1105.82	-29738.6	0.000000	0.000000	6.953140	0.070224	NaN	0.000000	0.001589	0.001701	28.0831	0.082192	0.001986	41.383	3.384674	13.6556	0.009970	0.951607	-0.213032	-0.214359	0.070224	41.383	-0.214304	-225.072	-0.000312	NaN
1182	1.000000	0.962918	7.37661e+06	-56489.1	1105.82	-29738.6	0.000000	0.000000	6.963123	0.050270	NaN	0.000000	0.001611	0.001720	28.083	0.035514	0.002119	16.7561	156.528	-163.625	0.064116	0.961636	-0.203048	-0.204330	0.050270	16.7561	-0.205298	-160.848	-0.000313	NaN
1182	1.000000	0.972930	7.37661e+06	-56489.1	1105.82	-29738.6	0.000000	0.000000	6.973131	-0.058521	NaN	0.000000	0.001634	0.001697	28.083	0.068099	0.002052	33.19	133.741	15.9903	0.041661	0.971578	-0.193036	-0.194388	-0.058521	33.19	-0.191713	-96.0744	0.000609	NaN
1182	1.000000	0.982925	7.37661e+06	-56489.1	1105.82	-29738.6	0.000000	0.000000	6.983131	0.058695	NaN	0.000000	0.001599	0.001692	28.0831	0.069536	0.002041	34.0697	-162.668	-163.425	-0.033907	0.981657	-0.183041	-0.184309	0.058695	34.0697	-0.184333	-72.2565	-0.000812	NaN
1182	1.000000	0.992922	7.37661e+06	-56489.1	1105.82	-29738.6	0.000000	0.000000	6.993125	-0.008446	NaN	0.000000	0.001605	0.001671	28.0843	0.076575	0.002017	37.9642	87.4322	14.7329	-0.075155	0.991575	-0.173044	-0.174391	-0.008446	37.9642	-0.172877	-46.0705	0.000183	NaN
1182	1.000000	1.002938	7.37661e+06	-56489.1	1105.82	-29738.6	0.000000	0.000000	7.003141	0.002465	NaN	0.000000	0.001606	0.001684	28.0843	0.126722	0.001958	64.7161	-116.012	-163.514	0.076918	1.001654	-0.163028	-0.164312	0.002465	64.7161	-0.163057	-31.0527	-7.938050E-5	NaN
1182	1.000000	1.012952	7.37661e+06	-56489.1	1105.82	-29738.6	0.000000	0.000000	7.013153	-0.050797	NaN	0.000000	0.001599	0.001668	28.0842	0.123409	0.001996	61.8277	-86.4145	12.5175	-0.137615	1.011605	-0.153014	-0.154360	-0.050797	61.8277	-0.152398	-20.0259	0.002537	NaN
1182	1.000000	1.022958	7.37661e+06	-56489.1	1105.82	-29738.6	0.000000	0.000000	7.023161	-0.004685	NaN	0.000000	0.001603	0.001677	28.0846	0.076176	0.001935	39.3697	-130.128	-162.295	-0.077119	1.021630	-0.143008	-0.144336	-0.004685	39.3697	-0.142919	-13.4137	0.000349	NaN
1182	1.000000	1.032907	7.37661e+06	-56489.1	1105.82	-29738.6	0.000000	0.000000	7.033114	0.089742	NaN	0.000000	0.001582	0.001645	28.0845	0.035843	0.001863	19.2345	-106.958	15.2508	0.008576	1.031635	-0.133059	-0.134331	0.089742	19.2345	-0.136558	-10.1851	-0.008811	NaN
1182	1.000000	1.042961	7.37661e+06	-56489.1	1105.82	-29738.6	0.000000	0.000000	7.043163	-0.032826	NaN	0.000000	0.001590	0.001641	28.0845	0.036208	0.002187	16.5594	-86.2666	-165.822	0.089306	1.041660	-0.123005	-0.124306	-0.032826	16.5594	-0.121518	-5.183582	0.006333	NaN
1182	1.000000	1.052961	7.37661e+06	-56489.1	1105.82	-29738.6	0.000000	0.000000	7.053164	-0.009195	NaN	0.000000	0.001590	0.001633	28.0841	0.073424	0.002076	35.3709	154.102	14.7671	0.042903	1.051613	-0.113004	-0.114353	-0.009195	35.3709	-0.112809	-3.441351	0.002672	NaN
1182	1.000000	1.062958	7.37661e+06	-56489.1	1105.82	-29738.6	0.000000	0.000000	7.063162	0.034203	NaN	0.000000	0.001606	0.001684	28.0846	0.040011	0.001913	20.9208	124.996	-164.838	0.073710	1.061680	-0.103008	-0.104286	0.034203	20.9208	-0.104234	-2.262552	-0.015117	NaN
1182	1.000000	1.072944	7.37661e+06	-56489.1	1105.82	-29738.6	0.000000	0.000000	7.073146	-0.022255	NaN	0.000000	0.001561	0.001669	28.0843	0.032212	0.002054	15.6844	41.8344	16.0722	-0.053919	1.071636	-0.093022	-0.094330	-0.022255	15.6844	-0.091958	-1.200841	0.018533	NaN
1182	1.000000	1.082948	7.37661e+06	-56489.1	1105.82	-29738.6	0.000000	0.000000	7.083151	-0.020568	NaN	0.000000	0.001549	0.001621	28.0844	0.028083	0.002059	13.6387	30.3131	-162.946	-0.031786	1.081652	-0.083017	-0.084313	-0.020568	13.6387	-0.081886	-0.689539	0.029829	NaN
1182	1.000000	1.092953	7.37661e+06	-56489.1	1105.82	-29738.6	0.000000	0.000000	7.093156	-0.023624	NaN	0.000000	0.001558	0.001650	28.0841	0.034507	0.002109	16.3589	-117.823	14.7528	0.006824	1.091611	-0.073013	-0.074355	-0.023624	16.3589	-0.071929	-0.383911	0.061536	NaN
1182	1.000000	1.102973	7.37661e+06	-56489.1	1105.82	-29738.6	0.000000	0.000000	7.103174	-0.052867	NaN	0.000000	0.001556	0.001668	28.0843	0.035845	0.001946	18.4206	-95.0706	-168.611	-0.022571	1.101660	-0.062993	-0.064305	-0.052867	18.4206	-0.060840	-0.190340	0.277752	NaN
1182	1.000000	1.112957	7.37661e+06	-56489.1	1105.82	-29738.6	0.000000	0.000000	7.113161	0.007077	NaN	0.000000	0.001560	0.001694	28.084	0.077715	0.002053	37.851	67.6461	12.4362	0.014403	1.111586	-0.053008	-0.054380	0.007077	37.851	-0.053149	-0.113463	-0.062374	NaN
1182	1.000000	1.122972	7.37661e+06	-56489.1	1105.82	-29738.6	0.000000	0.000000	7.123179	0.086380	NaN	0.000000	0.001562	0.001684	28.0841	0.047273	0.002025	23.3478	146.076	-164.307	0.096087	1.121673	-0.042994	-0.044293	0.086380	23.3478	-0.045769	-0.067841	-1.273281	NaN
1182	1.000000	1.133006	7.37661e+06	-56489.1	1105.82	-29738.6	0.000000	0.000000	7.133208	-0.027144	NaN	0.000000	0.001562	0.001687	28.0829	0.018820	0.002082	9.039318	-61.4595	15.6852	0.000427	1.131632	-0.032960	-0.034334	-0.027144	9.039318	-0.030708	-0.024087	1.126924	NaN
1182	1.000000	1.143013	7.37661e+06	-56489.1	1105.82	-29738.6	0.000000	0.000000	7.143218	0.032756	NaN	0.000000	0.001567	0.001683	28.0832	0.035512	0.002073	17.128	145.732	-164.746	0.027838	1.141663	-0.022952	-0.024303	0.032756	17.128	-0.024387	-0.016261	-2.014324	NaN
1182	1.000000	1.152980	7.37661e+06	-56489.1	1105.82	-29738.6	0.000000	0.000000	7.153185	0.035811	NaN	0.000000	0.001559	0.001686	28.0828	0.077000	0.001938	39.7246	71.6414	16.1891	0.037488	1.151684	-0.012986	-0.014282	0.035811	39.7246	-0.013662	-0.008486	-4.220102	NaN
1182	1.000000	1.162975	7.37661e+06	-56489.1	1105.82	-29738.6	0.000000	0.000000	7.163183	0.128082	NaN	0.000000	0.001582	0.001676	28.0831	0.130695	0.001879	69.5444	-28.78	-164.652	0.085285	1.161711	-0.002991	-0.004255	0.128082	69.5444	-0.004372	-0.003019	-42.4323	NaN
1182	1.000000	1.172937	7.37661e+06	-56489.1	1105.82	-29738.6	0.000000	0.000000	7.173443	7.355353	NaN	0.000000	0.001602	0.001658	28.0831	7.779375	0.001730	4497.88	17.2568	5.454682	5.782639	1.171606	0.006972	0.005640	7.355353	4497.88	0.005745	0.004824	1524.83	59168.4
1182	2.000000	1.176527	7.37662e+06	-56489.1	1105.82	-29738.6	0.000000	0.000000	7.177195	11.2779	NaN	0.000000	0.001538	0.001670	28.083	10.6323	0.001567	6783.68	8.638413	-174.716	10.7019	1.176227	0.010562	0.010261	11.2779	6783.68	0.009315	0.008430	1337.86	67503.8
1182	2.000000	1.179020	7.37662e+06	-56489.1	1105.82	-29738.6	0.000000	0.000000	7.179760	13.0591	NaN	0.000000	0.001545	0.001670	28.0828	12.4334	0.001659	7495.33	7.718929	6.470213	13.0665	1.178631	0.013054	0.012665	13.0591	7495.33	0.011747	0.011189	1167.19	64740.7
1182	2.000000	1.181493	7.37662e+06	-56489.1	1105.82	-29738.6	0.000000	0.000000	7.182351	15.93	NaN	0.000000	0.001598	0.001660	28.0827	15.7107	0.001854	8474.65	8.949456	-176.7	15.7719	1.181248	0.015527	0.015282	15.93	8474.65	0.014117	0.014126	1127.7	65145.6
1182	2.000000	1.184009	7.37662e+06	-56489.1	1105.82	-29738.6	0.000000	0.000000	7.185065	20.7479	NaN	0.000000	0.001555	0.001679	28.0829	17.6791	0.001765	10017.6	7.493565	3.535681	20.1675	1.183678	0.018043	0.017712	20.7479	10017.6	0.016489	0.017323	1197.7	69538.5
1182	2.000000	1.186508	7.37662e+06	-56489.1	1105.82	-29738.6	0.000000	0.000000	7.187686	23.7073	NaN	0.000000	0.001564	0.001677	28.0828	19.2911	0.001773	10879.6	6.644838	-176.109	24.6037	1.186221	0.020542	0.020255	23.7073	10879.6	0.018908	0.020855	1136.79	68831.3
1182	2.000000	1.188946	7.37662e+06	-56489.1	1105.82	-29738.6	0.000000	0.000000	7.190366	29.5594	NaN	0.000000	0.001650	0.001665	28.0827	22.2571	0.001854	12005.8	3.328222	5.069659	27.9066	1.188655	0.022981	0.022689	29.5594	12005.8	0.021134	0.024356	1213.66	70285.5
1182	2.000000	1.191455	7.37662e+06	-56489.1	1105.82	-29738.6	0.000000	0.000000	7.193079	34.5347	NaN	0.000000	0.001639	0.001686	28.0828	25.0946	0.001920	13067.1	8.423948	179.773	34.2751	1.191168	0.025489	0.025202	34.5347	13067.1	0.023507	0.028355	1217.95	70898.7
1182	2.000000	1.193967	7.37662e+06	-56489.1	1105.82	-29738.6	0.000000	0.000000	7.195956	43.3976	NaN	0.000000	0.001635	0.001712	28.0829	26.042	0.001776	14661.8	4.339275	3.733384	41.7355	1.193582	0.028002	0.027616	43.3976	14661.8	0.025782	0.032453	1337.24	74358.8
1182	2.000000	1.196420	7.37662e+06	-56489.1	1105.82	-29738.6	0.000000	0.000000	7.198599	48.0333	NaN	0.000000	0.001611	0.001694	28.0837	28.8653	0.001837	15715.5	5.262961	-179.561	46.4725	1.196099	0.030454	0.030134	48.0333	15715.5	0.028162	0.037020	1297.49	74624.6
1182	2.000000	1.198900	7.37662e+06	-56489.1	1105.82	-29738.6	0.000000	0.000000	7.201312	53.6968	NaN	0.000000	0.001648	0.001712	28.0839	30.9269	0.001909	16203.2	3.102392	3.398320	50.332	1.198595	0.032934	0.032629	53.6968	16203.2	0.030449	0.041679	1288.34	72512.7
1182	2.000000	1.201446	7.37662e+06	-56489.1	1105.82	-29738.6	0.000000	0.000000	7.204267	63.6295	NaN	0.000000	0.001647	0.001722	28.0842	33.9479	0.001972	17211.4	6.992255	178.792	63.053	1.201095	0.035480	0.035129	63.6295	17211.4	0.032707	0.046543	1367.12	72889.2
1182	2.000000	1.203943	7.37662e+06	-56489.1	1105.82	-29738.6	0.000000	0.000000	7.207296	76.5466	NaN	0.000000	0.001661	0.001699	28.084	36.3753	0.001702	21372.4	10.6699	-5.747758	75.9352	1.203480	0.037978	0.037514	76.5466	21372.4	0.035291	0.052427	1460.07	85280.3
1182	2.000000	1.206387	7.37662e+06	-56489.1	1105.82	-29738.6	0.000000	0.000000	7.210250	88.9629	NaN	0.000000	0.001598	0.001654	28.0841	38.7157	0.001762	21970.2	5.658849	177.892	86.1572	1.206056	0.040421	0.040091	88.9629	21970.2	0.037384	0.057442	1548.74	83751.2
1182	2.000000	1.208948	7.37662e+06	-56489.1	1105.82	-29738.6	0.000000	0.000000	7.213206	98.5644	NaN	0.000000	0.001633	0.001670	28.0839	42.1253	0.001900	22175.7	9.246875	-4.864953	98.5145	1.208487	0.042982	0.042521	98.5644	22175.7	0.039649	0.063123	1561.46	80641
1182	2.000000	1.211358	7.37662e+06	-56489.1	1105.82	-29738.6	0.000000	0.000000	7.216005	108.016	NaN	0.000000	0.001640	0.001695	28.0841	44.3824	0.001824	24333.2	7.340157	175.168	105.102	1.211090	0.045392	0.045124	108.016	24333.2	0.042063	0.069468	1554.91	84349.2
1182	2.000000	1.213880	7.37662e+06	-56489.1	1105.82	-29738.6	0.000000	0.000000	7.219111	122.203	NaN	0.000000	0.001627	0.001703	28.0841	45.2044	0.001839	24581.4	7.969444	-3.963480	118.766	1.213483	0.047914	0.047518	122.203	24581.4	0.044186	0.075293	1623.04	81847.1
1182	2.000000	1.216398	7.37662e+06	-56489.1	1105.82	-29738.6	0.000000	0.000000	7.222052	132.482	NaN	0.000000	0.001642	0.001692	28.084	47.4206	0.001753	27049.2	3.646780	177.573	131.5	1.216102	0.050432	0.050136	132.482	27049.2	0.046759	0.082659	1602.76	85957.1
1182	2.000000	1.218914	7.37662e+06	-56489.1	1105.82	-29738.6	0.000000	0.000000	7.224964	142.114	NaN	0.000000	0.001659	0.001655	28.0841	51.1774	0.001727	29629.6	6.245891	-6.295175	140.548	1.218670	0.052948	0.052705	142.114	29629.6	0.049351	0.090417	1571.77	90027.3
1182	2.000000	1.221359	7.37662e+06	-56489.1	1105.82	-29738.6	0.000000	0.000000	7.228002	156.527	NaN	0.000000	0.001648	0.001678	28.0841	53.8658	0.001797	29971.9	1.329219	178.426	153.563	1.221101	0.055393	0.055135	156.527	29971.9	0.051476	0.097031	1613.17	87908.7
1182	2.000000	1.223832	7.37662e+06	-56489.1	1105.82	-29738.6	0.000000	0.000000	7.231064	170.844	NaN	0.000000	0.001670	0.001680	28.0839	54.9191	0.001788	30721.3	3.165359	-2.714908	166.589	1.223493	0.057866	0.057527	170.844	30721.3	0.053695	0.104177	1639.95	86961.6
1182	2.000000	1.226396	7.37662e+06	-56489.1	1105.82	-29738.6	0.000000	0.000000	7.234102	182.379	NaN	0.000000	0.001654	0.001684	28.0839	57.0109	0.001709	33355.3	3.443338	176.075	182.17	1.226060	0.060430	0.060094	182.379	33355.3	0.056329	0.112976	1614.31	90666.3
1182	2.000000	1.228941	7.37662e+06	-56489.1	1105.82	-29738.6	0.000000	0.000000	7.237037	191.862	NaN	0.000000	0.001566	0.001691	28.084	59.7334	0.001712	34886.8	1.512482	-2.928788	192.679	1.228719	0.062975	0.062753	191.862	34886.8	0.058850	0.121717	1576.29	91360.4
1182	2.000000	1.231342	7.37662e+06	-56489.1	1105.82	-29738.6	0.000000	0.000000	7.240254	211.668	NaN	0.000000	0.001598	0.001672	28.083	63.5843	0.001834	34666.5	4.937637	173.821	208.655	1.231138	0.065376	0.065172	211.668	34666.5	0.060797	0.128682	1644.9	88292.8
1182	2.000000	1.233819	7.37662e+06	-56489.1	1105.82	-29738.6	0.000000	0.000000	7.243227	223.754	NaN	0.000000	0.001584	0.001655	28.0829	64.6228	0.001708	37842.4	2.977534	-5.214716	215.806	1.233517	0.067853	0.067551	223.754	37842.4	0.063418	0.138351	1617.29	92952.5
1182	2.000000	1.236346	7.37662e+06	-56489.1	1105.82	-29738.6	0.000000	0.000000	7.246550	243.093	NaN	0.000000	0.001595	0.001679	28.0828	66.3011	0.001664	39852.1	3.473857	173.95	240.138	1.236027	0.070380	0.070061	243.093	39852.1	0.065805	0.147443	1648.73	94822.9
1182	2.000000	1.238974	7.37662e+06	-56489.1	1105.82	-29738.6	0.000000	0.000000	7.249341	247.046	NaN	0.000000	0.001614	0.001743	28.083	70.2998	0.001795	39155.9	3.692371	-6.143702	248.825	1.238703	0.073008	0.072737	247.046	39155.9	0.068276	0.157145	1572.09	90244.5
1182	2.000000	1.241327	7.37662e+06	-56489.1	1105.82	-29738.6	0.000000	0.000000	7.252649	270.254	NaN	0.000000	0.001612	0.001682	28.0829	73.2553	0.001797	40762.3	6.060070	171.222	266.284	1.241110	0.075362	0.075145	270.254	40762.3	0.070389	0.165674	1631.24	91496.5
1182	2.000000	1.243852	7.37662e+06	-56489.1	1105.82	-29738.6	0.000000	0.000000	7.255810	285.727	NaN	0.000000	0.001587	0.001617	28.0829	75.4877	0.001903	39668	9.156954	-11.138	281.175	1.243474	0.077886	0.077508	285.727	39668	0.072484	0.174337	1638.93	86799.6
1182	2.000000	1.246368	7.37662e+06	-56489.1	1105.82	-29738.6	0.000000	0.000000	7.258847	298.402	NaN	0.000000	0.001614	0.001686	28.0827	76.4188	0.001767	43255.7	6.675306	170.367	296.168	1.246153	0.080402	0.080187	298.402	43255.7	0.075228	0.186002	1604.3	91634.3
1182	2.000000	1.248852	7.37662e+06	-56489.1	1105.82	-29738.6	0.000000	0.000000	7.262275	321.342	NaN	0.000000	0.001608	0.001649	28.0833	79.7779	0.001777	44882.7	5.427598	-8.436693	317.632	1.248424	0.082886	0.082458	321.342	44882.7	0.077516	0.195999	1639.5	92624.3
1182	2.000000	1.251362	7.37662e+06	-56489.1	1105.82	-29738.6	0.000000	0.000000	7.264996	326.452	NaN	0.000000	0.001577	0.001660	28.0828	83.4501	0.001886	44250.9	1.566378	175.24	323.386	1.251167	0.085396	0.085202	326.452	44250.9	0.079863	0.206508	1580.82	88966.6
1182	2.000000	1.253807	7.37662e+06	-56489.1	1105.82	-29738.6	0.000000	0.000000	7.268821	360.012	NaN	0.000000	0.001628	0.001673	28.0841	85.3214	0.001748	48815.3	7.578777	-10.4563	353.287	1.253384	0.087841	0.087419	360.012	48815.3	0.082310	0.217735	1653.44	95579.6
1182	2.000000	1.256340	7.37662e+06	-56489.1	1105.82	-29738.6	0.000000	0.000000	7.271827	371.495	NaN	0.000000	0.001622	0.001658	28.0826	87.8733	0.001793	48998.3	5.576120	170.794	370.94	1.256015	0.090374	0.090050	371.495	48998.3	0.084688	0.228915	1622.85	93565.6
1182	2.000000	1.258870	7.37662e+06	-56489.1	1105.82	-29738.6	0.000000	0.000000	7.275046	388.231	NaN	0.000000	0.001592	0.001684	28.0833	90.4386	0.001789	50550.4	9.374341	-13.6063	385.239	1.258503	0.092904	0.092537	388.231	50550.4	0.087144	0.240736	1612.68	94129.8
1182	2.000000	1.261237	7.37662e+06	-56489.1	1105.82	-29738.6	0.000000	0.000000	7.278322	410.342	NaN	0.000000	0.001613	0.001664	28.0825	92.4669	0.001791	51637.3	3.125507	172.579	404.419	1.261060	0.095271	0.095094	410.342	51637.3	0.089311	0.251397	1632.25	94092.8
1182	2.000000	1.263834	7.37662e+06	-56489.1	1105.82	-29738.6	0.000000	0.000000	7.281950	435.387	NaN	0.000000	0.001619	0.001620	28.0827	94.3337	0.001942	48565.8	3.055923	-6.830724	430.256	1.263509	0.097869	0.097544	435.387	48565.8	0.091145	0.260585	1670.81	86921.8
1182	2.000000	1.266336	7.37662e+06	-56489.1	1105.82	-29738.6	0.000000	0.000000	7.285060	450.178	NaN	0.000000	0.001574	0.001665	28.0838	95.6747	0.001676	57079.8	3.426758	172.099	448.899	1.265858	0.100370	0.099892	450.178	57079.8	0.094455	0.277561	1621.91	98986.7
1182	2.000000	1.268806	7.37662e+06	-56489.1	1105.82	-29738.6	0.000000	0.000000	7.288145	465.127	NaN	0.000000	0.001565	0.001660	28.0841	99.6464	0.001793	55564.4	3.677714	-8.132499	460.286	1.268481	0.102840	0.102515	465.127	55564.4	0.096562	0.288626	1611.52	94493.5
1182	2.000000	1.271358	7.37662e+06	-56489.1	1105.82	-29738.6	0.000000	0.000000	7.291770	491.218	NaN	0.000000	0.001568	0.001655	28.0837	102.099	0.001878	54355.6	3.190243	172.304	489.859	1.271009	0.105392	0.105044	491.218	54355.6	0.098614	0.299601	1639.57	90729.1
1182	2.000000	1.272808	7.37662e+06	-56489.1	1105.82	-29738.6	0.000000	0.000000	7.293530	498.753	NaN	0.000000	0.001571	0.001706	28.0841	102.97	0.001836	56076.9	3.764145	-8.615133	494.253	1.272520	0.106842	0.106554	498.753	56076.9	0.100171	0.308054	1619.04	92308.9