File: remote_trans/data/nanoindenter/0828-1/data/Data_2025-08-06,11h17m57s/2025-07-22_16-23-58_1_190.txt
2025-07-22, 16:23:58, 1
Index	Phase	Displacement	Time	Pos X	Pos Y	Pos Z	Rot A	Rot B	Piezo Z	Force A	Force B	Gripper	Voltage A	Voltage B	Temperature	Amplitude force	Amplitude pos	Stiffness	Phase shift	Phase excitation	Force A raw	Displacement raw	HMax	HMax raw	Real Force	Real Stiffness	Contact Depth	Area	Hardness	Reduced Mod.
[#]	[#]	[um]	[s]	[um]	[um]	[um]	[m°]	[m°]	[um]	[uN]	[uN]	[V]	[V]	[V]	[°C]	[uN]	[um]	[N/m]	[°]	[°]	[uN]	[um]	[um]	[um]	[uN]	[N/m]	[um]	[um^2]	[MPa]	[MPa]
190	1.000000	0.002615	7.3669e+06	-48139.1	955.817	-29763.8	0.000000	0.000000	6.002797	0.021229	NaN	0.000000	0.001688	0.001857	28.0793	0.072947	0.000922	79.104	-162.634	-167.848	0.035050	0.001343	-1.148834	-1.150106	0.021229	79.104	-1.149035	-2.279731E+15	-9.312093E-18	NaN
190	1.000000	0.012720	7.3669e+06	-48139.1	955.818	-29763.8	0.000000	0.000000	6.012902	0.022837	NaN	0.000000	0.001645	0.001786	28.0798	0.076875	0.001313	58.5551	55.6419	17.6092	0.022906	0.011267	-1.138729	-1.140182	0.022837	58.5551	-1.139021	-1.673441E+15	-1.364688E-17	NaN
190	1.000000	0.022591	7.3669e+06	-48139.1	955.818	-29763.8	0.000000	0.000000	6.022773	0.030869	NaN	0.000000	0.001673	0.001811	28.0797	0.095513	0.001762	54.2198	95.8784	-166.312	-0.015578	0.021258	-1.128858	-1.130191	0.030869	54.2198	-1.129285	-1.238898E+15	-2.491669E-17	NaN
190	1.000000	0.032574	7.3669e+06	-48139.1	955.818	-29763.8	0.000000	0.000000	6.032754	-0.022213	NaN	0.000000	0.001692	0.001816	28.0797	0.066157	0.001923	34.3995	31.657	16.2347	0.020318	0.031227	-1.118875	-1.120222	-0.022213	34.3995	-1.118390	-8.848610E+14	2.510349E-17	NaN
190	1.000000	0.042555	7.3669e+06	-48139.1	955.818	-29763.8	0.000000	0.000000	6.042734	-0.044508	NaN	0.000000	0.001710	0.001836	28.0798	0.069311	0.001852	37.4203	51.1591	-164.348	0.081236	0.041242	-1.108894	-1.110206	-0.044508	37.4203	-1.108002	-6.419006E+14	6.933779E-17	NaN
190	1.000000	0.052573	7.3669e+06	-48139.1	955.818	-29763.8	0.000000	0.000000	6.052752	-0.048561	NaN	0.000000	0.001688	0.001841	28.0796	0.047778	0.001885	25.3501	32.4381	13.8277	-0.072832	0.051245	-1.098876	-1.100203	-0.048561	25.3501	-1.097439	-4.631166E+14	1.048563E-16	NaN
190	1.000000	0.062569	7.3669e+06	-48139.1	955.818	-29763.8	0.000000	0.000000	6.062752	0.040197	NaN	0.000000	0.001660	0.001848	28.0798	0.035924	0.001959	18.3351	40.6269	-163.024	-0.001302	0.061260	-1.088880	-1.090188	0.040197	18.3351	-1.090524	-3.739801E+14	-1.074842E-16	NaN
190	1.000000	0.072576	7.3669e+06	-48139.1	955.819	-29763.8	0.000000	0.000000	6.072755	-0.045147	NaN	0.000000	0.001678	0.001849	28.0798	0.058051	0.001951	29.761	98.2026	15.564	-0.034597	0.071235	-1.078873	-1.080214	-0.045147	29.761	-1.077735	-2.518245E+14	1.792809E-16	NaN
190	1.000000	0.082584	7.3669e+06	-48139.1	955.818	-29763.8	0.000000	0.000000	6.082765	0.010683	NaN	0.000000	0.001694	0.001836	28.0797	0.068519	0.002041	33.5795	-45.6817	-167.329	0.005198	0.081270	-1.068865	-1.070179	0.010683	33.5795	-1.069103	-1.928159E+14	-5.540528E-17	NaN
190	1.000000	0.092569	7.3669e+06	-48139.1	955.818	-29763.8	0.000000	0.000000	6.092749	-0.020914	NaN	0.000000	0.001646	0.001842	28.0796	0.116895	0.001989	58.7603	97.2015	17.0791	-0.032630	0.091236	-1.058879	-1.060213	-0.020914	58.7603	-1.058612	-1.393712E+14	1.500632E-16	NaN
190	1.000000	0.102597	7.3669e+06	-48139.1	955.818	-29763.8	0.000000	0.000000	6.102779	0.025466	NaN	0.000000	0.001667	0.001834	28.0785	0.031452	0.001939	16.2222	33.8362	-167.018	-0.029564	0.101277	-1.048852	-1.050172	0.025466	16.2222	-1.050029	-1.068579E+14	-2.383196E-16	NaN
190	1.000000	0.112593	7.3669e+06	-48139.1	955.818	-29763.8	0.000000	0.000000	6.112772	-0.060343	NaN	0.000000	0.001645	0.001814	28.0785	0.040203	0.001986	20.2424	55.5137	12.0583	-0.021572	0.111182	-1.038855	-1.040266	-0.060343	20.2424	-1.036620	-7.055231E+13	8.552897E-16	NaN
190	1.000000	0.122560	7.3669e+06	-48139.1	955.819	-29763.8	0.000000	0.000000	6.122742	0.037747	NaN	0.000000	0.001663	0.001833	28.0788	0.039540	0.001910	20.7047	102.494	-162.406	0.015273	0.121249	-1.028889	-1.030200	0.037747	20.7047	-1.030256	-5.793331E+13	-6.515537E-16	NaN
190	1.000000	0.132605	7.3669e+06	-48139.1	955.819	-29763.8	0.000000	0.000000	6.132788	0.066676	NaN	0.000000	0.001622	0.001841	28.0786	0.096168	0.002025	47.5004	23.64	16.1014	0.059875	0.131203	-1.018844	-1.020246	0.066676	47.5004	-1.019897	-4.203040E+13	-1.586367E-15	NaN
190	1.000000	0.142599	7.3669e+06	-48139.1	955.818	-29763.8	0.000000	0.000000	6.142780	-0.005640	NaN	0.000000	0.001608	0.001855	28.0783	0.043483	0.002059	21.1141	70.1217	-164.964	-0.037689	0.141306	-1.008850	-1.010142	-0.005640	21.1141	-1.008650	-2.966241E+13	1.901319E-16	NaN
190	1.000000	0.152588	7.3669e+06	-48139.1	955.818	-29763.8	0.000000	0.000000	6.152766	-0.052994	NaN	0.000000	0.001647	0.001818	28.0783	0.025481	0.002049	12.4327	-143.381	11.6786	-0.010369	0.151208	-0.998861	-1.000241	-0.052994	12.4327	-0.995664	-1.983306E+13	2.671986E-15	NaN
190	1.000000	0.162576	7.3669e+06	-48139.1	955.819	-29763.8	0.000000	0.000000	6.162757	0.007790	NaN	0.000000	0.001627	0.001854	28.0785	0.076068	0.001914	39.741	135.183	-168.416	-0.063073	0.161275	-0.988873	-0.990174	0.007790	39.741	-0.989020	-1.614048E+13	-4.826577E-16	NaN
190	1.000000	0.172626	7.3669e+06	-48139.1	955.818	-29763.8	0.000000	0.000000	6.172807	-0.005985	NaN	0.000000	0.001638	0.001835	28.0786	0.089786	0.001844	48.6995	63.083	13.6595	-0.011547	0.171316	-0.978822	-0.980133	-0.005985	48.6995	-0.978730	-1.173014E+13	5.102455E-16	NaN
190	1.000000	0.182622	7.3669e+06	-48139.1	955.819	-29763.8	0.000000	0.000000	6.182805	0.053666	NaN	0.000000	0.001659	0.001833	28.0784	0.118842	0.001942	61.2016	-149.127	-164.421	0.085168	0.181269	-0.968827	-0.970180	0.053666	61.2016	-0.969484	-8.804675E+12	-6.095142E-15	NaN
190	1.000000	0.192645	7.3669e+06	-48139.1	955.818	-29763.8	0.000000	0.000000	6.192827	0.030974	NaN	0.000000	0.001656	0.001832	28.0805	0.012319	0.001950	6.317466	-11.4828	15.1811	0.044016	0.191273	-0.958804	-0.960176	0.030974	6.317466	-0.962481	-7.084676E+12	-4.371972E-15	NaN
190	1.000000	0.202641	7.3669e+06	-48139.1	955.819	-29763.8	0.000000	0.000000	6.202824	0.046340	NaN	0.000000	0.001635	0.001797	28.0815	0.066046	0.002028	32.5642	10.8236	-163.695	0.004545	0.201311	-0.948808	-0.950138	0.046340	32.5642	-0.949875	-4.790056E+12	-9.674112E-15	NaN
190	1.000000	0.212614	7.3669e+06	-48139.1	955.818	-29763.8	0.000000	0.000000	6.212793	-0.054517	NaN	0.000000	0.001630	0.001811	28.0796	0.043125	0.002020	21.3509	-83.1569	13.7367	-0.089288	0.211251	-0.938834	-0.940198	-0.054517	21.3509	-0.936919	-3.203108E+12	1.701995E-14	NaN
190	1.000000	0.222617	7.3669e+06	-48139.1	955.818	-29763.8	0.000000	0.000000	6.222798	-0.003042	NaN	0.000000	0.001661	0.001800	28.0786	0.052672	0.001866	28.2288	146.906	-160.903	-0.032803	0.221346	-0.928832	-0.930102	-0.003042	28.2288	-0.928751	-2.485076E+12	1.223946E-15	NaN
190	1.000000	0.232658	7.3669e+06	-48139.1	955.818	-29763.8	0.000000	0.000000	6.232839	-0.004992	NaN	0.000000	0.001632	0.001831	28.0801	0.107085	0.002025	52.8892	5.126373	13.4052	0.055839	0.231305	-0.918791	-0.920144	-0.004992	52.8892	-0.918720	-1.819365E+12	2.743886E-15	NaN
190	1.000000	0.242635	7.3669e+06	-48139.1	955.819	-29763.8	0.000000	0.000000	6.242816	-0.006948	NaN	0.000000	0.001676	0.001838	28.0796	0.056061	0.001995	28.0955	100.773	-165.612	-0.012863	0.241357	-0.908814	-0.910092	-0.006948	28.0955	-0.908628	-1.329335E+12	5.226618E-15	NaN
190	1.000000	0.252639	7.3669e+06	-48139.1	955.819	-29763.8	0.000000	0.000000	6.252819	-0.024165	NaN	0.000000	0.001663	0.001801	28.0799	0.190818	0.001950	97.8461	-86.0798	13.2627	0.016049	0.251293	-0.898810	-0.900156	-0.024165	97.8461	-0.898624	-9.738178E+11	2.481444E-14	NaN
190	1.000000	0.262650	7.3669e+06	-48139.1	955.819	-29763.8	0.000000	0.000000	6.262829	-0.037645	NaN	0.000000	0.001676	0.001831	28.0796	0.075198	0.001970	38.1788	-109.214	-166.571	-0.087442	0.261358	-0.888799	-0.890091	-0.037645	38.1788	-0.888059	-7.009384E+11	5.370659E-14	NaN
190	1.000000	0.272657	7.3669e+06	-48139.1	955.818	-29763.8	0.000000	0.000000	6.272837	-0.026322	NaN	0.000000	0.001665	0.001808	28.0798	0.067045	0.002002	33.4835	136.329	12.665	-0.045714	0.271311	-0.878792	-0.880138	-0.026322	33.4835	-0.878202	-5.156984E+11	5.104147E-14	NaN
190	1.000000	0.282657	7.3669e+06	-48139.1	955.819	-29763.8	0.000000	0.000000	6.282839	0.024696	NaN	0.000000	0.001683	0.001796	28.0799	0.033535	0.002031	16.5085	-68.5421	-164.149	0.047538	0.281345	-0.868791	-0.870104	0.024696	16.5085	-0.869913	-3.983572E+11	-6.199483E-14	NaN
190	1.000000	0.292643	7.3669e+06	-48139.1	955.819	-29763.8	0.000000	0.000000	6.292825	0.017771	NaN	0.000000	0.001675	0.001772	28.0799	0.007843	0.001877	4.178818	28.2123	14.7402	0.014000	0.291304	-0.858806	-0.860145	0.017771	4.178818	-0.861995	-3.112617E+11	-5.709292E-14	NaN
190	1.000000	0.302685	7.3669e+06	-48139.1	955.818	-29763.8	0.000000	0.000000	6.302864	-0.042471	NaN	0.000000	0.001683	0.001816	28.0799	0.033357	0.001856	17.9704	-79.587	-166.609	-0.032790	0.301374	-0.848764	-0.850075	-0.042471	17.9704	-0.846992	-1.949841E+11	2.178203E-13	NaN
190	1.000000	0.312691	7.3669e+06	-48139.1	955.818	-29763.8	0.000000	0.000000	6.312875	0.081346	NaN	0.000000	0.001671	0.001805	28.0798	0.136350	0.002078	65.608	-38.6798	15.9521	0.065661	0.311312	-0.838758	-0.840137	0.081346	65.608	-0.839688	-1.552630E+11	-5.239217E-13	NaN
190	1.000000	0.322674	7.3669e+06	-48139.1	955.82	-29763.8	0.000000	0.000000	6.322855	-0.009530	NaN	0.000000	0.001657	0.001819	28.0799	0.067164	0.002026	33.1536	137.47	-166.471	-0.105025	0.321335	-0.828774	-0.830114	-0.009530	33.1536	-0.828559	-1.097108E+11	8.686579E-14	NaN
190	1.000000	0.332697	7.3669e+06	-48139.1	955.818	-29763.8	0.000000	0.000000	6.332879	0.030719	NaN	0.000000	0.001632	0.001788	28.0797	0.100002	0.002022	49.4487	-91.375	15.5999	0.065020	0.331319	-0.818752	-0.820130	0.030719	49.4487	-0.819218	-8.196040E+10	-3.748030E-13	NaN
190	1.000000	0.342694	7.3669e+06	-48139.1	955.818	-29763.8	0.000000	0.000000	6.342875	-0.005168	NaN	0.000000	0.001652	0.001801	28.0797	0.058620	0.001990	29.4601	-0.096394	-163.152	0.023269	0.341357	-0.808755	-0.810092	-0.005168	29.4601	-0.808623	-5.886971E+10	8.779246E-14	NaN
190	1.000000	0.352676	7.3669e+06	-48139.1	955.818	-29763.8	0.000000	0.000000	6.352861	0.090266	NaN	0.000000	0.001658	0.001838	28.08	0.018719	0.001986	9.427480	171.268	16.2696	0.091999	0.351346	-0.798773	-0.800103	0.090266	9.427480	-0.805954	-5.415890E+10	-1.666689E-12	NaN
190	1.000000	0.362705	7.3669e+06	-48139.1	955.819	-29763.8	0.000000	0.000000	6.362887	0.019402	NaN	0.000000	0.001635	0.001832	28.0799	0.133123	0.002000	66.555	-170.365	-167.547	-0.028183	0.361404	-0.788743	-0.790045	0.019402	66.555	-0.788962	-3.184104E+10	-6.093313E-13	NaN
190	1.000000	0.372672	7.3669e+06	-48139.1	955.819	-29763.8	0.000000	0.000000	6.372852	-0.033132	NaN	0.000000	0.001672	0.001781	28.0787	0.143782	0.001993	72.148	-80.9535	15.4895	-0.078102	0.371331	-0.778777	-0.780117	-0.033132	72.148	-0.778432	-2.290491E+10	1.446481E-12	NaN
190	1.000000	0.382709	7.3669e+06	-48139.1	955.819	-29763.8	0.000000	0.000000	6.382890	-0.018366	NaN	0.000000	0.001644	0.001807	28.0786	0.077703	0.002009	38.6689	-133.509	-164.304	-0.038907	0.381418	-0.768739	-0.770030	-0.018366	38.6689	-0.768383	-1.672328E+10	1.098257E-12	NaN
190	1.000000	0.392739	7.3669e+06	-48139.1	955.818	-29763.8	0.000000	0.000000	6.392920	-0.013655	NaN	0.000000	0.001622	0.001785	28.0787	0.066625	0.001945	34.2594	-159.721	14.6174	-0.030789	0.391335	-0.758710	-0.760114	-0.013655	34.2594	-0.758411	-1.223711E+10	1.115888E-12	NaN
190	1.000000	0.402729	7.3669e+06	-48139.1	955.819	-29763.8	0.000000	0.000000	6.402910	-0.002392	NaN	0.000000	0.001632	0.001787	28.0787	0.052543	0.002031	25.8648	-179.615	-163.346	0.010817	0.401440	-0.748720	-0.750009	-0.002392	25.8648	-0.748650	-9.012564E+9	2.654193E-13	NaN
190	1.000000	0.412714	7.3669e+06	-48139.1	955.819	-29763.8	0.000000	0.000000	6.412896	0.033713	NaN	0.000000	0.001657	0.001793	28.0787	0.046107	0.002081	22.1522	146.2	14.1527	0.066542	0.411388	-0.738735	-0.740061	0.033713	22.1522	-0.739876	-6.844962E+9	-4.925157E-12	NaN
190	1.000000	0.422702	7.3669e+06	-48139.1	955.819	-29763.8	0.000000	0.000000	6.422885	0.062440	NaN	0.000000	0.001647	0.001802	28.0788	0.041948	0.001907	21.9993	125.209	-165.344	0.071831	0.421396	-0.728747	-0.730052	0.062440	21.9993	-0.730876	-5.161157E+9	-1.209809E-11	NaN
190	1.000000	0.432697	7.3669e+06	-48139.1	955.818	-29763.8	0.000000	0.000000	6.432876	-0.041100	NaN	0.000000	0.001688	0.001786	28.0792	0.033490	0.001932	17.3313	70.4339	13.7523	-0.075901	0.431420	-0.718752	-0.720029	-0.041100	17.3313	-0.716973	-3.335698E+9	1.232128E-11	NaN
190	1.000000	0.442735	7.3669e+06	-48139.1	955.819	-29763.8	0.000000	0.000000	6.442917	0.029128	NaN	0.000000	0.001669	0.001810	28.0786	0.097070	0.002144	45.2699	-141.596	-163.796	0.064127	0.441433	-0.708714	-0.710016	0.029128	45.2699	-0.709197	-2.612684E+9	-1.114859E-11	NaN
190	1.000000	0.452757	7.3669e+06	-48139.1	955.819	-29763.8	0.000000	0.000000	6.452938	0.005065	NaN	0.000000	0.001649	0.001824	28.0786	0.158956	0.002133	74.5319	-95.6869	12.4119	0.038792	0.451366	-0.698692	-0.700083	0.005065	74.5319	-0.698743	-1.880892E+9	-2.692995E-12	NaN
190	1.000000	0.462739	7.3669e+06	-48139.1	955.818	-29763.8	0.000000	0.000000	6.462919	-0.022372	NaN	0.000000	0.001678	0.001803	28.0786	0.101756	0.001973	51.5764	-48.0584	-165.852	0.013344	0.461457	-0.688710	-0.689992	-0.022372	51.5764	-0.688384	-1.357803E+9	1.647675E-11	NaN
190	1.000000	0.472764	7.3669e+06	-48139.1	955.819	-29763.8	0.000000	0.000000	6.472943	-0.056291	NaN	0.000000	0.001662	0.001810	28.0788	0.083034	0.002017	41.1677	-88.874	14.6635	-0.081698	0.471420	-0.678685	-0.680029	-0.056291	41.1677	-0.677659	-9.686995E+8	5.810947E-11	NaN
190	1.000000	0.482756	7.3669e+06	-48139.1	955.818	-29763.8	0.000000	0.000000	6.482938	0.045627	NaN	0.000000	0.001673	0.001816	28.0786	0.036615	0.001997	18.334	-165.159	-163.353	0.055112	0.481459	-0.668693	-0.669990	0.045627	18.334	-0.670560	-7.745541E+8	-5.890755E-11	NaN
190	1.000000	0.492747	7.3669e+06	-48139.1	955.82	-29763.8	0.000000	0.000000	6.492927	-0.007367	NaN	0.000000	0.001678	0.001798	28.0787	0.057140	0.002031	28.1395	76.6632	18.2255	-0.040220	0.491400	-0.658702	-0.660049	-0.007367	28.1395	-0.658506	-5.296607E+8	1.390845E-11	NaN
190	1.000000	0.502784	7.3669e+06	-48139.1	955.819	-29763.8	0.000000	0.000000	6.502965	0.011667	NaN	0.000000	0.001665	0.001804	28.0789	0.090819	0.001895	47.9211	64.2237	-163.71	-0.051518	0.501438	-0.648665	-0.650010	0.011667	47.9211	-0.648848	-3.905161E+8	-2.987512E-11	NaN
190	1.000000	0.512755	7.3669e+06	-48139.1	955.819	-29763.8	0.000000	0.000000	6.512937	0.037242	NaN	0.000000	0.001677	0.001798	28.0799	0.043048	0.002070	20.7989	74.3492	16.5641	0.014454	0.511398	-0.638694	-0.640051	0.037242	20.7989	-0.640037	-2.956640E+8	-1.259616E-10	NaN
190	1.000000	0.522768	7.3669e+06	-48139.1	955.818	-29763.8	0.000000	0.000000	6.522950	0.035709	NaN	0.000000	0.001658	0.001783	28.08	0.089415	0.001968	45.442	-89.2074	-165.471	0.014653	0.521489	-0.628681	-0.629960	0.035709	45.442	-0.629270	-2.103795E+8	-1.697385E-10	NaN
190	1.000000	0.532764	7.3669e+06	-48139.1	955.817	-29763.8	0.000000	0.000000	6.532944	-0.020324	NaN	0.000000	0.001634	0.001796	28.0797	0.128672	0.002004	64.2034	-167.72	16.4299	-0.020547	0.531394	-0.618685	-0.620055	-0.020324	64.2034	-0.618447	-1.493781E+8	1.360580E-10	NaN
190	1.000000	0.542754	7.3669e+06	-48139.1	955.819	-29763.8	0.000000	0.000000	6.542934	-0.024769	NaN	0.000000	0.001647	0.001815	28.0802	0.115170	0.001983	58.068	-95.0911	-164.809	-0.027410	0.541443	-0.608695	-0.610006	-0.024769	58.068	-0.608375	-1.085820E+8	2.281127E-10	NaN
190	1.000000	0.552796	7.3669e+06	-48139.1	955.819	-29763.8	0.000000	0.000000	6.552976	-0.030788	NaN	0.000000	0.001616	0.001787	28.0796	0.042170	0.001970	21.4063	16.8513	13.8049	-0.003142	0.551448	-0.598653	-0.600000	-0.030788	21.4063	-0.597574	-7.709796E+7	3.993366E-10	NaN
190	1.000000	0.562794	7.3669e+06	-48139.1	955.819	-29763.8	0.000000	0.000000	6.562974	-0.015238	NaN	0.000000	0.001634	0.001794	28.0798	0.042380	0.001999	21.2049	-112.673	-164.299	0.008375	0.561494	-0.588655	-0.589955	-0.015238	21.2049	-0.588116	-5.710752E+7	2.668295E-10	NaN
190	1.000000	0.572781	7.3669e+06	-48139.1	955.818	-29763.8	0.000000	0.000000	6.572962	-0.002603	NaN	0.000000	0.001648	0.001788	28.0797	0.079307	0.002106	37.656	-51.0379	16.1736	-0.018040	0.571420	-0.578667	-0.580029	-0.002603	37.656	-0.578616	-4.222956E+7	6.164794E-11	NaN
190	1.000000	0.582792	7.3669e+06	-48139.1	955.818	-29763.8	0.000000	0.000000	6.582975	0.049025	NaN	0.000000	0.001595	0.001750	28.08	0.098334	0.002003	49.0917	-43.5627	-163.18	0.063388	0.581497	-0.568657	-0.569952	0.049025	49.0917	-0.569406	-3.150782E+7	-1.555957E-9	NaN
190	1.000000	0.592791	7.3669e+06	-48139.1	955.819	-29763.8	0.000000	0.000000	6.592972	-0.000107	NaN	0.000000	0.001613	0.001772	28.0796	0.042638	0.001952	21.8451	-10.7934	17.2244	0.022621	0.591436	-0.558657	-0.560013	-0.000107	21.8451	-0.558654	-2.237452E+7	4.788549E-12	NaN
190	1.000000	0.602806	7.3669e+06	-48139.1	955.818	-29763.8	0.000000	0.000000	6.602986	-0.029268	NaN	0.000000	0.001618	0.001799	28.0797	0.039981	0.002031	19.6877	157.999	-164.111	-0.137994	0.601458	-0.548643	-0.549991	-0.029268	19.6877	-0.547528	-1.569303E+7	1.865050E-9	NaN
190	1.000000	0.612792	7.3669e+06	-48139.1	955.819	-29763.8	0.000000	0.000000	6.612974	0.038265	NaN	0.000000	0.001603	0.001798	28.0796	0.120790	0.002035	59.3549	125.349	14.2281	0.085857	0.611439	-0.538657	-0.540010	0.038265	59.3549	-0.539141	-1.200708E+7	-3.186861E-9	NaN
190	1.000000	0.622812	7.3669e+06	-48139.1	955.819	-29763.8	0.000000	0.000000	6.622995	0.053947	NaN	0.000000	0.001595	0.001795	28.0796	0.054712	0.002044	26.7607	-162.878	-166.626	0.049408	0.621547	-0.528637	-0.529902	0.053947	26.7607	-0.530149	-9.00827e+06	-5.988573E-9	NaN
190	1.000000	0.632836	7.3669e+06	-48139.1	955.818	-29763.8	0.000000	0.000000	6.633018	0.027836	NaN	0.000000	0.001581	0.001776	28.0796	0.051379	0.001891	27.1709	-99.3041	13.3481	0.044025	0.631497	-0.518613	-0.519952	0.027836	27.1709	-0.519381	-6.38246e+06	-4.361280E-9	NaN
190	1.000000	0.642795	7.3669e+06	-48139.1	955.818	-29763.8	0.000000	0.000000	6.642978	0.062041	NaN	0.000000	0.001609	0.001774	28.0783	0.046701	0.002044	22.8494	91.5824	-168.221	0.042389	0.641537	-0.508654	-0.509912	0.062041	22.8494	-0.510690	-4.83095e+06	-1.284235E-8	NaN
190	1.000000	0.652796	7.3669e+06	-48139.1	955.818	-29763.8	0.000000	0.000000	6.652976	-0.015621	NaN	0.000000	0.001596	0.001790	28.0785	0.115383	0.002050	56.2787	-85.8484	12.878	0.035149	0.651391	-0.498653	-0.500058	-0.015621	56.2787	-0.498445	-3.26078e+06	4.790440E-9	NaN
190	1.000000	0.662825	7.3669e+06	-48139.1	955.818	-29763.8	0.000000	0.000000	6.663006	0.004453	NaN	0.000000	0.001611	0.001788	28.0784	0.023493	0.002094	11.2165	-56.8141	-160.695	0.078379	0.661454	-0.488624	-0.489995	0.004453	11.2165	-0.488922	-2.40061e+06	-1.855130E-9	NaN
190	1.000000	0.672841	7.3669e+06	-48139.1	955.818	-29763.8	0.000000	0.000000	6.673018	-0.098185	NaN	0.000000	0.001629	0.001795	28.0782	0.078493	0.001933	40.6017	108.388	17.1866	-0.040882	0.671434	-0.478607	-0.480015	-0.098185	40.6017	-0.476794	-1.62416e+06	6.045261E-8	NaN
190	1.000000	0.682843	7.3669e+06	-48139.1	955.819	-29763.8	0.000000	0.000000	6.683025	0.034330	NaN	0.000000	0.001624	0.001818	28.0783	0.052379	0.002007	26.1027	41.856	-162.911	-0.050314	0.681562	-0.468606	-0.469887	0.034330	26.1027	-0.469592	-1.28733e+06	-2.666769E-8	NaN
190	1.000000	0.692836	7.3669e+06	-48139.1	955.818	-29763.8	0.000000	0.000000	6.693019	0.060530	NaN	0.000000	0.001626	0.001775	28.0785	0.110473	0.002063	53.5524	-143.139	15.085	0.070205	0.691486	-0.458613	-0.459962	0.060530	53.5524	-0.459461	-927775	-6.524178E-8	NaN
190	1.000000	0.702879	7.3669e+06	-48139.1	955.818	-29763.8	0.000000	0.000000	6.703060	-0.015813	NaN	0.000000	0.001611	0.001812	28.0784	0.050583	0.002050	24.6698	-135.452	-163.732	-0.008341	0.701585	-0.448569	-0.449864	-0.015813	24.6698	-0.448089	-641832	2.463670E-8	NaN
190	1.000000	0.712869	7.3669e+06	-48139.1	955.819	-29763.8	0.000000	0.000000	6.713050	0.001346	NaN	0.000000	0.001612	0.001802	28.0782	0.094590	0.002006	47.1619	24.4762	17.0608	-0.102477	0.711458	-0.438579	-0.439991	0.001346	47.1619	-0.438601	-471643	-2.854851E-9	NaN
190	1.000000	0.722830	7.3669e+06	-48139.1	955.819	-29763.8	0.000000	0.000000	6.723014	0.083109	NaN	0.000000	0.001603	0.001798	28.0785	0.038852	0.001946	19.96	-83.0155	-169.058	0.131242	0.721528	-0.428619	-0.429920	0.083109	19.96	-0.431742	-377308	-2.202685E-7	NaN
190	1.000000	0.732870	7.3669e+06	-48139.1	955.819	-29763.8	0.000000	0.000000	6.733049	-0.029403	NaN	0.000000	0.001607	0.001813	28.0784	0.067925	0.001894	35.8585	-144.643	14.2351	-0.006005	0.731519	-0.418579	-0.419930	-0.029403	35.8585	-0.417964	-240732	1.221415E-7	NaN
190	1.000000	0.742847	7.3669e+06	-48139.1	955.819	-29763.8	0.000000	0.000000	6.743029	0.034931	NaN	0.000000	0.001584	0.001825	28.0785	0.070706	0.002165	32.6536	-49.5815	-165.109	0.062910	0.741554	-0.408602	-0.409895	0.034931	32.6536	-0.409404	-181940	-1.919927E-7	NaN
190	1.000000	0.752858	7.36691e+06	-48139.1	955.819	-29763.8	0.000000	0.000000	6.753041	0.041536	NaN	0.000000	0.001638	0.001822	28.0784	0.128960	0.001911	67.4699	-73.4594	13.7131	0.103148	0.751530	-0.398591	-0.399919	0.041536	67.4699	-0.399052	-129562	-3.205913E-7	NaN
190	1.000000	0.762844	7.36691e+06	-48139.1	955.818	-29763.8	0.000000	0.000000	6.763023	-0.047406	NaN	0.000000	0.001603	0.001810	28.0784	0.052253	0.001893	27.6077	-29.5076	-165.794	-0.052256	0.761572	-0.388605	-0.389877	-0.047406	27.6077	-0.387317	-88057.7	5.383558E-7	NaN
190	1.000000	0.772879	7.36691e+06	-48139.1	955.818	-29763.8	0.000000	0.000000	6.773063	0.063037	NaN	0.000000	0.001615	0.001761	28.0785	0.079595	0.002064	38.5673	-166.855	16.3184	0.052681	0.771546	-0.378569	-0.379903	0.063037	38.5673	-0.379795	-68699.2	-9.175764E-7	NaN
190	1.000000	0.782874	7.36691e+06	-48139.1	955.818	-29763.8	0.000000	0.000000	6.783061	0.127248	NaN	0.000000	0.001575	0.001804	28.0795	0.055404	0.002165	25.5956	-42.0612	-164.23	0.053225	0.781603	-0.368574	-0.369846	0.127248	25.5956	-0.372303	-53614.3	-2.373387E-6	NaN
190	1.000000	0.792892	7.36691e+06	-48139.1	955.817	-29763.8	0.000000	0.000000	6.793075	0.059974	NaN	0.000000	0.001600	0.001784	28.0795	0.041705	0.002000	20.8476	80.3748	18.5993	0.075726	0.791509	-0.358557	-0.359940	0.059974	20.8476	-0.360714	-36489.7	-1.643578E-6	NaN
190	1.000000	0.802888	7.36691e+06	-48139.1	955.818	-29763.8	0.000000	0.000000	6.803066	-0.060726	NaN	0.000000	0.001623	0.001769	28.0799	0.146864	0.001978	74.2565	-179.721	-162.097	-0.134019	0.801598	-0.348561	-0.349850	-0.060726	74.2565	-0.347948	-23834.2	2.547851E-6	NaN
190	1.000000	0.812898	7.36691e+06	-48139.1	955.818	-29763.8	0.000000	0.000000	6.813079	0.020748	NaN	0.000000	0.001615	0.001799	28.0796	0.022940	0.001983	11.567	-160.086	15.4866	0.007126	0.811503	-0.338551	-0.339945	0.020748	11.567	-0.339896	-18198.8	-1.140077E-6	NaN
190	1.000000	0.822889	7.36691e+06	-48139.1	955.819	-29763.8	0.000000	0.000000	6.823069	-0.021379	NaN	0.000000	0.001616	0.001811	28.0795	0.114538	0.002092	54.761	-143.256	-164.465	0.002994	0.821570	-0.328560	-0.329879	-0.021379	54.761	-0.328267	-12304.3	1.737514E-6	NaN
190	1.000000	0.832914	7.36691e+06	-48139.1	955.819	-29763.8	0.000000	0.000000	6.833094	-0.033081	NaN	0.000000	0.001612	0.001757	28.0799	0.113104	0.002032	55.6742	82.8485	15.0243	-0.018662	0.831523	-0.318534	-0.319925	-0.033081	55.6742	-0.318089	-8719.52	3.793910E-6	NaN
190	1.000000	0.842940	7.36691e+06	-48139.1	955.819	-29763.8	0.000000	0.000000	6.843120	-0.022087	NaN	0.000000	0.001630	0.001783	28.0799	0.109579	0.002101	52.1526	141.817	-163.204	0.039189	0.841649	-0.308509	-0.309799	-0.022087	52.1526	-0.308192	-6227.02	3.546940E-6	NaN
190	1.000000	0.852900	7.36691e+06	-48139.1	955.818	-29763.8	0.000000	0.000000	6.853080	-0.013323	NaN	0.000000	0.001657	0.001799	28.08	0.097437	0.001955	49.8315	147.501	14.7895	-0.007211	0.851591	-0.298549	-0.299857	-0.013323	49.8315	-0.298349	-4446.71	2.996234E-6	NaN
190	1.000000	0.862911	7.36691e+06	-48139.1	955.818	-29763.8	0.000000	0.000000	6.863092	0.014305	NaN	0.000000	0.001604	0.001815	28.0797	0.095454	0.001785	53.4672	-86.3131	-167.242	0.001488	0.861605	-0.288538	-0.289843	0.014305	53.4672	-0.288738	-3194.43	-4.478149E-6	NaN
190	1.000000	0.872924	7.36691e+06	-48139.1	955.818	-29763.8	0.000000	0.000000	6.873107	0.034193	NaN	0.000000	0.001628	0.001824	28.0802	0.160851	0.002149	74.8649	-2.925733	13.3043	0.004610	0.871501	-0.278525	-0.279948	0.034193	74.8649	-0.278867	-2269.19	-1.506820E-5	NaN
190	1.000000	0.882944	7.36691e+06	-48139.1	955.819	-29763.8	0.000000	0.000000	6.883124	-0.014151	NaN	0.000000	0.001584	0.001814	28.0799	0.122560	0.001987	61.6771	-23.5972	-164.209	0.045409	0.881552	-0.268505	-0.269896	-0.014151	61.6771	-0.268333	-1571.02	9.007508E-6	NaN
190	1.000000	0.892914	7.36691e+06	-48139.1	955.818	-29763.8	0.000000	0.000000	6.893095	0.001090	NaN	0.000000	0.001580	0.001822	28.0801	0.189541	0.001970	96.1981	-115.308	15.4741	-0.065664	0.891566	-0.258534	-0.259883	0.001090	96.1981	-0.258543	-1113.19	-9.792340E-7	NaN
190	1.000000	0.902944	7.36691e+06	-48139.1	955.818	-29763.8	0.000000	0.000000	6.903124	-0.020538	NaN	0.000000	0.001590	0.001839	28.08	0.105688	0.002044	51.7048	-8.982745	-160.986	-0.054848	0.901618	-0.248505	-0.249831	-0.020538	51.7048	-0.248207	-771.274	2.662854E-5	NaN
190	1.000000	0.912948	7.36691e+06	-48139.1	955.818	-29763.8	0.000000	0.000000	6.913127	-0.048640	NaN	0.000000	0.001603	0.001831	28.08	0.073298	0.001794	40.8527	-121.264	13.3642	-0.043848	0.911597	-0.238501	-0.239852	-0.048640	40.8527	-0.237608	-527.401	9.222539E-5	NaN
190	1.000000	0.922914	7.36691e+06	-48139.1	955.818	-29763.8	0.000000	0.000000	6.923092	-0.083637	NaN	0.000000	0.001598	0.001784	28.0787	0.054387	0.002072	26.2473	3.974371	-164.276	-0.101622	0.921622	-0.228534	-0.229827	-0.083637	26.2473	-0.226144	-347.937	0.000240	NaN
190	1.000000	0.932941	7.36691e+06	-48139.1	955.818	-29763.8	0.000000	0.000000	6.933121	-0.039835	NaN	0.000000	0.001556	0.001839	28.0787	0.096328	0.002021	47.6576	-134.817	14.801	-0.034615	0.931562	-0.218507	-0.219887	-0.039835	47.6576	-0.217880	-256.896	0.000155	NaN
190	1.000000	0.942941	7.36691e+06	-48139.1	955.818	-29763.8	0.000000	0.000000	6.943119	-0.068710	NaN	0.000000	0.001625	0.001775	28.0787	0.098848	0.002091	47.2732	-42.3045	-163.33	0.015591	0.941623	-0.208508	-0.209826	-0.068710	47.2732	-0.207417	-174.149	0.000395	NaN
190	1.000000	0.952937	7.36691e+06	-48139.1	955.818	-29763.8	0.000000	0.000000	6.953116	-0.042384	NaN	0.000000	0.001596	0.001802	28.0788	0.069499	0.002023	34.3482	-97.8019	16.4034	-0.128606	0.951573	-0.198512	-0.199875	-0.042384	34.3482	-0.197586	-120.213	0.000353	NaN
190	1.000000	0.962981	7.36691e+06	-48139.1	955.819	-29763.8	0.000000	0.000000	6.963160	-0.026077	NaN	0.000000	0.001643	0.001812	28.0785	0.027565	0.001926	14.3103	-99.5232	-163.965	0.089529	0.961626	-0.188468	-0.189823	-0.026077	14.3103	-0.187102	-80.4427	0.000324	NaN
190	1.000000	0.972934	7.36691e+06	-48139.1	955.819	-29763.8	0.000000	0.000000	6.973114	-0.015458	NaN	0.000000	0.001646	0.001777	28.0784	0.085558	0.002024	42.2709	112.872	13.7355	-0.001765	0.971608	-0.178515	-0.179841	-0.015458	42.2709	-0.178241	-56.9484	0.000271	NaN
190	1.000000	0.982949	7.36691e+06	-48139.1	955.819	-29763.8	0.000000	0.000000	6.983129	-0.016606	NaN	0.000000	0.001586	0.001821	28.0784	0.059365	0.001857	31.973	-56.9312	-167.993	-0.100574	0.981659	-0.168500	-0.169790	-0.016606	31.973	-0.168110	-38.083	0.000436	NaN
190	1.000000	0.992958	7.36691e+06	-48139.1	955.818	-29763.8	0.000000	0.000000	6.993137	-0.055121	NaN	0.000000	0.001566	0.001820	28.0786	0.086647	0.002119	40.8966	51.357	15.317	0.020735	0.991641	-0.158491	-0.159807	-0.055121	40.8966	-0.157480	-24.7208	0.002230	NaN
190	1.000000	1.002971	7.36691e+06	-48139.1	955.818	-29763.8	0.000000	0.000000	7.003151	0.000573	NaN	0.000000	0.001595	0.001841	28.0788	0.075427	0.001891	39.8795	24.6461	-164.613	-0.015054	1.001653	-0.148478	-0.149796	0.000573	39.8795	-0.148489	-16.9977	-3.368369E-5	NaN
190	1.000000	1.012999	7.36691e+06	-48139.1	955.818	-29763.8	0.000000	0.000000	7.013178	-0.041788	NaN	0.000000	0.001596	0.001818	28.0785	0.040663	0.001997	20.3592	139.327	12.5497	-0.021572	1.011623	-0.138449	-0.139825	-0.041788	20.3592	-0.136910	-10.3428	0.004040	NaN
190	1.000000	1.023000	7.36691e+06	-48139.1	955.819	-29763.8	0.000000	0.000000	7.023180	-0.009036	NaN	0.000000	0.001625	0.001820	28.0786	0.083549	0.001934	43.2056	-110.797	-167.263	0.044051	1.021706	-0.128449	-0.129743	-0.009036	43.2056	-0.128292	-7.058860	0.001280	NaN
190	1.000000	1.032992	7.36691e+06	-48139.1	955.819	-29763.8	0.000000	0.000000	7.033174	0.025255	NaN	0.000000	0.001658	0.001817	28.079	0.048607	0.001962	24.7716	173.033	12.818	0.126626	1.031616	-0.118457	-0.119833	0.025255	24.7716	-0.119222	-4.659622	-0.005420	NaN
190	1.000000	1.043004	7.36691e+06	-48139.1	955.818	-29763.8	0.000000	0.000000	7.043184	-0.021480	NaN	0.000000	0.001647	0.001809	28.0788	0.026092	0.002104	12.4013	118.902	-165.134	-0.071372	1.041717	-0.108445	-0.109732	-0.021480	12.4013	-0.107146	-2.613889	0.008218	NaN
190	1.000000	1.053013	7.36691e+06	-48139.1	955.818	-29763.8	0.000000	0.000000	7.053193	-0.026788	NaN	0.000000	0.001609	0.001820	28.0798	0.055279	0.001892	29.2109	-25.4696	19.8827	-0.042633	1.051641	-0.098435	-0.099807	-0.026788	29.2109	-0.097748	-1.627572	0.016459	NaN
190	1.000000	1.062990	7.36691e+06	-48139.1	955.818	-29763.8	0.000000	0.000000	7.063171	-0.016063	NaN	0.000000	0.001595	0.001842	28.0802	0.039807	0.002050	19.4183	29.5792	-164.179	-0.017916	1.061690	-0.088458	-0.089759	-0.016063	19.4183	-0.087838	-0.961072	0.016714	NaN
190	1.000000	1.073000	7.36691e+06	-48139.1	955.818	-29763.8	0.000000	0.000000	7.073181	0.019919	NaN	0.000000	0.001609	0.001814	28.0799	0.166475	0.001978	84.1659	48.0272	17.8963	0.056524	1.071631	-0.078449	-0.079818	0.019919	84.1659	-0.078627	-0.571725	-0.034841	NaN
190	1.000000	1.083028	7.36691e+06	-48139.1	955.818	-29763.8	0.000000	0.000000	7.083209	-0.000228	NaN	0.000000	0.001611	0.001829	28.0801	0.039925	0.001977	20.1906	-91.5207	-160.827	-0.031087	1.081711	-0.068421	-0.069738	-0.000228	20.1906	-0.068412	-0.309116	0.000736	NaN
190	1.000000	1.093007	7.36691e+06	-48139.1	955.819	-29763.8	0.000000	0.000000	7.093185	-0.062590	NaN	0.000000	0.001574	0.001813	28.0802	0.022801	0.001850	12.327	-162.749	14.2217	-0.028902	1.091674	-0.058442	-0.059775	-0.062590	12.327	-0.054634	-0.125607	0.498299	NaN
190	1.000000	1.103002	7.36691e+06	-48139.1	955.819	-29763.8	0.000000	0.000000	7.103181	-0.031427	NaN	0.000000	0.001630	0.001766	28.0802	0.142299	0.001918	74.1857	-172.38	-166.389	0.034329	1.101763	-0.048447	-0.049686	-0.031427	74.1857	-0.048129	-0.080073	0.392484	NaN
190	1.000000	1.113019	7.36691e+06	-48139.1	955.818	-29763.8	0.000000	0.000000	7.113200	0.019584	NaN	0.000000	0.001615	0.001787	28.0799	0.124897	0.002050	60.9316	-94.6744	14.6756	0.026062	1.111666	-0.038430	-0.039783	0.019584	60.9316	-0.038671	-0.041219	-0.475129	NaN
190	1.000000	1.123020	7.36691e+06	-48139.1	955.818	-29763.8	0.000000	0.000000	7.123199	-0.032280	NaN	0.000000	0.001607	0.001805	28.0801	0.128217	0.001928	66.5002	108.181	-163.86	-0.034677	1.121702	-0.028429	-0.029746	-0.032280	66.5002	-0.028065	-0.020358	1.585599	NaN
190	1.000000	1.133015	7.36691e+06	-48139.1	955.818	-29763.8	0.000000	0.000000	7.133196	0.006054	NaN	0.000000	0.001587	0.001823	28.0798	0.059534	0.002012	29.588	169.337	17.5425	-0.057631	1.131676	-0.018434	-0.019773	0.006054	29.588	-0.018587	-0.011559	-0.523767	NaN
190	1.000000	1.143005	7.36691e+06	-48139.1	955.818	-29763.8	0.000000	0.000000	7.143186	-0.000592	NaN	0.000000	0.001603	0.001780	28.0803	0.044771	0.002050	21.8434	-141.908	-165.994	0.078154	1.141742	-0.008444	-0.009707	-0.000592	21.8434	-0.008424	-0.005479	0.108111	NaN
190	1.000000	1.153002	7.36691e+06	-48139.1	955.818	-29763.8	0.000000	0.000000	7.153191	0.205190	NaN	0.000000	0.001609	0.001816	28.0797	0.379114	0.002026	187.153	4.431643	11.9059	-0.055499	1.151646	0.001553	0.000197	0.205190	187.153	0.000731	0.000554	370.404	7264.9
190	2.000000	1.162450	7.36691e+06	-48139.1	955.819	-29763.8	0.000000	0.000000	7.162963	8.082250	NaN	0.000000	0.001612	0.001812	28.0798	8.473591	0.001718	4933.47	7.219303	-168.464	7.812799	1.161679	0.011001	0.010230	8.082250	4933.47	0.009772	0.008930	905.106	47699
190	2.000000	1.165154	7.36691e+06	-48139.1	955.818	-29763.8	0.000000	0.000000	7.165799	11.2869	NaN	0.000000	0.001581	0.001790	28.0796	10.82	0.001565	6913.91	6.692622	7.946109	10.5557	1.164743	0.013705	0.013294	11.2869	6913.91	0.012480	0.012071	935.068	57495.2
190	2.000000	1.167593	7.36691e+06	-48139.1	955.819	-29763.8	0.000000	0.000000	7.168422	15.7515	NaN	0.000000	0.001547	0.001820	28.0803	14.1023	0.001649	8553.4	7.287411	-175.032	15.7872	1.167305	0.016144	0.015856	15.7515	8553.4	0.014763	0.014971	1052.14	63868.5
190	2.000000	1.170086	7.36691e+06	-48139.1	955.818	-29763.8	0.000000	0.000000	7.171151	21.5068	NaN	0.000000	0.001611	0.001817	28.0785	17.3358	0.001699	10205.9	5.482609	5.834125	21.5465	1.169719	0.018637	0.018270	21.5068	10205.9	0.017057	0.018127	1186.48	69257.8
190	2.000000	1.172555	7.36691e+06	-48139.1	955.819	-29763.8	0.000000	0.000000	7.173826	26.5112	NaN	0.000000	0.001601	0.001818	28.0787	20.3726	0.001849	11019	6.657788	-176.664	25.8439	1.172265	0.021106	0.020816	26.5112	11019	0.019302	0.021457	1235.57	68727.9
190	2.000000	1.175070	7.36691e+06	-48139.1	955.818	-29763.8	0.000000	0.000000	7.176649	33.9913	NaN	0.000000	0.001608	0.001797	28.0784	23.1788	0.001833	12645	7.820946	1.600816	33.376	1.174650	0.023621	0.023201	33.9913	12645	0.021605	0.025128	1352.73	72880.6
190	2.000000	1.177498	7.36691e+06	-48139.1	955.818	-29763.8	0.000000	0.000000	7.179267	38.6359	NaN	0.000000	0.001621	0.001845	28.0788	25.4861	0.001787	14265.8	6.361672	-179.026	37.6372	1.177281	0.026049	0.025832	38.6359	14265.8	0.024018	0.029253	1320.77	76205.8
190	2.000000	1.180020	7.36691e+06	-48139.1	955.817	-29763.8	0.000000	0.000000	7.182098	46.13	NaN	0.000000	0.001602	0.001861	28.0789	28.6727	0.001775	16150.9	9.113004	-3.495123	44.4262	1.179636	0.028572	0.028187	46.13	16150.9	0.026429	0.033668	1370.16	80420
190	2.000000	1.182528	7.36691e+06	-48139.1	955.818	-29763.8	0.000000	0.000000	7.184869	52.5301	NaN	0.000000	0.001610	0.001839	28.079	30.7831	0.001801	17093	5.573734	-179.129	52.5268	1.182193	0.031079	0.030745	52.5301	17093	0.028774	0.038242	1373.63	79858.6
190	2.000000	1.185023	7.36691e+06	-48139.1	955.817	-29763.8	0.000000	0.000000	7.187819	63.6004	NaN	0.000000	0.001556	0.001789	28.0785	32.2757	0.001827	17665.6	2.593110	3.471915	61.3937	1.184618	0.033574	0.033170	63.6004	17665.6	0.030874	0.042574	1493.87	78221.7
190	2.000000	1.187449	7.36691e+06	-48139.1	955.818	-29763.8	0.000000	0.000000	7.190653	73.5218	NaN	0.000000	0.001600	0.001843	28.0796	34.0121	0.001763	19291.4	-0.864986	-174.522	71.414	1.187225	0.036000	0.035777	73.5218	19291.4	0.033142	0.047508	1547.57	80863.7
190	2.000000	1.190015	7.36691e+06	-48139.1	955.819	-29763.8	0.000000	0.000000	7.193463	79.4791	NaN	0.000000	0.001577	0.001817	28.0785	37.741	0.001771	21305.2	5.722507	-2.146218	78.1926	1.189668	0.038566	0.038219	79.4791	21305.2	0.035768	0.053550	1484.22	84116.5
190	2.000000	1.192493	7.36691e+06	-48139.1	955.818	-29763.8	0.000000	0.000000	7.196329	88.8824	NaN	0.000000	0.001626	0.001856	28.0789	40.7608	0.001880	21676.8	5.738092	177.736	87.8111	1.192205	0.041045	0.040756	88.8824	21676.8	0.037969	0.058886	1509.41	81614
190	2.000000	1.195017	7.36691e+06	-48139.1	955.819	-29763.8	0.000000	0.000000	7.199270	99.0393	NaN	0.000000	0.001631	0.001889	28.0785	42.2582	0.001833	23051.4	2.993979	0.450906	97.705	1.194644	0.043568	0.043195	99.0393	23051.4	0.040346	0.064926	1525.42	82653.5
190	2.000000	1.197501	7.36691e+06	-48139.1	955.818	-29763.8	0.000000	0.000000	7.202291	112.113	NaN	0.000000	0.001607	0.001851	28.0798	44.3422	0.001855	23904.8	5.807654	177.621	111.353	1.197173	0.046052	0.045724	112.113	23904.8	0.042534	0.070742	1584.82	82114.6
190	2.000000	1.199985	7.36691e+06	-48139.1	955.818	-29763.8	0.000000	0.000000	7.205284	124.488	NaN	0.000000	0.001591	0.001829	28.0785	46.8506	0.001680	27882.2	6.137422	-5.133117	122.975	1.199716	0.048536	0.048267	124.488	27882.2	0.045187	0.078120	1593.54	91141.8
190	2.000000	1.202451	7.36691e+06	-48139.1	955.818	-29763.8	0.000000	0.000000	7.208305	137.977	NaN	0.000000	0.001601	0.001846	28.0795	50.8519	0.001738	29254	6.017927	174.509	135.118	1.202176	0.051002	0.050727	137.977	29254	0.047465	0.084739	1628.26	91815.6
190	2.000000	1.205002	7.36691e+06	-48139.1	955.818	-29763.8	0.000000	0.000000	7.211451	152.47	NaN	0.000000	0.001584	0.001845	28.0799	52.5752	0.001771	29687.5	8.031091	-6.774052	150.706	1.204570	0.053553	0.053121	152.47	29687.5	0.049701	0.091492	1666.49	89671.9
190	2.000000	1.207409	7.36691e+06	-48139.1	955.819	-29763.8	0.000000	0.000000	7.214296	163.108	NaN	0.000000	0.001615	0.001833	28.0806	53.7016	0.001762	30479.5	2.390550	177.929	158.723	1.207148	0.055960	0.055699	163.108	30479.5	0.051947	0.098526	1655.49	88716.8
190	2.000000	1.209895	7.36691e+06	-48139.1	955.818	-29763.8	0.000000	0.000000	7.217207	173.444	NaN	0.000000	0.001592	0.001835	28.0798	56.6126	0.001684	33621.6	1.844238	-2.505655	167.653	1.209676	0.058446	0.058227	173.444	33621.6	0.054577	0.107084	1619.7	93870.6
190	2.000000	1.212519	7.36691e+06	-48139.1	955.819	-29763.8	0.000000	0.000000	7.220587	191.826	NaN	0.000000	0.001629	0.001854	28.0805	60.3587	0.001750	34482.8	4.364138	175.93	193.513	1.212091	0.061070	0.060642	191.826	34482.8	0.056898	0.114920	1669.21	92934.8
190	2.000000	1.214910	7.36691e+06	-48139.1	955.819	-29763.8	0.000000	0.000000	7.223649	208.143	NaN	0.000000	0.001613	0.001851	28.0799	61.9228	0.001713	36156.2	4.090994	-4.458734	202.231	1.214502	0.063461	0.063053	208.143	36156.2	0.059144	0.122755	1695.59	94283.6
190	2.000000	1.217410	7.36691e+06	-48139.1	955.819	-29763.8	0.000000	0.000000	7.226652	220.393	NaN	0.000000	0.001592	0.001866	28.0803	65.008	0.001736	37440.3	5.720192	173.539	217.168	1.217155	0.065961	0.065706	220.393	37440.3	0.061546	0.131410	1677.14	94362.2
190	2.000000	1.219945	7.36691e+06	-48139.1	955.819	-29763.8	0.000000	0.000000	7.229922	238.272	NaN	0.000000	0.001575	0.001836	28.0796	67.2201	0.001851	36307.4	3.854138	-3.763029	234.987	1.219584	0.068496	0.068135	238.272	36307.4	0.063574	0.138936	1714.97	88993.9
190	2.000000	1.222446	7.36691e+06	-48139.1	955.819	-29763.8	0.000000	0.000000	7.233005	252.418	NaN	0.000000	0.001569	0.001799	28.0799	69.6991	0.001789	38966.5	0.346591	178.502	249.837	1.222154	0.070997	0.070705	252.418	38966.5	0.066139	0.148736	1697.09	92311.7
190	2.000000	1.224891	7.36691e+06	-48139.1	955.819	-29763.8	0.000000	0.000000	7.236399	275.499	NaN	0.000000	0.001569	0.001852	28.0798	72.5809	0.001811	40075.2	9.090704	-9.831061	271.196	1.224555	0.073442	0.073106	275.499	40075.2	0.068286	0.157187	1752.68	92350.7
190	2.000000	1.227439	7.36691e+06	-48139.1	955.819	-29763.8	0.000000	0.000000	7.239843	297.314	NaN	0.000000	0.001686	0.001886	28.0801	73.5659	0.001866	39434.9	3.308310	176.311	296.049	1.227159	0.075990	0.075710	297.314	39434.9	0.070335	0.165454	1796.96	88575.8
190	2.000000	1.229966	7.36691e+06	-48139.1	955.819	-29763.8	0.000000	0.000000	7.242880	309.696	NaN	0.000000	0.001650	0.001849	28.0801	76.1778	0.001847	41251.4	3.168149	-4.037917	308.249	1.229640	0.078517	0.078191	309.696	41251.4	0.072886	0.176027	1759.37	89830.3
190	2.000000	1.232441	7.36691e+06	-48139.1	955.819	-29763.8	0.000000	0.000000	7.246319	333.144	NaN	0.000000	0.001653	0.001818	28.0798	79.4725	0.001757	45243.1	6.139327	172.048	331.978	1.232079	0.080992	0.080630	333.144	45243.1	0.075469	0.187046	1781.08	95576.4
190	2.000000	1.235005	7.36691e+06	-48139.1	955.818	-29763.8	0.000000	0.000000	7.249658	351.986	NaN	0.000000	0.001706	0.001814	28.0797	80.8255	0.001842	43873.2	5.692354	-6.478958	352.769	1.234569	0.083557	0.083120	351.986	43873.2	0.077539	0.196103	1794.91	90517.2
190	2.000000	1.237489	7.36691e+06	-48139.1	955.818	-29763.8	0.000000	0.000000	7.252897	370.365	NaN	0.000000	0.001686	0.001847	28.0784	83.7404	0.001779	47084.6	7.287658	170.72	370.732	1.237051	0.086040	0.085602	370.365	47084.6	0.080140	0.207766	1782.6	94376.6
190	2.000000	1.239978	7.36691e+06	-48139.1	955.819	-29763.8	0.000000	0.000000	7.255816	380.83	NaN	0.000000	0.001671	0.001844	28.0784	86.4276	0.001727	50043.7	4.771274	-7.798409	380.494	1.239726	0.088529	0.088277	380.83	50043.7	0.082821	0.220118	1730.12	97453
190	2.000000	1.242545	7.36691e+06	-48139.1	955.818	-29763.8	0.000000	0.000000	7.259421	406.066	NaN	0.000000	0.001689	0.001842	28.0787	90.224	0.001779	50725.7	7.149619	170.015	411.875	1.242007	0.091096	0.090558	406.066	50725.7	0.085092	0.230843	1759.06	96459.2
190	2.000000	1.244960	7.36691e+06	-48139.1	955.818	-29763.8	0.000000	0.000000	7.262908	432.136	NaN	0.000000	0.001662	0.001848	28.0786	90.7483	0.001735	52309.4	4.962454	-7.842381	430.222	1.244580	0.093511	0.093131	432.136	52309.4	0.087315	0.241568	1788.88	97237.3
190	2.000000	1.247345	7.36691e+06	-48139.1	955.818	-29763.8	0.000000	0.000000	7.266122	452.294	NaN	0.000000	0.001697	0.001829	28.0785	93.0041	0.001779	52291	5.072036	171.45	446.234	1.246969	0.095896	0.095520	452.294	52291	0.089409	0.251882	1795.66	95192.1
190	2.000000	1.249792	7.36691e+06	-48139.1	955.819	-29763.8	0.000000	0.000000	7.269157	466.601	NaN	0.000000	0.001705	0.001864	28.0786	96.8376	0.001816	53329.2	2.641240	-6.287931	457.052	1.249453	0.098343	0.098005	466.601	53329.2	0.091781	0.263807	1768.72	94862.7
190	2.000000	1.252335	7.36691e+06	-48139.1	955.819	-29763.8	0.000000	0.000000	7.273019	498.67	NaN	0.000000	0.001685	0.001839	28.0787	101.44	0.001964	51661.8	5.772582	171.375	494.842	1.252176	0.100886	0.100728	498.67	51661.8	0.093647	0.273371	1824.15	90274.8
190	2.000000	1.254894	7.36691e+06	-48139.1	955.82	-29763.8	0.000000	0.000000	7.276697	525.913	NaN	0.000000	0.001705	0.001853	28.0784	99.9316	0.001705	58607.1	1.070074	-3.833446	519.795	1.254469	0.103445	0.103020	525.913	58607.1	0.096715	0.289437	1817.02	99528.3
190	2.000000	1.257345	7.36691e+06	-48139.1	955.819	-29763.8	0.000000	0.000000	7.280116	549.434	NaN	0.000000	0.001670	0.001854	28.0784	103.022	0.001728	59628.5	1.795966	174.727	545.609	1.257001	0.105896	0.105552	549.434	59628.5	0.098986	0.301607	1821.69	99198.8
190	2.000000	1.259798	7.36691e+06	-48139.1	955.819	-29763.8	0.000000	0.000000	7.283803	579.446	NaN	0.000000	0.001632	0.001846	28.0784	105.967	0.001794	59056	0.444818	-4.013222	569.519	1.259415	0.108349	0.107967	579.446	59056	0.100990	0.312545	1853.96	96512
190	2.000000	1.260960	7.36691e+06	-48139.1	955.819	-29763.8	0.000000	0.000000	7.285198	585.109	NaN	0.000000	0.001694	0.001864	28.0784	108.099	0.001789	60436.5	5.823950	-9.554389	586.677	1.260565	0.109511	0.109116	585.109	60436.5	0.102250	0.319514	1831.25	97684.9