File: remote_trans/data/nanoindenter/0828-1/data/Data_2025-08-06,11h17m57s/2025-07-22_16-23-58_1_1028.txt
2025-07-22, 16:23:58, 1
Index	Phase	Displacement	Time	Pos X	Pos Y	Pos Z	Rot A	Rot B	Piezo Z	Force A	Force B	Gripper	Voltage A	Voltage B	Temperature	Amplitude force	Amplitude pos	Stiffness	Phase shift	Phase excitation	Force A raw	Displacement raw	HMax	HMax raw	Real Force	Real Stiffness	Contact Depth	Area	Hardness	Reduced Mod.
[#]	[#]	[um]	[s]	[um]	[um]	[um]	[m°]	[m°]	[um]	[uN]	[uN]	[V]	[V]	[V]	[°C]	[uN]	[um]	[N/m]	[°]	[°]	[uN]	[um]	[um]	[um]	[uN]	[N/m]	[um]	[um^2]	[MPa]	[MPa]
1028	1.000000	0.002096	7.3751e+06	-51539.1	1055.82	-29751.9	0.000000	0.000000	6.002812	0.010556	NaN	0.000000	0.001633	0.001759	28.0844	0.105230	0.000948	111.033	-114.684	-166.122	-0.021790	0.000810	-1.126913	-1.128199	0.010556	111.033	-1.126984	-1.153889E+15	-9.148096E-18	NaN
1028	1.000000	0.012126	7.3751e+06	-51539.1	1055.82	-29751.9	0.000000	0.000000	6.012849	0.150072	NaN	0.000000	0.001604	0.001751	28.0841	0.069305	0.001267	54.6942	115.567	15.8507	0.174390	0.010655	-1.116882	-1.118353	0.150072	54.6942	-1.118940	-9.000198E+14	-1.667432E-16	NaN
1028	1.000000	0.022037	7.3751e+06	-51539.1	1055.82	-29751.9	0.000000	0.000000	6.022753	0.013466	NaN	0.000000	0.001634	0.001792	28.084	0.128877	0.001718	75.0076	-110.548	-169.482	-0.042076	0.020670	-1.106972	-1.108338	0.013466	75.0076	-1.107107	-6.243888E+14	-2.156679E-17	NaN
1028	1.000000	0.032051	7.3751e+06	-51539.1	1055.82	-29751.9	0.000000	0.000000	6.032769	0.036619	NaN	0.000000	0.001618	0.001793	28.0843	0.015814	0.001891	8.362527	8.609211	16.3684	-0.030189	0.030720	-1.096957	-1.098289	0.036619	8.362527	-1.100242	-5.050232E+14	-7.250964E-17	NaN
1028	1.000000	0.042030	7.3751e+06	-51539.1	1055.82	-29751.9	0.000000	0.000000	6.042747	0.013855	NaN	0.000000	0.001617	0.001753	28.084	0.112283	0.001891	59.3632	-39.9529	-168.245	0.011011	0.040738	-1.086978	-1.088270	0.013855	59.3632	-1.087153	-3.369635E+14	-4.111785E-17	NaN
1028	1.000000	0.052020	7.3751e+06	-51539.1	1055.82	-29751.9	0.000000	0.000000	6.052738	0.058458	NaN	0.000000	0.001612	0.001736	28.0836	0.022952	0.001911	12.0099	-59.7665	16.5374	0.038871	0.050680	-1.076989	-1.078329	0.058458	12.0099	-1.080639	-2.754896E+14	-2.121958E-16	NaN
1028	1.000000	0.062029	7.3751e+06	-51539.1	1055.82	-29751.9	0.000000	0.000000	6.062748	0.070329	NaN	0.000000	0.001626	0.001803	28.0829	0.014553	0.002017	7.215329	-87.5516	-168.927	0.051260	0.060685	-1.066979	-1.068324	0.070329	7.215329	-1.074290	-2.263682E+14	-3.106848E-16	NaN
1028	1.000000	0.072056	7.3751e+06	-51539.1	1055.82	-29751.9	0.000000	0.000000	6.072772	-0.003914	NaN	0.000000	0.001627	0.001764	28.0832	0.033646	0.001935	17.3885	-93.3053	9.581839	0.006907	0.070678	-1.056953	-1.058330	-0.003914	17.3885	-1.056784	-1.317036E+14	2.971870E-17	NaN
1028	1.000000	0.082067	7.3751e+06	-51539.1	1055.82	-29751.9	0.000000	0.000000	6.082784	0.024429	NaN	0.000000	0.001604	0.001750	28.0828	0.087156	0.002031	42.913	-50.1513	-162.364	0.066800	0.080761	-1.046941	-1.048247	0.024429	42.913	-1.047368	-9.840921E+13	-2.482411E-16	NaN
1028	1.000000	0.092042	7.3751e+06	-51539.1	1055.82	-29751.9	0.000000	0.000000	6.092759	0.024141	NaN	0.000000	0.001619	0.001800	28.0829	0.110085	0.002038	54.0168	-164.817	14.7985	0.006685	0.090721	-1.036967	-1.038287	0.024141	54.0168	-1.037302	-7.205870E+13	-3.350184E-16	NaN
1028	1.000000	0.102051	7.3751e+06	-51539.1	1055.82	-29751.9	0.000000	0.000000	6.102771	0.095646	NaN	0.000000	0.001654	0.001766	28.0829	0.028736	0.002014	14.2656	-127.382	-165.429	0.000650	0.100666	-1.026957	-1.028343	0.095646	14.2656	-1.031986	-6.112108E+13	-1.564863E-15	NaN
1028	1.000000	0.112065	7.3751e+06	-51539.1	1055.82	-29751.9	0.000000	0.000000	6.112782	0.042005	NaN	0.000000	0.001631	0.001800	28.083	0.054419	0.001952	27.8812	-40.903	17.9354	0.044160	0.110690	-1.016944	-1.018319	0.042005	27.8812	-1.018074	-3.972227E+13	-1.057461E-15	NaN
1028	1.000000	0.122067	7.3751e+06	-51539.1	1055.82	-29751.9	0.000000	0.000000	6.122785	0.041842	NaN	0.000000	0.001634	0.001775	28.0829	0.026188	0.001848	14.1685	-78.6397	-165.554	0.035533	0.120676	-1.006941	-1.008332	0.041842	14.1685	-1.009156	-3.013191E+13	-1.388620E-15	NaN
1028	1.000000	0.132053	7.3751e+06	-51539.1	1055.82	-29751.9	0.000000	0.000000	6.132772	0.077044	NaN	0.000000	0.001678	0.001755	28.0831	0.057370	0.001935	29.6503	-164.807	15.4806	0.031968	0.130680	-0.996956	-0.998329	0.077044	29.6503	-0.998905	-2.192920E+13	-3.513326E-15	NaN
1028	1.000000	0.142087	7.3751e+06	-51539.1	1055.82	-29751.9	0.000000	0.000000	6.142804	0.027649	NaN	0.000000	0.001637	0.001771	28.0834	0.096084	0.002024	47.4639	35.1265	-167.293	0.054750	0.140781	-0.986922	-0.988227	0.027649	47.4639	-0.987358	-1.532974E+13	-1.803586E-15	NaN
1028	1.000000	0.152073	7.3751e+06	-51539.1	1055.82	-29751.9	0.000000	0.000000	6.152793	0.077170	NaN	0.000000	0.001583	0.001821	28.0833	0.108767	0.002025	53.7108	29.9705	12.8262	0.035225	0.150752	-0.976935	-0.978256	0.077170	53.7108	-0.978013	-1.147189E+13	-6.726837E-15	NaN
1028	1.000000	0.162065	7.3751e+06	-51539.1	1055.82	-29751.9	0.000000	0.000000	6.162781	-0.000997	NaN	0.000000	0.001602	0.001784	28.0828	0.062970	0.001995	31.565	126.727	-168.162	-0.013775	0.160808	-0.966943	-0.968201	-0.000997	31.565	-0.966919	-8.130993E+12	1.225907E-16	NaN
1028	1.000000	0.172077	7.3751e+06	-51539.1	1055.82	-29751.9	0.000000	0.000000	6.172794	0.000843	NaN	0.000000	0.001656	0.001765	28.083	0.037990	0.002074	18.3168	-31.8182	15.0524	0.077195	0.170707	-0.956931	-0.958301	0.000843	18.3168	-0.956966	-5.969776E+12	-1.411539E-16	NaN
1028	1.000000	0.182078	7.3751e+06	-51539.1	1055.82	-29751.9	0.000000	0.000000	6.182795	0.032147	NaN	0.000000	0.001638	0.001768	28.083	0.066546	0.001976	33.6844	105.906	-165.916	0.070758	0.180733	-0.946931	-0.948276	0.032147	33.6844	-0.947647	-4.469781E+12	-7.191998E-15	NaN
1028	1.000000	0.192098	7.3751e+06	-51539.1	1055.82	-29751.9	0.000000	0.000000	6.192814	-0.001248	NaN	0.000000	0.001630	0.001772	28.0842	0.095692	0.002056	46.5441	-118.245	17.0186	0.007753	0.190730	-0.936911	-0.938278	-0.001248	46.5441	-0.936890	-3.200238E+12	3.898353E-16	NaN
1028	1.000000	0.202096	7.3751e+06	-51539.1	1055.82	-29751.9	0.000000	0.000000	6.202815	0.058835	NaN	0.000000	0.001627	0.001728	28.0843	0.054705	0.001929	28.3598	-112.514	-163.928	0.149215	0.200777	-0.926912	-0.928231	0.058835	28.3598	-0.928468	-2.463344E+12	-2.388419E-14	NaN
1028	1.000000	0.212071	7.3751e+06	-51539.1	1055.82	-29751.9	0.000000	0.000000	6.212791	0.093295	NaN	0.000000	0.001632	0.001769	28.0846	0.133235	0.001919	69.4319	-84.5836	16.0275	-0.039727	0.210783	-0.916937	-0.918226	0.093295	69.4319	-0.917945	-1.776054E+12	-5.252949E-14	NaN
1028	1.000000	0.222091	7.3751e+06	-51539.1	1055.82	-29751.9	0.000000	0.000000	6.222808	0.036576	NaN	0.000000	0.001589	0.001769	28.0841	0.071938	0.002137	33.6637	19.0923	-166.841	0.015327	0.220796	-0.906918	-0.908213	0.036576	33.6637	-0.907733	-1.292809E+12	-2.829172E-14	NaN
1028	1.000000	0.232099	7.3751e+06	-51539.1	1055.82	-29751.9	0.000000	0.000000	6.232817	0.032438	NaN	0.000000	0.001599	0.001751	28.0843	0.121178	0.002073	58.4471	86.5088	12.0214	0.076994	0.230720	-0.896909	-0.898288	0.032438	58.4471	-0.897326	-9.352477E+11	-3.468381E-14	NaN
1028	1.000000	0.242111	7.3751e+06	-51539.1	1055.82	-29751.9	0.000000	0.000000	6.242830	0.070901	NaN	0.000000	0.001643	0.001776	28.0844	0.075370	0.002033	37.0742	-64.0602	-168.082	0.106598	0.240788	-0.886897	-0.888221	0.070901	37.0742	-0.888332	-7.069075E+11	-1.002970E-13	NaN
1028	1.000000	0.252108	7.3751e+06	-51539.1	1055.82	-29751.9	0.000000	0.000000	6.252829	0.113049	NaN	0.000000	0.001654	0.001756	28.0843	0.099367	0.001857	53.4999	-88.8091	11.81	0.070248	0.250753	-0.876900	-0.878255	0.113049	53.4999	-0.878485	-5.202560E+11	-2.172954E-13	NaN
1028	1.000000	0.262125	7.3751e+06	-51539.1	1055.82	-29751.9	0.000000	0.000000	6.262844	0.066815	NaN	0.000000	0.001681	0.001739	28.0843	0.123120	0.002009	61.2923	41.2709	-167.292	0.065907	0.260737	-0.866884	-0.868271	0.066815	61.2923	-0.867701	-3.718261E+11	-1.796955E-13	NaN
1028	1.000000	0.272121	7.3751e+06	-51539.1	1055.82	-29751.9	0.000000	0.000000	6.272839	0.048993	NaN	0.000000	0.001715	0.001765	28.0844	0.058586	0.002070	28.3036	-154.787	16.1291	0.055190	0.270744	-0.856888	-0.858264	0.048993	28.3036	-0.858186	-2.764175E+11	-1.772419E-13	NaN
1028	1.000000	0.282122	7.3751e+06	-51539.1	1055.82	-29751.9	0.000000	0.000000	6.282843	0.113496	NaN	0.000000	0.001687	0.001771	28.0846	0.107639	0.002054	52.4076	123.222	-161.477	0.070844	0.280826	-0.846886	-0.848182	0.113496	52.4076	-0.848511	-2.044412E+11	-5.551514E-13	NaN
1028	1.000000	0.292137	7.3751e+06	-51539.1	1055.82	-29751.9	0.000000	0.000000	6.292854	0.021703	NaN	0.000000	0.001668	0.001736	28.0842	0.074394	0.002056	36.1791	-59.3412	11.0412	0.093818	0.290732	-0.836871	-0.838277	0.021703	36.1791	-0.837321	-1.442105E+11	-1.504919E-13	NaN
1028	1.000000	0.302138	7.3751e+06	-51539.1	1055.82	-29751.9	0.000000	0.000000	6.302857	0.070748	NaN	0.000000	0.001686	0.001752	28.0843	0.086676	0.002033	42.6343	-42.4129	-168.139	0.087068	0.300840	-0.826871	-0.828168	0.070748	42.6343	-0.828115	-1.082023E+11	-6.538473E-13	NaN
1028	1.000000	0.312140	7.3751e+06	-51539.1	1055.82	-29751.9	0.000000	0.000000	6.312857	0.014491	NaN	0.000000	0.001674	0.001771	28.0842	0.053127	0.001881	28.2377	132.308	17.1832	0.003028	0.310805	-0.816868	-0.818203	0.014491	28.2377	-0.817253	-7.708324E+10	-1.879914E-13	NaN
1028	1.000000	0.322142	7.3751e+06	-51539.1	1055.82	-29751.9	0.000000	0.000000	6.322855	-0.059459	NaN	0.000000	0.001679	0.001786	28.0844	0.073770	0.002024	36.4486	152.14	-165.067	0.011468	0.320829	-0.806867	-0.808180	-0.059459	36.4486	-0.805643	-5.363581E+10	1.108578E-12	NaN
1028	1.000000	0.332125	7.3751e+06	-51539.1	1055.82	-29751.9	0.000000	0.000000	6.332842	0.039433	NaN	0.000000	0.001691	0.001770	28.0827	0.122810	0.001938	63.377	-106.353	12.6592	0.036380	0.330776	-0.796884	-0.798232	0.039433	63.377	-0.797351	-4.138998E+10	-9.527251E-13	NaN
1028	1.000000	0.342145	7.3751e+06	-51539.1	1055.82	-29751.9	0.000000	0.000000	6.342863	0.064640	NaN	0.000000	0.001689	0.001755	28.083	0.077821	0.001970	39.4965	67.5367	-166.711	0.067726	0.340826	-0.786864	-0.788183	0.064640	39.4965	-0.788091	-3.098551E+10	-2.086137E-12	NaN
1028	1.000000	0.352169	7.3751e+06	-51539.1	1055.82	-29751.9	0.000000	0.000000	6.352887	0.058350	NaN	0.000000	0.001687	0.001779	28.083	0.093458	0.002064	45.2787	30.0623	11.0769	0.094329	0.350830	-0.776840	-0.778179	0.058350	45.2787	-0.777806	-2.246058E+10	-2.597888E-12	NaN
1028	1.000000	0.362146	7.3751e+06	-51539.1	1055.82	-29751.9	0.000000	0.000000	6.362863	0.034500	NaN	0.000000	0.001683	0.001810	28.0829	0.119199	0.001930	61.7749	-112.536	-166.389	0.041850	0.360884	-0.766863	-0.768124	0.034500	61.7749	-0.767282	-1.615626E+10	-2.135424E-12	NaN
1028	1.000000	0.372161	7.3751e+06	-51539.1	1055.82	-29751.9	0.000000	0.000000	6.372877	0.000668	NaN	0.000000	0.001691	0.001794	28.0827	0.063915	0.001968	32.4733	115.425	12.4891	0.022596	0.370806	-0.756848	-0.758203	0.000668	32.4733	-0.756863	-1.165803E+10	-5.732792E-14	NaN
1028	1.000000	0.382179	7.3751e+06	-51539.1	1055.82	-29751.9	0.000000	0.000000	6.382897	0.043944	NaN	0.000000	0.001659	0.001765	28.0829	0.107416	0.002103	51.0791	-42.4194	-167.344	0.046853	0.380868	-0.746829	-0.748140	0.043944	51.0791	-0.747474	-8.686343E+9	-5.059018E-12	NaN
1028	1.000000	0.392178	7.37511e+06	-51539.1	1055.82	-29751.9	0.000000	0.000000	6.392895	-0.002367	NaN	0.000000	0.001647	0.001753	28.0831	0.108815	0.001938	56.1611	-147.317	12.9746	-0.036672	0.390790	-0.736830	-0.738219	-0.002367	56.1611	-0.736798	-6.215031E+9	3.808755E-13	NaN
1028	1.000000	0.402164	7.37511e+06	-51539.1	1055.82	-29751.9	0.000000	0.000000	6.402879	-0.009989	NaN	0.000000	0.001691	0.001774	28.0828	0.020732	0.002019	10.267	118.607	-165.767	0.027093	0.400864	-0.726845	-0.728144	-0.009989	10.267	-0.726115	-4.444818E+9	2.247367E-12	NaN
1028	1.000000	0.412178	7.37511e+06	-51539.1	1055.82	-29751.9	0.000000	0.000000	6.412894	-0.003976	NaN	0.000000	0.001667	0.001764	28.0826	0.147014	0.002063	71.2472	-100.197	15.2704	0.077435	0.410852	-0.716830	-0.718156	-0.003976	71.2472	-0.716788	-3.316384E+9	1.198853E-12	NaN
1028	1.000000	0.422167	7.37511e+06	-51539.1	1055.82	-29751.9	0.000000	0.000000	6.422884	0.025203	NaN	0.000000	0.001699	0.001807	28.0838	0.051082	0.001808	28.2479	33.331	-168.99	0.020786	0.420907	-0.706841	-0.708101	0.025203	28.2479	-0.707511	-2.477835E+9	-1.017118E-11	NaN
1028	1.000000	0.432194	7.37511e+06	-51539.1	1055.82	-29751.9	0.000000	0.000000	6.432910	-0.013647	NaN	0.000000	0.001591	0.001804	28.0827	0.030591	0.002022	15.1315	62.9029	15.3247	0.007127	0.430826	-0.696814	-0.698182	-0.013647	15.1315	-0.696138	-1.732930E+9	7.875066E-12	NaN
1028	1.000000	0.442223	7.37511e+06	-51539.1	1055.82	-29751.9	0.000000	0.000000	6.442938	-0.018594	NaN	0.000000	0.001600	0.001733	28.0827	0.053156	0.001928	27.5664	-171.612	-161.794	0.077475	0.440929	-0.686785	-0.688079	-0.018594	27.5664	-0.686279	-1.270766E+9	1.463219E-11	NaN
1028	1.000000	0.452195	7.37511e+06	-51539.1	1055.82	-29751.9	0.000000	0.000000	6.452912	0.032980	NaN	0.000000	0.001614	0.001750	28.0825	0.043851	0.001976	22.1883	78.6917	12.3949	0.100282	0.450850	-0.676813	-0.678158	0.032980	22.1883	-0.677928	-9.769427E+8	-3.375793E-11	NaN
1028	1.000000	0.462182	7.37511e+06	-51539.1	1055.82	-29751.9	0.000000	0.000000	6.462902	0.092624	NaN	0.000000	0.001569	0.001797	28.084	0.083029	0.002058	40.3467	66.8565	-166.48	0.054931	0.460901	-0.666826	-0.668107	0.092624	40.3467	-0.668548	-7.269688E+8	-1.274107E-10	NaN
1028	1.000000	0.472196	7.37511e+06	-51539.1	1055.82	-29751.9	0.000000	0.000000	6.472912	-0.021966	NaN	0.000000	0.001581	0.001781	28.0838	0.049178	0.002102	23.3994	-162.335	14.5476	-0.003991	0.470822	-0.656812	-0.658187	-0.021966	23.3994	-0.656108	-4.910769E+8	4.473004E-11	NaN
1028	1.000000	0.482197	7.37511e+06	-51539.1	1055.82	-29751.9	0.000000	0.000000	6.482915	0.057365	NaN	0.000000	0.001592	0.001761	28.084	0.086839	0.001989	43.6674	-120.753	-161.341	0.096012	0.480890	-0.646812	-0.648118	0.057365	43.6674	-0.647797	-3.777770E+8	-1.518490E-10	NaN
1028	1.000000	0.492193	7.37511e+06	-51539.1	1055.82	-29751.9	0.000000	0.000000	6.492912	0.064296	NaN	0.000000	0.001592	0.001776	28.0838	0.059304	0.001988	29.8299	121.849	15.4057	0.048651	0.490887	-0.636815	-0.638121	0.064296	29.8299	-0.638432	-2.810424E+8	-2.287775E-10	NaN
1028	1.000000	0.502220	7.37511e+06	-51539.1	1055.82	-29751.9	0.000000	0.000000	6.502937	0.022305	NaN	0.000000	0.001607	0.001760	28.0839	0.094983	0.001932	49.1646	-104.882	-170.455	-0.064815	0.500891	-0.626789	-0.628118	0.022305	49.1646	-0.627129	-1.966029E+8	-1.134543E-10	NaN
1028	1.000000	0.512223	7.37511e+06	-51539.1	1055.82	-29751.9	0.000000	0.000000	6.512939	-0.017041	NaN	0.000000	0.001637	0.001753	28.0838	0.080834	0.001977	40.8801	65.8619	14.9735	-0.115880	0.510894	-0.616785	-0.618115	-0.017041	40.8801	-0.616473	-1.403271E+8	1.214400E-10	NaN
1028	1.000000	0.522190	7.37511e+06	-51539.1	1055.82	-29751.9	0.000000	0.000000	6.522907	0.024879	NaN	0.000000	0.001652	0.001747	28.0839	0.068769	0.001980	34.727	-125.301	-166.712	0.017183	0.520919	-0.606818	-0.608090	0.024879	34.727	-0.607356	-1.051300E+8	-2.366499E-10	NaN
1028	1.000000	0.532244	7.37511e+06	-51539.1	1055.82	-29751.9	0.000000	0.000000	6.532959	-0.020451	NaN	0.000000	0.001667	0.001766	28.084	0.103578	0.001991	52.0315	117.544	11.8368	-0.031959	0.530808	-0.596765	-0.598201	-0.020451	52.0315	-0.596470	-7.444516E+7	2.747105E-10	NaN
1028	1.000000	0.542234	7.37511e+06	-51539.1	1055.82	-29751.9	0.000000	0.000000	6.542954	0.089985	NaN	0.000000	0.001677	0.001804	28.0839	0.149164	0.001924	77.5457	-158.755	-166.812	0.126698	0.540924	-0.586775	-0.588084	0.089985	77.5457	-0.587645	-5.625903E+7	-1.599471E-9	NaN
1028	1.000000	0.552259	7.37511e+06	-51539.1	1055.82	-29751.9	0.000000	0.000000	6.552977	0.034640	NaN	0.000000	0.001695	0.001793	28.0838	0.019946	0.002004	9.955343	-43.0669	15.3541	0.022768	0.550843	-0.576749	-0.578166	0.034640	9.955343	-0.579359	-4.323904E+7	-8.011353E-10	NaN
1028	1.000000	0.562248	7.37511e+06	-51539.1	1055.82	-29751.9	0.000000	0.000000	6.562962	-0.051201	NaN	0.000000	0.001722	0.001793	28.084	0.078775	0.001897	41.5165	41.0413	-165.379	-0.035462	0.560925	-0.566760	-0.568083	-0.051201	41.5165	-0.565835	-2.812382E+7	1.820544E-9	NaN
1028	1.000000	0.572284	7.37511e+06	-51539.1	1055.82	-29751.9	0.000000	0.000000	6.573002	0.048753	NaN	0.000000	0.001663	0.001767	28.084	0.036761	0.001969	18.6727	122.901	15.0911	0.016026	0.570888	-0.556724	-0.558121	0.048753	18.6727	-0.558682	-2.239489E+7	-2.176979E-9	NaN
1028	1.000000	0.582243	7.37511e+06	-51539.1	1055.82	-29751.9	0.000000	0.000000	6.582962	0.074483	NaN	0.000000	0.001686	0.001756	28.0838	0.115035	0.001889	60.8861	-8.529030	-166.071	0.042898	0.581043	-0.546766	-0.547965	0.074483	60.8861	-0.547683	-1.577100E+7	-4.722785E-9	NaN
1028	1.000000	0.592238	7.37511e+06	-51539.1	1055.82	-29751.9	0.000000	0.000000	6.592953	-0.024375	NaN	0.000000	0.001660	0.001769	28.0839	0.089059	0.002139	41.6424	137.769	17.6902	0.002009	0.590935	-0.536771	-0.538074	-0.024375	41.6424	-0.536332	-1.097661E+7	2.220590E-9	NaN
1028	1.000000	0.602234	7.37511e+06	-51539.1	1055.82	-29751.9	0.000000	0.000000	6.602953	0.082102	NaN	0.000000	0.001687	0.001789	28.0829	0.077113	0.002007	38.4312	86.4807	-167.118	0.079893	0.600929	-0.526775	-0.528079	0.082102	38.4312	-0.528377	-8.51203e+06	-9.645375E-9	NaN
1028	1.000000	0.612265	7.37511e+06	-51539.1	1055.82	-29751.9	0.000000	0.000000	6.612981	0.007310	NaN	0.000000	0.001683	0.001763	28.0828	0.128883	0.001908	67.5425	-5.129586	16.7092	0.042938	0.610945	-0.516744	-0.518064	0.007310	67.5425	-0.516825	-5.8807e+06	-1.243029E-9	NaN
1028	1.000000	0.622255	7.37511e+06	-51539.1	1055.82	-29751.9	0.000000	0.000000	6.622969	-0.030347	NaN	0.000000	0.001690	0.001786	28.0826	0.037459	0.001923	19.4785	52.6461	-164.442	-0.006844	0.621040	-0.506754	-0.507969	-0.030347	19.4785	-0.505585	-4.10114e+06	7.399533E-9	NaN
1028	1.000000	0.632261	7.37511e+06	-51539.1	1055.82	-29751.9	0.000000	0.000000	6.632981	0.084953	NaN	0.000000	0.001681	0.001747	28.0828	0.033000	0.002050	16.0998	31.4759	13.3499	0.092491	0.630867	-0.496747	-0.498141	0.084953	16.0998	-0.500705	-3.5063e+06	-2.422877E-8	NaN
1028	1.000000	0.642274	7.37511e+06	-51539.1	1055.82	-29751.9	0.000000	0.000000	6.642991	0.027883	NaN	0.000000	0.001660	0.001794	28.0829	0.124127	0.002026	61.2749	106.63	-167.7	0.074487	0.640963	-0.486734	-0.488045	0.027883	61.2749	-0.487076	-2.26212e+06	-1.232596E-8	NaN
1028	1.000000	0.652289	7.37511e+06	-51539.1	1055.82	-29751.9	0.000000	0.000000	6.653007	0.057931	NaN	0.000000	0.001633	0.001760	28.0827	0.065766	0.002008	32.7557	-12.5394	14.3239	-0.046098	0.650951	-0.476720	-0.478058	0.057931	32.7557	-0.478046	-1.69111e+06	-3.425642E-8	NaN
1028	1.000000	0.662306	7.37511e+06	-51539.1	1055.82	-29751.9	0.000000	0.000000	6.663023	0.010987	NaN	0.000000	0.001666	0.001787	28.0827	0.085653	0.001983	43.1894	-20.566	-167.709	-0.006961	0.660912	-0.466703	-0.468096	0.010987	43.1894	-0.466893	-1.17984e+06	-9.312447E-9	NaN
1028	1.000000	0.672258	7.37511e+06	-51539.1	1055.82	-29751.9	0.000000	0.000000	6.672977	0.053471	NaN	0.000000	0.001599	0.001755	28.0828	0.112002	0.002010	55.7166	-31.0085	14.951	-0.023962	0.670966	-0.456750	-0.458043	0.053471	55.7166	-0.457470	-869865	-6.147025E-8	NaN
1028	1.000000	0.682301	7.37511e+06	-51539.1	1055.82	-29751.9	0.000000	0.000000	6.683020	0.076365	NaN	0.000000	0.001642	0.001779	28.0827	0.109162	0.002013	54.2163	32.3644	-165.995	0.094832	0.681040	-0.446708	-0.447968	0.076365	54.2163	-0.447764	-635113	-1.202388E-7	NaN
1028	1.000000	0.692283	7.37511e+06	-51539.1	1055.82	-29751.9	0.000000	0.000000	6.692998	-0.016664	NaN	0.000000	0.001635	0.001734	28.0826	0.066779	0.001953	34.1939	75.9421	13.3903	-0.031404	0.690975	-0.436726	-0.438033	-0.016664	34.1939	-0.436360	-438501	3.800110E-8	NaN
1028	1.000000	0.702315	7.37511e+06	-51539.1	1055.82	-29751.9	0.000000	0.000000	6.703031	0.002918	NaN	0.000000	0.001632	0.001737	28.0827	0.040337	0.002107	19.1433	159.918	-164.721	-0.055928	0.700944	-0.426693	-0.428064	0.002918	19.1433	-0.426808	-321277	-9.082086E-9	NaN
1028	1.000000	0.712304	7.37511e+06	-51539.1	1055.82	-29751.9	0.000000	0.000000	6.713023	0.058574	NaN	0.000000	0.001619	0.001749	28.0827	0.077223	0.001983	38.9455	103.642	12.6841	0.006744	0.710964	-0.416704	-0.418045	0.058574	38.9455	-0.417832	-239694	-2.443705E-7	NaN
1028	1.000000	0.722303	7.37511e+06	-51539.1	1055.82	-29751.9	0.000000	0.000000	6.723021	0.030541	NaN	0.000000	0.001615	0.001760	28.0827	0.093908	0.001912	49.1274	-145.736	-164.781	-0.025595	0.721045	-0.406705	-0.407963	0.030541	49.1274	-0.407171	-169106	-1.806052E-7	NaN
1028	1.000000	0.732362	7.37511e+06	-51539.1	1055.82	-29751.9	0.000000	0.000000	6.733077	-0.050328	NaN	0.000000	0.001652	0.001740	28.0827	0.100601	0.002008	50.1105	-120.329	14.044	0.019319	0.730916	-0.396646	-0.398092	-0.050328	50.1105	-0.395893	-116784	4.309487E-7	NaN
1028	1.000000	0.742337	7.37511e+06	-51539.1	1055.82	-29751.9	0.000000	0.000000	6.743055	0.044361	NaN	0.000000	0.001691	0.001711	28.084	0.020901	0.001959	10.6703	-40.7625	-169.079	0.106061	0.741057	-0.386672	-0.387952	0.044361	10.6703	-0.389790	-95534.4	-4.643429E-7	NaN
1028	1.000000	0.752331	7.37511e+06	-51539.1	1055.82	-29751.9	0.000000	0.000000	6.753049	0.032239	NaN	0.000000	0.001696	0.001745	28.0842	0.070585	0.001987	35.5155	-175.258	15.6925	0.143501	0.750951	-0.376677	-0.378058	0.032239	35.5155	-0.377358	-63380.1	-5.086608E-7	NaN
1028	1.000000	0.762328	7.37511e+06	-51539.1	1055.82	-29751.9	0.000000	0.000000	6.763047	0.062771	NaN	0.000000	0.001715	0.001708	28.084	0.137795	0.002040	67.552	-42.8398	-166.201	0.041882	0.761019	-0.366680	-0.367989	0.062771	67.552	-0.367377	-45533.8	-1.378564E-6	NaN
1028	1.000000	0.772325	7.37511e+06	-51539.1	1055.82	-29751.9	0.000000	0.000000	6.773043	0.043802	NaN	0.000000	0.001677	0.001726	28.0841	0.026956	0.002061	13.0761	-171.354	13.2949	0.075782	0.770973	-0.356683	-0.358035	0.043802	13.0761	-0.359196	-34691.2	-1.262638E-6	NaN
1028	1.000000	0.782353	7.37511e+06	-51539.1	1055.82	-29751.9	0.000000	0.000000	6.783071	0.045264	NaN	0.000000	0.001692	0.001714	28.0842	0.084469	0.002045	41.3114	-117.235	-163.509	0.034752	0.781049	-0.346655	-0.347959	0.045264	41.3114	-0.347477	-23462	-1.929251E-6	NaN
1028	1.000000	0.792388	7.37511e+06	-51539.1	1055.82	-29751.9	0.000000	0.000000	6.793102	-0.072912	NaN	0.000000	0.001660	0.001764	28.0841	0.088785	0.002048	43.3511	87.3847	15.46	-0.068020	0.791005	-0.336620	-0.338003	-0.072912	43.3511	-0.335359	-15625.2	4.666308E-6	NaN
1028	1.000000	0.802327	7.37511e+06	-51539.1	1055.82	-29751.9	0.000000	0.000000	6.803044	0.021254	NaN	0.000000	0.001600	0.001796	28.0839	0.064455	0.002071	31.1263	50.1213	-163.469	-0.064906	0.801053	-0.326682	-0.327956	0.021254	31.1263	-0.327194	-11866.6	-1.791054E-6	NaN
1028	1.000000	0.812357	7.37511e+06	-51539.1	1055.82	-29751.9	0.000000	0.000000	6.813075	0.027250	NaN	0.000000	0.001607	0.001736	28.0841	0.092889	0.001966	47.2496	168.591	13.9364	-0.031644	0.811026	-0.316651	-0.317982	0.027250	47.2496	-0.317084	-8427.16	-3.233541E-6	NaN
1028	1.000000	0.822373	7.37511e+06	-51539.1	1055.82	-29751.9	0.000000	0.000000	6.823089	-0.017354	NaN	0.000000	0.001600	0.001706	28.0844	0.021468	0.001994	10.7657	84.855	-163.371	-0.031104	0.821043	-0.306635	-0.307965	-0.017354	10.7657	-0.305426	-5666.06	3.062845E-6	NaN
1028	1.000000	0.832340	7.37511e+06	-51539.1	1055.82	-29751.9	0.000000	0.000000	6.833058	0.038849	NaN	0.000000	0.001609	0.001703	28.084	0.043851	0.001923	22.7982	8.016953	18.498	0.059297	0.830950	-0.296668	-0.298058	0.038849	22.7982	-0.297946	-4385.78	-8.857857E-6	NaN
1028	1.000000	0.842380	7.37511e+06	-51539.1	1055.82	-29751.9	0.000000	0.000000	6.843097	0.028599	NaN	0.000000	0.001600	0.001736	28.0842	0.070192	0.002000	35.092	103.677	-161.121	0.016616	0.841106	-0.286628	-0.287902	0.028599	35.092	-0.287240	-3033.26	-9.428413E-6	NaN
1028	1.000000	0.852396	7.37511e+06	-51539.1	1055.82	-29751.9	0.000000	0.000000	6.853113	0.018244	NaN	0.000000	0.001637	0.001666	28.0842	0.032898	0.002035	16.1675	152.966	13.4143	0.056000	0.851006	-0.276612	-0.278002	0.018244	16.1675	-0.277459	-2160.71	-8.443412E-6	NaN
1028	1.000000	0.862354	7.37511e+06	-51539.1	1055.82	-29751.9	0.000000	0.000000	6.863068	-0.060429	NaN	0.000000	0.001616	0.001654	28.0842	0.019709	0.002060	9.565010	71.7277	-165.325	-0.052627	0.861050	-0.266654	-0.267958	-0.060429	9.565010	-0.261916	-1253.89	4.819299E-5	NaN
1028	1.000000	0.872379	7.37511e+06	-51539.1	1055.82	-29751.9	0.000000	0.000000	6.873096	0.024459	NaN	0.000000	0.001651	0.001693	28.0833	0.080461	0.001803	44.6255	151.496	16.3653	0.032509	0.871048	-0.256629	-0.257961	0.024459	44.6255	-0.257040	-1055.6	-2.317058E-5	NaN
1028	1.000000	0.882389	7.37511e+06	-51539.1	1055.82	-29751.9	0.000000	0.000000	6.883107	0.047152	NaN	0.000000	0.001635	0.001633	28.0831	0.062053	0.002115	29.3406	160.703	-162.498	0.008087	0.881059	-0.246620	-0.247950	0.047152	29.3406	-0.247825	-760.847	-6.197280E-5	NaN
1028	1.000000	0.892343	7.37511e+06	-51539.1	1055.82	-29751.9	0.000000	0.000000	6.893060	0.038107	NaN	0.000000	0.001585	0.001681	28.0834	0.097588	0.002176	44.8533	135.3	17.102	0.138343	0.890961	-0.236666	-0.238048	0.038107	44.8533	-0.237303	-521.636	-7.305361E-5	NaN
1028	1.000000	0.902402	7.37511e+06	-51539.1	1055.82	-29751.9	0.000000	0.000000	6.903118	0.007072	NaN	0.000000	0.001588	0.001680	28.0828	0.087095	0.002029	42.9165	-36.3014	-164.261	-0.007414	0.901079	-0.226607	-0.227930	0.007072	42.9165	-0.226730	-355.46	-1.989476E-5	NaN
1028	1.000000	0.912380	7.37511e+06	-51539.1	1055.82	-29751.9	0.000000	0.000000	6.913097	0.012648	NaN	0.000000	0.001571	0.001683	28.083	0.078145	0.001981	39.4533	172.955	10.0543	0.000277	0.911008	-0.216628	-0.218000	0.012648	39.4533	-0.216869	-247.477	-5.110743E-5	NaN
1028	1.000000	0.922406	7.37511e+06	-51539.1	1055.82	-29751.9	0.000000	0.000000	6.923120	-0.046350	NaN	0.000000	0.001585	0.001657	28.083	0.093381	0.001996	46.7787	63.5362	-167.858	-0.082320	0.921046	-0.206603	-0.207963	-0.046350	46.7787	-0.205860	-164.275	0.000282	NaN
1028	1.000000	0.932412	7.37511e+06	-51539.1	1055.82	-29751.9	0.000000	0.000000	6.933128	-0.002524	NaN	0.000000	0.001640	0.001669	28.083	0.066633	0.001888	35.2929	-153.38	14.8173	0.007812	0.931004	-0.196596	-0.198005	-0.002524	35.2929	-0.196543	-115.539	2.184603E-5	NaN
1028	1.000000	0.942383	7.37511e+06	-51539.1	1055.82	-29751.9	0.000000	0.000000	6.943100	0.015687	NaN	0.000000	0.001530	0.001667	28.0827	0.007889	0.002034	3.878112	64.3429	-166.173	0.009729	0.941088	-0.186625	-0.187921	0.015687	3.878112	-0.189659	-88.7823	-0.000177	NaN
1028	1.000000	0.952412	7.37511e+06	-51539.1	1055.82	-29751.9	0.000000	0.000000	6.953128	-0.002283	NaN	0.000000	0.001557	0.001691	28.0829	0.081943	0.002126	38.5438	-139.279	14.4045	0.003058	0.951128	-0.176597	-0.177880	-0.002283	38.5438	-0.176552	-53.2856	4.284713E-5	NaN
1028	1.000000	0.962394	7.37511e+06	-51539.1	1055.82	-29751.9	0.000000	0.000000	6.963111	0.009557	NaN	0.000000	0.001537	0.001668	28.0828	0.023036	0.001829	12.5963	-158.293	-163.288	0.005735	0.961090	-0.166614	-0.167918	0.009557	12.5963	-0.167183	-36.6902	-0.000260	NaN
1028	1.000000	0.972407	7.37511e+06	-51539.1	1055.82	-29751.9	0.000000	0.000000	6.973123	-0.008091	NaN	0.000000	0.001578	0.001660	28.0829	0.073984	0.001813	40.8131	-86.4116	16.0449	0.059311	0.971024	-0.156601	-0.157984	-0.008091	40.8131	-0.156452	-23.6957	0.000341	NaN
1028	1.000000	0.982407	7.37511e+06	-51539.1	1055.82	-29751.9	0.000000	0.000000	6.983122	-0.024635	NaN	0.000000	0.001556	0.001684	28.0827	0.056914	0.001867	30.4866	-73.1945	-164.533	-0.025488	0.981114	-0.146601	-0.147895	-0.024635	30.4866	-0.145995	-15.2952	0.001611	NaN
1028	1.000000	0.992411	7.37511e+06	-51539.1	1055.82	-29751.9	0.000000	0.000000	6.993127	0.005871	NaN	0.000000	0.001533	0.001681	28.0824	0.135876	0.001959	69.343	-71.6472	11.3802	-0.043889	0.991081	-0.136598	-0.137927	0.005871	69.343	-0.136661	-10.231	-0.000574	NaN
1028	1.000000	1.002441	7.37511e+06	-51539.1	1055.82	-29751.9	0.000000	0.000000	7.003158	0.016379	NaN	0.000000	0.001558	0.001662	28.0831	0.027704	0.001918	14.4439	-17.985	-165.192	-0.023372	1.001129	-0.126567	-0.127879	0.016379	14.4439	-0.127418	-6.786096	-0.002414	NaN
1028	1.000000	1.012422	7.37511e+06	-51539.1	1055.82	-29751.9	0.000000	0.000000	7.013138	-0.002033	NaN	0.000000	0.001548	0.001651	28.084	0.037937	0.001964	19.3171	-118.225	13.6414	-0.016107	1.011067	-0.116586	-0.117941	-0.002033	19.3171	-0.116507	-4.102786	0.000496	NaN
1028	1.000000	1.022412	7.37511e+06	-51539.1	1055.82	-29751.9	0.000000	0.000000	7.023128	-0.003703	NaN	0.000000	0.001543	0.001675	28.0838	0.043991	0.001904	23.0995	173.025	-166.3	0.031675	1.021129	-0.106596	-0.107879	-0.003703	23.0995	-0.106476	-2.528956	0.001464	NaN
1028	1.000000	1.032444	7.37511e+06	-51539.1	1055.82	-29751.9	0.000000	0.000000	7.033159	-0.043533	NaN	0.000000	0.001546	0.001664	28.0841	0.038697	0.002173	17.8068	-139.226	13.7484	0.000550	1.031096	-0.096564	-0.097913	-0.043533	17.8068	-0.094730	-1.390808	0.031301	NaN
1028	1.000000	1.042414	7.37511e+06	-51539.1	1055.82	-29751.9	0.000000	0.000000	7.043131	0.018066	NaN	0.000000	0.001557	0.001709	28.084	0.058025	0.002130	27.2449	16.3839	-163.726	-0.014682	1.041126	-0.086594	-0.087882	0.018066	27.2449	-0.087092	-0.922503	-0.019583	NaN
1028	1.000000	1.052445	7.37511e+06	-51539.1	1055.82	-29751.9	0.000000	0.000000	7.053160	-0.017553	NaN	0.000000	0.001585	0.001672	28.0839	0.065105	0.002024	32.1709	143.119	15.5469	-0.067814	1.051060	-0.076564	-0.077948	-0.017553	32.1709	-0.076155	-0.494620	0.035487	NaN
1028	1.000000	1.062458	7.37511e+06	-51539.1	1055.82	-29751.9	0.000000	0.000000	7.063173	-0.027734	NaN	0.000000	0.001574	0.001670	28.0838	0.024320	0.002009	12.1069	-70.0755	-166.562	0.000545	1.061180	-0.066550	-0.067829	-0.027734	12.1069	-0.064832	-0.246559	0.112483	NaN
1028	1.000000	1.072483	7.37511e+06	-51539.1	1055.82	-29751.9	0.000000	0.000000	7.073199	-0.006857	NaN	0.000000	0.001586	0.001683	28.0839	0.131414	0.001986	66.1773	-86.5389	18.8767	-0.016028	1.071101	-0.056525	-0.057907	-0.006857	66.1773	-0.056448	-0.142056	0.048273	NaN
1028	1.000000	1.082458	7.37511e+06	-51539.1	1055.82	-29751.9	0.000000	0.000000	7.083175	0.039379	NaN	0.000000	0.001602	0.001665	28.0836	0.140006	0.002063	67.8796	-106.172	-166.518	0.066367	1.081165	-0.046551	-0.047843	0.039379	67.8796	-0.046986	-0.073903	-0.532846	NaN
1028	1.000000	1.092447	7.37511e+06	-51539.1	1055.82	-29751.9	0.000000	0.000000	7.093164	0.028644	NaN	0.000000	0.001625	0.001683	28.0836	0.018294	0.002028	9.020642	-135.388	16.486	0.003237	1.091124	-0.036562	-0.037885	0.028644	9.020642	-0.038943	-0.042007	-0.681871	NaN
1028	1.000000	1.102441	7.37511e+06	-51539.1	1055.82	-29751.9	0.000000	0.000000	7.103157	-0.001773	NaN	0.000000	0.001623	0.001676	28.0838	0.006080	0.001974	3.080447	-140.453	-165.293	0.082916	1.101143	-0.026568	-0.027865	-0.001773	3.080447	-0.026136	-0.018072	0.098101	NaN
1028	1.000000	1.112467	7.37511e+06	-51539.1	1055.82	-29751.9	0.000000	0.000000	7.113185	0.058318	NaN	0.000000	0.001621	0.001690	28.0842	0.022441	0.002007	11.1804	28.8473	15.1098	-0.041526	1.111109	-0.016542	-0.017900	0.058318	11.1804	-0.020454	-0.012899	-4.521071	NaN
1028	1.000000	1.122492	7.37511e+06	-51539.1	1055.82	-29751.9	0.000000	0.000000	7.123208	-0.002251	NaN	0.000000	0.001588	0.001694	28.0838	0.077728	0.002008	38.7116	133.818	-164.94	0.075194	1.121157	-0.006517	-0.007852	-0.002251	38.7116	-0.006473	-0.004324	0.520633	NaN
1028	1.000000	1.132471	7.37511e+06	-51539.1	1055.82	-29751.9	0.000000	0.000000	7.133420	5.664267	NaN	0.000000	0.001537	0.001689	28.0841	5.118248	0.001731	2956.71	10.4016	9.666317	4.198932	1.131041	0.003462	0.002033	5.664267	2956.71	0.002025	0.001575	3595.65	68061
1028	2.000000	1.138021	7.37511e+06	-51539.1	1055.82	-29751.9	0.000000	0.000000	7.139102	8.883699	NaN	0.000000	0.001595	0.001650	28.084	9.675792	0.001654	5848.26	6.297283	-171.316	8.142730	1.137736	0.009012	0.008728	8.883699	5848.26	0.007873	0.006912	1285.22	64267.6
1028	2.000000	1.140531	7.37511e+06	-51539.1	1055.82	-29751.9	0.000000	0.000000	7.141786	13.1095	NaN	0.000000	0.001551	0.001684	28.0831	12.507	0.001815	6891.59	3.161782	10.6597	12.1971	1.140137	0.011522	0.011129	13.1095	6891.59	0.010096	0.009288	1411.46	65333.3
1028	2.000000	1.143002	7.37511e+06	-51539.1	1055.82	-29751.9	0.000000	0.000000	7.144363	15.6809	NaN	0.000000	0.001538	0.001653	28.0826	15.2844	0.001759	8690.82	7.110495	-176.302	14.5003	1.142697	0.013993	0.013689	15.6809	8690.82	0.012640	0.012266	1278.4	71693.8
1028	2.000000	1.145519	7.37511e+06	-51539.1	1055.82	-29751.9	0.000000	0.000000	7.147104	21.1259	NaN	0.000000	0.001555	0.001675	28.0829	16.8338	0.001807	9317.65	8.537358	4.200877	19.8733	1.145201	0.016510	0.016192	21.1259	9317.65	0.014810	0.015033	1405.32	69432.1
1028	2.000000	1.148040	7.37511e+06	-51539.1	1055.82	-29751.9	0.000000	0.000000	7.149573	19.8523	NaN	0.000000	0.001553	0.001671	28.0828	19.1461	0.001783	10737.4	8.999486	-179.062	19.6887	1.147705	0.019032	0.018697	19.8523	10737.4	0.017645	0.018976	1046.16	71214.5
1028	2.000000	1.150515	7.37511e+06	-51539.1	1055.82	-29751.9	0.000000	0.000000	7.152324	26.5721	NaN	0.000000	0.001537	0.001661	28.0829	21.9569	0.001692	12973.3	5.542042	2.153461	26.0866	1.150092	0.021507	0.021084	26.5721	12973.3	0.019971	0.022496	1181.19	79026.1
1028	2.000000	1.152934	7.37511e+06	-51539.1	1055.82	-29751.9	0.000000	0.000000	7.154988	32.5477	NaN	0.000000	0.001602	0.001634	28.0829	25.3657	0.001808	14029	3.486366	-176.86	30.5769	1.152685	0.023925	0.023676	32.5477	14029	0.022185	0.026093	1247.36	79348
1028	2.000000	1.155480	7.37511e+06	-51539.1	1055.82	-29751.9	0.000000	0.000000	7.157801	39.0053	NaN	0.000000	0.001592	0.001673	28.0831	26.6932	0.001803	14807.3	6.979066	2.954233	37.5074	1.155026	0.026472	0.026017	39.0053	14807.3	0.024496	0.030106	1295.61	77969.3
1028	2.000000	1.157893	7.37511e+06	-51539.1	1055.82	-29751.9	0.000000	0.000000	7.160249	39.8612	NaN	0.000000	0.001544	0.001685	28.0829	28.4284	0.001821	15609.9	3.394191	-177.065	37.2728	1.157632	0.028885	0.028623	39.8612	15609.9	0.026970	0.034696	1148.86	76565.2
1028	2.000000	1.160478	7.37511e+06	-51539.1	1055.82	-29751.9	0.000000	0.000000	7.163007	44.0958	NaN	0.000000	0.001547	0.001660	28.0832	30.9291	0.001870	16543	7.206374	-1.113569	43.5008	1.160199	0.031469	0.031191	44.0958	16543	0.029470	0.039653	1112.05	75901.7
1028	2.000000	1.163022	7.37511e+06	-51539.1	1055.82	-29751.9	0.000000	0.000000	7.166074	56.8081	NaN	0.000000	0.001571	0.001683	28.0828	32.7055	0.001821	17965	6.269868	-179.633	58.6649	1.162641	0.034014	0.033633	56.8081	17965	0.031642	0.044216	1284.79	78056.8
1028	2.000000	1.165432	7.37511e+06	-51539.1	1055.82	-29751.9	0.000000	0.000000	7.168545	58.2671	NaN	0.000000	0.001566	0.001641	28.0831	34.7442	0.001738	19988	5.368414	-0.121319	55.2063	1.165116	0.036424	0.036108	58.2671	19988	0.034237	0.049985	1165.69	81681.2
1028	2.000000	1.167950	7.37511e+06	-51539.1	1055.82	-29751.9	0.000000	0.000000	7.171287	63.7367	NaN	0.000000	0.001547	0.001627	28.0832	36.9606	0.001706	21664.4	8.170869	175.13	62.4218	1.167639	0.038941	0.038631	63.7367	21664.4	0.036735	0.055862	1140.96	83745.4
1028	2.000000	1.170480	7.37511e+06	-51539.1	1055.82	-29751.9	0.000000	0.000000	7.174109	70.8236	NaN	0.000000	0.001552	0.001607	28.0829	39.9929	0.001918	20856.1	7.210786	-2.012958	72.8467	1.170141	0.041471	0.041132	70.8236	20856.1	0.038925	0.061278	1155.77	76975.6
1028	2.000000	1.172919	7.37511e+06	-51539.1	1055.82	-29751.9	0.000000	0.000000	7.176925	79.9953	NaN	0.000000	0.001583	0.001608	28.0841	42.6447	0.001779	23971.1	4.709189	177.188	77.1106	1.172580	0.043910	0.043571	79.9953	23971.1	0.041408	0.067717	1181.33	84161.7
1028	2.000000	1.175457	7.37511e+06	-51539.1	1055.82	-29751.9	0.000000	0.000000	7.180033	93.8538	NaN	0.000000	0.001581	0.001627	28.0843	44.2233	0.001717	25754.7	6.044214	-3.185401	92.0304	1.175113	0.046449	0.046105	93.8538	25754.7	0.043715	0.073983	1268.59	86509.7
1028	2.000000	1.177979	7.37511e+06	-51539.1	1055.82	-29751.9	0.000000	0.000000	7.182563	94.0436	NaN	0.000000	0.001557	0.001565	28.0846	45.5512	0.001716	26551.5	4.247518	178.558	95.3138	1.177645	0.048970	0.048637	94.0436	26551.5	0.046314	0.081361	1155.88	85045.7
1028	2.000000	1.180461	7.37511e+06	-51539.1	1055.82	-29751.9	0.000000	0.000000	7.185795	112.287	NaN	0.000000	0.001546	0.001590	28.0843	49.3668	0.001725	28614	6.201996	-4.451154	112.293	1.180046	0.051453	0.051038	112.287	28614	0.048510	0.087863	1277.98	88195.9
1028	2.000000	1.183023	7.37511e+06	-51539.1	1055.82	-29751.9	0.000000	0.000000	7.188466	114.931	NaN	0.000000	0.001549	0.001633	28.0841	53.4792	0.001828	29258.5	8.168104	173.019	122.105	1.182734	0.054015	0.053726	114.931	29258.5	0.051069	0.095745	1200.39	86391
1028	2.000000	1.185484	7.37511e+06	-51539.1	1055.82	-29751.9	0.000000	0.000000	7.191324	124.612	NaN	0.000000	0.001517	0.001627	28.0847	54.5174	0.001698	32102.2	10.5289	-9.333148	124.564	1.184961	0.056475	0.055953	124.612	32102.2	0.053564	0.103746	1201.12	91058.7
1028	2.000000	1.187879	7.37511e+06	-51539.1	1055.82	-29751.9	0.000000	0.000000	7.194336	139.589	NaN	0.000000	0.001573	0.001627	28.084	55.995	0.001773	31588.5	5.522099	176.163	137.666	1.187535	0.058871	0.058527	139.589	31588.5	0.055556	0.110358	1264.88	86876.2
1028	2.000000	1.190362	7.37511e+06	-51539.1	1055.82	-29751.9	0.000000	0.000000	7.197112	146.719	NaN	0.000000	0.001550	0.001608	28.0841	59.7953	0.001888	31676.9	6.026833	-5.642317	143.892	1.190064	0.061354	0.061056	146.719	31676.9	0.057880	0.118316	1240.06	84138.4
1028	2.000000	1.192924	7.37511e+06	-51539.1	1055.82	-29751.9	0.000000	0.000000	7.199938	153.143	NaN	0.000000	0.001557	0.001616	28.0837	61.4186	0.001662	36946.4	1.715794	177.122	152.9	1.192722	0.063916	0.063714	153.143	36946.4	0.060807	0.128718	1189.76	94086
1028	2.000000	1.195485	7.37511e+06	-51539.1	1055.82	-29751.9	0.000000	0.000000	7.203028	165.997	NaN	0.000000	0.001565	0.001606	28.0844	62.6608	0.001629	38462.9	0.330667	-1.232475	167.202	1.195257	0.066477	0.066248	165.997	38462.9	0.063240	0.137683	1205.65	94705.7
1028	2.000000	1.197929	7.37511e+06	-51539.1	1055.82	-29751.9	0.000000	0.000000	7.206095	181.143	NaN	0.000000	0.001554	0.001648	28.0838	66.1098	0.001759	37575.4	7.893123	171.719	182.206	1.197551	0.068920	0.068543	181.143	37575.4	0.065305	0.145515	1244.84	89995.9
1028	2.000000	1.200478	7.37511e+06	-51539.1	1055.82	-29751.9	0.000000	0.000000	7.208801	184.955	NaN	0.000000	0.001616	0.001597	28.0842	68.9594	0.001787	38594	6.304154	-7.195054	186.302	1.200228	0.071470	0.071219	184.955	38594	0.067876	0.155553	1189.02	89403.2
1028	2.000000	1.202880	7.37511e+06	-51539.1	1055.82	-29751.9	0.000000	0.000000	7.212249	210.415	NaN	0.000000	0.001606	0.001610	28.0839	70.8702	0.001801	39348	3.847471	174.92	207.627	1.202604	0.073871	0.073596	210.415	39348	0.069861	0.163522	1286.77	88901.2
1028	2.000000	1.205471	7.37511e+06	-51539.1	1055.82	-29751.9	0.000000	0.000000	7.215363	223.133	NaN	0.000000	0.001609	0.001610	28.0843	74.2058	0.001822	40735	10.543	-11.263	225.576	1.205053	0.076462	0.076044	223.133	40735	0.072354	0.173796	1283.88	89273.1
1028	2.000000	1.207890	7.37511e+06	-51539.1	1055.82	-29751.9	0.000000	0.000000	7.218536	241.458	NaN	0.000000	0.001601	0.001585	28.0826	75.8351	0.001726	43929.2	6.646701	171.357	241.611	1.207623	0.078882	0.078615	241.458	43929.2	0.074759	0.183985	1312.38	93569.6
1028	2.000000	1.210271	7.37511e+06	-51539.1	1055.82	-29751.9	0.000000	0.000000	7.221161	247.391	NaN	0.000000	0.001590	0.001642	28.083	77.8965	0.001783	43688.2	3.174143	-5.513698	237.333	1.209997	0.081262	0.080989	247.391	43688.2	0.077015	0.193790	1276.59	90671.7
1028	2.000000	1.212953	7.37511e+06	-51539.1	1055.82	-29751.9	0.000000	0.000000	7.224964	274.634	NaN	0.000000	0.001600	0.001588	28.0828	81.2982	0.001695	47960.5	8.367580	169.498	276.674	1.212519	0.083945	0.083510	274.634	47960.5	0.079650	0.205544	1336.13	96650.6
1028	2.000000	1.215437	7.37511e+06	-51539.1	1055.82	-29751.9	0.000000	0.000000	7.228444	298.881	NaN	0.000000	0.001595	0.001603	28.0827	82.429	0.001855	44442.2	7.971399	-8.289276	297.827	1.215025	0.086428	0.086017	298.881	44442.2	0.081385	0.213457	1400.19	87884.8
1028	2.000000	1.217871	7.37511e+06	-51539.1	1055.82	-29751.9	0.000000	0.000000	7.231675	318.251	NaN	0.000000	0.001589	0.001605	28.0827	86.1491	0.001799	47888.3	5.890727	172.133	318.165	1.217411	0.088862	0.088403	318.251	47888.3	0.083878	0.225078	1413.95	92222.3
1028	2.000000	1.220354	7.37511e+06	-51539.1	1055.82	-29751.9	0.000000	0.000000	7.235118	341.584	NaN	0.000000	0.001570	0.001665	28.0829	87.6686	0.001742	50315	5.830565	-8.131774	335.847	1.219842	0.091346	0.090834	341.584	50315	0.086254	0.236421	1444.81	94542.6
1028	2.000000	1.222944	7.37511e+06	-51539.1	1055.82	-29751.9	0.000000	0.000000	7.238158	352.543	NaN	0.000000	0.001582	0.001643	28.0829	90.9964	0.001855	49066.2	2.595719	175.303	355.681	1.222592	0.093935	0.093584	352.543	49066.2	0.088546	0.247609	1423.79	90089.1
1028	2.000000	1.225445	7.37511e+06	-51539.1	1055.82	-29751.9	0.000000	0.000000	7.241709	378.077	NaN	0.000000	0.001545	0.001625	28.0828	93.2312	0.001813	51416.7	9.177747	-11.5855	378.624	1.225051	0.096436	0.096043	378.077	51416.7	0.090921	0.259456	1457.19	92224.4
1028	2.000000	1.227964	7.37511e+06	-51539.1	1055.82	-29751.9	0.000000	0.000000	7.245057	398.219	NaN	0.000000	0.001602	0.001594	28.0827	94.0501	0.001734	54244.8	4.858490	172.131	403.151	1.227575	0.098956	0.098566	398.219	54244.8	0.093450	0.272353	1462.14	94965.4
1028	2.000000	1.230412	7.37511e+06	-51539.1	1055.82	-29751.9	0.000000	0.000000	7.248004	410.353	NaN	0.000000	0.001572	0.001627	28.0828	97.7082	0.001829	53409.6	2.729680	-5.874122	410.989	1.230081	0.101404	0.101072	410.353	53409.6	0.095641	0.283767	1446.09	91603.4
1028	2.000000	1.232861	7.37511e+06	-51539.1	1055.82	-29751.9	0.000000	0.000000	7.251642	439.264	NaN	0.000000	0.001566	0.001615	28.0827	100.899	0.001796	56174.2	8.379647	168.185	437.187	1.232424	0.103853	0.103415	439.264	56174.2	0.097988	0.296233	1482.83	94296.1
1028	2.000000	1.234876	7.37511e+06	-51539.1	1055.82	-29751.9	0.000000	0.000000	7.254524	460.364	NaN	0.000000	0.001585	0.001588	28.083	101.342	0.001679	60358.6	5.946094	170.051	458.524	1.234530	0.105867	0.105521	460.364	60358.6	0.100147	0.307921	1495.07	99378.6