File: remote_trans/data/nanoindenter/0828-1/data/Data_2025-08-06,11h17m57s/2025-07-22_16-23-58_1_431.txt
2025-07-22, 16:23:58, 1
Index	Phase	Displacement	Time	Pos X	Pos Y	Pos Z	Rot A	Rot B	Piezo Z	Force A	Force B	Gripper	Voltage A	Voltage B	Temperature	Amplitude force	Amplitude pos	Stiffness	Phase shift	Phase excitation	Force A raw	Displacement raw	HMax	HMax raw	Real Force	Real Stiffness	Contact Depth	Area	Hardness	Reduced Mod.
[#]	[#]	[um]	[s]	[um]	[um]	[um]	[m°]	[m°]	[um]	[uN]	[uN]	[V]	[V]	[V]	[°C]	[uN]	[um]	[N/m]	[°]	[°]	[uN]	[um]	[um]	[um]	[uN]	[N/m]	[um]	[um^2]	[MPa]	[MPa]
431	1.000000	0.002181	7.36927e+06	-55539.1	1005.82	-29741.4	0.000000	0.000000	6.002808	-0.007689	NaN	0.000000	0.001631	0.001690	28.0812	0.015274	0.000907	16.8332	72.832	-162.721	-0.044284	0.000919	-1.098579	-1.099841	-0.007689	16.8332	-1.098236	-4.746670E+14	1.619947E-17	NaN
431	1.000000	0.012228	7.36927e+06	-55539.1	1005.82	-29741.4	0.000000	0.000000	6.012856	0.027250	NaN	0.000000	0.001632	0.001694	28.081	0.168681	0.001251	134.818	144.564	16.8817	0.041582	0.010804	-1.088532	-1.089955	0.027250	134.818	-1.088683	-3.532922E+14	-7.713236E-17	NaN
431	1.000000	0.022116	7.36927e+06	-55539.1	1005.82	-29741.4	0.000000	0.000000	6.022741	-0.036644	NaN	0.000000	0.001623	0.001676	28.0797	0.034320	0.001740	19.7232	140.49	-169.376	0.010031	0.020827	-1.078644	-1.079933	-0.036644	19.7232	-1.077251	-2.480798E+14	1.477108E-16	NaN
431	1.000000	0.032131	7.36927e+06	-55539.1	1005.82	-29741.4	0.000000	0.000000	6.032758	0.014101	NaN	0.000000	0.001623	0.001710	28.0795	0.020917	0.001947	10.7458	-85.2188	17.0124	-0.001770	0.030750	-1.068629	-1.070010	0.014101	10.7458	-1.069613	-1.958814E+14	-7.198763E-17	NaN
431	1.000000	0.042134	7.36927e+06	-55539.1	1005.82	-29741.4	0.000000	0.000000	6.042764	0.060410	NaN	0.000000	0.001641	0.001685	28.0798	0.158266	0.001931	81.9433	-75.4133	-169.586	0.084053	0.040838	-1.058626	-1.059922	0.060410	81.9433	-1.059179	-1.418344E+14	-4.259164E-16	NaN
431	1.000000	0.052123	7.36927e+06	-55539.1	1005.82	-29741.4	0.000000	0.000000	6.052747	-0.060901	NaN	0.000000	0.001583	0.001682	28.0798	0.077058	0.002020	38.1392	54.1642	14.1058	0.022419	0.050786	-1.048637	-1.049974	-0.060901	38.1392	-1.047439	-9.862583E+13	6.174953E-16	NaN
431	1.000000	0.062131	7.36927e+06	-55539.1	1005.82	-29741.4	0.000000	0.000000	6.062761	0.074830	NaN	0.000000	0.001611	0.001685	28.0796	0.051131	0.001959	26.1002	-109.295	-164.025	0.056169	0.060795	-1.038628	-1.039964	0.074830	26.1002	-1.040779	-8.024846E+13	-9.324787E-16	NaN
431	1.000000	0.072123	7.36927e+06	-55539.1	1005.82	-29741.4	0.000000	0.000000	6.072750	0.012383	NaN	0.000000	0.001625	0.001713	28.0797	0.083593	0.001958	42.7014	-13.0945	12.3436	-0.022803	0.070726	-1.028637	-1.030034	0.012383	42.7014	-1.028854	-5.547178E+13	-2.232218E-16	NaN
431	1.000000	0.082138	7.36927e+06	-55539.1	1005.82	-29741.4	0.000000	0.000000	6.082767	0.062675	NaN	0.000000	0.001602	0.001708	28.0796	0.001887	0.002036	0.926967	-89.0137	-162.146	0.066495	0.080816	-1.018622	-1.019944	0.062675	0.926967	-1.069331	-1.941802E+14	-3.227657E-16	NaN
431	1.000000	0.092159	7.36927e+06	-55539.1	1005.82	-29741.4	0.000000	0.000000	6.092785	-0.012680	NaN	0.000000	0.001611	0.001732	28.0797	0.119246	0.001939	61.4958	77.6724	12.3838	-0.083445	0.090760	-1.008601	-1.009999	-0.012680	61.4958	-1.008446	-2.947591E+13	4.301952E-16	NaN
431	1.000000	0.102138	7.36927e+06	-55539.1	1005.82	-29741.4	0.000000	0.000000	6.102763	-0.043027	NaN	0.000000	0.001615	0.001731	28.0795	0.066604	0.002021	32.9616	105.94	-168.606	0.029811	0.100836	-0.998621	-0.999924	-0.043027	32.9616	-0.997642	-2.108756E+13	2.040416E-15	NaN
431	1.000000	0.112163	7.36927e+06	-55539.1	1005.82	-29741.4	0.000000	0.000000	6.112790	0.012383	NaN	0.000000	0.001599	0.001685	28.0805	0.018994	0.001984	9.574394	54.8243	9.515515	-0.008481	0.110841	-0.988597	-0.989919	0.012383	9.574394	-0.989567	-1.641636E+13	-7.543240E-16	NaN
431	1.000000	0.122118	7.36927e+06	-55539.1	1005.82	-29741.4	0.000000	0.000000	6.122745	-0.000398	NaN	0.000000	0.001623	0.001635	28.0798	0.059922	0.001999	29.9835	-109.718	-168.446	0.020289	0.120886	-0.978642	-0.979873	-0.000398	29.9835	-0.978632	-1.169433E+13	3.403301E-17	NaN
431	1.000000	0.132145	7.36927e+06	-55539.1	1005.82	-29741.4	0.000000	0.000000	6.132774	0.038186	NaN	0.000000	0.001620	0.001653	28.0801	0.053163	0.001989	26.7268	-70.9876	12.2983	0.069621	0.130836	-0.968614	-0.969924	0.038186	26.7268	-0.969686	-8.859887E+12	-4.309934E-15	NaN
431	1.000000	0.142152	7.36927e+06	-55539.1	1005.82	-29741.4	0.000000	0.000000	6.142777	-0.053082	NaN	0.000000	0.001605	0.001658	28.0797	0.074558	0.001863	40.0168	-75.351	-165.424	-0.045710	0.140840	-0.958608	-0.959920	-0.053082	40.0168	-0.957613	-6.090982E+12	8.714855E-15	NaN
431	1.000000	0.152171	7.36927e+06	-55539.1	1005.82	-29741.4	0.000000	0.000000	6.152799	0.006485	NaN	0.000000	0.001594	0.001647	28.0805	0.069446	0.002084	33.3216	-33.9568	13.0905	-0.030045	0.150800	-0.948588	-0.949959	0.006485	33.3216	-0.948734	-4.623352E+12	-1.402768E-15	NaN
431	1.000000	0.162154	7.36927e+06	-55539.1	1005.82	-29741.4	0.000000	0.000000	6.162779	-0.048465	NaN	0.000000	0.001604	0.001613	28.0809	0.049769	0.001907	26.1005	141.851	-167.701	-0.043645	0.160920	-0.938606	-0.939839	-0.048465	26.1005	-0.937213	-3.232476E+12	1.499325E-14	NaN
431	1.000000	0.172183	7.36927e+06	-55539.1	1005.82	-29741.4	0.000000	0.000000	6.172812	0.033352	NaN	0.000000	0.001627	0.001662	28.0808	0.061654	0.002095	29.4291	-135.118	13.6354	-0.006373	0.170847	-0.928576	-0.929913	0.033352	29.4291	-0.929426	-2.537777E+12	-1.314219E-14	NaN
431	1.000000	0.182164	7.36927e+06	-55539.1	1005.82	-29741.4	0.000000	0.000000	6.182793	0.039116	NaN	0.000000	0.001614	0.001642	28.0807	0.072586	0.001978	36.6922	14.9238	-165.222	0.051724	0.180866	-0.918595	-0.919893	0.039116	36.6922	-0.919395	-1.857955E+12	-2.105325E-14	NaN
431	1.000000	0.192178	7.36927e+06	-55539.1	1005.82	-29741.4	0.000000	0.000000	6.192805	0.002079	NaN	0.000000	0.001597	0.001647	28.0808	0.058205	0.001897	30.6858	-11.8684	12.5094	-0.003308	0.190762	-0.908582	-0.909998	0.002079	30.6858	-0.908633	-1.329521E+12	-1.564053E-15	NaN
431	1.000000	0.202193	7.36927e+06	-55539.1	1005.82	-29741.4	0.000000	0.000000	6.202821	0.026270	NaN	0.000000	0.001574	0.001667	28.0807	0.061758	0.002105	29.3342	-82.6198	-164.93	-0.024188	0.200874	-0.898567	-0.899886	0.026270	29.3342	-0.899238	-9.925970E+11	-2.646606E-14	NaN
431	1.000000	0.212170	7.36927e+06	-55539.1	1005.82	-29741.4	0.000000	0.000000	6.212795	-0.028129	NaN	0.000000	0.001670	0.001698	28.0806	0.118607	0.002039	58.162	121.182	13.7943	-0.015644	0.210856	-0.888590	-0.889903	-0.028129	58.162	-0.888227	-7.046141E+11	3.992159E-14	NaN
431	1.000000	0.222197	7.36927e+06	-55539.1	1005.82	-29741.4	0.000000	0.000000	6.222824	-0.008073	NaN	0.000000	0.001576	0.001676	28.0808	0.089276	0.001982	45.0354	163.082	-162.953	0.022598	0.220868	-0.878562	-0.879892	-0.008073	45.0354	-0.878428	-5.193356E+11	1.554534E-14	NaN
431	1.000000	0.232228	7.36927e+06	-55539.1	1005.82	-29741.4	0.000000	0.000000	6.232855	-0.017319	NaN	0.000000	0.001656	0.001644	28.0807	0.067611	0.001837	36.8087	-178.932	15.0333	-0.040632	0.230830	-0.868531	-0.869930	-0.017319	36.8087	-0.868178	-3.773974E+11	4.589030E-14	NaN
431	1.000000	0.242221	7.36927e+06	-55539.1	1005.82	-29741.4	0.000000	0.000000	6.242848	0.000606	NaN	0.000000	0.001642	0.001661	28.0806	0.073307	0.002127	34.4704	173.583	-169.459	0.040088	0.240929	-0.858538	-0.859830	0.000606	34.4704	-0.858551	-2.795846E+11	-2.168164E-15	NaN
431	1.000000	0.252159	7.36927e+06	-55539.1	1005.82	-29741.4	0.000000	0.000000	6.252784	-0.049591	NaN	0.000000	0.001687	0.001674	28.0804	0.020156	0.002179	9.249440	93.8031	11.7731	-0.045474	0.250817	-0.848600	-0.849943	-0.049591	9.249440	-0.844579	-1.808527E+11	2.742088E-13	NaN
431	1.000000	0.262198	7.36927e+06	-55539.1	1005.82	-29741.4	0.000000	0.000000	6.262826	0.016273	NaN	0.000000	0.001716	0.001625	28.0808	0.056095	0.002116	26.5132	-158.553	-163.483	0.058655	0.260867	-0.838562	-0.839893	0.016273	26.5132	-0.839022	-1.520704E+11	-1.070109E-13	NaN
431	1.000000	0.272210	7.36927e+06	-55539.1	1005.82	-29741.4	0.000000	0.000000	6.272835	-0.049687	NaN	0.000000	0.001715	0.001673	28.0804	0.117472	0.002014	58.3373	83.7448	17.3918	-0.074991	0.270857	-0.828550	-0.829903	-0.049687	58.3373	-0.827911	-1.075148E+11	4.621378E-13	NaN
431	1.000000	0.282224	7.36927e+06	-55539.1	1005.82	-29741.4	0.000000	0.000000	6.282851	0.001101	NaN	0.000000	0.001697	0.001666	28.0806	0.014740	0.002169	6.795270	85.8376	-165.735	-0.012749	0.280903	-0.818536	-0.819857	0.001101	6.795270	-0.818657	-8.053851E+10	-1.367651E-14	NaN
431	1.000000	0.292240	7.36927e+06	-55539.1	1005.82	-29741.4	0.000000	0.000000	6.292866	-0.023966	NaN	0.000000	0.001697	0.001651	28.0793	0.071813	0.001910	37.5888	149.914	16.2837	-0.089956	0.290855	-0.808519	-0.809904	-0.023966	37.5888	-0.808041	-5.780860E+10	4.145689E-13	NaN
431	1.000000	0.302218	7.36927e+06	-55539.1	1005.82	-29741.4	0.000000	0.000000	6.302843	-0.045406	NaN	0.000000	0.001671	0.001618	28.0795	0.082787	0.002034	40.7013	93.908	-165.639	0.013002	0.300921	-0.798541	-0.799839	-0.045406	40.7013	-0.797705	-4.185069E+10	1.084955E-12	NaN
431	1.000000	0.312265	7.36927e+06	-55539.1	1005.82	-29741.4	0.000000	0.000000	6.312890	-0.030661	NaN	0.000000	0.001608	0.001634	28.0791	0.050509	0.001977	25.5537	-51.0211	14.8674	0.023917	0.310836	-0.788495	-0.789924	-0.030661	25.5537	-0.787595	-3.050842E+10	1.005014E-12	NaN
431	1.000000	0.322210	7.36927e+06	-55539.1	1005.82	-29741.4	0.000000	0.000000	6.322839	0.052392	NaN	0.000000	0.001628	0.001656	28.0792	0.120617	0.001857	64.9485	155.065	-168.078	0.010977	0.320963	-0.778550	-0.779797	0.052392	64.9485	-0.779155	-2.342865E+10	-2.236222E-12	NaN
431	1.000000	0.332237	7.36927e+06	-55539.1	1005.82	-29741.4	0.000000	0.000000	6.332863	-0.026323	NaN	0.000000	0.001632	0.001662	28.0794	0.041443	0.001973	21.0001	-87.5404	14.752	-0.000209	0.330897	-0.768522	-0.769863	-0.026323	21.0001	-0.767582	-1.630905E+10	1.614021E-12	NaN
431	1.000000	0.342243	7.36927e+06	-55539.1	1005.82	-29741.4	0.000000	0.000000	6.342869	-0.031627	NaN	0.000000	0.001655	0.001618	28.0794	0.099481	0.002008	49.5419	-75.4358	-168.359	-0.005034	0.340891	-0.758517	-0.759869	-0.031627	49.5419	-0.758038	-1.209500E+10	2.614855E-12	NaN
431	1.000000	0.352234	7.36928e+06	-55539.1	1005.82	-29741.4	0.000000	0.000000	6.352859	-0.055021	NaN	0.000000	0.001586	0.001648	28.0792	0.042319	0.001971	21.4756	-4.864756	15.6342	-0.050167	0.350854	-0.748526	-0.749906	-0.055021	21.4756	-0.746604	-8.452580E+9	6.509395E-12	NaN
431	1.000000	0.362249	7.36928e+06	-55539.1	1005.82	-29741.4	0.000000	0.000000	6.362876	0.005869	NaN	0.000000	0.001602	0.001632	28.0792	0.096388	0.001948	49.4871	34.2116	-168.722	0.111627	0.360908	-0.738511	-0.739851	0.005869	49.4871	-0.738600	-6.576366E+9	-8.923998E-13	NaN
431	1.000000	0.372226	7.36928e+06	-55539.1	1005.82	-29741.4	0.000000	0.000000	6.372851	-0.042105	NaN	0.000000	0.001609	0.001635	28.0794	0.051827	0.001957	26.4792	-81.644	11.8174	-0.019866	0.370913	-0.728534	-0.729847	-0.042105	26.4792	-0.727341	-4.619229E+9	9.115232E-12	NaN
431	1.000000	0.382244	7.36928e+06	-55539.1	1005.82	-29741.4	0.000000	0.000000	6.382871	0.011378	NaN	0.000000	0.001613	0.001659	28.0794	0.084412	0.002031	41.5709	82.3934	-165.847	-0.017309	0.380938	-0.718516	-0.719822	0.011378	41.5709	-0.718721	-3.523946E+9	-3.228698E-12	NaN
431	1.000000	0.392264	7.36928e+06	-55539.1	1005.82	-29741.4	0.000000	0.000000	6.392892	0.021261	NaN	0.000000	0.001627	0.001640	28.0792	0.062412	0.001946	32.0718	170.113	13.0962	0.018824	0.390913	-0.708496	-0.709847	0.021261	32.0718	-0.708993	-2.596013E+9	-8.190037E-12	NaN
431	1.000000	0.402235	7.36928e+06	-55539.1	1005.82	-29741.4	0.000000	0.000000	6.402860	-0.053789	NaN	0.000000	0.001663	0.001640	28.0794	0.068507	0.001952	35.0913	-96.5137	-164.86	0.066753	0.400985	-0.698524	-0.699775	-0.053789	35.0913	-0.697375	-1.801676E+9	2.985500E-11	NaN
431	1.000000	0.412270	7.36928e+06	-55539.1	1005.82	-29741.4	0.000000	0.000000	6.412897	-0.001112	NaN	0.000000	0.001661	0.001690	28.0792	0.027947	0.001912	14.616	-27.3052	13.6005	0.004814	0.410924	-0.688490	-0.689836	-0.001112	14.616	-0.688433	-1.359883E+9	8.179974E-13	NaN
431	1.000000	0.422290	7.36928e+06	-55539.1	1005.82	-29741.4	0.000000	0.000000	6.422914	-0.075319	NaN	0.000000	0.001658	0.001626	28.0792	0.140913	0.001993	70.7035	-148.418	-166.31	-0.030058	0.420974	-0.678470	-0.679786	-0.075319	70.7035	-0.677671	-9.690550E+8	7.772420E-11	NaN
431	1.000000	0.432291	7.36928e+06	-55539.1	1005.82	-29741.4	0.000000	0.000000	6.432918	-0.009025	NaN	0.000000	0.001674	0.001651	28.0805	0.067113	0.001979	33.9114	110.075	14.9758	0.078178	0.430915	-0.668468	-0.669845	-0.009025	33.9114	-0.668269	-7.206006E+8	1.252416E-11	NaN
431	1.000000	0.442267	7.36928e+06	-55539.1	1005.82	-29741.4	0.000000	0.000000	6.442893	-0.014081	NaN	0.000000	0.001633	0.001685	28.0807	0.065725	0.001999	32.8784	-90.4536	-164.911	-0.048371	0.440964	-0.658493	-0.659796	-0.014081	32.8784	-0.658171	-5.241060E+8	2.686673E-11	NaN
431	1.000000	0.452273	7.36928e+06	-55539.1	1005.82	-29741.4	0.000000	0.000000	6.452900	-0.010879	NaN	0.000000	0.001643	0.001660	28.0806	0.049427	0.001945	25.4095	-108.796	13.3185	0.016070	0.450924	-0.648487	-0.649836	-0.010879	25.4095	-0.648166	-3.821966E+8	2.846348E-11	NaN
431	1.000000	0.462292	7.36928e+06	-55539.1	1005.82	-29741.4	0.000000	0.000000	6.462919	-0.007971	NaN	0.000000	0.001662	0.001637	28.0805	0.070582	0.002030	34.7613	-135.807	-164.625	0.005110	0.460985	-0.638467	-0.639775	-0.007971	34.7613	-0.638295	-2.798325E+8	2.848428E-11	NaN
431	1.000000	0.472322	7.36928e+06	-55539.1	1005.82	-29741.4	0.000000	0.000000	6.472950	0.017760	NaN	0.000000	0.001679	0.001654	28.0808	0.079986	0.002027	39.4647	-87.9467	16.3331	0.012334	0.470956	-0.628438	-0.629804	0.017760	39.4647	-0.628775	-2.071104E+8	-8.575296E-11	NaN
431	1.000000	0.482310	7.36928e+06	-55539.1	1005.82	-29741.4	0.000000	0.000000	6.482936	-0.030232	NaN	0.000000	0.001657	0.001641	28.0805	0.017807	0.002040	8.729439	-165.541	-166.257	-0.027406	0.481017	-0.618449	-0.619743	-0.030232	8.729439	-0.615852	-1.375964E+8	2.197130E-10	NaN
431	1.000000	0.492331	7.36928e+06	-55539.1	1005.82	-29741.4	0.000000	0.000000	6.492957	-0.028855	NaN	0.000000	0.001626	0.001639	28.0803	0.059111	0.002014	29.3546	-154.01	13.0538	-0.032622	0.490927	-0.608429	-0.609833	-0.028855	29.3546	-0.607692	-1.062553E+8	2.715645E-10	NaN
431	1.000000	0.502334	7.36928e+06	-55539.1	1005.82	-29741.4	0.000000	0.000000	6.502958	-0.064844	NaN	0.000000	0.001600	0.001629	28.0805	0.074645	0.001913	39.0205	171.244	-163.474	-0.021726	0.501008	-0.598426	-0.599752	-0.064844	39.0205	-0.597180	-7.614038E+7	8.516319E-10	NaN
431	1.000000	0.512294	7.36928e+06	-55539.1	1005.82	-29741.4	0.000000	0.000000	6.512923	0.033908	NaN	0.000000	0.001630	0.001675	28.0806	0.008406	0.002015	4.172243	53.8748	11.0351	0.037128	0.510932	-0.588465	-0.589828	0.033908	4.172243	-0.594561	-7.006920E+7	-4.839164E-10	NaN
431	1.000000	0.522359	7.36928e+06	-55539.1	1005.82	-29741.4	0.000000	0.000000	6.522984	-0.049019	NaN	0.000000	0.001604	0.001644	28.0804	0.096471	0.001953	49.3995	-122.762	-164.814	-0.081879	0.521008	-0.578400	-0.579752	-0.049019	49.3995	-0.577656	-4.096124E+7	1.196705E-9	NaN
431	1.000000	0.532325	7.36928e+06	-55539.1	1005.82	-29741.4	0.000000	0.000000	6.532949	-0.053232	NaN	0.000000	0.001587	0.001618	28.0804	0.092677	0.002055	45.0976	-106.736	14.1009	-0.116848	0.530982	-0.568435	-0.569777	-0.053232	45.0976	-0.567550	-2.970102E+7	1.792255E-9	NaN
431	1.000000	0.542331	7.36928e+06	-55539.1	1005.82	-29741.4	0.000000	0.000000	6.542956	-0.037041	NaN	0.000000	0.001600	0.001604	28.0804	0.084250	0.002098	40.1496	1.770975	-165.909	0.003647	0.541053	-0.558429	-0.559707	-0.037041	40.1496	-0.557737	-2.173046E+7	1.704582E-9	NaN
431	1.000000	0.552311	7.36928e+06	-55539.1	1005.82	-29741.4	0.000000	0.000000	6.552941	0.058573	NaN	0.000000	0.001649	0.001616	28.0806	0.018714	0.001998	9.364266	177.969	12.9828	-0.005823	0.550950	-0.548448	-0.549810	0.058573	9.364266	-0.553140	-1.876862E+7	-3.120805E-9	NaN
431	1.000000	0.562352	7.36928e+06	-55539.1	1005.82	-29741.4	0.000000	0.000000	6.562981	0.064835	NaN	0.000000	0.001647	0.001624	28.0794	0.067969	0.002083	32.6327	83.9562	-164.316	0.112055	0.561014	-0.538408	-0.539746	0.064835	32.6327	-0.539898	-1.230119E+7	-5.270607E-9	NaN
431	1.000000	0.572337	7.36928e+06	-55539.1	1005.82	-29741.4	0.000000	0.000000	6.572965	0.020181	NaN	0.000000	0.001626	0.001644	28.0791	0.052603	0.002117	24.8508	-159.394	11.9882	0.040725	0.570949	-0.528423	-0.529811	0.020181	24.8508	-0.529032	-8.6921e+06	-2.321735E-9	NaN
431	1.000000	0.582336	7.36928e+06	-55539.1	1005.82	-29741.4	0.000000	0.000000	6.582967	0.098600	NaN	0.000000	0.001630	0.001654	28.0793	0.061797	0.002095	29.4975	163.399	-165.026	0.038612	0.581066	-0.518424	-0.519694	0.098600	29.4975	-0.520931	-6.7072e+06	-1.470063E-8	NaN
431	1.000000	0.592356	7.36928e+06	-55539.1	1005.82	-29741.4	0.000000	0.000000	6.592983	-0.014884	NaN	0.000000	0.001660	0.001623	28.0791	0.040680	0.001972	20.624	-35.6452	16.7309	-0.040358	0.591000	-0.508403	-0.509760	-0.014884	20.624	-0.507862	-4.41198e+06	3.373508E-9	NaN
431	1.000000	0.602361	7.36928e+06	-55539.1	1005.82	-29741.4	0.000000	0.000000	6.602988	-0.016891	NaN	0.000000	0.001690	0.001645	28.0791	0.092940	0.002092	44.4293	-109.031	-169.243	0.075141	0.601018	-0.498398	-0.499742	-0.016891	44.4293	-0.498113	-3.22619e+06	5.235701E-9	NaN
431	1.000000	0.612342	7.36928e+06	-55539.1	1005.82	-29741.4	0.000000	0.000000	6.612969	-0.003079	NaN	0.000000	0.001703	0.001619	28.0792	0.095488	0.001945	49.0843	118.241	14.1405	-0.004379	0.610973	-0.488418	-0.489787	-0.003079	49.0843	-0.488371	-2.35843e+06	1.305679E-9	NaN
431	1.000000	0.622359	7.36928e+06	-55539.1	1005.82	-29741.4	0.000000	0.000000	6.622982	-0.089692	NaN	0.000000	0.001664	0.001650	28.0793	0.111639	0.001931	57.8167	8.957721	-168.938	0.033065	0.621044	-0.478401	-0.479716	-0.089692	57.8167	-0.477238	-1.64759e+06	5.443845E-8	NaN
431	1.000000	0.632359	7.36928e+06	-55539.1	1005.82	-29741.4	0.000000	0.000000	6.632988	0.054057	NaN	0.000000	0.001585	0.001622	28.0792	0.148025	0.002072	71.4467	-139.617	14.0456	0.056320	0.631009	-0.468401	-0.469751	0.054057	71.4467	-0.468969	-1.26165e+06	-4.284621E-8	NaN
431	1.000000	0.642355	7.36928e+06	-55539.1	1005.82	-29741.4	0.000000	0.000000	6.642981	-0.032983	NaN	0.000000	0.001587	0.001638	28.079	0.061986	0.001923	32.2376	-49.7587	-165.21	-0.034216	0.641050	-0.458405	-0.459710	-0.032983	32.2376	-0.457637	-874598	3.771209E-8	NaN
431	1.000000	0.652380	7.36928e+06	-55539.1	1005.82	-29741.4	0.000000	0.000000	6.653010	0.069534	NaN	0.000000	0.001516	0.001672	28.0793	0.074470	0.001895	39.3072	-106.182	14.0943	0.064830	0.650991	-0.448380	-0.449768	0.069534	39.3072	-0.449707	-676409	-1.027985E-7	NaN
431	1.000000	0.662380	7.36928e+06	-55539.1	1005.82	-29741.4	0.000000	0.000000	6.663006	-0.022394	NaN	0.000000	0.001577	0.001622	28.0792	0.086246	0.001985	43.4541	32.4089	-165.076	-0.114725	0.661105	-0.438380	-0.439655	-0.022394	43.4541	-0.437993	-462420	4.842702E-8	NaN
431	1.000000	0.672379	7.36928e+06	-55539.1	1005.82	-29741.4	0.000000	0.000000	6.673004	-0.029829	NaN	0.000000	0.001596	0.001606	28.0791	0.104219	0.001997	52.191	81.6005	15.8963	-0.061000	0.671009	-0.428381	-0.429751	-0.029829	52.191	-0.427952	-333494	8.944455E-8	NaN
431	1.000000	0.682380	7.36928e+06	-55539.1	1005.82	-29741.4	0.000000	0.000000	6.683005	-0.051477	NaN	0.000000	0.001560	0.001649	28.0791	0.014857	0.001972	7.535627	-82.5971	-167.032	-0.078774	0.681058	-0.418380	-0.419702	-0.051477	7.535627	-0.413257	-206391	2.494169E-7	NaN
431	1.000000	0.692383	7.36928e+06	-55539.1	1005.82	-29741.4	0.000000	0.000000	6.693009	-0.023163	NaN	0.000000	0.001565	0.001626	28.0794	0.074157	0.002067	35.8738	-147.272	12.8934	-0.066975	0.691069	-0.408377	-0.409691	-0.023163	35.8738	-0.407892	-173150	1.337741E-7	NaN
431	1.000000	0.702401	7.36928e+06	-55539.1	1005.82	-29741.4	0.000000	0.000000	6.703028	0.007769	NaN	0.000000	0.001566	0.001635	28.0803	0.072386	0.001934	37.4222	-179.325	-168.977	-0.051510	0.701136	-0.398358	-0.399624	0.007769	37.4222	-0.398514	-127292	-6.103023E-8	NaN
431	1.000000	0.712404	7.36928e+06	-55539.1	1005.82	-29741.4	0.000000	0.000000	6.713031	0.006793	NaN	0.000000	0.001555	0.001610	28.0804	0.042710	0.002103	20.3101	37.586	15.4225	0.099275	0.711039	-0.388356	-0.389720	0.006793	20.3101	-0.388607	-91882.1	-7.392747E-8	NaN
431	1.000000	0.722372	7.36928e+06	-55539.1	1005.82	-29741.4	0.000000	0.000000	6.723000	0.004667	NaN	0.000000	0.001560	0.001630	28.0803	0.017312	0.001946	8.894096	-140.347	-165.984	0.008058	0.721088	-0.378387	-0.379672	0.004667	8.894096	-0.378781	-66433.6	-7.024376E-8	NaN
431	1.000000	0.732411	7.36928e+06	-55539.1	1005.82	-29741.4	0.000000	0.000000	6.733036	-0.045302	NaN	0.000000	0.001589	0.001645	28.0806	0.061580	0.002048	30.0665	-41.4507	16.0206	0.081071	0.731036	-0.368349	-0.369724	-0.045302	30.0665	-0.367219	-45295.6	1.000133E-6	NaN
431	1.000000	0.742395	7.36928e+06	-55539.1	1005.82	-29741.4	0.000000	0.000000	6.743021	-0.012515	NaN	0.000000	0.001566	0.001640	28.0802	0.046337	0.002174	21.3162	87.3015	-166.923	-0.101573	0.741123	-0.358365	-0.359637	-0.012515	21.3162	-0.357925	-33253.2	3.763530E-7	NaN
431	1.000000	0.752416	7.36928e+06	-55539.1	1005.82	-29741.4	0.000000	0.000000	6.753044	0.023128	NaN	0.000000	0.001593	0.001606	28.0803	0.037503	0.001931	19.4233	-124.164	14.2262	-0.035923	0.751060	-0.348344	-0.349699	0.023128	19.4233	-0.349237	-24884.3	-9.294130E-7	NaN
431	1.000000	0.762437	7.36928e+06	-55539.1	1005.82	-29741.4	0.000000	0.000000	6.763063	-0.028641	NaN	0.000000	0.001533	0.001619	28.0804	0.044149	0.001989	22.1953	178.941	-163.255	-0.039582	0.761111	-0.338323	-0.339648	-0.028641	22.1953	-0.337355	-16709.8	1.714048E-6	NaN
431	1.000000	0.772420	7.36928e+06	-55539.1	1005.82	-29741.4	0.000000	0.000000	6.773045	-0.057575	NaN	0.000000	0.001545	0.001645	28.0804	0.023901	0.001966	12.1545	49.8313	16.3068	-0.019438	0.771061	-0.328340	-0.329698	-0.057575	12.1545	-0.324787	-10939.8	5.262952E-6	NaN
431	1.000000	0.782430	7.36928e+06	-55539.1	1005.82	-29741.4	0.000000	0.000000	6.783057	-0.011486	NaN	0.000000	0.001571	0.001644	28.0805	0.033067	0.001947	16.983	61.0499	-167.032	0.015904	0.781165	-0.318329	-0.319595	-0.011486	16.983	-0.317822	-8640.97	1.329290E-6	NaN
431	1.000000	0.792435	7.36928e+06	-55539.1	1005.82	-29741.4	0.000000	0.000000	6.793060	-0.045451	NaN	0.000000	0.001640	0.001631	28.0805	0.071696	0.001982	36.1687	-85.389	13.486	-0.087663	0.791070	-0.308324	-0.309690	-0.045451	36.1687	-0.307382	-6057.32	7.503543E-6	NaN
431	1.000000	0.802441	7.36928e+06	-55539.1	1005.82	-29741.4	0.000000	0.000000	6.803069	0.030423	NaN	0.000000	0.001627	0.001660	28.0807	0.081424	0.002046	39.7988	-107.879	-169.084	0.000456	0.801103	-0.298319	-0.299656	0.030423	39.7988	-0.298892	-4530.42	-6.715242E-6	NaN
431	1.000000	0.812449	7.36928e+06	-55539.1	1005.82	-29741.4	0.000000	0.000000	6.813075	-0.020083	NaN	0.000000	0.001609	0.001629	28.0802	0.135114	0.001923	70.2517	-108.279	14.0243	0.009603	0.811093	-0.288311	-0.289667	-0.020083	70.2517	-0.288096	-3124.37	6.427904E-6	NaN
431	1.000000	0.822439	7.36928e+06	-55539.1	1005.82	-29741.4	0.000000	0.000000	6.823065	-0.016813	NaN	0.000000	0.001633	0.001641	28.0804	0.078542	0.001906	41.2053	57.807	-165.994	-0.006892	0.821146	-0.278321	-0.279613	-0.016813	41.2053	-0.278015	-2202.92	7.632380E-6	NaN
431	1.000000	0.832501	7.36928e+06	-55539.1	1005.82	-29741.4	0.000000	0.000000	6.833128	-0.012891	NaN	0.000000	0.001610	0.001648	28.0803	0.049838	0.002095	23.7916	-134.596	14.6613	-0.030066	0.831110	-0.268259	-0.269649	-0.012891	23.7916	-0.267852	-1544.78	8.345126E-6	NaN
431	1.000000	0.842449	7.36928e+06	-55539.1	1005.82	-29741.4	0.000000	0.000000	6.843077	0.013576	NaN	0.000000	0.001651	0.001654	28.0793	0.052611	0.001984	26.5203	-137.563	-165.986	-0.007248	0.841130	-0.258310	-0.259630	0.013576	26.5203	-0.258694	-1119.17	-1.213068E-5	NaN
431	1.000000	0.852454	7.36928e+06	-55539.1	1005.82	-29741.4	0.000000	0.000000	6.853082	0.014544	NaN	0.000000	0.001631	0.001588	28.0789	0.128669	0.001932	66.5936	24.2061	12.5441	-0.006051	0.851163	-0.248306	-0.249597	0.014544	66.5936	-0.248469	-778.534	-1.868144E-5	NaN
431	1.000000	0.862420	7.36928e+06	-55539.1	1005.82	-29741.4	0.000000	0.000000	6.863049	0.056369	NaN	0.000000	0.001624	0.001620	28.0791	0.121400	0.001917	63.3202	-21.9096	-163.764	-0.010035	0.861164	-0.238340	-0.239595	0.056369	63.3202	-0.239008	-554.687	-0.000102	NaN
431	1.000000	0.872454	7.36928e+06	-55539.1	1005.82	-29741.4	0.000000	0.000000	6.873081	-0.007933	NaN	0.000000	0.001630	0.001606	28.0791	0.130078	0.001934	67.2732	-81.3007	16.1726	0.025991	0.871150	-0.228306	-0.229610	-0.007933	67.2732	-0.228217	-375.265	2.114093E-5	NaN
431	1.000000	0.882466	7.36928e+06	-55539.1	1005.82	-29741.4	0.000000	0.000000	6.883092	-0.007252	NaN	0.000000	0.001574	0.001610	28.079	0.055907	0.001984	28.1786	-178.543	-162.579	-0.015845	0.881151	-0.218294	-0.219609	-0.007252	28.1786	-0.218101	-258.996	2.799902E-5	NaN
431	1.000000	0.892465	7.36928e+06	-55539.1	1005.82	-29741.4	0.000000	0.000000	6.893094	0.033666	NaN	0.000000	0.001562	0.001602	28.0789	0.091055	0.002010	45.3057	39.0771	10.5854	0.086700	0.891147	-0.208294	-0.209613	0.033666	45.3057	-0.208852	-183.742	-0.000183	NaN
431	1.000000	0.902476	7.36928e+06	-55539.1	1005.82	-29741.4	0.000000	0.000000	6.903102	-0.024135	NaN	0.000000	0.001569	0.001632	28.0791	0.042001	0.001936	21.6902	106.212	-168.309	-0.028143	0.901177	-0.198283	-0.199583	-0.024135	21.6902	-0.197449	-119.588	0.000202	NaN
431	1.000000	0.912498	7.36928e+06	-55539.1	1005.82	-29741.4	0.000000	0.000000	6.913124	-0.019650	NaN	0.000000	0.001547	0.001673	28.0791	0.059300	0.002083	28.4677	95.6218	12.3405	0.003137	0.911131	-0.188262	-0.189629	-0.019650	28.4677	-0.187744	-82.4639	0.000238	NaN
431	1.000000	0.922478	7.36928e+06	-55539.1	1005.82	-29741.4	0.000000	0.000000	6.923108	0.095556	NaN	0.000000	0.001559	0.001647	28.0802	0.046057	0.001995	23.0827	59.1083	-167.915	0.087774	0.921136	-0.178282	-0.179623	0.095556	23.0827	-0.181387	-64.4216	-0.001483	NaN
431	1.000000	0.932513	7.36928e+06	-55539.1	1005.82	-29741.4	0.000000	0.000000	6.933142	0.053894	NaN	0.000000	0.001566	0.001618	28.0789	0.167019	0.002022	82.5912	-45.0297	14.954	0.064342	0.931155	-0.168246	-0.169605	0.053894	82.5912	-0.168736	-39.0508	-0.001380	NaN
431	1.000000	0.942509	7.36928e+06	-55539.1	1005.82	-29741.4	0.000000	0.000000	6.943136	-0.011622	NaN	0.000000	0.001569	0.001640	28.0791	0.091310	0.002037	44.8164	148.031	-165.772	0.002327	0.941158	-0.158250	-0.159601	-0.011622	44.8164	-0.158056	-25.3138	0.000459	NaN
431	1.000000	0.952494	7.36928e+06	-55539.1	1005.82	-29741.4	0.000000	0.000000	6.953120	-0.026721	NaN	0.000000	0.001554	0.001655	28.0794	0.070423	0.001901	37.048	83.9192	15.7518	-0.044374	0.951161	-0.148266	-0.149599	-0.026721	37.048	-0.147725	-16.4582	0.001624	NaN
431	1.000000	0.962517	7.36928e+06	-55539.1	1005.82	-29741.4	0.000000	0.000000	6.963145	0.014309	NaN	0.000000	0.001580	0.001657	28.0791	0.021080	0.001969	10.7038	-44.7097	-162.362	0.066831	0.961203	-0.138243	-0.139557	0.014309	10.7038	-0.139245	-11.4491	-0.001250	NaN
431	1.000000	0.972527	7.36928e+06	-55539.1	1005.82	-29741.4	0.000000	0.000000	6.973152	-0.051103	NaN	0.000000	0.001606	0.001689	28.0802	0.094612	0.002066	45.7948	-142.47	15.9351	-0.067382	0.971157	-0.128232	-0.129603	-0.051103	45.7948	-0.127395	-6.779225	0.007538	NaN
431	1.000000	0.982531	7.36928e+06	-55539.1	1005.82	-29741.4	0.000000	0.000000	6.983158	0.007317	NaN	0.000000	0.001584	0.001691	28.0804	0.048097	0.001963	24.4958	-52.315	-168.628	-0.022837	0.981208	-0.118229	-0.119551	0.007317	24.4958	-0.118453	-4.495272	-0.001628	NaN
431	1.000000	0.992508	7.36928e+06	-55539.1	1005.82	-29741.4	0.000000	0.000000	6.993135	-0.004971	NaN	0.000000	0.001568	0.001682	28.0806	0.063610	0.002073	30.6878	174.288	13.5444	-0.018180	0.991160	-0.108252	-0.109599	-0.004971	30.6878	-0.108130	-2.743321	0.001812	NaN
431	1.000000	1.002521	7.36928e+06	-55539.1	1005.82	-29741.4	0.000000	0.000000	7.003148	-0.008057	NaN	0.000000	0.001569	0.001659	28.0805	0.050943	0.001996	25.5288	-130.328	-164.277	-0.055123	1.001197	-0.098238	-0.099562	-0.008057	25.5288	-0.098002	-1.649062	0.004886	NaN
431	1.000000	1.012536	7.36928e+06	-55539.1	1005.82	-29741.4	0.000000	0.000000	7.013163	-0.013011	NaN	0.000000	0.001645	0.001657	28.0801	0.050220	0.001889	26.5824	168.258	13.0278	0.034818	1.011190	-0.088223	-0.089570	-0.013011	26.5824	-0.087856	-0.962023	0.013525	NaN
431	1.000000	1.022523	7.36928e+06	-55539.1	1005.82	-29741.4	0.000000	0.000000	7.023148	-0.052285	NaN	0.000000	0.001625	0.001650	28.0804	0.063176	0.002035	31.0513	136.447	-165.859	-0.006776	1.021210	-0.078236	-0.079550	-0.052285	31.0513	-0.076974	-0.519075	0.100727	NaN
431	1.000000	1.032523	7.36928e+06	-55539.1	1005.82	-29741.4	0.000000	0.000000	7.033150	0.012289	NaN	0.000000	0.001632	0.001630	28.0801	0.055981	0.001976	28.326	62.9046	11.3512	-0.029275	1.031177	-0.068237	-0.069582	0.012289	28.326	-0.068562	-0.312023	-0.039385	NaN
431	1.000000	1.042520	7.36928e+06	-55539.1	1005.82	-29741.4	0.000000	0.000000	7.043149	0.058313	NaN	0.000000	0.001620	0.001639	28.0802	0.162722	0.002011	80.9353	-80.1937	-168.967	0.024943	1.041270	-0.058240	-0.059490	0.058313	80.9353	-0.058780	-0.166100	-0.351071	NaN
431	1.000000	1.052528	7.36928e+06	-55539.1	1005.82	-29741.4	0.000000	0.000000	7.053154	-0.026598	NaN	0.000000	0.001645	0.001701	28.0803	0.032758	0.001965	16.6752	-59.6232	15.1953	-0.064045	1.051177	-0.048231	-0.049582	-0.026598	16.6752	-0.047035	-0.074157	0.358666	NaN
431	1.000000	1.062546	7.36928e+06	-55539.1	1005.82	-29741.4	0.000000	0.000000	7.063174	0.026192	NaN	0.000000	0.001616	0.001683	28.0806	0.021802	0.002103	10.3671	179.552	-164.92	0.009582	1.061243	-0.038213	-0.039517	0.026192	10.3671	-0.040108	-0.045566	-0.574820	NaN
431	1.000000	1.072543	7.36928e+06	-55539.1	1005.82	-29741.4	0.000000	0.000000	7.073169	-0.022383	NaN	0.000000	0.001611	0.001666	28.0803	0.010112	0.002043	4.948511	51.6181	13.9485	-0.059414	1.071222	-0.028217	-0.029538	-0.022383	4.948511	-0.024825	-0.016693	1.340839	NaN
431	1.000000	1.082539	7.36928e+06	-55539.1	1005.82	-29741.4	0.000000	0.000000	7.083166	-0.004136	NaN	0.000000	0.001612	0.001678	28.0804	0.054611	0.002008	27.1997	147.93	-164.934	-0.081271	1.081277	-0.018220	-0.019482	-0.004136	27.1997	-0.018106	-0.011234	0.368203	NaN
431	1.000000	1.092570	7.36928e+06	-55539.1	1005.82	-29741.4	0.000000	0.000000	7.093198	0.009443	NaN	0.000000	0.001575	0.001676	28.0805	0.151033	0.001990	75.8896	113.081	12.9626	-0.043065	1.091185	-0.008189	-0.009574	0.009443	75.8896	-0.008283	-0.005397	-1.749780	NaN
431	1.000000	1.102566	7.36928e+06	-55539.1	1005.82	-29741.4	0.000000	0.000000	7.103201	0.189555	NaN	0.000000	0.001595	0.001677	28.0806	0.374095	0.001923	194.554	19.4901	-164.536	0.025213	1.101197	0.001807	0.000438	0.189555	194.554	0.001076	0.000821	230.867	6203.35
431	1.000000	1.112494	7.36928e+06	-55539.1	1005.82	-29741.4	0.000000	0.000000	7.113438	7.720788	NaN	0.000000	0.001575	0.001650	28.0792	7.968771	0.001652	4822.86	14.6762	4.123417	6.427182	1.111206	0.011734	0.010446	7.720788	4822.86	0.010533	0.009780	789.433	44555.9
431	2.000000	1.116093	7.36928e+06	-55539.1	1005.82	-29741.4	0.000000	0.000000	7.117111	9.525679	NaN	0.000000	0.001577	0.001709	28.0792	11.1304	0.001783	6241.06	10.3779	-176.542	9.229456	1.115871	0.015333	0.015112	9.525679	6241.06	0.014188	0.014218	669.966	47820
431	2.000000	1.118593	7.36928e+06	-55539.1	1005.82	-29741.4	0.000000	0.000000	7.119774	13.4605	NaN	0.000000	0.001597	0.001663	28.08	13.9268	0.001813	7681.06	8.336322	4.937375	12.5589	1.118237	0.017833	0.017477	13.4605	7681.06	0.016519	0.017365	775.171	53255.3
431	2.000000	1.121059	7.36928e+06	-55539.1	1005.82	-29741.4	0.000000	0.000000	7.122418	17.8003	NaN	0.000000	0.001579	0.001667	28.0791	16.4698	0.001852	8893.64	9.614287	-177.261	18.2893	1.120727	0.020299	0.019967	17.8003	8893.64	0.018798	0.020688	860.397	56492.3
431	2.000000	1.123531	7.36928e+06	-55539.1	1005.82	-29741.4	0.000000	0.000000	7.124984	20.0655	NaN	0.000000	0.001658	0.001696	28.0797	18.7811	0.001899	9889.73	7.158589	3.178023	18.8211	1.123204	0.022772	0.022445	20.0655	9889.73	0.021250	0.024544	817.518	57674.2
431	2.000000	1.126038	7.36928e+06	-55539.1	1005.82	-29741.4	0.000000	0.000000	7.127635	23.5712	NaN	0.000000	0.001588	0.001626	28.0791	20.7524	0.001951	10634.1	8.379595	-176.731	23.8755	1.125710	0.025278	0.024950	23.5712	10634.1	0.023616	0.028546	825.738	57504.9
431	2.000000	1.128496	7.36928e+06	-55539.1	1005.82	-29741.4	0.000000	0.000000	7.130448	32.2193	NaN	0.000000	0.001647	0.001671	28.0796	23.6002	0.001882	12537.5	7.725132	1.410786	30.1025	1.128123	0.027736	0.027363	32.2193	12537.5	0.025809	0.032504	991.253	63535.8
431	2.000000	1.131017	7.36928e+06	-55539.1	1005.82	-29741.4	0.000000	0.000000	7.133086	35.0522	NaN	0.000000	0.001605	0.001676	28.0791	25.7074	0.001661	15479	7.815630	177.837	34.3135	1.130696	0.030257	0.029936	35.0522	15479	0.028559	0.037810	927.065	72729.8
431	2.000000	1.133506	7.36928e+06	-55539.1	1005.82	-29741.4	0.000000	0.000000	7.135926	43.5703	NaN	0.000000	0.001593	0.001669	28.0794	28.6116	0.001922	14890.2	7.531279	-0.238175	42.6518	1.133173	0.032747	0.032413	43.5703	14890.2	0.030552	0.041896	1039.97	66464.3
431	2.000000	1.136008	7.36928e+06	-55539.1	1005.82	-29741.4	0.000000	0.000000	7.138707	50.353	NaN	0.000000	0.001610	0.001642	28.0792	30.9017	0.001816	17012.9	5.312137	-179.347	49.6605	1.135722	0.035248	0.034962	50.353	17012.9	0.033029	0.047255	1065.55	71503.1
431	2.000000	1.138537	7.36928e+06	-55539.1	1005.82	-29741.4	0.000000	0.000000	7.141478	56.2396	NaN	0.000000	0.001592	0.001669	28.0792	32.8554	0.001698	19355.1	4.829155	-0.994973	55.5009	1.138133	0.037778	0.037373	56.2396	19355.1	0.035598	0.053149	1058.16	76705
431	2.000000	1.141003	7.36928e+06	-55539.1	1005.82	-29741.4	0.000000	0.000000	7.144333	65.6949	NaN	0.000000	0.001619	0.001686	28.079	35.5844	0.001758	20237.9	6.886391	177.39	66.5138	1.140677	0.040244	0.039918	65.6949	20237.9	0.037809	0.058489	1123.2	76454.1
431	2.000000	1.143425	7.36928e+06	-55539.1	1005.82	-29741.4	0.000000	0.000000	7.147107	74.257	NaN	0.000000	0.001624	0.001689	28.0792	39.3701	0.001814	21708.3	5.588154	-3.521794	70.0625	1.143055	0.042666	0.042296	74.257	21708.3	0.040100	0.064287	1155.08	78223.4
431	2.000000	1.146061	7.36928e+06	-55539.1	1005.82	-29741.4	0.000000	0.000000	7.149942	79.0891	NaN	0.000000	0.001597	0.001676	28.0791	42.3021	0.001835	23052.7	3.024735	179.417	83.2315	1.145683	0.045301	0.044924	79.0891	23052.7	0.042728	0.071269	1109.72	78893.8
431	2.000000	1.148444	7.36928e+06	-55539.1	1005.82	-29741.4	0.000000	0.000000	7.152914	93.4154	NaN	0.000000	0.001531	0.001675	28.0806	44.1794	0.001897	23290.2	5.223919	-2.492336	88.8418	1.148113	0.047684	0.047353	93.4154	23290.2	0.044676	0.076671	1218.4	76848
431	2.000000	1.150933	7.36928e+06	-55539.1	1005.82	-29741.4	0.000000	0.000000	7.155655	99.5301	NaN	0.000000	0.001559	0.001724	28.0804	46.2486	0.001731	26714.8	6.796316	173.625	97.456	1.150691	0.050174	0.049931	99.5301	26714.8	0.047379	0.084486	1178.07	83972
431	2.000000	1.153469	7.36928e+06	-55539.1	1005.82	-29741.4	0.000000	0.000000	7.158839	115.296	NaN	0.000000	0.001582	0.001667	28.0805	48.7114	0.001743	27948.9	2.744134	-1.991506	113.623	1.153160	0.052709	0.052400	115.296	27948.9	0.049615	0.091228	1263.82	84542
431	2.000000	1.155999	7.36928e+06	-55539.1	1005.82	-29741.4	0.000000	0.000000	7.161478	117.934	NaN	0.000000	0.001600	0.001731	28.0805	51.8979	0.001815	28592.9	2.552480	177.161	119.314	1.155763	0.055239	0.055003	117.934	28592.9	0.052146	0.099162	1189.31	82958.3
431	2.000000	1.158554	7.36928e+06	-55539.1	1005.82	-29741.4	0.000000	0.000000	7.164758	135.575	NaN	0.000000	0.001582	0.001714	28.0803	53.2368	0.001688	31539.9	2.403817	-2.517069	136.607	1.158078	0.057794	0.057318	135.575	31539.9	0.054570	0.107060	1266.35	88068.4
431	2.000000	1.160961	7.36928e+06	-55539.1	1005.82	-29741.4	0.000000	0.000000	7.167662	147.659	NaN	0.000000	0.001610	0.001736	28.0804	55.6673	0.001786	31164.2	6.249858	173.903	146.034	1.160562	0.060201	0.059803	147.659	31164.2	0.056647	0.114061	1294.55	84306.2
431	2.000000	1.163416	7.36928e+06	-55539.1	1005.82	-29741.4	0.000000	0.000000	7.170432	155.307	NaN	0.000000	0.001619	0.001749	28.0802	57.9916	0.001866	31071.9	3.949917	-4.478900	151.981	1.163112	0.062656	0.062353	155.307	31071.9	0.058907	0.121920	1273.84	81302.4
431	2.000000	1.165916	7.36928e+06	-55539.1	1005.82	-29741.4	0.000000	0.000000	7.173399	166.672	NaN	0.000000	0.001589	0.001729	28.0805	60.7498	0.001707	35590.6	4.926950	173.027	164.186	1.165712	0.065156	0.064952	166.672	35590.6	0.061644	0.131769	1264.88	89578.3
431	2.000000	1.168446	7.36928e+06	-55539.1	1005.82	-29741.4	0.000000	0.000000	7.176425	178.72	NaN	0.000000	0.001589	0.001701	28.0803	61.7514	0.001726	35773.2	1.335925	-3.081129	175.185	1.168120	0.067686	0.067361	178.72	35773.2	0.063939	0.140311	1273.74	87254
431	2.000000	1.170952	7.36928e+06	-55539.1	1005.82	-29741.4	0.000000	0.000000	7.179717	197.809	NaN	0.000000	0.001575	0.001685	28.0803	64.5811	0.001747	36968.9	4.422295	173.477	198.154	1.170563	0.070192	0.069803	197.809	36968.9	0.066179	0.148894	1328.52	87532.7
431	2.000000	1.173434	7.36928e+06	-55539.1	1005.82	-29741.4	0.000000	0.000000	7.182511	205.414	NaN	0.000000	0.001603	0.001689	28.0806	68.23	0.001890	36095.9	5.415869	-7.438404	202.723	1.173115	0.072674	0.072356	205.414	36095.9	0.068406	0.157665	1302.85	83054.5
431	2.000000	1.175843	7.36928e+06	-55539.1	1005.82	-29741.4	0.000000	0.000000	7.185642	222.955	NaN	0.000000	0.001624	0.001711	28.0804	70.5207	0.001836	38411.2	4.026294	174.37	216.75	1.175520	0.075083	0.074760	222.955	38411.2	0.070730	0.167069	1334.51	85858.5
431	2.000000	1.178485	7.36928e+06	-55539.1	1005.82	-29741.4	0.000000	0.000000	7.188755	234.41	NaN	0.000000	0.001590	0.001728	28.0803	71.5059	0.001676	42671	3.238001	-5.958421	232.401	1.178187	0.077725	0.077427	234.41	42671	0.073605	0.179062	1309.1	92130.7
431	2.000000	1.180881	7.36928e+06	-55539.1	1005.82	-29741.4	0.000000	0.000000	7.192127	258.111	NaN	0.000000	0.001608	0.001713	28.079	75.614	0.001753	43134.2	9.374662	168.163	255.986	1.180537	0.080122	0.079778	258.111	43134.2	0.075634	0.187758	1374.7	90948.7
431	2.000000	1.183282	7.36928e+06	-55539.1	1005.82	-29741.4	0.000000	0.000000	7.194826	265.365	NaN	0.000000	0.001591	0.001739	28.0791	77.791	0.001683	46229.2	6.668081	-10.0315	255.233	1.182928	0.082523	0.082169	265.365	46229.2	0.078218	0.199113	1332.73	94654.1
431	2.000000	1.185883	7.36928e+06	-55539.1	1005.82	-29741.4	0.000000	0.000000	7.198310	286.838	NaN	0.000000	0.001606	0.001745	28.079	81.2113	0.001881	43178.6	2.729141	174.922	282.914	1.185561	0.085124	0.084801	286.838	43178.6	0.080141	0.207770	1380.56	86546.6
431	2.000000	1.188423	7.36928e+06	-55539.1	1005.82	-29741.4	0.000000	0.000000	7.201507	302.822	NaN	0.000000	0.001622	0.001796	28.0791	84.0876	0.001809	46472	8.097990	-10.5954	299.393	1.188043	0.087663	0.087283	302.822	46472	0.082776	0.219907	1377.04	90540.9
431	2.000000	1.190833	7.36928e+06	-55539.1	1005.82	-29741.4	0.000000	0.000000	7.204745	322.96	NaN	0.000000	0.001589	0.001728	28.0789	85.1793	0.001785	47718.9	2.201708	174.448	317.989	1.190566	0.090073	0.089807	322.96	47718.9	0.084997	0.230387	1401.82	90831.1
431	2.000000	1.193379	7.36928e+06	-55539.1	1005.82	-29741.4	0.000000	0.000000	7.207869	337.008	NaN	0.000000	0.001602	0.001748	28.0792	87.4142	0.001762	49607.6	1.308003	-5.446204	333.756	1.193161	0.092619	0.092401	337.008	49607.6	0.087524	0.242588	1389.22	92021
431	2.000000	1.195910	7.36928e+06	-55539.1	1005.82	-29741.4	0.000000	0.000000	7.211258	357.844	NaN	0.000000	0.001600	0.001746	28.079	92.5944	0.001830	50600.5	6.568784	169.386	356.736	1.195557	0.095150	0.094797	357.844	50600.5	0.089846	0.254060	1408.5	91719.2
431	2.000000	1.198443	7.36928e+06	-55539.1	1005.82	-29741.4	0.000000	0.000000	7.214438	373.59	NaN	0.000000	0.001638	0.001749	28.0793	93.257	0.001761	52954.5	5.668489	-9.278611	371.611	1.198068	0.097683	0.097308	373.59	52954.5	0.092392	0.266920	1399.63	93645.2
431	2.000000	1.200943	7.36928e+06	-55539.1	1005.82	-29741.4	0.000000	0.000000	7.217746	393.206	NaN	0.000000	0.001635	0.001771	28.0792	96.1868	0.001872	51381.2	6.439932	169.407	393.646	1.200682	0.100183	0.099923	393.206	51381.2	0.094444	0.277502	1416.95	89113.6
431	2.000000	1.203349	7.36928e+06	-55539.1	1005.82	-29741.4	0.000000	0.000000	7.221024	414.421	NaN	0.000000	0.001613	0.001713	28.0794	97.7855	0.001793	54543.6	6.455533	-10.6731	408.617	1.203022	0.102589	0.102262	414.421	54543.6	0.096891	0.290372	1427.2	92478.3
431	2.000000	1.205870	7.36928e+06	-55539.1	1005.82	-29741.4	0.000000	0.000000	7.224265	431.926	NaN	0.000000	0.001617	0.001726	28.0792	100.866	0.001835	54953.3	6.077592	169.55	429.996	1.205570	0.105110	0.104811	431.926	54953.3	0.099215	0.302850	1426.2	91233.4
431	2.000000	1.208354	7.36928e+06	-55539.1	1005.82	-29741.4	0.000000	0.000000	7.227931	460.649	NaN	0.000000	0.001611	0.001756	28.0793	102.087	0.001780	57337.2	4.831107	-9.374304	454.679	1.207972	0.107594	0.107213	460.649	57337.2	0.101569	0.315734	1458.98	93228.4
431	2.000000	1.210854	7.36928e+06	-55539.1	1005.82	-29741.4	0.000000	0.000000	7.231234	480.164	NaN	0.000000	0.001592	0.001730	28.0793	104.393	0.001825	57195.7	4.696658	170.452	476.672	1.210611	0.110094	0.109851	480.164	57195.7	0.103798	0.328172	1463.15	91219.1
431	2.000000	1.212513	7.36928e+06	-55539.1	1005.82	-29741.4	0.000000	0.000000	7.233075	484.569	NaN	0.000000	0.001627	0.001752	28.079	106.906	0.001767	60514.1	4.753756	-9.814087	487.618	1.212127	0.111754	0.111367	484.569	60514.1	0.105748	0.339236	1428.41	94924.6