File: remote_trans/data/nanoindenter/0828-1/data/Data_2025-08-06,11h17m57s/2025-07-22_16-23-58_1_1153.txt
2025-07-22, 16:23:58, 1
Index	Phase	Displacement	Time	Pos X	Pos Y	Pos Z	Rot A	Rot B	Piezo Z	Force A	Force B	Gripper	Voltage A	Voltage B	Temperature	Amplitude force	Amplitude pos	Stiffness	Phase shift	Phase excitation	Force A raw	Displacement raw	HMax	HMax raw	Real Force	Real Stiffness	Contact Depth	Area	Hardness	Reduced Mod.
[#]	[#]	[um]	[s]	[um]	[um]	[um]	[m°]	[m°]	[um]	[uN]	[uN]	[V]	[V]	[V]	[°C]	[uN]	[um]	[N/m]	[°]	[°]	[uN]	[um]	[um]	[um]	[uN]	[N/m]	[um]	[um^2]	[MPa]	[MPa]
1153	1.000000	0.002763	7.37633e+06	-57789.1	1055.82	-29736.3	0.000000	0.000000	6.002787	-0.005456	NaN	0.000000	0.001641	0.001673	28.0816	0.069032	0.000996	69.2803	-91.5553	-165.445	-0.067535	0.001533	-1.143115	-1.144344	-0.005456	69.2803	-1.143056	-1.895450E+15	2.878725E-18	NaN
1153	1.000000	0.012856	7.37633e+06	-57789.1	1055.82	-29736.3	0.000000	0.000000	6.012879	-0.029977	NaN	0.000000	0.001609	0.001728	28.0817	0.152968	0.001218	125.548	-39.6002	21.1558	-0.085864	0.011395	-1.133022	-1.134483	-0.029977	125.548	-1.132843	-1.382777E+15	2.167890E-17	NaN
1153	1.000000	0.022713	7.37633e+06	-57789.1	1055.82	-29736.3	0.000000	0.000000	6.022737	-0.014572	NaN	0.000000	0.001637	0.001666	28.0816	0.061702	0.001686	36.6008	-63.6469	-165.867	0.006235	0.021421	-1.123165	-1.124457	-0.014572	36.6008	-1.122866	-1.016081E+15	1.434162E-17	NaN
1153	1.000000	0.032729	7.37633e+06	-57789.1	1055.82	-29736.3	0.000000	0.000000	6.032754	0.016002	NaN	0.000000	0.001624	0.001706	28.0814	0.065415	0.001790	36.5544	-37.852	14.7519	-0.007133	0.031355	-1.113149	-1.114522	0.016002	36.5544	-1.113477	-7.602318E+14	-2.104834E-17	NaN
1153	1.000000	0.042723	7.37633e+06	-57789.1	1055.82	-29736.3	0.000000	0.000000	6.042746	-0.039713	NaN	0.000000	0.001628	0.001697	28.0816	0.020150	0.002025	9.950876	174.459	-165.301	-0.039052	0.041407	-1.103154	-1.104471	-0.039713	9.950876	-1.100161	-5.037694E+14	7.883183E-17	NaN
1153	1.000000	0.052676	7.37633e+06	-57789.1	1055.82	-29736.3	0.000000	0.000000	6.052697	-0.083380	NaN	0.000000	0.001657	0.001698	28.0818	0.087581	0.001861	47.0729	62.6576	15.5598	-0.005019	0.051355	-1.093202	-1.094523	-0.083380	47.0729	-1.091873	-3.899087E+14	2.138454E-16	NaN
1153	1.000000	0.062734	7.37633e+06	-57789.1	1055.82	-29736.3	0.000000	0.000000	6.062757	-0.044818	NaN	0.000000	0.001639	0.001735	28.0817	0.044175	0.002042	21.6367	-103.209	-168.578	-0.007475	0.061454	-1.083143	-1.084424	-0.044818	21.6367	-1.081590	-2.837063E+14	1.579748E-16	NaN
1153	1.000000	0.072708	7.37633e+06	-57789.1	1055.82	-29736.3	0.000000	0.000000	6.072732	-0.002569	NaN	0.000000	0.001628	0.001713	28.0816	0.079437	0.002057	38.6176	-151.774	7.537621	-0.055608	0.071351	-1.073170	-1.074527	-0.002569	38.6176	-1.073120	-2.183250E+14	1.176878E-17	NaN
1153	1.000000	0.082739	7.37633e+06	-57789.1	1055.82	-29736.3	0.000000	0.000000	6.082764	0.005546	NaN	0.000000	0.001648	0.001718	28.0812	0.106670	0.002162	49.3299	44.4613	-166.771	0.055920	0.081412	-1.063139	-1.064465	0.005546	49.3299	-1.063223	-1.607422E+14	-3.450093E-17	NaN
1153	1.000000	0.092758	7.37633e+06	-57789.1	1055.82	-29736.3	0.000000	0.000000	6.092782	-0.005906	NaN	0.000000	0.001638	0.001726	28.0816	0.123870	0.001970	62.8927	-123.621	13.6109	-0.041719	0.091406	-1.053120	-1.054472	-0.005906	62.8927	-1.053049	-1.173285E+14	5.034060E-17	NaN
1153	1.000000	0.102769	7.37633e+06	-57789.1	1055.82	-29736.3	0.000000	0.000000	6.102793	-0.021383	NaN	0.000000	0.001660	0.001708	28.0815	0.068775	0.002064	33.3217	114.557	-165.181	-0.037254	0.101433	-1.043109	-1.044445	-0.021383	33.3217	-1.042627	-8.497556E+13	2.516418E-16	NaN
1153	1.000000	0.112782	7.37633e+06	-57789.1	1055.82	-29736.3	0.000000	0.000000	6.112808	0.036312	NaN	0.000000	0.001651	0.001734	28.0828	0.061790	0.002070	29.8473	-145.709	14.8162	0.054429	0.111425	-1.033095	-1.034453	0.036312	29.8473	-1.034008	-6.507071E+13	-5.580404E-16	NaN
1153	1.000000	0.122778	7.37633e+06	-57789.1	1055.82	-29736.3	0.000000	0.000000	6.122805	0.067505	NaN	0.000000	0.001656	0.001718	28.0828	0.057439	0.002097	27.387	-11.4444	-166.951	0.047394	0.121460	-1.023100	-1.024418	0.067505	27.387	-1.024948	-4.915040E+13	-1.373442E-15	NaN
1153	1.000000	0.132741	7.37633e+06	-57789.1	1055.82	-29736.3	0.000000	0.000000	6.132764	-0.035555	NaN	0.000000	0.001636	0.001725	28.0827	0.074949	0.001981	37.8405	98.6895	16.7871	0.048465	0.131444	-1.013137	-1.014434	-0.035555	37.8405	-1.012432	-3.335157E+13	1.066054E-15	NaN
1153	1.000000	0.142744	7.37633e+06	-57789.1	1055.82	-29736.3	0.000000	0.000000	6.142769	-0.006865	NaN	0.000000	0.001648	0.001757	28.0828	0.080219	0.001990	40.3203	62.5573	-169.035	0.032056	0.141451	-1.003133	-1.004427	-0.006865	40.3203	-1.003006	-2.490197E+13	2.756792E-16	NaN
1153	1.000000	0.152779	7.37633e+06	-57789.1	1055.82	-29736.3	0.000000	0.000000	6.152803	-0.010649	NaN	0.000000	0.001634	0.001711	28.0829	0.026659	0.002018	13.2103	-111.934	15.5246	-0.000486	0.151345	-0.993098	-0.994532	-0.010649	13.2103	-0.992494	-1.797621E+13	5.924099E-16	NaN
1153	1.000000	0.162758	7.37633e+06	-57789.1	1055.82	-29736.3	0.000000	0.000000	6.162783	0.019247	NaN	0.000000	0.001637	0.001746	28.0829	0.053584	0.002022	26.5036	-128.254	-166.431	0.072971	0.161477	-0.983120	-0.984401	0.019247	26.5036	-0.983664	-1.367021E+13	-1.407941E-15	NaN
1153	1.000000	0.172749	7.37633e+06	-57789.1	1055.82	-29736.3	0.000000	0.000000	6.172774	0.009936	NaN	0.000000	0.001647	0.001747	28.0826	0.085910	0.002033	42.2556	-150.54	11.8966	-0.046292	0.171433	-0.973129	-0.974445	0.009936	42.2556	-0.973305	-9.913066E+12	-1.002323E-15	NaN
1153	1.000000	0.182803	7.37633e+06	-57789.1	1055.82	-29736.3	0.000000	0.000000	6.182826	-0.028210	NaN	0.000000	0.001599	0.001717	28.0829	0.063049	0.001876	33.6026	15.3176	-169.306	0.015634	0.181473	-0.963075	-0.964404	-0.028210	33.6026	-0.962445	-7.076798E+12	3.986269E-15	NaN
1153	1.000000	0.192761	7.37633e+06	-57789.1	1055.82	-29736.3	0.000000	0.000000	6.192786	-0.011136	NaN	0.000000	0.001636	0.001722	28.0825	0.026185	0.001968	13.3021	153.454	14.3089	-0.017964	0.191465	-0.953116	-0.954412	-0.011136	13.3021	-0.952488	-5.195005E+12	2.143652E-15	NaN
1153	1.000000	0.202755	7.37633e+06	-57789.1	1055.82	-29736.3	0.000000	0.000000	6.202778	-0.051780	NaN	0.000000	0.001586	0.001743	28.0826	0.046119	0.001990	23.173	52.1291	-164.247	-0.052732	0.201493	-0.943123	-0.944384	-0.051780	23.173	-0.941447	-3.686857E+12	1.404462E-14	NaN
1153	1.000000	0.212784	7.37633e+06	-57789.1	1055.82	-29736.3	0.000000	0.000000	6.212806	-0.051838	NaN	0.000000	0.001644	0.001740	28.0823	0.056634	0.001980	28.5998	-65.476	13.5614	0.034333	0.211469	-0.933094	-0.934408	-0.051838	28.5998	-0.931735	-2.726517E+12	1.901248E-14	NaN
1153	1.000000	0.222777	7.37633e+06	-57789.1	1055.82	-29736.3	0.000000	0.000000	6.222799	-0.058128	NaN	0.000000	0.001606	0.001749	28.0826	0.065411	0.001927	33.9504	50.2071	-166.28	-0.084608	0.221487	-0.923101	-0.924391	-0.058128	33.9504	-0.921817	-2.003256E+12	2.901653E-14	NaN
1153	1.000000	0.232811	7.37633e+06	-57789.1	1055.82	-29736.3	0.000000	0.000000	6.232838	0.051451	NaN	0.000000	0.001627	0.001735	28.0824	0.052681	0.001913	27.5342	-18.9541	12.0947	-0.022031	0.231417	-0.913067	-0.914460	0.051451	27.5342	-0.914468	-1.594074E+12	-3.227661E-14	NaN
1153	1.000000	0.242784	7.37633e+06	-57789.1	1055.82	-29736.3	0.000000	0.000000	6.242809	0.001808	NaN	0.000000	0.001666	0.001720	28.0818	0.105795	0.001917	55.1962	137.046	-169.02	-0.009676	0.241485	-0.903093	-0.904392	0.001808	55.1962	-0.903118	-1.119932E+12	-1.614147E-15	NaN
1153	1.000000	0.252794	7.37633e+06	-57789.1	1055.82	-29736.3	0.000000	0.000000	6.252818	-0.018780	NaN	0.000000	0.001632	0.001707	28.0811	0.036950	0.002078	17.7788	-50.4488	9.309620	0.033690	0.251427	-0.893084	-0.894451	-0.018780	17.7788	-0.892291	-7.996292E+11	2.348593E-14	NaN
1153	1.000000	0.262799	7.37633e+06	-57789.1	1055.82	-29736.3	0.000000	0.000000	6.262823	-0.000596	NaN	0.000000	0.001634	0.001730	28.082	0.136768	0.002046	66.8486	-137.388	-166.967	-0.082175	0.261511	-0.883079	-0.884367	-0.000596	66.8486	-0.883072	-6.001429E+11	9.931049E-16	NaN
1153	1.000000	0.272830	7.37633e+06	-57789.1	1055.82	-29736.3	0.000000	0.000000	6.272856	0.033055	NaN	0.000000	0.001649	0.001729	28.0812	0.122687	0.001930	63.5715	-124.48	15.3393	-0.009454	0.271470	-0.873048	-0.874408	0.033055	63.5715	-0.873438	-4.445833E+11	-7.435081E-14	NaN
1153	1.000000	0.282811	7.37634e+06	-57789.1	1055.82	-29736.3	0.000000	0.000000	6.282836	0.002459	NaN	0.000000	0.001654	0.001752	28.0814	0.157634	0.002173	72.5414	167.846	-170.194	0.029425	0.281530	-0.863067	-0.864347	0.002459	72.5414	-0.863092	-3.220856E+11	-7.634015E-15	NaN
1153	1.000000	0.292822	7.37634e+06	-57789.1	1055.82	-29736.3	0.000000	0.000000	6.292846	-0.026137	NaN	0.000000	0.001611	0.001733	28.0815	0.018292	0.002080	8.793656	56.7961	14.6172	-0.036497	0.291451	-0.853056	-0.854427	-0.026137	8.793656	-0.850826	-2.197495E+11	1.189396E-13	NaN
1153	1.000000	0.302792	7.37634e+06	-57789.1	1055.82	-29736.3	0.000000	0.000000	6.302817	0.000661	NaN	0.000000	0.001629	0.001757	28.0814	0.046391	0.001994	23.2707	-37.4118	-160.901	0.095222	0.301543	-0.843085	-0.844334	0.000661	23.2707	-0.843106	-1.727329E+11	-3.828150E-15	NaN
1153	1.000000	0.312833	7.37634e+06	-57789.1	1055.82	-29736.3	0.000000	0.000000	6.312856	-0.042278	NaN	0.000000	0.001609	0.001736	28.0812	0.085459	0.001924	44.4169	60.418	13.8486	-0.038483	0.311482	-0.833045	-0.834395	-0.042278	44.4169	-0.832331	-1.234182E+11	3.425625E-13	NaN
1153	1.000000	0.322841	7.37634e+06	-57789.1	1055.82	-29736.3	0.000000	0.000000	6.322866	0.011311	NaN	0.000000	0.001675	0.001766	28.0815	0.078210	0.002037	38.3894	95.1342	-167.342	-0.033574	0.321518	-0.823037	-0.824360	0.011311	38.3894	-0.823258	-9.297882E+10	-1.216525E-13	NaN
1153	1.000000	0.332865	7.37634e+06	-57789.1	1055.82	-29736.3	0.000000	0.000000	6.332888	-0.041173	NaN	0.000000	0.001660	0.001723	28.0816	0.044709	0.001877	23.8192	-30.9241	12.822	-0.024277	0.331436	-0.813013	-0.814442	-0.041173	23.8192	-0.811717	-6.484249E+10	6.349725E-13	NaN
1153	1.000000	0.342854	7.37634e+06	-57789.1	1055.82	-29736.3	0.000000	0.000000	6.342881	0.048599	NaN	0.000000	0.001628	0.001739	28.0814	0.091614	0.001945	47.1124	-155.396	-166.152	0.042738	0.341529	-0.803024	-0.804349	0.048599	47.1124	-0.803797	-5.062954E+10	-9.599007E-13	NaN
1153	1.000000	0.352888	7.37634e+06	-57789.1	1055.82	-29736.3	0.000000	0.000000	6.352914	0.041642	NaN	0.000000	0.001670	0.001753	28.0814	0.031316	0.002091	14.9771	-58.0786	12.8244	-0.021955	0.351500	-0.792990	-0.794378	0.041642	14.9771	-0.795075	-3.854772E+10	-1.080277E-12	NaN
1153	1.000000	0.362822	7.37634e+06	-57789.1	1055.82	-29736.3	0.000000	0.000000	6.362847	0.008691	NaN	0.000000	0.001646	0.001719	28.0816	0.071584	0.002039	35.1126	-138.64	-168.728	0.065180	0.361572	-0.783055	-0.784306	0.008691	35.1126	-0.783241	-2.662388E+10	-3.264513E-13	NaN
1153	1.000000	0.372862	7.37634e+06	-57789.1	1055.82	-29736.3	0.000000	0.000000	6.372883	-0.067689	NaN	0.000000	0.001627	0.001739	28.0815	0.046831	0.001982	23.6266	-94.8253	13.0504	-0.045925	0.371514	-0.773016	-0.774363	-0.067689	23.6266	-0.770867	-1.807584E+10	3.744743E-12	NaN
1153	1.000000	0.382833	7.37634e+06	-57789.1	1055.82	-29736.3	0.000000	0.000000	6.382857	-0.030410	NaN	0.000000	0.001656	0.001732	28.0826	0.065361	0.002107	31.014	-130.916	-167.15	-0.069415	0.381548	-0.763045	-0.764329	-0.030410	31.014	-0.762309	-1.382655E+10	2.199399E-12	NaN
1153	1.000000	0.392868	7.37634e+06	-57789.1	1055.82	-29736.3	0.000000	0.000000	6.392892	-0.008992	NaN	0.000000	0.001649	0.001737	28.0826	0.124747	0.002003	62.2716	161.998	14.9761	-0.002352	0.391481	-0.753010	-0.754397	-0.008992	62.2716	-0.752901	-1.029697E+10	8.732990E-13	NaN
1153	1.000000	0.402844	7.37634e+06	-57789.1	1055.82	-29736.3	0.000000	0.000000	6.402869	0.004597	NaN	0.000000	0.001665	0.001714	28.083	0.012099	0.002035	5.944434	-3.467694	-165.219	0.025499	0.401534	-0.743034	-0.744344	0.004597	5.944434	-0.743614	-7.696171E+9	-5.972861E-13	NaN
1153	1.000000	0.412840	7.37634e+06	-57789.1	1055.82	-29736.3	0.000000	0.000000	6.412863	-0.037178	NaN	0.000000	0.001671	0.001740	28.0828	0.062618	0.001987	31.5098	-167.737	10.0914	0.020527	0.411518	-0.733038	-0.734360	-0.037178	31.5098	-0.732153	-5.372194E+9	6.920396E-12	NaN
1153	1.000000	0.422881	7.37634e+06	-57789.1	1055.82	-29736.3	0.000000	0.000000	6.422905	-0.028320	NaN	0.000000	0.001679	0.001730	28.0828	0.029237	0.002015	14.5123	-149.349	-166.582	-0.013444	0.421545	-0.722996	-0.724333	-0.028320	14.5123	-0.721533	-3.849253E+9	7.357374E-12	NaN
1153	1.000000	0.432861	7.37634e+06	-57789.1	1055.82	-29736.3	0.000000	0.000000	6.432887	0.007649	NaN	0.000000	0.001640	0.001769	28.0829	0.038108	0.001977	19.2732	-141.514	12.1156	-0.104684	0.431558	-0.713016	-0.714320	0.007649	19.2732	-0.713314	-2.973494E+9	-2.572381E-12	NaN
1153	1.000000	0.442897	7.37634e+06	-57789.1	1055.82	-29736.3	0.000000	0.000000	6.442924	0.052143	NaN	0.000000	0.001665	0.001701	28.0827	0.043966	0.002009	21.8815	-52.2311	-166.765	0.049284	0.441596	-0.702980	-0.704282	0.052143	21.8815	-0.704768	-2.273152E+9	-2.293844E-11	NaN
1153	1.000000	0.452876	7.37634e+06	-57789.1	1055.82	-29736.3	0.000000	0.000000	6.452899	-0.039223	NaN	0.000000	0.001680	0.001746	28.0827	0.097634	0.001997	48.8991	-140.517	11.223	-0.067232	0.451548	-0.693001	-0.694330	-0.039223	48.8991	-0.692400	-1.540677E+9	2.545858E-11	NaN
1153	1.000000	0.462900	7.37634e+06	-57789.1	1055.82	-29736.3	0.000000	0.000000	6.462924	-0.030253	NaN	0.000000	0.001677	0.001738	28.0829	0.039587	0.002059	19.2287	-50.453	-169.491	-0.033878	0.461575	-0.682977	-0.684302	-0.030253	19.2287	-0.681797	-1.103529E+9	2.741468E-11	NaN
1153	1.000000	0.472891	7.37634e+06	-57789.1	1055.82	-29736.3	0.000000	0.000000	6.472919	0.076153	NaN	0.000000	0.001652	0.001709	28.0829	0.046435	0.002048	22.673	-51.1432	14.4428	0.016196	0.471547	-0.672987	-0.674330	0.076153	22.673	-0.675506	-9.051739E+8	-8.413027E-11	NaN
1153	1.000000	0.482892	7.37634e+06	-57789.1	1055.82	-29736.3	0.000000	0.000000	6.482915	-0.023967	NaN	0.000000	0.001612	0.001761	28.0827	0.125301	0.002063	60.7427	80.5527	-167.941	-0.055357	0.481577	-0.662986	-0.664301	-0.023967	60.7427	-0.662690	-6.043807E+8	3.965481E-11	NaN
1153	1.000000	0.492932	7.37634e+06	-57789.1	1055.82	-29736.3	0.000000	0.000000	6.492958	0.024012	NaN	0.000000	0.001642	0.001735	28.0828	0.127080	0.001997	63.6446	13.4769	13.7257	0.025379	0.491539	-0.652945	-0.654339	0.024012	63.6446	-0.653228	-4.484224E+8	-5.354828E-11	NaN
1153	1.000000	0.502880	7.37634e+06	-57789.1	1055.82	-29736.3	0.000000	0.000000	6.502903	-0.041844	NaN	0.000000	0.001663	0.001724	28.0827	0.084370	0.001832	46.055	27.0433	-165.231	0.021490	0.501581	-0.642997	-0.644297	-0.041844	46.055	-0.642316	-3.177313E+8	1.316973E-10	NaN
1153	1.000000	0.512925	7.37634e+06	-57789.1	1055.82	-29736.3	0.000000	0.000000	6.512947	-0.071015	NaN	0.000000	0.001680	0.001771	28.083	0.099393	0.002217	44.8233	105.343	10.1824	-0.030809	0.511565	-0.632953	-0.634313	-0.071015	44.8233	-0.631764	-2.276417E+8	3.119576E-10	NaN
1153	1.000000	0.522895	7.37634e+06	-57789.1	1055.82	-29736.3	0.000000	0.000000	6.522921	0.031296	NaN	0.000000	0.001626	0.001727	28.0815	0.149052	0.001883	79.1543	-9.119034	-165.778	0.028870	0.521584	-0.622983	-0.624294	0.031296	79.1543	-0.623279	-1.740621E+8	-1.797978E-10	NaN
1153	1.000000	0.532953	7.37634e+06	-57789.1	1055.82	-29736.3	0.000000	0.000000	6.532976	-0.020091	NaN	0.000000	0.001634	0.001720	28.0817	0.057307	0.001963	29.1864	-47.0962	9.966483	-0.045463	0.531572	-0.612925	-0.614306	-0.020091	29.1864	-0.612409	-1.233819E+8	1.628388E-10	NaN
1153	1.000000	0.542905	7.37634e+06	-57789.1	1055.82	-29736.3	0.000000	0.000000	6.542931	0.035480	NaN	0.000000	0.001679	0.001747	28.0815	0.085740	0.001955	43.8667	15.1747	-166.382	-0.080477	0.541615	-0.602973	-0.604263	0.035480	43.8667	-0.603579	-9.327153E+7	-3.803994E-10	NaN
1153	1.000000	0.552896	7.37634e+06	-57789.1	1055.82	-29736.3	0.000000	0.000000	6.552921	0.022245	NaN	0.000000	0.001655	0.001804	28.0815	0.135075	0.001962	68.8384	-143.202	15.9442	0.099436	0.551634	-0.592982	-0.594244	0.022245	68.8384	-0.593224	-6.716043E+7	-3.312204E-10	NaN
1153	1.000000	0.562919	7.37634e+06	-57789.1	1055.82	-29736.3	0.000000	0.000000	6.562943	-0.021967	NaN	0.000000	0.001675	0.001787	28.0814	0.008143	0.001996	4.079696	-109.142	-166.863	-0.015164	0.561638	-0.582959	-0.584240	-0.021967	4.079696	-0.578920	-4.264068E+7	5.151572E-10	NaN
1153	1.000000	0.572932	7.37634e+06	-57789.1	1055.82	-29736.3	0.000000	0.000000	6.572958	0.033995	NaN	0.000000	0.001649	0.001782	28.0817	0.026727	0.002117	12.6254	155.653	14.3059	0.053571	0.571630	-0.572946	-0.574248	0.033995	12.6254	-0.574965	-3.760249E+7	-9.040639E-10	NaN
1153	1.000000	0.582933	7.37634e+06	-57789.1	1055.82	-29736.3	0.000000	0.000000	6.582960	0.043324	NaN	0.000000	0.001659	0.001787	28.0817	0.054482	0.001932	28.1977	-59.2906	-169.163	0.008456	0.581669	-0.562944	-0.564209	0.043324	28.1977	-0.564097	-2.660933E+7	-1.628153E-9	NaN
1153	1.000000	0.592932	7.37634e+06	-57789.1	1055.82	-29736.3	0.000000	0.000000	6.592958	0.029149	NaN	0.000000	0.001725	0.001750	28.0818	0.108801	0.002031	53.5699	133.013	12.9349	0.046757	0.591510	-0.552946	-0.554368	0.029149	53.5699	-0.553354	-1.889746E+7	-1.542459E-9	NaN
1153	1.000000	0.602963	7.37634e+06	-57789.1	1055.82	-29736.3	0.000000	0.000000	6.602988	-0.004148	NaN	0.000000	0.001690	0.001789	28.0814	0.070458	0.002078	33.9133	104.086	-164.849	-0.068936	0.601631	-0.542914	-0.544246	-0.004148	33.9133	-0.542823	-1.350509E+7	3.071644E-10	NaN
1153	1.000000	0.612946	7.37634e+06	-57789.1	1055.82	-29736.3	0.000000	0.000000	6.612971	-0.003382	NaN	0.000000	0.001705	0.001737	28.0816	0.087570	0.002061	42.4872	22.0279	10.7984	0.002404	0.611598	-0.532931	-0.534279	-0.003382	42.4872	-0.532872	-9.82763e+06	3.440871E-10	NaN
1153	1.000000	0.622991	7.37634e+06	-57789.1	1055.82	-29736.3	0.000000	0.000000	6.623018	0.063177	NaN	0.000000	0.001691	0.001754	28.0818	0.062564	0.002033	30.7719	-155.112	-167.457	0.115848	0.621626	-0.522887	-0.524252	0.063177	30.7719	-0.524427	-7.50138e+06	-8.422034E-9	NaN
1153	1.000000	0.632966	7.37634e+06	-57789.1	1055.82	-29736.3	0.000000	0.000000	6.632990	-0.022140	NaN	0.000000	0.001685	0.001798	28.0816	0.103237	0.001994	51.7753	160.02	12.6331	-0.003465	0.631585	-0.512912	-0.514293	-0.022140	51.7753	-0.512591	-5.1345e+06	4.311926E-9	NaN
1153	1.000000	0.642957	7.37634e+06	-57789.1	1055.82	-29736.3	0.000000	0.000000	6.642981	-0.015548	NaN	0.000000	0.001697	0.001730	28.0817	0.131395	0.001921	68.4088	-97.308	-170.17	0.023368	0.641670	-0.502921	-0.504207	-0.015548	68.4088	-0.502751	-3.7444e+06	4.152248E-9	NaN
1153	1.000000	0.652995	7.37634e+06	-57789.1	1055.82	-29736.3	0.000000	0.000000	6.653018	-0.030779	NaN	0.000000	0.001697	0.001786	28.0825	0.049785	0.001963	25.3626	-67.574	11.1047	-0.037517	0.651621	-0.492883	-0.494257	-0.030779	25.3626	-0.491973	-2.64823e+06	1.162234E-8	NaN
1153	1.000000	0.662951	7.37634e+06	-57789.1	1055.82	-29736.3	0.000000	0.000000	6.662980	0.108970	NaN	0.000000	0.001700	0.001759	28.0831	0.042246	0.002023	20.8875	-98.4211	-168.251	0.048369	0.661709	-0.482927	-0.484169	0.108970	20.8875	-0.486839	-2.24499e+06	-4.853905E-8	NaN
1153	1.000000	0.672996	7.37634e+06	-57789.1	1055.82	-29736.3	0.000000	0.000000	6.673020	-0.012823	NaN	0.000000	0.001725	0.001757	28.0829	0.044793	0.002023	22.1396	-121.837	12.863	0.030194	0.671642	-0.472882	-0.474236	-0.012823	22.1396	-0.472447	-1.41163e+06	9.083596E-9	NaN
1153	1.000000	0.682957	7.37634e+06	-57789.1	1055.82	-29736.3	0.000000	0.000000	6.682982	-0.009628	NaN	0.000000	0.001621	0.001754	28.083	0.025974	0.002012	12.9098	-105.971	-168.347	-0.039298	0.681630	-0.462920	-0.464248	-0.009628	12.9098	-0.462361	-1.01903e+06	9.448057E-9	NaN
1153	1.000000	0.692975	7.37634e+06	-57789.1	1055.82	-29736.3	0.000000	0.000000	6.693001	0.025117	NaN	0.000000	0.001597	0.001771	28.0832	0.022099	0.001954	11.3077	-15.9971	13.1271	0.034205	0.691631	-0.452903	-0.454246	0.025117	11.3077	-0.454569	-791861	-3.171885E-8	NaN
1153	1.000000	0.703004	7.37634e+06	-57789.1	1055.82	-29736.3	0.000000	0.000000	6.703027	-0.055042	NaN	0.000000	0.001635	0.001759	28.083	0.047827	0.002086	22.9256	-38.8748	-169.058	-0.022042	0.701676	-0.442873	-0.444202	-0.055042	22.9256	-0.441073	-511092	1.076954E-7	NaN
1153	1.000000	0.712987	7.37634e+06	-57789.1	1055.82	-29736.3	0.000000	0.000000	6.713014	0.054940	NaN	0.000000	0.001619	0.001726	28.0832	0.038399	0.002067	18.5803	177.902	15.5271	0.012883	0.711637	-0.432890	-0.434240	0.054940	18.5803	-0.435108	-420999	-1.304997E-7	NaN
1153	1.000000	0.722960	7.37634e+06	-57789.1	1055.82	-29736.3	0.000000	0.000000	6.722983	-0.044483	NaN	0.000000	0.001646	0.001732	28.0832	0.067936	0.001974	34.423	-70.542	-163.448	-0.049990	0.721716	-0.422917	-0.424162	-0.044483	34.423	-0.421948	-274182	1.622380E-7	NaN
1153	1.000000	0.732988	7.37634e+06	-57789.1	1055.82	-29736.3	0.000000	0.000000	6.733011	-0.041635	NaN	0.000000	0.001656	0.001712	28.083	0.079516	0.001978	40.1952	-142.572	10.9242	-0.073985	0.731678	-0.412889	-0.414199	-0.041635	40.1952	-0.412112	-198807	2.094244E-7	NaN
1153	1.000000	0.743027	7.37634e+06	-57789.1	1055.82	-29736.3	0.000000	0.000000	6.743050	-0.026718	NaN	0.000000	0.001643	0.001699	28.083	0.066859	0.002046	32.6709	17.4868	-167.327	-0.030534	0.741701	-0.402851	-0.404176	-0.026718	32.6709	-0.402237	-143844	1.857410E-7	NaN
1153	1.000000	0.753006	7.37634e+06	-57789.1	1055.82	-29736.3	0.000000	0.000000	6.753031	0.019367	NaN	0.000000	0.001636	0.001727	28.083	0.061240	0.002031	30.1581	-177.691	13.4254	0.077973	0.751610	-0.392872	-0.394268	0.019367	30.1581	-0.393354	-107428	-1.802768E-7	NaN
1153	1.000000	0.763037	7.37634e+06	-57789.1	1055.82	-29736.3	0.000000	0.000000	6.763062	-0.001105	NaN	0.000000	0.001622	0.001732	28.0832	0.091929	0.002046	44.9317	-15.5593	-169.182	0.035766	0.761741	-0.382840	-0.384136	-0.001105	44.9317	-0.382822	-75921.6	1.455883E-8	NaN
1153	1.000000	0.773028	7.37634e+06	-57789.1	1055.82	-29736.3	0.000000	0.000000	6.773052	-0.041359	NaN	0.000000	0.001642	0.001716	28.083	0.028691	0.001971	14.5542	-6.163317	9.134998	0.005853	0.771660	-0.372849	-0.374217	-0.041359	14.5542	-0.370718	-50870.3	8.130221E-7	NaN
1153	1.000000	0.783032	7.37634e+06	-57789.1	1055.82	-29736.3	0.000000	0.000000	6.783058	0.033312	NaN	0.000000	0.001615	0.001750	28.0829	0.052289	0.002115	24.7219	-154.631	-164.347	-0.006026	0.781724	-0.362845	-0.364154	0.033312	24.7219	-0.363856	-40508.2	-8.223469E-7	NaN
1153	1.000000	0.793048	7.37634e+06	-57789.1	1055.82	-29736.3	0.000000	0.000000	6.793076	0.070237	NaN	0.000000	0.001582	0.001723	28.0816	0.054295	0.001890	28.7235	-48.035	14.2475	-0.008903	0.791709	-0.352829	-0.354169	0.070237	28.7235	-0.354663	-29827.6	-2.354770E-6	NaN
1153	1.000000	0.803033	7.37634e+06	-57789.1	1055.82	-29736.3	0.000000	0.000000	6.803056	-0.048527	NaN	0.000000	0.001596	0.001707	28.0817	0.103538	0.002004	51.6559	-141.922	-166.36	-0.046918	0.801720	-0.342844	-0.344158	-0.048527	51.6559	-0.342140	-19621.4	2.473163E-6	NaN
1153	1.000000	0.813025	7.37634e+06	-57789.1	1055.82	-29736.3	0.000000	0.000000	6.813047	-0.051023	NaN	0.000000	0.001633	0.001720	28.0817	0.074959	0.001925	38.9446	-25.2458	14.3461	0.014454	0.811663	-0.332853	-0.334214	-0.051023	38.9446	-0.331870	-13894	3.672266E-6	NaN
1153	1.000000	0.823056	7.37634e+06	-57789.1	1055.82	-29736.3	0.000000	0.000000	6.823081	0.009133	NaN	0.000000	0.001612	0.001739	28.0818	0.066282	0.001887	35.1227	18.6142	-168.062	0.054252	0.821765	-0.322822	-0.324113	0.009133	35.1227	-0.323017	-10304.1	-8.863873E-7	NaN
1153	1.000000	0.833063	7.37634e+06	-57789.1	1055.82	-29736.3	0.000000	0.000000	6.833088	0.007064	NaN	0.000000	0.001591	0.001767	28.0819	0.034696	0.001985	17.4777	94.143	13.9687	-0.049558	0.831636	-0.312815	-0.314242	0.007064	17.4777	-0.313118	-7364.73	-9.591209E-7	NaN
1153	1.000000	0.843058	7.37634e+06	-57789.1	1055.82	-29736.3	0.000000	0.000000	6.843082	-0.024633	NaN	0.000000	0.001589	0.001751	28.0818	0.058231	0.002038	28.5693	-94.9585	-166.893	0.020727	0.841811	-0.302820	-0.304067	-0.024633	28.5693	-0.302173	-5069.46	4.859175E-6	NaN
1153	1.000000	0.853059	7.37634e+06	-57789.1	1055.82	-29736.3	0.000000	0.000000	6.853085	0.022025	NaN	0.000000	0.001596	0.001725	28.0818	0.102047	0.002123	48.0729	-174.685	10.3809	0.066739	0.851706	-0.292818	-0.294172	0.022025	48.0729	-0.293162	-3720.71	-5.919591E-6	NaN
1153	1.000000	0.863076	7.37634e+06	-57789.1	1055.82	-29736.3	0.000000	0.000000	6.863102	0.019432	NaN	0.000000	0.001552	0.001679	28.0821	0.030060	0.002056	14.6176	176.642	-167.348	0.032766	0.861757	-0.282801	-0.284121	0.019432	14.6176	-0.283798	-2692.74	-7.216495E-6	NaN
1153	1.000000	0.873075	7.37634e+06	-57789.1	1055.82	-29736.3	0.000000	0.000000	6.873101	0.050068	NaN	0.000000	0.001604	0.001725	28.082	0.027849	0.002019	13.794	-37.0964	13.6392	0.009110	0.871663	-0.272803	-0.274215	0.050068	13.794	-0.275525	-2020.01	-2.478611E-5	NaN
1153	1.000000	0.883062	7.37634e+06	-57789.1	1055.82	-29736.3	0.000000	0.000000	6.883088	0.023148	NaN	0.000000	0.001608	0.001759	28.0817	0.046781	0.001957	23.8984	-133.519	-164.269	-0.013702	0.881797	-0.262815	-0.264081	0.023148	23.8984	-0.263542	-1327.75	-1.743369E-5	NaN
1153	1.000000	0.893049	7.37634e+06	-57789.1	1055.82	-29736.3	0.000000	0.000000	6.893075	0.020800	NaN	0.000000	0.001614	0.001759	28.0819	0.067100	0.001942	34.5545	-98.7656	16.4255	-0.013446	0.891764	-0.252829	-0.254114	0.020800	34.5545	-0.253280	-923.884	-2.251387E-5	NaN
1153	1.000000	0.903053	7.37634e+06	-57789.1	1055.82	-29736.3	0.000000	0.000000	6.903077	-0.021496	NaN	0.000000	0.001599	0.001759	28.0818	0.131684	0.001979	66.5499	-4.746025	-163.397	0.024439	0.901793	-0.242824	-0.244084	-0.021496	66.5499	-0.242582	-630.713	3.408161E-5	NaN
1153	1.000000	0.913094	7.37634e+06	-57789.1	1055.82	-29736.3	0.000000	0.000000	6.913121	0.050684	NaN	0.000000	0.001595	0.001752	28.0817	0.033181	0.001989	16.6852	57.9616	13.1862	0.073468	0.911748	-0.232783	-0.234129	0.050684	16.6852	-0.235062	-481.078	-0.000105	NaN
1153	1.000000	0.923067	7.37634e+06	-57789.1	1055.82	-29736.3	0.000000	0.000000	6.923094	0.045547	NaN	0.000000	0.001591	0.001749	28.0817	0.075426	0.002044	36.905	136.939	-168.913	0.057623	0.921719	-0.222811	-0.224159	0.045547	36.905	-0.223736	-318.6	-0.000143	NaN
1153	1.000000	0.933111	7.37634e+06	-57789.1	1055.82	-29736.3	0.000000	0.000000	6.933136	-0.001945	NaN	0.000000	0.001597	0.001744	28.0834	0.055248	0.002003	27.5855	141.767	13.8512	0.147609	0.931707	-0.212766	-0.214171	-0.001945	27.5855	-0.212713	-212.168	9.167856E-6	NaN
1153	1.000000	0.943118	7.37634e+06	-57789.1	1055.82	-29736.3	0.000000	0.000000	6.943146	0.067026	NaN	0.000000	0.001598	0.001737	28.0831	0.058654	0.001943	30.1852	161.731	-165.34	0.002097	0.941811	-0.202759	-0.204066	0.067026	30.1852	-0.204425	-155.658	-0.000431	NaN
1153	1.000000	0.953081	7.37634e+06	-57789.1	1055.82	-29736.3	0.000000	0.000000	6.953106	0.014388	NaN	0.000000	0.001618	0.001720	28.0831	0.062458	0.001977	31.5969	5.643236	16.3557	-0.038588	0.951728	-0.192797	-0.194149	0.014388	31.5969	-0.193138	-101.464	-0.000142	NaN
1153	1.000000	0.963080	7.37634e+06	-57789.1	1055.82	-29736.3	0.000000	0.000000	6.963105	-0.011691	NaN	0.000000	0.001615	0.001750	28.083	0.037825	0.002107	17.9503	-159.158	-165.594	0.049625	0.961812	-0.182797	-0.184066	-0.011691	17.9503	-0.182309	-66.782	0.000175	NaN
1153	1.000000	0.973085	7.37634e+06	-57789.1	1055.82	-29736.3	0.000000	0.000000	6.973106	-0.078664	NaN	0.000000	0.001597	0.001724	28.0833	0.045916	0.002106	21.8049	-47.9399	14.5017	-0.111779	0.971747	-0.172793	-0.174131	-0.078664	21.8049	-0.170087	-41.2219	0.001908	NaN
1153	1.000000	0.983098	7.37634e+06	-57789.1	1055.82	-29736.3	0.000000	0.000000	6.983121	-0.028992	NaN	0.000000	0.001597	0.001737	28.0829	0.078548	0.001928	40.7455	-18.7482	-164.976	-0.012397	0.981777	-0.162780	-0.164100	-0.028992	40.7455	-0.162246	-30.0465	0.000965	NaN
1153	1.000000	0.993116	7.37634e+06	-57789.1	1055.82	-29736.3	0.000000	0.000000	6.993139	-0.022520	NaN	0.000000	0.001627	0.001709	28.0836	0.134729	0.001943	69.3475	155.722	17.3662	-0.007657	0.991758	-0.152762	-0.154120	-0.022520	69.3475	-0.152518	-20.1269	0.001119	NaN
1153	1.000000	1.003110	7.37634e+06	-57789.1	1055.82	-29736.3	0.000000	0.000000	7.003135	-0.004601	NaN	0.000000	0.001568	0.001723	28.0831	0.094837	0.002005	47.3068	108.74	-167.153	-0.045069	1.001840	-0.142767	-0.144038	-0.004601	47.3068	-0.142695	-13.2852	0.000346	NaN
1153	1.000000	1.013154	7.37634e+06	-57789.1	1055.82	-29736.3	0.000000	0.000000	7.013177	-0.040145	NaN	0.000000	0.001609	0.001738	28.0833	0.104197	0.001983	52.5518	47.8844	16.049	-0.013737	1.011754	-0.132724	-0.134123	-0.040145	52.5518	-0.132151	-8.387409	0.004786	NaN
1153	1.000000	1.023102	7.37634e+06	-57789.1	1055.82	-29736.3	0.000000	0.000000	7.023127	0.010419	NaN	0.000000	0.001589	0.001690	28.0829	0.078373	0.001912	40.9957	34.8841	-166.308	0.017468	1.021792	-0.122775	-0.124085	0.010419	40.9957	-0.122966	-5.540976	-0.001880	NaN
1153	1.000000	1.033094	7.37634e+06	-57789.1	1055.82	-29736.3	0.000000	0.000000	7.033118	-0.009870	NaN	0.000000	0.001625	0.001706	28.083	0.068092	0.002175	31.3007	37.3564	13.4215	-0.050452	1.031732	-0.112784	-0.114145	-0.009870	31.3007	-0.112547	-3.398395	0.002904	NaN
1153	1.000000	1.043108	7.37634e+06	-57789.1	1055.82	-29736.3	0.000000	0.000000	7.043133	0.008954	NaN	0.000000	0.001594	0.001793	28.0829	0.042759	0.001901	22.4955	78.0926	-164.703	0.010223	1.041856	-0.102770	-0.104021	0.008954	22.4955	-0.103068	-2.134241	-0.004195	NaN
1153	1.000000	1.053153	7.37634e+06	-57789.1	1055.82	-29736.3	0.000000	0.000000	7.053179	0.030990	NaN	0.000000	0.001585	0.001781	28.0832	0.063587	0.001955	32.5258	148.149	14.0226	0.056793	1.051810	-0.092724	-0.094067	0.030990	32.5258	-0.093439	-1.299234	-0.023852	NaN
1153	1.000000	1.063140	7.37634e+06	-57789.1	1055.82	-29736.3	0.000000	0.000000	7.063165	0.021532	NaN	0.000000	0.001607	0.001740	28.0824	0.008584	0.001952	4.398468	130.619	-164.893	0.055112	1.061908	-0.082738	-0.083969	0.021532	4.398468	-0.086410	-0.888468	-0.024235	NaN
1153	1.000000	1.073155	7.37634e+06	-57789.1	1055.82	-29736.3	0.000000	0.000000	7.073181	0.024485	NaN	0.000000	0.001643	0.001756	28.0817	0.085462	0.001945	43.9333	-152.363	14.6946	0.025102	1.071825	-0.072722	-0.074053	0.024485	43.9333	-0.073140	-0.413141	-0.059265	NaN
1153	1.000000	1.083170	7.37634e+06	-57789.1	1055.82	-29736.3	0.000000	0.000000	7.083196	0.026871	NaN	0.000000	0.001658	0.001712	28.0818	0.096050	0.002009	47.8209	4.884218	-168.192	-0.010810	1.081879	-0.062708	-0.063999	0.026871	47.8209	-0.063129	-0.220973	-0.121605	NaN
1153	1.000000	1.093155	7.37634e+06	-57789.1	1055.82	-29736.3	0.000000	0.000000	7.093180	0.023063	NaN	0.000000	0.001641	0.001757	28.0819	0.072534	0.002098	34.5728	161.926	15.8788	0.064111	1.091809	-0.052723	-0.054069	0.023063	34.5728	-0.053223	-0.114046	-0.202226	NaN
1153	1.000000	1.103135	7.37634e+06	-57789.1	1055.82	-29736.3	0.000000	0.000000	7.103159	-0.038210	NaN	0.000000	0.001688	0.001750	28.0817	0.041288	0.001942	21.2586	-28.4016	-166.469	-0.118033	1.101858	-0.042742	-0.044020	-0.038210	21.2586	-0.041394	-0.049864	0.766282	NaN
1153	1.000000	1.113143	7.37634e+06	-57789.1	1055.82	-29736.3	0.000000	0.000000	7.113166	-0.026008	NaN	0.000000	0.001659	0.001693	28.0817	0.070305	0.002098	33.5061	41.031	16.8986	-0.002624	1.111846	-0.032735	-0.034031	-0.026008	33.5061	-0.032153	-0.026471	0.982501	NaN
1153	1.000000	1.123154	7.37634e+06	-57789.1	1055.82	-29736.3	0.000000	0.000000	7.123180	0.031749	NaN	0.000000	0.001646	0.001697	28.082	0.175548	0.001967	89.2434	74.0359	-164.633	0.020095	1.121853	-0.022724	-0.024025	0.031749	89.2434	-0.022990	-0.014968	-2.121143	NaN
1153	1.000000	1.133194	7.37634e+06	-57789.1	1055.82	-29736.3	0.000000	0.000000	7.133220	0.020294	NaN	0.000000	0.001630	0.001717	28.0818	0.041571	0.001981	20.9852	178.819	12.4884	0.017745	1.131867	-0.012684	-0.014010	0.020294	20.9852	-0.013409	-0.008339	-2.433684	NaN
1153	1.000000	1.143152	7.37634e+06	-57789.1	1055.82	-29736.3	0.000000	0.000000	7.143182	0.126964	NaN	0.000000	0.001638	0.001706	28.0816	0.202817	0.001948	104.092	34.6486	-166.802	0.007542	1.141871	-0.002725	-0.004006	0.126964	104.092	-0.003640	-0.002545	-49.8969	NaN
1153	2.000000	1.152927	7.37634e+06	-57789.1	1055.82	-29736.3	0.000000	0.000000	7.153279	7.961960	NaN	0.000000	0.001657	0.001742	28.0818	7.798551	0.001590	4903.9	11.527	7.065883	6.368598	1.151792	0.007049	0.005915	7.961960	4903.9	0.005832	0.004905	1623.19	63971.9
1153	2.000000	1.155793	7.37634e+06	-57789.1	1055.82	-29736.3	0.000000	0.000000	7.156305	11.8516	NaN	0.000000	0.001643	0.001752	28.0821	11.582	0.001687	6865.95	6.198729	-174.977	10.2559	1.155460	0.009915	0.009583	11.8516	6865.95	0.008620	0.007688	1541.52	71541.8
1153	2.000000	1.158308	7.37634e+06	-57789.1	1055.82	-29736.3	0.000000	0.000000	7.158982	15.7793	NaN	0.000000	0.001633	0.001743	28.0819	13.5589	0.001747	7759.5	6.249194	5.236111	14.9443	1.157953	0.012430	0.012076	15.7793	7759.5	0.010905	0.010205	1546.3	70179.5
1153	2.000000	1.160752	7.37634e+06	-57789.1	1055.82	-29736.3	0.000000	0.000000	7.161534	18.4	NaN	0.000000	0.001641	0.001747	28.0817	15.8102	0.001753	9020.48	4.856840	-174.468	17.5203	1.160398	0.014874	0.014521	18.4	9020.48	0.013345	0.013141	1400.23	71894.1
1153	2.000000	1.163276	7.37634e+06	-57789.1	1055.82	-29736.3	0.000000	0.000000	7.164182	21.4331	NaN	0.000000	0.001652	0.001759	28.082	18.6385	0.001774	10506.6	7.927552	3.455291	21.0598	1.162874	0.017398	0.016996	21.4331	10506.6	0.015868	0.016461	1302.08	74818.8
1153	2.000000	1.165712	7.37634e+06	-57789.1	1055.82	-29736.3	0.000000	0.000000	7.166859	27.2615	NaN	0.000000	0.001628	0.001697	28.0832	21.7411	0.001690	12864.3	3.156605	-175.65	25.05	1.165453	0.019835	0.019576	27.2615	12864.3	0.018245	0.019860	1372.69	83400.9
1153	2.000000	1.168235	7.37634e+06	-57789.1	1055.82	-29736.3	0.000000	0.000000	7.169627	33.2291	NaN	0.000000	0.001641	0.001767	28.0833	24.6472	0.001646	14971	7.393885	-1.481703	31.8654	1.167838	0.022357	0.021960	33.2291	14971	0.020692	0.023642	1405.51	88957.6
1153	2.000000	1.170758	7.37634e+06	-57789.1	1055.82	-29736.3	0.000000	0.000000	7.172368	38.521	NaN	0.000000	0.001637	0.001739	28.0829	26.4695	0.001712	15460.9	5.878080	179.646	39.2717	1.170450	0.024880	0.024572	38.521	15460.9	0.023012	0.027497	1400.9	85184.8
1153	2.000000	1.173254	7.37634e+06	-57789.1	1055.82	-29736.3	0.000000	0.000000	7.175037	42.7331	NaN	0.000000	0.001595	0.001755	28.0834	29.0939	0.001763	16502.4	4.475581	1.326841	43.0098	1.172874	0.027377	0.026996	42.7331	16502.4	0.025435	0.031811	1343.34	84533.9
1153	2.000000	1.175697	7.37634e+06	-57789.1	1055.82	-29736.3	0.000000	0.000000	7.177890	52.7053	NaN	0.000000	0.001593	0.001760	28.0831	32.082	0.001870	17160.1	6.236984	178.192	50.4473	1.175388	0.029819	0.029510	52.7053	17160.1	0.027516	0.035752	1474.21	82917.3
1153	2.000000	1.178248	7.37634e+06	-57789.1	1055.82	-29736.3	0.000000	0.000000	7.180589	56.3109	NaN	0.000000	0.001629	0.001750	28.0832	33.1799	0.001863	17810	3.933761	1.251107	55.1163	1.177852	0.032370	0.031974	56.3109	17810	0.029999	0.040741	1382.17	80616.2
1153	2.000000	1.180725	7.37634e+06	-57789.1	1055.82	-29736.3	0.000000	0.000000	7.183379	63.9107	NaN	0.000000	0.001640	0.001768	28.0832	36.0067	0.001900	18955.1	7.672069	176.622	63.2295	1.180368	0.034847	0.034490	63.9107	18955.1	0.032318	0.045686	1398.91	81022.8
1153	2.000000	1.183244	7.37634e+06	-57789.1	1055.82	-29736.3	0.000000	0.000000	7.186172	70.5509	NaN	0.000000	0.001623	0.001772	28.0832	37.1012	0.001731	21439.2	0.760390	3.357706	72.4793	1.182822	0.037367	0.036945	70.5509	21439.2	0.034899	0.051510	1369.65	86304.8
1153	2.000000	1.185742	7.37634e+06	-57789.1	1055.82	-29736.3	0.000000	0.000000	7.189003	78.6635	NaN	0.000000	0.001617	0.001736	28.083	41.3311	0.001803	22924.8	6.150308	176.437	80.0258	1.185391	0.039864	0.039513	78.6635	22924.8	0.037291	0.057215	1374.88	87563.7
1153	2.000000	1.188190	7.37634e+06	-57789.1	1055.82	-29736.3	0.000000	0.000000	7.191808	87.346	NaN	0.000000	0.001600	0.001737	28.083	43.013	0.001933	22252.1	6.140091	-2.316455	85.6514	1.187803	0.042312	0.041925	87.346	22252.1	0.039368	0.062406	1399.65	81382.6
1153	2.000000	1.190691	7.37634e+06	-57789.1	1055.82	-29736.3	0.000000	0.000000	7.194673	96.1766	NaN	0.000000	0.001642	0.001753	28.083	44.8598	0.001748	25662.8	3.454352	177.351	94.0311	1.190341	0.044813	0.044463	96.1766	25662.8	0.042002	0.069306	1387.72	89061.9
1153	2.000000	1.193154	7.37634e+06	-57789.1	1055.82	-29736.3	0.000000	0.000000	7.197408	102.782	NaN	0.000000	0.001636	0.001720	28.0833	47.5614	0.001716	27720.5	2.312425	-1.262523	100.076	1.192868	0.047277	0.046990	102.782	27720.5	0.044496	0.076163	1349.51	91770.5
1153	2.000000	1.195688	7.37634e+06	-57789.1	1055.82	-29736.3	0.000000	0.000000	7.200225	109.669	NaN	0.000000	0.001650	0.001768	28.0829	51.0131	0.001896	26908.3	2.322597	178.235	108.608	1.195495	0.049810	0.049618	109.669	26908.3	0.046754	0.082643	1327.01	85517.7
1153	2.000000	1.198224	7.37634e+06	-57789.1	1055.82	-29736.3	0.000000	0.000000	7.203338	123.677	NaN	0.000000	0.001621	0.001696	28.083	53.3741	0.001855	28776.9	8.618533	-7.360294	124.253	1.197814	0.052347	0.051937	123.677	28776.9	0.049123	0.089722	1378.45	87774.3
1153	2.000000	1.200643	7.37634e+06	-57789.1	1055.82	-29736.3	0.000000	0.000000	7.206090	131.781	NaN	0.000000	0.001670	0.001698	28.0815	53.9055	0.001750	30801.6	2.744015	176.695	128.507	1.200465	0.054765	0.054587	131.781	30801.6	0.051556	0.097284	1354.61	90225
1153	2.000000	1.203187	7.37634e+06	-57789.1	1055.82	-29736.3	0.000000	0.000000	7.208954	139.547	NaN	0.000000	0.001623	0.001736	28.0819	56.1781	0.001826	30769.3	1.460758	-2.184937	136.892	1.202838	0.057309	0.056961	139.547	30769.3	0.053908	0.104874	1330.61	86807.3
1153	2.000000	1.205652	7.37634e+06	-57789.1	1055.82	-29736.3	0.000000	0.000000	7.211864	150.375	NaN	0.000000	0.001654	0.001722	28.0816	59.1636	0.001900	31141.7	5.247951	174.472	149.081	1.205391	0.059774	0.059513	150.375	31141.7	0.056152	0.112374	1338.16	84875.5
1153	2.000000	1.208174	7.37634e+06	-57789.1	1055.82	-29736.3	0.000000	0.000000	7.215018	165.746	NaN	0.000000	0.001637	0.001726	28.0817	60.894	0.001926	31621.5	4.528703	-4.597320	162.56	1.207849	0.062296	0.061971	165.746	31621.5	0.058365	0.120011	1381.09	83396.1
1153	2.000000	1.210593	7.37634e+06	-57789.1	1055.82	-29736.3	0.000000	0.000000	7.218019	179.889	NaN	0.000000	0.001597	0.001749	28.082	62.2304	0.001805	34473.8	4.682297	174.024	175.602	1.210229	0.064715	0.064351	179.889	34473.8	0.060802	0.128699	1397.75	87796.1
1153	2.000000	1.213172	7.37634e+06	-57789.1	1055.82	-29736.3	0.000000	0.000000	7.220727	183.006	NaN	0.000000	0.001657	0.001695	28.0818	65.3303	0.001807	36153.9	3.023151	-4.877812	180.416	1.212885	0.067295	0.067007	183.006	36153.9	0.063498	0.138651	1319.9	88708.6
1153	2.000000	1.215698	7.37634e+06	-57789.1	1055.82	-29736.3	0.000000	0.000000	7.223797	196.221	NaN	0.000000	0.001670	0.001746	28.0815	67.2136	0.001814	37057.5	0.208816	178.658	200.682	1.215461	0.069821	0.069583	196.221	37057.5	0.065849	0.147615	1329.27	88121.9
1153	2.000000	1.218103	7.37634e+06	-57789.1	1055.82	-29736.3	0.000000	0.000000	7.227088	217.772	NaN	0.000000	0.001666	0.001705	28.0817	68.325	0.001576	43353.2	0.602359	-3.120886	211.775	1.217785	0.072225	0.071907	217.772	43353.2	0.068458	0.157872	1379.42	99687.7
1153	2.000000	1.220582	7.37634e+06	-57789.1	1055.82	-29736.3	0.000000	0.000000	7.230179	232.646	NaN	0.000000	0.001654	0.001745	28.0818	70.9946	0.001744	40707.6	3.301795	174.974	228.971	1.220274	0.074705	0.074397	232.646	40707.6	0.070418	0.165793	1403.23	91340.9
1153	2.000000	1.223179	7.37634e+06	-57789.1	1055.82	-29736.3	0.000000	0.000000	7.233069	239.767	NaN	0.000000	0.001638	0.001733	28.0817	75.2187	0.001802	41744.1	5.415079	-7.439934	240.043	1.222795	0.077301	0.076917	239.767	41744.1	0.072993	0.176478	1358.63	90786.9
1153	2.000000	1.225620	7.37634e+06	-57789.1	1055.82	-29736.3	0.000000	0.000000	7.236026	252.325	NaN	0.000000	0.001615	0.001721	28.0816	77.9074	0.001815	42917	7.027283	170.08	249.841	1.225414	0.079742	0.079536	252.325	42917	0.075332	0.186453	1353.29	90806.6
1153	2.000000	1.228183	7.37634e+06	-57789.1	1055.82	-29736.3	0.000000	0.000000	7.239286	269.229	NaN	0.000000	0.001683	0.001719	28.0819	79.0273	0.001840	42957.8	4.635285	-7.062414	268.818	1.227812	0.082306	0.081934	269.229	42957.8	0.077605	0.196394	1370.86	88562.8
1153	2.000000	1.230695	7.37634e+06	-57789.1	1055.82	-29736.3	0.000000	0.000000	7.242384	283.482	NaN	0.000000	0.001653	0.001709	28.0821	81.8876	0.001866	43891.6	5.611286	171.539	286.167	1.230285	0.084817	0.084407	283.482	43891.6	0.079973	0.207008	1369.43	88137.7
1153	2.000000	1.233113	7.37634e+06	-57789.1	1055.82	-29736.3	0.000000	0.000000	7.244956	287.231	NaN	0.000000	0.001653	0.001673	28.0829	84.9692	0.001806	47058.2	5.803891	-9.469967	282.385	1.232767	0.087235	0.086890	287.231	47058.2	0.082657	0.219352	1309.45	91799
1153	2.000000	1.235635	7.37634e+06	-57789.1	1055.82	-29736.3	0.000000	0.000000	7.247960	298.931	NaN	0.000000	0.001676	0.001698	28.0835	87.0643	0.001916	45435.9	1.975593	174.74	296.793	1.235526	0.089758	0.089648	298.931	45435.9	0.084823	0.229560	1302.19	86641.2
1153	2.000000	1.238190	7.37634e+06	-57789.1	1055.82	-29736.3	0.000000	0.000000	7.251484	322.495	NaN	0.000000	0.001655	0.001690	28.0833	89.0921	0.001878	47431.9	4.862747	-7.680223	322.664	1.237776	0.092312	0.091898	322.495	47431.9	0.087213	0.241071	1337.76	88261.4
1153	2.000000	1.240577	7.37634e+06	-57789.1	1055.82	-29736.3	0.000000	0.000000	7.254544	338.861	NaN	0.000000	0.001667	0.001759	28.0836	90.6826	0.001791	50621.2	6.416316	169.864	335.106	1.240230	0.094699	0.094352	338.861	50621.2	0.089679	0.253225	1338.19	91908
1153	2.000000	1.243088	7.37634e+06	-57789.1	1055.82	-29736.3	0.000000	0.000000	7.257736	355.4	NaN	0.000000	0.001672	0.001773	28.0831	93.617	0.001827	51248.5	0.817196	-4.653820	351.936	1.242822	0.097211	0.096944	355.4	51248.5	0.092009	0.264970	1341.28	90961.2
1153	2.000000	1.245625	7.37634e+06	-57789.1	1055.82	-29736.3	0.000000	0.000000	7.260652	364.615	NaN	0.000000	0.001657	0.001712	28.0839	96.2517	0.001922	50082.7	2.732296	173.293	363.203	1.245440	0.099748	0.099562	364.615	50082.7	0.094287	0.276689	1317.78	86989.1
1153	2.000000	1.248142	7.37634e+06	-57789.1	1055.82	-29736.3	0.000000	0.000000	7.264012	385.095	NaN	0.000000	0.001675	0.001739	28.0831	97.7195	0.001798	54350.5	4.129861	-8.367072	383.714	1.247942	0.102264	0.102064	385.095	54350.5	0.096950	0.290689	1324.77	92100.6
1153	2.000000	1.250503	7.37634e+06	-57789.1	1055.82	-29736.3	0.000000	0.000000	7.267188	404.888	NaN	0.000000	0.001673	0.001744	28.0832	99.8389	0.001772	56348.4	8.011948	167.345	398.633	1.250225	0.104626	0.104347	404.888	56348.4	0.099237	0.302967	1336.41	93531.3
1153	2.000000	1.251718	7.37634e+06	-57789.1	1055.82	-29736.3	0.000000	0.000000	7.268695	412.014	NaN	0.000000	0.001648	0.001715	28.0831	101.765	0.001903	53476	7.104589	169.541	413.989	1.251293	0.105840	0.105416	412.014	53476	0.100062	0.307456	1340.07	88113.2