File: remote_trans/data/nanoindenter/0828-1/data/Data_2025-08-06,11h17m57s/2025-07-22_16-23-58_1_177.txt
2025-07-22, 16:23:58, 1
Index	Phase	Displacement	Time	Pos X	Pos Y	Pos Z	Rot A	Rot B	Piezo Z	Force A	Force B	Gripper	Voltage A	Voltage B	Temperature	Amplitude force	Amplitude pos	Stiffness	Phase shift	Phase excitation	Force A raw	Displacement raw	HMax	HMax raw	Real Force	Real Stiffness	Contact Depth	Area	Hardness	Reduced Mod.
[#]	[#]	[um]	[s]	[um]	[um]	[um]	[m°]	[m°]	[um]	[uN]	[uN]	[V]	[V]	[V]	[°C]	[uN]	[um]	[N/m]	[°]	[°]	[uN]	[um]	[um]	[um]	[uN]	[N/m]	[um]	[um^2]	[MPa]	[MPa]
177	1.000000	0.002592	7.36677e+06	-47489.1	955.819	-29765.6	0.000000	0.000000	6.002817	-0.017673	NaN	0.000000	0.001640	0.001724	28.0835	0.074660	0.000984	75.8505	74.4598	-158.135	-0.041003	0.001304	-1.725601	-1.726889	-0.017673	75.8505	-1.725426	-1.107030E+23	1.596403E-25	NaN
177	1.000000	0.014603	7.36677e+06	-47489.1	955.816	-29765.6	0.000000	0.000000	6.014828	-0.010551	NaN	0.000000	0.001642	0.001714	28.1187	0.070110	0.001688	41.5433	7.828413	-167.772	-0.007050	0.013406	-1.713591	-1.714787	-0.010551	41.5433	-1.713400	-7.663635E+22	1.376740E-25	NaN
177	1.000000	0.026584	7.36677e+06	-47489.1	955.818	-29765.6	0.000000	0.000000	6.026809	-0.014168	NaN	0.000000	0.001638	0.001670	28.0835	0.026748	0.001902	14.0653	-48.9966	-163.011	-0.045582	0.025241	-1.701609	-1.702952	-0.014168	14.0653	-1.700854	-5.221272E+22	2.713532E-25	NaN
177	1.000000	0.038522	7.36677e+06	-47489.1	955.818	-29765.6	0.000000	0.000000	6.038747	-0.005457	NaN	0.000000	0.001587	0.001701	28.1182	0.107030	0.001953	54.8032	-77.8844	-168.345	-0.013487	0.037250	-1.689671	-1.690943	-0.005457	54.8032	-1.689596	-3.700202E+22	1.474754E-25	NaN
177	1.000000	0.050534	7.36677e+06	-47489.1	955.819	-29765.6	0.000000	0.000000	6.050758	-0.034506	NaN	0.000000	0.001583	0.001680	28.0825	0.039152	0.001966	19.9177	71.7033	-165.544	-0.021944	0.049175	-1.677659	-1.679018	-0.034506	19.9177	-1.676359	-2.468015E+22	1.398127E-24	NaN
177	1.000000	0.062516	7.36677e+06	-47489.1	955.818	-29765.6	0.000000	0.000000	6.062740	-0.032983	NaN	0.000000	0.001624	0.001708	28.1177	0.039936	0.001897	21.0492	147.53	-165.383	-0.046476	0.061214	-1.665677	-1.666979	-0.032983	21.0492	-1.664502	-1.717020E+22	1.920970E-24	NaN
177	1.000000	0.074517	7.36677e+06	-47489.1	955.818	-29765.6	0.000000	0.000000	6.074743	0.021440	NaN	0.000000	0.001614	0.001724	28.0811	0.063164	0.002018	31.3022	-102.296	-164.287	0.024443	0.073254	-1.653676	-1.654939	0.021440	31.3022	-1.654190	-1.252345E+22	-1.712006E-24	NaN
177	1.000000	0.086541	7.36677e+06	-47489.1	955.819	-29765.6	0.000000	0.000000	6.086766	-0.008881	NaN	0.000000	0.001621	0.001702	28.1192	0.086190	0.002051	42.0296	-165.665	-161.783	0.023350	0.085212	-1.641652	-1.642981	-0.008881	42.0296	-1.641494	-8.491046E+21	1.045982E-24	NaN
177	1.000000	0.098545	7.36677e+06	-47489.1	955.818	-29765.6	0.000000	0.000000	6.098772	0.041568	NaN	0.000000	0.001656	0.001698	28.0824	0.048564	0.001877	25.8797	-4.406041	-165.967	0.047853	0.097239	-1.629648	-1.630954	0.041568	25.8797	-1.630852	-6.130447E+21	-6.780568E-24	NaN
177	1.000000	0.110546	7.36677e+06	-47489.1	955.819	-29765.6	0.000000	0.000000	6.110769	-0.060100	NaN	0.000000	0.001678	0.001713	28.1205	0.058941	0.002036	28.954	136.536	-165.635	0.085818	0.109283	-1.617647	-1.618910	-0.060100	28.954	-1.616091	-3.901339E+21	1.540509E-23	NaN
177	1.000000	0.122550	7.36677e+06	-47489.1	955.819	-29765.6	0.000000	0.000000	6.122775	0.004635	NaN	0.000000	0.001645	0.001742	28.0821	0.037883	0.002017	18.784	-75.2783	-163.772	0.064651	0.121268	-1.605644	-1.606925	0.004635	18.784	-1.605829	-2.849340E+21	-1.626695E-24	NaN
177	1.000000	0.134571	7.36677e+06	-47489.1	955.818	-29765.6	0.000000	0.000000	6.134799	0.056987	NaN	0.000000	0.001654	0.001699	28.1196	0.072967	0.002201	33.1535	-122.302	-165.537	0.055949	0.133243	-1.593622	-1.594950	0.056987	33.1535	-1.594911	-2.039584E+21	-2.794073E-23	NaN
177	1.000000	0.146555	7.36677e+06	-47489.1	955.818	-29765.6	0.000000	0.000000	6.146780	-0.000950	NaN	0.000000	0.001644	0.001670	28.0831	0.095389	0.002091	45.6163	-119.338	-165.66	0.015723	0.145266	-1.581638	-1.582927	-0.000950	45.6163	-1.581622	-1.357594E+21	6.996059E-25	NaN
177	1.000000	0.158601	7.36677e+06	-47489.1	955.819	-29765.6	0.000000	0.000000	6.158824	-0.064821	NaN	0.000000	0.001629	0.001685	28.1203	0.024254	0.002033	11.9275	-11.978	-163.272	-0.029864	0.157232	-1.569592	-1.570961	-0.064821	11.9275	-1.565516	-8.288525E+20	7.820558E-23	NaN
177	1.000000	0.170554	7.36677e+06	-47489.1	955.819	-29765.6	0.000000	0.000000	6.170781	0.032233	NaN	0.000000	0.001647	0.001673	28.084	0.047310	0.002093	22.6081	-172.401	-166.651	0.008811	0.169281	-1.557639	-1.558912	0.032233	22.6081	-1.558708	-6.728014E+20	-4.790882E-23	NaN
177	1.000000	0.182582	7.36677e+06	-47489.1	955.819	-29765.6	0.000000	0.000000	6.182806	-0.030250	NaN	0.000000	0.001637	0.001695	28.121	0.027339	0.002036	13.4266	-71.4884	-166.683	0.005728	0.181253	-1.545611	-1.546940	-0.030250	13.4266	-1.543922	-4.276567E+20	7.073337E-23	NaN
177	1.000000	0.194577	7.36677e+06	-47489.1	955.818	-29765.6	0.000000	0.000000	6.194804	0.032257	NaN	0.000000	0.001620	0.001684	28.0824	0.082449	0.001948	42.327	29.2253	-164.765	-0.067978	0.193247	-1.533616	-1.534946	0.032257	42.327	-1.534187	-3.173365E+20	-1.016492E-22	NaN
177	1.000000	0.206575	7.36677e+06	-47489.1	955.819	-29765.6	0.000000	0.000000	6.206799	-0.027948	NaN	0.000000	0.001635	0.001667	28.1195	0.114540	0.002048	55.9408	167.937	-165.439	-0.020427	0.205226	-1.521618	-1.522967	-0.027948	55.9408	-1.521243	-2.134002E+20	1.309639E-22	NaN
177	1.000000	0.218587	7.36677e+06	-47489.1	955.819	-29765.6	0.000000	0.000000	6.218811	-0.042350	NaN	0.000000	0.001638	0.001683	28.0823	0.059308	0.002004	29.593	92.1846	-165.071	-0.037661	0.217263	-1.509606	-1.510930	-0.042350	29.593	-1.508533	-1.445265E+20	2.930267E-22	NaN
177	1.000000	0.230591	7.36677e+06	-47489.1	955.818	-29765.6	0.000000	0.000000	6.230818	0.043941	NaN	0.000000	0.001607	0.001617	28.12	0.051116	0.002062	24.7904	-5.324747	-165.069	0.037033	0.229292	-1.497602	-1.498901	0.043941	24.7904	-1.498931	-1.076661E+20	-4.081237E-22	NaN
177	1.000000	0.242621	7.36677e+06	-47489.1	955.818	-29765.6	0.000000	0.000000	6.242847	0.019277	NaN	0.000000	0.001618	0.001643	28.0826	0.058219	0.001945	29.9393	25.66	-164.661	0.073526	0.241271	-1.485572	-1.486922	0.019277	29.9393	-1.486055	-7.253799E+19	-2.657460E-22	NaN
177	1.000000	0.254597	7.36677e+06	-47489.1	955.818	-29765.6	0.000000	0.000000	6.254822	0.002107	NaN	0.000000	0.001626	0.001686	28.12	0.048769	0.001916	25.4529	170.779	-160.119	-0.058437	0.253334	-1.473596	-1.474859	0.002107	25.4529	-1.473658	-4.959271E+19	-4.248560E-23	NaN
177	1.000000	0.266637	7.36677e+06	-47489.1	955.818	-29765.6	0.000000	0.000000	6.266861	-0.042001	NaN	0.000000	0.001658	0.001660	28.0824	0.088693	0.001877	47.2478	95.2703	-161.599	-0.087589	0.265313	-1.461556	-1.462880	-0.042001	47.2478	-1.460889	-3.351744E+19	1.253124E-21	NaN
177	1.000000	0.278636	7.36677e+06	-47489.1	955.818	-29765.6	0.000000	0.000000	6.278862	0.022422	NaN	0.000000	0.001628	0.001659	28.1191	0.022603	0.002009	11.2517	-94.8854	-164.134	0.046007	0.277277	-1.449557	-1.450916	0.022422	11.2517	-1.451052	-2.478357E+19	-9.047232E-22	NaN
177	1.000000	0.290629	7.36677e+06	-47489.1	955.819	-29765.6	0.000000	0.000000	6.290854	0.001109	NaN	0.000000	0.001612	0.001678	28.0812	0.042232	0.002026	20.8401	-8.132841	-163.662	0.020201	0.289354	-1.437564	-1.438839	0.001109	20.8401	-1.437604	-1.640284E+19	-6.760342E-23	NaN
177	1.000000	0.302653	7.36677e+06	-47489.1	955.818	-29765.6	0.000000	0.000000	6.302880	0.028144	NaN	0.000000	0.001623	0.001723	28.1193	0.059386	0.001909	31.1154	134.662	-164.417	-0.008768	0.301290	-1.425540	-1.426903	0.028144	31.1154	-1.426218	-1.156418E+19	-2.433700E-21	NaN
177	1.000000	0.314616	7.36677e+06	-47489.1	955.819	-29765.6	0.000000	0.000000	6.314841	-0.021334	NaN	0.000000	0.001645	0.001734	28.0806	0.002408	0.001976	1.218509	87.4268	-167.821	-0.053321	0.313306	-1.413577	-1.414887	-0.021334	1.218509	-1.400445	-5.240920E+18	4.070646E-21	NaN
177	1.000000	0.326657	7.36677e+06	-47489.1	955.819	-29765.6	0.000000	0.000000	6.326879	-0.070279	NaN	0.000000	0.001603	0.001662	28.1205	0.062133	0.002057	30.2004	56.2073	-162.803	0.001650	0.325350	-1.401536	-1.402843	-0.070279	30.2004	-1.399791	-5.136615E+18	1.368204E-20	NaN
177	1.000000	0.338656	7.36677e+06	-47489.1	955.818	-29765.6	0.000000	0.000000	6.338882	0.017207	NaN	0.000000	0.001665	0.001685	28.0813	0.028174	0.001983	14.2063	120.455	-165.735	-0.004755	0.337344	-1.389537	-1.390849	0.017207	14.2063	-1.390445	-3.854827E+18	-4.463727E-21	NaN
177	1.000000	0.350657	7.36677e+06	-47489.1	955.818	-29765.6	0.000000	0.000000	6.350882	-0.016081	NaN	0.000000	0.001696	0.001710	28.1202	0.062418	0.002096	29.7818	-124.59	-165.718	0.002747	0.349341	-1.377536	-1.378852	-0.016081	29.7818	-1.377131	-2.560677E+18	6.280050E-21	NaN
177	1.000000	0.362652	7.36677e+06	-47489.1	955.818	-29765.6	0.000000	0.000000	6.362877	-0.004822	NaN	0.000000	0.001686	0.001697	28.0808	0.020554	0.002055	10.0008	-108.72	-163.624	0.049417	0.361376	-1.365541	-1.366817	-0.004822	10.0008	-1.365180	-1.773614E+18	2.718673E-21	NaN
177	1.000000	0.374613	7.36677e+06	-47489.1	955.818	-29765.6	0.000000	0.000000	6.374836	-0.050830	NaN	0.000000	0.001561	0.001669	28.1205	0.178706	0.001864	95.8778	155.996	-161.13	-0.010956	0.373337	-1.353580	-1.354856	-0.050830	95.8778	-1.353183	-1.226647E+18	4.143830E-20	NaN
177	1.000000	0.386668	7.36677e+06	-47489.1	955.819	-29765.6	0.000000	0.000000	6.386891	-0.065458	NaN	0.000000	0.001580	0.001647	28.0821	0.082370	0.001967	41.867	-168.961	-167.235	-0.048909	0.385358	-1.341525	-1.342835	-0.065458	41.867	-1.340353	-8.268394E+17	7.916674E-20	NaN
177	1.000000	0.398648	7.36677e+06	-47489.1	955.817	-29765.6	0.000000	0.000000	6.398874	0.017906	NaN	0.000000	0.001626	0.001681	28.1219	0.021222	0.001935	10.9666	55.4631	-166.568	0.013591	0.397372	-1.329545	-1.330821	0.017906	10.9666	-1.330770	-6.158159E+17	-2.907618E-20	NaN
177	1.000000	0.410662	7.36677e+06	-47489.1	955.819	-29765.6	0.000000	0.000000	6.410887	0.003079	NaN	0.000000	0.001629	0.001650	28.0822	0.060103	0.002018	29.7867	-11.4129	-165.436	0.056054	0.409350	-1.317531	-1.318843	0.003079	29.7867	-1.317609	-4.108305E+17	-7.494632E-21	NaN
177	1.000000	0.422710	7.36677e+06	-47489.1	955.819	-29765.6	0.000000	0.000000	6.422936	0.003404	NaN	0.000000	0.001557	0.001705	28.122	0.046580	0.001956	23.8185	-93.4003	-166.519	0.023794	0.421359	-1.305483	-1.306834	0.003404	23.8185	-1.305590	-2.838509E+17	-1.199231E-20	NaN
177	1.000000	0.434710	7.36677e+06	-47489.1	955.819	-29765.6	0.000000	0.000000	6.434938	0.043648	NaN	0.000000	0.001591	0.001724	28.0833	0.060057	0.001987	30.2274	65.2786	-167.944	0.103976	0.433380	-1.293483	-1.294813	0.043648	30.2274	-1.294566	-2.021968E+17	-2.158669E-19	NaN
177	1.000000	0.446713	7.36677e+06	-47489.1	955.818	-29765.6	0.000000	0.000000	6.446937	-0.027285	NaN	0.000000	0.001636	0.001704	28.1208	0.092240	0.002000	46.1238	177.471	-162.264	-0.013326	0.445351	-1.281480	-1.282842	-0.027285	46.1238	-1.281036	-1.333336E+17	2.046337E-19	NaN
177	1.000000	0.458718	7.36677e+06	-47489.1	955.818	-29765.6	0.000000	0.000000	6.458945	0.037587	NaN	0.000000	0.001614	0.001717	28.0824	0.140053	0.002051	68.2865	-69.2552	-163.023	-0.007362	0.457422	-1.269475	-1.270771	0.037587	68.2865	-1.269887	-9.459883E+16	-3.973265E-19	NaN
177	1.000000	0.470712	7.36677e+06	-47489.1	955.818	-29765.6	0.000000	0.000000	6.470937	-0.010518	NaN	0.000000	0.001647	0.001675	28.1215	0.024991	0.002008	12.4472	60.2983	-168.03	-0.020494	0.469410	-1.257481	-1.258783	-0.010518	12.4472	-1.256847	-6.331491E+16	1.661165E-19	NaN
177	1.000000	0.482700	7.36677e+06	-47489.1	955.818	-29765.6	0.000000	0.000000	6.482924	-0.045256	NaN	0.000000	0.001655	0.001675	28.0814	0.063839	0.002010	31.7675	174.524	-163.218	0.033129	0.481391	-1.245493	-1.246802	-0.045256	31.7675	-1.244425	-4.318554E+16	1.047950E-18	NaN
177	1.000000	0.494684	7.36677e+06	-47489.1	955.818	-29765.6	0.000000	0.000000	6.494908	-0.030910	NaN	0.000000	0.001633	0.001700	28.1221	0.053799	0.001973	27.2627	-45.4674	-164.769	-0.005990	0.493400	-1.233509	-1.234793	-0.030910	27.2627	-1.232659	-3.005481E+16	1.028468E-18	NaN
177	1.000000	0.506700	7.36677e+06	-47489.1	955.818	-29765.6	0.000000	0.000000	6.506925	-0.016188	NaN	0.000000	0.001661	0.001734	28.083	0.012469	0.001976	6.310707	-58.9712	-163.404	-0.034964	0.505450	-1.221493	-1.222743	-0.016188	6.310707	-1.219569	-2.007863E+16	8.062134E-19	NaN
177	1.000000	0.518734	7.36677e+06	-47489.1	955.818	-29765.6	0.000000	0.000000	6.518963	0.070118	NaN	0.000000	0.001614	0.001719	28.1201	0.008362	0.001942	4.306421	92.0496	-164.295	0.089248	0.517457	-1.209459	-1.210736	0.070118	4.306421	-1.221670	-2.142196E+16	-3.273173E-18	NaN
177	1.000000	0.530753	7.36677e+06	-47489.1	955.819	-29765.6	0.000000	0.000000	6.530977	-0.045301	NaN	0.000000	0.001660	0.001720	28.0809	0.106219	0.002048	51.8533	179.965	-167.284	-0.047871	0.529418	-1.197440	-1.198775	-0.045301	51.8533	-1.196784	-9.946903E+15	4.554266E-18	NaN
177	1.000000	0.542739	7.36677e+06	-47489.1	955.817	-29765.6	0.000000	0.000000	6.542964	-0.023686	NaN	0.000000	0.001634	0.001734	28.1202	0.096568	0.002150	44.9242	-56.0142	-165.961	0.056966	0.541432	-1.185454	-1.186761	-0.023686	44.9242	-1.185058	-6.928415E+15	3.418608E-18	NaN
177	1.000000	0.554740	7.36677e+06	-47489.1	955.818	-29765.6	0.000000	0.000000	6.554967	0.032693	NaN	0.000000	0.001632	0.001712	28.0815	0.063817	0.001792	35.6063	-101.933	-160.933	0.025495	0.553428	-1.173453	-1.174765	0.032693	35.6063	-1.174142	-4.947454E+15	-6.608083E-18	NaN
177	1.000000	0.566760	7.36677e+06	-47489.1	955.818	-29765.6	0.000000	0.000000	6.566984	-0.027542	NaN	0.000000	0.001628	0.001705	28.1216	0.100713	0.002054	49.0381	-66.9796	-165.274	-0.083977	0.565394	-1.161433	-1.162799	-0.027542	49.0381	-1.161012	-3.299407E+15	8.347418E-18	NaN
177	1.000000	0.578767	7.36677e+06	-47489.1	955.818	-29765.6	0.000000	0.000000	6.578992	-0.010858	NaN	0.000000	0.001641	0.001725	28.0821	0.057554	0.001805	31.8909	-156.061	-165.713	-0.073676	0.577448	-1.149426	-1.150745	-0.010858	31.8909	-1.149170	-2.289274E+15	4.743080E-18	NaN
177	1.000000	0.590764	7.36677e+06	-47489.1	955.819	-29765.6	0.000000	0.000000	6.590991	0.031857	NaN	0.000000	0.001630	0.001723	28.1214	0.057038	0.002080	27.4242	122.036	-165.06	0.071768	0.589469	-1.137429	-1.138724	0.031857	27.4242	-1.138300	-1.636617E+15	-1.946536E-17	NaN
177	1.000000	0.602767	7.36677e+06	-47489.1	955.819	-29765.6	0.000000	0.000000	6.602991	-0.031390	NaN	0.000000	0.001632	0.001733	28.0806	0.046232	0.002095	22.0725	-77.3761	-166.453	0.004645	0.601497	-1.125426	-1.126696	-0.031390	22.0725	-1.124360	-1.064049E+15	2.950026E-17	NaN
177	1.000000	0.614786	7.36677e+06	-47489.1	955.819	-29765.6	0.000000	0.000000	6.615011	-0.014018	NaN	0.000000	0.001667	0.001731	28.1208	0.102124	0.001954	52.2753	95.6497	-166.523	0.048011	0.613423	-1.113407	-1.114770	-0.014018	52.2753	-1.113206	-7.538897E+14	1.859373E-17	NaN
177	1.000000	0.626785	7.36677e+06	-47489.1	955.818	-29765.6	0.000000	0.000000	6.627011	0.008346	NaN	0.000000	0.001661	0.001698	28.0796	0.115094	0.002006	57.3865	116.39	-166.184	0.037883	0.625485	-1.101408	-1.102708	0.008346	57.3865	-1.101517	-5.253312E+14	-1.588787E-17	NaN
177	1.000000	0.638774	7.36677e+06	-47489.1	955.818	-29765.6	0.000000	0.000000	6.638999	-0.034809	NaN	0.000000	0.001650	0.001712	28.1213	0.090649	0.002022	44.8358	-114.988	-169.933	0.017952	0.637453	-1.089419	-1.090740	-0.034809	44.8358	-1.088836	-3.549651E+14	9.806264E-17	NaN
177	1.000000	0.650773	7.36677e+06	-47489.1	955.818	-29765.6	0.000000	0.000000	6.650998	0.011571	NaN	0.000000	0.001665	0.001743	28.082	0.039414	0.001980	19.903	-60.6937	-164.173	-0.017761	0.649464	-1.077421	-1.078729	0.011571	19.903	-1.077857	-2.527724E+14	-4.577779E-17	NaN
177	1.000000	0.662799	7.36677e+06	-47489.1	955.818	-29765.6	0.000000	0.000000	6.663024	-0.023952	NaN	0.000000	0.001609	0.001735	28.1229	0.120658	0.002052	58.8015	-12.311	-161.245	0.020653	0.661464	-1.065394	-1.066729	-0.023952	58.8015	-1.065088	-1.702935E+14	1.406531E-16	NaN
177	1.000000	0.674804	7.36677e+06	-47489.1	955.818	-29765.6	0.000000	0.000000	6.675031	0.035292	NaN	0.000000	0.001628	0.001713	28.0821	0.117584	0.002016	58.3369	-88.0565	-165.123	0.021680	0.673445	-1.053389	-1.054748	0.035292	58.3369	-1.053842	-1.202442E+14	-2.935064E-16	NaN
177	1.000000	0.686801	7.36677e+06	-47489.1	955.819	-29765.6	0.000000	0.000000	6.687026	-0.003625	NaN	0.000000	0.001678	0.001703	28.1219	0.059779	0.002055	29.0925	97.2268	-164.956	0.007541	0.685484	-1.041392	-1.042709	-0.003625	29.0925	-1.041299	-8.155095E+13	4.444965E-17	NaN
177	1.000000	0.698782	7.36677e+06	-47489.1	955.819	-29765.6	0.000000	0.000000	6.699009	0.047854	NaN	0.000000	0.001659	0.001748	28.0815	0.123390	0.001884	65.4918	-131.74	-163.012	-0.023474	0.697486	-1.029411	-1.030707	0.047854	65.4918	-1.029959	-5.740259E+13	-8.336510E-16	NaN
177	1.000000	0.710799	7.36677e+06	-47489.1	955.819	-29765.6	0.000000	0.000000	6.711023	-0.047727	NaN	0.000000	0.001608	0.001716	28.1215	0.155753	0.002155	72.2836	106.944	-166.126	-0.030067	0.709529	-1.017394	-1.018664	-0.047727	72.2836	-1.016898	-3.830181E+13	1.246070E-15	NaN
177	1.000000	0.722822	7.36677e+06	-47489.1	955.817	-29765.6	0.000000	0.000000	6.723047	-0.005579	NaN	0.000000	0.001637	0.001709	28.0818	0.087590	0.001926	45.4726	-21.0474	-166.351	-0.013982	0.721511	-1.005371	-1.006682	-0.005579	45.4726	-1.005279	-2.672010E+13	2.087855E-16	NaN
177	1.000000	0.734832	7.36677e+06	-47489.1	955.818	-29765.6	0.000000	0.000000	6.735056	-0.045291	NaN	0.000000	0.001621	0.001695	28.1237	0.045336	0.001993	22.7476	-142.667	-166.626	-0.106490	0.733517	-0.993361	-0.994676	-0.045291	22.7476	-0.991868	-1.763058E+13	2.568903E-15	NaN
177	1.000000	0.746831	7.36677e+06	-47489.1	955.818	-29765.6	0.000000	0.000000	6.747057	0.017163	NaN	0.000000	0.001622	0.001713	28.0822	0.046169	0.002092	22.0705	-73.1007	-169.055	0.030910	0.745537	-0.981362	-0.982656	0.017163	22.0705	-0.981946	-1.296048E+13	-1.324280E-15	NaN
177	1.000000	0.758818	7.36677e+06	-47489.1	955.818	-29765.6	0.000000	0.000000	6.759047	0.090918	NaN	0.000000	0.001631	0.001701	28.1226	0.028316	0.002020	14.0157	-64.6697	-166.968	0.015996	0.757507	-0.969375	-0.970686	0.090918	14.0157	-0.974240	-1.020473E+13	-8.909377E-15	NaN
177	1.000000	0.770847	7.36677e+06	-47489.1	955.819	-29765.6	0.000000	0.000000	6.771075	0.048643	NaN	0.000000	0.001626	0.001720	28.081	0.027812	0.001903	14.6171	129.46	-168.656	-0.001316	0.769509	-0.957346	-0.958684	0.048643	14.6171	-0.959842	-6.527288E+12	-7.452262E-15	NaN
177	1.000000	0.782804	7.36677e+06	-47489.1	955.819	-29765.6	0.000000	0.000000	6.783034	0.106700	NaN	0.000000	0.001616	0.001702	28.1209	0.083684	0.001932	43.3187	8.240829	-167.475	0.060926	0.781506	-0.945389	-0.946687	0.106700	43.3187	-0.947237	-4.413230E+12	-2.417721E-14	NaN
177	1.000000	0.794876	7.36677e+06	-47489.1	955.819	-29765.6	0.000000	0.000000	6.795099	-0.064967	NaN	0.000000	0.001657	0.001740	28.0798	0.094528	0.001881	50.2662	119.558	-166.442	0.025564	0.793529	-0.933317	-0.934664	-0.064967	50.2662	-0.932348	-2.778939E+12	2.337848E-14	NaN
177	1.000000	0.806831	7.36677e+06	-47489.1	955.818	-29765.6	0.000000	0.000000	6.807058	0.034592	NaN	0.000000	0.001623	0.001712	28.122	0.138227	0.001944	71.0981	-121.12	-166.876	0.020695	0.805588	-0.921362	-0.922605	0.034592	71.0981	-0.921727	-1.997652E+12	-1.731639E-14	NaN
177	1.000000	0.818848	7.36677e+06	-47489.1	955.819	-29765.6	0.000000	0.000000	6.819073	-0.001856	NaN	0.000000	0.001650	0.001682	28.082	0.081066	0.002094	38.7215	50.4721	-164.342	0.006724	0.817525	-0.909345	-0.910668	-0.001856	38.7215	-0.909309	-1.357796E+12	1.366859E-15	NaN
177	1.000000	0.830837	7.36677e+06	-47489.1	955.818	-29765.6	0.000000	0.000000	6.831063	-0.003379	NaN	0.000000	0.001659	0.001700	28.1224	0.076912	0.001981	38.8292	65.7236	-162.242	-0.074147	0.829468	-0.897356	-0.898725	-0.003379	38.8292	-0.897291	-9.342277E+11	3.617322E-15	NaN
177	1.000000	0.842867	7.36677e+06	-47489.1	955.819	-29765.6	0.000000	0.000000	6.843091	-0.025428	NaN	0.000000	0.001627	0.001693	28.0791	0.144980	0.002016	71.9306	-90.4024	-167.731	-0.026192	0.841574	-0.885326	-0.886619	-0.025428	71.9306	-0.885061	-6.384728E+11	3.982590E-14	NaN
177	1.000000	0.854860	7.36677e+06	-47489.1	955.819	-29765.6	0.000000	0.000000	6.855083	-0.076072	NaN	0.000000	0.001673	0.001678	28.1215	0.092768	0.001929	48.0987	-72.6235	-164.871	-0.038182	0.853564	-0.873333	-0.874629	-0.076072	48.0987	-0.872147	-4.270547E+11	1.781315E-13	NaN
177	1.000000	0.866838	7.36677e+06	-47489.1	955.818	-29765.6	0.000000	0.000000	6.867064	0.007013	NaN	0.000000	0.001677	0.001683	28.08	0.064448	0.001900	33.9182	-134.195	-165.126	0.074382	0.865547	-0.861355	-0.862646	0.007013	33.9182	-0.861510	-3.065908E+11	-2.287569E-14	NaN
177	1.000000	0.878894	7.36677e+06	-47489.1	955.819	-29765.6	0.000000	0.000000	6.879120	0.021994	NaN	0.000000	0.001691	0.001686	28.1228	0.076498	0.001930	39.6461	32.1348	-166.868	-0.018339	0.877598	-0.849299	-0.850595	0.021994	39.6461	-0.849715	-2.122675E+11	-1.036161E-13	NaN
177	1.000000	0.890877	7.36677e+06	-47489.1	955.818	-29765.6	0.000000	0.000000	6.891103	0.020992	NaN	0.000000	0.001706	0.001692	28.082	0.126027	0.002001	62.9936	-30.9507	-165.233	-0.006427	0.889579	-0.837316	-0.838614	0.020992	62.9936	-0.837566	-1.453172E+11	-1.444540E-13	NaN
177	1.000000	0.902911	7.36677e+06	-47489.1	955.818	-29765.6	0.000000	0.000000	6.903136	-0.013618	NaN	0.000000	0.001676	0.001725	28.1231	0.107297	0.001942	55.2386	-18.5123	-165.499	0.016826	0.901554	-0.825282	-0.826639	-0.013618	55.2386	-0.825097	-9.847413E+10	1.382879E-13	NaN
177	1.000000	0.914879	7.36677e+06	-47489.1	955.818	-29765.6	0.000000	0.000000	6.915105	-0.003206	NaN	0.000000	0.001682	0.001699	28.0816	0.058995	0.002149	27.4551	-125.382	-165.923	0.090094	0.913624	-0.813314	-0.814569	-0.003206	27.4551	-0.813226	-6.797354E+10	4.715807E-14	NaN
177	1.000000	0.926863	7.36677e+06	-47489.1	955.818	-29765.6	0.000000	0.000000	6.927090	0.021616	NaN	0.000000	0.001676	0.001688	28.1229	0.072116	0.001972	36.5621	9.422449	-165.415	0.035441	0.925584	-0.801330	-0.802609	0.021616	36.5621	-0.801773	-4.752612E+10	-4.548228E-13	NaN
177	1.000000	0.938888	7.36677e+06	-47489.1	955.818	-29765.6	0.000000	0.000000	6.939113	-0.029465	NaN	0.000000	0.001703	0.001697	28.0814	0.077142	0.001947	39.6238	77.8302	-166.333	-0.085313	0.937572	-0.789305	-0.790621	-0.029465	39.6238	-0.788747	-3.162756E+10	9.316369E-13	NaN
177	1.000000	0.950907	7.36677e+06	-47489.1	955.819	-29765.6	0.000000	0.000000	6.951130	-0.057688	NaN	0.000000	0.001596	0.001702	28.1231	0.023630	0.001883	12.5486	-100.082	-165.087	-0.031070	0.949593	-0.777286	-0.778600	-0.057688	12.5486	-0.773838	-1.983762E+10	2.908025E-12	NaN
177	1.000000	0.962920	7.36677e+06	-47489.1	955.818	-29765.6	0.000000	0.000000	6.963147	0.031746	NaN	0.000000	0.001642	0.001707	28.0822	0.031940	0.001937	16.4871	-76.8089	-166.733	0.056802	0.961538	-0.765273	-0.766655	0.031746	16.4871	-0.766717	-1.587307E+10	-2.000003E-12	NaN
177	1.000000	0.974928	7.36677e+06	-47489.1	955.819	-29765.6	0.000000	0.000000	6.975154	0.021361	NaN	0.000000	0.001664	0.001699	28.1241	0.031492	0.002008	15.6794	-146.271	-165.739	-0.004471	0.973574	-0.753265	-0.754619	0.021361	15.6794	-0.754287	-1.075402E+10	-1.986305E-12	NaN
177	1.000000	0.986947	7.36677e+06	-47489.1	955.818	-29765.6	0.000000	0.000000	6.987175	0.079356	NaN	0.000000	0.001646	0.001681	28.0823	0.104686	0.001926	54.3508	74.9648	-163.652	0.036873	0.985553	-0.741246	-0.742640	0.079356	54.3508	-0.742341	-7.395096E+9	-1.073086E-11	NaN
177	1.000000	0.998941	7.36677e+06	-47489.1	955.818	-29765.6	0.000000	0.000000	6.999164	-0.047445	NaN	0.000000	0.001649	0.001697	28.1235	0.032787	0.002140	15.3239	-0.973401	-165.891	-0.043362	0.997634	-0.729252	-0.730559	-0.047445	15.3239	-0.726930	-4.559973E+9	1.040471E-11	NaN
177	1.000000	1.010932	7.36677e+06	-47489.1	955.818	-29765.6	0.000000	0.000000	7.011158	0.010788	NaN	0.000000	0.001606	0.001686	28.0811	0.057017	0.001998	28.5377	173.74	-168.411	0.011491	1.009634	-0.717261	-0.718559	0.010788	28.5377	-0.717544	-3.396085E+9	-3.176735E-12	NaN
177	1.000000	1.022890	7.36677e+06	-47489.1	955.817	-29765.6	0.000000	0.000000	7.023113	-0.040089	NaN	0.000000	0.001651	0.001652	28.1231	0.075287	0.002035	36.9883	35.2404	-164.506	-0.067279	1.021620	-0.705303	-0.706573	-0.040089	36.9883	-0.704491	-2.253442E+9	1.779032E-11	NaN
177	1.000000	1.034958	7.36677e+06	-47489.1	955.818	-29765.6	0.000000	0.000000	7.035183	0.000869	NaN	0.000000	0.001641	0.001675	28.0818	0.068476	0.001982	34.5523	49.0007	-164.612	-0.041382	1.033641	-0.693235	-0.694552	0.000869	34.5523	-0.693254	-1.582644E+9	-5.492372E-13	NaN
177	1.000000	1.046923	7.36677e+06	-47489.1	955.818	-29765.6	0.000000	0.000000	7.047150	0.035484	NaN	0.000000	0.001623	0.001658	28.125	0.032171	0.001893	16.9984	-142.669	-165.678	-0.007825	1.045621	-0.681270	-0.682572	0.035484	16.9984	-0.682836	-1.140218E+9	-3.112057E-11	NaN
177	1.000000	1.058959	7.36677e+06	-47489.1	955.818	-29765.6	0.000000	0.000000	7.059185	-0.003093	NaN	0.000000	0.001621	0.001675	28.0813	0.028738	0.001983	14.4957	-104.46	-161.912	0.019831	1.057708	-0.669234	-0.670485	-0.003093	14.4957	-0.669074	-7.391163E+8	4.184500E-12	NaN
177	1.000000	1.070945	7.36677e+06	-47489.1	955.818	-29765.6	0.000000	0.000000	7.071169	-0.032030	NaN	0.000000	0.001643	0.001634	28.1232	0.063748	0.002008	31.7536	41.3899	-166.532	-0.034790	1.069573	-0.657248	-0.658620	-0.032030	31.7536	-0.656492	-4.970581E+8	6.443868E-11	NaN
177	1.000000	1.082962	7.36677e+06	-47489.1	955.818	-29765.6	0.000000	0.000000	7.083184	-0.089530	NaN	0.000000	0.001583	0.001672	28.0804	0.121631	0.001941	62.6685	-75.296	-165.116	-0.015236	1.081608	-0.645231	-0.646585	-0.089530	62.6685	-0.644160	-3.367841E+8	2.658379E-10	NaN
177	1.000000	1.094968	7.36677e+06	-47489.1	955.819	-29765.6	0.000000	0.000000	7.095193	-0.011766	NaN	0.000000	0.001609	0.001672	28.1223	0.066874	0.002073	32.2645	178.928	-164.859	-0.030363	1.093651	-0.633225	-0.634542	-0.011766	32.2645	-0.632952	-2.363501E+8	4.978199E-11	NaN
177	1.000000	1.106935	7.36677e+06	-47489.1	955.819	-29765.6	0.000000	0.000000	7.107158	-0.044112	NaN	0.000000	0.001622	0.001677	28.0789	0.144242	0.002057	70.121	119.817	-163.576	0.002452	1.105664	-0.621258	-0.622529	-0.044112	70.121	-0.620786	-1.608579E+8	2.742307E-10	NaN
177	1.000000	1.118954	7.36677e+06	-47489.1	955.819	-29765.6	0.000000	0.000000	7.119180	0.003268	NaN	0.000000	0.001622	0.001687	28.1233	0.060316	0.002068	29.1695	176.3	-168.007	-0.055080	1.117681	-0.609239	-0.610512	0.003268	29.1695	-0.609323	-1.118914E+8	-2.920643E-11	NaN
177	1.000000	1.130959	7.36677e+06	-47489.1	955.817	-29765.6	0.000000	0.000000	7.131184	-0.020776	NaN	0.000000	0.001615	0.001704	28.0803	0.027543	0.002025	13.6021	-55.9527	-164.722	0.004347	1.129716	-0.597234	-0.598477	-0.020776	13.6021	-0.596089	-7.354950E+7	2.824811E-10	NaN
177	1.000000	1.142988	7.36677e+06	-47489.1	955.818	-29765.6	0.000000	0.000000	7.143213	-0.030648	NaN	0.000000	0.001632	0.001699	28.1236	0.057521	0.001985	28.9751	76.3313	-164.677	-0.000803	1.141677	-0.585205	-0.586516	-0.030648	28.9751	-0.584411	-5.076839E+7	6.036745E-10	NaN
177	1.000000	1.154980	7.36677e+06	-47489.1	955.818	-29765.6	0.000000	0.000000	7.155207	0.021335	NaN	0.000000	0.001631	0.001687	28.0792	0.070485	0.001908	36.9424	-54.2232	-167.55	0.037591	1.153639	-0.573213	-0.574554	0.021335	36.9424	-0.573646	-3.605759E+7	-5.916976E-10	NaN
177	1.000000	1.167028	7.36677e+06	-47489.1	955.819	-29765.6	0.000000	0.000000	7.167255	0.027142	NaN	0.000000	0.001631	0.001678	28.1228	0.090617	0.001950	46.4817	149.363	-167.256	0.013332	1.165673	-0.561165	-0.562520	0.027142	46.4817	-0.561603	-2.457820E+7	-1.104323E-9	NaN
177	1.000000	1.178993	7.36677e+06	-47489.1	955.818	-29765.6	0.000000	0.000000	7.179217	-0.033904	NaN	0.000000	0.001632	0.001729	28.0786	0.085997	0.002116	40.6433	-56.8573	-164.768	0.020802	1.177663	-0.549200	-0.550530	-0.033904	40.6433	-0.548574	-1.622587E+7	2.089491E-9	NaN
177	1.000000	1.190994	7.36677e+06	-47489.1	955.819	-29765.6	0.000000	0.000000	7.191215	-0.100923	NaN	0.000000	0.001611	0.001709	28.1238	0.089650	0.001982	45.2351	177.97	-163.533	-0.069803	1.189662	-0.537199	-0.538531	-0.100923	45.2351	-0.535526	-1.069767E+7	9.434105E-9	NaN
177	1.000000	1.202991	7.36677e+06	-47489.1	955.819	-29765.6	0.000000	0.000000	7.203216	-0.004011	NaN	0.000000	0.001627	0.001693	28.0813	0.067051	0.002042	32.8344	149.193	-167.981	0.069651	1.201692	-0.525202	-0.526501	-0.004011	32.8344	-0.525111	-7.66741e+06	5.231779E-10	NaN
177	1.000000	1.214995	7.36677e+06	-47489.1	955.819	-29765.6	0.000000	0.000000	7.215221	0.000352	NaN	0.000000	0.001589	0.001715	28.125	0.025711	0.002091	12.2957	11.8764	-162.084	0.002707	1.213709	-0.513198	-0.514484	0.000352	12.2957	-0.513219	-5.23897e+06	-6.717397E-11	NaN
177	1.000000	1.227020	7.36677e+06	-47489.1	955.819	-29765.6	0.000000	0.000000	7.227245	-0.009733	NaN	0.000000	0.001617	0.001680	28.0822	0.045027	0.002037	22.1066	-43.5498	-169.5	-0.013892	1.225743	-0.501173	-0.502450	-0.009733	22.1066	-0.500843	-3.52189e+06	2.763687E-9	NaN
177	1.000000	1.239034	7.36677e+06	-47489.1	955.82	-29765.6	0.000000	0.000000	7.239260	0.002274	NaN	0.000000	0.001623	0.001673	28.1241	0.013280	0.001994	6.658352	19.6011	-162.651	-0.007302	1.237719	-0.489159	-0.490474	0.002274	6.658352	-0.489415	-2.43901e+06	-9.323511E-10	NaN
177	1.000000	1.251016	7.36677e+06	-47489.1	955.82	-29765.6	0.000000	0.000000	7.251242	0.027392	NaN	0.000000	0.001635	0.001700	28.0805	0.066077	0.002043	32.3403	-175.333	-167.957	0.020703	1.249718	-0.477177	-0.478475	0.027392	32.3403	-0.477813	-1.67842e+06	-1.631992E-8	NaN
177	1.000000	1.263015	7.36677e+06	-47489.1	955.82	-29765.6	0.000000	0.000000	7.263241	0.010252	NaN	0.000000	0.001640	0.001700	28.1243	0.126153	0.002146	58.7771	-168.759	-166.662	0.079439	1.261730	-0.465178	-0.466464	0.010252	58.7771	-0.465309	-1.12095e+06	-9.145848E-9	NaN
177	1.000000	1.275024	7.36677e+06	-47489.1	955.819	-29765.6	0.000000	0.000000	7.275251	0.032918	NaN	0.000000	0.001585	0.001710	28.0814	0.046746	0.002017	23.176	67.5848	-168.921	-0.002748	1.273742	-0.453169	-0.454451	0.032918	23.176	-0.454234	-783335	-4.202317E-8	NaN
177	1.000000	1.287024	7.36677e+06	-47489.1	955.819	-29765.6	0.000000	0.000000	7.287248	-0.030669	NaN	0.000000	0.001615	0.001719	28.1254	0.068038	0.001977	34.4226	69.9846	-164.513	-0.028283	1.285683	-0.441169	-0.442511	-0.030669	34.4226	-0.440501	-501684	6.113160E-8	NaN
177	1.000000	1.299051	7.36677e+06	-47489.1	955.819	-29765.6	0.000000	0.000000	7.299274	-0.074626	NaN	0.000000	0.001592	0.001669	28.0818	0.017606	0.001992	8.838804	167.707	-165.926	0.009683	1.297763	-0.429142	-0.430430	-0.074626	8.838804	-0.422810	-281999	2.646316E-7	NaN
177	1.000000	1.311037	7.36677e+06	-47489.1	955.819	-29765.6	0.000000	0.000000	7.311261	-0.046931	NaN	0.000000	0.001578	0.001662	28.1257	0.023303	0.002029	11.4829	-81.3691	-166.735	-0.035085	1.309742	-0.417156	-0.418451	-0.046931	11.4829	-0.414090	-212097	2.212706E-7	NaN
177	1.000000	1.323060	7.36677e+06	-47489.1	955.818	-29765.6	0.000000	0.000000	7.323288	0.053058	NaN	0.000000	0.001608	0.001641	28.0813	0.042830	0.002060	20.7962	-35.198	-166.075	0.085232	1.321725	-0.405133	-0.406468	0.053058	20.7962	-0.407047	-168416	-3.150433E-7	NaN
177	1.000000	1.335068	7.36677e+06	-47489.1	955.819	-29765.6	0.000000	0.000000	7.335294	0.010125	NaN	0.000000	0.001604	0.001665	28.1237	0.034460	0.001975	17.4492	-167.513	-166.287	-0.068329	1.333772	-0.393125	-0.394421	0.010125	17.4492	-0.393561	-108161	-9.360604E-8	NaN
177	1.000000	1.347046	7.36677e+06	-47489.1	955.819	-29765.6	0.000000	0.000000	7.347272	0.014111	NaN	0.000000	0.001593	0.001683	28.0804	0.016557	0.001953	8.477314	-106.145	-164.505	0.012671	1.345719	-0.381147	-0.382474	0.014111	8.477314	-0.382395	-74860.7	-1.884943E-7	NaN
177	1.000000	1.359076	7.36677e+06	-47489.1	955.819	-29765.6	0.000000	0.000000	7.359303	0.045982	NaN	0.000000	0.001590	0.001702	28.1247	0.043069	0.001954	22.0411	97.9511	-169.605	0.074531	1.357748	-0.369117	-0.370445	0.045982	22.0411	-0.370682	-50809.6	-9.049808E-7	NaN
177	1.000000	1.371058	7.36677e+06	-47489.1	955.819	-29765.6	0.000000	0.000000	7.371287	0.077622	NaN	0.000000	0.001627	0.001708	28.0798	0.057408	0.001883	30.4852	-172.515	-168.821	0.076168	1.369737	-0.357135	-0.358456	0.077622	30.4852	-0.359045	-34516.8	-2.248826E-6	NaN
177	1.000000	1.383066	7.36677e+06	-47489.1	955.818	-29765.6	0.000000	0.000000	7.383289	-0.066366	NaN	0.000000	0.001617	0.001769	28.1249	0.024173	0.002044	11.8283	162.066	-164.242	0.064277	1.381756	-0.345127	-0.346437	-0.066366	11.8283	-0.340919	-18834.2	3.523718E-6	NaN
177	1.000000	1.395107	7.36677e+06	-47489.1	955.818	-29765.6	0.000000	0.000000	7.395332	-0.017076	NaN	0.000000	0.001591	0.001756	28.0816	0.053869	0.002013	26.7638	-29.6941	-165.663	-0.021359	1.393804	-0.333086	-0.334389	-0.017076	26.7638	-0.332608	-14243.4	1.198875E-6	NaN
177	1.000000	1.407116	7.36677e+06	-47489.1	955.818	-29765.6	0.000000	0.000000	7.407344	0.060844	NaN	0.000000	0.001576	0.001779	28.1234	0.061394	0.002066	29.7218	162.44	-166.933	0.037266	1.405813	-0.321077	-0.322380	0.060844	29.7218	-0.322612	-10163.9	-5.986295E-6	NaN
177	1.000000	1.419119	7.36677e+06	-47489.1	955.819	-29765.6	0.000000	0.000000	7.419345	0.021236	NaN	0.000000	0.001620	0.001826	28.0797	0.072703	0.001939	37.4872	-113.875	-168.739	0.017679	1.417757	-0.309074	-0.310436	0.021236	37.4872	-0.309499	-6510.93	-3.261580E-6	NaN
177	1.000000	1.431091	7.36677e+06	-47489.1	955.819	-29765.6	0.000000	0.000000	7.431313	-0.074899	NaN	0.000000	0.001600	0.001830	28.124	0.085268	0.002046	41.6796	166.193	-164.513	0.003750	1.429806	-0.297102	-0.298387	-0.074899	41.6796	-0.295755	-4067.75	1.841287E-5	NaN
177	1.000000	1.443109	7.36677e+06	-47489.1	955.82	-29765.6	0.000000	0.000000	7.443334	0.009673	NaN	0.000000	0.001595	0.001771	28.0813	0.033405	0.002088	15.9976	86.8367	-163.3	0.029437	1.441824	-0.285084	-0.286369	0.009673	15.9976	-0.285538	-2859.9	-3.382313E-6	NaN
177	1.000000	1.455112	7.36677e+06	-47489.1	955.818	-29765.6	0.000000	0.000000	7.455338	0.007267	NaN	0.000000	0.001630	0.001746	28.125	0.126776	0.001950	65.0171	127.574	-164.502	-0.044675	1.453793	-0.273081	-0.274400	0.007267	65.0171	-0.273165	-1860.32	-3.906499E-6	NaN
177	1.000000	1.467089	7.36677e+06	-47489.1	955.818	-29765.6	0.000000	0.000000	7.467318	0.079173	NaN	0.000000	0.001626	0.001742	28.0811	0.079632	0.001984	40.1388	-137.607	-166.157	0.024002	1.465825	-0.261104	-0.262368	0.079173	40.1388	-0.262583	-1283.71	-6.167517E-5	NaN
177	1.000000	1.479142	7.36677e+06	-47489.1	955.819	-29765.6	0.000000	0.000000	7.479367	-0.012601	NaN	0.000000	0.001660	0.001777	28.1255	0.054618	0.001925	28.3771	-5.349051	-165.705	0.019188	1.477806	-0.249051	-0.250387	-0.012601	28.3771	-0.248718	-785.463	1.604229E-5	NaN
177	1.000000	1.491134	7.36677e+06	-47489.1	955.818	-29765.6	0.000000	0.000000	7.491357	-0.067271	NaN	0.000000	0.001722	0.001792	28.0819	0.070454	0.002030	34.7134	-142.068	-167.693	0.022063	1.489851	-0.237059	-0.238342	-0.067271	34.7134	-0.235605	-490.628	0.000137	NaN
177	1.000000	1.503140	7.36677e+06	-47489.1	955.819	-29765.6	0.000000	0.000000	7.503364	-0.037133	NaN	0.000000	0.001645	0.001803	28.1259	0.073618	0.001871	39.3415	-12.6289	-165.385	-0.025444	1.501841	-0.225053	-0.226352	-0.037133	39.3415	-0.224345	-325.779	0.000114	NaN
177	1.000000	1.515152	7.36677e+06	-47489.1	955.82	-29765.6	0.000000	0.000000	7.515377	0.008716	NaN	0.000000	0.001676	0.001802	28.0807	0.075260	0.002135	35.2464	-78.8506	-165.957	-0.046540	1.513842	-0.213041	-0.214351	0.008716	35.2464	-0.213227	-216.252	-4.030662E-5	NaN
177	1.000000	1.527147	7.36677e+06	-47489.1	955.819	-29765.6	0.000000	0.000000	7.527374	0.030119	NaN	0.000000	0.001664	0.001755	28.1266	0.033942	0.001909	17.7789	127.53	-165.887	-0.009000	1.525833	-0.201046	-0.202360	0.030119	17.7789	-0.202317	-143.781	-0.000209	NaN
177	1.000000	1.539186	7.36677e+06	-47489.1	955.818	-29765.6	0.000000	0.000000	7.539412	0.012090	NaN	0.000000	0.001698	0.001791	28.082	0.195201	0.002165	90.1742	32.693	-164.05	-0.074543	1.537894	-0.189007	-0.190299	0.012090	90.1742	-0.189108	-86.9181	-0.000139	NaN
177	1.000000	1.551150	7.36677e+06	-47489.1	955.819	-29765.6	0.000000	0.000000	7.551372	-0.071385	NaN	0.000000	0.001687	0.001807	28.1266	0.012101	0.002043	5.923901	134.154	-163.91	-0.009773	1.549842	-0.177043	-0.178351	-0.071385	5.923901	-0.168005	-37.9229	0.001882	NaN
177	1.000000	1.563166	7.36677e+06	-47489.1	955.818	-29765.6	0.000000	0.000000	7.563391	-0.010042	NaN	0.000000	0.001673	0.001734	28.0805	0.022685	0.002017	11.247	86.6379	-168.786	-0.049082	1.561880	-0.165027	-0.166313	-0.010042	11.247	-0.164357	-32.7349	0.000307	NaN
177	1.000000	1.575153	7.36677e+06	-47489.1	955.818	-29765.6	0.000000	0.000000	7.575379	0.025399	NaN	0.000000	0.001659	0.001723	28.1255	0.091970	0.002025	45.4266	113.016	-167.746	-0.037058	1.573833	-0.153040	-0.154360	0.025399	45.4266	-0.153460	-20.9318	-0.001213	NaN
177	1.000000	1.587159	7.36677e+06	-47489.1	955.819	-29765.6	0.000000	0.000000	7.587385	0.001403	NaN	0.000000	0.001667	0.001715	28.0803	0.105348	0.001877	56.1269	149.048	-163.743	0.040597	1.585876	-0.141034	-0.142317	0.001403	56.1269	-0.141053	-12.3797	-0.000113	NaN
177	1.000000	1.599177	7.36677e+06	-47489.1	955.818	-29765.6	0.000000	0.000000	7.599404	0.025888	NaN	0.000000	0.001676	0.001743	28.1267	0.065044	0.001925	33.786	-33.9234	-163.475	0.024227	1.597881	-0.129016	-0.130312	0.025888	33.786	-0.129590	-7.482499	-0.003460	NaN
177	1.000000	1.611194	7.36677e+06	-47489.1	955.818	-29765.6	0.000000	0.000000	7.611420	0.017185	NaN	0.000000	0.001681	0.001753	28.0803	0.040816	0.001877	21.7414	-23.5165	-168.83	0.045640	1.609868	-0.116999	-0.118325	0.017185	21.7414	-0.117592	-4.317617	-0.003980	NaN
177	1.000000	1.623205	7.36677e+06	-47489.1	955.818	-29765.6	0.000000	0.000000	7.623433	0.045435	NaN	0.000000	0.001675	0.001720	28.1256	0.083839	0.002003	41.8493	102.499	-164.934	-0.019541	1.621888	-0.104988	-0.106305	0.045435	41.8493	-0.105802	-2.446033	-0.018575	NaN
177	1.000000	1.635173	7.36677e+06	-47489.1	955.819	-29765.6	0.000000	0.000000	7.635398	-0.019803	NaN	0.000000	0.001633	0.001698	28.0798	0.019536	0.001963	9.952136	138.625	-163.583	-0.110049	1.633912	-0.093020	-0.094281	-0.019803	9.952136	-0.091527	-1.173513	0.016875	NaN
177	1.000000	1.647193	7.36678e+06	-47489.1	955.819	-29765.6	0.000000	0.000000	7.647418	-0.003910	NaN	0.000000	0.001617	0.001726	28.1248	0.018728	0.002068	9.057879	-69.9935	-164.616	0.001480	1.645894	-0.081000	-0.082299	-0.003910	9.057879	-0.080676	-0.643514	0.006077	NaN
177	1.000000	1.659220	7.36678e+06	-47489.1	955.819	-29765.6	0.000000	0.000000	7.659447	0.043166	NaN	0.000000	0.001618	0.001753	28.0791	0.080423	0.002086	38.5624	-112.844	-165.759	0.013243	1.657914	-0.068973	-0.070279	0.043166	38.5624	-0.069813	-0.337184	-0.128020	NaN
177	1.000000	1.671232	7.36678e+06	-47489.1	955.819	-29765.6	0.000000	0.000000	7.671456	-0.024736	NaN	0.000000	0.001556	0.001723	28.1244	0.161359	0.001963	82.1821	-91.8997	-166.798	0.026196	1.669930	-0.056961	-0.058263	-0.024736	82.1821	-0.056736	-0.144841	0.170779	NaN
177	1.000000	1.683235	7.36678e+06	-47489.1	955.819	-29765.6	0.000000	0.000000	7.683461	0.011909	NaN	0.000000	0.001576	0.001683	28.0798	0.044652	0.002005	22.2714	-146.722	-166.426	-0.032520	1.681963	-0.044958	-0.046230	0.011909	22.2714	-0.045359	-0.065913	-0.180672	NaN
177	1.000000	1.695204	7.36678e+06	-47489.1	955.819	-29765.6	0.000000	0.000000	7.695431	0.026963	NaN	0.000000	0.001578	0.001732	28.1258	0.162026	0.001970	82.2412	167.923	-165.844	0.073638	1.693951	-0.032989	-0.034242	0.026963	82.2412	-0.033235	-0.028440	-0.948096	NaN
177	1.000000	1.707246	7.36678e+06	-47489.1	955.819	-29765.6	0.000000	0.000000	7.707474	0.054753	NaN	0.000000	0.001589	0.001736	28.08	0.044659	0.002044	21.848	-44.3745	-168.143	0.002394	1.705976	-0.020947	-0.022217	0.054753	21.848	-0.022826	-0.014824	-3.693572	NaN
177	1.000000	1.719240	7.36678e+06	-47489.1	955.819	-29765.6	0.000000	0.000000	7.719464	-0.030996	NaN	0.000000	0.001584	0.001724	28.1241	0.070125	0.002013	34.8314	56.7113	-166.652	-0.020921	1.717944	-0.008953	-0.010249	-0.030996	34.8314	-0.008286	-0.005399	5.741647	NaN
177	1.000000	1.731231	7.36678e+06	-47489.1	955.819	-29765.6	0.000000	0.000000	7.731549	2.228094	NaN	0.000000	0.001593	0.001697	28.0782	2.974659	0.002009	1480.76	7.700875	-169.281	0.969457	1.729930	0.003038	0.001737	2.228094	1480.76	0.001910	0.001482	1503.34	35141.4
177	2.000000	1.738842	7.36678e+06	-47489.1	955.819	-29765.6	0.000000	0.000000	7.739521	11.0419	NaN	0.000000	0.001563	0.001712	28.1252	10.4934	0.001557	6741.09	7.015309	-175.671	10.3317	1.738505	0.010649	0.010312	11.0419	6741.09	0.009420	0.008544	1292.29	66628.8
177	2.000000	1.741790	7.36678e+06	-47489.1	955.819	-29765.6	0.000000	0.000000	7.742675	16.0357	NaN	0.000000	0.001592	0.001712	28.0803	13.9162	0.001761	7901.21	8.338293	-174.674	15.358	1.741476	0.013597	0.013283	16.0357	7901.21	0.012075	0.011580	1384.78	67082.9
177	2.000000	1.744765	7.36678e+06	-47489.1	955.819	-29765.6	0.000000	0.000000	7.745842	20.6922	NaN	0.000000	0.001586	0.001760	28.1265	17.4599	0.001626	10735.1	6.138948	-178.6	19.7758	1.744438	0.016572	0.016245	20.6922	10735.1	0.015127	0.015455	1338.89	78894.6
177	2.000000	1.747766	7.36678e+06	-47489.1	955.818	-29765.6	0.000000	0.000000	7.749035	25.366	NaN	0.000000	0.001583	0.001765	28.0815	20.4053	0.001754	11631	5.510890	-176.469	25.6751	1.747436	0.019573	0.019243	25.366	11631	0.017938	0.019405	1307.21	76284.4
177	2.000000	1.750768	7.36678e+06	-47489.1	955.82	-29765.6	0.000000	0.000000	7.752284	31.392	NaN	0.000000	0.001576	0.001735	28.128	24.0071	0.001755	13677.5	5.324519	-178.424	30.822	1.750416	0.022575	0.022223	31.392	13677.5	0.020853	0.023901	1313.41	80829.3
177	2.000000	1.753717	7.36678e+06	-47489.1	955.819	-29765.6	0.000000	0.000000	7.755509	38.1254	NaN	0.000000	0.001603	0.001748	28.08	26.8033	0.001834	14618.3	2.773701	-176.556	37.7132	1.753519	0.025523	0.025326	38.1254	14618.3	0.023567	0.028461	1339.57	79167.5
177	2.000000	1.756734	7.36678e+06	-47489.1	955.819	-29765.6	0.000000	0.000000	7.758788	44.4776	NaN	0.000000	0.001591	0.001756	28.1263	29.6773	0.001889	15713.2	4.368552	-178.348	44.6013	1.756414	0.028541	0.028221	44.4776	15713.2	0.026418	0.033645	1321.96	78266.6
177	2.000000	1.759735	7.36678e+06	-47489.1	955.819	-29765.6	0.000000	0.000000	7.762217	54.8856	NaN	0.000000	0.001584	0.001727	28.0803	32.0623	0.001818	17634	6.356236	178.572	52.8387	1.759384	0.031542	0.031191	54.8856	17634	0.029208	0.039118	1403.09	81458.9
177	2.000000	1.762724	7.36678e+06	-47489.1	955.819	-29765.6	0.000000	0.000000	7.765542	63.0711	NaN	0.000000	0.001573	0.001726	28.1269	33.972	0.001847	18394.5	4.555221	-179.54	62.1319	1.762382	0.034531	0.034189	63.0711	18394.5	0.031959	0.044903	1404.62	79309.7
177	2.000000	1.765735	7.36678e+06	-47489.1	955.82	-29765.6	0.000000	0.000000	7.768837	69.9564	NaN	0.000000	0.001595	0.001692	28.0813	37.137	0.001865	19908.5	7.139132	177.405	70.9739	1.765383	0.037542	0.037190	69.9564	19908.5	0.034907	0.051529	1357.62	80128.8
177	2.000000	1.768674	7.36678e+06	-47489.1	955.819	-29765.6	0.000000	0.000000	7.772278	82.1878	NaN	0.000000	0.001584	0.001743	28.1275	38.4408	0.001695	22676.4	5.819560	177.006	80.9538	1.768349	0.040481	0.040156	82.1878	22676.4	0.037762	0.058373	1407.97	85751.3
177	2.000000	1.771615	7.36678e+06	-47489.1	955.819	-29765.6	0.000000	0.000000	7.775745	94.9814	NaN	0.000000	0.001593	0.001742	28.0793	41.8053	0.001661	25175.8	5.506630	176.161	92.0877	1.771304	0.043422	0.043111	94.9814	25175.8	0.040592	0.065568	1448.59	89827.9
177	2.000000	1.774675	7.36678e+06	-47489.1	955.819	-29765.6	0.000000	0.000000	7.779064	101.267	NaN	0.000000	0.001580	0.001731	28.125	45.2121	0.001867	24212.5	6.542264	175.461	100.54	1.774394	0.046482	0.046201	101.267	24212.5	0.043346	0.072960	1387.98	81897.5
177	2.000000	1.777680	7.36678e+06	-47489.1	955.82	-29765.6	0.000000	0.000000	7.782430	110.04	NaN	0.000000	0.001627	0.001723	28.0773	47.0077	0.001831	25675.6	4.960764	176.733	109.093	1.777458	0.049487	0.049265	110.04	25675.6	0.046273	0.081242	1354.48	82300.9
177	2.000000	1.780699	7.36678e+06	-47489.1	955.82	-29765.6	0.000000	0.000000	7.785973	122.807	NaN	0.000000	0.001607	0.001726	28.1246	49.1205	0.001695	28984.7	3.060350	177.762	122.785	1.780339	0.052506	0.052146	122.807	28984.7	0.049328	0.090347	1359.28	88101.5
177	2.000000	1.783637	7.36678e+06	-47489.1	955.819	-29765.6	0.000000	0.000000	7.789512	137.396	NaN	0.000000	0.001602	0.001712	28.0798	53.4973	0.001802	29694.2	3.848772	176.692	134.329	1.783322	0.055444	0.055129	137.396	29694.2	0.051974	0.098613	1393.29	86392.8
177	2.000000	1.786675	7.36678e+06	-47489.1	955.819	-29765.6	0.000000	0.000000	7.792962	147.447	NaN	0.000000	0.001626	0.001816	28.1266	57.1654	0.001859	30754.3	3.180018	177.243	147.794	1.786430	0.058481	0.058237	147.447	30754.3	0.054886	0.108111	1363.85	85456.5
177	2.000000	1.789648	7.36678e+06	-47489.1	955.82	-29765.6	0.000000	0.000000	7.796508	161.373	NaN	0.000000	0.001601	0.001819	28.0809	59.6668	0.001830	32607.3	5.849989	173.891	160.035	1.789374	0.061455	0.061181	161.373	32607.3	0.057743	0.117840	1369.43	86784.5
177	2.000000	1.792595	7.36678e+06	-47489.1	955.819	-29765.6	0.000000	0.000000	7.800193	179.335	NaN	0.000000	0.001607	0.001804	28.1262	61.0259	0.001780	34291.4	5.836775	173.857	174.087	1.792223	0.064401	0.064030	179.335	34291.4	0.060479	0.127532	1406.19	87730.2
177	2.000000	1.795628	7.36678e+06	-47489.1	955.819	-29765.6	0.000000	0.000000	7.803785	192.911	NaN	0.000000	0.001640	0.001787	28.079	64.029	0.001912	33481.9	7.063640	172.519	190.826	1.795323	0.067435	0.067130	192.911	33481.9	0.063114	0.137211	1405.95	82582.7
177	2.000000	1.798611	7.36678e+06	-47489.1	955.82	-29765.6	0.000000	0.000000	7.807354	207.172	NaN	0.000000	0.001553	0.001778	28.125	66.0543	0.001789	36920.2	4.059101	174.335	205.472	1.798264	0.070418	0.070071	207.172	36920.2	0.066209	0.149010	1390.32	87383.6
177	2.000000	1.801599	7.36678e+06	-47489.1	955.819	-29765.6	0.000000	0.000000	7.810955	222.084	NaN	0.000000	0.001564	0.001756	28.0792	68.9015	0.001786	38573.5	4.174689	174.38	218.934	1.801373	0.073406	0.073180	222.084	38573.5	0.069088	0.160397	1384.58	87996.2
177	2.000000	1.804594	7.36678e+06	-47489.1	955.819	-29765.6	0.000000	0.000000	7.814584	237.517	NaN	0.000000	0.001574	0.001761	28.1266	71.8389	0.001719	41784.6	3.579502	174.123	235.352	1.804333	0.076401	0.076140	237.517	41784.6	0.072137	0.172891	1373.8	91812.8
177	2.000000	1.807715	7.36678e+06	-47489.1	955.819	-29765.6	0.000000	0.000000	7.818289	251.719	NaN	0.000000	0.001575	0.001769	28.081	75.9911	0.001838	41334.2	4.508912	173.329	253.751	1.807377	0.079522	0.079184	251.719	41334.2	0.074955	0.184824	1361.93	87842.2
177	2.000000	1.810571	7.36678e+06	-47489.1	955.82	-29765.6	0.000000	0.000000	7.821728	265.894	NaN	0.000000	0.001575	0.001754	28.1278	78.1623	0.001837	42552.1	2.825855	174.908	262.013	1.810405	0.082378	0.082212	265.894	42552.1	0.077692	0.196777	1351.24	87641
177	2.000000	1.813702	7.36678e+06	-47489.1	955.819	-29765.6	0.000000	0.000000	7.825787	288.475	NaN	0.000000	0.001575	0.001732	28.0806	81.7621	0.001799	45449.8	6.605166	171.46	290.245	1.813317	0.085509	0.085124	288.475	45449.8	0.080748	0.210538	1370.18	90498.2
177	2.000000	1.816653	7.36678e+06	-47489.1	955.821	-29765.6	0.000000	0.000000	7.829496	306.893	NaN	0.000000	0.001549	0.001763	28.1266	84.4128	0.001777	47497.2	3.730413	173.512	308.758	1.816327	0.088460	0.088134	306.893	47497.2	0.083614	0.223835	1371.06	91722.7
177	2.000000	1.819665	7.36678e+06	-47489.1	955.82	-29765.6	0.000000	0.000000	7.833474	330.409	NaN	0.000000	0.001560	0.001748	28.0799	86.3618	0.001857	46501.3	2.368325	175.223	328.733	1.819281	0.091472	0.091088	330.409	46501.3	0.086143	0.235884	1400.73	87476
177	2.000000	1.822551	7.36678e+06	-47489.1	955.82	-29765.6	0.000000	0.000000	7.837099	348.378	NaN	0.000000	0.001563	0.001743	28.1285	87.8273	0.001739	50509.3	2.516198	174	341.994	1.822230	0.094358	0.094037	348.378	50509.3	0.089185	0.250769	1389.24	92152.7
177	2.000000	1.825678	7.36678e+06	-47489.1	955.82	-29765.6	0.000000	0.000000	7.841019	367.659	NaN	0.000000	0.001556	0.001746	28.0815	91.187	0.001765	51665.9	5.956101	170.344	367.296	1.825420	0.097485	0.097227	367.659	51665.9	0.092148	0.265675	1383.87	91580.4
177	2.000000	1.828547	7.36678e+06	-47489.1	955.819	-29765.5	0.000000	0.000000	7.844699	387.38	NaN	0.000000	0.001601	0.001748	28.1281	93.6087	0.001821	51413.7	4.040408	172.098	383.084	1.828285	0.100354	0.100092	387.38	51413.7	0.094703	0.278853	1389.19	88953.8
177	2.000000	1.831572	7.36678e+06	-47489.1	955.82	-29765.5	0.000000	0.000000	7.848663	410.221	NaN	0.000000	0.001544	0.001768	28.0808	95.8572	0.001802	53201	0.031875	176.468	407.408	1.831360	0.103379	0.103167	410.221	53201	0.097596	0.294131	1394.69	89623.7
177	2.000000	1.834549	7.36678e+06	-47489.1	955.82	-29765.5	0.000000	0.000000	7.852544	432.221	NaN	0.000000	0.001531	0.001737	28.127	99.274	0.001804	55044.8	7.033901	168.924	425.592	1.834202	0.106355	0.106009	432.221	55044.8	0.100466	0.309669	1395.75	90373.4
177	2.000000	1.836225	7.36678e+06	-47489.1	955.819	-29765.5	0.000000	0.000000	7.854635	442.3	NaN	0.000000	0.001547	0.001770	28.1091	100.747	0.001789	56329.7	5.458569	-9.154712	444.848	1.835769	0.108032	0.107576	442.3	56329.7	0.102143	0.318919	1386.87	91131.9