File: remote_trans/data/nanoindenter/0828-1/data/Data_2025-08-06,11h17m57s/2025-07-22_16-23-58_1_663.txt
2025-07-22, 16:23:58, 1
Index	Phase	Displacement	Time	Pos X	Pos Y	Pos Z	Rot A	Rot B	Piezo Z	Force A	Force B	Gripper	Voltage A	Voltage B	Temperature	Amplitude force	Amplitude pos	Stiffness	Phase shift	Phase excitation	Force A raw	Displacement raw	HMax	HMax raw	Real Force	Real Stiffness	Contact Depth	Area	Hardness	Reduced Mod.
[#]	[#]	[um]	[s]	[um]	[um]	[um]	[m°]	[m°]	[um]	[uN]	[uN]	[V]	[V]	[V]	[°C]	[uN]	[um]	[N/m]	[°]	[°]	[uN]	[um]	[um]	[um]	[uN]	[N/m]	[um]	[um^2]	[MPa]	[MPa]
663	1.000000	0.002326	7.37154e+06	-43939.1	1005.82	-29777.3	0.000000	0.000000	6.002797	0.010894	NaN	0.000000	0.001632	0.001704	28.0836	0.074028	0.000905	81.8244	-163.255	-165.393	0.048222	0.001127	-1.105802	-1.107000	0.010894	81.8244	-1.105902	-6.015710E+14	-1.810922E-17	NaN
663	1.000000	0.012378	7.37154e+06	-43939.1	1005.82	-29777.3	0.000000	0.000000	6.012850	0.032294	NaN	0.000000	0.001590	0.001732	28.0835	0.058915	0.001265	46.5549	-131.825	14.3655	0.022011	0.010980	-1.095750	-1.097148	0.032294	46.5549	-1.096270	-4.466796E+14	-7.229885E-17	NaN
663	1.000000	0.022282	7.37154e+06	-43939.1	1005.82	-29777.3	0.000000	0.000000	6.022752	-0.026362	NaN	0.000000	0.001590	0.001732	28.0835	0.054491	0.001697	32.1049	125.993	-167.625	-0.101048	0.020996	-1.085845	-1.087132	-0.026362	32.1049	-1.085229	-3.175048E+14	8.302953E-17	NaN
663	1.000000	0.032265	7.37154e+06	-43939.1	1005.82	-29777.3	0.000000	0.000000	6.032735	-0.013353	NaN	0.000000	0.001591	0.001682	28.0835	0.042953	0.001939	22.1532	43.2895	15.3355	0.060444	0.030892	-1.075863	-1.077235	-0.013353	22.1532	-1.075411	-2.343568E+14	5.697905E-17	NaN
663	1.000000	0.042254	7.37154e+06	-43939.1	1005.82	-29777.3	0.000000	0.000000	6.042724	-0.020158	NaN	0.000000	0.001574	0.001748	28.0835	0.042551	0.002033	20.9265	114.136	-165.725	-0.059570	0.040978	-1.065874	-1.067149	-0.020158	20.9265	-1.065151	-1.706240E+14	1.181449E-16	NaN
663	1.000000	0.052283	7.37154e+06	-43939.1	1005.82	-29777.3	0.000000	0.000000	6.052752	-0.050161	NaN	0.000000	0.001595	0.001703	28.0833	0.104342	0.001962	53.1707	-112.11	11.5977	-0.079060	0.050934	-1.055844	-1.057193	-0.050161	53.1707	-1.055137	-1.251585E+14	4.007772E-16	NaN
663	1.000000	0.062246	7.37154e+06	-43939.1	1005.82	-29777.3	0.000000	0.000000	6.062715	-0.031032	NaN	0.000000	0.001593	0.001682	28.0837	0.121055	0.002032	59.5699	20.9215	-167.422	-0.093603	0.060976	-1.045882	-1.047152	-0.031032	59.5699	-1.045491	-9.285405E+13	3.342042E-16	NaN
663	1.000000	0.072307	7.37154e+06	-43939.1	1005.82	-29777.3	0.000000	0.000000	6.072777	-0.005992	NaN	0.000000	0.001587	0.001712	28.0837	0.045484	0.001979	22.9865	-64.538	16.0833	-0.031833	0.070978	-1.035821	-1.037150	-0.005992	22.9865	-1.035625	-6.841305E+13	8.758217E-17	NaN
663	1.000000	0.082301	7.37154e+06	-43939.1	1005.82	-29777.3	0.000000	0.000000	6.082771	-0.016731	NaN	0.000000	0.001528	0.001715	28.0837	0.038990	0.001964	19.8567	121.207	-165.913	0.022212	0.080975	-1.025827	-1.027153	-0.016731	19.8567	-1.025195	-4.952737E+13	3.378176E-16	NaN
663	1.000000	0.092233	7.37154e+06	-43939.1	1005.82	-29777.3	0.000000	0.000000	6.092702	-0.051424	NaN	0.000000	0.001604	0.001685	28.0836	0.035198	0.002056	17.1206	111.67	13.1196	0.076341	0.090938	-1.015895	-1.017190	-0.051424	17.1206	-1.013642	-3.462568E+13	1.485138E-15	NaN
663	1.000000	0.102315	7.37154e+06	-43939.1	1005.82	-29777.3	0.000000	0.000000	6.102786	-0.007122	NaN	0.000000	0.001610	0.001664	28.0835	0.036579	0.002084	17.5564	93.627	-168.061	-0.022562	0.100951	-1.005813	-1.007177	-0.007122	17.5564	-1.005508	-2.691074E+13	2.646393E-16	NaN
663	1.000000	0.112312	7.37154e+06	-43939.1	1005.82	-29777.3	0.000000	0.000000	6.112782	-0.000608	NaN	0.000000	0.001611	0.001709	28.0839	0.095683	0.001998	47.8824	-105.22	13.4575	-0.072765	0.110918	-0.995816	-0.997210	-0.000608	47.8824	-0.995807	-1.992085E+13	3.050809E-17	NaN
663	1.000000	0.122315	7.37154e+06	-43939.1	1005.82	-29777.3	0.000000	0.000000	6.122785	-0.032045	NaN	0.000000	0.001595	0.001734	28.0832	0.061502	0.001976	31.1216	-52.1736	-163.87	-0.001080	0.120969	-0.985813	-0.987158	-0.032045	31.1216	-0.985040	-1.426627E+13	2.246192E-15	NaN
663	1.000000	0.132310	7.37154e+06	-43939.1	1005.82	-29777.3	0.000000	0.000000	6.132779	-0.043337	NaN	0.000000	0.001588	0.001716	28.0826	0.026581	0.001956	13.591	-100.418	10.6096	-0.086498	0.130980	-0.975818	-0.977148	-0.043337	13.591	-0.973426	-9.950266E+12	4.355314E-15	NaN
663	1.000000	0.142304	7.37154e+06	-43939.1	1005.82	-29777.3	0.000000	0.000000	6.142774	-0.001377	NaN	0.000000	0.001640	0.001722	28.0823	0.023760	0.001956	12.146	-165.716	-162.028	0.029020	0.141007	-0.965824	-0.967121	-0.001377	12.146	-0.965739	-7.838536E+12	1.756438E-16	NaN
663	1.000000	0.152322	7.37154e+06	-43939.1	1005.82	-29777.3	0.000000	0.000000	6.152794	0.033800	NaN	0.000000	0.001615	0.001691	28.0826	0.041519	0.002009	20.6619	-51.7093	14.24	-0.020337	0.150997	-0.955806	-0.957130	0.033800	20.6619	-0.957032	-5.982183E+12	-5.650107E-15	NaN
663	1.000000	0.162325	7.37154e+06	-43939.1	1005.82	-29777.3	0.000000	0.000000	6.162796	-0.007974	NaN	0.000000	0.001629	0.001692	28.0822	0.081529	0.001986	41.0583	-172.77	-166.595	0.014550	0.160979	-0.945802	-0.947149	-0.007974	41.0583	-0.945657	-4.201915E+12	1.897593E-15	NaN
663	1.000000	0.172319	7.37154e+06	-43939.1	1005.82	-29777.3	0.000000	0.000000	6.172790	-0.000319	NaN	0.000000	0.001587	0.001727	28.0824	0.037450	0.002098	17.8473	-142.55	15.6111	0.054899	0.170954	-0.935809	-0.937174	-0.000319	17.8473	-0.935795	-3.093181E+12	1.031678E-16	NaN
663	1.000000	0.182329	7.37154e+06	-43939.1	1005.82	-29777.3	0.000000	0.000000	6.182798	-0.043825	NaN	0.000000	0.001599	0.001704	28.0822	0.127894	0.002102	60.8464	61.6046	-167.44	-0.093951	0.181042	-0.925799	-0.927086	-0.043825	60.8464	-0.925259	-2.229467E+12	1.965733E-14	NaN
663	1.000000	0.192318	7.37154e+06	-43939.1	1005.82	-29777.3	0.000000	0.000000	6.192787	-0.047684	NaN	0.000000	0.001577	0.001677	28.0825	0.057591	0.001920	29.9904	168.827	12.4709	-0.041532	0.190983	-0.915809	-0.917145	-0.047684	29.9904	-0.914617	-1.601466E+12	2.977513E-14	NaN
663	1.000000	0.202339	7.37154e+06	-43939.1	1005.82	-29777.3	0.000000	0.000000	6.202811	0.014732	NaN	0.000000	0.001573	0.001698	28.0822	0.032980	0.001999	16.5025	2.314929	-164.965	0.000761	0.201017	-0.905789	-0.907111	0.014732	16.5025	-0.906458	-1.242567E+12	-1.185646E-14	NaN
663	1.000000	0.212351	7.37154e+06	-43939.1	1005.82	-29777.3	0.000000	0.000000	6.212823	0.030804	NaN	0.000000	0.001569	0.001735	28.0823	0.019953	0.001908	10.4598	175.187	12.8195	0.028852	0.211005	-0.895777	-0.897123	0.030804	10.4598	-0.897985	-9.546489E+11	-3.226684E-14	NaN
663	1.000000	0.222358	7.37154e+06	-43939.1	1005.82	-29777.3	0.000000	0.000000	6.222829	0.007394	NaN	0.000000	0.001584	0.001748	28.0824	0.051808	0.002055	25.2158	-176.624	-167.255	-0.023940	0.221042	-0.885770	-0.887085	0.007394	25.2158	-0.885990	-6.572099E+11	-1.124998E-14	NaN
663	1.000000	0.232346	7.37154e+06	-43939.1	1005.82	-29777.3	0.000000	0.000000	6.232816	-0.013572	NaN	0.000000	0.001577	0.001766	28.0826	0.057465	0.001964	29.2533	-94.6222	13.6346	-0.042586	0.230903	-0.875782	-0.877225	-0.013572	29.2533	-0.875434	-4.731024E+11	2.868652E-14	NaN
663	1.000000	0.242371	7.37154e+06	-43939.1	1005.82	-29777.3	0.000000	0.000000	6.242837	-0.094697	NaN	0.000000	0.001571	0.001747	28.0825	0.031173	0.002022	15.4133	17.8166	-167.142	-0.024890	0.241031	-0.865757	-0.867097	-0.094697	15.4133	-0.861149	-3.031628E+11	3.123640E-13	NaN
663	1.000000	0.252325	7.37154e+06	-43939.1	1005.82	-29777.3	0.000000	0.000000	6.252795	-0.022129	NaN	0.000000	0.001586	0.001736	28.084	0.106221	0.002070	51.3033	151.337	12.3453	-0.001088	0.251006	-0.855803	-0.857122	-0.022129	51.3033	-0.855479	-2.540530E+11	8.710487E-14	NaN
663	1.000000	0.262359	7.37154e+06	-43939.1	1005.82	-29777.3	0.000000	0.000000	6.262831	0.035796	NaN	0.000000	0.001606	0.001729	28.084	0.072875	0.001985	36.7046	23.1886	-167.006	0.027570	0.261062	-0.845769	-0.847065	0.035796	36.7046	-0.846501	-1.920202E+11	-1.864203E-13	NaN
663	1.000000	0.272373	7.37154e+06	-43939.1	1005.82	-29777.3	0.000000	0.000000	6.272843	-0.027170	NaN	0.000000	0.001641	0.001704	28.0842	0.083175	0.001956	42.5151	172.546	16.9149	-0.020820	0.271039	-0.835755	-0.837088	-0.027170	42.5151	-0.835275	-1.352942E+11	2.008223E-13	NaN
663	1.000000	0.282365	7.37154e+06	-43939.1	1005.82	-29777.3	0.000000	0.000000	6.282836	-0.004114	NaN	0.000000	0.001671	0.001687	28.0838	0.096238	0.002056	46.8053	51.2651	-167.06	-0.040010	0.281042	-0.825763	-0.827086	-0.004114	46.8053	-0.825697	-1.003353E+11	4.100399E-14	NaN
663	1.000000	0.292366	7.37154e+06	-43939.1	1005.82	-29777.3	0.000000	0.000000	6.292837	0.001939	NaN	0.000000	0.001675	0.001707	28.084	0.099524	0.001937	51.3844	70.9375	14.0095	-0.029992	0.290995	-0.815761	-0.817133	0.001939	51.3844	-0.815790	-7.363946E+10	-2.632428E-14	NaN
663	1.000000	0.302407	7.37154e+06	-43939.1	1005.82	-29777.3	0.000000	0.000000	6.302879	0.014329	NaN	0.000000	0.001648	0.001752	28.0841	0.045046	0.002016	22.3455	9.816988	-163.673	-0.038093	0.301061	-0.805721	-0.807067	0.014329	22.3455	-0.806201	-5.457962E+10	-2.625258E-13	NaN
663	1.000000	0.312392	7.37154e+06	-43939.1	1005.82	-29777.3	0.000000	0.000000	6.312859	-0.090838	NaN	0.000000	0.001678	0.001711	28.0839	0.163970	0.002005	81.7913	152.859	14.8708	-0.000937	0.311045	-0.795736	-0.797083	-0.090838	81.7913	-0.794903	-3.834099E+10	2.369211E-12	NaN
663	1.000000	0.322388	7.37154e+06	-43939.1	1005.82	-29777.3	0.000000	0.000000	6.322857	-0.024530	NaN	0.000000	0.001638	0.001699	28.084	0.026656	0.001981	13.4561	136.398	-165.939	-0.047018	0.321088	-0.785740	-0.787040	-0.024530	13.4561	-0.784373	-2.758332E+10	8.892999E-13	NaN
663	1.000000	0.332392	7.37154e+06	-43939.1	1005.82	-29777.3	0.000000	0.000000	6.332863	0.005335	NaN	0.000000	0.001618	0.001706	28.084	0.040490	0.001930	20.9772	-168.12	14.9682	0.007643	0.331020	-0.775735	-0.777108	0.005335	20.9772	-0.775926	-2.117714E+10	-2.519412E-13	NaN
663	1.000000	0.342417	7.37154e+06	-43939.1	1005.82	-29777.3	0.000000	0.000000	6.342889	0.017869	NaN	0.000000	0.001592	0.001720	28.0843	0.040589	0.001916	21.1892	23.8031	-163.277	-0.053234	0.341125	-0.765710	-0.767002	0.017869	21.1892	-0.766343	-1.568826E+10	-1.138987E-12	NaN
663	1.000000	0.352386	7.37154e+06	-43939.1	1005.82	-29777.3	0.000000	0.000000	6.352855	-0.056317	NaN	0.000000	0.001593	0.001722	28.0838	0.116517	0.001987	58.6488	-155.294	10.6772	-0.024904	0.351057	-0.755742	-0.757070	-0.056317	58.6488	-0.755021	-1.100429E+10	5.117687E-12	NaN
663	1.000000	0.362424	7.37154e+06	-43939.1	1005.82	-29777.3	0.000000	0.000000	6.362891	-0.083086	NaN	0.000000	0.001581	0.001743	28.0841	0.025967	0.002106	12.3315	28.2447	-165.569	0.001044	0.361110	-0.745704	-0.747017	-0.083086	12.3315	-0.740651	-7.013235E+9	1.184702E-11	NaN
663	1.000000	0.372403	7.37154e+06	-43939.1	1005.82	-29777.3	0.000000	0.000000	6.372870	-0.085173	NaN	0.000000	0.001583	0.001770	28.0837	0.069051	0.001941	35.5786	91.1061	11.5664	-0.162142	0.371073	-0.735725	-0.737055	-0.085173	35.5786	-0.733929	-5.680034E+9	1.499523E-11	NaN
663	1.000000	0.382426	7.37154e+06	-43939.1	1005.82	-29777.3	0.000000	0.000000	6.382896	-0.019273	NaN	0.000000	0.001619	0.001726	28.0842	0.078154	0.001946	40.1604	-156.895	-166.202	-0.039357	0.381061	-0.725702	-0.727067	-0.019273	40.1604	-0.725342	-4.338226E+9	4.442655E-12	NaN
663	1.000000	0.392422	7.37154e+06	-43939.1	1005.82	-29777.3	0.000000	0.000000	6.392891	-0.041683	NaN	0.000000	0.001605	0.001745	28.0827	0.081442	0.001867	43.6315	117.286	14.3683	0.021408	0.391077	-0.715706	-0.717051	-0.041683	43.6315	-0.714989	-3.134178E+9	1.329938E-11	NaN
663	1.000000	0.402449	7.37154e+06	-43939.1	1005.82	-29777.3	0.000000	0.000000	6.402915	-0.104301	NaN	0.000000	0.001586	0.001735	28.0827	0.172957	0.002020	85.6178	177.133	-163.82	-0.094019	0.401151	-0.705679	-0.706976	-0.104301	85.6178	-0.704765	-2.272995E+9	4.588696E-11	NaN
663	1.000000	0.412433	7.37154e+06	-43939.1	1005.82	-29777.3	0.000000	0.000000	6.412903	-0.026549	NaN	0.000000	0.001601	0.001731	28.0829	0.027056	0.002005	13.4922	-76.4681	16.0075	-0.075204	0.411110	-0.695695	-0.697018	-0.026549	13.4922	-0.694219	-1.631415E+9	1.627344E-11	NaN
663	1.000000	0.422428	7.37154e+06	-43939.1	1005.82	-29777.3	0.000000	0.000000	6.422896	-0.089297	NaN	0.000000	0.001632	0.001723	28.0829	0.061736	0.001965	31.4233	-112.483	-166.82	-0.069507	0.421082	-0.685699	-0.687046	-0.089297	31.4233	-0.683568	-1.166796E+9	7.653150E-11	NaN
663	1.000000	0.432428	7.37154e+06	-43939.1	1005.82	-29777.3	0.000000	0.000000	6.432896	-0.070520	NaN	0.000000	0.001582	0.001755	28.0829	0.059760	0.002083	28.6922	15.2015	12.8216	-0.052116	0.431119	-0.675700	-0.677009	-0.070520	28.6922	-0.673856	-8.593322E+8	8.206356E-11	NaN
663	1.000000	0.442424	7.37154e+06	-43939.1	1005.82	-29777.3	0.000000	0.000000	6.442894	-0.002289	NaN	0.000000	0.001548	0.001745	28.083	0.136184	0.002101	64.8171	-36.7252	-167.536	0.037953	0.441132	-0.665704	-0.666996	-0.002289	64.8171	-0.665678	-6.640808E+8	3.447226E-12	NaN
663	1.000000	0.452433	7.37154e+06	-43939.1	1005.82	-29777.3	0.000000	0.000000	6.452903	-0.019279	NaN	0.000000	0.001564	0.001747	28.0832	0.110290	0.001985	55.5731	-22.3267	15.1562	-0.021203	0.451075	-0.655695	-0.657053	-0.019279	55.5731	-0.655434	-4.807500E+8	4.010288E-11	NaN
663	1.000000	0.462442	7.37154e+06	-43939.1	1005.82	-29777.3	0.000000	0.000000	6.462914	0.012468	NaN	0.000000	0.001620	0.001716	28.0828	0.038774	0.002019	19.2029	7.142830	-168.605	0.043679	0.461142	-0.645685	-0.646986	0.012468	19.2029	-0.646172	-3.588829E+8	-3.474183E-11	NaN
663	1.000000	0.472458	7.37154e+06	-43939.1	1005.82	-29777.3	0.000000	0.000000	6.472928	-0.040972	NaN	0.000000	0.001590	0.001690	28.083	0.028762	0.001861	15.4528	125.409	19.8521	-0.041165	0.471114	-0.635669	-0.637014	-0.040972	15.4528	-0.633681	-2.418584E+8	1.694041E-10	NaN
663	1.000000	0.482431	7.37154e+06	-43939.1	1005.82	-29777.3	0.000000	0.000000	6.482899	-0.056673	NaN	0.000000	0.001601	0.001735	28.083	0.017398	0.002004	8.680790	-79.8996	-165.805	-0.018206	0.481220	-0.625697	-0.626908	-0.056673	8.680790	-0.620800	-1.609294E+8	3.521605E-10	NaN
663	1.000000	0.492476	7.37154e+06	-43939.1	1005.82	-29777.3	0.000000	0.000000	6.492948	0.031725	NaN	0.000000	0.001580	0.001731	28.083	0.120019	0.001986	60.4185	138.879	16.0889	-0.012845	0.491089	-0.615652	-0.617039	0.031725	60.4185	-0.616046	-1.384419E+8	-2.291541E-10	NaN
663	1.000000	0.502485	7.37154e+06	-43939.1	1005.82	-29777.3	0.000000	0.000000	6.502956	0.002639	NaN	0.000000	0.001630	0.001683	28.0829	0.097881	0.002061	47.4885	101.439	-166.732	-0.064221	0.501122	-0.605643	-0.607006	0.002639	47.4885	-0.605684	-9.970672E+7	-2.647083E-11	NaN
663	1.000000	0.512479	7.37154e+06	-43939.1	1005.82	-29777.3	0.000000	0.000000	6.512947	-0.067201	NaN	0.000000	0.001605	0.001690	28.0827	0.013753	0.002131	6.452491	147.498	14.106	-0.017360	0.511117	-0.595649	-0.597010	-0.067201	6.452491	-0.587838	-5.660517E+7	1.187193E-9	NaN
663	1.000000	0.522509	7.37154e+06	-43939.1	1005.82	-29777.3	0.000000	0.000000	6.522978	-0.037257	NaN	0.000000	0.001577	0.001688	28.0832	0.079391	0.001953	40.6552	129.338	-168.618	-0.059635	0.521169	-0.585619	-0.586959	-0.037257	40.6552	-0.584932	-5.161455E+7	7.218337E-10	NaN
663	1.000000	0.532482	7.37154e+06	-43939.1	1005.82	-29777.3	0.000000	0.000000	6.532954	0.023001	NaN	0.000000	0.001609	0.001695	28.0842	0.026759	0.001999	13.3859	145.335	15.021	-0.001906	0.531109	-0.575646	-0.577019	0.023001	13.3859	-0.576934	-4.003204E+7	-5.745712E-10	NaN
663	1.000000	0.542501	7.37154e+06	-43939.1	1005.82	-29777.3	0.000000	0.000000	6.542970	-0.050277	NaN	0.000000	0.001602	0.001704	28.084	0.094373	0.001984	47.5599	16.1042	-163.466	-0.041053	0.541198	-0.565627	-0.566930	-0.050277	47.5599	-0.564834	-2.724118E+7	1.845628E-9	NaN
663	1.000000	0.552507	7.37154e+06	-43939.1	1005.82	-29777.3	0.000000	0.000000	6.552977	-0.030029	NaN	0.000000	0.001613	0.001722	28.084	0.047319	0.002057	22.9994	-165.256	16.8629	0.012953	0.551059	-0.555621	-0.557069	-0.030029	22.9994	-0.554641	-1.968897E+7	1.525161E-9	NaN
663	1.000000	0.562484	7.37154e+06	-43939.1	1005.82	-29777.3	0.000000	0.000000	6.562951	-0.093113	NaN	0.000000	0.001608	0.001714	28.084	0.099420	0.001966	50.5633	-30.5126	-166.519	-0.114387	0.561194	-0.545644	-0.546933	-0.093113	50.5633	-0.544263	-1.414038E+7	6.584916E-9	NaN
663	1.000000	0.572494	7.37154e+06	-43939.1	1005.82	-29777.3	0.000000	0.000000	6.572964	-0.010654	NaN	0.000000	0.001620	0.001749	28.084	0.034222	0.001968	17.386	109.272	13.7745	-0.084426	0.571129	-0.535634	-0.536999	-0.010654	17.386	-0.535174	-1.057807E+7	1.007217E-9	NaN
663	1.000000	0.582503	7.37154e+06	-43939.1	1005.82	-29777.3	0.000000	0.000000	6.582970	-0.096522	NaN	0.000000	0.001609	0.001732	28.0835	0.032660	0.001946	16.7843	120.666	-161.931	-0.046502	0.581267	-0.525625	-0.526861	-0.096522	16.7843	-0.521312	-6.78954e+06	1.421621E-8	NaN
663	1.000000	0.592507	7.37154e+06	-43939.1	1005.82	-29777.3	0.000000	0.000000	6.592976	-0.040413	NaN	0.000000	0.001632	0.001717	28.0841	0.119035	0.001802	66.0734	86.3037	17.1361	0.015517	0.591125	-0.515621	-0.517002	-0.040413	66.0734	-0.515162	-5.57559e+06	7.248178E-9	NaN
663	1.000000	0.602539	7.37154e+06	-43939.1	1005.82	-29777.3	0.000000	0.000000	6.603007	-0.069369	NaN	0.000000	0.001590	0.001704	28.084	0.075167	0.001896	39.6483	-72.4371	-163.654	-0.036903	0.601178	-0.505589	-0.506949	-0.069369	39.6483	-0.504277	-3.93241e+06	1.764037E-8	NaN
663	1.000000	0.612549	7.37154e+06	-43939.1	1005.82	-29777.3	0.000000	0.000000	6.613018	-0.037813	NaN	0.000000	0.001561	0.001711	28.0841	0.075213	0.002017	37.2813	-85.3511	16.478	-0.053617	0.611187	-0.495578	-0.496941	-0.037813	37.2813	-0.494818	-2.90195e+06	1.303014E-8	NaN
663	1.000000	0.622520	7.37154e+06	-43939.1	1005.82	-29777.3	0.000000	0.000000	6.622991	0.006412	NaN	0.000000	0.001594	0.001727	28.0839	0.061963	0.002022	30.6439	-18.9876	-164.14	-0.025543	0.621275	-0.485607	-0.486853	0.006412	30.6439	-0.485764	-2.1686e+06	-2.956788E-9	NaN
663	1.000000	0.632546	7.37154e+06	-43939.1	1005.82	-29777.3	0.000000	0.000000	6.633016	-0.006720	NaN	0.000000	0.001632	0.001707	28.084	0.119615	0.002040	58.6258	158.057	13.8344	-0.069592	0.631173	-0.475582	-0.476955	-0.006720	58.6258	-0.475496	-1.55758e+06	4.314184E-9	NaN
663	1.000000	0.642509	7.37154e+06	-43939.1	1005.82	-29777.3	0.000000	0.000000	6.642980	0.007084	NaN	0.000000	0.001549	0.001699	28.0838	0.123536	0.002089	59.1351	-51.6669	-164.554	-0.015827	0.641213	-0.465619	-0.466914	0.007084	59.1351	-0.465708	-1.13551e+06	-6.238622E-9	NaN
663	1.000000	0.652527	7.37154e+06	-43939.1	1005.82	-29777.3	0.000000	0.000000	6.652998	0.016274	NaN	0.000000	0.001577	0.001737	28.0838	0.018655	0.001984	9.404091	-113.774	13.9818	-0.056721	0.651152	-0.455601	-0.456976	0.016274	9.404091	-0.456899	-853932	-1.905826E-8	NaN
663	1.000000	0.662531	7.37154e+06	-43939.1	1005.82	-29777.3	0.000000	0.000000	6.663001	-0.019454	NaN	0.000000	0.001600	0.001747	28.0826	0.034552	0.002000	17.2743	-173.184	-164.523	0.037803	0.661217	-0.445597	-0.446911	-0.019454	17.2743	-0.444752	-575971	3.377570E-8	NaN
663	1.000000	0.672553	7.37154e+06	-43939.1	1005.82	-29777.3	0.000000	0.000000	6.673025	0.025899	NaN	0.000000	0.001605	0.001729	28.0828	0.018819	0.001919	9.807262	-53.7124	16.7968	-0.033866	0.671159	-0.435575	-0.436969	0.025899	9.807262	-0.437555	-455879	-5.681060E-8	NaN
663	1.000000	0.682552	7.37154e+06	-43939.1	1005.82	-29777.3	0.000000	0.000000	6.683019	-0.100520	NaN	0.000000	0.001612	0.001757	28.0824	0.088803	0.001865	47.6151	-127.25	-166.7	-0.107090	0.681213	-0.425575	-0.426915	-0.100520	47.6151	-0.423992	-293092	3.429645E-7	NaN
663	1.000000	0.692562	7.37154e+06	-43939.1	1005.82	-29777.3	0.000000	0.000000	6.693031	-0.049801	NaN	0.000000	0.001593	0.001714	28.0825	0.007701	0.001952	3.946032	-125.602	18.207	-0.108139	0.691205	-0.415566	-0.416923	-0.049801	3.946032	-0.406101	-163274	3.050144E-7	NaN
663	1.000000	0.702542	7.37154e+06	-43939.1	1005.82	-29777.3	0.000000	0.000000	6.703013	-0.000301	NaN	0.000000	0.001603	0.001718	28.0826	0.084544	0.001947	43.4303	175.19	-163.927	-0.010626	0.701246	-0.405585	-0.406881	-0.000301	43.4303	-0.405580	-160513	1.876510E-9	NaN
663	1.000000	0.712572	7.37154e+06	-43939.1	1005.82	-29777.3	0.000000	0.000000	6.713039	-0.077999	NaN	0.000000	0.001570	0.001771	28.0828	0.078888	0.002007	39.3132	47.2376	16.0639	-0.019240	0.711162	-0.395556	-0.396965	-0.077999	39.3132	-0.394068	-109981	7.091974E-7	NaN
663	1.000000	0.722547	7.37154e+06	-43939.1	1005.82	-29777.3	0.000000	0.000000	6.723015	-0.056782	NaN	0.000000	0.001581	0.001727	28.0828	0.039284	0.001967	19.9679	49.1033	-162.717	-0.090727	0.721271	-0.385581	-0.386857	-0.056782	19.9679	-0.383448	-77507.6	7.325940E-7	NaN
663	1.000000	0.732565	7.37154e+06	-43939.1	1005.82	-29777.3	0.000000	0.000000	6.733035	-0.019693	NaN	0.000000	0.001585	0.001695	28.0825	0.067701	0.001990	34.0197	-123.567	17.8303	-0.060662	0.731219	-0.375563	-0.376908	-0.019693	34.0197	-0.375129	-58873.9	3.344916E-7	NaN
663	1.000000	0.742596	7.37154e+06	-43939.1	1005.82	-29777.3	0.000000	0.000000	6.743065	-0.038881	NaN	0.000000	0.001576	0.001722	28.0825	0.072117	0.002017	35.7558	-159.433	-163.181	0.010038	0.741314	-0.365532	-0.366814	-0.038881	35.7558	-0.364716	-41683.3	9.327825E-7	NaN
663	1.000000	0.752564	7.37154e+06	-43939.1	1005.82	-29777.3	0.000000	0.000000	6.753036	0.008799	NaN	0.000000	0.001628	0.001713	28.0826	0.021094	0.002126	9.919887	-100.021	15.6904	-0.050998	0.751244	-0.355563	-0.356884	0.008799	9.919887	-0.356228	-31425.7	-2.799973E-7	NaN
663	1.000000	0.762606	7.37154e+06	-43939.1	1005.82	-29777.3	0.000000	0.000000	6.763079	0.031391	NaN	0.000000	0.001629	0.001704	28.0823	0.101922	0.001809	56.3572	11.3335	-164.835	0.010652	0.761294	-0.345521	-0.346834	0.031391	56.3572	-0.345939	-22284.9	-1.408619E-6	NaN
663	1.000000	0.772584	7.37154e+06	-43939.1	1005.82	-29777.3	0.000000	0.000000	6.773051	-0.104302	NaN	0.000000	0.001562	0.001684	28.0824	0.085939	0.001905	45.1136	-166.521	16.2404	-0.112786	0.771225	-0.335543	-0.336903	-0.104302	45.1136	-0.333809	-14831.5	7.032458E-6	NaN
663	1.000000	0.782575	7.37154e+06	-43939.1	1005.82	-29777.3	0.000000	0.000000	6.783044	-0.048071	NaN	0.000000	0.001604	0.001725	28.0826	0.088963	0.001840	48.3391	102.168	-162.934	-0.090401	0.781276	-0.325552	-0.326852	-0.048071	48.3391	-0.324806	-10947	4.391243E-6	NaN
663	1.000000	0.792595	7.37154e+06	-43939.1	1005.82	-29777.3	0.000000	0.000000	6.793066	-0.007554	NaN	0.000000	0.001607	0.001701	28.0824	0.022692	0.002018	11.2427	-80.0147	13.7263	0.035245	0.791218	-0.315533	-0.316910	-0.007554	11.2427	-0.315029	-7859.06	9.611313E-7	NaN
663	1.000000	0.802587	7.37154e+06	-43939.1	1005.82	-29777.3	0.000000	0.000000	6.803058	0.012463	NaN	0.000000	0.001609	0.001732	28.0835	0.088682	0.002029	43.7133	160.623	-165.099	-0.063405	0.801324	-0.305541	-0.306804	0.012463	43.7133	-0.305755	-5729.96	-2.175068E-6	NaN
663	1.000000	0.812574	7.37154e+06	-43939.1	1005.82	-29777.3	0.000000	0.000000	6.813046	0.034070	NaN	0.000000	0.001562	0.001731	28.0835	0.070905	0.002101	33.7488	102.796	11.3954	-0.023163	0.811240	-0.295554	-0.296887	0.034070	33.7488	-0.296311	-4146.26	-8.217076E-6	NaN
663	1.000000	0.822591	7.37154e+06	-43939.1	1005.82	-29777.3	0.000000	0.000000	6.823062	0.006944	NaN	0.000000	0.001575	0.001744	28.0838	0.028986	0.002096	13.8319	-163.2	-164.376	0.001090	0.821283	-0.285537	-0.286844	0.006944	13.8319	-0.285913	-2897.28	-2.396867E-6	NaN
663	1.000000	0.832620	7.37154e+06	-43939.1	1005.82	-29777.3	0.000000	0.000000	6.833091	-0.017379	NaN	0.000000	0.001571	0.001722	28.0836	0.120874	0.002072	58.3451	-2.806920	16.5594	0.040134	0.831204	-0.275507	-0.276924	-0.017379	58.3451	-0.275284	-2003.08	8.675911E-6	NaN
663	1.000000	0.842606	7.37154e+06	-43939.1	1005.82	-29777.3	0.000000	0.000000	6.843075	-0.029943	NaN	0.000000	0.001576	0.001725	28.0837	0.119922	0.001915	62.6227	-2.453559	-165.742	-0.067917	0.841308	-0.265522	-0.266820	-0.029943	62.6227	-0.265163	-1405.66	2.130172E-5	NaN
663	1.000000	0.852606	7.37154e+06	-43939.1	1005.82	-29777.3	0.000000	0.000000	6.853078	0.026222	NaN	0.000000	0.001576	0.001698	28.0838	0.058485	0.001943	30.0976	84.6547	15.9336	-0.099723	0.851258	-0.255522	-0.256869	0.026222	30.0976	-0.256175	-1023.76	-2.561294E-5	NaN
663	1.000000	0.862615	7.37154e+06	-43939.1	1005.82	-29777.3	0.000000	0.000000	6.863084	-0.033409	NaN	0.000000	0.001561	0.001738	28.0838	0.085229	0.002064	41.2869	75.4381	-165.705	0.022866	0.861314	-0.245513	-0.246813	-0.033409	41.2869	-0.244906	-685.468	4.873875E-5	NaN
663	1.000000	0.872627	7.37154e+06	-43939.1	1005.82	-29777.3	0.000000	0.000000	6.873096	-0.042398	NaN	0.000000	0.001590	0.001767	28.0838	0.054621	0.002075	26.3237	167.715	15.4735	-0.008875	0.871295	-0.235500	-0.236833	-0.042398	26.3237	-0.234292	-467.879	9.061760E-5	NaN
663	1.000000	0.882629	7.37154e+06	-43939.1	1005.82	-29777.3	0.000000	0.000000	6.883101	0.030521	NaN	0.000000	0.001606	0.001801	28.0837	0.057873	0.001957	29.5654	131.917	-163.853	0.025189	0.881329	-0.225499	-0.226798	0.030521	29.5654	-0.226273	-349.572	-8.730989E-5	NaN
663	1.000000	0.892664	7.37154e+06	-43939.1	1005.82	-29777.3	0.000000	0.000000	6.893128	-0.147200	NaN	0.000000	0.001605	0.001764	28.0838	0.055498	0.002038	27.2357	142.24	14.3141	-0.141582	0.891212	-0.215464	-0.216916	-0.147200	27.2357	-0.211411	-202.135	0.000728	NaN
663	1.000000	0.902631	7.37154e+06	-43939.1	1005.82	-29777.3	0.000000	0.000000	6.903103	0.041214	NaN	0.000000	0.001594	0.001798	28.0837	0.097716	0.001973	49.5226	53.8223	-163.798	0.061509	0.901315	-0.205497	-0.206813	0.041214	49.5226	-0.206121	-165.895	-0.000248	NaN
663	1.000000	0.912629	7.37154e+06	-43939.1	1005.82	-29777.3	0.000000	0.000000	6.913100	0.008722	NaN	0.000000	0.001603	0.001723	28.0837	0.052350	0.002048	25.5573	62.5865	13.4172	0.062827	0.911275	-0.195499	-0.196852	0.008722	25.5573	-0.195755	-112.124	-7.779272E-5	NaN
663	1.000000	0.922624	7.37154e+06	-43939.1	1005.82	-29777.3	0.000000	0.000000	6.923095	0.001625	NaN	0.000000	0.001575	0.001751	28.0836	0.098588	0.001996	49.3913	-108.53	-164.44	-0.057321	0.921307	-0.185504	-0.186821	0.001625	49.3913	-0.185528	-75.6894	-2.147382E-5	NaN
663	1.000000	0.932669	7.37154e+06	-43939.1	1005.82	-29777.3	0.000000	0.000000	6.933140	-0.006346	NaN	0.000000	0.001582	0.001731	28.0831	0.042829	0.002118	20.2226	-57.8694	14.0035	0.002414	0.931272	-0.175459	-0.176856	-0.006346	20.2226	-0.175223	-50.5611	0.000126	NaN
663	1.000000	0.942673	7.37154e+06	-43939.1	1005.82	-29777.3	0.000000	0.000000	6.943143	-0.008762	NaN	0.000000	0.001594	0.001766	28.0823	0.138976	0.002042	68.0668	57.5353	-166.322	0.041022	0.941321	-0.165455	-0.166807	-0.008762	68.0668	-0.165358	-34.0874	0.000257	NaN
663	1.000000	0.952645	7.37154e+06	-43939.1	1005.82	-29777.3	0.000000	0.000000	6.953115	-0.016747	NaN	0.000000	0.001608	0.001765	28.0822	0.053289	0.002096	25.4203	167.006	15.2887	-0.024972	0.951285	-0.155483	-0.156843	-0.016747	25.4203	-0.154989	-22.3038	0.000751	NaN
663	1.000000	0.962685	7.37154e+06	-43939.1	1005.82	-29777.3	0.000000	0.000000	6.963154	-0.052578	NaN	0.000000	0.001613	0.001768	28.0825	0.061198	0.001889	32.4053	-175.746	-162.964	-0.014795	0.961378	-0.145443	-0.146750	-0.052578	32.4053	-0.144226	-14.185	0.003707	NaN
663	1.000000	0.972691	7.37154e+06	-43939.1	1005.82	-29777.3	0.000000	0.000000	6.973160	-0.037805	NaN	0.000000	0.001578	0.001732	28.0824	0.033739	0.001957	17.2384	-13.1145	12.1941	-0.038419	0.971357	-0.135437	-0.136771	-0.037805	17.2384	-0.133792	-9.019356	0.004192	NaN
663	1.000000	0.982648	7.37154e+06	-43939.1	1005.82	-29777.3	0.000000	0.000000	6.983118	-0.036431	NaN	0.000000	0.001597	0.001736	28.0825	0.029991	0.001959	15.3074	-42.7283	-164.128	-0.026858	0.981366	-0.125479	-0.126762	-0.036431	15.3074	-0.123695	-5.729239	0.006359	NaN
663	1.000000	0.992657	7.37154e+06	-43939.1	1005.82	-29777.3	0.000000	0.000000	6.993129	0.014204	NaN	0.000000	0.001558	0.001743	28.0822	0.099104	0.002039	48.5998	-40.3395	18.0001	-0.018334	0.991337	-0.115470	-0.116791	0.014204	48.5998	-0.115690	-3.947312	-0.003598	NaN
663	1.000000	1.002675	7.37154e+06	-43939.1	1005.82	-29777.3	0.000000	0.000000	7.003144	-0.032222	NaN	0.000000	0.001572	0.001730	28.0826	0.061971	0.002027	30.5712	149.088	-163.592	-0.192050	1.001362	-0.105453	-0.106766	-0.032222	30.5712	-0.104663	-2.311413	0.013940	NaN
663	1.000000	1.012693	7.37154e+06	-43939.1	1005.82	-29777.3	0.000000	0.000000	7.013162	-0.032835	NaN	0.000000	0.001565	0.001778	28.0824	0.037064	0.001963	18.8826	179.595	13.7134	-0.075085	1.011338	-0.095435	-0.096790	-0.032835	18.8826	-0.094131	-1.347609	0.024365	NaN
663	1.000000	1.022664	7.37154e+06	-43939.1	1005.82	-29777.3	0.000000	0.000000	7.023134	-0.018472	NaN	0.000000	0.001559	0.001792	28.0824	0.045416	0.002121	21.4146	-131.606	-166.317	-0.083553	1.021375	-0.085463	-0.086752	-0.018472	21.4146	-0.084816	-0.813266	0.022714	NaN
663	1.000000	1.032684	7.37154e+06	-43939.1	1005.82	-29777.3	0.000000	0.000000	7.033155	0.002705	NaN	0.000000	0.001578	0.001782	28.0825	0.087548	0.001894	46.2175	-83.3414	13.8256	-0.005056	1.031317	-0.075443	-0.076811	0.002705	46.2175	-0.075487	-0.475447	-0.005688	NaN
663	1.000000	1.042705	7.37154e+06	-43939.1	1005.82	-29777.3	0.000000	0.000000	7.043175	-0.012078	NaN	0.000000	0.001565	0.001807	28.0823	0.047002	0.001983	23.7043	158.747	-165.667	-0.057000	1.041379	-0.065423	-0.066749	-0.012078	23.7043	-0.065041	-0.249864	0.048339	NaN
663	1.000000	1.052705	7.37154e+06	-43939.1	1005.82	-29777.3	0.000000	0.000000	7.053177	0.018674	NaN	0.000000	0.001600	0.001777	28.0824	0.147035	0.002012	73.073	-167.773	17.3246	-0.000770	1.051315	-0.055423	-0.056813	0.018674	73.073	-0.055614	-0.134267	-0.139080	NaN
663	1.000000	1.062703	7.37154e+06	-43939.1	1005.82	-29777.3	0.000000	0.000000	7.063172	-0.041405	NaN	0.000000	0.001614	0.001775	28.0823	0.120752	0.002041	59.1647	-137.94	-164.656	-0.010736	1.061374	-0.045425	-0.046753	-0.041405	59.1647	-0.044900	-0.063816	0.648824	NaN
663	1.000000	1.072679	7.37154e+06	-43939.1	1005.82	-29777.3	0.000000	0.000000	7.073149	-0.016294	NaN	0.000000	0.001651	0.001780	28.0837	0.043032	0.002147	20.0469	81.6279	17.9535	0.015551	1.071311	-0.035449	-0.036816	-0.016294	20.0469	-0.034839	-0.031677	0.514376	NaN
663	1.000000	1.082683	7.37154e+06	-43939.1	1005.82	-29777.3	0.000000	0.000000	7.083157	0.055818	NaN	0.000000	0.001614	0.001780	28.0834	0.149011	0.001924	77.4487	-161.069	-164.323	0.040399	1.081459	-0.025444	-0.026669	0.055818	77.4487	-0.025985	-0.017906	-3.117261	NaN
663	1.000000	1.092698	7.37154e+06	-43939.1	1005.82	-29777.3	0.000000	0.000000	7.093166	-0.051915	NaN	0.000000	0.001632	0.001748	28.0835	0.115961	0.001991	58.2414	162.288	14.6009	-0.035001	1.091370	-0.015430	-0.016758	-0.051915	58.2414	-0.014761	-0.009133	5.684366	NaN
663	1.000000	1.102714	7.37154e+06	-43939.1	1005.82	-29777.3	0.000000	0.000000	7.103183	-0.044813	NaN	0.000000	0.001573	0.001760	28.0834	0.012576	0.002008	6.262174	-125.812	-166.292	0.014634	1.101399	-0.005414	-0.006728	-0.044813	6.262174	-4.678918E-5	-3.493438E-5	1282.78	NaN
663	1.000000	1.112687	7.37154e+06	-43939.1	1005.82	-29777.3	0.000000	0.000000	7.113314	3.797449	NaN	0.000000	0.001608	0.001768	28.0836	4.820066	0.001773	2718.34	8.050364	11.8565	1.983493	1.111334	0.004559	0.003206	3.797449	2718.34	0.003512	0.002815	1348.97	46809.4
663	2.000000	1.118270	7.37154e+06	-43939.1	1005.82	-29777.3	0.000000	0.000000	7.119211	11.4289	NaN	0.000000	0.001603	0.001780	28.0834	10.9643	0.001852	5919.78	7.163216	-173.164	11.0322	1.117964	0.010142	0.009837	11.4289	5919.78	0.008695	0.007766	1471.57	61371.6
663	2.000000	1.120769	7.37154e+06	-43939.1	1005.82	-29777.3	0.000000	0.000000	7.121935	16.9108	NaN	0.000000	0.001593	0.001816	28.0842	13.1191	0.001702	7709.72	6.251810	5.779549	16.527	1.120403	0.012641	0.012276	16.9108	7709.72	0.010996	0.010309	1640.33	69373.7
663	2.000000	1.123256	7.37154e+06	-43939.1	1005.82	-29777.3	0.000000	0.000000	7.124578	20.7086	NaN	0.000000	0.001593	0.001787	28.0834	15.5033	0.001869	8292.91	3.932412	-170.932	21.7642	1.122918	0.015129	0.014790	20.7086	8292.91	0.013256	0.013029	1589.36	66376.8
663	2.000000	1.125738	7.37154e+06	-43939.1	1005.82	-29777.3	0.000000	0.000000	7.127259	25.5505	NaN	0.000000	0.001601	0.001813	28.0842	18.3407	0.001813	10115.2	8.338546	1.366852	25.3353	1.125334	0.017611	0.017207	25.5505	10115.2	0.015716	0.016252	1572.11	72491.8
663	2.000000	1.128165	7.37154e+06	-43939.1	1005.82	-29777.3	0.000000	0.000000	7.129899	30.7121	NaN	0.000000	0.001607	0.001804	28.0834	20.4414	0.001766	11572.5	4.275218	-175.947	29.734	1.127937	0.020038	0.019809	30.7121	11572.5	0.018047	0.019566	1569.65	75587.1
663	2.000000	1.130655	7.37154e+06	-43939.1	1005.82	-29777.3	0.000000	0.000000	7.132622	36.3976	NaN	0.000000	0.001607	0.001773	28.0834	22.7647	0.001884	12083.1	8.872573	0.900815	33.9702	1.130342	0.022527	0.022214	36.3976	12083.1	0.020268	0.022965	1584.89	72847.5
663	2.000000	1.133127	7.37154e+06	-43939.1	1005.82	-29777.3	0.000000	0.000000	7.135340	42.3832	NaN	0.000000	0.001527	0.001772	28.0835	24.6443	0.001748	14100.8	3.279427	-176.357	40.8062	1.132859	0.025000	0.024731	42.3832	14100.8	0.022745	0.027041	1567.35	78343.4
663	2.000000	1.135662	7.37154e+06	-43939.1	1005.82	-29777.3	0.000000	0.000000	7.138242	51.3216	NaN	0.000000	0.001537	0.001783	28.0845	27.3296	0.001751	15612.3	5.889792	-0.384104	49.6314	1.135373	0.027534	0.027245	51.3216	15612.3	0.025069	0.031141	1648.03	80830.1
663	2.000000	1.138150	7.37154e+06	-43939.1	1005.82	-29777.3	0.000000	0.000000	7.140947	56.5965	NaN	0.000000	0.001501	0.001700	28.0833	30.0552	0.001815	16558.8	5.432291	-179.916	55.0767	1.137897	0.030023	0.029769	56.5965	16558.8	0.027459	0.035642	1587.92	80134.7
663	2.000000	1.140642	7.37154e+06	-43939.1	1005.82	-29777.3	0.000000	0.000000	7.143828	66.067	NaN	0.000000	0.001550	0.001728	28.083	31.3904	0.001812	17325.3	3.827472	3.069690	62.2853	1.140261	0.032514	0.032133	66.067	17325.3	0.029654	0.040030	1650.43	79115.2
663	2.000000	1.143159	7.37154e+06	-43939.1	1005.82	-29777.3	0.000000	0.000000	7.146666	73.8797	NaN	0.000000	0.001583	0.001722	28.0821	33.9155	0.001828	18548.9	5.862686	179.584	73.011	1.142891	0.035031	0.034763	73.8797	18548.9	0.032044	0.045087	1638.62	79812.1
663	2.000000	1.145595	7.37154e+06	-43939.1	1005.82	-29777.3	0.000000	0.000000	7.149609	86.2235	NaN	0.000000	0.001568	0.001727	28.0825	35.678	0.001778	20060.8	3.303906	1.711190	82.3781	1.145168	0.037467	0.037041	86.2235	20060.8	0.034243	0.049999	1724.52	81967.7
663	2.000000	1.148190	7.37154e+06	-43939.1	1005.82	-29777.3	0.000000	0.000000	7.152352	89.8064	NaN	0.000000	0.001549	0.001728	28.082	38.7396	0.001776	21813.3	4.473844	179.189	91.3903	1.147967	0.040062	0.039839	89.8064	21813.3	0.036974	0.056443	1591.1	83886.3
663	2.000000	1.150671	7.37154e+06	-43939.1	1005.82	-29777.3	0.000000	0.000000	7.155335	102.011	NaN	0.000000	0.001603	0.001701	28.083	40.2792	0.001695	23757.2	7.057116	-3.103748	101.577	1.150191	0.042543	0.042064	102.011	23757.2	0.039323	0.062290	1637.68	86968.2
663	2.000000	1.153149	7.37154e+06	-43939.1	1005.82	-29777.3	0.000000	0.000000	7.158191	111.211	NaN	0.000000	0.001612	0.001754	28.0823	44.2947	0.001914	23147	8.308944	174.864	111.952	1.152811	0.045022	0.044683	111.211	23147	0.041418	0.067745	1641.61	81251
663	2.000000	1.155558	7.37154e+06	-43939.1	1005.82	-29777.3	0.000000	0.000000	7.161144	124.439	NaN	0.000000	0.001605	0.001754	28.0825	45.2357	0.001795	25198.7	3.866415	-0.903225	120.197	1.155282	0.047430	0.047154	124.439	25198.7	0.043727	0.074013	1681.3	84624.6
663	2.000000	1.158125	7.37154e+06	-43939.1	1005.82	-29777.3	0.000000	0.000000	7.164067	133.112	NaN	0.000000	0.001631	0.001746	28.0821	49.1437	0.001879	26157.6	8.314360	174.001	132.713	1.157799	0.049997	0.049671	133.112	26157.6	0.046181	0.080974	1643.88	83984.2
663	2.000000	1.160576	7.37154e+06	-43939.1	1005.82	-29777.3	0.000000	0.000000	7.166977	144.261	NaN	0.000000	0.001565	0.001745	28.0829	50.886	0.001879	27084.4	8.935806	-6.706224	140.284	1.160279	0.052449	0.052151	144.261	27084.4	0.048454	0.087694	1645.05	83561.7
663	2.000000	1.163077	7.37154e+06	-43939.1	1005.82	-29777.3	0.000000	0.000000	7.169895	154.418	NaN	0.000000	0.001569	0.001717	28.0825	52.0197	0.001836	28328.2	2.880578	179.142	152.39	1.162856	0.054950	0.054728	154.418	28328.2	0.050861	0.095094	1623.84	83929.6
663	2.000000	1.165589	7.37154e+06	-43939.1	1005.82	-29777.3	0.000000	0.000000	7.173014	169.171	NaN	0.000000	0.001654	0.001736	28.0825	54.4377	0.001820	29914.4	7.096051	-6.475140	166.716	1.165201	0.057462	0.057074	169.171	29914.4	0.053220	0.102626	1648.42	85314.8
663	2.000000	1.168092	7.37154e+06	-43939.1	1005.82	-29777.3	0.000000	0.000000	7.176087	183.071	NaN	0.000000	0.001640	0.001743	28.0823	57.0913	0.001951	29256.5	3.380179	178.971	181.427	1.167803	0.059964	0.059675	183.071	29256.5	0.055271	0.109399	1673.42	80814.2
663	2.000000	1.170577	7.37154e+06	-43939.1	1005.82	-29777.3	0.000000	0.000000	7.179232	199.129	NaN	0.000000	0.001636	0.001751	28.0826	57.9664	0.001794	32308.8	2.711082	-1.045169	195.03	1.170186	0.062449	0.062058	199.129	32308.8	0.057827	0.118130	1685.68	85884.4
663	2.000000	1.173071	7.37154e+06	-43939.1	1005.82	-29777.3	0.000000	0.000000	7.182132	208.998	NaN	0.000000	0.001664	0.001733	28.0832	60.0836	0.001734	34642.2	1.285870	178.887	205.578	1.172719	0.064943	0.064592	208.998	34642.2	0.060418	0.127313	1641.61	88703.8
663	2.000000	1.175617	7.37154e+06	-43939.1	1005.82	-29777.3	0.000000	0.000000	7.185237	222.571	NaN	0.000000	0.001634	0.001736	28.0837	63.4516	0.001802	35207.6	6.208409	-5.620461	222.312	1.175190	0.067490	0.067062	222.571	35207.6	0.062748	0.135848	1638.39	87273.8
663	2.000000	1.178083	7.37154e+06	-43939.1	1005.82	-29777.3	0.000000	0.000000	7.188481	241.531	NaN	0.000000	0.001666	0.001722	28.0836	65.5938	0.001755	37372.8	2.027535	177.694	238.839	1.177694	0.069955	0.069566	241.531	37372.8	0.065108	0.144760	1668.5	89743.9
663	2.000000	1.180563	7.37154e+06	-43939.1	1005.82	-29777.3	0.000000	0.000000	7.191448	253.382	NaN	0.000000	0.001640	0.001737	28.0843	67.5687	0.001743	38763.6	4.980069	-5.246074	248.536	1.180168	0.072435	0.072040	253.382	38763.6	0.067533	0.154196	1643.25	90190.5
663	2.000000	1.183086	7.37154e+06	-43939.1	1005.82	-29777.3	0.000000	0.000000	7.194558	267.653	NaN	0.000000	0.001635	0.001773	28.0837	70.0182	0.001728	40518.3	5.749742	173.516	265.076	1.182647	0.074958	0.074519	267.653	40518.3	0.070004	0.164103	1631.01	91383.3
663	2.000000	1.185595	7.37154e+06	-43939.1	1005.82	-29777.3	0.000000	0.000000	7.197754	284.354	NaN	0.000000	0.001602	0.001740	28.0838	72.5138	0.001793	40452.3	4.093088	-4.732194	283.08	1.185174	0.077467	0.077046	284.354	40452.3	0.072195	0.173132	1642.41	88823.3
663	2.000000	1.188034	7.37154e+06	-43939.1	1005.82	-29777.3	0.000000	0.000000	7.200645	295.372	NaN	0.000000	0.001544	0.001762	28.0836	75.4467	0.001730	43614.4	3.105364	175.072	292.48	1.187749	0.079906	0.079621	295.372	43614.4	0.074827	0.184276	1602.88	92825.9
663	2.000000	1.190655	7.37154e+06	-43939.1	1005.82	-29777.3	0.000000	0.000000	7.203903	310.849	NaN	0.000000	0.001560	0.001721	28.0841	77.2222	0.001853	41667.6	3.701906	-4.406359	311.055	1.190293	0.082528	0.082166	310.849	41667.6	0.076933	0.193427	1607.06	86559.2
663	2.000000	1.193092	7.37154e+06	-43939.1	1005.82	-29777.3	0.000000	0.000000	7.207139	330.282	NaN	0.000000	0.001578	0.001715	28.0836	80.0046	0.001822	43899.8	7.114111	171.052	330.517	1.192840	0.084965	0.084713	330.282	43899.8	0.079322	0.204063	1618.53	88787.9
663	2.000000	1.195547	7.37154e+06	-43939.1	1005.82	-29777.3	0.000000	0.000000	7.210397	349.829	NaN	0.000000	0.001582	0.001729	28.0838	81.4157	0.001683	48368.1	1.663567	-4.453000	344.623	1.195190	0.087419	0.087062	349.829	48368.1	0.081995	0.216275	1617.52	95023
663	2.000000	1.198077	7.37154e+06	-43939.1	1005.82	-29777.3	0.000000	0.000000	7.213576	365.612	NaN	0.000000	0.001515	0.001741	28.0836	85.0597	0.001891	44974.6	-0.506203	179.096	365.283	1.197803	0.089950	0.089676	365.612	44974.6	0.083853	0.224959	1625.24	86634.1
663	2.000000	1.200528	7.37154e+06	-43939.1	1005.82	-29777.3	0.000000	0.000000	7.216834	385.253	NaN	0.000000	0.001564	0.001742	28.084	86.3951	0.001674	51610.5	2.763946	-5.619977	379.49	1.200150	0.092401	0.092022	385.253	51610.5	0.086802	0.239074	1611.44	96437.3
663	2.000000	1.203044	7.37154e+06	-43939.1	1005.82	-29777.3	0.000000	0.000000	7.219984	400.668	NaN	0.000000	0.001557	0.001731	28.0837	88.0048	0.001646	53479.8	3.370754	173.487	396.688	1.202681	0.094916	0.094553	400.668	53479.8	0.089297	0.251327	1594.21	97463.9
663	2.000000	1.205551	7.37154e+06	-43939.1	1005.82	-29777.3	0.000000	0.000000	7.223207	418.089	NaN	0.000000	0.001572	0.001681	28.0839	92.166	0.001725	53425.5	6.749200	-9.630611	415.529	1.205231	0.097424	0.097103	418.089	53425.5	0.091554	0.262657	1591.77	95241.7
663	2.000000	1.208040	7.37154e+06	-43939.1	1005.82	-29777.3	0.000000	0.000000	7.226055	426.84	NaN	0.000000	0.001564	0.001699	28.0825	95.5692	0.001875	50979.9	3.840706	173.142	424.846	1.207943	0.099912	0.099815	426.84	50979.9	0.093633	0.273297	1561.82	89095.2
663	2.000000	1.210629	7.37154e+06	-43939.1	1005.82	-29777.3	0.000000	0.000000	7.229917	457.814	NaN	0.000000	0.001533	0.001728	28.0826	96.5611	0.001768	54623.4	4.641985	-7.661682	456.941	1.210176	0.102501	0.102049	457.814	54623.4	0.096215	0.286792	1596.33	93189.9
663	2.000000	1.213034	7.37154e+06	-43939.1	1005.82	-29777.3	0.000000	0.000000	7.233061	475.773	NaN	0.000000	0.001555	0.001737	28.0822	98.8652	0.001787	55338.4	6.751704	170.057	473.363	1.212570	0.104907	0.104442	475.773	55338.4	0.098458	0.298761	1592.49	92499.2
663	2.000000	1.215044	7.37154e+06	-43939.1	1005.82	-29777.3	0.000000	0.000000	7.235785	493.138	NaN	0.000000	0.001522	0.001743	28.0825	101.205	0.001844	54886.3	2.628714	174.511	489.459	1.214699	0.106917	0.106572	493.138	54886.3	0.100178	0.308091	1600.62	90343.6