File: remote_trans/data/nanoindenter/0828-1/data/Data_2025-08-06,11h17m57s/2025-07-22_16-23-58_1_1162.txt
2025-07-22, 16:23:58, 1
Index	Phase	Displacement	Time	Pos X	Pos Y	Pos Z	Rot A	Rot B	Piezo Z	Force A	Force B	Gripper	Voltage A	Voltage B	Temperature	Amplitude force	Amplitude pos	Stiffness	Phase shift	Phase excitation	Force A raw	Displacement raw	HMax	HMax raw	Real Force	Real Stiffness	Contact Depth	Area	Hardness	Reduced Mod.
[#]	[#]	[um]	[s]	[um]	[um]	[um]	[m°]	[m°]	[um]	[uN]	[uN]	[V]	[V]	[V]	[°C]	[uN]	[um]	[N/m]	[°]	[°]	[uN]	[um]	[um]	[um]	[uN]	[N/m]	[um]	[um^2]	[MPa]	[MPa]
1162	1.000000	0.002349	7.37642e+06	-57489.1	1105.82	-29736.7	0.000000	0.000000	6.002774	-0.032618	NaN	0.000000	0.001691	0.001682	28.0832	0.042445	0.000951	44.6365	-143.548	-169.239	-0.015097	0.001084	-1.051911	-1.053176	-0.032618	44.6365	-1.051363	-1.113622E+14	2.928974E-16	NaN
1162	1.000000	0.010348	7.37642e+06	-57489.1	1105.82	-29736.7	0.000000	0.000000	6.010774	0.003675	NaN	0.000000	0.001704	0.001723	28.0833	0.101804	0.001071	95.0229	122.384	-164.906	-0.065716	0.008975	-1.043912	-1.045285	0.003675	95.0229	-1.043941	-8.850244E+13	-4.152738E-17	NaN
1162	1.000000	0.018321	7.37642e+06	-57489.1	1105.82	-29736.7	0.000000	0.000000	6.018749	0.022389	NaN	0.000000	0.001682	0.001682	28.0832	0.079169	0.001751	45.2114	165.827	-164.047	0.015457	0.017029	-1.035938	-1.037231	0.022389	45.2114	-1.036310	-6.987859E+13	-3.204012E-16	NaN
1162	1.000000	0.026341	7.37642e+06	-57489.1	1105.82	-29736.7	0.000000	0.000000	6.026767	0.002197	NaN	0.000000	0.001677	0.001688	28.0831	0.067550	0.001765	38.2696	94.1555	-164.384	-0.064746	0.024978	-1.027919	-1.029282	0.002197	38.2696	-1.027962	-5.396001E+13	-4.071667E-17	NaN
1162	1.000000	0.034325	7.37642e+06	-57489.1	1105.82	-29736.7	0.000000	0.000000	6.034751	-0.007467	NaN	0.000000	0.001670	0.001688	28.0834	0.040208	0.001823	22.0557	-12.0033	-164.125	-0.070504	0.032994	-1.019934	-1.021266	-0.007467	22.0557	-1.019681	-4.174972E+13	1.788478E-16	NaN
1162	1.000000	0.042302	7.37642e+06	-57489.1	1105.82	-29736.7	0.000000	0.000000	6.042726	-0.043045	NaN	0.000000	0.001686	0.001719	28.0835	0.073883	0.002219	33.2997	-37.3899	-167.96	-0.006619	0.041005	-1.011958	-1.013255	-0.043045	33.2997	-1.010989	-3.189248E+13	1.349700E-15	NaN
1162	1.000000	0.050284	7.37642e+06	-57489.1	1105.82	-29736.7	0.000000	0.000000	6.050710	-0.013276	NaN	0.000000	0.001668	0.001713	28.0831	0.074627	0.001941	38.4473	82.2254	-170.367	-0.058073	0.049028	-1.003976	-1.005232	-0.013276	38.4473	-1.003717	-2.545679E+13	5.215047E-16	NaN
1162	1.000000	0.058315	7.37642e+06	-57489.1	1105.82	-29736.7	0.000000	0.000000	6.058744	0.062788	NaN	0.000000	0.001651	0.001698	28.0832	0.076623	0.001979	38.717	-30.624	-165.487	0.047786	0.056955	-0.995945	-0.997305	0.062788	38.717	-0.997161	-2.077541E+13	-3.022221E-15	NaN
1162	1.000000	0.066342	7.37642e+06	-57489.1	1105.82	-29736.7	0.000000	0.000000	6.066763	-0.118329	NaN	0.000000	0.001614	0.001717	28.0833	0.123016	0.002060	59.7168	64.974	-165.189	-0.014447	0.065003	-0.987918	-0.989257	-0.118329	59.7168	-0.986432	-1.489542E+13	7.943973E-15	NaN
1162	1.000000	0.074302	7.37642e+06	-57489.1	1105.82	-29736.7	0.000000	0.000000	6.074727	-0.013792	NaN	0.000000	0.001613	0.001693	28.0834	0.018736	0.001935	9.681840	97.9098	-165.202	-0.001712	0.073017	-0.979958	-0.981243	-0.013792	9.681840	-0.978890	-1.178837E+13	1.169987E-15	NaN
1162	1.000000	0.082343	7.37642e+06	-57489.1	1105.82	-29736.7	0.000000	0.000000	6.082770	0.031512	NaN	0.000000	0.001646	0.001676	28.0835	0.063821	0.001953	32.6779	138.635	-165.902	-0.078084	0.081086	-0.971917	-0.973174	0.031512	32.6779	-0.972640	-9.710598E+12	-3.245085E-15	NaN
1162	1.000000	0.090335	7.37642e+06	-57489.1	1105.82	-29736.7	0.000000	0.000000	6.090762	0.015648	NaN	0.000000	0.001629	0.001660	28.0832	0.126161	0.002017	62.5638	138.99	-167.044	0.004478	0.089025	-0.963925	-0.965235	0.015648	62.5638	-0.964112	-7.452553E+12	-2.099644E-15	NaN
1162	1.000000	0.098324	7.37642e+06	-57489.1	1105.82	-29736.7	0.000000	0.000000	6.098752	0.036460	NaN	0.000000	0.001637	0.001692	28.0835	0.060587	0.001843	32.8708	-164.867	-170.465	0.000242	0.097038	-0.955936	-0.957222	0.036460	32.8708	-0.956768	-5.933229E+12	-6.145009E-15	NaN
1162	1.000000	0.106348	7.37642e+06	-57489.1	1105.82	-29736.7	0.000000	0.000000	6.106774	0.003803	NaN	0.000000	0.001588	0.001682	28.0833	0.083149	0.001928	43.1355	88.9458	-167.918	0.038423	0.104964	-0.947912	-0.949296	0.003803	43.1355	-0.947978	-4.516038E+12	-8.421286E-16	NaN
1162	1.000000	0.114366	7.37642e+06	-57489.1	1105.82	-29736.7	0.000000	0.000000	6.114790	-0.042897	NaN	0.000000	0.001582	0.001695	28.0835	0.025829	0.001912	13.5104	55.7097	-164.977	-0.081029	0.113056	-0.939894	-0.941203	-0.042897	13.5104	-0.937513	-3.262721E+12	1.314776E-14	NaN
1162	1.000000	0.122353	7.37642e+06	-57489.1	1105.82	-29736.7	0.000000	0.000000	6.122779	-0.012790	NaN	0.000000	0.001589	0.001706	28.0835	0.060670	0.002006	30.2428	30.391	-165.151	0.074149	0.120990	-0.931907	-0.933270	-0.012790	30.2428	-0.931590	-2.714278E+12	4.711991E-15	NaN
1162	1.000000	0.130325	7.37642e+06	-57489.1	1105.82	-29736.7	0.000000	0.000000	6.130751	-0.001078	NaN	0.000000	0.001605	0.001730	28.0831	0.047139	0.002043	23.0769	125.588	-163.792	-0.059737	0.128957	-0.923935	-0.925303	-0.001078	23.0769	-0.923900	-2.137242E+12	5.045318E-16	NaN
1162	1.000000	0.138363	7.37642e+06	-57489.1	1105.82	-29736.7	0.000000	0.000000	6.138790	0.003394	NaN	0.000000	0.001609	0.001720	28.0824	0.121872	0.001915	63.651	-136.81	-165.526	-0.033117	0.137038	-0.915897	-0.917222	0.003394	63.651	-0.915937	-1.668551E+12	-2.033947E-15	NaN
1162	1.000000	0.146380	7.37642e+06	-57489.1	1105.82	-29736.7	0.000000	0.000000	6.146803	-0.077106	NaN	0.000000	0.001584	0.001694	28.0821	0.018263	0.002023	9.027297	-39.8033	-166.331	-0.133624	0.145080	-0.907880	-0.909180	-0.077106	9.027297	-0.901474	-1.064105E+12	7.246070E-14	NaN
1162	1.000000	0.154360	7.37642e+06	-57489.1	1105.82	-29736.7	0.000000	0.000000	6.154788	0.040701	NaN	0.000000	0.001587	0.001699	28.0821	0.088471	0.001981	44.6661	127.195	-166.281	-0.010964	0.153053	-0.899900	-0.901207	0.040701	44.6661	-0.900583	-1.035009E+12	-3.932381E-14	NaN
1162	1.000000	0.162342	7.37642e+06	-57489.1	1105.82	-29736.7	0.000000	0.000000	6.162769	0.022642	NaN	0.000000	0.001595	0.001694	28.0821	0.025447	0.001990	12.7855	-5.719018	-170.849	0.030485	0.161043	-0.891918	-0.893217	0.022642	12.7855	-0.893246	-8.237540E+11	-2.748693E-14	NaN
1162	1.000000	0.170358	7.37642e+06	-57489.1	1105.82	-29736.7	0.000000	0.000000	6.170784	0.007305	NaN	0.000000	0.001615	0.001709	28.0821	0.118143	0.002060	57.3471	12.4763	-166.53	-0.057030	0.169050	-0.883902	-0.885210	0.007305	57.3471	-0.883998	-6.176814E+11	-1.182670E-14	NaN
1162	1.000000	0.178399	7.37642e+06	-57489.1	1105.82	-29736.7	0.000000	0.000000	6.178825	-5.558614E-5	NaN	0.000000	0.001590	0.001693	28.0823	0.098569	0.002023	48.7187	-153.19	-166.683	-0.050260	0.177032	-0.875861	-0.877228	-5.558614E-5	48.7187	-0.875860	-4.794268E+11	1.159429E-16	NaN
1162	1.000000	0.186391	7.37642e+06	-57489.1	1105.82	-29736.7	0.000000	0.000000	6.186815	-0.055971	NaN	0.000000	0.001566	0.001686	28.0822	0.095901	0.002046	46.8738	-35.8396	-165.18	0.024727	0.185105	-0.867869	-0.869155	-0.055971	46.8738	-0.866974	-3.634925E+11	1.539800E-13	NaN
1162	1.000000	0.194386	7.37642e+06	-57489.1	1105.82	-29736.7	0.000000	0.000000	6.194812	-0.005334	NaN	0.000000	0.001571	0.001675	28.0823	0.052998	0.002055	25.7854	109.7	-169.461	0.008185	0.193075	-0.859874	-0.861185	-0.005334	25.7854	-0.859719	-2.899420E+11	1.839525E-14	NaN
1162	1.000000	0.202379	7.37642e+06	-57489.1	1105.82	-29736.7	0.000000	0.000000	6.202806	0.023970	NaN	0.000000	0.001611	0.001726	28.0822	0.084846	0.001977	42.9215	-91.4696	-169.059	0.026058	0.201065	-0.851881	-0.853195	0.023970	42.9215	-0.852300	-2.300827E+11	-1.041798E-13	NaN
1162	1.000000	0.210385	7.37642e+06	-57489.1	1105.82	-29736.7	0.000000	0.000000	6.210811	0.001281	NaN	0.000000	0.001601	0.001698	28.0821	0.058997	0.001977	29.8412	39.4121	-166.182	0.068439	0.209117	-0.843875	-0.845143	0.001281	29.8412	-0.843907	-1.771015E+11	-7.231373E-15	NaN
1162	1.000000	0.218394	7.37642e+06	-57489.1	1105.82	-29736.7	0.000000	0.000000	6.218822	0.034430	NaN	0.000000	0.001601	0.001691	28.0821	0.097770	0.002071	47.2059	-69.2232	-168.575	0.001689	0.217065	-0.835865	-0.837195	0.034430	47.2059	-0.836412	-1.401797E+11	-2.456115E-13	NaN
1162	1.000000	0.226395	7.37642e+06	-57489.1	1105.82	-29736.7	0.000000	0.000000	6.226821	0.014199	NaN	0.000000	0.001575	0.001736	28.0822	0.047669	0.001813	26.2868	71.2112	-166.563	-0.006513	0.225086	-0.827865	-0.829174	0.014199	26.2868	-0.828270	-1.087275E+11	-1.305926E-13	NaN
1162	1.000000	0.234398	7.37642e+06	-57489.1	1105.82	-29736.7	0.000000	0.000000	6.234823	-0.034049	NaN	0.000000	0.001550	0.001717	28.0821	0.012654	0.001909	6.629173	116.635	-165.369	-0.018216	0.233034	-0.819862	-0.821226	-0.034049	6.629173	-0.816009	-7.414659E+10	4.592127E-13	NaN
1162	1.000000	0.242405	7.37642e+06	-57489.1	1105.82	-29736.7	0.000000	0.000000	6.242831	-0.010352	NaN	0.000000	0.001557	0.001713	28.0821	0.091357	0.002065	44.2425	112.714	-167.685	-0.000672	0.241091	-0.811855	-0.813169	-0.010352	44.2425	-0.811679	-6.476660E+10	1.598410E-13	NaN
1162	1.000000	0.250377	7.37642e+06	-57489.1	1105.82	-29736.7	0.000000	0.000000	6.250804	0.012914	NaN	0.000000	0.001578	0.001692	28.0819	0.045147	0.002102	21.4777	83.9505	-165.903	-0.055018	0.249133	-0.803883	-0.805127	0.012914	21.4777	-0.804334	-5.148560E+10	-2.508338E-13	NaN
1162	1.000000	0.258423	7.37642e+06	-57489.1	1105.82	-29736.7	0.000000	0.000000	6.258852	0.078133	NaN	0.000000	0.001582	0.001698	28.0823	0.052841	0.001990	26.5508	-164.919	-165.734	0.057749	0.257084	-0.795837	-0.797176	0.078133	26.5508	-0.798044	-4.229717E+10	-1.847248E-12	NaN
1162	1.000000	0.266383	7.37642e+06	-57489.1	1105.82	-29736.7	0.000000	0.000000	6.266811	0.038549	NaN	0.000000	0.001598	0.001688	28.0824	0.060129	0.001876	32.0548	64.629	-163.586	-0.031510	0.265068	-0.787876	-0.789192	0.038549	32.0548	-0.788778	-3.165858E+10	-1.217645E-12	NaN
1162	1.000000	0.274384	7.37642e+06	-57489.1	1105.82	-29736.7	0.000000	0.000000	6.274810	-0.005362	NaN	0.000000	0.001615	0.001702	28.0834	0.090138	0.002051	43.9569	-161.42	-167.572	0.001813	0.273140	-0.779876	-0.781120	-0.005362	43.9569	-0.779784	-2.389451E+10	2.244111E-13	NaN
1162	1.000000	0.282419	7.37642e+06	-57489.1	1105.82	-29736.7	0.000000	0.000000	6.282847	0.026135	NaN	0.000000	0.001609	0.001739	28.0834	0.050172	0.001991	25.1983	44.0802	-167.011	-0.016529	0.281093	-0.771841	-0.773166	0.026135	25.1983	-0.772618	-1.909436E+10	-1.368742E-12	NaN
1162	1.000000	0.290414	7.37642e+06	-57489.1	1105.82	-29736.7	0.000000	0.000000	6.290839	-0.020296	NaN	0.000000	0.001595	0.001753	28.0833	0.046647	0.002113	22.0746	-112.022	-165.489	-0.014647	0.289084	-0.763846	-0.765176	-0.020296	22.0746	-0.763157	-1.419848E+10	1.429481E-12	NaN
1162	1.000000	0.298429	7.37642e+06	-57489.1	1105.82	-29736.7	0.000000	0.000000	6.298857	0.045937	NaN	0.000000	0.001577	0.001662	28.0834	0.084497	0.002035	41.5279	-62.6683	-169.099	0.108585	0.297121	-0.755831	-0.757139	0.045937	41.5279	-0.756660	-1.158416E+10	-3.965463E-12	NaN
1162	1.000000	0.306442	7.37642e+06	-57489.1	1105.82	-29736.7	0.000000	0.000000	6.306870	0.051343	NaN	0.000000	0.001589	0.001683	28.0835	0.082988	0.002015	41.1801	-161.624	-165.509	0.096511	0.305103	-0.747818	-0.749156	0.051343	41.1801	-0.748753	-9.041697E+9	-5.678467E-12	NaN
1162	1.000000	0.314390	7.37642e+06	-57489.1	1105.82	-29736.7	0.000000	0.000000	6.314814	-0.045583	NaN	0.000000	0.001563	0.001707	28.0831	0.047533	0.002036	23.3421	3.072712	-166.493	-0.005864	0.313110	-0.739870	-0.741150	-0.045583	23.3421	-0.738406	-6.536414E+9	6.973763E-12	NaN
1162	1.000000	0.322414	7.37642e+06	-57489.1	1105.82	-29736.7	0.000000	0.000000	6.322838	-0.049981	NaN	0.000000	0.001582	0.001658	28.0832	0.060050	0.001997	30.0707	86.3495	-168.28	-0.008269	0.321121	-0.731846	-0.733139	-0.049981	30.0707	-0.730599	-5.116539E+9	9.768451E-12	NaN
1162	1.000000	0.330434	7.37642e+06	-57489.1	1105.82	-29736.7	0.000000	0.000000	6.330860	-0.004252	NaN	0.000000	0.001564	0.001714	28.0834	0.045808	0.001902	24.0886	-29.2131	-165.449	-0.030985	0.329179	-0.723826	-0.725081	-0.004252	24.0886	-0.723694	-4.119476E+9	1.032238E-12	NaN
1162	1.000000	0.338419	7.37642e+06	-57489.1	1105.82	-29736.7	0.000000	0.000000	6.338845	-0.022658	NaN	0.000000	0.001572	0.001690	28.0833	0.071778	0.001981	36.2333	-63.2529	-164.018	0.004151	0.337135	-0.715841	-0.717125	-0.022658	36.2333	-0.715372	-3.172052E+9	7.143074E-12	NaN
1162	1.000000	0.346433	7.37642e+06	-57489.1	1105.82	-29736.7	0.000000	0.000000	6.346855	-0.086647	NaN	0.000000	0.001600	0.001695	28.0835	0.029367	0.002088	14.0676	-110.063	-168.085	-0.037458	0.345154	-0.707827	-0.709106	-0.086647	14.0676	-0.703208	-2.164381E+9	4.003303E-11	NaN
1162	1.000000	0.354443	7.37642e+06	-57489.1	1105.82	-29736.7	0.000000	0.000000	6.354866	-0.056434	NaN	0.000000	0.001623	0.001638	28.0835	0.025067	0.001923	13.0346	78.6471	-167.132	-0.032342	0.353191	-0.699817	-0.701069	-0.056434	13.0346	-0.696570	-1.756650E+9	3.212592E-11	NaN
1162	1.000000	0.362437	7.37642e+06	-57489.1	1105.82	-29736.7	0.000000	0.000000	6.362864	0.027209	NaN	0.000000	0.001600	0.001687	28.0835	0.049771	0.002004	24.8413	111.28	-165.151	0.055316	0.361132	-0.691823	-0.693128	0.027209	24.8413	-0.692645	-1.552591E+9	-1.752520E-11	NaN
1162	1.000000	0.370473	7.37642e+06	-57489.1	1105.82	-29736.7	0.000000	0.000000	6.370899	0.000471	NaN	0.000000	0.001590	0.001656	28.0835	0.040169	0.002034	19.7477	45.0802	-166.289	-0.099424	0.369147	-0.683787	-0.685113	0.000471	19.7477	-0.683805	-1.175546E+9	-4.007260E-13	NaN
1162	1.000000	0.378457	7.37642e+06	-57489.1	1105.82	-29736.7	0.000000	0.000000	6.378883	-0.016463	NaN	0.000000	0.001586	0.001626	28.0833	0.040352	0.002048	19.702	-4.299925	-167.026	0.096941	0.377144	-0.675803	-0.677116	-0.016463	19.702	-0.675176	-8.958116E+8	1.837820E-11	NaN
1162	1.000000	0.386463	7.37642e+06	-57489.1	1105.82	-29736.7	0.000000	0.000000	6.386890	0.009451	NaN	0.000000	0.001561	0.001662	28.0832	0.007489	0.002029	3.691003	-32.4503	-165.772	-0.034722	0.385223	-0.667797	-0.669037	0.009451	3.691003	-0.669717	-7.542637E+8	-1.253068E-11	NaN
1162	1.000000	0.394450	7.37642e+06	-57489.1	1105.82	-29736.7	0.000000	0.000000	6.394876	-0.014479	NaN	0.000000	0.001651	0.001691	28.0832	0.117371	0.002036	57.6345	40.9453	-166.294	-0.060525	0.393198	-0.659810	-0.661062	-0.014479	57.6345	-0.659621	-5.486347E+8	2.639183E-11	NaN
1162	1.000000	0.402465	7.37642e+06	-57489.1	1105.82	-29736.7	0.000000	0.000000	6.402889	-0.036197	NaN	0.000000	0.001580	0.001643	28.0832	0.114559	0.001900	60.2866	124.746	-165.856	-0.067006	0.401134	-0.651795	-0.653126	-0.036197	60.2866	-0.651345	-4.225463E+8	8.566367E-11	NaN
1162	1.000000	0.410452	7.37642e+06	-57489.1	1105.82	-29736.7	0.000000	0.000000	6.410879	0.031621	NaN	0.000000	0.001602	0.001686	28.082	0.028328	0.002113	13.409	-137.62	-163.39	-0.014031	0.409131	-0.643808	-0.645129	0.031621	13.409	-0.645577	-3.522003E+8	-8.978011E-11	NaN
1162	1.000000	0.418481	7.37642e+06	-57489.1	1105.82	-29736.7	0.000000	0.000000	6.418906	-0.025365	NaN	0.000000	0.001598	0.001697	28.0821	0.144904	0.002014	71.9637	23.0201	-168.279	-0.090186	0.417218	-0.635779	-0.637042	-0.025365	71.9637	-0.635515	-2.562952E+8	9.896951E-11	NaN
1162	1.000000	0.426476	7.37642e+06	-57489.1	1105.82	-29736.7	0.000000	0.000000	6.426902	-0.022966	NaN	0.000000	0.001627	0.001659	28.082	0.050020	0.001900	26.3296	122.945	-165.636	-0.034503	0.425181	-0.627784	-0.629078	-0.022966	26.3296	-0.627129	-1.966064E+8	1.168114E-10	NaN
1162	1.000000	0.434494	7.37642e+06	-57489.1	1105.82	-29736.7	0.000000	0.000000	6.434918	-0.047575	NaN	0.000000	0.001649	0.001648	28.082	0.152298	0.002129	71.5303	76.5686	-164.643	-0.004662	0.433210	-0.619766	-0.621050	-0.047575	71.5303	-0.619267	-1.533053E+8	3.103254E-10	NaN
1162	1.000000	0.442504	7.37642e+06	-57489.1	1105.82	-29736.7	0.000000	0.000000	6.442929	-0.027282	NaN	0.000000	0.001602	0.001664	28.0823	0.023511	0.001909	12.3155	168.306	-170.93	0.016720	0.441164	-0.611756	-0.613096	-0.027282	12.3155	-0.610094	-1.146592E+8	2.379434E-10	NaN
1162	1.000000	0.450487	7.37642e+06	-57489.1	1105.82	-29736.7	0.000000	0.000000	6.450911	-0.051805	NaN	0.000000	0.001657	0.001668	28.0821	0.086634	0.001918	45.1731	-67.3021	-165.339	-0.048736	0.449158	-0.603773	-0.605102	-0.051805	45.1731	-0.602913	-9.132108E+7	5.672881E-10	NaN
1162	1.000000	0.458502	7.37642e+06	-57489.1	1105.82	-29736.7	0.000000	0.000000	6.458928	-0.002250	NaN	0.000000	0.001642	0.001688	28.0822	0.032607	0.001975	16.508	-152.232	-166.542	0.004073	0.457193	-0.595758	-0.597067	-0.002250	16.508	-0.595656	-7.254733E+7	3.101621E-11	NaN
1162	1.000000	0.466492	7.37642e+06	-57489.1	1105.82	-29736.7	0.000000	0.000000	6.466916	-0.056589	NaN	0.000000	0.001583	0.001696	28.0823	0.017944	0.001965	9.130270	-108.757	-168.574	-0.003112	0.465231	-0.587768	-0.589029	-0.056589	9.130270	-0.583119	-4.872715E+7	1.161346E-9	NaN
1162	1.000000	0.474492	7.37642e+06	-57489.1	1105.82	-29736.7	0.000000	0.000000	6.474919	0.029752	NaN	0.000000	0.001539	0.001713	28.082	0.035877	0.001963	18.2753	73.773	-167.286	0.017788	0.473217	-0.579768	-0.581043	0.029752	18.2753	-0.580989	-4.553849E+7	-6.533414E-10	NaN
1162	1.000000	0.482504	7.37642e+06	-57489.1	1105.82	-29736.7	0.000000	0.000000	6.482927	-0.065980	NaN	0.000000	0.001584	0.001718	28.0821	0.080736	0.002028	39.8079	87.1118	-168.708	-0.048088	0.481197	-0.571756	-0.573062	-0.065980	39.8079	-0.570513	-3.263768E+7	2.021580E-9	NaN
1162	1.000000	0.490515	7.37642e+06	-57489.1	1105.82	-29736.7	0.000000	0.000000	6.490942	0.020982	NaN	0.000000	0.001595	0.001646	28.0823	0.025118	0.002071	12.1283	31.6464	-168.595	-0.041171	0.489188	-0.563745	-0.565072	0.020982	12.1283	-0.565042	-2.742262E+7	-7.651431E-10	NaN
1162	1.000000	0.498504	7.37642e+06	-57489.1	1105.82	-29736.7	0.000000	0.000000	6.498934	0.088178	NaN	0.000000	0.001605	0.001634	28.0823	0.125590	0.002130	58.9568	135.085	-167.827	0.052108	0.497215	-0.555756	-0.557045	0.088178	58.9568	-0.556878	-2.114337E+7	-4.170479E-9	NaN
1162	1.000000	0.506510	7.37642e+06	-57489.1	1105.82	-29736.7	0.000000	0.000000	6.506936	0.007964	NaN	0.000000	0.001581	0.001649	28.0823	0.064798	0.001949	33.2526	132.337	-167.274	0.042758	0.505259	-0.547750	-0.549001	0.007964	33.2526	-0.547930	-1.589574E+7	-5.010214E-10	NaN
1162	1.000000	0.514521	7.37642e+06	-57489.1	1105.82	-29736.7	0.000000	0.000000	6.514946	-0.042203	NaN	0.000000	0.001589	0.001677	28.0819	0.113451	0.002005	56.5935	176.205	-166.173	-0.070263	0.513214	-0.539738	-0.541046	-0.042203	56.5935	-0.539179	-1.202190E+7	3.510506E-9	NaN
1162	1.000000	0.522538	7.37642e+06	-57489.1	1105.82	-29736.7	0.000000	0.000000	6.522962	-0.057391	NaN	0.000000	0.001628	0.001685	28.082	0.106966	0.002115	50.568	-12.7448	-168.541	0.017684	0.521232	-0.531722	-0.533028	-0.057391	50.568	-0.530871	-9.2186e+06	6.225564E-9	NaN
1162	1.000000	0.530489	7.37642e+06	-57489.1	1105.82	-29736.7	0.000000	0.000000	6.530916	0.006038	NaN	0.000000	0.001614	0.001675	28.0818	0.028131	0.002030	13.8594	98.3632	-167.681	0.087207	0.529200	-0.523771	-0.525060	0.006038	13.8594	-0.524097	-7.42275e+06	-8.133957E-10	NaN
1162	1.000000	0.538518	7.37642e+06	-57489.1	1105.82	-29736.7	0.000000	0.000000	6.538943	-0.043651	NaN	0.000000	0.001615	0.001679	28.082	0.040112	0.001943	20.6447	-134.82	-164.183	-0.008925	0.537208	-0.515742	-0.517052	-0.043651	20.6447	-0.514156	-5.39864e+06	8.085611E-9	NaN
1162	1.000000	0.546519	7.37642e+06	-57489.1	1105.82	-29736.7	0.000000	0.000000	6.546943	-0.045400	NaN	0.000000	0.001612	0.001688	28.0835	0.098379	0.002110	46.6363	-121.735	-165.986	-0.026959	0.545189	-0.507741	-0.509071	-0.045400	46.6363	-0.507011	-4.29306e+06	1.057517E-8	NaN
1162	1.000000	0.554562	7.37642e+06	-57489.1	1105.82	-29736.7	0.000000	0.000000	6.554985	-0.064102	NaN	0.000000	0.001558	0.001680	28.0834	0.051530	0.001899	27.1349	130.36	-163.536	-0.028683	0.553162	-0.499698	-0.501098	-0.064102	27.1349	-0.497926	-3.20689e+06	1.998873E-8	NaN
1162	1.000000	0.562548	7.37642e+06	-57489.1	1105.82	-29736.7	0.000000	0.000000	6.562977	0.070071	NaN	0.000000	0.001599	0.001675	28.0833	0.014860	0.001924	7.724177	121.036	-165.821	0.029912	0.561218	-0.491712	-0.493041	0.070071	7.724177	-0.498516	-3.26823e+06	-2.143997E-8	NaN
1162	1.000000	0.570531	7.37642e+06	-57489.1	1105.82	-29736.7	0.000000	0.000000	6.570960	0.051970	NaN	0.000000	0.001602	0.001666	28.0831	0.087781	0.002019	43.4747	-92.0564	-167.694	0.028447	0.569259	-0.483729	-0.485001	0.051970	43.4747	-0.484625	-2.09049e+06	-2.486024E-8	NaN
1162	1.000000	0.578565	7.37642e+06	-57489.1	1105.82	-29736.7	0.000000	0.000000	6.578987	-0.091884	NaN	0.000000	0.001585	0.001650	28.0832	0.043880	0.001916	22.9033	-47.4409	-166.92	-0.063235	0.577181	-0.475695	-0.477079	-0.091884	22.9033	-0.472686	-1.42256e+06	6.459057E-8	NaN
1162	1.000000	0.586559	7.37642e+06	-57489.1	1105.82	-29736.7	0.000000	0.000000	6.586985	-0.010787	NaN	0.000000	0.001612	0.001661	28.0834	0.045997	0.001935	23.768	31.6879	-165.428	-0.002137	0.585245	-0.467700	-0.469015	-0.010787	23.768	-0.467360	-1.19777e+06	9.006147E-9	NaN
1162	1.000000	0.594579	7.37642e+06	-57489.1	1105.82	-29736.7	0.000000	0.000000	6.595006	0.002939	NaN	0.000000	0.001582	0.001677	28.0831	0.080843	0.002118	38.1633	-0.509545	-169.464	0.001472	0.593231	-0.459681	-0.461029	0.002939	38.1633	-0.459738	-936138	-3.139727E-9	NaN
1162	1.000000	0.602528	7.37642e+06	-57489.1	1105.82	-29736.7	0.000000	0.000000	6.602953	-0.032284	NaN	0.000000	0.001609	0.001680	28.0834	0.014937	0.001958	7.628606	-161.794	-167.943	0.010142	0.601221	-0.451731	-0.453039	-0.032284	7.628606	-0.448557	-651667	4.954009E-8	NaN
1162	1.000000	0.610551	7.37642e+06	-57489.1	1105.82	-29736.7	0.000000	0.000000	6.610975	-0.045388	NaN	0.000000	0.001646	0.001679	28.083	0.051498	0.002040	25.2481	75.2988	-166.577	-0.039819	0.609241	-0.443709	-0.445019	-0.045388	25.2481	-0.442361	-532932	8.516607E-8	NaN
1162	1.000000	0.618560	7.37642e+06	-57489.1	1105.82	-29736.7	0.000000	0.000000	6.618987	0.008997	NaN	0.000000	0.001644	0.001680	28.0833	0.037973	0.002144	17.7139	-6.281506	-165.812	0.027359	0.617198	-0.435700	-0.437062	0.008997	17.7139	-0.436081	-434532	-2.070589E-8	NaN
1162	1.000000	0.626545	7.37642e+06	-57489.1	1105.82	-29736.7	0.000000	0.000000	6.626973	0.038446	NaN	0.000000	0.001586	0.001657	28.0831	0.096018	0.002017	47.6047	-26.4182	-164.888	-0.031775	0.625252	-0.427715	-0.429008	0.038446	47.6047	-0.428320	-337515	-1.139083E-7	NaN
1162	1.000000	0.634541	7.37642e+06	-57489.1	1105.82	-29736.7	0.000000	0.000000	6.634967	-0.013048	NaN	0.000000	0.001608	0.001645	28.0832	0.136371	0.001925	70.8562	88.1106	-166.673	0.009671	0.633223	-0.419718	-0.421037	-0.013048	70.8562	-0.419580	-253783	5.141236E-8	NaN
1162	1.000000	0.642579	7.37642e+06	-57489.1	1105.82	-29736.7	0.000000	0.000000	6.643002	-0.087203	NaN	0.000000	0.001574	0.001677	28.0832	0.034316	0.002098	16.3597	-150.141	-168.334	-0.141688	0.641248	-0.411681	-0.413012	-0.087203	16.3597	-0.407683	-171966	5.070959E-7	NaN
1162	1.000000	0.650590	7.37642e+06	-57489.1	1105.82	-29736.7	0.000000	0.000000	6.651016	0.007864	NaN	0.000000	0.001574	0.001664	28.0838	0.106679	0.001948	54.76	-37.8273	-164.278	0.021294	0.649241	-0.403670	-0.405019	0.007864	54.76	-0.403778	-151300	-5.197478E-8	NaN
1162	1.000000	0.658569	7.37642e+06	-57489.1	1105.82	-29736.7	0.000000	0.000000	6.658998	0.082778	NaN	0.000000	0.001614	0.001650	28.0834	0.034761	0.001943	17.8913	100.623	-167.3	0.068285	0.657264	-0.395691	-0.396995	0.082778	17.8913	-0.399161	-130026	-6.366289E-7	NaN
1162	1.000000	0.666594	7.37642e+06	-57489.1	1105.82	-29736.7	0.000000	0.000000	6.667021	0.011475	NaN	0.000000	0.001631	0.001669	28.0832	0.082822	0.001929	42.9309	26.9357	-164.142	-0.077737	0.665264	-0.387665	-0.388996	0.011475	42.9309	-0.387866	-89666.3	-1.279786E-7	NaN
1162	1.000000	0.674576	7.37642e+06	-57489.1	1105.82	-29736.7	0.000000	0.000000	6.675002	-0.005275	NaN	0.000000	0.001642	0.001660	28.0832	0.032437	0.002063	15.7243	-129.855	-167.481	0.023665	0.673250	-0.379684	-0.381009	-0.005275	15.7243	-0.379433	-67880.6	7.770267E-8	NaN
1162	1.000000	0.682584	7.37642e+06	-57489.1	1105.82	-29736.7	0.000000	0.000000	6.683010	0.007528	NaN	0.000000	0.001630	0.001648	28.0819	0.073354	0.001969	37.2537	60.9538	-167.347	-0.049001	0.681296	-0.371676	-0.372964	0.007528	37.2537	-0.371828	-52776.8	-1.426308E-7	NaN
1162	1.000000	0.690632	7.37642e+06	-57489.1	1105.82	-29736.7	0.000000	0.000000	6.691056	-0.068825	NaN	0.000000	0.001642	0.001665	28.0823	0.090462	0.001949	46.4089	-143.277	-165.835	-0.072336	0.689279	-0.363628	-0.364981	-0.068825	46.4089	-0.362515	-38742.7	1.776462E-6	NaN
1162	1.000000	0.698593	7.37642e+06	-57489.1	1105.82	-29736.7	0.000000	0.000000	6.699018	-0.014974	NaN	0.000000	0.001602	0.001679	28.0821	0.128500	0.001883	68.2501	-36.9337	-166.327	-0.031474	0.697265	-0.355667	-0.356994	-0.014974	68.2501	-0.355503	-30674.4	4.881455E-7	NaN
1162	1.000000	0.706613	7.37642e+06	-57489.1	1105.82	-29736.7	0.000000	0.000000	6.707035	-0.100571	NaN	0.000000	0.001637	0.001708	28.082	0.116338	0.002003	58.0842	-122.007	-166.764	-0.063712	0.705332	-0.347647	-0.348928	-0.100571	58.0842	-0.346348	-22592.4	4.451539E-6	NaN
1162	1.000000	0.714581	7.37642e+06	-57489.1	1105.82	-29736.7	0.000000	0.000000	6.715010	0.065298	NaN	0.000000	0.001627	0.001672	28.0819	0.110304	0.002038	54.1252	-74.208	-164.774	0.129036	0.713289	-0.339679	-0.340971	0.065298	54.1252	-0.340584	-18623.7	-3.506195E-6	NaN
1162	1.000000	0.722605	7.37642e+06	-57489.1	1105.82	-29736.7	0.000000	0.000000	6.723030	-0.033323	NaN	0.000000	0.001602	0.001718	28.0817	0.060289	0.001946	30.9757	100.103	-169.174	0.008277	0.721334	-0.331655	-0.332926	-0.033323	30.9757	-0.330848	-13423.6	2.482445E-6	NaN
1162	1.000000	0.730643	7.37642e+06	-57489.1	1105.82	-29736.7	0.000000	0.000000	6.731069	-0.012774	NaN	0.000000	0.001590	0.001694	28.0818	0.025230	0.001943	12.9886	-78.3257	-167	0.076921	0.729329	-0.323617	-0.324931	-0.012774	12.9886	-0.322879	-10256.2	1.245527E-6	NaN
1162	1.000000	0.738598	7.37642e+06	-57489.1	1105.82	-29736.7	0.000000	0.000000	6.739024	0.004762	NaN	0.000000	0.001597	0.001646	28.0821	0.062025	0.002027	30.6042	-40.239	-167.123	-0.089348	0.737308	-0.315662	-0.316952	0.004762	30.6042	-0.315779	-8061.99	-5.906296E-7	NaN
1162	1.000000	0.746642	7.37642e+06	-57489.1	1105.82	-29736.7	0.000000	0.000000	6.747069	0.001755	NaN	0.000000	0.001610	0.001707	28.0822	0.012113	0.001926	6.287662	94.2055	-164.965	0.049562	0.745324	-0.307618	-0.308936	0.001755	6.287662	-0.307827	-6150.02	-2.853516E-7	NaN
1162	1.000000	0.754603	7.37642e+06	-57489.1	1105.82	-29736.7	0.000000	0.000000	6.755029	-0.002394	NaN	0.000000	0.001606	0.001689	28.0819	0.074147	0.001991	37.2394	168.259	-170.861	0.019323	0.753288	-0.299657	-0.300972	-0.002394	37.2394	-0.299609	-4643.12	5.155864E-7	NaN
1162	1.000000	0.762625	7.37642e+06	-57489.1	1105.82	-29736.7	0.000000	0.000000	6.763052	0.022945	NaN	0.000000	0.001623	0.001717	28.0818	0.067190	0.002094	32.0936	-159.706	-167.969	-0.013426	0.761318	-0.291635	-0.292942	0.022945	32.0936	-0.292171	-3595.86	-6.381062E-6	NaN
1162	1.000000	0.770601	7.37642e+06	-57489.1	1105.82	-29736.7	0.000000	0.000000	6.771026	-0.031404	NaN	0.000000	0.001612	0.001672	28.0821	0.080281	0.002094	38.3449	-113.866	-167.178	-0.011897	0.769343	-0.283659	-0.284917	-0.031404	38.3449	-0.283044	-2623.29	1.197122E-5	NaN
1162	1.000000	0.778628	7.37642e+06	-57489.1	1105.82	-29736.7	0.000000	0.000000	6.779054	0.005982	NaN	0.000000	0.001607	0.001744	28.082	0.008754	0.002111	4.147377	-55.7241	-164.499	-0.003164	0.777317	-0.275632	-0.276943	0.005982	4.147377	-0.276714	-2105.39	-2.841189E-6	NaN
1162	1.000000	0.786631	7.37642e+06	-57489.1	1105.82	-29736.7	0.000000	0.000000	6.787059	0.030918	NaN	0.000000	0.001615	0.001725	28.0818	0.082307	0.001956	42.0723	-151.392	-166.872	0.012777	0.785350	-0.267629	-0.268909	0.030918	42.0723	-0.268180	-1562.63	-1.978589E-5	NaN
1162	1.000000	0.794645	7.37642e+06	-57489.1	1105.82	-29736.7	0.000000	0.000000	6.795073	0.044173	NaN	0.000000	0.001627	0.001741	28.0819	0.077471	0.002151	36.0219	-32.2336	-166.951	0.073013	0.793308	-0.259615	-0.260952	0.044173	36.0219	-0.260535	-1194.31	-3.698632E-5	NaN
1162	1.000000	0.802644	7.37642e+06	-57489.1	1105.82	-29736.7	0.000000	0.000000	6.803068	-0.047376	NaN	0.000000	0.001594	0.001740	28.0818	0.042014	0.002045	20.5427	133.954	-167.94	-0.057939	0.801309	-0.251616	-0.252951	-0.047376	20.5427	-0.249887	-818.866	5.785541E-5	NaN
1162	1.000000	0.810648	7.37642e+06	-57489.1	1105.82	-29736.7	0.000000	0.000000	6.811073	-0.011338	NaN	0.000000	0.001604	0.001746	28.082	0.023503	0.001910	12.3072	105.576	-168.543	0.045074	0.809328	-0.243612	-0.244932	-0.011338	12.3072	-0.242921	-638.433	1.775874E-5	NaN
1162	1.000000	0.818636	7.37642e+06	-57489.1	1105.82	-29736.7	0.000000	0.000000	6.819065	0.050602	NaN	0.000000	0.001612	0.001716	28.0831	0.072073	0.002025	35.594	141.748	-164.749	-0.026752	0.817330	-0.235623	-0.236930	0.050602	35.594	-0.236690	-510.22	-9.917732E-5	NaN
1162	1.000000	0.826639	7.37642e+06	-57489.1	1105.82	-29736.7	0.000000	0.000000	6.827066	0.010172	NaN	0.000000	0.001642	0.001727	28.0829	0.102213	0.001958	52.2116	168.066	-167.519	-0.001176	0.825364	-0.227620	-0.228896	0.010172	52.2116	-0.227766	-369.15	-2.755447E-5	NaN
1162	1.000000	0.834656	7.37642e+06	-57489.1	1105.82	-29736.7	0.000000	0.000000	6.835083	0.019233	NaN	0.000000	0.001624	0.001725	28.0833	0.135276	0.002012	67.2407	93.1347	-166.667	0.066278	0.833323	-0.219604	-0.220937	0.019233	67.2407	-0.219819	-275.915	-6.970779E-5	NaN
1162	1.000000	0.842667	7.37642e+06	-57489.1	1105.82	-29736.7	0.000000	0.000000	6.843093	-0.000233	NaN	0.000000	0.001607	0.001673	28.083	0.108422	0.002008	53.9931	-128.665	-170.676	0.074042	0.841351	-0.211593	-0.212909	-0.000233	53.9931	-0.211590	-203.485	1.144405E-6	NaN
1162	1.000000	0.850672	7.37642e+06	-57489.1	1105.82	-29736.7	0.000000	0.000000	6.851101	0.071104	NaN	0.000000	0.001659	0.001669	28.0832	0.037124	0.001935	19.1887	80.3018	-166.382	0.004073	0.849335	-0.203588	-0.204925	0.071104	19.1887	-0.206367	-167.431	-0.000425	NaN
1162	1.000000	0.858628	7.37642e+06	-57489.1	1105.82	-29736.7	0.000000	0.000000	6.859054	0.004640	NaN	0.000000	0.001648	0.001700	28.0828	0.026675	0.001927	13.8412	174.943	-168.148	0.020016	0.857351	-0.195632	-0.196909	0.004640	13.8412	-0.195883	-112.675	-4.117995E-5	NaN
1162	1.000000	0.866678	7.37642e+06	-57489.1	1105.82	-29736.7	0.000000	0.000000	6.867103	-0.024639	NaN	0.000000	0.001643	0.001677	28.0827	0.027028	0.002100	12.8694	-38.6296	-166.733	-0.064745	0.865327	-0.187582	-0.188933	-0.024639	12.8694	-0.186146	-77.5215	0.000318	NaN
1162	1.000000	0.874641	7.37642e+06	-57489.1	1105.82	-29736.7	0.000000	0.000000	6.875068	0.000690	NaN	0.000000	0.001627	0.001677	28.0828	0.076434	0.002111	36.2133	-47.2655	-169.219	-0.010848	0.873342	-0.179619	-0.180918	0.000690	36.2133	-0.179633	-60.1477	-1.147173E-5	NaN
1162	1.000000	0.882642	7.37642e+06	-57489.1	1105.82	-29736.7	0.000000	0.000000	6.883068	-0.014662	NaN	0.000000	0.001595	0.001662	28.083	0.067466	0.002036	33.1412	-148.793	-167.979	-0.053308	0.881339	-0.171618	-0.172921	-0.014662	33.1412	-0.171286	-43.2428	0.000339	NaN
1162	1.000000	0.890673	7.37642e+06	-57489.1	1105.82	-29736.7	0.000000	0.000000	6.891101	0.034894	NaN	0.000000	0.001650	0.001641	28.0832	0.085065	0.001947	43.6819	4.347170	-164.594	0.011626	0.889411	-0.163587	-0.164849	0.034894	43.6819	-0.164186	-32.5085	-0.001073	NaN
1162	1.000000	0.898650	7.37642e+06	-57489.1	1105.82	-29736.7	0.000000	0.000000	6.899075	-0.019669	NaN	0.000000	0.001615	0.001655	28.0829	0.050500	0.002089	24.1686	124.038	-165.305	0.032263	0.897373	-0.155610	-0.156887	-0.019669	24.1686	-0.154999	-22.3136	0.000881	NaN
1162	1.000000	0.906660	7.37642e+06	-57489.1	1105.82	-29736.7	0.000000	0.000000	6.907086	-0.013358	NaN	0.000000	0.001653	0.001687	28.0829	0.035397	0.001911	18.5249	-114.105	-168.516	0.020900	0.905421	-0.147600	-0.148839	-0.013358	18.5249	-0.147059	-16.0009	0.000835	NaN
1162	1.000000	0.914653	7.37642e+06	-57489.1	1105.82	-29736.7	0.000000	0.000000	6.915081	0.043941	NaN	0.000000	0.001618	0.001658	28.083	0.059153	0.001951	30.3254	-9.740278	-164.9	0.050653	0.913374	-0.139607	-0.140886	0.043941	30.3254	-0.140693	-12.1892	-0.003605	NaN
1162	1.000000	0.922688	7.37642e+06	-57489.1	1105.82	-29736.7	0.000000	0.000000	6.923115	0.011978	NaN	0.000000	0.001645	0.001667	28.0826	0.037894	0.001994	19.0023	152.107	-166.781	0.020202	0.921367	-0.131572	-0.132893	0.011978	19.0023	-0.132045	-8.348049	-0.001435	NaN
1162	1.000000	0.930691	7.37642e+06	-57489.1	1105.82	-29736.7	0.000000	0.000000	6.931116	-0.022025	NaN	0.000000	0.001610	0.001630	28.0832	0.091884	0.002043	44.9721	-93.7599	-165.985	0.009464	0.929378	-0.123569	-0.124881	-0.022025	44.9721	-0.123202	-5.601358	0.003932	NaN
1162	1.000000	0.938720	7.37642e+06	-57489.1	1105.82	-29736.7	0.000000	0.000000	6.939148	0.049636	NaN	0.000000	0.001645	0.001701	28.0834	0.030677	0.001926	15.9242	47.1184	-169.814	-0.039353	0.937406	-0.115540	-0.116854	0.049636	15.9242	-0.117877	-4.375767	-0.011343	NaN
1162	1.000000	0.946677	7.37642e+06	-57489.1	1105.82	-29736.7	0.000000	0.000000	6.947104	0.017485	NaN	0.000000	0.001640	0.001689	28.083	0.048254	0.002026	23.812	66.8293	-166.175	0.029318	0.945377	-0.107583	-0.108883	0.017485	23.812	-0.108134	-2.743741	-0.006373	NaN
1162	1.000000	0.954708	7.37642e+06	-57489.1	1105.82	-29736.7	0.000000	0.000000	6.955135	0.036274	NaN	0.000000	0.001622	0.001696	28.0817	0.114117	0.001979	57.6688	-141.096	-165.88	0.091533	0.953420	-0.099552	-0.100840	0.036274	57.6688	-0.100024	-1.829396	-0.019829	NaN
1162	1.000000	0.962715	7.37642e+06	-57489.1	1105.82	-29736.7	0.000000	0.000000	6.963142	0.015526	NaN	0.000000	0.001591	0.001682	28.0818	0.033057	0.001950	16.9541	-53.1473	-165.81	0.071609	0.961411	-0.091545	-0.092849	0.015526	16.9541	-0.092232	-1.218505	-0.012742	NaN
1162	1.000000	0.970700	7.37642e+06	-57489.1	1105.82	-29736.7	0.000000	0.000000	6.971124	-0.048711	NaN	0.000000	0.001611	0.001665	28.082	0.126790	0.001981	64.0151	29.4478	-170.206	-0.014158	0.969390	-0.083560	-0.084869	-0.048711	64.0151	-0.082989	-0.733997	0.066363	NaN
1162	1.000000	0.978737	7.37642e+06	-57489.1	1105.82	-29736.7	0.000000	0.000000	6.979164	0.014013	NaN	0.000000	0.001625	0.001701	28.082	0.108521	0.001994	54.4256	-79.4109	-168.111	-0.002084	0.977403	-0.075523	-0.076857	0.014013	54.4256	-0.075716	-0.481934	-0.029076	NaN
1162	1.000000	0.986703	7.37642e+06	-57489.1	1105.82	-29736.7	0.000000	0.000000	6.987128	-0.008918	NaN	0.000000	0.001634	0.001689	28.0818	0.025286	0.002045	12.365	150.054	-169.942	-0.033459	0.985400	-0.067557	-0.068860	-0.008918	12.365	-0.067016	-0.283219	0.031489	NaN
1162	1.000000	0.994707	7.37642e+06	-57489.1	1105.82	-29736.7	0.000000	0.000000	6.995133	-0.003290	NaN	0.000000	0.001661	0.001669	28.0818	0.097823	0.001999	48.9355	-104.824	-167.843	-0.099126	0.993418	-0.059553	-0.060842	-0.003290	48.9355	-0.059502	-0.174261	0.018882	NaN
1162	1.000000	1.002723	7.37642e+06	-57489.1	1105.82	-29736.7	0.000000	0.000000	7.003151	0.041682	NaN	0.000000	0.001635	0.001671	28.0817	0.059688	0.001992	29.9603	138.12	-167.315	0.023111	1.001371	-0.051537	-0.052888	0.041682	29.9603	-0.052580	-0.109110	-0.382019	NaN
1162	1.000000	1.010714	7.37642e+06	-57489.1	1105.82	-29736.7	0.000000	0.000000	7.011141	0.016571	NaN	0.000000	0.001645	0.001622	28.0819	0.047273	0.002029	23.3038	160.856	-163.566	0.041968	1.009417	-0.043546	-0.044842	0.016571	23.3038	-0.044079	-0.060234	-0.275107	NaN
1162	1.000000	1.018719	7.37642e+06	-57489.1	1105.82	-29736.7	0.000000	0.000000	7.019147	0.044968	NaN	0.000000	0.001623	0.001673	28.0819	0.040574	0.002082	19.4889	11.7546	-165.8	0.022595	1.017413	-0.035541	-0.036847	0.044968	19.4889	-0.037271	-0.037410	-1.202040	NaN
1162	1.000000	1.026720	7.37642e+06	-57489.1	1105.82	-29736.7	0.000000	0.000000	7.027145	-0.020574	NaN	0.000000	0.001652	0.001663	28.0818	0.045279	0.001984	22.8163	-156.097	-167.356	0.030690	1.025437	-0.027540	-0.028823	-0.020574	22.8163	-0.026864	-0.018895	1.088825	NaN
1162	1.000000	1.034723	7.37642e+06	-57489.1	1105.82	-29736.7	0.000000	0.000000	7.035149	0.010309	NaN	0.000000	0.001617	0.001663	28.0818	0.063621	0.002063	30.8444	-138.638	-171.693	0.032292	1.033442	-0.019537	-0.020817	0.010309	30.8444	-0.019788	-0.012406	-0.830946	NaN
1162	1.000000	1.042756	7.37642e+06	-57489.1	1105.82	-29736.7	0.000000	0.000000	7.043179	-0.074094	NaN	0.000000	0.001605	0.001663	28.0817	0.047573	0.002021	23.5387	112.556	-165.88	-0.045573	1.041400	-0.011504	-0.012860	-0.074094	23.5387	-0.009143	-0.005895	12.5682	NaN
1162	1.000000	1.050731	7.37642e+06	-57489.1	1105.82	-29736.7	0.000000	0.000000	7.051159	0.031652	NaN	0.000000	0.001609	0.001686	28.0817	0.182909	0.002053	89.0927	41.7074	-163.059	-0.055041	1.049443	-0.003528	-0.004817	0.031652	89.0927	-0.003795	-0.002646	-11.9643	NaN
1162	1.000000	1.058624	7.37642e+06	-57489.1	1105.82	-29736.7	0.000000	0.000000	7.059391	8.280265	NaN	0.000000	0.001596	0.001684	28.0819	7.857462	0.001661	4731.16	14.06	-177.604	7.204072	1.057402	0.004364	0.003143	8.280265	4731.16	0.003051	0.002423	3417.26	87812.8
1162	2.000000	1.061335	7.37642e+06	-57489.1	1105.82	-29736.7	0.000000	0.000000	7.062208	10.8677	NaN	0.000000	0.001606	0.001670	28.0819	10.2896	0.001743	5903.32	9.942858	-173.073	10.5074	1.061010	0.007075	0.006750	10.8677	5903.32	0.005694	0.004776	2275.64	78046.3
1162	2.000000	1.063304	7.37642e+06	-57489.1	1105.82	-29736.7	0.000000	0.000000	7.064312	14.1435	NaN	0.000000	0.001618	0.001736	28.0817	11.8484	0.001579	7502.91	5.588856	-174.628	14.1797	1.062972	0.009044	0.008712	14.1435	7502.91	0.007630	0.006665	2122.2	83968.8
1162	2.000000	1.065271	7.37642e+06	-57489.1	1105.82	-29736.7	0.000000	0.000000	7.066299	14.6193	NaN	0.000000	0.001601	0.001671	28.0817	14.9124	0.001811	8234.69	9.025546	-179.347	13.5131	1.064982	0.011011	0.010722	14.6193	8234.69	0.009679	0.008827	1656.12	80076
1162	2.000000	1.067287	7.37642e+06	-57489.1	1105.82	-29736.7	0.000000	0.000000	7.068459	18.1321	NaN	0.000000	0.001602	0.001687	28.0829	15.7764	0.001702	9269.5	6.093930	-175.67	18.1748	1.066911	0.013027	0.012651	18.1321	9269.5	0.011560	0.010967	1653.26	80867.9
1162	2.000000	1.069254	7.37642e+06	-57489.1	1105.82	-29736.7	0.000000	0.000000	7.070572	21.6734	NaN	0.000000	0.001610	0.001684	28.0832	18.2727	0.001838	9942.4	8.502016	-178.522	22.0385	1.068897	0.014994	0.014637	21.6734	9942.4	0.013359	0.013160	1646.97	79185.2
1162	2.000000	1.071303	7.37642e+06	-57489.1	1105.82	-29736.7	0.000000	0.000000	7.072872	27.7852	NaN	0.000000	0.001610	0.001719	28.0831	20.3508	0.001843	11041.6	3.012752	-175.225	26.9436	1.070969	0.017043	0.016709	27.7852	11041.6	0.015155	0.015493	1793.37	81046.6
1162	2.000000	1.073202	7.37642e+06	-57489.1	1105.82	-29736.7	0.000000	0.000000	7.075033	34.1327	NaN	0.000000	0.001617	0.001721	28.0835	22.184	0.001738	12767.4	7.761387	179.538	31.916	1.072900	0.018942	0.018641	34.1327	12767.4	0.016937	0.017956	1900.92	87050.8
1162	2.000000	1.075211	7.37642e+06	-57489.1	1105.82	-29736.7	0.000000	0.000000	7.076987	32.8146	NaN	0.000000	0.001601	0.001652	28.0834	24.1191	0.001881	12825.5	5.874380	-178.505	31.2278	1.074959	0.020951	0.020699	32.8146	12825.5	0.019032	0.021044	1559.35	80776.7
1162	2.000000	1.077234	7.37642e+06	-57489.1	1105.82	-29736.7	0.000000	0.000000	7.079235	38.2629	NaN	0.000000	0.001614	0.001675	28.083	25.5401	0.001754	14564.9	4.093410	-178.877	36.8307	1.076922	0.022974	0.022662	38.2629	14564.9	0.021004	0.024144	1584.76	85639.1
1162	2.000000	1.079202	7.37642e+06	-57489.1	1105.82	-29736.7	0.000000	0.000000	7.081543	46.5357	NaN	0.000000	0.001543	0.001669	28.0832	26.8133	0.001660	16151	0.333396	-176.728	44.4709	1.078887	0.024942	0.024627	46.5357	16151	0.022781	0.027103	1717.02	89632.8
1162	2.000000	1.081293	7.37642e+06	-57489.1	1105.82	-29736.7	0.000000	0.000000	7.083767	49.7505	NaN	0.000000	0.001586	0.001674	28.0831	29.3069	0.001620	18092.2	3.483204	179.768	48.9607	1.080943	0.027034	0.026683	49.7505	18092.2	0.024971	0.030963	1606.76	93938.1
1162	2.000000	1.083184	7.37642e+06	-57489.1	1105.82	-29736.7	0.000000	0.000000	7.085826	53.846	NaN	0.000000	0.001575	0.001648	28.0832	30.8318	0.001711	18024.8	0.747680	-177.693	51.3353	1.082979	0.028924	0.028720	53.846	18024.8	0.026684	0.034150	1576.76	89114.6
1162	2.000000	1.085287	7.37642e+06	-57489.1	1105.82	-29736.7	0.000000	0.000000	7.088122	58.5464	NaN	0.000000	0.001582	0.001678	28.0832	34.0259	0.001870	18191.3	10.6222	175.013	60.0434	1.084864	0.031027	0.030604	58.5464	18191.3	0.028614	0.037919	1543.97	85350.4
1162	2.000000	1.087245	7.37642e+06	-57489.1	1105.82	-29736.7	0.000000	0.000000	7.090257	62.859	NaN	0.000000	0.001602	0.001669	28.0831	34.7506	0.001904	18247.3	3.846903	-179.989	62.4166	1.086979	0.032985	0.032720	62.859	18247.3	0.030401	0.041579	1511.79	81759
1162	2.000000	1.089200	7.37642e+06	-57489.1	1105.82	-29736.7	0.000000	0.000000	7.092475	69.229	NaN	0.000000	0.001616	0.001701	28.0831	38.034	0.001937	19639.5	6.063971	176.851	68.4642	1.088971	0.034940	0.034711	69.229	19639.5	0.032296	0.045638	1516.91	83992.1
1162	2.000000	1.091247	7.37642e+06	-57489.1	1105.82	-29736.7	0.000000	0.000000	7.094654	72.4661	NaN	0.000000	0.001629	0.001673	28.0832	39.1898	0.001779	22030.5	5.482902	176.179	72.2456	1.090873	0.036987	0.036613	72.4661	22030.5	0.034520	0.050634	1431.18	89449.5
1162	2.000000	1.093227	7.37642e+06	-57489.1	1105.82	-29736.7	0.000000	0.000000	7.097046	82.4616	NaN	0.000000	0.001621	0.001672	28.0834	40.5537	0.001646	24643.4	6.477746	174.327	84.2362	1.092900	0.038967	0.038641	82.4616	24643.4	0.036457	0.055194	1494.03	95835.8
1162	2.000000	1.095248	7.37642e+06	-57489.1	1105.82	-29736.7	0.000000	0.000000	7.099173	85.0254	NaN	0.000000	0.001613	0.001664	28.0833	43.189	0.001831	23591.9	3.262476	178.173	86.6786	1.094934	0.040989	0.040674	85.0254	23591.9	0.038286	0.059673	1424.86	88236.5
1162	2.000000	1.097175	7.37642e+06	-57489.1	1105.82	-29736.7	0.000000	0.000000	7.101652	98.4383	NaN	0.000000	0.001661	0.001686	28.0831	44.4375	0.001773	25061.9	3.795122	176.96	96.4978	1.096930	0.042916	0.042671	98.4383	25061.9	0.039970	0.063950	1539.3	90545.3
1162	2.000000	1.099238	7.37642e+06	-57489.1	1105.82	-29736.7	0.000000	0.000000	7.104042	106.391	NaN	0.000000	0.001621	0.001682	28.0832	45.337	0.001696	26732.9	2.298717	178.604	107.292	1.098945	0.044978	0.044685	106.391	26732.9	0.041994	0.069282	1535.63	92791.8
1162	2.000000	1.101165	7.37642e+06	-57489.1	1105.82	-29736.7	0.000000	0.000000	7.106327	115.096	NaN	0.000000	0.001635	0.001702	28.082	48.7954	0.001821	26796.3	4.487868	176.123	112.042	1.100884	0.046905	0.046624	115.096	26796.3	0.043684	0.073895	1557.57	90061.8
1162	2.000000	1.103189	7.37642e+06	-57489.1	1105.82	-29736.7	0.000000	0.000000	7.108597	121.081	NaN	0.000000	0.001669	0.001694	28.0823	50.196	0.001795	27966	5.540452	175.35	120.846	1.102871	0.048929	0.048611	121.081	27966	0.045682	0.079535	1522.37	90599.5
1162	2.000000	1.105213	7.37642e+06	-57489.1	1105.82	-29736.7	0.000000	0.000000	7.110862	126.955	NaN	0.000000	0.001634	0.001660	28.0822	52.5845	0.001869	28129.6	2.185404	177.715	125.978	1.104948	0.050953	0.050688	126.955	28129.6	0.047568	0.085044	1492.81	88128
1162	2.000000	1.107102	7.37642e+06	-57489.1	1105.82	-29736.7	0.000000	0.000000	7.113394	142.573	NaN	0.000000	0.001636	0.001671	28.0819	53.0957	0.001888	28115.3	2.664724	177.713	139.46	1.106897	0.052842	0.052637	142.573	28115.3	0.049039	0.089465	1593.62	85879.4
1162	2.000000	1.109224	7.37642e+06	-57489.1	1105.82	-29736.7	0.000000	0.000000	7.115748	148.211	NaN	0.000000	0.001669	0.001665	28.0822	55.7234	0.001808	30817.1	4.696690	175.539	149.35	1.108823	0.054964	0.054563	148.211	30817.1	0.051357	0.096654	1533.41	90563.8
1162	2.000000	1.111204	7.37642e+06	-57489.1	1105.82	-29736.7	0.000000	0.000000	7.118007	154.986	NaN	0.000000	0.001677	0.001635	28.0822	57.4526	0.001813	31685.5	3.117855	176.275	154.322	1.110932	0.056944	0.056672	154.986	31685.5	0.053275	0.102805	1507.58	90287.2
1162	2.000000	1.113147	7.37642e+06	-57489.1	1105.82	-29736.7	0.000000	0.000000	7.120587	170.471	NaN	0.000000	0.001676	0.001647	28.0823	59.0956	0.001830	32287.6	3.427038	175.982	168.615	1.112929	0.058887	0.058669	170.471	32287.6	0.054928	0.108250	1574.79	89659.2
1162	2.000000	1.115160	7.37642e+06	-57489.1	1105.82	-29736.7	0.000000	0.000000	7.122786	174.988	NaN	0.000000	0.001650	0.001625	28.0825	62.1438	0.001879	33078.5	4.371230	174.011	172.948	1.114927	0.060900	0.060667	174.988	33078.5	0.056933	0.115040	1521.11	89103.6
1162	2.000000	1.117177	7.37642e+06	-57489.1	1105.82	-29736.7	0.000000	0.000000	7.125435	190.345	NaN	0.000000	0.001643	0.001649	28.082	62.7759	0.001792	35025.6	3.357979	175.343	190.168	1.116804	0.062917	0.062545	190.345	35025.6	0.058842	0.121687	1564.21	91735.2
1162	2.000000	1.119195	7.37642e+06	-57489.1	1105.82	-29736.7	0.000000	0.000000	7.127810	199.02	NaN	0.000000	0.001655	0.001643	28.0821	66.7618	0.001796	37175.1	10.8788	167.198	201.001	1.118778	0.064936	0.064518	199.02	37175.1	0.060920	0.129130	1541.24	94517.5
1162	2.000000	1.121210	7.37642e+06	-57489.1	1105.82	-29736.7	0.000000	0.000000	7.130309	210.784	NaN	0.000000	0.001621	0.001696	28.0823	68.0843	0.001854	36725.9	6.464268	172.818	210.56	1.120794	0.066951	0.066534	210.784	36725.9	0.062646	0.135467	1555.98	91165.2
1162	2.000000	1.123239	7.37642e+06	-57489.1	1105.82	-29736.7	0.000000	0.000000	7.132653	218.455	NaN	0.000000	0.001668	0.001678	28.0822	68.9987	0.001757	39271.3	5.597638	172.801	222.523	1.122784	0.068979	0.068524	218.455	39271.3	0.064807	0.143607	1521.21	94680.7
1162	2.000000	1.125117	7.37642e+06	-57489.1	1105.82	-29736.7	0.000000	0.000000	7.135063	231.359	NaN	0.000000	0.001675	0.001655	28.0821	71.0444	0.001804	39374.8	3.905180	174.378	228.325	1.124845	0.070857	0.070585	231.359	39374.8	0.066451	0.149950	1542.91	92900.6
1162	2.000000	1.127121	7.37642e+06	-57489.1	1105.82	-29736.7	0.000000	0.000000	7.137603	244.386	NaN	0.000000	0.001695	0.001662	28.0819	72.4232	0.001752	41331	7.023255	170.477	241.092	1.126713	0.072862	0.072453	244.386	41331	0.068427	0.157748	1549.22	95075.3
1162	2.000000	1.129147	7.37642e+06	-57489.1	1105.82	-29736.7	0.000000	0.000000	7.139983	253.019	NaN	0.000000	0.001708	0.001648	28.0821	74.9875	0.001760	42611.7	4.188174	172.36	250.845	1.128848	0.074887	0.074588	253.019	42611.7	0.070434	0.165856	1525.53	95595.2
1162	2.000000	1.131211	7.37642e+06	-57489.1	1105.82	-29736.7	0.000000	0.000000	7.142677	268.324	NaN	0.000000	0.001706	0.001634	28.0818	77.5809	0.001839	42194.2	4.868266	172.624	269.266	1.130854	0.076951	0.076594	268.324	42194.2	0.072181	0.173074	1550.34	92663.7
1162	2.000000	1.133133	7.37642e+06	-57489.1	1105.82	-29736.7	0.000000	0.000000	7.144967	277.238	NaN	0.000000	0.001647	0.001663	28.0822	78.7959	0.001727	45619.7	6.362359	169.818	276.04	1.132854	0.078874	0.078594	277.238	45619.7	0.074316	0.182085	1522.57	97676.2
1162	2.000000	1.135149	7.37642e+06	-57489.1	1105.82	-29736.7	0.000000	0.000000	7.147713	295.009	NaN	0.000000	0.001609	0.001649	28.0833	80.4367	0.001702	47271.1	3.168769	172.764	294.913	1.134873	0.080889	0.080614	295.009	47271.1	0.076209	0.190256	1550.59	99014.6
1162	2.000000	1.137148	7.37642e+06	-57489.1	1105.82	-29736.7	0.000000	0.000000	7.150266	308.478	NaN	0.000000	0.001626	0.001695	28.0834	80.8584	0.001713	47210.6	2.956113	173.285	308.091	1.136815	0.082888	0.082555	308.478	47210.6	0.077988	0.198090	1557.26	96913
1162	2.000000	1.139124	7.37642e+06	-57489.1	1105.82	-29736.7	0.000000	0.000000	7.152632	317.951	NaN	0.000000	0.001615	0.001667	28.0834	84.8513	0.001838	46174.1	3.119932	173.11	315.166	1.138819	0.084864	0.084559	317.951	46174.1	0.079700	0.205769	1545.18	92999.8
1162	2.000000	1.141069	7.37642e+06	-57489.1	1105.82	-29736.7	0.000000	0.000000	7.155297	335.443	NaN	0.000000	0.001638	0.001668	28.0834	86.0236	0.001769	48617.1	2.881972	173.128	328.84	1.140874	0.086809	0.086614	335.443	48617.1	0.081634	0.214607	1563.06	95882.7
1162	2.000000	1.143122	7.37642e+06	-57489.1	1105.82	-29736.7	0.000000	0.000000	7.157601	341.553	NaN	0.000000	0.001621	0.001673	28.0835	86.9195	0.001735	50093.1	1.555999	174.457	340.967	1.142825	0.088862	0.088565	341.553	50093.1	0.083748	0.224465	1521.63	96599.8
1162	2.000000	1.145079	7.37642e+06	-57489.1	1105.82	-29736.7	0.000000	0.000000	7.160213	357.46	NaN	0.000000	0.001622	0.001661	28.0835	91.1619	0.001729	52712.6	4.746996	170.516	354.199	1.144884	0.090820	0.090625	357.46	52712.6	0.085734	0.233913	1528.17	99577.2
1162	2.000000	1.147129	7.37642e+06	-57489.1	1105.82	-29736.7	0.000000	0.000000	7.162870	372.216	NaN	0.000000	0.001619	0.001652	28.0837	92.2052	0.001724	53479.2	6.196402	168.509	368.925	1.146843	0.092869	0.092583	372.216	53479.2	0.087649	0.243199	1530.5	99078
1162	2.000000	1.149142	7.37642e+06	-57489.1	1105.82	-29736.7	0.000000	0.000000	7.165476	386.64	NaN	0.000000	0.001624	0.001663	28.0835	93.4497	0.001819	51380.1	2.934477	172.907	384.976	1.148811	0.094882	0.094551	386.64	51380.1	0.089238	0.251033	1540.2	93692
1162	2.000000	1.151103	7.37642e+06	-57489.1	1105.82	-29736.7	0.000000	0.000000	7.167887	397.566	NaN	0.000000	0.001599	0.001683	28.0835	96.5666	0.001833	52680.1	9.597335	166.308	393.232	1.150770	0.096844	0.096511	397.566	52680.1	0.091184	0.260780	1524.53	94250.4
1162	2.000000	1.153124	7.37642e+06	-57489.1	1105.82	-29736.7	0.000000	0.000000	7.170877	421.125	NaN	0.000000	0.001646	0.001687	28.0836	97.0245	0.001885	51483	5.297490	170.535	420.454	1.152779	0.098864	0.098519	421.125	51483	0.092729	0.268648	1567.57	90749.8
1162	2.000000	1.155008	7.37642e+06	-57489.1	1105.82	-29736.7	0.000000	0.000000	7.173195	431.668	NaN	0.000000	0.001694	0.001673	28.0833	99.6046	0.001813	54940.1	6.063333	168.808	424.392	1.154812	0.100749	0.100552	431.668	54940.1	0.094856	0.279650	1543.6	94919.5
1162	2.000000	1.157037	7.37642e+06	-57489.1	1105.82	-29736.7	0.000000	0.000000	7.175684	442.83	NaN	0.000000	0.001662	0.001675	28.0839	98.3793	0.001700	57864.1	-0.002547	174.656	436.374	1.156691	0.102778	0.102431	442.83	57864.1	0.097038	0.291155	1520.94	97976.1
1162	2.000000	1.158124	7.37642e+06	-57489.1	1105.82	-29736.7	0.000000	0.000000	7.177617	463.411	NaN	0.000000	0.001662	0.001656	28.0835	102.003	0.001842	55364.2	6.997797	168.464	462.968	1.157691	0.103864	0.103432	463.411	55364.2	0.097587	0.294082	1575.79	93275.4