File: remote_trans/data/nanoindenter/0828-1/data/Data_2025-08-06,11h17m57s/2025-07-22_16-23-58_1_463.txt
2025-07-22, 16:23:58, 1
Index	Phase	Displacement	Time	Pos X	Pos Y	Pos Z	Rot A	Rot B	Piezo Z	Force A	Force B	Gripper	Voltage A	Voltage B	Temperature	Amplitude force	Amplitude pos	Stiffness	Phase shift	Phase excitation	Force A raw	Displacement raw	HMax	HMax raw	Real Force	Real Stiffness	Contact Depth	Area	Hardness	Reduced Mod.
[#]	[#]	[um]	[s]	[um]	[um]	[um]	[m°]	[m°]	[um]	[uN]	[uN]	[V]	[V]	[V]	[°C]	[uN]	[um]	[N/m]	[°]	[°]	[uN]	[um]	[um]	[um]	[uN]	[N/m]	[um]	[um^2]	[MPa]	[MPa]
463	1.000000	0.002196	7.36959e+06	-53939.1	1005.82	-29745	0.000000	0.000000	6.002800	-0.022022	NaN	0.000000	0.001504	0.001726	28.0808	0.028408	0.000908	31.2953	39.7911	-161.542	-0.060819	0.000974	-1.055681	-1.056903	-0.022022	31.2953	-1.055153	-1.252216E+14	1.758619E-16	NaN
463	1.000000	0.010166	7.36959e+06	-53939.1	1005.82	-29745	0.000000	0.000000	6.010771	0.014857	NaN	0.000000	0.001519	0.001770	28.0807	0.052613	0.001102	47.7525	46.2166	-158.444	-0.054934	0.008829	-1.047711	-1.049048	0.014857	47.7525	-1.047944	-1.001802E+14	-1.483017E-16	NaN
463	1.000000	0.018154	7.36959e+06	-53939.1	1005.82	-29745	0.000000	0.000000	6.018757	-0.045186	NaN	0.000000	0.001553	0.001757	28.0803	0.005004	0.001604	3.120235	-67.3659	-165.023	-0.025676	0.016883	-1.039723	-1.040994	-0.045186	3.120235	-1.028862	-5.548417E+13	8.143931E-16	NaN
463	1.000000	0.026188	7.36959e+06	-53939.1	1005.82	-29745	0.000000	0.000000	6.026788	-0.097344	NaN	0.000000	0.001582	0.001702	28.0802	0.045079	0.001797	25.0866	-2.363635	-170.799	-0.125275	0.024849	-1.031689	-1.033028	-0.097344	25.0866	-1.028779	-5.534203E+13	1.758944E-15	NaN
463	1.000000	0.034168	7.36959e+06	-53939.1	1005.82	-29745	0.000000	0.000000	6.034774	0.023487	NaN	0.000000	0.001551	0.001792	28.08	0.029898	0.001911	15.6479	46.1648	-165.861	-0.033275	0.032898	-1.023709	-1.024979	0.023487	15.6479	-1.024834	-4.897730E+13	-4.795485E-16	NaN
463	1.000000	0.042127	7.36959e+06	-53939.1	1005.82	-29745	0.000000	0.000000	6.042730	-0.048753	NaN	0.000000	0.001534	0.001741	28.0798	0.033119	0.001964	16.8605	114.703	-168.916	-0.023619	0.040864	-1.015750	-1.017013	-0.048753	16.8605	-1.013581	-3.456058E+13	1.410659E-15	NaN
463	1.000000	0.050165	7.36959e+06	-53939.1	1005.82	-29745	0.000000	0.000000	6.050769	-0.012772	NaN	0.000000	0.001518	0.001723	28.0801	0.069565	0.002035	34.1868	98.4201	-168.005	-0.030737	0.048811	-1.007712	-1.009066	-0.012772	34.1868	-1.007432	-2.856369E+13	4.471302E-16	NaN
463	1.000000	0.058164	7.36959e+06	-53939.1	1005.82	-29745	0.000000	0.000000	6.058767	-0.045000	NaN	0.000000	0.001574	0.001740	28.0801	0.127468	0.002190	58.1994	44.2584	-163.926	-0.071125	0.056838	-0.999713	-1.001039	-0.045000	58.1994	-0.999133	-2.208504E+13	2.037576E-15	NaN
463	1.000000	0.066123	7.36959e+06	-53939.1	1005.82	-29745	0.000000	0.000000	6.066727	-0.034908	NaN	0.000000	0.001572	0.001736	28.0805	0.085099	0.001974	43.1005	-61.8342	-164.305	-0.008709	0.064824	-0.991753	-0.993053	-0.034908	43.1005	-0.991146	-1.724035E+13	2.024773E-15	NaN
463	1.000000	0.074123	7.36959e+06	-53939.1	1005.82	-29745	0.000000	0.000000	6.074727	-0.018283	NaN	0.000000	0.001533	0.001730	28.0803	0.109261	0.001789	61.0889	-120.885	-167.76	-0.097317	0.072845	-0.983754	-0.985032	-0.018283	61.0889	-0.983529	-1.361309E+13	1.343014E-15	NaN
463	1.000000	0.082136	7.36959e+06	-53939.1	1005.82	-29745	0.000000	0.000000	6.082742	0.036258	NaN	0.000000	0.001515	0.001726	28.0789	0.066802	0.002077	32.1674	-59.4381	-167.079	0.038154	0.080823	-0.975741	-0.977054	0.036258	32.1674	-0.976587	-1.097542E+13	-3.303579E-15	NaN
463	1.000000	0.090187	7.36959e+06	-53939.1	1005.82	-29745	0.000000	0.000000	6.090794	0.074280	NaN	0.000000	0.001592	0.001698	28.0789	0.096668	0.001980	48.8192	-126.444	-165.591	-0.043576	0.088832	-0.967690	-0.969045	0.074280	48.8192	-0.968832	-8.628106E+12	-8.609021E-15	NaN
463	1.000000	0.098166	7.36959e+06	-53939.1	1005.82	-29745	0.000000	0.000000	6.098768	-0.056205	NaN	0.000000	0.001567	0.001726	28.0789	0.043324	0.001981	21.8642	171.561	-163.391	-0.120510	0.096788	-0.959711	-0.961089	-0.056205	21.8642	-0.957783	-6.123197E+12	9.179007E-15	NaN
463	1.000000	0.106192	7.36959e+06	-53939.1	1005.82	-29745	0.000000	0.000000	6.106794	-0.065148	NaN	0.000000	0.001561	0.001737	28.079	0.045176	0.001880	24.0243	137.707	-163.369	-0.019679	0.104822	-0.951685	-0.953055	-0.065148	24.0243	-0.949651	-4.756924E+12	1.369534E-14	NaN
463	1.000000	0.114187	7.36959e+06	-53939.1	1005.82	-29745	0.000000	0.000000	6.114789	-0.058097	NaN	0.000000	0.001554	0.001745	28.0789	0.081967	0.002195	37.3432	61.544	-164.661	-0.109003	0.112861	-0.943690	-0.945016	-0.058097	37.3432	-0.942523	-3.812227E+12	1.523969E-14	NaN
463	1.000000	0.122168	7.36959e+06	-53939.1	1005.82	-29745	0.000000	0.000000	6.122770	-0.058426	NaN	0.000000	0.001557	0.001725	28.0791	0.111084	0.002024	54.8715	-77.1247	-167.552	0.018773	0.120851	-0.935709	-0.937026	-0.058426	54.8715	-0.934910	-3.009293E+12	1.941533E-14	NaN
463	1.000000	0.130173	7.36959e+06	-53939.1	1005.82	-29745	0.000000	0.000000	6.130778	0.008869	NaN	0.000000	0.001540	0.001723	28.0788	0.103547	0.001892	54.7341	122.39	-167.298	0.058271	0.128886	-0.927704	-0.928991	0.008869	54.7341	-0.927825	-2.414592E+12	-3.672932E-15	NaN
463	1.000000	0.138205	7.36959e+06	-53939.1	1005.82	-29745	0.000000	0.000000	6.138812	0.050961	NaN	0.000000	0.001537	0.001761	28.0789	0.057896	0.001992	29.0706	48.764	-168.211	-0.072053	0.136845	-0.919672	-0.921032	0.050961	29.0706	-0.920987	-1.952205E+12	-2.610458E-14	NaN
463	1.000000	0.146170	7.36959e+06	-53939.1	1005.82	-29745	0.000000	0.000000	6.146771	-0.086426	NaN	0.000000	0.001509	0.001786	28.0789	0.119642	0.002155	55.5112	-170.832	-165.647	-0.093361	0.144845	-0.911707	-0.913032	-0.086426	55.5112	-0.910539	-1.410727E+12	6.126359E-14	NaN
463	1.000000	0.154209	7.36959e+06	-53939.1	1005.82	-29745	0.000000	0.000000	6.154811	-0.050857	NaN	0.000000	0.001574	0.001768	28.079	0.048827	0.002025	24.1128	132.449	-163.397	-0.063001	0.152887	-0.903668	-0.904990	-0.050857	24.1128	-0.902087	-1.084574E+12	4.689099E-14	NaN
463	1.000000	0.162206	7.36959e+06	-53939.1	1005.82	-29745	0.000000	0.000000	6.162813	0.055254	NaN	0.000000	0.001570	0.001742	28.0789	0.063176	0.001967	32.1257	-42.4766	-165.42	0.004356	0.160864	-0.895671	-0.897013	0.055254	32.1257	-0.896961	-9.246938E+11	-5.975394E-14	NaN
463	1.000000	0.170183	7.36959e+06	-53939.1	1005.82	-29745	0.000000	0.000000	6.170787	-0.018997	NaN	0.000000	0.001528	0.001767	28.0788	0.067318	0.001989	33.8382	-16.8607	-168.199	0.011933	0.168908	-0.887694	-0.888969	-0.018997	33.8382	-0.887273	-6.839862E+11	2.777380E-14	NaN
463	1.000000	0.178176	7.36959e+06	-53939.1	1005.82	-29745	0.000000	0.000000	6.178778	-0.049477	NaN	0.000000	0.001559	0.001764	28.0787	0.055467	0.002071	26.7825	-21.4428	-165.988	-0.027031	0.176964	-0.879701	-0.880913	-0.049477	26.7825	-0.878316	-5.175255E+11	9.560255E-14	NaN
463	1.000000	0.186181	7.36959e+06	-53939.1	1005.82	-29745	0.000000	0.000000	6.186785	-0.010460	NaN	0.000000	0.001554	0.001759	28.0788	0.071492	0.002051	34.8618	110.342	-167.572	-0.022600	0.184889	-0.871696	-0.872988	-0.010460	34.8618	-0.871471	-4.181619E+11	2.501474E-14	NaN
463	1.000000	0.194190	7.36959e+06	-53939.1	1005.82	-29745	0.000000	0.000000	6.194792	-0.067018	NaN	0.000000	0.001547	0.001711	28.0787	0.022541	0.001966	11.4664	66.2718	-165.99	-0.051688	0.192915	-0.863687	-0.864962	-0.067018	11.4664	-0.859304	-2.862160E+11	2.341520E-13	NaN
463	1.000000	0.202211	7.36959e+06	-53939.1	1005.82	-29745	0.000000	0.000000	6.202815	-0.017810	NaN	0.000000	0.001564	0.001798	28.0784	0.022197	0.001878	11.822	58.1125	-166.452	0.006617	0.200877	-0.855666	-0.857000	-0.017810	11.822	-0.854536	-2.466954E+11	7.219238E-14	NaN
463	1.000000	0.210216	7.36959e+06	-53939.1	1005.82	-29745	0.000000	0.000000	6.210819	-0.030890	NaN	0.000000	0.001553	0.001755	28.079	0.080846	0.001965	41.1524	135.518	-168.378	0.001258	0.208870	-0.847661	-0.849006	-0.030890	41.1524	-0.847098	-1.956305E+11	1.578981E-13	NaN
463	1.000000	0.218221	7.36959e+06	-53939.1	1005.82	-29745	0.000000	0.000000	6.218825	-0.004274	NaN	0.000000	0.001516	0.001777	28.08	0.116502	0.001869	62.3256	-41.8794	-164.957	0.027629	0.216853	-0.839656	-0.841024	-0.004274	62.3256	-0.839605	-1.548602E+11	2.760154E-14	NaN
463	1.000000	0.226232	7.36959e+06	-53939.1	1005.82	-29745	0.000000	0.000000	6.226835	-0.050609	NaN	0.000000	0.001555	0.001797	28.0802	0.122519	0.002020	60.6596	150.682	-164.474	-0.094983	0.224868	-0.831644	-0.833009	-0.050609	60.6596	-0.831019	-1.184655E+11	4.272079E-13	NaN
463	1.000000	0.234212	7.36959e+06	-53939.1	1005.82	-29745	0.000000	0.000000	6.234816	-0.018420	NaN	0.000000	0.001567	0.001797	28.0799	0.012305	0.002047	6.010421	-33.6129	-170.632	-0.008602	0.232908	-0.823664	-0.824969	-0.018420	6.010421	-0.821366	-8.764640E+10	2.101586E-13	NaN
463	1.000000	0.242206	7.36959e+06	-53939.1	1005.82	-29745	0.000000	0.000000	6.242810	-0.019422	NaN	0.000000	0.001542	0.001779	28.08	0.025489	0.002094	12.1723	-60.0561	-165.649	-0.018436	0.240908	-0.815671	-0.816969	-0.019422	12.1723	-0.814474	-7.067458E+10	2.748120E-13	NaN
463	1.000000	0.250241	7.36959e+06	-53939.1	1005.82	-29745	0.000000	0.000000	6.250844	-0.044030	NaN	0.000000	0.001562	0.001752	28.0801	0.110088	0.002063	53.3578	85.8144	-165.729	-0.018136	0.248947	-0.807635	-0.808930	-0.044030	53.3578	-0.807017	-5.598749E+10	7.864272E-13	NaN
463	1.000000	0.258218	7.36959e+06	-53939.1	1005.82	-29745	0.000000	0.000000	6.258825	0.059982	NaN	0.000000	0.001562	0.001776	28.08	0.100376	0.001990	50.4423	175.942	-168.371	0.078568	0.256941	-0.799659	-0.800936	0.059982	50.4423	-0.800551	-4.574439E+10	-1.311252E-12	NaN
463	1.000000	0.266244	7.36959e+06	-53939.1	1005.82	-29745	0.000000	0.000000	6.266845	-0.091028	NaN	0.000000	0.001554	0.001793	28.0802	0.108222	0.002026	53.4282	-146.467	-168.023	-0.041119	0.264924	-0.791633	-0.792953	-0.091028	53.4282	-0.790355	-3.325897E+10	2.736956E-12	NaN
463	1.000000	0.274231	7.36959e+06	-53939.1	1005.82	-29745	0.000000	0.000000	6.274834	-0.050727	NaN	0.000000	0.001586	0.001787	28.08	0.069913	0.001920	36.4146	136.951	-163.844	-0.011903	0.272923	-0.783646	-0.784954	-0.050727	36.4146	-0.782601	-2.609582E+10	1.943892E-12	NaN
463	1.000000	0.282274	7.36959e+06	-53939.1	1005.82	-29745	0.000000	0.000000	6.282879	0.001433	NaN	0.000000	0.001589	0.001771	28.0802	0.154144	0.001980	77.8572	-129.642	-165.507	-0.012890	0.280929	-0.775603	-0.776948	0.001433	77.8572	-0.775617	-2.097300E+10	-6.830270E-14	NaN
463	1.000000	0.290213	7.36959e+06	-53939.1	1005.82	-29745	0.000000	0.000000	6.290817	-0.008323	NaN	0.000000	0.001579	0.001772	28.08	0.071036	0.002017	35.2198	-128.14	-166.666	-0.035124	0.288948	-0.767664	-0.768929	-0.008323	35.2198	-0.767487	-1.626049E+10	5.118301E-13	NaN
463	1.000000	0.298265	7.36959e+06	-53939.1	1005.82	-29745	0.000000	0.000000	6.298872	0.039340	NaN	0.000000	0.001561	0.001776	28.0801	0.032001	0.002045	15.6513	27.8237	-166.407	-0.026460	0.296914	-0.759612	-0.760963	0.039340	15.6513	-0.761497	-1.347920E+10	-2.918538E-12	NaN
463	1.000000	0.306223	7.36959e+06	-53939.1	1005.82	-29745	0.000000	0.000000	6.306826	-0.055216	NaN	0.000000	0.001556	0.001767	28.0799	0.091542	0.002102	43.552	114.039	-168.404	-0.051127	0.304909	-0.751654	-0.752968	-0.055216	43.552	-0.750703	-9.611392E+9	5.744815E-12	NaN
463	1.000000	0.314280	7.36959e+06	-53939.1	1005.82	-29745	0.000000	0.000000	6.314886	0.019746	NaN	0.000000	0.001576	0.001755	28.0798	0.131326	0.002014	65.2184	161.651	-169.765	0.021320	0.312965	-0.743597	-0.744912	0.019746	65.2184	-0.743824	-7.746927E+9	-2.548926E-12	NaN
463	1.000000	0.322271	7.36959e+06	-53939.1	1005.82	-29745	0.000000	0.000000	6.322873	-0.064922	NaN	0.000000	0.001560	0.001782	28.0806	0.050285	0.002097	23.9847	-105.666	-166.186	-0.080598	0.320956	-0.735606	-0.736921	-0.064922	23.9847	-0.733576	-5.617476E+9	1.155710E-11	NaN
463	1.000000	0.330278	7.36959e+06	-53939.1	1005.82	-29745	0.000000	0.000000	6.330881	-0.059022	NaN	0.000000	0.001538	0.001790	28.0799	0.053437	0.002097	25.4793	-5.840369	-166.666	-0.032698	0.328909	-0.727599	-0.728968	-0.059022	25.4793	-0.725861	-4.409534E+9	1.338499E-11	NaN
463	1.000000	0.338263	7.36959e+06	-53939.1	1005.82	-29745	0.000000	0.000000	6.338868	0.008716	NaN	0.000000	0.001511	0.001834	28.08	0.106406	0.002110	50.4398	-9.550334	-165.946	-0.036842	0.336964	-0.719614	-0.720913	0.008716	50.4398	-0.719744	-3.638996E+9	-2.395247E-12	NaN
463	1.000000	0.346260	7.36959e+06	-53939.1	1005.82	-29745	0.000000	0.000000	6.346864	-0.002371	NaN	0.000000	0.001554	0.001802	28.0798	0.092381	0.001965	47.0034	66.2467	-167.688	0.002178	0.345024	-0.711617	-0.712853	-0.002371	47.0034	-0.711580	-2.815813E+9	8.419146E-13	NaN
463	1.000000	0.354284	7.36959e+06	-53939.1	1005.82	-29745	0.000000	0.000000	6.354885	-0.071991	NaN	0.000000	0.001543	0.001782	28.0788	0.146643	0.001866	78.5872	52.5129	-161.824	-0.110840	0.352970	-0.703593	-0.704907	-0.071991	78.5872	-0.702906	-2.143965E+9	3.357844E-11	NaN
463	1.000000	0.362281	7.36959e+06	-53939.1	1005.82	-29745	0.000000	0.000000	6.362885	0.001227	NaN	0.000000	0.001553	0.001772	28.0788	0.088452	0.002128	41.5681	-53.9598	-168.616	-0.006137	0.360990	-0.695596	-0.696887	0.001227	41.5681	-0.695619	-1.704852E+9	-7.197820E-13	NaN
463	1.000000	0.370308	7.36959e+06	-53939.1	1005.82	-29745	0.000000	0.000000	6.370913	-0.006747	NaN	0.000000	0.001565	0.001779	28.0786	0.092337	0.002072	44.5541	-89.5396	-166.685	-0.011731	0.368933	-0.687568	-0.688944	-0.006747	44.5541	-0.687455	-1.318659E+9	5.116632E-12	NaN
463	1.000000	0.378275	7.36959e+06	-53939.1	1005.82	-29745	0.000000	0.000000	6.378879	-0.003429	NaN	0.000000	0.001555	0.001776	28.0786	0.055719	0.001951	28.555	-49.52	-164.589	-0.010344	0.377017	-0.679602	-0.680860	-0.003429	28.555	-0.679512	-1.026907E+9	3.338999E-12	NaN
463	1.000000	0.386293	7.36959e+06	-53939.1	1005.82	-29745	0.000000	0.000000	6.386896	-0.052372	NaN	0.000000	0.001553	0.001765	28.0786	0.050902	0.001856	27.4227	112.925	-169.047	-0.023021	0.384976	-0.671584	-0.672901	-0.052372	27.4227	-0.670151	-7.646483E+8	6.849153E-11	NaN
463	1.000000	0.394300	7.36959e+06	-53939.1	1005.82	-29745	0.000000	0.000000	6.394902	-0.069663	NaN	0.000000	0.001586	0.001749	28.0789	0.104419	0.001930	54.1048	34.2028	-166.613	-0.091136	0.392937	-0.663577	-0.664939	-0.069663	54.1048	-0.662611	-6.028869E+8	1.155489E-10	NaN
463	1.000000	0.402282	7.36959e+06	-53939.1	1005.82	-29745	0.000000	0.000000	6.402882	-0.107363	NaN	0.000000	0.001640	0.001759	28.0789	0.055598	0.001970	28.2236	-16.1892	-164.61	-0.133926	0.400986	-0.655595	-0.656890	-0.107363	28.2236	-0.652742	-4.415959E+8	2.431248E-10	NaN
463	1.000000	0.410311	7.36959e+06	-53939.1	1005.82	-29745	0.000000	0.000000	6.410916	0.013511	NaN	0.000000	0.001624	0.001790	28.0787	0.113440	0.001982	57.2399	-7.053239	-165.96	0.059313	0.408975	-0.647566	-0.648902	0.013511	57.2399	-0.647743	-3.771319E+8	-3.582595E-11	NaN
463	1.000000	0.418292	7.36959e+06	-53939.1	1005.82	-29745	0.000000	0.000000	6.418894	-0.069004	NaN	0.000000	0.001648	0.001775	28.0788	0.043264	0.002072	20.8804	138.533	-165.531	-0.058077	0.416957	-0.639585	-0.640920	-0.069004	20.8804	-0.637106	-2.695129E+8	2.560334E-10	NaN
463	1.000000	0.426287	7.36959e+06	-53939.1	1005.82	-29745	0.000000	0.000000	6.426892	0.024226	NaN	0.000000	0.001660	0.001789	28.0787	0.091352	0.001956	46.706	14.2542	-168.517	0.018898	0.424978	-0.631590	-0.632899	0.024226	46.706	-0.631979	-2.291938E+8	-1.057015E-10	NaN
463	1.000000	0.434328	7.36959e+06	-53939.1	1005.82	-29745	0.000000	0.000000	6.434933	0.000485	NaN	0.000000	0.001612	0.001774	28.0787	0.049977	0.002039	24.5064	-76.9207	-166.078	0.040255	0.432986	-0.623549	-0.624891	0.000485	24.5064	-0.623564	-1.756343E+8	-2.763820E-12	NaN
463	1.000000	0.442322	7.36959e+06	-53939.1	1005.82	-29745	0.000000	0.000000	6.442928	0.020239	NaN	0.000000	0.001648	0.001818	28.0789	0.025160	0.001908	13.1889	-125.863	-166.321	-0.051434	0.440983	-0.615554	-0.616894	0.020239	13.1889	-0.616705	-1.413646E+8	-1.431682E-10	NaN
463	1.000000	0.450320	7.36959e+06	-53939.1	1005.82	-29745	0.000000	0.000000	6.450924	-0.012685	NaN	0.000000	0.001625	0.001778	28.0787	0.048992	0.001869	26.2192	-174.359	-168.558	-0.012749	0.448987	-0.607557	-0.608890	-0.012685	26.2192	-0.607194	-1.045924E+8	1.212772E-10	NaN
463	1.000000	0.458325	7.36959e+06	-53939.1	1005.82	-29745	0.000000	0.000000	6.458931	0.021520	NaN	0.000000	0.001582	0.001783	28.0788	0.099914	0.001984	50.3604	-110.68	-168.959	-0.067975	0.456978	-0.599552	-0.600899	0.021520	50.3604	-0.599872	-8.292760E+7	-2.595038E-10	NaN
463	1.000000	0.466326	7.36959e+06	-53939.1	1005.82	-29745	0.000000	0.000000	6.466929	-0.042604	NaN	0.000000	0.001569	0.001802	28.0784	0.046299	0.001958	23.6476	161.873	-168.889	-0.024723	0.464991	-0.591551	-0.592885	-0.042604	23.6476	-0.590200	-6.101267E+7	6.982806E-10	NaN
463	1.000000	0.474323	7.36959e+06	-53939.1	1005.82	-29745	0.000000	0.000000	6.474926	-0.033403	NaN	0.000000	0.001547	0.001789	28.0786	0.129378	0.001860	69.5611	13.1404	-166.351	-0.137281	0.473047	-0.583554	-0.584830	-0.033403	69.5611	-0.583194	-4.884268E+7	6.838915E-10	NaN
463	1.000000	0.482336	7.36959e+06	-53939.1	1005.82	-29745	0.000000	0.000000	6.482942	0.027718	NaN	0.000000	0.001515	0.001778	28.0784	0.072749	0.001964	37.0433	120.016	-166.208	-0.018082	0.481020	-0.575541	-0.576857	0.027718	37.0433	-0.576102	-3.898651E+7	-7.109591E-10	NaN
463	1.000000	0.490360	7.36959e+06	-53939.1	1005.82	-29745	0.000000	0.000000	6.490962	-0.055123	NaN	0.000000	0.001556	0.001746	28.0798	0.100181	0.002044	49.0035	-26.5988	-163.428	-0.097395	0.489033	-0.567517	-0.568844	-0.055123	49.0035	-0.566673	-2.888415E+7	1.908428E-9	NaN
463	1.000000	0.498323	7.36959e+06	-53939.1	1005.82	-29745	0.000000	0.000000	6.498927	-0.021044	NaN	0.000000	0.001558	0.001779	28.0799	0.080485	0.002134	37.7204	44.6858	-168.933	0.052638	0.497034	-0.559554	-0.560843	-0.021044	37.7204	-0.559135	-2.272048E+7	9.262052E-10	NaN
463	1.000000	0.506316	7.36959e+06	-53939.1	1005.82	-29745	0.000000	0.000000	6.506920	-0.001863	NaN	0.000000	0.001545	0.001789	28.0799	0.043535	0.002010	21.6594	85.5407	-168.59	-0.006648	0.504980	-0.551561	-0.552897	-0.001863	21.6594	-0.551497	-1.781083E+7	1.045948E-10	NaN
463	1.000000	0.514327	7.36959e+06	-53939.1	1005.82	-29745	0.000000	0.000000	6.514930	-0.034312	NaN	0.000000	0.001529	0.001783	28.0801	0.022180	0.002095	10.5877	-43.8721	-169.171	0.015242	0.513041	-0.543550	-0.544836	-0.034312	10.5877	-0.541119	-1.279035E+7	2.682671E-9	NaN
463	1.000000	0.522323	7.36959e+06	-53939.1	1005.82	-29745	0.000000	0.000000	6.522927	-0.021074	NaN	0.000000	0.001539	0.001793	28.0801	0.045979	0.002001	22.9786	15.9218	-169.318	-0.043772	0.521020	-0.535554	-0.536857	-0.021074	22.9786	-0.534866	-1.047445E+7	2.011954E-9	NaN
463	1.000000	0.530364	7.36959e+06	-53939.1	1005.82	-29745	0.000000	0.000000	6.530968	-0.028652	NaN	0.000000	0.001548	0.001782	28.08	0.052711	0.002067	25.5043	-110.946	-166.971	-0.023482	0.529016	-0.527513	-0.528861	-0.028652	25.5043	-0.526670	-8.05972e+06	3.555017E-9	NaN
463	1.000000	0.538337	7.36959e+06	-53939.1	1005.82	-29745	0.000000	0.000000	6.538942	-0.006117	NaN	0.000000	0.001532	0.001760	28.0802	0.077521	0.002128	36.4296	-101.25	-166.751	-0.080597	0.537027	-0.519540	-0.520850	-0.006117	36.4296	-0.519414	-6.38917e+06	9.573801E-10	NaN
463	1.000000	0.546339	7.36959e+06	-53939.1	1005.82	-29745	0.000000	0.000000	6.546943	-0.018027	NaN	0.000000	0.001520	0.001760	28.0802	0.056145	0.001877	29.9111	107.267	-168.64	-0.012054	0.545050	-0.511538	-0.512827	-0.018027	29.9111	-0.511086	-4.89255e+06	3.684619E-9	NaN
463	1.000000	0.554353	7.36959e+06	-53939.1	1005.82	-29745	0.000000	0.000000	6.554956	-0.054535	NaN	0.000000	0.001554	0.001797	28.08	0.094040	0.002053	45.7958	146.501	-165.339	-0.102662	0.553045	-0.503523	-0.504832	-0.054535	45.7958	-0.502630	-3.72998e+06	1.462084E-8	NaN
463	1.000000	0.562379	7.36959e+06	-53939.1	1005.82	-29745	0.000000	0.000000	6.562983	-0.022499	NaN	0.000000	0.001568	0.001751	28.0799	0.071441	0.002052	34.821	40.2828	-164.79	-0.004381	0.561065	-0.495498	-0.496812	-0.022499	34.821	-0.495013	-2.92026e+06	7.704439E-9	NaN
463	1.000000	0.570319	7.36959e+06	-53939.1	1005.82	-29745	0.000000	0.000000	6.570922	-0.037019	NaN	0.000000	0.001550	0.001762	28.0802	0.070927	0.002009	35.304	-58.5654	-167.825	-0.075417	0.569082	-0.487558	-0.488795	-0.037019	35.304	-0.486772	-2.2401e+06	1.652568E-8	NaN
463	1.000000	0.578367	7.36959e+06	-53939.1	1005.82	-29745	0.000000	0.000000	6.578972	0.004819	NaN	0.000000	0.001540	0.001767	28.0801	0.063933	0.002002	31.933	107.202	-169.665	-0.026464	0.577100	-0.479510	-0.480777	0.004819	31.933	-0.479623	-1.77932e+06	-2.708508E-9	NaN
463	1.000000	0.586348	7.36959e+06	-53939.1	1005.82	-29745	0.000000	0.000000	6.586950	-0.059828	NaN	0.000000	0.001545	0.001751	28.0801	0.037677	0.002016	18.6933	-73.6306	-165.557	0.022897	0.585012	-0.471529	-0.472865	-0.059828	18.6933	-0.469129	-1.2682e+06	4.717543E-8	NaN
463	1.000000	0.594359	7.36959e+06	-53939.1	1005.82	-29745	0.000000	0.000000	6.594963	-0.009606	NaN	0.000000	0.001475	0.001795	28.0799	0.065883	0.002007	32.8217	-2.886235	-170.779	-0.077470	0.593097	-0.463518	-0.464780	-0.009606	32.8217	-0.463298	-1.0504e+06	9.144918E-9	NaN
463	1.000000	0.602347	7.36959e+06	-53939.1	1005.82	-29745	0.000000	0.000000	6.602953	0.023144	NaN	0.000000	0.001532	0.001795	28.0798	0.091695	0.002082	44.0318	-106.788	-166.502	0.011062	0.601065	-0.455530	-0.456812	0.023144	44.0318	-0.455924	-827397	-2.797257E-8	NaN
463	1.000000	0.610359	7.36959e+06	-53939.1	1005.82	-29745	0.000000	0.000000	6.610962	-0.048781	NaN	0.000000	0.001534	0.001833	28.0798	0.137616	0.001985	69.3203	-16.6039	-163.846	-0.034449	0.609078	-0.447518	-0.448799	-0.048781	69.3203	-0.446990	-619356	7.876110E-8	NaN
463	1.000000	0.618379	7.36959e+06	-53939.1	1005.82	-29745	0.000000	0.000000	6.618982	-0.024551	NaN	0.000000	0.001518	0.001795	28.0799	0.052250	0.001944	26.8788	-25.68	-168.34	-0.075971	0.617092	-0.439498	-0.440785	-0.024551	26.8788	-0.438813	-474908	5.169613E-8	NaN
463	1.000000	0.626371	7.36959e+06	-53939.1	1005.82	-29745	0.000000	0.000000	6.626974	-0.033878	NaN	0.000000	0.001516	0.001745	28.0789	0.048954	0.001920	25.4951	-95.4554	-166.828	-0.036460	0.625113	-0.431506	-0.432764	-0.033878	25.4951	-0.430509	-362466	9.346680E-8	NaN
463	1.000000	0.634389	7.36959e+06	-53939.1	1005.82	-29745	0.000000	0.000000	6.634995	0.035022	NaN	0.000000	0.001522	0.001772	28.0787	0.073568	0.002002	36.7461	70.191	-168.477	0.017738	0.633064	-0.423488	-0.424813	0.035022	36.7461	-0.424203	-295116	-1.186713E-7	NaN
463	1.000000	0.642406	7.36959e+06	-53939.1	1005.82	-29745	0.000000	0.000000	6.643010	-0.025761	NaN	0.000000	0.001542	0.001828	28.0789	0.049938	0.001978	25.2445	47.5192	-166.396	0.003529	0.641127	-0.415470	-0.416750	-0.025761	25.2445	-0.414705	-216405	1.190393E-7	NaN
463	1.000000	0.650422	7.36959e+06	-53939.1	1005.82	-29745	0.000000	0.000000	6.651025	-0.028557	NaN	0.000000	0.001513	0.001771	28.0786	0.154391	0.001944	79.4244	159.432	-163.673	-0.084142	0.649037	-0.407455	-0.408839	-0.028557	79.4244	-0.407185	-169185	1.687935E-7	NaN
463	1.000000	0.658418	7.36959e+06	-53939.1	1005.82	-29745	0.000000	0.000000	6.659021	-0.042271	NaN	0.000000	0.001532	0.001744	28.0786	0.064195	0.001843	34.8322	52.6706	-165.709	-0.014288	0.657088	-0.399459	-0.400789	-0.042271	34.8322	-0.398549	-127438	3.316970E-7	NaN
463	1.000000	0.666390	7.36959e+06	-53939.1	1005.82	-29745	0.000000	0.000000	6.666991	-0.096624	NaN	0.000000	0.001520	0.001784	28.0789	0.075222	0.001968	38.2231	-102.17	-167.114	-0.048705	0.665132	-0.391487	-0.392745	-0.096624	38.2231	-0.389591	-94909.9	1.018059E-6	NaN
463	1.000000	0.674407	7.36959e+06	-53939.1	1005.82	-29745	0.000000	0.000000	6.675011	-0.004031	NaN	0.000000	0.001572	0.001787	28.0787	0.046280	0.002084	22.2098	64.9332	-166.924	0.015101	0.673083	-0.383470	-0.384794	-0.004031	22.2098	-0.383334	-77216.1	5.220092E-8	NaN
463	1.000000	0.682415	7.36959e+06	-53939.1	1005.82	-29745	0.000000	0.000000	6.683017	-0.073661	NaN	0.000000	0.001599	0.001814	28.0788	0.121024	0.002057	58.8227	26.6211	-167.909	-0.041947	0.681109	-0.375462	-0.376768	-0.073661	58.8227	-0.374523	-57704.3	1.276525E-6	NaN
463	1.000000	0.690422	7.36959e+06	-53939.1	1005.82	-29745	0.000000	0.000000	6.691028	0.042097	NaN	0.000000	0.001595	0.001748	28.0787	0.135942	0.002163	62.8502	-25.949	-168.248	0.029966	0.689076	-0.367455	-0.368801	0.042097	62.8502	-0.367957	-46419.2	-9.068823E-7	NaN
463	1.000000	0.698407	7.36959e+06	-53939.1	1005.82	-29745	0.000000	0.000000	6.699016	0.088142	NaN	0.000000	0.001637	0.001754	28.0787	0.058175	0.001988	29.263	64.9621	-165.398	0.029577	0.697127	-0.359469	-0.360750	0.088142	29.263	-0.361729	-37741.9	-2.335393E-6	NaN
463	1.000000	0.706425	7.36959e+06	-53939.1	1005.82	-29745	0.000000	0.000000	6.707029	-0.016108	NaN	0.000000	0.001583	0.001768	28.0787	0.019489	0.002105	9.260069	-106.955	-163.815	-0.052727	0.705102	-0.351452	-0.352775	-0.016108	9.260069	-0.350147	-25653.2	6.278990E-7	NaN
463	1.000000	0.714421	7.36959e+06	-53939.1	1005.82	-29745	0.000000	0.000000	6.715025	-0.026198	NaN	0.000000	0.001555	0.001747	28.0787	0.075022	0.001983	37.8401	-49.8542	-167.771	-0.012306	0.713160	-0.343456	-0.344717	-0.026198	37.8401	-0.342937	-20152.6	1.299967E-6	NaN
463	1.000000	0.722416	7.36959e+06	-53939.1	1005.82	-29745	0.000000	0.000000	6.723021	0.004249	NaN	0.000000	0.001579	0.001749	28.0792	0.131748	0.002002	65.8136	72.1409	-167.107	0.007680	0.721137	-0.335461	-0.336739	0.004249	65.8136	-0.335509	-15704.4	-2.705667E-7	NaN
463	1.000000	0.730461	7.36959e+06	-53939.1	1005.82	-29745	0.000000	0.000000	6.731066	-0.013125	NaN	0.000000	0.001608	0.001772	28.0785	0.108685	0.002067	52.5879	2.757608	-166.847	-0.049882	0.729117	-0.327415	-0.328760	-0.013125	52.5879	-0.327228	-11880.4	1.104796E-6	NaN
463	1.000000	0.738429	7.36959e+06	-53939.1	1005.82	-29745	0.000000	0.000000	6.739033	-0.014627	NaN	0.000000	0.001597	0.001753	28.0788	0.075484	0.002229	33.8579	45.8636	-168.709	0.091209	0.737083	-0.319448	-0.320793	-0.014627	33.8579	-0.319124	-9031.08	1.619595E-6	NaN
463	1.000000	0.746435	7.36959e+06	-53939.1	1005.82	-29745	0.000000	0.000000	6.747040	0.002585	NaN	0.000000	0.001540	0.001750	28.0786	0.067745	0.001883	35.9759	22.2087	-165.363	0.009544	0.745070	-0.311442	-0.312806	0.002585	35.9759	-0.311496	-6969.18	-3.709336E-7	NaN
463	1.000000	0.754449	7.36959e+06	-53939.1	1005.82	-29745	0.000000	0.000000	6.755056	0.048947	NaN	0.000000	0.001552	0.001736	28.0785	0.007430	0.001871	3.970656	25.7404	-169.058	-0.003874	0.753160	-0.303428	-0.304717	0.048947	3.970656	-0.312673	-7254.15	-6.747400E-6	NaN
463	1.000000	0.762468	7.36959e+06	-53939.1	1005.82	-29745	0.000000	0.000000	6.763073	0.010508	NaN	0.000000	0.001582	0.001761	28.0795	0.058583	0.001990	29.4456	-28.6637	-168.374	-0.025780	0.761111	-0.295409	-0.296766	0.010508	29.4456	-0.295677	-4056.92	-2.590260E-6	NaN
463	1.000000	0.770470	7.36959e+06	-53939.1	1005.82	-29745	0.000000	0.000000	6.771070	-0.095004	NaN	0.000000	0.001601	0.001712	28.0798	0.046703	0.001952	23.9209	-5.447089	-166.631	-0.155363	0.769163	-0.287407	-0.288714	-0.095004	23.9209	-0.284429	-2752.17	3.451961E-5	NaN
463	1.000000	0.778415	7.36959e+06	-53939.1	1005.82	-29745	0.000000	0.000000	6.779019	-0.002294	NaN	0.000000	0.001528	0.001738	28.0803	0.133168	0.002077	64.119	126.263	-165.033	-0.073030	0.777112	-0.279462	-0.280765	-0.002294	64.119	-0.279435	-2314.47	9.909565E-7	NaN
463	1.000000	0.786465	7.36959e+06	-53939.1	1005.82	-29745	0.000000	0.000000	6.787068	-0.055390	NaN	0.000000	0.001560	0.001763	28.0798	0.121979	0.002083	58.5523	127.726	-166.436	0.003133	0.785151	-0.271412	-0.272726	-0.055390	58.5523	-0.270702	-1706.93	3.244998E-5	NaN
463	1.000000	0.794447	7.36959e+06	-53939.1	1005.82	-29745	0.000000	0.000000	6.795049	-0.061350	NaN	0.000000	0.001508	0.001733	28.0799	0.025277	0.002056	12.2929	178.694	-166.473	-0.086974	0.793166	-0.263430	-0.264711	-0.061350	12.2929	-0.259687	-1159.09	5.292971E-5	NaN
463	1.000000	0.802459	7.36959e+06	-53939.1	1005.82	-29745	0.000000	0.000000	6.803066	0.052481	NaN	0.000000	0.001530	0.001733	28.08	0.035228	0.001854	19.0045	-94.0223	-166.414	-0.036734	0.801150	-0.255417	-0.256727	0.052481	19.0045	-0.257489	-1072.47	-4.893466E-5	NaN
463	1.000000	0.810464	7.36959e+06	-53939.1	1005.82	-29745	0.000000	0.000000	6.811066	-0.066408	NaN	0.000000	0.001529	0.001710	28.0799	0.055545	0.001829	30.3617	-142.96	-166.982	-0.089347	0.809208	-0.247413	-0.248669	-0.066408	30.3617	-0.245772	-707.051	9.392271E-5	NaN
463	1.000000	0.818477	7.36959e+06	-53939.1	1005.82	-29745	0.000000	0.000000	6.819081	-0.020274	NaN	0.000000	0.001524	0.001724	28.0802	0.060137	0.001886	31.884	99.5294	-167.332	-0.012811	0.817158	-0.239400	-0.240719	-0.020274	31.884	-0.238923	-552.994	3.666231E-5	NaN
463	1.000000	0.826487	7.36959e+06	-53939.1	1005.82	-29745	0.000000	0.000000	6.827093	0.034250	NaN	0.000000	0.001555	0.001782	28.08	0.037555	0.002171	17.2997	-35.9337	-165.248	-0.003201	0.825136	-0.231390	-0.232741	0.034250	17.2997	-0.232875	-444.469	-7.705774E-5	NaN
463	1.000000	0.834450	7.36959e+06	-53939.1	1005.82	-29745	0.000000	0.000000	6.835055	0.005719	NaN	0.000000	0.001587	0.001754	28.0802	0.041156	0.001989	20.6963	80.1978	-165.471	-0.012222	0.833137	-0.223427	-0.224740	0.005719	20.6963	-0.223634	-317.41	-1.801685E-5	NaN
463	1.000000	0.842505	7.36959e+06	-53939.1	1005.82	-29745	0.000000	0.000000	6.843108	-0.046786	NaN	0.000000	0.001605	0.001765	28.0801	0.103328	0.002062	50.1162	47.1354	-167.806	0.009721	0.841172	-0.215372	-0.216705	-0.046786	50.1162	-0.214672	-228.157	0.000205	NaN
463	1.000000	0.850470	7.36959e+06	-53939.1	1005.82	-29745	0.000000	0.000000	6.851072	-0.057041	NaN	0.000000	0.001598	0.001774	28.08	0.126093	0.002093	60.2421	131.849	-166.151	-0.017983	0.849127	-0.207407	-0.208750	-0.057041	60.2421	-0.206697	-169.515	0.000336	NaN
463	1.000000	0.858494	7.36959e+06	-53939.1	1005.82	-29745	0.000000	0.000000	6.859095	-0.087662	NaN	0.000000	0.001568	0.001753	28.08	0.010038	0.001954	5.137456	-162.136	-166.193	-0.077144	0.857171	-0.199383	-0.200706	-0.087662	5.137456	-0.186585	-78.8522	0.001112	NaN
463	1.000000	0.866510	7.36959e+06	-53939.1	1005.82	-29745	0.000000	0.000000	6.867111	-0.072082	NaN	0.000000	0.001549	0.001772	28.08	0.043173	0.001840	23.462	-47.1154	-166.143	-0.081153	0.865162	-0.191367	-0.192715	-0.072082	23.462	-0.189063	-86.7686	0.000831	NaN
463	1.000000	0.874482	7.36959e+06	-53939.1	1005.82	-29745	0.000000	0.000000	6.875084	-0.077422	NaN	0.000000	0.001578	0.001770	28.0802	0.063648	0.001973	32.2591	158.986	-165.644	-0.080384	0.873199	-0.183395	-0.184678	-0.077422	32.2591	-0.181595	-64.9469	0.001192	NaN
463	1.000000	0.882499	7.36959e+06	-53939.1	1005.82	-29745	0.000000	0.000000	6.883102	-0.030274	NaN	0.000000	0.001594	0.001783	28.0801	0.138197	0.002007	68.8702	-78.1921	-166.486	-0.033183	0.881203	-0.175378	-0.176674	-0.030274	68.8702	-0.175049	-50.2127	0.000603	NaN
463	1.000000	0.890508	7.36959e+06	-53939.1	1005.82	-29745	0.000000	0.000000	6.891109	-0.092548	NaN	0.000000	0.001592	0.001728	28.0801	0.024680	0.001923	12.834	-174.726	-166.936	-0.130833	0.889204	-0.167369	-0.168673	-0.092548	12.834	-0.161960	-29.6988	0.003116	NaN
463	1.000000	0.898457	7.36959e+06	-53939.1	1005.82	-29745	0.000000	0.000000	6.899062	0.012130	NaN	0.000000	0.001562	0.001725	28.0797	0.035453	0.001961	18.0798	-77.5758	-164.22	-0.037255	0.897163	-0.159420	-0.160714	0.012130	18.0798	-0.159923	-27.3288	-0.000444	NaN
463	1.000000	0.906509	7.36959e+06	-53939.1	1005.82	-29745	0.000000	0.000000	6.907113	0.000415	NaN	0.000000	0.001592	0.001742	28.0788	0.050958	0.001943	26.229	-165.484	-166.575	-0.076744	0.905170	-0.151368	-0.152707	0.000415	26.229	-0.151380	-19.1922	-2.164588E-5	NaN
463	1.000000	0.914514	7.36959e+06	-53939.1	1005.82	-29745	0.000000	0.000000	6.915117	-0.029059	NaN	0.000000	0.001562	0.001734	28.079	0.068923	0.002028	33.9895	-111.641	-165.59	-0.116380	0.913203	-0.143363	-0.144674	-0.029059	33.9895	-0.142722	-13.3007	0.002185	NaN
463	1.000000	0.922493	7.36959e+06	-53939.1	1005.82	-29745	0.000000	0.000000	6.923096	-0.035071	NaN	0.000000	0.001576	0.001772	28.0792	0.030952	0.002007	15.4223	31.9477	-168.471	-0.008543	0.921213	-0.135384	-0.136664	-0.035071	15.4223	-0.133679	-8.974527	0.003908	NaN
463	1.000000	0.930521	7.36959e+06	-53939.1	1005.82	-29745	0.000000	0.000000	6.931126	-0.001017	NaN	0.000000	0.001585	0.001762	28.0792	0.054382	0.002030	26.7897	-179.503	-163.167	-0.025349	0.929183	-0.127356	-0.128694	-0.001017	26.7897	-0.127327	-6.758408	0.000151	NaN
463	1.000000	0.938539	7.36959e+06	-53939.1	1005.82	-29745	0.000000	0.000000	6.939143	-0.010240	NaN	0.000000	0.001581	0.001755	28.0789	0.105332	0.002026	51.9794	160.085	-163.947	-0.060862	0.937158	-0.119338	-0.120719	-0.010240	51.9794	-0.119190	-4.652727	0.002201	NaN
463	1.000000	0.946543	7.36959e+06	-53939.1	1005.82	-29745	0.000000	0.000000	6.947146	-0.037798	NaN	0.000000	0.001549	0.001738	28.0791	0.126727	0.001977	64.088	-161.73	-165.718	0.012167	0.945215	-0.111334	-0.112662	-0.037798	64.088	-0.110892	-3.137931	0.012046	NaN
463	1.000000	0.954520	7.36959e+06	-53939.1	1005.82	-29745	0.000000	0.000000	6.955121	-0.077623	NaN	0.000000	0.001601	0.001771	28.079	0.044093	0.001932	22.8217	-90.3809	-168.395	-0.048436	0.953213	-0.103357	-0.104664	-0.077623	22.8217	-0.100806	-1.903723	0.040774	NaN
463	1.000000	0.962521	7.36959e+06	-53939.1	1005.82	-29745	0.000000	0.000000	6.963127	0.035156	NaN	0.000000	0.001622	0.001733	28.0789	0.146843	0.002179	67.4034	13.3838	-166.63	0.060870	0.961193	-0.095356	-0.096684	0.035156	67.4034	-0.095747	-1.466918	-0.023966	NaN
463	1.000000	0.970527	7.36959e+06	-53939.1	1005.82	-29745	0.000000	0.000000	6.971132	-0.000943	NaN	0.000000	0.001582	0.001711	28.0792	0.139109	0.001993	69.7966	-14.6436	-165.336	-0.009889	0.969226	-0.087350	-0.088651	-0.000943	69.7966	-0.087339	-0.935155	0.001008	NaN
463	1.000000	0.978510	7.36959e+06	-53939.1	1005.82	-29745	0.000000	0.000000	6.979116	0.031650	NaN	0.000000	0.001627	0.001679	28.079	0.098688	0.001975	49.9803	-95.9576	-168.333	0.092119	0.977278	-0.079367	-0.080599	0.031650	49.9803	-0.079842	-0.613377	-0.051599	NaN
463	1.000000	0.986557	7.36959e+06	-53939.1	1005.82	-29745	0.000000	0.000000	6.987160	-0.034678	NaN	0.000000	0.001569	0.001735	28.0791	0.068048	0.001985	34.2874	49.9447	-167.128	0.025576	0.985204	-0.071320	-0.072673	-0.034678	34.2874	-0.070562	-0.353110	0.098208	NaN
463	1.000000	0.994525	7.36959e+06	-53939.1	1005.82	-29745	0.000000	0.000000	6.995128	-0.052283	NaN	0.000000	0.001548	0.001722	28.0791	0.022604	0.001951	11.5847	115.532	-165.155	-0.034546	0.993248	-0.063352	-0.064629	-0.052283	11.5847	-0.059967	-0.179699	0.290947	NaN
463	1.000000	1.002535	7.36959e+06	-53939.1	1005.82	-29745	0.000000	0.000000	7.003137	-0.057872	NaN	0.000000	0.001540	0.001723	28.079	0.108617	0.002078	52.262	36.1211	-165.597	-0.108718	1.001220	-0.055342	-0.056657	-0.057872	52.262	-0.054512	-0.124563	0.464605	NaN
463	1.000000	1.010549	7.36959e+06	-53939.1	1005.82	-29745	0.000000	0.000000	7.011156	0.040457	NaN	0.000000	0.001568	0.001693	28.0793	0.047701	0.001992	23.9495	8.285584	-166.156	-0.060209	1.009247	-0.047328	-0.048630	0.040457	23.9495	-0.048594	-0.082724	-0.489067	NaN
463	1.000000	1.018554	7.36959e+06	-53939.1	1005.82	-29745	0.000000	0.000000	7.019156	-0.065426	NaN	0.000000	0.001547	0.001726	28.0787	0.034029	0.002104	16.1712	69.5403	-165.978	-0.035956	1.017224	-0.039322	-0.040653	-0.065426	16.1712	-0.036288	-0.034964	1.871238	NaN
463	1.000000	1.026525	7.36959e+06	-53939.1	1005.82	-29745	0.000000	0.000000	7.027131	0.032385	NaN	0.000000	0.001574	0.001735	28.0789	0.037878	0.001884	20.1015	56.8573	-171.264	0.066150	1.025233	-0.031352	-0.032644	0.032385	20.1015	-0.032560	-0.027193	-1.190947	NaN
463	1.000000	1.034573	7.36959e+06	-53939.1	1005.82	-29745	0.000000	0.000000	7.035176	-0.027269	NaN	0.000000	0.001569	0.001712	28.0788	0.020360	0.001958	10.396	22.524	-164.482	0.018028	1.033258	-0.023304	-0.024619	-0.027269	10.396	-0.021337	-0.013583	2.007554	NaN
463	1.000000	1.042555	7.36959e+06	-53939.1	1005.82	-29745	0.000000	0.000000	7.043160	0.003809	NaN	0.000000	0.001562	0.001737	28.0801	0.063077	0.001981	31.8447	-178.145	-166.874	-0.067267	1.041242	-0.015322	-0.016635	0.003809	31.8447	-0.015412	-0.009524	-0.399949	NaN
463	1.000000	1.050566	7.36959e+06	-53939.1	1005.82	-29745	0.000000	0.000000	7.051168	-0.079584	NaN	0.000000	0.001561	0.001757	28.0804	0.122321	0.001986	61.6026	70.7437	-169.295	-0.033641	1.049271	-0.007311	-0.008606	-0.079584	61.6026	-0.006342	-0.004244	18.7504	NaN
463	1.000000	1.058541	7.36959e+06	-53939.1	1005.82	-29745	0.000000	0.000000	7.059323	4.306963	NaN	0.000000	0.001553	0.001760	28.0801	5.125174	0.002015	2543.43	13.8046	-169.497	3.308945	1.057174	0.000664	-0.000703	4.306963	2543.43	-0.000606	-0.000448	-9621.49	NaN
463	2.000000	1.064129	7.36959e+06	-53939.1	1005.82	-29745	0.000000	0.000000	7.065144	9.977233	NaN	0.000000	0.001533	0.001754	28.08	10.1728	0.001676	6069.44	4.198407	-171.318	9.784759	1.063784	0.006252	0.005907	9.977233	6069.44	0.005019	0.004151	2403.56	86068.4
463	2.000000	1.066069	7.36959e+06	-53939.1	1005.82	-29745	0.000000	0.000000	7.067185	12.4177	NaN	0.000000	0.001599	0.001741	28.08	11.6806	0.001537	7599.75	5.258710	-174.664	12.0868	1.065802	0.008193	0.007925	12.4177	7599.75	0.006967	0.006001	2069.16	89629
463	2.000000	1.068046	7.36959e+06	-53939.1	1005.82	-29745	0.000000	0.000000	7.069341	16.7901	NaN	0.000000	0.001574	0.001725	28.0799	14.7822	0.001760	8399.49	5.355136	-173.823	15.8588	1.067739	0.010169	0.009862	16.7901	8399.49	0.008669	0.007740	2169.26	87227.9
463	2.000000	1.070043	7.36959e+06	-53939.1	1005.82	-29745	0.000000	0.000000	7.071438	19.2328	NaN	0.000000	0.001562	0.001738	28.0802	16.3107	0.001713	9523.29	7.335416	-176.438	19.6205	1.069706	0.012166	0.011830	19.2328	9523.29	0.010651	0.009914	1939.98	87385.2
463	2.000000	1.072043	7.36959e+06	-53939.1	1005.82	-29745	0.000000	0.000000	7.073552	21.9893	NaN	0.000000	0.001551	0.001726	28.0801	19.2223	0.001766	10884.7	6.412493	-178.313	20.4094	1.071729	0.014166	0.013852	21.9893	10884.7	0.012651	0.012279	1790.83	89744.8
463	2.000000	1.074063	7.36959e+06	-53939.1	1005.82	-29745	0.000000	0.000000	7.075795	27.4074	NaN	0.000000	0.001533	0.001700	28.0799	21.3604	0.001678	12732.5	7.645227	-179.697	27.3928	1.073754	0.016186	0.015877	27.4074	12732.5	0.014571	0.014718	1862.17	95887.3
463	2.000000	1.075987	7.36959e+06	-53939.1	1005.82	-29745	0.000000	0.000000	7.077871	31.1033	NaN	0.000000	0.001599	0.001735	28.08	23.1757	0.001831	12654.4	7.002855	-179.412	29.7959	1.075752	0.018110	0.017875	31.1033	12654.4	0.016266	0.017011	1828.37	88643
463	2.000000	1.078000	7.36959e+06	-53939.1	1005.82	-29745	0.000000	0.000000	7.080163	37.868	NaN	0.000000	0.001596	0.001726	28.0804	25.443	0.001771	14368	4.334444	-178.278	35.8219	1.077710	0.020123	0.019833	37.868	14368	0.018147	0.019713	1920.94	93495.5
463	2.000000	1.079983	7.36959e+06	-53939.1	1005.82	-29745	0.000000	0.000000	7.082349	42.8387	NaN	0.000000	0.001622	0.001746	28.0814	26.2346	0.001666	15751.7	3.027141	-177.509	42.5569	1.079701	0.022106	0.021824	42.8387	15751.7	0.020066	0.022646	1891.64	95631.4
463	2.000000	1.082053	7.36959e+06	-53939.1	1005.82	-29745	0.000000	0.000000	7.084628	47.8972	NaN	0.000000	0.001667	0.001713	28.0802	29.1927	0.001857	15722.6	4.054722	-177.313	48.4211	1.081607	0.024176	0.023730	47.8972	15722.6	0.021892	0.025602	1870.81	89775.3
463	2.000000	1.084043	7.36959e+06	-53939.1	1005.82	-29745	0.000000	0.000000	7.086855	53.6543	NaN	0.000000	0.001685	0.001744	28.08	32.1482	0.001930	16656.7	10.7498	174.882	54.3295	1.083642	0.026166	0.025765	53.6543	16656.7	0.023750	0.028781	1864.22	89703.3
463	2.000000	1.086004	7.36959e+06	-53939.1	1005.82	-29745	0.000000	0.000000	7.089178	62.4689	NaN	0.000000	0.001670	0.001761	28.08	32.8916	0.001839	17888.1	3.777173	-179.457	61.5162	1.085652	0.028127	0.027775	62.4689	17888.1	0.025508	0.031947	1955.41	91437.4
463	2.000000	1.087966	7.36959e+06	-53939.1	1005.82	-29745	0.000000	0.000000	7.091307	66.5128	NaN	0.000000	0.001656	0.001798	28.0799	34.9439	0.001696	20608.8	3.044731	179.163	64.3633	1.087702	0.030089	0.029825	66.5128	20608.8	0.027669	0.036050	1844.99	99167.9
463	2.000000	1.090012	7.36959e+06	-53939.1	1005.82	-29745	0.000000	0.000000	7.093681	74.5104	NaN	0.000000	0.001639	0.001817	28.0802	36.2621	0.001814	19994.4	5.433752	177.307	75.2275	1.089712	0.032135	0.031835	74.5104	19994.4	0.029340	0.039387	1891.75	92045.9
463	2.000000	1.091951	7.36959e+06	-53939.1	1005.82	-29745	0.000000	0.000000	7.095856	80.2338	NaN	0.000000	0.001655	0.001759	28.079	39.4195	0.001802	21874.6	2.383458	179.983	77.3483	1.091692	0.034074	0.033815	80.2338	21874.6	0.031323	0.043530	1843.18	95789.3
463	2.000000	1.094063	7.36959e+06	-53939.1	1005.82	-29745	0.000000	0.000000	7.098312	88.6027	NaN	0.000000	0.001623	0.001775	28.0783	41.7225	0.001833	22764.2	6.454530	176.483	90.683	1.093660	0.036186	0.035783	88.6027	22764.2	0.033267	0.047787	1854.13	95141.8
463	2.000000	1.095942	7.36959e+06	-53939.1	1005.82	-29745	0.000000	0.000000	7.100252	90.0743	NaN	0.000000	0.001647	0.001792	28.0788	42.8824	0.001809	23705.9	2.848073	178.094	87.7915	1.095785	0.038065	0.037908	90.0743	23705.9	0.035216	0.052249	1723.93	94752.3
463	2.000000	1.097982	7.36959e+06	-53939.1	1005.82	-29745	0.000000	0.000000	7.102814	102.76	NaN	0.000000	0.001601	0.001802	28.0786	45.6309	0.001795	25421.5	6.839899	174.074	102.946	1.097574	0.040105	0.039698	102.76	25421.5	0.037074	0.056685	1812.84	97553.2
463	2.000000	1.099952	7.36959e+06	-53939.1	1005.82	-29745	0.000000	0.000000	7.105232	113.654	NaN	0.000000	0.001662	0.001748	28.0787	46.3154	0.001819	25458.5	0.995585	179.851	111.515	1.099641	0.042075	0.041764	113.654	25458.5	0.038727	0.060781	1869.9	94346.1
463	2.000000	1.101898	7.36959e+06	-53939.1	1005.82	-29745	0.000000	0.000000	7.107511	121.757	NaN	0.000000	0.001645	0.001786	28.0789	49.9204	0.001915	26064.1	7.245607	172.868	118.346	1.101671	0.044021	0.043794	121.757	26064.1	0.040518	0.065374	1862.48	93135.3
463	2.000000	1.104004	7.36959e+06	-53939.1	1005.82	-29745	0.000000	0.000000	7.110141	134.515	NaN	0.000000	0.001656	0.001752	28.0787	51.062	0.001834	27839.2	5.678962	175.393	135.948	1.103618	0.046127	0.045741	134.515	27839.2	0.042503	0.070657	1903.77	95687
463	2.000000	1.105917	7.36959e+06	-53939.1	1005.82	-29745	0.000000	0.000000	7.112399	142.887	NaN	0.000000	0.001637	0.001759	28.0788	51.7879	0.001798	28804.7	1.632216	178.043	140.218	1.105731	0.048040	0.047854	142.887	28804.7	0.044320	0.075669	1888.32	95670.6
463	2.000000	1.108000	7.36959e+06	-53939.1	1005.82	-29745	0.000000	0.000000	7.114843	151.672	NaN	0.000000	0.001686	0.001727	28.0785	55.4384	0.001810	30624.8	6.592059	172.576	153.866	1.107677	0.050123	0.049801	151.672	30624.8	0.046408	0.081636	1857.91	97927.7
463	2.000000	1.109961	7.36959e+06	-53939.1	1005.82	-29745	0.000000	0.000000	7.117376	165.587	NaN	0.000000	0.001677	0.001759	28.079	54.6177	0.001763	30985.2	2.911337	176.259	164.544	1.109659	0.052084	0.051782	165.587	30985.2	0.048076	0.086558	1913.02	96221.9
463	2.000000	1.111908	7.36959e+06	-53939.1	1005.82	-29745	0.000000	0.000000	7.119502	169.923	NaN	0.000000	0.001650	0.001749	28.0786	58.2422	0.001750	33287.8	7.429640	170.702	167.665	1.111654	0.054031	0.053777	169.923	33287.8	0.050202	0.093040	1826.35	99706.6
463	2.000000	1.114029	7.36959e+06	-53939.1	1005.82	-29745	0.000000	0.000000	7.122135	182.369	NaN	0.000000	0.001665	0.001747	28.0787	60.0571	0.001882	31916.3	6.047370	174.104	182.917	1.113612	0.056152	0.055735	182.369	31916.3	0.051867	0.098270	1855.79	93019.8
463	2.000000	1.115985	7.36959e+06	-53939.1	1005.82	-29745	0.000000	0.000000	7.124680	196.67	NaN	0.000000	0.001653	0.001755	28.0791	61.4112	0.001716	35793.5	5.561416	172.117	198.162	1.115625	0.058108	0.057748	196.67	35793.5	0.053988	0.105136	1870.63	100856
463	2.000000	1.117947	7.36959e+06	-53939.1	1005.82	-29745	0.000000	0.000000	7.127059	206.832	NaN	0.000000	0.001634	0.001737	28.0787	63.0147	0.001680	37506	1.836418	176.204	205.316	1.117584	0.060070	0.059708	206.832	37506	0.055934	0.111632	1852.8	102560
463	2.000000	1.119956	7.36959e+06	-53939.1	1005.82	-29745	0.000000	0.000000	7.129500	217.35	NaN	0.000000	0.001625	0.001751	28.0789	64.4772	0.001677	38447.2	4.508461	172.994	217.459	1.119568	0.062079	0.061691	217.35	38447.2	0.057839	0.118172	1839.26	102183
463	2.000000	1.121877	7.36959e+06	-53939.1	1005.82	-29745	0.000000	0.000000	7.131789	226.291	NaN	0.000000	0.001621	0.001807	28.0787	68.2626	0.001919	35565.3	6.099635	171.872	221.956	1.121539	0.064000	0.063662	226.291	35565.3	0.059228	0.123053	1838.97	92630.4
463	2.000000	1.123916	7.36959e+06	-53939.1	1005.82	-29745	0.000000	0.000000	7.134516	242.99	NaN	0.000000	0.001641	0.001759	28.0786	67.9896	0.001718	39572.6	0.598620	176.554	238.886	1.123600	0.066039	0.065723	242.99	39572.6	0.061434	0.131001	1854.88	99891.9
463	2.000000	1.125895	7.36959e+06	-53939.1	1005.82	-29745	0.000000	0.000000	7.136859	251.86	NaN	0.000000	0.001650	0.001800	28.0803	69.6959	0.001803	38647.2	2.701099	174.958	249.508	1.125592	0.068018	0.067715	251.86	38647.2	0.063131	0.137273	1834.74	95301.2
463	2.000000	1.127921	7.36959e+06	-53939.1	1005.82	-29745	0.000000	0.000000	7.139353	263.226	NaN	0.000000	0.001697	0.001753	28.08	72.5572	0.001876	38668.4	4.361926	173.293	260.413	1.127669	0.070044	0.069792	263.226	38668.4	0.064939	0.144111	1826.54	93063.6
463	2.000000	1.129994	7.36959e+06	-53939.1	1005.82	-29745	0.000000	0.000000	7.141840	273.291	NaN	0.000000	0.001653	0.001777	28.0801	73.4759	0.001953	37616.9	2.638138	175.257	275.721	1.129679	0.072118	0.071802	273.291	37616.9	0.066669	0.150801	1812.26	88502.1
463	2.000000	1.131905	7.36959e+06	-53939.1	1005.82	-29745	0.000000	0.000000	7.144366	288.252	NaN	0.000000	0.001705	0.001739	28.0798	74.9734	0.001737	43151.4	2.091379	174.632	285.635	1.131605	0.074028	0.073728	288.252	43151.4	0.069018	0.160116	1800.27	98526
463	2.000000	1.133944	7.36959e+06	-53939.1	1005.82	-29745	0.000000	0.000000	7.146852	299.108	NaN	0.000000	0.001648	0.001775	28.08	77.599	0.001740	44608.9	5.524015	170.989	298.703	1.133615	0.076067	0.075738	299.108	44608.9	0.071038	0.168336	1776.85	99335.9
463	2.000000	1.135875	7.36959e+06	-53939.1	1005.82	-29745	0.000000	0.000000	7.149398	314.045	NaN	0.000000	0.001621	0.001832	28.08	78.0288	0.001720	45373.2	1.005044	175.4	311.013	1.135521	0.077998	0.077644	314.045	45373.2	0.072807	0.175696	1787.44	98899.1
463	2.000000	1.137864	7.36959e+06	-53939.1	1005.82	-29745	0.000000	0.000000	7.152040	329.959	NaN	0.000000	0.001570	0.001782	28.0798	81.5144	0.001855	43940.4	4.364236	172.518	325.767	1.137549	0.079987	0.079672	329.959	43940.4	0.074355	0.182252	1810.45	94037.4
463	2.000000	1.139906	7.36959e+06	-53939.1	1005.82	-29745	0.000000	0.000000	7.154565	341.691	NaN	0.000000	0.001588	0.001802	28.08	82.6271	0.001817	45484.4	6.199992	170.116	340.144	1.139518	0.082029	0.081642	341.691	45484.4	0.076394	0.191068	1788.32	95069.6
463	2.000000	1.141874	7.36959e+06	-53939.1	1005.82	-29745	0.000000	0.000000	7.156705	345.88	NaN	0.000000	0.001576	0.001814	28.0798	84.4428	0.001754	48148.5	4.297559	171.139	341.754	1.141641	0.083997	0.083764	345.88	48148.5	0.078609	0.200861	1721.99	98154
463	2.000000	1.143967	7.36959e+06	-53939.1	1005.82	-29745	0.000000	0.000000	7.159886	372.318	NaN	0.000000	0.001554	0.001772	28.0801	86.8031	0.001854	46829.8	4.368949	172.277	373.404	1.143528	0.086090	0.085651	372.318	46829.8	0.080128	0.207708	1792.51	93879.1
463	2.000000	1.145953	7.36959e+06	-53939.1	1005.82	-29745	0.000000	0.000000	7.162299	382.699	NaN	0.000000	0.001552	0.001809	28.0798	88.7402	0.001769	50163.9	9.971426	165.964	384.207	1.145590	0.088076	0.087713	382.699	50163.9	0.082354	0.217942	1755.97	98173.3
463	2.000000	1.147899	7.36959e+06	-53939.1	1005.82	-29745	0.000000	0.000000	7.165038	401.991	NaN	0.000000	0.001576	0.001822	28.0798	90.0215	0.001784	50465.5	5.233700	170.628	400.482	1.147513	0.090022	0.089636	401.991	50465.5	0.084048	0.225880	1779.67	97012.9
463	2.000000	1.149900	7.36959e+06	-53939.1	1005.82	-29745	0.000000	0.000000	7.167491	412.967	NaN	0.000000	0.001616	0.001748	28.0801	90.7934	0.001798	50500.4	6.469708	169.013	412.539	1.149664	0.092023	0.091787	412.967	50500.4	0.085890	0.234666	1759.8	95245
463	2.000000	1.151824	7.36959e+06	-53939.1	1005.82	-29745	0.000000	0.000000	7.170441	437.887	NaN	0.000000	0.001639	0.001790	28.0799	91.6009	0.001763	51947.6	1.815960	173.831	433.02	1.151517	0.093948	0.093640	437.887	51947.6	0.087626	0.243085	1801.37	96263
463	2.000000	1.153960	7.36959e+06	-53939.1	1005.82	-29745	0.000000	0.000000	7.172979	447.675	NaN	0.000000	0.001621	0.001790	28.0804	95.5776	0.001899	50318.3	9.342791	167.205	448.267	1.153418	0.096083	0.095541	447.675	50318.3	0.089411	0.251891	1777.26	91599.6
463	2.000000	1.155784	7.36959e+06	-53939.1	1005.82	-29745	0.000000	0.000000	7.175600	467.069	NaN	0.000000	0.001616	0.001785	28.0798	95.2809	0.001841	51764.7	1.900543	173.97	459.708	1.155444	0.097907	0.097567	467.069	51764.7	0.091140	0.260559	1792.56	92651.7
463	2.000000	1.157800	7.36959e+06	-53939.1	1005.82	-29745	0.000000	0.000000	7.177854	472.859	NaN	0.000000	0.001644	0.001757	28.08	99.2756	0.001787	55540.1	4.324923	170.629	467.453	1.157541	0.099923	0.099664	472.859	55540.1	0.093537	0.272804	1733.33	97152.6
463	2.000000	1.159826	7.36959e+06	-53939.1	1005.82	-29745	0.000000	0.000000	7.180569	489.596	NaN	0.000000	0.001631	0.001777	28.0786	99.5015	0.001796	55408.3	2.095443	172.79	484.328	1.159557	0.101949	0.101680	489.596	55408.3	0.095321	0.282087	1735.62	95313.9
463	2.000000	1.161873	7.36959e+06	-53939.1	1005.82	-29745	0.000000	0.000000	7.183587	513.198	NaN	0.000000	0.001577	0.001835	28.0788	104.285	0.001751	59564.7	5.617122	169.186	511.745	1.161479	0.103996	0.103602	513.198	59564.7	0.097534	0.293801	1746.75	100400