File: remote_trans/data/nanoindenter/0828-1/data/Data_2025-08-06,11h17m57s/2025-07-22_16-23-58_1_1149.txt
2025-07-22, 16:23:58, 1
Index	Phase	Displacement	Time	Pos X	Pos Y	Pos Z	Rot A	Rot B	Piezo Z	Force A	Force B	Gripper	Voltage A	Voltage B	Temperature	Amplitude force	Amplitude pos	Stiffness	Phase shift	Phase excitation	Force A raw	Displacement raw	HMax	HMax raw	Real Force	Real Stiffness	Contact Depth	Area	Hardness	Reduced Mod.
[#]	[#]	[um]	[s]	[um]	[um]	[um]	[m°]	[m°]	[um]	[uN]	[uN]	[V]	[V]	[V]	[°C]	[uN]	[um]	[N/m]	[°]	[°]	[uN]	[um]	[um]	[um]	[uN]	[N/m]	[um]	[um^2]	[MPa]	[MPa]
1149	1.000000	0.002459	7.3763e+06	-57589.1	1055.82	-29736.6	0.000000	0.000000	6.002817	-0.041840	NaN	0.000000	0.001561	0.001727	28.0814	0.059558	0.001022	58.2568	-14.4321	-171.308	-0.027772	0.001162	-1.172985	-1.174283	-0.041840	58.2568	-1.172447	-4.695395E+15	8.910803E-18	NaN
1149	1.000000	0.012485	7.3763e+06	-57589.1	1055.82	-29736.6	0.000000	0.000000	6.012844	0.002887	NaN	0.000000	0.001544	0.001742	28.0816	0.014406	0.001096	13.1397	154.288	16.4363	0.030926	0.011067	-1.162960	-1.164378	0.002887	13.1397	-1.163125	-3.521694E+15	-8.196397E-19	NaN
1149	1.000000	0.022389	7.3763e+06	-57589.1	1055.82	-29736.6	0.000000	0.000000	6.022747	-0.045382	NaN	0.000000	0.001543	0.001764	28.0814	0.057064	0.001753	32.5478	52.9321	-164.982	-0.013570	0.021105	-1.153056	-1.154340	-0.045382	32.5478	-1.152010	-2.498999E+15	1.815996E-17	NaN
1149	1.000000	0.032408	7.3763e+06	-57589.1	1055.82	-29736.6	0.000000	0.000000	6.032766	-0.021281	NaN	0.000000	0.001570	0.001701	28.0815	0.043074	0.001960	21.9745	-98.5447	13.8451	-0.004188	0.031001	-1.143037	-1.144444	-0.021281	21.9745	-1.142311	-1.852343E+15	1.148891E-17	NaN
1149	1.000000	0.042397	7.3763e+06	-57589.1	1055.82	-29736.6	0.000000	0.000000	6.042754	-0.064349	NaN	0.000000	0.001583	0.001719	28.0816	0.074487	0.001978	37.6657	-179.412	-167.401	-0.044328	0.041110	-1.133048	-1.134335	-0.064349	37.6657	-1.131766	-1.337559E+15	4.810957E-17	NaN
1149	1.000000	0.052373	7.3763e+06	-57589.1	1055.82	-29736.6	0.000000	0.000000	6.052732	-0.001590	NaN	0.000000	0.001605	0.001721	28.0816	0.046911	0.001982	23.6692	115.632	11.3357	-0.080935	0.051031	-1.123072	-1.124414	-0.001590	23.6692	-1.123022	-1.020976E+15	1.557712E-18	NaN
1149	1.000000	0.062368	7.3763e+06	-57589.1	1055.82	-29736.6	0.000000	0.000000	6.062726	-0.032237	NaN	0.000000	0.001587	0.001715	28.0813	0.109618	0.001882	58.2425	105.326	-164.433	0.050852	0.061088	-1.113077	-1.114357	-0.032237	58.2425	-1.112661	-7.413163E+14	4.348586E-17	NaN
1149	1.000000	0.072398	7.3763e+06	-57589.1	1055.82	-29736.6	0.000000	0.000000	6.072757	0.011996	NaN	0.000000	0.001547	0.001724	28.0825	0.143083	0.002018	70.909	-63.6064	15.9001	-0.045602	0.071002	-1.103047	-1.104443	0.011996	70.909	-1.103174	-5.529382E+14	-2.169514E-17	NaN
1149	1.000000	0.082428	7.3763e+06	-57589.1	1055.82	-29736.6	0.000000	0.000000	6.082788	0.023771	NaN	0.000000	0.001585	0.001697	28.0826	0.080290	0.001904	42.168	56.6802	-163.246	0.007436	0.081099	-1.093017	-1.094346	0.023771	42.168	-1.093440	-4.092607E+14	-5.808400E-17	NaN
1149	1.000000	0.092378	7.3763e+06	-57589.1	1055.82	-29736.6	0.000000	0.000000	6.092736	-0.036493	NaN	0.000000	0.001574	0.001722	28.0826	0.023180	0.002041	11.3586	-67.774	10.9317	-0.001890	0.091109	-1.083067	-1.084336	-0.036493	11.3586	-1.080657	-2.756433E+14	1.323925E-16	NaN
1149	1.000000	0.102413	7.3763e+06	-57589.1	1055.82	-29736.6	0.000000	0.000000	6.102769	-0.084259	NaN	0.000000	0.001594	0.001751	28.0827	0.101382	0.001965	51.5808	58.192	-165.33	0.026282	0.101186	-1.073031	-1.074259	-0.084259	51.5808	-1.071806	-2.096315E+14	4.019392E-16	NaN
1149	1.000000	0.112418	7.3763e+06	-57589.1	1055.82	-29736.6	0.000000	0.000000	6.112776	-0.023679	NaN	0.000000	0.001568	0.001717	28.0827	0.011451	0.001898	6.032259	-70.7103	14.0421	0.003794	0.111052	-1.063027	-1.064393	-0.023679	6.032259	-1.060083	-1.458587E+14	1.623441E-16	NaN
1149	1.000000	0.122437	7.3763e+06	-57589.1	1055.82	-29736.6	0.000000	0.000000	6.122795	-0.044090	NaN	0.000000	0.001581	0.001732	28.0823	0.134877	0.001964	68.6584	13.5206	-167.328	0.012913	0.121108	-1.053008	-1.054337	-0.044090	68.6584	-1.052526	-1.154442E+14	3.819197E-16	NaN
1149	1.000000	0.132431	7.3763e+06	-57589.1	1055.82	-29736.6	0.000000	0.000000	6.132787	-0.071811	NaN	0.000000	0.001566	0.001698	28.0825	0.112189	0.001971	56.9177	-10.4375	15.3049	-0.028886	0.131049	-1.043014	-1.044396	-0.071811	56.9177	-1.042068	-8.351690E+13	8.598423E-16	NaN
1149	1.000000	0.142417	7.3763e+06	-57589.1	1055.82	-29736.6	0.000000	0.000000	6.142776	-0.009874	NaN	0.000000	0.001505	0.001726	28.0824	0.066101	0.002066	31.9944	-87.3918	-166.738	-0.009453	0.141143	-1.033028	-1.034302	-0.009874	31.9944	-1.032797	-6.267524E+13	1.575494E-16	NaN
1149	1.000000	0.152435	7.3763e+06	-57589.1	1055.82	-29736.6	0.000000	0.000000	6.152795	0.001116	NaN	0.000000	0.001538	0.001730	28.0826	0.033004	0.001948	16.9455	-136.852	14.3644	-0.016686	0.151054	-1.023009	-1.024391	0.001116	16.9455	-1.023059	-4.635602E+13	-2.408229E-17	NaN
1149	1.000000	0.162472	7.3763e+06	-57589.1	1055.82	-29736.6	0.000000	0.000000	6.162829	-0.063444	NaN	0.000000	0.001572	0.001715	28.0824	0.057061	0.002026	28.1704	57.1708	-168.505	-0.080781	0.161121	-1.012973	-1.014323	-0.063444	28.1704	-1.011284	-3.218533E+13	1.971201E-15	NaN
1149	1.000000	0.172410	7.3763e+06	-57589.1	1055.82	-29736.6	0.000000	0.000000	6.172768	-0.016760	NaN	0.000000	0.001562	0.001748	28.0821	0.035558	0.002139	16.624	43.0178	12.3727	0.018639	0.171083	-1.003035	-1.004362	-0.016760	16.624	-1.002279	-2.434734E+13	6.883760E-16	NaN
1149	1.000000	0.182441	7.3763e+06	-57589.1	1055.82	-29736.6	0.000000	0.000000	6.182801	0.021878	NaN	0.000000	0.001563	0.001737	28.0824	0.066483	0.001988	33.4441	85.7968	-168.385	-0.019619	0.181102	-0.993004	-0.994343	0.021878	33.4441	-0.993494	-1.854255E+13	-1.179858E-15	NaN
1149	1.000000	0.192445	7.3763e+06	-57589.1	1055.82	-29736.6	0.000000	0.000000	6.192804	-0.001879	NaN	0.000000	0.001647	0.001745	28.0822	0.116761	0.002059	56.6973	72.6577	13.094	0.071214	0.191084	-0.983000	-0.984361	-0.001879	56.6973	-0.982975	-1.338114E+13	1.404148E-16	NaN
1149	1.000000	0.202433	7.3763e+06	-57589.1	1055.82	-29736.6	0.000000	0.000000	6.202792	-0.000669	NaN	0.000000	0.001657	0.001740	28.0809	0.074040	0.002077	35.644	-161.763	-165.415	0.069443	0.201131	-0.973012	-0.974314	-0.000669	35.644	-0.972998	-9.819026E+12	6.812868E-17	NaN
1149	1.000000	0.212443	7.3763e+06	-57589.1	1055.82	-29736.6	0.000000	0.000000	6.212802	-0.003092	NaN	0.000000	0.001668	0.001757	28.0812	0.068287	0.002042	33.4387	-45.4779	9.349742	0.066686	0.211069	-0.963002	-0.964376	-0.003092	33.4387	-0.962932	-7.184551E+12	4.303519E-16	NaN
1149	1.000000	0.222459	7.3763e+06	-57589.1	1055.82	-29736.6	0.000000	0.000000	6.222815	-0.087021	NaN	0.000000	0.001663	0.001725	28.0814	0.054377	0.002005	27.1162	-111.206	-164.881	-0.067476	0.221160	-0.952986	-0.954285	-0.087021	27.1162	-0.950579	-4.895968E+12	1.777397E-14	NaN
1149	1.000000	0.232457	7.3763e+06	-57589.1	1055.82	-29736.6	0.000000	0.000000	6.232816	-0.010582	NaN	0.000000	0.001653	0.001751	28.0812	0.091841	0.002029	45.2575	98.3232	12.9107	-0.001949	0.231076	-0.942988	-0.944369	-0.010582	45.2575	-0.942813	-3.846630E+12	2.750940E-15	NaN
1149	1.000000	0.242460	7.3763e+06	-57589.1	1055.82	-29736.6	0.000000	0.000000	6.242819	-0.015001	NaN	0.000000	0.001628	0.001700	28.0813	0.041429	0.002018	20.5278	-97.3632	-163.052	-0.016496	0.241175	-0.932985	-0.934270	-0.015001	20.5278	-0.932437	-2.786667E+12	5.383177E-15	NaN
1149	1.000000	0.252452	7.3763e+06	-57589.1	1055.82	-29736.6	0.000000	0.000000	6.252810	-0.024816	NaN	0.000000	0.001630	0.001754	28.0816	0.105387	0.001975	53.3506	-46.8713	15.1431	-0.046986	0.251159	-0.922993	-0.924286	-0.024816	53.3506	-0.922644	-2.055429E+12	1.207347E-14	NaN
1149	1.000000	0.262482	7.3763e+06	-57589.1	1055.82	-29736.6	0.000000	0.000000	6.262840	-0.022654	NaN	0.000000	0.001634	0.001698	28.0816	0.090323	0.001970	45.8419	-141	-165.682	-0.084277	0.261149	-0.912963	-0.914296	-0.022654	45.8419	-0.912592	-1.503756E+12	1.506505E-14	NaN
1149	1.000000	0.272485	7.3763e+06	-57589.1	1055.82	-29736.6	0.000000	0.000000	6.272844	-0.011122	NaN	0.000000	0.001611	0.001706	28.0814	0.071523	0.001986	36.0158	-2.624736	12.4763	-0.036632	0.271110	-0.902960	-0.904334	-0.011122	36.0158	-0.902728	-1.106448E+12	1.005230E-14	NaN
1149	1.000000	0.282474	7.3763e+06	-57589.1	1055.82	-29736.6	0.000000	0.000000	6.282833	-0.008752	NaN	0.000000	0.001615	0.001716	28.0812	0.115715	0.001938	59.6952	171.574	-167.316	-0.112935	0.281145	-0.892971	-0.894300	-0.008752	59.6952	-0.892861	-8.139208E+11	1.075332E-14	NaN
1149	1.000000	0.292508	7.3763e+06	-57589.1	1055.82	-29736.6	0.000000	0.000000	6.292864	-0.059521	NaN	0.000000	0.001608	0.001745	28.0815	0.041237	0.001964	21.0015	-159.301	10.2282	-0.022723	0.291101	-0.882937	-0.884344	-0.059521	21.0015	-0.880812	-5.593509E+11	1.064112E-13	NaN
1149	1.000000	0.302510	7.3763e+06	-57589.1	1055.82	-29736.6	0.000000	0.000000	6.302870	-0.000515	NaN	0.000000	0.001652	0.001763	28.0814	0.085518	0.002067	41.3655	-80.3219	-168	0.035459	0.301217	-0.872935	-0.874228	-0.000515	41.3655	-0.872925	-4.375403E+11	1.177919E-15	NaN
1149	1.000000	0.312501	7.3763e+06	-57589.1	1055.82	-29736.6	0.000000	0.000000	6.312858	-0.048698	NaN	0.000000	0.001640	0.001765	28.0813	0.050138	0.002002	25.0473	152.683	19.4765	-0.045304	0.311159	-0.862944	-0.864286	-0.048698	25.0473	-0.861486	-3.063567E+11	1.589577E-13	NaN
1149	1.000000	0.322500	7.3763e+06	-57589.1	1055.82	-29736.6	0.000000	0.000000	6.322856	-0.075916	NaN	0.000000	0.001617	0.001742	28.0817	0.014580	0.002069	7.047829	-92.9347	-164.56	-0.058066	0.321260	-0.852945	-0.854185	-0.075916	7.047829	-0.844866	-1.824767E+11	4.160332E-13	NaN
1149	1.000000	0.332481	7.3763e+06	-57589.1	1055.82	-29736.6	0.000000	0.000000	6.332838	-0.050773	NaN	0.000000	0.001670	0.001793	28.0817	0.027727	0.002161	12.8319	-55.4354	12.0076	-0.103743	0.331164	-0.842964	-0.844281	-0.050773	12.8319	-0.839997	-1.567651E+11	3.238777E-13	NaN
1149	1.000000	0.342491	7.3763e+06	-57589.1	1055.82	-29736.6	0.000000	0.000000	6.342850	-0.011720	NaN	0.000000	0.001633	0.001783	28.0829	0.066457	0.002004	33.1557	66.659	-165.6	-0.036111	0.341192	-0.832954	-0.834253	-0.011720	33.1557	-0.832689	-1.248032E+11	9.390868E-14	NaN
1149	1.000000	0.352535	7.3763e+06	-57589.1	1055.82	-29736.6	0.000000	0.000000	6.352892	-0.056389	NaN	0.000000	0.001627	0.001744	28.0826	0.000556	0.001974	0.281683	68.7818	10.8243	-0.018673	0.351127	-0.822910	-0.824318	-0.056389	0.281683	-0.672771	-8.304431E+8	6.790198E-11	NaN
1149	1.000000	0.362510	7.3763e+06	-57589.1	1055.82	-29736.6	0.000000	0.000000	6.362867	-0.051425	NaN	0.000000	0.001541	0.001793	28.083	0.073105	0.001980	36.9261	112.157	-165.004	-0.040114	0.361202	-0.812935	-0.814243	-0.051425	36.9261	-0.811890	-6.519512E+10	7.887786E-13	NaN
1149	1.000000	0.372506	7.3763e+06	-57589.1	1055.82	-29736.6	0.000000	0.000000	6.372864	-0.028839	NaN	0.000000	0.001566	0.001777	28.0828	0.083406	0.002015	41.3997	130.027	13.8631	-0.038226	0.371148	-0.802939	-0.804296	-0.028839	41.3997	-0.802416	-4.849096E+10	5.947279E-13	NaN
1149	1.000000	0.382514	7.3763e+06	-57589.1	1055.82	-29736.6	0.000000	0.000000	6.382869	-0.090707	NaN	0.000000	0.001558	0.001786	28.0828	0.021571	0.001912	11.2802	-66.3227	-167.411	-0.018751	0.381199	-0.792931	-0.794246	-0.090707	11.2802	-0.786900	-2.985237E+10	3.038531E-12	NaN
1149	1.000000	0.392517	7.3763e+06	-57589.1	1055.82	-29736.6	0.000000	0.000000	6.392877	0.015812	NaN	0.000000	0.001535	0.001769	28.0825	0.045696	0.002175	21.005	0.887884	15.4609	-0.055515	0.391178	-0.782928	-0.784267	0.015812	21.005	-0.783493	-2.683436E+10	-5.892446E-13	NaN
1149	1.000000	0.402541	7.3763e+06	-57589.1	1055.82	-29736.6	0.000000	0.000000	6.402899	-0.028169	NaN	0.000000	0.001582	0.001804	28.0829	0.028508	0.002007	14.2058	-139.435	-164.533	-0.069461	0.401226	-0.772904	-0.774219	-0.028169	14.2058	-0.771417	-1.838928E+10	1.531790E-12	NaN
1149	1.000000	0.412557	7.3763e+06	-57589.1	1055.82	-29736.6	0.000000	0.000000	6.412914	-0.050561	NaN	0.000000	0.001564	0.001827	28.0827	0.024098	0.002088	11.5389	62.4034	11.3615	-0.063449	0.411186	-0.762888	-0.764259	-0.050561	11.5389	-0.759602	-1.270246E+10	3.980379E-12	NaN
1149	1.000000	0.422579	7.3763e+06	-57589.1	1055.82	-29736.6	0.000000	0.000000	6.422937	-0.036829	NaN	0.000000	0.001560	0.001775	28.0828	0.063687	0.001949	32.6698	-23.6059	-169.911	-0.078004	0.421202	-0.752866	-0.754243	-0.036829	32.6698	-0.752020	-1.001663E+10	3.676756E-12	NaN
1149	1.000000	0.432541	7.3763e+06	-57589.1	1055.82	-29736.6	0.000000	0.000000	6.432897	-0.099673	NaN	0.000000	0.001607	0.001776	28.0824	0.066981	0.001964	34.1038	67.1164	12.7346	-0.126136	0.431279	-0.742904	-0.744166	-0.099673	34.1038	-0.740712	-7.026640E+9	1.418506E-11	NaN
1149	1.000000	0.442557	7.3763e+06	-57589.1	1055.82	-29736.6	0.000000	0.000000	6.442915	-0.030544	NaN	0.000000	0.001605	0.001752	28.0829	0.097648	0.001998	48.8762	92.0841	-166.706	-0.053895	0.441267	-0.732888	-0.734178	-0.030544	48.8762	-0.732420	-5.417306E+9	5.638282E-12	NaN
1149	1.000000	0.452573	7.3763e+06	-57589.1	1055.82	-29736.6	0.000000	0.000000	6.452930	-0.051995	NaN	0.000000	0.001589	0.001751	28.0828	0.085957	0.002114	40.6659	-138.447	14.5405	-0.042050	0.451188	-0.722872	-0.724256	-0.051995	40.6659	-0.721913	-3.895528E+9	1.334736E-11	NaN
1149	1.000000	0.462549	7.3763e+06	-57589.1	1055.82	-29736.6	0.000000	0.000000	6.462908	-0.021944	NaN	0.000000	0.001609	0.001736	28.0827	0.074463	0.002166	34.3798	42.1208	-166.772	-0.072844	0.461215	-0.712895	-0.714230	-0.021944	34.3798	-0.712417	-2.890860E+9	7.590830E-12	NaN
1149	1.000000	0.472565	7.3763e+06	-57589.1	1055.82	-29736.6	0.000000	0.000000	6.472926	0.035771	NaN	0.000000	0.001655	0.001714	28.0827	0.006684	0.002009	3.327485	-10.4101	9.933785	0.064658	0.471136	-0.702880	-0.704309	0.035771	3.327485	-0.710942	-2.759976E+9	-1.296045E-11	NaN
1149	1.000000	0.482543	7.3763e+06	-57589.1	1055.82	-29736.6	0.000000	0.000000	6.482899	-0.066529	NaN	0.000000	0.001594	0.001741	28.0817	0.141651	0.002079	68.1228	12.7418	-165.997	-0.027129	0.481271	-0.692902	-0.694174	-0.066529	68.1228	-0.692170	-1.529572E+9	4.349491E-11	NaN
1149	1.000000	0.492570	7.3763e+06	-57589.1	1055.82	-29736.6	0.000000	0.000000	6.492927	-0.042431	NaN	0.000000	0.001560	0.001750	28.0812	0.081457	0.002024	40.2454	-83.771	16.7126	0.015208	0.491251	-0.682875	-0.684194	-0.042431	40.2454	-0.682084	-1.113555E+9	3.810417E-11	NaN
1149	1.000000	0.502587	7.3763e+06	-57589.1	1055.82	-29736.6	0.000000	0.000000	6.502945	-0.047693	NaN	0.000000	0.001578	0.001737	28.0815	0.040567	0.001923	21.0941	66.6561	-164.418	-0.021878	0.501274	-0.672858	-0.674171	-0.047693	21.0941	-0.671162	-7.893932E+8	6.041788E-11	NaN
1149	1.000000	0.512616	7.3763e+06	-57589.1	1055.82	-29736.6	0.000000	0.000000	6.512976	0.018468	NaN	0.000000	0.001637	0.001787	28.0818	0.053974	0.002154	25.0617	113.027	15.5517	-0.041759	0.511176	-0.662829	-0.664269	0.018468	25.0617	-0.663382	-6.177145E+8	-2.989728E-11	NaN
1149	1.000000	0.522583	7.3763e+06	-57589.1	1055.82	-29736.6	0.000000	0.000000	6.522938	-0.102079	NaN	0.000000	0.001599	0.001808	28.0816	0.113625	0.001999	56.8544	-78.7198	-166.514	-0.101506	0.521313	-0.652862	-0.654132	-0.102079	56.8544	-0.651516	-4.248279E+8	2.402836E-10	NaN
1149	1.000000	0.532610	7.3763e+06	-57589.1	1055.82	-29736.6	0.000000	0.000000	6.532966	-0.077712	NaN	0.000000	0.001602	0.001796	28.0814	0.056167	0.002069	27.1481	43.3598	14.799	-0.018022	0.531213	-0.642835	-0.644232	-0.077712	27.1481	-0.640688	-3.018099E+8	2.574872E-10	NaN
1149	1.000000	0.542626	7.3763e+06	-57589.1	1055.82	-29736.6	0.000000	0.000000	6.542982	-0.093581	NaN	0.000000	0.001608	0.001747	28.0817	0.053045	0.002175	24.3927	-13.8522	-167.128	-0.071216	0.541279	-0.632818	-0.634166	-0.093581	24.3927	-0.629941	-2.148891E+8	4.354831E-10	NaN
1149	1.000000	0.552586	7.3763e+06	-57589.1	1055.82	-29736.6	0.000000	0.000000	6.552946	0.026573	NaN	0.000000	0.001611	0.001793	28.0816	0.106485	0.001920	55.4744	177.071	16.015	-0.100495	0.551207	-0.622859	-0.624238	0.026573	55.4744	-0.623218	-1.737256E+8	-1.529589E-10	NaN
1149	1.000000	0.562605	7.3763e+06	-57589.1	1055.82	-29736.6	0.000000	0.000000	6.562960	-0.095509	NaN	0.000000	0.001636	0.001725	28.0814	0.040631	0.001953	20.8083	52.7039	-166.298	-0.089797	0.561235	-0.612840	-0.614210	-0.095509	20.8083	-0.609397	-1.121559E+8	8.515760E-10	NaN
1149	1.000000	0.572619	7.3763e+06	-57589.1	1055.82	-29736.6	0.000000	0.000000	6.572977	-0.033927	NaN	0.000000	0.001609	0.001745	28.0815	0.096313	0.001872	51.4501	161.414	14.94	-0.102934	0.571262	-0.602825	-0.604183	-0.033927	51.4501	-0.602331	-8.965173E+7	3.784256E-10	NaN
1149	1.000000	0.582611	7.3763e+06	-57589.1	1055.82	-29736.6	0.000000	0.000000	6.582969	-0.039985	NaN	0.000000	0.001564	0.001716	28.0816	0.075577	0.002098	36.026	144.459	-168.877	-0.001521	0.581298	-0.592834	-0.594147	-0.039985	36.026	-0.592001	-6.460320E+7	6.189261E-10	NaN
1149	1.000000	0.592601	7.3763e+06	-57589.1	1055.82	-29736.6	0.000000	0.000000	6.592961	0.001716	NaN	0.000000	0.001592	0.001731	28.0817	0.018069	0.002043	8.846596	171.519	15.0758	-0.090971	0.591281	-0.582843	-0.584164	0.001716	8.846596	-0.582989	-4.852562E+7	-3.537062E-11	NaN
1149	1.000000	0.602621	7.3763e+06	-57589.1	1055.82	-29736.6	0.000000	0.000000	6.602979	-0.021588	NaN	0.000000	0.001583	0.001735	28.0815	0.027199	0.002084	13.0508	-128.588	-165.581	-0.093807	0.601308	-0.572824	-0.574137	-0.021588	13.0508	-0.571583	-3.376819E+7	6.392919E-10	NaN
1149	1.000000	0.612599	7.3763e+06	-57589.1	1055.82	-29736.6	0.000000	0.000000	6.612960	0.052602	NaN	0.000000	0.001605	0.001734	28.083	0.064797	0.001991	32.5461	145.14	13.6778	-0.019299	0.611274	-0.562846	-0.564171	0.052602	32.5461	-0.564058	-2.657680E+7	-1.979247E-9	NaN
1149	1.000000	0.622616	7.3763e+06	-57589.1	1055.82	-29736.6	0.000000	0.000000	6.622975	-0.017547	NaN	0.000000	0.001632	0.001710	28.0829	0.038715	0.001929	20.0674	-16.5394	-167.173	-0.081708	0.621269	-0.552829	-0.554176	-0.017547	20.0674	-0.552173	-1.819908E+7	9.641621E-10	NaN
1149	1.000000	0.632645	7.3763e+06	-57589.1	1055.82	-29736.6	0.000000	0.000000	6.633003	-0.019800	NaN	0.000000	0.001586	0.001728	28.0829	0.106220	0.001887	56.2888	-24.6652	13.812	-0.057534	0.631275	-0.542800	-0.544170	-0.019800	56.2888	-0.542536	-1.338213E+7	1.479588E-9	NaN
1149	1.000000	0.642641	7.3763e+06	-57589.1	1055.82	-29736.6	0.000000	0.000000	6.642998	-0.040054	NaN	0.000000	0.001560	0.001711	28.0829	0.061701	0.002172	28.4075	-101.195	-166.654	-0.028760	0.641287	-0.532804	-0.534158	-0.040054	28.4075	-0.531747	-9.48044e+06	4.224894E-9	NaN
1149	1.000000	0.652616	7.3763e+06	-57589.1	1055.82	-29736.6	0.000000	0.000000	6.652975	0.003305	NaN	0.000000	0.001598	0.001753	28.0835	0.024555	0.002071	11.8549	85.0192	14.5823	-0.022068	0.651219	-0.522829	-0.524226	0.003305	11.8549	-0.523038	-7.17538e+06	-4.606470E-10	NaN
1149	1.000000	0.662640	7.3763e+06	-57589.1	1055.82	-29736.6	0.000000	0.000000	6.662992	-0.165924	NaN	0.000000	0.001602	0.001698	28.0834	0.053905	0.001957	27.5415	-36.5086	-165.155	-0.114079	0.661359	-0.512805	-0.514086	-0.165924	27.5415	-0.508286	-4.47245e+06	3.709922E-8	NaN
1149	1.000000	0.672653	7.3763e+06	-57589.1	1055.82	-29736.6	0.000000	0.000000	6.673008	-0.120123	NaN	0.000000	0.001591	0.001721	28.083	0.043021	0.001976	21.7761	-141.6	12.4624	-0.198880	0.671261	-0.502791	-0.504184	-0.120123	21.7761	-0.498654	-3.28278e+06	3.659174E-8	NaN
1149	1.000000	0.682656	7.3763e+06	-57589.1	1055.82	-29736.6	0.000000	0.000000	6.683012	-0.082079	NaN	0.000000	0.001622	0.001745	28.0829	0.038577	0.002041	18.9041	129.846	-169.413	-0.144487	0.681334	-0.492789	-0.494111	-0.082079	18.9041	-0.489532	-2.44824e+06	3.352584E-8	NaN
1149	1.000000	0.692659	7.3763e+06	-57589.1	1055.82	-29736.6	0.000000	0.000000	6.693018	-0.018470	NaN	0.000000	0.001590	0.001710	28.0831	0.032072	0.001981	16.1863	10.9187	18.2195	0.037385	0.691310	-0.482786	-0.484134	-0.018470	16.1863	-0.481930	-1.91664e+06	9.636546E-9	NaN
1149	1.000000	0.702674	7.3763e+06	-57589.1	1055.82	-29736.6	0.000000	0.000000	6.703031	-0.062084	NaN	0.000000	0.001586	0.001734	28.0827	0.103042	0.002069	49.7989	-57.9204	-164.011	-0.101786	0.701375	-0.472771	-0.474070	-0.062084	49.7989	-0.471836	-1.38405e+06	4.485668E-8	NaN
1149	1.000000	0.712667	7.3763e+06	-57589.1	1055.82	-29736.6	0.000000	0.000000	6.713026	-0.012446	NaN	0.000000	0.001587	0.001729	28.0828	0.060693	0.002125	28.5591	-142.057	11.9437	-0.051025	0.711281	-0.462778	-0.464164	-0.012446	28.5591	-0.462451	-1.02201e+06	1.217822E-8	NaN
1149	1.000000	0.722693	7.3763e+06	-57589.1	1055.82	-29736.6	0.000000	0.000000	6.723051	-0.026121	NaN	0.000000	0.001598	0.001752	28.0829	0.073441	0.001997	36.7708	56.9691	-168.97	-0.045716	0.721363	-0.452752	-0.454082	-0.026121	36.7708	-0.452219	-733822	3.559618E-8	NaN
1149	1.000000	0.732670	7.3763e+06	-57589.1	1055.82	-29736.6	0.000000	0.000000	6.733029	3.482559E-6	NaN	0.000000	0.001600	0.001736	28.0829	0.036002	0.001828	19.6934	5.199941	15.3901	0.048089	0.731348	-0.442775	-0.444097	3.482559E-6	19.6934	-0.442775	-540152	-6.447372E-12	NaN
1149	1.000000	0.742651	7.3763e+06	-57589.1	1055.82	-29736.6	0.000000	0.000000	6.743014	0.102368	NaN	0.000000	0.001584	0.001757	28.0829	0.144130	0.002039	70.704	61.2854	-166.946	0.142725	0.741370	-0.432794	-0.434075	0.102368	70.704	-0.433880	-404511	-2.530654E-7	NaN
1149	1.000000	0.752715	7.3763e+06	-57589.1	1055.82	-29736.6	0.000000	0.000000	6.753073	-0.015792	NaN	0.000000	0.001576	0.001752	28.0818	0.074624	0.001936	38.5545	-169.92	11.8903	-0.071640	0.751315	-0.422730	-0.424130	-0.015792	38.5545	-0.422423	-278463	5.671122E-8	NaN
1149	1.000000	0.762697	7.3763e+06	-57589.1	1055.82	-29736.6	0.000000	0.000000	6.763056	-0.025877	NaN	0.000000	0.001575	0.001751	28.0819	0.046774	0.001970	23.738	140.127	-166.138	-0.071391	0.761407	-0.412748	-0.414037	-0.025877	23.738	-0.411930	-197624	1.309412E-7	NaN
1149	1.000000	0.772702	7.3763e+06	-57589.1	1055.82	-29736.6	0.000000	0.000000	6.773058	-0.071917	NaN	0.000000	0.001583	0.001730	28.0816	0.075693	0.001989	38.0485	-12.6042	13.4031	-0.063856	0.771277	-0.402743	-0.404168	-0.071917	38.0485	-0.401325	-139601	5.151573E-7	NaN
1149	1.000000	0.782695	7.3763e+06	-57589.1	1055.82	-29736.6	0.000000	0.000000	6.783052	-0.053374	NaN	0.000000	0.001553	0.001778	28.0816	0.068971	0.002012	34.2804	12.743	-167.821	-0.162797	0.781377	-0.392750	-0.394068	-0.053374	34.2804	-0.391582	-101342	5.266699E-7	NaN
1149	1.000000	0.792701	7.3763e+06	-57589.1	1055.82	-29736.6	0.000000	0.000000	6.793058	-0.059678	NaN	0.000000	0.001586	0.001731	28.0818	0.072078	0.001994	36.1522	-37.0709	11.0323	-0.043274	0.791342	-0.382744	-0.384103	-0.059678	36.1522	-0.381506	-72694.1	8.209480E-7	NaN
1149	1.000000	0.802719	7.3763e+06	-57589.1	1055.82	-29736.6	0.000000	0.000000	6.803075	-0.074979	NaN	0.000000	0.001581	0.001753	28.0817	0.134130	0.002018	66.4596	168.251	-167.176	-0.073894	0.801393	-0.372726	-0.374052	-0.074979	66.4596	-0.371880	-52867.8	1.418241E-6	NaN
1149	1.000000	0.812692	7.3763e+06	-57589.1	1055.82	-29736.6	0.000000	0.000000	6.813052	0.001896	NaN	0.000000	0.001577	0.001726	28.0818	0.131763	0.001938	67.9995	33.027	13.2982	-0.012994	0.811333	-0.362753	-0.364112	0.001896	67.9995	-0.362773	-39076.5	-4.852684E-8	NaN
1149	1.000000	0.822731	7.3763e+06	-57589.1	1055.82	-29736.6	0.000000	0.000000	6.823089	-0.048266	NaN	0.000000	0.001547	0.001732	28.0817	0.044555	0.001917	23.243	-14.1105	-171.107	-0.046789	0.821440	-0.352713	-0.354005	-0.048266	23.243	-0.351156	-26532.4	1.819132E-6	NaN
1149	1.000000	0.832713	7.3763e+06	-57589.1	1055.82	-29736.6	0.000000	0.000000	6.833071	-0.029221	NaN	0.000000	0.001574	0.001757	28.0819	0.121786	0.002011	60.5601	-114.919	15.2098	0.028328	0.831395	-0.342732	-0.344050	-0.029221	60.5601	-0.342370	-19773.7	1.477782E-6	NaN
1149	1.000000	0.842701	7.3763e+06	-57589.1	1055.82	-29736.6	0.000000	0.000000	6.843059	-0.036598	NaN	0.000000	0.001567	0.001760	28.0817	0.080196	0.002041	39.2862	39.4951	-165.904	-0.009791	0.841453	-0.332744	-0.333992	-0.036598	39.2862	-0.332045	-13976	2.618663E-6	NaN
1149	1.000000	0.852733	7.3763e+06	-57589.1	1055.82	-29736.6	0.000000	0.000000	6.853090	-0.053121	NaN	0.000000	0.001576	0.001730	28.0817	0.085970	0.001954	43.9916	27.5845	14.3617	-0.109847	0.851413	-0.322712	-0.324032	-0.053121	43.9916	-0.321806	-9890.31	5.371022E-6	NaN
1149	1.000000	0.862740	7.3763e+06	-57589.1	1055.82	-29736.6	0.000000	0.000000	6.863097	-0.055139	NaN	0.000000	0.001598	0.001738	28.0819	0.111895	0.001905	58.7313	98.9759	-167.309	-0.068036	0.861407	-0.312705	-0.314038	-0.055139	58.7313	-0.312001	-7090.12	7.776907E-6	NaN
1149	1.000000	0.872721	7.3763e+06	-57589.1	1055.82	-29736.6	0.000000	0.000000	6.873078	-0.066132	NaN	0.000000	0.001578	0.001749	28.082	0.105943	0.001968	53.8282	-33.3775	14.7004	-0.160954	0.871408	-0.302724	-0.304037	-0.066132	53.8282	-0.301802	-5005.52	1.321192E-5	NaN
1149	1.000000	0.882737	7.3763e+06	-57589.1	1055.82	-29736.6	0.000000	0.000000	6.883095	-0.024718	NaN	0.000000	0.001612	0.001758	28.0819	0.058859	0.002090	28.1673	164.466	-169.092	-0.052786	0.881439	-0.292708	-0.294006	-0.024718	28.1673	-0.292050	-3580.92	6.902801E-6	NaN
1149	1.000000	0.892763	7.3763e+06	-57589.1	1055.82	-29736.6	0.000000	0.000000	6.893121	-0.031962	NaN	0.000000	0.001570	0.001734	28.083	0.111366	0.002111	52.7569	121.272	8.011921	-0.047286	0.891396	-0.282682	-0.284049	-0.031962	52.7569	-0.282228	-2550.09	1.253382E-5	NaN
1149	1.000000	0.902728	7.3763e+06	-57589.1	1055.82	-29736.6	0.000000	0.000000	6.903084	-0.060858	NaN	0.000000	0.001591	0.001751	28.083	0.100216	0.001868	53.6459	-59.1896	-167.832	-0.096637	0.901511	-0.272717	-0.273934	-0.060858	53.6459	-0.271866	-1777.85	3.423121E-5	NaN
1149	1.000000	0.912731	7.3763e+06	-57589.1	1055.82	-29736.6	0.000000	0.000000	6.913088	-0.065190	NaN	0.000000	0.001540	0.001746	28.0831	0.081330	0.001970	41.2935	-52.0657	12.9095	-0.067878	0.911405	-0.262714	-0.264040	-0.065190	41.2935	-0.261530	-1236.95	5.270207E-5	NaN
1149	1.000000	0.922734	7.3763e+06	-57589.1	1055.82	-29736.6	0.000000	0.000000	6.923092	-0.032634	NaN	0.000000	0.001552	0.001721	28.0829	0.035289	0.001998	17.6643	63.8605	-164.55	-0.044332	0.921451	-0.252711	-0.253994	-0.032634	17.6643	-0.251325	-861.879	3.786343E-5	NaN
1149	1.000000	0.932752	7.3763e+06	-57589.1	1055.82	-29736.6	0.000000	0.000000	6.933111	-0.008207	NaN	0.000000	0.001602	0.001736	28.083	0.062816	0.002009	31.2692	120.311	15.2985	0.034594	0.931434	-0.242693	-0.244011	-0.008207	31.2692	-0.242496	-628.773	1.305317E-5	NaN
1149	1.000000	0.942749	7.3763e+06	-57589.1	1055.82	-29736.6	0.000000	0.000000	6.943108	-0.003375	NaN	0.000000	0.001582	0.001728	28.0833	0.139774	0.002046	68.306	149.634	-169.031	-0.025856	0.941479	-0.232696	-0.233966	-0.003375	68.306	-0.232659	-440.997	7.653627E-6	NaN
1149	1.000000	0.952764	7.3763e+06	-57589.1	1055.82	-29736.6	0.000000	0.000000	6.953121	-0.061063	NaN	0.000000	0.001561	0.001737	28.0831	0.065652	0.001931	34.0031	8.771499	10.8708	-0.065320	0.951394	-0.222681	-0.224051	-0.061063	34.0031	-0.221334	-291.724	0.000209	NaN
1149	1.000000	0.962752	7.3763e+06	-57589.1	1055.82	-29736.6	0.000000	0.000000	6.963108	-0.077652	NaN	0.000000	0.001576	0.001761	28.0831	0.062853	0.002005	31.3526	101.923	-164.466	-0.022246	0.961467	-0.212693	-0.213978	-0.077652	31.3526	-0.210835	-197.852	0.000392	NaN
1149	1.000000	0.972774	7.3763e+06	-57589.1	1055.82	-29736.6	0.000000	0.000000	6.973132	-0.036697	NaN	0.000000	0.001555	0.001769	28.0831	0.103224	0.002014	51.2606	38.0982	14.3217	-0.040180	0.971404	-0.202671	-0.204041	-0.036697	51.2606	-0.202134	-142.795	0.000257	NaN
1149	1.000000	0.982780	7.3763e+06	-57589.1	1055.82	-29736.6	0.000000	0.000000	6.983139	-0.022041	NaN	0.000000	0.001602	0.001760	28.0831	0.095959	0.002079	46.1588	-174.12	-161.688	-0.041901	0.981461	-0.192665	-0.193984	-0.022041	46.1588	-0.192307	-98.2844	0.000224	NaN
1149	1.000000	0.992797	7.3763e+06	-57589.1	1055.82	-29736.6	0.000000	0.000000	6.993157	0.018030	NaN	0.000000	0.001576	0.001755	28.0831	0.042335	0.002112	20.0491	72.305	14.7213	-0.009507	0.991407	-0.182648	-0.184037	0.018030	20.0491	-0.183323	-69.4731	-0.000260	NaN
1149	1.000000	1.002766	7.3763e+06	-57589.1	1055.82	-29736.6	0.000000	0.000000	7.003122	-0.095452	NaN	0.000000	0.001595	0.001740	28.083	0.048369	0.002020	23.951	-171.438	-167.407	-0.187322	1.001487	-0.172679	-0.173958	-0.095452	23.951	-0.169690	-40.5715	0.002353	NaN
1149	1.000000	1.012806	7.3763e+06	-57589.1	1055.82	-29736.6	0.000000	0.000000	7.013163	-0.056891	NaN	0.000000	0.001570	0.001748	28.0832	0.157145	0.002012	78.1233	-31.0365	8.684261	-0.052567	1.011458	-0.162639	-0.163987	-0.056891	78.1233	-0.162093	-29.8593	0.001905	NaN
1149	1.000000	1.022763	7.3763e+06	-57589.1	1055.82	-29736.6	0.000000	0.000000	7.023122	-0.005110	NaN	0.000000	0.001605	0.001740	28.0817	0.082706	0.002010	41.1548	-1.779786	-169.638	0.041465	1.021468	-0.152682	-0.153977	-0.005110	41.1548	-0.152589	-20.186	0.000253	NaN
1149	1.000000	1.032795	7.3763e+06	-57589.1	1055.82	-29736.6	0.000000	0.000000	7.033154	-0.004040	NaN	0.000000	0.001579	0.001755	28.0819	0.010211	0.001873	5.452210	3.166801	13.8985	-0.045878	1.031418	-0.142650	-0.144027	-0.004040	5.452210	-0.142095	-12.9474	0.000312	NaN
1149	1.000000	1.042839	7.3763e+06	-57589.1	1055.82	-29736.6	0.000000	0.000000	7.043195	-0.094617	NaN	0.000000	0.001626	0.001744	28.0817	0.055979	0.001930	29.0096	-135.421	-166.514	-0.112282	1.041535	-0.132606	-0.133910	-0.094617	29.0096	-0.130159	-7.675489	0.012327	NaN
1149	1.000000	1.052781	7.3763e+06	-57589.1	1055.82	-29736.6	0.000000	0.000000	7.053141	0.003664	NaN	0.000000	0.001584	0.001784	28.0819	0.037870	0.002016	18.7885	174.865	11.9343	-0.100236	1.051439	-0.122664	-0.124006	0.003664	18.7885	-0.122810	-5.501404	-0.000666	NaN
1149	1.000000	1.062790	7.3763e+06	-57589.1	1055.82	-29736.6	0.000000	0.000000	7.063149	-0.014717	NaN	0.000000	0.001553	0.001746	28.0816	0.055048	0.002075	26.5352	-98.428	-167.863	-0.013456	1.061529	-0.112655	-0.113916	-0.014717	26.5352	-0.112239	-3.348398	0.004395	NaN
1149	1.000000	1.072799	7.3763e+06	-57589.1	1055.82	-29736.6	0.000000	0.000000	7.073155	-0.083445	NaN	0.000000	0.001592	0.001741	28.0817	0.086480	0.001911	45.2606	-165.155	12.693	-0.042620	1.071470	-0.102646	-0.103975	-0.083445	45.2606	-0.101263	-1.948375	0.042828	NaN
1149	1.000000	1.082808	7.3763e+06	-57589.1	1055.82	-29736.6	0.000000	0.000000	7.083164	-0.073831	NaN	0.000000	0.001572	0.001760	28.0816	0.052901	0.001902	27.8165	28.7779	-167.4	-0.063272	1.081526	-0.092637	-0.093919	-0.073831	27.8165	-0.090646	-1.119297	0.065962	NaN
1149	1.000000	1.092874	7.3763e+06	-57589.1	1055.82	-29736.6	0.000000	0.000000	7.093232	-0.027832	NaN	0.000000	0.001545	0.001692	28.0816	0.077810	0.002076	37.489	-119.858	13.423	-0.077868	1.091367	-0.082571	-0.084078	-0.027832	37.489	-0.082014	-0.694576	0.040071	NaN
1149	1.000000	1.102831	7.3763e+06	-57589.1	1055.82	-29736.6	0.000000	0.000000	7.103188	-0.054557	NaN	0.000000	0.001584	0.001737	28.0816	0.040177	0.002089	19.2336	-40.1884	-165.663	-0.053354	1.101563	-0.072614	-0.073882	-0.054557	19.2336	-0.070486	-0.351478	0.155223	NaN
1149	1.000000	1.112831	7.3763e+06	-57589.1	1055.82	-29736.6	0.000000	0.000000	7.113192	0.048763	NaN	0.000000	0.001571	0.001719	28.0816	0.094042	0.002057	45.7291	30.0517	13.6686	0.059451	1.111429	-0.062614	-0.064016	0.048763	45.7291	-0.063414	-0.225078	-0.216649	NaN
1149	1.000000	1.122823	7.3763e+06	-57589.1	1055.82	-29736.6	0.000000	0.000000	7.123181	-0.026884	NaN	0.000000	0.001608	0.001728	28.0819	0.074577	0.001952	38.2086	-160.723	-166.03	-0.049948	1.121491	-0.052622	-0.053953	-0.026884	38.2086	-0.052094	-0.105516	0.254787	NaN
1149	1.000000	1.132851	7.3763e+06	-57589.1	1055.82	-29736.6	0.000000	0.000000	7.133208	-0.043130	NaN	0.000000	0.001546	0.001715	28.0815	0.097240	0.002054	47.3449	-81.5951	13.814	-0.034317	1.131508	-0.042594	-0.043937	-0.043130	47.3449	-0.041911	-0.051708	0.834116	NaN
1149	1.000000	1.142838	7.3763e+06	-57589.1	1055.82	-29736.6	0.000000	0.000000	7.143197	-0.013375	NaN	0.000000	0.001568	0.001750	28.0815	0.154203	0.001988	77.5585	61.8772	-164.622	0.056689	1.141520	-0.032607	-0.033925	-0.013375	77.5585	-0.032477	-0.027044	0.494573	NaN
1149	1.000000	1.152835	7.3763e+06	-57589.1	1055.82	-29736.6	0.000000	0.000000	7.153194	-0.015432	NaN	0.000000	0.001518	0.001756	28.0815	0.100121	0.001972	50.7589	65.3307	11.1045	-0.050271	1.151491	-0.022610	-0.023953	-0.015432	50.7589	-0.022382	-0.014441	1.068599	NaN
1149	1.000000	1.162865	7.3763e+06	-57589.1	1055.82	-29736.6	0.000000	0.000000	7.163224	-0.029431	NaN	0.000000	0.001568	0.001746	28.0828	0.098700	0.001940	50.8741	94.961	-167.216	-0.052360	1.161560	-0.012579	-0.013885	-0.029431	50.8741	-0.012146	-0.007612	3.866476	NaN
1149	1.000000	1.172859	7.3763e+06	-57589.1	1055.82	-29736.6	0.000000	0.000000	7.173238	0.461153	NaN	0.000000	0.001551	0.001694	28.0829	0.894357	0.001890	473.172	8.275221	8.957500	0.064307	1.171531	-0.002586	-0.003914	0.461153	473.172	-0.003317	-0.002331	-197.811	NaN
1149	2.000000	1.180349	7.3763e+06	-57589.1	1055.82	-29736.6	0.000000	0.000000	7.181268	13.5801	NaN	0.000000	0.001566	0.001738	28.0828	9.523683	0.001748	5447.46	9.902945	-177.108	12.9044	1.179970	0.004905	0.004525	13.5801	5447.46	0.003035	0.002409	5636.5	101396
1149	2.000000	1.182758	7.3763e+06	-57589.1	1055.82	-29736.6	0.000000	0.000000	7.183977	20.8993	NaN	0.000000	0.001541	0.001767	28.0828	12.5927	0.001760	7156.24	4.982050	6.588554	18.798	1.182411	0.007313	0.006966	20.8993	7156.24	0.005123	0.004246	4922.22	100340
1149	2.000000	1.185299	7.3763e+06	-57589.1	1055.82	-29736.6	0.000000	0.000000	7.186793	27.5663	NaN	0.000000	0.001526	0.001719	28.0827	15.2115	0.001810	8406.09	3.882634	-172.874	27.4403	1.185009	0.009854	0.009564	27.5663	8406.09	0.007395	0.006427	4288.98	95797.8
1149	2.000000	1.187821	7.3763e+06	-57589.1	1055.82	-29736.6	0.000000	0.000000	7.189647	35.6438	NaN	0.000000	0.001549	0.001720	28.0829	17.6997	0.001686	10501.1	8.700946	0.579008	35.1432	1.187425	0.012376	0.011980	35.6438	10501.1	0.009831	0.008994	3963.17	101167
1149	2.000000	1.190222	7.3763e+06	-57589.1	1055.82	-29736.6	0.000000	0.000000	7.192247	40.4836	NaN	0.000000	0.001595	0.001729	28.0826	19.6071	0.001795	10921	2.724515	-174.696	38.3413	1.189976	0.014777	0.014531	40.4836	10921	0.011997	0.011486	3524.52	93099.1
1149	2.000000	1.192765	7.3763e+06	-57589.1	1055.82	-29736.6	0.000000	0.000000	7.194909	43.3793	NaN	0.000000	0.001582	0.001744	28.083	23.0964	0.001947	11861.3	6.997126	1.513341	43.5718	1.192414	0.017320	0.016969	43.3793	11861.3	0.014577	0.014726	2945.83	89303.7
1149	2.000000	1.195239	7.3763e+06	-57589.1	1055.82	-29736.6	0.000000	0.000000	7.197652	49.9173	NaN	0.000000	0.001621	0.001753	28.0828	24.7771	0.001851	13385.6	2.683629	-176.503	48.8023	1.194929	0.019794	0.019484	49.9173	13385.6	0.016997	0.018041	2766.89	91050.2
1149	2.000000	1.197822	7.3763e+06	-57589.1	1055.82	-29736.6	0.000000	0.000000	7.200513	56.6634	NaN	0.000000	0.001605	0.001750	28.0829	26.1727	0.001790	14618.6	6.782703	-0.450997	56.9997	1.197424	0.022377	0.021979	56.6634	14618.6	0.019470	0.021716	2609.24	90632.9
1149	2.000000	1.200256	7.3763e+06	-57589.1	1055.82	-29736.6	0.000000	0.000000	7.203010	58.1894	NaN	0.000000	0.001604	0.001707	28.0832	28.625	0.001639	17466.7	4.486232	179.796	58.3363	1.200028	0.024812	0.024583	58.1894	17466.7	0.022313	0.026308	2211.85	98387.3
1149	2.000000	1.202721	7.3763e+06	-57589.1	1055.82	-29736.6	0.000000	0.000000	7.205768	65.3179	NaN	0.000000	0.001615	0.001734	28.0827	31.6759	0.001901	16664.2	3.872249	1.047812	64.281	1.202463	0.027276	0.027018	65.3179	16664.2	0.024337	0.029820	2190.42	88166.5
1149	2.000000	1.205259	7.3763e+06	-57589.1	1055.82	-29736.6	0.000000	0.000000	7.208564	71.5842	NaN	0.000000	0.001625	0.001698	28.0829	34.1589	0.001991	17156.6	8.638054	175.629	71.7607	1.204955	0.029814	0.029510	71.5842	17156.6	0.026685	0.034152	2096.02	84819
1149	2.000000	1.207729	7.3763e+06	-57589.1	1055.82	-29736.6	0.000000	0.000000	7.211439	81.4506	NaN	0.000000	0.001601	0.001721	28.0824	35.3143	0.001859	18994.4	4.656478	-1.250647	79.9091	1.207376	0.032284	0.031931	81.4506	18994.4	0.029068	0.038834	2097.4	88063
1149	2.000000	1.210172	7.3763e+06	-57589.1	1055.82	-29736.6	0.000000	0.000000	7.214058	85.7182	NaN	0.000000	0.001627	0.001745	28.0817	36.7707	0.001847	19911.4	6.499520	176.036	82.6634	1.209903	0.034727	0.034459	85.7182	19911.4	0.031498	0.043907	1952.28	86817.8
1149	2.000000	1.212709	7.3763e+06	-57589.1	1055.82	-29736.6	0.000000	0.000000	7.216762	89.7611	NaN	0.000000	0.001609	0.001710	28.0812	39.6537	0.001877	21124	7.445546	-4.745689	88.1386	1.212342	0.037264	0.036897	89.7611	21124	0.034077	0.049620	1808.98	86640.8
1149	2.000000	1.215199	7.3763e+06	-57589.1	1055.82	-29736.6	0.000000	0.000000	7.219495	95.6765	NaN	0.000000	0.001661	0.001723	28.0817	41.6189	0.001835	22678.9	4.099249	177.826	93.3888	1.214946	0.039754	0.039501	95.6765	22678.9	0.036590	0.055513	1723.49	87942.2
1149	2.000000	1.217747	7.3763e+06	-57589.1	1055.82	-29736.6	0.000000	0.000000	7.222443	105.409	NaN	0.000000	0.001646	0.001730	28.0816	43.009	0.001799	23910.8	5.941180	-3.259197	105.834	1.217285	0.042302	0.041840	105.409	23910.8	0.038995	0.061458	1715.14	88121
1149	2.000000	1.220229	7.3763e+06	-57589.1	1055.82	-29736.6	0.000000	0.000000	7.225194	111.928	NaN	0.000000	0.001629	0.001695	28.0819	44.9238	0.001798	24986.7	3.491683	178.008	112.491	1.219908	0.044784	0.044463	111.928	24986.7	0.041425	0.067762	1651.78	87698
1149	2.000000	1.222712	7.3763e+06	-57589.1	1055.82	-29736.6	0.000000	0.000000	7.227876	116.783	NaN	0.000000	0.001612	0.001712	28.0818	48.1335	0.001703	28265.2	4.234250	-4.374495	115.661	1.222461	0.047267	0.047016	116.783	28265.2	0.044168	0.075244	1552.06	94143.5
1149	2.000000	1.225193	7.3763e+06	-57589.1	1055.82	-29736.6	0.000000	0.000000	7.230913	130.303	NaN	0.000000	0.001642	0.001700	28.0818	51.0634	0.001739	29364.5	4.489693	175.281	130.653	1.224899	0.049748	0.049454	130.303	29364.5	0.046420	0.081669	1595.49	93878.4
1149	2.000000	1.227705	7.3763e+06	-57589.1	1055.82	-29736.6	0.000000	0.000000	7.233960	143.308	NaN	0.000000	0.001647	0.001686	28.0817	53.124	0.001820	29195.5	6.688805	-6.116660	142.212	1.227304	0.052260	0.051859	143.308	29195.5	0.048578	0.088070	1627.21	89882.7
1149	2.000000	1.230257	7.3763e+06	-57589.1	1055.82	-29736.6	0.000000	0.000000	7.236871	152.01	NaN	0.000000	0.001664	0.001700	28.0815	54.8055	0.001885	29070.3	3.383185	177.106	152.822	1.229882	0.054813	0.054437	152.01	29070.3	0.050891	0.095186	1596.97	86086.6
1149	2.000000	1.232712	7.3763e+06	-57589.1	1055.82	-29736.6	0.000000	0.000000	7.239611	158.943	NaN	0.000000	0.001589	0.001711	28.0817	57.9089	0.001764	32819.4	4.535578	-6.332226	157.011	1.232329	0.057268	0.056884	158.943	32819.4	0.053635	0.103980	1528.59	92988.4
1149	2.000000	1.235306	7.3763e+06	-57589.1	1055.82	-29736.6	0.000000	0.000000	7.242623	169.097	NaN	0.000000	0.001598	0.001665	28.0815	61.3869	0.001774	34594.7	4.708430	173.523	174.488	1.234956	0.059861	0.059511	169.097	34594.7	0.056195	0.112519	1502.83	94225.8
1149	2.000000	1.237764	7.3763e+06	-57589.1	1055.82	-29736.6	0.000000	0.000000	7.245456	178.203	NaN	0.000000	0.001603	0.001704	28.0819	63.0052	0.001805	34912.5	6.535736	-8.316383	179.338	1.237573	0.062320	0.062128	178.203	34912.5	0.058491	0.120454	1479.43	91905.9
1149	2.000000	1.240119	7.3763e+06	-57589.1	1055.82	-29736.6	0.000000	0.000000	7.248435	193.392	NaN	0.000000	0.001621	0.001711	28.0814	64.4666	0.001825	35324.5	1.106084	177.091	189.362	1.239891	0.064674	0.064446	193.392	35324.5	0.060568	0.127853	1512.62	90259.6
1149	2.000000	1.242705	7.3763e+06	-57589.1	1055.82	-29736.6	0.000000	0.000000	7.251299	200.116	NaN	0.000000	0.001652	0.001737	28.0831	68.142	0.001829	37252.5	3.896226	-6.058866	199.326	1.242526	0.067261	0.067082	200.116	37252.5	0.063232	0.137651	1453.79	91735.8
1149	2.000000	1.245151	7.3763e+06	-57589.1	1055.82	-29736.6	0.000000	0.000000	7.254613	221.238	NaN	0.000000	0.001646	0.001680	28.0828	69.6488	0.001748	39854.6	3.769201	173.778	217.759	1.244802	0.069706	0.069357	221.238	39854.6	0.065543	0.146430	1510.88	95156.2
1149	2.000000	1.247774	7.3763e+06	-57589.1	1055.82	-29736.6	0.000000	0.000000	7.257645	231.19	NaN	0.000000	0.001640	0.001703	28.0842	71.1473	0.001695	41970.1	3.411598	-6.397666	232.592	1.247506	0.072329	0.072061	231.19	41970.1	0.068198	0.156833	1474.11	96826.5
1149	2.000000	1.250189	7.3763e+06	-57589.1	1055.82	-29736.6	0.000000	0.000000	7.260893	251.427	NaN	0.000000	0.001570	0.001686	28.0827	74.1457	0.001832	40472.7	7.180519	171.149	252.985	1.249746	0.074744	0.074301	251.427	40472.7	0.070085	0.164434	1529.05	91188.3
1149	2.000000	1.252632	7.3763e+06	-57589.1	1055.82	-29736.6	0.000000	0.000000	7.263919	265.585	NaN	0.000000	0.001575	0.001742	28.0829	75.89	0.001784	42537.3	7.573501	-10.1512	261.618	1.252201	0.077187	0.076756	265.585	42537.3	0.072505	0.174425	1522.63	93054.7
1149	2.000000	1.255254	7.3763e+06	-57589.1	1055.82	-29736.6	0.000000	0.000000	7.266664	268.567	NaN	0.000000	0.001552	0.001734	28.0828	77.9757	0.001781	43791	0.447968	176.121	271.26	1.254993	0.079809	0.079548	268.567	43791	0.075210	0.185923	1444.5	92787.8
1149	2.000000	1.257738	7.3763e+06	-57589.1	1055.82	-29736.6	0.000000	0.000000	7.270156	293.08	NaN	0.000000	0.001539	0.001725	28.0829	79.8691	0.001803	44290.1	4.596980	-7.168329	293.703	1.257343	0.082293	0.081898	293.08	44290.1	0.077330	0.195178	1501.6	91593.4
1149	2.000000	1.260126	7.3763e+06	-57589.1	1055.82	-29736.6	0.000000	0.000000	7.273166	308.204	NaN	0.000000	0.001585	0.001684	28.0827	82.1394	0.001860	44170.7	2.413061	174.087	305.13	1.259826	0.084681	0.084382	308.204	44170.7	0.079448	0.204628	1506.16	89212.3
1149	2.000000	1.262651	7.3763e+06	-57589.1	1055.82	-29736.6	0.000000	0.000000	7.276244	321.653	NaN	0.000000	0.001592	0.001720	28.0828	86.8348	0.001886	46040.9	4.984642	-8.553949	320.731	1.262343	0.087206	0.086898	321.653	46040.9	0.081966	0.216141	1488.16	90479.1
1149	2.000000	1.265185	7.3763e+06	-57589.1	1055.82	-29736.6	0.000000	0.000000	7.279394	336.616	NaN	0.000000	0.001579	0.001697	28.0828	87.6182	0.001837	47689.9	3.121849	173.681	336.821	1.264866	0.089740	0.089421	336.616	47689.9	0.084446	0.227766	1477.91	91296.8
1149	2.000000	1.267629	7.3763e+06	-57589.1	1055.82	-29736.6	0.000000	0.000000	7.283033	365.658	NaN	0.000000	0.001566	0.001723	28.0828	89.7232	0.001792	50078.6	5.018426	-8.774471	361.041	1.267217	0.092184	0.091772	365.658	50078.6	0.086708	0.238615	1532.41	93664.7
1149	2.000000	1.270118	7.3763e+06	-57589.1	1055.82	-29736.6	0.000000	0.000000	7.285912	375.141	NaN	0.000000	0.001548	0.001729	28.0825	92.2428	0.001797	51343.2	5.341432	170.488	373.549	1.269829	0.094673	0.094384	375.141	51343.2	0.089193	0.250808	1495.73	93666.8
1149	2.000000	1.272607	7.3763e+06	-57589.1	1055.82	-29736.6	0.000000	0.000000	7.289300	396.975	NaN	0.000000	0.001573	0.001739	28.0824	95.1726	0.001906	49924.1	6.201626	-9.923305	391.511	1.272222	0.097162	0.096777	396.975	49924.1	0.091199	0.260857	1521.81	89306.4
1149	2.000000	1.275155	7.3763e+06	-57589.1	1055.82	-29736.6	0.000000	0.000000	7.292356	409.329	NaN	0.000000	0.001559	0.001687	28.0827	95.9436	0.001733	55361.4	4.376685	170.624	407.462	1.274831	0.099710	0.099386	409.329	55361.4	0.094164	0.276051	1482.8	96268.9
1149	2.000000	1.277659	7.3763e+06	-57589.1	1055.82	-29736.6	0.000000	0.000000	7.295782	431.742	NaN	0.000000	0.001507	0.001731	28.0814	98.1951	0.001790	54855.4	4.782052	-8.924410	428.699	1.277267	0.102214	0.101822	431.742	54855.4	0.096311	0.287300	1502.75	93502.9
1149	2.000000	1.278209	7.3763e+06	-57589.1	1055.82	-29736.6	0.000000	0.000000	7.296305	431.065	NaN	0.000000	0.001522	0.001733	28.0813	100.546	0.001819	55267.8	5.119170	170.124	434.031	1.277850	0.102764	0.102405	431.065	55267.8	0.096915	0.290500	1483.87	93685.6