File: remote_trans/data/nanoindenter/0828-1/data/Data_2025-08-06,11h17m57s/2025-07-22_16-23-58_1_668.txt
2025-07-22, 16:23:58, 1
Index	Phase	Displacement	Time	Pos X	Pos Y	Pos Z	Rot A	Rot B	Piezo Z	Force A	Force B	Gripper	Voltage A	Voltage B	Temperature	Amplitude force	Amplitude pos	Stiffness	Phase shift	Phase excitation	Force A raw	Displacement raw	HMax	HMax raw	Real Force	Real Stiffness	Contact Depth	Area	Hardness	Reduced Mod.
[#]	[#]	[um]	[s]	[um]	[um]	[um]	[m°]	[m°]	[um]	[uN]	[uN]	[V]	[V]	[V]	[°C]	[uN]	[um]	[N/m]	[°]	[°]	[uN]	[um]	[um]	[um]	[uN]	[N/m]	[um]	[um^2]	[MPa]	[MPa]
668	1.000000	0.002457	7.37158e+06	-43689.1	1005.82	-29778.2	0.000000	0.000000	6.002817	0.029050	NaN	0.000000	0.001611	0.001746	28.0849	0.037754	0.000946	39.9105	-150.99	-167.545	0.029199	0.001221	-1.104933	-1.106168	0.029050	39.9105	-1.105478	-5.937503E+14	-4.892552E-17	NaN
668	1.000000	0.012527	7.37158e+06	-43689.1	1005.82	-29778.2	0.000000	0.000000	6.012884	-0.048871	NaN	0.000000	0.001633	0.001697	28.0847	0.125466	0.001333	94.1416	84.0189	19.6503	-0.057186	0.010980	-1.094863	-1.096410	-0.048871	94.1416	-1.094474	-4.225485E+14	1.156569E-16	NaN
668	1.000000	0.022376	7.37158e+06	-43689.1	1005.82	-29778.2	0.000000	0.000000	6.022734	-0.041672	NaN	0.000000	0.001616	0.001728	28.085	0.041308	0.001760	23.4747	-85.6051	-166.848	0.029416	0.021115	-1.085013	-1.086274	-0.041672	23.4747	-1.083682	-3.026685E+14	1.376835E-16	NaN
668	1.000000	0.032416	7.37158e+06	-43689.1	1005.82	-29778.2	0.000000	0.000000	6.032772	-0.088297	NaN	0.000000	0.001618	0.001731	28.0849	0.071657	0.001915	37.4228	-176.842	16.8319	-0.063749	0.031029	-1.074973	-1.076361	-0.088297	37.4228	-1.073204	-2.188909E+14	4.033851E-16	NaN
668	1.000000	0.042385	7.37158e+06	-43689.1	1005.82	-29778.2	0.000000	0.000000	6.042744	-0.012765	NaN	0.000000	0.001654	0.001692	28.0847	0.067939	0.002040	33.3028	-86.025	-166.063	-0.018453	0.041113	-1.065005	-1.066276	-0.012765	33.3028	-1.064717	-1.683479E+14	7.582674E-17	NaN
668	1.000000	0.052363	7.37158e+06	-43689.1	1005.82	-29778.2	0.000000	0.000000	6.052723	0.021153	NaN	0.000000	0.001622	0.001745	28.0833	0.049788	0.002074	24.0049	17.3586	17.337	-0.017692	0.050997	-1.055026	-1.056392	0.021153	24.0049	-1.055687	-1.273086E+14	-1.661591E-16	NaN
668	1.000000	0.062413	7.37158e+06	-43689.1	1005.82	-29778.2	0.000000	0.000000	6.062770	-0.050119	NaN	0.000000	0.001604	0.001795	28.0837	0.027752	0.002086	13.3046	-29.3421	-164.667	-0.066931	0.061048	-1.044976	-1.046342	-0.050119	13.3046	-1.042151	-8.373227E+13	5.985627E-16	NaN
668	1.000000	0.072404	7.37158e+06	-43689.1	1005.82	-29778.2	0.000000	0.000000	6.072763	-0.009966	NaN	0.000000	0.001646	0.001766	28.0835	0.088816	0.001883	47.1747	11.1074	18.2664	-0.016622	0.071055	-1.034985	-1.036335	-0.009966	47.1747	-1.034827	-6.674232E+13	1.493225E-16	NaN
668	1.000000	0.082410	7.37159e+06	-43689.1	1005.82	-29778.2	0.000000	0.000000	6.082767	-0.074123	NaN	0.000000	0.001653	0.001747	28.0836	0.091268	0.002069	44.1195	64.9774	-163.534	-0.058792	0.081071	-1.024979	-1.026318	-0.074123	44.1195	-1.023719	-4.731400E+13	1.566613E-15	NaN
668	1.000000	0.092385	7.37159e+06	-43689.1	1005.82	-29778.2	0.000000	0.000000	6.092742	-0.075605	NaN	0.000000	0.001617	0.001772	28.0833	0.039206	0.002002	19.5808	1.186748	13.6395	-0.036185	0.091045	-1.015004	-1.016344	-0.075605	19.5808	-1.012108	-3.301839E+13	2.289770E-15	NaN
668	1.000000	0.102391	7.37159e+06	-43689.1	1005.82	-29778.2	0.000000	0.000000	6.102749	-0.027236	NaN	0.000000	0.001612	0.001743	28.0834	0.072698	0.002026	35.8865	-112.125	-163.231	-0.082183	0.101121	-1.004999	-1.006269	-0.027236	35.8865	-1.004429	-2.602559E+13	1.046495E-15	NaN
668	1.000000	0.112397	7.37159e+06	-43689.1	1005.82	-29778.2	0.000000	0.000000	6.112752	-0.088734	NaN	0.000000	0.001631	0.001766	28.0835	0.083884	0.002132	39.3522	-70.8874	16.4432	-0.072963	0.111075	-0.994993	-0.996315	-0.088734	39.3522	-0.993302	-1.843217E+13	4.814101E-15	NaN
668	1.000000	0.122413	7.37159e+06	-43689.1	1005.82	-29778.2	0.000000	0.000000	6.122771	-0.012645	NaN	0.000000	0.001725	0.001760	28.0834	0.099089	0.001954	50.7222	-158.697	-164.951	-0.020138	0.121070	-0.984977	-0.986320	-0.012645	50.7222	-0.984790	-1.415583E+13	8.932759E-16	NaN
668	1.000000	0.132418	7.37159e+06	-43689.1	1005.82	-29778.2	0.000000	0.000000	6.132776	-0.035412	NaN	0.000000	0.001700	0.001728	28.084	0.045397	0.001938	23.4306	-132.636	17.1655	0.047902	0.131051	-0.974971	-0.976338	-0.035412	23.4306	-0.973838	-1.007818E+13	3.513733E-15	NaN
668	1.000000	0.142404	7.37159e+06	-43689.1	1005.82	-29778.2	0.000000	0.000000	6.142760	-0.064764	NaN	0.000000	0.001711	0.001750	28.0834	0.025785	0.001980	13.0237	21.1014	-162	-0.063382	0.141159	-0.964986	-0.966231	-0.064764	13.0237	-0.961256	-6.820328E+12	9.495714E-15	NaN
668	1.000000	0.152430	7.37159e+06	-43689.1	1005.82	-29778.2	0.000000	0.000000	6.152790	0.020157	NaN	0.000000	0.001694	0.001768	28.0838	0.023564	0.001892	12.4576	-134.128	17.793	-0.009760	0.151039	-0.954960	-0.956350	0.020157	12.4576	-0.956173	-5.824720E+12	-3.460667E-15	NaN
668	1.000000	0.162456	7.37159e+06	-43689.1	1005.82	-29778.2	0.000000	0.000000	6.162813	-0.050932	NaN	0.000000	0.001651	0.001743	28.0833	0.120469	0.001961	61.4274	44.54	-165.467	0.076617	0.161104	-0.944933	-0.946286	-0.050932	61.4274	-0.944311	-4.029964E+12	1.263822E-14	NaN
668	1.000000	0.172441	7.37159e+06	-43689.1	1005.82	-29778.2	0.000000	0.000000	6.172798	-0.061503	NaN	0.000000	0.001652	0.001715	28.0836	0.143135	0.002042	70.0838	105.821	14.7376	-0.069505	0.171103	-0.934948	-0.936287	-0.061503	70.0838	-0.934290	-2.951826E+12	2.083569E-14	NaN
668	1.000000	0.182455	7.37159e+06	-43689.1	1005.82	-29778.2	0.000000	0.000000	6.182815	0.000712	NaN	0.000000	0.001655	0.001738	28.0844	0.111590	0.001871	59.6471	-166.35	-167.044	0.077366	0.181161	-0.924934	-0.926229	0.000712	59.6471	-0.924943	-2.207688E+12	-3.224999E-16	NaN
668	1.000000	0.192447	7.37159e+06	-43689.1	1005.82	-29778.2	0.000000	0.000000	6.192807	0.010831	NaN	0.000000	0.001655	0.001706	28.0844	0.068980	0.001914	36.0325	-81.7094	13.6064	0.107841	0.191050	-0.914942	-0.916339	0.010831	36.0325	-0.915168	-1.629129E+12	-6.648418E-15	NaN
668	1.000000	0.202441	7.37159e+06	-43689.1	1005.82	-29778.2	0.000000	0.000000	6.202801	-0.004208	NaN	0.000000	0.001632	0.001742	28.0847	0.103235	0.001883	54.8244	-88.4199	-163.107	-0.006622	0.201125	-0.904948	-0.906264	-0.004208	54.8244	-0.904890	-1.183424E+12	3.555935E-15	NaN
668	1.000000	0.212442	7.37159e+06	-43689.1	1005.82	-29778.2	0.000000	0.000000	6.212803	0.024248	NaN	0.000000	0.001651	0.001724	28.0844	0.101538	0.002058	49.3286	71.9414	12.8853	-0.098637	0.211116	-0.894947	-0.896273	0.024248	49.3286	-0.895316	-8.785448E+11	-2.760071E-14	NaN
668	1.000000	0.222471	7.37159e+06	-43689.1	1005.82	-29778.2	0.000000	0.000000	6.222830	-0.022583	NaN	0.000000	0.001595	0.001729	28.0845	0.163923	0.001911	85.7636	130.169	-165.748	-0.036333	0.221106	-0.884918	-0.886283	-0.022583	85.7636	-0.884721	-6.317464E+11	3.574704E-14	NaN
668	1.000000	0.232454	7.37159e+06	-43689.1	1005.82	-29778.2	0.000000	0.000000	6.232808	-0.126256	NaN	0.000000	0.001600	0.001770	28.0844	0.128078	0.001998	64.1049	-69.0731	13.8707	-0.108275	0.231095	-0.874936	-0.876294	-0.126256	64.1049	-0.873458	-4.448680E+11	2.838064E-13	NaN
668	1.000000	0.242466	7.37159e+06	-43689.1	1005.82	-29778.2	0.000000	0.000000	6.242824	-0.044283	NaN	0.000000	0.001629	0.001762	28.0846	0.060630	0.002065	29.3584	173.238	-164.11	-0.046054	0.241178	-0.864923	-0.866212	-0.044283	29.3584	-0.863792	-3.291879E+11	1.345204E-13	NaN
668	1.000000	0.252438	7.37159e+06	-43689.1	1005.82	-29778.2	0.000000	0.000000	6.252797	-0.017674	NaN	0.000000	0.001615	0.001721	28.0846	0.066839	0.001973	33.8737	-148.444	14.0964	-0.040384	0.251128	-0.854951	-0.856261	-0.017674	33.8737	-0.854560	-2.468759E+11	7.159261E-14	NaN
668	1.000000	0.262462	7.37159e+06	-43689.1	1005.82	-29778.2	0.000000	0.000000	6.262820	-0.031880	NaN	0.000000	0.001618	0.001746	28.0844	0.058584	0.001951	30.0229	38.8139	-168.174	-0.076026	0.261183	-0.844927	-0.846206	-0.031880	30.0229	-0.844131	-1.783414E+11	1.787607E-13	NaN
668	1.000000	0.272485	7.37159e+06	-43689.1	1005.82	-29778.2	0.000000	0.000000	6.272844	-0.006403	NaN	0.000000	0.001620	0.001735	28.0846	0.023587	0.001903	12.3923	75.1239	15.602	-0.011870	0.271115	-0.834905	-0.836274	-0.006403	12.3923	-0.834517	-1.321308E+11	4.845924E-14	NaN
668	1.000000	0.282486	7.37159e+06	-43689.1	1005.82	-29778.2	0.000000	0.000000	6.282842	-0.088133	NaN	0.000000	0.001642	0.001715	28.0842	0.021988	0.002111	10.4171	35.8675	-166.358	-0.135078	0.281224	-0.824904	-0.826166	-0.088133	10.4171	-0.818558	-8.028968E+10	1.097690E-12	NaN
668	1.000000	0.292475	7.37159e+06	-43689.1	1005.82	-29778.2	0.000000	0.000000	6.292834	-0.029303	NaN	0.000000	0.001628	0.001710	28.0845	0.109103	0.002170	50.289	-74.1463	12.8454	-0.086506	0.291121	-0.814914	-0.816269	-0.029303	50.289	-0.814477	-7.068144E+10	4.145800E-13	NaN
668	1.000000	0.302513	7.37159e+06	-43689.1	1005.82	-29778.2	0.000000	0.000000	6.302872	-0.020501	NaN	0.000000	0.001600	0.001747	28.0846	0.123016	0.002079	59.1768	146.221	-164.593	0.024243	0.301198	-0.804876	-0.806192	-0.020501	59.1768	-0.804616	-5.194220E+10	3.946812E-13	NaN
668	1.000000	0.312495	7.37159e+06	-43689.1	1005.82	-29778.2	0.000000	0.000000	6.312853	-0.039886	NaN	0.000000	0.001622	0.001742	28.0849	0.085192	0.002041	41.7401	61.1635	17.5199	-0.084578	0.311182	-0.794894	-0.796208	-0.039886	41.7401	-0.794178	-3.748159E+10	1.064153E-12	NaN
668	1.000000	0.322505	7.37159e+06	-43689.1	1005.82	-29778.2	0.000000	0.000000	6.322863	-0.050244	NaN	0.000000	0.001638	0.001723	28.0831	0.146611	0.002088	70.2265	159.473	-164.798	-0.074978	0.321189	-0.784884	-0.786200	-0.050244	70.2265	-0.784347	-2.756145E+10	1.822976E-12	NaN
668	1.000000	0.332483	7.37159e+06	-43689.1	1005.82	-29778.2	0.000000	0.000000	6.332843	0.011290	NaN	0.000000	0.001634	0.001744	28.0831	0.086995	0.001974	44.0774	-121.987	16.4559	0.021695	0.331189	-0.774906	-0.776200	0.011290	44.0774	-0.775098	-2.063531E+10	-5.471442E-13	NaN
668	1.000000	0.342523	7.37159e+06	-43689.1	1005.82	-29778.2	0.000000	0.000000	6.342883	0.013044	NaN	0.000000	0.001621	0.001728	28.0832	0.055062	0.001889	29.1553	80.7589	-165.157	0.046295	0.341198	-0.764867	-0.766191	0.013044	29.1553	-0.765202	-1.513777E+10	-8.617131E-13	NaN
668	1.000000	0.352522	7.37159e+06	-43689.1	1005.82	-29778.2	0.000000	0.000000	6.352882	0.031971	NaN	0.000000	0.001614	0.001730	28.0834	0.047433	0.001927	24.6195	160.794	19.1194	-0.029442	0.351144	-0.754868	-0.756246	0.031971	24.6195	-0.755842	-1.129088E+10	-2.831610E-12	NaN
668	1.000000	0.362515	7.37159e+06	-43689.1	1005.82	-29778.2	0.000000	0.000000	6.362874	-0.002953	NaN	0.000000	0.001598	0.001737	28.0832	0.185996	0.002057	90.4283	150.951	-166.416	-0.005952	0.361216	-0.744875	-0.746173	-0.002953	90.4283	-0.744850	-8.000306E+9	3.690548E-13	NaN
668	1.000000	0.372533	7.37159e+06	-43689.1	1005.82	-29778.2	0.000000	0.000000	6.372889	-0.061039	NaN	0.000000	0.001635	0.001732	28.083	0.070374	0.001993	35.3124	-87.8024	16.6656	-0.084078	0.371132	-0.734857	-0.736258	-0.061039	35.3124	-0.733561	-5.614732E+9	1.087117E-11	NaN
668	1.000000	0.382547	7.37159e+06	-43689.1	1005.82	-29778.2	0.000000	0.000000	6.382905	-0.028253	NaN	0.000000	0.001579	0.001726	28.083	0.091458	0.002138	42.7827	77.8958	-164.674	-0.054893	0.381203	-0.724843	-0.726187	-0.028253	42.7827	-0.724347	-4.204869E+9	6.719002E-12	NaN
668	1.000000	0.392532	7.37159e+06	-43689.1	1005.82	-29778.2	0.000000	0.000000	6.392889	-0.054828	NaN	0.000000	0.001583	0.001747	28.0829	0.066569	0.002025	32.8809	135.909	12.8995	0.007961	0.391167	-0.714858	-0.716223	-0.054828	32.8809	-0.713607	-3.001017E+9	1.826978E-11	NaN
668	1.000000	0.402522	7.37159e+06	-43689.1	1005.82	-29778.2	0.000000	0.000000	6.402880	-0.029607	NaN	0.000000	0.001590	0.001731	28.0829	0.023284	0.001889	12.3256	-61.814	-163.202	0.010690	0.401227	-0.704868	-0.706163	-0.029607	12.3256	-0.703066	-2.154753E+9	1.374049E-11	NaN
668	1.000000	0.412563	7.37159e+06	-43689.1	1005.82	-29778.2	0.000000	0.000000	6.412922	-0.005159	NaN	0.000000	0.001602	0.001724	28.0828	0.105391	0.001895	55.616	-44.7898	14.1468	0.008016	0.411194	-0.694827	-0.696195	-0.005159	55.616	-0.694757	-1.659267E+9	3.109281E-12	NaN
668	1.000000	0.422518	7.37159e+06	-43689.1	1005.82	-29778.2	0.000000	0.000000	6.422873	-0.119540	NaN	0.000000	0.001611	0.001712	28.0833	0.042239	0.002095	20.1649	-37.4333	-162.179	-0.076743	0.421205	-0.684871	-0.686184	-0.119540	20.1649	-0.680425	-1.056859E+9	1.131092E-10	NaN
668	1.000000	0.432548	7.37159e+06	-43689.1	1005.82	-29778.2	0.000000	0.000000	6.432904	-0.072995	NaN	0.000000	0.001602	0.001709	28.0828	0.071284	0.002006	35.5373	47.6007	17.5377	-0.050106	0.431200	-0.674842	-0.676190	-0.072995	35.5373	-0.673301	-8.444393E+8	8.644139E-11	NaN
668	1.000000	0.442518	7.37159e+06	-43689.1	1005.82	-29778.2	0.000000	0.000000	6.442876	-0.030948	NaN	0.000000	0.001618	0.001675	28.083	0.056469	0.002034	27.7563	113.786	-165.363	-0.011262	0.441208	-0.664872	-0.666181	-0.030948	27.7563	-0.664036	-6.305752E+8	4.907918E-11	NaN
668	1.000000	0.452578	7.37159e+06	-43689.1	1005.82	-29778.2	0.000000	0.000000	6.452937	-0.029295	NaN	0.000000	0.001654	0.001733	28.0832	0.103488	0.002001	51.72	60.4328	15.0155	0.081465	0.451240	-0.654811	-0.656149	-0.029295	51.72	-0.654386	-4.651099E+8	6.298446E-11	NaN
668	1.000000	0.462595	7.37159e+06	-43689.1	1005.82	-29778.2	0.000000	0.000000	6.462954	-0.014075	NaN	0.000000	0.001643	0.001727	28.0843	0.034505	0.001823	18.9248	84.5263	-168.161	0.058321	0.461302	-0.644794	-0.646087	-0.014075	18.9248	-0.644237	-3.376044E+8	4.169096E-11	NaN
668	1.000000	0.472553	7.37159e+06	-43689.1	1005.82	-29778.2	0.000000	0.000000	6.472910	-0.059185	NaN	0.000000	0.001636	0.001727	28.0839	0.044783	0.001943	23.0496	-154.511	14.558	-0.075876	0.471206	-0.634836	-0.636183	-0.059185	23.0496	-0.632911	-2.360415E+8	2.507412E-10	NaN
668	1.000000	0.482618	7.37159e+06	-43689.1	1005.82	-29778.2	0.000000	0.000000	6.482975	-0.061437	NaN	0.000000	0.001653	0.001692	28.0841	0.034072	0.001994	17.0877	10.3019	-166.062	0.009794	0.481198	-0.624771	-0.626192	-0.061437	17.0877	-0.622075	-1.675525E+8	3.666722E-10	NaN
668	1.000000	0.492580	7.37159e+06	-43689.1	1005.82	-29778.2	0.000000	0.000000	6.492937	-0.041575	NaN	0.000000	0.001659	0.001715	28.0842	0.099255	0.002042	48.6082	178.201	13.8419	0.017451	0.491212	-0.614810	-0.616177	-0.041575	48.6082	-0.614168	-1.304522E+8	3.187021E-10	NaN
668	1.000000	0.502609	7.37159e+06	-43689.1	1005.82	-29778.2	0.000000	0.000000	6.502967	-0.030056	NaN	0.000000	0.001684	0.001708	28.0842	0.027405	0.002013	13.6132	114.348	-162.762	-0.009824	0.501271	-0.604780	-0.606118	-0.030056	13.6132	-0.603124	-9.193492E+7	3.269221E-10	NaN
668	1.000000	0.512573	7.37159e+06	-43689.1	1005.82	-29778.2	0.000000	0.000000	6.512934	0.022563	NaN	0.000000	0.001664	0.001689	28.084	0.085509	0.002099	40.733	102.888	16.9894	-0.014273	0.511224	-0.594816	-0.596166	0.022563	40.733	-0.595232	-7.157679E+7	-3.152309E-10	NaN
668	1.000000	0.522559	7.37159e+06	-43689.1	1005.82	-29778.2	0.000000	0.000000	6.522917	-0.035376	NaN	0.000000	0.001630	0.001692	28.0841	0.055298	0.002005	27.5859	136.534	-162.703	-0.050666	0.521302	-0.584830	-0.586088	-0.035376	27.5859	-0.583868	-4.990044E+7	7.089232E-10	NaN
668	1.000000	0.532609	7.37159e+06	-43689.1	1005.82	-29778.2	0.000000	0.000000	6.532966	-0.051924	NaN	0.000000	0.001608	0.001705	28.0842	0.039501	0.002054	19.2333	44.8041	13.0229	0.014242	0.531234	-0.574781	-0.576155	-0.051924	19.2333	-0.572756	-3.505154E+7	1.481363E-9	NaN
668	1.000000	0.542601	7.37159e+06	-43689.1	1005.82	-29778.2	0.000000	0.000000	6.542957	-0.077537	NaN	0.000000	0.001655	0.001715	28.0841	0.079592	0.001901	41.8746	-51.0729	-166.067	-0.046010	0.541299	-0.564788	-0.566091	-0.077537	41.8746	-0.563400	-2.602541E+7	2.979277E-9	NaN
668	1.000000	0.552597	7.37159e+06	-43689.1	1005.82	-29778.2	0.000000	0.000000	6.552953	-0.092702	NaN	0.000000	0.001664	0.001704	28.0841	0.071169	0.001958	36.3556	25.3087	13.8311	-0.057547	0.551221	-0.554792	-0.556168	-0.092702	36.3556	-0.552880	-1.861383E+7	4.980296E-9	NaN
668	1.000000	0.562595	7.37159e+06	-43689.1	1005.82	-29778.2	0.000000	0.000000	6.562953	-0.040638	NaN	0.000000	0.001694	0.001713	28.0841	0.070815	0.001934	36.6097	70.4673	-163.086	-0.013156	0.561336	-0.544794	-0.546054	-0.040638	36.6097	-0.543961	-1.400504E+7	2.901702E-9	NaN
668	1.000000	0.572629	7.37159e+06	-43689.1	1005.82	-29778.2	0.000000	0.000000	6.572983	-0.119886	NaN	0.000000	0.001691	0.001724	28.0847	0.120378	0.002041	58.9705	113.249	14.8784	-0.145748	0.571234	-0.534761	-0.536155	-0.119886	58.9705	-0.533236	-9.9428e+06	1.205754E-8	NaN
668	1.000000	0.582630	7.37159e+06	-43689.1	1005.82	-29778.2	0.000000	0.000000	6.582988	-0.028544	NaN	0.000000	0.001678	0.001726	28.0845	0.062697	0.002144	29.2416	95.0649	-163.457	-0.113121	0.581277	-0.524760	-0.526112	-0.028544	29.2416	-0.524028	-7.40625e+06	3.854016E-9	NaN
668	1.000000	0.592602	7.37159e+06	-43689.1	1005.82	-29778.2	0.000000	0.000000	6.592961	-0.026392	NaN	0.000000	0.001688	0.001720	28.0831	0.028228	0.001919	14.7114	172.763	15.2627	-0.025827	0.591225	-0.514787	-0.516164	-0.026392	14.7114	-0.513442	-5.27642e+06	5.001859E-9	NaN
668	1.000000	0.602609	7.37159e+06	-43689.1	1005.82	-29778.2	0.000000	0.000000	6.602966	-0.042522	NaN	0.000000	0.001707	0.001733	28.0834	0.089129	0.002091	42.6171	-21.4283	-162.603	-0.008675	0.601333	-0.504781	-0.506056	-0.042522	42.6171	-0.504032	-3.9017e+06	1.089835E-8	NaN
668	1.000000	0.612611	7.37159e+06	-43689.1	1005.82	-29778.2	0.000000	0.000000	6.612969	-0.041863	NaN	0.000000	0.001679	0.001726	28.0833	0.023070	0.002048	11.2629	28.8702	14.5865	-0.090900	0.611262	-0.494778	-0.496128	-0.041863	11.2629	-0.491990	-2.64974e+06	1.579900E-8	NaN
668	1.000000	0.622654	7.37159e+06	-43689.1	1005.82	-29778.2	0.000000	0.000000	6.623011	-0.066831	NaN	0.000000	0.001707	0.001679	28.0834	0.110498	0.002005	55.1245	125.763	-163.591	-0.014725	0.621284	-0.484735	-0.486105	-0.066831	55.1245	-0.483826	-2.03738e+06	3.280246E-8	NaN
668	1.000000	0.632633	7.37159e+06	-43689.1	1005.82	-29778.2	0.000000	0.000000	6.632991	-0.037203	NaN	0.000000	0.001697	0.001766	28.0833	0.063874	0.001998	31.9653	77.5817	15.6071	-0.047785	0.631216	-0.474757	-0.476173	-0.037203	31.9653	-0.473884	-1.47863e+06	2.516043E-8	NaN
668	1.000000	0.642656	7.37159e+06	-43689.1	1005.82	-29778.2	0.000000	0.000000	6.643012	-0.067097	NaN	0.000000	0.001729	0.001728	28.0837	0.057134	0.001985	28.7869	-154.047	-160.873	-0.094526	0.641307	-0.464734	-0.466082	-0.067097	28.7869	-0.462986	-1.03983e+06	6.452651E-8	NaN
668	1.000000	0.652659	7.37159e+06	-43689.1	1005.82	-29778.2	0.000000	0.000000	6.653018	-0.009534	NaN	0.000000	0.001718	0.001730	28.0833	0.083531	0.001936	43.1451	-38.0171	9.525578	-0.075644	0.651297	-0.454730	-0.456092	-0.009534	43.1451	-0.454565	-791757	1.204221E-8	NaN
668	1.000000	0.662662	7.37159e+06	-43689.1	1005.82	-29778.2	0.000000	0.000000	6.663023	0.039993	NaN	0.000000	0.001731	0.001739	28.0832	0.116528	0.002022	57.6385	110.648	-162.094	0.010859	0.661319	-0.444727	-0.446070	0.039993	57.6385	-0.445248	-585304	-6.832876E-8	NaN
668	1.000000	0.672640	7.37159e+06	-43689.1	1005.82	-29778.2	0.000000	0.000000	6.672997	-0.041663	NaN	0.000000	0.001698	0.001757	28.0834	0.041896	0.002038	20.556	-158.964	12.2057	-0.073908	0.671244	-0.434750	-0.436146	-0.041663	20.556	-0.433229	-396033	1.051997E-7	NaN
668	1.000000	0.682659	7.37159e+06	-43689.1	1005.82	-29778.2	0.000000	0.000000	6.683019	-0.002534	NaN	0.000000	0.001657	0.001782	28.0838	0.086703	0.001934	44.83	-131.488	-168.924	0.056258	0.681357	-0.424730	-0.426032	-0.002534	44.83	-0.424688	-299818	8.451782E-9	NaN
668	1.000000	0.692680	7.37159e+06	-43689.1	1005.82	-29778.2	0.000000	0.000000	6.693039	-0.005044	NaN	0.000000	0.001653	0.001716	28.0831	0.071433	0.001996	35.7886	72.0589	14.1518	0.050168	0.691292	-0.414710	-0.416097	-0.005044	35.7886	-0.414604	-215692	2.338460E-8	NaN
668	1.000000	0.702657	7.37159e+06	-43689.1	1005.82	-29778.2	0.000000	0.000000	6.703014	-0.043914	NaN	0.000000	0.001674	0.001730	28.0832	0.057248	0.001953	29.3065	20.5125	-165.065	-0.122870	0.701349	-0.404733	-0.406040	-0.043914	29.3065	-0.403609	-150465	2.918542E-7	NaN
668	1.000000	0.712676	7.37159e+06	-43689.1	1005.82	-29778.2	0.000000	0.000000	6.713034	-0.017362	NaN	0.000000	0.001645	0.001708	28.0831	0.090500	0.002033	44.513	58.9204	13.3825	0.123364	0.711328	-0.394714	-0.396061	-0.017362	44.513	-0.394421	-111267	1.560416E-7	NaN
668	1.000000	0.722655	7.37159e+06	-43689.1	1005.82	-29778.2	0.000000	0.000000	6.723014	-0.000806	NaN	0.000000	0.001652	0.001728	28.0832	0.097689	0.001984	49.2356	97.4919	-165.86	-0.037760	0.721382	-0.384734	-0.386007	-0.000806	49.2356	-0.384722	-80836	9.970938E-9	NaN
668	1.000000	0.732683	7.37159e+06	-43689.1	1005.82	-29778.2	0.000000	0.000000	6.733038	-0.108302	NaN	0.000000	0.001620	0.001704	28.0844	0.004040	0.001808	2.233665	-40.8084	14.8909	-0.050169	0.731277	-0.374707	-0.376113	-0.108302	2.233665	-0.338342	-17273.2	6.269979E-6	NaN
668	1.000000	0.742692	7.37159e+06	-43689.1	1005.82	-29778.2	0.000000	0.000000	6.743048	-0.078731	NaN	0.000000	0.001640	0.001745	28.0841	0.030006	0.002015	14.8905	94.4231	-163.894	0.012100	0.741366	-0.364698	-0.366023	-0.078731	14.8905	-0.360732	-36511.5	2.156343E-6	NaN
668	1.000000	0.752696	7.37159e+06	-43689.1	1005.82	-29778.2	0.000000	0.000000	6.753054	-0.037600	NaN	0.000000	0.001642	0.001682	28.0844	0.043592	0.002114	20.617	170.294	15.3885	-0.016627	0.751349	-0.354693	-0.356040	-0.037600	20.617	-0.353326	-28525.7	1.318127E-6	NaN
668	1.000000	0.762678	7.37159e+06	-43689.1	1005.82	-29778.2	0.000000	0.000000	6.763036	-0.036813	NaN	0.000000	0.001627	0.001706	28.0841	0.030866	0.001953	15.8086	-144.702	-166.612	0.038635	0.761367	-0.344711	-0.346023	-0.036813	15.8086	-0.342965	-20171.6	1.824992E-6	NaN
668	1.000000	0.772682	7.37159e+06	-43689.1	1005.82	-29778.2	0.000000	0.000000	6.773042	0.006965	NaN	0.000000	0.001622	0.001712	28.0843	0.060267	0.001881	32.0445	-90.2237	13.694	-0.016714	0.771296	-0.334707	-0.336094	0.006965	32.0445	-0.334870	-15370.5	-4.531683E-7	NaN
668	1.000000	0.782695	7.37159e+06	-43689.1	1005.82	-29778.2	0.000000	0.000000	6.783053	-0.015460	NaN	0.000000	0.001588	0.001724	28.0842	0.061568	0.002000	30.7787	31.9985	-165.636	-0.037670	0.781326	-0.324695	-0.326064	-0.015460	30.7787	-0.324318	-10767.7	1.435806E-6	NaN
668	1.000000	0.792706	7.37159e+06	-43689.1	1005.82	-29778.2	0.000000	0.000000	6.793065	-0.022320	NaN	0.000000	0.001626	0.001709	28.0844	0.035247	0.002093	16.8371	-2.467114	18.737	-0.043520	0.791315	-0.314683	-0.316074	-0.022320	16.8371	-0.313689	-7509.19	2.972330E-6	NaN
668	1.000000	0.802689	7.37159e+06	-43689.1	1005.82	-29778.2	0.000000	0.000000	6.803049	0.016749	NaN	0.000000	0.001608	0.001729	28.0842	0.011350	0.002008	5.652264	55.2009	-167.535	0.011780	0.801340	-0.304700	-0.306049	0.016749	5.652264	-0.306923	-5963.11	-2.808766E-6	NaN
668	1.000000	0.812712	7.37159e+06	-43689.1	1005.82	-29778.2	0.000000	0.000000	6.813072	0.027464	NaN	0.000000	0.001593	0.001748	28.0842	0.093233	0.001848	50.4598	7.330853	16.508	0.019249	0.811384	-0.294678	-0.296005	0.027464	50.4598	-0.295086	-3975.31	-6.908639E-6	NaN
668	1.000000	0.822723	7.37159e+06	-43689.1	1005.82	-29778.2	0.000000	0.000000	6.823082	-0.003957	NaN	0.000000	0.001627	0.001750	28.0843	0.037981	0.002008	18.9153	-27.324	-165.55	0.034079	0.821419	-0.284666	-0.285970	-0.003957	18.9153	-0.284509	-2759.87	1.433589E-6	NaN
668	1.000000	0.832736	7.37159e+06	-43689.1	1005.82	-29778.2	0.000000	0.000000	6.833094	-0.036449	NaN	0.000000	0.001643	0.001725	28.0843	0.023568	0.001937	12.1699	-86.8573	13.5982	-0.021551	0.831361	-0.274654	-0.276029	-0.036449	12.1699	-0.272407	-1811.78	2.011774E-5	NaN
668	1.000000	0.842730	7.37159e+06	-43689.1	1005.82	-29778.2	0.000000	0.000000	6.843086	-0.076164	NaN	0.000000	0.001619	0.001738	28.0844	0.072230	0.001943	37.1745	107.155	-165.131	-0.053226	0.841440	-0.264660	-0.265949	-0.076164	37.1745	-0.263123	-1308.35	5.821413E-5	NaN
668	1.000000	0.852737	7.37159e+06	-43689.1	1005.82	-29778.2	0.000000	0.000000	6.853095	-0.052931	NaN	0.000000	0.001599	0.001763	28.0843	0.112140	0.002022	55.4735	158.382	13.5958	0.060130	0.851366	-0.254652	-0.256024	-0.052931	55.4735	-0.253936	-945.657	5.597309E-5	NaN
668	1.000000	0.862734	7.37159e+06	-43689.1	1005.82	-29778.2	0.000000	0.000000	6.863092	-0.023431	NaN	0.000000	0.001646	0.001784	28.0841	0.113766	0.002049	55.5185	-109.988	-161.941	0.006764	0.861441	-0.244656	-0.245949	-0.023431	55.5185	-0.244339	-671.708	3.488329E-5	NaN
668	1.000000	0.872724	7.37159e+06	-43689.1	1005.82	-29778.2	0.000000	0.000000	6.873082	-0.036263	NaN	0.000000	0.001624	0.001800	28.0828	0.067901	0.002145	31.6506	172.565	15.3458	-0.081152	0.871393	-0.234666	-0.235996	-0.036263	31.6506	-0.233806	-459.718	7.888204E-5	NaN
668	1.000000	0.882726	7.37159e+06	-43689.1	1005.82	-29778.2	0.000000	0.000000	6.883085	-0.009956	NaN	0.000000	0.001637	0.001743	28.083	0.067442	0.001864	36.1755	65.3524	-165.797	0.022104	0.881415	-0.224664	-0.225974	-0.009956	36.1755	-0.224457	-327.122	3.043641E-5	NaN
668	1.000000	0.892751	7.37159e+06	-43689.1	1005.82	-29778.2	0.000000	0.000000	6.893109	-0.040405	NaN	0.000000	0.001629	0.001770	28.083	0.094471	0.001844	51.2186	41.3768	15.6353	-0.012481	0.891347	-0.214638	-0.216042	-0.040405	51.2186	-0.214047	-222.93	0.000181	NaN
668	1.000000	0.902778	7.37159e+06	-43689.1	1005.82	-29778.2	0.000000	0.000000	6.903134	-0.088629	NaN	0.000000	0.001614	0.001744	28.0833	0.093227	0.001921	48.5237	-12.4185	-167.648	-0.038927	0.901411	-0.204611	-0.205978	-0.088629	48.5237	-0.203241	-148.88	0.000595	NaN
668	1.000000	0.912750	7.37159e+06	-43689.1	1005.82	-29778.2	0.000000	0.000000	6.913109	-0.007618	NaN	0.000000	0.001601	0.001758	28.083	0.088481	0.002171	40.751	-12.088	14.8083	-0.080555	0.911364	-0.194640	-0.196026	-0.007618	40.751	-0.194500	-106.884	7.127575E-5	NaN
668	1.000000	0.922769	7.37159e+06	-43689.1	1005.82	-29778.2	0.000000	0.000000	6.923126	-0.078272	NaN	0.000000	0.001639	0.001750	28.0832	0.090290	0.001926	46.8758	-105.214	-168.738	-0.011974	0.921421	-0.184620	-0.185968	-0.078272	46.8758	-0.183368	-69.5952	0.001125	NaN
668	1.000000	0.932763	7.37159e+06	-43689.1	1005.82	-29778.2	0.000000	0.000000	6.933119	-0.075585	NaN	0.000000	0.001618	0.001756	28.0834	0.094921	0.001981	47.9105	-131.269	18.8136	-0.016155	0.931372	-0.174627	-0.176017	-0.075585	47.9105	-0.173443	-47.1184	0.001604	NaN
668	1.000000	0.942761	7.37159e+06	-43689.1	1005.82	-29778.2	0.000000	0.000000	6.943120	-0.015139	NaN	0.000000	0.001608	0.001769	28.0831	0.084824	0.002001	42.3899	43.0623	-165.276	-0.006794	0.941465	-0.164628	-0.165925	-0.015139	42.3899	-0.164360	-32.7387	0.000462	NaN
668	1.000000	0.952735	7.37159e+06	-43689.1	1005.82	-29778.2	0.000000	0.000000	6.953092	-0.058370	NaN	0.000000	0.001635	0.001722	28.0829	0.060616	0.001943	31.1937	-130.948	18.0685	-0.027592	0.951482	-0.154654	-0.155908	-0.058370	31.1937	-0.153251	-20.7504	0.002813	NaN
668	1.000000	0.962760	7.37159e+06	-43689.1	1005.82	-29778.2	0.000000	0.000000	6.963117	-0.049506	NaN	0.000000	0.001603	0.001740	28.0828	0.101828	0.002009	50.6957	-130.976	-170.074	-0.038619	0.961477	-0.144630	-0.145913	-0.049506	50.6957	-0.143897	-13.9873	0.003539	NaN
668	1.000000	0.972761	7.37159e+06	-43689.1	1005.82	-29778.2	0.000000	0.000000	6.973116	-0.103809	NaN	0.000000	0.001619	0.001734	28.083	0.109838	0.002012	54.6008	-155.547	15.1361	-0.055184	0.971428	-0.134629	-0.135962	-0.103809	54.6008	-0.133203	-8.787719	0.011813	NaN
668	1.000000	0.982779	7.37159e+06	-43689.1	1005.82	-29778.2	0.000000	0.000000	6.983140	0.037478	NaN	0.000000	0.001628	0.001712	28.0828	0.038580	0.001973	19.5528	82.1114	-164.221	0.030367	0.981483	-0.124610	-0.125906	0.037478	19.5528	-0.126048	-6.378097	-0.005876	NaN
668	1.000000	0.992803	7.37159e+06	-43689.1	1005.82	-29778.2	0.000000	0.000000	6.993159	-0.071487	NaN	0.000000	0.001592	0.001738	28.0827	0.117839	0.001936	60.8633	127.005	14.8486	0.013580	0.991392	-0.114587	-0.115997	-0.071487	60.8633	-0.113706	-3.592093	0.019901	NaN
668	1.000000	1.002770	7.37159e+06	-43689.1	1005.82	-29778.2	0.000000	0.000000	7.003128	-0.049622	NaN	0.000000	0.001636	0.001769	28.084	0.122571	0.002019	60.7058	107.67	-164.338	-0.081537	1.001488	-0.104619	-0.105901	-0.049622	60.7058	-0.104006	-2.236921	0.022183	NaN
668	1.000000	1.012809	7.37159e+06	-43689.1	1005.82	-29778.2	0.000000	0.000000	7.013165	-0.092220	NaN	0.000000	0.001626	0.001772	28.0839	0.050504	0.001955	25.8293	34.018	14.063	-0.076408	1.011443	-0.094580	-0.095946	-0.092220	25.8293	-0.091902	-1.197280	0.077024	NaN
668	1.000000	1.022785	7.37159e+06	-43689.1	1005.82	-29778.2	0.000000	0.000000	7.023140	-0.089081	NaN	0.000000	0.001652	0.001755	28.0839	0.070808	0.001977	35.809	-156.37	-166.791	-0.121597	1.021506	-0.084605	-0.085883	-0.089081	35.809	-0.082739	-0.723703	0.123091	NaN
668	1.000000	1.032809	7.37159e+06	-43689.1	1005.82	-29778.2	0.000000	0.000000	7.033167	-0.040815	NaN	0.000000	0.001645	0.001758	28.0838	0.083468	0.002027	41.1724	19.9947	15.1341	0.001544	1.031421	-0.074580	-0.075968	-0.040815	41.1724	-0.073837	-0.430833	0.094735	NaN
668	1.000000	1.042801	7.37159e+06	-43689.1	1005.82	-29778.2	0.000000	0.000000	7.043158	-0.042156	NaN	0.000000	0.001647	0.001749	28.0841	0.038767	0.002019	19.1985	-93.067	-163.779	0.012939	1.041463	-0.064589	-0.065926	-0.042156	19.1985	-0.062942	-0.218311	0.193099	NaN
668	1.000000	1.052806	7.37159e+06	-43689.1	1005.82	-29778.2	0.000000	0.000000	7.053164	-0.034398	NaN	0.000000	0.001655	0.001747	28.0839	0.140761	0.002057	68.4445	79.6984	12.1432	-0.033732	1.051459	-0.054583	-0.055930	-0.034398	68.4445	-0.054206	-0.121990	0.281975	NaN
668	1.000000	1.062822	7.37159e+06	-43689.1	1005.82	-29778.2	0.000000	0.000000	7.063178	-0.065022	NaN	0.000000	0.001643	0.001764	28.084	0.075515	0.001992	37.9077	-93.9227	-160.576	-0.070771	1.061496	-0.044568	-0.045893	-0.065022	37.9077	-0.043281	-0.056941	1.141911	NaN
668	1.000000	1.072803	7.37159e+06	-43689.1	1005.82	-29778.2	0.000000	0.000000	7.073160	-0.046133	NaN	0.000000	0.001651	0.001734	28.0839	0.025723	0.002065	12.4589	-18.9656	12.8017	-0.092567	1.071493	-0.034587	-0.035896	-0.046133	12.4589	-0.031810	-0.025881	1.782554	NaN
668	1.000000	1.082828	7.37159e+06	-43689.1	1005.82	-29778.2	0.000000	0.000000	7.083184	-0.063553	NaN	0.000000	0.001623	0.001755	28.0843	0.069660	0.001999	34.8504	-13.1929	-164.634	-0.034398	1.081513	-0.024562	-0.025876	-0.063553	34.8504	-0.023194	-0.015149	4.195112	NaN
668	1.000000	1.092835	7.37159e+06	-43689.1	1005.82	-29778.2	0.000000	0.000000	7.093195	0.004434	NaN	0.000000	0.001603	0.001776	28.0837	0.061450	0.001968	31.2224	58.309	14.2258	0.005609	1.091440	-0.014554	-0.015950	0.004434	31.2224	-0.014661	-0.009073	-0.488742	NaN
668	1.000000	1.102804	7.37159e+06	-43689.1	1005.82	-29778.2	0.000000	0.000000	7.103163	-0.024868	NaN	0.000000	0.001618	0.001753	28.084	0.045844	0.002066	22.1905	-30.3574	-166.771	0.008114	1.101544	-0.004585	-0.005846	-0.024868	22.1905	-0.003744	-0.002613	9.518207	NaN
668	2.000000	1.112521	7.37159e+06	-43689.1	1005.82	-29778.2	0.000000	0.000000	7.113222	8.318411	NaN	0.000000	0.001605	0.001762	28.0841	8.125325	0.001565	5192.41	7.721319	9.782001	6.879927	1.111447	0.005131	0.004058	8.318411	5192.41	0.003930	0.003178	2617.84	84157.7
668	2.000000	1.115388	7.37159e+06	-43689.1	1005.82	-29778.2	0.000000	0.000000	7.116229	11.6984	NaN	0.000000	0.001634	0.001770	28.0843	11.8641	0.001747	6789.59	8.097034	-175.11	11.1809	1.115052	0.007999	0.007663	11.6984	6789.59	0.006707	0.005746	2036.07	81837.1
668	2.000000	1.117844	7.37159e+06	-43689.1	1005.82	-29778.2	0.000000	0.000000	7.118891	16.7355	NaN	0.000000	0.001611	0.001720	28.0841	14.3982	0.001685	8544.24	5.876839	6.224699	15.084	1.117557	0.010454	0.010168	16.7355	8544.24	0.008985	0.008075	2072.42	86869.1
668	2.000000	1.120353	7.37159e+06	-43689.1	1005.82	-29778.2	0.000000	0.000000	7.121589	21.3111	NaN	0.000000	0.001581	0.001712	28.0829	16.9382	0.001714	9879.71	4.313156	-174.156	20.7461	1.120146	0.012964	0.012757	21.3111	9879.71	0.011346	0.010716	1988.69	87196.4
668	2.000000	1.122836	7.37159e+06	-43689.1	1005.82	-29778.2	0.000000	0.000000	7.124134	22.8546	NaN	0.000000	0.001607	0.001741	28.0832	19.5187	0.001869	10442.1	7.747753	3.811144	22.6081	1.122503	0.015446	0.015114	22.8546	10442.1	0.013805	0.013724	1665.26	81435.9
668	2.000000	1.125329	7.37159e+06	-43689.1	1005.82	-29778.2	0.000000	0.000000	7.126836	27.9094	NaN	0.000000	0.001594	0.001742	28.0829	21.894	0.001764	12411.1	3.936448	-175.463	26.3578	1.125059	0.017940	0.017670	27.9094	12411.1	0.016253	0.016993	1642.39	86985.5
668	2.000000	1.127819	7.37159e+06	-43689.1	1005.82	-29778.2	0.000000	0.000000	7.129545	33.252	NaN	0.000000	0.001621	0.001742	28.083	24.2647	0.001814	13377	7.371723	1.124579	30.7777	1.127496	0.020429	0.020107	33.252	13377	0.018565	0.020337	1635.04	85701.3
668	2.000000	1.130355	7.37159e+06	-43689.1	1005.82	-29778.2	0.000000	0.000000	7.132365	40.1609	NaN	0.000000	0.001576	0.001739	28.0832	26.8275	0.001826	14690.8	6.959570	179.66	40.4928	1.130016	0.022966	0.022626	40.1609	14690.8	0.020916	0.024001	1673.28	86636.7
668	2.000000	1.132833	7.37159e+06	-43689.1	1005.82	-29778.2	0.000000	0.000000	7.134993	43.8183	NaN	0.000000	0.001603	0.001749	28.0831	28.2444	0.001794	15739.9	3.641583	3.039318	42.3425	1.132538	0.025443	0.025149	43.8183	15739.9	0.023355	0.028091	1559.86	85800.5
668	2.000000	1.135310	7.37159e+06	-43689.1	1005.82	-29778.2	0.000000	0.000000	7.137886	53.9375	NaN	0.000000	0.001610	0.001796	28.0832	31.1078	0.001815	17143.4	3.137662	-176.802	52.343	1.134984	0.027920	0.027595	53.9375	17143.4	0.025561	0.032044	1683.25	87498
668	2.000000	1.137828	7.37159e+06	-43689.1	1005.82	-29778.2	0.000000	0.000000	7.140580	58.1915	NaN	0.000000	0.001591	0.001764	28.0832	33.0144	0.001801	18334.3	4.874700	1.085210	57.8079	1.137443	0.030439	0.030053	58.1915	18334.3	0.028058	0.036816	1580.62	87301.2
668	2.000000	1.140292	7.37159e+06	-43689.1	1005.82	-29778.2	0.000000	0.000000	7.143461	68.3505	NaN	0.000000	0.001589	0.001724	28.0837	35.1794	0.001658	21212.7	6.011121	178.043	67.1496	1.140018	0.032903	0.032628	68.3505	21212.7	0.030486	0.041757	1636.86	94842.8
668	2.000000	1.142790	7.37159e+06	-43689.1	1005.82	-29778.2	0.000000	0.000000	7.146186	73.881	NaN	0.000000	0.001615	0.001741	28.0829	37.9806	0.001870	20314.8	4.089821	0.237291	72.296	1.142460	0.035400	0.035071	73.881	20314.8	0.032673	0.046466	1590.01	86103
668	2.000000	1.145289	7.37159e+06	-43689.1	1005.82	-29778.2	0.000000	0.000000	7.149184	86.026	NaN	0.000000	0.001587	0.001722	28.0832	40.4551	0.001798	22502.9	1.965179	-179.328	84.7745	1.144946	0.037899	0.037557	86.026	22502.9	0.035032	0.051821	1660.08	90315
668	2.000000	1.147775	7.37159e+06	-43689.1	1005.82	-29778.2	0.000000	0.000000	7.152052	95.3296	NaN	0.000000	0.001623	0.001767	28.0831	42.0672	0.001705	24671.6	5.483484	-2.311348	92.7472	1.147480	0.040385	0.040091	95.3296	24671.6	0.037487	0.057696	1652.27	93841.7
668	2.000000	1.150313	7.37159e+06	-43689.1	1005.82	-29778.2	0.000000	0.000000	7.154975	104.682	NaN	0.000000	0.001643	0.001767	28.0832	43.515	0.001648	26408.4	2.006171	179.923	103.908	1.149934	0.042924	0.042544	104.682	26408.4	0.039951	0.063901	1638.2	95447.1
668	2.000000	1.152755	7.37159e+06	-43689.1	1005.82	-29778.2	0.000000	0.000000	7.157871	115.727	NaN	0.000000	0.001595	0.001780	28.0836	47.4136	0.001779	26648.8	6.498818	-4.701146	112.038	1.152369	0.045365	0.044980	115.727	26648.8	0.042108	0.069590	1662.99	92294.9
668	2.000000	1.155315	7.37159e+06	-43689.1	1005.82	-29778.2	0.000000	0.000000	7.160905	127.261	NaN	0.000000	0.001620	0.001727	28.0842	50.612	0.001795	28202.9	3.523354	178.488	126.438	1.154957	0.047925	0.047568	127.261	28202.9	0.044541	0.076290	1668.12	93289.6
668	2.000000	1.157812	7.37159e+06	-43689.1	1005.82	-29778.2	0.000000	0.000000	7.163977	141.243	NaN	0.000000	0.001629	0.001724	28.0843	51.5814	0.001654	31187	1.615455	-0.374415	138.735	1.157455	0.050423	0.050065	141.243	31187	0.047026	0.083443	1692.69	98639.6
668	2.000000	1.160252	7.37159e+06	-43689.1	1005.82	-29778.2	0.000000	0.000000	7.166789	150.291	NaN	0.000000	0.001591	0.001733	28.0842	56.495	0.001660	34031.9	6.822264	172.291	149.006	1.160041	0.052863	0.052652	150.291	34031.9	0.049551	0.091029	1651.02	103055
668	2.000000	1.162825	7.37159e+06	-43689.1	1005.82	-29778.2	0.000000	0.000000	7.170045	166.905	NaN	0.000000	0.001647	0.001770	28.0844	58.0814	0.001770	32815.5	3.050149	-2.943283	167.364	1.162380	0.055436	0.054990	166.905	32815.5	0.051621	0.097491	1712.01	96021.9
668	2.000000	1.165309	7.37159e+06	-43689.1	1005.82	-29778.2	0.000000	0.000000	7.172958	177.34	NaN	0.000000	0.001610	0.001778	28.0843	61.6325	0.001784	34541.9	5.840596	174.905	179.007	1.164922	0.057920	0.057532	177.34	34541.9	0.054069	0.105405	1682.46	97204.8
668	2.000000	1.167740	7.37159e+06	-43689.1	1005.82	-29778.2	0.000000	0.000000	7.175847	188.497	NaN	0.000000	0.001648	0.001748	28.0847	63.1941	0.001688	37427.4	1.662852	-2.792930	183.837	1.167364	0.060351	0.059974	188.497	37427.4	0.056574	0.113809	1656.26	101362
668	2.000000	1.170331	7.37159e+06	-43689.1	1005.82	-29778.2	0.000000	0.000000	7.178970	201.421	NaN	0.000000	0.001672	0.001741	28.0845	66.4961	0.001843	36081	6.543321	172.527	205.045	1.169994	0.062942	0.062604	201.421	36081	0.058755	0.121382	1659.39	94618.1
668	2.000000	1.172743	7.37159e+06	-43689.1	1005.82	-29778.2	0.000000	0.000000	7.181999	216.445	NaN	0.000000	0.001657	0.001693	28.0845	69.7028	0.001885	36973.1	6.573299	-6.934064	215.84	1.172244	0.065354	0.064855	216.445	36973.1	0.060963	0.129284	1674.18	93947.7
668	2.000000	1.175188	7.37159e+06	-43689.1	1005.82	-29778.2	0.000000	0.000000	7.184904	227.643	NaN	0.000000	0.001670	0.001722	28.0846	71.7787	0.001866	38465.5	4.508776	173.98	223.576	1.175101	0.067799	0.067712	227.643	38465.5	0.063360	0.138132	1648.02	94558
668	2.000000	1.177739	7.37159e+06	-43689.1	1005.82	-29778.2	0.000000	0.000000	7.188386	250.307	NaN	0.000000	0.001609	0.001744	28.0846	73.2639	0.001905	38459.1	4.631589	-5.859269	245.922	1.177460	0.070349	0.070071	250.307	38459.1	0.065468	0.146143	1712.75	91914.3
668	2.000000	1.180231	7.37159e+06	-43689.1	1005.82	-29778.2	0.000000	0.000000	7.191548	266.579	NaN	0.000000	0.001640	0.001724	28.0844	74.5349	0.001783	41797.6	5.234537	173.945	264.429	1.179847	0.072842	0.072457	266.579	41797.6	0.068059	0.156280	1705.77	96598.9
668	2.000000	1.182732	7.37159e+06	-43689.1	1005.82	-29778.2	0.000000	0.000000	7.194519	278.027	NaN	0.000000	0.001637	0.001707	28.085	78.386	0.001752	44743.6	7.786778	-10.3418	275.559	1.182523	0.075343	0.075133	278.027	44743.6	0.070682	0.166875	1666.08	100071
668	2.000000	1.185247	7.37159e+06	-43689.1	1005.82	-29778.2	0.000000	0.000000	7.197731	294.996	NaN	0.000000	0.001623	0.001726	28.0845	81.2558	0.001783	45579.9	7.340181	170.006	294.22	1.184973	0.077857	0.077583	294.996	45579.9	0.073003	0.176519	1671.19	99117.7
668	2.000000	1.187774	7.37159e+06	-43689.1	1005.82	-29778.2	0.000000	0.000000	7.201189	317.654	NaN	0.000000	0.001591	0.001733	28.0833	82.6171	0.001678	49237.6	6.681182	-9.336970	317.023	1.187225	0.080384	0.079836	317.654	49237.6	0.075546	0.187375	1695.28	103924
668	2.000000	1.190142	7.37159e+06	-43689.1	1005.82	-29778.2	0.000000	0.000000	7.204470	339.858	NaN	0.000000	0.001590	0.001747	28.0832	83.884	0.001786	46966.7	6.089916	171.507	334.884	1.189845	0.082752	0.082455	339.858	46966.7	0.077325	0.195156	1741.47	97134.3
668	2.000000	1.192631	7.37159e+06	-43689.1	1005.82	-29778.2	0.000000	0.000000	7.207744	358.949	NaN	0.000000	0.001584	0.001725	28.084	87.2603	0.001716	50865.2	2.139030	-5.905000	351.792	1.192366	0.085241	0.084976	358.949	50865.2	0.079949	0.206896	1734.92	102169
668	2.000000	1.195255	7.37159e+06	-43689.1	1005.82	-29778.2	0.000000	0.000000	7.210663	366.129	NaN	0.000000	0.001560	0.001756	28.0833	92.1979	0.001846	49949	4.481988	171.943	365.139	1.195070	0.087866	0.087680	366.129	49949	0.082368	0.218006	1679.44	97738.5
668	2.000000	1.197755	7.37159e+06	-43689.1	1005.82	-29778.2	0.000000	0.000000	7.214093	388.753	NaN	0.000000	0.001567	0.001728	28.0835	92.802	0.001774	52306.7	6.436686	-9.261358	386.424	1.197305	0.090366	0.089915	388.753	52306.7	0.084792	0.229409	1694.58	99775.7
668	2.000000	1.200339	7.37159e+06	-43689.1	1005.82	-29778.2	0.000000	0.000000	7.217190	401.245	NaN	0.000000	0.001587	0.001729	28.0832	94.9785	0.001639	57938.4	2.030827	173.944	407.605	1.199943	0.092949	0.092553	401.245	57938.4	0.087755	0.243720	1646.34	107225
668	2.000000	1.202757	7.37159e+06	-43689.1	1005.82	-29778.2	0.000000	0.000000	7.220471	422.232	NaN	0.000000	0.001602	0.001705	28.0843	99.0512	0.001878	52746.5	4.620977	-8.453275	420.615	1.202469	0.095367	0.095080	422.232	52746.5	0.089364	0.251657	1677.81	96064.4
668	2.000000	1.205181	7.37159e+06	-43689.1	1005.82	-29778.2	0.000000	0.000000	7.223992	448.92	NaN	0.000000	0.001564	0.001763	28.0833	100.105	0.001675	59766.8	3.500713	172.199	445.826	1.204874	0.097792	0.097485	448.92	59766.8	0.092158	0.265729	1689.39	105929
668	2.000000	1.207811	7.37159e+06	-43689.1	1005.82	-29778.2	0.000000	0.000000	7.227300	465.41	NaN	0.000000	0.001567	0.001718	28.0836	103.393	0.001834	56365.4	4.758209	-8.705964	465.919	1.207496	0.100422	0.100107	465.41	56365.4	0.094229	0.276385	1683.92	97955.4
668	2.000000	1.210187	7.37159e+06	-43689.1	1005.82	-29778.2	0.000000	0.000000	7.230643	488.952	NaN	0.000000	0.001588	0.001751	28.0833	106.015	0.001831	57911.7	8.128209	167.638	487.335	1.209952	0.102797	0.102562	488.952	57911.7	0.096465	0.288114	1697.08	98572.8
668	2.000000	1.211264	7.37159e+06	-43689.1	1005.82	-29778.2	0.000000	0.000000	7.231802	490.933	NaN	0.000000	0.001577	0.001716	28.0833	106.748	0.001758	60733.8	3.829159	171.698	493.11	1.211008	0.103874	0.103619	490.933	60733.8	0.097812	0.295286	1662.57	102113