File: remote_trans/data/nanoindenter/0828-1/data/Data_2025-08-06,11h17m57s/2025-07-22_16-23-58_1_251.txt
2025-07-22, 16:23:58, 1
Index	Phase	Displacement	Time	Pos X	Pos Y	Pos Z	Rot A	Rot B	Piezo Z	Force A	Force B	Gripper	Voltage A	Voltage B	Temperature	Amplitude force	Amplitude pos	Stiffness	Phase shift	Phase excitation	Force A raw	Displacement raw	HMax	HMax raw	Real Force	Real Stiffness	Contact Depth	Area	Hardness	Reduced Mod.
[#]	[#]	[um]	[s]	[um]	[um]	[um]	[m°]	[m°]	[um]	[uN]	[uN]	[V]	[V]	[V]	[°C]	[uN]	[um]	[N/m]	[°]	[°]	[uN]	[um]	[um]	[um]	[uN]	[N/m]	[um]	[um^2]	[MPa]	[MPa]
251	1.000000	0.002261	7.3675e+06	-51189.1	955.82	-29753.4	0.000000	0.000000	6.002790	0.046876	NaN	0.000000	0.001612	0.001683	28.0789	0.039180	0.000968	40.4955	124.462	-161.152	0.050500	0.000975	-1.152221	-1.153506	0.046876	40.4955	-1.153089	-2.583611E+15	-1.814351E-17	NaN
251	1.000000	0.012295	7.3675e+06	-51189.1	955.819	-29753.4	0.000000	0.000000	6.012820	-0.052817	NaN	0.000000	0.001622	0.001662	28.0788	0.079253	0.001212	65.3727	87.9727	19.5681	-0.182273	0.010930	-1.142186	-1.143552	-0.052817	65.3727	-1.141580	-1.811045E+15	2.916355E-17	NaN
251	1.000000	0.022255	7.3675e+06	-51189.1	955.82	-29753.4	0.000000	0.000000	6.022780	-0.039225	NaN	0.000000	0.001584	0.001687	28.079	0.091054	0.001640	55.5231	-138.935	-164.482	0.061722	0.020912	-1.132227	-1.133570	-0.039225	55.5231	-1.131697	-1.334707E+15	2.938861E-17	NaN
251	1.000000	0.032234	7.3675e+06	-51189.1	955.818	-29753.4	0.000000	0.000000	6.032761	0.004528	NaN	0.000000	0.001570	0.001681	28.0789	0.101659	0.001859	54.6894	36.2136	13.73	0.037289	0.030828	-1.122247	-1.123654	0.004528	54.6894	-1.122309	-9.987436E+14	-4.534094E-18	NaN
251	1.000000	0.042223	7.3675e+06	-51189.1	955.819	-29753.4	0.000000	0.000000	6.042749	-0.010661	NaN	0.000000	0.001585	0.001663	28.0793	0.096776	0.001939	49.9229	6.162557	-165.296	-0.064117	0.040920	-1.112258	-1.113561	-0.010661	49.9229	-1.112098	-7.285254E+14	1.463342E-17	NaN
251	1.000000	0.052240	7.3675e+06	-51189.1	955.819	-29753.4	0.000000	0.000000	6.052766	-0.004686	NaN	0.000000	0.001611	0.001683	28.079	0.053986	0.002112	25.5564	-109.61	14.5299	-0.018717	0.050877	-1.102242	-1.103604	-0.004686	25.5564	-1.102104	-5.349465E+14	8.759998E-18	NaN
251	1.000000	0.062256	7.3675e+06	-51189.1	955.818	-29753.4	0.000000	0.000000	6.062780	-0.068663	NaN	0.000000	0.001565	0.001662	28.0781	0.017556	0.002065	8.500294	41.7132	-165.128	0.011037	0.060878	-1.092226	-1.093603	-0.068663	8.500294	-1.086167	-3.268475E+14	2.100766E-16	NaN
251	1.000000	0.072233	7.3675e+06	-51189.1	955.818	-29753.4	0.000000	0.000000	6.072757	-0.060870	NaN	0.000000	0.001570	0.001655	28.0778	0.084869	0.002012	42.1851	95.162	14.7953	-0.078549	0.070837	-1.082248	-1.083645	-0.060870	42.1851	-1.081166	-2.800139E+14	2.173803E-16	NaN
251	1.000000	0.082223	7.3675e+06	-51189.1	955.818	-29753.4	0.000000	0.000000	6.082749	-0.007004	NaN	0.000000	0.001549	0.001665	28.0782	0.100998	0.001927	52.3993	-70.1701	-167.476	0.043727	0.080918	-1.072259	-1.073563	-0.007004	52.3993	-1.072158	-2.119270E+14	3.305005E-17	NaN
251	1.000000	0.092234	7.3675e+06	-51189.1	955.819	-29753.4	0.000000	0.000000	6.092758	-0.054879	NaN	0.000000	0.001587	0.001693	28.0779	0.092669	0.002035	45.5293	119.464	15.2478	-0.053624	0.090873	-1.062248	-1.063608	-0.054879	45.5293	-1.061344	-1.516619E+14	3.618480E-16	NaN
251	1.000000	0.102221	7.3675e+06	-51189.1	955.819	-29753.4	0.000000	0.000000	6.102748	0.018332	NaN	0.000000	0.001582	0.001625	28.0779	0.035473	0.001933	18.3503	144.909	-164.483	-0.050012	0.100899	-1.052261	-1.053583	0.018332	18.3503	-1.053010	-1.171859E+14	-1.564330E-16	NaN
251	1.000000	0.112239	7.3675e+06	-51189.1	955.819	-29753.4	0.000000	0.000000	6.112767	0.015432	NaN	0.000000	0.001580	0.001653	28.0783	0.074805	0.002050	36.496	-144.676	14.1829	-0.003087	0.110839	-1.042242	-1.043642	0.015432	36.496	-1.042559	-8.479702E+13	-1.819826E-16	NaN
251	1.000000	0.122277	7.3675e+06	-51189.1	955.819	-29753.4	0.000000	0.000000	6.122804	0.029308	NaN	0.000000	0.001576	0.001680	28.0782	0.041743	0.002087	19.9991	-108.08	-167.396	0.001110	0.120989	-1.032205	-1.033493	0.029308	19.9991	-1.033304	-6.366779E+13	-4.603315E-16	NaN
251	1.000000	0.132257	7.3675e+06	-51189.1	955.819	-29753.4	0.000000	0.000000	6.132781	-0.062323	NaN	0.000000	0.001592	0.001660	28.0778	0.030777	0.001955	15.7399	80.4342	18.444	-0.045633	0.130898	-1.022225	-1.023583	-0.062323	15.7399	-1.019255	-4.120336E+13	1.512578E-15	NaN
251	1.000000	0.142246	7.3675e+06	-51189.1	955.819	-29753.4	0.000000	0.000000	6.142772	-0.016270	NaN	0.000000	0.001551	0.001634	28.0782	0.112389	0.001992	56.4155	-127.022	-164.903	0.031245	0.140981	-1.012235	-1.013500	-0.016270	56.4155	-1.012019	-3.292734E+13	4.941116E-16	NaN
251	1.000000	0.152271	7.3675e+06	-51189.1	955.819	-29753.4	0.000000	0.000000	6.152798	0.021065	NaN	0.000000	0.001548	0.001663	28.0781	0.144527	0.002020	71.5335	172.39	11.3188	0.018277	0.150935	-1.002211	-1.003546	0.021065	71.5335	-1.002432	-2.446286E+13	-8.610820E-16	NaN
251	1.000000	0.162289	7.3675e+06	-51189.1	955.819	-29753.4	0.000000	0.000000	6.162815	-0.004813	NaN	0.000000	0.001556	0.001669	28.078	0.023641	0.001877	12.5981	9.557072	-164.211	-0.065276	0.160965	-0.992193	-0.993516	-0.004813	12.5981	-0.991906	-1.765169E+13	2.726560E-16	NaN
251	1.000000	0.172279	7.3675e+06	-51189.1	955.819	-29753.4	0.000000	0.000000	6.172807	0.039103	NaN	0.000000	0.001591	0.001674	28.078	0.088515	0.001979	44.722	-50.6193	14.7596	0.027058	0.170924	-0.982203	-0.983558	0.039103	44.722	-0.982859	-1.333285E+13	-2.932795E-15	NaN
251	1.000000	0.182269	7.3675e+06	-51189.1	955.819	-29753.4	0.000000	0.000000	6.182795	-0.019979	NaN	0.000000	0.001568	0.001650	28.078	0.089993	0.001995	45.1178	-2.433406	-166.727	0.013158	0.180993	-0.972212	-0.973488	-0.019979	45.1178	-0.971880	-9.484279E+12	2.106504E-15	NaN
251	1.000000	0.192311	7.3675e+06	-51189.1	955.819	-29753.4	0.000000	0.000000	6.192839	0.014118	NaN	0.000000	0.001572	0.001664	28.0793	0.055373	0.002012	27.52	-43.385	13.5173	0.080751	0.190952	-0.962170	-0.963529	0.014118	27.52	-0.962555	-7.100862E+12	-1.988245E-15	NaN
251	1.000000	0.202291	7.3675e+06	-51189.1	955.819	-29753.4	0.000000	0.000000	6.202817	-0.014958	NaN	0.000000	0.001593	0.001683	28.0791	0.073348	0.001995	36.767	138.458	-162.723	-0.030192	0.200955	-0.952190	-0.953527	-0.014958	36.767	-0.951885	-5.098572E+12	2.933835E-15	NaN
251	1.000000	0.212281	7.3675e+06	-51189.1	955.819	-29753.4	0.000000	0.000000	6.212806	-0.050627	NaN	0.000000	0.001575	0.001688	28.0789	0.076515	0.002131	35.9106	158.159	17.2335	-0.042480	0.210905	-0.942200	-0.943577	-0.050627	35.9106	-0.941143	-3.652239E+12	1.386194E-14	NaN
251	1.000000	0.222300	7.3675e+06	-51189.1	955.818	-29753.4	0.000000	0.000000	6.222827	-0.008903	NaN	0.000000	0.001559	0.001699	28.0791	0.035873	0.002072	17.3151	30.757	-166.872	0.000804	0.221021	-0.932181	-0.933461	-0.008903	17.3151	-0.931796	-2.731689E+12	3.259077E-15	NaN
251	1.000000	0.232341	7.3675e+06	-51189.1	955.818	-29753.4	0.000000	0.000000	6.232864	-0.091495	NaN	0.000000	0.001560	0.001674	28.0788	0.061532	0.001988	30.9496	-110.244	13.756	-0.002503	0.230964	-0.922141	-0.923518	-0.091495	30.9496	-0.919923	-1.888734E+12	4.844275E-14	NaN
251	1.000000	0.242285	7.3675e+06	-51189.1	955.819	-29753.4	0.000000	0.000000	6.242816	0.091536	NaN	0.000000	0.001559	0.001650	28.0789	0.089548	0.002166	41.3409	-50.5113	-166.327	0.023315	0.240923	-0.912196	-0.913558	0.091536	41.3409	-0.913857	-1.564055E+12	-5.852506E-14	NaN
251	1.000000	0.252308	7.3675e+06	-51189.1	955.817	-29753.4	0.000000	0.000000	6.252829	-0.132350	NaN	0.000000	0.001533	0.001650	28.0791	0.026449	0.002071	12.7728	24.291	17.7889	-0.153312	0.250965	-0.902173	-0.903516	-0.132350	12.7728	-0.894402	-8.539175E+11	1.549914E-13	NaN
251	1.000000	0.262322	7.3675e+06	-51189.1	955.818	-29753.4	0.000000	0.000000	6.262848	-0.034453	NaN	0.000000	0.001547	0.001666	28.0789	0.063847	0.002194	29.1045	168.991	-165.529	0.008084	0.260989	-0.892159	-0.893493	-0.034453	29.1045	-0.891271	-7.746386E+11	4.447666E-14	NaN
251	1.000000	0.272355	7.3675e+06	-51189.1	955.818	-29753.4	0.000000	0.000000	6.272882	0.006675	NaN	0.000000	0.001566	0.001657	28.0789	0.089517	0.002027	44.1626	-56.8041	13.5501	-0.022559	0.270950	-0.882126	-0.883531	0.006675	44.1626	-0.882240	-5.847804E+11	-1.141425E-14	NaN
251	1.000000	0.282348	7.36751e+06	-51189.1	955.819	-29753.4	0.000000	0.000000	6.282872	-0.081094	NaN	0.000000	0.001539	0.001648	28.0789	0.124260	0.002016	61.6281	103.74	-166.411	-0.085930	0.281046	-0.872133	-0.873436	-0.081094	61.6281	-0.871146	-4.139553E+11	1.958997E-13	NaN
251	1.000000	0.292282	7.36751e+06	-51189.1	955.817	-29753.4	0.000000	0.000000	6.292810	0.030576	NaN	0.000000	0.001564	0.001625	28.079	0.095373	0.002035	46.8679	11.5685	12.6511	0.034624	0.290984	-0.862200	-0.863497	0.030576	46.8679	-0.862689	-3.180658E+11	-9.612990E-14	NaN
251	1.000000	0.302333	7.36751e+06	-51189.1	955.819	-29753.4	0.000000	0.000000	6.302859	-0.001999	NaN	0.000000	0.001586	0.001655	28.0789	0.066607	0.002113	31.517	-173.441	-165.876	-0.019977	0.301068	-0.852149	-0.853413	-0.001999	31.517	-0.852101	-2.286583E+11	8.741715E-15	NaN
251	1.000000	0.312301	7.36751e+06	-51189.1	955.819	-29753.4	0.000000	0.000000	6.312824	-0.079910	NaN	0.000000	0.001581	0.001675	28.0791	0.031962	0.001918	16.6616	-132.164	10.1043	-0.011881	0.310986	-0.842181	-0.843495	-0.079910	16.6616	-0.838584	-1.500056E+11	5.327113E-13	NaN
251	1.000000	0.322337	7.36751e+06	-51189.1	955.819	-29753.4	0.000000	0.000000	6.322864	0.006029	NaN	0.000000	0.001571	0.001654	28.0795	0.074403	0.002124	35.035	-94.1018	-168.791	-0.017911	0.320993	-0.832145	-0.833488	0.006029	35.035	-0.832274	-1.231980E+11	-4.893547E-14	NaN
251	1.000000	0.332326	7.36751e+06	-51189.1	955.818	-29753.4	0.000000	0.000000	6.332853	0.007540	NaN	0.000000	0.001572	0.001681	28.0782	0.046166	0.002121	21.7675	-42.2159	14.3579	0.007089	0.330987	-0.822155	-0.823495	0.007540	21.7675	-0.822415	-9.056417E+10	-8.325647E-14	NaN
251	1.000000	0.342370	7.36751e+06	-51189.1	955.819	-29753.4	0.000000	0.000000	6.342894	-0.057927	NaN	0.000000	0.001556	0.001635	28.0779	0.150725	0.002105	71.6017	124.258	-163.671	0.000838	0.341032	-0.812112	-0.813449	-0.057927	71.6017	-0.811505	-6.441578E+10	8.992704E-13	NaN
251	1.000000	0.352345	7.36751e+06	-51189.1	955.819	-29753.4	0.000000	0.000000	6.352870	-0.030543	NaN	0.000000	0.001553	0.001654	28.078	0.049896	0.002094	23.8281	91.3079	14.3003	-0.088992	0.350932	-0.802137	-0.803549	-0.030543	23.8281	-0.801176	-4.664666E+10	6.547654E-13	NaN
251	1.000000	0.362370	7.36751e+06	-51189.1	955.818	-29753.4	0.000000	0.000000	6.362894	-0.043504	NaN	0.000000	0.001559	0.001640	28.0781	0.112956	0.001929	58.5623	150.691	-167.55	-0.086677	0.361066	-0.792112	-0.793416	-0.043504	58.5623	-0.791555	-3.453016E+10	1.259887E-12	NaN
251	1.000000	0.372367	7.36751e+06	-51189.1	955.818	-29753.4	0.000000	0.000000	6.372895	0.015624	NaN	0.000000	0.001560	0.001670	28.078	0.045729	0.001905	24.0023	-36.4572	14.4099	-0.027078	0.371045	-0.782114	-0.783437	0.015624	24.0023	-0.782602	-2.609717E+10	-5.986817E-13	NaN
251	1.000000	0.382374	7.36751e+06	-51189.1	955.819	-29753.4	0.000000	0.000000	6.382902	0.022096	NaN	0.000000	0.001544	0.001616	28.078	0.150668	0.001964	76.7331	144.887	-166.891	0.006831	0.381064	-0.772107	-0.773418	0.022096	76.7331	-0.772323	-1.891862E+10	-1.167933E-12	NaN
251	1.000000	0.392368	7.36751e+06	-51189.1	955.819	-29753.4	0.000000	0.000000	6.392892	-0.051761	NaN	0.000000	0.001545	0.001683	28.078	0.129889	0.001968	66.0003	79.576	11.9895	-0.008483	0.391008	-0.762114	-0.763474	-0.051761	66.0003	-0.761526	-1.349138E+10	3.836610E-12	NaN
251	1.000000	0.402356	7.36751e+06	-51189.1	955.819	-29753.4	0.000000	0.000000	6.402880	-0.059351	NaN	0.000000	0.001567	0.001668	28.0783	0.105495	0.002020	52.2215	-110.027	-163.317	-0.010842	0.401070	-0.752125	-0.753412	-0.059351	52.2215	-0.751273	-9.784677E+9	6.065673E-12	NaN
251	1.000000	0.412381	7.36751e+06	-51189.1	955.819	-29753.4	0.000000	0.000000	6.412906	-0.027933	NaN	0.000000	0.001539	0.001680	28.0781	0.089176	0.001967	45.328	-165.829	11.3038	-0.063477	0.410989	-0.742101	-0.743492	-0.027933	45.328	-0.741638	-7.233892E+9	3.861365E-12	NaN
251	1.000000	0.422373	7.36751e+06	-51189.1	955.818	-29753.4	0.000000	0.000000	6.422900	0.001664	NaN	0.000000	0.001579	0.001684	28.0779	0.101190	0.002006	50.4431	-100.113	-166.766	0.037633	0.421078	-0.732108	-0.733404	0.001664	50.4431	-0.732133	-5.368779E+9	-3.099061E-13	NaN
251	1.000000	0.432372	7.36751e+06	-51189.1	955.819	-29753.4	0.000000	0.000000	6.432897	-0.026791	NaN	0.000000	0.001585	0.001690	28.0785	0.051856	0.001947	26.6362	145.758	10.6267	0.038620	0.430971	-0.722110	-0.723510	-0.026791	26.6362	-0.721355	-3.827845E+9	6.998859E-12	NaN
251	1.000000	0.442408	7.36751e+06	-51189.1	955.818	-29753.4	0.000000	0.000000	6.442933	-0.042912	NaN	0.000000	0.001498	0.001686	28.0782	0.080544	0.001984	40.5939	-25.3089	-163.284	0.007733	0.441138	-0.712073	-0.713344	-0.042912	40.5939	-0.711280	-2.789462E+9	1.538361E-11	NaN
251	1.000000	0.452406	7.36751e+06	-51189.1	955.818	-29753.4	0.000000	0.000000	6.452930	-0.070156	NaN	0.000000	0.001534	0.001709	28.0784	0.050605	0.001969	25.6946	136.992	20.0055	-0.010182	0.451061	-0.702076	-0.703420	-0.070156	25.6946	-0.700028	-1.958451E+9	3.582234E-11	NaN
251	1.000000	0.462390	7.36751e+06	-51189.1	955.819	-29753.4	0.000000	0.000000	6.462916	-0.015344	NaN	0.000000	0.001547	0.001700	28.0784	0.055696	0.001980	28.1347	-138.823	-164.742	0.006176	0.461088	-0.692091	-0.693394	-0.015344	28.1347	-0.691682	-1.506275E+9	1.018689E-11	NaN
251	1.000000	0.472416	7.36751e+06	-51189.1	955.817	-29753.4	0.000000	0.000000	6.472942	-0.010923	NaN	0.000000	0.001573	0.001677	28.0796	0.053243	0.001914	27.8113	82.2975	18.9483	0.040949	0.471027	-0.682066	-0.683454	-0.010923	27.8113	-0.681771	-1.102626E+9	9.906357E-12	NaN
251	1.000000	0.482396	7.36751e+06	-51189.1	955.819	-29753.4	0.000000	0.000000	6.482924	0.027680	NaN	0.000000	0.001586	0.001706	28.0793	0.062747	0.002052	30.5738	-84.0467	-164.142	-0.031962	0.481104	-0.672085	-0.673377	0.027680	30.5738	-0.672764	-8.302668E+8	-3.333820E-11	NaN
251	1.000000	0.492406	7.36751e+06	-51189.1	955.818	-29753.4	0.000000	0.000000	6.492933	0.007062	NaN	0.000000	0.001537	0.001675	28.0795	0.065438	0.001938	33.7695	112.157	13.3427	-0.043133	0.491056	-0.662075	-0.663426	0.007062	33.7695	-0.662232	-5.957176E+8	-1.185537E-11	NaN
251	1.000000	0.502436	7.36751e+06	-51189.1	955.818	-29753.4	0.000000	0.000000	6.502963	0.016588	NaN	0.000000	0.001536	0.001639	28.0793	0.046800	0.001875	24.9654	-6.805328	-162.767	-0.034192	0.501158	-0.652046	-0.653323	0.016588	24.9654	-0.652544	-4.388454E+8	-3.779969E-11	NaN
251	1.000000	0.512391	7.36751e+06	-51189.1	955.818	-29753.4	0.000000	0.000000	6.512918	0.022021	NaN	0.000000	0.001512	0.001691	28.0798	0.088988	0.002067	43.0611	-157.555	13.3828	0.010372	0.511052	-0.642091	-0.643429	0.022021	43.0611	-0.642475	-3.193285E+8	-6.896030E-11	NaN
251	1.000000	0.522422	7.36751e+06	-51189.1	955.82	-29753.4	0.000000	0.000000	6.522946	-0.049646	NaN	0.000000	0.001593	0.001689	28.0793	0.037721	0.001988	18.9712	68.7537	-164.973	-0.016764	0.521141	-0.632060	-0.633341	-0.049646	18.9712	-0.630097	-2.159519E+8	2.298952E-10	NaN
251	1.000000	0.532453	7.36751e+06	-51189.1	955.818	-29753.4	0.000000	0.000000	6.532977	-0.040685	NaN	0.000000	0.001562	0.001709	28.0795	0.091728	0.002030	45.1768	-23.2562	17.9287	-0.007287	0.531034	-0.622029	-0.623448	-0.040685	45.1768	-0.621354	-1.637715E+8	2.484254E-10	NaN
251	1.000000	0.542434	7.36751e+06	-51189.1	955.818	-29753.4	0.000000	0.000000	6.542958	-0.049734	NaN	0.000000	0.001594	0.001724	28.0794	0.059296	0.002039	29.0852	13.7642	-163.809	-0.076851	0.541109	-0.612048	-0.613373	-0.049734	29.0852	-0.610765	-1.171235E+8	4.246285E-10	NaN
251	1.000000	0.552452	7.36751e+06	-51189.1	955.819	-29753.4	0.000000	0.000000	6.552975	-0.071631	NaN	0.000000	0.001608	0.001667	28.0796	0.080154	0.002083	38.4837	-0.434959	16.4037	-0.051812	0.551053	-0.602030	-0.603429	-0.071631	38.4837	-0.600634	-8.495480E+7	8.431705E-10	NaN
251	1.000000	0.562435	7.36751e+06	-51189.1	955.818	-29753.4	0.000000	0.000000	6.562959	-0.068805	NaN	0.000000	0.001583	0.001690	28.0792	0.093749	0.001854	50.5719	-163.713	-164.722	0.014188	0.561149	-0.592046	-0.593332	-0.068805	50.5719	-0.591026	-6.263411E+7	1.098524E-9	NaN
251	1.000000	0.572475	7.36751e+06	-51189.1	955.818	-29753.4	0.000000	0.000000	6.573001	-0.007077	NaN	0.000000	0.001589	0.001648	28.0791	0.042783	0.001909	22.4116	175.722	16.1394	0.013069	0.571076	-0.582007	-0.583406	-0.007077	22.4116	-0.581770	-4.668242E+7	1.515949E-10	NaN
251	1.000000	0.582468	7.36751e+06	-51189.1	955.818	-29753.4	0.000000	0.000000	6.582991	-0.071814	NaN	0.000000	0.001556	0.001664	28.0792	0.087393	0.001880	46.4792	-36.0445	-169.994	-0.053361	0.581084	-0.572014	-0.573398	-0.071814	46.4792	-0.570855	-3.299465E+7	2.176537E-9	NaN
251	1.000000	0.592389	7.36751e+06	-51189.1	955.818	-29753.4	0.000000	0.000000	6.592919	0.076783	NaN	0.000000	0.001595	0.001685	28.0792	0.035148	0.001972	17.8206	-162.484	14.2678	0.011391	0.591032	-0.562093	-0.563450	0.076783	17.8206	-0.565324	-2.766984E+7	-2.774984E-9	NaN
251	1.000000	0.602459	7.36751e+06	-51189.1	955.818	-29753.4	0.000000	0.000000	6.602986	-0.007665	NaN	0.000000	0.001572	0.001686	28.0777	0.090649	0.002114	42.8757	165.287	-166.598	-0.032482	0.601088	-0.552022	-0.553394	-0.007665	42.8757	-0.551888	-1.803459E+7	4.250426E-10	NaN
251	1.000000	0.612462	7.36751e+06	-51189.1	955.819	-29753.4	0.000000	0.000000	6.612986	-0.066746	NaN	0.000000	0.001541	0.001701	28.0779	0.104910	0.001997	52.5239	-89.2604	14.1881	-0.047515	0.611114	-0.542020	-0.543367	-0.066746	52.5239	-0.541067	-1.276885E+7	5.227245E-9	NaN
251	1.000000	0.622475	7.36751e+06	-51189.1	955.819	-29753.4	0.000000	0.000000	6.623000	-0.057473	NaN	0.000000	0.001546	0.001697	28.0779	0.047109	0.001909	24.6773	-44.7418	-167.028	-0.027112	0.621177	-0.532006	-0.533305	-0.057473	24.6773	-0.530259	-9.04018e+06	6.357557E-9	NaN
251	1.000000	0.632483	7.36751e+06	-51189.1	955.818	-29753.4	0.000000	0.000000	6.633008	-0.040422	NaN	0.000000	0.001549	0.001657	28.0774	0.108212	0.001935	55.9294	150.341	9.663508	-0.029864	0.631060	-0.521998	-0.523422	-0.040422	55.9294	-0.521456	-6.82097e+06	5.926173E-9	NaN
251	1.000000	0.642438	7.36751e+06	-51189.1	955.818	-29753.4	0.000000	0.000000	6.642963	-0.046576	NaN	0.000000	0.001573	0.001711	28.0776	0.034213	0.002057	16.6355	131.988	-165.174	0.032273	0.641119	-0.512043	-0.513362	-0.046576	16.6355	-0.509943	-4.71657e+06	9.874953E-9	NaN
251	1.000000	0.652496	7.36751e+06	-51189.1	955.818	-29753.4	0.000000	0.000000	6.653019	-0.094304	NaN	0.000000	0.001535	0.001699	28.0777	0.028653	0.002113	13.5612	19.2002	17.3804	-0.105140	0.651120	-0.501986	-0.503362	-0.094304	13.5612	-0.496770	-3.08991e+06	3.052017E-8	NaN
251	1.000000	0.662501	7.36751e+06	-51189.1	955.819	-29753.4	0.000000	0.000000	6.663025	-0.067209	NaN	0.000000	0.001573	0.001709	28.078	0.117549	0.002108	55.7649	-41.9312	-165.727	-0.069742	0.661164	-0.491981	-0.493317	-0.067209	55.7649	-0.491077	-2.573e+06	2.612102E-8	NaN
251	1.000000	0.672471	7.36751e+06	-51189.1	955.819	-29753.4	0.000000	0.000000	6.672996	-0.052417	NaN	0.000000	0.001600	0.001708	28.0779	0.040800	0.002082	19.5976	164.646	12.6669	-0.021580	0.671113	-0.482010	-0.483369	-0.052417	19.5976	-0.480004	-1.80131e+06	2.909932E-8	NaN
251	1.000000	0.682494	7.36751e+06	-51189.1	955.819	-29753.4	0.000000	0.000000	6.683020	-0.007904	NaN	0.000000	0.001582	0.001698	28.0781	0.026309	0.002075	12.6759	-59.9375	-164.659	0.026377	0.681144	-0.471988	-0.473337	-0.007904	12.6759	-0.471520	-1.37001e+06	5.769376E-9	NaN
251	1.000000	0.692474	7.36751e+06	-51189.1	955.819	-29753.4	0.000000	0.000000	6.692999	-0.040811	NaN	0.000000	0.001605	0.001699	28.0781	0.056492	0.002036	27.748	166.478	16.7081	-0.044039	0.691178	-0.462007	-0.463304	-0.040811	27.748	-0.460904	-972132	4.198103E-8	NaN
251	1.000000	0.702501	7.36751e+06	-51189.1	955.818	-29753.4	0.000000	0.000000	6.703026	-0.038722	NaN	0.000000	0.001596	0.001758	28.0782	0.043472	0.001998	21.7568	-30.7827	-167.81	-0.040318	0.701167	-0.451980	-0.453314	-0.038722	21.7568	-0.450646	-697322	5.552959E-8	NaN
251	1.000000	0.712500	7.36751e+06	-51189.1	955.819	-29753.4	0.000000	0.000000	6.713023	-0.098323	NaN	0.000000	0.001607	0.001703	28.0779	0.088262	0.002010	43.9169	-22.9304	14.5666	-0.090108	0.711174	-0.441982	-0.443307	-0.098323	43.9169	-0.440302	-498462	1.972518E-7	NaN
251	1.000000	0.722490	7.36751e+06	-51189.1	955.819	-29753.4	0.000000	0.000000	6.723015	-0.039744	NaN	0.000000	0.001567	0.001694	28.0781	0.089896	0.001825	49.2498	36.6885	-167.873	-0.084909	0.721237	-0.431991	-0.433245	-0.039744	49.2498	-0.431386	-372964	1.065636E-7	NaN
251	1.000000	0.732514	7.36751e+06	-51189.1	955.819	-29753.4	0.000000	0.000000	6.733035	-0.118921	NaN	0.000000	0.001558	0.001691	28.078	0.042184	0.001961	21.5101	-2.813893	12.9807	-0.105707	0.731182	-0.421968	-0.423300	-0.118921	21.5101	-0.417821	-239611	4.963095E-7	NaN
251	1.000000	0.742550	7.36751e+06	-51189.1	955.817	-29753.4	0.000000	0.000000	6.743074	-0.059463	NaN	0.000000	0.001531	0.001682	28.0797	0.089820	0.001981	45.3331	52.3881	-165.276	-0.091393	0.741245	-0.411932	-0.413237	-0.059463	45.3331	-0.410948	-191374	3.107147E-7	NaN
251	1.000000	0.752501	7.36751e+06	-51189.1	955.819	-29753.4	0.000000	0.000000	6.753026	-0.037427	NaN	0.000000	0.001542	0.001702	28.0792	0.066438	0.002031	32.7047	-131.757	15.7477	0.000172	0.751145	-0.401980	-0.403337	-0.037427	32.7047	-0.401122	-138673	2.698919E-7	NaN
251	1.000000	0.762524	7.36751e+06	-51189.1	955.819	-29753.4	0.000000	0.000000	6.763047	-0.094559	NaN	0.000000	0.001557	0.001708	28.0793	0.064256	0.002098	30.6255	-123.577	-163.928	-0.098254	0.761238	-0.391958	-0.393244	-0.094559	30.6255	-0.389642	-95070.1	9.946243E-7	NaN
251	1.000000	0.772525	7.36751e+06	-51189.1	955.819	-29753.4	0.000000	0.000000	6.773049	-0.058052	NaN	0.000000	0.001528	0.001692	28.0792	0.148327	0.002068	71.7381	39.2048	15.5801	-0.056733	0.771234	-0.381957	-0.383248	-0.058052	71.7381	-0.381350	-72319.4	8.027163E-7	NaN
251	1.000000	0.782549	7.36751e+06	-51189.1	955.82	-29753.4	0.000000	0.000000	6.783075	-0.022427	NaN	0.000000	0.001535	0.001729	28.0793	0.129202	0.002071	62.3744	165.27	-172.16	-0.065486	0.781267	-0.371932	-0.373214	-0.022427	62.3744	-0.371663	-52488.8	4.272672E-7	NaN
251	1.000000	0.792539	7.36751e+06	-51189.1	955.819	-29753.4	0.000000	0.000000	6.793066	-0.000297	NaN	0.000000	0.001501	0.001723	28.0791	0.074505	0.002002	37.2214	31.8073	17.8589	-0.052790	0.791201	-0.361942	-0.363281	-0.000297	37.2214	-0.361936	-38003.5	7.816369E-9	NaN
251	1.000000	0.802543	7.36751e+06	-51189.1	955.818	-29753.4	0.000000	0.000000	6.803067	-0.061771	NaN	0.000000	0.001517	0.001696	28.0792	0.024308	0.002066	11.7667	-100.477	-165.441	-0.035286	0.801250	-0.351939	-0.353232	-0.061771	11.7667	-0.348002	-23877.3	2.587025E-6	NaN
251	1.000000	0.812531	7.36751e+06	-51189.1	955.819	-29753.4	0.000000	0.000000	6.813055	-0.068560	NaN	0.000000	0.001537	0.001704	28.0794	0.070442	0.001936	36.3812	112.839	12.2997	-0.070031	0.811143	-0.341950	-0.343339	-0.068560	36.3812	-0.340537	-18594.4	3.687153E-6	NaN
251	1.000000	0.822572	7.36751e+06	-51189.1	955.819	-29753.4	0.000000	0.000000	6.823099	-0.005215	NaN	0.000000	0.001548	0.001740	28.0793	0.014740	0.001967	7.494292	-13.6002	-165.81	-0.055290	0.821248	-0.331909	-0.333233	-0.005215	7.494292	-0.331387	-13669.7	3.815367E-7	NaN
251	1.000000	0.832534	7.36751e+06	-51189.1	955.819	-29753.4	0.000000	0.000000	6.833062	0.027499	NaN	0.000000	0.001561	0.001708	28.0792	0.030088	0.002011	14.9594	103.995	14.3345	0.031181	0.831220	-0.321948	-0.323261	0.027499	14.9594	-0.323326	-10412.5	-2.640925E-6	NaN
251	1.000000	0.842554	7.36751e+06	-51189.1	955.818	-29753.4	0.000000	0.000000	6.843077	-0.090479	NaN	0.000000	0.001521	0.001744	28.0792	0.092184	0.001971	46.7699	127.13	-164.219	-0.056824	0.841234	-0.311927	-0.313248	-0.090479	46.7699	-0.310476	-6731.34	1.344152E-5	NaN
251	1.000000	0.852565	7.36751e+06	-51189.1	955.819	-29753.4	0.000000	0.000000	6.853089	-0.051254	NaN	0.000000	0.001545	0.001664	28.0792	0.130514	0.001919	67.9946	-81.3875	11.5606	-0.066690	0.851207	-0.301917	-0.303274	-0.051254	67.9946	-0.301352	-4928.86	1.039884E-5	NaN
251	1.000000	0.862557	7.36751e+06	-51189.1	955.819	-29753.4	0.000000	0.000000	6.863081	-0.061232	NaN	0.000000	0.001539	0.001690	28.0793	0.034979	0.001972	17.7359	171.785	-165.711	-0.088290	0.861269	-0.291925	-0.293212	-0.061232	17.7359	-0.289335	-3260.92	1.877764E-5	NaN
251	1.000000	0.872550	7.36751e+06	-51189.1	955.819	-29753.4	0.000000	0.000000	6.873078	0.037974	NaN	0.000000	0.001568	0.001704	28.0786	0.056888	0.002038	27.9119	144.21	15.7253	-0.062661	0.871211	-0.281931	-0.283271	0.037974	27.9119	-0.282952	-2614.9	-1.452210E-5	NaN
251	1.000000	0.882578	7.36751e+06	-51189.1	955.819	-29753.4	0.000000	0.000000	6.883103	-0.038060	NaN	0.000000	0.001556	0.001689	28.0781	0.137157	0.002025	67.7265	54.8729	-162.582	-0.005567	0.881240	-0.271903	-0.273242	-0.038060	67.7265	-0.271482	-1754.1	2.169788E-5	NaN
251	1.000000	0.892558	7.36751e+06	-51189.1	955.819	-29753.4	0.000000	0.000000	6.893082	-0.051447	NaN	0.000000	0.001533	0.001723	28.0778	0.017836	0.002031	8.782770	-86.6821	18.3931	-0.104117	0.891202	-0.261924	-0.263279	-0.051447	8.782770	-0.257530	-1074.05	4.790006E-5	NaN
251	1.000000	0.902564	7.36751e+06	-51189.1	955.819	-29753.4	0.000000	0.000000	6.903088	-0.063120	NaN	0.000000	0.001523	0.001693	28.0785	0.109620	0.002064	53.1079	112.603	-166.489	-0.111812	0.901279	-0.251918	-0.253202	-0.063120	53.1079	-0.251027	-852.775	7.401672E-5	NaN
251	1.000000	0.912554	7.36751e+06	-51189.1	955.819	-29753.4	0.000000	0.000000	6.913080	-0.022871	NaN	0.000000	0.001538	0.001698	28.0779	0.095267	0.002044	46.6166	56.3025	17.0688	-0.006170	0.911242	-0.241927	-0.243240	-0.022871	46.6166	-0.241559	-607.983	3.761818E-5	NaN
251	1.000000	0.922599	7.36751e+06	-51189.1	955.819	-29753.4	0.000000	0.000000	6.923126	0.002158	NaN	0.000000	0.001503	0.001700	28.0782	0.071115	0.002079	34.2099	95.2343	-163.772	-0.039709	0.921231	-0.231882	-0.233251	0.002158	34.2099	-0.231930	-429.491	-5.023965E-6	NaN
251	1.000000	0.932570	7.36751e+06	-51189.1	955.819	-29753.4	0.000000	0.000000	6.933096	-0.019374	NaN	0.000000	0.001524	0.001748	28.0782	0.027253	0.001963	13.8853	76.2897	14.4947	0.037417	0.931222	-0.221911	-0.223259	-0.019374	13.8853	-0.220865	-286.741	6.756688E-5	NaN
251	1.000000	0.942599	7.36751e+06	-51189.1	955.819	-29753.4	0.000000	0.000000	6.943123	-0.068197	NaN	0.000000	0.001522	0.001717	28.0782	0.124472	0.002066	60.2527	57.2543	-164.699	-0.020553	0.941267	-0.211882	-0.213214	-0.068197	60.2527	-0.211034	-199.317	0.000342	NaN
251	1.000000	0.952628	7.36751e+06	-51189.1	955.818	-29753.4	0.000000	0.000000	6.953155	0.033299	NaN	0.000000	0.001526	0.001697	28.0782	0.056131	0.001905	29.4652	123.991	16.5257	0.044139	0.951248	-0.201854	-0.203234	0.033299	29.4652	-0.202702	-145.883	-0.000228	NaN
251	1.000000	0.962572	7.36751e+06	-51189.1	955.819	-29753.4	0.000000	0.000000	6.963096	-0.056609	NaN	0.000000	0.001499	0.001675	28.0784	0.063939	0.001982	32.2647	178.597	-166.333	-0.019168	0.961274	-0.191910	-0.193207	-0.056609	32.2647	-0.190594	-92.0331	0.000615	NaN
251	1.000000	0.972613	7.36751e+06	-51189.1	955.819	-29753.4	0.000000	0.000000	6.973137	-0.050390	NaN	0.000000	0.001604	0.001676	28.0782	0.129146	0.001952	66.1473	-19.4388	9.916689	-0.058185	0.971276	-0.181869	-0.183206	-0.050390	66.1473	-0.181298	-64.1971	0.000785	NaN
251	1.000000	0.982620	7.36751e+06	-51189.1	955.818	-29753.4	0.000000	0.000000	6.983145	-0.023780	NaN	0.000000	0.001567	0.001679	28.078	0.082172	0.002047	40.1365	162.594	-166.125	-0.078643	0.981307	-0.171862	-0.173174	-0.023780	40.1365	-0.171417	-43.4699	0.000547	NaN
251	1.000000	0.992637	7.36751e+06	-51189.1	955.818	-29753.4	0.000000	0.000000	6.993163	-0.011603	NaN	0.000000	0.001591	0.001685	28.0783	0.091989	0.001992	46.1885	78.9381	11.5645	0.025422	0.991237	-0.161844	-0.163244	-0.011603	46.1885	-0.161656	-29.3329	0.000396	NaN
251	1.000000	1.002609	7.36751e+06	-51189.1	955.819	-29753.4	0.000000	0.000000	7.003132	-0.073641	NaN	0.000000	0.001534	0.001706	28.0781	0.049799	0.001886	26.4063	87.3398	-166.546	0.020111	1.001327	-0.151873	-0.153155	-0.073641	26.4063	-0.149781	-17.948	0.004103	NaN
251	1.000000	1.012653	7.36751e+06	-51189.1	955.818	-29753.4	0.000000	0.000000	7.013180	0.001698	NaN	0.000000	0.001585	0.001674	28.0795	0.126414	0.002078	60.8221	146.756	14.0428	-0.020421	1.011225	-0.141828	-0.143256	0.001698	60.8221	-0.141849	-12.8115	-0.000133	NaN
251	1.000000	1.022590	7.36751e+06	-51189.1	955.818	-29753.4	0.000000	0.000000	7.023115	-0.033917	NaN	0.000000	0.001596	0.001649	28.0794	0.076433	0.002022	37.7976	-135.664	-164.143	-0.080045	1.021365	-0.131891	-0.133117	-0.033917	37.7976	-0.131218	-8.046872	0.004215	NaN
251	1.000000	1.032618	7.36751e+06	-51189.1	955.819	-29753.4	0.000000	0.000000	7.033143	-0.037535	NaN	0.000000	0.001585	0.001652	28.0797	0.110084	0.001926	57.1666	-113.574	14.2153	-0.086894	1.031347	-0.121863	-0.123134	-0.037535	57.1666	-0.121371	-5.148438	0.007291	NaN
251	1.000000	1.042626	7.36751e+06	-51189.1	955.819	-29753.4	0.000000	0.000000	7.043153	0.023456	NaN	0.000000	0.001571	0.001666	28.0793	0.030159	0.002071	14.5662	132.098	-163.011	-0.013020	1.041349	-0.111856	-0.113133	0.023456	14.5662	-0.113064	-3.483517	-0.006734	NaN
251	1.000000	1.052618	7.36751e+06	-51189.1	955.82	-29753.4	0.000000	0.000000	7.053143	-0.046504	NaN	0.000000	0.001588	0.001677	28.0794	0.145054	0.002020	71.7942	-162.042	14.469	-0.062612	1.051310	-0.101863	-0.103172	-0.046504	71.7942	-0.101377	-1.959727	0.023730	NaN
251	1.000000	1.062663	7.36751e+06	-51189.1	955.82	-29753.4	0.000000	0.000000	7.063189	-0.016445	NaN	0.000000	0.001596	0.001648	28.0793	0.099441	0.002094	47.494	146.13	-163.696	-0.037696	1.061320	-0.091818	-0.093162	-0.016445	47.494	-0.091559	-1.175487	0.013990	NaN
251	1.000000	1.072611	7.36751e+06	-51189.1	955.819	-29753.4	0.000000	0.000000	7.073138	0.008211	NaN	0.000000	0.001612	0.001657	28.0794	0.115789	0.002076	55.7785	-47.6882	15.9417	-0.008952	1.071258	-0.081870	-0.083223	0.008211	55.7785	-0.081981	-0.693258	-0.011844	NaN
251	1.000000	1.082673	7.36751e+06	-51189.1	955.819	-29753.4	0.000000	0.000000	7.083199	-0.001504	NaN	0.000000	0.001565	0.001646	28.0792	0.107703	0.001966	54.7941	115.784	-167.425	0.034127	1.081335	-0.071809	-0.073146	-0.001504	54.7941	-0.071788	-0.380628	0.003952	NaN
251	1.000000	1.092642	7.36751e+06	-51189.1	955.819	-29753.4	0.000000	0.000000	7.093165	-0.071577	NaN	0.000000	0.001570	0.001659	28.0793	0.046321	0.002037	22.7384	-114.704	16.0479	-0.060949	1.091327	-0.061840	-0.063155	-0.071577	22.7384	-0.059479	-0.173989	0.411389	NaN
251	1.000000	1.102664	7.36751e+06	-51189.1	955.819	-29753.4	0.000000	0.000000	7.103189	-0.025283	NaN	0.000000	0.001584	0.001667	28.0792	0.068793	0.001859	37.0054	83.9767	-166.102	-0.007069	1.101365	-0.051818	-0.053116	-0.025283	37.0054	-0.051305	-0.099911	0.253054	NaN
251	1.000000	1.112662	7.36751e+06	-51189.1	955.819	-29753.4	0.000000	0.000000	7.113187	-0.041815	NaN	0.000000	0.001594	0.001669	28.0796	0.065283	0.002090	31.2433	81.1299	14.6858	-0.068297	1.111320	-0.041820	-0.043162	-0.041815	31.2433	-0.040816	-0.047882	0.873307	NaN
251	1.000000	1.122655	7.36751e+06	-51189.1	955.819	-29753.4	0.000000	0.000000	7.123178	-0.083598	NaN	0.000000	0.001587	0.001677	28.0791	0.141830	0.002036	69.6717	-11.3803	-164.974	-0.056485	1.121326	-0.031827	-0.033155	-0.083598	69.6717	-0.030927	-0.024431	3.421755	NaN
251	1.000000	1.132648	7.36751e+06	-51189.1	955.819	-29753.4	0.000000	0.000000	7.133175	0.018245	NaN	0.000000	0.001585	0.001692	28.0794	0.091216	0.001861	49.0131	-75.407	12.1544	-0.032189	1.131328	-0.021834	-0.023154	0.018245	49.0131	-0.022113	-0.014215	-1.283496	NaN
251	1.000000	1.142691	7.36751e+06	-51189.1	955.82	-29753.4	0.000000	0.000000	7.143216	-0.046651	NaN	0.000000	0.001627	0.001729	28.0791	0.089358	0.001978	45.1843	144.672	-164.181	-0.047573	1.141348	-0.011790	-0.013134	-0.046651	45.1843	-0.011016	-0.006967	6.695721	NaN
251	1.000000	1.152683	7.36751e+06	-51189.1	955.818	-29753.4	0.000000	0.000000	7.153204	-0.142792	NaN	0.000000	0.001609	0.001727	28.078	0.053952	0.001977	27.2879	158.008	17.6267	-0.061254	1.151264	-0.001798	-0.003218	-0.142792	27.2879	0.002126	0.001657	-86.1698	612.447
251	1.000000	1.162631	7.36751e+06	-51189.1	955.819	-29753.4	0.000000	0.000000	7.163442	6.922377	NaN	0.000000	0.001600	0.001695	28.0778	7.306524	0.001797	4066.87	15.369	-174.863	5.385511	1.161348	0.008149	0.006866	6.922377	4066.87	0.006873	0.005908	1171.67	48340.2
251	2.000000	1.166776	7.36751e+06	-51189.1	955.819	-29753.4	0.000000	0.000000	7.167833	12.8889	NaN	0.000000	0.001555	0.001720	28.0781	11.6237	0.001618	7183.08	7.193062	6.615324	12.2566	1.166331	0.012294	0.011849	12.8889	7183.08	0.010949	0.010255	1256.84	64806.1
251	2.000000	1.169170	7.36751e+06	-51189.1	955.818	-29753.4	0.000000	0.000000	7.170345	15.7651	NaN	0.000000	0.001545	0.001651	28.0779	14.1199	0.001691	8349.88	7.929988	-175.016	14.3392	1.168859	0.014688	0.014378	15.7651	8349.88	0.013272	0.013050	1208.07	66780.7
251	2.000000	1.171664	7.36751e+06	-51189.1	955.819	-29753.4	0.000000	0.000000	7.173081	21.6365	NaN	0.000000	0.001557	0.001682	28.078	17.1613	0.001836	9349.56	7.286168	3.310664	20.4156	1.171269	0.017183	0.016788	21.6365	9349.56	0.015447	0.015886	1361.95	67772.2
251	2.000000	1.174225	7.36751e+06	-51189.1	955.819	-29753.4	0.000000	0.000000	7.175764	24.6258	NaN	0.000000	0.001576	0.001684	28.0776	20.1857	0.001788	11291.2	8.441431	-179.745	26.0353	1.173862	0.019743	0.019380	24.6258	11291.2	0.018107	0.019655	1252.9	73582.4
251	2.000000	1.176656	7.36751e+06	-51189.1	955.82	-29753.4	0.000000	0.000000	7.178460	31.0656	NaN	0.000000	0.001559	0.001695	28.0778	21.8366	0.001757	12427.2	5.302325	4.637655	30.9931	1.176323	0.022175	0.021841	31.0656	12427.2	0.020300	0.023016	1349.76	74840.2
251	2.000000	1.179134	7.36751e+06	-51189.1	955.82	-29753.4	0.000000	0.000000	7.181224	38.0284	NaN	0.000000	0.001560	0.001706	28.0777	24.3194	0.001780	13665.7	4.508522	-177.376	38.2101	1.178831	0.024652	0.024349	38.0284	13665.7	0.022565	0.026734	1422.46	76360.8
251	2.000000	1.181617	7.36751e+06	-51189.1	955.819	-29753.4	0.000000	0.000000	7.183956	44.0849	NaN	0.000000	0.001580	0.001682	28.0779	27.3221	0.001714	15936.6	2.013715	3.996424	42.7204	1.181298	0.027135	0.026817	44.0849	15936.6	0.025060	0.031126	1416.35	82529.5
251	2.000000	1.184115	7.36751e+06	-51189.1	955.82	-29753.4	0.000000	0.000000	7.186677	49.5008	NaN	0.000000	0.001577	0.001671	28.0776	30.4858	0.001867	16332.5	4.783251	-178.629	48.8993	1.183847	0.029633	0.029365	49.5008	16332.5	0.027360	0.035450	1396.37	79254
251	2.000000	1.186616	7.36751e+06	-51189.1	955.819	-29753.4	0.000000	0.000000	7.189653	61.0269	NaN	0.000000	0.001542	0.001718	28.0778	32.6192	0.001747	18671.2	4.655846	-1.077300	58.2294	1.186197	0.032135	0.031716	61.0269	18671.2	0.029683	0.040090	1522.24	85197.6
251	2.000000	1.189134	7.36751e+06	-51189.1	955.819	-29753.4	0.000000	0.000000	7.192357	65.5652	NaN	0.000000	0.001591	0.001723	28.0779	35.1713	0.001697	20725.5	7.996147	175.01	65.6058	1.188863	0.034653	0.034381	65.5652	20725.5	0.032280	0.045602	1437.76	88671.6
251	2.000000	1.191605	7.36751e+06	-51189.1	955.819	-29753.4	0.000000	0.000000	7.195249	75.8019	NaN	0.000000	0.001675	0.001714	28.0778	37.5444	0.001827	20551.6	6.194457	-2.753216	73.0877	1.191238	0.037123	0.036757	75.8019	20551.6	0.034357	0.050259	1508.21	83754.9
251	2.000000	1.194150	7.36751e+06	-51189.1	955.819	-29753.4	0.000000	0.000000	7.198144	84.3001	NaN	0.000000	0.001652	0.001737	28.0784	40.0209	0.001864	21476	3.404514	179.517	86.2759	1.193906	0.039669	0.039424	84.3001	21476	0.036725	0.055839	1509.71	83034.5
251	2.000000	1.196641	7.36751e+06	-51189.1	955.818	-29753.4	0.000000	0.000000	7.200953	92.0345	NaN	0.000000	0.001652	0.001708	28.0791	41.7196	0.001858	22458.3	4.413476	-2.026895	91.7192	1.196344	0.042160	0.041863	92.0345	22458.3	0.039086	0.061688	1491.93	82613.1
251	2.000000	1.199086	7.36751e+06	-51189.1	955.819	-29753.4	0.000000	0.000000	7.203880	103.759	NaN	0.000000	0.001624	0.001669	28.0792	43.5005	0.001817	23945.2	4.674999	177.178	103.214	1.198769	0.044605	0.044287	103.759	23945.2	0.041355	0.067577	1535.42	84157.2
251	2.000000	1.201565	7.36751e+06	-51189.1	955.818	-29753.4	0.000000	0.000000	7.206794	114.343	NaN	0.000000	0.001635	0.001690	28.0791	46.5121	0.001765	26345.5	4.074769	-3.368999	111.787	1.201300	0.047083	0.046819	114.343	26345.5	0.043828	0.074296	1539.02	88307.5
251	2.000000	1.204086	7.36751e+06	-51189.1	955.819	-29753.4	0.000000	0.000000	7.209775	125.528	NaN	0.000000	0.001587	0.001681	28.079	50.5529	0.001896	26664.8	2.856292	178.122	123.261	1.203801	0.049604	0.049319	125.528	26664.8	0.046074	0.080665	1556.17	85776.9
251	2.000000	1.206575	7.36751e+06	-51189.1	955.82	-29753.4	0.000000	0.000000	7.212743	137.199	NaN	0.000000	0.001591	0.001681	28.0792	51.4524	0.001735	29655.6	2.526606	-2.010170	134.033	1.206208	0.052093	0.051727	137.199	29655.6	0.048623	0.088206	1555.45	91228.9
251	2.000000	1.209131	7.36751e+06	-51189.1	955.82	-29753.4	0.000000	0.000000	7.215761	148.411	NaN	0.000000	0.001580	0.001723	28.0793	54.4816	0.001736	31390.8	5.674550	174.358	150.043	1.208747	0.054649	0.054266	148.411	31390.8	0.051103	0.095854	1548.31	92634.3
251	2.000000	1.211590	7.36751e+06	-51189.1	955.819	-29753.4	0.000000	0.000000	7.218686	159.75	NaN	0.000000	0.001565	0.001690	28.0792	56.8195	0.001768	32135.4	4.974236	-5.433726	157.552	1.211238	0.057108	0.056757	159.75	32135.4	0.053380	0.103146	1548.78	91417.7
251	2.000000	1.214075	7.36751e+06	-51189.1	955.819	-29753.4	0.000000	0.000000	7.221795	174.93	NaN	0.000000	0.001560	0.001664	28.0791	59.2341	0.001731	34218.9	1.982875	176.642	173.857	1.213765	0.059593	0.059284	174.93	34218.9	0.055759	0.111041	1575.37	93820.4
251	2.000000	1.216615	7.36751e+06	-51189.1	955.819	-29753.4	0.000000	0.000000	7.224800	186.232	NaN	0.000000	0.001546	0.001675	28.0792	60.7439	0.001800	33743.2	2.784282	-2.676908	185.949	1.216222	0.062133	0.061740	186.232	33743.2	0.057994	0.118713	1568.76	89477
251	2.000000	1.219037	7.36751e+06	-51189.1	955.818	-29753.4	0.000000	0.000000	7.227998	205.111	NaN	0.000000	0.001569	0.001676	28.0791	63.1295	0.001825	34589.1	4.175504	174.904	201.818	1.218739	0.064555	0.064257	205.111	34589.1	0.060108	0.126196	1625.35	88959
251	2.000000	1.221547	7.36751e+06	-51189.1	955.818	-29753.4	0.000000	0.000000	7.230973	216.407	NaN	0.000000	0.001519	0.001671	28.079	66.4028	0.001773	37449.3	2.265189	-4.201977	213.279	1.221198	0.067066	0.066717	216.407	37449.3	0.062732	0.135786	1593.74	92851.6
251	2.000000	1.224141	7.36751e+06	-51189.1	955.819	-29753.4	0.000000	0.000000	7.234246	232.902	NaN	0.000000	0.001577	0.001682	28.0792	70.0741	0.001891	37056.3	4.451370	174.16	234.612	1.223688	0.069660	0.069207	232.902	37056.3	0.064946	0.144138	1615.82	89175.5
251	2.000000	1.226564	7.36751e+06	-51189.1	955.817	-29753.4	0.000000	0.000000	7.237482	252.679	NaN	0.000000	0.001572	0.001663	28.0793	70.9555	0.001808	39249.1	7.510625	-9.580979	249.755	1.226243	0.072083	0.071761	252.679	39249.1	0.067254	0.153098	1650.44	91646.9
251	2.000000	1.228976	7.36751e+06	-51189.1	955.819	-29753.4	0.000000	0.000000	7.240298	262.507	NaN	0.000000	0.001570	0.001686	28.078	71.6388	0.001739	41185.6	1.124382	176.004	257.298	1.228808	0.074494	0.074326	262.507	41185.6	0.069714	0.162927	1611.2	93223
251	2.000000	1.231519	7.36751e+06	-51189.1	955.819	-29753.4	0.000000	0.000000	7.243857	287.204	NaN	0.000000	0.001552	0.001671	28.0779	75.765	0.001882	40247	5.753869	-7.129131	284.662	1.231190	0.077038	0.076708	287.204	40247	0.071686	0.171012	1679.43	88918.7
251	2.000000	1.233992	7.36751e+06	-51189.1	955.82	-29753.4	0.000000	0.000000	7.246932	301.861	NaN	0.000000	0.001586	0.001715	28.0782	78.3938	0.001833	42759.7	5.276414	172.035	298.782	1.233775	0.079511	0.079294	301.861	42759.7	0.074216	0.181660	1661.69	91659.9
251	2.000000	1.236507	7.36751e+06	-51189.1	955.819	-29753.4	0.000000	0.000000	7.250379	324.518	NaN	0.000000	0.001561	0.001708	28.0781	80.0691	0.001847	43352	5.474157	-7.733483	318.239	1.236071	0.082026	0.081589	324.518	43352	0.076411	0.191142	1697.78	90594.9
251	2.000000	1.239078	7.36751e+06	-51189.1	955.82	-29753.4	0.000000	0.000000	7.253514	338.24	NaN	0.000000	0.001591	0.001690	28.0784	82.4155	0.001771	46542.1	8.239020	168.711	338.836	1.238788	0.084597	0.084306	338.24	46542.1	0.079146	0.203270	1664	94315.4
251	2.000000	1.241542	7.36751e+06	-51189.1	955.819	-29753.4	0.000000	0.000000	7.256862	359.737	NaN	0.000000	0.001591	0.001675	28.078	84.5477	0.001790	47224.6	4.747945	-8.162890	356.429	1.241121	0.087060	0.086639	359.737	47224.6	0.081347	0.213284	1686.66	93424.8
251	2.000000	1.243981	7.36751e+06	-51189.1	955.818	-29753.4	0.000000	0.000000	7.260036	377.603	NaN	0.000000	0.001589	0.001690	28.0783	87.2289	0.001769	49321.1	3.264855	173.284	375.572	1.243748	0.089500	0.089266	377.603	49321.1	0.083758	0.224512	1681.89	95101.3
251	2.000000	1.246485	7.36751e+06	-51189.1	955.818	-29753.4	0.000000	0.000000	7.263366	397.677	NaN	0.000000	0.001582	0.001662	28.0778	88.9006	0.001813	49034.2	9.479790	-12.2542	390.105	1.245977	0.092003	0.091495	397.677	49034.2	0.085921	0.234814	1693.59	92450.8
251	2.000000	1.248985	7.36751e+06	-51189.1	955.819	-29753.4	0.000000	0.000000	7.266810	420.655	NaN	0.000000	0.001604	0.001666	28.0781	90.1319	0.001865	48317.6	3.744871	173.091	416.256	1.248657	0.094503	0.094175	420.655	48317.6	0.087974	0.244791	1718.43	89223.7
251	2.000000	1.251436	7.36751e+06	-51189.1	955.819	-29753.4	0.000000	0.000000	7.269941	437.174	NaN	0.000000	0.001573	0.001688	28.0778	92.5908	0.001772	52242	2.699469	-6.507129	429.264	1.251142	0.096955	0.096660	437.174	52242	0.090679	0.258233	1692.95	93926.2
251	2.000000	1.254065	7.36751e+06	-51189.1	955.821	-29753.4	0.000000	0.000000	7.273200	452.497	NaN	0.000000	0.001558	0.001692	28.0785	96.4443	0.001892	50972.8	4.569915	171.67	452.56	1.253814	0.099583	0.099332	452.497	50972.8	0.092925	0.269653	1678.07	89682.8
251	2.000000	1.256502	7.36751e+06	-51189.1	955.819	-29753.4	0.000000	0.000000	7.276748	479.518	NaN	0.000000	0.001561	0.001672	28.0778	98.1085	0.001750	56075.3	5.681552	-9.676165	474.81	1.256180	0.102020	0.101699	479.518	56075.3	0.095607	0.283586	1690.91	96206.1
251	2.000000	1.258969	7.36751e+06	-51189.1	955.818	-29753.4	0.000000	0.000000	7.280155	502.369	NaN	0.000000	0.001566	0.001694	28.0779	99.7505	0.001692	58963.6	6.026637	169.333	498.411	1.258691	0.104487	0.104210	502.369	58963.6	0.098097	0.296818	1692.52	98880.8
251	2.000000	1.261533	7.36751e+06	-51189.1	955.819	-29753.4	0.000000	0.000000	7.283370	518.2	NaN	0.000000	0.001551	0.001662	28.0776	103.444	0.001821	56810.6	5.252767	-9.904457	516.775	1.261238	0.107052	0.106757	518.2	56810.6	0.100210	0.308268	1681	93484.2
251	2.000000	1.263050	7.36751e+06	-51189.1	955.819	-29753.4	0.000000	0.000000	7.285702	538.027	NaN	0.000000	0.001595	0.001678	28.079	103.151	0.001737	59401.5	1.724550	174.009	536.651	1.262734	0.108568	0.108252	538.027	59401.5	0.101775	0.316877	1697.9	96410.7