File: remote_trans/data/nanoindenter/0828-1/data/Data_2025-08-06,11h17m57s/2025-07-22_16-23-58_1_236.txt
2025-07-22, 16:23:58, 1
Index	Phase	Displacement	Time	Pos X	Pos Y	Pos Z	Rot A	Rot B	Piezo Z	Force A	Force B	Gripper	Voltage A	Voltage B	Temperature	Amplitude force	Amplitude pos	Stiffness	Phase shift	Phase excitation	Force A raw	Displacement raw	HMax	HMax raw	Real Force	Real Stiffness	Contact Depth	Area	Hardness	Reduced Mod.
[#]	[#]	[um]	[s]	[um]	[um]	[um]	[m°]	[m°]	[um]	[uN]	[uN]	[V]	[V]	[V]	[°C]	[uN]	[um]	[N/m]	[°]	[°]	[uN]	[um]	[um]	[um]	[uN]	[N/m]	[um]	[um^2]	[MPa]	[MPa]
236	1.000000	0.002752	7.36735e+06	-50439.1	955.818	-29756.1	0.000000	0.000000	6.002858	0.068057	NaN	0.000000	0.001534	0.001644	28.0793	0.113167	0.000855	132.404	125.268	-160.42	0.029183	0.001482	-1.053748	-1.055019	0.068057	132.404	-1.054134	-1.213336E+14	-5.609062E-16	NaN
236	1.000000	0.010704	7.36735e+06	-50439.1	955.819	-29756.1	0.000000	0.000000	6.010805	-0.037680	NaN	0.000000	0.001555	0.001611	28.0792	0.084261	0.001065	79.1166	15.7219	-156.271	0.014066	0.009391	-1.045797	-1.047110	-0.037680	79.1166	-1.045440	-9.270612E+13	4.064495E-16	NaN
236	1.000000	0.018667	7.36735e+06	-50439.1	955.819	-29756.1	0.000000	0.000000	6.018771	0.040271	NaN	0.000000	0.001562	0.001639	28.0794	0.055105	0.001774	31.0547	-149.073	-167.251	0.095026	0.017395	-1.037833	-1.039105	0.040271	31.0547	-1.038806	-7.549399E+13	-5.334336E-16	NaN
236	1.000000	0.026692	7.36735e+06	-50439.1	955.819	-29756.1	0.000000	0.000000	6.026798	0.068804	NaN	0.000000	0.001536	0.001620	28.0791	0.137540	0.001901	72.3435	-90.3344	-163.705	0.095048	0.025280	-1.029808	-1.031220	0.068804	72.3435	-1.030522	-5.841135E+13	-1.177921E-15	NaN
236	1.000000	0.034678	7.36735e+06	-50439.1	955.818	-29756.1	0.000000	0.000000	6.034785	0.099385	NaN	0.000000	0.001571	0.001612	28.0794	0.035184	0.001872	18.7976	18.8519	-167.288	0.115813	0.033345	-1.021822	-1.023155	0.099385	18.7976	-1.025788	-5.044495E+13	-1.970172E-15	NaN
236	1.000000	0.042655	7.36735e+06	-50439.1	955.819	-29756.1	0.000000	0.000000	6.042759	0.020651	NaN	0.000000	0.001620	0.001650	28.0791	0.026891	0.001916	14.0377	147.767	-163.27	0.046903	0.041288	-1.013845	-1.015213	0.020651	14.0377	-1.014948	-3.605615E+13	-5.727348E-16	NaN
236	1.000000	0.050633	7.36735e+06	-50439.1	955.819	-29756.1	0.000000	0.000000	6.050739	0.081753	NaN	0.000000	0.001604	0.001668	28.0791	0.107447	0.002008	53.5046	131.73	-168.615	0.099991	0.049376	-1.005868	-1.007125	0.081753	53.5046	-1.007014	-2.819599E+13	-2.899444E-15	NaN
236	1.000000	0.058678	7.36735e+06	-50439.1	955.818	-29756.1	0.000000	0.000000	6.058781	0.015235	NaN	0.000000	0.001540	0.001651	28.0792	0.079576	0.002058	38.6744	-60.2711	-164.137	0.055224	0.057348	-0.997823	-0.999152	0.015235	38.6744	-0.998118	-2.140080E+13	-7.118916E-16	NaN
236	1.000000	0.066662	7.36735e+06	-50439.1	955.818	-29756.1	0.000000	0.000000	6.066767	0.048938	NaN	0.000000	0.001546	0.001649	28.0793	0.007652	0.001952	3.919839	133.296	-165.731	0.086986	0.065362	-0.989838	-0.991139	0.048938	3.919839	-0.999202	-2.213210E+13	-2.211191E-15	NaN
236	1.000000	0.074692	7.36735e+06	-50439.1	955.819	-29756.1	0.000000	0.000000	6.074796	0.044823	NaN	0.000000	0.001535	0.001631	28.0795	0.095786	0.001892	50.6195	-113.679	-165.454	0.103072	0.073390	-0.981809	-0.983111	0.044823	50.6195	-0.982473	-1.317420E+13	-3.402335E-15	NaN
236	1.000000	0.082667	7.36735e+06	-50439.1	955.817	-29756.1	0.000000	0.000000	6.082770	0.010441	NaN	0.000000	0.001561	0.001631	28.0793	0.031194	0.002132	14.6326	157.212	-165.579	0.058931	0.081332	-0.973833	-0.975169	0.010441	14.6326	-0.974368	-1.024549E+13	-1.019036E-15	NaN
236	1.000000	0.090657	7.36735e+06	-50439.1	955.817	-29756.1	0.000000	0.000000	6.090763	0.099206	NaN	0.000000	0.001535	0.001656	28.0794	0.174542	0.002035	85.7531	-70.1229	-165.999	0.030770	0.089379	-0.965844	-0.967122	0.099206	85.7531	-0.966712	-8.078731E+12	-1.227993E-14	NaN
236	1.000000	0.098676	7.36735e+06	-50439.1	955.818	-29756.1	0.000000	0.000000	6.098781	0.039597	NaN	0.000000	0.001584	0.001641	28.0793	0.053325	0.001973	27.0246	22.805	-165.359	0.025091	0.097345	-0.957824	-0.959155	0.039597	27.0246	-0.958923	-6.343788E+12	-6.241830E-15	NaN
236	1.000000	0.106684	7.36735e+06	-50439.1	955.818	-29756.1	0.000000	0.000000	6.106788	0.028680	NaN	0.000000	0.001590	0.001599	28.0792	0.067094	0.001881	35.6661	-144.796	-164.4	0.030286	0.105348	-0.949816	-0.951153	0.028680	35.6661	-0.950419	-4.871721E+12	-5.886943E-15	NaN
236	1.000000	0.114679	7.36735e+06	-50439.1	955.819	-29756.1	0.000000	0.000000	6.114785	0.076421	NaN	0.000000	0.001574	0.001607	28.0792	0.037508	0.002220	16.899	61.4984	-164.465	0.095337	0.113390	-0.941822	-0.943110	0.076421	16.899	-0.945214	-4.144473E+12	-1.843915E-14	NaN
236	1.000000	0.122688	7.36735e+06	-50439.1	955.819	-29756.1	0.000000	0.000000	6.122790	-0.009678	NaN	0.000000	0.001583	0.001616	28.0801	0.057860	0.001836	31.5142	-143.905	-165.096	0.034599	0.121370	-0.933813	-0.935131	-0.009678	31.5142	-0.933582	-2.887631E+12	3.351603E-15	NaN
236	1.000000	0.130709	7.36735e+06	-50439.1	955.819	-29756.1	0.000000	0.000000	6.130813	0.018239	NaN	0.000000	0.001603	0.001635	28.0803	0.039501	0.002035	19.4144	127.558	-164.659	0.085299	0.129341	-0.925791	-0.927160	0.018239	19.4144	-0.926496	-2.316873E+12	-7.872316E-15	NaN
236	1.000000	0.138679	7.36735e+06	-50439.1	955.818	-29756.1	0.000000	0.000000	6.138783	0.038632	NaN	0.000000	0.001560	0.001651	28.0803	0.092320	0.001870	49.3704	164.768	-166.345	-0.013652	0.137391	-0.917822	-0.919110	0.038632	49.3704	-0.918409	-1.801859E+12	-2.144026E-14	NaN
236	1.000000	0.146700	7.36735e+06	-50439.1	955.819	-29756.1	0.000000	0.000000	6.146804	0.028148	NaN	0.000000	0.001576	0.001634	28.0804	0.055704	0.002054	27.1187	-9.527544	-165.866	0.021365	0.145362	-0.909801	-0.911138	0.028148	27.1187	-0.910579	-1.412492E+12	-1.992814E-14	NaN
236	1.000000	0.154689	7.36735e+06	-50439.1	955.819	-29756.1	0.000000	0.000000	6.154791	-0.007833	NaN	0.000000	0.001556	0.001613	28.0804	0.062696	0.001990	31.5032	167.446	-166.294	0.054933	0.153394	-0.901812	-0.903106	-0.007833	31.5032	-0.901625	-1.069113E+12	7.326452E-15	NaN
236	1.000000	0.162703	7.36735e+06	-50439.1	955.819	-29756.1	0.000000	0.000000	6.162809	0.071164	NaN	0.000000	0.001582	0.001616	28.0802	0.054398	0.002077	26.1852	166.717	-165.715	0.036815	0.161401	-0.893797	-0.895100	0.071164	26.1852	-0.895835	-8.928703E+11	-7.970254E-14	NaN
236	1.000000	0.170693	7.36735e+06	-50439.1	955.817	-29756.1	0.000000	0.000000	6.170797	0.039793	NaN	0.000000	0.001567	0.001585	28.0805	0.085990	0.002100	40.9528	-51.2336	-164.173	0.065980	0.169398	-0.885808	-0.887103	0.039793	40.9528	-0.886537	-6.684914E+11	-5.952638E-14	NaN
236	1.000000	0.178683	7.36735e+06	-50439.1	955.818	-29756.1	0.000000	0.000000	6.178788	0.050344	NaN	0.000000	0.001573	0.001631	28.0804	0.065665	0.002023	32.4533	-33.0412	-166.888	0.070173	0.177453	-0.877818	-0.879048	0.050344	32.4533	-0.878981	-5.283604E+11	-9.528309E-14	NaN
236	1.000000	0.186681	7.36735e+06	-50439.1	955.819	-29756.1	0.000000	0.000000	6.186782	-0.040328	NaN	0.000000	0.001559	0.001637	28.0805	0.077993	0.002009	38.8171	-101.448	-167.567	-0.016171	0.185464	-0.869820	-0.871036	-0.040328	38.8171	-0.869041	-3.876707E+11	1.040268E-13	NaN
236	1.000000	0.194693	7.36735e+06	-50439.1	955.819	-29756.1	0.000000	0.000000	6.194798	0.073941	NaN	0.000000	0.001584	0.001622	28.0804	0.012761	0.001993	6.402940	77.8681	-165.613	0.059681	0.193385	-0.861808	-0.863115	0.073941	6.402940	-0.870469	-4.053098E+11	-1.824317E-13	NaN
236	1.000000	0.202714	7.36735e+06	-50439.1	955.819	-29756.1	0.000000	0.000000	6.202818	0.018900	NaN	0.000000	0.001551	0.001647	28.0803	0.062363	0.002083	29.9429	-169.544	-164.993	0.035495	0.201379	-0.853786	-0.855122	0.018900	29.9429	-0.854260	-2.445778E+11	-7.727779E-14	NaN
236	1.000000	0.210707	7.36735e+06	-50439.1	955.819	-29756.1	0.000000	0.000000	6.210811	0.026622	NaN	0.000000	0.001526	0.001636	28.0807	0.114351	0.001952	58.5702	56.2965	-164.948	0.000725	0.209393	-0.845793	-0.847107	0.026622	58.5702	-0.846134	-1.898371E+11	-1.402344E-13	NaN
236	1.000000	0.218719	7.36735e+06	-50439.1	955.818	-29756.1	0.000000	0.000000	6.218822	0.001040	NaN	0.000000	0.001538	0.001646	28.0805	0.049826	0.002058	24.212	-30.2349	-167.383	0.019820	0.217426	-0.837781	-0.839074	0.001040	24.212	-0.837814	-1.464441E+11	-7.101496E-15	NaN
236	1.000000	0.226708	7.36735e+06	-50439.1	955.818	-29756.1	0.000000	0.000000	6.226811	0.018329	NaN	0.000000	0.001520	0.001639	28.0808	0.053355	0.001950	27.3682	-4.824115	-164.549	0.025855	0.225386	-0.829793	-0.831115	0.018329	27.3682	-0.830295	-1.158202E+11	-1.582575E-13	NaN
236	1.000000	0.234728	7.36735e+06	-50439.1	955.818	-29756.1	0.000000	0.000000	6.234832	0.024305	NaN	0.000000	0.001497	0.001626	28.0804	0.025896	0.002030	12.7569	-179.015	-162.499	-0.019870	0.233415	-0.821772	-0.823085	0.024305	12.7569	-0.823201	-9.281515E+10	-2.618607E-13	NaN
236	1.000000	0.242749	7.36735e+06	-50439.1	955.819	-29756.1	0.000000	0.000000	6.242852	-0.000755	NaN	0.000000	0.001495	0.001639	28.0806	0.021043	0.002028	10.3737	47.1633	-168.8	-0.043550	0.241475	-0.813751	-0.815025	-0.000755	10.3737	-0.813697	-6.897970E+10	1.094891E-14	NaN
236	1.000000	0.250742	7.36736e+06	-50439.1	955.818	-29756.1	0.000000	0.000000	6.250848	0.065042	NaN	0.000000	0.001542	0.001619	28.0808	0.041655	0.002046	20.3596	-18.9436	-164.013	0.031027	0.249349	-0.805758	-0.807151	0.065042	20.3596	-0.808154	-5.801326E+10	-1.121154E-12	NaN
236	1.000000	0.258732	7.36736e+06	-50439.1	955.818	-29756.1	0.000000	0.000000	6.258840	0.111977	NaN	0.000000	0.001522	0.001626	28.0792	0.044951	0.001906	23.5817	151.052	-165.077	0.111058	0.257449	-0.797768	-0.799051	0.111977	23.5817	-0.801330	-4.687161E+10	-2.389012E-12	NaN
236	1.000000	0.266766	7.36736e+06	-50439.1	955.818	-29756.1	0.000000	0.000000	6.266871	0.058569	NaN	0.000000	0.001529	0.001626	28.0793	0.028646	0.001975	14.5045	-75.4495	-164.577	0.111848	0.265464	-0.789734	-0.791037	0.058569	14.5045	-0.792763	-3.585965E+10	-1.633282E-12	NaN
236	1.000000	0.274752	7.36736e+06	-50439.1	955.818	-29756.1	0.000000	0.000000	6.274859	0.114558	NaN	0.000000	0.001518	0.001649	28.0791	0.082267	0.002013	40.8635	-166.116	-165.599	0.090200	0.273466	-0.781749	-0.783034	0.114558	40.8635	-0.783851	-2.713677E+10	-4.221504E-12	NaN
236	1.000000	0.282739	7.36736e+06	-50439.1	955.818	-29756.1	0.000000	0.000000	6.282843	0.025362	NaN	0.000000	0.001570	0.001646	28.0793	0.149823	0.002029	73.8307	6.690690	-163.578	0.112860	0.281410	-0.773762	-0.775091	0.025362	73.8307	-0.774019	-1.995017E+10	-1.271289E-12	NaN
236	1.000000	0.290745	7.36736e+06	-50439.1	955.819	-29756.1	0.000000	0.000000	6.290850	0.041718	NaN	0.000000	0.001632	0.001653	28.0792	0.095293	0.002036	46.8029	-119.594	-167.03	-0.025175	0.289414	-0.765755	-0.767087	0.041718	46.8029	-0.766424	-1.572803E+10	-2.652489E-12	NaN
236	1.000000	0.298780	7.36736e+06	-50439.1	955.819	-29756.1	0.000000	0.000000	6.298884	0.038228	NaN	0.000000	0.001570	0.001596	28.0791	0.062186	0.001955	31.8126	-135.465	-166.365	0.057033	0.297461	-0.757720	-0.759039	0.038228	31.8126	-0.758622	-1.231830E+10	-3.103353E-12	NaN
236	1.000000	0.306769	7.36736e+06	-50439.1	955.82	-29756.1	0.000000	0.000000	6.306874	0.033443	NaN	0.000000	0.001523	0.001618	28.0795	0.074257	0.002072	35.8401	-140.161	-162.312	0.018744	0.305409	-0.749731	-0.751092	0.033443	35.8401	-0.750431	-9.529858E+9	-3.509311E-12	NaN
236	1.000000	0.314743	7.36736e+06	-50439.1	955.819	-29756.1	0.000000	0.000000	6.314847	0.020922	NaN	0.000000	0.001579	0.001601	28.0793	0.046577	0.002084	22.3547	-34.7007	-164.232	0.034477	0.313454	-0.741757	-0.743047	0.020922	22.3547	-0.742459	-7.422465E+9	-2.818765E-12	NaN
236	1.000000	0.322776	7.36736e+06	-50439.1	955.818	-29756.1	0.000000	0.000000	6.322881	0.047691	NaN	0.000000	0.001579	0.001628	28.0798	0.061790	0.002130	29.0134	73.5576	-166.009	0.109256	0.321457	-0.733725	-0.735044	0.047691	29.0134	-0.734957	-5.866290E+9	-8.129594E-12	NaN
236	1.000000	0.330783	7.36736e+06	-50439.1	955.819	-29756.1	0.000000	0.000000	6.330884	-0.023852	NaN	0.000000	0.001587	0.001651	28.0795	0.045422	0.001985	22.8772	99.0552	-168.291	0.027000	0.329445	-0.725718	-0.727056	-0.023852	22.8772	-0.724936	-4.283297E+9	5.568675E-12	NaN
236	1.000000	0.338739	7.36736e+06	-50439.1	955.819	-29756.1	0.000000	0.000000	6.338841	-0.016681	NaN	0.000000	0.001522	0.001633	28.0793	0.077636	0.002040	38.0602	-44.8161	-163.713	-0.040831	0.337441	-0.717761	-0.719059	-0.016681	38.0602	-0.717433	-3.384200E+9	4.928953E-12	NaN
236	1.000000	0.346765	7.36736e+06	-50439.1	955.819	-29756.1	0.000000	0.000000	6.346871	0.080359	NaN	0.000000	0.001557	0.001634	28.0794	0.067479	0.001979	34.103	-165.676	-165.898	0.091904	0.345466	-0.709736	-0.711035	0.080359	34.103	-0.711503	-2.809068E+9	-2.860702E-11	NaN
236	1.000000	0.354780	7.36736e+06	-50439.1	955.818	-29756.1	0.000000	0.000000	6.354884	0.031078	NaN	0.000000	0.001526	0.001622	28.0792	0.042862	0.002008	21.3465	107.331	-167.417	-0.024627	0.353452	-0.701720	-0.703048	0.031078	21.3465	-0.702812	-2.137618E+9	-1.453859E-11	NaN
236	1.000000	0.362765	7.36736e+06	-50439.1	955.818	-29756.1	0.000000	0.000000	6.362867	-0.006125	NaN	0.000000	0.001567	0.001640	28.0795	0.058370	0.001981	29.4715	156.807	-164.04	0.059865	0.361441	-0.693736	-0.695060	-0.006125	29.4715	-0.693580	-1.598949E+9	3.830581E-12	NaN
236	1.000000	0.370779	7.36736e+06	-50439.1	955.819	-29756.1	0.000000	0.000000	6.370884	0.062663	NaN	0.000000	0.001576	0.001642	28.0793	0.078578	0.002015	38.9927	-43.4024	-164.264	0.072334	0.369476	-0.685722	-0.687025	0.062663	38.9927	-0.686927	-1.296939E+9	-4.831628E-11	NaN
236	1.000000	0.378795	7.36736e+06	-50439.1	955.818	-29756.1	0.000000	0.000000	6.378901	0.072050	NaN	0.000000	0.001542	0.001661	28.0795	0.066770	0.001893	35.2708	29.8149	-162.555	-0.007120	0.377504	-0.677706	-0.678996	0.072050	35.2708	-0.679238	-1.018076E+9	-7.077051E-11	NaN
236	1.000000	0.386796	7.36736e+06	-50439.1	955.819	-29756.1	0.000000	0.000000	6.386900	0.016594	NaN	0.000000	0.001563	0.001659	28.0795	0.045940	0.001984	23.1517	-126.78	-167.013	0.073220	0.385435	-0.669704	-0.671066	0.016594	23.1517	-0.670242	-7.668362E+8	-2.163933E-11	NaN
236	1.000000	0.394824	7.36736e+06	-50439.1	955.819	-29756.1	0.000000	0.000000	6.394927	-0.000714	NaN	0.000000	0.001572	0.001648	28.0803	0.038940	0.001953	19.9375	-12.5671	-165.36	-0.038164	0.393478	-0.661676	-0.663022	-0.000714	19.9375	-0.661649	-5.848673E+8	1.220468E-12	NaN
236	1.000000	0.402795	7.36736e+06	-50439.1	955.82	-29756.1	0.000000	0.000000	6.402898	-0.002206	NaN	0.000000	0.001567	0.001635	28.0806	0.149771	0.002093	71.5547	45.7355	-164.474	0.055590	0.401509	-0.653705	-0.654992	-0.002206	71.5547	-0.653682	-4.548884E+8	4.849606E-12	NaN
236	1.000000	0.410789	7.36736e+06	-50439.1	955.819	-29756.1	0.000000	0.000000	6.410892	0.008122	NaN	0.000000	0.001600	0.001654	28.0803	0.100814	0.002082	48.4267	-11.9602	-162.529	0.008323	0.409448	-0.645712	-0.647053	0.008122	48.4267	-0.645837	-3.551099E+8	-2.287228E-11	NaN
236	1.000000	0.418786	7.36736e+06	-50439.1	955.818	-29756.1	0.000000	0.000000	6.418887	-0.030336	NaN	0.000000	0.001545	0.001651	28.0806	0.020542	0.001986	10.3452	-63.11	-165.093	0.042287	0.417516	-0.637715	-0.638984	-0.030336	10.3452	-0.635515	-2.562978E+8	1.183629E-10	NaN
236	1.000000	0.426782	7.36736e+06	-50439.1	955.819	-29756.1	0.000000	0.000000	6.426888	0.074627	NaN	0.000000	0.001570	0.001629	28.0804	0.111472	0.002014	55.3431	148.601	-163.136	0.053026	0.425490	-0.629718	-0.631010	0.074627	55.3431	-0.630730	-2.203150E+8	-3.387290E-10	NaN
236	1.000000	0.434826	7.36736e+06	-50439.1	955.819	-29756.1	0.000000	0.000000	6.434931	0.073753	NaN	0.000000	0.001591	0.001637	28.0803	0.075300	0.002121	35.5016	-137.677	-162.33	0.053971	0.433508	-0.621675	-0.622992	0.073753	35.5016	-0.623233	-1.738058E+8	-4.243388E-10	NaN
236	1.000000	0.442829	7.36736e+06	-50439.1	955.818	-29756.1	0.000000	0.000000	6.442935	0.082804	NaN	0.000000	0.001583	0.001619	28.0805	0.102972	0.001968	52.3351	-29.2839	-162.557	0.070742	0.441545	-0.613671	-0.614956	0.082804	52.3351	-0.614858	-1.333326E+8	-6.210327E-10	NaN
236	1.000000	0.450844	7.36736e+06	-50439.1	955.818	-29756.1	0.000000	0.000000	6.450948	0.022512	NaN	0.000000	0.001611	0.001596	28.0805	0.044189	0.001915	23.0735	121.773	-166.065	0.035264	0.449531	-0.605656	-0.606969	0.022512	23.0735	-0.606388	-1.019546E+8	-2.208002E-10	NaN
236	1.000000	0.458826	7.36736e+06	-50439.1	955.818	-29756.1	0.000000	0.000000	6.458929	-0.001295	NaN	0.000000	0.001590	0.001619	28.0803	0.103232	0.002044	50.5137	164.097	-165.395	0.014589	0.457509	-0.597675	-0.598991	-0.001295	50.5137	-0.597655	-7.729772E+7	1.675829E-11	NaN
236	1.000000	0.466806	7.36736e+06	-50439.1	955.819	-29756.1	0.000000	0.000000	6.466909	0.009582	NaN	0.000000	0.001590	0.001611	28.0803	0.066959	0.002042	32.7892	-157.313	-162.468	-0.036346	0.465483	-0.589695	-0.591018	0.009582	32.7892	-0.589914	-6.046182E+7	-1.584762E-10	NaN
236	1.000000	0.474811	7.36736e+06	-50439.1	955.817	-29756.1	0.000000	0.000000	6.474914	0.000894	NaN	0.000000	0.001535	0.001637	28.0801	0.054125	0.001928	28.0674	-98.1412	-164.994	0.022176	0.473507	-0.581689	-0.582993	0.000894	28.0674	-0.581713	-4.659810E+7	-1.918865E-11	NaN
236	1.000000	0.482839	7.36736e+06	-50439.1	955.819	-29756.1	0.000000	0.000000	6.482942	0.002219	NaN	0.000000	0.001585	0.001636	28.0802	0.042711	0.001905	22.4247	48.8381	-167.761	0.023142	0.481539	-0.573662	-0.574961	0.002219	22.4247	-0.573736	-3.616088E+7	-6.136626E-11	NaN
236	1.000000	0.490851	7.36736e+06	-50439.1	955.819	-29756.1	0.000000	0.000000	6.490955	0.038712	NaN	0.000000	0.001584	0.001624	28.0802	0.030154	0.002130	14.1537	48.1428	-166.912	-0.014039	0.489533	-0.565650	-0.566968	0.038712	14.1537	-0.567701	-2.984444E+7	-1.297112E-9	NaN
236	1.000000	0.498821	7.36736e+06	-50439.1	955.819	-29756.1	0.000000	0.000000	6.498928	0.086289	NaN	0.000000	0.001579	0.001645	28.0803	0.144582	0.002025	71.4095	-129.971	-164.571	0.062703	0.497506	-0.557679	-0.558994	0.086289	71.4095	-0.558585	-2.232581E+7	-3.865000E-9	NaN
236	1.000000	0.506877	7.36736e+06	-50439.1	955.818	-29756.1	0.000000	0.000000	6.506982	0.064547	NaN	0.000000	0.001592	0.001625	28.0803	0.046488	0.001986	23.405	39.7161	-162.113	0.002818	0.505565	-0.549624	-0.550935	0.064547	23.405	-0.551692	-1.792231E+7	-3.601490E-9	NaN
236	1.000000	0.514823	7.36736e+06	-50439.1	955.818	-29756.1	0.000000	0.000000	6.514928	0.051549	NaN	0.000000	0.001588	0.001610	28.0802	0.055314	0.002047	27.0189	-172.742	-161.415	0.040964	0.513568	-0.541678	-0.542932	0.051549	27.0189	-0.543109	-1.362898E+7	-3.782293E-9	NaN
236	1.000000	0.522858	7.36736e+06	-50439.1	955.819	-29756.1	0.000000	0.000000	6.522963	0.047385	NaN	0.000000	0.001573	0.001637	28.0801	0.073057	0.002071	35.2758	154.01	-162.495	0.049287	0.521586	-0.533643	-0.534915	0.047385	35.2758	-0.534650	-1.040242E+7	-4.555219E-9	NaN
236	1.000000	0.530826	7.36736e+06	-50439.1	955.819	-29756.1	0.000000	0.000000	6.530932	0.076867	NaN	0.000000	0.001565	0.001638	28.0795	0.080876	0.001755	46.0948	-142.15	-167.201	0.052467	0.529550	-0.525675	-0.526951	0.076867	46.0948	-0.526925	-8.1258e+06	-9.459665E-9	NaN
236	1.000000	0.538834	7.36736e+06	-50439.1	955.819	-29756.1	0.000000	0.000000	6.538939	0.045056	NaN	0.000000	0.001585	0.001654	28.0791	0.062647	0.002101	29.8168	17.003	-165.333	0.030036	0.537503	-0.517666	-0.518997	0.045056	29.8168	-0.518799	-6.26467e+06	-7.192145E-9	NaN
236	1.000000	0.546846	7.36736e+06	-50439.1	955.819	-29756.1	0.000000	0.000000	6.546950	0.026289	NaN	0.000000	0.001604	0.001648	28.079	0.014287	0.001999	7.147851	47.9119	-164.504	-0.005750	0.545544	-0.509655	-0.510956	0.026289	7.147851	-0.512413	-5.10528e+06	-5.149428E-9	NaN
236	1.000000	0.554872	7.36736e+06	-50439.1	955.818	-29756.1	0.000000	0.000000	6.554974	-0.008833	NaN	0.000000	0.001575	0.001616	28.0791	0.105676	0.001963	53.8231	-162.169	-167.546	-0.027441	0.553595	-0.501629	-0.502906	-0.008833	53.8231	-0.501506	-3.59765e+06	2.455178E-9	NaN
236	1.000000	0.562851	7.36736e+06	-50439.1	955.819	-29756.1	0.000000	0.000000	6.562954	0.002770	NaN	0.000000	0.001552	0.001605	28.0789	0.035024	0.002163	16.1918	-52.1698	-162.791	0.107451	0.561561	-0.493650	-0.494940	0.002770	16.1918	-0.493778	-2.80655e+06	-9.868159E-10	NaN
236	1.000000	0.570844	7.36736e+06	-50439.1	955.818	-29756.1	0.000000	0.000000	6.570946	-0.001217	NaN	0.000000	0.001548	0.001619	28.0793	0.075600	0.002113	35.7745	-163.941	-164.651	-0.017517	0.569566	-0.485657	-0.486934	-0.001217	35.7745	-0.485631	-2.15933e+06	5.638273E-10	NaN
236	1.000000	0.578883	7.36736e+06	-50439.1	955.819	-29756.1	0.000000	0.000000	6.578990	0.100915	NaN	0.000000	0.001542	0.001601	28.079	0.038640	0.001965	19.6655	90.7759	-160.502	0.091848	0.577553	-0.477618	-0.478948	0.100915	19.6655	-0.481467	-1.88823e+06	-5.344452E-8	NaN
236	1.000000	0.586873	7.36736e+06	-50439.1	955.819	-29756.1	0.000000	0.000000	6.586976	0.009584	NaN	0.000000	0.001543	0.001594	28.0792	0.061266	0.001908	32.1093	-30.7091	-165.679	0.094654	0.585588	-0.469627	-0.470913	0.009584	32.1093	-0.469851	-1.29814e+06	-7.382813E-9	NaN
236	1.000000	0.594885	7.36736e+06	-50439.1	955.818	-29756.1	0.000000	0.000000	6.594993	0.130317	NaN	0.000000	0.001563	0.001593	28.0794	0.043156	0.001978	21.8145	49.5558	-166.694	0.036010	0.593574	-0.461616	-0.462927	0.130317	21.8145	-0.466096	-1.14984e+06	-1.133355E-7	NaN
236	1.000000	0.602864	7.36736e+06	-50439.1	955.818	-29756.1	0.000000	0.000000	6.602966	-0.005864	NaN	0.000000	0.001586	0.001619	28.0791	0.039729	0.002051	19.3716	-62.5847	-163.655	-0.030947	0.601587	-0.453637	-0.454913	-0.005864	19.3716	-0.453410	-762682	7.688076E-9	NaN
236	1.000000	0.610879	7.36736e+06	-50439.1	955.818	-29756.1	0.000000	0.000000	6.610981	-0.025077	NaN	0.000000	0.001536	0.001626	28.0796	0.118329	0.001947	60.7764	-118.852	-165.11	0.007365	0.609613	-0.445621	-0.446888	-0.025077	60.7764	-0.445312	-586531	4.275430E-8	NaN
236	1.000000	0.618878	7.36736e+06	-50439.1	955.819	-29756.1	0.000000	0.000000	6.618984	0.071542	NaN	0.000000	0.001569	0.001637	28.0792	0.060319	0.002000	30.1611	-0.045702	-165.261	0.057104	0.617573	-0.437622	-0.438927	0.071542	30.1611	-0.439401	-484076	-1.477917E-7	NaN
236	1.000000	0.626887	7.36736e+06	-50439.1	955.819	-29756.1	0.000000	0.000000	6.626990	0.011913	NaN	0.000000	0.001601	0.001615	28.0793	0.082102	0.002018	40.6865	150.044	-164.964	0.028681	0.625586	-0.429614	-0.430915	0.011913	40.6865	-0.429833	-354569	-3.359945E-8	NaN
236	1.000000	0.634886	7.36736e+06	-50439.1	955.819	-29756.1	0.000000	0.000000	6.634989	-0.002605	NaN	0.000000	0.001545	0.001610	28.0793	0.067694	0.001948	34.7592	99.2152	-163.408	0.005257	0.633621	-0.421614	-0.422879	-0.002605	34.7592	-0.421558	-270714	9.623965E-9	NaN
236	1.000000	0.642910	7.36736e+06	-50439.1	955.818	-29756.1	0.000000	0.000000	6.643011	-0.034886	NaN	0.000000	0.001567	0.001621	28.0791	0.090367	0.002051	44.0658	-70.4257	-166.139	0.012724	0.641640	-0.413591	-0.414861	-0.034886	44.0658	-0.412997	-204647	1.704690E-7	NaN
236	1.000000	0.650909	7.36736e+06	-50439.1	955.819	-29756.1	0.000000	0.000000	6.651013	0.014077	NaN	0.000000	0.001545	0.001611	28.0795	0.079808	0.002065	38.6424	119.783	-165.289	-0.042937	0.649560	-0.405591	-0.406941	0.014077	38.6424	-0.405864	-162014	-8.688507E-8	NaN
236	1.000000	0.658882	7.36736e+06	-50439.1	955.819	-29756.1	0.000000	0.000000	6.658985	0.000618	NaN	0.000000	0.001580	0.001642	28.0791	0.067249	0.002002	33.5828	133.9	-165.426	-0.025424	0.657590	-0.397618	-0.398910	0.000618	33.5828	-0.397632	-123655	-4.999570E-9	NaN
236	1.000000	0.666913	7.36736e+06	-50439.1	955.819	-29756.1	0.000000	0.000000	6.667018	0.045487	NaN	0.000000	0.001586	0.001649	28.0797	0.017634	0.001905	9.255409	-98.9407	-163.716	-0.005439	0.665567	-0.389587	-0.390934	0.045487	9.255409	-0.393273	-107143	-4.245435E-7	NaN
236	1.000000	0.674941	7.36736e+06	-50439.1	955.819	-29756.1	0.000000	0.000000	6.675047	0.054374	NaN	0.000000	0.001573	0.001665	28.0806	0.043855	0.001924	22.799	-107.102	-163.231	0.082883	0.673585	-0.381559	-0.382915	0.054374	22.799	-0.383348	-77251.4	-7.038577E-7	NaN
236	1.000000	0.682917	7.36736e+06	-50439.1	955.818	-29756.1	0.000000	0.000000	6.683022	0.053677	NaN	0.000000	0.001549	0.001698	28.0806	0.088395	0.001984	44.5483	-131.401	-161.15	0.001780	0.681581	-0.373584	-0.374920	0.053677	44.5483	-0.374487	-57637	-9.312955E-7	NaN
236	1.000000	0.690946	7.36736e+06	-50439.1	955.819	-29756.1	0.000000	0.000000	6.691052	0.070388	NaN	0.000000	0.001563	0.001684	28.0807	0.113039	0.002106	53.681	54.4741	-162.798	0.087003	0.689590	-0.365554	-0.366910	0.070388	53.681	-0.366538	-44282.7	-1.589506E-6	NaN
236	1.000000	0.698942	7.36736e+06	-50439.1	955.819	-29756.1	0.000000	0.000000	6.699045	0.001689	NaN	0.000000	0.001567	0.001669	28.0804	0.088622	0.001938	45.7219	-2.502128	-163.97	-0.020658	0.697606	-0.357559	-0.358894	0.001689	45.7219	-0.357586	-32880.5	-5.136051E-8	NaN
236	1.000000	0.706914	7.36736e+06	-50439.1	955.819	-29756.1	0.000000	0.000000	6.707017	0.001584	NaN	0.000000	0.001579	0.001670	28.0804	0.078965	0.001974	40.0014	137.969	-163.394	0.015646	0.705649	-0.349587	-0.350852	0.001584	40.0014	-0.349617	-25202.1	-6.285248E-8	NaN
236	1.000000	0.714927	7.36736e+06	-50439.1	955.817	-29756.1	0.000000	0.000000	6.715030	-0.013392	NaN	0.000000	0.001559	0.001664	28.0804	0.033775	0.001929	17.5109	-39.5528	-166.128	0.024489	0.713642	-0.341573	-0.342858	-0.013392	17.5109	-0.340999	-18885.1	7.091316E-7	NaN
236	1.000000	0.722924	7.36736e+06	-50439.1	955.818	-29756.1	0.000000	0.000000	6.723028	0.029741	NaN	0.000000	0.001544	0.001667	28.0803	0.093294	0.001971	47.3357	70.8176	-165.559	0.013750	0.721615	-0.333576	-0.334885	0.029741	47.3357	-0.334048	-14951	-1.989255E-6	NaN
236	1.000000	0.730916	7.36736e+06	-50439.1	955.818	-29756.1	0.000000	0.000000	6.731020	0.027924	NaN	0.000000	0.001560	0.001645	28.0804	0.089643	0.001923	46.6086	56.7093	-164.024	0.005002	0.729649	-0.325584	-0.326852	0.027924	46.6086	-0.326034	-11410.5	-2.447243E-6	NaN
236	1.000000	0.738962	7.36736e+06	-50439.1	955.818	-29756.1	0.000000	0.000000	6.739065	0.002620	NaN	0.000000	0.001572	0.001654	28.0802	0.043402	0.001985	21.8668	-49.2709	-164.81	0.039048	0.737642	-0.317539	-0.318859	0.002620	21.8668	-0.317629	-8584.47	-3.052294E-7	NaN
236	1.000000	0.746942	7.36736e+06	-50439.1	955.818	-29756.1	0.000000	0.000000	6.747047	0.036598	NaN	0.000000	0.001549	0.001668	28.0803	0.100941	0.001930	52.3029	-142.273	-162.819	0.013622	0.745641	-0.309558	-0.310860	0.036598	52.3029	-0.310083	-6641.75	-5.510292E-6	NaN
236	1.000000	0.754930	7.36736e+06	-50439.1	955.818	-29756.1	0.000000	0.000000	6.755035	0.037338	NaN	0.000000	0.001545	0.001647	28.0803	0.061365	0.001905	32.2188	-150.959	-165.065	-0.054486	0.753634	-0.301570	-0.302866	0.037338	32.2188	-0.302439	-5115.87	-7.298456E-6	NaN
236	1.000000	0.762939	7.36736e+06	-50439.1	955.818	-29756.1	0.000000	0.000000	6.763040	-0.032940	NaN	0.000000	0.001581	0.001651	28.0802	0.092017	0.002054	44.7947	-115.131	-165.848	0.033252	0.761644	-0.293561	-0.294856	-0.032940	44.7947	-0.293010	-3701.28	8.899593E-6	NaN
236	1.000000	0.770959	7.36736e+06	-50439.1	955.819	-29756.1	0.000000	0.000000	6.771061	-0.014162	NaN	0.000000	0.001560	0.001702	28.0804	0.042183	0.002069	20.3927	-114.507	-164.055	0.022590	0.769681	-0.285542	-0.286820	-0.014162	20.3927	-0.285021	-2809.17	5.041252E-6	NaN
236	1.000000	0.778947	7.36736e+06	-50439.1	955.818	-29756.1	0.000000	0.000000	6.779053	0.079791	NaN	0.000000	0.001590	0.001664	28.0801	0.029054	0.001880	15.4574	-69.1023	-166.258	0.114346	0.777624	-0.277554	-0.278876	0.079791	15.4574	-0.281425	-2480.04	-3.217328E-5	NaN
236	1.000000	0.786955	7.36736e+06	-50439.1	955.818	-29756.1	0.000000	0.000000	6.787060	0.064058	NaN	0.000000	0.001588	0.001671	28.0804	0.012050	0.001993	6.046500	17.7919	-165.485	0.037947	0.785668	-0.269546	-0.270833	0.064058	6.046500	-0.277492	-2163.18	-2.961306E-5	NaN
236	1.000000	0.794950	7.36736e+06	-50439.1	955.818	-29756.1	0.000000	0.000000	6.795054	0.027221	NaN	0.000000	0.001599	0.001698	28.0801	0.051551	0.002054	25.0973	-106.081	-164.31	0.102319	0.793696	-0.261550	-0.262805	0.027221	25.0973	-0.262364	-1273.83	-2.136936E-5	NaN
236	1.000000	0.802950	7.36736e+06	-50439.1	955.819	-29756.1	0.000000	0.000000	6.803056	0.073150	NaN	0.000000	0.001580	0.001685	28.0801	0.108315	0.002061	52.564	81.7385	-163.938	0.015177	0.801601	-0.253550	-0.254899	0.073150	52.564	-0.254594	-967.971	-7.557021E-5	NaN
236	1.000000	0.810962	7.36736e+06	-50439.1	955.819	-29756.1	0.000000	0.000000	6.811066	0.031127	NaN	0.000000	0.001594	0.001719	28.079	0.068757	0.002007	34.251	9.546117	-163.518	0.023486	0.809638	-0.245539	-0.246863	0.031127	34.251	-0.246221	-718.47	-4.332437E-5	NaN
236	1.000000	0.818959	7.36736e+06	-50439.1	955.818	-29756.1	0.000000	0.000000	6.819061	-0.020273	NaN	0.000000	0.001547	0.001674	28.0793	0.044713	0.001865	23.9722	5.806982	-165.147	0.022031	0.817662	-0.237541	-0.238838	-0.020273	23.9722	-0.236907	-514.24	3.942262E-5	NaN
236	1.000000	0.826975	7.36736e+06	-50439.1	955.819	-29756.1	0.000000	0.000000	6.827080	0.050629	NaN	0.000000	0.001570	0.001694	28.0789	0.130822	0.002110	61.998	165.568	-166.534	0.045921	0.825686	-0.229526	-0.230815	0.050629	61.998	-0.230138	-402.439	-0.000126	NaN
236	1.000000	0.834977	7.36736e+06	-50439.1	955.817	-29756.1	0.000000	0.000000	6.835080	-0.009266	NaN	0.000000	0.001537	0.001684	28.0786	0.085942	0.001964	43.7487	62.1731	-168.945	-0.071074	0.833694	-0.221523	-0.222807	-0.009266	43.7487	-0.221364	-292.052	3.172623E-5	NaN
236	1.000000	0.842994	7.36736e+06	-50439.1	955.819	-29756.1	0.000000	0.000000	6.843096	-0.004069	NaN	0.000000	0.001542	0.001666	28.0789	0.135071	0.002081	64.9073	-150.163	-165.793	0.053570	0.841682	-0.213507	-0.214818	-0.004069	64.9073	-0.213460	-218.131	1.865481E-5	NaN
236	1.000000	0.851006	7.36736e+06	-50439.1	955.818	-29756.1	0.000000	0.000000	6.851112	0.081423	NaN	0.000000	0.001572	0.001648	28.0789	0.030137	0.001995	15.1037	7.170558	-166.646	0.077398	0.849684	-0.205495	-0.206816	0.081423	15.1037	-0.209538	-188.508	-0.000432	NaN
236	1.000000	0.858994	7.36736e+06	-50439.1	955.819	-29756.1	0.000000	0.000000	6.859100	0.063417	NaN	0.000000	0.001540	0.001667	28.0792	0.115335	0.002014	57.2672	154.595	-169.203	0.021419	0.857671	-0.197506	-0.198830	0.063417	57.2672	-0.198337	-123.688	-0.000513	NaN
236	1.000000	0.866985	7.36736e+06	-50439.1	955.817	-29756.1	0.000000	0.000000	6.867088	0.020798	NaN	0.000000	0.001589	0.001651	28.0789	0.038104	0.001954	19.4973	-117.88	-163.031	0.044186	0.865710	-0.189516	-0.190790	0.020798	19.4973	-0.190316	-91.0553	-0.000228	NaN
236	1.000000	0.875000	7.36736e+06	-50439.1	955.817	-29756.1	0.000000	0.000000	6.875106	0.071634	NaN	0.000000	0.001562	0.001680	28.0787	0.102906	0.002011	51.1707	-3.662020	-162.753	0.002043	0.873667	-0.181500	-0.182833	0.071634	51.1707	-0.182550	-67.4136	-0.001063	NaN
236	1.000000	0.883016	7.36736e+06	-50439.1	955.818	-29756.1	0.000000	0.000000	6.883119	0.008398	NaN	0.000000	0.001560	0.001655	28.0787	0.013585	0.002118	6.414278	40.6476	-166.097	-0.028926	0.881712	-0.173484	-0.174788	0.008398	6.414278	-0.174466	-49.069	-0.000171	NaN
236	1.000000	0.891020	7.36736e+06	-50439.1	955.818	-29756.1	0.000000	0.000000	6.891124	0.040281	NaN	0.000000	0.001530	0.001668	28.0785	0.085418	0.001878	45.485	61.4543	-166.583	0.034692	0.889710	-0.165481	-0.166790	0.040281	45.485	-0.166145	-35.187	-0.001145	NaN
236	1.000000	0.899004	7.36736e+06	-50439.1	955.818	-29756.1	0.000000	0.000000	6.899109	0.041230	NaN	0.000000	0.001541	0.001737	28.0783	0.039387	0.001889	20.8485	-19.8421	-164.654	0.078498	0.897692	-0.157496	-0.158808	0.041230	20.8485	-0.158979	-26.2922	-0.001568	NaN
236	1.000000	0.907035	7.36736e+06	-50439.1	955.82	-29756.1	0.000000	0.000000	6.907138	-0.000328	NaN	0.000000	0.001514	0.001648	28.0787	0.088008	0.001930	45.6115	34.4038	-168.588	-0.058934	0.905707	-0.149466	-0.150794	-0.000328	45.6115	-0.149460	-17.7073	1.852493E-5	NaN
236	1.000000	0.915045	7.36736e+06	-50439.1	955.818	-29756.1	0.000000	0.000000	6.915147	-0.005469	NaN	0.000000	0.001529	0.001664	28.0786	0.044581	0.002170	20.5436	-175.496	-164.304	0.017840	0.913736	-0.141456	-0.142764	-0.005469	20.5436	-0.141256	-12.4886	0.000438	NaN
236	1.000000	0.923026	7.36736e+06	-50439.1	955.818	-29756.1	0.000000	0.000000	6.923130	0.036035	NaN	0.000000	0.001566	0.001674	28.0787	0.093926	0.001978	47.493	59.6449	-163.279	0.056485	0.921758	-0.133475	-0.134743	0.036035	47.493	-0.134044	-9.120212	-0.003951	NaN
236	1.000000	0.931032	7.36736e+06	-50439.1	955.819	-29756.1	0.000000	0.000000	6.931135	0.015192	NaN	0.000000	0.001572	0.001685	28.0784	0.051943	0.001758	29.5412	-155.355	-165.305	0.001568	0.929724	-0.125469	-0.126776	0.015192	29.5412	-0.125854	-6.322264	-0.002403	NaN
236	1.000000	0.939019	7.36736e+06	-50439.1	955.819	-29756.1	0.000000	0.000000	6.939125	0.093015	NaN	0.000000	0.001575	0.001709	28.0784	0.070469	0.002049	34.3899	-119.324	-164.675	0.105406	0.937698	-0.117482	-0.118802	0.093015	34.3899	-0.119510	-4.722713	-0.019695	NaN
236	1.000000	0.947013	7.36736e+06	-50439.1	955.818	-29756.1	0.000000	0.000000	6.947122	0.148039	NaN	0.000000	0.001541	0.001710	28.0798	0.022464	0.001937	11.5983	167.752	-166.392	0.110105	0.945711	-0.109488	-0.110790	0.148039	11.5983	-0.119061	-4.624747	-0.032010	NaN
236	1.000000	0.954990	7.36736e+06	-50439.1	955.819	-29756.1	0.000000	0.000000	6.955094	0.016582	NaN	0.000000	0.001574	0.001696	28.0799	0.060010	0.002256	26.6054	37.6707	-165.961	-0.012215	0.953751	-0.101510	-0.102750	0.016582	26.6054	-0.101978	-2.020165	-0.008208	NaN
236	1.000000	0.963026	7.36736e+06	-50439.1	955.819	-29756.1	0.000000	0.000000	6.963129	0.000599	NaN	0.000000	0.001597	0.001691	28.08	0.154185	0.001805	85.4187	52.483	-166.674	0.038383	0.961707	-0.093474	-0.094793	0.000599	85.4187	-0.093480	-1.302038	-0.000460	NaN
236	1.000000	0.971030	7.36736e+06	-50439.1	955.817	-29756.1	0.000000	0.000000	6.971132	-0.029231	NaN	0.000000	0.001630	0.001713	28.0796	0.028627	0.001823	15.7063	-63.4518	-166.627	0.057629	0.969704	-0.085470	-0.086797	-0.029231	15.7063	-0.084075	-0.780216	0.037465	NaN
236	1.000000	0.979032	7.36736e+06	-50439.1	955.818	-29756.1	0.000000	0.000000	6.979135	0.017344	NaN	0.000000	0.001593	0.001694	28.0798	0.123782	0.002062	60.0304	14.3052	-165.31	-0.044460	0.977708	-0.077469	-0.078793	0.017344	60.0304	-0.077685	-0.541191	-0.032049	NaN
236	1.000000	0.987035	7.36736e+06	-50439.1	955.817	-29756.1	0.000000	0.000000	6.987137	-0.032609	NaN	0.000000	0.001555	0.001705	28.0798	0.079140	0.002024	39.0927	-7.734385	-168.658	0.055665	0.985665	-0.069465	-0.070835	-0.032609	39.0927	-0.068840	-0.317451	0.102723	NaN
236	1.000000	0.995049	7.36736e+06	-50439.1	955.816	-29756.1	0.000000	0.000000	6.995154	0.050768	NaN	0.000000	0.001634	0.001687	28.0802	0.078115	0.002060	37.9136	-21.1874	-163.763	0.066411	0.993731	-0.061452	-0.062769	0.050768	37.9136	-0.062456	-0.211538	-0.239994	NaN
236	1.000000	1.003042	7.36736e+06	-50439.1	955.817	-29756.1	0.000000	0.000000	7.003147	0.051991	NaN	0.000000	0.001656	0.001663	28.0798	0.105365	0.002060	51.1462	-162.926	-165.006	-0.017618	1.001741	-0.053458	-0.054760	0.051991	51.1462	-0.054221	-0.122113	-0.425759	NaN
236	1.000000	1.011069	7.36736e+06	-50439.1	955.817	-29756.1	0.000000	0.000000	7.011176	0.109764	NaN	0.000000	0.001587	0.001652	28.0796	0.127594	0.001881	67.849	-5.217850	-168.831	0.086121	1.009714	-0.045432	-0.046787	0.109764	67.849	-0.046645	-0.072155	-1.521233	NaN
236	1.000000	1.019052	7.36736e+06	-50439.1	955.818	-29756.1	0.000000	0.000000	7.019159	0.094741	NaN	0.000000	0.001593	0.001658	28.0798	0.116215	0.002069	56.1635	-80.3368	-166.48	0.113880	1.017711	-0.037449	-0.038789	0.094741	56.1635	-0.038714	-0.041341	-2.291679	NaN
236	1.000000	1.027037	7.36736e+06	-50439.1	955.817	-29756.1	0.000000	0.000000	7.027139	-0.004025	NaN	0.000000	0.001568	0.001692	28.0796	0.009209	0.002029	4.538231	170.415	-167.887	0.041029	1.025773	-0.029464	-0.030727	-0.004025	4.538231	-0.028799	-0.021318	0.188824	NaN
236	1.000000	1.035065	7.36736e+06	-50439.1	955.818	-29756.1	0.000000	0.000000	7.035167	-0.023138	NaN	0.000000	0.001593	0.001676	28.0797	0.041050	0.001867	21.9875	-124.057	-164.89	0.017759	1.033713	-0.021435	-0.022788	-0.023138	21.9875	-0.020646	-0.013045	1.773725	NaN
236	1.000000	1.043062	7.36736e+06	-50439.1	955.819	-29756.1	0.000000	0.000000	7.043167	0.064241	NaN	0.000000	0.001498	0.001662	28.0797	0.079832	0.002047	38.9995	64.2018	-167.358	-0.076266	1.041742	-0.013438	-0.014759	0.064241	38.9995	-0.014674	-0.009081	-7.074360	NaN
236	1.000000	1.051048	7.36736e+06	-50439.1	955.819	-29756.1	0.000000	0.000000	7.051150	-0.002302	NaN	0.000000	0.001586	0.001689	28.0797	0.134302	0.002001	67.1132	-47.8325	-166.655	-0.022928	1.049774	-0.005453	-0.006727	-0.002302	67.1132	-0.005427	-0.003683	0.624948	NaN
236	1.000000	1.059067	7.36736e+06	-50439.1	955.816	-29756.1	0.000000	0.000000	7.059187	0.412202	NaN	0.000000	0.001588	0.001662	28.0799	0.729892	0.001942	375.848	5.714467	-162.987	0.032650	1.057783	0.002567	0.001282	0.412202	375.848	0.001744	0.001349	305.561	9349.29
236	1.000000	1.066943	7.36736e+06	-50439.1	955.818	-29756.1	0.000000	0.000000	7.067382	8.158126	NaN	0.000000	0.001592	0.001665	28.0798	8.431596	0.001771	4760.77	11.9546	-171.384	6.976143	1.065674	0.010443	0.009173	8.158126	4760.77	0.009158	0.008260	987.628	47857.7
236	2.000000	1.069572	7.36736e+06	-50439.1	955.818	-29756.1	0.000000	0.000000	7.070066	9.510923	NaN	0.000000	0.001633	0.001679	28.0799	10.1523	0.001501	6764.04	4.890611	-173.694	8.810903	1.069305	0.013071	0.012805	9.510923	6764.04	0.012017	0.011510	826.31	57602.3
236	2.000000	1.071549	7.36736e+06	-50439.1	955.817	-29756.1	0.000000	0.000000	7.072264	14.8933	NaN	0.000000	0.001640	0.001652	28.0784	13.6306	0.001652	8249.8	3.515264	-173.768	13.7131	1.071253	0.015049	0.014752	14.8933	8249.8	0.013695	0.013584	1096.38	64669.9
236	2.000000	1.073518	7.36736e+06	-50439.1	955.818	-29756.1	0.000000	0.000000	7.074206	14.2472	NaN	0.000000	0.001630	0.001679	28.0785	14.2822	0.001720	8305.78	8.299333	-174.668	13.8907	1.073268	0.017017	0.016768	14.2472	8305.78	0.015731	0.016272	875.558	59488.2
236	2.000000	1.075514	7.36736e+06	-50439.1	955.819	-29756.1	0.000000	0.000000	7.076355	17.9532	NaN	0.000000	0.001600	0.001707	28.0786	17.3028	0.001718	10070.1	5.997142	-175.627	16.3929	1.075220	0.019013	0.018720	17.9532	10070.1	0.017676	0.019021	943.846	66709.5
236	2.000000	1.077536	7.36736e+06	-50439.1	955.819	-29756.1	0.000000	0.000000	7.078497	20.8882	NaN	0.000000	0.001621	0.001687	28.0787	19.2721	0.001800	10708.2	5.723056	-176.611	18.8933	1.077223	0.021035	0.020723	20.8882	10708.2	0.019572	0.021874	954.914	66148.6
236	2.000000	1.079578	7.36736e+06	-50439.1	955.818	-29756.1	0.000000	0.000000	7.080622	22.8801	NaN	0.000000	0.001627	0.001673	28.0787	20.8628	0.001675	12455.5	6.020152	-178.217	23.3041	1.079191	0.023078	0.022690	22.8801	12455.5	0.021700	0.025284	904.908	71566.4
236	2.000000	1.081526	7.36736e+06	-50439.1	955.818	-29756.1	0.000000	0.000000	7.082678	25.517	NaN	0.000000	0.001627	0.001633	28.0784	23.4789	0.001838	12775.7	3.370829	-175.062	24.9109	1.081200	0.025025	0.024699	25.517	12775.7	0.023527	0.028390	898.788	69274.1
236	2.000000	1.083491	7.36736e+06	-50439.1	955.818	-29756.1	0.000000	0.000000	7.084831	30.0742	NaN	0.000000	0.001615	0.001682	28.0787	25.1656	0.001883	13364.3	6.026038	-178.434	29.1394	1.083248	0.026991	0.026747	30.0742	13364.3	0.025303	0.031569	952.635	68720.4
236	2.000000	1.085526	7.36736e+06	-50439.1	955.818	-29756.1	0.000000	0.000000	7.087074	35.1443	NaN	0.000000	0.001645	0.001665	28.0786	26.6162	0.001783	14925.5	4.642288	-179.048	34.2796	1.085189	0.029026	0.028689	35.1443	14925.5	0.027260	0.035256	996.837	72625
236	2.000000	1.087531	7.36736e+06	-50439.1	955.818	-29756.1	0.000000	0.000000	7.089359	41.9588	NaN	0.000000	0.001618	0.001689	28.079	29.081	0.001749	16627.1	5.588411	-179.75	40.7492	1.087158	0.031031	0.030657	41.9588	16627.1	0.029138	0.038976	1076.52	76946.9
236	2.000000	1.089518	7.36736e+06	-50439.1	955.818	-29756.1	0.000000	0.000000	7.091433	44.0694	NaN	0.000000	0.001628	0.001628	28.0789	30.9703	0.001751	17690.9	11.4631	172.929	45.4164	1.089242	0.033017	0.032741	44.0694	17690.9	0.031149	0.043158	1021.11	77801.8
236	2.000000	1.091513	7.36736e+06	-50439.1	955.818	-29756.1	0.000000	0.000000	7.093680	50.1893	NaN	0.000000	0.001626	0.001637	28.0786	33.2094	0.001738	19110.1	7.553015	176.558	50.4524	1.091186	0.035013	0.034685	50.1893	19110.1	0.033043	0.047287	1061.38	80290.9
236	2.000000	1.093514	7.36736e+06	-50439.1	955.817	-29756.1	0.000000	0.000000	7.095913	55.8385	NaN	0.000000	0.001549	0.001664	28.0803	34.8285	0.001903	18303.8	6.022684	178.894	55.2574	1.093186	0.037014	0.036686	55.8385	18303.8	0.034726	0.051109	1092.54	73971.9
236	2.000000	1.095532	7.36736e+06	-50439.1	955.818	-29756.1	0.000000	0.000000	7.098181	61.9154	NaN	0.000000	0.001554	0.001660	28.0787	37.5257	0.001810	20737.4	6.711374	177.117	62.6782	1.095233	0.039032	0.038733	61.9154	20737.4	0.036793	0.056002	1105.58	80061.7
236	2.000000	1.097605	7.36736e+06	-50439.1	955.817	-29756.1	0.000000	0.000000	7.100327	63.7055	NaN	0.000000	0.001577	0.001662	28.0789	39.5745	0.001831	21612.7	10.5973	173.227	69.2569	1.097271	0.041105	0.040771	63.7055	21612.7	0.038894	0.061201	1040.93	79818.6
236	2.000000	1.099473	7.36736e+06	-50439.1	955.818	-29756.1	0.000000	0.000000	7.102642	74.5687	NaN	0.000000	0.001541	0.001698	28.079	40.9571	0.001717	23849.2	8.145726	174.736	74.5388	1.099243	0.042972	0.042743	74.5687	23849.2	0.040627	0.065660	1135.69	85035.1
236	2.000000	1.101513	7.36736e+06	-50439.1	955.817	-29756.1	0.000000	0.000000	7.104938	80.7931	NaN	0.000000	0.001557	0.001694	28.0787	44.0553	0.001816	24257.5	8.839157	174.185	81.7873	1.101126	0.045012	0.044625	80.7931	24257.5	0.042514	0.070688	1142.96	83357.9
236	2.000000	1.103439	7.36736e+06	-50439.1	955.817	-29756.1	0.000000	0.000000	7.107318	91.817	NaN	0.000000	0.001575	0.001658	28.0804	44.3438	0.001778	24940.2	7.336291	174.871	88.528	1.103116	0.046939	0.046616	91.817	24940.2	0.044178	0.075270	1219.83	83054.4
236	2.000000	1.105470	7.36736e+06	-50439.1	955.817	-29756.1	0.000000	0.000000	7.109454	94.3847	NaN	0.000000	0.001608	0.001676	28.0799	46.6873	0.001750	26673.3	3.868803	177.244	92.391	1.105097	0.048969	0.048597	94.3847	26673.3	0.046315	0.081366	1160.01	85433.9
236	2.000000	1.107461	7.36736e+06	-50439.1	955.817	-29756.1	0.000000	0.000000	7.111990	107.642	NaN	0.000000	0.001587	0.001696	28.08	49.375	0.001816	27190.3	5.797032	175.114	104.539	1.107127	0.050961	0.050627	107.642	27190.3	0.047992	0.086307	1247.21	84560
236	2.000000	1.109464	7.36736e+06	-50439.1	955.817	-29756.1	0.000000	0.000000	7.114342	116.118	NaN	0.000000	0.001597	0.001707	28.0802	50.4032	0.001795	28073.1	5.877428	175.45	116.679	1.109150	0.052964	0.052650	116.118	28073.1	0.049862	0.091986	1262.35	84567.6
236	2.000000	1.111438	7.36736e+06	-50439.1	955.818	-29756.1	0.000000	0.000000	7.116702	125.502	NaN	0.000000	0.001582	0.001701	28.0799	53.0611	0.001844	28772.1	3.225247	178.049	122.856	1.111188	0.054938	0.054688	125.502	28772.1	0.051667	0.097634	1285.43	84128.8
236	2.000000	1.113512	7.36736e+06	-50439.1	955.819	-29756.1	0.000000	0.000000	7.118915	128.899	NaN	0.000000	0.001577	0.001689	28.0813	53.9481	0.001682	32074.5	4.425915	175.266	131.505	1.113211	0.057011	0.056711	128.899	32074.5	0.053997	0.105168	1225.66	90363.3
236	2.000000	1.115435	7.36736e+06	-50439.1	955.818	-29756.1	0.000000	0.000000	7.121497	144.915	NaN	0.000000	0.001559	0.001694	28.08	56.4836	0.001677	33682.2	6.014255	173.433	141.93	1.115104	0.058935	0.058604	144.915	33682.2	0.055708	0.110869	1307.08	92420.6
236	2.000000	1.117495	7.36736e+06	-50439.1	955.817	-29756.1	0.000000	0.000000	7.124151	159.376	NaN	0.000000	0.001545	0.001644	28.0799	58.9784	0.001765	33423.4	4.839230	175.128	158.344	1.117142	0.060994	0.060641	159.376	33423.4	0.057418	0.116712	1365.54	89385.3
236	2.000000	1.119413	7.36736e+06	-50439.1	955.818	-29756.1	0.000000	0.000000	7.126553	171.133	NaN	0.000000	0.001562	0.001678	28.08	61.0003	0.001835	33251	3.830506	175.732	167.147	1.119087	0.062912	0.062587	171.133	33251	0.059052	0.122431	1397.78	86822.5
236	2.000000	1.121508	7.36736e+06	-50439.1	955.818	-29756.1	0.000000	0.000000	7.128884	176.869	NaN	0.000000	0.001537	0.001666	28.0797	63.667	0.001804	35295.6	8.571603	171.17	179.01	1.121160	0.065007	0.064660	176.869	35295.6	0.061249	0.130326	1357.13	89326.3
236	2.000000	1.123392	7.36736e+06	-50439.1	955.818	-29756.1	0.000000	0.000000	7.131469	193.912	NaN	0.000000	0.001550	0.001654	28.0802	64.5411	0.001853	34831.1	5.824602	172.936	189.124	1.123161	0.066891	0.066661	193.912	34831.1	0.062716	0.135727	1428.7	86378.9
236	2.000000	1.125371	7.36736e+06	-50439.1	955.817	-29756.1	0.000000	0.000000	7.133837	203.391	NaN	0.000000	0.001565	0.001677	28.08	67.2913	0.001887	35668.4	3.899229	175.489	198.797	1.125072	0.068870	0.068572	203.391	35668.4	0.064594	0.142794	1424.36	86238.5
236	2.000000	1.127456	7.36736e+06	-50439.1	955.817	-29756.1	0.000000	0.000000	7.136114	208.051	NaN	0.000000	0.001576	0.001701	28.08	67.9545	0.001820	37341.8	2.927298	176.226	206.249	1.127128	0.070955	0.070627	208.051	37341.8	0.066777	0.151223	1375.79	87732.1
236	2.000000	1.129397	7.36736e+06	-50439.1	955.817	-29756.1	0.000000	0.000000	7.138661	222.787	NaN	0.000000	0.001565	0.001675	28.0802	69.4739	0.001859	37366.4	3.460687	175.004	219.446	1.129188	0.072896	0.072688	222.787	37366.4	0.068425	0.157738	1412.38	85958
236	2.000000	1.131393	7.36736e+06	-50439.1	955.817	-29756.1	0.000000	0.000000	7.141447	241.995	NaN	0.000000	0.001568	0.001663	28.08	72.2883	0.001774	40744.2	5.376002	172.412	237.903	1.131051	0.074893	0.074550	241.995	40744.2	0.070438	0.165875	1458.89	91400.4
236	2.000000	1.133339	7.36736e+06	-50439.1	955.819	-29756.1	0.000000	0.000000	7.143995	256.631	NaN	0.000000	0.001580	0.001658	28.0802	72.4206	0.001784	40585.1	5.473566	172.85	251.893	1.133011	0.076838	0.076511	256.631	40585.1	0.072096	0.172718	1485.84	89221.9
236	2.000000	1.135407	7.36736e+06	-50439.1	955.817	-29756.1	0.000000	0.000000	7.146620	270.186	NaN	0.000000	0.001542	0.001679	28.0801	74.7552	0.001689	44269.3	4.164709	173.101	268.026	1.135141	0.078906	0.078640	270.186	44269.3	0.074329	0.182142	1483.39	94770
236	2.000000	1.137481	7.36736e+06	-50439.1	955.817	-29756.1	0.000000	0.000000	7.149239	283.444	NaN	0.000000	0.001554	0.001693	28.0803	77.5325	0.001716	45189.5	7.608487	170.479	283.935	1.137146	0.080980	0.080645	283.444	45189.5	0.076276	0.190551	1487.49	94581.2
236	2.000000	1.139427	7.36736e+06	-50439.1	955.818	-29756.1	0.000000	0.000000	7.151853	299.683	NaN	0.000000	0.001495	0.001673	28.0799	79.6324	0.001893	42075.7	3.928297	174.096	299.432	1.139122	0.082926	0.082622	299.683	42075.7	0.077584	0.196302	1526.64	86764.6
236	2.000000	1.141361	7.36736e+06	-50439.1	955.818	-29756.1	0.000000	0.000000	7.154476	316.421	NaN	0.000000	0.001515	0.001663	28.0788	80.8141	0.001828	44198.1	3.020552	174.636	310.935	1.141120	0.084861	0.084619	316.421	44198.1	0.079491	0.204826	1544.82	89224.4
236	2.000000	1.143333	7.36736e+06	-50439.1	955.819	-29756.1	0.000000	0.000000	7.157304	337.237	NaN	0.000000	0.001568	0.001682	28.079	81.0788	0.001629	49768.3	2.521658	174.008	329.426	1.143012	0.086833	0.086511	337.237	49768.3	0.081751	0.215146	1567.48	98030.1
236	2.000000	1.145364	7.36736e+06	-50439.1	955.818	-29756.1	0.000000	0.000000	7.159912	351.287	NaN	0.000000	0.001571	0.001692	28.0789	85.2268	0.001893	45015	6.637293	170.775	348.59	1.145120	0.088863	0.088619	351.287	45015	0.083011	0.221003	1589.52	87484.6
236	2.000000	1.147493	7.36736e+06	-50439.1	955.818	-29756.1	0.000000	0.000000	7.162953	373.463	NaN	0.000000	0.001562	0.001674	28.0793	86.5911	0.001758	49246.7	5.710777	171.063	374.768	1.147084	0.090993	0.090584	373.463	49246.7	0.085305	0.231860	1610.73	93441
236	2.000000	1.149321	7.36736e+06	-50439.1	955.817	-29756.1	0.000000	0.000000	7.165433	389.295	NaN	0.000000	0.001596	0.001637	28.0793	87.8013	0.001732	50690.1	6.048630	170.618	383.008	1.149103	0.092821	0.092602	389.295	50690.1	0.087061	0.240332	1619.83	94469.4
236	2.000000	1.151443	7.36736e+06	-50439.1	955.818	-29756.1	0.000000	0.000000	7.168338	408.369	NaN	0.000000	0.001614	0.001662	28.0788	90.1692	0.001675	53820	0.177455	175.795	407.293	1.151247	0.094942	0.094746	408.369	53820	0.089251	0.251099	1626.32	98128.2
236	2.000000	1.153254	7.36736e+06	-50439.1	955.818	-29756.1	0.000000	0.000000	7.170817	424.602	NaN	0.000000	0.001607	0.001641	28.0787	90.8568	0.001749	51956.1	0.956439	175.256	415.82	1.153130	0.096754	0.096630	424.602	51956.1	0.090625	0.257962	1645.99	93461.5
236	2.000000	1.155253	7.36736e+06	-50439.1	955.818	-29756.1	0.000000	0.000000	7.173649	444.85	NaN	0.000000	0.001670	0.001649	28.0786	94.8062	0.001791	52945.4	5.950793	170.048	436.098	1.154981	0.098753	0.098481	444.85	52945.4	0.092451	0.267225	1664.7	93575.6
236	2.000000	1.157518	7.36736e+06	-50439.1	955.818	-29756.1	0.000000	0.000000	7.176909	469.036	NaN	0.000000	0.001671	0.001668	28.0792	96.7877	0.001773	54599.6	5.617274	170.842	472.671	1.157031	0.101018	0.100530	469.036	54599.6	0.094575	0.278186	1686.05	94579
236	2.000000	1.159373	7.36736e+06	-50439.1	955.818	-29756.1	0.000000	0.000000	7.179700	491.816	NaN	0.000000	0.001671	0.001685	28.0788	97.8822	0.001799	54398.9	2.593927	173.39	488.18	1.159091	0.102872	0.102591	491.816	54398.9	0.096092	0.286140	1718.79	92912.4
236	2.000000	1.161266	7.36736e+06	-50439.1	955.818	-29756.1	0.000000	0.000000	7.182342	510.033	NaN	0.000000	0.001632	0.001707	28.0788	99.2434	0.001725	57529.6	0.833206	175.045	501.885	1.161058	0.104766	0.104557	510.033	57529.6	0.098117	0.296923	1717.73	96458.9
236	2.000000	1.163345	7.36736e+06	-50439.1	955.818	-29756.1	0.000000	0.000000	7.185220	529.471	NaN	0.000000	0.001657	0.001702	28.0788	101.218	0.001788	56604.4	5.296389	170.389	524.373	1.163018	0.106844	0.106518	529.471	56604.4	0.099829	0.306185	1729.25	93461.2
236	2.000000	1.165340	7.36736e+06	-50439.1	955.818	-29756.1	0.000000	0.000000	7.187950	547.329	NaN	0.000000	0.001631	0.001656	28.0789	105.15	0.001844	57017.2	6.371283	169.493	543.895	1.165141	0.108839	0.108641	547.329	57017.2	0.101640	0.316128	1731.35	92650.3
236	2.000000	1.166450	7.36736e+06	-50439.1	955.819	-29756.1	0.000000	0.000000	7.189842	566.356	NaN	0.000000	0.001612	0.001719	28.0788	105.711	0.001801	58682.7	7.477368	168.338	567.248	1.165937	0.109950	0.109437	566.356	58682.7	0.102711	0.322081	1758.43	94471.4