File: remote_trans/data/nanoindenter/0828-1/data/Data_2025-08-06,11h17m57s/2025-07-22_16-23-58_1_760.txt
2025-07-22, 16:23:58, 1
Index	Phase	Displacement	Time	Pos X	Pos Y	Pos Z	Rot A	Rot B	Piezo Z	Force A	Force B	Gripper	Voltage A	Voltage B	Temperature	Amplitude force	Amplitude pos	Stiffness	Phase shift	Phase excitation	Force A raw	Displacement raw	HMax	HMax raw	Real Force	Real Stiffness	Contact Depth	Area	Hardness	Reduced Mod.
[#]	[#]	[um]	[s]	[um]	[um]	[um]	[m°]	[m°]	[um]	[uN]	[uN]	[V]	[V]	[V]	[°C]	[uN]	[um]	[N/m]	[°]	[°]	[uN]	[um]	[um]	[um]	[uN]	[N/m]	[um]	[um^2]	[MPa]	[MPa]
760	1.000000	0.002202	7.37249e+06	-39089.1	1005.82	-29795.1	0.000000	0.000000	6.002787	0.074512	NaN	0.000000	0.001599	0.001669	28.0833	0.056215	0.000973	57.7618	63.6203	-170.814	0.047752	0.000924	-1.075812	-1.077090	0.074512	57.7618	-1.076780	-2.444940E+14	-3.047620E-16	NaN
760	1.000000	0.010195	7.37249e+06	-39089.1	1005.82	-29795.1	0.000000	0.000000	6.010778	0.031699	NaN	0.000000	0.001619	0.001687	28.0833	0.091410	0.000999	91.4633	-79.7771	-165.206	-0.058141	0.008912	-1.067819	-1.069102	0.031699	91.4633	-1.068079	-1.868021E+14	-1.696913E-16	NaN
760	1.000000	0.018179	7.37249e+06	-39089.1	1005.82	-29795.1	0.000000	0.000000	6.018761	-0.031539	NaN	0.000000	0.001623	0.001729	28.0833	0.072598	0.001714	42.3473	-21.188	-166.264	0.030402	0.016888	-1.059835	-1.061126	-0.031539	42.3473	-1.059276	-1.422625E+14	2.216983E-16	NaN
760	1.000000	0.026192	7.37249e+06	-39089.1	1005.82	-29795.1	0.000000	0.000000	6.026774	0.011831	NaN	0.000000	0.001646	0.001697	28.0818	0.062068	0.001834	33.8428	-52.7189	-161.259	-0.034569	0.024836	-1.051822	-1.053178	0.011831	33.8428	-1.052085	-1.138767E+14	-1.038918E-16	NaN
760	1.000000	0.034149	7.37249e+06	-39089.1	1005.82	-29795.1	0.000000	0.000000	6.034731	-0.007675	NaN	0.000000	0.001612	0.001698	28.082	0.013973	0.001950	7.166311	-156.762	-162.034	0.010220	0.032865	-1.043865	-1.045149	-0.007675	7.166311	-1.043062	-8.612746E+13	8.911375E-17	NaN
760	1.000000	0.042165	7.37249e+06	-39089.1	1005.82	-29795.1	0.000000	0.000000	6.042749	0.032330	NaN	0.000000	0.001620	0.001726	28.0821	0.077994	0.001870	41.7179	110.753	-167.006	-0.023114	0.040853	-1.035849	-1.037161	0.032330	41.7179	-1.036430	-7.013906E+13	-4.609392E-16	NaN
760	1.000000	0.050141	7.37249e+06	-39089.1	1005.82	-29795.1	0.000000	0.000000	6.050725	0.024947	NaN	0.000000	0.001694	0.001707	28.0824	0.035980	0.001989	18.0873	-15.9044	-164.346	0.060027	0.048876	-1.027872	-1.029138	0.024947	18.0873	-1.028907	-5.556195E+13	-4.489873E-16	NaN
760	1.000000	0.058175	7.37249e+06	-39089.1	1005.82	-29795.1	0.000000	0.000000	6.058759	0.039324	NaN	0.000000	0.001703	0.001692	28.0824	0.039552	0.001916	20.6467	-83.0495	-166.035	0.043114	0.056854	-1.019839	-1.021160	0.039324	20.6467	-1.021268	-4.385399E+13	-8.967019E-16	NaN
760	1.000000	0.066202	7.37249e+06	-39089.1	1005.82	-29795.1	0.000000	0.000000	6.066783	-0.020281	NaN	0.000000	0.001704	0.001680	28.0824	0.108197	0.001898	57.0117	142.242	-167.516	0.034458	0.064948	-1.011812	-1.013066	-0.020281	57.0117	-1.011545	-3.244750E+13	6.250395E-16	NaN
760	1.000000	0.074184	7.37249e+06	-39089.1	1005.82	-29795.1	0.000000	0.000000	6.074766	0.003541	NaN	0.000000	0.001719	0.001686	28.0826	0.038226	0.001882	20.3078	-100.729	-165.127	-0.032592	0.072838	-1.003830	-1.005176	0.003541	20.3078	-1.003961	-2.565048E+13	-1.380423E-16	NaN
760	1.000000	0.082179	7.37249e+06	-39089.1	1005.82	-29795.1	0.000000	0.000000	6.082761	-0.013168	NaN	0.000000	0.001678	0.001761	28.0822	0.072982	0.002012	36.2743	137.162	-167.789	-0.009578	0.080912	-0.995835	-0.997102	-0.013168	36.2743	-0.995562	-1.977053E+13	6.660264E-16	NaN
760	1.000000	0.090184	7.37249e+06	-39089.1	1005.82	-29795.1	0.000000	0.000000	6.090767	0.010655	NaN	0.000000	0.001673	0.001735	28.0821	0.123219	0.002038	60.4698	54.5157	-163.328	-0.033054	0.088881	-0.987830	-0.989133	0.010655	60.4698	-0.987962	-1.561942E+13	-6.821919E-16	NaN
760	1.000000	0.098176	7.37249e+06	-39089.1	1005.82	-29795.1	0.000000	0.000000	6.098758	-0.018615	NaN	0.000000	0.001672	0.001739	28.082	0.162286	0.001886	86.0262	98.6837	-167.313	-0.000768	0.096845	-0.979838	-0.981169	-0.018615	86.0262	-0.979676	-1.207923E+13	1.541087E-15	NaN
760	1.000000	0.106197	7.37249e+06	-39089.1	1005.82	-29795.1	0.000000	0.000000	6.106779	0.001288	NaN	0.000000	0.001697	0.001787	28.082	0.091048	0.002143	42.4938	-58.2098	-164.098	0.025019	0.104878	-0.971817	-0.973136	0.001288	42.4938	-0.971840	-9.472295E+12	-1.359860E-16	NaN
760	1.000000	0.114191	7.37249e+06	-39089.1	1005.82	-29795.1	0.000000	0.000000	6.114774	0.021436	NaN	0.000000	0.001714	0.001772	28.0822	0.043081	0.002038	21.1374	-38.8599	-161.69	0.005402	0.112873	-0.963823	-0.965141	0.021436	21.1374	-0.964583	-7.562344E+12	-2.834611E-15	NaN
760	1.000000	0.122191	7.37249e+06	-39089.1	1005.82	-29795.1	0.000000	0.000000	6.122774	0.013794	NaN	0.000000	0.001685	0.001769	28.0821	0.020624	0.001998	10.3213	74.581	-165.808	-0.001536	0.120881	-0.955823	-0.957133	0.013794	10.3213	-0.956825	-5.943864E+12	-2.320738E-15	NaN
760	1.000000	0.130187	7.37249e+06	-39089.1	1005.82	-29795.1	0.000000	0.000000	6.130769	-0.031470	NaN	0.000000	0.001684	0.001757	28.082	0.068491	0.002147	31.9035	134.246	-167.081	0.024312	0.128850	-0.947826	-0.949164	-0.031470	31.9035	-0.947087	-4.392731E+12	7.164020E-15	NaN
760	1.000000	0.138182	7.37249e+06	-39089.1	1005.82	-29795.1	0.000000	0.000000	6.138763	-0.024477	NaN	0.000000	0.001707	0.001791	28.082	0.084549	0.002050	41.2473	98.6414	-166.684	-0.006214	0.136888	-0.939832	-0.941126	-0.024477	41.2473	-0.939387	-3.458311E+12	7.077849E-15	NaN
760	1.000000	0.146212	7.37249e+06	-39089.1	1005.82	-29795.1	0.000000	0.000000	6.146798	0.077119	NaN	0.000000	0.001661	0.001795	28.0816	0.056006	0.001995	28.0753	-97.0716	-162.227	0.067065	0.144873	-0.931802	-0.933141	0.077119	28.0753	-0.933862	-2.912830E+12	-2.647561E-14	NaN
760	1.000000	0.154193	7.37249e+06	-39089.1	1005.82	-29795.1	0.000000	0.000000	6.154773	-0.053871	NaN	0.000000	0.001672	0.001785	28.0821	0.023588	0.002074	11.3756	17.7675	-164.803	0.015602	0.152869	-0.923821	-0.925145	-0.053871	11.3756	-0.920269	-1.909157E+12	2.821694E-14	NaN
760	1.000000	0.162210	7.37249e+06	-39089.1	1005.82	-29795.1	0.000000	0.000000	6.162791	-0.021442	NaN	0.000000	0.001686	0.001780	28.0829	0.064243	0.002024	31.748	15.6103	-166.924	0.016767	0.160865	-0.915804	-0.917149	-0.021442	31.748	-0.915298	-1.635726E+12	1.310881E-14	NaN
760	1.000000	0.170213	7.37249e+06	-39089.1	1005.82	-29795.1	0.000000	0.000000	6.170796	0.013593	NaN	0.000000	0.001658	0.001790	28.0828	0.032486	0.001971	16.4814	96.1161	-165.029	-0.008136	0.168918	-0.907801	-0.909096	0.013593	16.4814	-0.908420	-1.320742E+12	-1.029165E-14	NaN
760	1.000000	0.178208	7.37249e+06	-39089.1	1005.82	-29795.1	0.000000	0.000000	6.178790	-0.015356	NaN	0.000000	0.001659	0.001790	28.0829	0.064188	0.002151	29.8412	-117.769	-164.326	-0.057394	0.176918	-0.899806	-0.901096	-0.015356	29.8412	-0.899420	-9.982308E+11	1.538364E-14	NaN
760	1.000000	0.186216	7.37249e+06	-39089.1	1005.82	-29795.1	0.000000	0.000000	6.186798	3.354687E-5	NaN	0.000000	0.001681	0.001750	28.0828	0.079910	0.001952	40.9302	-33.1488	-166.753	0.008292	0.184946	-0.891798	-0.893068	3.354687E-5	40.9302	-0.891799	-7.874623E+11	-4.260124E-17	NaN
760	1.000000	0.194235	7.37249e+06	-39089.1	1005.82	-29795.1	0.000000	0.000000	6.194818	0.016795	NaN	0.000000	0.001684	0.001795	28.0832	0.026235	0.001922	13.6466	71.8755	-170.659	-0.035827	0.192905	-0.883779	-0.885109	0.016795	13.6466	-0.884702	-6.313783E+11	-2.660006E-14	NaN
760	1.000000	0.202213	7.37249e+06	-39089.1	1005.82	-29795.1	0.000000	0.000000	6.202796	0.017297	NaN	0.000000	0.001678	0.001798	28.0828	0.079504	0.002020	39.3496	20.0699	-169.974	-0.005867	0.200902	-0.875801	-0.877112	0.017297	39.3496	-0.876130	-4.834745E+11	-3.577648E-14	NaN
760	1.000000	0.210231	7.37249e+06	-39089.1	1005.82	-29795.1	0.000000	0.000000	6.210813	-0.001421	NaN	0.000000	0.001649	0.001753	28.0828	0.036311	0.002021	17.964	30.05	-167.4	-0.010730	0.208915	-0.867783	-0.869099	-0.001421	17.964	-0.867724	-3.720912E+11	3.818535E-15	NaN
760	1.000000	0.218242	7.37249e+06	-39089.1	1005.82	-29795.1	0.000000	0.000000	6.218828	0.077924	NaN	0.000000	0.001680	0.001787	28.083	0.087518	0.001956	44.7522	172.459	-169.043	-0.007144	0.216900	-0.859772	-0.861114	0.077924	44.7522	-0.861078	-3.024895E+11	-2.576102E-13	NaN
760	1.000000	0.226275	7.37249e+06	-39089.1	1005.82	-29795.1	0.000000	0.000000	6.226857	-0.007650	NaN	0.000000	0.001677	0.001757	28.0826	0.094202	0.002107	44.7185	-140.043	-166.331	-0.023348	0.224951	-0.851739	-0.853063	-0.007650	44.7185	-0.851611	-2.251927E+11	3.396964E-14	NaN
760	1.000000	0.234231	7.37249e+06	-39089.1	1005.82	-29795.1	0.000000	0.000000	6.234814	0.003677	NaN	0.000000	0.001648	0.001749	28.0829	0.112757	0.002072	54.43	-169.393	-164.179	-0.030611	0.232932	-0.843783	-0.845082	0.003677	54.43	-0.843834	-1.766946E+11	-2.080845E-14	NaN
760	1.000000	0.242265	7.37249e+06	-39089.1	1005.82	-29795.1	0.000000	0.000000	6.242849	0.027800	NaN	0.000000	0.001668	0.001769	28.0827	0.115294	0.002012	57.3092	42.2507	-167.26	0.042645	0.240988	-0.835749	-0.837025	0.027800	57.3092	-0.836113	-1.388751E+11	-2.001815E-13	NaN
760	1.000000	0.250260	7.37249e+06	-39089.1	1005.82	-29795.1	0.000000	0.000000	6.250843	0.019884	NaN	0.000000	0.001714	0.001785	28.083	0.110313	0.002113	52.206	-62.4608	-165.247	-0.003972	0.248944	-0.827754	-0.829070	0.019884	52.206	-0.828040	-1.079487E+11	-1.841977E-13	NaN
760	1.000000	0.258264	7.37249e+06	-39089.1	1005.82	-29795.1	0.000000	0.000000	6.258848	0.036840	NaN	0.000000	0.001723	0.001779	28.0826	0.128935	0.001970	65.4326	-158.095	-167.341	0.059501	0.256966	-0.819750	-0.821048	0.036840	65.4326	-0.820172	-8.443975E+10	-4.362822E-13	NaN
760	1.000000	0.266245	7.37249e+06	-39089.1	1005.82	-29795.1	0.000000	0.000000	6.266828	0.021203	NaN	0.000000	0.001696	0.001727	28.0828	0.003812	0.001956	1.948670	93.4372	-165.609	0.059008	0.264923	-0.811769	-0.813091	0.021203	1.948670	-0.819930	-8.380260E+10	-2.530071E-13	NaN
760	1.000000	0.274276	7.37249e+06	-39089.1	1005.82	-29795.1	0.000000	0.000000	6.274860	0.026259	NaN	0.000000	0.001712	0.001752	28.0828	0.045902	0.001957	23.451	150.145	-167.742	-0.020099	0.272939	-0.803738	-0.805075	0.026259	23.451	-0.804578	-5.187925E+10	-5.061547E-13	NaN
760	1.000000	0.282251	7.37249e+06	-39089.1	1005.82	-29795.1	0.000000	0.000000	6.282834	0.027222	NaN	0.000000	0.001743	0.001741	28.0827	0.043213	0.001849	23.3713	-24.9601	-167.938	0.012086	0.281000	-0.795763	-0.797014	0.027222	23.3713	-0.796637	-4.047700E+10	-6.725387E-13	NaN
760	1.000000	0.290265	7.37249e+06	-39089.1	1005.82	-29795.1	0.000000	0.000000	6.290847	-0.005469	NaN	0.000000	0.001742	0.001744	28.0828	0.036615	0.001985	18.4486	159.516	-168.924	-0.022543	0.288960	-0.787749	-0.789054	-0.005469	18.4486	-0.787527	-3.044302E+10	1.796566E-13	NaN
760	1.000000	0.298272	7.37249e+06	-39089.1	1005.82	-29795.1	0.000000	0.000000	6.298853	-0.020796	NaN	0.000000	0.001690	0.001735	28.0817	0.127144	0.002009	63.2977	67.7617	-164.18	0.054750	0.296939	-0.779742	-0.781075	-0.020796	63.2977	-0.779496	-2.367991E+10	8.781995E-13	NaN
760	1.000000	0.306258	7.37249e+06	-39089.1	1005.82	-29795.1	0.000000	0.000000	6.306840	-0.018950	NaN	0.000000	0.001693	0.001722	28.0816	0.119800	0.002044	58.6245	-158.128	-167.843	-0.005428	0.304979	-0.771756	-0.773035	-0.018950	58.6245	-0.771513	-1.844516E+10	1.027361E-12	NaN
760	1.000000	0.314291	7.37249e+06	-39089.1	1005.82	-29795.1	0.000000	0.000000	6.314876	0.073143	NaN	0.000000	0.001672	0.001792	28.081	0.056247	0.001988	28.3004	129.312	-165.282	0.140953	0.312982	-0.763723	-0.765032	0.073143	28.3004	-0.765662	-1.535725E+10	-4.762753E-12	NaN
760	1.000000	0.322265	7.37249e+06	-39089.1	1005.82	-29795.1	0.000000	0.000000	6.322848	0.028845	NaN	0.000000	0.001674	0.001807	28.0813	0.114709	0.002078	55.2145	-107.753	-167.718	0.032287	0.320993	-0.755749	-0.757021	0.028845	55.2145	-0.756141	-1.139720E+10	-2.530842E-12	NaN
760	1.000000	0.330277	7.37249e+06	-39089.1	1005.82	-29795.1	0.000000	0.000000	6.330858	-0.027683	NaN	0.000000	0.001631	0.001769	28.0815	0.077069	0.001969	39.1457	30.1696	-167.586	0.001123	0.328992	-0.747737	-0.749022	-0.027683	39.1457	-0.747207	-8.613859E+9	3.213756E-12	NaN
760	1.000000	0.338296	7.37249e+06	-39089.1	1005.82	-29795.1	0.000000	0.000000	6.338878	-0.006403	NaN	0.000000	0.001624	0.001746	28.0817	0.029281	0.002088	14.0229	-131.698	-166.597	-0.025946	0.336995	-0.739718	-0.741019	-0.006403	14.0229	-0.739375	-6.738278E+9	9.501927E-13	NaN
760	1.000000	0.346269	7.37249e+06	-39089.1	1005.82	-29795.1	0.000000	0.000000	6.346855	0.083786	NaN	0.000000	0.001620	0.001771	28.0814	0.079722	0.002019	39.4848	-43.8666	-164.235	0.074211	0.344913	-0.731745	-0.733101	0.083786	39.4848	-0.733336	-5.575406E+9	-1.502778E-11	NaN
760	1.000000	0.354258	7.37249e+06	-39089.1	1005.82	-29795.1	0.000000	0.000000	6.354844	0.067494	NaN	0.000000	0.001641	0.001782	28.0814	0.017999	0.001870	9.626758	-107.187	-164.354	0.074368	0.353060	-0.723756	-0.724954	0.067494	9.626758	-0.729014	-4.868195E+9	-1.386430E-11	NaN
760	1.000000	0.362290	7.37249e+06	-39089.1	1005.82	-29795.1	0.000000	0.000000	6.362874	0.050722	NaN	0.000000	0.001615	0.001793	28.0817	0.064554	0.002060	31.3334	-31.2993	-167.617	0.064475	0.361017	-0.715724	-0.716997	0.050722	31.3334	-0.716939	-3.332091E+9	-1.522229E-11	NaN
760	1.000000	0.370313	7.37249e+06	-39089.1	1005.82	-29795.1	0.000000	0.000000	6.370895	-0.009266	NaN	0.000000	0.001647	0.001764	28.0814	0.096860	0.001841	52.6091	57.0621	-162.906	-0.014003	0.369007	-0.707701	-0.709007	-0.009266	52.6091	-0.707569	-2.482351E+9	3.732695E-12	NaN
760	1.000000	0.378318	7.37249e+06	-39089.1	1005.82	-29795.1	0.000000	0.000000	6.378903	0.063108	NaN	0.000000	0.001609	0.001783	28.0816	0.071921	0.001962	36.6513	129.015	-166.644	0.030090	0.376983	-0.699696	-0.701031	0.063108	36.6513	-0.700987	-2.018430E+9	-3.126597E-11	NaN
760	1.000000	0.386278	7.37249e+06	-39089.1	1005.82	-29795.1	0.000000	0.000000	6.386863	0.070077	NaN	0.000000	0.001602	0.001767	28.0816	0.092047	0.001961	46.928	100.961	-170.316	0.024944	0.385028	-0.691736	-0.692986	0.070077	46.928	-0.692856	-1.562934E+9	-4.483663E-11	NaN
760	1.000000	0.394325	7.37249e+06	-39089.1	1005.82	-29795.1	0.000000	0.000000	6.394908	0.004047	NaN	0.000000	0.001643	0.001801	28.0815	0.031600	0.002004	15.7712	-70.8396	-163.563	-0.049410	0.392988	-0.683689	-0.685026	0.004047	15.7712	-0.683881	-1.178363E+9	-3.434180E-12	NaN
760	1.000000	0.402329	7.37249e+06	-39089.1	1005.82	-29795.1	0.000000	0.000000	6.402914	0.079498	NaN	0.000000	0.001614	0.001760	28.0821	0.068151	0.001931	35.2852	120.681	-166.742	-0.005966	0.401024	-0.675685	-0.676990	0.079498	35.2852	-0.677375	-9.600662E+8	-8.280487E-11	NaN
760	1.000000	0.410316	7.37249e+06	-39089.1	1005.82	-29795.1	0.000000	0.000000	6.410895	-0.072274	NaN	0.000000	0.001615	0.001776	28.0813	0.124554	0.002023	61.5607	172.639	-168.571	-0.012619	0.409021	-0.667698	-0.668993	-0.072274	61.5607	-0.666817	-6.883770E+8	1.049921E-10	NaN
760	1.000000	0.418336	7.37249e+06	-39089.1	1005.82	-29795.1	0.000000	0.000000	6.418918	-0.024697	NaN	0.000000	0.001639	0.001746	28.0821	0.128453	0.001905	67.4333	151.884	-163.916	-0.038140	0.416971	-0.659678	-0.661043	-0.024697	67.4333	-0.659403	-5.448684E+8	4.532701E-11	NaN
760	1.000000	0.426338	7.37249e+06	-39089.1	1005.82	-29795.1	0.000000	0.000000	6.426921	0.000450	NaN	0.000000	0.001577	0.001811	28.0815	0.031492	0.002131	14.7799	-93.2781	-167.09	0.012834	0.424970	-0.651676	-0.653044	0.000450	14.7799	-0.651698	-4.272863E+8	-1.053936E-12	NaN
760	1.000000	0.434331	7.37249e+06	-39089.1	1005.82	-29795.1	0.000000	0.000000	6.434911	-0.064462	NaN	0.000000	0.001540	0.001826	28.0827	0.020526	0.002019	10.1659	48.3867	-168.317	-0.008461	0.432999	-0.643683	-0.645015	-0.064462	10.1659	-0.638927	-2.854761E+8	2.258050E-10	NaN
760	1.000000	0.442336	7.37249e+06	-39089.1	1005.82	-29795.1	0.000000	0.000000	6.442920	0.041003	NaN	0.000000	0.001602	0.001802	28.0834	0.014440	0.002037	7.088790	121.198	-167.515	-0.030973	0.441011	-0.635678	-0.637003	0.041003	7.088790	-0.640016	-2.954674E+8	-1.387738E-10	NaN
760	1.000000	0.450323	7.37249e+06	-39089.1	1005.82	-29795.1	0.000000	0.000000	6.450902	-0.075251	NaN	0.000000	0.001610	0.001812	28.0828	0.044382	0.002036	21.7976	-122.068	-166.626	0.018849	0.449014	-0.627691	-0.629000	-0.075251	21.7976	-0.625102	-1.843933E+8	4.080985E-10	NaN
760	1.000000	0.458318	7.37249e+06	-39089.1	1005.82	-29795.1	0.000000	0.000000	6.458901	0.025097	NaN	0.000000	0.001595	0.001752	28.0829	0.064154	0.002055	31.2253	52.5523	-165.677	0.069012	0.457015	-0.619696	-0.620999	0.025097	31.2253	-0.620299	-1.583955E+8	-1.584460E-10	NaN
760	1.000000	0.466355	7.37249e+06	-39089.1	1005.82	-29795.1	0.000000	0.000000	6.466938	0.017580	NaN	0.000000	0.001598	0.001754	28.0826	0.075386	0.002033	37.0766	128.994	-165.561	-0.024339	0.465090	-0.611659	-0.612924	0.017580	37.0766	-0.612014	-1.218502E+8	-1.442791E-10	NaN
760	1.000000	0.474334	7.37249e+06	-39089.1	1005.82	-29795.1	0.000000	0.000000	6.474917	0.031627	NaN	0.000000	0.001587	0.001762	28.0827	0.046103	0.001923	23.9718	-93.8464	-167.898	-0.010929	0.473023	-0.603680	-0.604990	0.031627	23.9718	-0.604670	-9.655150E+7	-3.275641E-10	NaN
760	1.000000	0.482362	7.37249e+06	-39089.1	1005.82	-29795.1	0.000000	0.000000	6.482947	0.053802	NaN	0.000000	0.001606	0.001765	28.083	0.059294	0.002134	27.7803	174.414	-168.749	0.063085	0.481078	-0.595652	-0.596936	0.053802	27.7803	-0.597104	-7.595848E+7	-7.083112E-10	NaN
760	1.000000	0.490372	7.37249e+06	-39089.1	1005.82	-29795.1	0.000000	0.000000	6.490958	0.097344	NaN	0.000000	0.001595	0.001769	28.0827	0.195939	0.001972	99.35	-114.407	-163.658	0.141099	0.489017	-0.587642	-0.588997	0.097344	99.35	-0.588377	-5.758200E+7	-1.690535E-9	NaN
760	1.000000	0.498361	7.37249e+06	-39089.1	1005.82	-29795.1	0.000000	0.000000	6.498944	0.024934	NaN	0.000000	0.001639	0.001728	28.083	0.085678	0.001955	43.818	-93.6461	-164.462	0.020249	0.497059	-0.579653	-0.580955	0.024934	43.818	-0.580080	-4.424182E+7	-5.635899E-10	NaN
760	1.000000	0.506363	7.37249e+06	-39089.1	1005.82	-29795.1	0.000000	0.000000	6.506947	0.031235	NaN	0.000000	0.001622	0.001753	28.083	0.059865	0.002009	29.8052	146.392	-165.863	-0.059988	0.505038	-0.571651	-0.572976	0.031235	29.8052	-0.572437	-3.469753E+7	-9.002170E-10	NaN
760	1.000000	0.514368	7.37249e+06	-39089.1	1005.82	-29795.1	0.000000	0.000000	6.514950	-0.010173	NaN	0.000000	0.001592	0.001766	28.0829	0.038297	0.002044	18.733	37.5622	-167.169	0.035708	0.513058	-0.563646	-0.564956	-0.010173	18.733	-0.563238	-2.589203E+7	3.928979E-10	NaN
760	1.000000	0.522346	7.37249e+06	-39089.1	1005.82	-29795.1	0.000000	0.000000	6.522928	0.004083	NaN	0.000000	0.001573	0.001750	28.0825	0.069865	0.002058	33.9551	156.931	-164.131	0.082155	0.521064	-0.555668	-0.556950	0.004083	33.9551	-0.555758	-2.040268E+7	-2.001125E-10	NaN
760	1.000000	0.530361	7.37249e+06	-39089.1	1005.82	-29795.1	0.000000	0.000000	6.530942	-0.035861	NaN	0.000000	0.001619	0.001797	28.0828	0.115089	0.002085	55.2102	-90.9737	-165.188	0.008465	0.529064	-0.547653	-0.548950	-0.035861	55.2102	-0.547166	-1.551300E+7	2.311667E-9	NaN
760	1.000000	0.538372	7.37249e+06	-39089.1	1005.82	-29795.1	0.000000	0.000000	6.538955	0.015369	NaN	0.000000	0.001595	0.001729	28.083	0.072403	0.001986	36.4639	169.48	-164.23	0.002211	0.537066	-0.539642	-0.540948	0.015369	36.4639	-0.539958	-1.232470E+7	-1.247042E-9	NaN
760	1.000000	0.546387	7.37249e+06	-39089.1	1005.82	-29795.1	0.000000	0.000000	6.546968	-0.021910	NaN	0.000000	0.001659	0.001753	28.0828	0.096164	0.001917	50.1555	-146.7	-165.152	0.059809	0.545030	-0.531627	-0.532984	-0.021910	50.1555	-0.531300	-9.34593e+06	2.344384E-9	NaN
760	1.000000	0.554356	7.37249e+06	-39089.1	1005.82	-29795.1	0.000000	0.000000	6.554939	0.024759	NaN	0.000000	0.001675	0.001773	28.0828	0.082841	0.002076	39.9131	128.951	-165.328	0.020082	0.553089	-0.523658	-0.524925	0.024759	39.9131	-0.524123	-7.42889e+06	-3.332802E-9	NaN
760	1.000000	0.562363	7.37249e+06	-39089.1	1005.82	-29795.1	0.000000	0.000000	6.562949	0.070171	NaN	0.000000	0.001653	0.001741	28.0828	0.060154	0.002006	29.991	105.215	-165.219	-0.008939	0.561026	-0.515650	-0.516988	0.070171	29.991	-0.517405	-5.99107e+06	-1.171267E-8	NaN
760	1.000000	0.570391	7.37249e+06	-39089.1	1005.82	-29795.1	0.000000	0.000000	6.570974	0.016537	NaN	0.000000	0.001629	0.001791	28.0815	0.120047	0.002055	58.4265	27.5164	-169.145	0.010425	0.569079	-0.507623	-0.508935	0.016537	58.4265	-0.507835	-4.40815e+06	-3.751356E-9	NaN
760	1.000000	0.578360	7.37249e+06	-39089.1	1005.82	-29795.1	0.000000	0.000000	6.578942	-0.016844	NaN	0.000000	0.001599	0.001749	28.0817	0.064708	0.001981	32.6653	-93.9868	-164.472	-0.001605	0.577120	-0.499654	-0.500894	-0.016844	32.6653	-0.499267	-3.34803e+06	5.031141E-9	NaN
760	1.000000	0.586427	7.37249e+06	-39089.1	1005.82	-29795.1	0.000000	0.000000	6.587012	0.052608	NaN	0.000000	0.001590	0.001777	28.0818	0.126965	0.001879	67.5818	-117.694	-167.042	0.022208	0.585122	-0.491587	-0.492892	0.052608	67.5818	-0.492171	-2.66515e+06	-1.973908E-8	NaN
760	1.000000	0.594365	7.37249e+06	-39089.1	1005.82	-29795.1	0.000000	0.000000	6.594949	0.023645	NaN	0.000000	0.001608	0.001785	28.082	0.044184	0.001964	22.4978	61.1508	-168.066	0.025700	0.593127	-0.483648	-0.484886	0.023645	22.4978	-0.484437	-2.07784e+06	-1.137984E-8	NaN
760	1.000000	0.602386	7.37249e+06	-39089.1	1005.82	-29795.1	0.000000	0.000000	6.602966	-0.055754	NaN	0.000000	0.001661	0.001803	28.0817	0.087608	0.002020	43.3634	9.397691	-166.664	-0.030505	0.601074	-0.475628	-0.476940	-0.055754	43.3634	-0.474664	-1.51631e+06	3.676973E-8	NaN
760	1.000000	0.610416	7.37249e+06	-39089.1	1005.82	-29795.1	0.000000	0.000000	6.610999	0.010807	NaN	0.000000	0.001655	0.001739	28.0817	0.053766	0.002099	25.6112	-133.27	-167.457	0.074460	0.609081	-0.467597	-0.468933	0.010807	25.6112	-0.467914	-1.2194e+06	-8.862961E-9	NaN
760	1.000000	0.618408	7.37249e+06	-39089.1	1005.82	-29795.1	0.000000	0.000000	6.618989	-0.024758	NaN	0.000000	0.001614	0.001754	28.082	0.039547	0.001914	20.6646	-139.355	-163.464	0.026227	0.617083	-0.459606	-0.460931	-0.024758	20.6646	-0.458708	-905426	2.734436E-8	NaN
760	1.000000	0.626410	7.37249e+06	-39089.1	1005.82	-29795.1	0.000000	0.000000	6.626994	0.041234	NaN	0.000000	0.001621	0.001789	28.0816	0.149268	0.002093	71.3225	-132.535	-164.705	0.011854	0.625087	-0.451604	-0.452927	0.041234	71.3225	-0.452037	-729506	-5.652277E-8	NaN
760	1.000000	0.634409	7.37249e+06	-39089.1	1005.82	-29795.1	0.000000	0.000000	6.634990	-0.014309	NaN	0.000000	0.001585	0.001768	28.0818	0.012228	0.001991	6.140271	24.4187	-166.883	-0.074973	0.633144	-0.443605	-0.444870	-0.014309	6.140271	-0.441858	-524295	2.729163E-8	NaN
760	1.000000	0.642426	7.37249e+06	-39089.1	1005.82	-29795.1	0.000000	0.000000	6.643008	-0.009637	NaN	0.000000	0.001562	0.001736	28.0815	0.097592	0.001939	50.3273	142.553	-165.752	0.001052	0.641121	-0.435588	-0.436893	-0.009637	50.3273	-0.435445	-425633	2.264187E-8	NaN
760	1.000000	0.650429	7.37249e+06	-39089.1	1005.82	-29795.1	0.000000	0.000000	6.651009	-0.055787	NaN	0.000000	0.001564	0.001781	28.0819	0.010390	0.001970	5.275306	170.772	-165.766	-0.046186	0.649132	-0.427585	-0.428882	-0.055787	5.275306	-0.419654	-254391	2.192953E-7	NaN
760	1.000000	0.658407	7.37249e+06	-39089.1	1005.82	-29795.1	0.000000	0.000000	6.658988	-0.050767	NaN	0.000000	0.001605	0.001757	28.0816	0.089031	0.002027	43.9145	162.522	-165.488	-0.066392	0.657101	-0.419607	-0.420913	-0.050767	43.9145	-0.418740	-246909	2.056082E-7	NaN
760	1.000000	0.666413	7.37249e+06	-39089.1	1005.82	-29795.1	0.000000	0.000000	6.666991	-0.088766	NaN	0.000000	0.001646	0.001779	28.0816	0.110305	0.001857	59.3855	-54.2557	-165.198	-0.029405	0.665103	-0.411601	-0.412911	-0.088766	59.3855	-0.410480	-188465	4.709924E-7	NaN
760	1.000000	0.674415	7.37249e+06	-39089.1	1005.82	-29795.1	0.000000	0.000000	6.674996	-0.024599	NaN	0.000000	0.001594	0.001794	28.0819	0.103055	0.001901	54.2059	50.2354	-165.891	-0.032900	0.673052	-0.403599	-0.404962	-0.024599	54.2059	-0.403259	-148746	1.653735E-7	NaN
760	1.000000	0.682432	7.37249e+06	-39089.1	1005.82	-29795.1	0.000000	0.000000	6.683013	-0.047101	NaN	0.000000	0.001620	0.001771	28.0816	0.134620	0.002031	66.2945	-63.9218	-167.818	0.075194	0.681092	-0.395582	-0.396922	-0.047101	66.2945	-0.395049	-113588	4.146695E-7	NaN
760	1.000000	0.690448	7.37249e+06	-39089.1	1005.82	-29795.1	0.000000	0.000000	6.691031	0.001479	NaN	0.000000	0.001589	0.001757	28.0824	0.071709	0.001959	36.6001	-161.645	-166.981	-0.031766	0.689112	-0.387566	-0.388901	0.001479	36.6001	-0.387596	-88872.4	-1.664079E-8	NaN
760	1.000000	0.698442	7.37249e+06	-39089.1	1005.82	-29795.1	0.000000	0.000000	6.699024	-0.002715	NaN	0.000000	0.001622	0.001786	28.0816	0.083930	0.002111	39.7551	93.5277	-167.763	-0.002489	0.697078	-0.379572	-0.380936	-0.002715	39.7551	-0.379521	-68079.5	3.988063E-8	NaN
760	1.000000	0.706441	7.37249e+06	-39089.1	1005.82	-29795.1	0.000000	0.000000	6.707024	0.002859	NaN	0.000000	0.001580	0.001802	28.0827	0.038893	0.001962	19.8196	134.356	-164.596	0.021874	0.705159	-0.371573	-0.372855	0.002859	19.8196	-0.371681	-52520.3	-5.443732E-8	NaN
760	1.000000	0.714455	7.37249e+06	-39089.1	1005.82	-29795.1	0.000000	0.000000	6.715038	0.003122	NaN	0.000000	0.001617	0.001780	28.0838	0.080290	0.002069	38.8094	-148.356	-167.085	0.037914	0.713117	-0.363559	-0.364897	0.003122	38.8094	-0.363619	-40190.4	-7.767926E-8	NaN
760	1.000000	0.722445	7.37249e+06	-39089.1	1005.82	-29795.1	0.000000	0.000000	6.723027	-0.023372	NaN	0.000000	0.001643	0.001756	28.0829	0.075707	0.001975	38.3353	-165.299	-164.22	-0.004047	0.721136	-0.355569	-0.356878	-0.023372	38.3353	-0.355111	-30276.7	7.719330E-7	NaN
760	1.000000	0.730448	7.37249e+06	-39089.1	1005.82	-29795.1	0.000000	0.000000	6.731029	-0.047113	NaN	0.000000	0.001612	0.001770	28.0836	0.015144	0.002048	7.395613	83.4985	-164.448	0.037164	0.729151	-0.347566	-0.348863	-0.047113	7.395613	-0.342788	-20052.4	2.349475E-6	NaN
760	1.000000	0.738449	7.37249e+06	-39089.1	1005.82	-29795.1	0.000000	0.000000	6.739032	0.024996	NaN	0.000000	0.001662	0.001776	28.0829	0.129215	0.001925	67.1104	-179.755	-167.705	0.049784	0.737131	-0.339565	-0.340883	0.024996	67.1104	-0.339844	-18167.1	-1.375905E-6	NaN
760	1.000000	0.746450	7.37249e+06	-39089.1	1005.82	-29795.1	0.000000	0.000000	6.747030	-0.039617	NaN	0.000000	0.001600	0.001753	28.083	0.038876	0.002153	18.0597	-4.720415	-164.383	0.035551	0.745185	-0.331564	-0.332829	-0.039617	18.0597	-0.329919	-13009.7	3.045186E-6	NaN
760	1.000000	0.754425	7.37249e+06	-39089.1	1005.82	-29795.1	0.000000	0.000000	6.755007	-0.007350	NaN	0.000000	0.001604	0.001761	28.0831	0.133460	0.002041	65.3743	32.1787	-166.543	0.041729	0.753172	-0.323589	-0.324842	-0.007350	65.3743	-0.323505	-10475.7	7.016413E-7	NaN
760	1.000000	0.762418	7.37249e+06	-39089.1	1005.82	-29795.1	0.000000	0.000000	6.762998	-0.052324	NaN	0.000000	0.001581	0.001765	28.083	0.026316	0.002118	12.4229	-136.15	-167.147	-0.024916	0.761113	-0.315596	-0.316901	-0.052324	12.4229	-0.312437	-7196.08	7.271120E-6	NaN
760	1.000000	0.770462	7.37249e+06	-39089.1	1005.82	-29795.1	0.000000	0.000000	6.771042	-0.042354	NaN	0.000000	0.001631	0.001728	28.0832	0.058716	0.002050	28.6409	-92.8168	-167.129	-0.039515	0.769179	-0.307552	-0.308835	-0.042354	28.6409	-0.306443	-5866.33	7.219900E-6	NaN
760	1.000000	0.778452	7.37249e+06	-39089.1	1005.82	-29795.1	0.000000	0.000000	6.779035	0.013363	NaN	0.000000	0.001597	0.001784	28.0831	0.102472	0.001929	53.1213	158.006	-169.78	-0.005224	0.777192	-0.299562	-0.300822	0.013363	53.1213	-0.299750	-4665.75	-2.864002E-6	NaN
760	1.000000	0.786452	7.37249e+06	-39089.1	1005.82	-29795.1	0.000000	0.000000	6.787035	0.009097	NaN	0.000000	0.001597	0.001779	28.0833	0.058844	0.001936	30.3972	-157.45	-167.083	-0.032293	0.785215	-0.291562	-0.292799	0.009097	30.3972	-0.291786	-3548.53	-2.563617E-6	NaN
760	1.000000	0.794503	7.37249e+06	-39089.1	1005.82	-29795.1	0.000000	0.000000	6.795084	-0.040984	NaN	0.000000	0.001594	0.001786	28.0828	0.080247	0.001923	41.7259	162.124	-167.671	-0.005722	0.793161	-0.283511	-0.284853	-0.040984	41.7259	-0.282774	-2598.87	1.577005E-5	NaN
760	1.000000	0.802467	7.37249e+06	-39089.1	1005.82	-29795.1	0.000000	0.000000	6.803049	-6.850696E-5	NaN	0.000000	0.001620	0.001770	28.0829	0.023100	0.001956	11.8111	-40.6794	-163.773	-0.015484	0.801186	-0.275547	-0.276828	-6.850696E-5	11.8111	-0.275543	-2021.22	3.389387E-8	NaN
760	1.000000	0.810500	7.37249e+06	-39089.1	1005.82	-29795.1	0.000000	0.000000	6.811080	-0.059930	NaN	0.000000	0.001580	0.001802	28.083	0.035210	0.001995	17.6526	-161.968	-161.596	-0.027929	0.809191	-0.267514	-0.268823	-0.059930	17.6526	-0.264968	-1396.05	4.292832E-5	NaN
760	1.000000	0.818471	7.37249e+06	-39089.1	1005.82	-29795.1	0.000000	0.000000	6.819054	0.022258	NaN	0.000000	0.001571	0.001753	28.083	0.064704	0.001865	34.6942	102.551	-165.475	0.054066	0.817167	-0.259543	-0.260847	0.022258	34.6942	-0.260025	-1172.99	-1.897518E-5	NaN
760	1.000000	0.826487	7.37249e+06	-39089.1	1005.82	-29795.1	0.000000	0.000000	6.827067	-0.050357	NaN	0.000000	0.001588	0.001810	28.0832	0.080983	0.001929	41.9903	-39.4142	-166.507	-0.119707	0.825215	-0.251527	-0.252799	-0.050357	41.9903	-0.250627	-840.749	5.989535E-5	NaN
760	1.000000	0.834489	7.37249e+06	-39089.1	1005.82	-29795.1	0.000000	0.000000	6.835068	-0.086523	NaN	0.000000	0.001603	0.001785	28.0831	0.107551	0.001956	54.9847	-114.553	-166.589	-0.067881	0.833180	-0.243525	-0.244834	-0.086523	54.9847	-0.242344	-625.355	0.000138	NaN
760	1.000000	0.842477	7.37249e+06	-39089.1	1005.82	-29795.1	0.000000	0.000000	6.843060	0.016886	NaN	0.000000	0.001589	0.001815	28.082	0.060279	0.002009	30.0053	-175.445	-166.1	-0.044534	0.841239	-0.235537	-0.236775	0.016886	30.0053	-0.235959	-496.93	-3.398146E-5	NaN
760	1.000000	0.850539	7.37249e+06	-39089.1	1005.82	-29795.1	0.000000	0.000000	6.851120	-0.045686	NaN	0.000000	0.001606	0.001784	28.0816	0.100450	0.002077	48.36	-76.2369	-164.825	-0.065737	0.849128	-0.227474	-0.228886	-0.045686	48.36	-0.226766	-355.921	0.000128	NaN
760	1.000000	0.858535	7.37249e+06	-39089.1	1005.82	-29795.1	0.000000	0.000000	6.859114	-0.078368	NaN	0.000000	0.001633	0.001797	28.0815	0.145223	0.001933	75.1165	-101.284	-168	-0.108137	0.857209	-0.219479	-0.220805	-0.078368	75.1165	-0.218697	-264.749	0.000296	NaN
760	1.000000	0.866489	7.37249e+06	-39089.1	1005.82	-29795.1	0.000000	0.000000	6.867069	-0.041840	NaN	0.000000	0.001602	0.001771	28.0826	0.041124	0.001930	21.3105	-70.9839	-167.702	-0.036254	0.865229	-0.211525	-0.212785	-0.041840	21.3105	-0.210053	-192.165	0.000218	NaN
760	1.000000	0.874496	7.37249e+06	-39089.1	1005.82	-29795.1	0.000000	0.000000	6.875076	-0.039607	NaN	0.000000	0.001562	0.001768	28.0819	0.078431	0.002125	36.9065	179.343	-162.684	-0.011419	0.873150	-0.203518	-0.204864	-0.039607	36.9065	-0.202713	-145.949	0.000271	NaN
760	1.000000	0.882510	7.37249e+06	-39089.1	1005.82	-29795.1	0.000000	0.000000	6.883089	-0.085487	NaN	0.000000	0.001591	0.001781	28.0815	0.029334	0.001918	15.2917	-81.5828	-165.384	-0.018077	0.881203	-0.195504	-0.196811	-0.085487	15.2917	-0.191311	-94.6038	0.000904	NaN
760	1.000000	0.890510	7.37249e+06	-39089.1	1005.82	-29795.1	0.000000	0.000000	6.891092	-0.019222	NaN	0.000000	0.001591	0.001734	28.0815	0.123916	0.001948	63.6036	49.696	-164.507	0.045782	0.889187	-0.187504	-0.188827	-0.019222	63.6036	-0.187277	-80.9897	0.000237	NaN
760	1.000000	0.898508	7.37249e+06	-39089.1	1005.82	-29795.1	0.000000	0.000000	6.899091	0.028285	NaN	0.000000	0.001592	0.001777	28.0815	0.061458	0.001893	32.4732	-161.165	-164.638	-0.025957	0.897242	-0.179506	-0.180772	0.028285	32.4732	-0.180159	-61.4016	-0.000461	NaN
760	1.000000	0.906499	7.37249e+06	-39089.1	1005.82	-29795.1	0.000000	0.000000	6.907084	0.050308	NaN	0.000000	0.001602	0.001761	28.0817	0.060565	0.002120	28.5657	77.0507	-168.084	-0.002344	0.905253	-0.171515	-0.172761	0.050308	28.5657	-0.172836	-45.9943	-0.001094	NaN
760	1.000000	0.914495	7.37249e+06	-39089.1	1005.82	-29795.1	0.000000	0.000000	6.915076	-0.033500	NaN	0.000000	0.001552	0.001769	28.0814	0.020826	0.002053	10.1444	-146.848	-165.859	-0.007617	0.913265	-0.163519	-0.164749	-0.033500	10.1444	-0.161042	-28.6074	0.001171	NaN
760	1.000000	0.922561	7.37249e+06	-39089.1	1005.82	-29795.1	0.000000	0.000000	6.923143	-0.014613	NaN	0.000000	0.001565	0.001747	28.0819	0.096128	0.001991	48.2742	108.161	-165.035	0.067860	0.921192	-0.155453	-0.156822	-0.014613	48.2742	-0.155226	-22.5237	0.000649	NaN
760	1.000000	0.930523	7.37249e+06	-39089.1	1005.82	-29795.1	0.000000	0.000000	6.931103	-0.046556	NaN	0.000000	0.001558	0.001761	28.0815	0.078808	0.001896	41.5555	-86.1011	-167.135	-0.008607	0.929211	-0.147491	-0.148803	-0.046556	41.5555	-0.146651	-15.7267	0.002960	NaN
760	1.000000	0.938537	7.37249e+06	-39089.1	1005.82	-29795.1	0.000000	0.000000	6.939120	0.025478	NaN	0.000000	0.001590	0.001732	28.0817	0.027040	0.002051	13.1848	22.8904	-165.905	0.056562	0.937226	-0.139477	-0.140788	0.025478	13.1848	-0.140926	-12.3124	-0.002069	NaN
760	1.000000	0.946532	7.37249e+06	-39089.1	1005.82	-29795.1	0.000000	0.000000	6.947116	0.037282	NaN	0.000000	0.001577	0.001765	28.0815	0.113751	0.001999	56.9095	158.863	-163.613	0.045823	0.945200	-0.131482	-0.132814	0.037282	56.9095	-0.131973	-8.321492	-0.004480	NaN
760	1.000000	0.954556	7.37249e+06	-39089.1	1005.82	-29795.1	0.000000	0.000000	6.955137	-0.032842	NaN	0.000000	0.001576	0.001764	28.0816	0.074268	0.002006	37.019	-48.8917	-167.295	-0.049468	0.953221	-0.123458	-0.124793	-0.032842	37.019	-0.122792	-5.496937	0.005975	NaN
760	1.000000	0.962563	7.37249e+06	-39089.1	1005.82	-29795.1	0.000000	0.000000	6.963144	-0.031607	NaN	0.000000	0.001624	0.001789	28.082	0.077520	0.001916	40.4694	103.668	-165.619	0.028539	0.961224	-0.115451	-0.116790	-0.031607	40.4694	-0.114865	-3.795965	0.008326	NaN
760	1.000000	0.970558	7.37249e+06	-39089.1	1005.82	-29795.1	0.000000	0.000000	6.971140	3.094870E-5	NaN	0.000000	0.001578	0.001834	28.0816	0.053482	0.002009	26.6164	126.925	-167.982	0.010603	0.969220	-0.107456	-0.108794	3.094870E-5	26.6164	-0.107457	-2.654133	-1.166057E-5	NaN
760	1.000000	0.978601	7.37249e+06	-39089.1	1005.82	-29795.1	0.000000	0.000000	6.979183	-0.020213	NaN	0.000000	0.001551	0.001775	28.0827	0.162057	0.002071	78.2574	-1.282946	-166.643	0.037895	0.977257	-0.099413	-0.100757	-0.020213	78.2574	-0.099219	-1.755587	0.011514	NaN
760	1.000000	0.986551	7.37249e+06	-39089.1	1005.82	-29795.1	0.000000	0.000000	6.987135	0.028282	NaN	0.000000	0.001586	0.001722	28.0828	0.139704	0.001960	71.2821	63.9686	-165.673	0.022798	0.985245	-0.091463	-0.092769	0.028282	71.2821	-0.091760	-1.188241	-0.023801	NaN
760	1.000000	0.994549	7.37249e+06	-39089.1	1005.82	-29795.1	0.000000	0.000000	6.995132	0.013689	NaN	0.000000	0.001582	0.001781	28.0829	0.009936	0.001948	5.099567	163.119	-166.455	0.053112	0.993238	-0.083465	-0.084776	0.013689	5.099567	-0.085478	-0.843800	-0.016222	NaN
760	1.000000	1.002588	7.37249e+06	-39089.1	1005.82	-29795.1	0.000000	0.000000	7.003169	-0.040308	NaN	0.000000	0.001550	0.001821	28.0831	0.068244	0.002007	34.0102	-144.111	-168.253	-0.126280	1.001244	-0.075426	-0.076770	-0.040308	34.0102	-0.074537	-0.449293	0.089714	NaN
760	1.000000	1.010563	7.37249e+06	-39089.1	1005.82	-29795.1	0.000000	0.000000	7.011144	-0.028863	NaN	0.000000	0.001602	0.001808	28.083	0.124889	0.001986	62.8954	-81.0061	-164.927	0.046791	1.009178	-0.067451	-0.068836	-0.028863	62.8954	-0.067107	-0.284834	0.101334	NaN
760	1.000000	1.018540	7.37249e+06	-39089.1	1005.82	-29795.1	0.000000	0.000000	7.019123	0.014252	NaN	0.000000	0.001602	0.001788	28.0832	0.114640	0.002130	53.8195	-161.036	-166.846	0.019425	1.017239	-0.059474	-0.060775	0.014252	53.8195	-0.059673	-0.176236	-0.080867	NaN
760	1.000000	1.026562	7.37249e+06	-39089.1	1005.82	-29795.1	0.000000	0.000000	7.027145	0.026500	NaN	0.000000	0.001600	0.001794	28.083	0.082098	0.001981	41.4378	-159.734	-164.265	-0.008679	1.025268	-0.051452	-0.052746	0.026500	41.4378	-0.051932	-0.104336	-0.253992	NaN
760	1.000000	1.034573	7.37249e+06	-39089.1	1005.82	-29795.1	0.000000	0.000000	7.035151	-0.115488	NaN	0.000000	0.001610	0.001770	28.083	0.117406	0.001969	59.6138	-58.6215	-168.36	0.022070	1.033273	-0.043441	-0.044741	-0.115488	59.6138	-0.041988	-0.051988	2.221441	NaN
760	1.000000	1.042600	7.37249e+06	-39089.1	1005.82	-29795.1	0.000000	0.000000	7.043183	0.021371	NaN	0.000000	0.001629	0.001800	28.0833	0.052332	0.001985	26.3624	1.806454	-166.354	0.039675	1.041297	-0.035414	-0.036717	0.021371	26.3624	-0.036022	-0.034333	-0.622467	NaN
760	1.000000	1.050553	7.37249e+06	-39089.1	1005.82	-29795.1	0.000000	0.000000	7.051136	0.028183	NaN	0.000000	0.001627	0.001752	28.083	0.131958	0.001966	67.1248	-18.6004	-161.579	-0.007717	1.049296	-0.027461	-0.028718	0.028183	67.1248	-0.027776	-0.019994	-1.409595	NaN
760	1.000000	1.058602	7.37249e+06	-39089.1	1005.82	-29795.1	0.000000	0.000000	7.059182	-0.049695	NaN	0.000000	0.001601	0.001787	28.0834	0.030923	0.001911	16.1774	-132.658	-168.069	-0.082329	1.057298	-0.019412	-0.020716	-0.049695	16.1774	-0.017108	-0.010580	4.697193	NaN
760	1.000000	1.066603	7.37249e+06	-39089.1	1005.82	-29795.1	0.000000	0.000000	7.067187	0.022971	NaN	0.000000	0.001655	0.001808	28.0829	0.082717	0.001963	42.1464	45.2281	-166.231	0.096441	1.065285	-0.011411	-0.012729	0.022971	42.1464	-0.011820	-0.007425	-3.093495	NaN
760	1.000000	1.074582	7.37249e+06	-39089.1	1005.82	-29795.1	0.000000	0.000000	7.075179	0.375897	NaN	0.000000	0.001650	0.001787	28.0832	0.483479	0.002023	238.988	17.8691	-165.275	0.197134	1.073243	-0.003432	-0.004771	0.375897	238.988	-0.004612	-0.003171	-118.524	NaN
760	1.000000	1.082494	7.37249e+06	-39089.1	1005.82	-29795.1	0.000000	0.000000	7.083370	7.155164	NaN	0.000000	0.001611	0.001762	28.0834	6.718793	0.001752	3834.14	7.718841	-169.039	5.639573	1.081252	0.004480	0.003238	7.155164	3834.14	0.003080	0.002448	2923.3	70805.6
760	2.000000	1.085292	7.37249e+06	-39089.1	1005.82	-29795.1	0.000000	0.000000	7.086171	7.238697	NaN	0.000000	0.001596	0.001770	28.0831	8.466025	0.001696	4992.94	12.181	-176.217	7.593634	1.085064	0.007278	0.007050	7.238697	4992.94	0.006190	0.005246	1379.85	62981.8
760	2.000000	1.087227	7.37249e+06	-39089.1	1005.82	-29795.1	0.000000	0.000000	7.088247	10.6658	NaN	0.000000	0.001642	0.001753	28.0836	11.3643	0.001714	6631.98	5.797840	-173.407	9.565364	1.086946	0.009213	0.008932	10.6658	6631.98	0.008007	0.007049	1513.05	72168.3
760	2.000000	1.089251	7.37249e+06	-39089.1	1005.82	-29795.1	0.000000	0.000000	7.090326	11.9713	NaN	0.000000	0.001638	0.001762	28.083	13.1101	0.001824	7187.01	9.583271	-175.106	10.8253	1.088946	0.011237	0.010932	11.9713	7187.01	0.009988	0.009168	1305.74	68577.1
760	2.000000	1.091195	7.37249e+06	-39089.1	1005.82	-29795.1	0.000000	0.000000	7.092383	14.7459	NaN	0.000000	0.001615	0.001732	28.0831	15.3389	0.001736	8837.08	8.134694	-177.004	13.7814	1.090965	0.013181	0.012951	14.7459	8837.08	0.011929	0.011405	1292.91	75601.6
760	2.000000	1.093236	7.37249e+06	-39089.1	1005.82	-29795.1	0.000000	0.000000	7.094697	21.3773	NaN	0.000000	0.001632	0.001755	28.0822	18.0192	0.001734	10390.4	11.0166	-179.118	22.1428	1.092842	0.015222	0.014828	21.3773	10390.4	0.013679	0.013565	1575.97	81508.1
760	2.000000	1.095237	7.37249e+06	-39089.1	1005.82	-29795.1	0.000000	0.000000	7.096828	24.5521	NaN	0.000000	0.001641	0.001818	28.0819	20.0399	0.001701	11780.2	8.858372	-178.844	24.9118	1.094886	0.017223	0.016872	24.5521	11780.2	0.015659	0.016175	1517.92	84626.5
760	2.000000	1.097197	7.37249e+06	-39089.1	1005.82	-29795.1	0.000000	0.000000	7.098960	28.7372	NaN	0.000000	0.001560	0.001827	28.0823	22.9207	0.001693	13541.4	6.156065	-179.31	28.6022	1.096947	0.019183	0.018933	28.7372	13541.4	0.017592	0.018898	1520.64	89996.8
760	2.000000	1.099245	7.37249e+06	-39089.1	1005.82	-29795.1	0.000000	0.000000	7.101225	34.0297	NaN	0.000000	0.001594	0.001854	28.0819	25.1935	0.001625	15501.5	6.516122	179.816	35.7205	1.098924	0.021231	0.020910	34.0297	15501.5	0.019584	0.021893	1554.34	95717.8
760	2.000000	1.101193	7.37249e+06	-39089.1	1005.82	-29795.1	0.000000	0.000000	7.103630	45.1138	NaN	0.000000	0.001571	0.001826	28.0822	27.7339	0.001609	17241.2	7.164454	178.632	44.6029	1.100728	0.023179	0.022714	45.1138	17241.2	0.021217	0.024491	1842.08	100656
760	2.000000	1.103239	7.37249e+06	-39089.1	1005.82	-29795.1	0.000000	0.000000	7.105967	52.1985	NaN	0.000000	0.001600	0.001811	28.0819	31.2282	0.001767	17670.3	11.7171	174.403	52.7132	1.102830	0.025225	0.024816	52.1985	17670.3	0.023010	0.027494	1898.52	97363.3
760	2.000000	1.105162	7.37249e+06	-39089.1	1005.82	-29795.1	0.000000	0.000000	7.107960	53.9171	NaN	0.000000	0.001609	0.001802	28.0818	32.2995	0.001785	18094.5	7.179645	177.292	51.3104	1.104827	0.027148	0.026813	53.9171	18094.5	0.024913	0.030858	1747.25	94109.9
760	2.000000	1.107201	7.37249e+06	-39089.1	1005.82	-29795.1	0.000000	0.000000	7.110416	64.0766	NaN	0.000000	0.001587	0.001820	28.0821	33.9535	0.001757	19327.3	8.199828	177.093	65.1716	1.106886	0.029187	0.028873	64.0766	19327.3	0.026700	0.034182	1874.59	95509.8
760	2.000000	1.109186	7.37249e+06	-39089.1	1005.82	-29795.1	0.000000	0.000000	7.112744	72.4096	NaN	0.000000	0.001641	0.001845	28.0819	36.0745	0.001876	19231.7	8.974675	176.451	72.5358	1.108741	0.031172	0.030727	72.4096	19231.7	0.028349	0.037391	1936.58	90867.8
760	2.000000	1.111166	7.37249e+06	-39089.1	1005.82	-29795.1	0.000000	0.000000	7.114862	75.7802	NaN	0.000000	0.001595	0.001832	28.0825	37.1406	0.001693	21937.6	4.721363	178.619	75.0743	1.110863	0.033152	0.032849	75.7802	21937.6	0.030561	0.041914	1807.99	97899.8
760	2.000000	1.113132	7.37249e+06	-39089.1	1005.82	-29795.1	0.000000	0.000000	7.116980	79.4564	NaN	0.000000	0.001580	0.001845	28.0817	40.4849	0.001820	22240.3	5.084815	177.865	78.5231	1.112841	0.035118	0.034827	79.4564	22240.3	0.032439	0.045950	1729.18	94791.5
760	2.000000	1.115150	7.37249e+06	-39089.1	1005.82	-29795.1	0.000000	0.000000	7.119408	89.4413	NaN	0.000000	0.001604	0.001798	28.0818	41.5711	0.001667	24933.2	4.843323	176.3	88.4801	1.114928	0.037136	0.036914	89.4413	24933.2	0.034446	0.050464	1772.38	101405
760	2.000000	1.117167	7.37249e+06	-39089.1	1005.82	-29795.1	0.000000	0.000000	7.121980	102.957	NaN	0.000000	0.001608	0.001815	28.0823	44.5481	0.001773	25127	2.521217	178.897	103.571	1.116849	0.039153	0.038835	102.957	25127	0.036080	0.054291	1896.4	98525.9
760	2.000000	1.119166	7.37249e+06	-39089.1	1005.82	-29795.1	0.000000	0.000000	7.124204	108.441	NaN	0.000000	0.001598	0.001825	28.0819	47.3379	0.001924	24598.9	8.515825	173.558	108.249	1.118897	0.041152	0.040883	108.441	24598.9	0.037846	0.058579	1851.19	92857.5
760	2.000000	1.121163	7.37249e+06	-39089.1	1005.82	-29795.1	0.000000	0.000000	7.126758	121.985	NaN	0.000000	0.001573	0.001780	28.0824	48.3723	0.001763	27434.3	4.120950	176.426	120.879	1.120794	0.043149	0.042780	121.985	27434.3	0.039814	0.063549	1919.54	99428.9
760	2.000000	1.123156	7.37249e+06	-39089.1	1005.82	-29795.1	0.000000	0.000000	7.129049	129.223	NaN	0.000000	0.001572	0.001793	28.0817	51.5341	0.001843	27959.5	8.458897	172.438	129.004	1.122910	0.045142	0.044896	129.223	27959.5	0.041676	0.068432	1888.35	97650.3
760	2.000000	1.125152	7.37249e+06	-39089.1	1005.82	-29795.1	0.000000	0.000000	7.131890	149.805	NaN	0.000000	0.001569	0.001783	28.082	52.332	0.001781	29390.1	6.131164	174.459	149.236	1.124758	0.047138	0.046744	149.805	29390.1	0.043315	0.072877	2055.59	99467.1
760	2.000000	1.127093	7.37249e+06	-39089.1	1005.82	-29795.1	0.000000	0.000000	7.134067	155.523	NaN	0.000000	0.001609	0.001793	28.0831	55.2384	0.001865	29622.3	6.182249	173.63	152.201	1.126830	0.049079	0.048816	155.523	29622.3	0.045142	0.077990	1994.13	96910.7
760	2.000000	1.129248	7.37249e+06	-39089.1	1005.82	-29795.1	0.000000	0.000000	7.136646	165.868	NaN	0.000000	0.001593	0.001804	28.0831	56.5685	0.001698	33314.8	4.797007	174.466	168.658	1.128907	0.051234	0.050893	165.868	33314.8	0.047500	0.084842	1955.02	104497
760	2.000000	1.131065	7.37249e+06	-39089.1	1005.82	-29795.1	0.000000	0.000000	7.139248	184.969	NaN	0.000000	0.001653	0.001750	28.0834	58.2962	0.001834	31780.1	6.070269	174.384	181.172	1.130749	0.053051	0.052735	184.969	31780.1	0.048685	0.088393	2092.57	97660.6
760	2.000000	1.133113	7.37249e+06	-39089.1	1005.82	-29795.1	0.000000	0.000000	7.141718	195.23	NaN	0.000000	0.001639	0.001787	28.0831	61.1527	0.001695	36079.3	7.192306	170.918	193.231	1.132822	0.055099	0.054808	195.23	36079.3	0.051041	0.095658	2040.92	106579
760	2.000000	1.135104	7.37249e+06	-39089.1	1005.82	-29795.1	0.000000	0.000000	7.144464	213.589	NaN	0.000000	0.001607	0.001801	28.0831	61.1546	0.001797	34036.3	6.327082	173.295	211.409	1.134833	0.057090	0.056819	213.589	34036.3	0.052384	0.099924	2137.52	98374.2
760	2.000000	1.137085	7.37249e+06	-39089.1	1005.82	-29795.1	0.000000	0.000000	7.146894	224.521	NaN	0.000000	0.001620	0.001749	28.0832	63.6286	0.001746	36438.9	4.167875	174.557	222.021	1.136728	0.059071	0.058714	224.521	36438.9	0.054450	0.106662	2104.97	101937
760	2.000000	1.139206	7.37249e+06	-39089.1	1005.82	-29795.1	0.000000	0.000000	7.149498	236.287	NaN	0.000000	0.001572	0.001756	28.0829	66.1482	0.001792	36918.8	5.038481	174.055	236.491	1.138735	0.061192	0.060721	236.287	36918.8	0.056392	0.113189	2087.54	100258
760	2.000000	1.141128	7.37249e+06	-39089.1	1005.82	-29795.1	0.000000	0.000000	7.152046	251.522	NaN	0.000000	0.001589	0.001772	28.0832	68.3219	0.001764	38740.8	5.609705	172.401	249.902	1.140792	0.063114	0.062778	251.522	38740.8	0.058245	0.119591	2103.18	102351
760	2.000000	1.143084	7.37249e+06	-39089.1	1005.82	-29795.1	0.000000	0.000000	7.154783	270.511	NaN	0.000000	0.001608	0.001813	28.0828	71.7833	0.001752	40976.7	4.644183	172.9	268.121	1.142834	0.065070	0.064820	270.511	40976.7	0.060119	0.126236	2142.9	105370
760	2.000000	1.145152	7.37249e+06	-39089.1	1005.82	-29795.1	0.000000	0.000000	7.157242	280.047	NaN	0.000000	0.001604	0.001772	28.0833	73.2245	0.001840	39804.8	6.331933	171.851	282.049	1.144857	0.067138	0.066843	280.047	39804.8	0.061861	0.132567	2112.49	99882.7
760	2.000000	1.147121	7.37249e+06	-39089.1	1005.82	-29795.1	0.000000	0.000000	7.160053	300.546	NaN	0.000000	0.001579	0.001744	28.083	75.6025	0.001693	44668.3	6.801015	169.897	298.86	1.146857	0.069107	0.068843	300.546	44668.3	0.064060	0.140769	2135.03	108772
760	2.000000	1.149089	7.37249e+06	-39089.1	1005.82	-29795.1	0.000000	0.000000	7.162527	312.851	NaN	0.000000	0.001598	0.001787	28.0831	77.1863	0.001825	42298	3.576696	174.385	309.04	1.148684	0.071075	0.070670	312.851	42298	0.065527	0.146372	2137.38	101010
760	2.000000	1.151107	7.37249e+06	-39089.1	1005.82	-29795.1	0.000000	0.000000	7.165316	331.614	NaN	0.000000	0.001610	0.001749	28.083	78.3567	0.001766	44377	1.915968	175.656	330.583	1.150749	0.073093	0.072735	331.614	44377	0.067489	0.154022	2153.03	103309
760	2.000000	1.153065	7.37249e+06	-39089.1	1005.82	-29795.1	0.000000	0.000000	7.168247	355.276	NaN	0.000000	0.001589	0.001745	28.0829	82.29	0.001988	41390.3	6.516842	171.592	351.256	1.152716	0.075051	0.074702	355.276	41390.3	0.068613	0.158493	2241.58	94987.5
760	2.000000	1.155010	7.37249e+06	-39089.1	1005.82	-29795.1	0.000000	0.000000	7.170928	373.199	NaN	0.000000	0.001606	0.001736	28.0835	82.4193	0.001838	44839.4	6.105680	170.746	369.112	1.154692	0.076996	0.076678	373.199	44839.4	0.070754	0.167169	2232.47	100197
760	2.000000	1.157026	7.37249e+06	-39089.1	1005.82	-29795.1	0.000000	0.000000	7.173759	393.037	NaN	0.000000	0.001623	0.001756	28.0831	84.1158	0.001779	47288.8	5.528510	170.664	387.569	1.156719	0.079012	0.078705	393.037	47288.8	0.072778	0.175572	2238.61	103111
760	2.000000	1.159031	7.37249e+06	-39089.1	1005.82	-29795.1	0.000000	0.000000	7.175874	395.703	NaN	0.000000	0.001584	0.001751	28.0831	85.6077	0.001780	48094.2	2.896569	173.976	388.452	1.158682	0.081017	0.080668	395.703	48094.2	0.074847	0.184360	2146.36	102337
760	2.000000	1.161070	7.37249e+06	-39089.1	1005.82	-29795.1	0.000000	0.000000	7.179035	423.008	NaN	0.000000	0.001635	0.001818	28.0817	87.7509	0.001762	49803	5.512407	170.574	419.34	1.160728	0.083056	0.082714	423.008	49803	0.076686	0.192343	2199.23	103750
760	2.000000	1.163034	7.37249e+06	-39089.1	1005.82	-29795.1	0.000000	0.000000	7.182025	447.969	NaN	0.000000	0.001622	0.001787	28.0817	91.4448	0.001824	50121.8	8.355287	168.236	444.616	1.162718	0.085020	0.084704	447.969	50121.8	0.078317	0.199556	2244.83	102510
760	2.000000	1.165008	7.37249e+06	-39089.1	1005.82	-29795.1	0.000000	0.000000	7.184993	472.17	NaN	0.000000	0.001641	0.001763	28.082	91.2273	0.001737	52533	6.077133	169.292	465.783	1.164720	0.086994	0.086706	472.17	52533	0.080253	0.208277	2267.03	105168
760	2.000000	1.167146	7.37249e+06	-39089.1	1005.82	-29795.1	0.000000	0.000000	7.186605	459.385	NaN	0.000000	0.001659	0.001755	28.0822	93.772	0.001781	52651	6.935629	168.355	458.397	1.166849	0.089132	0.088835	459.385	52651	0.082588	0.219029	2097.37	102785
760	2.000000	1.169212	7.37249e+06	-39089.1	1005.82	-29795.1	0.000000	0.000000	7.190392	501.25	NaN	0.000000	0.001641	0.001788	28.082	95.4319	0.001753	54440.8	5.060750	171.261	504.7	1.168641	0.091198	0.090627	501.25	54440.8	0.084293	0.227040	2207.76	104387
760	2.000000	1.171021	7.37249e+06	-39089.1	1005.82	-29795.1	0.000000	0.000000	7.192921	518.775	NaN	0.000000	0.001655	0.001755	28.0816	97.5917	0.001852	52688.3	4.710672	171.237	513.213	1.170679	0.093007	0.092665	518.775	52688.3	0.085623	0.233381	2222.87	99644.8
760	2.000000	1.173204	7.37249e+06	-39089.1	1005.82	-29795.1	0.000000	0.000000	7.195713	533.602	NaN	0.000000	0.001637	0.001744	28.0819	100.07	0.001765	56697.5	4.379542	171.469	540.995	1.172787	0.095190	0.094773	533.602	56697.5	0.088131	0.245564	2172.96	104533
760	2.000000	1.175000	7.37249e+06	-39089.1	1005.82	-29795.1	0.000000	0.000000	7.198667	561.771	NaN	0.000000	0.001599	0.001783	28.0822	100.537	0.001839	54676.3	6.109960	169.577	556.572	1.174679	0.096986	0.096665	561.771	54676.3	0.089280	0.251241	2235.99	99661.3
760	2.000000	1.176975	7.37249e+06	-39089.1	1005.82	-29795.1	0.000000	0.000000	7.201477	582.111	NaN	0.000000	0.001662	0.001754	28.0819	102.46	0.001762	58155.2	1.220740	174.182	575.126	1.176724	0.098961	0.098710	582.111	58155.2	0.091453	0.262145	2220.57	103774
760	2.000000	1.179138	7.37249e+06	-39089.1	1005.82	-29795.1	0.000000	0.000000	7.204639	606.398	NaN	0.000000	0.001656	0.001780	28.082	105.285	0.001671	63013.9	4.957952	170.263	605.424	1.178655	0.101124	0.100641	606.398	63013.9	0.093907	0.274713	2207.38	109842
760	2.000000	1.181422	7.37249e+06	-39089.1	1005.82	-29795.1	0.000000	0.000000	7.207219	613.612	NaN	0.000000	0.001663	0.001803	28.0818	107.936	0.001830	58994.1	7.566532	168.167	634.878	1.180935	0.103408	0.102921	613.612	58994.1	0.095607	0.283587	2163.75	101213
760	2.000000	1.181983	7.37249e+06	-39089.1	1005.82	-29795.1	0.000000	0.000000	7.207882	616.106	NaN	0.000000	0.001649	0.001775	28.0819	107.579	0.001913	56221.6	2.129349	173.267	609.928	1.181799	0.103969	0.103785	616.106	56221.6	0.095750	0.284337	2166.82	96329.5