File: remote_trans/data/nanoindenter/0828-1/data/Data_2025-08-06,11h17m57s/2025-07-22_16-23-58_1_571.txt
2025-07-22, 16:23:58, 1
Index	Phase	Displacement	Time	Pos X	Pos Y	Pos Z	Rot A	Rot B	Piezo Z	Force A	Force B	Gripper	Voltage A	Voltage B	Temperature	Amplitude force	Amplitude pos	Stiffness	Phase shift	Phase excitation	Force A raw	Displacement raw	HMax	HMax raw	Real Force	Real Stiffness	Contact Depth	Area	Hardness	Reduced Mod.
[#]	[#]	[um]	[s]	[um]	[um]	[um]	[m°]	[m°]	[um]	[uN]	[uN]	[V]	[V]	[V]	[°C]	[uN]	[um]	[N/m]	[°]	[°]	[uN]	[um]	[um]	[um]	[uN]	[N/m]	[um]	[um^2]	[MPa]	[MPa]
571	1.000000	0.001981	7.37063e+06	-48539.1	1005.82	-29762	0.000000	0.000000	6.002818	-0.043447	NaN	0.000000	0.001602	0.001770	28.0799	0.143708	0.000960	149.669	-123.797	-158.968	-0.055263	0.000695	-1.133789	-1.135075	-0.043447	149.669	-1.133572	-1.414253E+15	3.072081E-17	NaN
571	1.000000	0.012024	7.37063e+06	-48539.1	1005.82	-29762	0.000000	0.000000	6.012863	0.015669	NaN	0.000000	0.001597	0.001758	28.0799	0.054606	0.001283	42.5646	56.226	18.7792	0.018300	0.010583	-1.123746	-1.125187	0.015669	42.5646	-1.124022	-1.053019E+15	-1.488034E-17	NaN
571	1.000000	0.021900	7.37063e+06	-48539.1	1005.82	-29762	0.000000	0.000000	6.022741	0.043594	NaN	0.000000	0.001581	0.001748	28.08	0.089440	0.001707	52.3872	77.7161	-166.98	0.055889	0.020599	-1.113870	-1.115171	0.043594	52.3872	-1.114494	-7.845018E+14	-5.556930E-17	NaN
571	1.000000	0.031880	7.37063e+06	-48539.1	1005.82	-29762	0.000000	0.000000	6.032721	0.053708	NaN	0.000000	0.001568	0.001732	28.0799	0.007005	0.001847	3.791629	116.565	15.4449	0.048222	0.030535	-1.103890	-1.105235	0.053708	3.791629	-1.114513	-7.849667E+14	-6.842036E-17	NaN
571	1.000000	0.041908	7.37063e+06	-48539.1	1005.82	-29762	0.000000	0.000000	6.042745	-0.042382	NaN	0.000000	0.001578	0.001732	28.0801	0.104357	0.002120	49.2324	-62.2308	-161.789	0.067275	0.040625	-1.093862	-1.095145	-0.042382	49.2324	-1.093217	-4.064437E+14	1.042744E-16	NaN
571	1.000000	0.051930	7.37063e+06	-48539.1	1005.82	-29762	0.000000	0.000000	6.052770	0.033574	NaN	0.000000	0.001592	0.001702	28.08	0.027073	0.002083	12.9954	147.903	16.5593	0.041523	0.050558	-1.083840	-1.085211	0.033574	12.9954	-1.085777	-3.229304E+14	-1.039669E-16	NaN
571	1.000000	0.061905	7.37063e+06	-48539.1	1005.82	-29762	0.000000	0.000000	6.062746	0.057668	NaN	0.000000	0.001563	0.001705	28.08	0.052896	0.001974	26.803	-26.5794	-164.82	0.054127	0.060603	-1.073865	-1.075167	0.057668	26.803	-1.075479	-2.348505E+14	-2.455521E-16	NaN
571	1.000000	0.071900	7.37063e+06	-48539.1	1005.82	-29762	0.000000	0.000000	6.072742	0.069566	NaN	0.000000	0.001558	0.001736	28.0799	0.026622	0.002002	13.301	-149.933	13.9008	0.003727	0.070517	-1.063870	-1.065253	0.069566	13.301	-1.067793	-1.851540E+14	-3.757191E-16	NaN
571	1.000000	0.081947	7.37063e+06	-48539.1	1005.82	-29762	0.000000	0.000000	6.082786	0.004152	NaN	0.000000	0.001578	0.001759	28.0814	0.048206	0.002036	23.6807	88.795	-162.455	0.046245	0.080629	-1.053823	-1.055141	0.004152	23.6807	-1.053955	-1.206624E+14	-3.441357E-17	NaN
571	1.000000	0.091952	7.37063e+06	-48539.1	1005.82	-29762	0.000000	0.000000	6.092792	0.019048	NaN	0.000000	0.001569	0.001799	28.0815	0.027444	0.002030	13.5168	99.2972	18.8409	0.042687	0.090581	-1.043818	-1.045189	0.019048	13.5168	-1.044875	-9.109907E+13	-2.090942E-16	NaN
571	1.000000	0.101939	7.37063e+06	-48539.1	1005.82	-29762	0.000000	0.000000	6.102779	0.039278	NaN	0.000000	0.001609	0.001815	28.0816	0.054264	0.002081	26.0818	-79.965	-165.576	0.063356	0.100630	-1.033831	-1.035140	0.039278	26.0818	-1.034961	-6.701906E+13	-5.860698E-16	NaN
571	1.000000	0.111919	7.37063e+06	-48539.1	1005.82	-29762	0.000000	0.000000	6.112759	0.009367	NaN	0.000000	0.001610	0.001770	28.0815	0.039334	0.001945	20.2188	149.186	14.363	0.021443	0.110598	-1.023850	-1.025172	0.009367	20.2188	-1.024198	-4.802099E+13	-1.950534E-16	NaN
571	1.000000	0.121922	7.37063e+06	-48539.1	1005.82	-29762	0.000000	0.000000	6.122759	-0.034569	NaN	0.000000	0.001591	0.001773	28.0819	0.068283	0.001929	35.3976	55.9452	-167.532	-0.028900	0.120584	-1.013848	-1.015186	-0.034569	35.3976	-1.013116	-3.406543E+13	1.014780E-15	NaN
571	1.000000	0.131946	7.37063e+06	-48539.1	1005.82	-29762	0.000000	0.000000	6.132787	0.062661	NaN	0.000000	0.001589	0.001793	28.0814	0.034449	0.001852	18.6056	-50.0016	18.2851	0.052206	0.130594	-1.003824	-1.005176	0.062661	18.6056	-1.006350	-2.762167E+13	-2.268556E-15	NaN
571	1.000000	0.141935	7.37063e+06	-48539.1	1005.82	-29762	0.000000	0.000000	6.142774	0.012046	NaN	0.000000	0.001590	0.001782	28.0816	0.110681	0.001906	58.0619	-161.717	-165.499	0.001753	0.140615	-0.993835	-0.995155	0.012046	58.0619	-0.993991	-1.883027E+13	-6.397408E-16	NaN
571	1.000000	0.151928	7.37063e+06	-48539.1	1005.82	-29762	0.000000	0.000000	6.152766	-0.015305	NaN	0.000000	0.001589	0.001801	28.0816	0.090750	0.002033	44.6428	-110.08	12.5933	0.015904	0.150574	-0.983842	-0.985196	-0.015305	44.6428	-0.983585	-1.363650E+13	1.122332E-15	NaN
571	1.000000	0.161952	7.37063e+06	-48539.1	1005.82	-29762	0.000000	0.000000	6.162792	0.029260	NaN	0.000000	0.001634	0.001783	28.0815	0.072297	0.002000	36.1428	-76.7838	-161.17	0.075853	0.160642	-0.973818	-0.975127	0.029260	36.1428	-0.974425	-1.026349E+13	-2.850866E-15	NaN
571	1.000000	0.171981	7.37063e+06	-48539.1	1005.82	-29762	0.000000	0.000000	6.172822	0.049670	NaN	0.000000	0.001617	0.001813	28.0815	0.008366	0.001895	4.414293	49.7797	19.2716	0.005491	0.170613	-0.963788	-0.965157	0.049670	4.414293	-0.972228	-9.587001E+12	-5.180986E-15	NaN
571	1.000000	0.181967	7.37063e+06	-48539.1	1005.82	-29762	0.000000	0.000000	6.182806	0.021471	NaN	0.000000	0.001589	0.001851	28.0817	0.074687	0.001933	38.6344	-90.2855	-168.487	0.067336	0.180652	-0.953803	-0.955118	0.021471	38.6344	-0.954220	-5.481968E+12	-3.916579E-15	NaN
571	1.000000	0.191977	7.37063e+06	-48539.1	1005.82	-29762	0.000000	0.000000	6.192819	0.075963	NaN	0.000000	0.001606	0.001826	28.0817	0.139086	0.002013	69.0956	171.273	15.1939	0.144383	0.190645	-0.943793	-0.945125	0.075963	69.0956	-0.944617	-4.068411E+12	-1.867130E-14	NaN
571	1.000000	0.201960	7.37063e+06	-48539.1	1005.82	-29762	0.000000	0.000000	6.202803	0.093766	NaN	0.000000	0.001565	0.001825	28.0814	0.076561	0.001948	39.2941	137.41	-165.411	-0.000459	0.200645	-0.933810	-0.935124	0.093766	39.2941	-0.935600	-3.074428E+12	-3.049866E-14	NaN
571	1.000000	0.211969	7.37063e+06	-48539.1	1005.82	-29762	0.000000	0.000000	6.212809	0.047668	NaN	0.000000	0.001580	0.001782	28.0812	0.028966	0.002054	14.1054	149.277	15.4667	0.001750	0.210628	-0.923801	-0.925142	0.047668	14.1054	-0.926336	-2.305368E+12	-2.067715E-14	NaN
571	1.000000	0.221985	7.37063e+06	-48539.1	1005.82	-29762	0.000000	0.000000	6.222824	0.006101	NaN	0.000000	0.001577	0.001800	28.0802	0.065149	0.002055	31.7059	131.74	-165.213	0.057106	0.220653	-0.913784	-0.915117	0.006101	31.7059	-0.913929	-1.567563E+12	-3.891808E-15	NaN
571	1.000000	0.231991	7.37063e+06	-48539.1	1005.82	-29762	0.000000	0.000000	6.232828	-0.035474	NaN	0.000000	0.001559	0.001761	28.0803	0.143971	0.001911	75.332	-132.703	15.0148	0.080119	0.230646	-0.903779	-0.905123	-0.035474	75.332	-0.903426	-1.130730E+12	3.137278E-14	NaN
571	1.000000	0.241968	7.37063e+06	-48539.1	1005.82	-29762	0.000000	0.000000	6.242808	0.009192	NaN	0.000000	0.001602	0.001797	28.0801	0.062557	0.001994	31.3651	-83.2513	-163.969	0.062971	0.240727	-0.893802	-0.895043	0.009192	31.3651	-0.894021	-8.438604E+11	-1.089265E-14	NaN
571	1.000000	0.251986	7.37063e+06	-48539.1	1005.82	-29762	0.000000	0.000000	6.252826	0.021588	NaN	0.000000	0.001609	0.001851	28.08	0.134012	0.002119	63.2355	-94.9169	15.3544	0.007619	0.250664	-0.883783	-0.885106	0.021588	63.2355	-0.884039	-6.184887E+11	-3.490413E-14	NaN
571	1.000000	0.262031	7.37063e+06	-48539.1	1005.82	-29762	0.000000	0.000000	6.262872	0.042313	NaN	0.000000	0.001543	0.001825	28.0802	0.036812	0.002016	18.2576	-22.0155	-163.185	0.049685	0.260667	-0.873739	-0.875103	0.042313	18.2576	-0.875477	-4.737314E+11	-8.931768E-14	NaN
571	1.000000	0.271987	7.37063e+06	-48539.1	1005.82	-29762	0.000000	0.000000	6.272825	-0.043182	NaN	0.000000	0.001545	0.001787	28.0803	0.083226	0.001980	42.0239	-70.6179	14.521	0.047585	0.270686	-0.863782	-0.865084	-0.043182	42.0239	-0.863012	-3.212796E+11	1.344063E-13	NaN
571	1.000000	0.281982	7.37063e+06	-48539.1	1005.82	-29762	0.000000	0.000000	6.282822	0.024634	NaN	0.000000	0.001566	0.001788	28.0801	0.101506	0.002070	49.03	154.105	-163.636	0.026822	0.280645	-0.853787	-0.855125	0.024634	49.03	-0.854164	-2.438496E+11	-1.010201E-13	NaN
571	1.000000	0.292014	7.37063e+06	-48539.1	1005.82	-29762	0.000000	0.000000	6.292855	0.051253	NaN	0.000000	0.001547	0.001807	28.0801	0.110759	0.002126	52.1002	33.7428	14.5162	0.059370	0.290676	-0.843756	-0.845093	0.051253	52.1002	-0.844494	-1.803704E+11	-2.841517E-13	NaN
571	1.000000	0.302029	7.37063e+06	-48539.1	1005.82	-29762	0.000000	0.000000	6.302868	0.014541	NaN	0.000000	0.001564	0.001780	28.0802	0.031887	0.002016	15.8145	-32.2121	-164.854	-0.025623	0.300708	-0.833741	-0.835062	0.014541	15.8145	-0.834431	-1.317742E+11	-1.103474E-13	NaN
571	1.000000	0.311993	7.37063e+06	-48539.1	1005.82	-29762	0.000000	0.000000	6.312832	0.012879	NaN	0.000000	0.001533	0.001761	28.0801	0.117710	0.001851	63.6009	-50.4677	15.5193	0.000921	0.310687	-0.823777	-0.825083	0.012879	63.6009	-0.823929	-9.494764E+10	-1.356476E-13	NaN
571	1.000000	0.322044	7.37063e+06	-48539.1	1005.82	-29762	0.000000	0.000000	6.322883	0.010271	NaN	0.000000	0.001566	0.001762	28.0802	0.052193	0.002022	25.814	152.185	-163.05	0.035490	0.320695	-0.813726	-0.815074	0.010271	25.814	-0.814024	-6.968905E+10	-1.473855E-13	NaN
571	1.000000	0.332039	7.37063e+06	-48539.1	1005.82	-29762	0.000000	0.000000	6.332881	0.076260	NaN	0.000000	0.001564	0.001755	28.08	0.073387	0.002034	36.0758	67.9832	16.603	0.080553	0.330603	-0.803730	-0.805167	0.076260	36.0758	-0.805316	-5.308993E+10	-1.436435E-12	NaN
571	1.000000	0.341989	7.37063e+06	-48539.1	1005.82	-29762	0.000000	0.000000	6.342829	0.011804	NaN	0.000000	0.001592	0.001791	28.0803	0.052937	0.002012	26.3116	14.6551	-164.869	0.075308	0.340776	-0.793781	-0.794994	0.011804	26.3116	-0.794117	-3.741046E+10	-3.155350E-13	NaN
571	1.000000	0.352062	7.37063e+06	-48539.1	1005.82	-29762	0.000000	0.000000	6.352903	0.067421	NaN	0.000000	0.001571	0.001781	28.0812	0.104158	0.002143	48.5953	-139.087	17.5356	0.013102	0.350659	-0.783708	-0.785111	0.067421	48.5953	-0.784749	-2.790946E+10	-2.415705E-12	NaN
571	1.000000	0.362036	7.37063e+06	-48539.1	1005.82	-29762	0.000000	0.000000	6.362877	0.057395	NaN	0.000000	0.001569	0.001763	28.0812	0.047968	0.002119	22.6324	-163.207	-162.044	0.089100	0.360733	-0.773734	-0.775037	0.057395	22.6324	-0.775636	-2.098565E+10	-2.734949E-12	NaN
571	1.000000	0.372044	7.37063e+06	-48539.1	1005.82	-29762	0.000000	0.000000	6.372883	0.013987	NaN	0.000000	0.001539	0.001767	28.0811	0.022240	0.002070	10.7423	7.899321	14.038	-0.002072	0.370652	-0.763726	-0.765118	0.013987	10.7423	-0.764703	-1.490293E+10	-9.385137E-13	NaN
571	1.000000	0.382045	7.37063e+06	-48539.1	1005.82	-29762	0.000000	0.000000	6.382885	0.015145	NaN	0.000000	0.001564	0.001775	28.0815	0.074796	0.001932	38.7116	-128.265	-166.166	0.020600	0.380722	-0.753724	-0.755048	0.015145	38.7116	-0.754018	-1.066364E+10	-1.420237E-12	NaN
571	1.000000	0.392040	7.37063e+06	-48539.1	1005.82	-29762	0.000000	0.000000	6.392882	0.072895	NaN	0.000000	0.001538	0.001772	28.0811	0.114606	0.001979	57.9224	103.564	15.2822	0.148195	0.390673	-0.743730	-0.745097	0.072895	57.9224	-0.744674	-7.956199E+9	-9.162058E-12	NaN
571	1.000000	0.402051	7.37063e+06	-48539.1	1005.82	-29762	0.000000	0.000000	6.402887	-0.086306	NaN	0.000000	0.001555	0.001791	28.0809	0.054773	0.001956	28.0032	15.1184	-166.401	-0.040760	0.400769	-0.733719	-0.735001	-0.086306	28.0032	-0.731407	-5.247891E+9	1.644576E-11	NaN
571	1.000000	0.412078	7.37063e+06	-48539.1	1005.82	-29762	0.000000	0.000000	6.412915	-0.034933	NaN	0.000000	0.001561	0.001748	28.0813	0.121428	0.002034	59.6846	-10.2822	12.4301	-0.008658	0.410702	-0.723692	-0.725068	-0.034933	59.6846	-0.723253	-4.062902E+9	8.598060E-12	NaN
571	1.000000	0.422068	7.37063e+06	-48539.1	1005.82	-29762	0.000000	0.000000	6.422905	-0.047743	NaN	0.000000	0.001546	0.001767	28.0817	0.015781	0.002033	7.761936	-70.8143	-164.182	-0.038269	0.420768	-0.713702	-0.715002	-0.047743	7.761936	-0.709088	-2.603807E+9	1.833567E-11	NaN
571	1.000000	0.432084	7.37063e+06	-48539.1	1005.82	-29762	0.000000	0.000000	6.432923	0.013745	NaN	0.000000	0.001509	0.001774	28.0814	0.046608	0.002139	21.7927	1.804921	16.8912	-0.082545	0.430680	-0.703686	-0.705090	0.013745	21.7927	-0.704159	-2.230088E+9	-6.163456E-12	NaN
571	1.000000	0.442069	7.37063e+06	-48539.1	1005.82	-29762	0.000000	0.000000	6.442912	0.094123	NaN	0.000000	0.001521	0.001771	28.0815	0.039955	0.002003	19.9454	0.238008	-163.102	0.063631	0.440796	-0.693701	-0.694974	0.094123	19.9454	-0.697240	-1.794043E+9	-5.246417E-11	NaN
571	1.000000	0.452077	7.37063e+06	-48539.1	1005.82	-29762	0.000000	0.000000	6.452918	0.051397	NaN	0.000000	0.001549	0.001779	28.0813	0.022183	0.002075	10.6927	-164.248	15.8176	0.088407	0.450711	-0.683693	-0.685059	0.051397	10.6927	-0.687298	-1.312147E+9	-3.916982E-11	NaN
571	1.000000	0.462100	7.37063e+06	-48539.1	1005.82	-29762	0.000000	0.000000	6.462939	0.010324	NaN	0.000000	0.001517	0.001777	28.0817	0.052013	0.001920	27.0866	21.7732	-162.891	0.132249	0.460771	-0.673670	-0.674999	0.010324	27.0866	-0.673956	-8.620417E+8	-1.197646E-11	NaN
571	1.000000	0.472104	7.37063e+06	-48539.1	1005.82	-29762	0.000000	0.000000	6.472942	-0.027479	NaN	0.000000	0.001533	0.001780	28.0816	0.064968	0.001946	33.3819	-106.279	13.5992	0.040425	0.470708	-0.663666	-0.665062	-0.027479	33.3819	-0.663048	-6.112516E+8	4.495489E-11	NaN
571	1.000000	0.482091	7.37063e+06	-48539.1	1005.82	-29762	0.000000	0.000000	6.482930	0.001467	NaN	0.000000	0.001541	0.001781	28.0816	0.011227	0.001997	5.620375	4.587535	-163.653	-0.040263	0.480782	-0.653679	-0.654988	0.001467	5.620375	-0.653875	-4.576620E+8	-3.205690E-12	NaN
571	1.000000	0.492098	7.37063e+06	-48539.1	1005.82	-29762	0.000000	0.000000	6.492938	0.016820	NaN	0.000000	0.001538	0.001773	28.0806	0.007118	0.001999	3.561494	-128.706	15.5604	0.058065	0.490749	-0.643671	-0.645020	0.016820	3.561494	-0.647214	-3.708801E+8	-4.535265E-11	NaN
571	1.000000	0.502099	7.37063e+06	-48539.1	1005.82	-29762	0.000000	0.000000	6.502942	0.086646	NaN	0.000000	0.001540	0.001772	28.0803	0.071126	0.001961	36.2665	172.677	-167.329	0.014793	0.500868	-0.633671	-0.634902	0.086646	36.2665	-0.635463	-2.558707E+8	-3.386328E-10	NaN
571	1.000000	0.512078	7.37063e+06	-48539.1	1005.82	-29762	0.000000	0.000000	6.512915	-0.049939	NaN	0.000000	0.001526	0.001825	28.0803	0.078310	0.001994	39.2726	32.4691	16.4893	0.012245	0.510764	-0.623692	-0.625006	-0.049939	39.2726	-0.622738	-1.711077E+8	2.918560E-10	NaN
571	1.000000	0.522109	7.37063e+06	-48539.1	1005.82	-29762	0.000000	0.000000	6.522952	0.081389	NaN	0.000000	0.001567	0.001796	28.0804	0.035112	0.002070	16.9615	163.913	-163.61	0.042688	0.520755	-0.613660	-0.615015	0.081389	16.9615	-0.617259	-1.438654E+8	-5.657295E-10	NaN
571	1.000000	0.532094	7.37063e+06	-48539.1	1005.82	-29762	0.000000	0.000000	6.532937	0.087180	NaN	0.000000	0.001542	0.001794	28.0807	0.110505	0.001995	55.3991	72.8806	18.6564	0.098277	0.530814	-0.603676	-0.604956	0.087180	55.3991	-0.604856	-9.712230E+7	-8.976297E-10	NaN
571	1.000000	0.542123	7.37063e+06	-48539.1	1005.82	-29762	0.000000	0.000000	6.542964	0.047172	NaN	0.000000	0.001557	0.001774	28.0805	0.098909	0.001989	49.73	-42.2372	-165.811	-0.002170	0.540833	-0.593647	-0.594937	0.047172	49.73	-0.594358	-6.962108E+7	-6.775575E-10	NaN
571	1.000000	0.552130	7.37063e+06	-48539.1	1005.82	-29762	0.000000	0.000000	6.552971	0.049445	NaN	0.000000	0.001573	0.001801	28.0803	0.069971	0.002005	34.9064	-130.716	12.4742	0.054095	0.550823	-0.583640	-0.584947	0.049445	34.9064	-0.584702	-5.123980E+7	-9.649629E-10	NaN
571	1.000000	0.562147	7.37063e+06	-48539.1	1005.82	-29762	0.000000	0.000000	6.562988	0.041541	NaN	0.000000	0.001574	0.001789	28.0804	0.089391	0.001912	46.7617	-136.881	-159.148	0.023417	0.560784	-0.573623	-0.574986	0.041541	46.7617	-0.574289	-3.680285E+7	-1.128731E-9	NaN
571	1.000000	0.572117	7.37064e+06	-48539.1	1005.82	-29762	0.000000	0.000000	6.572958	0.033150	NaN	0.000000	0.001554	0.001772	28.0805	0.021585	0.002067	10.4438	37.9826	14.8709	-0.004135	0.570748	-0.563653	-0.565022	0.033150	10.4438	-0.566033	-2.830145E+7	-1.171320E-9	NaN
571	1.000000	0.582135	7.37064e+06	-48539.1	1005.82	-29762	0.000000	0.000000	6.582973	-0.019416	NaN	0.000000	0.001516	0.001785	28.0801	0.052207	0.002052	25.4459	21.1974	-163.229	-0.038899	0.580869	-0.553635	-0.554901	-0.019416	25.4459	-0.553063	-1.872295E+7	1.037025E-9	NaN
571	1.000000	0.592122	7.37064e+06	-48539.1	1005.82	-29762	0.000000	0.000000	6.592962	0.020759	NaN	0.000000	0.001543	0.001776	28.0804	0.005908	0.002086	2.832516	-131.181	16.5474	0.010197	0.590798	-0.543648	-0.544972	0.020759	2.832516	-0.549144	-1.652363E+7	-1.256300E-9	NaN
571	1.000000	0.602121	7.37064e+06	-48539.1	1005.82	-29762	0.000000	0.000000	6.602961	0.017170	NaN	0.000000	0.001569	0.001747	28.0804	0.026714	0.001915	13.9509	149.555	-164.431	0.057353	0.600833	-0.533649	-0.534937	0.017170	13.9509	-0.534572	-1.037642E+7	-1.654689E-9	NaN
571	1.000000	0.612181	7.37064e+06	-48539.1	1005.82	-29762	0.000000	0.000000	6.613020	-0.013106	NaN	0.000000	0.001552	0.001733	28.0804	0.017005	0.001923	8.843307	33.8889	15.4862	-0.063753	0.610767	-0.523589	-0.525003	-0.013106	8.843307	-0.522477	-7.0476e+06	1.859645E-9	NaN
571	1.000000	0.622143	7.37064e+06	-48539.1	1005.82	-29762	0.000000	0.000000	6.622983	0.014281	NaN	0.000000	0.001568	0.001732	28.0804	0.024393	0.002099	11.6236	100.503	-162.912	-0.033452	0.620857	-0.513626	-0.514913	0.014281	11.6236	-0.514548	-5.46689e+06	-2.612266E-9	NaN
571	1.000000	0.632139	7.37064e+06	-48539.1	1005.82	-29762	0.000000	0.000000	6.632976	-0.056058	NaN	0.000000	0.001577	0.001750	28.0816	0.039012	0.001875	20.8097	-82.9086	14.1415	-0.040856	0.630802	-0.503630	-0.504968	-0.056058	20.8097	-0.501610	-3.60975e+06	1.552966E-8	NaN
571	1.000000	0.642123	7.37064e+06	-48539.1	1005.82	-29762	0.000000	0.000000	6.642962	-0.008296	NaN	0.000000	0.001564	0.001749	28.0815	0.100213	0.002042	49.0878	73.369	-166.556	-0.057656	0.640832	-0.493647	-0.494938	-0.008296	49.0878	-0.493520	-2.78334e+06	2.980529E-9	NaN
571	1.000000	0.652155	7.37064e+06	-48539.1	1005.82	-29762	0.000000	0.000000	6.652994	0.009603	NaN	0.000000	0.001605	0.001776	28.0813	0.032072	0.002186	14.6703	6.388159	16.1137	0.048087	0.650813	-0.483615	-0.484957	0.009603	14.6703	-0.484106	-2.05584e+06	-4.671147E-9	NaN
571	1.000000	0.662169	7.37064e+06	-48539.1	1005.82	-29762	0.000000	0.000000	6.663009	0.020660	NaN	0.000000	0.001559	0.001770	28.0814	0.034325	0.001941	17.6827	-75.4654	-162.933	0.018765	0.660841	-0.473601	-0.474929	0.020660	17.6827	-0.474477	-1.5072e+06	-1.370740E-8	NaN
571	1.000000	0.672167	7.37064e+06	-48539.1	1005.82	-29762	0.000000	0.000000	6.673009	0.083285	NaN	0.000000	0.001576	0.001762	28.0815	0.036480	0.001988	18.3508	-175.946	16.3206	0.020724	0.670762	-0.463603	-0.465008	0.083285	18.3508	-0.467007	-1.18419e+06	-7.033092E-8	NaN
571	1.000000	0.682178	7.37064e+06	-48539.1	1005.82	-29762	0.000000	0.000000	6.683018	0.046726	NaN	0.000000	0.001575	0.001766	28.0817	0.126825	0.001955	64.8815	129.784	-165.865	0.048387	0.680863	-0.453592	-0.454907	0.046726	64.8815	-0.454132	-780751	-5.984782E-8	NaN
571	1.000000	0.692183	7.37064e+06	-48539.1	1005.82	-29762	0.000000	0.000000	6.693021	-0.008392	NaN	0.000000	0.001654	0.001770	28.0814	0.086189	0.001972	43.706	0.059460	19.2866	0.007888	0.690851	-0.443587	-0.444919	-0.008392	43.706	-0.443443	-552005	1.520312E-8	NaN
571	1.000000	0.702207	7.37064e+06	-48539.1	1005.82	-29762	0.000000	0.000000	6.703047	0.028953	NaN	0.000000	0.001664	0.001745	28.0815	0.107965	0.001997	54.0526	-66.5279	-165.908	0.089543	0.700816	-0.433563	-0.434954	0.028953	54.0526	-0.433964	-405619	-7.138025E-8	NaN
571	1.000000	0.712174	7.37064e+06	-48539.1	1005.82	-29762	0.000000	0.000000	6.713013	0.018498	NaN	0.000000	0.001635	0.001744	28.0815	0.063439	0.001963	32.3106	12.3605	18.0385	0.033046	0.710811	-0.423596	-0.424959	0.018498	32.3106	-0.424026	-293414	-6.304316E-8	NaN
571	1.000000	0.722227	7.37064e+06	-48539.1	1005.82	-29762	0.000000	0.000000	6.723066	0.006607	NaN	0.000000	0.001613	0.001756	28.0827	0.114524	0.002142	53.4705	-81.1929	-165.094	0.044155	0.720866	-0.413543	-0.414904	0.006607	53.4705	-0.413636	-208966	-3.161923E-8	NaN
571	1.000000	0.732181	7.37064e+06	-48539.1	1005.82	-29762	0.000000	0.000000	6.733021	0.044350	NaN	0.000000	0.001641	0.001778	28.0813	0.142438	0.001954	72.9006	-83.0858	13.8656	0.047735	0.730901	-0.403589	-0.404869	0.044350	72.9006	-0.404045	-152634	-2.905624E-7	NaN
571	1.000000	0.742231	7.37064e+06	-48539.1	1005.82	-29762	0.000000	0.000000	6.743070	0.005173	NaN	0.000000	0.001641	0.001744	28.0816	0.086464	0.002019	42.8348	-79.6928	-165.327	0.021967	0.740872	-0.393539	-0.394898	0.005173	42.8348	-0.393629	-108406	-4.771737E-8	NaN
571	1.000000	0.752199	7.37064e+06	-48539.1	1005.82	-29762	0.000000	0.000000	6.753039	0.030356	NaN	0.000000	0.001649	0.001771	28.0815	0.097220	0.001971	49.3292	126.841	16.8844	0.083484	0.750859	-0.383571	-0.384911	0.030356	49.3292	-0.384032	-79016.2	-3.841797E-7	NaN
571	1.000000	0.762196	7.37064e+06	-48539.1	1005.82	-29762	0.000000	0.000000	6.763038	0.076059	NaN	0.000000	0.001633	0.001790	28.0802	0.030594	0.002023	15.1261	152.878	-163.913	0.128617	0.760875	-0.373574	-0.374895	0.076059	15.1261	-0.377345	-63354.1	-1.200534E-6	NaN
571	1.000000	0.772198	7.37064e+06	-48539.1	1005.82	-29762	0.000000	0.000000	6.773038	0.021958	NaN	0.000000	0.001655	0.001791	28.0801	0.102093	0.002019	50.5603	-122.935	19.8481	0.082086	0.770924	-0.363572	-0.364846	0.021958	50.5603	-0.363897	-40564.2	-5.413101E-7	NaN
571	1.000000	0.782226	7.37064e+06	-48539.1	1005.82	-29762	0.000000	0.000000	6.783067	0.056995	NaN	0.000000	0.001639	0.001797	28.0801	0.107436	0.001951	55.0747	65.7764	-163.45	0.084741	0.780926	-0.353544	-0.354844	0.056995	55.0747	-0.354320	-29488.1	-1.932801E-6	NaN
571	1.000000	0.792212	7.37064e+06	-48539.1	1005.82	-29762	0.000000	0.000000	6.793051	0.014011	NaN	0.000000	0.001608	0.001771	28.0803	0.073158	0.002064	35.4419	-83.8167	14.7899	-0.044006	0.790917	-0.343558	-0.344853	0.014011	35.4419	-0.343855	-20782.4	-6.741854E-7	NaN
571	1.000000	0.802228	7.37064e+06	-48539.1	1005.82	-29762	0.000000	0.000000	6.803069	0.038145	NaN	0.000000	0.001652	0.001801	28.0801	0.092594	0.002002	46.2499	38.1463	-163.786	0.061822	0.800897	-0.333542	-0.334873	0.038145	46.2499	-0.334160	-15007.7	-2.541706E-6	NaN
571	1.000000	0.812234	7.37064e+06	-48539.1	1005.82	-29762	0.000000	0.000000	6.813074	0.027427	NaN	0.000000	0.001659	0.001760	28.08	0.064722	0.001901	34.0475	-136.758	13.5949	0.026478	0.810832	-0.323536	-0.324938	0.027427	34.0475	-0.324140	-10703.2	-2.562484E-6	NaN
571	1.000000	0.822218	7.37064e+06	-48539.1	1005.82	-29762	0.000000	0.000000	6.823058	0.041431	NaN	0.000000	0.001651	0.001767	28.0803	0.072749	0.002063	35.2714	-31.7983	-165.58	-0.007522	0.820947	-0.313552	-0.314823	0.041431	35.2714	-0.314433	-7701.56	-5.379502E-6	NaN
571	1.000000	0.832223	7.37064e+06	-48539.1	1005.82	-29762	0.000000	0.000000	6.833064	0.048090	NaN	0.000000	0.001684	0.001762	28.0803	0.028798	0.002035	14.1495	95.0043	15.3948	0.011229	0.830877	-0.303547	-0.304893	0.048090	14.1495	-0.306096	-5797.12	-8.295424E-6	NaN
571	1.000000	0.842220	7.37064e+06	-48539.1	1005.82	-29762	0.000000	0.000000	6.843059	-0.001505	NaN	0.000000	0.001650	0.001795	28.0805	0.034353	0.001905	18.0354	-63.7747	-164.27	0.031115	0.840943	-0.293550	-0.294827	-0.001505	18.0354	-0.293487	-3762.56	3.999923E-7	NaN
571	1.000000	0.852240	7.37064e+06	-48539.1	1005.82	-29762	0.000000	0.000000	6.853080	0.026265	NaN	0.000000	0.001565	0.001744	28.0801	0.086046	0.002022	42.5474	75.6556	14.6338	0.001504	0.850857	-0.283530	-0.284912	0.026265	42.5474	-0.283993	-2710.94	-9.688391E-6	NaN
571	1.000000	0.862258	7.37064e+06	-48539.1	1005.82	-29762	0.000000	0.000000	6.863098	0.028778	NaN	0.000000	0.001599	0.001744	28.0803	0.066887	0.002197	30.4491	54.3043	-163.139	0.093709	0.860896	-0.273511	-0.274874	0.028778	30.4491	-0.274220	-1930.15	-1.490975E-5	NaN
571	1.000000	0.872277	7.37064e+06	-48539.1	1005.82	-29762	0.000000	0.000000	6.873117	0.005795	NaN	0.000000	0.001585	0.001768	28.0801	0.116912	0.002114	55.3035	-142.565	13.1714	-0.008504	0.870836	-0.263492	-0.264934	0.005795	55.3035	-0.263571	-1329.12	-4.359910E-6	NaN
571	1.000000	0.882276	7.37064e+06	-48539.1	1005.82	-29762	0.000000	0.000000	6.883116	0.042901	NaN	0.000000	0.001596	0.001808	28.0802	0.060881	0.001969	30.9152	79.6565	-166.123	0.068353	0.880912	-0.253494	-0.254858	0.042901	30.9152	-0.254535	-965.947	-4.441362E-5	NaN
571	1.000000	0.892251	7.37064e+06	-48539.1	1005.82	-29762	0.000000	0.000000	6.893092	0.068805	NaN	0.000000	0.001625	0.001769	28.08	0.137386	0.001897	72.4358	-170.809	16.8503	-0.019952	0.890853	-0.243519	-0.244917	0.068805	72.4358	-0.244232	-669.121	-0.000103	NaN
571	1.000000	0.902273	7.37064e+06	-48539.1	1005.82	-29762	0.000000	0.000000	6.903114	0.053001	NaN	0.000000	0.001636	0.001762	28.0814	0.046408	0.001913	24.2638	-24.1095	-168.053	0.112214	0.900976	-0.233497	-0.234793	0.053001	24.2638	-0.235135	-482.355	-0.000110	NaN
571	1.000000	0.912288	7.37064e+06	-48539.1	1005.82	-29762	0.000000	0.000000	6.913128	0.031778	NaN	0.000000	0.001605	0.001765	28.0815	0.041242	0.002080	19.8298	79.8446	13.0623	0.038369	0.910923	-0.223482	-0.224847	0.031778	19.8298	-0.224684	-329.844	-9.634176E-5	NaN
571	1.000000	0.922267	7.37064e+06	-48539.1	1005.82	-29762	0.000000	0.000000	6.923109	0.083098	NaN	0.000000	0.001653	0.001801	28.0816	0.012053	0.001883	6.402559	138.664	-164.12	0.079031	0.920931	-0.213503	-0.214839	0.083098	6.402559	-0.223237	-312.832	-0.000266	NaN
571	1.000000	0.932316	7.37064e+06	-48539.1	1005.82	-29762	0.000000	0.000000	6.933160	0.141346	NaN	0.000000	0.001537	0.001763	28.0815	0.068389	0.002068	33.0679	172.853	13.3605	0.035873	0.930904	-0.203454	-0.204866	0.141346	33.0679	-0.206660	-169.279	-0.000835	NaN
571	1.000000	0.942283	7.37064e+06	-48539.1	1005.82	-29762	0.000000	0.000000	6.943123	0.013796	NaN	0.000000	0.001615	0.001808	28.0817	0.089150	0.002047	43.5489	-168.169	-164.874	0.003379	0.940965	-0.193487	-0.194804	0.013796	43.5489	-0.193724	-103.764	-0.000133	NaN
571	1.000000	0.952275	7.37064e+06	-48539.1	1005.82	-29762	0.000000	0.000000	6.953117	0.088537	NaN	0.000000	0.001575	0.001812	28.0815	0.050274	0.002132	23.5758	-51.1177	16.1524	-0.033217	0.950886	-0.183495	-0.184883	0.088537	23.5758	-0.186312	-78.0213	-0.001135	NaN
571	1.000000	0.962312	7.37064e+06	-48539.1	1005.82	-29762	0.000000	0.000000	6.963154	0.080193	NaN	0.000000	0.001566	0.001800	28.0813	0.074502	0.001917	38.8575	-54.8784	-162.508	0.122688	0.960960	-0.173458	-0.174810	0.080193	38.8575	-0.175005	-50.1272	-0.001600	NaN
571	1.000000	0.972271	7.37064e+06	-48539.1	1005.82	-29762	0.000000	0.000000	6.973113	0.084963	NaN	0.000000	0.001589	0.001819	28.0816	0.069799	0.001945	35.879	35.91	12.6934	0.027740	0.970911	-0.163499	-0.164859	0.084963	35.879	-0.165275	-33.9732	-0.002501	NaN
571	1.000000	0.982311	7.37064e+06	-48539.1	1005.82	-29762	0.000000	0.000000	6.983152	0.061598	NaN	0.000000	0.001612	0.001806	28.0817	0.073988	0.002155	34.3393	-57.8342	-163.413	0.112136	0.980942	-0.153459	-0.154828	0.061598	34.3393	-0.154804	-22.1339	-0.002783	NaN
571	1.000000	0.992316	7.37064e+06	-48539.1	1005.82	-29762	0.000000	0.000000	6.993155	-0.003345	NaN	0.000000	0.001559	0.001813	28.0816	0.045694	0.001983	23.0452	151.615	15.5221	0.029367	0.990929	-0.143454	-0.144841	-0.003345	23.0452	-0.143345	-13.6606	0.000245	NaN
571	1.000000	1.002312	7.37064e+06	-48539.1	1005.82	-29762	0.000000	0.000000	7.003152	0.028686	NaN	0.000000	0.001571	0.001835	28.0815	0.087688	0.002075	42.2604	-105.458	-162.608	-0.001865	1.000957	-0.133458	-0.134813	0.028686	42.2604	-0.133967	-9.089494	-0.003156	NaN
571	1.000000	1.012327	7.37064e+06	-48539.1	1005.82	-29762	0.000000	0.000000	7.013169	0.079219	NaN	0.000000	0.001580	0.001802	28.0814	0.100216	0.002153	46.5496	-107.23	17.0002	-0.000978	1.010955	-0.123443	-0.124815	0.079219	46.5496	-0.124719	-6.003997	-0.013194	NaN
571	1.000000	1.022322	7.37064e+06	-48539.1	1005.82	-29762	0.000000	0.000000	7.023160	-0.012696	NaN	0.000000	0.001574	0.001805	28.0817	0.053961	0.002016	26.7644	171.337	-162.269	0.043982	1.020985	-0.113448	-0.114785	-0.012696	26.7644	-0.113092	-3.488244	0.003640	NaN
571	1.000000	1.032304	7.37064e+06	-48539.1	1005.82	-29762	0.000000	0.000000	7.033144	0.041089	NaN	0.000000	0.001579	0.001809	28.081	0.065392	0.001954	33.4583	-92.9498	14.7193	0.012522	1.030927	-0.103466	-0.104843	0.041089	33.4583	-0.104387	-2.279891	-0.018022	NaN
571	1.000000	1.042318	7.37064e+06	-48539.1	1005.82	-29762	0.000000	0.000000	7.043157	0.013129	NaN	0.000000	0.001573	0.001836	28.08	0.026784	0.002118	12.6444	-29.9816	-167.482	0.119722	1.041029	-0.093452	-0.094741	0.013129	12.6444	-0.094231	-1.354709	-0.009691	NaN
571	1.000000	1.052292	7.37064e+06	-48539.1	1005.82	-29762	0.000000	0.000000	7.053134	0.065156	NaN	0.000000	0.001612	0.001818	28.0801	0.080537	0.002112	38.1256	-132.555	18.473	0.045608	1.050953	-0.083478	-0.084816	0.065156	38.1256	-0.084759	-0.810679	-0.080373	NaN
571	1.000000	1.062333	7.37064e+06	-48539.1	1005.82	-29762	0.000000	0.000000	7.063172	0.006018	NaN	0.000000	0.001583	0.001828	28.0799	0.027008	0.001971	13.7005	-37.6313	-165.068	-0.042325	1.060995	-0.073437	-0.074775	0.006018	13.7005	-0.073766	-0.429003	-0.014029	NaN
571	1.000000	1.072351	7.37064e+06	-48539.1	1005.82	-29762	0.000000	0.000000	7.073190	0.010296	NaN	0.000000	0.001598	0.001851	28.08	0.090516	0.001898	47.679	-19.7506	11.207	0.046854	1.071027	-0.063419	-0.064743	0.010296	47.679	-0.063581	-0.227523	-0.045255	NaN
571	1.000000	1.082311	7.37064e+06	-48539.1	1005.82	-29762	0.000000	0.000000	7.083150	0.017579	NaN	0.000000	0.001568	0.001859	28.0799	0.055431	0.002001	27.6968	44.9883	-162.724	0.064154	1.081079	-0.053459	-0.054690	0.017579	27.6968	-0.053935	-0.119751	-0.146795	NaN
571	1.000000	1.092357	7.37064e+06	-48539.1	1005.82	-29762	0.000000	0.000000	7.093196	0.014060	NaN	0.000000	0.001560	0.001852	28.0804	0.073684	0.001993	36.9748	128.934	16.5569	0.052182	1.090969	-0.043413	-0.044801	0.014060	36.9748	-0.043698	-0.058639	-0.239766	NaN
571	1.000000	1.102359	7.37064e+06	-48539.1	1005.82	-29762	0.000000	0.000000	7.103200	0.033114	NaN	0.000000	0.001542	0.001821	28.0802	0.094023	0.002031	46.2932	-18.0908	-167.153	0.013999	1.101058	-0.033411	-0.034712	0.033114	46.2932	-0.033947	-0.029828	-1.110192	NaN
571	1.000000	1.112319	7.37064e+06	-48539.1	1005.82	-29762	0.000000	0.000000	7.113161	0.089496	NaN	0.000000	0.001550	0.001860	28.0801	0.035057	0.002051	17.0926	-50.3876	16.0188	0.055580	1.110946	-0.023451	-0.024824	0.089496	17.0926	-0.027378	-0.019505	-4.588238	NaN
571	1.000000	1.122345	7.37064e+06	-48539.1	1005.82	-29762	0.000000	0.000000	7.123187	0.067052	NaN	0.000000	0.001568	0.001843	28.0801	0.097791	0.002013	48.5881	155.909	-163.719	0.066357	1.121016	-0.013425	-0.014754	0.067052	48.5881	-0.014460	-0.008954	-7.488652	NaN
571	1.000000	1.132331	7.37064e+06	-48539.1	1005.82	-29762	0.000000	0.000000	7.133169	-0.010442	NaN	0.000000	0.001571	0.001834	28.0805	0.075795	0.002091	36.2513	-36.2267	17.4112	0.010850	1.131034	-0.003439	-0.004736	-0.010442	36.2513	-0.003223	-0.002269	4.601462	NaN
571	1.000000	1.142288	7.37064e+06	-48539.1	1005.82	-29762	0.000000	0.000000	7.143396	6.558455	NaN	0.000000	0.001570	0.001780	28.08	6.725342	0.001792	3752.98	13.8714	-170.625	4.788164	1.141053	0.006518	0.005283	6.558455	3752.98	0.005207	0.004323	1516.98	52148.1
571	2.000000	1.146390	7.37064e+06	-48539.1	1005.82	-29762	0.000000	0.000000	7.147662	10.5519	NaN	0.000000	0.001546	0.001836	28.0809	9.888167	0.001530	6463.04	6.711813	7.901546	10.4183	1.146039	0.010620	0.010270	10.5519	6463.04	0.009395	0.008517	1238.89	63982.6
571	2.000000	1.148865	7.37064e+06	-48539.1	1005.82	-29762	0.000000	0.000000	7.150291	14.2735	NaN	0.000000	0.001538	0.001811	28.0802	13.4549	0.001805	7454.15	9.183836	-174.977	14.3702	1.148617	0.013095	0.012847	14.2735	7454.15	0.011659	0.011084	1287.7	64686.6
571	2.000000	1.151364	7.37064e+06	-48539.1	1005.82	-29762	0.000000	0.000000	7.152948	18.1207	NaN	0.000000	0.001537	0.001797	28.0818	15.5657	0.001774	8775.77	7.736622	4.353566	17.0617	1.150988	0.015594	0.015218	18.1207	8775.77	0.014045	0.014033	1291.28	67683.2
571	2.000000	1.153808	7.37064e+06	-48539.1	1005.82	-29762	0.000000	0.000000	7.155585	22.8071	NaN	0.000000	0.001593	0.001804	28.0811	17.6229	0.001772	9943.87	5.451037	-174.998	21.7909	1.153526	0.018038	0.017756	22.8071	9943.87	0.016318	0.017083	1335.05	69509.3
571	2.000000	1.156356	7.37064e+06	-48539.1	1005.82	-29762	0.000000	0.000000	7.158332	27.6706	NaN	0.000000	0.001562	0.001774	28.0818	20.4342	0.001690	12091.8	7.259628	2.776654	28.273	1.156021	0.020586	0.020251	27.6706	12091.8	0.018870	0.020797	1330.51	76606.3
571	2.000000	1.158782	7.37064e+06	-48539.1	1005.82	-29762	0.000000	0.000000	7.161006	33.6811	NaN	0.000000	0.001594	0.001814	28.0814	23.8626	0.001822	13097.1	4.883515	-177.018	31.8907	1.158482	0.023012	0.022712	33.6811	13097.1	0.021084	0.024274	1387.55	76803.3
571	2.000000	1.161354	7.37064e+06	-48539.1	1005.82	-29762	0.000000	0.000000	7.163906	41.6699	NaN	0.000000	0.001547	0.001812	28.0816	25.9299	0.001813	14303.7	3.114357	5.095233	40.1216	1.160937	0.025584	0.025167	41.6699	14303.7	0.023399	0.028168	1479.36	77865.9
571	2.000000	1.163791	7.37064e+06	-48539.1	1005.82	-29762	0.000000	0.000000	7.166590	47.678	NaN	0.000000	0.001565	0.001787	28.0812	29.1899	0.001830	15948.7	6.960747	179.598	46.7728	1.163452	0.028021	0.027682	47.678	15948.7	0.025779	0.032448	1469.38	80892
571	2.000000	1.166298	7.37064e+06	-48539.1	1005.82	-29762	0.000000	0.000000	7.169394	54.913	NaN	0.000000	0.001570	0.001796	28.0813	31.4147	0.001788	17569.7	3.564380	2.089440	52.6709	1.165927	0.030528	0.030157	54.913	17569.7	0.028184	0.037063	1481.61	83381
571	2.000000	1.168779	7.37064e+06	-48539.1	1005.82	-29762	0.000000	0.000000	7.172153	61.6721	NaN	0.000000	0.001566	0.001773	28.0812	33.8675	0.001814	18667.5	1.484021	-175.892	59.1439	1.168458	0.033009	0.032689	61.6721	18667.5	0.030531	0.041851	1473.6	83368.8
571	2.000000	1.171301	7.37064e+06	-48539.1	1005.82	-29762	0.000000	0.000000	7.175159	73.4353	NaN	0.000000	0.001564	0.001815	28.0814	36.134	0.001814	19915.4	1.410015	3.829255	70.4732	1.170899	0.035531	0.035129	73.4353	19915.4	0.032765	0.046670	1573.5	84225.3
571	2.000000	1.173770	7.37064e+06	-48539.1	1005.82	-29762	0.000000	0.000000	7.178017	82.8859	NaN	0.000000	0.001558	0.001776	28.0815	38.1332	0.001672	22806.9	1.867734	-178.809	82.189	1.173477	0.038000	0.037707	82.8859	22806.9	0.035274	0.052386	1582.21	91039.5
571	2.000000	1.176235	7.37064e+06	-48539.1	1005.82	-29762	0.000000	0.000000	7.180935	93.9063	NaN	0.000000	0.001545	0.001810	28.0816	41.7781	0.001778	23492	4.954242	-1.263872	90.6084	1.175891	0.040465	0.040121	93.9063	23492	0.037467	0.057647	1628.99	89393.3
571	2.000000	1.178831	7.37064e+06	-48539.1	1005.82	-29762	0.000000	0.000000	7.183847	101.59	NaN	0.000000	0.001559	0.001812	28.0817	44.2447	0.001820	24309.3	4.519406	178.385	102.002	1.178505	0.043062	0.042735	101.59	24309.3	0.039927	0.063841	1591.3	87901.7
571	2.000000	1.181272	7.37064e+06	-48539.1	1005.82	-29762	0.000000	0.000000	7.186837	114.949	NaN	0.000000	0.001579	0.001757	28.0814	46.3916	0.001747	26553.8	5.158522	-3.220621	113.204	1.180964	0.045502	0.045194	114.949	26553.8	0.042256	0.069988	1642.43	91704.2
571	2.000000	1.183818	7.37064e+06	-48539.1	1005.82	-29762	0.000000	0.000000	7.189744	123.727	NaN	0.000000	0.001568	0.001812	28.0815	48.121	0.001748	27534.3	3.830521	178.359	125.319	1.183493	0.048048	0.047723	123.727	27534.3	0.044678	0.076676	1613.64	90848.8
571	2.000000	1.186232	7.37064e+06	-48539.1	1005.82	-29762	0.000000	0.000000	7.192766	138.497	NaN	0.000000	0.001574	0.001796	28.0804	51.1265	0.001830	27932.4	7.231969	-5.487243	136.586	1.185913	0.050462	0.050143	138.497	27932.4	0.046744	0.082615	1676.42	88787.9
571	2.000000	1.188754	7.37064e+06	-48539.1	1005.82	-29762	0.000000	0.000000	7.195598	146.062	NaN	0.000000	0.001558	0.001781	28.0805	53.6714	0.001841	29155.4	4.690967	176.087	143.758	1.188518	0.052984	0.052748	146.062	29155.4	0.049227	0.090037	1622.23	88772.9
571	2.000000	1.191260	7.37064e+06	-48539.1	1005.82	-29762	0.000000	0.000000	7.198822	163.504	NaN	0.000000	0.001571	0.001750	28.08	54.1945	0.001742	31119.1	2.092614	-0.355554	160.24	1.190976	0.055490	0.055206	163.504	31119.1	0.051550	0.097263	1681.05	91164.6
571	2.000000	1.193634	7.37064e+06	-48539.1	1005.82	-29762	0.000000	0.000000	7.201794	178.062	NaN	0.000000	0.001561	0.001762	28.0801	56.907	0.001794	31721.3	4.222702	176.621	172.62	1.193305	0.057864	0.057535	178.062	31721.3	0.053654	0.104042	1711.46	89850.6
571	2.000000	1.196221	7.37064e+06	-48539.1	1005.82	-29762	0.000000	0.000000	7.204920	191.18	NaN	0.000000	0.001562	0.001795	28.0801	59.4368	0.001799	33036.5	0.570023	0.326647	188.255	1.195953	0.060451	0.060183	191.18	33036.5	0.056111	0.112232	1703.43	90096.7
571	2.000000	1.198793	7.37064e+06	-48539.1	1005.82	-29762	0.000000	0.000000	7.207956	202.445	NaN	0.000000	0.001538	0.001754	28.0805	63.0759	0.001886	33443.1	8.225216	173.421	204.392	1.198447	0.063023	0.062677	202.445	33443.1	0.058483	0.120425	1681.09	88048.5
571	2.000000	1.201237	7.37064e+06	-48539.1	1005.82	-29762	0.000000	0.000000	7.211030	217.757	NaN	0.000000	0.001587	0.001734	28.08	63.662	0.001769	35993.8	6.843403	-6.032093	214.78	1.200850	0.065468	0.065080	217.757	35993.8	0.060930	0.129165	1685.89	91501.6
571	2.000000	1.203726	7.37064e+06	-48539.1	1005.82	-29762	0.000000	0.000000	7.214153	233.214	NaN	0.000000	0.001552	0.001791	28.0802	66.4235	0.001810	36699.7	4.362529	175.693	231.916	1.203322	0.067956	0.067552	233.214	36699.7	0.063190	0.137494	1696.17	90426
571	2.000000	1.206250	7.37064e+06	-48539.1	1005.82	-29762	0.000000	0.000000	7.217122	244.018	NaN	0.000000	0.001534	0.001815	28.0802	70.8041	0.001869	37880.8	7.813617	-8.001496	243.072	1.205948	0.070480	0.070178	244.018	37880.8	0.065649	0.146839	1661.8	90317.4
571	2.000000	1.208708	7.37064e+06	-48539.1	1005.82	-29762	0.000000	0.000000	7.220405	264.081	NaN	0.000000	0.001524	0.001787	28.0803	70.979	0.001706	41596	-0.612087	179.121	261.386	1.208436	0.072938	0.072667	264.081	41596	0.068177	0.156750	1684.72	95989
571	2.000000	1.211238	7.37064e+06	-48539.1	1005.82	-29762	0.000000	0.000000	7.223478	277.298	NaN	0.000000	0.001542	0.001779	28.0801	73.8348	0.001875	39368.6	3.490661	-4.055677	274.677	1.210974	0.075468	0.075204	277.298	39368.6	0.070185	0.164842	1682.21	88591
571	2.000000	1.213765	7.37064e+06	-48539.1	1005.82	-29762	0.000000	0.000000	7.226611	292.028	NaN	0.000000	0.001532	0.001773	28.0803	76.5706	0.001894	40423.1	4.766666	174.492	292.591	1.213394	0.077995	0.077624	292.028	40423.1	0.072577	0.174729	1671.32	88352.8
571	2.000000	1.216212	7.37064e+06	-48539.1	1005.82	-29762	0.000000	0.000000	7.229915	312.865	NaN	0.000000	0.001551	0.001776	28.0804	79.2367	0.001881	42124.9	4.984924	-5.542258	309.155	1.215784	0.080442	0.080014	312.865	42124.9	0.074872	0.184469	1696.03	89608.7
571	2.000000	1.218832	7.37064e+06	-48539.1	1005.82	-29762	0.000000	0.000000	7.233213	329.371	NaN	0.000000	0.001489	0.001799	28.0808	80.655	0.001725	46746.6	2.645212	175.557	334.638	1.218462	0.083062	0.082692	329.371	46746.6	0.077778	0.197159	1670.59	96186.8
571	2.000000	1.221275	7.37064e+06	-48539.1	1005.82	-29762	0.000000	0.000000	7.236361	346.516	NaN	0.000000	0.001586	0.001792	28.0815	82.5172	0.001802	45792.5	2.840369	-4.159027	345.387	1.221013	0.085505	0.085243	346.516	45792.5	0.079830	0.206355	1679.22	92099.9
571	2.000000	1.223804	7.37064e+06	-48539.1	1005.82	-29762	0.000000	0.000000	7.239642	364.803	NaN	0.000000	0.001575	0.001814	28.0815	85.7893	0.001782	48139.5	5.434809	172.592	368.096	1.223423	0.088034	0.087653	364.803	48139.5	0.082350	0.217924	1673.99	94215.4
571	2.000000	1.226166	7.37064e+06	-48539.1	1005.82	-29762	0.000000	0.000000	7.242934	387.425	NaN	0.000000	0.001563	0.001794	28.0817	88.3807	0.001738	50865	3.263644	-5.920453	383.336	1.225806	0.090396	0.090036	387.425	50865	0.084684	0.228896	1692.58	97134.5
571	2.000000	1.228747	7.37064e+06	-48539.1	1005.82	-29762	0.000000	0.000000	7.246347	407.67	NaN	0.000000	0.001571	0.001801	28.0814	90.9373	0.001834	49584.9	-0.688667	178.217	407.063	1.228407	0.092977	0.092638	407.67	49584.9	0.086811	0.239115	1704.91	92644.4
571	2.000000	1.231207	7.37064e+06	-48539.1	1005.82	-29762	0.000000	0.000000	7.249590	426.694	NaN	0.000000	0.001576	0.001808	28.0816	94.6003	0.001940	48752.6	7.312847	-9.705789	423.941	1.230855	0.095438	0.095085	426.694	48752.6	0.088873	0.249225	1712.08	89222.8
571	2.000000	1.233714	7.37064e+06	-48539.1	1005.82	-29762	0.000000	0.000000	7.252928	446.905	NaN	0.000000	0.001581	0.001781	28.0812	95.748	0.001722	55599.8	7.490111	169.544	448.999	1.233442	0.097944	0.097672	446.905	55599.8	0.091916	0.264492	1689.67	98773.4
571	2.000000	1.236236	7.37064e+06	-48539.1	1005.82	-29762	0.000000	0.000000	7.256541	473.443	NaN	0.000000	0.001549	0.001802	28.0813	99.4919	0.001935	51409.4	5.608115	-7.813721	472.709	1.235758	0.100466	0.099988	473.443	51409.4	0.093559	0.272917	1734.75	89908.5
571	2.000000	1.238720	7.37064e+06	-48539.1	1005.82	-29762	0.000000	0.000000	7.259403	482.637	NaN	0.000000	0.001508	0.001783	28.0814	99.7494	0.001723	57902.6	0.053086	176.214	481.955	1.238605	0.102950	0.102835	482.637	57902.6	0.096698	0.289351	1668	98346.5
571	2.000000	1.241197	7.37064e+06	-48539.1	1005.82	-29762	0.000000	0.000000	7.262892	507.255	NaN	0.000000	0.001530	0.001789	28.0813	102.265	0.001907	53637.8	5.299903	-8.724089	505.223	1.241093	0.105427	0.105323	507.255	53637.8	0.098334	0.298093	1701.67	89757.1
571	2.000000	1.242639	7.37064e+06	-48539.1	1005.82	-29762	0.000000	0.000000	7.265493	535.457	NaN	0.000000	0.001535	0.001777	28.0816	102.376	0.001671	61256.9	3.336432	172.973	532.983	1.242326	0.106869	0.106556	535.457	61256.9	0.100313	0.308830	1733.82	100709