File: remote_trans/data/nanoindenter/0828-1/data/Data_2025-08-06,11h17m57s/2025-07-22_16-23-58_1_1059.txt
2025-07-22, 16:23:58, 1
Index	Phase	Displacement	Time	Pos X	Pos Y	Pos Z	Rot A	Rot B	Piezo Z	Force A	Force B	Gripper	Voltage A	Voltage B	Temperature	Amplitude force	Amplitude pos	Stiffness	Phase shift	Phase excitation	Force A raw	Displacement raw	HMax	HMax raw	Real Force	Real Stiffness	Contact Depth	Area	Hardness	Reduced Mod.
[#]	[#]	[um]	[s]	[um]	[um]	[um]	[m°]	[m°]	[um]	[uN]	[uN]	[V]	[V]	[V]	[°C]	[uN]	[um]	[N/m]	[°]	[°]	[uN]	[um]	[um]	[um]	[uN]	[N/m]	[um]	[um^2]	[MPa]	[MPa]
1059	1.000000	0.002775	7.3754e+06	-53089.1	1055.82	-29747.3	0.000000	0.000000	6.002811	0.006860	NaN	0.000000	0.001753	0.001632	28.0846	0.074625	0.000921	81.0288	-153.579	-159.46	0.051212	0.001504	-1.133299	-1.134570	0.006860	81.0288	-1.133362	-1.405148E+15	-4.882025E-18	NaN
1059	1.000000	0.012824	7.3754e+06	-53089.1	1055.82	-29747.3	0.000000	0.000000	6.012860	-0.012688	NaN	0.000000	0.001725	0.001629	28.0843	0.098392	0.001288	76.4105	117.485	15.1517	0.016538	0.011410	-1.123250	-1.124664	-0.012688	76.4105	-1.123125	-1.024230E+15	1.238828E-17	NaN
1059	1.000000	0.022730	7.3754e+06	-53089.1	1055.82	-29747.3	0.000000	0.000000	6.022766	-0.002057	NaN	0.000000	0.001716	0.001644	28.0842	0.018725	0.001630	11.489	39.2354	-168.002	0.015732	0.021448	-1.113344	-1.114626	-0.002057	11.489	-1.113209	-7.539708E+14	2.728732E-18	NaN
1059	1.000000	0.032735	7.3754e+06	-53089.1	1055.82	-29747.3	0.000000	0.000000	6.032768	-0.067539	NaN	0.000000	0.001699	0.001612	28.0839	0.075154	0.001941	38.7199	179.422	17.3889	-0.078513	0.031367	-1.103339	-1.104707	-0.067539	38.7199	-1.102031	-5.337401E+14	1.265399E-16	NaN
1059	1.000000	0.042697	7.3754e+06	-53089.1	1055.82	-29747.3	0.000000	0.000000	6.042731	-0.030987	NaN	0.000000	0.001711	0.001625	28.0846	0.069056	0.001884	36.6476	-110.286	-169.625	-0.064421	0.041427	-1.093377	-1.094647	-0.030987	36.6476	-1.092743	-4.005348E+14	7.736413E-17	NaN
1059	1.000000	0.052720	7.3754e+06	-53089.1	1055.82	-29747.3	0.000000	0.000000	6.052755	-0.010400	NaN	0.000000	0.001751	0.001587	28.0841	0.146730	0.001743	84.1946	-34.3563	14.346	-0.044804	0.051323	-1.083354	-1.084751	-0.010400	84.1946	-1.083261	-2.987599E+14	3.481189E-17	NaN
1059	1.000000	0.062751	7.3754e+06	-53089.1	1055.82	-29747.3	0.000000	0.000000	6.062786	-0.025798	NaN	0.000000	0.001642	0.001643	28.0844	0.086226	0.001972	43.7207	-67.8024	-160.607	-0.047156	0.061409	-1.073323	-1.074665	-0.025798	43.7207	-1.072881	-2.167148E+14	1.190394E-16	NaN
1059	1.000000	0.072741	7.3754e+06	-53089.1	1055.82	-29747.3	0.000000	0.000000	6.072776	-0.019877	NaN	0.000000	0.001637	0.001627	28.0843	0.039192	0.002002	19.5732	-98.0599	19.7657	-0.022292	0.071409	-1.063333	-1.064665	-0.019877	19.5732	-1.062571	-1.575345E+14	1.261777E-16	NaN
1059	1.000000	0.082721	7.37541e+06	-53089.1	1055.82	-29747.3	0.000000	0.000000	6.082754	-0.059412	NaN	0.000000	0.001642	0.001621	28.0846	0.101365	0.002005	50.5468	46.6804	-165.199	-0.089388	0.081444	-1.053353	-1.054630	-0.059412	50.5468	-1.052471	-1.152487E+14	5.155110E-16	NaN
1059	1.000000	0.092718	7.37541e+06	-53089.1	1055.82	-29747.3	0.000000	0.000000	6.092753	-0.024338	NaN	0.000000	0.001585	0.001679	28.0835	0.015900	0.002019	7.873727	42.422	15.0725	-0.022875	0.091372	-1.043356	-1.044702	-0.024338	7.873727	-1.041038	-8.089541E+13	3.008533E-16	NaN
1059	1.000000	0.102745	7.37541e+06	-53089.1	1055.82	-29747.3	0.000000	0.000000	6.102780	-0.030241	NaN	0.000000	0.001651	0.001640	28.0832	0.040419	0.002109	19.1611	149.906	-163.594	-0.031176	0.101390	-1.033329	-1.034684	-0.030241	19.1611	-1.032145	-6.142272E+13	4.923414E-16	NaN
1059	1.000000	0.112735	7.37541e+06	-53089.1	1055.82	-29747.3	0.000000	0.000000	6.112772	0.039968	NaN	0.000000	0.001656	0.001655	28.0829	0.061977	0.001953	31.7392	-176.98	13.4269	0.033632	0.111329	-1.023339	-1.024745	0.039968	31.7392	-1.024283	-4.814830E+13	-8.300977E-16	NaN
1059	1.000000	0.122744	7.37541e+06	-53089.1	1055.82	-29747.3	0.000000	0.000000	6.122780	0.012810	NaN	0.000000	0.001646	0.001643	28.0833	0.068594	0.001942	35.3143	-124.875	-163.888	-0.019504	0.121434	-1.013330	-1.014640	0.012810	35.3143	-1.013602	-3.458260E+13	-3.704138E-16	NaN
1059	1.000000	0.132762	7.37541e+06	-53089.1	1055.82	-29747.3	0.000000	0.000000	6.132798	0.005433	NaN	0.000000	0.001650	0.001660	28.0832	0.048074	0.001915	25.102	-62.6685	14.6963	0.065456	0.131359	-1.003312	-1.004715	0.005433	25.102	-1.003474	-2.526639E+13	-2.150407E-16	NaN
1059	1.000000	0.142759	7.37541e+06	-53089.1	1055.82	-29747.3	0.000000	0.000000	6.142794	-0.012132	NaN	0.000000	0.001695	0.001660	28.0831	0.048834	0.002032	24.0314	-110.041	-166.155	0.073659	0.141466	-0.993315	-0.994607	-0.012132	24.0314	-0.992936	-1.822452E+13	6.656849E-16	NaN
1059	1.000000	0.152751	7.37541e+06	-53089.1	1055.82	-29747.3	0.000000	0.000000	6.152787	-0.013616	NaN	0.000000	0.001721	0.001655	28.0833	0.089064	0.002223	40.0666	98.8528	14.5322	0.003610	0.151431	-0.983322	-0.984642	-0.013616	40.0666	-0.983068	-1.341947E+13	1.014667E-15	NaN
1059	1.000000	0.162772	7.37541e+06	-53089.1	1055.82	-29747.3	0.000000	0.000000	6.162807	-0.012207	NaN	0.000000	0.001715	0.001672	28.0832	0.089820	0.001906	47.1251	40.9715	-165.822	0.050509	0.161474	-0.973302	-0.974600	-0.012207	47.1251	-0.973108	-9.852447E+12	1.238984E-15	NaN
1059	1.000000	0.172774	7.37541e+06	-53089.1	1055.82	-29747.3	0.000000	0.000000	6.172807	-0.060578	NaN	0.000000	0.001689	0.001672	28.0831	0.070767	0.001923	36.8023	-159.459	17.4519	-0.048152	0.171418	-0.963300	-0.964656	-0.060578	36.8023	-0.962065	-6.993808E+12	8.661682E-15	NaN
1059	1.000000	0.182764	7.37541e+06	-53089.1	1055.82	-29747.3	0.000000	0.000000	6.182799	-0.017167	NaN	0.000000	0.001659	0.001637	28.0832	0.135468	0.001865	72.6495	-53.9102	-166.288	-0.076748	0.181492	-0.953310	-0.954582	-0.017167	72.6495	-0.953133	-5.299999E+12	3.239123E-15	NaN
1059	1.000000	0.192777	7.37541e+06	-53089.1	1055.82	-29747.3	0.000000	0.000000	6.192811	-0.046707	NaN	0.000000	0.001668	0.001650	28.0833	0.058361	0.002011	29.0227	27.8327	12.228	-0.028014	0.191459	-0.943296	-0.944615	-0.046707	29.0227	-0.942089	-3.761200E+12	1.241821E-14	NaN
1059	1.000000	0.202762	7.37541e+06	-53089.1	1055.82	-29747.3	0.000000	0.000000	6.202795	-0.072753	NaN	0.000000	0.001685	0.001627	28.0833	0.018386	0.001966	9.350091	-128.697	-165.174	-0.011734	0.201427	-0.933312	-0.934647	-0.072753	9.350091	-0.927476	-2.388515E+12	3.045972E-14	NaN
1059	1.000000	0.212753	7.37541e+06	-53089.1	1055.82	-29747.3	0.000000	0.000000	6.212790	0.020094	NaN	0.000000	0.001684	0.001623	28.0834	0.152870	0.001962	77.92	75.6531	15.1126	-0.007256	0.211468	-0.923321	-0.924606	0.020094	77.92	-0.923514	-2.111784E+12	-9.515095E-15	NaN
1059	1.000000	0.222757	7.37541e+06	-53089.1	1055.82	-29747.3	0.000000	0.000000	6.222791	-0.042291	NaN	0.000000	0.001668	0.001640	28.0834	0.084570	0.002009	42.0904	32.0999	-164.581	0.002799	0.221495	-0.913317	-0.914579	-0.042291	42.0904	-0.912563	-1.502399E+12	2.814928E-14	NaN
1059	1.000000	0.232778	7.37541e+06	-53089.1	1055.82	-29747.3	0.000000	0.000000	6.232814	-0.018499	NaN	0.000000	0.001650	0.001649	28.0846	0.090842	0.002065	43.9973	24.1903	15.107	-0.124081	0.231453	-0.903296	-0.904621	-0.018499	43.9973	-0.902980	-1.115149E+12	1.658919E-14	NaN
1059	1.000000	0.242802	7.37541e+06	-53089.1	1055.82	-29747.3	0.000000	0.000000	6.242838	0.010145	NaN	0.000000	0.001701	0.001626	28.0847	0.068351	0.001982	34.4877	-60.5586	-167.063	0.000514	0.241493	-0.893272	-0.894581	0.010145	34.4877	-0.893493	-8.300921E+11	-1.222205E-14	NaN
1059	1.000000	0.252787	7.37541e+06	-53089.1	1055.82	-29747.3	0.000000	0.000000	6.252820	-0.072357	NaN	0.000000	0.001702	0.001623	28.0846	0.039395	0.002086	18.8864	50.3604	15.4371	0.016819	0.251471	-0.883287	-0.884603	-0.072357	18.8864	-0.880413	-5.524565E+11	1.309735E-13	NaN
1059	1.000000	0.262803	7.37541e+06	-53089.1	1055.82	-29747.3	0.000000	0.000000	6.262834	-0.103448	NaN	0.000000	0.001667	0.001591	28.0846	0.117859	0.002032	58.0044	114.586	-166.463	-0.056352	0.261467	-0.873271	-0.874607	-0.103448	58.0044	-0.871934	-4.242311E+11	2.438488E-13	NaN
1059	1.000000	0.272799	7.37541e+06	-53089.1	1055.82	-29747.3	0.000000	0.000000	6.272833	-0.026984	NaN	0.000000	0.001619	0.001600	28.0845	0.085602	0.001982	43.1886	-131.42	17.5314	-0.059205	0.271426	-0.863275	-0.864648	-0.026984	43.1886	-0.862807	-3.192333E+11	8.452755E-14	NaN
1059	1.000000	0.282851	7.37541e+06	-53089.1	1055.82	-29747.3	0.000000	0.000000	6.282883	-0.090132	NaN	0.000000	0.001589	0.001634	28.0852	0.051192	0.001956	26.1683	-143.658	-162.116	-0.026480	0.281478	-0.853223	-0.854596	-0.090132	26.1683	-0.850639	-2.184718E+11	4.125554E-13	NaN
1059	1.000000	0.292800	7.37541e+06	-53089.1	1055.82	-29747.3	0.000000	0.000000	6.292836	0.006291	NaN	0.000000	0.001627	0.001620	28.0845	0.070400	0.001900	37.0573	-87.1107	16.7047	0.021213	0.291443	-0.843274	-0.844631	0.006291	37.0573	-0.843402	-1.743298E+11	-3.608590E-14	NaN
1059	1.000000	0.302821	7.37541e+06	-53089.1	1055.82	-29747.3	0.000000	0.000000	6.302856	-0.039811	NaN	0.000000	0.001663	0.001618	28.0845	0.028071	0.001881	14.9261	51.1289	-165.228	-0.014471	0.301461	-0.833253	-0.834613	-0.039811	14.9261	-0.831252	-1.193316E+11	3.336125E-13	NaN
1059	1.000000	0.312833	7.37541e+06	-53089.1	1055.82	-29747.3	0.000000	0.000000	6.312866	-0.064196	NaN	0.000000	0.001644	0.001638	28.0844	0.046652	0.001919	24.3058	-91.6379	14.2598	-0.024410	0.311472	-0.823241	-0.824602	-0.064196	24.3058	-0.821260	-8.735804E+10	7.348617E-13	NaN
1059	1.000000	0.322832	7.37541e+06	-53089.1	1055.82	-29747.3	0.000000	0.000000	6.322867	-0.015843	NaN	0.000000	0.001654	0.001620	28.0843	0.100297	0.002121	47.2837	-88.1429	-164.999	-0.043005	0.321461	-0.813242	-0.814613	-0.015843	47.2837	-0.812991	-6.747560E+10	2.347976E-13	NaN
1059	1.000000	0.332824	7.37541e+06	-53089.1	1055.82	-29747.3	0.000000	0.000000	6.332857	-0.068366	NaN	0.000000	0.001667	0.001583	28.0844	0.080736	0.002146	37.624	-3.506656	17.4699	-0.039242	0.331479	-0.803250	-0.804595	-0.068366	37.624	-0.801887	-4.769554E+10	1.433393E-12	NaN
1059	1.000000	0.342832	7.37541e+06	-53089.1	1055.82	-29747.3	0.000000	0.000000	6.342868	-0.003737	NaN	0.000000	0.001665	0.001603	28.0842	0.049107	0.001988	24.6955	116.84	-166.328	0.014058	0.341551	-0.793242	-0.794523	-0.003737	24.6955	-0.793128	-3.627179E+10	1.030375E-13	NaN
1059	1.000000	0.352832	7.37541e+06	-53089.1	1055.82	-29747.3	0.000000	0.000000	6.352866	-0.053094	NaN	0.000000	0.001641	0.001623	28.0845	0.132370	0.001888	70.1075	108.263	16.1386	-0.022785	0.351498	-0.783242	-0.784576	-0.053094	70.1075	-0.782674	-2.615562E+10	2.029911E-12	NaN
1059	1.000000	0.362819	7.37541e+06	-53089.1	1055.82	-29747.3	0.000000	0.000000	6.362854	-0.019731	NaN	0.000000	0.001730	0.001612	28.0843	0.087213	0.002084	41.8468	-115.086	-165.429	-0.050588	0.361525	-0.773255	-0.774549	-0.019731	41.8468	-0.772901	-1.926419E+10	1.024219E-12	NaN
1059	1.000000	0.372853	7.37541e+06	-53089.1	1055.82	-29747.3	0.000000	0.000000	6.372886	-0.068949	NaN	0.000000	0.001679	0.001598	28.0834	0.056029	0.002149	26.0694	148.577	17.085	-0.006463	0.371462	-0.763221	-0.764612	-0.068949	26.0694	-0.761237	-1.337008E+10	5.156977E-12	NaN
1059	1.000000	0.382838	7.37541e+06	-53089.1	1055.82	-29747.3	0.000000	0.000000	6.382873	-0.036134	NaN	0.000000	0.001678	0.001582	28.0831	0.068250	0.002055	33.2069	-10.2142	-164.134	-0.033894	0.381524	-0.753236	-0.754550	-0.036134	33.2069	-0.752420	-1.014270E+10	3.562551E-12	NaN
1059	1.000000	0.392869	7.37541e+06	-53089.1	1055.82	-29747.3	0.000000	0.000000	6.392904	-0.035316	NaN	0.000000	0.001676	0.001640	28.0835	0.027399	0.001869	14.6562	-41.6577	16.6408	-0.040910	0.391503	-0.743204	-0.744571	-0.035316	14.6562	-0.741397	-7.179373E+9	4.919048E-12	NaN
1059	1.000000	0.402838	7.37541e+06	-53089.1	1055.82	-29747.3	0.000000	0.000000	6.402875	0.019040	NaN	0.000000	0.001691	0.001615	28.0831	0.049656	0.001903	26.1002	-49.5593	-166.708	-0.026163	0.401574	-0.733236	-0.734500	0.019040	26.1002	-0.733783	-5.654003E+9	-3.367501E-12	NaN
1059	1.000000	0.412857	7.37541e+06	-53089.1	1055.82	-29747.3	0.000000	0.000000	6.412891	-0.028366	NaN	0.000000	0.001671	0.001645	28.0838	0.069068	0.001880	36.7379	-78.739	14.811	0.032989	0.411486	-0.723217	-0.724588	-0.028366	36.7379	-0.722638	-3.985175E+9	7.117963E-12	NaN
1059	1.000000	0.422906	7.37541e+06	-53089.1	1055.82	-29747.3	0.000000	0.000000	6.422945	0.055992	NaN	0.000000	0.001675	0.001649	28.0828	0.095567	0.001912	49.9924	-92.4456	-164.268	0.003645	0.421583	-0.713167	-0.714491	0.055992	49.9924	-0.714007	-3.039000E+9	-1.842436E-11	NaN
1059	1.000000	0.432880	7.37541e+06	-53089.1	1055.82	-29747.3	0.000000	0.000000	6.432917	0.033774	NaN	0.000000	0.001612	0.001613	28.0833	0.128273	0.002014	63.6813	153.305	15.1196	-0.015975	0.431539	-0.703194	-0.704535	0.033774	63.6813	-0.703592	-2.190689E+9	-1.541705E-11	NaN
1059	1.000000	0.442890	7.37541e+06	-53089.1	1055.82	-29747.3	0.000000	0.000000	6.442927	0.015336	NaN	0.000000	0.001643	0.001612	28.0834	0.052736	0.001986	26.5475	168.014	-165.207	0.018542	0.441563	-0.693184	-0.694511	0.015336	26.5475	-0.693617	-1.600811E+9	-9.580260E-12	NaN
1059	1.000000	0.452866	7.37541e+06	-53089.1	1055.82	-29747.3	0.000000	0.000000	6.452902	0.002142	NaN	0.000000	0.001616	0.001649	28.0834	0.095237	0.002131	44.6909	28.8173	15.7193	-0.006784	0.451514	-0.683208	-0.684560	0.002142	44.6909	-0.683243	-1.154939E+9	-1.854356E-12	NaN
1059	1.000000	0.462889	7.37541e+06	-53089.1	1055.82	-29747.3	0.000000	0.000000	6.462923	-0.059376	NaN	0.000000	0.001626	0.001647	28.083	0.069439	0.001919	36.1763	42.9373	-165.929	-0.106606	0.461563	-0.673184	-0.674511	-0.059376	36.1763	-0.671953	-8.093282E+8	7.336449E-11	NaN
1059	1.000000	0.472885	7.37541e+06	-53089.1	1055.82	-29747.3	0.000000	0.000000	6.472919	-0.038788	NaN	0.000000	0.001646	0.001644	28.0832	0.031706	0.001813	17.4851	-129.838	12.6847	-0.024536	0.471538	-0.663189	-0.664536	-0.038788	17.4851	-0.661525	-5.825878E+8	6.657823E-11	NaN
1059	1.000000	0.482923	7.37541e+06	-53089.1	1055.82	-29747.3	0.000000	0.000000	6.482957	-0.054525	NaN	0.000000	0.001666	0.001629	28.0832	0.042565	0.002080	20.4596	-117.396	-163.258	-0.054728	0.481600	-0.653151	-0.654474	-0.054525	20.4596	-0.651152	-4.199819E+8	1.298282E-10	NaN
1059	1.000000	0.492896	7.37541e+06	-53089.1	1055.82	-29747.3	0.000000	0.000000	6.492931	-0.034624	NaN	0.000000	0.001696	0.001619	28.0833	0.083525	0.001974	42.3085	95.4997	14.7063	-0.046947	0.491547	-0.643178	-0.644527	-0.034624	42.3085	-0.642564	-3.202298E+8	1.081224E-10	NaN
1059	1.000000	0.502927	7.37541e+06	-53089.1	1055.82	-29747.3	0.000000	0.000000	6.502962	-0.014391	NaN	0.000000	0.001680	0.001600	28.0842	0.040120	0.001954	20.5354	-141.684	-164.62	0.073861	0.501621	-0.633147	-0.634453	-0.014391	20.5354	-0.632621	-2.338923E+8	6.152931E-11	NaN
1059	1.000000	0.512934	7.37541e+06	-53089.1	1055.82	-29747.3	0.000000	0.000000	6.512969	-0.012938	NaN	0.000000	0.001689	0.001631	28.0844	0.073466	0.002014	36.4691	130.567	16.9598	-0.018264	0.511508	-0.623140	-0.624566	-0.012938	36.4691	-0.622874	-1.718426E+8	7.528822E-11	NaN
1059	1.000000	0.522909	7.37541e+06	-53089.1	1055.82	-29747.3	0.000000	0.000000	6.522944	-0.026906	NaN	0.000000	0.001674	0.001622	28.0846	0.025093	0.002025	12.393	-55.7231	-167.924	0.024468	0.521611	-0.613165	-0.614463	-0.026906	12.393	-0.611536	-1.200190E+8	2.241832E-10	NaN
1059	1.000000	0.532925	7.37541e+06	-53089.1	1055.82	-29747.3	0.000000	0.000000	6.532957	-0.083730	NaN	0.000000	0.001700	0.001614	28.0845	0.126942	0.001975	64.2828	11.0748	12.1532	-0.053141	0.531537	-0.603149	-0.604536	-0.083730	64.2828	-0.602172	-8.920136E+7	9.386672E-10	NaN
1059	1.000000	0.542925	7.37541e+06	-53089.1	1055.82	-29747.3	0.000000	0.000000	6.542961	0.000125	NaN	0.000000	0.001690	0.001616	28.0845	0.023865	0.002021	11.8059	141.421	-168.53	-0.009033	0.541652	-0.593149	-0.594422	0.000125	11.8059	-0.593156	-6.701571E+7	-1.867084E-12	NaN
1059	1.000000	0.552934	7.37541e+06	-53089.1	1055.82	-29747.3	0.000000	0.000000	6.552968	-0.051037	NaN	0.000000	0.001686	0.001626	28.0843	0.100938	0.001887	53.4975	34.5966	17.4731	-0.057329	0.551557	-0.583140	-0.584516	-0.051037	53.4975	-0.582424	-4.766255E+7	1.070792E-9	NaN
1059	1.000000	0.562959	7.37541e+06	-53089.1	1055.82	-29747.3	0.000000	0.000000	6.562993	-0.041499	NaN	0.000000	0.001694	0.001623	28.0845	0.050734	0.002035	24.9269	25.5772	-166.737	-0.038974	0.561652	-0.573115	-0.574422	-0.041499	24.9269	-0.571867	-3.407394E+7	1.217919E-9	NaN
1059	1.000000	0.572933	7.37541e+06	-53089.1	1055.82	-29747.3	0.000000	0.000000	6.572970	0.015763	NaN	0.000000	0.001665	0.001596	28.0845	0.118817	0.002094	56.752	131.709	13.4655	0.036741	0.571535	-0.563141	-0.564539	0.015763	56.752	-0.563349	-2.598361E+7	-6.066495E-10	NaN
1059	1.000000	0.582959	7.37541e+06	-53089.1	1055.82	-29747.3	0.000000	0.000000	6.582994	-0.013111	NaN	0.000000	0.001716	0.001691	28.0844	0.136921	0.002027	67.5343	95.1497	-165.894	-0.025416	0.581607	-0.553115	-0.554467	-0.013111	67.5343	-0.552970	-1.866718E+7	7.023325E-10	NaN
1059	1.000000	0.592950	7.37541e+06	-53089.1	1055.82	-29747.3	0.000000	0.000000	6.592984	-0.044734	NaN	0.000000	0.001701	0.001712	28.0846	0.041631	0.002030	20.5112	58.4895	15.7218	0.018749	0.591586	-0.543124	-0.544488	-0.044734	20.5112	-0.541488	-1.294171E+7	3.456577E-9	NaN
1059	1.000000	0.602983	7.37541e+06	-53089.1	1055.82	-29747.3	0.000000	0.000000	6.603018	-0.032978	NaN	0.000000	0.001629	0.001687	28.0845	0.046687	0.001949	23.9526	85.5757	-166.526	0.043955	0.601631	-0.533091	-0.534443	-0.032978	23.9526	-0.532058	-9.57538e+06	3.444030E-9	NaN
1059	1.000000	0.612960	7.37541e+06	-53089.1	1055.82	-29747.3	0.000000	0.000000	6.612996	-0.004516	NaN	0.000000	0.001623	0.001660	28.0847	0.098311	0.002120	46.3688	56.2773	14.0369	0.005777	0.611580	-0.523114	-0.524494	-0.004516	46.3688	-0.523041	-7.17596e+06	6.292841E-10	NaN
1059	1.000000	0.622961	7.37541e+06	-53089.1	1055.82	-29747.3	0.000000	0.000000	6.622995	-0.040415	NaN	0.000000	0.001624	0.001642	28.0847	0.025000	0.002028	12.3292	-65.8811	-164.711	-0.000105	0.621668	-0.513113	-0.514406	-0.040415	12.3292	-0.510654	-4.82537e+06	8.375522E-9	NaN
1059	1.000000	0.632961	7.37541e+06	-53089.1	1055.82	-29747.3	0.000000	0.000000	6.632994	-0.060113	NaN	0.000000	0.001647	0.001626	28.0847	0.084704	0.002153	39.3484	-57.8158	14.5322	-0.092529	0.631576	-0.503113	-0.504498	-0.060113	39.3484	-0.501967	-3.65138e+06	1.646307E-8	NaN
1059	1.000000	0.642966	7.37541e+06	-53089.1	1055.82	-29747.3	0.000000	0.000000	6.643000	-0.054498	NaN	0.000000	0.001648	0.001640	28.0837	0.025416	0.002057	12.3568	122.524	-163.232	-0.004007	0.641680	-0.493108	-0.494394	-0.054498	12.3568	-0.489800	-2.46945e+06	2.206897E-8	NaN
1059	1.000000	0.652973	7.37541e+06	-53089.1	1055.82	-29747.3	0.000000	0.000000	6.653008	-0.029547	NaN	0.000000	0.001637	0.001689	28.0833	0.111069	0.002020	54.9827	-34.0897	17.2415	-0.066557	0.651594	-0.483101	-0.484480	-0.029547	54.9827	-0.482698	-1.96466e+06	1.503912E-8	NaN
1059	1.000000	0.662990	7.37541e+06	-53089.1	1055.82	-29747.3	0.000000	0.000000	6.663025	-0.009279	NaN	0.000000	0.001609	0.001702	28.0838	0.081131	0.001916	42.3461	109.179	-164.191	-0.053409	0.661651	-0.473084	-0.474422	-0.009279	42.3461	-0.472920	-1.43333e+06	6.473994E-9	NaN
1059	1.000000	0.673002	7.37541e+06	-53089.1	1055.82	-29747.3	0.000000	0.000000	6.673036	-0.058799	NaN	0.000000	0.001603	0.001678	28.0832	0.020518	0.001986	10.3317	31.6537	19.2962	0.060350	0.671622	-0.463071	-0.464452	-0.058799	10.3317	-0.458803	-908231	6.474020E-8	NaN
1059	1.000000	0.682991	7.37541e+06	-53089.1	1055.82	-29747.3	0.000000	0.000000	6.683025	-0.040502	NaN	0.000000	0.001595	0.001695	28.0835	0.067753	0.002086	32.4732	-68.4704	-161.846	-0.014820	0.681654	-0.453083	-0.454420	-0.040502	32.4732	-0.452147	-732110	5.532220E-8	NaN
1059	1.000000	0.692995	7.37541e+06	-53089.1	1055.82	-29747.3	0.000000	0.000000	6.693032	0.023729	NaN	0.000000	0.001654	0.001727	28.0831	0.086011	0.002045	42.0663	-8.118319	13.7386	0.029585	0.691673	-0.443079	-0.444401	0.023729	42.0663	-0.443502	-553056	-4.290516E-8	NaN
1059	1.000000	0.702998	7.37541e+06	-53089.1	1055.82	-29747.3	0.000000	0.000000	6.703034	-0.020330	NaN	0.000000	0.001662	0.001744	28.084	0.046981	0.002066	22.7427	-53.0471	-161.55	-0.043370	0.701667	-0.433075	-0.434407	-0.020330	22.7427	-0.432405	-385545	5.273182E-8	NaN
1059	1.000000	0.712957	7.37541e+06	-53089.1	1055.82	-29747.3	0.000000	0.000000	6.712991	-0.048522	NaN	0.000000	0.001683	0.001716	28.0832	0.054390	0.001999	27.2039	12.0919	17.6429	-0.009964	0.711653	-0.423116	-0.424421	-0.048522	27.2039	-0.421779	-272669	1.779536E-7	NaN
1059	1.000000	0.722967	7.37541e+06	-53089.1	1055.82	-29747.3	0.000000	0.000000	6.723004	0.024080	NaN	0.000000	0.001682	0.001711	28.0835	0.047575	0.002018	23.5809	75.4699	-164.789	-0.009207	0.721645	-0.413107	-0.414429	0.024080	23.5809	-0.413873	-210595	-1.143440E-7	NaN
1059	1.000000	0.733007	7.37541e+06	-53089.1	1055.82	-29747.3	0.000000	0.000000	6.733041	-0.046756	NaN	0.000000	0.001683	0.001706	28.083	0.097557	0.002100	46.4544	-4.891897	17.5967	-0.048066	0.731664	-0.403067	-0.404410	-0.046756	46.4544	-0.402312	-144196	3.242534E-7	NaN
1059	1.000000	0.743016	7.37541e+06	-53089.1	1055.82	-29747.3	0.000000	0.000000	6.743050	-0.045470	NaN	0.000000	0.001679	0.001732	28.0833	0.052028	0.002055	25.3194	-69.9403	-165.735	-0.002047	0.741708	-0.393058	-0.394366	-0.045470	25.3194	-0.391711	-101774	4.467721E-7	NaN
1059	1.000000	0.753002	7.37541e+06	-53089.1	1055.82	-29747.3	0.000000	0.000000	6.753039	0.016570	NaN	0.000000	0.001706	0.001782	28.0829	0.074293	0.002060	36.0713	-160.859	16.3355	-0.051564	0.751657	-0.383072	-0.384416	0.016570	36.0713	-0.383416	-77425.9	-2.140115E-7	NaN
1059	1.000000	0.763035	7.37541e+06	-53089.1	1055.82	-29747.3	0.000000	0.000000	6.763070	-0.023490	NaN	0.000000	0.001692	0.001766	28.0829	0.132309	0.002005	65.9917	-36.7047	-162.51	0.010437	0.761644	-0.373039	-0.374430	-0.023490	65.9917	-0.372772	-54454.1	4.313647E-7	NaN
1059	1.000000	0.773015	7.37541e+06	-53089.1	1055.82	-29747.3	0.000000	0.000000	6.773050	-0.014795	NaN	0.000000	0.001716	0.001725	28.0831	0.043416	0.001971	22.0325	9.311692	11.4329	-0.119619	0.771677	-0.363059	-0.364397	-0.014795	22.0325	-0.362555	-38794.2	3.813784E-7	NaN
1059	1.000000	0.783019	7.37541e+06	-53089.1	1055.82	-29747.3	0.000000	0.000000	6.783055	0.004629	NaN	0.000000	0.001679	0.001743	28.0842	0.055408	0.002074	26.7174	66.4397	-167.276	-0.017876	0.781704	-0.353055	-0.354369	0.004629	26.7174	-0.353185	-28392	-1.630532E-7	NaN
1059	1.000000	0.793055	7.37541e+06	-53089.1	1055.82	-29747.3	0.000000	0.000000	6.793091	-0.004344	NaN	0.000000	0.001698	0.001684	28.0842	0.075627	0.002018	37.4691	-108.754	13.9428	-0.040143	0.791648	-0.343018	-0.344426	-0.004344	37.4691	-0.342931	-20149.2	2.156043E-7	NaN
1059	1.000000	0.803042	7.37541e+06	-53089.1	1055.82	-29747.3	0.000000	0.000000	6.803075	-0.061405	NaN	0.000000	0.001649	0.001629	28.0843	0.074219	0.001971	37.6538	68.4104	-164.782	-0.048807	0.801724	-0.333032	-0.334350	-0.061405	37.6538	-0.331809	-13865.3	4.428684E-6	NaN
1059	1.000000	0.813023	7.37541e+06	-53089.1	1055.82	-29747.3	0.000000	0.000000	6.813057	-0.042258	NaN	0.000000	0.001671	0.001634	28.0843	0.023690	0.002042	11.6032	79.3496	15.6325	-0.064017	0.811699	-0.323051	-0.324375	-0.042258	11.6032	-0.320320	-9404.71	4.493228E-6	NaN
1059	1.000000	0.823047	7.37541e+06	-53089.1	1055.82	-29747.3	0.000000	0.000000	6.823083	-0.009345	NaN	0.000000	0.001671	0.001705	28.0841	0.020771	0.002074	10.0149	-129.617	-163.372	-0.047084	0.821722	-0.313027	-0.314352	-0.009345	10.0149	-0.312327	-7169.15	1.303493E-6	NaN
1059	1.000000	0.833046	7.37541e+06	-53089.1	1055.82	-29747.3	0.000000	0.000000	6.833081	-0.008531	NaN	0.000000	0.001652	0.001688	28.0842	0.005333	0.001975	2.700410	61.1841	18.3147	-0.020623	0.831645	-0.303028	-0.304429	-0.008531	2.700410	-0.300659	-4813.3	1.772421E-6	NaN
1059	1.000000	0.843075	7.37541e+06	-53089.1	1055.82	-29747.3	0.000000	0.000000	6.843111	0.009959	NaN	0.000000	0.001668	0.001698	28.0843	0.093827	0.001991	47.1173	-28.1648	-165.428	-0.013907	0.841704	-0.292999	-0.294370	0.009959	47.1173	-0.293157	-3720.1	-2.677119E-6	NaN
1059	1.000000	0.853043	7.37541e+06	-53089.1	1055.82	-29747.3	0.000000	0.000000	6.853078	-0.034891	NaN	0.000000	0.001677	0.001694	28.0843	0.019696	0.002091	9.418624	-21.448	14.0385	-0.015557	0.851685	-0.283031	-0.284389	-0.034891	9.418624	-0.280252	-2381.09	1.465339E-5	NaN
1059	1.000000	0.863033	7.37541e+06	-53089.1	1055.82	-29747.3	0.000000	0.000000	6.863068	-0.029675	NaN	0.000000	0.001675	0.001668	28.0843	0.093427	0.002059	45.3688	-106.613	-161.642	-0.040690	0.861723	-0.273040	-0.274350	-0.029675	45.3688	-0.272550	-1820.82	1.629760E-5	NaN
1059	1.000000	0.873061	7.37541e+06	-53089.1	1055.82	-29747.3	0.000000	0.000000	6.873096	-0.008676	NaN	0.000000	0.001656	0.001682	28.0843	0.027756	0.001924	14.4283	24.2843	18.7594	-0.045972	0.871736	-0.263013	-0.264338	-0.008676	14.4283	-0.262562	-1282.75	6.763866E-6	NaN
1059	1.000000	0.883083	7.37541e+06	-53089.1	1055.82	-29747.3	0.000000	0.000000	6.883117	-0.040852	NaN	0.000000	0.001619	0.001714	28.0844	0.027109	0.001974	13.7349	-93.3773	-165.099	0.061483	0.881700	-0.252991	-0.254374	-0.040852	13.7349	-0.250760	-844.737	4.836099E-5	NaN
1059	1.000000	0.893039	7.37541e+06	-53089.1	1055.82	-29747.3	0.000000	0.000000	6.893074	-0.009446	NaN	0.000000	0.001659	0.001670	28.0843	0.083792	0.002071	40.4656	-76.2613	15.8431	0.047188	0.891719	-0.243035	-0.244355	-0.009446	40.4656	-0.242860	-637.035	1.482855E-5	NaN
1059	1.000000	0.903075	7.37541e+06	-53089.1	1055.82	-29747.3	0.000000	0.000000	6.903111	0.003777	NaN	0.000000	0.001645	0.001667	28.0844	0.078408	0.001962	39.969	-145.901	-163.267	0.015020	0.901691	-0.232999	-0.234383	0.003777	39.969	-0.233069	-447.611	-8.439148E-6	NaN
1059	1.000000	0.913049	7.37541e+06	-53089.1	1055.82	-29747.3	0.000000	0.000000	6.913084	-0.027620	NaN	0.000000	0.001649	0.001728	28.0834	0.056665	0.001895	29.9098	137.881	13.9157	-0.054580	0.911738	-0.223025	-0.224336	-0.027620	29.9098	-0.222332	-302.616	9.126950E-5	NaN
1059	1.000000	0.923073	7.37541e+06	-53089.1	1055.82	-29747.3	0.000000	0.000000	6.923108	-0.010599	NaN	0.000000	0.001642	0.001726	28.0834	0.062717	0.001985	31.5911	117.482	-164.636	-0.087841	0.921820	-0.213001	-0.214254	-0.010599	31.5911	-0.212750	-212.454	4.988868E-5	NaN
1059	1.000000	0.933098	7.37541e+06	-53089.1	1055.82	-29747.3	0.000000	0.000000	6.933134	-0.009556	NaN	0.000000	0.001633	0.001704	28.0834	0.067610	0.002005	33.729	-9.893075	17.3604	0.065147	0.931717	-0.202975	-0.204357	-0.009556	33.729	-0.202763	-146.221	6.535262E-5	NaN
1059	1.000000	0.943092	7.37541e+06	-53089.1	1055.82	-29747.3	0.000000	0.000000	6.943125	-0.063229	NaN	0.000000	0.001631	0.001729	28.0831	0.098785	0.002097	47.1016	105.278	-167.728	-0.002349	0.941774	-0.192982	-0.194300	-0.063229	47.1016	-0.191975	-97.0442	0.000652	NaN
1059	1.000000	0.953074	7.37541e+06	-53089.1	1055.82	-29747.3	0.000000	0.000000	6.953110	0.008371	NaN	0.000000	0.001697	0.001724	28.0834	0.029604	0.002087	14.1818	-50.6761	15.647	-0.037865	0.951757	-0.183000	-0.184317	0.008371	14.1818	-0.183443	-69.7983	-0.000120	NaN
1059	1.000000	0.963089	7.37541e+06	-53089.1	1055.82	-29747.3	0.000000	0.000000	6.963123	-0.059451	NaN	0.000000	0.001645	0.001717	28.0831	0.010372	0.001899	5.461640	-28.4682	-166.699	0.002015	0.961827	-0.172985	-0.174247	-0.059451	5.461640	-0.164821	-33.3547	0.001782	NaN
1059	1.000000	0.973117	7.37541e+06	-53089.1	1055.82	-29747.3	0.000000	0.000000	6.973152	-0.011209	NaN	0.000000	0.001652	0.001722	28.0833	0.040843	0.001854	22.0263	108.194	13.902	-0.002699	0.971707	-0.162957	-0.164367	-0.011209	22.0263	-0.162576	-30.4518	0.000368	NaN
1059	1.000000	0.983102	7.37541e+06	-53089.1	1055.82	-29747.3	0.000000	0.000000	6.983136	-0.059432	NaN	0.000000	0.001676	0.001712	28.083	0.149547	0.001969	75.9344	-85.3756	-162.566	-0.114517	0.981849	-0.152971	-0.154225	-0.059432	75.9344	-0.152384	-20.0148	0.002969	NaN
1059	1.000000	0.993102	7.37541e+06	-53089.1	1055.82	-29747.3	0.000000	0.000000	6.993137	-0.020268	NaN	0.000000	0.001668	0.001690	28.0835	0.012215	0.001847	6.612080	-46.3429	18.1412	-0.070531	0.991776	-0.142971	-0.144298	-0.020268	6.612080	-0.140673	-12.1783	0.001664	NaN
1059	1.000000	1.003116	7.37541e+06	-53089.1	1055.82	-29747.3	0.000000	0.000000	7.003149	-0.068634	NaN	0.000000	0.001704	0.001716	28.0831	0.071610	0.002020	35.4569	-114.646	-167.269	-0.118170	1.001797	-0.132957	-0.134277	-0.068634	35.4569	-0.131506	-8.150450	0.008421	NaN
1059	1.000000	1.013128	7.37541e+06	-53089.1	1055.82	-29747.3	0.000000	0.000000	7.013162	-0.040138	NaN	0.000000	0.001679	0.001735	28.0833	0.037107	0.002100	17.667	-67.9612	14.5107	-0.110140	1.011746	-0.122946	-0.124328	-0.040138	17.667	-0.121242	-5.117932	0.007843	NaN
1059	1.000000	1.023110	7.37541e+06	-53089.1	1055.82	-29747.3	0.000000	0.000000	7.023143	-0.048883	NaN	0.000000	0.001724	0.001696	28.0829	0.061486	0.001958	31.4032	52.2402	-168.876	-0.041993	1.021763	-0.112964	-0.114311	-0.048883	31.4032	-0.111797	-3.277955	0.014913	NaN
1059	1.000000	1.033108	7.37541e+06	-53089.1	1055.82	-29747.3	0.000000	0.000000	7.033145	0.023213	NaN	0.000000	0.001721	0.001733	28.0838	0.026758	0.001981	13.51	-138.666	12.0432	-0.030418	1.031805	-0.102966	-0.104269	0.023213	13.51	-0.104255	-2.264864	-0.010249	NaN
1059	1.000000	1.043138	7.37541e+06	-53089.1	1055.82	-29747.3	0.000000	0.000000	7.043170	-0.085854	NaN	0.000000	0.001681	0.001721	28.0833	0.051887	0.001943	26.7017	-82.584	-166.426	-0.079675	1.041853	-0.092936	-0.094221	-0.085854	26.7017	-0.090524	-1.111993	0.077208	NaN
1059	1.000000	1.053154	7.37541e+06	-53089.1	1055.82	-29747.3	0.000000	0.000000	7.053190	0.016515	NaN	0.000000	0.001707	0.001755	28.0845	0.012902	0.001955	6.600810	164.954	16.0203	0.058434	1.051748	-0.082920	-0.084325	0.016515	6.600810	-0.084797	-0.812373	-0.020330	NaN
1059	1.000000	1.063118	7.37541e+06	-53089.1	1055.82	-29747.3	0.000000	0.000000	7.063152	-0.042731	NaN	0.000000	0.001702	0.001717	28.0843	0.077772	0.001985	39.1859	133.215	-168.428	-0.035349	1.061779	-0.072956	-0.074295	-0.042731	39.1859	-0.072138	-0.388810	0.109902	NaN
1059	1.000000	1.073142	7.37541e+06	-53089.1	1055.82	-29747.3	0.000000	0.000000	7.073178	-0.014600	NaN	0.000000	0.001696	0.001724	28.0844	0.097255	0.002075	46.8651	-164.313	13.2536	0.003681	1.071753	-0.062931	-0.064321	-0.014600	46.8651	-0.062698	-0.214886	0.067941	NaN
1059	1.000000	1.083145	7.37541e+06	-53089.1	1055.82	-29747.3	0.000000	0.000000	7.083180	-0.030993	NaN	0.000000	0.001680	0.001708	28.0841	0.090105	0.002060	43.7452	166.004	-165.034	-0.057428	1.081825	-0.052929	-0.054249	-0.030993	43.7452	-0.052397	-0.107745	0.287647	NaN
1059	1.000000	1.093108	7.37541e+06	-53089.1	1055.82	-29747.3	0.000000	0.000000	7.093141	-0.049001	NaN	0.000000	0.001605	0.001701	28.0842	0.052979	0.002020	26.2255	-148.767	16.9203	-0.119179	1.091791	-0.042966	-0.044283	-0.049001	26.2255	-0.041565	-0.050466	0.970987	NaN
1059	1.000000	1.103169	7.37541e+06	-53089.1	1055.82	-29747.3	0.000000	0.000000	7.103203	-0.061001	NaN	0.000000	0.001646	0.001690	28.0843	0.034966	0.001898	18.4272	4.365499	-165.633	-0.032597	1.101830	-0.032905	-0.034244	-0.061001	18.4272	-0.030422	-0.023646	2.579756	NaN
1059	1.000000	1.113142	7.37541e+06	-53089.1	1055.82	-29747.3	0.000000	0.000000	7.113173	-0.128864	NaN	0.000000	0.001610	0.001693	28.0843	0.041298	0.002035	20.2926	-113.289	14.3392	-0.125474	1.111850	-0.022932	-0.024224	-0.128864	20.2926	-0.018169	-0.011276	11.4285	NaN
1059	1.000000	1.123163	7.37541e+06	-53089.1	1055.82	-29747.3	0.000000	0.000000	7.123194	-0.113879	NaN	0.000000	0.001631	0.001700	28.0842	0.080327	0.002003	40.1126	136.81	-166.699	-0.113570	1.121790	-0.012911	-0.014284	-0.113879	40.1126	-0.010782	-0.006834	16.664	NaN
1059	1.000000	1.133119	7.37541e+06	-53089.1	1055.82	-29747.3	0.000000	0.000000	7.133167	0.285789	NaN	0.000000	0.001646	0.001721	28.0843	0.554878	0.002022	274.431	16.5223	10.6348	0.033067	1.131789	-0.002955	-0.004285	0.285789	274.431	-0.003736	-0.002607	-109.617	NaN
1059	2.000000	1.141706	7.37541e+06	-53089.1	1055.82	-29747.3	0.000000	0.000000	7.142135	9.577335	NaN	0.000000	0.001613	0.001696	28.0845	9.135542	0.001559	5860.08	8.333213	-172.679	9.737523	1.141339	0.005632	0.005265	9.577335	5860.08	0.004406	0.003598	2662.07	89261.6
1059	2.000000	1.144178	7.37541e+06	-53089.1	1055.82	-29747.3	0.000000	0.000000	7.144754	13.1208	NaN	0.000000	0.001638	0.001668	28.0843	12.5599	0.001741	7213.07	9.603622	3.843371	11.8937	1.143810	0.008104	0.007736	13.1208	7213.07	0.006740	0.005778	2270.8	86696.7
1059	2.000000	1.146649	7.37541e+06	-53089.1	1055.82	-29747.3	0.000000	0.000000	7.147440	18.3612	NaN	0.000000	0.001626	0.001753	28.0846	15.3035	0.001690	9053.58	4.040278	-173.062	18.0573	1.146344	0.010575	0.010270	18.3612	9053.58	0.009054	0.008149	2253.12	91629.5
1059	2.000000	1.149189	7.37541e+06	-53089.1	1055.82	-29747.3	0.000000	0.000000	7.150182	23.2887	NaN	0.000000	0.001679	0.001696	28.0845	17.4253	0.001642	10613.8	3.852356	6.501374	22.7405	1.148833	0.013115	0.012759	23.2887	10613.8	0.011469	0.010860	2144.37	93050.9
1059	2.000000	1.151588	7.37541e+06	-53089.1	1055.82	-29747.3	0.000000	0.000000	7.152832	29.3703	NaN	0.000000	0.001597	0.001712	28.0846	20.3459	0.001784	11404.1	4.498697	-174.712	27.8413	1.151363	0.015514	0.015289	29.3703	11404.1	0.013583	0.013441	2185.05	89869.4
1059	2.000000	1.154128	7.37541e+06	-53089.1	1055.82	-29747.3	0.000000	0.000000	7.155601	34.9447	NaN	0.000000	0.001612	0.001703	28.0832	23.1693	0.001669	13882.9	6.434346	0.337498	34.3088	1.153855	0.018054	0.017781	34.9447	13882.9	0.016167	0.016873	2071.09	97647.5
1059	2.000000	1.156635	7.37541e+06	-53089.1	1055.82	-29747.3	0.000000	0.000000	7.158272	38.9363	NaN	0.000000	0.001666	0.001705	28.0834	25.6253	0.001761	14552.1	1.443307	-174.926	38.5807	1.156379	0.020561	0.020305	38.9363	14552.1	0.018555	0.020322	1916.01	93265.5
1059	2.000000	1.159133	7.37541e+06	-53089.1	1055.82	-29747.3	0.000000	0.000000	7.161192	49.1749	NaN	0.000000	0.001599	0.001688	28.0835	28.0623	0.001782	15744.3	4.091076	2.947284	48.3614	1.158733	0.023059	0.022659	49.1749	15744.3	0.020717	0.023681	2076.52	93474.8
1059	2.000000	1.161590	7.37541e+06	-53089.1	1055.82	-29747.3	0.000000	0.000000	7.163930	56.0212	NaN	0.000000	0.001622	0.001667	28.0835	29.6936	0.001790	16584	3.331546	-177.843	54.4896	1.161314	0.025516	0.025241	56.0212	16584	0.022983	0.027448	2041.02	91455.3
1059	2.000000	1.164122	7.37541e+06	-53089.1	1055.82	-29747.3	0.000000	0.000000	7.166708	62.0069	NaN	0.000000	0.001654	0.001745	28.0833	32.8317	0.001818	18059.1	3.327788	2.121683	61.8697	1.163782	0.028048	0.027708	62.0069	18059.1	0.025473	0.031882	1944.89	92405
1059	2.000000	1.166557	7.37541e+06	-53089.1	1055.82	-29747.3	0.000000	0.000000	7.169512	70.9825	NaN	0.000000	0.001642	0.001709	28.0832	35.2322	0.001780	19793.1	6.653546	178.046	69.1033	1.166239	0.030483	0.030165	70.9825	19793.1	0.027793	0.036294	1955.79	94923.3
1059	2.000000	1.169100	7.37541e+06	-53089.1	1055.82	-29747.3	0.000000	0.000000	7.172449	80.5463	NaN	0.000000	0.001650	0.001707	28.0832	36.431	0.001793	20322.5	3.535715	1.863549	78.9893	1.168669	0.033026	0.032595	80.5463	20322.5	0.030053	0.040855	1971.54	91860.9
1059	2.000000	1.171559	7.37541e+06	-53089.1	1055.82	-29747.3	0.000000	0.000000	7.175263	89.1851	NaN	0.000000	0.001666	0.001703	28.0831	38.6605	0.001791	21586.7	4.654672	179.892	89.0094	1.171317	0.035485	0.035243	89.1851	21586.7	0.032386	0.045835	1945.8	92121.7
1059	2.000000	1.174071	7.37541e+06	-53089.1	1055.82	-29747.3	0.000000	0.000000	7.178182	99.0973	NaN	0.000000	0.001643	0.001733	28.083	41.1766	0.001750	23524.2	2.480866	1.660375	98.6265	1.173648	0.037997	0.037575	99.0973	23524.2	0.034837	0.051368	1929.18	94829.5
1059	2.000000	1.176528	7.37541e+06	-53089.1	1055.82	-29747.3	0.000000	0.000000	7.180957	106.817	NaN	0.000000	0.001631	0.001685	28.0831	43.951	0.001899	23139.7	0.407842	-177.122	103.639	1.176265	0.040454	0.040191	106.817	23139.7	0.036992	0.056485	1891.05	88953.4
1059	2.000000	1.179126	7.37541e+06	-53089.1	1055.82	-29747.3	0.000000	0.000000	7.183862	114.26	NaN	0.000000	0.001644	0.001676	28.0834	46.7344	0.001726	27076.3	7.956902	-6.823728	114.884	1.178869	0.043052	0.042795	114.26	27076.3	0.039887	0.063738	1792.66	97986.1
1059	2.000000	1.181555	7.37541e+06	-53089.1	1055.82	-29747.3	0.000000	0.000000	7.186858	128.068	NaN	0.000000	0.001709	0.001682	28.0831	47.4887	0.001764	26916.7	3.468175	178.056	127.191	1.181252	0.045481	0.045178	128.068	26916.7	0.041913	0.069065	1854.31	93576.2
1059	2.000000	1.184111	7.37541e+06	-53089.1	1055.82	-29747.3	0.000000	0.000000	7.190000	142.312	NaN	0.000000	0.001684	0.001719	28.083	50.6199	0.001824	27750	5.593619	-4.084017	142.054	1.183732	0.048037	0.047658	142.312	27750	0.044191	0.075306	1889.78	92389
1059	2.000000	1.186546	7.37541e+06	-53089.1	1055.82	-29747.3	0.000000	0.000000	7.192846	152.306	NaN	0.000000	0.001668	0.001718	28.0843	53.2465	0.001897	28067.5	5.835823	175.7	151.109	1.186266	0.050472	0.050192	152.306	28067.5	0.046402	0.081617	1866.11	89760.8
1059	2.000000	1.189049	7.37541e+06	-53089.1	1055.82	-29747.3	0.000000	0.000000	7.195901	165.712	NaN	0.000000	0.001678	0.001686	28.0843	53.2003	0.001765	30146.5	0.498116	0.855115	162.289	1.188658	0.052975	0.052584	165.712	30146.5	0.048853	0.088900	1864.02	92375.9
1059	2.000000	1.191548	7.37541e+06	-53089.1	1055.82	-29747.3	0.000000	0.000000	7.198607	170.738	NaN	0.000000	0.001711	0.001754	28.0844	55.6281	0.001749	31806.5	3.366440	176.279	169.431	1.191302	0.055474	0.055228	170.738	31806.5	0.051448	0.096942	1761.23	93332.3
1059	2.000000	1.194008	7.37541e+06	-53089.1	1055.82	-29747.3	0.000000	0.000000	7.201706	186.298	NaN	0.000000	0.001685	0.001726	28.0843	58.5561	0.001901	30802.2	0.971731	0.422218	182.79	1.193600	0.057934	0.057526	186.298	30802.2	0.053398	0.103203	1805.15	87600.7
1059	2.000000	1.196477	7.37541e+06	-53089.1	1055.82	-29747.3	0.000000	0.000000	7.204747	200.2	NaN	0.000000	0.001699	0.001713	28.0847	61.2638	0.001832	33440.8	4.109558	176.238	196.83	1.196297	0.060403	0.060223	200.2	33440.8	0.055913	0.111562	1794.52	91472.9
1059	2.000000	1.199033	7.37541e+06	-53089.1	1055.82	-29747.3	0.000000	0.000000	7.207909	214.947	NaN	0.000000	0.001638	0.001715	28.0843	62.5649	0.001776	35225.7	5.062208	-4.750006	210.418	1.198674	0.062959	0.062600	214.947	35225.7	0.058382	0.120071	1790.16	92878
1059	2.000000	1.201487	7.37541e+06	-53089.1	1055.82	-29747.3	0.000000	0.000000	7.210913	228.285	NaN	0.000000	0.001653	0.001731	28.0844	64.6567	0.001764	36650.7	4.306739	174.595	225.337	1.201295	0.065414	0.065221	228.285	36650.7	0.060742	0.128483	1776.78	93418.5
1059	2.000000	1.203986	7.37541e+06	-53089.1	1055.82	-29747.3	0.000000	0.000000	7.213955	241.506	NaN	0.000000	0.001655	0.001679	28.0842	67.6122	0.001777	38043.6	2.121150	-3.452454	236.513	1.203701	0.067912	0.067627	241.506	38043.6	0.063151	0.137349	1758.34	93787.1
1059	2.000000	1.206595	7.37541e+06	-53089.1	1055.82	-29747.3	0.000000	0.000000	7.217224	257.555	NaN	0.000000	0.001630	0.001707	28.0845	71.4514	0.001801	39663.6	4.671547	174.293	256.437	1.206156	0.070521	0.070082	257.555	39663.6	0.065651	0.146848	1753.89	94565.1
1059	2.000000	1.209027	7.37541e+06	-53089.1	1055.82	-29747.3	0.000000	0.000000	7.220487	277.752	NaN	0.000000	0.001650	0.001702	28.0844	71.7027	0.001756	40838.8	4.654299	-5.110455	272.363	1.208493	0.072954	0.072419	277.752	40838.8	0.067853	0.155463	1786.62	94630.9
1059	2.000000	1.211545	7.37541e+06	-53089.1	1055.82	-29747.3	0.000000	0.000000	7.223374	286.717	NaN	0.000000	0.001670	0.001698	28.0845	74.6305	0.001800	41452.5	5.799045	172.218	285.589	1.211203	0.075471	0.075129	286.717	41452.5	0.070284	0.165245	1735.11	93166.7
1059	2.000000	1.213995	7.37541e+06	-53089.1	1055.82	-29747.3	0.000000	0.000000	7.226384	300.332	NaN	0.000000	0.001671	0.001701	28.0845	77.8874	0.001815	42910.3	7.064741	-8.390437	297.576	1.213486	0.077921	0.077412	300.332	42910.3	0.072672	0.175127	1714.94	93682.6
1059	2.000000	1.216480	7.37541e+06	-53089.1	1055.82	-29747.3	0.000000	0.000000	7.229779	322.482	NaN	0.000000	0.001667	0.001698	28.0847	79.9486	0.001822	43886	1.720675	176.331	318.993	1.216266	0.080406	0.080192	322.482	43886	0.074895	0.184567	1747.24	93330.1
1059	2.000000	1.218948	7.37541e+06	-53089.1	1055.82	-29747.3	0.000000	0.000000	7.232913	338.677	NaN	0.000000	0.001686	0.001681	28.0843	81.3104	0.001837	44267.4	3.770998	-4.978479	331.508	1.218658	0.082874	0.082585	338.677	44267.4	0.077136	0.194321	1742.88	91748.2
1059	2.000000	1.221387	7.37541e+06	-53089.1	1055.82	-29747.3	0.000000	0.000000	7.236164	358.405	NaN	0.000000	0.001667	0.001710	28.0833	82.9407	0.001723	48126.8	2.048667	175.547	351.375	1.221119	0.085314	0.085045	358.405	48126.8	0.079728	0.205897	1740.71	96902.5
1059	2.000000	1.223975	7.37541e+06	-53089.1	1055.82	-29747.3	0.000000	0.000000	7.239514	376.933	NaN	0.000000	0.001676	0.001691	28.0834	86.6208	0.001723	50277.1	3.595219	-6.471509	372.963	1.223652	0.087901	0.087578	376.933	50277.1	0.082278	0.217589	1732.32	98474.9
1059	2.000000	1.226526	7.37541e+06	-53089.1	1055.82	-29747.3	0.000000	0.000000	7.242644	391.026	NaN	0.000000	0.001634	0.001697	28.0836	90.7496	0.001917	47331.2	7.007925	170.215	389.921	1.226254	0.090452	0.090180	391.026	47331.2	0.084256	0.226863	1723.62	90790.1
1059	2.000000	1.228996	7.37541e+06	-53089.1	1055.82	-29747.3	0.000000	0.000000	7.245947	411.259	NaN	0.000000	0.001694	0.001689	28.0834	90.8604	0.001764	51502	6.006055	-8.799080	407.968	1.228701	0.092922	0.092627	411.259	51502	0.086933	0.239709	1715.66	96107.1
1059	2.000000	1.231602	7.37541e+06	-53089.1	1055.82	-29747.3	0.000000	0.000000	7.249170	426.259	NaN	0.000000	0.001681	0.001717	28.0837	92.4559	0.001767	52327.3	3.824519	172.458	428.375	1.231239	0.095528	0.095165	426.259	52327.3	0.089418	0.251929	1691.98	95249.5
1059	2.000000	1.234009	7.37541e+06	-53089.1	1055.82	-29747.3	0.000000	0.000000	7.252371	445.564	NaN	0.000000	0.001654	0.001723	28.0836	96.4946	0.001792	53843.9	4.862199	-8.434279	442.513	1.233729	0.097935	0.097656	445.564	53843.9	0.091729	0.263542	1690.67	95826.2
1059	2.000000	1.236508	7.37541e+06	-53089.1	1055.82	-29747.3	0.000000	0.000000	7.255663	464.848	NaN	0.000000	0.001656	0.001706	28.0835	98.533	0.001755	56133.3	3.492624	172.557	464.163	1.236275	0.100434	0.100201	464.848	56133.3	0.094223	0.276355	1682.07	97557.3
1059	2.000000	1.239055	7.37541e+06	-53089.1	1055.82	-29747.3	0.000000	0.000000	7.259269	490.619	NaN	0.000000	0.001674	0.001765	28.0836	101.257	0.001776	57000.7	8.131627	-11.461	490.71	1.238403	0.102981	0.102329	490.619	57000.7	0.096525	0.288433	1700.98	96968.7
1059	2.000000	1.239594	7.37541e+06	-53089.1	1055.82	-29747.3	0.000000	0.000000	7.259661	487.021	NaN	0.000000	0.001655	0.001752	28.0835	102.298	0.001786	57290.4	5.012372	170.45	489.119	1.239346	0.103520	0.103272	487.021	57290.4	0.097144	0.291720	1669.48	96910.7