File: remote_trans/data/nanoindenter/0828-1/data/Data_2025-08-06,11h17m57s/2025-07-22_16-23-58_1_628.txt
2025-07-22, 16:23:58, 1
Index	Phase	Displacement	Time	Pos X	Pos Y	Pos Z	Rot A	Rot B	Piezo Z	Force A	Force B	Gripper	Voltage A	Voltage B	Temperature	Amplitude force	Amplitude pos	Stiffness	Phase shift	Phase excitation	Force A raw	Displacement raw	HMax	HMax raw	Real Force	Real Stiffness	Contact Depth	Area	Hardness	Reduced Mod.
[#]	[#]	[um]	[s]	[um]	[um]	[um]	[m°]	[m°]	[um]	[uN]	[uN]	[V]	[V]	[V]	[°C]	[uN]	[um]	[N/m]	[°]	[°]	[uN]	[um]	[um]	[um]	[uN]	[N/m]	[um]	[um^2]	[MPa]	[MPa]
628	1.000000	0.002678	7.37119e+06	-45689.1	1005.82	-29771.6	0.000000	0.000000	6.002805	0.036414	NaN	0.000000	0.001596	0.001677	28.0828	0.135136	0.000917	147.339	43.3609	-167.356	-0.018837	0.001400	-1.124981	-1.126259	0.036414	147.339	-1.125166	-1.090885E+15	-3.337984E-17	NaN
628	1.000000	0.012735	7.37119e+06	-45689.1	1005.82	-29771.6	0.000000	0.000000	6.012861	0.021752	NaN	0.000000	0.001596	0.001669	28.0829	0.070012	0.001161	60.2878	-84.6824	23.3953	0.047932	0.011320	-1.114924	-1.116339	0.021752	60.2878	-1.115194	-8.016630E+14	-2.713419E-17	NaN
628	1.000000	0.022612	7.37119e+06	-45689.1	1005.82	-29771.6	0.000000	0.000000	6.022738	0.013537	NaN	0.000000	0.001628	0.001649	28.083	0.053209	0.001730	30.7584	-168.207	-166.463	0.069593	0.021295	-1.105047	-1.106364	0.013537	30.7584	-1.105377	-5.918911E+14	-2.287149E-17	NaN
628	1.000000	0.032606	7.37119e+06	-45689.1	1005.82	-29771.6	0.000000	0.000000	6.032732	0.023350	NaN	0.000000	0.001624	0.001645	28.0828	0.069033	0.001885	36.6289	62.6154	13.685	0.084110	0.031251	-1.095053	-1.096408	0.023350	36.6289	-1.095531	-4.365904E+14	-5.348236E-17	NaN
628	1.000000	0.042604	7.37119e+06	-45689.1	1005.82	-29771.6	0.000000	0.000000	6.042733	0.090514	NaN	0.000000	0.001626	0.001693	28.0827	0.125284	0.001998	62.7098	83.65	-163.841	0.009727	0.041296	-1.085055	-1.086363	0.090514	62.7098	-1.086137	-3.265465E+14	-2.771847E-16	NaN
628	1.000000	0.052636	7.37119e+06	-45689.1	1005.82	-29771.6	0.000000	0.000000	6.052762	0.021085	NaN	0.000000	0.001588	0.001679	28.0828	0.067987	0.002091	32.5074	-94.8952	15.3494	0.062136	0.051244	-1.075023	-1.076415	0.021085	32.5074	-1.075510	-2.350737E+14	-8.969617E-17	NaN
628	1.000000	0.062640	7.37119e+06	-45689.1	1005.82	-29771.6	0.000000	0.000000	6.062767	0.063604	NaN	0.000000	0.001636	0.001680	28.0827	0.021519	0.001862	11.559	-15.425	-162.839	0.077072	0.061284	-1.065020	-1.066375	0.063604	11.559	-1.069146	-1.930732E+14	-3.294279E-16	NaN
628	1.000000	0.072636	7.37119e+06	-45689.1	1005.82	-29771.6	0.000000	0.000000	6.072763	0.046016	NaN	0.000000	0.001604	0.001714	28.0829	0.032365	0.002073	15.6143	-10.5621	13.7725	0.006972	0.071258	-1.055023	-1.056401	0.046016	15.6143	-1.057233	-1.335476E+14	-3.445642E-16	NaN
628	1.000000	0.082623	7.37119e+06	-45689.1	1005.82	-29771.6	0.000000	0.000000	6.082750	0.046913	NaN	0.000000	0.001575	0.001669	28.0829	0.081666	0.001990	41.0317	-132.663	-162.753	-0.007300	0.081375	-1.045036	-1.046285	0.046913	41.0317	-1.045893	-9.401738E+13	-4.989821E-16	NaN
628	1.000000	0.092661	7.37119e+06	-45689.1	1005.82	-29771.6	0.000000	0.000000	6.092787	0.017551	NaN	0.000000	0.001565	0.001687	28.0829	0.045231	0.002093	21.613	93.4415	17.8957	0.085945	0.091296	-1.034998	-1.036363	0.017551	21.613	-1.035607	-6.837496E+13	-2.566913E-16	NaN
628	1.000000	0.102647	7.37119e+06	-45689.1	1005.82	-29771.6	0.000000	0.000000	6.102774	0.037049	NaN	0.000000	0.001592	0.001647	28.0828	0.096342	0.002011	47.9167	-127.377	-167.91	0.050887	0.101368	-1.025012	-1.026291	0.037049	47.9167	-1.025592	-5.014006E+13	-7.389039E-16	NaN
628	1.000000	0.112629	7.37119e+06	-45689.1	1005.82	-29771.6	0.000000	0.000000	6.112756	0.026362	NaN	0.000000	0.001618	0.001707	28.0829	0.104395	0.002065	50.5651	59.1078	13.2795	0.048092	0.111325	-1.015030	-1.016335	0.026362	50.5651	-1.015421	-3.658771E+13	-7.205088E-16	NaN
628	1.000000	0.122675	7.37119e+06	-45689.1	1005.82	-29771.6	0.000000	0.000000	6.122801	0.016405	NaN	0.000000	0.001605	0.001675	28.0816	0.026201	0.001947	13.4597	173.615	-162.551	0.018129	0.121342	-1.004984	-1.006317	0.016405	13.4597	-1.005898	-2.723745E+13	-6.023042E-16	NaN
628	1.000000	0.132634	7.37119e+06	-45689.1	1005.82	-29771.6	0.000000	0.000000	6.132761	0.053490	NaN	0.000000	0.001605	0.001608	28.0819	0.036379	0.001935	18.8015	18.0801	15.6731	0.058567	0.131303	-0.995025	-0.996356	0.053490	18.8015	-0.997159	-2.077397E+13	-2.574859E-15	NaN
628	1.000000	0.142646	7.37119e+06	-45689.1	1005.82	-29771.6	0.000000	0.000000	6.142769	-0.053763	NaN	0.000000	0.001596	0.001630	28.0817	0.031802	0.001974	16.1072	-97.1464	-163.946	-0.072912	0.141308	-0.985013	-0.986351	-0.053763	16.1072	-0.982509	-1.318915E+13	4.076278E-15	NaN
628	1.000000	0.152676	7.37119e+06	-45689.1	1005.82	-29771.6	0.000000	0.000000	6.152805	0.092317	NaN	0.000000	0.001582	0.001651	28.0818	0.164300	0.002046	80.3053	179.833	14.4705	0.027793	0.151279	-0.974983	-0.976380	0.092317	80.3053	-0.975845	-1.072583E+13	-8.606968E-15	NaN
628	1.000000	0.162635	7.37119e+06	-45689.1	1005.82	-29771.6	0.000000	0.000000	6.162761	0.007619	NaN	0.000000	0.001590	0.001663	28.0817	0.145642	0.001989	73.2349	-139.402	-164.93	-0.023054	0.161354	-0.965024	-0.966305	0.007619	73.2349	-0.965102	-7.684983E+12	-9.914730E-16	NaN
628	1.000000	0.172671	7.37119e+06	-45689.1	1005.82	-29771.6	0.000000	0.000000	6.172800	0.078079	NaN	0.000000	0.001652	0.001650	28.0821	0.071791	0.002019	35.5542	-68.8515	19.5116	0.115925	0.171342	-0.954988	-0.956318	0.078079	35.5542	-0.956635	-5.908779E+12	-1.321411E-14	NaN
628	1.000000	0.182672	7.37119e+06	-45689.1	1005.82	-29771.6	0.000000	0.000000	6.182796	-0.021213	NaN	0.000000	0.001653	0.001637	28.0816	0.078999	0.001993	39.6383	43.7363	-166.82	-0.072558	0.181380	-0.944987	-0.946279	-0.021213	39.6383	-0.944586	-4.064432E+12	5.219099E-15	NaN
628	1.000000	0.192671	7.37119e+06	-45689.1	1005.82	-29771.6	0.000000	0.000000	6.192798	0.049788	NaN	0.000000	0.001604	0.001688	28.0821	0.027769	0.002136	12.9984	-74.9291	16.0597	-0.011063	0.191308	-0.934988	-0.936351	0.049788	12.9984	-0.937861	-3.298206E+12	-1.509553E-14	NaN
628	1.000000	0.202687	7.37119e+06	-45689.1	1005.82	-29771.6	0.000000	0.000000	6.202814	0.028281	NaN	0.000000	0.001602	0.001638	28.0817	0.046138	0.002038	22.6433	139.224	-166.882	0.013445	0.201382	-0.924972	-0.926278	0.028281	22.6433	-0.925908	-2.274948E+12	-1.243137E-14	NaN
628	1.000000	0.212651	7.37119e+06	-45689.1	1005.82	-29771.6	0.000000	0.000000	6.212779	0.075185	NaN	0.000000	0.001609	0.001649	28.0823	0.077284	0.001948	39.6706	-38.4386	16.5001	0.041502	0.211426	-0.915008	-0.916233	0.075185	39.6706	-0.916429	-1.694309E+12	-4.437485E-14	NaN
628	1.000000	0.222734	7.37119e+06	-45689.1	1005.82	-29771.6	0.000000	0.000000	6.222858	-0.020077	NaN	0.000000	0.001637	0.001675	28.0818	0.138745	0.001987	69.8378	98.0463	-164.489	0.014747	0.221407	-0.904926	-0.906252	-0.020077	69.8378	-0.904710	-1.176800E+12	1.706096E-14	NaN
628	1.000000	0.232725	7.37119e+06	-45689.1	1005.82	-29771.6	0.000000	0.000000	6.232852	0.041238	NaN	0.000000	0.001603	0.001682	28.082	0.011052	0.001937	5.704389	82.6031	15.1124	-0.014817	0.231324	-0.894934	-0.896335	0.041238	5.704389	-0.900356	-1.027726E+12	-4.012579E-14	NaN
628	1.000000	0.242686	7.37119e+06	-45689.1	1005.82	-29771.6	0.000000	0.000000	6.242814	0.069151	NaN	0.000000	0.001620	0.001674	28.0821	0.165794	0.002071	80.0625	-28.9076	-163.542	0.063266	0.241416	-0.884974	-0.886244	0.069151	80.0625	-0.885621	-6.497096E+11	-1.064333E-13	NaN
628	1.000000	0.252686	7.3712e+06	-45689.1	1005.82	-29771.6	0.000000	0.000000	6.252812	0.008723	NaN	0.000000	0.001604	0.001648	28.0824	0.056878	0.001994	28.5223	38.5599	15.1153	0.023448	0.251311	-0.874973	-0.876348	0.008723	28.5223	-0.875202	-4.696999E+11	-1.857061E-14	NaN
628	1.000000	0.262730	7.3712e+06	-45689.1	1005.82	-29771.6	0.000000	0.000000	6.262854	-0.031439	NaN	0.000000	0.001603	0.001660	28.0833	0.051285	0.002084	24.6085	-100.813	-164.08	-0.055548	0.261439	-0.864929	-0.866220	-0.031439	24.6085	-0.863971	-3.310237E+11	9.497623E-14	NaN
628	1.000000	0.272728	7.3712e+06	-45689.1	1005.82	-29771.6	0.000000	0.000000	6.272854	0.009582	NaN	0.000000	0.001608	0.001661	28.0832	0.059481	0.002025	29.3782	-145.073	17.7674	0.084110	0.271397	-0.854931	-0.856263	0.009582	29.3782	-0.855176	-2.516601E+11	-3.807486E-14	NaN
628	1.000000	0.282708	7.3712e+06	-45689.1	1005.82	-29771.6	0.000000	0.000000	6.282835	0.050246	NaN	0.000000	0.001592	0.001651	28.0834	0.032261	0.002065	15.6211	-148.998	-164.768	0.050342	0.281352	-0.844951	-0.846307	0.050246	15.6211	-0.847364	-1.972583E+11	-2.547207E-13	NaN
628	1.000000	0.292721	7.3712e+06	-45689.1	1005.82	-29771.6	0.000000	0.000000	6.292848	0.060377	NaN	0.000000	0.001589	0.001643	28.0832	0.024214	0.002009	12.053	-147.409	13.9399	0.173383	0.291342	-0.834938	-0.836317	0.060377	12.053	-0.838695	-1.505279E+11	-4.011028E-13	NaN
628	1.000000	0.302743	7.3712e+06	-45689.1	1005.82	-29771.6	0.000000	0.000000	6.302867	-0.022084	NaN	0.000000	0.001615	0.001648	28.0833	0.027893	0.002059	13.5499	-85.4238	-160.255	0.047068	0.301420	-0.824916	-0.826239	-0.022084	13.5499	-0.823694	-9.425269E+10	2.343091E-13	NaN
628	1.000000	0.312781	7.3712e+06	-45689.1	1005.82	-29771.6	0.000000	0.000000	6.312907	0.016704	NaN	0.000000	0.001637	0.001644	28.0831	0.070241	0.002006	35.0219	169.005	14.1793	-0.008637	0.311387	-0.814878	-0.816273	0.016704	35.0219	-0.815236	-7.237682E+10	-2.307915E-13	NaN
628	1.000000	0.322752	7.3712e+06	-45689.1	1005.82	-29771.6	0.000000	0.000000	6.322880	0.065620	NaN	0.000000	0.001598	0.001667	28.0829	0.039054	0.002100	18.5933	125.881	-166.152	-0.028492	0.321436	-0.804907	-0.806223	0.065620	18.5933	-0.807554	-5.693614E+10	-1.152528E-12	NaN
628	1.000000	0.332718	7.3712e+06	-45689.1	1005.82	-29771.6	0.000000	0.000000	6.332843	0.006400	NaN	0.000000	0.001563	0.001670	28.083	0.013265	0.002016	6.579176	-77.1632	17.9031	0.026493	0.331336	-0.794941	-0.796323	0.006400	6.579176	-0.795671	-3.927237E+10	-1.629584E-13	NaN
628	1.000000	0.342742	7.3712e+06	-45689.1	1005.82	-29771.6	0.000000	0.000000	6.342865	-0.052856	NaN	0.000000	0.001559	0.001694	28.0828	0.048937	0.001875	26.103	-164.88	-165.6	-0.020965	0.341447	-0.784917	-0.786212	-0.052856	26.103	-0.783399	-2.675545E+10	1.975533E-12	NaN
628	1.000000	0.352759	7.3712e+06	-45689.1	1005.82	-29771.6	0.000000	0.000000	6.352886	0.048856	NaN	0.000000	0.001599	0.001725	28.083	0.045018	0.001918	23.4708	19.3105	19.0026	0.016837	0.351407	-0.774900	-0.776252	0.048856	23.4708	-0.776461	-2.153461E+10	-2.268698E-12	NaN
628	1.000000	0.362756	7.3712e+06	-45689.1	1005.82	-29771.6	0.000000	0.000000	6.362883	0.035415	NaN	0.000000	0.001614	0.001690	28.0827	0.031399	0.002040	15.3944	-83.3228	-164.007	0.081328	0.361431	-0.764903	-0.766228	0.035415	15.3944	-0.766628	-1.582909E+10	-2.237356E-12	NaN
628	1.000000	0.372756	7.3712e+06	-45689.1	1005.82	-29771.6	0.000000	0.000000	6.372882	0.038589	NaN	0.000000	0.001658	0.001664	28.083	0.049075	0.002158	22.7387	3.106714	15.5232	0.026680	0.371375	-0.754903	-0.756284	0.038589	22.7387	-0.756176	-1.140978E+10	-3.382133E-12	NaN
628	1.000000	0.382754	7.3712e+06	-45689.1	1005.82	-29771.6	0.000000	0.000000	6.382878	-0.032505	NaN	0.000000	0.001639	0.001671	28.0828	0.154072	0.001937	79.538	-31.6076	-164.917	-0.025204	0.381452	-0.744905	-0.746207	-0.032505	79.538	-0.744598	-7.937372E+9	4.095219E-12	NaN
628	1.000000	0.392766	7.3712e+06	-45689.1	1005.82	-29771.6	0.000000	0.000000	6.392887	-0.113128	NaN	0.000000	0.001662	0.001687	28.082	0.058986	0.002015	29.2761	100.895	13.389	-0.055055	0.391402	-0.734893	-0.736257	-0.113128	29.2761	-0.731995	-5.345547E+9	2.116300E-11	NaN
628	1.000000	0.402763	7.3712e+06	-45689.1	1005.82	-29771.6	0.000000	0.000000	6.402887	-0.010666	NaN	0.000000	0.001643	0.001664	28.0816	0.014383	0.002056	6.993804	167.808	-162.752	-0.013252	0.401505	-0.724896	-0.726155	-0.010666	6.993804	-0.723752	-4.127079E+9	2.584502E-12	NaN
628	1.000000	0.412774	7.3712e+06	-45689.1	1005.82	-29771.6	0.000000	0.000000	6.412901	0.032830	NaN	0.000000	0.001644	0.001660	28.0817	0.058964	0.001893	31.1562	-15.2216	14.5043	-0.066259	0.411416	-0.714885	-0.716243	0.032830	31.1562	-0.715675	-3.202449E+9	-1.025140E-11	NaN
628	1.000000	0.422781	7.3712e+06	-45689.1	1005.82	-29771.6	0.000000	0.000000	6.422908	0.038099	NaN	0.000000	0.001680	0.001663	28.0818	0.092756	0.002024	45.818	-76.1416	-166.627	0.088684	0.421463	-0.704878	-0.706197	0.038099	45.818	-0.705502	-2.326224E+9	-1.637814E-11	NaN
628	1.000000	0.432786	7.3712e+06	-45689.1	1005.82	-29771.6	0.000000	0.000000	6.432912	-0.001059	NaN	0.000000	0.001606	0.001680	28.082	0.103173	0.002049	50.341	-130.84	15.815	-0.021825	0.431443	-0.694873	-0.696216	-0.001059	50.341	-0.694857	-1.664492E+9	6.360366E-13	NaN
628	1.000000	0.442777	7.3712e+06	-45689.1	1005.82	-29771.6	0.000000	0.000000	6.442904	0.048028	NaN	0.000000	0.001628	0.001672	28.082	0.099759	0.002043	48.82	139.017	-164.558	0.070081	0.441484	-0.684882	-0.686176	0.048028	48.82	-0.685620	-1.244667E+9	-3.858683E-11	NaN
628	1.000000	0.452783	7.3712e+06	-45689.1	1005.82	-29771.6	0.000000	0.000000	6.452907	-0.028394	NaN	0.000000	0.001589	0.001676	28.0818	0.009177	0.002006	4.574205	-38.7881	15.0077	-0.041799	0.451469	-0.674876	-0.676190	-0.028394	4.574205	-0.670220	-7.663070E+8	3.705322E-11	NaN
628	1.000000	0.462776	7.3712e+06	-45689.1	1005.82	-29771.6	0.000000	0.000000	6.462900	-0.015567	NaN	0.000000	0.001656	0.001642	28.0822	0.027494	0.001952	14.0826	176.047	-162.064	0.006704	0.461476	-0.664884	-0.666183	-0.015567	14.0826	-0.664055	-6.309527E+8	2.467267E-11	NaN
628	1.000000	0.472809	7.3712e+06	-45689.1	1005.82	-29771.6	0.000000	0.000000	6.472934	-0.017735	NaN	0.000000	0.001624	0.001671	28.0819	0.063277	0.002156	29.3494	-81.1364	15.56	-0.021199	0.471440	-0.654850	-0.656219	-0.017735	29.3494	-0.654397	-4.652632E+8	3.811905E-11	NaN
628	1.000000	0.482776	7.3712e+06	-45689.1	1005.82	-29771.6	0.000000	0.000000	6.482901	0.006564	NaN	0.000000	0.001729	0.001648	28.0819	0.055462	0.002112	26.2545	-33.5078	-165.024	-0.031122	0.481474	-0.644883	-0.646185	0.006564	26.2545	-0.645071	-3.466164E+8	-1.893689E-11	NaN
628	1.000000	0.492789	7.3712e+06	-45689.1	1005.82	-29771.6	0.000000	0.000000	6.492915	0.015203	NaN	0.000000	0.001716	0.001648	28.0821	0.038232	0.001954	19.5681	-97.0437	13.208	0.060279	0.491434	-0.634870	-0.636225	0.015203	19.5681	-0.635453	-2.557921E+8	-5.943691E-11	NaN
628	1.000000	0.502797	7.3712e+06	-45689.1	1005.82	-29771.6	0.000000	0.000000	6.502923	0.026419	NaN	0.000000	0.001691	0.001661	28.0823	0.073005	0.002034	35.8881	163.833	-164.767	-0.041015	0.501525	-0.624862	-0.626135	0.026419	35.8881	-0.625414	-1.862251E+8	-1.418647E-10	NaN
628	1.000000	0.512826	7.3712e+06	-45689.1	1005.82	-29771.6	0.000000	0.000000	6.512949	-0.054292	NaN	0.000000	0.001686	0.001672	28.082	0.087597	0.001955	44.7994	100.809	17.003	-0.049215	0.511414	-0.614833	-0.616246	-0.054292	44.7994	-0.613924	-1.294483E+8	4.194136E-10	NaN
628	1.000000	0.522810	7.3712e+06	-45689.1	1005.82	-29771.6	0.000000	0.000000	6.522937	0.029161	NaN	0.000000	0.001689	0.001620	28.0818	0.078642	0.001921	40.9357	108.93	-166.894	0.056472	0.521459	-0.604849	-0.606200	0.029161	40.9357	-0.605383	-9.875959E+7	-2.952757E-10	NaN
628	1.000000	0.532817	7.3712e+06	-45689.1	1005.82	-29771.6	0.000000	0.000000	6.532944	0.057221	NaN	0.000000	0.001704	0.001631	28.0834	0.079406	0.001974	40.2249	155.555	16.5133	0.027053	0.531443	-0.594842	-0.596216	0.057221	40.2249	-0.595909	-7.313189E+7	-7.824303E-10	NaN
628	1.000000	0.542849	7.3712e+06	-45689.1	1005.82	-29771.6	0.000000	0.000000	6.542975	0.017754	NaN	0.000000	0.001682	0.001633	28.0832	0.093874	0.002062	45.5335	-128.153	-163.702	0.046934	0.541550	-0.584810	-0.586109	0.017754	45.5335	-0.585103	-5.189585E+7	-3.421048E-10	NaN
628	1.000000	0.552824	7.3712e+06	-45689.1	1005.82	-29771.6	0.000000	0.000000	6.552946	-0.069986	NaN	0.000000	0.001646	0.001618	28.0832	0.120551	0.001949	61.8376	-23.1777	13.6776	-0.049311	0.551504	-0.574835	-0.576155	-0.069986	61.8376	-0.573986	-3.645015E+7	1.920059E-9	NaN
628	1.000000	0.562839	7.3712e+06	-45689.1	1005.82	-29771.6	0.000000	0.000000	6.562964	0.017609	NaN	0.000000	0.001695	0.001671	28.0831	0.010402	0.002115	4.918609	-76.4006	-165.499	0.023995	0.561480	-0.564820	-0.566179	0.017609	4.918609	-0.567505	-2.965917E+7	-5.936955E-10	NaN
628	1.000000	0.572840	7.3712e+06	-45689.1	1005.82	-29771.6	0.000000	0.000000	6.572966	0.013934	NaN	0.000000	0.001746	0.001640	28.0833	0.139518	0.001915	72.8418	-1.627701	14.0381	0.105523	0.571489	-0.554819	-0.556170	0.013934	72.8418	-0.554962	-1.989135E+7	-7.005008E-10	NaN
628	1.000000	0.582847	7.3712e+06	-45689.1	1005.82	-29771.6	0.000000	0.000000	6.582974	0.036868	NaN	0.000000	0.001690	0.001674	28.083	0.082362	0.001851	44.4865	-140.454	-162.311	0.054303	0.581528	-0.544812	-0.546132	0.036868	44.4865	-0.545434	-1.467882E+7	-2.511674E-9	NaN
628	1.000000	0.592847	7.3712e+06	-45689.1	1005.82	-29771.6	0.000000	0.000000	6.592972	-0.012129	NaN	0.000000	0.001688	0.001675	28.083	0.039629	0.001885	21.0192	-31.3906	16.9386	0.003836	0.591497	-0.534812	-0.536162	-0.012129	21.0192	-0.534379	-1.031277E+7	1.176071E-9	NaN
628	1.000000	0.602861	7.3712e+06	-45689.1	1005.82	-29771.6	0.000000	0.000000	6.602988	0.046608	NaN	0.000000	0.001703	0.001687	28.0828	0.059743	0.002033	29.3816	-162.416	-164.39	0.085515	0.601538	-0.524798	-0.526121	0.046608	29.3816	-0.525988	-7.88576e+06	-5.910360E-9	NaN
628	1.000000	0.612855	7.3712e+06	-45689.1	1005.82	-29771.6	0.000000	0.000000	6.612980	-0.010747	NaN	0.000000	0.001636	0.001651	28.083	0.067067	0.001963	34.1651	-94.5033	12.0343	0.002579	0.611474	-0.514804	-0.516185	-0.010747	34.1651	-0.514568	-5.4704e+06	1.964503E-9	NaN
628	1.000000	0.622854	7.3712e+06	-45689.1	1005.82	-29771.6	0.000000	0.000000	6.622979	0.018100	NaN	0.000000	0.001611	0.001681	28.083	0.048007	0.001897	25.3063	80.5098	-166.88	-0.021880	0.621555	-0.504806	-0.506104	0.018100	25.3063	-0.505342	-4.06922e+06	-4.448005E-9	NaN
628	1.000000	0.632885	7.3712e+06	-45689.1	1005.82	-29771.6	0.000000	0.000000	6.633009	-0.006609	NaN	0.000000	0.001628	0.001667	28.083	0.039478	0.002052	19.2372	114.398	13.1343	0.002819	0.631512	-0.494774	-0.496148	-0.006609	19.2372	-0.494517	-2.87401e+06	2.299714E-9	NaN
628	1.000000	0.642841	7.3712e+06	-45689.1	1005.82	-29771.6	0.000000	0.000000	6.642965	-0.030690	NaN	0.000000	0.001641	0.001678	28.083	0.082038	0.002008	40.8654	20.5698	-165.712	-0.061595	0.641604	-0.484818	-0.486056	-0.030690	40.8654	-0.484255	-2.06572e+06	1.485663E-8	NaN
628	1.000000	0.652891	7.3712e+06	-45689.1	1005.82	-29771.6	0.000000	0.000000	6.653018	0.045438	NaN	0.000000	0.001618	0.001675	28.0833	0.070903	0.002049	34.607	8.076783	16.8935	-0.017923	0.651522	-0.474768	-0.476137	0.045438	34.607	-0.475753	-1.57055e+06	-2.893102E-8	NaN
628	1.000000	0.662853	7.3712e+06	-45689.1	1005.82	-29771.6	0.000000	0.000000	6.662978	-0.000914	NaN	0.000000	0.001644	0.001640	28.0828	0.057911	0.001963	29.4963	161.436	-166.025	0.004395	0.661595	-0.464807	-0.466064	-0.000914	29.4963	-0.464783	-1.10206e+06	8.294053E-10	NaN
628	1.000000	0.672871	7.3712e+06	-45689.1	1005.82	-29771.6	0.000000	0.000000	6.672996	-0.002425	NaN	0.000000	0.001613	0.001669	28.0819	0.101142	0.001982	51.0396	-32.3985	11.074	0.054846	0.671533	-0.454788	-0.456126	-0.002425	51.0396	-0.454752	-796584	3.044407E-9	NaN
628	1.000000	0.682897	7.3712e+06	-45689.1	1005.82	-29771.6	0.000000	0.000000	6.683024	0.051393	NaN	0.000000	0.001630	0.001671	28.0821	0.057364	0.002002	28.657	-23.0658	-167.364	0.004562	0.681620	-0.444762	-0.446039	0.051393	28.657	-0.446107	-601865	-8.538943E-8	NaN
628	1.000000	0.692853	7.3712e+06	-45689.1	1005.82	-29771.6	0.000000	0.000000	6.692979	0.022862	NaN	0.000000	0.001636	0.001638	28.0819	0.046382	0.001885	24.6038	149.749	15.0177	0.032319	0.691513	-0.434806	-0.436146	0.022862	24.6038	-0.435503	-426439	-5.361255E-8	NaN
628	1.000000	0.702914	7.3712e+06	-45689.1	1005.82	-29771.6	0.000000	0.000000	6.703040	0.029138	NaN	0.000000	0.001619	0.001617	28.0819	0.056638	0.001990	28.4627	63.7134	-164.951	0.080685	0.701624	-0.424745	-0.426035	0.029138	28.4627	-0.425513	-308000	-9.460285E-8	NaN
628	1.000000	0.712887	7.3712e+06	-45689.1	1005.82	-29771.6	0.000000	0.000000	6.713013	0.031025	NaN	0.000000	0.001678	0.001605	28.0816	0.112964	0.001953	57.8311	-31.5459	16.5687	-0.039383	0.711530	-0.414772	-0.416130	0.031025	57.8311	-0.415175	-219754	-1.411801E-7	NaN
628	1.000000	0.722920	7.3712e+06	-45689.1	1005.82	-29771.6	0.000000	0.000000	6.723049	0.089887	NaN	0.000000	0.001654	0.001624	28.082	0.094377	0.002001	47.1696	-160.597	-164.508	0.100747	0.721616	-0.404739	-0.406043	0.089887	47.1696	-0.406168	-163638	-5.493035E-7	NaN
628	1.000000	0.732898	7.3712e+06	-45689.1	1005.82	-29771.6	0.000000	0.000000	6.733023	-0.003662	NaN	0.000000	0.001592	0.001631	28.0819	0.063998	0.001930	33.1534	112.272	15.5286	0.018718	0.731551	-0.394761	-0.396108	-0.003662	33.1534	-0.394679	-112213	3.263355E-8	NaN
628	1.000000	0.742877	7.3712e+06	-45689.1	1005.82	-29771.6	0.000000	0.000000	6.743006	0.079215	NaN	0.000000	0.001632	0.001642	28.0819	0.145887	0.001972	73.9927	128.795	-168.16	0.018049	0.741599	-0.384782	-0.386060	0.079215	73.9927	-0.385585	-83169	-9.524615E-7	NaN
628	1.000000	0.752906	7.3712e+06	-45689.1	1005.82	-29771.6	0.000000	0.000000	6.753032	0.019312	NaN	0.000000	0.001606	0.001645	28.0819	0.018992	0.002030	9.353936	43.1308	15.8271	-0.040665	0.751593	-0.374753	-0.376066	0.019312	9.353936	-0.376301	-61202.9	-3.155340E-7	NaN
628	1.000000	0.762897	7.3712e+06	-45689.1	1005.82	-29771.6	0.000000	0.000000	6.763021	-0.020207	NaN	0.000000	0.001604	0.001659	28.0817	0.089784	0.002050	43.7912	26.6979	-167.941	-0.024015	0.761592	-0.364762	-0.366067	-0.020207	43.7912	-0.364416	-41269.2	4.896294E-7	NaN
628	1.000000	0.772901	7.3712e+06	-45689.1	1005.82	-29771.6	0.000000	0.000000	6.773026	-0.000747	NaN	0.000000	0.001601	0.001641	28.0817	0.061307	0.001925	31.8421	141.037	17.1631	0.057650	0.771598	-0.354758	-0.356062	-0.000747	31.8421	-0.354740	-29904.4	2.498835E-8	NaN
628	1.000000	0.782953	7.3712e+06	-45689.1	1005.82	-29771.6	0.000000	0.000000	6.783078	-0.008046	NaN	0.000000	0.001618	0.001632	28.0817	0.046472	0.001980	23.475	-60.6854	-164.242	0.018102	0.781619	-0.344706	-0.346040	-0.008046	23.475	-0.344449	-21200.2	3.795362E-7	NaN
628	1.000000	0.792955	7.3712e+06	-45689.1	1005.82	-29771.6	0.000000	0.000000	6.793079	-0.012627	NaN	0.000000	0.001603	0.001685	28.0821	0.101771	0.001988	51.2045	-42.1612	17.0232	0.010702	0.791548	-0.334704	-0.336111	-0.012627	51.2045	-0.334519	-15190.3	8.312337E-7	NaN
628	1.000000	0.802937	7.3712e+06	-45689.1	1005.82	-29771.6	0.000000	0.000000	6.803063	0.008073	NaN	0.000000	0.001594	0.001680	28.0831	0.067379	0.001979	34.0411	-4.746486	-165.407	-0.051579	0.801683	-0.324722	-0.325976	0.008073	34.0411	-0.324900	-10981.6	-7.351583E-7	NaN
628	1.000000	0.812974	7.3712e+06	-45689.1	1005.82	-29771.6	0.000000	0.000000	6.813100	0.030932	NaN	0.000000	0.001616	0.001646	28.0831	0.033981	0.002072	16.4039	152.075	15.905	0.020138	0.811602	-0.314685	-0.316057	0.030932	16.4039	-0.316100	-8150.24	-3.795264E-6	NaN
628	1.000000	0.822927	7.3712e+06	-45689.1	1005.82	-29771.6	0.000000	0.000000	6.823050	-0.031918	NaN	0.000000	0.001613	0.001628	28.0832	0.067149	0.002003	33.5283	27.6127	-165.218	-0.033986	0.821601	-0.304733	-0.306058	-0.031918	33.5283	-0.304019	-5399.89	5.910790E-6	NaN
628	1.000000	0.832962	7.3712e+06	-45689.1	1005.82	-29771.6	0.000000	0.000000	6.833086	-0.008264	NaN	0.000000	0.001596	0.001690	28.0833	0.017768	0.002158	8.233766	170.772	11.6461	0.045990	0.831633	-0.294697	-0.296027	-0.008264	8.233766	-0.293945	-3822.29	2.162108E-6	NaN
628	1.000000	0.842942	7.3712e+06	-45689.1	1005.82	-29771.6	0.000000	0.000000	6.843067	0.007590	NaN	0.000000	0.001606	0.001640	28.0831	0.125385	0.002111	59.3885	-124.521	-164.7	-0.059205	0.841613	-0.284717	-0.286046	0.007590	59.3885	-0.284813	-2789.05	-2.721182E-6	NaN
628	1.000000	0.852967	7.3712e+06	-45689.1	1005.82	-29771.6	0.000000	0.000000	6.853096	0.100919	NaN	0.000000	0.001620	0.001647	28.083	0.115879	0.001915	60.5116	-0.766813	14.0083	0.095633	0.851569	-0.274692	-0.276090	0.100919	60.5116	-0.275943	-2049.63	-4.923735E-5	NaN
628	1.000000	0.862977	7.3712e+06	-45689.1	1005.82	-29771.6	0.000000	0.000000	6.863100	-0.048959	NaN	0.000000	0.001616	0.001668	28.0831	0.028010	0.001975	14.1799	-165.223	-163.546	-0.019620	0.861657	-0.264682	-0.266002	-0.048959	14.1799	-0.262093	-1261.71	3.880387E-5	NaN
628	1.000000	0.872972	7.3712e+06	-45689.1	1005.82	-29771.6	0.000000	0.000000	6.873097	0.005398	NaN	0.000000	0.001619	0.001677	28.0831	0.082730	0.002003	41.2931	8.640571	13.8478	0.014648	0.871684	-0.254687	-0.255975	0.005398	41.2931	-0.254785	-974.56	-5.538784E-6	NaN
628	1.000000	0.882959	7.3712e+06	-45689.1	1005.82	-29771.6	0.000000	0.000000	6.883086	0.047070	NaN	0.000000	0.001571	0.001669	28.0828	0.050810	0.002059	24.6719	-130.357	-164.083	0.037066	0.881635	-0.244700	-0.246025	0.047070	24.6719	-0.246131	-716.174	-6.572363E-5	NaN
628	1.000000	0.893007	7.3712e+06	-45689.1	1005.82	-29771.6	0.000000	0.000000	6.893132	0.020463	NaN	0.000000	0.001586	0.001681	28.0833	0.067976	0.002072	32.8105	-0.366849	15.7182	0.062205	0.891579	-0.234653	-0.236080	0.020463	32.8105	-0.235120	-482.101	-4.244506E-5	NaN
628	1.000000	0.903008	7.3712e+06	-45689.1	1005.82	-29771.6	0.000000	0.000000	6.903132	-0.031821	NaN	0.000000	0.001589	0.001641	28.0832	0.052974	0.002160	24.5231	-113.674	-163.926	0.015612	0.901680	-0.224651	-0.225979	-0.031821	24.5231	-0.223678	-317.921	0.000100	NaN
628	1.000000	0.913005	7.3712e+06	-45689.1	1005.82	-29771.6	0.000000	0.000000	6.913134	0.111261	NaN	0.000000	0.001608	0.001674	28.0829	0.073859	0.001975	37.4038	152.054	14.9963	0.029736	0.911619	-0.214654	-0.216040	0.111261	37.4038	-0.216885	-247.63	-0.000449	NaN
628	1.000000	0.922968	7.3712e+06	-45689.1	1005.82	-29771.6	0.000000	0.000000	6.923095	0.042146	NaN	0.000000	0.001603	0.001671	28.083	0.064911	0.002020	32.1328	-132.829	-167.523	0.001319	0.921713	-0.204691	-0.205946	0.042146	32.1328	-0.205675	-163.141	-0.000258	NaN
628	1.000000	0.933024	7.3712e+06	-45689.1	1005.82	-29771.6	0.000000	0.000000	6.933152	0.062464	NaN	0.000000	0.001648	0.001662	28.0828	0.017852	0.002153	8.292397	85.3209	13.3805	0.031365	0.931598	-0.194635	-0.196061	0.062464	8.292397	-0.200284	-133.159	-0.000469	NaN
628	1.000000	0.942990	7.3712e+06	-45689.1	1005.82	-29771.6	0.000000	0.000000	6.943116	0.019062	NaN	0.000000	0.001578	0.001665	28.082	0.010084	0.001999	5.045746	8.563423	-162.599	-0.003269	0.941754	-0.184669	-0.185905	0.019062	5.045746	-0.187502	-81.6972	-0.000233	NaN
628	1.000000	0.952969	7.3712e+06	-45689.1	1005.82	-29771.6	0.000000	0.000000	6.953096	0.052200	NaN	0.000000	0.001604	0.001644	28.0816	0.041906	0.002156	19.4409	140.909	13.6097	-0.009439	0.951697	-0.174690	-0.175962	0.052200	19.4409	-0.176704	-53.606	-0.000974	NaN
628	1.000000	0.963010	7.3712e+06	-45689.1	1005.82	-29771.6	0.000000	0.000000	6.963137	0.053059	NaN	0.000000	0.001598	0.001674	28.0816	0.067218	0.002040	32.9542	70.4165	-164.769	0.050983	0.961675	-0.164650	-0.165984	0.053059	32.9542	-0.165857	-34.781	-0.001526	NaN
628	1.000000	0.973017	7.3712e+06	-45689.1	1005.82	-29771.6	0.000000	0.000000	6.973144	0.037925	NaN	0.000000	0.001637	0.001677	28.0818	0.100656	0.001977	50.9235	172.393	18.6201	0.054286	0.971597	-0.154642	-0.156062	0.037925	50.9235	-0.155200	-22.5001	-0.001686	NaN
628	1.000000	0.983000	7.3712e+06	-45689.1	1005.82	-29771.6	0.000000	0.000000	6.983123	-0.030336	NaN	0.000000	0.001622	0.001676	28.082	0.073523	0.002102	34.9723	157.279	-163.495	-0.094268	0.981705	-0.144659	-0.145954	-0.030336	34.9723	-0.144009	-14.0542	0.002159	NaN
628	1.000000	0.993014	7.3712e+06	-45689.1	1005.82	-29771.6	0.000000	0.000000	6.993137	-0.049252	NaN	0.000000	0.001608	0.001661	28.0817	0.036217	0.001831	19.7784	33.1972	14.4462	-0.072084	0.991643	-0.134646	-0.136016	-0.049252	19.7784	-0.132778	-8.624006	0.005711	NaN
628	1.000000	1.003018	7.3712e+06	-45689.1	1005.82	-29771.6	0.000000	0.000000	7.003145	0.046489	NaN	0.000000	0.001643	0.001651	28.0818	0.068736	0.001934	35.5334	-138.26	-166.2	0.017536	1.001682	-0.124641	-0.125978	0.046489	35.5334	-0.125622	-6.255974	-0.007431	NaN
628	1.000000	1.013008	7.3712e+06	-45689.1	1005.82	-29771.6	0.000000	0.000000	7.013132	-0.031299	NaN	0.000000	0.001605	0.001672	28.0816	0.101479	0.002019	50.2719	92.365	14.7528	-0.034887	1.011604	-0.114651	-0.116055	-0.031299	50.2719	-0.114184	-3.675058	0.008516	NaN
628	1.000000	1.023007	7.3712e+06	-45689.1	1005.82	-29771.6	0.000000	0.000000	7.023132	-0.018205	NaN	0.000000	0.001601	0.001700	28.0818	0.019453	0.002074	9.378059	-166.991	-166.672	-0.059027	1.021699	-0.104652	-0.105960	-0.018205	9.378059	-0.103196	-2.147961	0.008476	NaN
628	1.000000	1.033058	7.3712e+06	-45689.1	1005.82	-29771.6	0.000000	0.000000	7.033186	0.073347	NaN	0.000000	0.001638	0.001681	28.0819	0.038903	0.001976	19.6921	-0.168690	16.1183	0.015659	1.031712	-0.094601	-0.095947	0.073347	19.6921	-0.097394	-1.598110	-0.045896	NaN
628	1.000000	1.043035	7.3712e+06	-45689.1	1005.82	-29771.6	0.000000	0.000000	7.043160	-0.022800	NaN	0.000000	0.001588	0.001685	28.0819	0.107667	0.001993	54.0345	115.209	-168.299	-0.001275	1.041739	-0.084624	-0.085920	-0.022800	54.0345	-0.084307	-0.790454	0.028845	NaN
628	1.000000	1.053061	7.3712e+06	-45689.1	1005.82	-29771.6	0.000000	0.000000	7.053189	0.073326	NaN	0.000000	0.001572	0.001663	28.0822	0.042753	0.001986	21.5268	116.792	13.2843	0.112846	1.051738	-0.074598	-0.075921	0.073326	21.5268	-0.077152	-0.524559	-0.139786	NaN
628	1.000000	1.063016	7.3712e+06	-45689.1	1005.82	-29771.6	0.000000	0.000000	7.063142	0.035723	NaN	0.000000	0.001600	0.001620	28.0817	0.032527	0.002066	15.7466	-71.5655	-164.869	0.018476	1.061732	-0.064643	-0.065927	0.035723	15.7466	-0.066345	-0.271464	-0.131594	NaN
628	1.000000	1.073062	7.3712e+06	-45689.1	1005.82	-29771.6	0.000000	0.000000	7.073187	-0.014256	NaN	0.000000	0.001571	0.001675	28.0824	0.066888	0.002012	33.2431	145.703	17.8915	-0.013132	1.071745	-0.054597	-0.055915	-0.014256	33.2431	-0.054275	-0.122570	0.116309	NaN
628	1.000000	1.083027	7.3712e+06	-45689.1	1005.82	-29771.6	0.000000	0.000000	7.083154	0.041143	NaN	0.000000	0.001595	0.001638	28.0832	0.119916	0.001914	62.6512	-161.622	-160.701	0.005866	1.081737	-0.044632	-0.045922	0.041143	62.6512	-0.045125	-0.064835	-0.634577	NaN
628	1.000000	1.093040	7.3712e+06	-45689.1	1005.82	-29771.6	0.000000	0.000000	7.093166	0.014133	NaN	0.000000	0.001613	0.001652	28.0833	0.099587	0.002017	49.3694	17.6931	15.1981	0.056431	1.091732	-0.034619	-0.035927	0.014133	49.3694	-0.034834	-0.031666	-0.446302	NaN
628	1.000000	1.103088	7.3712e+06	-45689.1	1005.82	-29771.6	0.000000	0.000000	7.103214	0.038763	NaN	0.000000	0.001602	0.001665	28.0833	0.054229	0.001979	27.4018	-58.4864	-160.222	-0.012790	1.101804	-0.024571	-0.025855	0.038763	27.4018	-0.025632	-0.017527	-2.211664	NaN
628	1.000000	1.113052	7.3712e+06	-45689.1	1005.82	-29771.6	0.000000	0.000000	7.113176	-0.034955	NaN	0.000000	0.001608	0.001657	28.0832	0.083242	0.002083	39.9551	-64.9693	14.2102	-0.062761	1.111672	-0.014607	-0.015987	-0.034955	39.9551	-0.013951	-0.008655	4.038829	NaN
628	1.000000	1.123077	7.3712e+06	-45689.1	1005.82	-29771.6	0.000000	0.000000	7.123202	-0.010806	NaN	0.000000	0.001614	0.001677	28.0834	0.080849	0.001912	42.2923	25.266	-167.344	0.045417	1.121753	-0.004582	-0.005906	-0.010806	42.2923	-0.004390	-0.003030	3.566020	NaN
628	1.000000	1.133023	7.3712e+06	-45689.1	1005.82	-29771.6	0.000000	0.000000	7.133318	4.128126	NaN	0.000000	0.001566	0.001667	28.0833	5.032757	0.001773	2837.97	12.0758	7.967725	2.232652	1.131646	0.005364	0.003987	4.128126	2837.97	0.004273	0.003479	1186.43	43956.7
628	2.000000	1.138648	7.3712e+06	-45689.1	1005.82	-29771.6	0.000000	0.000000	7.139162	9.443642	NaN	0.000000	0.001577	0.001625	28.0832	9.246243	0.001561	5922.42	6.664615	-170.3	8.842320	1.138365	0.010989	0.010706	9.443642	5922.42	0.009793	0.008953	1054.85	57187
628	2.000000	1.141125	7.3712e+06	-45689.1	1005.82	-29771.6	0.000000	0.000000	7.141804	13.4536	NaN	0.000000	0.001603	0.001654	28.0834	12.4645	0.001574	7920.6	7.073091	5.204324	13.1608	1.140781	0.013466	0.013122	13.4536	7920.6	0.012192	0.011721	1147.79	66841
628	2.000000	1.143613	7.3712e+06	-45689.1	1005.82	-29771.6	0.000000	0.000000	7.144402	16.1534	NaN	0.000000	0.001564	0.001668	28.0834	15.4962	0.001906	8130.9	9.250153	-175.164	16.261	1.143283	0.015954	0.015624	16.1534	8130.9	0.014464	0.014577	1108.11	61527.8
628	2.000000	1.146106	7.3712e+06	-45689.1	1005.82	-29771.6	0.000000	0.000000	7.147024	19.2941	NaN	0.000000	0.001582	0.001673	28.0831	17.7125	0.001828	9688.53	12.219	0.413719	18.2765	1.145778	0.018447	0.018119	19.2941	9688.53	0.016954	0.017979	1073.13	66015.3
628	2.000000	1.148615	7.3712e+06	-45689.1	1005.82	-29771.6	0.000000	0.000000	7.149730	24.082	NaN	0.000000	0.001555	0.001637	28.083	19.5228	0.001813	10770.2	8.460495	-176.095	25.1607	1.148294	0.020956	0.020635	24.082	10770.2	0.019279	0.021422	1124.16	67230.2
628	2.000000	1.151041	7.3712e+06	-45689.1	1005.82	-29771.6	0.000000	0.000000	7.152308	27.7941	NaN	0.000000	0.001608	0.001634	28.0833	21.5023	0.001794	11988.4	6.709307	2.749874	25.9277	1.150710	0.023381	0.023051	27.7941	11988.4	0.021643	0.025189	1103.4	69012
628	2.000000	1.153548	7.3712e+06	-45689.1	1005.82	-29771.6	0.000000	0.000000	7.155122	35.2566	NaN	0.000000	0.001635	0.001654	28.0831	24.2076	0.001764	13721.4	5.438221	-177.9	34.3617	1.153302	0.025888	0.025643	35.2566	13721.4	0.023961	0.029153	1209.35	73422.4
628	2.000000	1.156073	7.3712e+06	-45689.1	1005.82	-29771.6	0.000000	0.000000	7.157858	40.3945	NaN	0.000000	0.001617	0.001638	28.082	26.1696	0.001791	14608.6	4.694270	3.736962	38.5614	1.155759	0.028414	0.028100	40.3945	14608.6	0.026340	0.033498	1205.87	72924
628	2.000000	1.158511	7.3712e+06	-45689.1	1005.82	-29771.6	0.000000	0.000000	7.160608	47.9751	NaN	0.000000	0.001623	0.001646	28.0817	28.3798	0.001737	16341	2.075935	-175.279	45.8267	1.158167	0.030851	0.030508	47.9751	16341	0.028649	0.037991	1262.8	76597
628	2.000000	1.161047	7.3712e+06	-45689.1	1005.82	-29771.6	0.000000	0.000000	7.163354	53.0795	NaN	0.000000	0.001654	0.001667	28.0821	32.2565	0.001848	17456	9.780731	-3.321776	50.8654	1.160660	0.033388	0.033001	53.0795	17456	0.031107	0.043070	1232.39	76847.4
628	2.000000	1.163588	7.3712e+06	-45689.1	1005.82	-29771.6	0.000000	0.000000	7.166138	58.9827	NaN	0.000000	0.001653	0.001688	28.0819	34.9603	0.001906	18344.8	5.130260	-179.522	58.6517	1.163284	0.035929	0.035624	58.9827	18344.8	0.033517	0.048350	1219.91	76223.2
628	2.000000	1.166051	7.3712e+06	-45689.1	1005.82	-29771.6	0.000000	0.000000	7.168870	65.5304	NaN	0.000000	0.001662	0.001687	28.0822	36.1608	0.001796	20135	3.327513	1.902197	63.6465	1.165820	0.038392	0.038161	65.5304	20135	0.035951	0.053983	1213.9	79176
628	2.000000	1.168476	7.3712e+06	-45689.1	1005.82	-29771.6	0.000000	0.000000	7.171782	77.3698	NaN	0.000000	0.001663	0.001691	28.0817	38.7047	0.001781	21732.6	6.787812	176.717	72.7807	1.168206	0.040817	0.040547	77.3698	21732.6	0.038147	0.059327	1304.13	81519.1
628	2.000000	1.171025	7.3712e+06	-45689.1	1005.82	-29771.6	0.000000	0.000000	7.174601	83.962	NaN	0.000000	0.001639	0.001733	28.0822	41.7357	0.001819	22938.3	6.220905	-2.412017	80.2218	1.170709	0.043366	0.043050	83.962	22938.3	0.040620	0.065642	1279.1	81798.3
628	2.000000	1.173548	7.3712e+06	-45689.1	1005.82	-29771.6	0.000000	0.000000	7.177496	92.9934	NaN	0.000000	0.001673	0.001755	28.0818	44.844	0.001758	25507.6	7.509197	175.905	92.4396	1.173182	0.045889	0.045523	92.9934	25507.6	0.043155	0.072435	1283.82	86590.4
628	2.000000	1.176027	7.3712e+06	-45689.1	1005.82	-29771.6	0.000000	0.000000	7.180342	101.926	NaN	0.000000	0.001652	0.001729	28.0827	46.1512	0.001889	24432.7	5.661951	-0.929441	99.8074	1.175673	0.048368	0.048014	101.926	24432.7	0.045239	0.078268	1302.28	79790.8
628	2.000000	1.178531	7.3712e+06	-45689.1	1005.82	-29771.6	0.000000	0.000000	7.183264	112.086	NaN	0.000000	0.001533	0.001722	28.082	48.9946	0.001793	27321.8	8.801721	173.615	111.677	1.178095	0.050872	0.050436	112.086	27321.8	0.047796	0.085721	1307.56	85258.8
628	2.000000	1.180976	7.3712e+06	-45689.1	1005.82	-29771.6	0.000000	0.000000	7.186322	127.016	NaN	0.000000	0.001532	0.001675	28.0822	50.791	0.001863	27260.3	6.329118	-3.073894	122.691	1.180590	0.053317	0.052931	127.016	27260.3	0.049822	0.091865	1382.64	82173.2
628	2.000000	1.183522	7.3712e+06	-45689.1	1005.82	-29771.6	0.000000	0.000000	7.189047	131.355	NaN	0.000000	0.001565	0.001724	28.0819	53.4818	0.001765	30297.6	4.673143	176.557	129.663	1.183289	0.055863	0.055630	131.355	30297.6	0.052611	0.100655	1305	87249.5
628	2.000000	1.186077	7.3712e+06	-45689.1	1005.82	-29771.6	0.000000	0.000000	7.192147	144.628	NaN	0.000000	0.001540	0.001704	28.0823	55.4754	0.001728	32107.3	5.388256	-3.902670	144.191	1.185657	0.058418	0.057997	144.628	32107.3	0.055040	0.108624	1331.45	89005
628	2.000000	1.188513	7.3712e+06	-45689.1	1005.82	-29771.6	0.000000	0.000000	7.195079	156.688	NaN	0.000000	0.001556	0.001715	28.0818	57.8777	0.001697	34109	7.567220	173.462	155.083	1.188108	0.060853	0.060449	156.688	34109	0.057408	0.116679	1342.9	91231.8
628	2.000000	1.190994	7.3712e+06	-45689.1	1005.82	-29771.6	0.000000	0.000000	7.197967	166.583	NaN	0.000000	0.001547	0.001748	28.0832	60.6129	0.001749	34664.7	4.915174	-4.873501	163.069	1.190623	0.063335	0.062964	166.583	34664.7	0.059731	0.124845	1334.32	89634.7
628	2.000000	1.193563	7.3712e+06	-45689.1	1005.82	-29771.6	0.000000	0.000000	7.200967	177.068	NaN	0.000000	0.001571	0.001761	28.0832	63.589	0.001788	35558.8	3.178595	177.391	178.884	1.193210	0.065904	0.065551	177.068	35558.8	0.062169	0.133700	1324.37	88849.3
628	2.000000	1.195979	7.3712e+06	-45689.1	1005.82	-29771.6	0.000000	0.000000	7.203984	191.7	NaN	0.000000	0.001555	0.001676	28.0833	65.9339	0.001785	36928	5.694145	-5.526208	187.82	1.195557	0.068320	0.067898	191.7	36928	0.064426	0.142156	1348.52	89484
628	2.000000	1.198490	7.3712e+06	-45689.1	1005.82	-29771.6	0.000000	0.000000	7.206762	198.168	NaN	0.000000	0.001564	0.001707	28.0832	66.7366	0.001762	37866.8	0.557982	178.725	196.378	1.198252	0.070831	0.070593	198.168	37866.8	0.066906	0.151730	1306.06	88816.8
628	2.000000	1.200888	7.3712e+06	-45689.1	1005.82	-29771.6	0.000000	0.000000	7.209643	209.922	NaN	0.000000	0.001623	0.001754	28.0831	71.2636	0.001904	37435.2	5.252657	-5.809402	202.718	1.200501	0.073229	0.072842	209.922	37435.2	0.069023	0.160137	1310.89	85468.9
628	2.000000	1.203499	7.3712e+06	-45689.1	1005.82	-29771.6	0.000000	0.000000	7.213018	228.526	NaN	0.000000	0.001619	0.001698	28.0831	72.0007	0.001787	40284.4	3.010410	176.649	227.108	1.203133	0.075839	0.075474	228.526	40284.4	0.071585	0.170594	1339.59	89110.3
628	2.000000	1.205964	7.3712e+06	-45689.1	1005.82	-29771.6	0.000000	0.000000	7.216131	244.26	NaN	0.000000	0.001541	0.001683	28.0832	73.8356	0.001708	43222.1	2.643655	-3.856703	239.356	1.205695	0.078305	0.078036	244.26	43222.1	0.074067	0.181024	1349.33	92813.5
628	2.000000	1.208421	7.3712e+06	-45689.1	1005.82	-29771.6	0.000000	0.000000	7.219159	258.176	NaN	0.000000	0.001561	0.001695	28.0831	76.8914	0.001741	44154.8	8.628255	170.47	254.323	1.208027	0.080762	0.080368	258.176	44154.8	0.076377	0.190991	1351.77	92309
628	2.000000	1.210910	7.3712e+06	-45689.1	1005.82	-29771.6	0.000000	0.000000	7.222289	273.762	NaN	0.000000	0.001561	0.001661	28.0831	80.2411	0.001875	42793.3	7.270514	-8.531843	268.857	1.210511	0.083251	0.082852	273.762	42793.3	0.078453	0.200163	1367.69	87389.1
628	2.000000	1.213420	7.3712e+06	-45689.1	1005.82	-29771.6	0.000000	0.000000	7.225344	287.013	NaN	0.000000	0.001541	0.001719	28.0829	81.1453	0.001844	44006.4	1.189467	177.17	282.467	1.213199	0.085761	0.085539	287.013	44006.4	0.080870	0.211094	1359.65	87508.8
628	2.000000	1.215887	7.3712e+06	-45689.1	1005.82	-29771.6	0.000000	0.000000	7.228595	306.095	NaN	0.000000	0.001571	0.001693	28.0829	83.125	0.001948	42670.2	2.229379	-3.311369	298.509	1.215577	0.088228	0.087917	306.095	42670.2	0.082848	0.220243	1389.8	83070.4
628	2.000000	1.218486	7.3712e+06	-45689.1	1005.82	-29771.6	0.000000	0.000000	7.231687	318.073	NaN	0.000000	0.001621	0.001676	28.0829	85.5093	0.001846	46309	5.973690	173.05	318.125	1.218090	0.090827	0.090431	318.073	46309	0.085676	0.233636	1361.4	87532.3
628	2.000000	1.220854	7.3712e+06	-45689.1	1005.82	-29771.6	0.000000	0.000000	7.234539	329.853	NaN	0.000000	0.001573	0.001652	28.0826	87.8535	0.001756	50024.9	4.899241	-7.669673	321.036	1.220635	0.093195	0.092976	329.853	50024.9	0.088250	0.246149	1340.05	92121.5
628	2.000000	1.223423	7.3712e+06	-45689.1	1005.82	-29771.6	0.000000	0.000000	7.237886	348.795	NaN	0.000000	0.001568	0.001709	28.082	91.0583	0.001773	51348.8	1.278460	175.981	346.421	1.223243	0.095764	0.095584	348.795	51348.8	0.090669	0.258186	1350.95	92328.8
628	2.000000	1.225967	7.3712e+06	-45689.1	1005.82	-29771.6	0.000000	0.000000	7.241698	379.617	NaN	0.000000	0.001590	0.001702	28.0819	93.5555	0.001774	52734.2	5.914239	-8.670527	375.149	1.225448	0.098308	0.097789	379.617	52734.2	0.092909	0.269570	1408.23	92796.1
628	2.000000	1.228536	7.3712e+06	-45689.1	1005.82	-29771.6	0.000000	0.000000	7.244800	392.61	NaN	0.000000	0.001571	0.001680	28.0818	96.5109	0.001858	51956	10.5598	168.303	395.18	1.228030	0.100877	0.100371	392.61	51956	0.095209	0.281498	1394.72	89468.8
628	2.000000	1.230919	7.3712e+06	-45689.1	1005.82	-29771.6	0.000000	0.000000	7.247738	406.1	NaN	0.000000	0.001585	0.001677	28.0818	97.4737	0.001821	53535.7	2.614496	-5.359088	402.072	1.230650	0.103260	0.102991	406.1	53535.7	0.097571	0.293997	1381.31	90208
628	2.000000	1.233389	7.3712e+06	-45689.1	1005.82	-29771.6	0.000000	0.000000	7.251120	428.279	NaN	0.000000	0.001584	0.001727	28.0816	100.251	0.001862	53852.8	3.212648	173.746	422.124	1.233056	0.105730	0.105397	428.279	53852.8	0.099766	0.305841	1400.33	88967.9
628	2.000000	1.235435	7.3712e+06	-45689.1	1005.82	-29771.6	0.000000	0.000000	7.253854	445.023	NaN	0.000000	0.001570	0.001741	28.0816	100.983	0.001816	55610.8	4.441562	172.64	442.835	1.235077	0.107776	0.107418	445.023	55610.8	0.101774	0.316872	1404.43	90259