File: remote_trans/data/nanoindenter/0828-1/data/Data_2025-08-06,11h17m57s/2025-07-22_16-23-58_1_28.txt
2025-07-22, 16:23:58, 1
Index	Phase	Displacement	Time	Pos X	Pos Y	Pos Z	Rot A	Rot B	Piezo Z	Force A	Force B	Gripper	Voltage A	Voltage B	Temperature	Amplitude force	Amplitude pos	Stiffness	Phase shift	Phase excitation	Force A raw	Displacement raw	HMax	HMax raw	Real Force	Real Stiffness	Contact Depth	Area	Hardness	Reduced Mod.
[#]	[#]	[um]	[s]	[um]	[um]	[um]	[m°]	[m°]	[um]	[uN]	[uN]	[V]	[V]	[V]	[°C]	[uN]	[um]	[N/m]	[°]	[°]	[uN]	[um]	[um]	[um]	[uN]	[N/m]	[um]	[um^2]	[MPa]	[MPa]
28	1.000000	0.002214	7.36531e+06	-40039.1	955.818	-29792.2	0.000000	0.000000	6.002830	-0.005449	NaN	0.000000	0.001546	0.001651	28.087	0.104791	0.001010	103.772	7.116522	-161.239	-0.061145	0.000879	-1.086610	-1.087946	-0.005449	103.772	-1.086571	-3.309503E+14	1.646323E-17	NaN
28	1.000000	0.010158	7.36531e+06	-40039.1	955.818	-29792.2	0.000000	0.000000	6.010772	-0.041101	NaN	0.000000	0.001558	0.001646	28.0867	0.057977	0.000894	64.8257	-123.747	-164.887	-0.002927	0.008838	-1.078666	-1.079986	-0.041101	64.8257	-1.078190	-2.553954E+14	1.609326E-16	NaN
28	1.000000	0.018147	7.36531e+06	-40039.1	955.819	-29792.2	0.000000	0.000000	6.018760	-0.074563	NaN	0.000000	0.001581	0.001651	28.0868	0.063234	0.001877	33.697	-102.213	-160.743	-0.056654	0.016818	-1.070677	-1.072006	-0.074563	33.697	-1.069018	-1.923065E+14	3.877284E-16	NaN
28	1.000000	0.026139	7.36531e+06	-40039.1	955.819	-29792.2	0.000000	0.000000	6.026755	-0.003477	NaN	0.000000	0.001648	0.001684	28.0867	0.070529	0.001848	38.1664	166.405	-165.25	-0.004630	0.024830	-1.062685	-1.063994	-0.003477	38.1664	-1.062616	-1.577546E+14	2.203965E-17	NaN
28	1.000000	0.034142	7.36531e+06	-40039.1	955.818	-29792.2	0.000000	0.000000	6.034756	-0.038333	NaN	0.000000	0.001629	0.001653	28.0834	0.121319	0.001854	65.4464	105.74	-166.653	-0.038659	0.032878	-1.054682	-1.055946	-0.038333	65.4464	-1.054243	-1.217434E+14	3.148698E-16	NaN
28	1.000000	0.042143	7.36531e+06	-40039.1	955.818	-29792.2	0.000000	0.000000	6.042755	-0.100053	NaN	0.000000	0.001625	0.001682	28.0853	0.079629	0.001799	44.2572	102.124	-165.747	-0.016677	0.040807	-1.046681	-1.048017	-0.100053	44.2572	-1.044986	-9.141170E+13	1.094533E-15	NaN
28	1.000000	0.050144	7.36531e+06	-40039.1	955.818	-29792.2	0.000000	0.000000	6.050759	-0.022078	NaN	0.000000	0.001578	0.001640	28.0849	0.027348	0.001992	13.7289	-68.2711	-163.508	0.008917	0.048843	-1.038680	-1.039981	-0.022078	13.7289	-1.037474	-7.244437E+13	3.047636E-16	NaN
28	1.000000	0.058118	7.36531e+06	-40039.1	955.819	-29792.2	0.000000	0.000000	6.058732	-0.048433	NaN	0.000000	0.001597	0.001642	28.0838	0.125134	0.002024	61.8154	-141.516	-165.867	0.016242	0.056857	-1.030706	-1.031967	-0.048433	61.8154	-1.030119	-5.768699E+13	8.395836E-16	NaN
28	1.000000	0.066142	7.36531e+06	-40039.1	955.818	-29792.2	0.000000	0.000000	6.066756	-0.056253	NaN	0.000000	0.001569	0.001660	28.0851	0.097446	0.001910	51.0081	-141.232	-163.853	0.066366	0.064822	-1.022682	-1.024002	-0.056253	51.0081	-1.021855	-4.465910E+13	1.259609E-15	NaN
28	1.000000	0.074140	7.36531e+06	-40039.1	955.818	-29792.2	0.000000	0.000000	6.074753	-0.072177	NaN	0.000000	0.001576	0.001619	28.0846	0.041009	0.001965	20.8681	52.3929	-164.741	-0.100037	0.072836	-1.014684	-1.015988	-0.072177	20.8681	-1.012090	-3.300022E+13	2.187167E-15	NaN
28	1.000000	0.082160	7.36531e+06	-40039.1	955.819	-29792.2	0.000000	0.000000	6.082777	0.009577	NaN	0.000000	0.001565	0.001644	28.0867	0.051533	0.002005	25.7045	15.2163	-165.601	-0.068832	0.080817	-1.006664	-1.008007	0.009577	25.7045	-1.006943	-2.813451E+13	-3.404050E-16	NaN
28	1.000000	0.090133	7.36531e+06	-40039.1	955.818	-29792.2	0.000000	0.000000	6.090747	-0.055793	NaN	0.000000	0.001523	0.001653	28.0852	0.076362	0.001916	39.8571	-7.118704	-162.837	-0.064176	0.088793	-0.998691	-1.000032	-0.055793	39.8571	-0.997641	-2.108667E+13	2.645879E-15	NaN
28	1.000000	0.098181	7.36531e+06	-40039.1	955.818	-29792.2	0.000000	0.000000	6.098795	-0.023862	NaN	0.000000	0.001519	0.001650	28.0857	0.130711	0.002079	62.8764	110.96	-165.804	-0.016058	0.096813	-0.990644	-0.992012	-0.023862	62.8764	-0.990359	-1.682467E+13	1.418259E-15	NaN
28	1.000000	0.106166	7.36531e+06	-40039.1	955.818	-29792.2	0.000000	0.000000	6.106783	0.010408	NaN	0.000000	0.001497	0.001604	28.086	0.072857	0.002046	35.6064	108.233	-166.008	0.032629	0.104823	-0.982658	-0.984001	0.010408	35.6064	-0.982877	-1.334043E+13	-7.802105E-16	NaN
28	1.000000	0.114149	7.36531e+06	-40039.1	955.818	-29792.2	0.000000	0.000000	6.114764	-0.008401	NaN	0.000000	0.001564	0.001637	28.0836	0.109538	0.002096	52.2615	81.2117	-165.215	-0.113905	0.112885	-0.974676	-0.975939	-0.008401	52.2615	-0.974555	-1.030500E+13	8.152723E-16	NaN
28	1.000000	0.122183	7.36531e+06	-40039.1	955.818	-29792.2	0.000000	0.000000	6.122798	-0.027536	NaN	0.000000	0.001522	0.001642	28.0838	0.052132	0.002093	24.9109	-136.711	-163.942	0.061633	0.120856	-0.966641	-0.967968	-0.027536	24.9109	-0.965812	-7.856291E+12	3.505019E-15	NaN
28	1.000000	0.130167	7.36531e+06	-40039.1	955.818	-29792.2	0.000000	0.000000	6.130784	0.006111	NaN	0.000000	0.001529	0.001658	28.0837	0.116210	0.002008	57.8863	-170.833	-168.567	0.020766	0.128888	-0.958657	-0.959936	0.006111	57.8863	-0.958736	-6.307059E+12	-9.689360E-16	NaN
28	1.000000	0.138185	7.36531e+06	-40039.1	955.818	-29792.2	0.000000	0.000000	6.138796	-0.109886	NaN	0.000000	0.001534	0.001662	28.084	0.104491	0.001935	54.0095	-159.414	-161.763	-0.066798	0.136878	-0.950639	-0.951946	-0.109886	54.0095	-0.949113	-4.678092E+12	2.348960E-14	NaN
28	1.000000	0.146169	7.36531e+06	-40039.1	955.818	-29792.2	0.000000	0.000000	6.146783	-0.046351	NaN	0.000000	0.001543	0.001666	28.0847	0.025337	0.002098	12.0761	-97.8378	-163.845	-0.058191	0.144844	-0.942655	-0.943980	-0.046351	12.0761	-0.939776	-3.500417E+12	1.324155E-14	NaN
28	1.000000	0.154163	7.36531e+06	-40039.1	955.818	-29792.2	0.000000	0.000000	6.154777	-0.042340	NaN	0.000000	0.001540	0.001642	28.0842	0.085303	0.002015	42.3248	-163.095	-164.071	-0.022987	0.152889	-0.934661	-0.935935	-0.042340	42.3248	-0.933911	-2.917283E+12	1.451360E-14	NaN
28	1.000000	0.162171	7.36531e+06	-40039.1	955.818	-29792.2	0.000000	0.000000	6.162787	-0.003604	NaN	0.000000	0.001586	0.001686	28.0865	0.043148	0.002122	20.3351	-101.894	-167.113	-0.009161	0.160874	-0.926653	-0.927950	-0.003604	20.3351	-0.926520	-2.318622E+12	1.554217E-15	NaN
28	1.000000	0.170206	7.36531e+06	-40039.1	955.818	-29792.2	0.000000	0.000000	6.170822	-0.002088	NaN	0.000000	0.001551	0.001651	28.0867	0.078517	0.002019	38.8874	76.7911	-167.08	0.031126	0.168921	-0.918618	-0.919903	-0.002088	38.8874	-0.918578	-1.811363E+12	1.152654E-15	NaN
28	1.000000	0.178229	7.36531e+06	-40039.1	955.817	-29792.2	0.000000	0.000000	6.178843	-0.042579	NaN	0.000000	0.001543	0.001661	28.086	0.018369	0.002013	9.122892	-39.0348	-161.745	0.035357	0.176927	-0.910595	-0.911897	-0.042579	9.122892	-0.907094	-1.267406E+12	3.359542E-14	NaN
28	1.000000	0.186174	7.36531e+06	-40039.1	955.818	-29792.2	0.000000	0.000000	6.186785	-0.109792	NaN	0.000000	0.001567	0.001617	28.0869	0.066775	0.002035	32.8183	-89.6945	-167.765	-0.080468	0.184893	-0.902650	-0.903931	-0.109792	32.8183	-0.900141	-1.020875E+12	1.075468E-13	NaN
28	1.000000	0.194201	7.36531e+06	-40039.1	955.818	-29792.2	0.000000	0.000000	6.194814	-0.054534	NaN	0.000000	0.001589	0.001669	28.0843	0.066081	0.002048	32.2632	20.6243	-165.641	-0.024843	0.192828	-0.894623	-0.895996	-0.054534	32.2632	-0.893356	-8.265584E+11	6.597763E-14	NaN
28	1.000000	0.202217	7.36531e+06	-40039.1	955.818	-29792.2	0.000000	0.000000	6.202833	-0.000702	NaN	0.000000	0.001562	0.001697	28.0851	0.080403	0.002004	40.1172	11.4188	-165.183	-0.031598	0.200852	-0.886607	-0.887972	-0.000702	40.1172	-0.886594	-6.696850E+11	1.048977E-15	NaN
28	1.000000	0.210202	7.36531e+06	-40039.1	955.818	-29792.2	0.000000	0.000000	6.210820	0.063661	NaN	0.000000	0.001575	0.001682	28.086	0.084281	0.001991	42.3309	73.3528	-166.451	-0.018260	0.208899	-0.878622	-0.879925	0.063661	42.3309	-0.879750	-5.411655E+11	-1.176362E-13	NaN
28	1.000000	0.218219	7.36531e+06	-40039.1	955.818	-29792.2	0.000000	0.000000	6.218832	-0.050489	NaN	0.000000	0.001572	0.001685	28.0848	0.080811	0.002091	38.6464	154.818	-166.271	-0.040695	0.216873	-0.870606	-0.871951	-0.050489	38.6464	-0.869626	-3.948029E+11	1.278842E-13	NaN
28	1.000000	0.226227	7.36531e+06	-40039.1	955.818	-29792.2	0.000000	0.000000	6.226842	-0.010510	NaN	0.000000	0.001533	0.001692	28.0865	0.079592	0.001858	42.8454	158.564	-163.91	-0.040831	0.224956	-0.862598	-0.863869	-0.010510	42.8454	-0.862414	-3.153459E+11	3.332735E-14	NaN
28	1.000000	0.234203	7.36531e+06	-40039.1	955.818	-29792.2	0.000000	0.000000	6.234818	-0.006954	NaN	0.000000	0.001565	0.001655	28.0873	0.085674	0.001920	44.622	142.922	-166.385	0.016372	0.232893	-0.854621	-0.855931	-0.006954	44.622	-0.854505	-2.464502E+11	2.821812E-14	NaN
28	1.000000	0.242235	7.36531e+06	-40039.1	955.818	-29792.2	0.000000	0.000000	6.242852	0.009385	NaN	0.000000	0.001574	0.001670	28.0869	0.125737	0.002012	62.4951	-126.354	-166.773	0.006116	0.240908	-0.846589	-0.847916	0.009385	62.4951	-0.846701	-1.932263E+11	-4.857081E-14	NaN
28	1.000000	0.250220	7.36531e+06	-40039.1	955.819	-29792.2	0.000000	0.000000	6.250834	-0.032735	NaN	0.000000	0.001566	0.001684	28.0877	0.075312	0.001983	37.9791	-65.4422	-163.274	-0.004391	0.248914	-0.838604	-0.839911	-0.032735	37.9791	-0.837958	-1.471051E+11	2.225287E-13	NaN
28	1.000000	0.258190	7.36531e+06	-40039.1	955.819	-29792.2	0.000000	0.000000	6.258804	-0.059617	NaN	0.000000	0.001578	0.001657	28.0866	0.042455	0.002236	18.9859	110.963	-166.176	-0.064267	0.256948	-0.830634	-0.831876	-0.059617	18.9859	-0.828279	-1.087566E+11	5.481660E-13	NaN
28	1.000000	0.266251	7.36531e+06	-40039.1	955.817	-29792.2	0.000000	0.000000	6.266864	-0.061083	NaN	0.000000	0.001579	0.001680	28.0866	0.089600	0.001974	45.3915	166.86	-165.041	0.010319	0.264914	-0.822573	-0.823910	-0.061083	45.3915	-0.821564	-8.818935E+10	6.926365E-13	NaN
28	1.000000	0.274264	7.36531e+06	-40039.1	955.818	-29792.2	0.000000	0.000000	6.274880	-0.003174	NaN	0.000000	0.001571	0.001669	28.0844	0.045159	0.001976	22.852	135.881	-164.766	0.048745	0.272908	-0.814560	-0.815916	-0.003174	22.852	-0.814456	-7.063441E+10	4.493774E-14	NaN
28	1.000000	0.282224	7.36531e+06	-40039.1	955.819	-29792.2	0.000000	0.000000	6.282841	0.023895	NaN	0.000000	0.001574	0.001703	28.0853	0.036472	0.001835	19.8809	-93.9496	-166.999	0.040398	0.280968	-0.806600	-0.807856	0.023895	19.8809	-0.807502	-5.684269E+10	-4.203743E-13	NaN
28	1.000000	0.290257	7.36531e+06	-40039.1	955.819	-29792.2	0.000000	0.000000	6.290872	-0.004466	NaN	0.000000	0.001525	0.001683	28.0852	0.096167	0.001899	50.652	136.438	-167.813	-0.091982	0.288902	-0.798568	-0.799922	-0.004466	50.652	-0.798502	-4.290635E+10	1.040941E-13	NaN
28	1.000000	0.298248	7.36531e+06	-40039.1	955.818	-29792.2	0.000000	0.000000	6.298861	-0.058697	NaN	0.000000	0.001548	0.001627	28.0835	0.035163	0.002043	17.213	174.036	-166.355	-0.078878	0.296927	-0.790576	-0.791897	-0.058697	17.213	-0.788019	-3.091546E+10	1.898623E-12	NaN
28	1.000000	0.306234	7.36531e+06	-40039.1	955.818	-29792.2	0.000000	0.000000	6.306847	-0.074003	NaN	0.000000	0.001569	0.001635	28.0839	0.056810	0.001994	28.4913	-108.067	-167.963	-0.078357	0.304972	-0.782590	-0.783853	-0.074003	28.4913	-0.780642	-2.454454E+10	3.015030E-12	NaN
28	1.000000	0.314258	7.36531e+06	-40039.1	955.818	-29792.2	0.000000	0.000000	6.314868	-0.149280	NaN	0.000000	0.001575	0.001657	28.085	0.112586	0.001910	58.9341	117.513	-164.772	-0.036446	0.312973	-0.774566	-0.775851	-0.149280	58.9341	-0.772666	-1.912279E+10	7.806375E-12	NaN
28	1.000000	0.322253	7.36531e+06	-40039.1	955.818	-29792.2	0.000000	0.000000	6.322864	-0.119294	NaN	0.000000	0.001567	0.001645	28.0851	0.059844	0.001967	30.429	39.549	-165.846	-0.024504	0.320911	-0.766571	-0.767913	-0.119294	30.429	-0.763631	-1.441097E+10	8.278033E-12	NaN
28	1.000000	0.330240	7.36531e+06	-40039.1	955.818	-29792.2	0.000000	0.000000	6.330854	-0.053507	NaN	0.000000	0.001545	0.001624	28.0854	0.135888	0.002066	65.7846	-34.7871	-164.711	-0.073917	0.328937	-0.758584	-0.759887	-0.053507	65.7846	-0.757974	-1.207097E+10	4.432683E-12	NaN
28	1.000000	0.338235	7.36531e+06	-40039.1	955.819	-29792.2	0.000000	0.000000	6.338847	-0.096716	NaN	0.000000	0.001531	0.001649	28.085	0.068177	0.002040	33.4239	32.1449	-168.215	-0.042565	0.336974	-0.750590	-0.751851	-0.096716	33.4239	-0.748419	-8.947514E+9	1.080921E-11	NaN
28	1.000000	0.346289	7.36531e+06	-40039.1	955.818	-29792.2	0.000000	0.000000	6.346903	-0.049125	NaN	0.000000	0.001550	0.001734	28.0846	0.006154	0.001906	3.228740	18.9791	-162.133	-0.039402	0.344926	-0.742535	-0.743898	-0.049125	3.228740	-0.731124	-5.201472E+9	9.444428E-12	NaN
28	1.000000	0.354248	7.36531e+06	-40039.1	955.818	-29792.2	0.000000	0.000000	6.354864	-0.002559	NaN	0.000000	0.001556	0.001691	28.0832	0.117525	0.001915	61.36	-16.5631	-164.613	-0.039415	0.352926	-0.734576	-0.735899	-0.002559	61.36	-0.734545	-5.790840E+9	4.418428E-13	NaN
28	1.000000	0.362253	7.36531e+06	-40039.1	955.819	-29792.2	0.000000	0.000000	6.362868	-0.035085	NaN	0.000000	0.001564	0.001655	28.0836	0.119950	0.002018	59.4482	113.404	-165.078	0.058444	0.361015	-0.726571	-0.727809	-0.035085	59.4482	-0.726128	-4.446633E+9	7.890296E-12	NaN
28	1.000000	0.370255	7.36531e+06	-40039.1	955.819	-29792.2	0.000000	0.000000	6.370871	-0.013135	NaN	0.000000	0.001554	0.001670	28.0836	0.115524	0.002042	56.5629	134.527	-163.064	9.259044E-5	0.368946	-0.718569	-0.719878	-0.013135	56.5629	-0.718395	-3.488004E+9	3.765769E-12	NaN
28	1.000000	0.378270	7.36531e+06	-40039.1	955.819	-29792.2	0.000000	0.000000	6.378885	-0.004261	NaN	0.000000	0.001562	0.001632	28.0835	0.106667	0.002054	51.9215	-178.216	-165.684	-0.063530	0.376981	-0.710554	-0.711843	-0.004261	51.9215	-0.710493	-2.721282E+9	1.565729E-12	NaN
28	1.000000	0.386289	7.36531e+06	-40039.1	955.818	-29792.2	0.000000	0.000000	6.386903	-0.028394	NaN	0.000000	0.001520	0.001678	28.0834	0.027429	0.002117	12.957	10.2014	-167.2	0.017091	0.384940	-0.702536	-0.703884	-0.028394	12.957	-0.700892	-2.012394E+9	1.410972E-11	NaN
28	1.000000	0.394292	7.36531e+06	-40039.1	955.818	-29792.2	0.000000	0.000000	6.394906	-0.036712	NaN	0.000000	0.001571	0.001628	28.0856	0.102634	0.002006	51.1576	-157.688	-163.897	0.017233	0.392966	-0.694532	-0.695858	-0.036712	51.1576	-0.693994	-1.619920E+9	2.266305E-11	NaN
28	1.000000	0.402293	7.36531e+06	-40039.1	955.818	-29792.2	0.000000	0.000000	6.402906	-0.078538	NaN	0.000000	0.001570	0.001643	28.0847	0.060780	0.002003	30.35	159.788	-164.741	-0.089405	0.401048	-0.686531	-0.687777	-0.078538	30.35	-0.684590	-1.204953E+9	6.517953E-11	NaN
28	1.000000	0.410288	7.36531e+06	-40039.1	955.818	-29792.2	0.000000	0.000000	6.410900	-0.085404	NaN	0.000000	0.001572	0.001644	28.0834	0.046393	0.002040	22.7421	-76.3292	-167.063	-0.048346	0.409039	-0.678536	-0.679785	-0.085404	22.7421	-0.675720	-9.112940E+8	9.371741E-11	NaN
28	1.000000	0.418282	7.36531e+06	-40039.1	955.818	-29792.2	0.000000	0.000000	6.418896	-0.053573	NaN	0.000000	0.001618	0.001690	28.0833	0.097910	0.002041	47.9725	-141.916	-165.617	-0.131235	0.416922	-0.670542	-0.671903	-0.053573	47.9725	-0.669705	-7.539597E+8	7.105511E-11	NaN
28	1.000000	0.426312	7.36531e+06	-40039.1	955.818	-29792.2	0.000000	0.000000	6.426928	0.001114	NaN	0.000000	0.001525	0.001677	28.0839	0.082070	0.001967	41.7139	6.924402	-162.717	-0.034534	0.425006	-0.662512	-0.663818	0.001114	41.7139	-0.662532	-6.013862E+8	-1.851795E-12	NaN
28	1.000000	0.434300	7.36531e+06	-40039.1	955.818	-29792.2	0.000000	0.000000	6.434915	-0.027881	NaN	0.000000	0.001553	0.001697	28.0854	0.089276	0.002024	44.1058	-151.779	-164.347	0.013150	0.433019	-0.654524	-0.655805	-0.027881	44.1058	-0.654050	-4.602031E+8	6.058404E-11	NaN
28	1.000000	0.442306	7.36531e+06	-40039.1	955.818	-29792.2	0.000000	0.000000	6.442921	-0.015338	NaN	0.000000	0.001551	0.001723	28.0842	0.090350	0.002104	42.9362	144.698	-167.37	-0.050074	0.441038	-0.646518	-0.647786	-0.015338	42.9362	-0.646250	-3.597680E+8	4.263224E-11	NaN
28	1.000000	0.450322	7.36531e+06	-40039.1	955.817	-29792.2	0.000000	0.000000	6.450936	-0.047819	NaN	0.000000	0.001559	0.001694	28.0842	0.042996	0.001863	23.0837	-16.0321	-166.06	-0.032228	0.449015	-0.638502	-0.639810	-0.047819	23.0837	-0.636949	-2.681753E+8	1.783119E-10	NaN
28	1.000000	0.458294	7.36531e+06	-40039.1	955.818	-29792.2	0.000000	0.000000	6.458906	-0.085136	NaN	0.000000	0.001565	0.001633	28.0852	0.209148	0.001931	108.283	5.402105	-166.955	-0.054116	0.456984	-0.630530	-0.631840	-0.085136	108.283	-0.629941	-2.148853E+8	3.961943E-10	NaN
28	1.000000	0.466328	7.36531e+06	-40039.1	955.818	-29792.2	0.000000	0.000000	6.466945	0.037308	NaN	0.000000	0.001537	0.001654	28.0856	0.040878	0.001855	22.033	-15.5394	-165.114	-0.013977	0.464969	-0.622496	-0.623855	0.037308	22.033	-0.623766	-1.767641E+8	-2.110625E-10	NaN
28	1.000000	0.474305	7.36531e+06	-40039.1	955.818	-29792.2	0.000000	0.000000	6.474917	-0.075118	NaN	0.000000	0.001570	0.001666	28.086	0.061908	0.001893	32.7059	-122.868	-164.548	-0.008933	0.473051	-0.614520	-0.615773	-0.075118	32.7059	-0.612797	-1.249088E+8	6.013805E-10	NaN
28	1.000000	0.482339	7.36531e+06	-40039.1	955.818	-29792.2	0.000000	0.000000	6.482949	-0.135916	NaN	0.000000	0.001576	0.001660	28.0852	0.023394	0.002063	11.3376	-73.6798	-165.296	-0.100460	0.480987	-0.606485	-0.607838	-0.135916	11.3376	-0.597494	-7.690388E+7	1.767353E-9	NaN
28	1.000000	0.490339	7.36531e+06	-40039.1	955.818	-29792.2	0.000000	0.000000	6.490953	-0.041617	NaN	0.000000	0.001553	0.001626	28.0863	0.128559	0.002000	64.2939	51.891	-168.171	-0.028016	0.489029	-0.598486	-0.599795	-0.041617	64.2939	-0.598000	-7.814744E+7	5.325415E-10	NaN
28	1.000000	0.498332	7.36531e+06	-40039.1	955.817	-29792.2	0.000000	0.000000	6.498948	0.000993	NaN	0.000000	0.001583	0.001628	28.0864	0.033196	0.002002	16.5803	-139.312	-164.153	-0.007487	0.496968	-0.590492	-0.591856	0.000993	16.5803	-0.590537	-6.166874E+7	-1.609855E-11	NaN
28	1.000000	0.506332	7.36531e+06	-40039.1	955.818	-29792.2	0.000000	0.000000	6.506944	-0.079007	NaN	0.000000	0.001565	0.001635	28.0859	0.015494	0.002040	7.595214	-80.1648	-168.093	-0.075761	0.504999	-0.582492	-0.583825	-0.079007	7.595214	-0.574691	-3.727577E+7	2.119524E-9	NaN
28	1.000000	0.514338	7.36531e+06	-40039.1	955.819	-29792.2	0.000000	0.000000	6.514950	-0.091499	NaN	0.000000	0.001539	0.001666	28.0831	0.061253	0.001869	32.7798	-177.074	-166.746	-0.030686	0.513038	-0.574486	-0.575786	-0.091499	32.7798	-0.572393	-3.464869E+7	2.640758E-9	NaN
28	1.000000	0.522347	7.36532e+06	-40039.1	955.819	-29792.2	0.000000	0.000000	6.522963	0.002530	NaN	0.000000	0.001568	0.001647	28.0839	0.016968	0.002015	8.418940	-124.627	-163.767	-0.004029	0.521051	-0.566477	-0.567773	0.002530	8.418940	-0.566702	-2.891076E+7	-8.752287E-11	NaN
28	1.000000	0.530348	7.36532e+06	-40039.1	955.818	-29792.2	0.000000	0.000000	6.530963	-0.016653	NaN	0.000000	0.001570	0.001654	28.0841	0.078821	0.002025	38.9295	-100.619	-163.597	-0.053506	0.529006	-0.558476	-0.559818	-0.016653	38.9295	-0.558155	-2.202198E+7	7.561928E-10	NaN
28	1.000000	0.538332	7.36532e+06	-40039.1	955.818	-29792.2	0.000000	0.000000	6.538946	-0.036627	NaN	0.000000	0.001563	0.001663	28.0846	0.038864	0.002045	19.0028	21.3602	-167.841	0.010849	0.537034	-0.550492	-0.551790	-0.036627	19.0028	-0.549047	-1.647211E+7	2.223598E-9	NaN
28	1.000000	0.546347	7.36532e+06	-40039.1	955.818	-29792.2	0.000000	0.000000	6.546961	-0.034582	NaN	0.000000	0.001541	0.001662	28.0854	0.057338	0.001995	28.7358	-49.3251	-163.738	-0.002368	0.545088	-0.542477	-0.543736	-0.034582	28.7358	-0.541575	-1.297768E+7	2.664745E-9	NaN
28	1.000000	0.554376	7.36532e+06	-40039.1	955.818	-29792.2	0.000000	0.000000	6.554991	-0.021656	NaN	0.000000	0.001536	0.001679	28.0853	0.076910	0.001977	38.8944	-156.715	-164.862	-0.003320	0.553039	-0.534449	-0.535785	-0.021656	38.8944	-0.534031	-1.019862E+7	2.123408E-9	NaN
28	1.000000	0.562361	7.36532e+06	-40039.1	955.819	-29792.2	0.000000	0.000000	6.562974	-0.055676	NaN	0.000000	0.001577	0.001669	28.0844	0.056033	0.001895	29.5642	-21.4237	-169.266	-0.016381	0.561042	-0.526464	-0.527782	-0.055676	29.5642	-0.525051	-7.65286e+06	7.275228E-9	NaN
28	1.000000	0.570353	7.36532e+06	-40039.1	955.819	-29792.2	0.000000	0.000000	6.570970	0.028835	NaN	0.000000	0.001544	0.001650	28.0842	0.055296	0.001902	29.0781	103.978	-165.437	-0.015881	0.569054	-0.518472	-0.519771	0.028835	29.0781	-0.519215	-6.34869e+06	-4.541880E-9	NaN
28	1.000000	0.578355	7.36532e+06	-40039.1	955.819	-29792.2	0.000000	0.000000	6.578969	-0.037198	NaN	0.000000	0.001571	0.001651	28.0851	0.055500	0.001895	29.2947	-70.7891	-162.821	-0.068813	0.577052	-0.510469	-0.511772	-0.037198	29.2947	-0.509517	-4.65247e+06	7.995353E-9	NaN
28	1.000000	0.586364	7.36532e+06	-40039.1	955.818	-29792.2	0.000000	0.000000	6.586976	-0.095128	NaN	0.000000	0.001583	0.001673	28.083	0.046404	0.001972	23.5259	-158.539	-163.331	-0.129045	0.585057	-0.502460	-0.503767	-0.095128	23.5259	-0.499428	-3.36539e+06	2.826650E-8	NaN
28	1.000000	0.594348	7.36532e+06	-40039.1	955.818	-29792.2	0.000000	0.000000	6.594962	-0.046371	NaN	0.000000	0.001565	0.001643	28.0828	0.062204	0.002073	30.009	150.239	-160.461	-0.036666	0.593065	-0.494476	-0.495759	-0.046371	30.009	-0.493317	-2.76526e+06	1.676917E-8	NaN
28	1.000000	0.602357	7.36532e+06	-40039.1	955.819	-29792.2	0.000000	0.000000	6.602974	0.022664	NaN	0.000000	0.001617	0.001641	28.0841	0.054501	0.001912	28.5021	-116.803	-161.833	-0.032401	0.601055	-0.486467	-0.487769	0.022664	28.5021	-0.487063	-2.26122e+06	-1.002283E-8	NaN
28	1.000000	0.610387	7.36532e+06	-40039.1	955.818	-29792.2	0.000000	0.000000	6.611000	-0.067509	NaN	0.000000	0.001581	0.001648	28.0827	0.053933	0.001973	27.3405	176.972	-166.819	0.006051	0.609111	-0.478437	-0.479713	-0.067509	27.3405	-0.476585	-1.61329e+06	4.184536E-8	NaN
28	1.000000	0.618389	7.36532e+06	-40039.1	955.818	-29792.2	0.000000	0.000000	6.619003	-0.043944	NaN	0.000000	0.001574	0.001683	28.0832	0.056352	0.001976	28.5235	-67.8277	-164.249	-0.093136	0.617079	-0.470435	-0.471745	-0.043944	28.5235	-0.469280	-1.27441e+06	3.448184E-8	NaN
28	1.000000	0.626366	7.36532e+06	-40039.1	955.818	-29792.2	0.000000	0.000000	6.626981	-0.012750	NaN	0.000000	0.001539	0.001677	28.0825	0.044088	0.001991	22.14	-58.7484	-164.748	-0.037232	0.625095	-0.462458	-0.463730	-0.012750	22.14	-0.462026	-1.00806e+06	1.264765E-8	NaN
28	1.000000	0.634357	7.36532e+06	-40039.1	955.818	-29792.2	0.000000	0.000000	6.634972	-0.017644	NaN	0.000000	0.001525	0.001680	28.0848	0.056415	0.002070	27.2587	151.406	-165.072	-0.006138	0.633062	-0.454467	-0.455762	-0.017644	27.2587	-0.453981	-776939	2.271024E-8	NaN
28	1.000000	0.642389	7.36532e+06	-40039.1	955.818	-29792.2	0.000000	0.000000	6.643003	-0.051946	NaN	0.000000	0.001568	0.001663	28.0835	0.037879	0.001858	20.3865	57.0471	-165.22	-0.036231	0.641076	-0.446435	-0.447748	-0.051946	20.3865	-0.444524	-571721	9.085941E-8	NaN
28	1.000000	0.650400	7.36532e+06	-40039.1	955.819	-29792.2	0.000000	0.000000	6.651016	0.002880	NaN	0.000000	0.001600	0.001655	28.0835	0.055440	0.001947	28.4687	-87.4458	-163.518	0.007301	0.649097	-0.438425	-0.439727	0.002880	28.4687	-0.438500	-470106	-6.126444E-9	NaN
28	1.000000	0.658383	7.36532e+06	-40039.1	955.818	-29792.2	0.000000	0.000000	6.658997	-0.046072	NaN	0.000000	0.001574	0.001663	28.0839	0.052329	0.002014	25.9847	-4.645023	-164.632	-0.046489	0.657099	-0.430442	-0.431725	-0.046072	25.9847	-0.429112	-346333	1.330275E-7	NaN
28	1.000000	0.666402	7.36532e+06	-40039.1	955.818	-29792.2	0.000000	0.000000	6.667016	-0.029637	NaN	0.000000	0.001558	0.001662	28.083	0.015615	0.001929	8.097040	-76.0437	-163.197	-0.051622	0.665126	-0.422422	-0.423698	-0.029637	8.097040	-0.419677	-254587	1.164138E-7	NaN
28	1.000000	0.674413	7.36532e+06	-40039.1	955.818	-29792.2	0.000000	0.000000	6.675028	-0.028681	NaN	0.000000	0.001567	0.001654	28.082	0.086429	0.002072	41.7064	96.9446	-169.634	-0.020900	0.673151	-0.414411	-0.415673	-0.028681	41.7064	-0.413895	-210748	1.360928E-7	NaN
28	1.000000	0.682406	7.36532e+06	-40039.1	955.819	-29792.2	0.000000	0.000000	6.683022	7.564243E-5	NaN	0.000000	0.001584	0.001662	28.0831	0.037229	0.002038	18.2681	48.4248	-164.578	0.003177	0.681098	-0.406418	-0.407726	7.564243E-5	18.2681	-0.406421	-164998	-4.584458E-10	NaN
28	1.000000	0.690435	7.36532e+06	-40039.1	955.818	-29792.2	0.000000	0.000000	6.691048	-0.050648	NaN	0.000000	0.001575	0.001672	28.0831	0.022138	0.001987	11.1405	-105.32	-163.749	-0.018786	0.689084	-0.398390	-0.399740	-0.050648	11.1405	-0.394980	-113331	4.469012E-7	NaN
28	1.000000	0.698415	7.36532e+06	-40039.1	955.818	-29792.2	0.000000	0.000000	6.699028	-0.077407	NaN	0.000000	0.001571	0.001679	28.0825	0.094573	0.001930	49.011	-10.4613	-165.364	-0.039929	0.697111	-0.390409	-0.391714	-0.077407	49.011	-0.389224	-93771.7	8.254827E-7	NaN
28	1.000000	0.706437	7.36532e+06	-40039.1	955.819	-29792.2	0.000000	0.000000	6.707051	-0.035005	NaN	0.000000	0.001592	0.001661	28.0843	0.040946	0.001982	20.6624	-99.1705	-164.379	0.044329	0.705090	-0.382387	-0.383734	-0.035005	20.6624	-0.381117	-71765.2	4.877706E-7	NaN
28	1.000000	0.714408	7.36532e+06	-40039.1	955.819	-29792.2	0.000000	0.000000	6.715023	-0.033797	NaN	0.000000	0.001599	0.001670	28.0861	0.052754	0.002036	25.9162	-82.1121	-165.999	-0.026123	0.713111	-0.374416	-0.375713	-0.033797	25.9162	-0.373438	-55668.5	6.071047E-7	NaN
28	1.000000	0.722403	7.36532e+06	-40039.1	955.818	-29792.2	0.000000	0.000000	6.723016	-0.046416	NaN	0.000000	0.001576	0.001682	28.0856	0.031363	0.001985	15.7977	17.643	-162.809	-0.040626	0.721095	-0.366422	-0.367729	-0.046416	15.7977	-0.364218	-40998.7	1.132145E-6	NaN
28	1.000000	0.730427	7.36532e+06	-40039.1	955.818	-29792.2	0.000000	0.000000	6.731041	-0.030719	NaN	0.000000	0.001575	0.001692	28.0851	0.045662	0.002062	22.1402	-167.072	-166.833	-0.014146	0.729112	-0.358398	-0.359713	-0.030719	22.1402	-0.357357	-32630.2	9.414354E-7	NaN
28	1.000000	0.738398	7.36532e+06	-40039.1	955.818	-29792.2	0.000000	0.000000	6.739012	-0.053422	NaN	0.000000	0.001593	0.001675	28.085	0.029123	0.001913	15.2198	-155.428	-167.439	-0.093793	0.737062	-0.350426	-0.351762	-0.053422	15.2198	-0.347794	-23711.8	2.252975E-6	NaN
28	1.000000	0.746456	7.36532e+06	-40039.1	955.818	-29792.2	0.000000	0.000000	6.747070	-0.044079	NaN	0.000000	0.001588	0.001658	28.0846	0.054870	0.002001	27.4248	128.254	-164.574	-0.012492	0.745118	-0.342369	-0.343706	-0.044079	27.4248	-0.341163	-18989.1	2.321267E-6	NaN
28	1.000000	0.754449	7.36532e+06	-40039.1	955.818	-29792.2	0.000000	0.000000	6.755058	-0.151111	NaN	0.000000	0.001573	0.001677	28.0824	0.069391	0.002048	33.876	109.841	-162.95	-0.098843	0.753105	-0.334376	-0.335719	-0.151111	33.876	-0.331030	-13506.1	1.118831E-5	NaN
28	1.000000	0.762435	7.36532e+06	-40039.1	955.819	-29792.2	0.000000	0.000000	6.763049	-0.032522	NaN	0.000000	0.001579	0.001667	28.0834	0.010212	0.002041	5.003847	155.996	-167.961	-0.063497	0.761165	-0.326389	-0.327660	-0.032522	5.003847	-0.321515	-9793.24	3.320893E-6	NaN
28	1.000000	0.770454	7.36532e+06	-40039.1	955.819	-29792.2	0.000000	0.000000	6.771067	-0.051361	NaN	0.000000	0.001542	0.001669	28.0837	0.069028	0.001993	34.6371	-118.152	-166.989	-0.005339	0.769153	-0.318371	-0.319671	-0.051361	34.6371	-0.317258	-8477.27	6.058711E-6	NaN
28	1.000000	0.778456	7.36532e+06	-40039.1	955.818	-29792.2	0.000000	0.000000	6.779071	-0.012472	NaN	0.000000	0.001540	0.001632	28.084	0.043194	0.002040	21.1735	-76.8399	-163.907	-0.065115	0.777198	-0.310368	-0.311626	-0.012472	21.1735	-0.309926	-6606.45	1.887868E-6	NaN
28	1.000000	0.786465	7.36532e+06	-40039.1	955.818	-29792.2	0.000000	0.000000	6.787079	-0.050093	NaN	0.000000	0.001581	0.001652	28.0844	0.029974	0.002026	14.7947	79.6292	-165.003	-0.068036	0.785178	-0.302359	-0.303646	-0.050093	14.7947	-0.299819	-4676.78	1.071109E-5	NaN
28	1.000000	0.794454	7.36532e+06	-40039.1	955.817	-29792.2	0.000000	0.000000	6.795067	-0.071140	NaN	0.000000	0.001531	0.001679	28.0853	0.095606	0.002052	46.5859	162.869	-165.548	-0.029473	0.793141	-0.294370	-0.295683	-0.071140	46.5859	-0.293225	-3728.73	1.907902E-5	NaN
28	1.000000	0.802464	7.36532e+06	-40039.1	955.819	-29792.2	0.000000	0.000000	6.803078	-0.034937	NaN	0.000000	0.001543	0.001633	28.0855	0.095788	0.002064	46.3983	155.907	-162.936	-0.029728	0.801125	-0.286360	-0.287700	-0.034937	46.3983	-0.285795	-2885.5	1.210791E-5	NaN
28	1.000000	0.810434	7.36532e+06	-40039.1	955.819	-29792.2	0.000000	0.000000	6.811050	-0.013636	NaN	0.000000	0.001534	0.001652	28.085	0.083197	0.002095	39.7053	-59.0311	-161.8	-0.034029	0.809093	-0.278390	-0.279731	-0.013636	39.7053	-0.278132	-2211.95	6.164846E-6	NaN
28	1.000000	0.818456	7.36532e+06	-40039.1	955.819	-29792.2	0.000000	0.000000	6.819068	-0.079633	NaN	0.000000	0.001519	0.001664	28.0852	0.103326	0.002029	50.925	54.5694	-164.102	-0.091799	0.817189	-0.270369	-0.271636	-0.079633	50.925	-0.269196	-1619.25	4.917866E-5	NaN
28	1.000000	0.826451	7.36532e+06	-40039.1	955.819	-29792.2	0.000000	0.000000	6.827065	-0.048408	NaN	0.000000	0.001551	0.001646	28.0851	0.036102	0.001926	18.7487	-171.064	-166.283	-0.088415	0.825140	-0.262373	-0.263684	-0.048408	18.7487	-0.260437	-1190.19	4.067261E-5	NaN
28	1.000000	0.834456	7.36532e+06	-40039.1	955.818	-29792.2	0.000000	0.000000	6.835068	-0.090446	NaN	0.000000	0.001559	0.001659	28.0837	0.092679	0.001884	49.1958	5.873474	-164.839	-0.112589	0.833168	-0.254368	-0.255657	-0.090446	49.1958	-0.252989	-914.392	9.891404E-5	NaN
28	1.000000	0.842474	7.36532e+06	-40039.1	955.818	-29792.2	0.000000	0.000000	6.843088	-0.042941	NaN	0.000000	0.001520	0.001651	28.0825	0.076065	0.002041	37.272	-67.676	-167.257	-0.074339	0.841201	-0.246351	-0.247623	-0.042941	37.272	-0.245486	-699.859	6.135652E-5	NaN
28	1.000000	0.850472	7.36532e+06	-40039.1	955.818	-29792.2	0.000000	0.000000	6.851087	-0.029325	NaN	0.000000	0.001513	0.001656	28.0826	0.103497	0.002001	51.7154	-121.432	-166.775	-0.001628	0.849139	-0.238352	-0.239685	-0.029325	51.7154	-0.237927	-533.5	5.496685E-5	NaN
28	1.000000	0.858478	7.36532e+06	-40039.1	955.819	-29792.2	0.000000	0.000000	6.859092	-0.048770	NaN	0.000000	0.001522	0.001647	28.0826	0.014862	0.001879	7.908834	-44.411	-163.319	0.052469	0.857172	-0.230346	-0.231652	-0.048770	7.908834	-0.225722	-342.602	0.000142	NaN
28	1.000000	0.866495	7.36532e+06	-40039.1	955.818	-29792.2	0.000000	0.000000	6.867113	0.044982	NaN	0.000000	0.001519	0.001700	28.0814	0.078298	0.002090	37.4616	-125.813	-165.569	-0.025802	0.865157	-0.222329	-0.223667	0.044982	37.4616	-0.223230	-312.745	-0.000144	NaN
28	1.000000	0.874481	7.36532e+06	-40039.1	955.819	-29792.2	0.000000	0.000000	6.875095	-0.044054	NaN	0.000000	0.001552	0.001686	28.0836	0.007843	0.002090	3.753332	-144.857	-165.517	-0.037338	0.873192	-0.214343	-0.215632	-0.044054	3.753332	-0.205540	-162.316	0.000271	NaN
28	1.000000	0.882505	7.36532e+06	-40039.1	955.818	-29792.2	0.000000	0.000000	6.883118	-0.074869	NaN	0.000000	0.001551	0.001686	28.0831	0.080493	0.002102	38.286	-85.3872	-163.271	-0.040265	0.881200	-0.206319	-0.207625	-0.074869	38.286	-0.204852	-158.18	0.000473	NaN
28	1.000000	0.890488	7.36532e+06	-40039.1	955.818	-29792.2	0.000000	0.000000	6.891102	-0.021481	NaN	0.000000	0.001534	0.001668	28.0833	0.009354	0.001996	4.686807	-85.5947	-166.077	-0.065959	0.889156	-0.198337	-0.199669	-0.021481	4.686807	-0.194899	-108.526	0.000198	NaN
28	1.000000	0.898496	7.36532e+06	-40039.1	955.818	-29792.2	0.000000	0.000000	6.899114	0.035856	NaN	0.000000	0.001528	0.001636	28.0828	0.158357	0.001968	80.4593	-40.3507	-163.797	-0.033941	0.897156	-0.190328	-0.191668	0.035856	80.4593	-0.190662	-92.2744	-0.000389	NaN
28	1.000000	0.906500	7.36532e+06	-40039.1	955.819	-29792.2	0.000000	0.000000	6.907113	-0.059822	NaN	0.000000	0.001551	0.001651	28.0835	0.145832	0.002137	68.2328	-156.894	-161.953	0.010195	0.905182	-0.182324	-0.183643	-0.059822	68.2328	-0.181667	-65.1296	0.000919	NaN
28	1.000000	0.914505	7.36532e+06	-40039.1	955.818	-29792.2	0.000000	0.000000	6.915118	-0.048167	NaN	0.000000	0.001544	0.001619	28.0824	0.053612	0.001963	27.3117	42.3479	-164.036	-0.111333	0.913199	-0.174320	-0.175626	-0.048167	27.3117	-0.172997	-46.2902	0.001041	NaN
28	1.000000	0.922505	7.36532e+06	-40039.1	955.818	-29792.2	0.000000	0.000000	6.923119	-0.053545	NaN	0.000000	0.001562	0.001678	28.0817	0.173544	0.001998	86.8668	-84.5657	-164.462	-0.043930	0.921167	-0.166319	-0.167657	-0.053545	86.8668	-0.165857	-34.7803	0.001540	NaN
28	1.000000	0.930508	7.36532e+06	-40039.1	955.818	-29792.2	0.000000	0.000000	6.931123	-0.024585	NaN	0.000000	0.001604	0.001640	28.0831	0.077199	0.002101	36.7354	149.349	-168.563	-0.068307	0.929260	-0.158316	-0.159564	-0.024585	36.7354	-0.157814	-25.0635	0.000981	NaN
28	1.000000	0.938517	7.36532e+06	-40039.1	955.818	-29792.2	0.000000	0.000000	6.939133	0.006948	NaN	0.000000	0.001568	0.001677	28.0823	0.056226	0.002037	27.6024	-172.501	-165.406	0.020866	0.937204	-0.150307	-0.151620	0.006948	27.6024	-0.150496	-18.4945	-0.000376	NaN
28	1.000000	0.946533	7.36532e+06	-40039.1	955.818	-29792.2	0.000000	0.000000	6.947148	-0.008403	NaN	0.000000	0.001579	0.001674	28.0826	0.076084	0.001987	38.3004	96.5201	-169.413	0.003419	0.945181	-0.142291	-0.143643	-0.008403	38.3004	-0.142127	-12.9653	0.000648	NaN
28	1.000000	0.954492	7.36532e+06	-40039.1	955.818	-29792.2	0.000000	0.000000	6.955108	0.011614	NaN	0.000000	0.001518	0.001622	28.0848	0.078460	0.001999	39.2556	120.395	-163.186	-0.050956	0.953212	-0.134332	-0.135612	0.011614	39.2556	-0.134554	-9.327548	-0.001245	NaN
28	1.000000	0.962536	7.36532e+06	-40039.1	955.819	-29792.2	0.000000	0.000000	6.963150	-0.044675	NaN	0.000000	0.001588	0.001660	28.0835	0.014627	0.002006	7.292555	-160.435	-165.748	0.028294	0.961230	-0.126288	-0.127594	-0.044675	7.292555	-0.121694	-5.225762	0.008549	NaN
28	1.000000	0.970495	7.36532e+06	-40039.1	955.819	-29792.2	0.000000	0.000000	6.971111	-0.008345	NaN	0.000000	0.001603	0.001661	28.0829	0.052311	0.001939	26.985	-172.686	-163.328	0.041584	0.969175	-0.118329	-0.119649	-0.008345	26.985	-0.118097	-4.421004	0.001888	NaN
28	1.000000	0.978519	7.36532e+06	-40039.1	955.819	-29792.2	0.000000	0.000000	6.979133	-0.047098	NaN	0.000000	0.001611	0.001661	28.0844	0.031516	0.001963	16.0583	-123.168	-164.901	-0.024117	0.977226	-0.110305	-0.111598	-0.047098	16.0583	-0.108106	-2.739998	0.017189	NaN
28	1.000000	0.986550	7.36532e+06	-40039.1	955.818	-29792.2	0.000000	0.000000	6.987162	-0.088028	NaN	0.000000	0.001600	0.001676	28.0845	0.089681	0.001967	45.601	-131.172	-166.639	-0.057398	0.985241	-0.102274	-0.103583	-0.088028	45.601	-0.100826	-1.905676	0.046192	NaN
28	1.000000	0.994523	7.36532e+06	-40039.1	955.819	-29792.2	0.000000	0.000000	6.995138	-0.028815	NaN	0.000000	0.001597	0.001612	28.0835	0.070117	0.001954	35.8768	-13.1627	-165.734	-0.057828	0.993207	-0.094301	-0.095617	-0.028815	35.8768	-0.093699	-1.317205	0.021876	NaN
28	1.000000	1.002527	7.36532e+06	-40039.1	955.819	-29792.2	0.000000	0.000000	7.003142	-0.029096	NaN	0.000000	0.001598	0.001641	28.0833	0.034685	0.001898	18.277	-118.054	-161.597	-0.056235	1.001237	-0.086297	-0.087587	-0.029096	18.277	-0.085103	-0.826373	0.035209	NaN
28	1.000000	1.010529	7.36532e+06	-40039.1	955.819	-29792.2	0.000000	0.000000	7.011146	0.021719	NaN	0.000000	0.001584	0.001645	28.0827	0.116180	0.001988	58.4544	-105.844	-164.524	0.036955	1.009203	-0.078295	-0.079622	0.021719	58.4544	-0.078574	-0.569977	-0.038105	NaN
28	1.000000	1.018550	7.36532e+06	-40039.1	955.819	-29792.2	0.000000	0.000000	7.019165	-0.008239	NaN	0.000000	0.001574	0.001628	28.0834	0.104415	0.002039	51.2078	177.427	-162.684	-0.019889	1.017290	-0.070275	-0.071534	-0.008239	51.2078	-0.070154	-0.344360	0.023924	NaN
28	1.000000	1.026528	7.36532e+06	-40039.1	955.819	-29792.2	0.000000	0.000000	7.027146	0.065649	NaN	0.000000	0.001565	0.001616	28.0837	0.093791	0.002035	46.0824	-86.0773	-167.532	-0.024936	1.025270	-0.062297	-0.063554	0.065649	46.0824	-0.063365	-0.224371	-0.292590	NaN
28	1.000000	1.034586	7.36532e+06	-40039.1	955.818	-29792.2	0.000000	0.000000	7.035198	-0.091191	NaN	0.000000	0.001593	0.001636	28.0846	0.023467	0.001913	12.2657	168.198	-165.471	-0.071498	1.033211	-0.054238	-0.055614	-0.091191	12.2657	-0.048663	-0.083118	1.097124	NaN
28	1.000000	1.042556	7.36532e+06	-40039.1	955.819	-29792.2	0.000000	0.000000	7.043169	-0.050181	NaN	0.000000	0.001524	0.001635	28.0852	0.072589	0.001996	36.3699	-123.944	-162.169	0.009140	1.041255	-0.046269	-0.047569	-0.050181	36.3699	-0.045234	-0.065335	0.768067	NaN
28	1.000000	1.050576	7.36532e+06	-40039.1	955.819	-29792.2	0.000000	0.000000	7.051190	-0.047787	NaN	0.000000	0.001533	0.001649	28.0841	0.051462	0.002083	24.7114	-10.1429	-167.063	-0.036435	1.049275	-0.038248	-0.039550	-0.047787	24.7114	-0.036798	-0.036210	1.319743	NaN
28	1.000000	1.058565	7.36532e+06	-40039.1	955.819	-29792.2	0.000000	0.000000	7.059177	-0.088992	NaN	0.000000	0.001555	0.001689	28.0841	0.070294	0.001978	35.5428	-3.637040	-163.264	-0.103256	1.057281	-0.030260	-0.031544	-0.088992	35.5428	-0.028382	-0.020766	4.285482	NaN
28	1.000000	1.066578	7.36532e+06	-40039.1	955.819	-29792.2	0.000000	0.000000	7.067195	0.023667	NaN	0.000000	0.001538	0.001654	28.0842	0.009780	0.002058	4.752932	144.464	-164.344	0.082902	1.065215	-0.022246	-0.023609	0.023667	4.752932	-0.025981	-0.017902	-1.322051	NaN
28	1.000000	1.074572	7.36532e+06	-40039.1	955.819	-29792.2	0.000000	0.000000	7.075186	-0.046554	NaN	0.000000	0.001552	0.001668	28.0837	0.043649	0.001899	22.991	142.378	-162.732	-0.042944	1.073241	-0.014252	-0.015583	-0.046554	22.991	-0.012734	-0.007949	5.856678	NaN
28	1.000000	1.082556	7.36532e+06	-40039.1	955.819	-29792.2	0.000000	0.000000	7.083172	0.007929	NaN	0.000000	0.001600	0.001634	28.0834	0.107618	0.002015	53.3995	14.9413	-166.166	-0.110448	1.081276	-0.006268	-0.007548	0.007929	53.3995	-0.006380	-0.004267	-1.858082	NaN
28	1.000000	1.090554	7.36532e+06	-40039.1	955.819	-29792.2	0.000000	0.000000	7.091235	1.592334	NaN	0.000000	0.001584	0.001668	28.0836	2.492961	0.001896	1314.75	5.166697	-164.004	0.393143	1.089286	0.001729	0.000462	1.592334	1314.75	0.000821	0.000623	2554.16	48108.7
28	2.000000	1.096175	7.36532e+06	-40039.1	955.819	-29792.2	0.000000	0.000000	7.097117	7.928852	NaN	0.000000	0.001608	0.001680	28.0823	8.567130	0.001693	5059.4	9.080786	-173.189	7.880247	1.095855	0.007351	0.007031	7.928852	5059.4	0.006176	0.005232	1515.42	63904.9
28	2.000000	1.098187	7.36532e+06	-40039.1	955.82	-29792.2	0.000000	0.000000	7.099275	11.4872	NaN	0.000000	0.001629	0.001686	28.0826	11.084	0.001898	5838.48	7.560633	-170.216	10.8373	1.097805	0.009363	0.008981	11.4872	5838.48	0.007888	0.006927	1658.31	64091.2
28	2.000000	1.100103	7.36532e+06	-40039.1	955.819	-29792.2	0.000000	0.000000	7.101254	13.011	NaN	0.000000	0.001625	0.001672	28.0842	12.6623	0.001758	7200.86	7.374322	-173.991	12.7357	1.099857	0.011279	0.011033	13.011	7200.86	0.009924	0.009097	1430.26	68977.8
28	2.000000	1.102087	7.36532e+06	-40039.1	955.819	-29792.2	0.000000	0.000000	7.103507	19.5778	NaN	0.000000	0.001625	0.001702	28.0817	14.8524	0.001769	8394.78	6.805830	-174.256	18.8429	1.101750	0.013263	0.012926	19.5778	8394.78	0.011513	0.010912	1794.07	73421.1
28	2.000000	1.104132	7.36532e+06	-40039.1	955.819	-29792.2	0.000000	0.000000	7.105623	21.303	NaN	0.000000	0.001638	0.001694	28.0825	15.9808	0.001666	9590.55	7.434441	-176.128	21.1829	1.103786	0.015308	0.014962	21.303	9590.55	0.013642	0.013517	1576.04	75366.7
28	2.000000	1.106074	7.36532e+06	-40039.1	955.82	-29792.2	0.000000	0.000000	7.107713	24.9082	NaN	0.000000	0.001667	0.001704	28.0834	17.904	0.001638	10930.7	2.301312	-172.862	23.8518	1.105816	0.017249	0.016991	24.9082	10930.7	0.015540	0.016013	1555.53	78920.5
28	2.000000	1.108117	7.36532e+06	-40039.1	955.819	-29792.2	0.000000	0.000000	7.109973	30.1939	NaN	0.000000	0.001645	0.001659	28.0831	20.8211	0.001851	11250.9	8.047286	-177.728	29.3453	1.107761	0.019293	0.018937	30.1939	11250.9	0.017280	0.018447	1636.82	75683.8
28	2.000000	1.110053	7.36532e+06	-40039.1	955.819	-29792.2	0.000000	0.000000	7.112119	35.3033	NaN	0.000000	0.001641	0.001718	28.082	22.6484	0.001765	12828.8	4.353460	-176.107	34.3642	1.109722	0.021229	0.020898	35.3033	12828.8	0.019165	0.021247	1661.6	80410.9
28	2.000000	1.112075	7.36532e+06	-40039.1	955.82	-29792.2	0.000000	0.000000	7.114334	39.9834	NaN	0.000000	0.001600	0.001729	28.0816	25.2099	0.001843	13676.8	4.922828	-176.717	38.7992	1.111756	0.023250	0.022931	39.9834	13676.8	0.021058	0.024232	1650.03	80271.9
28	2.000000	1.114054	7.36532e+06	-40039.1	955.819	-29792.2	0.000000	0.000000	7.116528	45.2171	NaN	0.000000	0.001619	0.001729	28.0819	26.4828	0.001746	15164.3	3.823682	-177.565	44.2283	1.113722	0.025230	0.024898	45.2171	15164.3	0.022994	0.027466	1646.27	83598.1
28	2.000000	1.116065	7.36532e+06	-40039.1	955.82	-29792.2	0.000000	0.000000	7.118794	51.428	NaN	0.000000	0.001643	0.001703	28.0817	28.992	0.001895	15297.2	5.520689	-177.002	51.6555	1.115741	0.027241	0.026917	51.428	15297.2	0.024719	0.030507	1685.8	80018.3
28	2.000000	1.118081	7.36532e+06	-40039.1	955.82	-29792.2	0.000000	0.000000	7.121022	56.5838	NaN	0.000000	0.001623	0.001720	28.0816	30.9444	0.001830	16913	3.693809	-176.734	55.3121	1.117734	0.029256	0.028910	56.5838	16913	0.026747	0.034271	1651.07	83470.2
28	2.000000	1.120080	7.36532e+06	-40039.1	955.82	-29792.2	0.000000	0.000000	7.123259	62.3797	NaN	0.000000	0.001607	0.001742	28.0833	32.3122	0.001747	18496.1	4.838542	179.817	61.532	1.119725	0.031256	0.030901	62.3797	18496.1	0.028726	0.038145	1635.32	86523
28	2.000000	1.122068	7.36532e+06	-40039.1	955.82	-29792.2	0.000000	0.000000	7.125484	68.1601	NaN	0.000000	0.001621	0.001694	28.0826	35.0945	0.001794	19563.9	4.359863	179.673	68.0509	1.121794	0.033243	0.032970	68.1601	19563.9	0.030630	0.042060	1620.53	87154.9
28	2.000000	1.124003	7.36532e+06	-40039.1	955.82	-29792.2	0.000000	0.000000	7.127917	80.2529	NaN	0.000000	0.001643	0.001705	28.0824	36.4783	0.001862	19585.9	5.256190	179.266	77.5957	1.123705	0.035179	0.034881	80.2529	19585.9	0.032106	0.045221	1774.66	84148.3
28	2.000000	1.126039	7.36532e+06	-40039.1	955.821	-29792.2	0.000000	0.000000	7.130277	88.1502	NaN	0.000000	0.001532	0.001708	28.0828	38.745	0.001846	20985.6	5.945195	178.209	87.6667	1.125651	0.037214	0.036826	88.1502	20985.6	0.034064	0.049589	1777.61	86099.7
28	2.000000	1.128036	7.36532e+06	-40039.1	955.82	-29792.2	0.000000	0.000000	7.132606	96.2197	NaN	0.000000	0.001545	0.001681	28.082	40.1223	0.001752	22896.5	4.474632	179.914	94.042	1.127710	0.039212	0.038885	96.2197	22896.5	0.036060	0.054243	1773.88	89819.7
28	2.000000	1.130062	7.36532e+06	-40039.1	955.821	-29792.2	0.000000	0.000000	7.134821	100.828	NaN	0.000000	0.001551	0.001676	28.0827	42.5684	0.001818	23416.9	6.315591	177.657	101.745	1.129659	0.041238	0.040834	100.828	23416.9	0.038009	0.058983	1709.44	88092.3
28	2.000000	1.131996	7.36532e+06	-40039.1	955.82	-29792.2	0.000000	0.000000	7.137011	107.052	NaN	0.000000	0.001552	0.001718	28.0821	44.5141	0.001767	25193.1	5.902825	176.161	105.201	1.131825	0.043172	0.043001	107.052	25193.1	0.039985	0.063989	1672.99	90992.2
28	2.000000	1.134043	7.36532e+06	-40039.1	955.821	-29792.2	0.000000	0.000000	7.139579	119.738	NaN	0.000000	0.001557	0.001729	28.0821	45.4845	0.001797	25312.5	4.361068	178.16	118.165	1.133661	0.045219	0.044837	119.738	25312.5	0.041671	0.068418	1750.09	88414.3
28	2.000000	1.135991	7.36532e+06	-40039.1	955.82	-29792.2	0.000000	0.000000	7.141968	130.47	NaN	0.000000	0.001542	0.001673	28.0826	47.8768	0.001749	27369.4	5.349307	177.017	129.171	1.135723	0.047166	0.046899	130.47	27369.4	0.043591	0.073638	1771.77	92148.2
28	2.000000	1.138052	7.36532e+06	-40039.1	955.82	-29792.2	0.000000	0.000000	7.144446	140.612	NaN	0.000000	0.001549	0.001683	28.0827	50.2743	0.001737	28937	6.619656	175.675	140.472	1.137675	0.049228	0.048851	140.612	28937	0.045583	0.079252	1774.24	93912.3
28	2.000000	1.139999	7.36532e+06	-40039.1	955.821	-29792.2	0.000000	0.000000	7.146711	148.347	NaN	0.000000	0.001534	0.001676	28.0848	51.7304	0.001755	29475.6	4.988537	176.625	146.685	1.139646	0.051175	0.050821	148.347	29475.6	0.047400	0.084546	1754.63	92616.7
28	2.000000	1.142010	7.36532e+06	-40039.1	955.82	-29792.2	0.000000	0.000000	7.148978	154.59	NaN	0.000000	0.001527	0.001674	28.083	54.2826	0.001884	28811.9	1.267113	-179.44	152.737	1.141725	0.053186	0.052901	154.59	28811.9	0.049161	0.089839	1720.76	87823.9
28	2.000000	1.144035	7.36532e+06	-40039.1	955.821	-29792.2	0.000000	0.000000	7.151417	164.646	NaN	0.000000	0.001547	0.001679	28.0826	55.4021	0.001855	29871.9	3.037570	177.934	163.62	1.143750	0.055211	0.054926	164.646	29871.9	0.051077	0.095772	1719.14	88189.3
28	2.000000	1.146029	7.36532e+06	-40039.1	955.82	-29792.2	0.000000	0.000000	7.154011	179.258	NaN	0.000000	0.001550	0.001663	28.0839	57.22	0.001769	32340.2	6.860978	173.658	180.626	1.145733	0.057205	0.056909	179.258	32340.2	0.053048	0.102066	1756.3	92486
28	2.000000	1.148017	7.36532e+06	-40039.1	955.82	-29792.2	0.000000	0.000000	7.156493	191.29	NaN	0.000000	0.001536	0.001680	28.0831	58.6003	0.001726	33950	3.153659	177.616	189.538	1.147605	0.059192	0.058781	191.29	33950	0.054967	0.108381	1764.98	94218.8
28	2.000000	1.149945	7.36532e+06	-40039.1	955.819	-29792.2	0.000000	0.000000	7.158660	197.101	NaN	0.000000	0.001546	0.001680	28.0828	61.1442	0.001874	32625.1	6.637735	173.504	194.256	1.149681	0.061120	0.060857	197.101	32625.1	0.056589	0.113863	1731.04	88335.1
28	2.000000	1.151914	7.36532e+06	-40039.1	955.82	-29792.2	0.000000	0.000000	7.161058	207.506	NaN	0.000000	0.001553	0.001700	28.0825	62.9744	0.001903	33084.6	3.248194	177.278	202.796	1.151759	0.063090	0.062935	207.506	33084.6	0.058386	0.120085	1727.99	87227.7
28	2.000000	1.154032	7.36532e+06	-40039.1	955.821	-29792.2	0.000000	0.000000	7.163716	220.687	NaN	0.000000	0.001533	0.001689	28.0819	63.8794	0.001786	35757.5	3.948807	175.916	223.632	1.153662	0.065207	0.064838	220.687	35757.5	0.060579	0.127891	1725.59	91352.5
28	2.000000	1.155983	7.36532e+06	-40039.1	955.82	-29792.2	0.000000	0.000000	7.166170	232.887	NaN	0.000000	0.001586	0.001644	28.0824	65.7778	0.001755	37487.2	3.700759	175.698	230.374	1.155678	0.067159	0.066853	232.887	37487.2	0.062500	0.134925	1726.05	93241.7
28	2.000000	1.158067	7.36532e+06	-40039.1	955.82	-29792.2	0.000000	0.000000	7.168867	247.825	NaN	0.000000	0.001543	0.001670	28.082	68.7391	0.001732	39693.2	8.853535	171.303	247.969	1.157624	0.069243	0.068800	247.825	39693.2	0.064560	0.142667	1737.09	96012.4
28	2.000000	1.160001	7.36532e+06	-40039.1	955.82	-29792.2	0.000000	0.000000	7.171129	255.787	NaN	0.000000	0.001514	0.001645	28.0846	70.5641	0.001900	37129.4	5.795007	174.467	254.889	1.159686	0.071177	0.070862	255.787	37129.4	0.066010	0.148238	1725.51	88107.2
28	2.000000	1.161952	7.36532e+06	-40039.1	955.82	-29792.2	0.000000	0.000000	7.173584	268.069	NaN	0.000000	0.001507	0.001686	28.0827	71.1146	0.001820	39067.5	3.010214	176.248	266.616	1.161743	0.073128	0.072919	268.069	39067.5	0.067982	0.155975	1718.67	90377.6
28	2.000000	1.164016	7.36532e+06	-40039.1	955.821	-29792.2	0.000000	0.000000	7.176228	282.186	NaN	0.000000	0.001563	0.001657	28.0836	72.6394	0.001832	39660.7	4.803222	174.598	282.498	1.163642	0.075192	0.074817	282.186	39660.7	0.069856	0.163502	1725.89	89613.4
28	2.000000	1.165977	7.36532e+06	-40039.1	955.82	-29792.2	0.000000	0.000000	7.178645	293.274	NaN	0.000000	0.001535	0.001662	28.0833	74.7576	0.001735	43081.3	3.013792	175.093	291.586	1.165682	0.077153	0.076858	293.274	43081.3	0.072047	0.172516	1699.98	94764.8
28	2.000000	1.167974	7.36532e+06	-40039.1	955.821	-29792.2	0.000000	0.000000	7.181376	311.131	NaN	0.000000	0.001568	0.001684	28.0831	77.4171	0.001792	43209.6	6.262074	172.564	308.912	1.167577	0.079150	0.078752	311.131	43209.6	0.073750	0.179674	1731.64	93134.4
28	2.000000	1.169962	7.36532e+06	-40039.1	955.821	-29792.2	0.000000	0.000000	7.184006	326.761	NaN	0.000000	0.001564	0.001665	28.0813	78.0731	0.001806	43230.1	4.187175	174.623	323.429	1.169607	0.081138	0.080783	326.761	43230.1	0.075469	0.187044	1746.98	91324.8
28	2.000000	1.171955	7.36532e+06	-40039.1	955.821	-29792.2	0.000000	0.000000	7.186228	332.352	NaN	0.000000	0.001556	0.001666	28.0804	81.0279	0.001855	43685.5	0.673554	177.737	331.509	1.171709	0.083130	0.082884	332.352	43685.5	0.077424	0.195594	1699.19	90247
28	2.000000	1.173962	7.36532e+06	-40039.1	955.821	-29792.2	0.000000	0.000000	7.188849	347.276	NaN	0.000000	0.001536	0.001658	28.0808	81.501	0.001802	45222	0.938744	176.844	346.308	1.173704	0.085138	0.084880	347.276	45222	0.079379	0.204318	1699.68	91404.9
28	2.000000	1.175908	7.36532e+06	-40039.1	955.82	-29792.2	0.000000	0.000000	7.191535	365.288	NaN	0.000000	0.001547	0.001614	28.0811	85.7415	0.001793	47827.6	6.142489	171.473	360.701	1.175621	0.087084	0.086797	365.288	47827.6	0.081355	0.213322	1712.38	94609.2
28	2.000000	1.177973	7.36532e+06	-40039.1	955.82	-29792.2	0.000000	0.000000	7.194348	383.488	NaN	0.000000	0.001565	0.001609	28.0803	86.9494	0.001827	47578.7	3.373903	175.037	381.01	1.177570	0.089148	0.088745	383.488	47578.7	0.083103	0.221437	1731.81	92376.2
28	2.000000	1.179966	7.36532e+06	-40039.1	955.821	-29792.2	0.000000	0.000000	7.196956	398.448	NaN	0.000000	0.001542	0.001637	28.0814	88.6128	0.001840	48149.8	3.558701	175.025	396.353	1.179569	0.091142	0.090744	398.448	48149.8	0.084936	0.230094	1731.67	91709.6
28	2.000000	1.182017	7.36532e+06	-40039.1	955.821	-29792.2	0.000000	0.000000	7.199228	403.833	NaN	0.000000	0.001518	0.001658	28.0818	91.5529	0.001844	49639.8	6.756308	170.364	405.475	1.181673	0.093193	0.092849	403.833	49639.8	0.087091	0.240478	1679.29	92483.6
28	2.000000	1.183953	7.36532e+06	-40039.1	955.821	-29792.2	0.000000	0.000000	7.202071	425.896	NaN	0.000000	0.001536	0.001620	28.0824	91.4933	0.001717	53299	5.244849	171.174	424.235	1.183601	0.095129	0.094776	425.896	53299	0.089136	0.250525	1700.02	97289.7
28	2.000000	1.185942	7.36532e+06	-40039.1	955.82	-29792.2	0.000000	0.000000	7.204731	442.228	NaN	0.000000	0.001501	0.001631	28.083	93.25	0.001909	48859.4	2.661683	174.595	439.993	1.185611	0.097118	0.096787	442.228	48859.4	0.090329	0.256479	1724.23	88144.5
28	2.000000	1.188012	7.36532e+06	-40039.1	955.821	-29792.2	0.000000	0.000000	7.207453	458.098	NaN	0.000000	0.001474	0.001608	28.0816	94.253	0.001724	54673.2	1.705241	175.553	460.282	1.187655	0.099188	0.098831	458.098	54673.2	0.092904	0.269543	1699.54	96213
28	2.000000	1.189898	7.36532e+06	-40039.1	955.821	-29792.2	0.000000	0.000000	7.209986	473.843	NaN	0.000000	0.001500	0.001589	28.0813	95.4861	0.001734	55058.8	5.048743	172.178	469.669	1.189602	0.101073	0.100778	473.843	55058.8	0.094619	0.278413	1701.94	95335.5
28	2.000000	1.191969	7.36532e+06	-40039.1	955.82	-29792.2	0.000000	0.000000	7.212641	488.063	NaN	0.000000	0.001479	0.001673	28.081	99.2482	0.001865	53224.4	5.085269	172.08	489.453	1.191584	0.103144	0.102759	488.063	53224.4	0.096267	0.287066	1700.18	90759.7
28	2.000000	1.193866	7.36532e+06	-40039.1	955.821	-29792.2	0.000000	0.000000	7.215239	505.092	NaN	0.000000	0.001521	0.001656	28.0805	99.7252	0.001822	54731.8	2.932518	174.048	500.586	1.193583	0.105042	0.104759	505.092	54731.8	0.098121	0.296945	1700.96	91764.6