File: remote_trans/data/nanoindenter/0828-1/data/Data_2025-08-06,11h17m57s/2025-07-22_16-23-58_1_249.txt
2025-07-22, 16:23:58, 1
Index	Phase	Displacement	Time	Pos X	Pos Y	Pos Z	Rot A	Rot B	Piezo Z	Force A	Force B	Gripper	Voltage A	Voltage B	Temperature	Amplitude force	Amplitude pos	Stiffness	Phase shift	Phase excitation	Force A raw	Displacement raw	HMax	HMax raw	Real Force	Real Stiffness	Contact Depth	Area	Hardness	Reduced Mod.
[#]	[#]	[um]	[s]	[um]	[um]	[um]	[m°]	[m°]	[um]	[uN]	[uN]	[V]	[V]	[V]	[°C]	[uN]	[um]	[N/m]	[°]	[°]	[uN]	[um]	[um]	[um]	[uN]	[N/m]	[um]	[um^2]	[MPa]	[MPa]
249	1.000000	0.002838	7.36748e+06	-51089.1	955.819	-29753.6	0.000000	0.000000	6.002785	0.004966	NaN	0.000000	0.001628	0.001545	28.0795	0.009768	0.000945	10.3424	48.1172	-168.251	0.001578	0.001602	-1.185643	-1.186879	0.004966	10.3424	-1.186004	-7.133380E+15	-6.961659E-19	NaN
249	1.000000	0.012913	7.36748e+06	-51089.1	955.819	-29753.6	0.000000	0.000000	6.012860	0.005926	NaN	0.000000	0.001593	0.001517	28.0789	0.026871	0.001248	21.5295	-63.037	15.3996	-0.062981	0.011466	-1.175569	-1.177016	0.005926	21.5295	-1.175775	-5.203162E+15	-1.138992E-18	NaN
249	1.000000	0.022821	7.36748e+06	-51089.1	955.818	-29753.6	0.000000	0.000000	6.022766	-0.037307	NaN	0.000000	0.001633	0.001531	28.0791	0.132622	0.001727	76.7754	-121.262	-162.809	-0.053910	0.021496	-1.165661	-1.166986	-0.037307	76.7754	-1.165296	-3.765757E+15	9.906895E-18	NaN
249	1.000000	0.032829	7.36748e+06	-51089.1	955.818	-29753.6	0.000000	0.000000	6.032773	-0.056588	NaN	0.000000	0.001637	0.001557	28.0792	0.103755	0.001926	53.8614	165.753	13.021	0.002567	0.031419	-1.155653	-1.157063	-0.056588	53.8614	-1.154865	-2.729200E+15	2.073416E-17	NaN
249	1.000000	0.042798	7.36748e+06	-51089.1	955.818	-29753.6	0.000000	0.000000	6.042746	0.024901	NaN	0.000000	0.001600	0.001523	28.0793	0.057024	0.001946	29.3012	155.308	-167.68	0.007664	0.041489	-1.145683	-1.146992	0.024901	29.3012	-1.146321	-2.096480E+15	-1.187764E-17	NaN
249	1.000000	0.052807	7.36748e+06	-51089.1	955.819	-29753.6	0.000000	0.000000	6.052756	0.044757	NaN	0.000000	0.001629	0.001560	28.0788	0.036181	0.001895	19.0882	-134.651	11.3533	0.063187	0.051414	-1.135674	-1.137067	0.044757	19.0882	-1.137433	-1.593350E+15	-2.808971E-17	NaN
249	1.000000	0.062807	7.36748e+06	-51089.1	955.818	-29753.6	0.000000	0.000000	6.062756	0.050589	NaN	0.000000	0.001644	0.001541	28.0789	0.013102	0.001951	6.717194	37.5305	-166.069	0.107916	0.061529	-1.125674	-1.126953	0.050589	6.717194	-1.131323	-1.319366E+15	-3.834340E-17	NaN
249	1.000000	0.072810	7.36748e+06	-51089.1	955.818	-29753.6	0.000000	0.000000	6.072756	-0.006470	NaN	0.000000	0.001621	0.001586	28.0789	0.112589	0.001963	57.3603	157.775	13.0634	0.049795	0.071501	-1.115672	-1.116981	-0.006470	57.3603	-1.115587	-8.114501E+14	7.973542E-18	NaN
249	1.000000	0.082837	7.36748e+06	-51089.1	955.818	-29753.6	0.000000	0.000000	6.082785	0.024008	NaN	0.000000	0.001646	0.001574	28.0802	0.111355	0.001960	56.8201	-73.5021	-166.721	-0.000464	0.081477	-1.105644	-1.107004	0.024008	56.8201	-1.105961	-6.026734E+14	-3.983508E-17	NaN
249	1.000000	0.092831	7.36748e+06	-51089.1	955.819	-29753.6	0.000000	0.000000	6.092778	-0.003618	NaN	0.000000	0.001661	0.001589	28.0801	0.099989	0.002003	49.927	-137.56	11.2963	-0.004542	0.091510	-1.095650	-1.096972	-0.003618	49.927	-1.095596	-4.374671E+14	8.271295E-18	NaN
249	1.000000	0.102839	7.36748e+06	-51089.1	955.818	-29753.6	0.000000	0.000000	6.102787	0.029684	NaN	0.000000	0.001580	0.001579	28.0801	0.078801	0.002185	36.0641	-3.282321	-166.606	-0.017049	0.101507	-1.085642	-1.086974	0.029684	36.0641	-1.086259	-3.277812E+14	-9.055983E-17	NaN
249	1.000000	0.112854	7.36748e+06	-51089.1	955.818	-29753.6	0.000000	0.000000	6.112800	-0.022075	NaN	0.000000	0.001624	0.001597	28.08	0.157641	0.002029	77.6803	-44.6796	16.3457	0.012152	0.111496	-1.075627	-1.076985	-0.022075	77.6803	-1.075414	-2.343814E+14	9.418375E-17	NaN
249	1.000000	0.122831	7.36748e+06	-51089.1	955.818	-29753.6	0.000000	0.000000	6.122780	0.058872	NaN	0.000000	0.001652	0.001570	28.0799	0.062058	0.001937	32.0375	32.5953	-166.839	-0.073604	0.121483	-1.065651	-1.066999	0.058872	32.0375	-1.067029	-1.808321E+14	-3.255607E-16	NaN
249	1.000000	0.132848	7.36748e+06	-51089.1	955.818	-29753.6	0.000000	0.000000	6.132794	-0.012328	NaN	0.000000	0.001623	0.001523	28.0798	0.082373	0.002041	40.3536	78.2665	14.8968	0.047429	0.131507	-1.055634	-1.056975	-0.012328	40.3536	-1.055405	-1.262013E+14	9.768276E-17	NaN
249	1.000000	0.142869	7.36748e+06	-51089.1	955.817	-29753.6	0.000000	0.000000	6.142817	0.037790	NaN	0.000000	0.001644	0.001516	28.0797	0.094758	0.002070	45.7871	-169.027	-163.821	0.003016	0.141520	-1.045613	-1.046962	0.037790	45.7871	-1.046232	-9.500770E+13	-3.977588E-16	NaN
249	1.000000	0.152848	7.36748e+06	-51089.1	955.818	-29753.6	0.000000	0.000000	6.152796	0.041195	NaN	0.000000	0.001612	0.001520	28.0801	0.059470	0.001982	30.0067	152.165	11.4475	0.007482	0.151454	-1.035634	-1.037028	0.041195	30.0067	-1.036663	-7.064777E+13	-5.830986E-16	NaN
249	1.000000	0.162839	7.36748e+06	-51089.1	955.819	-29753.6	0.000000	0.000000	6.162786	0.010345	NaN	0.000000	0.001586	0.001530	28.08	0.051076	0.002040	25.0398	9.256018	-162.801	0.030059	0.161548	-1.025643	-1.026933	0.010345	25.0398	-1.025953	-5.070380E+13	-2.040379E-16	NaN
249	1.000000	0.172859	7.36748e+06	-51089.1	955.817	-29753.6	0.000000	0.000000	6.172804	-0.044353	NaN	0.000000	0.001609	0.001579	28.0801	0.118122	0.002019	58.4968	-129.403	13.5921	-0.001101	0.171535	-1.015623	-1.016946	-0.044353	58.4968	-1.015054	-3.617418E+13	1.226095E-15	NaN
249	1.000000	0.182823	7.36748e+06	-51089.1	955.817	-29753.7	0.000000	0.000000	6.182768	-0.055070	NaN	0.000000	0.001614	0.001545	28.0802	0.031032	0.002064	15.0376	-94.5134	-166.888	-0.022738	0.181557	-1.005658	-1.006924	-0.055070	15.0376	-1.002912	-2.482949E+13	2.217917E-15	NaN
249	1.000000	0.192864	7.36748e+06	-51089.1	955.818	-29753.7	0.000000	0.000000	6.192812	0.033955	NaN	0.000000	0.001626	0.001587	28.0803	0.135812	0.002049	66.2975	-3.563806	13.3733	0.043129	0.191515	-0.995618	-0.996966	0.033955	66.2975	-0.996002	-2.004198E+13	-1.694186E-15	NaN
249	1.000000	0.202850	7.36748e+06	-51089.1	955.818	-29753.7	0.000000	0.000000	6.202797	-0.000367	NaN	0.000000	0.001597	0.001558	28.0804	0.123000	0.002050	60.0004	-157.136	-163.783	0.034346	0.201500	-0.985631	-0.986982	-0.000367	60.0004	-0.985627	-1.452806E+13	2.523034E-17	NaN
249	1.000000	0.212880	7.36748e+06	-51089.1	955.818	-29753.7	0.000000	0.000000	6.212826	-0.019070	NaN	0.000000	0.001568	0.001553	28.08	0.064622	0.002014	32.0904	-127.625	13.0756	-0.098886	0.211516	-0.975602	-0.976965	-0.019070	32.0904	-0.975156	-1.049896E+13	1.816325E-15	NaN
249	1.000000	0.222853	7.36748e+06	-51089.1	955.817	-29753.7	0.000000	0.000000	6.222801	0.028839	NaN	0.000000	0.001606	0.001573	28.079	0.040264	0.002093	19.2332	37.508	-165.372	0.033263	0.221576	-0.965629	-0.966906	0.028839	19.2332	-0.966753	-8.089140E+12	-3.565186E-15	NaN
249	1.000000	0.232893	7.36748e+06	-51089.1	955.819	-29753.7	0.000000	0.000000	6.232839	-0.026477	NaN	0.000000	0.001586	0.001575	28.0791	0.105582	0.001994	52.9621	-73.9474	13.021	-0.018845	0.231540	-0.955589	-0.956942	-0.026477	52.9621	-0.955214	-5.653745E+12	4.683157E-15	NaN
249	1.000000	0.242874	7.36748e+06	-51089.1	955.817	-29753.7	0.000000	0.000000	6.242822	0.021620	NaN	0.000000	0.001630	0.001581	28.0787	0.105624	0.001885	56.0249	-122.125	-164.632	0.081209	0.241547	-0.945607	-0.946934	0.021620	56.0249	-0.945897	-4.233372E+12	-5.107031E-15	NaN
249	1.000000	0.252865	7.36748e+06	-51089.1	955.817	-29753.7	0.000000	0.000000	6.252810	-0.034754	NaN	0.000000	0.001669	0.001624	28.0789	0.066168	0.002071	31.9547	-43.5893	12.1951	-0.032663	0.251547	-0.935617	-0.936934	-0.034754	31.9547	-0.934801	-2.999103E+12	1.158801E-14	NaN
249	1.000000	0.262881	7.36748e+06	-51089.1	955.818	-29753.7	0.000000	0.000000	6.262828	0.015236	NaN	0.000000	0.001694	0.001617	28.0789	0.051426	0.002074	24.7979	145.705	-165.099	-0.067277	0.261604	-0.925601	-0.926877	0.015236	24.7979	-0.926062	-2.285816E+12	-6.665341E-15	NaN
249	1.000000	0.272881	7.36749e+06	-51089.1	955.819	-29753.7	0.000000	0.000000	6.272826	-0.040926	NaN	0.000000	0.001695	0.001619	28.0788	0.063830	0.001998	31.9429	-174.716	13.794	-0.025193	0.271535	-0.915601	-0.916946	-0.040926	31.9429	-0.914640	-1.602613E+12	2.553718E-14	NaN
249	1.000000	0.282896	7.36749e+06	-51089.1	955.819	-29753.7	0.000000	0.000000	6.282839	-0.098890	NaN	0.000000	0.001685	0.001651	28.0789	0.027996	0.001906	14.6857	147.135	-168.411	-0.048983	0.281578	-0.905585	-0.906903	-0.098890	14.6857	-0.900535	-1.033461E+12	9.568826E-14	NaN
249	1.000000	0.292905	7.36749e+06	-51089.1	955.819	-29753.7	0.000000	0.000000	6.292848	-0.077141	NaN	0.000000	0.001686	0.001651	28.0794	0.063731	0.002035	31.3204	-20.0747	15.7285	-0.058308	0.291542	-0.895577	-0.896939	-0.077141	31.3204	-0.893730	-8.362383E+11	9.224709E-14	NaN
249	1.000000	0.302918	7.36749e+06	-51089.1	955.818	-29753.7	0.000000	0.000000	6.302863	-0.031764	NaN	0.000000	0.001685	0.001589	28.0791	0.101612	0.001990	51.0559	52.9898	-167.907	-0.025463	0.301561	-0.885564	-0.886921	-0.031764	51.0559	-0.885097	-6.391974E+11	4.969400E-14	NaN
249	1.000000	0.312924	7.36749e+06	-51089.1	955.818	-29753.7	0.000000	0.000000	6.312871	0.002478	NaN	0.000000	0.001669	0.001627	28.079	0.082019	0.002032	40.3594	-108.407	13.0213	-0.018986	0.311517	-0.875558	-0.876965	0.002478	40.3594	-0.875604	-4.756063E+11	-5.209763E-15	NaN
249	1.000000	0.322936	7.36749e+06	-51089.1	955.819	-29753.7	0.000000	0.000000	6.322883	-0.002569	NaN	0.000000	0.001676	0.001633	28.0789	0.009288	0.002046	4.539837	161.107	-166.486	-0.046376	0.321574	-0.865546	-0.866908	-0.002569	4.539837	-0.865121	-3.431084E+11	7.486148E-15	NaN
249	1.000000	0.332925	7.36749e+06	-51089.1	955.819	-29753.7	0.000000	0.000000	6.332870	-0.026696	NaN	0.000000	0.001651	0.001620	28.0789	0.052308	0.002108	24.8195	-66.1309	15.3345	-0.041379	0.331569	-0.855557	-0.856913	-0.026696	24.8195	-0.854750	-2.483448E+11	1.074958E-13	NaN
249	1.000000	0.342917	7.36749e+06	-51089.1	955.818	-29753.7	0.000000	0.000000	6.342862	-0.049124	NaN	0.000000	0.001672	0.001611	28.0789	0.120899	0.001955	61.8551	24.7589	-166.815	-0.083423	0.341623	-0.845564	-0.846859	-0.049124	61.8551	-0.844969	-1.830620E+11	2.683463E-13	NaN
249	1.000000	0.352941	7.36749e+06	-51089.1	955.818	-29753.7	0.000000	0.000000	6.352888	0.005543	NaN	0.000000	0.001666	0.001575	28.0789	0.091545	0.001892	48.3947	-18.6427	12.2888	-0.047446	0.351604	-0.835541	-0.836877	0.005543	48.3947	-0.835627	-1.367846E+11	-4.052403E-14	NaN
249	1.000000	0.362961	7.36749e+06	-51089.1	955.818	-29753.7	0.000000	0.000000	6.362907	-0.020808	NaN	0.000000	0.001706	0.001605	28.08	0.030474	0.001922	15.8591	-28.4653	-167.765	-0.000964	0.361611	-0.825520	-0.826871	-0.020808	15.8591	-0.824536	-9.676573E+10	2.150314E-13	NaN
249	1.000000	0.372939	7.36749e+06	-51089.1	955.817	-29753.7	0.000000	0.000000	6.372886	0.007549	NaN	0.000000	0.001649	0.001637	28.0803	0.099913	0.002045	48.846	-133.272	18.7383	-0.024210	0.371590	-0.815543	-0.816891	0.007549	48.846	-0.815658	-7.333833E+10	-1.029354E-13	NaN
249	1.000000	0.382943	7.36749e+06	-51089.1	955.818	-29753.7	0.000000	0.000000	6.382887	-0.066829	NaN	0.000000	0.001665	0.001622	28.0802	0.034427	0.001978	17.4057	-87.9154	-168.822	0.011959	0.381634	-0.805539	-0.806847	-0.066829	17.4057	-0.802659	-4.886036E+10	1.367752E-12	NaN
249	1.000000	0.392946	7.36749e+06	-51089.1	955.817	-29753.7	0.000000	0.000000	6.392889	-0.075754	NaN	0.000000	0.001671	0.001598	28.0801	0.077842	0.002088	37.284	-1.481190	13.4635	-0.098352	0.391541	-0.795536	-0.796941	-0.075754	37.284	-0.794012	-3.728789E+10	2.031605E-12	NaN
249	1.000000	0.402950	7.36749e+06	-51089.1	955.818	-29753.7	0.000000	0.000000	6.402897	0.001808	NaN	0.000000	0.001700	0.001632	28.0801	0.077791	0.002021	38.4959	-165.652	-166.453	-0.046044	0.401609	-0.785532	-0.786873	0.001808	38.4959	-0.785567	-2.863303E+10	-6.314168E-14	NaN
249	1.000000	0.412977	7.36749e+06	-51089.1	955.818	-29753.7	0.000000	0.000000	6.412924	0.021017	NaN	0.000000	0.001722	0.001630	28.0805	0.063591	0.001993	31.9106	-91.9136	14.4792	0.038603	0.411628	-0.775505	-0.776854	0.021017	31.9106	-0.775999	-2.122534E+10	-9.901812E-13	NaN
249	1.000000	0.422967	7.36749e+06	-51089.1	955.818	-29753.7	0.000000	0.000000	6.422913	-0.026223	NaN	0.000000	0.001703	0.001610	28.08	0.021764	0.001940	11.2211	137.323	-165.089	0.024338	0.421622	-0.765514	-0.766860	-0.026223	11.2211	-0.763762	-1.447009E+10	1.812253E-12	NaN
249	1.000000	0.432975	7.36749e+06	-51089.1	955.818	-29753.7	0.000000	0.000000	6.432921	0.000255	NaN	0.000000	0.001672	0.001598	28.0805	0.094372	0.001934	48.7882	-152.59	14.2138	0.020836	0.431587	-0.755507	-0.756894	0.000255	48.7882	-0.755511	-1.117442E+10	-2.280158E-14	NaN
249	1.000000	0.442970	7.36749e+06	-51089.1	955.818	-29753.7	0.000000	0.000000	6.442917	0.004573	NaN	0.000000	0.001682	0.001616	28.0803	0.006692	0.001856	3.605042	43.201	-166.633	-0.021546	0.441655	-0.745511	-0.746827	0.004573	3.605042	-0.746463	-8.415220E+9	-5.434709E-13	NaN
249	1.000000	0.452991	7.36749e+06	-51089.1	955.82	-29753.7	0.000000	0.000000	6.452939	0.030635	NaN	0.000000	0.001666	0.001583	28.0806	0.137356	0.002048	67.0557	-138.84	12.8636	0.030600	0.451597	-0.735491	-0.736884	0.030635	67.0557	-0.735833	-6.029680E+9	-5.080733E-12	NaN
249	1.000000	0.462985	7.36749e+06	-51089.1	955.818	-29753.7	0.000000	0.000000	6.462931	-0.008141	NaN	0.000000	0.001677	0.001585	28.0803	0.062827	0.002020	31.1075	4.571182	-165.52	0.038556	0.461703	-0.725497	-0.726779	-0.008141	31.1075	-0.725301	-4.332606E+9	1.878943E-12	NaN
249	1.000000	0.472983	7.36749e+06	-51089.1	955.818	-29753.7	0.000000	0.000000	6.472931	0.023497	NaN	0.000000	0.001669	0.001598	28.0806	0.117207	0.001964	59.6769	-29.7423	11.7986	-0.011228	0.471622	-0.715498	-0.716860	0.023497	59.6769	-0.715794	-3.214407E+9	-7.309908E-12	NaN
249	1.000000	0.482989	7.36749e+06	-51089.1	955.818	-29753.7	0.000000	0.000000	6.482933	-0.044850	NaN	0.000000	0.001713	0.001612	28.0805	0.053235	0.001994	26.701	159.789	-165.173	-0.033659	0.481718	-0.705493	-0.706763	-0.044850	26.701	-0.704233	-2.235297E+9	2.006439E-11	NaN
249	1.000000	0.492973	7.36749e+06	-51089.1	955.818	-29753.7	0.000000	0.000000	6.492921	0.027584	NaN	0.000000	0.001671	0.001613	28.0796	0.160804	0.002166	74.2408	67.5774	16.9447	-0.064169	0.491645	-0.695509	-0.696836	0.027584	74.2408	-0.695788	-1.713942E+9	-1.609399E-11	NaN
249	1.000000	0.502974	7.36749e+06	-51089.1	955.819	-29753.7	0.000000	0.000000	6.502920	-0.014358	NaN	0.000000	0.001629	0.001620	28.0792	0.148699	0.001953	76.1241	161.68	-167.046	-0.061732	0.501693	-0.685508	-0.686788	-0.014358	76.1241	-0.685366	-1.234758E+9	1.162811E-11	NaN
249	1.000000	0.513021	7.36749e+06	-51089.1	955.818	-29753.7	0.000000	0.000000	6.512966	-0.032655	NaN	0.000000	0.001668	0.001599	28.0794	0.130220	0.001999	65.1438	51.4013	10.2361	-0.058361	0.511657	-0.675461	-0.676825	-0.032655	65.1438	-0.675085	-8.932509E+8	3.655741E-11	NaN
249	1.000000	0.523008	7.36749e+06	-51089.1	955.818	-29753.7	0.000000	0.000000	6.522951	-0.092635	NaN	0.000000	0.001616	0.001565	28.0794	0.069948	0.002042	34.2558	112.877	-164.382	-0.101075	0.521702	-0.665473	-0.666779	-0.092635	34.2558	-0.663445	-6.189469E+8	1.496652E-10	NaN
249	1.000000	0.533006	7.36749e+06	-51089.1	955.818	-29753.7	0.000000	0.000000	6.532954	0.024284	NaN	0.000000	0.001632	0.001606	28.0792	0.111661	0.002082	53.6354	147.844	15.1697	-0.077479	0.531673	-0.655475	-0.656808	0.024284	53.6354	-0.655815	-4.865577E+8	-4.990976E-11	NaN
249	1.000000	0.542997	7.36749e+06	-51089.1	955.818	-29753.7	0.000000	0.000000	6.542943	-0.013973	NaN	0.000000	0.001603	0.001630	28.0791	0.159292	0.002072	76.8842	87.8536	-165.93	-0.016593	0.541741	-0.645485	-0.646741	-0.013973	76.8842	-0.645348	-3.496672E+8	3.996017E-11	NaN
249	1.000000	0.553039	7.36749e+06	-51089.1	955.818	-29753.7	0.000000	0.000000	6.552986	0.009267	NaN	0.000000	0.001630	0.001631	28.0791	0.059165	0.001964	30.1187	126.482	12.2914	0.006800	0.551616	-0.635443	-0.636866	0.009267	30.1187	-0.635674	-2.575855E+8	-3.597791E-11	NaN
249	1.000000	0.563001	7.36749e+06	-51089.1	955.818	-29753.7	0.000000	0.000000	6.562947	-0.025240	NaN	0.000000	0.001605	0.001635	28.0793	0.051713	0.001889	27.3775	175.12	-167.717	-0.072291	0.561741	-0.625481	-0.626741	-0.025240	27.3775	-0.624789	-1.825770E+8	1.382440E-10	NaN
249	1.000000	0.573052	7.36749e+06	-51089.1	955.819	-29753.7	0.000000	0.000000	6.572998	-0.006016	NaN	0.000000	0.001624	0.001606	28.079	0.052842	0.002174	24.3077	70.711	14.3724	-0.053917	0.571649	-0.615430	-0.616833	-0.006016	24.3077	-0.615244	-1.349733E+8	4.457016E-11	NaN
249	1.000000	0.583032	7.36749e+06	-51089.1	955.818	-29753.7	0.000000	0.000000	6.582979	-0.004104	NaN	0.000000	0.001604	0.001603	28.079	0.073856	0.002088	35.3752	-104.659	-163.854	-0.041892	0.581713	-0.605450	-0.606769	-0.004104	35.3752	-0.605363	-9.869502E+7	4.158469E-11	NaN
249	1.000000	0.592979	7.36749e+06	-51089.1	955.818	-29753.7	0.000000	0.000000	6.592921	-0.106531	NaN	0.000000	0.001596	0.001616	28.0793	0.061399	0.001935	31.7291	-10.6779	16.8415	-0.116552	0.591667	-0.595503	-0.596815	-0.106531	31.7291	-0.592985	-6.665138E+7	1.598331E-9	NaN
249	1.000000	0.603022	7.36749e+06	-51089.1	955.818	-29753.7	0.000000	0.000000	6.602967	-0.041876	NaN	0.000000	0.001588	0.001612	28.079	0.093064	0.002003	46.4519	53.5594	-165.001	0.060238	0.601738	-0.585459	-0.586744	-0.041876	46.4519	-0.584783	-5.137199E+7	8.151576E-10	NaN
249	1.000000	0.613034	7.36749e+06	-51089.1	955.817	-29753.7	0.000000	0.000000	6.612979	-0.045220	NaN	0.000000	0.001587	0.001585	28.0791	0.096997	0.002023	47.9567	145.216	18.8091	-0.065458	0.611675	-0.575447	-0.576806	-0.045220	47.9567	-0.574740	-3.733464E+7	1.211205E-9	NaN
249	1.000000	0.623042	7.36749e+06	-51089.1	955.818	-29753.7	0.000000	0.000000	6.622987	-0.041610	NaN	0.000000	0.001623	0.001577	28.079	0.135657	0.001894	71.6233	-57.4061	-164.808	-0.082565	0.621767	-0.565440	-0.566715	-0.041610	71.6233	-0.565004	-2.738917E+7	1.519205E-9	NaN
249	1.000000	0.633074	7.36749e+06	-51089.1	955.818	-29753.7	0.000000	0.000000	6.633022	0.022440	NaN	0.000000	0.001586	0.001581	28.0805	0.034268	0.002075	16.5138	42.793	14.2742	0.034158	0.631656	-0.555407	-0.556826	0.022440	16.5138	-0.556427	-2.084170E+7	-1.076689E-9	NaN
249	1.000000	0.643072	7.36749e+06	-51089.1	955.818	-29753.7	0.000000	0.000000	6.643017	-0.041944	NaN	0.000000	0.001618	0.001582	28.0802	0.074570	0.001926	38.7115	177.116	-166.222	-0.033621	0.641717	-0.545410	-0.546765	-0.041944	38.7115	-0.544597	-1.429222E+7	2.934724E-9	NaN
249	1.000000	0.653074	7.36749e+06	-51089.1	955.819	-29753.7	0.000000	0.000000	6.653020	-0.010109	NaN	0.000000	0.001587	0.001525	28.0801	0.131087	0.002060	63.6486	169.287	15.5778	-0.102208	0.651741	-0.535408	-0.536740	-0.010109	63.6486	-0.535289	-1.061686E+7	9.521283E-10	NaN
249	1.000000	0.663083	7.36749e+06	-51089.1	955.818	-29753.7	0.000000	0.000000	6.663030	-0.002929	NaN	0.000000	0.001597	0.001563	28.0801	0.027479	0.001874	14.6633	-19.111	-167.049	0.049171	0.661776	-0.525398	-0.526706	-0.002929	14.6633	-0.525249	-7.70133e+06	3.803661E-10	NaN
249	1.000000	0.673037	7.36749e+06	-51089.1	955.818	-29753.7	0.000000	0.000000	6.672986	0.044501	NaN	0.000000	0.001593	0.001568	28.0802	0.062503	0.001972	31.6976	72.6913	18.4926	-0.029378	0.671726	-0.515444	-0.516756	0.044501	31.6976	-0.516497	-5.81927e+06	-7.647259E-9	NaN
249	1.000000	0.683077	7.36749e+06	-51089.1	955.818	-29753.7	0.000000	0.000000	6.683024	0.021998	NaN	0.000000	0.001573	0.001575	28.0801	0.092264	0.002024	45.5871	-77.1464	-163.458	-0.042993	0.681758	-0.505405	-0.506724	0.021998	45.5871	-0.505767	-4.12507e+06	-5.332678E-9	NaN
249	1.000000	0.693040	7.36749e+06	-51089.1	955.819	-29753.7	0.000000	0.000000	6.692985	-0.054169	NaN	0.000000	0.001599	0.001583	28.0799	0.141939	0.002077	68.3462	44.0808	16.2674	-0.079918	0.691759	-0.495441	-0.496722	-0.054169	68.3462	-0.494847	-2.90466e+06	1.864893E-8	NaN
249	1.000000	0.703111	7.36749e+06	-51089.1	955.819	-29753.7	0.000000	0.000000	6.703059	0.034556	NaN	0.000000	0.001567	0.001570	28.0802	0.114798	0.001963	58.4775	175.655	-164.358	0.025019	0.701715	-0.485371	-0.486767	0.034556	58.4775	-0.485814	-2.17209e+06	-1.590924E-8	NaN
249	1.000000	0.713054	7.36749e+06	-51089.1	955.818	-29753.7	0.000000	0.000000	6.713001	0.016930	NaN	0.000000	0.001566	0.001603	28.08	0.032583	0.001995	16.3352	-153.943	11.6183	-0.062313	0.711642	-0.475428	-0.476840	0.016930	16.3352	-0.476205	-1.59362e+06	-1.062350E-8	NaN
249	1.000000	0.723068	7.36749e+06	-51089.1	955.819	-29753.7	0.000000	0.000000	6.723010	-0.121012	NaN	0.000000	0.001576	0.001594	28.08	0.029199	0.002075	14.0747	162.78	-162.965	-0.108142	0.721825	-0.465414	-0.466657	-0.121012	14.0747	-0.458965	-913015	1.325407E-7	NaN
249	1.000000	0.733079	7.36749e+06	-51089.1	955.818	-29753.7	0.000000	0.000000	6.733027	0.043629	NaN	0.000000	0.001563	0.001622	28.0799	0.124917	0.002015	61.987	133.487	11.3939	-0.010198	0.731719	-0.455403	-0.456762	0.043629	61.987	-0.455931	-827579	-5.271928E-8	NaN
249	1.000000	0.743096	7.36749e+06	-51089.1	955.818	-29753.7	0.000000	0.000000	6.743041	-0.043185	NaN	0.000000	0.001575	0.001642	28.0801	0.097093	0.002156	45.0255	9.837241	-164.937	-0.044912	0.741790	-0.445386	-0.446691	-0.043185	45.0255	-0.444667	-574370	7.518702E-8	NaN
249	1.000000	0.753091	7.36749e+06	-51089.1	955.819	-29753.7	0.000000	0.000000	6.753035	-0.044753	NaN	0.000000	0.001559	0.001650	28.0799	0.072676	0.001973	36.8345	-137.37	13.3409	-0.126479	0.751727	-0.435391	-0.436754	-0.044753	36.8345	-0.434480	-412481	1.084966E-7	NaN
249	1.000000	0.763104	7.36749e+06	-51089.1	955.818	-29753.7	0.000000	0.000000	6.763050	-0.023618	NaN	0.000000	0.001590	0.001636	28.0801	0.110934	0.001959	56.6357	-15.1652	-166.848	-0.005132	0.761787	-0.425378	-0.426695	-0.023618	56.6357	-0.425065	-303530	7.781012E-8	NaN
249	1.000000	0.773082	7.36749e+06	-51089.1	955.817	-29753.7	0.000000	0.000000	6.773031	0.062471	NaN	0.000000	0.001577	0.001598	28.0787	0.047474	0.002001	23.7267	-33.5269	16.3459	-0.035179	0.771736	-0.415400	-0.416745	0.062471	23.7267	-0.417375	-236139	-2.645525E-7	NaN
249	1.000000	0.783070	7.36749e+06	-51089.1	955.818	-29753.7	0.000000	0.000000	6.783014	-0.078974	NaN	0.000000	0.001556	0.001582	28.079	0.088224	0.001907	46.2614	144.574	-163.752	-0.104084	0.781752	-0.405411	-0.406730	-0.078974	46.2614	-0.404131	-153064	5.159527E-7	NaN
249	1.000000	0.793132	7.36749e+06	-51089.1	955.818	-29753.7	0.000000	0.000000	6.793080	0.034871	NaN	0.000000	0.001591	0.001585	28.0787	0.128231	0.002013	63.6908	-162.39	19.5559	0.080485	0.791787	-0.395349	-0.396694	0.034871	63.6908	-0.395760	-116276	-2.998999E-7	NaN
249	1.000000	0.803115	7.36749e+06	-51089.1	955.818	-29753.7	0.000000	0.000000	6.803059	-0.051342	NaN	0.000000	0.001626	0.001578	28.0788	0.082651	0.001955	42.2742	-70.7763	-165.387	0.008433	0.801810	-0.385367	-0.386672	-0.051342	42.2742	-0.384456	-80129	6.407376E-7	NaN
249	1.000000	0.813122	7.36749e+06	-51089.1	955.818	-29753.7	0.000000	0.000000	6.813066	-0.052174	NaN	0.000000	0.001597	0.001566	28.0788	0.057307	0.001968	29.1124	-141.685	15.02	-0.032196	0.811763	-0.375360	-0.376719	-0.052174	29.1124	-0.374016	-56743.8	9.194682E-7	NaN
249	1.000000	0.823121	7.36749e+06	-51089.1	955.818	-29753.7	0.000000	0.000000	6.823069	0.047196	NaN	0.000000	0.001577	0.001591	28.0789	0.054633	0.002048	26.6795	63.7078	-162.926	0.018481	0.821867	-0.365361	-0.366615	0.047196	26.6795	-0.366688	-44503.8	-1.060494E-6	NaN
249	1.000000	0.833132	7.36749e+06	-51089.1	955.818	-29753.7	0.000000	0.000000	6.833078	-0.027225	NaN	0.000000	0.001599	0.001592	28.0786	0.047966	0.002103	22.8111	-57.4683	15.4651	-0.074084	0.831775	-0.355349	-0.356706	-0.027225	22.8111	-0.354454	-29620.5	9.191222E-7	NaN
249	1.000000	0.843176	7.36749e+06	-51089.1	955.819	-29753.7	0.000000	0.000000	6.843120	-0.066949	NaN	0.000000	0.001609	0.001588	28.0786	0.050086	0.001945	25.7509	-61.4852	-165.12	-0.043638	0.841807	-0.345306	-0.346675	-0.066949	25.7509	-0.343356	-20437.8	3.275737E-6	NaN
249	1.000000	0.853133	7.36749e+06	-51089.1	955.818	-29753.7	0.000000	0.000000	6.853078	-0.042459	NaN	0.000000	0.001601	0.001594	28.0787	0.143380	0.002008	71.3892	166.773	13.3147	-0.021920	0.851792	-0.335349	-0.336690	-0.042459	71.3892	-0.334903	-15387.4	2.759341E-6	NaN
249	1.000000	0.863155	7.36749e+06	-51089.1	955.818	-29753.7	0.000000	0.000000	6.863099	-0.065530	NaN	0.000000	0.001600	0.001588	28.0787	0.129258	0.001936	66.7538	68.7243	-164.01	-0.112106	0.861885	-0.325326	-0.326597	-0.065530	66.7538	-0.324590	-10867.2	6.030120E-6	NaN
249	1.000000	0.873145	7.36749e+06	-51089.1	955.819	-29753.7	0.000000	0.000000	6.873092	-0.013609	NaN	0.000000	0.001612	0.001609	28.0787	0.044964	0.002074	21.6782	48.8299	15.1013	-0.023467	0.871751	-0.315336	-0.316731	-0.013609	21.6782	-0.314865	-7815.56	1.741264E-6	NaN
249	1.000000	0.883155	7.36749e+06	-51089.1	955.819	-29753.7	0.000000	0.000000	6.883098	-0.104722	NaN	0.000000	0.001595	0.001613	28.0787	0.127694	0.001957	65.235	-169.934	-168.309	-0.127303	0.881852	-0.305326	-0.306630	-0.104722	65.235	-0.304122	-5419.07	1.932464E-5	NaN
249	1.000000	0.893154	7.36749e+06	-51089.1	955.818	-29753.7	0.000000	0.000000	6.893099	-0.046873	NaN	0.000000	0.001543	0.001636	28.079	0.053045	0.001915	27.7042	-25.2601	15.0038	0.000227	0.891837	-0.295327	-0.296645	-0.046873	27.7042	-0.294058	-3837.26	1.221532E-5	NaN
249	1.000000	0.903173	7.36749e+06	-51089.1	955.818	-29753.7	0.000000	0.000000	6.903118	-0.040099	NaN	0.000000	0.001583	0.001633	28.0799	0.045406	0.001983	22.8999	158.083	-166.363	-0.049790	0.901907	-0.285309	-0.286575	-0.040099	22.8999	-0.283996	-2711.21	1.479020E-5	NaN
249	1.000000	0.913147	7.36749e+06	-51089.1	955.819	-29753.7	0.000000	0.000000	6.913093	-0.020564	NaN	0.000000	0.001571	0.001612	28.0801	0.113063	0.001986	56.9271	-164.998	15.9271	-0.078540	0.911778	-0.275334	-0.276704	-0.020564	56.9271	-0.275063	-1987.75	1.034542E-5	NaN
249	1.000000	0.923154	7.36749e+06	-51089.1	955.818	-29753.7	0.000000	0.000000	6.923100	-0.007113	NaN	0.000000	0.001566	0.001605	28.0802	0.029896	0.002023	14.7747	-42.995	-161.945	-0.000886	0.921848	-0.265328	-0.266634	-0.007113	14.7747	-0.264967	-1395.99	5.095306E-6	NaN
249	1.000000	0.933170	7.36749e+06	-51089.1	955.818	-29753.7	0.000000	0.000000	6.933113	-0.083920	NaN	0.000000	0.001553	0.001664	28.0803	0.031586	0.001962	16.0956	0.634024	12.4821	-0.103017	0.931797	-0.255312	-0.256684	-0.083920	16.0956	-0.251402	-864.231	9.710387E-5	NaN
249	1.000000	0.943192	7.36749e+06	-51089.1	955.817	-29753.7	0.000000	0.000000	6.943138	-0.007720	NaN	0.000000	0.001591	0.001608	28.0801	0.006115	0.001995	3.065498	-134.616	-164.543	0.023731	0.941857	-0.245290	-0.246625	-0.007720	3.065498	-0.243401	-649.507	1.188601E-5	NaN
249	1.000000	0.953192	7.36749e+06	-51089.1	955.818	-29753.7	0.000000	0.000000	6.953140	0.045229	NaN	0.000000	0.001592	0.001626	28.0803	0.104632	0.002025	51.6754	-108.53	13.637	0.049557	0.951761	-0.235290	-0.236721	0.045229	51.6754	-0.235946	-496.707	-9.105796E-5	NaN
249	1.000000	0.963177	7.36749e+06	-51089.1	955.819	-29753.7	0.000000	0.000000	6.963122	-0.030920	NaN	0.000000	0.001594	0.001625	28.0803	0.056134	0.002043	27.4808	138.805	-167.587	0.014199	0.961940	-0.225305	-0.226542	-0.030920	27.4808	-0.224461	-327.167	9.450895E-5	NaN
249	1.000000	0.973180	7.36749e+06	-51089.1	955.819	-29753.7	0.000000	0.000000	6.973124	-0.049913	NaN	0.000000	0.001572	0.001603	28.0803	0.086252	0.001979	43.5805	60.8806	16.7429	-0.006856	0.971849	-0.215302	-0.216633	-0.049913	43.5805	-0.214443	-226.231	0.000221	NaN
249	1.000000	0.983182	7.36749e+06	-51089.1	955.819	-29753.7	0.000000	0.000000	6.983128	-0.018343	NaN	0.000000	0.001576	0.001599	28.08	0.092134	0.002017	45.6724	137.008	-164.123	0.006762	0.981847	-0.205299	-0.206634	-0.018343	45.6724	-0.204998	-159.047	0.000115	NaN
249	1.000000	0.993204	7.36749e+06	-51089.1	955.818	-29753.7	0.000000	0.000000	6.993149	-0.037663	NaN	0.000000	0.001611	0.001595	28.0803	0.037860	0.001973	19.1861	126.222	14.3907	-0.034568	0.991818	-0.195278	-0.196664	-0.037663	19.1861	-0.193805	-104.086	0.000362	NaN
249	1.000000	1.003220	7.36749e+06	-51089.1	955.82	-29753.7	0.000000	0.000000	7.003165	-0.029821	NaN	0.000000	0.001557	0.001587	28.0803	0.098210	0.002039	48.1704	-67.3378	-165.646	-0.025128	1.001862	-0.185262	-0.186620	-0.029821	48.1704	-0.184797	-73.5728	0.000405	NaN
249	1.000000	1.013170	7.36749e+06	-51089.1	955.819	-29753.7	0.000000	0.000000	7.013116	-0.014866	NaN	0.000000	0.001595	0.001642	28.0801	0.017760	0.002129	8.342461	-51.3612	13.0252	-0.005282	1.011832	-0.175311	-0.176650	-0.014866	8.342461	-0.173975	-48.1221	0.000309	NaN
249	1.000000	1.023188	7.36749e+06	-51089.1	955.819	-29753.7	0.000000	0.000000	7.023132	-0.071775	NaN	0.000000	0.001588	0.001596	28.0801	0.060777	0.002073	29.3185	134.27	-164.917	0.001377	1.021918	-0.165294	-0.166564	-0.071775	29.3185	-0.163458	-31.5627	0.002274	NaN
249	1.000000	1.033214	7.36749e+06	-51089.1	955.82	-29753.7	0.000000	0.000000	7.033157	-0.086396	NaN	0.000000	0.001652	0.001606	28.0802	0.092403	0.002055	44.9565	-15.9863	15.819	-0.100172	1.031820	-0.155268	-0.156662	-0.086396	44.9565	-0.153826	-21.2535	0.004065	NaN
249	1.000000	1.043203	7.36749e+06	-51089.1	955.82	-29753.7	0.000000	0.000000	7.043150	0.007831	NaN	0.000000	0.001677	0.001561	28.0787	0.035835	0.001975	18.1448	157.719	-166.341	0.069535	1.041908	-0.145279	-0.146574	0.007831	18.1448	-0.145603	-15.0421	-0.000521	NaN
249	1.000000	1.053206	7.36749e+06	-51089.1	955.82	-29753.7	0.000000	0.000000	7.053150	-0.055957	NaN	0.000000	0.001674	0.001569	28.0787	0.038698	0.001987	19.48	-29.4165	17.4648	-0.027512	1.051874	-0.135276	-0.136608	-0.055957	19.48	-0.133122	-8.756172	0.006391	NaN
249	1.000000	1.063233	7.36749e+06	-51089.1	955.82	-29753.7	0.000000	0.000000	7.063176	-0.072115	NaN	0.000000	0.001668	0.001586	28.0787	0.030860	0.001928	16.0061	120.635	-163.144	-0.002584	1.061928	-0.125249	-0.126554	-0.072115	16.0061	-0.121870	-5.268414	0.013688	NaN
249	1.000000	1.073252	7.36749e+06	-51089.1	955.82	-29753.7	0.000000	0.000000	7.073197	-0.032710	NaN	0.000000	0.001690	0.001574	28.0788	0.108999	0.002011	54.1927	-119.543	14.8445	0.043271	1.071766	-0.115230	-0.116716	-0.032710	54.1927	-0.114777	-3.780181	0.008653	NaN
249	1.000000	1.083216	7.36749e+06	-51089.1	955.819	-29753.7	0.000000	0.000000	7.083166	0.075133	NaN	0.000000	0.001699	0.001590	28.0789	0.099689	0.001993	50.0214	60.8509	-163.97	0.061587	1.081892	-0.105266	-0.106590	0.075133	50.0214	-0.106392	-2.518519	-0.029832	NaN
249	1.000000	1.093219	7.36749e+06	-51089.1	955.821	-29753.7	0.000000	0.000000	7.093171	0.116914	NaN	0.000000	0.001684	0.001584	28.079	0.078192	0.002050	38.1345	-10.2891	9.921041	0.191342	1.091903	-0.095263	-0.096579	0.116914	38.1345	-0.097562	-1.612025	-0.072526	NaN
249	1.000000	1.103249	7.36749e+06	-51089.1	955.82	-29753.7	0.000000	0.000000	7.103203	0.189034	NaN	0.000000	0.001654	0.001573	28.0791	0.102521	0.002061	49.7485	29.2964	-167.812	0.089706	1.101938	-0.085233	-0.086544	0.189034	49.7485	-0.088083	-0.974032	-0.194073	NaN
249	1.000000	1.113234	7.36749e+06	-51089.1	955.82	-29753.7	0.000000	0.000000	7.113194	0.323647	NaN	0.000000	0.001603	0.001552	28.079	0.156170	0.001920	81.3533	33.8785	12.2905	0.286098	1.111902	-0.075247	-0.076580	0.323647	81.3533	-0.078231	-0.558710	-0.579274	NaN
249	1.000000	1.123254	7.36749e+06	-51089.1	955.821	-29753.7	0.000000	0.000000	7.123217	0.390812	NaN	0.000000	0.001603	0.001581	28.0786	0.291505	0.002034	143.322	17.6978	-168.298	0.456517	1.121936	-0.065227	-0.066546	0.390812	143.322	-0.067272	-0.287817	-1.357849	NaN
249	1.000000	1.133246	7.36749e+06	-51089.1	955.82	-29753.7	0.000000	0.000000	7.133213	0.508788	NaN	0.000000	0.001631	0.001570	28.0786	0.212008	0.002020	104.955	-4.030646	15.8347	0.513321	1.131898	-0.055236	-0.056584	0.508788	104.955	-0.058872	-0.167116	-3.044529	NaN
249	1.000000	1.143250	7.36749e+06	-51089.1	955.82	-29753.7	0.000000	0.000000	7.143218	0.514641	NaN	0.000000	0.001614	0.001572	28.0788	0.224910	0.002071	108.587	33.9564	-164.076	0.497003	1.141878	-0.045231	-0.046603	0.514641	108.587	-0.048786	-0.083839	-6.138449	NaN
249	1.000000	1.153277	7.36749e+06	-51089.1	955.82	-29753.7	0.000000	0.000000	7.153235	0.296974	NaN	0.000000	0.001623	0.001627	28.079	0.327074	0.001935	169.06	21.9974	13.4404	0.283381	1.151837	-0.035205	-0.036645	0.296974	169.06	-0.036523	-0.035531	-8.358224	NaN
249	1.000000	1.163241	7.36749e+06	-51089.1	955.821	-29753.7	0.000000	0.000000	7.163247	1.452345	NaN	0.000000	0.001634	0.001582	28.0788	1.330113	0.001890	703.824	13.9954	-166.163	0.974857	1.161982	-0.025241	-0.026499	1.452345	703.824	-0.026789	-0.018809	-77.2175	NaN
249	1.000000	1.173269	7.36749e+06	-51089.1	955.82	-29753.7	0.000000	0.000000	7.173241	0.632618	NaN	0.000000	0.001627	0.001594	28.079	0.684542	0.002047	334.467	27.2119	14.2994	0.628703	1.171902	-0.015213	-0.016580	0.632618	334.467	-0.016632	-0.010277	-61.5584	NaN
249	1.000000	1.183286	7.36749e+06	-51089.1	955.82	-29753.7	0.000000	0.000000	7.183275	1.045727	NaN	0.000000	0.001606	0.001644	28.0802	1.346468	0.002137	630.169	31.4132	-168.715	1.137936	1.181906	-0.005196	-0.006576	1.045727	630.169	-0.006441	-0.004304	-242.95	NaN
249	1.000000	1.193284	7.36749e+06	-51089.1	955.821	-29753.7	0.000000	0.000000	7.193300	1.705064	NaN	0.000000	0.001614	0.001616	28.08	2.101297	0.001853	1133.8	28.6773	9.760513	1.773818	1.191930	0.004802	0.003449	1.705064	1133.8	0.003674	0.002955	576.986	19055.5
249	1.000000	1.203273	7.36749e+06	-51089.1	955.821	-29753.7	0.000000	0.000000	7.203444	5.474693	NaN	0.000000	0.001604	0.001611	28.0801	6.443382	0.001820	3540.43	15.1726	-165.494	4.489699	1.201963	0.014791	0.013482	5.474693	3540.43	0.013631	0.013503	405.44	27836.4
249	2.000000	1.208319	7.36749e+06	-51089.1	955.821	-29753.7	0.000000	0.000000	7.208626	8.755001	NaN	0.000000	0.001550	0.001558	28.0803	10.297	0.001752	5875.74	13.7316	5.009006	8.168492	1.207951	0.019838	0.019470	8.755001	5875.74	0.018720	0.020571	425.6	37429
249	2.000000	1.210725	7.36749e+06	-51089.1	955.821	-29753.7	0.000000	0.000000	7.211187	12.5162	NaN	0.000000	0.001577	0.001611	28.0803	12.9306	0.001720	7518.38	13.5508	-178.601	11.422	1.210380	0.022244	0.021898	12.5162	7518.38	0.020995	0.024130	518.695	44219.9
249	2.000000	1.213225	7.36749e+06	-51089.1	955.821	-29753.7	0.000000	0.000000	7.213808	15.4806	NaN	0.000000	0.001583	0.001619	28.0803	15.1385	0.001770	8552.4	6.762347	8.021120	13.596	1.212803	0.024743	0.024321	15.4806	8552.4	0.023386	0.028144	550.046	46576.6
249	2.000000	1.215716	7.36749e+06	-51089.1	955.821	-29753.7	0.000000	0.000000	7.216489	20.104	NaN	0.000000	0.001574	0.001660	28.0802	18.4016	0.001736	10601	12.5901	-179.695	19.8226	1.215423	0.027234	0.026942	20.104	10601	0.025812	0.032509	618.409	53717.7
249	2.000000	1.218210	7.36749e+06	-51089.1	955.82	-29753.7	0.000000	0.000000	7.219246	26.4881	NaN	0.000000	0.001584	0.001666	28.0804	20.4284	0.001738	11752.2	8.855048	2.646950	25.2316	1.217890	0.029728	0.029408	26.4881	11752.2	0.028037	0.036774	720.289	55991.3
249	2.000000	1.220666	7.36749e+06	-51089.1	955.821	-29753.7	0.000000	0.000000	7.221833	29.6656	NaN	0.000000	0.001583	0.001664	28.0803	23.0404	0.001715	13431.8	7.764289	-178.959	28.5997	1.220367	0.032185	0.031885	29.6656	13431.8	0.030528	0.041846	708.925	59990.3
249	2.000000	1.223129	7.36749e+06	-51089.1	955.82	-29753.7	0.000000	0.000000	7.224568	36.3045	NaN	0.000000	0.001597	0.001649	28.0804	26.2779	0.001811	14508.4	7.402513	1.738130	33.5889	1.222820	0.034647	0.034339	36.3045	14508.4	0.032770	0.046682	777.702	61350.8
249	2.000000	1.225673	7.36749e+06	-51089.1	955.821	-29753.7	0.000000	0.000000	7.227317	41.287	NaN	0.000000	0.001540	0.001677	28.0803	29.3608	0.001743	16846.8	6.291440	-179.353	42.4429	1.225421	0.037191	0.036939	41.287	16846.8	0.035353	0.052571	785.35	67129.7
249	2.000000	1.228205	7.36749e+06	-51089.1	955.821	-29753.7	0.000000	0.000000	7.230206	49.9486	NaN	0.000000	0.001567	0.001673	28.0803	32.0654	0.001784	17971.6	9.434824	-3.242723	48.8741	1.227801	0.039723	0.039320	49.9486	17971.6	0.037639	0.058069	860.16	68137.8
249	2.000000	1.230677	7.36749e+06	-51089.1	955.821	-29753.7	0.000000	0.000000	7.232950	56.5743	NaN	0.000000	0.001537	0.001662	28.0802	33.8716	0.001815	18657.3	7.155703	179.418	55.6565	1.230300	0.042195	0.041819	56.5743	18657.3	0.039921	0.063824	886.412	67473.2
249	2.000000	1.233131	7.36749e+06	-51089.1	955.821	-29753.7	0.000000	0.000000	7.235693	63.5909	NaN	0.000000	0.001575	0.001671	28.0789	36.0818	0.001658	21763	4.768875	-0.735587	60.97	1.232857	0.044649	0.044376	63.5909	21763	0.042458	0.070534	901.563	74867.3
249	2.000000	1.235649	7.36749e+06	-51089.1	955.82	-29753.7	0.000000	0.000000	7.238380	67.7124	NaN	0.000000	0.001577	0.001664	28.0791	40.5815	0.001790	22666.1	7.045183	176.861	67.6635	1.235382	0.047167	0.046901	67.7124	22666.1	0.044926	0.077378	875.081	74445.7
249	2.000000	1.238195	7.36749e+06	-51089.1	955.82	-29753.7	0.000000	0.000000	7.241331	77.5742	NaN	0.000000	0.001579	0.001690	28.0792	41.9536	0.001751	23963	5.899577	-1.992680	76.8613	1.237885	0.049713	0.049404	77.5742	23963	0.047285	0.084207	921.237	75446.8
249	2.000000	1.240675	7.36749e+06	-51089.1	955.821	-29753.7	0.000000	0.000000	7.244279	88.9551	NaN	0.000000	0.001589	0.001688	28.0788	44.356	0.001720	25785.2	6.497319	176.328	89.1716	1.240347	0.052193	0.051865	88.9551	25785.2	0.049605	0.091198	975.411	78010.3
249	2.000000	1.243157	7.36749e+06	-51089.1	955.821	-29753.7	0.000000	0.000000	7.247027	95.3983	NaN	0.000000	0.001595	0.001658	28.0789	47.4131	0.001805	26267.7	6.106644	-3.654324	94.1684	1.242823	0.054676	0.054341	95.3983	26267.7	0.051952	0.098541	968.104	76451.5
249	2.000000	1.245695	7.36749e+06	-51089.1	955.821	-29753.7	0.000000	0.000000	7.250047	107.126	NaN	0.000000	0.001599	0.001657	28.0788	50.2676	0.001847	27222.7	7.878964	174.259	108.558	1.245394	0.057213	0.056913	107.126	27222.7	0.054262	0.106040	1010.24	76377.9
249	2.000000	1.248189	7.36749e+06	-51089.1	955.821	-29753.7	0.000000	0.000000	7.252992	118.101	NaN	0.000000	0.001592	0.001673	28.0788	52.7096	0.001833	28751.6	10.4032	-8.481737	118.626	1.247798	0.059707	0.059316	118.101	28751.6	0.056626	0.113989	1036.07	77804.2
249	2.000000	1.250636	7.36749e+06	-51089.1	955.822	-29753.7	0.000000	0.000000	7.255898	129.231	NaN	0.000000	0.001621	0.001708	28.0785	54.0915	0.001719	31468.6	6.073441	174.795	128.972	1.250352	0.062155	0.061870	129.231	31468.6	0.059075	0.122511	1054.85	82141.3
249	2.000000	1.253182	7.36749e+06	-51089.1	955.821	-29753.7	0.000000	0.000000	7.258865	139.489	NaN	0.000000	0.001573	0.001647	28.0787	58.2177	0.001938	30038.6	5.856034	-4.379301	141.263	1.252757	0.064700	0.064276	139.489	30038.6	0.061218	0.130211	1071.26	76055.3
249	2.000000	1.255667	7.36749e+06	-51089.1	955.821	-29753.7	0.000000	0.000000	7.261900	152.866	NaN	0.000000	0.001591	0.001611	28.0787	60.2629	0.001865	32312.6	6.962485	173.502	155.116	1.255322	0.067186	0.066841	152.866	32312.6	0.063638	0.139175	1098.38	79134.3
249	2.000000	1.258105	7.36749e+06	-51089.1	955.82	-29753.7	0.000000	0.000000	7.264590	159.013	NaN	0.000000	0.001604	0.001650	28.0787	60.965	0.001836	33209.9	3.845337	-3.273096	155.366	1.257845	0.069623	0.069363	159.013	33209.9	0.066032	0.148322	1072.08	78784
249	2.000000	1.260589	7.36749e+06	-51089.1	955.819	-29753.7	0.000000	0.000000	7.267701	174.254	NaN	0.000000	0.001636	0.001648	28.0786	62.7371	0.001770	35434.8	4.046376	176.155	171.298	1.260200	0.072107	0.071719	174.254	35434.8	0.068419	0.157716	1104.86	81520.2
249	2.000000	1.263056	7.36749e+06	-51089.1	955.822	-29753.7	0.000000	0.000000	7.270681	186.719	NaN	0.000000	0.001622	0.001657	28.0787	66.4963	0.001706	38987	8.643378	-9.877513	182.478	1.262726	0.074574	0.074244	186.719	38987	0.070983	0.168108	1110.71	86875.8
249	2.000000	1.265558	7.36749e+06	-51089.1	955.821	-29753.7	0.000000	0.000000	7.273715	199.642	NaN	0.000000	0.001626	0.001653	28.079	70.3135	0.001822	38601.1	8.821269	170.591	196.396	1.265263	0.077076	0.076781	199.642	38601.1	0.073197	0.177337	1125.78	83747.7
249	2.000000	1.268114	7.36749e+06	-51089.1	955.821	-29753.7	0.000000	0.000000	7.276727	210.747	NaN	0.000000	0.001596	0.001667	28.0798	71.7247	0.001851	38739.3	7.237295	-8.023323	206.551	1.267827	0.079632	0.079345	210.747	38739.3	0.075552	0.187405	1124.56	81758.8
249	2.000000	1.270591	7.36749e+06	-51089.1	955.822	-29753.7	0.000000	0.000000	7.279844	226.304	NaN	0.000000	0.001577	0.001672	28.0802	73.6776	0.001732	42537.9	6.252670	172.463	226.518	1.270282	0.082110	0.081800	226.304	42537.9	0.078120	0.198677	1139.05	87191.7
249	2.000000	1.273102	7.36749e+06	-51089.1	955.821	-29753.7	0.000000	0.000000	7.283145	245.5	NaN	0.000000	0.001584	0.001681	28.08	76.0588	0.001806	42119.2	9.118055	-9.906596	243.738	1.272704	0.084620	0.084223	245.5	42119.2	0.080249	0.208260	1178.82	84324
249	2.000000	1.275507	7.36749e+06	-51089.1	955.822	-29753.7	0.000000	0.000000	7.286211	261.584	NaN	0.000000	0.001598	0.001664	28.0805	77.3832	0.001776	43580.5	1.968718	176.781	256.888	1.275283	0.087026	0.086802	261.584	43580.5	0.082524	0.218732	1195.91	85135.3
249	2.000000	1.278111	7.36749e+06	-51089.1	955.823	-29753.7	0.000000	0.000000	7.289561	279.722	NaN	0.000000	0.001683	0.001670	28.0799	80.8595	0.001788	45222.8	10.0717	-11.0802	278.101	1.277670	0.089629	0.089189	279.722	45222.8	0.084990	0.230355	1214.3	86085.7
249	2.000000	1.280609	7.36749e+06	-51089.1	955.821	-29753.7	0.000000	0.000000	7.292537	291.338	NaN	0.000000	0.001696	0.001648	28.0803	82.0536	0.001873	43819.7	6.462580	172.084	291.989	1.280281	0.092127	0.091800	291.338	43819.7	0.087141	0.240721	1210.27	81599.2
249	2.000000	1.283083	7.36749e+06	-51089.1	955.821	-29753.7	0.000000	0.000000	7.295661	307.143	NaN	0.000000	0.001702	0.001624	28.0803	85.9481	0.001773	48467.6	8.534372	-11.0252	304.193	1.282701	0.094602	0.094219	307.143	48467.6	0.089849	0.254074	1208.87	87850.5
249	2.000000	1.285597	7.36749e+06	-51089.1	955.821	-29753.7	0.000000	0.000000	7.298931	325.532	NaN	0.000000	0.001654	0.001632	28.0807	89.2309	0.001831	48737.8	9.344099	167.965	324.851	1.285326	0.097115	0.096845	325.532	48737.8	0.092106	0.265462	1226.29	86424.8
249	2.000000	1.288053	7.36749e+06	-51089.1	955.821	-29753.7	0.000000	0.000000	7.302280	347.245	NaN	0.000000	0.001667	0.001627	28.08	90.118	0.001789	50384.7	8.354926	-10.8368	340.725	1.287642	0.099572	0.099161	347.245	50384.7	0.094403	0.277289	1252.29	87419
249	2.000000	1.290626	7.36749e+06	-51089.1	955.821	-29753.7	0.000000	0.000000	7.305541	364.003	NaN	0.000000	0.001636	0.001635	28.0803	91.4654	0.001744	52439.7	5.402851	171.933	364.348	1.290264	0.102144	0.101783	364.003	52439.7	0.096938	0.290623	1252.49	88872.7
249	2.000000	1.293073	7.36749e+06	-51089.1	955.821	-29753.7	0.000000	0.000000	7.308803	383.8	NaN	0.000000	0.001681	0.001640	28.0799	96.2643	0.001817	52980.6	9.373746	-12.3575	379.659	1.292666	0.104592	0.104185	383.8	52980.6	0.099159	0.302543	1268.58	88002.8
249	2.000000	1.295604	7.36749e+06	-51089.1	955.821	-29753.7	0.000000	0.000000	7.311915	397.929	NaN	0.000000	0.001654	0.001649	28.0802	97.913	0.001768	55373.9	5.223699	171.257	398.087	1.295335	0.107123	0.106853	397.929	55373.9	0.101733	0.316645	1256.7	89906.7
249	2.000000	1.298001	7.36749e+06	-51089.1	955.822	-29753.7	0.000000	0.000000	7.315457	425.758	NaN	0.000000	0.001633	0.001649	28.0799	99.7391	0.001757	56780.1	6.229803	-9.484837	420.091	1.297686	0.109520	0.109205	425.758	56780.1	0.103896	0.328722	1295.19	90480.5
249	2.000000	1.300562	7.36749e+06	-51089.1	955.822	-29753.7	0.000000	0.000000	7.318865	446.375	NaN	0.000000	0.001612	0.001611	28.0801	101.195	0.001657	61062.4	5.504160	171.086	445.304	1.300122	0.112080	0.111640	446.375	61062.4	0.106597	0.344108	1297.19	95104.3
249	2.000000	1.303063	7.36749e+06	-51089.1	955.821	-29753.7	0.000000	0.000000	7.322232	467.419	NaN	0.000000	0.001632	0.001656	28.0788	104.9	0.001748	60009.9	3.400869	-6.846921	464.462	1.302624	0.114582	0.114143	467.419	60009.9	0.108740	0.356545	1310.97	91820.4
249	2.000000	1.305073	7.36749e+06	-51089.1	955.821	-29753.7	0.000000	0.000000	7.324698	478.51	NaN	0.000000	0.001610	0.001634	28.0788	109.02	0.001746	62427.8	7.639556	-11.752	473.813	1.304776	0.116592	0.116294	478.51	62427.8	0.110843	0.368954	1296.94	93899.9