File: remote_trans/data/nanoindenter/0828-1/data/Data_2025-08-06,11h17m57s/2025-07-22_16-23-58_1_758.txt
2025-07-22, 16:23:58, 1
Index	Phase	Displacement	Time	Pos X	Pos Y	Pos Z	Rot A	Rot B	Piezo Z	Force A	Force B	Gripper	Voltage A	Voltage B	Temperature	Amplitude force	Amplitude pos	Stiffness	Phase shift	Phase excitation	Force A raw	Displacement raw	HMax	HMax raw	Real Force	Real Stiffness	Contact Depth	Area	Hardness	Reduced Mod.
[#]	[#]	[um]	[s]	[um]	[um]	[um]	[m°]	[m°]	[um]	[uN]	[uN]	[V]	[V]	[V]	[°C]	[uN]	[um]	[N/m]	[°]	[°]	[uN]	[um]	[um]	[um]	[uN]	[N/m]	[um]	[um^2]	[MPa]	[MPa]
758	1.000000	0.002604	7.37247e+06	-39189.1	1005.82	-29794.7	0.000000	0.000000	6.002795	-0.037744	NaN	0.000000	0.001591	0.001732	28.0802	0.010508	0.000996	10.5473	173.707	-161.09	-0.007244	0.001352	-1.130019	-1.131271	-0.037744	10.5473	-1.127335	-1.166484E+15	3.235696E-17	NaN
758	1.000000	0.012664	7.37247e+06	-39189.1	1005.82	-29794.7	0.000000	0.000000	6.012853	-0.062037	NaN	0.000000	0.001636	0.001708	28.0797	0.097877	0.001118	87.5853	-1.908217	16.6422	-0.043564	0.011214	-1.119960	-1.121409	-0.062037	87.5853	-1.119429	-9.137083E+14	6.789567E-17	NaN
758	1.000000	0.022577	7.37247e+06	-39189.1	1005.82	-29794.7	0.000000	0.000000	6.022766	-0.063805	NaN	0.000000	0.001648	0.001697	28.08	0.067921	0.001635	41.537	-10.0074	-163.404	-0.089872	0.021260	-1.110047	-1.111363	-0.063805	41.537	-1.108895	-6.598604E+14	9.669411E-17	NaN
758	1.000000	0.032545	7.37247e+06	-39189.1	1005.82	-29794.7	0.000000	0.000000	6.032733	-0.112302	NaN	0.000000	0.001655	0.001683	28.0811	0.055488	0.001978	28.0514	179.037	12.4062	-0.099183	0.031209	-1.100078	-1.101415	-0.112302	28.0514	-1.097076	-4.579416E+14	2.452327E-16	NaN
758	1.000000	0.042594	7.37247e+06	-39189.1	1005.82	-29794.7	0.000000	0.000000	6.042786	-0.011363	NaN	0.000000	0.001621	0.001686	28.0815	0.008865	0.001833	4.837449	-170.216	-166.452	0.031953	0.041220	-1.090029	-1.091404	-0.011363	4.837449	-1.088268	-3.487796E+14	3.257880E-17	NaN
758	1.000000	0.052582	7.37247e+06	-39189.1	1005.82	-29794.7	0.000000	0.000000	6.052771	-0.082633	NaN	0.000000	0.001624	0.001722	28.081	0.098363	0.001906	51.6147	-141.539	13.0529	-0.045641	0.051222	-1.080041	-1.081401	-0.082633	51.6147	-1.078840	-2.605820E+14	3.171097E-16	NaN
758	1.000000	0.062553	7.37247e+06	-39189.1	1005.82	-29794.7	0.000000	0.000000	6.062745	0.003656	NaN	0.000000	0.001610	0.001695	28.0814	0.087175	0.002002	43.5525	-25.7643	-161.153	-0.006939	0.061269	-1.070071	-1.071355	0.003656	43.5525	-1.070134	-1.990625E+14	-1.836457E-17	NaN
758	1.000000	0.072554	7.37247e+06	-39189.1	1005.82	-29794.7	0.000000	0.000000	6.072745	-0.018215	NaN	0.000000	0.001625	0.001725	28.0811	0.076596	0.002067	37.0645	27.5914	13.9625	-0.047800	0.071161	-1.060069	-1.061463	-0.018215	37.0645	-1.059701	-1.441456E+14	1.263637E-16	NaN
758	1.000000	0.082571	7.37247e+06	-39189.1	1005.82	-29794.7	0.000000	0.000000	6.082759	-0.089017	NaN	0.000000	0.001624	0.001709	28.0813	0.059600	0.002001	29.7851	170.665	-163.829	-0.135479	0.081348	-1.050053	-1.051275	-0.089017	29.7851	-1.047811	-9.976843E+13	8.922364E-16	NaN
758	1.000000	0.092556	7.37247e+06	-39189.1	1005.82	-29794.7	0.000000	0.000000	6.092745	-0.075519	NaN	0.000000	0.001614	0.001746	28.0809	0.062860	0.002006	31.331	167.962	14.7219	-0.023969	0.091198	-1.040068	-1.041426	-0.075519	31.331	-1.038260	-7.422802E+13	1.017386E-15	NaN
758	1.000000	0.102577	7.37247e+06	-39189.1	1005.82	-29794.7	0.000000	0.000000	6.102767	-0.052371	NaN	0.000000	0.001578	0.001741	28.0813	0.066258	0.002165	30.6095	161.654	-164.457	-0.008055	0.101263	-1.030046	-1.031360	-0.052371	30.6095	-1.028763	-5.531486E+13	9.467767E-16	NaN
758	1.000000	0.112593	7.37247e+06	-39189.1	1005.82	-29794.7	0.000000	0.000000	6.112784	-0.030209	NaN	0.000000	0.001552	0.001732	28.0812	0.087579	0.002010	43.5824	-142.153	16.6804	-0.055076	0.111207	-1.020030	-1.021417	-0.030209	43.5824	-1.019510	-4.153016E+13	7.273929E-16	NaN
758	1.000000	0.122588	7.37247e+06	-39189.1	1005.82	-29794.7	0.000000	0.000000	6.122776	-0.098063	NaN	0.000000	0.001619	0.001748	28.0815	0.094688	0.001998	47.3873	-73.3998	-168.781	-0.036231	0.121312	-1.010036	-1.011311	-0.098063	47.3873	-1.008484	-2.951057E+13	3.322970E-15	NaN
758	1.000000	0.132586	7.37247e+06	-39189.1	1005.82	-29794.7	0.000000	0.000000	6.132776	-0.054642	NaN	0.000000	0.001617	0.001718	28.0811	0.043559	0.002033	21.4288	-38.6215	16.3204	-0.080538	0.131230	-1.000038	-1.001394	-0.054642	21.4288	-0.998125	-2.140565E+13	2.552706E-15	NaN
758	1.000000	0.142580	7.37247e+06	-39189.1	1005.82	-29794.7	0.000000	0.000000	6.142772	0.002846	NaN	0.000000	0.001599	0.001715	28.0815	0.004598	0.002012	2.285549	75.1707	-167.849	0.056025	0.141277	-0.990044	-0.991347	0.002846	2.285549	-0.990978	-1.715065E+13	-1.659133E-16	NaN
758	1.000000	0.152577	7.37247e+06	-39189.1	1005.82	-29794.7	0.000000	0.000000	6.152767	-0.056629	NaN	0.000000	0.001580	0.001696	28.0813	0.014172	0.002032	6.974678	-16.3727	10.9319	-0.139091	0.151183	-0.980046	-0.981440	-0.056629	6.974678	-0.973957	-1.011548E+13	5.598238E-15	NaN
758	1.000000	0.162607	7.37247e+06	-39189.1	1005.82	-29794.7	0.000000	0.000000	6.162796	-0.083319	NaN	0.000000	0.001609	0.001714	28.0813	0.050189	0.001936	25.9246	-132.857	-164.904	-0.018460	0.161291	-0.970016	-0.971332	-0.083319	25.9246	-0.967606	-8.306095E+12	1.003111E-14	NaN
758	1.000000	0.172612	7.37247e+06	-39189.1	1005.82	-29794.7	0.000000	0.000000	6.172803	-0.016347	NaN	0.000000	0.001611	0.001690	28.08	0.057518	0.002038	28.2288	33.4483	13.2741	0.016028	0.171297	-0.960012	-0.961326	-0.016347	28.2288	-0.959578	-6.474017E+12	2.524962E-15	NaN
758	1.000000	0.182625	7.37247e+06	-39189.1	1005.82	-29794.7	0.000000	0.000000	6.182813	-0.077689	NaN	0.000000	0.001605	0.001712	28.0804	0.088834	0.002033	43.6922	-36.5597	-166.498	-0.013492	0.181296	-0.949999	-0.951327	-0.077689	43.6922	-0.948665	-4.613475E+12	1.683954E-14	NaN
758	1.000000	0.192615	7.37247e+06	-39189.1	1005.82	-29794.7	0.000000	0.000000	6.192803	-0.096734	NaN	0.000000	0.001614	0.001726	28.0798	0.099546	0.001947	51.1242	-69.2348	14.9797	-0.106185	0.191281	-0.940009	-0.941342	-0.096734	51.1242	-0.938590	-3.373707E+12	2.867295E-14	NaN
758	1.000000	0.202642	7.37247e+06	-39189.1	1005.82	-29794.7	0.000000	0.000000	6.202831	-0.069664	NaN	0.000000	0.001618	0.001673	28.08	0.109705	0.002003	54.7634	98.4502	-165.359	-0.048663	0.201287	-0.929982	-0.931337	-0.069664	54.7634	-0.929028	-2.506547E+12	2.779283E-14	NaN
758	1.000000	0.212625	7.37247e+06	-39189.1	1005.82	-29794.7	0.000000	0.000000	6.212814	-0.052243	NaN	0.000000	0.001594	0.001744	28.0797	0.091092	0.002086	43.6635	120.864	14.6012	-0.090329	0.211267	-0.919999	-0.921356	-0.052243	43.6635	-0.919102	-1.841096E+12	2.837603E-14	NaN
758	1.000000	0.222620	7.37247e+06	-39189.1	1005.82	-29794.7	0.000000	0.000000	6.222810	-0.046335	NaN	0.000000	0.001575	0.001703	28.0802	0.077049	0.001992	38.6885	159.519	-163.417	-0.067648	0.221300	-0.910004	-0.911324	-0.046335	38.6885	-0.909106	-1.349226E+12	3.434198E-14	NaN
758	1.000000	0.232646	7.37247e+06	-39189.1	1005.82	-29794.7	0.000000	0.000000	6.232838	0.017553	NaN	0.000000	0.001568	0.001690	28.0799	0.032016	0.001913	16.7375	152.386	9.147611	0.023563	0.231242	-0.899978	-0.901382	0.017553	16.7375	-0.900765	-1.040871E+12	-1.686396E-14	NaN
758	1.000000	0.242669	7.37247e+06	-39189.1	1005.82	-29794.7	0.000000	0.000000	6.242858	-0.086903	NaN	0.000000	0.001574	0.001727	28.0799	0.055435	0.001994	27.7961	156.715	-166.774	-0.032227	0.241356	-0.889955	-0.891267	-0.086903	27.7961	-0.887610	-6.911965E+11	1.257279E-13	NaN
758	1.000000	0.252656	7.37247e+06	-39189.1	1005.82	-29794.7	0.000000	0.000000	6.252850	0.031291	NaN	0.000000	0.001621	0.001754	28.08	0.043917	0.002116	20.7554	-150.375	12.5532	0.028379	0.251358	-0.879967	-0.881266	0.031291	20.7554	-0.881098	-5.643612E+11	-5.544583E-14	NaN
758	1.000000	0.262649	7.37247e+06	-39189.1	1005.82	-29794.7	0.000000	0.000000	6.262839	-0.051192	NaN	0.000000	0.001607	0.001730	28.08	0.134019	0.002049	65.4096	13.4678	-166.138	-0.032451	0.261343	-0.869974	-0.871280	-0.051192	65.4096	-0.869387	-3.918805E+11	1.306322E-13	NaN
758	1.000000	0.272648	7.37247e+06	-39189.1	1005.82	-29794.7	0.000000	0.000000	6.272836	-0.100381	NaN	0.000000	0.001609	0.001726	28.0797	0.045891	0.001961	23.3968	49.0636	12.7344	-0.145799	0.271297	-0.859976	-0.861327	-0.100381	23.3968	-0.856758	-2.643849E+11	3.796792E-13	NaN
758	1.000000	0.282679	7.37247e+06	-39189.1	1005.82	-29794.7	0.000000	0.000000	6.282870	-0.023330	NaN	0.000000	0.001629	0.001727	28.0797	0.110633	0.001974	56.0365	-91.3692	-164.278	-0.031135	0.281361	-0.849945	-0.851263	-0.023330	56.0365	-0.849633	-2.117209E+11	1.101908E-13	NaN
758	1.000000	0.292663	7.37247e+06	-39189.1	1005.82	-29794.7	0.000000	0.000000	6.292852	-0.083378	NaN	0.000000	0.001633	0.001755	28.0799	0.055459	0.001997	27.7655	133.428	17.085	-0.078287	0.291255	-0.839961	-0.841368	-0.083378	27.7655	-0.837708	-1.459640E+11	5.712219E-13	NaN
758	1.000000	0.302658	7.37247e+06	-39189.1	1005.82	-29794.7	0.000000	0.000000	6.302847	-0.084799	NaN	0.000000	0.001646	0.001732	28.0808	0.038146	0.002119	18.0019	64.5199	-163.007	-0.031254	0.301353	-0.829965	-0.831270	-0.084799	18.0019	-0.826432	-1.026658E+11	8.259696E-13	NaN
758	1.000000	0.312685	7.37247e+06	-39189.1	1005.82	-29794.7	0.000000	0.000000	6.312874	-0.070934	NaN	0.000000	0.001602	0.001729	28.0811	0.018798	0.002019	9.312975	99.6983	13.2685	-0.041140	0.311295	-0.819939	-0.821329	-0.070934	9.312975	-0.814226	-7.013062E+10	1.011449E-12	NaN
758	1.000000	0.322661	7.37247e+06	-39189.1	1005.82	-29794.7	0.000000	0.000000	6.322852	-0.021958	NaN	0.000000	0.001623	0.001691	28.0811	0.062857	0.001840	34.1619	17.5886	-166.951	0.023760	0.321396	-0.809963	-0.811228	-0.021958	34.1619	-0.809481	-6.046764E+10	3.631318E-13	NaN
758	1.000000	0.332678	7.37247e+06	-39189.1	1005.82	-29794.7	0.000000	0.000000	6.332869	-0.036873	NaN	0.000000	0.001629	0.001617	28.0808	0.033833	0.002007	16.8593	-42.9145	13.2509	-0.014338	0.331278	-0.799945	-0.801346	-0.036873	16.8593	-0.798305	-4.264350E+10	8.646815E-13	NaN
758	1.000000	0.342687	7.37247e+06	-39189.1	1005.82	-29794.7	0.000000	0.000000	6.342876	-0.059125	NaN	0.000000	0.001658	0.001649	28.0808	0.039813	0.002053	19.3922	-71.609	-166.92	-0.032116	0.341418	-0.789937	-0.791205	-0.059125	19.3922	-0.787650	-3.056110E+10	1.934665E-12	NaN
758	1.000000	0.352662	7.37247e+06	-39189.1	1005.82	-29794.7	0.000000	0.000000	6.352852	-0.039369	NaN	0.000000	0.001629	0.001605	28.081	0.071506	0.001921	37.2287	-162.112	9.198807	-0.042016	0.351317	-0.779962	-0.781307	-0.039369	37.2287	-0.779169	-2.343874E+10	1.679636E-12	NaN
758	1.000000	0.362657	7.37247e+06	-39189.1	1005.82	-29794.7	0.000000	0.000000	6.362847	-0.052272	NaN	0.000000	0.001589	0.001685	28.081	0.082717	0.002133	38.778	33.2574	-165.799	0.071927	0.361393	-0.769967	-0.771231	-0.052272	38.778	-0.768956	-1.702580E+10	3.070172E-12	NaN
758	1.000000	0.372682	7.37247e+06	-39189.1	1005.82	-29794.7	0.000000	0.000000	6.372874	-0.018833	NaN	0.000000	0.001571	0.001673	28.0809	0.155344	0.002061	75.3785	-76.2924	15.3886	-0.088902	0.371345	-0.759941	-0.761279	-0.018833	75.3785	-0.759754	-1.276303E+10	1.475568E-12	NaN
758	1.000000	0.382709	7.37247e+06	-39189.1	1005.82	-29794.7	0.000000	0.000000	6.382899	-0.036755	NaN	0.000000	0.001553	0.001685	28.0811	0.033735	0.002180	15.4756	76.5808	-165.582	-0.029232	0.381393	-0.749915	-0.751230	-0.036755	15.4756	-0.748134	-8.867718E+9	4.144758E-12	NaN
758	1.000000	0.392680	7.37247e+06	-39189.1	1005.82	-29794.7	0.000000	0.000000	6.392870	-0.033019	NaN	0.000000	0.001585	0.001659	28.0811	0.040112	0.002037	19.6934	-152.355	14.1517	0.008703	0.391361	-0.739944	-0.741262	-0.033019	19.6934	-0.738686	-6.594222E+9	5.007272E-12	NaN
758	1.000000	0.402715	7.37247e+06	-39189.1	1005.82	-29794.7	0.000000	0.000000	6.402904	-0.071582	NaN	0.000000	0.001563	0.001675	28.0812	0.033614	0.002036	16.5059	-118.777	-164.157	-0.091190	0.401416	-0.729909	-0.731207	-0.071582	16.5059	-0.726656	-4.520987E+9	1.583335E-11	NaN
758	1.000000	0.412706	7.37247e+06	-39189.1	1005.82	-29794.7	0.000000	0.000000	6.412895	-0.076650	NaN	0.000000	0.001570	0.001655	28.0811	0.056114	0.001995	28.1303	-103.245	14.7029	-0.059970	0.411361	-0.719918	-0.721263	-0.076650	28.1303	-0.717874	-3.431447E+9	2.233765E-11	NaN
758	1.000000	0.422719	7.37247e+06	-39189.1	1005.82	-29794.7	0.000000	0.000000	6.422909	-0.064762	NaN	0.000000	0.001557	0.001668	28.0808	0.042957	0.001966	21.8481	-155.452	-168.571	-0.091818	0.421416	-0.709904	-0.711208	-0.064762	21.8481	-0.707681	-2.491151E+9	2.599662E-11	NaN
758	1.000000	0.432734	7.37247e+06	-39189.1	1005.82	-29794.7	0.000000	0.000000	6.432923	-0.081052	NaN	0.000000	0.001609	0.001661	28.0812	0.090559	0.002004	45.1811	29.9489	13.7142	-0.122025	0.431337	-0.699889	-0.701287	-0.081052	45.1811	-0.698544	-1.869149E+9	4.336305E-11	NaN
758	1.000000	0.442719	7.37247e+06	-39189.1	1005.82	-29794.7	0.000000	0.000000	6.442908	-0.061838	NaN	0.000000	0.001616	0.001649	28.0801	0.055958	0.001949	28.7181	14.9746	-167.528	0.015574	0.441431	-0.689905	-0.691192	-0.061838	28.7181	-0.688290	-1.353775E+9	4.567802E-11	NaN
758	1.000000	0.452730	7.37247e+06	-39189.1	1005.82	-29794.7	0.000000	0.000000	6.452919	-0.068871	NaN	0.000000	0.001582	0.001658	28.08	0.013505	0.001833	7.368866	-38.0178	14.9411	-0.066352	0.451353	-0.679894	-0.681270	-0.068871	7.368866	-0.672884	-8.334172E+8	8.263745E-11	NaN
758	1.000000	0.462746	7.37247e+06	-39189.1	1005.82	-29794.7	0.000000	0.000000	6.462936	-0.056756	NaN	0.000000	0.001619	0.001670	28.0795	0.108044	0.002048	52.7604	162.418	-165.722	-0.078529	0.461470	-0.669877	-0.671153	-0.056756	52.7604	-0.669070	-7.390366E+8	7.679711E-11	NaN
758	1.000000	0.472762	7.37247e+06	-39189.1	1005.82	-29794.7	0.000000	0.000000	6.472952	-0.036262	NaN	0.000000	0.001610	0.001714	28.0802	0.115488	0.001993	57.9391	32.2149	12.5038	0.023553	0.471378	-0.659862	-0.661246	-0.036262	57.9391	-0.659393	-5.446899E+8	6.657288E-11	NaN
758	1.000000	0.482738	7.37247e+06	-39189.1	1005.82	-29794.7	0.000000	0.000000	6.482926	-0.086535	NaN	0.000000	0.001580	0.001697	28.08	0.098299	0.001900	51.7285	-30.4259	-165.649	-0.019138	0.481429	-0.649886	-0.651195	-0.086535	51.7285	-0.648631	-3.878525E+8	2.231136E-10	NaN
758	1.000000	0.492732	7.37247e+06	-39189.1	1005.82	-29794.7	0.000000	0.000000	6.492921	-0.075505	NaN	0.000000	0.001633	0.001698	28.0799	0.034561	0.002067	16.7243	67.5386	18.3905	-0.129389	0.491395	-0.639892	-0.641228	-0.075505	16.7243	-0.636506	-2.644489E+8	2.855195E-10	NaN
758	1.000000	0.502746	7.37247e+06	-39189.1	1005.82	-29794.7	0.000000	0.000000	6.502934	-0.094974	NaN	0.000000	0.001596	0.001700	28.0798	0.039866	0.002122	18.7889	-26.785	-169.331	-0.090065	0.501433	-0.629877	-0.631191	-0.094974	18.7889	-0.626086	-1.902248E+8	4.992717E-10	NaN
758	1.000000	0.512774	7.37247e+06	-39189.1	1005.82	-29794.7	0.000000	0.000000	6.512962	-0.085431	NaN	0.000000	0.001604	0.001735	28.08	0.053572	0.001864	28.7416	-17.6253	14.2966	-0.086688	0.511348	-0.619850	-0.621276	-0.085431	28.7416	-0.617620	-1.455199E+8	5.870721E-10	NaN
758	1.000000	0.522767	7.37247e+06	-39189.1	1005.82	-29794.7	0.000000	0.000000	6.522955	-0.105023	NaN	0.000000	0.001609	0.001703	28.0798	0.178977	0.001962	91.235	43.8757	-167.843	-0.081909	0.521417	-0.609856	-0.611207	-0.105023	91.235	-0.608993	-1.107280E+8	9.484812E-10	NaN
758	1.000000	0.532787	7.37247e+06	-39189.1	1005.82	-29794.7	0.000000	0.000000	6.532976	-0.082325	NaN	0.000000	0.001618	0.001703	28.0799	0.036090	0.001945	18.5514	62.6671	14.6394	-0.059687	0.531428	-0.599836	-0.601195	-0.082325	18.5514	-0.596508	-7.453500E+7	1.104518E-9	NaN
758	1.000000	0.542758	7.37247e+06	-39189.1	1005.82	-29794.7	0.000000	0.000000	6.542945	-0.118910	NaN	0.000000	0.001592	0.001607	28.0802	0.112257	0.002105	53.3209	-98.9729	-168.19	-0.107431	0.541462	-0.589866	-0.591162	-0.118910	53.3209	-0.588193	-5.724721E+7	2.077137E-9	NaN
758	1.000000	0.552770	7.37247e+06	-39189.1	1005.82	-29794.7	0.000000	0.000000	6.552961	-0.005447	NaN	0.000000	0.001592	0.001671	28.08	0.166414	0.002106	79.0184	-24.3369	12.018	-0.033452	0.551476	-0.579854	-0.581148	-0.005447	79.0184	-0.579802	-4.385262E+7	1.242050E-10	NaN
758	1.000000	0.562761	7.37247e+06	-39189.1	1005.82	-29794.7	0.000000	0.000000	6.562950	-0.076401	NaN	0.000000	0.001551	0.001688	28.0799	0.057604	0.002045	28.1735	146.466	-165.796	-0.123894	0.561431	-0.569863	-0.571193	-0.076401	28.1735	-0.567829	-2.996586E+7	2.549599E-9	NaN
758	1.000000	0.572779	7.37247e+06	-39189.1	1005.82	-29794.7	0.000000	0.000000	6.572967	-0.092963	NaN	0.000000	0.001563	0.001674	28.0801	0.109192	0.001871	58.345	-60.1002	14.1298	-0.051746	0.571433	-0.559844	-0.561190	-0.092963	58.345	-0.558649	-2.237135E+7	4.155436E-9	NaN
758	1.000000	0.582771	7.37247e+06	-39189.1	1005.82	-29794.7	0.000000	0.000000	6.582961	-0.051002	NaN	0.000000	0.001589	0.001687	28.0816	0.090704	0.001986	45.6627	164.624	-169.594	-0.099734	0.581486	-0.549852	-0.551138	-0.051002	45.6627	-0.549015	-1.645535E+7	3.099399E-9	NaN
758	1.000000	0.592806	7.37247e+06	-39189.1	1005.82	-29794.7	0.000000	0.000000	6.592993	-0.115954	NaN	0.000000	0.001593	0.001676	28.0813	0.056359	0.001911	29.4936	10.0311	16.2399	-0.097570	0.591433	-0.539818	-0.541190	-0.115954	29.4936	-0.536869	-1.116674E+7	1.038383E-8	NaN
758	1.000000	0.602814	7.37247e+06	-39189.1	1005.82	-29794.7	0.000000	0.000000	6.603001	-0.119309	NaN	0.000000	0.001614	0.001651	28.0811	0.093604	0.002152	43.498	-148.891	-165.613	-0.030658	0.601449	-0.529809	-0.531175	-0.119309	43.498	-0.527752	-8.3436e+06	1.429951E-8	NaN
758	1.000000	0.612790	7.37247e+06	-39189.1	1005.82	-29794.7	0.000000	0.000000	6.612979	-0.072395	NaN	0.000000	0.001565	0.001653	28.0814	0.065205	0.002000	32.6017	2.559940	14.7987	-0.077800	0.611401	-0.519833	-0.521222	-0.072395	32.6017	-0.518168	-6.13924e+06	1.179223E-8	NaN
758	1.000000	0.622791	7.37247e+06	-39189.1	1005.82	-29794.7	0.000000	0.000000	6.622981	-0.056259	NaN	0.000000	0.001593	0.001661	28.0811	0.010144	0.001811	5.601921	134.202	-166.601	-0.066380	0.621492	-0.509833	-0.511131	-0.056259	5.601921	-0.502301	-3.69069e+06	1.524353E-8	NaN
758	1.000000	0.632786	7.37247e+06	-39189.1	1005.82	-29794.7	0.000000	0.000000	6.632978	0.016438	NaN	0.000000	0.001616	0.001669	28.0811	0.070131	0.001942	36.1135	85.5663	13.1748	-0.000132	0.631435	-0.499838	-0.501189	0.016438	36.1135	-0.500179	-3.44761e+06	-4.767839E-9	NaN
758	1.000000	0.642822	7.37247e+06	-39189.1	1005.82	-29794.7	0.000000	0.000000	6.643011	-0.076366	NaN	0.000000	0.001621	0.001619	28.0811	0.017461	0.002003	8.715920	167.82	-168.593	-0.090346	0.641513	-0.489801	-0.491111	-0.076366	8.715920	-0.483230	-1.99863e+06	3.820929E-8	NaN
758	1.000000	0.652817	7.37247e+06	-39189.1	1005.82	-29794.7	0.000000	0.000000	6.653007	-0.042194	NaN	0.000000	0.001606	0.001671	28.0811	0.076633	0.002023	37.8857	-138.087	16.2395	-0.074054	0.651430	-0.479807	-0.481193	-0.042194	37.8857	-0.478971	-1.74231e+06	2.421719E-8	NaN
758	1.000000	0.662834	7.37247e+06	-39189.1	1005.82	-29794.7	0.000000	0.000000	6.663023	-0.066501	NaN	0.000000	0.001585	0.001678	28.0811	0.021312	0.001983	10.746	40.748	-166.962	-0.120146	0.661493	-0.469790	-0.471131	-0.066501	10.746	-0.465148	-1.11514e+06	5.963452E-8	NaN
758	1.000000	0.672830	7.37247e+06	-39189.1	1005.82	-29794.7	0.000000	0.000000	6.673021	-0.031678	NaN	0.000000	0.001621	0.001659	28.0815	0.047497	0.002139	22.2091	-101.644	16.2447	-0.051760	0.671464	-0.459794	-0.461160	-0.031678	22.2091	-0.458724	-905907	3.496863E-8	NaN
758	1.000000	0.682832	7.37247e+06	-39189.1	1005.82	-29794.7	0.000000	0.000000	6.683023	-0.020409	NaN	0.000000	0.001578	0.001664	28.0811	0.015583	0.001993	7.818379	25.2267	-166.214	-0.028973	0.681526	-0.449791	-0.451098	-0.020409	7.818379	-0.447834	-636544	3.206214E-8	NaN
758	1.000000	0.692864	7.37247e+06	-39189.1	1005.82	-29794.7	0.000000	0.000000	6.693054	-0.047572	NaN	0.000000	0.001586	0.001669	28.081	0.063881	0.002061	30.9921	57.2992	15.9804	-0.027458	0.691451	-0.439760	-0.441173	-0.047572	30.9921	-0.438609	-471762	1.008379E-7	NaN
758	1.000000	0.702825	7.37247e+06	-39189.1	1005.82	-29794.7	0.000000	0.000000	6.703015	-0.061118	NaN	0.000000	0.001582	0.001668	28.081	0.052922	0.002074	25.5141	-104.971	-167.791	-0.133832	0.701500	-0.429799	-0.431124	-0.061118	25.5141	-0.428002	-334032	1.829689E-7	NaN
758	1.000000	0.712843	7.37247e+06	-39189.1	1005.82	-29794.7	0.000000	0.000000	6.713034	-0.014740	NaN	0.000000	0.001611	0.001696	28.0798	0.036831	0.002044	18.0189	62.8776	18.1254	0.008867	0.711453	-0.419781	-0.421171	-0.014740	18.0189	-0.419167	-250382	5.886832E-8	NaN
758	1.000000	0.722846	7.37247e+06	-39189.1	1005.82	-29794.7	0.000000	0.000000	6.723034	-0.103729	NaN	0.000000	0.001608	0.001692	28.0799	0.098357	0.002047	48.0558	-98.8925	-164.623	-0.120646	0.721527	-0.409777	-0.411097	-0.103729	48.0558	-0.408158	-174664	5.938793E-7	NaN
758	1.000000	0.732870	7.37247e+06	-39189.1	1005.82	-29794.7	0.000000	0.000000	6.733060	-0.059600	NaN	0.000000	0.001619	0.001666	28.0797	0.072120	0.001999	36.0823	-84.613	11.4051	-0.039137	0.731483	-0.399753	-0.401141	-0.059600	36.0823	-0.398514	-127292	4.682124E-7	NaN
758	1.000000	0.742844	7.37247e+06	-39189.1	1005.82	-29794.7	0.000000	0.000000	6.743035	-0.007124	NaN	0.000000	0.001595	0.001692	28.0797	0.056199	0.001944	28.9041	-75.2947	-168.057	-0.150006	0.741541	-0.389780	-0.391083	-0.007124	28.9041	-0.389595	-94923.6	7.504776E-8	NaN
758	1.000000	0.752871	7.37247e+06	-39189.1	1005.82	-29794.7	0.000000	0.000000	6.753061	-0.045844	NaN	0.000000	0.001646	0.001695	28.0797	0.093581	0.002017	46.3912	-171.807	13.1099	-0.058731	0.751491	-0.379752	-0.381133	-0.045844	46.3912	-0.379011	-66941.4	6.848420E-7	NaN
758	1.000000	0.762845	7.37247e+06	-39189.1	1005.82	-29794.7	0.000000	0.000000	6.763033	-0.097561	NaN	0.000000	0.001591	0.001668	28.08	0.073961	0.002003	36.9213	83.5077	-167.993	0.023969	0.761489	-0.369779	-0.371135	-0.097561	36.9213	-0.367797	-46172.7	2.112949E-6	NaN
758	1.000000	0.772867	7.37247e+06	-39189.1	1005.82	-29794.7	0.000000	0.000000	6.773055	-0.096667	NaN	0.000000	0.001591	0.001648	28.0798	0.086942	0.001985	43.8008	-79.3065	12.6267	-0.101115	0.771483	-0.359756	-0.361141	-0.096667	43.8008	-0.358101	-33449.3	2.889949E-6	NaN
758	1.000000	0.782877	7.37247e+06	-39189.1	1005.82	-29794.7	0.000000	0.000000	6.783066	-0.055523	NaN	0.000000	0.001622	0.001598	28.08	0.044678	0.001856	24.0753	74.9829	-167.16	-0.150649	0.781560	-0.349747	-0.351064	-0.055523	24.0753	-0.348017	-23889.9	2.324114E-6	NaN
758	1.000000	0.792871	7.37247e+06	-39189.1	1005.82	-29794.7	0.000000	0.000000	6.793060	-0.083531	NaN	0.000000	0.001589	0.001715	28.0802	0.027154	0.002154	12.6041	38.0764	13.9272	-0.075548	0.791486	-0.339753	-0.341138	-0.083531	12.6041	-0.334782	-15325.1	5.450603E-6	NaN
758	1.000000	0.802842	7.37247e+06	-39189.1	1005.82	-29794.7	0.000000	0.000000	6.803031	-0.077123	NaN	0.000000	0.001571	0.001676	28.0799	0.062046	0.001992	31.1532	-27.6149	-165.92	-0.092760	0.801546	-0.329781	-0.331078	-0.077123	31.1532	-0.327924	-12163	6.340795E-6	NaN
758	1.000000	0.812874	7.37247e+06	-39189.1	1005.82	-29794.7	0.000000	0.000000	6.813067	0.023123	NaN	0.000000	0.001577	0.001683	28.0798	0.051542	0.001956	26.3507	23.6702	12.4969	-0.054199	0.811524	-0.319750	-0.321099	0.023123	26.3507	-0.320408	-9432.79	-2.451327E-6	NaN
758	1.000000	0.822873	7.37247e+06	-39189.1	1005.82	-29794.7	0.000000	0.000000	6.823062	-0.066769	NaN	0.000000	0.001548	0.001693	28.0795	0.115513	0.002080	55.5463	174.721	-164.415	-0.105677	0.821549	-0.309751	-0.311075	-0.066769	55.5463	-0.308849	-6368.28	1.048464E-5	NaN
758	1.000000	0.832865	7.37247e+06	-39189.1	1005.82	-29794.7	0.000000	0.000000	6.833052	-0.105944	NaN	0.000000	0.001610	0.001670	28.0802	0.028256	0.001969	14.3527	13.1869	14.4143	-0.097078	0.831520	-0.299759	-0.301103	-0.105944	14.3527	-0.294223	-3859.02	2.745366E-5	NaN
758	1.000000	0.842915	7.37247e+06	-39189.1	1005.82	-29794.7	0.000000	0.000000	6.843104	-0.072256	NaN	0.000000	0.001650	0.001693	28.0796	0.037771	0.002134	17.7007	88.7937	-169.009	-0.023635	0.841550	-0.289709	-0.291074	-0.072256	17.7007	-0.286647	-2971.76	2.431427E-5	NaN
758	1.000000	0.852895	7.37247e+06	-39189.1	1005.82	-29794.7	0.000000	0.000000	6.853084	-0.073288	NaN	0.000000	0.001640	0.001673	28.0809	0.030851	0.001986	15.5306	87.3628	12.0999	-0.052646	0.851524	-0.279728	-0.281099	-0.073288	15.5306	-0.276189	-2067.28	3.545136E-5	NaN
758	1.000000	0.862891	7.37247e+06	-39189.1	1005.82	-29794.7	0.000000	0.000000	6.863079	-0.102297	NaN	0.000000	0.001644	0.001705	28.081	0.080106	0.002026	39.5445	-108.123	-170.625	-0.062434	0.861598	-0.269732	-0.271025	-0.102297	39.5445	-0.267792	-1541.54	6.635991E-5	NaN
758	1.000000	0.872899	7.37247e+06	-39189.1	1005.82	-29794.7	0.000000	0.000000	6.873091	-0.009669	NaN	0.000000	0.001635	0.001688	28.081	0.092240	0.001962	47.0146	-44.481	11.8444	-0.058058	0.871558	-0.259724	-0.261065	-0.009669	47.0146	-0.259570	-1154.31	8.376408E-6	NaN
758	1.000000	0.882920	7.37247e+06	-39189.1	1005.82	-29794.7	0.000000	0.000000	6.883113	0.000996	NaN	0.000000	0.001612	0.001630	28.0806	0.011230	0.002027	5.539282	-148.247	-170.751	-0.015859	0.881544	-0.249703	-0.251079	0.000996	5.539282	-0.249838	-817.449	-1.218779E-6	NaN
758	1.000000	0.892932	7.37247e+06	-39189.1	1005.82	-29794.7	0.000000	0.000000	6.893121	-0.083707	NaN	0.000000	0.001629	0.001668	28.0811	0.113831	0.002099	54.2295	-62.9556	13.241	-0.099021	0.891573	-0.239691	-0.241051	-0.083707	54.2295	-0.238534	-545.298	0.000154	NaN
758	1.000000	0.902897	7.37247e+06	-39189.1	1005.82	-29794.7	0.000000	0.000000	6.903086	-0.061847	NaN	0.000000	0.001598	0.001677	28.0812	0.051210	0.001965	26.0621	-134.786	-164.859	-0.139550	0.901605	-0.229727	-0.231019	-0.061847	26.0621	-0.227947	-371.59	0.000166	NaN
758	1.000000	0.912912	7.37247e+06	-39189.1	1005.82	-29794.7	0.000000	0.000000	6.913105	0.001123	NaN	0.000000	0.001623	0.001664	28.081	0.086156	0.001993	43.2391	-40.6576	8.849429	-0.021378	0.911530	-0.219711	-0.221094	0.001123	43.2391	-0.219731	-275.024	-4.082878E-6	NaN
758	1.000000	0.922911	7.37247e+06	-39189.1	1005.82	-29794.7	0.000000	0.000000	6.923101	-0.028801	NaN	0.000000	0.001597	0.001634	28.081	0.031104	0.002105	14.7788	-24.5172	-167.152	-0.044798	0.921656	-0.209713	-0.210968	-0.028801	14.7788	-0.208251	-179.666	0.000160	NaN
758	1.000000	0.932892	7.37247e+06	-39189.1	1005.82	-29794.7	0.000000	0.000000	6.933081	-0.083013	NaN	0.000000	0.001598	0.001649	28.0812	0.015275	0.002115	7.223844	-170.908	14.2949	0.053397	0.931612	-0.199731	-0.201012	-0.083013	7.223844	-0.191113	-93.8852	0.000884	NaN
758	1.000000	0.942911	7.37247e+06	-39189.1	1005.82	-29794.7	0.000000	0.000000	6.943098	-0.129739	NaN	0.000000	0.001624	0.001658	28.0813	0.022439	0.001931	11.6215	20.5168	-162.088	-0.119507	0.941527	-0.189713	-0.191097	-0.129739	11.6215	-0.181340	-64.3033	0.002018	NaN
758	1.000000	0.952932	7.37247e+06	-39189.1	1005.82	-29794.7	0.000000	0.000000	6.953123	-0.035481	NaN	0.000000	0.001649	0.001658	28.0813	0.061530	0.002054	29.9631	160.762	14.5594	-0.019187	0.951554	-0.179691	-0.181069	-0.035481	29.9631	-0.178803	-58.2211	0.000609	NaN
758	1.000000	0.962928	7.37247e+06	-39189.1	1005.82	-29794.7	0.000000	0.000000	6.963118	-0.063274	NaN	0.000000	0.001633	0.001633	28.0814	0.162842	0.001999	81.4784	-159.313	-167.664	-0.024858	0.961630	-0.169695	-0.170994	-0.063274	81.4784	-0.169113	-39.6457	0.001596	NaN
758	1.000000	0.972932	7.37247e+06	-39189.1	1005.82	-29794.7	0.000000	0.000000	6.973121	-0.074477	NaN	0.000000	0.001641	0.001667	28.0815	0.062680	0.001950	32.1493	39.2984	12.2219	-0.093007	0.971587	-0.159691	-0.161036	-0.074477	32.1493	-0.157954	-25.2076	0.002955	NaN
758	1.000000	0.982978	7.37247e+06	-39189.1	1005.82	-29794.7	0.000000	0.000000	6.983166	-0.114116	NaN	0.000000	0.001660	0.001636	28.0811	0.098362	0.001954	50.3377	88.3218	-170.253	-0.139487	0.981579	-0.149645	-0.151044	-0.114116	50.3377	-0.147945	-16.6119	0.006870	NaN
758	1.000000	0.992922	7.37247e+06	-39189.1	1005.82	-29794.7	0.000000	0.000000	6.993112	-0.069728	NaN	0.000000	0.001645	0.001701	28.0801	0.133008	0.002087	63.7196	-167.012	13.1894	-0.058038	0.991590	-0.139701	-0.141034	-0.069728	63.7196	-0.138880	-11.2694	0.006187	NaN
758	1.000000	1.002968	7.37247e+06	-39189.1	1005.82	-29794.7	0.000000	0.000000	7.003156	-0.082212	NaN	0.000000	0.001668	0.001671	28.0797	0.082850	0.001921	43.1184	-105.499	-166.206	-0.094326	1.001635	-0.129656	-0.130989	-0.082212	43.1184	-0.128226	-7.037822	0.011682	NaN
758	1.000000	1.012925	7.37247e+06	-39189.1	1005.82	-29794.7	0.000000	0.000000	7.013116	-0.048667	NaN	0.000000	0.001699	0.001663	28.0802	0.065508	0.002031	32.2609	102.223	13.3844	-0.060959	1.011604	-0.119698	-0.121020	-0.048667	32.2609	-0.118567	-4.519269	0.010769	NaN
758	1.000000	1.022941	7.37247e+06	-39189.1	1005.82	-29794.7	0.000000	0.000000	7.023130	-0.064117	NaN	0.000000	0.001662	0.001669	28.08	0.122695	0.001956	62.728	-21.5779	-164.427	-0.074143	1.021674	-0.109683	-0.110950	-0.064117	62.728	-0.108916	-2.850758	0.022491	NaN
758	1.000000	1.032980	7.37247e+06	-39189.1	1005.82	-29794.7	0.000000	0.000000	7.033170	-0.060704	NaN	0.000000	0.001673	0.001690	28.08	0.138502	0.001816	76.2622	135.511	17.9644	-0.054872	1.031633	-0.099644	-0.100990	-0.060704	76.2622	-0.099047	-1.740145	0.034885	NaN
758	1.000000	1.042943	7.37247e+06	-39189.1	1005.82	-29794.7	0.000000	0.000000	7.043133	-0.054441	NaN	0.000000	0.001661	0.001663	28.08	0.029713	0.002041	14.5553	52.4284	-172.253	-0.083407	1.041647	-0.089680	-0.090976	-0.054441	14.5553	-0.086875	-0.911584	0.059721	NaN
758	1.000000	1.052977	7.37247e+06	-39189.1	1005.82	-29794.7	0.000000	0.000000	7.053166	-0.075039	NaN	0.000000	0.001629	0.001627	28.0801	0.113161	0.002046	55.3106	113.827	9.688818	-0.013877	1.051635	-0.079646	-0.080989	-0.075039	55.3106	-0.078629	-0.571798	0.131234	NaN
758	1.000000	1.062993	7.37247e+06	-39189.1	1005.82	-29794.7	0.000000	0.000000	7.063183	-0.055331	NaN	0.000000	0.001639	0.001670	28.0801	0.108629	0.001969	55.1575	-17.3199	-167.246	-0.044360	1.061674	-0.069630	-0.070950	-0.055331	55.1575	-0.068878	-0.318208	0.173883	NaN
758	1.000000	1.072966	7.37247e+06	-39189.1	1005.82	-29794.7	0.000000	0.000000	7.073156	-0.059527	NaN	0.000000	0.001630	0.001613	28.08	0.068422	0.001944	35.2007	177.909	13.9322	-0.014116	1.071634	-0.059657	-0.060989	-0.059527	35.2007	-0.058389	-0.161825	0.367851	NaN
758	1.000000	1.082997	7.37247e+06	-39189.1	1005.82	-29794.7	0.000000	0.000000	7.083188	-0.027011	NaN	0.000000	0.001628	0.001681	28.0803	0.024933	0.002114	11.7935	-172.383	-164.979	-0.017940	1.081635	-0.049627	-0.050989	-0.027011	11.7935	-0.047909	-0.078847	0.342572	NaN
758	1.000000	1.093004	7.37247e+06	-39189.1	1005.82	-29794.7	0.000000	0.000000	7.093193	-0.064575	NaN	0.000000	0.001619	0.001645	28.0799	0.037042	0.002055	18.0262	-174.575	11.6447	-0.005823	1.091658	-0.039620	-0.040966	-0.064575	18.0262	-0.036933	-0.036548	1.766866	NaN
758	1.000000	1.102983	7.37247e+06	-39189.1	1005.82	-29794.7	0.000000	0.000000	7.103172	-0.058551	NaN	0.000000	0.001641	0.001658	28.08	0.076173	0.001907	39.9373	-103.558	-162.959	-0.043410	1.101652	-0.029641	-0.030972	-0.058551	39.9373	-0.028541	-0.020975	2.791471	NaN
758	1.000000	1.112966	7.37247e+06	-39189.1	1005.82	-29794.7	0.000000	0.000000	7.113158	-0.021906	NaN	0.000000	0.001648	0.001660	28.08	0.063078	0.002052	30.7409	31.325	16.2401	-0.021355	1.111696	-0.019657	-0.020928	-0.021906	30.7409	-0.019123	-0.011930	1.836162	NaN
758	1.000000	1.122997	7.37247e+06	-39189.1	1005.82	-29794.7	0.000000	0.000000	7.123189	0.008737	NaN	0.000000	0.001675	0.001661	28.0817	0.092938	0.002007	46.3008	90.193	-168.142	-0.049729	1.121687	-0.009627	-0.010937	0.008737	46.3008	-0.009768	-0.006255	-1.396937	NaN
758	1.000000	1.133000	7.37247e+06	-39189.1	1005.82	-29794.7	0.000000	0.000000	7.133375	4.450501	NaN	0.000000	0.001690	0.001653	28.0812	5.088654	0.001790	2843.01	8.870502	6.303924	2.511183	1.131626	0.000377	-0.000998	4.450501	2843.01	-0.000797	-0.000587	-7585.73	NaN
758	2.000000	1.138541	7.37247e+06	-39189.1	1005.82	-29794.7	0.000000	0.000000	7.139178	10.8185	NaN	0.000000	0.001646	0.001641	28.0815	9.104378	0.001530	5949.42	5.150963	-174.043	9.844489	1.138196	0.005918	0.005572	10.8185	5949.42	0.004554	0.003730	2900.48	89001.9
758	2.000000	1.140998	7.37247e+06	-39189.1	1005.82	-29794.7	0.000000	0.000000	7.141807	15.0169	NaN	0.000000	0.001638	0.001713	28.0813	12.2582	0.001824	6720.6	4.137393	6.471533	13.6254	1.140647	0.008375	0.008024	15.0169	6720.6	0.006699	0.005738	2617.13	81059.5
758	2.000000	1.143480	7.37247e+06	-39189.1	1005.82	-29794.7	0.000000	0.000000	7.144397	17.65	NaN	0.000000	0.001638	0.001661	28.0814	15.4076	0.001799	8566.3	8.446536	-179.373	17.3477	1.143251	0.010856	0.010627	17.65	8566.3	0.009311	0.008426	2094.83	85264.5
758	2.000000	1.145993	7.37247e+06	-39189.1	1005.82	-29794.7	0.000000	0.000000	7.147160	23.7176	NaN	0.000000	0.001622	0.001733	28.0814	17.6289	0.001916	9203	4.840587	4.765379	22.0998	1.145667	0.013370	0.013043	23.7176	9203	0.011437	0.010823	2191.48	80823.2
758	2.000000	1.148493	7.37247e+06	-39189.1	1005.82	-29794.7	0.000000	0.000000	7.149822	27.6578	NaN	0.000000	0.001599	0.001665	28.0816	19.9314	0.001894	10524.6	5.937999	-176.806	27.784	1.148152	0.015870	0.015528	27.6578	10524.6	0.013899	0.013845	1997.71	81721.7
758	2.000000	1.150976	7.37247e+06	-39189.1	1005.82	-29794.7	0.000000	0.000000	7.152533	33.2276	NaN	0.000000	0.001631	0.001689	28.0816	22.7209	0.001855	12246.1	8.263085	0.446367	34.3393	1.150603	0.018352	0.017979	33.2276	12246.1	0.016317	0.017082	1945.14	85604.5
758	2.000000	1.153474	7.37247e+06	-39189.1	1005.82	-29794.7	0.000000	0.000000	7.155234	38.1571	NaN	0.000000	0.001628	0.001658	28.0812	24.7756	0.001827	13557.6	2.037849	-174.974	38.044	1.153127	0.020850	0.020503	38.1571	13557.6	0.018739	0.020600	1852.3	86302.8
758	2.000000	1.155932	7.37247e+06	-39189.1	1005.82	-29794.7	0.000000	0.000000	7.158018	46.078	NaN	0.000000	0.001624	0.001660	28.0814	26.8315	0.001898	14139.1	5.074044	2.908419	43.4928	1.155577	0.023309	0.022953	46.078	14139.1	0.020864	0.023919	1926.44	83526.9
758	2.000000	1.158479	7.37247e+06	-39189.1	1005.82	-29794.7	0.000000	0.000000	7.160850	53.035	NaN	0.000000	0.001640	0.001727	28.0814	29.9017	0.001854	16132.3	7.989692	177.644	53.183	1.158089	0.025855	0.025465	53.035	16132.3	0.023390	0.028151	1883.96	87846.5
758	2.000000	1.160932	7.37247e+06	-39189.1	1005.82	-29794.7	0.000000	0.000000	7.163675	62.094	NaN	0.000000	0.001606	0.001695	28.0817	31.4688	0.001828	17215.6	4.641389	0.806412	59.6904	1.160570	0.028308	0.027947	62.094	17215.6	0.025603	0.032122	1933.08	87759.7
758	2.000000	1.163470	7.37247e+06	-39189.1	1005.82	-29794.7	0.000000	0.000000	7.166457	68.0169	NaN	0.000000	0.001591	0.001674	28.0815	34.0928	0.001810	18833.9	3.705686	-179.892	68.4904	1.163150	0.030846	0.030526	68.0169	18833.9	0.028137	0.036972	1839.7	89490.8
758	2.000000	1.165927	7.37247e+06	-39189.1	1005.82	-29794.7	0.000000	0.000000	7.169288	77.1142	NaN	0.000000	0.001592	0.001688	28.0815	36.3304	0.001773	20487.7	8.108444	-4.518977	76.3859	1.165567	0.033304	0.032944	77.1142	20487.7	0.030481	0.041746	1847.23	91613.6
758	2.000000	1.168420	7.37247e+06	-39189.1	1005.82	-29794.7	0.000000	0.000000	7.172085	84.517	NaN	0.000000	0.001593	0.001674	28.0805	38.1636	0.001682	22687	5.723069	175.935	83.135	1.168011	0.035796	0.035388	84.517	22687	0.033002	0.047197	1790.74	95410.1
758	2.000000	1.170872	7.37247e+06	-39189.1	1005.82	-29794.7	0.000000	0.000000	7.174870	92.6241	NaN	0.000000	0.001667	0.001625	28.0803	41.7989	0.001848	22615.7	3.399705	-1.301026	88.2958	1.170563	0.038248	0.037939	92.6241	22615.7	0.035176	0.052157	1775.86	90474.4
758	2.000000	1.173385	7.37247e+06	-39189.1	1005.82	-29794.7	0.000000	0.000000	7.177728	101.032	NaN	0.000000	0.001609	0.001663	28.0804	44.3818	0.001766	25124.8	5.271726	175.938	99.4792	1.173061	0.040761	0.040437	101.032	25124.8	0.037745	0.058331	1732.04	95044.3
758	2.000000	1.176004	7.37247e+06	-39189.1	1005.82	-29794.7	0.000000	0.000000	7.180861	113.507	NaN	0.000000	0.001619	0.001698	28.0803	47.035	0.001755	26794.2	8.168553	-6.639371	114.862	1.175480	0.043381	0.042856	113.507	26794.2	0.040204	0.064556	1758.29	96349.1
758	2.000000	1.178402	7.37247e+06	-39189.1	1005.82	-29794.7	0.000000	0.000000	7.183521	119.887	NaN	0.000000	0.001624	0.001663	28.0804	49.1116	0.001949	25201.6	6.399059	175.248	119.499	1.178085	0.045778	0.045461	119.887	25201.6	0.042211	0.069866	1715.95	87110.1
758	2.000000	1.180932	7.37247e+06	-39189.1	1005.82	-29794.7	0.000000	0.000000	7.186369	127.633	NaN	0.000000	0.001629	0.001697	28.08	52.134	0.001987	26238.1	4.106784	-3.525753	125.478	1.180554	0.048308	0.047931	127.633	26238.1	0.044660	0.076625	1665.7	86600.5
758	2.000000	1.183411	7.37247e+06	-39189.1	1005.82	-29794.7	0.000000	0.000000	7.189249	137.418	NaN	0.000000	0.001671	0.001670	28.08	53.416	0.001789	29864.5	3.722534	176.055	137.33	1.183064	0.050787	0.050441	137.418	29864.5	0.047336	0.084357	1629	93943.7
758	2.000000	1.185920	7.37247e+06	-39189.1	1005.82	-29794.7	0.000000	0.000000	7.192405	153.145	NaN	0.000000	0.001659	0.001652	28.0801	55.1265	0.001812	30414.7	6.491724	-6.191219	151.833	1.185461	0.053296	0.052837	153.145	30414.7	0.049520	0.090934	1684.13	92149.7
758	2.000000	1.188394	7.37247e+06	-39189.1	1005.82	-29794.7	0.000000	0.000000	7.195015	156.44	NaN	0.000000	0.001623	0.001617	28.0798	57.0058	0.001747	32632.1	7.428132	171.149	155.438	1.188061	0.055771	0.055437	156.44	32632.1	0.052175	0.099255	1576.14	94632.9
758	2.000000	1.190949	7.37247e+06	-39189.1	1005.82	-29794.7	0.000000	0.000000	7.197731	160.366	NaN	0.000000	0.001593	0.001645	28.0799	59.1319	0.001871	31606.6	2.977455	-3.869614	160.172	1.190707	0.058326	0.058083	160.366	31606.6	0.054521	0.106896	1500.2	88322.3
758	2.000000	1.193393	7.37247e+06	-39189.1	1005.82	-29794.7	0.000000	0.000000	7.201023	181.026	NaN	0.000000	0.001592	0.001691	28.0801	61.1395	0.001827	33468.2	2.131977	176.671	177.987	1.192962	0.060769	0.060339	181.026	33468.2	0.056712	0.114284	1584.01	90451.1
758	2.000000	1.195957	7.37247e+06	-39189.1	1005.82	-29794.7	0.000000	0.000000	7.203787	185.875	NaN	0.000000	0.001606	0.001663	28.0801	63.8335	0.001904	33523.8	8.746877	-9.187817	186.117	1.195512	0.063333	0.062889	185.875	33523.8	0.059175	0.122867	1512.82	87379.5
758	2.000000	1.198407	7.37247e+06	-39189.1	1005.82	-29794.7	0.000000	0.000000	7.206648	195.872	NaN	0.000000	0.001595	0.001680	28.0802	65.4681	0.001791	36553.6	5.381275	172.397	196.821	1.198109	0.065783	0.065486	195.872	36553.6	0.061764	0.132211	1481.51	91847.9
758	2.000000	1.200920	7.37247e+06	-39189.1	1005.82	-29794.7	0.000000	0.000000	7.209924	214.462	NaN	0.000000	0.001593	0.001639	28.0808	67.3917	0.001887	35711.9	4.459432	-5.752552	213.996	1.200614	0.068296	0.067990	214.462	35711.9	0.063792	0.139756	1534.54	87277.4
758	2.000000	1.203350	7.37247e+06	-39189.1	1005.82	-29794.7	0.000000	0.000000	7.212440	216.524	NaN	0.000000	0.001589	0.001677	28.0814	69.6536	0.001949	35729.7	3.918380	174.581	214.417	1.203164	0.070727	0.070540	216.524	35729.7	0.066181	0.148902	1454.13	84596.3
758	2.000000	1.205796	7.37247e+06	-39189.1	1005.82	-29794.7	0.000000	0.000000	7.215820	239.256	NaN	0.000000	0.001600	0.001644	28.0815	71.2304	0.001703	41821.7	5.099648	-7.692950	232.979	1.205487	0.073173	0.072863	239.256	41821.7	0.068882	0.159571	1499.37	95653
758	2.000000	1.208368	7.37247e+06	-39189.1	1005.82	-29794.7	0.000000	0.000000	7.219108	256.68	NaN	0.000000	0.001629	0.001631	28.0813	72.3965	0.001627	44497.3	6.267594	170.449	255.161	1.208082	0.075744	0.075458	256.68	44497.3	0.071418	0.169905	1510.73	98629
758	2.000000	1.210886	7.37247e+06	-39189.1	1005.82	-29794.7	0.000000	0.000000	7.222100	268.229	NaN	0.000000	0.001597	0.001659	28.0816	76.0419	0.001788	42532.4	4.597881	-7.069901	265.88	1.210460	0.078262	0.077836	268.229	42532.4	0.073532	0.178753	1500.56	91910.9
758	2.000000	1.213317	7.37247e+06	-39189.1	1005.82	-29794.7	0.000000	0.000000	7.225042	280.669	NaN	0.000000	0.001573	0.001676	28.0816	79.7691	0.001624	49122.5	8.365912	167.399	277.424	1.213119	0.080693	0.080496	280.669	49122.5	0.076408	0.191127	1468.49	102658
758	2.000000	1.215884	7.37247e+06	-39189.1	1005.82	-29794.7	0.000000	0.000000	7.228190	294.776	NaN	0.000000	0.001586	0.001685	28.0816	81.4333	0.001759	46308	5.896842	-9.324606	292.457	1.215502	0.083261	0.082878	294.776	46308	0.078487	0.200314	1471.57	94531
758	2.000000	1.218380	7.37247e+06	-39189.1	1005.82	-29794.7	0.000000	0.000000	7.231417	312.578	NaN	0.000000	0.001577	0.001688	28.0815	83.5491	0.001787	46754.4	4.816321	171.452	311.963	1.217971	0.085757	0.085348	312.578	46754.4	0.080743	0.210512	1484.84	93101.5
758	2.000000	1.220882	7.37247e+06	-39189.1	1005.82	-29794.7	0.000000	0.000000	7.234642	330.161	NaN	0.000000	0.001584	0.001704	28.083	86.1913	0.001871	46072.4	3.098508	-6.458052	329.297	1.220656	0.088259	0.088032	330.161	46072.4	0.082884	0.220412	1497.93	89659.6
758	2.000000	1.223307	7.37247e+06	-39189.1	1005.82	-29794.7	0.000000	0.000000	7.237915	350.818	NaN	0.000000	0.001600	0.001705	28.0818	87.7917	0.001773	49516.4	3.397268	172.275	348.116	1.223088	0.090683	0.090464	350.818	49516.4	0.085370	0.232168	1511.06	93890.3
758	2.000000	1.225851	7.37247e+06	-39189.1	1005.82	-29794.7	0.000000	0.000000	7.241324	371.867	NaN	0.000000	0.001661	0.001695	28.0818	89.3164	0.001797	49706.8	2.544866	-6.492488	368.703	1.225450	0.093227	0.092827	371.867	49706.8	0.087616	0.243041	1530.06	92119.1
758	2.000000	1.228237	7.37247e+06	-39189.1	1005.82	-29794.7	0.000000	0.000000	7.244597	393.468	NaN	0.000000	0.001648	0.001705	28.0814	91.9066	0.001842	49889.9	3.155471	172.665	388.344	1.228039	0.095613	0.095415	393.468	49889.9	0.089698	0.253321	1553.24	90562.8
758	2.000000	1.230791	7.37247e+06	-39189.1	1005.82	-29794.7	0.000000	0.000000	7.247679	406.282	NaN	0.000000	0.001605	0.001666	28.0817	93.2214	0.001825	51068.2	4.652416	-9.190574	399.646	1.230461	0.098168	0.097837	406.282	51068.2	0.092201	0.265946	1527.69	90474.8
758	2.000000	1.233364	7.37248e+06	-39189.1	1005.82	-29794.7	0.000000	0.000000	7.251576	438.518	NaN	0.000000	0.001592	0.001680	28.0814	95.6444	0.001740	54979.7	5.308146	170.062	438.748	1.233024	0.100740	0.100401	438.518	54979.7	0.094758	0.279142	1570.95	95074.2
758	2.000000	1.235294	7.37248e+06	-39189.1	1005.82	-29794.7	0.000000	0.000000	7.254187	455.072	NaN	0.000000	0.001612	0.001701	28.0803	95.2449	0.001748	54490.7	3.069558	172.45	450.666	1.234973	0.102671	0.102350	455.072	54490.7	0.096407	0.287808	1581.16	92799.1