File: remote_trans/data/nanoindenter/0828-1/data/Data_2025-08-06,11h17m57s/2025-07-22_16-23-58_1_14.txt
2025-07-22, 16:23:58, 1
Index	Phase	Displacement	Time	Pos X	Pos Y	Pos Z	Rot A	Rot B	Piezo Z	Force A	Force B	Gripper	Voltage A	Voltage B	Temperature	Amplitude force	Amplitude pos	Stiffness	Phase shift	Phase excitation	Force A raw	Displacement raw	HMax	HMax raw	Real Force	Real Stiffness	Contact Depth	Area	Hardness	Reduced Mod.
[#]	[#]	[um]	[s]	[um]	[um]	[um]	[m°]	[m°]	[um]	[uN]	[uN]	[V]	[V]	[V]	[°C]	[uN]	[um]	[N/m]	[°]	[°]	[uN]	[um]	[um]	[um]	[uN]	[N/m]	[um]	[um^2]	[MPa]	[MPa]
14	1.000000	0.001902	7.36518e+06	-39339.1	955.818	-29794.9	0.000000	0.000000	6.002739	-0.052748	NaN	0.000000	0.001607	0.001827	28.1311	0.086500	0.000951	90.9793	-150.105	178.455	-0.020947	0.000687	-1.008575	-1.009790	-0.052748	90.9793	-1.008140	-2.919797E+13	1.806554E-15	NaN
14	1.000000	0.009866	7.36518e+06	-39339.1	955.818	-29794.9	0.000000	0.000000	6.010706	0.019423	NaN	0.000000	0.001575	0.001835	28.1299	0.051803	0.000942	55.0108	-32.1265	178.885	0.066737	0.008550	-1.000611	-1.001927	0.019423	55.0108	-1.000876	-2.331100E+13	-8.332031E-16	NaN
14	1.000000	0.017867	7.36518e+06	-39339.1	955.818	-29794.9	0.000000	0.000000	6.018705	-0.024626	NaN	0.000000	0.001570	0.001811	28.1299	0.054668	0.001724	31.7038	-93.1534	-179.469	-0.036948	0.016487	-0.992610	-0.993990	-0.024626	31.7038	-0.992028	-1.771811E+13	1.389898E-15	NaN
14	1.000000	0.025879	7.36518e+06	-39339.1	955.819	-29794.9	0.000000	0.000000	6.026717	-0.017601	NaN	0.000000	0.001593	0.001792	28.1315	0.070378	0.001817	38.7331	-170.506	177.454	-0.033289	0.024541	-0.984599	-0.985937	-0.017601	38.7331	-0.984258	-1.392428E+13	1.264068E-15	NaN
14	1.000000	0.033853	7.36518e+06	-39339.1	955.818	-29794.9	0.000000	0.000000	6.034693	0.021868	NaN	0.000000	0.001577	0.001821	28.1308	0.049137	0.001928	25.4836	125.137	177.445	0.072064	0.032540	-0.976624	-0.977938	0.021868	25.4836	-0.977268	-1.120983E+13	-1.950762E-15	NaN
14	1.000000	0.041860	7.36518e+06	-39339.1	955.817	-29794.9	0.000000	0.000000	6.042698	-0.034047	NaN	0.000000	0.001505	0.001798	28.1322	0.113199	0.002025	55.9012	-164.737	-179.777	-0.038125	0.040582	-0.968617	-0.969895	-0.034047	55.9012	-0.968161	-8.450303E+12	4.029107E-15	NaN
14	1.000000	0.049830	7.36518e+06	-39339.1	955.818	-29794.9	0.000000	0.000000	6.050668	-0.034729	NaN	0.000000	0.001496	0.001804	28.1322	0.044728	0.001962	22.8026	101.498	174.298	0.027357	0.048576	-0.960647	-0.961902	-0.034729	22.8026	-0.959505	-6.459463E+12	5.376418E-15	NaN
14	1.000000	0.057848	7.36518e+06	-39339.1	955.817	-29794.9	0.000000	0.000000	6.058686	-0.025679	NaN	0.000000	0.001539	0.001805	28.1319	0.013997	0.002020	6.928598	-13.0116	177.745	0.031857	0.056562	-0.952629	-0.953915	-0.025679	6.928598	-0.949850	-4.786283E+12	5.365151E-15	NaN
14	1.000000	0.065861	7.36518e+06	-39339.1	955.818	-29794.9	0.000000	0.000000	6.066704	0.093311	NaN	0.000000	0.001524	0.001773	28.1312	0.032724	0.001974	16.5736	160.551	176.447	0.085832	0.064542	-0.944616	-0.945936	0.093311	16.5736	-0.948839	-4.638385E+12	-2.011719E-14	NaN
14	1.000000	0.073849	7.36518e+06	-39339.1	955.818	-29794.9	0.000000	0.000000	6.074686	-0.045621	NaN	0.000000	0.001535	0.001806	28.1307	0.073009	0.001939	37.6454	152.975	173.989	-0.060437	0.072583	-0.936628	-0.937894	-0.045621	37.6454	-0.935720	-3.085909E+12	1.478359E-14	NaN
14	1.000000	0.081849	7.36518e+06	-39339.1	955.818	-29794.9	0.000000	0.000000	6.082687	-0.001916	NaN	0.000000	0.001555	0.001805	28.1316	0.024348	0.002034	11.9711	39.2315	178.167	-0.046361	0.080551	-0.928629	-0.929927	-0.001916	11.9711	-0.928509	-2.466438E+12	7.768063E-16	NaN
14	1.000000	0.089877	7.36518e+06	-39339.1	955.819	-29794.9	0.000000	0.000000	6.090716	-0.002307	NaN	0.000000	0.001529	0.001838	28.1316	0.028876	0.002046	14.1131	-131.582	175.912	0.024959	0.088518	-0.920600	-0.921959	-0.002307	14.1131	-0.920478	-1.921570E+12	1.200453E-15	NaN
14	1.000000	0.097860	7.36518e+06	-39339.1	955.818	-29794.9	0.000000	0.000000	6.098698	-0.010730	NaN	0.000000	0.001533	0.001836	28.1313	0.071941	0.002090	34.4184	-37.0693	170.791	-0.057432	0.096559	-0.912617	-0.913919	-0.010730	34.4184	-0.912384	-1.494022E+12	7.181732E-15	NaN
14	1.000000	0.105864	7.36518e+06	-39339.1	955.818	-29794.9	0.000000	0.000000	6.106704	0.016790	NaN	0.000000	0.001582	0.001791	28.1325	0.186249	0.002102	88.5919	-22.3383	178.58	0.049469	0.104547	-0.904613	-0.905931	0.016790	88.5919	-0.904755	-1.178457E+12	-1.424733E-14	NaN
14	1.000000	0.113883	7.36518e+06	-39339.1	955.818	-29794.9	0.000000	0.000000	6.114720	-0.040322	NaN	0.000000	0.001534	0.001789	28.1322	0.058200	0.002047	28.4344	-9.091025	176.611	-0.019673	0.112556	-0.896595	-0.897921	-0.040322	28.4344	-0.895531	-8.844554E+11	4.558930E-14	NaN
14	1.000000	0.121904	7.36518e+06	-39339.1	955.817	-29794.9	0.000000	0.000000	6.122744	0.017024	NaN	0.000000	0.001550	0.001810	28.1325	0.082919	0.002075	39.9648	-153.645	173.795	0.082797	0.120529	-0.888573	-0.889948	0.017024	39.9648	-0.888893	-7.193627E+11	-2.366586E-14	NaN
14	1.000000	0.129880	7.36518e+06	-39339.1	955.818	-29794.9	0.000000	0.000000	6.130718	-0.005132	NaN	0.000000	0.001549	0.001847	28.1326	0.021444	0.001913	11.2081	-124.525	177.212	0.051766	0.128537	-0.880598	-0.881940	-0.005132	11.2081	-0.880254	-5.497305E+11	9.335678E-15	NaN
14	1.000000	0.137907	7.36518e+06	-39339.1	955.818	-29794.9	0.000000	0.000000	6.138742	-0.081723	NaN	0.000000	0.001531	0.001829	28.1323	0.080137	0.001925	41.6275	-70.3124	176.853	-0.112269	0.136643	-0.872571	-0.873835	-0.081723	41.6275	-0.871099	-4.133387E+11	1.977152E-13	NaN
14	1.000000	0.145865	7.36518e+06	-39339.1	955.818	-29794.9	0.000000	0.000000	6.146703	-0.033766	NaN	0.000000	0.001555	0.001822	28.1308	0.038003	0.002030	18.7244	152.018	-179.741	-0.035028	0.144587	-0.864612	-0.865890	-0.033766	18.7244	-0.863260	-3.237712E+11	1.042896E-13	NaN
14	1.000000	0.153901	7.36518e+06	-39339.1	955.818	-29794.9	0.000000	0.000000	6.154739	-0.026955	NaN	0.000000	0.001519	0.001816	28.1307	0.041872	0.001967	21.2911	-146.909	178.382	-0.072102	0.152599	-0.856576	-0.857879	-0.026955	21.2911	-0.855627	-2.552250E+11	1.056114E-13	NaN
14	1.000000	0.161893	7.36518e+06	-39339.1	955.817	-29794.9	0.000000	0.000000	6.162732	0.016364	NaN	0.000000	0.001554	0.001789	28.1308	0.041176	0.002074	19.8519	-115.606	-177.748	0.014349	0.160583	-0.848585	-0.849895	0.016364	19.8519	-0.849203	-2.089038E+11	-7.833180E-14	NaN
14	1.000000	0.169883	7.36518e+06	-39339.1	955.818	-29794.9	0.000000	0.000000	6.170723	0.026003	NaN	0.000000	0.001541	0.001798	28.1313	0.082282	0.002032	40.4887	-170.023	176.55	-0.042222	0.168611	-0.840594	-0.841866	0.026003	40.4887	-0.841076	-1.621321E+11	-1.603788E-13	NaN
14	1.000000	0.177878	7.36518e+06	-39339.1	955.818	-29794.9	0.000000	0.000000	6.178716	-0.018819	NaN	0.000000	0.001533	0.001791	28.1304	0.108748	0.001909	56.9643	106.219	178.059	-0.042634	0.176586	-0.832600	-0.833892	-0.018819	56.9643	-0.832352	-1.234986E+11	1.523848E-13	NaN
14	1.000000	0.185900	7.36518e+06	-39339.1	955.818	-29794.9	0.000000	0.000000	6.186736	-0.078949	NaN	0.000000	0.001562	0.001816	28.131	0.026206	0.001949	13.4466	56.3568	178.328	-0.111089	0.184553	-0.824577	-0.825924	-0.078949	13.4466	-0.820174	-8.444370E+10	9.349290E-13	NaN
14	1.000000	0.193875	7.36518e+06	-39339.1	955.818	-29794.9	0.000000	0.000000	6.194713	-0.024348	NaN	0.000000	0.001541	0.001775	28.1308	0.097231	0.001944	50.0097	80.786	176.937	-0.065414	0.192582	-0.816602	-0.817895	-0.024348	50.0097	-0.816237	-7.467611E+10	3.260510E-13	NaN
14	1.000000	0.201943	7.36518e+06	-39339.1	955.818	-29794.9	0.000000	0.000000	6.202780	-0.043659	NaN	0.000000	0.001518	0.001778	28.1308	0.065082	0.002160	30.1304	-61.8265	177.257	-0.027713	0.200604	-0.808535	-0.809874	-0.043659	30.1304	-0.807448	-5.674745E+10	7.693585E-13	NaN
14	1.000000	0.209945	7.36518e+06	-39339.1	955.818	-29794.9	0.000000	0.000000	6.210784	-0.006909	NaN	0.000000	0.001513	0.001801	28.1309	0.052484	0.002036	25.78	108.563	178.738	-0.020133	0.208594	-0.800532	-0.801883	-0.006909	25.78	-0.800331	-4.543150E+10	1.520793E-13	NaN
14	1.000000	0.217921	7.36518e+06	-39339.1	955.818	-29794.9	0.000000	0.000000	6.218760	0.008173	NaN	0.000000	0.001494	0.001782	28.1305	0.073814	0.002027	36.4222	28.3321	175.79	-0.108555	0.216604	-0.792557	-0.793874	0.008173	36.4222	-0.792725	-3.581695E+10	-2.281994E-13	NaN
14	1.000000	0.225931	7.36518e+06	-39339.1	955.816	-29794.9	0.000000	0.000000	6.226767	-0.067639	NaN	0.000000	0.001507	0.001778	28.1299	0.055540	0.002032	27.3336	-60.6553	-179.831	0.028013	0.224599	-0.784547	-0.785878	-0.067639	27.3336	-0.782691	-2.616930E+10	2.584659E-12	NaN
14	1.000000	0.233939	7.36518e+06	-39339.1	955.818	-29794.9	0.000000	0.000000	6.234777	-0.012455	NaN	0.000000	0.001519	0.001792	28.13	0.041197	0.002092	19.6904	-55.2537	179.24	-0.024023	0.232602	-0.776539	-0.777875	-0.012455	19.6904	-0.776064	-2.126878E+10	5.856150E-13	NaN
14	1.000000	0.241950	7.36518e+06	-39339.1	955.818	-29794.9	0.000000	0.000000	6.242790	0.013202	NaN	0.000000	0.001494	0.001784	28.1295	0.030994	0.001971	15.7274	52.4441	178.816	0.042047	0.240644	-0.768527	-0.769834	0.013202	15.7274	-0.769157	-1.713321E+10	-7.705712E-13	NaN
14	1.000000	0.249938	7.36518e+06	-39339.1	955.818	-29794.9	0.000000	0.000000	6.250777	-0.003540	NaN	0.000000	0.001488	0.001796	28.1295	0.115915	0.001999	57.9726	163.495	177.949	-0.021076	0.248660	-0.760539	-0.761818	-0.003540	57.9726	-0.760493	-1.306214E+10	2.709908E-13	NaN
14	1.000000	0.257916	7.36518e+06	-39339.1	955.817	-29794.9	0.000000	0.000000	6.258756	0.034252	NaN	0.000000	0.001497	0.001790	28.1293	0.021649	0.001914	11.313	-21.5386	178.661	0.037378	0.256598	-0.752561	-0.753880	0.034252	11.313	-0.754832	-1.093920E+10	-3.131131E-12	NaN
14	1.000000	0.265942	7.36518e+06	-39339.1	955.818	-29794.9	0.000000	0.000000	6.266780	-0.010322	NaN	0.000000	0.001489	0.001840	28.1307	0.036417	0.001961	18.5664	-177.07	177.57	-0.061816	0.264632	-0.744536	-0.745846	-0.010322	18.5664	-0.744119	-7.818993E+9	1.320142E-12	NaN
14	1.000000	0.273948	7.36518e+06	-39339.1	955.818	-29794.9	0.000000	0.000000	6.274786	-0.025959	NaN	0.000000	0.001493	0.001825	28.1306	0.062195	0.001985	31.327	-91.5968	178.123	0.058116	0.272602	-0.736529	-0.737875	-0.025959	31.327	-0.735908	-6.043792E+9	4.295169E-12	NaN
14	1.000000	0.281944	7.36518e+06	-39339.1	955.817	-29795	0.000000	0.000000	6.282783	0.014730	NaN	0.000000	0.001475	0.001852	28.1303	0.036747	0.001978	18.5767	145.5	179.68	-0.000806	0.280644	-0.728534	-0.729834	0.014730	18.5767	-0.729129	-4.885745E+9	-3.014932E-12	NaN
14	1.000000	0.289938	7.36518e+06	-39339.1	955.819	-29795	0.000000	0.000000	6.290775	-0.039721	NaN	0.000000	0.001466	0.001874	28.1304	0.078042	0.002020	38.6436	-102.375	176.919	0.023628	0.288670	-0.720540	-0.721807	-0.039721	38.6436	-0.719769	-3.641824E+9	1.090698E-11	NaN
14	1.000000	0.297969	7.36518e+06	-39339.1	955.818	-29795	0.000000	0.000000	6.298807	-0.035853	NaN	0.000000	0.001489	0.001837	28.1304	0.064855	0.001969	32.9416	173.49	178.953	-0.073535	0.296587	-0.712508	-0.713890	-0.035853	32.9416	-0.711692	-2.825755E+9	1.268780E-11	NaN
14	1.000000	0.305980	7.36518e+06	-39339.1	955.818	-29795	0.000000	0.000000	6.306817	-0.041059	NaN	0.000000	0.001512	0.001860	28.1297	0.112441	0.002028	55.4546	76.2993	173.804	0.006171	0.304668	-0.704498	-0.705809	-0.041059	55.4546	-0.703942	-2.214937E+9	1.853736E-11	NaN
14	1.000000	0.313975	7.36518e+06	-39339.1	955.818	-29795	0.000000	0.000000	6.314812	-0.050029	NaN	0.000000	0.001503	0.001852	28.1306	0.101775	0.002046	49.7453	151.218	177.881	-0.025529	0.312669	-0.696502	-0.697809	-0.050029	49.7453	-0.695748	-1.711814E+9	2.922555E-11	NaN
14	1.000000	0.321933	7.36518e+06	-39339.1	955.819	-29795	0.000000	0.000000	6.322771	-0.012597	NaN	0.000000	0.001530	0.001823	28.1305	0.103672	0.001998	51.9005	-109.402	174.779	-0.024938	0.320666	-0.688545	-0.689811	-0.012597	51.9005	-0.688363	-1.356881E+9	9.283961E-12	NaN
14	1.000000	0.329959	7.36518e+06	-39339.1	955.819	-29795	0.000000	0.000000	6.330798	0.017870	NaN	0.000000	0.001549	0.001844	28.1304	0.103329	0.001957	52.7889	-149.184	-179.683	0.016908	0.328709	-0.680519	-0.681768	0.017870	52.7889	-0.680773	-1.068495E+9	-1.672485E-11	NaN
14	1.000000	0.337971	7.36518e+06	-39339.1	955.818	-29795	0.000000	0.000000	6.338808	-0.028510	NaN	0.000000	0.001547	0.001837	28.1305	0.040951	0.002021	20.2662	144.712	173.446	-0.081732	0.336669	-0.672507	-0.673808	-0.028510	20.2662	-0.671452	-7.966384E+8	3.578760E-11	NaN
14	1.000000	0.345978	7.36518e+06	-39339.1	955.818	-29795	0.000000	0.000000	6.346815	-0.048957	NaN	0.000000	0.001562	0.001873	28.1313	0.139268	0.002047	68.0428	-156.141	177.454	-0.058378	0.344683	-0.664499	-0.665795	-0.048957	68.0428	-0.663960	-6.290679E+8	7.782480E-11	NaN
14	1.000000	0.353992	7.36518e+06	-39339.1	955.818	-29795	0.000000	0.000000	6.354830	-0.017810	NaN	0.000000	0.001569	0.001816	28.1318	0.074742	0.001924	38.8548	-0.114130	178.499	-0.020302	0.352734	-0.656485	-0.657744	-0.017810	38.8548	-0.656142	-4.915987E+8	3.622848E-11	NaN
14	1.000000	0.361969	7.36518e+06	-39339.1	955.817	-29795	0.000000	0.000000	6.362807	-0.013533	NaN	0.000000	0.001525	0.001842	28.1318	0.041092	0.001947	21.1003	175.678	179.853	0.025936	0.360653	-0.648509	-0.649825	-0.013533	21.1003	-0.648028	-3.805352E+8	3.556208E-11	NaN
14	1.000000	0.369983	7.36518e+06	-39339.1	955.818	-29795	0.000000	0.000000	6.370821	-0.016620	NaN	0.000000	0.001512	0.001883	28.1315	0.099658	0.001943	51.2789	-55.4901	173.55	-0.013564	0.368633	-0.640495	-0.641845	-0.016620	51.2789	-0.640252	-2.976762E+8	5.583114E-11	NaN
14	1.000000	0.377984	7.36518e+06	-39339.1	955.818	-29795	0.000000	0.000000	6.378819	-0.090767	NaN	0.000000	0.001533	0.001825	28.1316	0.111933	0.002013	55.6031	15.8358	177.586	-0.147570	0.376641	-0.632494	-0.633837	-0.090767	55.6031	-0.631270	-2.241075E+8	4.050173E-10	NaN
14	1.000000	0.386011	7.36518e+06	-39339.1	955.818	-29795	0.000000	0.000000	6.386851	0.039610	NaN	0.000000	0.001519	0.001822	28.1303	0.100456	0.002090	48.0701	51.2094	178.596	0.084853	0.384679	-0.624467	-0.625799	0.039610	48.0701	-0.625085	-1.842926E+8	-2.149293E-10	NaN
14	1.000000	0.394002	7.36518e+06	-39339.1	955.818	-29795	0.000000	0.000000	6.394837	-0.089817	NaN	0.000000	0.001543	0.001862	28.1303	0.032905	0.002055	16.0086	90.5077	176.348	-0.077991	0.392660	-0.616476	-0.617818	-0.089817	16.0086	-0.612268	-1.228316E+8	7.312216E-10	NaN
14	1.000000	0.401966	7.36518e+06	-39339.1	955.817	-29795	0.000000	0.000000	6.402805	0.000370	NaN	0.000000	0.001524	0.001849	28.1303	0.103011	0.001969	52.3094	159.119	176.268	-0.000998	0.400688	-0.608511	-0.609789	0.000370	52.3094	-0.608517	-1.090697E+8	-3.389593E-12	NaN
14	1.000000	0.410044	7.36518e+06	-39339.1	955.818	-29795	0.000000	0.000000	6.410882	-0.025050	NaN	0.000000	0.001571	0.001833	28.1302	0.068263	0.001848	36.9357	-13.2312	179.826	-0.038568	0.408685	-0.600433	-0.601792	-0.025050	36.9357	-0.599924	-8.306544E+7	3.015682E-10	NaN
14	1.000000	0.418013	7.36518e+06	-39339.1	955.818	-29795	0.000000	0.000000	6.418851	-0.009968	NaN	0.000000	0.001539	0.001852	28.1304	0.057037	0.001932	29.5256	103.262	176.99	-0.024447	0.416634	-0.592465	-0.593843	-0.009968	29.5256	-0.592211	-6.503532E+7	1.532682E-10	NaN
14	1.000000	0.426006	7.36518e+06	-39339.1	955.818	-29795	0.000000	0.000000	6.426843	-0.054063	NaN	0.000000	0.001505	0.001831	28.1312	0.049868	0.002040	24.449	41.9111	176.73	-0.061562	0.424700	-0.584471	-0.585777	-0.054063	24.449	-0.582813	-4.825504E+7	1.120351E-9	NaN
14	1.000000	0.434000	7.36518e+06	-39339.1	955.819	-29795	0.000000	0.000000	6.434839	0.008114	NaN	0.000000	0.001526	0.001840	28.1313	0.092925	0.002086	44.5375	-52.1924	176.492	-0.014620	0.432690	-0.576478	-0.577787	0.008114	44.5375	-0.576615	-3.962705E+7	-2.047519E-10	NaN
14	1.000000	0.442013	7.36518e+06	-39339.1	955.818	-29795	0.000000	0.000000	6.442853	0.027595	NaN	0.000000	0.001577	0.001827	28.1314	0.083424	0.001898	43.9431	-45.4858	175.994	0.008808	0.440705	-0.568465	-0.569772	0.027595	43.9431	-0.568936	-3.104027E+7	-8.890138E-10	NaN
14	1.000000	0.450010	7.36518e+06	-39339.1	955.818	-29795	0.000000	0.000000	6.450848	-0.014675	NaN	0.000000	0.001530	0.001843	28.1306	0.077950	0.001991	39.143	-113.995	176.656	0.000974	0.448708	-0.560468	-0.561770	-0.014675	39.143	-0.560187	-2.349411E+7	6.246271E-10	NaN
14	1.000000	0.458011	7.36518e+06	-39339.1	955.819	-29795	0.000000	0.000000	6.458849	-0.034041	NaN	0.000000	0.001540	0.001876	28.1308	0.096180	0.001870	51.4394	89.621	-179.158	-0.045066	0.456717	-0.552466	-0.553761	-0.034041	51.4394	-0.551970	-1.808167E+7	1.882630E-9	NaN
14	1.000000	0.466020	7.36518e+06	-39339.1	955.818	-29795	0.000000	0.000000	6.466858	-0.031510	NaN	0.000000	0.001578	0.001818	28.129	0.106339	0.002045	51.9976	-6.413019	178.696	-0.055811	0.464717	-0.544457	-0.545761	-0.031510	51.9976	-0.544003	-1.402357E+7	2.246920E-9	NaN
14	1.000000	0.474032	7.36518e+06	-39339.1	955.818	-29795	0.000000	0.000000	6.474870	-0.034699	NaN	0.000000	0.001534	0.001809	28.129	0.055710	0.002092	26.6339	153.669	177.051	0.078997	0.472757	-0.536445	-0.537720	-0.034699	26.6339	-0.535468	-1.067784E+7	3.249617E-9	NaN
14	1.000000	0.482010	7.36518e+06	-39339.1	955.817	-29795	0.000000	0.000000	6.482849	0.013989	NaN	0.000000	0.001531	0.001787	28.1292	0.038799	0.001988	19.5128	-158.176	178.016	0.068249	0.480688	-0.528468	-0.529789	0.013989	19.5128	-0.529005	-8.6848e+06	-1.610779E-9	NaN
14	1.000000	0.490041	7.36518e+06	-39339.1	955.817	-29795	0.000000	0.000000	6.490879	-0.008152	NaN	0.000000	0.001587	0.001801	28.1287	0.115169	0.002073	55.5701	-1.827248	174.571	-0.007399	0.488763	-0.520437	-0.521714	-0.008152	55.5701	-0.520327	-6.57876e+06	1.239108E-9	NaN
14	1.000000	0.498037	7.36518e+06	-39339.1	955.818	-29795	0.000000	0.000000	6.498877	0.027614	NaN	0.000000	0.001540	0.001821	28.1288	0.147805	0.002023	73.0743	-134.834	177.764	-0.026391	0.496775	-0.512441	-0.513702	0.027614	73.0743	-0.512724	-5.15643e+06	-5.355248E-9	NaN
14	1.000000	0.506039	7.36518e+06	-39339.1	955.818	-29795	0.000000	0.000000	6.506877	-0.008905	NaN	0.000000	0.001567	0.001823	28.13	0.082292	0.002073	39.6939	88.8168	176.021	-0.024114	0.504708	-0.504439	-0.505770	-0.008905	39.6939	-0.504270	-3.93163e+06	2.264958E-9	NaN
14	1.000000	0.514051	7.36518e+06	-39339.1	955.818	-29795	0.000000	0.000000	6.514891	0.028155	NaN	0.000000	0.001559	0.001819	28.1302	0.106509	0.002098	50.7664	-12.7092	175.132	0.035054	0.512703	-0.496426	-0.497775	0.028155	50.7664	-0.496842	-3.09706e+06	-9.090847E-9	NaN
14	1.000000	0.522041	7.36518e+06	-39339.1	955.818	-29795	0.000000	0.000000	6.522881	0.038463	NaN	0.000000	0.001540	0.001784	28.1298	0.052481	0.002077	25.2711	47.1942	176.24	0.054311	0.520701	-0.488437	-0.489777	0.038463	25.2711	-0.489578	-2.45187e+06	-1.568735E-8	NaN
14	1.000000	0.530054	7.36518e+06	-39339.1	955.818	-29795	0.000000	0.000000	6.530896	0.083685	NaN	0.000000	0.001541	0.001775	28.13	0.082114	0.002088	39.3249	63.7346	174.29	-0.006541	0.528738	-0.480424	-0.481740	0.083685	39.3249	-0.482020	-1.92218e+06	-4.353651E-8	NaN
14	1.000000	0.538085	7.36518e+06	-39339.1	955.818	-29795	0.000000	0.000000	6.538923	-0.005039	NaN	0.000000	0.001528	0.001824	28.1298	0.024169	0.001961	12.3278	-96.133	-179.224	0.011637	0.536750	-0.472393	-0.473728	-0.005039	12.3278	-0.472086	-1.39528e+06	3.611535E-9	NaN
14	1.000000	0.546054	7.36518e+06	-39339.1	955.819	-29795	0.000000	0.000000	6.546892	-0.011149	NaN	0.000000	0.001583	0.001810	28.1283	0.062871	0.001893	33.2081	27.169	179.959	0.003870	0.544767	-0.464423	-0.465711	-0.011149	33.2081	-0.464172	-1.08048e+06	1.031861E-8	NaN
14	1.000000	0.554064	7.36518e+06	-39339.1	955.818	-29795	0.000000	0.000000	6.554904	0.029474	NaN	0.000000	0.001561	0.001789	28.1289	0.092647	0.001992	46.5165	35.7142	174.739	0.019377	0.552754	-0.456414	-0.457723	0.029474	46.5165	-0.456889	-853667	-3.452620E-8	NaN
14	1.000000	0.562067	7.36518e+06	-39339.1	955.817	-29795	0.000000	0.000000	6.562904	-0.058884	NaN	0.000000	0.001555	0.001828	28.1289	0.053689	0.001928	27.8412	-5.403279	177.333	-0.116160	0.560776	-0.448410	-0.449702	-0.058884	27.8412	-0.446824	-616032	9.558620E-8	NaN
14	1.000000	0.570082	7.36518e+06	-39339.1	955.818	-29795	0.000000	0.000000	6.570922	0.044260	NaN	0.000000	0.001575	0.001843	28.1287	0.036965	0.001960	18.8589	122.681	178.01	-0.011361	0.568709	-0.440396	-0.441769	0.044260	18.8589	-0.442156	-529401	-8.360393E-8	NaN
14	1.000000	0.578080	7.36518e+06	-39339.1	955.817	-29795	0.000000	0.000000	6.578919	0.001920	NaN	0.000000	0.001580	0.001806	28.1287	0.074977	0.002022	37.0727	99.0382	176.695	0.056162	0.576742	-0.432397	-0.433736	0.001920	37.0727	-0.432436	-385934	-4.975231E-9	NaN
14	1.000000	0.586090	7.36518e+06	-39339.1	955.818	-29795	0.000000	0.000000	6.586928	-0.015734	NaN	0.000000	0.001576	0.001813	28.1303	0.150735	0.001938	77.765	-155.686	175.75	0.044770	0.584734	-0.424388	-0.425743	-0.015734	77.765	-0.424236	-295433	5.325696E-8	NaN
14	1.000000	0.594082	7.36518e+06	-39339.1	955.818	-29795	0.000000	0.000000	6.594918	-0.072001	NaN	0.000000	0.001591	0.001827	28.1307	0.018226	0.001967	9.265534	68.5782	178.301	-0.002517	0.592736	-0.416396	-0.417742	-0.072001	9.265534	-0.410568	-189004	3.809490E-7	NaN
14	1.000000	0.602100	7.36518e+06	-39339.1	955.819	-29795	0.000000	0.000000	6.602939	-0.007983	NaN	0.000000	0.001563	0.001799	28.1309	0.035338	0.002018	17.5127	-28.3391	175.208	-0.010354	0.600788	-0.408377	-0.409690	-0.007983	17.5127	-0.408036	-173963	4.589132E-8	NaN
14	1.000000	0.610076	7.36518e+06	-39339.1	955.818	-29795	0.000000	0.000000	6.610917	0.054541	NaN	0.000000	0.001536	0.001818	28.1306	0.059557	0.001898	31.3827	21.3318	-179.724	-0.002095	0.608761	-0.400402	-0.401716	0.054541	31.3827	-0.401705	-141354	-3.858501E-7	NaN
14	1.000000	0.618100	7.36518e+06	-39339.1	955.818	-29795	0.000000	0.000000	6.618941	0.055482	NaN	0.000000	0.001551	0.001809	28.1307	0.049136	0.002031	24.1888	103.141	178.305	0.063174	0.616752	-0.392377	-0.393725	0.055482	24.1888	-0.394097	-110089	-5.039798E-7	NaN
14	1.000000	0.626086	7.36518e+06	-39339.1	955.818	-29795	0.000000	0.000000	6.626925	0.011385	NaN	0.000000	0.001544	0.001814	28.1303	0.062696	0.002097	29.9039	54.2297	179.031	-0.020882	0.624772	-0.384392	-0.385706	0.011385	29.9039	-0.384678	-80717.1	-1.410514E-7	NaN
14	1.000000	0.634119	7.36518e+06	-39339.1	955.818	-29795	0.000000	0.000000	6.634959	0.029044	NaN	0.000000	0.001547	0.001793	28.1295	0.159021	0.002041	77.9124	177.523	171.946	0.073142	0.632769	-0.376359	-0.377709	0.029044	77.9124	-0.376638	-61889.6	-4.692933E-7	NaN
14	1.000000	0.642089	7.36518e+06	-39339.1	955.818	-29795	0.000000	0.000000	6.642928	-0.002499	NaN	0.000000	0.001553	0.001806	28.1298	0.064715	0.002094	30.9112	-137.601	177.251	-0.014599	0.640839	-0.368388	-0.369639	-0.002499	30.9112	-0.368327	-46993	5.316835E-8	NaN
14	1.000000	0.650092	7.36518e+06	-39339.1	955.818	-29795	0.000000	0.000000	6.650933	0.054496	NaN	0.000000	0.001515	0.001791	28.13	0.090247	0.002086	43.2724	-158.33	177.12	0.004411	0.648804	-0.360385	-0.361673	0.054496	43.2724	-0.361330	-37244.6	-1.463189E-6	NaN
14	1.000000	0.658102	7.36518e+06	-39339.1	955.818	-29795	0.000000	0.000000	6.658941	-0.008103	NaN	0.000000	0.001522	0.001819	28.1296	0.046223	0.001852	24.9597	89.9479	176.088	-0.037405	0.656768	-0.352375	-0.353710	-0.008103	24.9597	-0.352132	-27411.1	2.956168E-7	NaN
14	1.000000	0.666119	7.36518e+06	-39339.1	955.818	-29795	0.000000	0.000000	6.666955	-0.075548	NaN	0.000000	0.001565	0.001806	28.1308	0.058429	0.001931	30.2564	84.1327	179.718	-0.050483	0.664765	-0.344359	-0.345713	-0.075548	30.2564	-0.342486	-19850.4	3.805846E-6	NaN
14	1.000000	0.674101	7.36518e+06	-39339.1	955.817	-29795	0.000000	0.000000	6.674942	0.040543	NaN	0.000000	0.001575	0.001785	28.1306	0.081439	0.001884	43.2221	-127.903	177.799	0.045637	0.672804	-0.336376	-0.337674	0.040543	43.2221	-0.337080	-16556	-2.448849E-6	NaN
14	1.000000	0.682118	7.36518e+06	-39339.1	955.818	-29795	0.000000	0.000000	6.682955	-0.032421	NaN	0.000000	0.001547	0.001813	28.131	0.034583	0.001968	17.5771	25.5084	175.558	-0.134808	0.680797	-0.328360	-0.329680	-0.032421	17.5771	-0.326976	-11779.8	2.752273E-6	NaN
14	1.000000	0.690122	7.36518e+06	-39339.1	955.818	-29795	0.000000	0.000000	6.690964	0.058732	NaN	0.000000	0.001568	0.001790	28.1306	0.064302	0.001926	33.3944	-27.5603	178.301	-0.014616	0.688781	-0.320355	-0.321696	0.058732	33.3944	-0.321674	-9846.19	-5.964905E-6	NaN
14	1.000000	0.698125	7.36518e+06	-39339.1	955.818	-29795	0.000000	0.000000	6.698964	0.003283	NaN	0.000000	0.001576	0.001768	28.1304	0.072114	0.002029	35.5385	21.732	178.598	-0.030604	0.696799	-0.312353	-0.313679	0.003283	35.5385	-0.312422	-7192.4	-4.564549E-7	NaN
14	1.000000	0.706098	7.36518e+06	-39339.1	955.818	-29795	0.000000	0.000000	6.706936	-0.034230	NaN	0.000000	0.001571	0.001760	28.1301	0.034603	0.002080	16.6361	-141.164	178.078	0.001188	0.704790	-0.304379	-0.305687	-0.034230	16.6361	-0.302836	-5185.82	6.600629E-6	NaN
14	1.000000	0.714145	7.36518e+06	-39339.1	955.818	-29795	0.000000	0.000000	6.714985	0.024585	NaN	0.000000	0.001569	0.001742	28.1294	0.030800	0.002027	15.1913	-163.938	177.296	0.032127	0.712833	-0.296333	-0.297645	0.024585	15.1913	-0.297546	-4325.97	-5.683068E-6	NaN
14	1.000000	0.722147	7.36518e+06	-39339.1	955.818	-29795	0.000000	0.000000	6.722984	-0.038445	NaN	0.000000	0.001532	0.001792	28.1294	0.051344	0.002045	25.1124	-173.042	179.22	-0.036954	0.720815	-0.288331	-0.289662	-0.038445	25.1124	-0.287182	-3027.26	1.269955E-5	NaN
14	1.000000	0.730142	7.36518e+06	-39339.1	955.818	-29795	0.000000	0.000000	6.730981	0.020279	NaN	0.000000	0.001510	0.001787	28.128	0.008593	0.001937	4.436604	76.5563	174.678	0.010658	0.728850	-0.280336	-0.281628	0.020279	4.436604	-0.283764	-2689.53	-7.539823E-6	NaN
14	1.000000	0.738130	7.36518e+06	-39339.1	955.818	-29795	0.000000	0.000000	6.738966	-0.066648	NaN	0.000000	0.001525	0.001788	28.1283	0.082046	0.002016	40.7066	122.799	174.638	-0.063838	0.736821	-0.272347	-0.273656	-0.066648	40.7066	-0.271119	-1732.02	3.848007E-5	NaN
14	1.000000	0.746149	7.36518e+06	-39339.1	955.818	-29795	0.000000	0.000000	6.746985	-0.060686	NaN	0.000000	0.001543	0.001798	28.1292	0.037371	0.002015	18.5476	-65.6542	177.195	0.009156	0.744840	-0.264329	-0.265638	-0.060686	18.5476	-0.261875	-1252.07	4.846875E-5	NaN
14	1.000000	0.754160	7.36518e+06	-39339.1	955.818	-29795	0.000000	0.000000	6.754998	-0.019484	NaN	0.000000	0.001622	0.001788	28.1293	0.084761	0.002044	41.4729	-96.435	172.213	0.020425	0.752813	-0.256318	-0.257664	-0.019484	41.4729	-0.255966	-1016.19	1.917327E-5	NaN
14	1.000000	0.762156	7.36518e+06	-39339.1	955.819	-29795	0.000000	0.000000	6.762994	-0.010565	NaN	0.000000	0.001618	0.001788	28.129	0.108828	0.001996	54.5185	64.489	174.146	-0.010631	0.760809	-0.248322	-0.249669	-0.010565	54.5185	-0.248176	-770.437	1.371309E-5	NaN
14	1.000000	0.770185	7.36518e+06	-39339.1	955.818	-29795	0.000000	0.000000	6.771023	-0.015196	NaN	0.000000	0.001625	0.001776	28.129	0.004731	0.002130	2.220439	-145.151	177.854	0.001305	0.768866	-0.240293	-0.241612	-0.015196	2.220439	-0.235160	-482.789	3.147587E-5	NaN
14	1.000000	0.778140	7.36518e+06	-39339.1	955.818	-29795	0.000000	0.000000	6.778978	-0.030255	NaN	0.000000	0.001540	0.001759	28.1289	0.055690	0.002068	26.9334	117.831	177.324	-0.105972	0.776884	-0.232337	-0.233594	-0.030255	26.9334	-0.231495	-422.764	7.156365E-5	NaN
14	1.000000	0.786169	7.36518e+06	-39339.1	955.818	-29795	0.000000	0.000000	6.787005	-0.074126	NaN	0.000000	0.001548	0.001764	28.1276	0.038360	0.001994	19.2408	67.3394	174.53	-0.057216	0.784881	-0.224309	-0.225597	-0.074126	19.2408	-0.221419	-292.642	0.000253	NaN
14	1.000000	0.794199	7.36518e+06	-39339.1	955.818	-29795	0.000000	0.000000	6.795035	-0.060378	NaN	0.000000	0.001526	0.001793	28.1277	0.097743	0.001892	51.6507	141.403	178.349	-0.053709	0.792833	-0.216279	-0.217645	-0.060378	51.6507	-0.215402	-234.41	0.000258	NaN
14	1.000000	0.802180	7.36518e+06	-39339.1	955.819	-29795	0.000000	0.000000	6.803019	0.000585	NaN	0.000000	0.001567	0.001766	28.1275	0.059190	0.002098	28.2128	-128.097	172.526	0.057300	0.800893	-0.208298	-0.209585	0.000585	28.2128	-0.208313	-180.081	-3.249850E-6	NaN
14	1.000000	0.810177	7.36518e+06	-39339.1	955.818	-29795	0.000000	0.000000	6.811016	-0.013870	NaN	0.000000	0.001546	0.001777	28.1282	0.022045	0.002037	10.8225	153.083	176.073	-0.076290	0.808922	-0.200300	-0.201555	-0.013870	10.8225	-0.199339	-128.478	0.000108	NaN
14	1.000000	0.818167	7.36518e+06	-39339.1	955.818	-29795	0.000000	0.000000	6.819006	0.004231	NaN	0.000000	0.001525	0.001795	28.1277	0.026699	0.002051	13.0178	-43.2792	174.825	0.027083	0.816820	-0.192310	-0.193658	0.004231	13.0178	-0.192554	-99.2208	-4.264553E-5	NaN
14	1.000000	0.826155	7.36518e+06	-39339.1	955.817	-29795	0.000000	0.000000	6.826995	0.026027	NaN	0.000000	0.001521	0.001795	28.1288	0.092899	0.001979	46.9378	166.151	179.749	-0.054046	0.824874	-0.184323	-0.185604	0.026027	46.9378	-0.184739	-73.4055	-0.000355	NaN
14	1.000000	0.834191	7.36518e+06	-39339.1	955.818	-29795	0.000000	0.000000	6.835028	-0.036720	NaN	0.000000	0.001549	0.001790	28.1288	0.017256	0.001952	8.838472	37.1979	174.19	-0.075296	0.832846	-0.176287	-0.177632	-0.036720	8.838472	-0.173171	-46.6111	0.000788	NaN
14	1.000000	0.842214	7.36518e+06	-39339.1	955.817	-29795	0.000000	0.000000	6.843049	-0.077669	NaN	0.000000	0.001539	0.001830	28.1285	0.052610	0.002017	26.0807	54.4145	172.22	-0.093016	0.840867	-0.168264	-0.169610	-0.077669	26.0807	-0.166030	-35.0251	0.002218	NaN
14	1.000000	0.850190	7.36518e+06	-39339.1	955.817	-29795	0.000000	0.000000	6.851029	0.009590	NaN	0.000000	0.001588	0.001815	28.1288	0.081774	0.001994	41.0094	65.2253	175.676	-0.022324	0.848908	-0.160288	-0.161569	0.009590	41.0094	-0.160463	-27.9392	-0.000343	NaN
14	1.000000	0.858162	7.36518e+06	-39339.1	955.819	-29795	0.000000	0.000000	6.858999	-0.029809	NaN	0.000000	0.001550	0.001828	28.1291	0.072118	0.002006	35.9477	-15.1372	175.389	0.002957	0.856887	-0.152316	-0.153591	-0.029809	35.9477	-0.151694	-19.4458	0.001533	NaN
14	1.000000	0.866162	7.36518e+06	-39339.1	955.818	-29795	0.000000	0.000000	6.867000	-0.029983	NaN	0.000000	0.001534	0.001814	28.1294	0.013337	0.002034	6.557666	159.05	175.342	-0.069546	0.864840	-0.144316	-0.145637	-0.029983	6.557666	-0.140886	-12.2912	0.002439	NaN
14	1.000000	0.874203	7.36518e+06	-39339.1	955.818	-29795	0.000000	0.000000	6.875042	0.006039	NaN	0.000000	0.001525	0.001828	28.1288	0.121433	0.002007	60.5079	122.544	178.926	-0.033553	0.872908	-0.136274	-0.137570	0.006039	60.5079	-0.136349	-10.0923	-0.000598	NaN
14	1.000000	0.882186	7.36518e+06	-39339.1	955.817	-29795	0.000000	0.000000	6.883025	0.015467	NaN	0.000000	0.001540	0.001851	28.1287	0.034828	0.001996	17.4532	-108.226	179.412	0.022348	0.880879	-0.128292	-0.129598	0.015467	17.4532	-0.128956	-7.272793	-0.002127	NaN
14	1.000000	0.890196	7.36518e+06	-39339.1	955.818	-29795	0.000000	0.000000	6.891036	0.028769	NaN	0.000000	0.001520	0.001828	28.1291	0.073472	0.001922	38.2301	-172.524	179.218	0.055881	0.888893	-0.120282	-0.121585	0.028769	38.2301	-0.120846	-5.024964	-0.005725	NaN
14	1.000000	0.898193	7.36518e+06	-39339.1	955.818	-29795	0.000000	0.000000	6.899033	0.012260	NaN	0.000000	0.001543	0.001832	28.1285	0.031021	0.001970	15.7451	-139.935	178.85	-0.023099	0.896874	-0.112284	-0.113603	0.012260	15.7451	-0.112868	-3.451069	-0.003552	NaN
14	1.000000	0.906222	7.36518e+06	-39339.1	955.818	-29795	0.000000	0.000000	6.907062	0.032980	NaN	0.000000	0.001548	0.001835	28.1303	0.115368	0.001962	58.7905	102.387	176.775	0.072137	0.904914	-0.104255	-0.105564	0.032980	58.7905	-0.104676	-2.312975	-0.014259	NaN
14	1.000000	0.914210	7.36518e+06	-39339.1	955.819	-29795	0.000000	0.000000	6.915047	-0.046921	NaN	0.000000	0.001553	0.001803	28.1299	0.032801	0.001932	16.9796	-102.9	176.655	0.019310	0.912966	-0.096268	-0.097511	-0.046921	16.9796	-0.094195	-1.352190	0.034700	NaN
14	1.000000	0.922234	7.36518e+06	-39339.1	955.817	-29795	0.000000	0.000000	6.923075	0.055703	NaN	0.000000	0.001550	0.001838	28.1299	0.096925	0.001905	50.8796	-2.299037	179.858	0.077048	0.920909	-0.088244	-0.089569	0.055703	50.8796	-0.089065	-1.027569	-0.054208	NaN
14	1.000000	0.930191	7.36518e+06	-39339.1	955.817	-29795	0.000000	0.000000	6.931030	0.003674	NaN	0.000000	0.001543	0.001813	28.13	0.117683	0.001955	60.2041	59.9924	177.949	0.017706	0.928855	-0.080287	-0.081623	0.003674	60.2041	-0.080332	-0.630937	-0.005823	NaN
14	1.000000	0.938240	7.36518e+06	-39339.1	955.817	-29795	0.000000	0.000000	6.939078	-0.025958	NaN	0.000000	0.001559	0.001847	28.1295	0.085694	0.001957	43.7983	68.6234	173.431	-0.005943	0.936937	-0.072238	-0.073541	-0.025958	43.7983	-0.071793	-0.380741	0.068178	NaN
14	1.000000	0.946205	7.36518e+06	-39339.1	955.818	-29795	0.000000	0.000000	6.947041	-0.054926	NaN	0.000000	0.001500	0.001852	28.1292	0.063177	0.001999	31.5968	160.464	178.835	0.006613	0.944922	-0.064273	-0.065555	-0.054926	31.5968	-0.062969	-0.218699	0.251151	NaN
14	1.000000	0.954222	7.36518e+06	-39339.1	955.818	-29795	0.000000	0.000000	6.955061	0.013436	NaN	0.000000	0.001523	0.001828	28.1287	0.063409	0.001885	33.6337	75.5704	175.309	0.132563	0.952849	-0.056256	-0.057628	0.013436	33.6337	-0.056555	-0.143092	-0.093900	NaN
14	1.000000	0.962240	7.36518e+06	-39339.1	955.818	-29795	0.000000	0.000000	6.963075	-0.077399	NaN	0.000000	0.001553	0.001825	28.1284	0.049676	0.001967	25.2514	-12.2692	173.772	-0.020942	0.960917	-0.048238	-0.049560	-0.077399	25.2514	-0.045939	-0.068659	1.127291	NaN
14	1.000000	0.970224	7.36518e+06	-39339.1	955.818	-29795	0.000000	0.000000	6.971062	-0.006583	NaN	0.000000	0.001559	0.001841	28.1286	0.075923	0.001970	38.5452	-154.195	175.306	-0.112268	0.968972	-0.040254	-0.041505	-0.006583	38.5452	-0.040126	-0.045622	0.144297	NaN
14	1.000000	0.978271	7.36518e+06	-39339.1	955.818	-29795	0.000000	0.000000	6.979109	-0.022179	NaN	0.000000	0.001555	0.001817	28.1284	0.031825	0.002027	15.7032	68.6447	177.181	-0.050353	0.976936	-0.032207	-0.033541	-0.022179	15.7032	-0.031147	-0.024784	0.894878	NaN
14	1.000000	0.986222	7.36518e+06	-39339.1	955.817	-29795	0.000000	0.000000	6.987058	-0.068573	NaN	0.000000	0.001550	0.001834	28.1293	0.046335	0.002049	22.608	-134.268	173.331	-0.049261	0.984909	-0.024255	-0.025569	-0.068573	22.608	-0.021981	-0.014105	4.861613	NaN
14	1.000000	0.994236	7.36518e+06	-39339.1	955.818	-29795	0.000000	0.000000	6.995073	-0.038443	NaN	0.000000	0.001533	0.001832	28.1293	0.036085	0.001986	18.1692	-68.6971	178.21	-0.059468	0.993014	-0.016242	-0.017463	-0.038443	18.1692	-0.014655	-0.009070	4.238623	NaN
14	1.000000	1.002241	7.36518e+06	-39339.1	955.818	-29795	0.000000	0.000000	7.003081	0.032064	NaN	0.000000	0.001534	0.001801	28.1285	0.148407	0.001982	74.8737	92.7585	177.441	0.015463	1.000938	-0.008237	-0.009540	0.032064	74.8737	-0.008558	-0.005557	-5.769967	NaN
14	1.000000	1.010241	7.36518e+06	-39339.1	955.819	-29795	0.000000	0.000000	7.011081	0.045145	NaN	0.000000	0.001516	0.001830	28.1285	0.254133	0.001939	131.072	14.0094	178.722	-0.033913	1.008942	-0.000237	-0.001536	0.045145	131.072	-0.000495	-0.000366	-123.199	NaN
14	1.000000	1.018139	7.36518e+06	-39339.1	955.819	-29795	0.000000	0.000000	7.019326	8.466327	NaN	0.000000	0.001522	0.001845	28.128	8.134915	0.001665	4885.75	11.9307	168.605	7.051035	1.016919	0.007661	0.006441	8.466327	4885.75	0.006362	0.005411	1564.72	60684.2
14	2.000000	1.020875	7.36518e+06	-39339.1	955.818	-29795	0.000000	0.000000	7.022231	12.571	NaN	0.000000	0.001567	0.001803	28.1268	11.3275	0.001584	7150.26	8.650487	167.163	11.9674	1.020502	0.010398	0.010024	12.571	7150.26	0.009079	0.008176	1537.54	72247.6
14	2.000000	1.022778	7.36518e+06	-39339.1	955.818	-29795	0.000000	0.000000	7.024289	16.3492	NaN	0.000000	0.001541	0.001836	28.1272	13.1392	0.001663	7901.42	7.137488	167.677	15.0236	1.022469	0.012301	0.011991	16.3492	7901.42	0.010749	0.010026	1630.7	72097
14	2.000000	1.024819	7.36518e+06	-39339.1	955.818	-29795	0.000000	0.000000	7.026415	18.4114	NaN	0.000000	0.001584	0.001821	28.1273	16.1698	0.001703	9497.06	4.253066	167.866	18.4922	1.024554	0.014342	0.014076	18.4114	9497.06	0.012888	0.012571	1464.6	77388.7
14	2.000000	1.026786	7.36518e+06	-39339.1	955.819	-29795	0.000000	0.000000	7.028569	22.9819	NaN	0.000000	0.001547	0.001842	28.1273	17.9607	0.001624	11059.8	7.346570	164.029	23.037	1.026469	0.016309	0.015992	22.9819	11059.8	0.014750	0.014954	1536.86	82631
14	2.000000	1.028761	7.36518e+06	-39339.1	955.819	-29795	0.000000	0.000000	7.030826	29.8289	NaN	0.000000	0.001571	0.001854	28.1271	20.3323	0.001769	11493.9	4.201990	165.997	28.8126	1.028517	0.018284	0.018039	29.8289	11493.9	0.016337	0.017110	1743.32	80280.4
14	2.000000	1.030804	7.36518e+06	-39339.1	955.819	-29795	0.000000	0.000000	7.033062	34.5491	NaN	0.000000	0.001576	0.001856	28.1277	22.2622	0.001702	13079.1	4.258740	166.677	34.6765	1.030339	0.020326	0.019861	34.5491	13079.1	0.018345	0.020008	1726.77	84479.4
14	2.000000	1.032737	7.36518e+06	-39339.1	955.819	-29795	0.000000	0.000000	7.035172	38.8441	NaN	0.000000	0.001543	0.001840	28.1279	24.2864	0.001856	13082.1	6.075192	163.986	36.6841	1.032427	0.022259	0.021949	38.8441	13082.1	0.020032	0.022593	1719.3	79517.7
14	2.000000	1.034741	7.36518e+06	-39339.1	955.82	-29795	0.000000	0.000000	7.037444	45.3555	NaN	0.000000	0.001620	0.001835	28.1281	27.693	0.001893	14632.1	8.338734	159.827	44.01	1.034461	0.024264	0.023984	45.3555	14632.1	0.021939	0.025682	1766.07	83419.7
14	2.000000	1.036717	7.36518e+06	-39339.1	955.818	-29795	0.000000	0.000000	7.039618	50.1849	NaN	0.000000	0.001602	0.001790	28.1283	27.8236	0.001719	16190.4	4.163193	163.093	48.5645	1.036437	0.026240	0.025959	50.1849	16190.4	0.023915	0.029071	1726.28	86755.9
14	2.000000	1.038761	7.36518e+06	-39339.1	955.819	-29795	0.000000	0.000000	7.041823	54.0995	NaN	0.000000	0.001571	0.001861	28.1288	29.9057	0.001747	17122.2	3.993310	164.912	53.962	1.038342	0.028283	0.027864	54.0995	17122.2	0.025914	0.032699	1654.47	86509.8
14	2.000000	1.040786	7.36518e+06	-39339.1	955.818	-29795	0.000000	0.000000	7.044222	63.2094	NaN	0.000000	0.001571	0.001825	28.127	32.4593	0.001897	17108.7	8.455674	160.654	62.7627	1.040324	0.030308	0.029846	63.2094	17108.7	0.027537	0.035794	1765.94	82620.4
14	2.000000	1.042732	7.36518e+06	-39339.1	955.818	-29795	0.000000	0.000000	7.046301	66.4397	NaN	0.000000	0.001558	0.001842	28.1271	34.7897	0.001794	19389.1	6.734761	159.828	68.0916	1.042452	0.032254	0.031974	66.4397	19389.1	0.029685	0.040092	1657.17	88470.7
14	2.000000	1.044728	7.36518e+06	-39339.1	955.819	-29795	0.000000	0.000000	7.048703	76.3125	NaN	0.000000	0.001587	0.001832	28.1271	36.5745	0.001787	20472.6	5.369649	160.242	75.1896	1.044373	0.034251	0.033895	76.3125	20472.6	0.031455	0.043814	1741.73	89359
14	2.000000	1.046779	7.36518e+06	-39339.1	955.82	-29795	0.000000	0.000000	7.051013	82.6241	NaN	0.000000	0.001562	0.001848	28.1267	38.0034	0.001719	22113.9	4.741516	160.572	85.9149	1.046417	0.036302	0.035940	82.6241	22113.9	0.033499	0.048310	1710.3	91922.3
14	2.000000	1.048680	7.36518e+06	-39339.1	955.819	-29795	0.000000	0.000000	7.053188	89.3006	NaN	0.000000	0.001546	0.001860	28.1292	40.5598	0.001739	23327.1	8.089226	155.857	86.9961	1.048346	0.038202	0.037869	89.3006	23327.1	0.035331	0.052520	1700.31	92997.5
14	2.000000	1.050742	7.36518e+06	-39339.1	955.818	-29795	0.000000	0.000000	7.055540	96.3456	NaN	0.000000	0.001560	0.001876	28.1291	43.6535	0.001931	22605.7	8.332371	157.868	95.0619	1.050390	0.040264	0.039913	96.3456	22605.7	0.037068	0.056671	1700.1	86758.5
14	2.000000	1.052690	7.36518e+06	-39339.1	955.818	-29795	0.000000	0.000000	7.057847	105.062	NaN	0.000000	0.001563	0.001843	28.1295	44.0556	0.001869	23566.7	2.404557	162.375	103.449	1.052383	0.042213	0.041905	105.062	23566.7	0.038869	0.061139	1718.42	87079
14	2.000000	1.054746	7.36518e+06	-39339.1	955.818	-29795	0.000000	0.000000	7.060306	114.886	NaN	0.000000	0.001579	0.001862	28.1292	46.7989	0.001877	24933.4	6.566495	157.788	114.063	1.054337	0.044268	0.043860	114.886	24933.4	0.040812	0.066145	1736.89	88574.1
14	2.000000	1.056655	7.36518e+06	-39339.1	955.819	-29795	0.000000	0.000000	7.062752	127.955	NaN	0.000000	0.001547	0.001833	28.1295	47.4069	0.001759	26950.3	7.247626	156.799	125.142	1.056245	0.046178	0.045768	127.955	26950.3	0.042617	0.070966	1803.04	92429.6
14	2.000000	1.058709	7.36518e+06	-39339.1	955.819	-29795	0.000000	0.000000	7.065098	135.048	NaN	0.000000	0.001573	0.001833	28.1299	50.6507	0.001944	26052.2	4.777755	159.932	133.331	1.058319	0.048232	0.047841	135.048	26052.2	0.044344	0.075736	1783.14	86490
14	2.000000	1.060683	7.36518e+06	-39339.1	955.819	-29795	0.000000	0.000000	7.067372	142.368	NaN	0.000000	0.001570	0.001828	28.1283	51.1925	0.001776	28817.6	0.890249	162.049	139.586	1.060388	0.050206	0.049911	142.368	28817.6	0.046500	0.081904	1738.24	91998.3
14	2.000000	1.062707	7.36518e+06	-39339.1	955.819	-29795	0.000000	0.000000	7.069815	152.563	NaN	0.000000	0.001549	0.001843	28.1282	53.3044	0.001737	30678.9	4.652786	156.52	149.844	1.062369	0.052230	0.051892	152.563	30678.9	0.048500	0.087833	1736.97	94576.7
14	2.000000	1.064678	7.36518e+06	-39339.1	955.818	-29795	0.000000	0.000000	7.072212	162.914	NaN	0.000000	0.001607	0.001852	28.1279	56.1292	0.001809	31036	3.166183	159.185	160.973	1.064402	0.054201	0.053925	162.914	31036	0.050264	0.093231	1747.42	92866.4
14	2.000000	1.066669	7.36518e+06	-39339.1	955.819	-29795	0.000000	0.000000	7.074897	179.817	NaN	0.000000	0.001564	0.001826	28.1282	57.3354	0.001691	33910.5	3.977542	157.62	178.363	1.066310	0.056191	0.055832	179.817	33910.5	0.052214	0.099380	1809.39	98278.3
14	2.000000	1.068598	7.36518e+06	-39339.1	955.818	-29795	0.000000	0.000000	7.077262	190.417	NaN	0.000000	0.001541	0.001842	28.1285	60.3016	0.001740	34661.7	6.357869	154.834	185.567	1.068319	0.058120	0.057841	190.417	34661.7	0.054000	0.105178	1810.43	97647.5
14	2.000000	1.070668	7.36518e+06	-39339.1	955.819	-29795	0.000000	0.000000	7.079781	201.359	NaN	0.000000	0.001544	0.001830	28.1291	62.7059	0.001830	34265.3	4.779027	157.134	197.166	1.070349	0.060191	0.059871	201.359	34265.3	0.055783	0.111123	1812.03	93912.7
14	2.000000	1.072615	7.36518e+06	-39339.1	955.818	-29795	0.000000	0.000000	7.082022	208.501	NaN	0.000000	0.001544	0.001863	28.1292	63.9784	0.001812	35311.2	4.373388	156.183	203.783	1.072408	0.062138	0.061930	208.501	35311.2	0.057709	0.117723	1771.11	94027.4
14	2.000000	1.074778	7.36518e+06	-39339.1	955.819	-29795	0.000000	0.000000	7.084693	220.859	NaN	0.000000	0.001552	0.001859	28.1286	67.1035	0.001808	37111.6	7.043749	153.075	222.952	1.074377	0.064300	0.063900	220.859	37111.6	0.059837	0.125224	1763.71	95816.2
14	2.000000	1.076689	7.36518e+06	-39339.1	955.819	-29795	0.000000	0.000000	7.087195	235.249	NaN	0.000000	0.001618	0.001885	28.1291	66.7195	0.001756	37987	3.457636	156.707	233.913	1.076363	0.066212	0.065885	235.249	37987	0.061567	0.131488	1789.13	95711.7
14	2.000000	1.078741	7.36518e+06	-39339.1	955.819	-29795	0.000000	0.000000	7.089972	252.897	NaN	0.000000	0.001634	0.001892	28.1293	70.0978	0.001890	37087.4	4.263191	157.426	254.134	1.078230	0.068263	0.067752	252.897	37087.4	0.063149	0.137342	1841.37	91432
14	2.000000	1.080688	7.36518e+06	-39339.1	955.819	-29795	0.000000	0.000000	7.092260	261.193	NaN	0.000000	0.001606	0.001829	28.1278	71.2465	0.001751	40700	4.540084	155.478	259.383	1.080410	0.070210	0.069932	261.193	40700	0.065397	0.145870	1790.59	97360.8
14	2.000000	1.082647	7.36518e+06	-39339.1	955.82	-29795	0.000000	0.000000	7.094908	277.976	NaN	0.000000	0.001616	0.001845	28.1263	72.6589	0.001821	39911	3.517687	156.567	274.145	1.082333	0.072169	0.071855	277.976	39911	0.066946	0.151885	1830.17	93563.8
14	2.000000	1.084628	7.36518e+06	-39339.1	955.82	-29795	0.000000	0.000000	7.097393	290.221	NaN	0.000000	0.001599	0.001825	28.1265	75.7388	0.001800	42074.9	3.203751	156.13	286.891	1.084323	0.074150	0.073845	290.221	42074.9	0.068977	0.159951	1814.43	96117.6
14	2.000000	1.086644	7.36518e+06	-39339.1	955.819	-29795	0.000000	0.000000	7.099856	301.102	NaN	0.000000	0.001621	0.001815	28.1263	77.9711	0.001830	42595.8	5.983098	153.551	300.255	1.086369	0.076166	0.075892	301.102	42595.8	0.070865	0.167623	1796.3	95054.5
14	2.000000	1.088636	7.36518e+06	-39339.1	955.819	-29795	0.000000	0.000000	7.102552	318.218	NaN	0.000000	0.001621	0.001817	28.1277	80.0234	0.001807	44281.6	5.607870	153.375	314.665	1.088274	0.078159	0.077797	318.218	44281.6	0.072769	0.175534	1812.86	96564.1
14	2.000000	1.090733	7.36518e+06	-39339.1	955.819	-29795	0.000000	0.000000	7.105122	329.736	NaN	0.000000	0.001622	0.001859	28.1277	81.7907	0.001821	44913.6	5.802005	155.005	329.892	1.090258	0.080256	0.079780	329.736	44913.6	0.074750	0.183944	1792.59	95677.1
14	2.000000	1.092610	7.36518e+06	-39339.1	955.819	-29795	0.000000	0.000000	7.107681	346.343	NaN	0.000000	0.001573	0.001857	28.1279	83.4868	0.001794	46548.6	5.469628	153.78	343.281	1.092249	0.082133	0.081772	346.343	46548.6	0.076552	0.191758	1806.14	97118.7
14	2.000000	1.094722	7.36518e+06	-39339.1	955.818	-29795	0.000000	0.000000	7.110182	355.808	NaN	0.000000	0.001563	0.001807	28.1276	85.334	0.001724	49495.7	3.201268	155.083	357.187	1.094325	0.084245	0.083848	355.808	49495.7	0.078853	0.201954	1761.82	100627
14	2.000000	1.096697	7.36518e+06	-39339.1	955.818	-29795	0.000000	0.000000	7.112918	374.324	NaN	0.000000	0.001545	0.001816	28.1274	86.353	0.001742	49581.8	4.017869	155.058	377.367	1.096305	0.086219	0.085827	374.324	49581.8	0.080557	0.209663	1785.36	98931.4
14	2.000000	1.098524	7.36518e+06	-39339.1	955.819	-29795	0.000000	0.000000	7.115413	390.6	NaN	0.000000	0.001547	0.001802	28.1271	89.1839	0.001790	49834.5	2.247757	155.938	382.596	1.098122	0.088046	0.087645	390.6	49834.5	0.082168	0.217076	1799.37	97723.2
14	2.000000	1.100671	7.36518e+06	-39339.1	955.82	-29795	0.000000	0.000000	7.118275	407.987	NaN	0.000000	0.001553	0.001796	28.1263	91.8433	0.001866	49223.7	4.393785	154.778	408.334	1.100316	0.090194	0.089838	407.987	49223.7	0.083977	0.225547	1808.88	94695.5
14	2.000000	1.102542	7.36518e+06	-39339.1	955.819	-29795	0.000000	0.000000	7.120348	412.878	NaN	0.000000	0.001561	0.001810	28.1264	93.1604	0.001914	48680.5	4.135742	153.953	405.426	1.102348	0.092065	0.091870	412.878	48680.5	0.085704	0.233770	1766.17	91988.4
14	2.000000	1.104632	7.36518e+06	-39339.1	955.82	-29795	0.000000	0.000000	7.123393	436.121	NaN	0.000000	0.001567	0.001792	28.1262	94.8123	0.001819	52128.3	4.722899	153.515	435.206	1.104397	0.094155	0.093919	436.121	52128.3	0.087880	0.244332	1784.96	96351.1
14	2.000000	1.106595	7.36518e+06	-39339.1	955.82	-29795	0.000000	0.000000	7.126230	457.414	NaN	0.000000	0.001580	0.001812	28.126	95.745	0.001817	52701.2	6.616993	151.222	453.123	1.106251	0.096118	0.095773	457.414	52701.2	0.089608	0.252873	1808.87	95750.8
14	2.000000	1.108481	7.36518e+06	-39339.1	955.819	-29795	0.000000	0.000000	7.128672	470.937	NaN	0.000000	0.001541	0.001826	28.1261	98.3995	0.001715	57366.5	7.497443	149.853	462.183	1.108263	0.098003	0.097786	470.937	57366.5	0.091846	0.264141	1782.9	101980
14	2.000000	1.110556	7.36518e+06	-39339.1	955.819	-29795	0.000000	0.000000	7.131326	485.021	NaN	0.000000	0.001542	0.001841	28.1278	99.9006	0.001761	56718.9	4.513574	153.202	479.323	1.110166	0.100078	0.099689	485.021	56718.9	0.093665	0.273462	1773.63	99095.1
14	2.000000	1.112575	7.36518e+06	-39339.1	955.819	-29795	0.000000	0.000000	7.134103	503.45	NaN	0.000000	0.001535	0.001831	28.1271	101.051	0.001708	59165.1	6.285674	150.785	499.327	1.112279	0.102098	0.101801	503.45	59165.1	0.095716	0.284159	1771.72	101405
14	2.000000	1.114723	7.36518e+06	-39339.1	955.818	-29795	0.000000	0.000000	7.136520	509.992	NaN	0.000000	0.001562	0.001791	28.1272	103.612	0.001756	59014.2	2.225843	154.977	511.051	1.114395	0.104246	0.103918	509.992	59014.2	0.097765	0.295034	1728.59	99264.3
14	2.000000	1.116652	7.36518e+06	-39339.1	955.819	-29795	0.000000	0.000000	7.139598	537.976	NaN	0.000000	0.001589	0.001799	28.1286	104.644	0.001838	56932	5.825698	151.763	537.878	1.116285	0.106174	0.105807	537.976	56932	0.099087	0.302156	1780.46	94626.8
14	2.000000	1.117643	7.36518e+06	-39339.1	955.818	-29795	0.000000	0.000000	7.140883	545.121	NaN	0.000000	0.001551	0.001785	28.0842	108.128	0.001769	61118.6	5.907732	151.113	544.569	1.117297	0.107166	0.106819	545.121	61118.6	0.100477	0.309724	1760.02	100337