File: remote_trans/data/nanoindenter/0828-1/data/Data_2025-08-06,11h17m57s/2025-07-22_16-23-58_1_106.txt
2025-07-22, 16:23:58, 1
Index	Phase	Displacement	Time	Pos X	Pos Y	Pos Z	Rot A	Rot B	Piezo Z	Force A	Force B	Gripper	Voltage A	Voltage B	Temperature	Amplitude force	Amplitude pos	Stiffness	Phase shift	Phase excitation	Force A raw	Displacement raw	HMax	HMax raw	Real Force	Real Stiffness	Contact Depth	Area	Hardness	Reduced Mod.
[#]	[#]	[um]	[s]	[um]	[um]	[um]	[m°]	[m°]	[um]	[uN]	[uN]	[V]	[V]	[V]	[°C]	[uN]	[um]	[N/m]	[°]	[°]	[uN]	[um]	[um]	[um]	[uN]	[N/m]	[um]	[um^2]	[MPa]	[MPa]
106	1.000000	0.002508	7.36608e+06	-43939.1	955.818	-29777.8	0.000000	0.000000	6.002789	-0.004270	NaN	0.000000	0.001642	0.001696	28.0814	0.022927	0.000988	23.2028	-159.931	-159.572	0.035542	0.001245	-1.076934	-1.078197	-0.004270	23.2028	-1.076796	-2.446160E+14	1.745608E-17	NaN
106	1.000000	0.010475	7.36608e+06	-43939.1	955.819	-29777.8	0.000000	0.000000	6.010756	0.008669	NaN	0.000000	0.001702	0.001704	28.0814	0.074504	0.000921	80.9036	-140.287	-163.12	0.100431	0.009123	-1.068967	-1.070318	0.008669	80.9036	-1.069047	-1.924807E+14	-4.503605E-17	NaN
106	1.000000	0.018471	7.36608e+06	-43939.1	955.819	-29777.8	0.000000	0.000000	6.018755	0.067471	NaN	0.000000	0.001700	0.001688	28.0819	0.040713	0.001648	24.7004	-87.2494	-165.588	0.065561	0.017167	-1.060971	-1.062274	0.067471	24.7004	-1.063020	-1.597342E+14	-4.223937E-16	NaN
106	1.000000	0.026486	7.36608e+06	-43939.1	955.819	-29777.8	0.000000	0.000000	6.026768	0.010294	NaN	0.000000	0.001693	0.001743	28.0824	0.097493	0.001845	52.8393	-63.344	-165.006	0.095984	0.025165	-1.052955	-1.054277	0.010294	52.8393	-1.053102	-1.175183E+14	-8.759178E-17	NaN
106	1.000000	0.034484	7.36608e+06	-43939.1	955.818	-29777.8	0.000000	0.000000	6.034769	0.094856	NaN	0.000000	0.001661	0.001724	28.0823	0.028770	0.001892	15.2049	121.901	-169.122	0.070274	0.033103	-1.044958	-1.046339	0.094856	15.2049	-1.049637	-1.055670E+14	-8.985354E-16	NaN
106	1.000000	0.042484	7.36608e+06	-43939.1	955.819	-29777.8	0.000000	0.000000	6.042762	-0.069977	NaN	0.000000	0.001702	0.001739	28.08	0.086311	0.001928	44.7784	122.391	-166.312	-0.045989	0.041141	-1.036958	-1.038300	-0.069977	44.7784	-1.035786	-6.875341E+13	1.017799E-15	NaN
106	1.000000	0.050449	7.36608e+06	-43939.1	955.818	-29777.8	0.000000	0.000000	6.050732	0.043543	NaN	0.000000	0.001677	0.001708	28.081	0.030482	0.001960	15.5519	43.5229	-166.763	0.009269	0.049136	-1.028992	-1.030305	0.043543	15.5519	-1.031092	-5.945266E+13	-7.324035E-16	NaN
106	1.000000	0.058456	7.36608e+06	-43939.1	955.818	-29777.8	0.000000	0.000000	6.058736	-0.044201	NaN	0.000000	0.001703	0.001702	28.0811	0.051885	0.001941	26.7318	-140.639	-164.725	-0.076075	0.057150	-1.020985	-1.022292	-0.044201	26.7318	-1.019745	-4.183324E+13	1.056610E-15	NaN
106	1.000000	0.066471	7.36608e+06	-43939.1	955.819	-29777.8	0.000000	0.000000	6.066757	0.103947	NaN	0.000000	0.001712	0.001697	28.0813	0.044264	0.001909	23.1844	100.009	-163.792	-0.017804	0.065144	-1.012970	-1.014298	0.103947	23.1844	-1.016333	-3.763668E+13	-2.761853E-15	NaN
106	1.000000	0.074510	7.36608e+06	-43939.1	955.819	-29777.8	0.000000	0.000000	6.074792	0.021417	NaN	0.000000	0.001747	0.001704	28.0807	0.134519	0.002052	65.5576	108.839	-167.115	0.003313	0.073196	-1.004932	-1.006246	0.021417	65.5576	-1.005177	-2.663561E+13	-8.040692E-16	NaN
106	1.000000	0.082480	7.36608e+06	-43939.1	955.818	-29777.8	0.000000	0.000000	6.082764	0.057969	NaN	0.000000	0.001667	0.001686	28.0817	0.055197	0.002019	27.341	-49.0757	-165.464	0.016493	0.081183	-0.996962	-0.998258	0.057969	27.341	-0.998552	-2.169053E+13	-2.672564E-15	NaN
106	1.000000	0.090503	7.36608e+06	-43939.1	955.818	-29777.8	0.000000	0.000000	6.090786	0.033735	NaN	0.000000	0.001652	0.001744	28.083	0.010844	0.001958	5.538152	-88.1895	-169.054	-0.024053	0.089205	-0.988939	-0.990236	0.033735	5.538152	-0.993507	-1.854999E+13	-1.818584E-15	NaN
106	1.000000	0.098499	7.36608e+06	-43939.1	955.819	-29777.8	0.000000	0.000000	6.098782	0.051297	NaN	0.000000	0.001639	0.001697	28.0835	0.073797	0.002069	35.6722	-125.734	-169.594	-0.014840	0.097210	-0.980942	-0.982231	0.051297	35.6722	-0.982021	-1.299084E+13	-3.948709E-15	NaN
106	1.000000	0.106476	7.36608e+06	-43939.1	955.818	-29777.8	0.000000	0.000000	6.106759	0.023580	NaN	0.000000	0.001629	0.001676	28.0841	0.035580	0.002110	16.8651	-112.955	-165.382	0.029561	0.105147	-0.972965	-0.974294	0.023580	16.8651	-0.974014	-1.013339E+13	-2.326939E-15	NaN
106	1.000000	0.114500	7.36608e+06	-43939.1	955.818	-29777.8	0.000000	0.000000	6.114783	0.040536	NaN	0.000000	0.001667	0.001725	28.0824	0.072113	0.002037	35.3934	-80.9275	-168.412	0.059491	0.113160	-0.964941	-0.966282	0.040536	35.3934	-0.965800	-7.853388E+12	-5.161607E-15	NaN
106	1.000000	0.122480	7.36608e+06	-43939.1	955.819	-29777.8	0.000000	0.000000	6.122762	0.029268	NaN	0.000000	0.001663	0.001714	28.083	0.075616	0.002011	37.6078	172.034	-165.961	0.082698	0.121143	-0.956962	-0.958298	0.029268	37.6078	-0.957545	-6.078188E+12	-4.815281E-15	NaN
106	1.000000	0.130483	7.36608e+06	-43939.1	955.818	-29777.8	0.000000	0.000000	6.130764	-0.007979	NaN	0.000000	0.001637	0.001699	28.0831	0.143482	0.001981	72.4363	-82.8672	-167.77	0.023727	0.129164	-0.948958	-0.950278	-0.007979	72.4363	-0.948876	-4.643688E+12	1.718329E-15	NaN
106	1.000000	0.138506	7.36608e+06	-43939.1	955.818	-29777.8	0.000000	0.000000	6.138790	0.064245	NaN	0.000000	0.001661	0.001691	28.0832	0.048196	0.002010	23.9784	164.736	-169.186	0.046471	0.137226	-0.940936	-0.942216	0.064245	23.9784	-0.942945	-3.862522E+12	-1.663280E-14	NaN
106	1.000000	0.146498	7.36608e+06	-43939.1	955.819	-29777.8	0.000000	0.000000	6.146779	0.000190	NaN	0.000000	0.001618	0.001661	28.0825	0.125670	0.002080	60.4099	163.173	-162.472	0.011214	0.145193	-0.932944	-0.934248	0.000190	60.4099	-0.932946	-2.831140E+12	-6.726620E-17	NaN
106	1.000000	0.154495	7.36608e+06	-43939.1	955.818	-29777.8	0.000000	0.000000	6.154774	-0.040428	NaN	0.000000	0.001681	0.001690	28.0826	0.122366	0.002019	60.6006	-31.5429	-168.066	-0.005426	0.153142	-0.924947	-0.926299	-0.040428	60.6006	-0.924447	-2.173898E+12	1.859685E-14	NaN
106	1.000000	0.162509	7.36608e+06	-43939.1	955.818	-29777.8	0.000000	0.000000	6.162791	0.023109	NaN	0.000000	0.001666	0.001753	28.0843	0.056135	0.002059	27.2622	158.393	-166.163	-0.045717	0.161238	-0.916933	-0.918204	0.023109	27.2622	-0.917568	-1.755388E+12	-1.316437E-14	NaN
106	1.000000	0.170534	7.36608e+06	-43939.1	955.818	-29777.8	0.000000	0.000000	6.170816	0.007328	NaN	0.000000	0.001639	0.001758	28.084	0.087677	0.002120	41.3547	-160.532	-166.576	0.097121	0.169188	-0.908908	-0.910253	0.007328	41.3547	-0.909040	-1.346486E+12	-5.442383E-15	NaN
106	1.000000	0.178526	7.36608e+06	-43939.1	955.817	-29777.8	0.000000	0.000000	6.178809	0.027745	NaN	0.000000	0.001625	0.001732	28.082	0.043301	0.001990	21.7606	79.4521	-167.153	-0.060621	0.177209	-0.900915	-0.902232	0.027745	21.7606	-0.901871	-1.077339E+12	-2.575326E-14	NaN
106	1.000000	0.186524	7.36608e+06	-43939.1	955.818	-29777.8	0.000000	0.000000	6.186807	0.055409	NaN	0.000000	0.001684	0.001703	28.0827	0.040193	0.001934	20.7803	-140.924	-165.506	0.025340	0.185167	-0.892918	-0.894275	0.055409	20.7803	-0.894918	-8.677364E+11	-6.385498E-14	NaN
106	1.000000	0.194517	7.36608e+06	-43939.1	955.818	-29777.8	0.000000	0.000000	6.194801	0.065864	NaN	0.000000	0.001665	0.001687	28.0832	0.060171	0.002138	28.137	58.0488	-166.904	0.036305	0.193217	-0.884925	-0.886225	0.065864	28.137	-0.886680	-6.714836E+11	-9.808693E-14	NaN
106	1.000000	0.202529	7.36608e+06	-43939.1	955.818	-29777.8	0.000000	0.000000	6.202813	0.063668	NaN	0.000000	0.001711	0.001698	28.083	0.089942	0.002082	43.1996	141.093	-167.239	0.000823	0.201190	-0.876913	-0.878252	0.063668	43.1996	-0.878018	-5.127490E+11	-1.241691E-13	NaN
106	1.000000	0.210551	7.36608e+06	-43939.1	955.819	-29777.8	0.000000	0.000000	6.210833	0.008720	NaN	0.000000	0.001734	0.001695	28.081	0.090220	0.001938	46.5539	-0.046181	-164.378	0.059051	0.209226	-0.868890	-0.870216	0.008720	46.5539	-0.869031	-3.875505E+11	-2.249995E-14	NaN
106	1.000000	0.218540	7.36608e+06	-43939.1	955.817	-29777.8	0.000000	0.000000	6.218822	0.015587	NaN	0.000000	0.001721	0.001717	28.0826	0.059599	0.001977	30.1491	-39.7439	-166.613	-0.035853	0.217250	-0.860902	-0.862191	0.015587	30.1491	-0.861290	-3.044922E+11	-5.119024E-14	NaN
106	1.000000	0.226545	7.36608e+06	-43939.1	955.818	-29777.8	0.000000	0.000000	6.226829	0.083316	NaN	0.000000	0.001704	0.001699	28.0812	0.067727	0.001955	34.6474	9.573308	-169.919	0.032016	0.225209	-0.852897	-0.854232	0.083316	34.6474	-0.854700	-2.479603E+11	-3.360073E-13	NaN
106	1.000000	0.234542	7.36608e+06	-43939.1	955.818	-29777.8	0.000000	0.000000	6.234825	0.049026	NaN	0.000000	0.001682	0.001683	28.0816	0.081448	0.001919	42.447	-110.158	-166.23	0.032980	0.233226	-0.844900	-0.846215	0.049026	42.447	-0.845766	-1.876710E+11	-2.612324E-13	NaN
106	1.000000	0.242527	7.36608e+06	-43939.1	955.818	-29777.8	0.000000	0.000000	6.242812	0.077746	NaN	0.000000	0.001714	0.001711	28.0821	0.051629	0.002034	25.3861	26.8405	-166.69	-0.019867	0.241196	-0.836914	-0.838245	0.077746	25.3861	-0.839211	-1.529695E+11	-5.082471E-13	NaN
106	1.000000	0.250599	7.36608e+06	-43939.1	955.817	-29777.8	0.000000	0.000000	6.250882	0.043980	NaN	0.000000	0.001685	0.001708	28.0822	0.012959	0.002003	6.469752	-88.1232	-163.548	0.088484	0.249243	-0.828842	-0.830198	0.043980	6.469752	-0.833941	-1.297747E+11	-3.388983E-13	NaN
106	1.000000	0.258578	7.36608e+06	-43939.1	955.818	-29777.8	0.000000	0.000000	6.258861	0.047215	NaN	0.000000	0.001718	0.001704	28.082	0.090341	0.002034	44.4057	-24.7851	-167.25	0.031089	0.257257	-0.820864	-0.822185	0.047215	44.4057	-0.821661	-8.845824E+10	-5.337499E-13	NaN
106	1.000000	0.266557	7.36608e+06	-43939.1	955.818	-29777.8	0.000000	0.000000	6.266838	-0.004381	NaN	0.000000	0.001696	0.001719	28.0816	0.060055	0.001925	31.2043	-7.400537	-167.528	-0.056197	0.265236	-0.812884	-0.814206	-0.004381	31.2043	-0.812779	-6.703041E+10	6.536463E-14	NaN
106	1.000000	0.274552	7.36608e+06	-43939.1	955.818	-29777.8	0.000000	0.000000	6.274834	0.020486	NaN	0.000000	0.001708	0.001721	28.0824	0.105770	0.002074	50.9915	-137.411	-168.231	0.013021	0.273247	-0.804890	-0.806194	0.020486	50.9915	-0.805191	-5.288352E+10	-3.873834E-13	NaN
106	1.000000	0.282592	7.36608e+06	-43939.1	955.818	-29777.8	0.000000	0.000000	6.282872	-0.042681	NaN	0.000000	0.001690	0.001682	28.0817	0.104308	0.001984	52.5738	-128.107	-168.242	-0.095975	0.281279	-0.796850	-0.798162	-0.042681	52.5738	-0.796241	-3.997858E+10	1.067604E-12	NaN
106	1.000000	0.290570	7.36608e+06	-43939.1	955.819	-29777.8	0.000000	0.000000	6.290853	0.029045	NaN	0.000000	0.001742	0.001698	28.081	0.031450	0.001951	16.1163	179.973	-168.492	0.017204	0.289272	-0.788871	-0.790169	0.029045	16.1163	-0.790223	-3.312145E+10	-8.769325E-13	NaN
106	1.000000	0.298563	7.36608e+06	-43939.1	955.818	-29777.8	0.000000	0.000000	6.298847	0.061032	NaN	0.000000	0.001717	0.001692	28.0809	0.101205	0.001883	53.753	-179.32	-168.226	0.059428	0.297246	-0.780879	-0.782196	0.061032	53.753	-0.781730	-2.539457E+10	-2.403361E-12	NaN
106	1.000000	0.306556	7.36608e+06	-43939.1	955.818	-29777.8	0.000000	0.000000	6.306836	-0.043534	NaN	0.000000	0.001704	0.001679	28.0811	0.135326	0.002082	64.9897	-104.689	-166.894	0.036675	0.305304	-0.772885	-0.774138	-0.043534	64.9897	-0.772383	-1.895398E+10	2.296818E-12	NaN
106	1.000000	0.314572	7.36608e+06	-43939.1	955.819	-29777.8	0.000000	0.000000	6.314852	-0.036360	NaN	0.000000	0.001680	0.001698	28.0811	0.034493	0.002091	16.495	-56.499	-167.36	-0.015314	0.313265	-0.764870	-0.766177	-0.036360	16.495	-0.763216	-1.422507E+10	2.556025E-12	NaN
106	1.000000	0.322605	7.36608e+06	-43939.1	955.818	-29777.8	0.000000	0.000000	6.322886	-0.013599	NaN	0.000000	0.001684	0.001708	28.0816	0.070311	0.001952	36.0193	25.2592	-166.04	0.028865	0.321303	-0.756837	-0.758139	-0.013599	36.0193	-0.756554	-1.154548E+10	1.177871E-12	NaN
106	1.000000	0.330574	7.36608e+06	-43939.1	955.818	-29777.8	0.000000	0.000000	6.330856	0.017885	NaN	0.000000	0.001717	0.001726	28.081	0.010711	0.001908	5.613563	-103.562	-165.063	-0.006185	0.329317	-0.748867	-0.750124	0.017885	5.613563	-0.751257	-9.779713E+9	-1.828828E-12	NaN
106	1.000000	0.338588	7.36608e+06	-43939.1	955.819	-29777.8	0.000000	0.000000	6.338871	0.029730	NaN	0.000000	0.001668	0.001695	28.0808	0.046443	0.002073	22.4031	1.984055	-164.235	-0.050507	0.337244	-0.740853	-0.742197	0.029730	22.4031	-0.741848	-7.281670E+9	-4.082818E-12	NaN
106	1.000000	0.346576	7.36608e+06	-43939.1	955.819	-29777.8	0.000000	0.000000	6.346858	0.006532	NaN	0.000000	0.001683	0.001673	28.0828	0.068492	0.002016	33.9698	-158.687	-167.895	0.030669	0.345229	-0.732865	-0.734213	0.006532	33.9698	-0.733010	-5.518522E+9	-1.183697E-12	NaN
106	1.000000	0.354606	7.36608e+06	-43939.1	955.818	-29777.8	0.000000	0.000000	6.354889	0.041202	NaN	0.000000	0.001699	0.001703	28.0819	0.096772	0.002207	43.8403	-57.226	-164.941	0.034151	0.353315	-0.724836	-0.726127	0.041202	43.8403	-0.725541	-4.365371E+9	-9.438455E-12	NaN
106	1.000000	0.362628	7.36608e+06	-43939.1	955.819	-29777.8	0.000000	0.000000	6.362911	0.031808	NaN	0.000000	0.001725	0.001668	28.0819	0.022351	0.001854	12.058	84.88	-168.585	0.113846	0.361249	-0.716813	-0.718193	0.031808	12.058	-0.718792	-3.531797E+9	-9.006218E-12	NaN
106	1.000000	0.370624	7.36608e+06	-43939.1	955.818	-29777.8	0.000000	0.000000	6.370905	-0.010423	NaN	0.000000	0.001701	0.001729	28.083	0.097794	0.001875	52.145	-122.594	-167.835	-0.047294	0.369324	-0.708817	-0.710118	-0.010423	52.145	-0.708667	-2.569582E+9	4.056420E-12	NaN
106	1.000000	0.378587	7.36608e+06	-43939.1	955.818	-29777.8	0.000000	0.000000	6.378869	0.022904	NaN	0.000000	0.001689	0.001694	28.0823	0.150404	0.002269	66.2865	-147.723	-167.353	0.045681	0.377323	-0.700855	-0.702119	0.022904	66.2865	-0.701114	-2.026482E+9	-1.130219E-11	NaN
106	1.000000	0.386567	7.36608e+06	-43939.1	955.818	-29777.8	0.000000	0.000000	6.386847	-0.025259	NaN	0.000000	0.001688	0.001680	28.0826	0.091769	0.002056	44.6297	-89.78	-167.895	0.061954	0.385298	-0.692874	-0.694143	-0.025259	44.6297	-0.692450	-1.543104E+9	1.636895E-11	NaN
106	1.000000	0.394639	7.36608e+06	-43939.1	955.818	-29777.8	0.000000	0.000000	6.394918	-0.051641	NaN	0.000000	0.001663	0.001700	28.0831	0.036621	0.001866	19.6217	121.745	-169.162	-0.015290	0.393301	-0.684803	-0.686141	-0.051641	19.6217	-0.682829	-1.139969E+9	4.529996E-11	NaN
106	1.000000	0.402600	7.36608e+06	-43939.1	955.818	-29777.8	0.000000	0.000000	6.402881	-0.009255	NaN	0.000000	0.001662	0.001656	28.0836	0.013217	0.001926	6.861372	156.813	-166.997	-0.007756	0.401284	-0.676842	-0.678158	-0.009255	6.861372	-0.675830	-9.144613E+8	1.012038E-11	NaN
106	1.000000	0.410599	7.36608e+06	-43939.1	955.819	-29777.8	0.000000	0.000000	6.410882	0.039915	NaN	0.000000	0.001649	0.001708	28.0839	0.054508	0.002144	25.4295	123.573	-166.294	0.019323	0.409296	-0.668843	-0.670146	0.039915	25.4295	-0.670020	-7.614835E+8	-5.241699E-11	NaN
106	1.000000	0.418608	7.36608e+06	-43939.1	955.818	-29777.8	0.000000	0.000000	6.418892	0.078146	NaN	0.000000	0.001678	0.001704	28.083	0.067011	0.001931	34.7052	141.017	-166.795	0.088126	0.417323	-0.660834	-0.662119	0.078146	34.7052	-0.662523	-6.012027E+8	-1.299821E-10	NaN
106	1.000000	0.426640	7.36608e+06	-43939.1	955.818	-29777.8	0.000000	0.000000	6.426924	0.071910	NaN	0.000000	0.001670	0.001670	28.0836	0.062794	0.001894	33.1589	108.544	-167.036	0.002154	0.425260	-0.652801	-0.654181	0.071910	33.1589	-0.654428	-4.657207E+8	-1.544055E-10	NaN
106	1.000000	0.434619	7.36608e+06	-43939.1	955.818	-29777.8	0.000000	0.000000	6.434902	0.036938	NaN	0.000000	0.001694	0.001703	28.0837	0.024167	0.002090	11.5643	-95.5074	-169.533	0.080188	0.433329	-0.644822	-0.646113	0.036938	11.5643	-0.647218	-3.709300E+8	-9.958176E-11	NaN
106	1.000000	0.442610	7.36608e+06	-43939.1	955.818	-29777.8	0.000000	0.000000	6.442892	0.018884	NaN	0.000000	0.001643	0.001703	28.0823	0.029899	0.001936	15.4431	-140.915	-168.159	0.050182	0.441350	-0.636831	-0.638091	0.018884	15.4431	-0.637749	-2.750402E+8	-6.866033E-11	NaN
106	1.000000	0.450629	7.36608e+06	-43939.1	955.818	-29777.8	0.000000	0.000000	6.450909	-0.012821	NaN	0.000000	0.001631	0.001692	28.0813	0.024981	0.001848	13.5211	50.8263	-168.015	0.021492	0.449259	-0.628813	-0.630183	-0.012821	13.5211	-0.628102	-2.027475E+8	6.323515E-11	NaN
106	1.000000	0.458656	7.36608e+06	-43939.1	955.818	-29777.8	0.000000	0.000000	6.458939	0.031185	NaN	0.000000	0.001637	0.001699	28.0826	0.072258	0.002134	33.8612	-21.9042	-165.851	0.040787	0.457324	-0.620785	-0.622118	0.031185	33.8612	-0.621476	-1.644081E+8	-1.896808E-10	NaN
106	1.000000	0.466618	7.36608e+06	-43939.1	955.818	-29777.8	0.000000	0.000000	6.466901	0.037351	NaN	0.000000	0.001635	0.001702	28.0829	0.067774	0.002012	33.6837	114.323	-168.305	0.012360	0.465338	-0.612823	-0.614104	0.037351	33.6837	-0.613655	-1.283488E+8	-2.910129E-10	NaN
106	1.000000	0.474662	7.36608e+06	-43939.1	955.818	-29777.8	0.000000	0.000000	6.474942	-0.014801	NaN	0.000000	0.001627	0.001677	28.0832	0.031270	0.001980	15.7947	162.252	-166.355	-0.056113	0.473357	-0.604780	-0.606085	-0.014801	15.7947	-0.604077	-9.475512E+7	1.562010E-10	NaN
106	1.000000	0.482645	7.36608e+06	-43939.1	955.818	-29777.8	0.000000	0.000000	6.482928	0.047843	NaN	0.000000	0.001641	0.001683	28.0829	0.059733	0.002087	28.6149	-176.835	-166.802	0.081231	0.481402	-0.596797	-0.598039	0.047843	28.6149	-0.598051	-7.827386E+7	-6.112265E-10	NaN
106	1.000000	0.490656	7.36608e+06	-43939.1	955.819	-29777.8	0.000000	0.000000	6.490939	0.040252	NaN	0.000000	0.001625	0.001685	28.0858	0.035145	0.002022	17.3822	-104.442	-170.219	0.010203	0.489355	-0.588786	-0.590087	0.040252	17.3822	-0.590522	-6.164093E+7	-6.530129E-10	NaN
106	1.000000	0.498651	7.36608e+06	-43939.1	955.818	-29777.8	0.000000	0.000000	6.498931	-0.024235	NaN	0.000000	0.001662	0.001682	28.0833	0.061798	0.002072	29.8214	-149.152	-166.69	-0.035087	0.497389	-0.580791	-0.582053	-0.024235	29.8214	-0.580182	-4.438447E+7	5.460245E-10	NaN
106	1.000000	0.506655	7.36608e+06	-43939.1	955.818	-29777.8	0.000000	0.000000	6.506938	0.057405	NaN	0.000000	0.001654	0.001720	28.0818	0.046395	0.001890	24.5499	37.3878	-164.756	0.121103	0.505390	-0.572787	-0.574052	0.057405	24.5499	-0.574541	-3.709823E+7	-1.547366E-9	NaN
106	1.000000	0.514674	7.36608e+06	-43939.1	955.818	-29777.8	0.000000	0.000000	6.514958	0.072633	NaN	0.000000	0.001628	0.001718	28.0805	0.071892	0.001937	37.1196	158.856	-167.556	0.052614	0.513381	-0.564768	-0.566061	0.072633	37.1196	-0.566235	-2.848400E+7	-2.549943E-9	NaN
106	1.000000	0.522662	7.36608e+06	-43939.1	955.818	-29777.8	0.000000	0.000000	6.522945	0.046570	NaN	0.000000	0.001682	0.001707	28.0812	0.063184	0.002023	31.2299	-112.959	-162.365	-0.002077	0.521319	-0.556780	-0.558123	0.046570	31.2299	-0.557898	-2.184221E+7	-2.132101E-9	NaN
106	1.000000	0.530647	7.36608e+06	-43939.1	955.817	-29777.9	0.000000	0.000000	6.530928	-0.024749	NaN	0.000000	0.001656	0.001721	28.0812	0.071714	0.002031	35.3103	166.733	-168.292	0.015018	0.529402	-0.548794	-0.550039	-0.024749	35.3103	-0.548268	-1.606831E+7	1.540240E-9	NaN
106	1.000000	0.538675	7.36608e+06	-43939.1	955.818	-29777.9	0.000000	0.000000	6.538956	0.003358	NaN	0.000000	0.001647	0.001719	28.0812	0.088437	0.002054	43.0585	15.2511	-165.389	0.022358	0.537393	-0.540767	-0.542048	0.003358	43.0585	-0.540825	-1.267084E+7	-2.650124E-10	NaN
106	1.000000	0.546662	7.36608e+06	-43939.1	955.818	-29777.9	0.000000	0.000000	6.546944	0.019058	NaN	0.000000	0.001665	0.001707	28.0813	0.035127	0.002042	17.2003	154.91	-169.074	-0.009010	0.545382	-0.532779	-0.534060	0.019058	17.2003	-0.533610	-1.006238E+7	-1.893964E-9	NaN
106	1.000000	0.554654	7.36608e+06	-43939.1	955.818	-29777.9	0.000000	0.000000	6.554936	0.035696	NaN	0.000000	0.001664	0.001695	28.0806	0.050593	0.002038	24.8304	147.362	-163.796	-0.013117	0.553395	-0.524788	-0.526047	0.035696	24.8304	-0.525866	-7.855e+06	-4.544326E-9	NaN
106	1.000000	0.562701	7.36608e+06	-43939.1	955.818	-29777.9	0.000000	0.000000	6.562979	-0.061809	NaN	0.000000	0.001598	0.001684	28.0826	0.139095	0.001959	71.0102	-71.122	-161.699	0.031992	0.561350	-0.516741	-0.518092	-0.061809	71.0102	-0.516088	-5.74351e+06	1.076156E-8	NaN
106	1.000000	0.570694	7.36608e+06	-43939.1	955.818	-29777.9	0.000000	0.000000	6.570976	0.024523	NaN	0.000000	0.001641	0.001734	28.0818	0.020317	0.001932	10.5165	-164.082	-165.483	0.025219	0.569376	-0.508748	-0.510065	0.024523	10.5165	-0.510497	-4.80106e+06	-5.107922E-9	NaN
106	1.000000	0.578700	7.36608e+06	-43939.1	955.818	-29777.9	0.000000	0.000000	6.578981	0.006710	NaN	0.000000	0.001652	0.001717	28.0819	0.032566	0.001959	16.6199	88.9818	-164.601	-0.001635	0.577386	-0.500742	-0.502056	0.006710	16.6199	-0.501045	-3.5448e+06	-1.892816E-9	NaN
106	1.000000	0.586659	7.36608e+06	-43939.1	955.819	-29777.9	0.000000	0.000000	6.586940	-0.000618	NaN	0.000000	0.001641	0.001724	28.0824	0.115690	0.001989	58.1712	53.0196	-166.769	-0.069047	0.585410	-0.492783	-0.494031	-0.000618	58.1712	-0.492775	-2.71744e+06	2.275744E-10	NaN
106	1.000000	0.594706	7.36608e+06	-43939.1	955.818	-29777.9	0.000000	0.000000	6.594990	0.063396	NaN	0.000000	0.001643	0.001655	28.0825	0.101944	0.002014	50.6192	-96.9574	-166.68	0.102581	0.593446	-0.484735	-0.485995	0.063396	50.6192	-0.485675	-2.16236e+06	-2.931788E-8	NaN
106	1.000000	0.602684	7.36608e+06	-43939.1	955.818	-29777.9	0.000000	0.000000	6.602967	0.040054	NaN	0.000000	0.001613	0.001693	28.0813	0.056753	0.002028	27.9803	-101.007	-166.622	0.014634	0.601390	-0.476757	-0.478051	0.040054	27.9803	-0.477831	-1.67941e+06	-2.385025E-8	NaN
106	1.000000	0.610712	7.36608e+06	-43939.1	955.819	-29777.9	0.000000	0.000000	6.610994	0.011382	NaN	0.000000	0.001628	0.001712	28.0813	0.014349	0.002040	7.033037	-2.542418	-166.926	0.081903	0.609395	-0.468729	-0.470047	0.011382	7.033037	-0.469943	-1.302e+06	-8.742312E-9	NaN
106	1.000000	0.618713	7.36608e+06	-43939.1	955.818	-29777.9	0.000000	0.000000	6.618996	0.057963	NaN	0.000000	0.001635	0.001725	28.0806	0.013589	0.001946	6.984398	-101.242	-166.931	0.058133	0.617386	-0.460729	-0.462056	0.057963	6.984398	-0.466953	-1.18212e+06	-4.903357E-8	NaN
106	1.000000	0.626710	7.36608e+06	-43939.1	955.819	-29777.9	0.000000	0.000000	6.626991	-0.006190	NaN	0.000000	0.001647	0.001730	28.0807	0.080039	0.002025	39.527	-118.839	-164.1	0.083385	0.625379	-0.452731	-0.454063	-0.006190	39.527	-0.452614	-743264	8.328403E-9	NaN
106	1.000000	0.634713	7.36608e+06	-43939.1	955.818	-29777.9	0.000000	0.000000	6.634993	-0.030311	NaN	0.000000	0.001684	0.001688	28.0817	0.069587	0.002179	31.9322	125.553	-167.868	-0.023445	0.633349	-0.444729	-0.446092	-0.030311	31.9322	-0.444017	-562381	5.389681E-8	NaN
106	1.000000	0.642727	7.36608e+06	-43939.1	955.818	-29777.9	0.000000	0.000000	6.643009	-0.000544	NaN	0.000000	0.001672	0.001706	28.0829	0.026401	0.002053	12.8608	-157.023	-164.474	0.046831	0.641412	-0.436714	-0.438030	-0.000544	12.8608	-0.436682	-443121	1.227991E-9	NaN
106	1.000000	0.650718	7.36608e+06	-43939.1	955.818	-29777.9	0.000000	0.000000	6.651000	0.019388	NaN	0.000000	0.001684	0.001709	28.0832	0.037685	0.002032	18.5452	19.4479	-164.008	-0.028100	0.649437	-0.428723	-0.430005	0.019388	18.5452	-0.429507	-350826	-5.526245E-8	NaN
106	1.000000	0.658714	7.36608e+06	-43939.1	955.817	-29777.9	0.000000	0.000000	6.658998	0.083989	NaN	0.000000	0.001699	0.001672	28.0826	0.090155	0.002046	44.0661	110.838	-165.195	0.003514	0.657424	-0.420728	-0.422018	0.083989	44.0661	-0.422157	-276061	-3.042411E-7	NaN
106	1.000000	0.666725	7.36608e+06	-43939.1	955.819	-29777.9	0.000000	0.000000	6.667008	0.028965	NaN	0.000000	0.001693	0.001685	28.0833	0.033528	0.002000	16.7681	-77.6362	-166.307	-0.002645	0.665411	-0.412716	-0.414031	0.028965	16.7681	-0.414012	-211553	-1.369170E-7	NaN
106	1.000000	0.674744	7.36608e+06	-43939.1	955.818	-29777.9	0.000000	0.000000	6.675026	0.013278	NaN	0.000000	0.001662	0.001743	28.0837	0.142447	0.002017	70.6263	5.035975	-167.793	-0.049724	0.673377	-0.404698	-0.406064	0.013278	70.6263	-0.404839	-156657	-8.475883E-8	NaN
106	1.000000	0.682727	7.36608e+06	-43939.1	955.818	-29777.9	0.000000	0.000000	6.683008	-0.013091	NaN	0.000000	0.001713	0.001712	28.0818	0.059712	0.001964	30.3979	-51.0397	-163.117	-0.000294	0.681403	-0.396714	-0.398039	-0.013091	30.3979	-0.396391	-118714	1.102746E-7	NaN
106	1.000000	0.690748	7.36608e+06	-43939.1	955.818	-29777.9	0.000000	0.000000	6.691031	0.035074	NaN	0.000000	0.001675	0.001694	28.0831	0.034720	0.002098	16.5452	-174.195	-165.462	0.059019	0.689444	-0.388694	-0.389997	0.035074	16.5452	-0.390284	-97100.7	-3.612147E-7	NaN
106	1.000000	0.698734	7.36608e+06	-43939.1	955.818	-29777.9	0.000000	0.000000	6.699018	0.072573	NaN	0.000000	0.001631	0.001704	28.0813	0.096782	0.001916	50.5006	-24.2064	-171.356	0.052035	0.697471	-0.380708	-0.381971	0.072573	50.5006	-0.381785	-73367.8	-9.891623E-7	NaN
106	1.000000	0.706771	7.36608e+06	-43939.1	955.817	-29777.9	0.000000	0.000000	6.707053	0.014999	NaN	0.000000	0.001664	0.001702	28.0832	0.165107	0.001939	85.1646	82.9614	-163.634	-0.014925	0.705443	-0.372670	-0.373999	0.014999	85.1646	-0.372802	-54508.9	-2.751582E-7	NaN
106	1.000000	0.714767	7.36608e+06	-43939.1	955.818	-29777.9	0.000000	0.000000	6.715048	0.001779	NaN	0.000000	0.001611	0.001715	28.0826	0.047275	0.002069	22.8464	-65.7934	-165.49	0.095452	0.713420	-0.364675	-0.366022	0.001779	22.8464	-0.364733	-41706.7	-4.265690E-8	NaN
106	1.000000	0.722760	7.36608e+06	-43939.1	955.817	-29777.9	0.000000	0.000000	6.723043	0.040229	NaN	0.000000	0.001589	0.001707	28.0827	0.018573	0.002012	9.231543	131.655	-164.323	-0.024516	0.721412	-0.356682	-0.358030	0.040229	9.231543	-0.359950	-35573.2	-1.130882E-6	NaN
106	1.000000	0.730720	7.36608e+06	-43939.1	955.818	-29777.9	0.000000	0.000000	6.731000	-0.025425	NaN	0.000000	0.001601	0.001687	28.0838	0.063610	0.002025	31.4068	123.483	-165.801	-0.034815	0.729480	-0.348721	-0.349962	-0.025425	31.4068	-0.348114	-23967.4	1.060831E-6	NaN
106	1.000000	0.738738	7.36608e+06	-43939.1	955.818	-29777.9	0.000000	0.000000	6.739020	0.012689	NaN	0.000000	0.001600	0.001724	28.0837	0.028755	0.001997	14.4014	173.253	-165.916	0.053300	0.737465	-0.340703	-0.341976	0.012689	14.4014	-0.341364	-19117.5	-6.637476E-7	NaN
106	1.000000	0.746745	7.36608e+06	-43939.1	955.818	-29777.9	0.000000	0.000000	6.747026	0.010424	NaN	0.000000	0.001582	0.001682	28.0846	0.137314	0.002003	68.56	79.6587	-165.651	0.085109	0.745475	-0.332697	-0.333967	0.010424	68.56	-0.332811	-14341.3	-7.268431E-7	NaN
106	1.000000	0.754732	7.36608e+06	-43939.1	955.818	-29777.9	0.000000	0.000000	6.755013	0.000811	NaN	0.000000	0.001627	0.001717	28.0826	0.100514	0.002024	49.655	-145.722	-165.389	-0.091144	0.753508	-0.324709	-0.325933	0.000811	49.655	-0.324722	-10915.7	-7.432262E-8	NaN
106	1.000000	0.762772	7.36608e+06	-43939.1	955.818	-29777.9	0.000000	0.000000	6.763055	0.050404	NaN	0.000000	0.001616	0.001673	28.0831	0.136274	0.001958	69.5957	-175.565	-168.039	0.016764	0.761456	-0.316670	-0.317986	0.050404	69.5957	-0.317213	-8464.29	-5.954945E-6	NaN
106	1.000000	0.770748	7.36608e+06	-43939.1	955.818	-29777.9	0.000000	0.000000	6.771031	0.037422	NaN	0.000000	0.001635	0.001662	28.0802	0.110501	0.001868	59.1422	73.6086	-168.502	9.240272E-5	0.769471	-0.308694	-0.309971	0.037422	59.1422	-0.309168	-6437.86	-5.812855E-6	NaN
106	1.000000	0.778773	7.36608e+06	-43939.1	955.818	-29777.9	0.000000	0.000000	6.779054	-0.013951	NaN	0.000000	0.001636	0.001710	28.0813	0.089338	0.002155	41.4611	-107.249	-164.972	-0.019384	0.777465	-0.300668	-0.301976	-0.013951	41.4611	-0.300416	-4773.38	2.922742E-6	NaN
106	1.000000	0.786779	7.36608e+06	-43939.1	955.818	-29777.9	0.000000	0.000000	6.787063	0.060591	NaN	0.000000	0.001621	0.001704	28.081	0.052954	0.001839	28.8021	-56.8396	-164.821	0.112205	0.785503	-0.292663	-0.293939	0.060591	28.8021	-0.294240	-3861.36	-1.569167E-5	NaN
106	1.000000	0.794759	7.36608e+06	-43939.1	955.818	-29777.9	0.000000	0.000000	6.795042	0.043448	NaN	0.000000	0.001646	0.001721	28.0814	0.133309	0.001943	68.6102	125.318	-165.979	0.035784	0.793409	-0.284682	-0.286033	0.043448	68.6102	-0.285157	-2822.47	-1.539346E-5	NaN
106	1.000000	0.802774	7.36608e+06	-43939.1	955.819	-29777.9	0.000000	0.000000	6.803055	-0.010664	NaN	0.000000	0.001625	0.001722	28.083	0.151622	0.001912	79.2923	164.069	-164.273	-0.002303	0.801493	-0.276667	-0.277949	-0.010664	79.2923	-0.276566	-2094.62	5.091193E-6	NaN
106	1.000000	0.810793	7.36608e+06	-43939.1	955.819	-29777.9	0.000000	0.000000	6.811076	0.033626	NaN	0.000000	0.001641	0.001695	28.0823	0.002013	0.001935	1.040021	-169.059	-169.89	-0.052233	0.809483	-0.268649	-0.269958	0.033626	1.040021	-0.292898	-3687.02	-9.120138E-6	NaN
106	1.000000	0.818776	7.36608e+06	-43939.1	955.818	-29777.9	0.000000	0.000000	6.819058	0.018033	NaN	0.000000	0.001640	0.001706	28.0818	0.050622	0.001998	25.3344	-78.1697	-166.205	0.083529	0.817466	-0.260666	-0.261976	0.018033	25.3344	-0.261199	-1222.62	-1.474917E-5	NaN
106	1.000000	0.826803	7.36608e+06	-43939.1	955.818	-29777.9	0.000000	0.000000	6.827085	0.012666	NaN	0.000000	0.001602	0.001673	28.0829	0.040429	0.002016	20.0561	-73.2761	-165.684	0.050181	0.825502	-0.252638	-0.253940	0.012666	20.0561	-0.253112	-918.39	-1.379139E-5	NaN
106	1.000000	0.834774	7.36608e+06	-43939.1	955.819	-29777.9	0.000000	0.000000	6.835058	0.047554	NaN	0.000000	0.001642	0.001642	28.0821	0.110489	0.002113	52.2811	-114.64	-168.39	-0.027174	0.833585	-0.244667	-0.245857	0.047554	52.2811	-0.245349	-696.434	-6.828149E-5	NaN
106	1.000000	0.842813	7.36608e+06	-43939.1	955.818	-29777.9	0.000000	0.000000	6.843096	0.064260	NaN	0.000000	0.001676	0.001678	28.0815	0.097504	0.001962	49.7041	-114.475	-163.714	0.054293	0.841493	-0.236629	-0.237949	0.064260	49.7041	-0.237599	-527.228	-0.000122	NaN
106	1.000000	0.850815	7.36608e+06	-43939.1	955.818	-29777.9	0.000000	0.000000	6.851097	0.023701	NaN	0.000000	0.001667	0.001680	28.0812	0.084996	0.001984	42.843	29.8235	-170.289	0.000559	0.849508	-0.228627	-0.229933	0.023701	42.843	-0.229041	-386.699	-6.128996E-5	NaN
106	1.000000	0.858831	7.36608e+06	-43939.1	955.818	-29777.9	0.000000	0.000000	6.859113	0.020463	NaN	0.000000	0.001713	0.001719	28.0813	0.066085	0.001958	33.7446	-7.147283	-167.032	0.000222	0.857540	-0.220611	-0.221902	0.020463	33.7446	-0.221066	-288.867	-7.083955E-5	NaN
106	1.000000	0.866821	7.36608e+06	-43939.1	955.819	-29777.9	0.000000	0.000000	6.867103	0.013351	NaN	0.000000	0.001694	0.001689	28.0829	0.025988	0.002062	12.6011	-47.8843	-167.516	0.052017	0.865467	-0.212620	-0.213974	0.013351	12.6011	-0.213415	-217.768	-6.131072E-5	NaN
106	1.000000	0.874801	7.36608e+06	-43939.1	955.817	-29777.9	0.000000	0.000000	6.875079	-0.060555	NaN	0.000000	0.001678	0.001699	28.0813	0.095771	0.002003	47.805	-89.5647	-167.077	-0.074091	0.873517	-0.204641	-0.205924	-0.060555	47.805	-0.203691	-151.421	0.000400	NaN
106	1.000000	0.882812	7.36608e+06	-43939.1	955.818	-29777.9	0.000000	0.000000	6.883092	-0.024826	NaN	0.000000	0.001727	0.001705	28.082	0.050676	0.001961	25.8455	-36.5738	-165.894	-0.014232	0.881534	-0.196630	-0.197908	-0.024826	25.8455	-0.195909	-112.785	0.000220	NaN
106	1.000000	0.890797	7.36608e+06	-43939.1	955.818	-29777.9	0.000000	0.000000	6.891081	0.084742	NaN	0.000000	0.001678	0.001705	28.0827	0.044580	0.002062	21.6147	166.033	-163.687	0.039678	0.889520	-0.188645	-0.189921	0.084742	21.6147	-0.191585	-95.6041	-0.000886	NaN
106	1.000000	0.898847	7.36608e+06	-43939.1	955.818	-29777.9	0.000000	0.000000	6.899134	0.129390	NaN	0.000000	0.001610	0.001721	28.0828	0.032763	0.002067	15.8538	-107.953	-168.937	0.112245	0.897554	-0.180594	-0.181888	0.129390	15.8538	-0.186715	-79.2497	-0.001633	NaN
106	1.000000	0.906834	7.36608e+06	-43939.1	955.817	-29777.9	0.000000	0.000000	6.907114	-0.010004	NaN	0.000000	0.001630	0.001700	28.0825	0.096657	0.001977	48.8864	-91.7751	-169.323	0.031137	0.905555	-0.172608	-0.173887	-0.010004	48.8864	-0.172455	-45.3029	0.000221	NaN
106	1.000000	0.914837	7.36608e+06	-43939.1	955.819	-29777.9	0.000000	0.000000	6.915117	-0.019902	NaN	0.000000	0.001608	0.001679	28.0827	0.030908	0.002052	15.0598	120.135	-166.022	-0.051218	0.913540	-0.164605	-0.165902	-0.019902	15.0598	-0.163613	-31.7628	0.000627	NaN
106	1.000000	0.922823	7.36608e+06	-43939.1	955.819	-29777.9	0.000000	0.000000	6.923105	0.023573	NaN	0.000000	0.001609	0.001649	28.0825	0.019834	0.002017	9.834364	136.004	-168.916	-0.021595	0.921562	-0.156619	-0.157879	0.023573	9.834364	-0.158416	-25.6915	-0.000918	NaN
106	1.000000	0.930815	7.36608e+06	-43939.1	955.819	-29777.9	0.000000	0.000000	6.931100	0.077935	NaN	0.000000	0.001626	0.001662	28.0822	0.058596	0.002073	28.2628	-25.8758	-167.071	0.092986	0.929546	-0.148626	-0.149895	0.077935	28.2628	-0.150694	-18.6491	-0.004179	NaN
106	1.000000	0.938864	7.36608e+06	-43939.1	955.819	-29777.9	0.000000	0.000000	6.939145	-0.000468	NaN	0.000000	0.001614	0.001702	28.0824	0.091374	0.001846	49.4949	-143.206	-168.31	-0.010442	0.937530	-0.140578	-0.141911	-0.000468	49.4949	-0.140570	-12.1248	3.860328E-5	NaN
106	1.000000	0.946865	7.36608e+06	-43939.1	955.818	-29777.9	0.000000	0.000000	6.947150	0.078801	NaN	0.000000	0.001600	0.001728	28.0827	0.031282	0.002054	15.2321	164.354	-167.195	0.111536	0.945525	-0.132577	-0.133917	0.078801	15.2321	-0.136457	-10.1398	-0.007771	NaN
106	1.000000	0.954859	7.36608e+06	-43939.1	955.818	-29777.9	0.000000	0.000000	6.955142	0.044901	NaN	0.000000	0.001603	0.001758	28.0824	0.035219	0.002034	17.3108	159.221	-169.174	0.009176	0.953563	-0.124583	-0.125879	0.044901	17.3108	-0.126528	-6.518507	-0.006888	NaN
106	1.000000	0.962865	7.36608e+06	-43939.1	955.818	-29777.9	0.000000	0.000000	6.963146	-0.025040	NaN	0.000000	0.001597	0.001777	28.0834	0.035773	0.001979	18.0755	-88.9918	-164.055	0.057918	0.961489	-0.116576	-0.117953	-0.025040	18.0755	-0.115537	-3.918911	0.006390	NaN
106	1.000000	0.970837	7.36608e+06	-43939.1	955.819	-29777.9	0.000000	0.000000	6.971119	0.027746	NaN	0.000000	0.001589	0.001704	28.083	0.042298	0.002062	20.5165	53.9849	-166.552	0.011897	0.969582	-0.108605	-0.109860	0.027746	20.5165	-0.109619	-2.950073	-0.009405	NaN
106	1.000000	0.978860	7.36608e+06	-43939.1	955.818	-29777.9	0.000000	0.000000	6.979142	0.007182	NaN	0.000000	0.001656	0.001747	28.083	0.115293	0.002082	55.3883	26.7492	-167.719	-0.014310	0.977494	-0.100582	-0.101947	0.007182	55.3883	-0.100679	-1.891445	-0.003797	NaN
106	1.000000	0.986856	7.36608e+06	-43939.1	955.819	-29777.9	0.000000	0.000000	6.987138	0.026787	NaN	0.000000	0.001623	0.001731	28.0848	0.036061	0.002089	17.2617	25.1526	-165.208	0.073818	0.985541	-0.092585	-0.093900	0.026787	17.2617	-0.093749	-1.320733	-0.020282	NaN
106	1.000000	0.994870	7.36608e+06	-43939.1	955.819	-29777.9	0.000000	0.000000	6.995154	0.084879	NaN	0.000000	0.001601	0.001738	28.0839	0.058790	0.001940	30.303	169.93	-167.81	0.134475	0.993566	-0.084572	-0.085876	0.084879	30.303	-0.086673	-0.901469	-0.094156	NaN
106	1.000000	1.002869	7.36608e+06	-43939.1	955.817	-29777.9	0.000000	0.000000	7.003151	0.002764	NaN	0.000000	0.001584	0.001735	28.0828	0.082020	0.002038	40.2511	-150.167	-167.578	0.003573	1.001630	-0.076572	-0.077812	0.002764	40.2511	-0.076624	-0.508506	-0.005436	NaN
106	1.000000	1.010848	7.36608e+06	-43939.1	955.819	-29777.9	0.000000	0.000000	7.011132	0.077636	NaN	0.000000	0.001625	0.001739	28.083	0.018106	0.001923	9.417148	124.703	-164.791	0.028639	1.009558	-0.068594	-0.069884	0.077636	9.417148	-0.074777	-0.455762	-0.170344	NaN
106	1.000000	1.018864	7.36608e+06	-43939.1	955.818	-29777.9	0.000000	0.000000	7.019148	0.077257	NaN	0.000000	0.001630	0.001747	28.0825	0.060327	0.001873	32.2	-146.374	-166.171	0.030813	1.017569	-0.060578	-0.061873	0.077257	32.2	-0.062377	-0.210459	-0.367088	NaN
106	1.000000	1.026883	7.36608e+06	-43939.1	955.819	-29777.9	0.000000	0.000000	7.027166	0.028500	NaN	0.000000	0.001656	0.001699	28.0831	0.033479	0.001961	17.069	149.283	-167.003	0.009528	1.025576	-0.052559	-0.053865	0.028500	17.069	-0.053811	-0.118735	-0.240033	NaN
106	1.000000	1.034874	7.36608e+06	-43939.1	955.818	-29777.9	0.000000	0.000000	7.035155	-0.008159	NaN	0.000000	0.001657	0.001767	28.0833	0.087999	0.002016	43.6426	55.339	-165.057	0.026368	1.033596	-0.044568	-0.045846	-0.008159	43.6426	-0.044428	-0.061729	0.132176	NaN
106	1.000000	1.042881	7.36608e+06	-43939.1	955.819	-29777.9	0.000000	0.000000	7.043162	-0.005725	NaN	0.000000	0.001726	0.001720	28.0838	0.046187	0.002044	22.591	-42.6338	-165.643	-0.050854	1.041600	-0.036560	-0.037841	-0.005725	22.591	-0.036370	-0.035162	0.162827	NaN
106	1.000000	1.050914	7.36608e+06	-43939.1	955.82	-29777.9	0.000000	0.000000	7.051196	0.034224	NaN	0.000000	0.001725	0.001744	28.0834	0.134241	0.002073	64.769	-49.3629	-164.042	0.139504	1.049629	-0.028528	-0.029813	0.034224	64.769	-0.028924	-0.021488	-1.592705	NaN
106	1.000000	1.058877	7.36608e+06	-43939.1	955.819	-29777.9	0.000000	0.000000	7.059157	-0.027399	NaN	0.000000	0.001727	0.001772	28.0815	0.016507	0.002060	8.013370	-96.1616	-165.327	-0.082872	1.057586	-0.020565	-0.021856	-0.027399	8.013370	-0.018000	-0.011163	2.454550	NaN
106	1.000000	1.066897	7.36608e+06	-43939.1	955.819	-29777.9	0.000000	0.000000	7.067177	-0.035546	NaN	0.000000	0.001714	0.001767	28.0827	0.092039	0.002167	42.4692	-103.87	-167.073	0.014262	1.065645	-0.012545	-0.013796	-0.035546	42.4692	-0.011917	-0.007481	4.751517	NaN
106	1.000000	1.074891	7.36608e+06	-43939.1	955.819	-29777.9	0.000000	0.000000	7.075171	-0.027594	NaN	0.000000	0.001724	0.001785	28.0828	0.057062	0.001877	30.4018	-5.446797	-166.516	-0.065276	1.073596	-0.004550	-0.005846	-0.027594	30.4018	-0.003870	-0.002694	10.2415	NaN
106	1.000000	1.082861	7.36608e+06	-43939.1	955.819	-29777.9	0.000000	0.000000	7.083247	2.548900	NaN	0.000000	0.001757	0.001744	28.0819	3.485634	0.001965	1774	9.394119	-170.562	0.935511	1.081607	0.003419	0.002165	2.548900	1774	0.002342	0.001833	1390.55	37856.9
106	2.000000	1.089446	7.36608e+06	-43939.1	955.819	-29777.9	0.000000	0.000000	7.090169	10.745	NaN	0.000000	0.001707	0.001733	28.0812	10.1507	0.001609	6308.83	7.297028	-174.581	10.4982	1.089010	0.010004	0.009569	10.745	6308.83	0.008727	0.007801	1377.47	65262
106	2.000000	1.091417	7.36608e+06	-43939.1	955.82	-29777.9	0.000000	0.000000	7.092232	12.9756	NaN	0.000000	0.001678	0.001751	28.0811	12.3567	0.001694	7293.5	7.915842	-176.245	12.5059	1.091191	0.011976	0.011750	12.9756	7293.5	0.010641	0.009903	1310.29	66962.2
106	2.000000	1.093485	7.36608e+06	-43939.1	955.82	-29777.9	0.000000	0.000000	7.094465	17.0071	NaN	0.000000	0.001693	0.001754	28.0812	14.889	0.001691	8804.29	6.142156	-175.751	17.3309	1.093118	0.014043	0.013677	17.0071	8804.29	0.012594	0.012210	1392.93	72797.5
106	2.000000	1.095387	7.36608e+06	-43939.1	955.819	-29777.9	0.000000	0.000000	7.096422	18.3221	NaN	0.000000	0.001703	0.001705	28.0814	16.0384	0.001800	8908.61	5.077018	-175.3	17.8427	1.095137	0.015946	0.015696	18.3221	8908.61	0.014403	0.014498	1263.8	67598.2
106	2.000000	1.097377	7.36608e+06	-43939.1	955.818	-29777.9	0.000000	0.000000	7.098700	25.3457	NaN	0.000000	0.001728	0.001715	28.0826	19.2667	0.001761	10940.4	6.349345	-178.206	24.9726	1.097078	0.017935	0.017636	25.3457	10940.4	0.016198	0.016916	1498.36	76853.1
106	2.000000	1.099363	7.36608e+06	-43939.1	955.818	-29777.9	0.000000	0.000000	7.100826	28.7519	NaN	0.000000	0.001697	0.001697	28.0825	20.486	0.001643	12465.7	4.614586	-178.699	27.8412	1.099058	0.019921	0.019617	28.7519	12465.7	0.018192	0.019780	1453.6	80980.1
106	2.000000	1.101349	7.36608e+06	-43939.1	955.819	-29777.9	0.000000	0.000000	7.103015	33.6873	NaN	0.000000	0.001699	0.001751	28.0825	23.0058	0.001852	12425	6.229438	-178.733	32.2597	1.101012	0.021907	0.021571	33.6873	12425	0.019874	0.022344	1507.65	75942.9
106	2.000000	1.103419	7.36608e+06	-43939.1	955.818	-29777.9	0.000000	0.000000	7.105149	35.2511	NaN	0.000000	0.001696	0.001734	28.0825	24.5082	0.001788	13710.5	1.653441	-174.597	36.8551	1.103085	0.023978	0.023643	35.2511	13710.5	0.022049	0.025865	1362.87	77887.4
106	2.000000	1.105381	7.36608e+06	-43939.1	955.819	-29777.9	0.000000	0.000000	7.107304	39.9356	NaN	0.000000	0.001680	0.001722	28.0832	26.2508	0.001762	14894.1	4.993621	-178.212	41.5699	1.105028	0.025939	0.025586	39.9356	14894.1	0.023928	0.029095	1372.61	79777.6
106	2.000000	1.107300	7.36608e+06	-43939.1	955.818	-29777.9	0.000000	0.000000	7.109444	45.3256	NaN	0.000000	0.001646	0.001727	28.0817	28.7071	0.001883	15246.4	3.232357	-177.171	43.5974	1.107048	0.027858	0.027606	45.3256	15246.4	0.025629	0.032169	1408.98	77664.2
106	2.000000	1.109352	7.36608e+06	-43939.1	955.817	-29777.9	0.000000	0.000000	7.111793	52.5496	NaN	0.000000	0.001669	0.001716	28.0818	30.4613	0.001674	18192.4	5.287017	178.316	51.2694	1.109017	0.029911	0.029576	52.5496	18192.4	0.027744	0.036198	1451.74	87362.1
106	2.000000	1.111341	7.36608e+06	-43939.1	955.818	-29777.9	0.000000	0.000000	7.114134	61.1046	NaN	0.000000	0.001702	0.001679	28.0816	33.1269	0.001772	18691.8	5.679339	177.248	60.4395	1.110988	0.031899	0.031546	61.1046	18691.8	0.029447	0.039606	1542.81	85811.2
106	2.000000	1.113282	7.36608e+06	-43939.1	955.818	-29777.9	0.000000	0.000000	7.116286	66.2346	NaN	0.000000	0.001704	0.001682	28.0826	34.5853	0.001763	19619.2	3.181241	179.789	62.8826	1.112985	0.033840	0.033543	66.2346	19619.2	0.031308	0.043499	1522.67	85943.8
106	2.000000	1.115255	7.36608e+06	-43939.1	955.818	-29777.9	0.000000	0.000000	7.118445	70.7677	NaN	0.000000	0.001607	0.001695	28.0825	36.1819	0.001734	20865.9	4.836898	177.345	67.2974	1.115034	0.035814	0.035592	70.7677	20865.9	0.033270	0.047794	1480.68	87201.4
106	2.000000	1.117351	7.36608e+06	-43939.1	955.818	-29777.9	0.000000	0.000000	7.120885	79.1486	NaN	0.000000	0.001608	0.001701	28.0834	40.0802	0.001915	20926.5	5.514680	177.282	79.4506	1.116954	0.037909	0.037513	79.1486	20926.5	0.035072	0.051915	1524.59	83912.1
106	2.000000	1.119312	7.36608e+06	-43939.1	955.818	-29777.9	0.000000	0.000000	7.123125	85.9226	NaN	0.000000	0.001601	0.001696	28.0848	39.9217	0.001738	22972.5	1.722970	179.955	85.9249	1.119038	0.039870	0.039596	85.9226	22972.5	0.037065	0.056664	1516.35	88171.5
106	2.000000	1.121318	7.36608e+06	-43939.1	955.819	-29777.9	0.000000	0.000000	7.125511	95.1631	NaN	0.000000	0.001649	0.001686	28.0834	43.1476	0.001785	24175.1	2.667870	178.78	93.7885	1.120961	0.041876	0.041519	95.1631	24175.1	0.038924	0.061277	1552.99	89226.1
106	2.000000	1.123402	7.36608e+06	-43939.1	955.819	-29777.9	0.000000	0.000000	7.127972	104.328	NaN	0.000000	0.001684	0.001650	28.0842	45.404	0.001708	26583.3	5.091093	177.318	106.998	1.122891	0.043961	0.043449	104.328	26583.3	0.041017	0.066683	1564.52	94053.3
106	2.000000	1.125292	7.36608e+06	-43939.1	955.818	-29777.9	0.000000	0.000000	7.130202	112.607	NaN	0.000000	0.001689	0.001693	28.0851	46.7466	0.001717	27222.2	0.664878	178.955	109.996	1.124994	0.045851	0.045553	112.607	27222.2	0.042748	0.071324	1578.83	93128
106	2.000000	1.127238	7.36608e+06	-43939.1	955.817	-29777.9	0.000000	0.000000	7.132531	121.944	NaN	0.000000	0.001675	0.001667	28.0831	50.1104	0.001751	28618.3	4.440616	175.91	117.921	1.126928	0.047796	0.047486	121.944	28618.3	0.044600	0.076456	1594.95	94560.6
106	2.000000	1.129329	7.36608e+06	-43939.1	955.817	-29777.9	0.000000	0.000000	7.134998	131.074	NaN	0.000000	0.001673	0.001678	28.0831	50.4212	0.001677	30070.7	0.084456	179.45	132.381	1.129025	0.049887	0.049583	131.074	30070.7	0.046618	0.082247	1593.66	95798.3
106	2.000000	1.131290	7.36608e+06	-43939.1	955.817	-29777.9	0.000000	0.000000	7.137418	142.242	NaN	0.000000	0.001678	0.001663	28.0832	53.4281	0.001777	30071.6	3.079667	176.049	140.946	1.130954	0.051848	0.051512	142.242	30071.6	0.048301	0.087234	1630.59	93022.6
106	2.000000	1.133287	7.36608e+06	-43939.1	955.817	-29777.9	0.000000	0.000000	7.140103	158.996	NaN	0.000000	0.001675	0.001671	28.0837	55.5454	0.001823	30461	1.546163	178.517	156.591	1.132970	0.053845	0.053528	158.996	30461	0.049930	0.092198	1724.52	91655.2
106	2.000000	1.135268	7.36608e+06	-43939.1	955.818	-29777.9	0.000000	0.000000	7.142485	168.736	NaN	0.000000	0.001687	0.001689	28.0842	57.8767	0.001787	32393.7	5.325350	173.727	166.296	1.135004	0.055827	0.055562	168.736	32393.7	0.051920	0.098440	1714.1	94329.6
106	2.000000	1.137314	7.36608e+06	-43939.1	955.818	-29777.9	0.000000	0.000000	7.145231	185.774	NaN	0.000000	0.001658	0.001674	28.0843	59.8891	0.001685	35543.8	3.388976	175.62	184.754	1.136894	0.057872	0.057453	185.774	35543.8	0.053952	0.105020	1768.94	100208
106	2.000000	1.139289	7.36608e+06	-43939.1	955.818	-29777.9	0.000000	0.000000	7.147723	198.351	NaN	0.000000	0.001647	0.001673	28.0852	61.3428	0.001790	34275.9	7.297605	171.852	197.207	1.138943	0.059847	0.059501	198.351	34275.9	0.055507	0.110191	1800.06	94338.4
106	2.000000	1.141218	7.36608e+06	-43939.1	955.818	-29777.9	0.000000	0.000000	7.150147	210.382	NaN	0.000000	0.001672	0.001683	28.0844	65.659	0.001865	35198.1	5.172266	172.619	205.926	1.140903	0.061777	0.061462	210.382	35198.1	0.057294	0.116284	1809.22	94304.5
106	2.000000	1.143248	7.36608e+06	-43939.1	955.818	-29777.9	0.000000	0.000000	7.152625	221.286	NaN	0.000000	0.001672	0.001647	28.0837	67.0945	0.001835	36559	5.005383	172.776	218.933	1.143051	0.063807	0.063609	221.286	36559	0.059267	0.123193	1796.25	95164.4
106	2.000000	1.145261	7.36608e+06	-43939.1	955.817	-29777.9	0.000000	0.000000	7.155276	236.828	NaN	0.000000	0.001699	0.001645	28.0838	68.6964	0.001756	39123.3	5.798718	171.72	234.732	1.144904	0.065819	0.065463	236.828	39123.3	0.061279	0.130434	1815.68	98972
106	2.000000	1.147279	7.36608e+06	-43939.1	955.817	-29777.9	0.000000	0.000000	7.157809	249.341	NaN	0.000000	0.001706	0.001669	28.0836	71.9793	0.001765	40779	5.766375	171.065	249.149	1.146961	0.067838	0.067519	249.341	40779	0.063252	0.137727	1810.4	100392
106	2.000000	1.149185	7.36608e+06	-43939.1	955.817	-29777.9	0.000000	0.000000	7.160511	268.702	NaN	0.000000	0.001695	0.001678	28.0829	71.3844	0.001739	41058.4	2.973495	173.868	262.476	1.148834	0.069744	0.069393	268.702	41058.4	0.064835	0.143716	1869.67	98951.6
106	2.000000	1.151205	7.36608e+06	-43939.1	955.817	-29777.9	0.000000	0.000000	7.163025	280.74	NaN	0.000000	0.001658	0.001675	28.0821	74.8314	0.001835	40776	4.379870	173.243	276.662	1.150832	0.071763	0.071391	280.74	40776	0.066599	0.150530	1865.01	96021
106	2.000000	1.153269	7.36608e+06	-43939.1	955.818	-29777.9	0.000000	0.000000	7.165864	299.591	NaN	0.000000	0.001681	0.001624	28.0821	76.7351	0.001797	42699.9	5.372495	172.278	298.104	1.152790	0.073827	0.073348	299.591	42699.9	0.068565	0.158300	1892.55	98052.7
106	2.000000	1.155211	7.36608e+06	-43939.1	955.818	-29777.9	0.000000	0.000000	7.168134	307.567	NaN	0.000000	0.001669	0.001686	28.0828	78.1526	0.001839	42505.2	5.626149	171.293	303.083	1.154916	0.075769	0.075474	307.567	42505.2	0.070342	0.165484	1858.6	95463.5
106	2.000000	1.157282	7.36608e+06	-43939.1	955.817	-29777.9	0.000000	0.000000	7.170673	318.955	NaN	0.000000	0.001659	0.001693	28.084	80.8319	0.001839	43962.6	2.593134	173.74	318.555	1.157102	0.077840	0.077660	318.955	43962.6	0.072399	0.173983	1833.26	96294.9
106	2.000000	1.159295	7.36608e+06	-43939.1	955.818	-29777.9	0.000000	0.000000	7.173457	337.714	NaN	0.000000	0.001750	0.001671	28.0836	81.5601	0.001797	45381	2.877428	173.576	337.479	1.159017	0.079853	0.079575	337.714	45381	0.074272	0.181899	1856.6	97214.6
106	2.000000	1.161176	7.36608e+06	-43939.1	955.818	-29777.9	0.000000	0.000000	7.176271	360.399	NaN	0.000000	0.001705	0.001698	28.084	83.4327	0.001756	47514.6	2.988569	172.903	354.788	1.160926	0.081735	0.081484	360.399	47514.6	0.076046	0.189548	1901.36	99710.5
106	2.000000	1.163343	7.36608e+06	-43939.1	955.818	-29777.9	0.000000	0.000000	7.179081	376.059	NaN	0.000000	0.001703	0.001690	28.0832	86.4962	0.001796	48151	5.501472	171.11	377.225	1.162948	0.083901	0.083507	376.059	48151	0.078044	0.198339	1896.05	98781.3
106	2.000000	1.165307	7.36608e+06	-43939.1	955.818	-29777.9	0.000000	0.000000	7.181690	391.742	NaN	0.000000	0.001698	0.001687	28.0838	88.1678	0.001690	52181.3	6.727628	168.871	393.571	1.164907	0.085865	0.085466	391.742	52181.3	0.080235	0.208195	1881.61	104485
106	2.000000	1.167204	7.36608e+06	-43939.1	955.818	-29777.9	0.000000	0.000000	7.184345	410.187	NaN	0.000000	0.001685	0.001659	28.0826	90.6446	0.001784	50812.1	5.776386	169.716	406.173	1.166853	0.087762	0.087411	410.187	50812.1	0.081708	0.214947	1908.32	100133
106	2.000000	1.169231	7.36608e+06	-43939.1	955.819	-29777.9	0.000000	0.000000	7.187139	428.831	NaN	0.000000	0.001671	0.001706	28.0823	90.5657	0.001766	51287.9	2.327123	173.68	428.803	1.168933	0.089790	0.089492	428.831	51287.9	0.083519	0.223387	1919.68	99142.4
106	2.000000	1.171126	7.36608e+06	-43939.1	955.818	-29777.9	0.000000	0.000000	7.189821	447.995	NaN	0.000000	0.001675	0.001664	28.0821	93.4391	0.001714	54527.2	4.730768	170.337	439.79	1.170843	0.091684	0.091402	447.995	54527.2	0.085522	0.232900	1923.55	103229
106	2.000000	1.173395	7.36608e+06	-43939.1	955.817	-29777.9	0.000000	0.000000	7.192708	463.03	NaN	0.000000	0.001717	0.001661	28.0829	95.5333	0.001776	53801.5	6.158224	169.885	468.137	1.172896	0.093953	0.093455	463.03	53801.5	0.087498	0.242463	1909.69	99826.1
106	2.000000	1.175233	7.36608e+06	-43939.1	955.818	-29777.9	0.000000	0.000000	7.195374	483.164	NaN	0.000000	0.001705	0.001686	28.0836	97.1577	0.001729	56193.6	4.875179	170.162	480.721	1.174864	0.095792	0.095422	483.164	56193.6	0.089343	0.251553	1920.72	102364
106	2.000000	1.177182	7.36608e+06	-43939.1	955.818	-29777.9	0.000000	0.000000	7.198124	502.644	NaN	0.000000	0.001694	0.001709	28.083	100.017	0.001717	58256.1	6.052536	168.803	499.927	1.176854	0.097741	0.097412	502.644	58256.1	0.091269	0.261214	1924.26	104140
106	2.000000	1.179218	7.36608e+06	-43939.1	955.819	-29777.9	0.000000	0.000000	7.200960	522.107	NaN	0.000000	0.001723	0.001672	28.0849	100.931	0.001805	55910.2	5.968961	169.323	521.427	1.178777	0.099776	0.099336	522.107	55910.2	0.092773	0.268870	1941.86	98512.9
106	2.000000	1.181132	7.36608e+06	-43939.1	955.818	-29777.9	0.000000	0.000000	7.203769	543.884	NaN	0.000000	0.001724	0.001646	28.0852	103.623	0.001832	56559.5	5.391075	169.556	536.951	1.180834	0.101690	0.101392	543.884	56559.5	0.094478	0.277681	1958.67	98063.1
106	2.000000	1.183166	7.36608e+06	-43939.1	955.819	-29777.9	0.000000	0.000000	7.206458	559.804	NaN	0.000000	0.001722	0.001691	28.0852	104.8	0.001782	58802.2	1.929968	173.138	552.602	1.182768	0.103725	0.103326	559.804	58802.2	0.096585	0.288748	1938.73	99978.6
106	2.000000	1.185183	7.36608e+06	-43939.1	955.818	-29777.9	0.000000	0.000000	7.209005	572.721	NaN	0.000000	0.001664	0.001691	28.0846	106.87	0.001696	63014.3	7.620699	166.119	567.913	1.185006	0.105742	0.105564	572.721	63014.3	0.098925	0.301281	1900.96	104888
106	2.000000	1.187296	7.36608e+06	-43939.1	955.819	-29777.9	0.000000	0.000000	7.211818	589.748	NaN	0.000000	0.001708	0.001677	28.0834	109.001	0.001799	60599.1	0.920899	173.471	590.828	1.187010	0.107855	0.107568	589.748	60599.1	0.100556	0.310159	1901.44	99414