File: remote_trans/data/nanoindenter/0828-1/data/Data_2025-08-06,11h17m57s/2025-07-22_16-23-58_1_490.txt
2025-07-22, 16:23:58, 1
Index	Phase	Displacement	Time	Pos X	Pos Y	Pos Z	Rot A	Rot B	Piezo Z	Force A	Force B	Gripper	Voltage A	Voltage B	Temperature	Amplitude force	Amplitude pos	Stiffness	Phase shift	Phase excitation	Force A raw	Displacement raw	HMax	HMax raw	Real Force	Real Stiffness	Contact Depth	Area	Hardness	Reduced Mod.
[#]	[#]	[um]	[s]	[um]	[um]	[um]	[m°]	[m°]	[um]	[uN]	[uN]	[V]	[V]	[V]	[°C]	[uN]	[um]	[N/m]	[°]	[°]	[uN]	[um]	[um]	[um]	[uN]	[N/m]	[um]	[um^2]	[MPa]	[MPa]
490	1.000000	0.002717	7.36985e+06	-52589.1	1005.82	-29748.9	0.000000	0.000000	6.002798	0.008588	NaN	0.000000	0.001615	0.001769	28.0813	0.039825	0.001027	38.7877	120.566	-163.007	0.049306	0.001437	-1.084966	-1.086246	0.008588	38.7877	-1.085132	-3.165480E+14	-2.712914E-17	NaN
490	1.000000	0.010693	7.36985e+06	-52589.1	1005.82	-29748.9	0.000000	0.000000	6.010777	0.072500	NaN	0.000000	0.001588	0.001764	28.0812	0.087601	0.000876	100.029	-93.7957	-162.77	0.107822	0.009389	-1.076990	-1.078295	0.072500	100.029	-1.077533	-2.502577E+14	-2.896999E-16	NaN
490	1.000000	0.018675	7.36985e+06	-52589.1	1005.82	-29748.9	0.000000	0.000000	6.018757	0.046498	NaN	0.000000	0.001636	0.001771	28.0811	0.042091	0.001660	25.3507	174.292	-163.735	-0.038761	0.017394	-1.069008	-1.070289	0.046498	25.3507	-1.070384	-2.006059E+14	-2.317880E-16	NaN
490	1.000000	0.026730	7.36985e+06	-52589.1	1005.82	-29748.9	0.000000	0.000000	6.026809	-0.045219	NaN	0.000000	0.001617	0.001803	28.0812	0.140091	0.001857	75.4462	-10.6189	-163.446	-0.066124	0.025350	-1.060953	-1.062333	-0.045219	75.4462	-1.060504	-1.477705E+14	3.060053E-16	NaN
490	1.000000	0.034678	7.36985e+06	-52589.1	1005.82	-29748.9	0.000000	0.000000	6.034757	-0.029492	NaN	0.000000	0.001637	0.001783	28.0811	0.039636	0.001911	20.7361	114.797	-168.294	0.064822	0.033354	-1.053005	-1.054329	-0.029492	20.7361	-1.051939	-1.133635E+14	2.601501E-16	NaN
490	1.000000	0.042684	7.36985e+06	-52589.1	1005.82	-29748.9	0.000000	0.000000	6.042766	0.036067	NaN	0.000000	0.001635	0.001764	28.0814	0.042499	0.001852	22.9517	21.3486	-163.799	0.100996	0.041354	-1.044999	-1.046329	0.036067	22.9517	-1.046178	-9.484853E+13	-3.802623E-16	NaN
490	1.000000	0.050652	7.36985e+06	-52589.1	1005.82	-29748.9	0.000000	0.000000	6.050731	-0.048231	NaN	0.000000	0.001587	0.001752	28.0827	0.020845	0.001975	10.5557	-0.529638	-165.911	-0.085472	0.049317	-1.037031	-1.038366	-0.048231	10.5557	-1.033604	-6.426145E+13	7.505432E-16	NaN
490	1.000000	0.058683	7.36985e+06	-52589.1	1005.82	-29748.9	0.000000	0.000000	6.058761	-0.052596	NaN	0.000000	0.001540	0.001793	28.083	0.017139	0.002021	8.482598	43.1912	-167.808	-0.058335	0.057336	-1.029001	-1.030348	-0.052596	8.482598	-1.024350	-4.824804E+13	1.090123E-15	NaN
490	1.000000	0.066645	7.36985e+06	-52589.1	1005.82	-29748.9	0.000000	0.000000	6.066726	0.005938	NaN	0.000000	0.001553	0.001787	28.0828	0.057348	0.001771	32.3796	83.9305	-161.395	-0.075489	0.065350	-1.021038	-1.022333	0.005938	32.3796	-1.021175	-4.372845E+13	-1.357989E-16	NaN
490	1.000000	0.074654	7.36985e+06	-52589.1	1005.82	-29748.9	0.000000	0.000000	6.074737	0.068758	NaN	0.000000	0.001543	0.001801	28.0825	0.081952	0.002108	38.8749	155.025	-165.256	0.100589	0.073392	-1.013030	-1.014291	0.068758	38.8749	-1.014356	-3.540027E+13	-1.942294E-15	NaN
490	1.000000	0.082688	7.36985e+06	-52589.1	1005.82	-29748.9	0.000000	0.000000	6.082769	0.018882	NaN	0.000000	0.001581	0.001746	28.0828	0.097760	0.002063	47.3776	-145.156	-168.962	0.060069	0.081440	-1.004996	-1.006243	0.018882	47.3776	-1.005294	-2.673281E+13	-7.063244E-16	NaN
490	1.000000	0.090679	7.36985e+06	-52589.1	1005.82	-29748.9	0.000000	0.000000	6.090759	-0.012869	NaN	0.000000	0.001548	0.001770	28.0826	0.036243	0.002036	17.8051	-175.731	-164.957	-0.033399	0.089354	-0.997004	-0.998329	-0.012869	17.8051	-0.996462	-2.032958E+13	6.330241E-16	NaN
490	1.000000	0.098678	7.36985e+06	-52589.1	1005.82	-29748.9	0.000000	0.000000	6.098756	-0.051094	NaN	0.000000	0.001582	0.001783	28.083	0.051912	0.002045	25.3835	27.6022	-163.912	-0.042208	0.097362	-0.989005	-0.990321	-0.051094	25.3835	-0.987496	-1.539514E+13	3.318856E-15	NaN
490	1.000000	0.106678	7.36985e+06	-52589.1	1005.82	-29748.9	0.000000	0.000000	6.106758	-0.012063	NaN	0.000000	0.001557	0.001760	28.0828	0.057678	0.002029	28.4327	1.761740	-166.713	0.036557	0.105406	-0.981006	-0.982277	-0.012063	28.4327	-0.980687	-1.246437E+13	9.677920E-16	NaN
490	1.000000	0.114668	7.36985e+06	-52589.1	1005.82	-29748.9	0.000000	0.000000	6.114750	0.036158	NaN	0.000000	0.001544	0.001770	28.083	0.064891	0.001913	33.9241	64.7881	-169.058	-0.016802	0.113323	-0.973015	-0.974360	0.036158	33.9241	-0.973814	-1.007075E+13	-3.590372E-15	NaN
490	1.000000	0.122704	7.36985e+06	-52589.1	1005.82	-29748.9	0.000000	0.000000	6.122783	-0.039683	NaN	0.000000	0.001549	0.001758	28.083	0.039712	0.001957	20.2889	-157.387	-168.11	-0.051450	0.121351	-0.964979	-0.966332	-0.039683	20.2889	-0.963512	-7.315071E+12	5.424765E-15	NaN
490	1.000000	0.130721	7.36985e+06	-52589.1	1005.82	-29748.9	0.000000	0.000000	6.130801	-0.004217	NaN	0.000000	0.001565	0.001752	28.0827	0.011045	0.002094	5.274930	-113.823	-169.886	0.045753	0.129352	-0.956962	-0.958331	-0.004217	5.274930	-0.956362	-5.859033E+12	7.196797E-16	NaN
490	1.000000	0.138697	7.36985e+06	-52589.1	1005.82	-29748.9	0.000000	0.000000	6.138776	-0.025358	NaN	0.000000	0.001541	0.001808	28.0831	0.108853	0.002082	52.2849	162.827	-166.313	0.000788	0.137372	-0.948986	-0.950311	-0.025358	52.2849	-0.948622	-4.607313E+12	5.503822E-15	NaN
490	1.000000	0.146694	7.36985e+06	-52589.1	1005.82	-29748.9	0.000000	0.000000	6.146776	0.027505	NaN	0.000000	0.001545	0.001787	28.0829	0.027940	0.002072	13.4823	60.2628	-166.808	-0.052278	0.145433	-0.940989	-0.942250	0.027505	13.4823	-0.942519	-3.811726E+12	-7.215806E-15	NaN
490	1.000000	0.154702	7.36985e+06	-52589.1	1005.82	-29748.9	0.000000	0.000000	6.154784	0.014286	NaN	0.000000	0.001547	0.001757	28.0829	0.106369	0.002003	53.1152	-142.191	-167.632	4.420875E-5	0.153392	-0.932981	-0.934291	0.014286	53.1152	-0.933182	-2.851968E+12	-5.009313E-15	NaN
490	1.000000	0.162692	7.36985e+06	-52589.1	1005.82	-29748.9	0.000000	0.000000	6.162773	0.019536	NaN	0.000000	0.001561	0.001787	28.0826	0.042623	0.001965	21.6863	-109.916	-164.628	0.018318	0.161413	-0.924991	-0.926270	0.019536	21.6863	-0.925667	-2.257909E+12	-8.652067E-15	NaN
490	1.000000	0.170727	7.36985e+06	-52589.1	1005.82	-29748.9	0.000000	0.000000	6.170807	-0.020465	NaN	0.000000	0.001554	0.001799	28.0827	0.124067	0.002012	61.6707	110.573	-167.773	-0.064027	0.169370	-0.916956	-0.918314	-0.020465	61.6707	-0.916707	-1.708996E+12	1.197510E-14	NaN
490	1.000000	0.178727	7.36985e+06	-52589.1	1005.82	-29748.9	0.000000	0.000000	6.178805	-0.074625	NaN	0.000000	0.001540	0.001794	28.0825	0.095989	0.001882	50.9979	-10.5012	-163.676	0.003920	0.177418	-0.908956	-0.910265	-0.074625	50.9979	-0.907858	-1.297884E+12	5.749754E-14	NaN
490	1.000000	0.186742	7.36985e+06	-52589.1	1005.82	-29748.9	0.000000	0.000000	6.186824	0.042079	NaN	0.000000	0.001523	0.001795	28.081	0.096340	0.002000	48.1633	166.189	-168.801	0.060831	0.185465	-0.900941	-0.902218	0.042079	48.1633	-0.901596	-1.068154E+12	-3.939387E-14	NaN
490	1.000000	0.194721	7.36985e+06	-52589.1	1005.82	-29748.9	0.000000	0.000000	6.194798	-0.074506	NaN	0.000000	0.001558	0.001766	28.0813	0.095035	0.001975	48.1076	-130.063	-167.101	-0.076110	0.193460	-0.892962	-0.894223	-0.074506	48.1076	-0.891801	-7.875116E+11	9.460980E-14	NaN
490	1.000000	0.202742	7.36985e+06	-52589.1	1005.82	-29748.9	0.000000	0.000000	6.202822	-0.001766	NaN	0.000000	0.001547	0.001814	28.0812	0.046289	0.002089	22.1599	-177.706	-165.207	-0.007672	0.201448	-0.884941	-0.886235	-0.001766	22.1599	-0.884881	-6.349145E+11	2.781939E-15	NaN
490	1.000000	0.210737	7.36985e+06	-52589.1	1005.82	-29748.9	0.000000	0.000000	6.210819	0.025007	NaN	0.000000	0.001554	0.001794	28.0812	0.080697	0.002049	39.3786	108.421	-167.772	-0.061465	0.209402	-0.876946	-0.878281	0.025007	39.3786	-0.877422	-5.033192E+11	-4.968335E-14	NaN
490	1.000000	0.218777	7.36985e+06	-52589.1	1005.82	-29748.9	0.000000	0.000000	6.218856	-0.032273	NaN	0.000000	0.001566	0.001793	28.081	0.034077	0.001897	17.9604	52.0839	-167.532	-0.023186	0.217392	-0.868906	-0.870291	-0.032273	17.9604	-0.867558	-3.701773E+11	8.718207E-14	NaN
490	1.000000	0.226752	7.36985e+06	-52589.1	1005.82	-29748.9	0.000000	0.000000	6.226836	0.071177	NaN	0.000000	0.001574	0.001762	28.0808	0.075815	0.001805	42.0005	-17.9336	-162.235	-0.008368	0.225444	-0.860931	-0.862239	0.071177	42.0005	-0.862202	-3.132734E+11	-2.272055E-13	NaN
490	1.000000	0.234747	7.36985e+06	-52589.1	1005.82	-29748.9	0.000000	0.000000	6.234825	-0.049543	NaN	0.000000	0.001553	0.001768	28.0813	0.017559	0.001970	8.912504	-114.47	-166.383	-0.039592	0.233437	-0.852936	-0.854246	-0.049543	8.912504	-0.848767	-2.060837E+11	2.404015E-13	NaN
490	1.000000	0.242737	7.36985e+06	-52589.1	1005.82	-29748.9	0.000000	0.000000	6.242818	0.012151	NaN	0.000000	0.001583	0.001774	28.081	0.070796	0.002055	34.4515	103.057	-167.322	0.021628	0.241432	-0.844946	-0.846251	0.012151	34.4515	-0.845211	-1.844481E+11	-6.587853E-14	NaN
490	1.000000	0.250748	7.36985e+06	-52589.1	1005.82	-29748.9	0.000000	0.000000	6.250829	0.003207	NaN	0.000000	0.001565	0.001730	28.0812	0.027863	0.002002	13.9147	-97.2129	-166.889	-0.076161	0.249472	-0.836935	-0.838211	0.003207	13.9147	-0.837108	-1.432538E+11	-2.238833E-14	NaN
490	1.000000	0.258756	7.36985e+06	-52589.1	1005.82	-29748.9	0.000000	0.000000	6.258835	-0.024076	NaN	0.000000	0.001526	0.001766	28.081	0.077594	0.001984	39.1068	-114.696	-164.427	0.008847	0.257453	-0.828927	-0.830230	-0.024076	39.1068	-0.828465	-1.093919E+11	2.200877E-13	NaN
490	1.000000	0.266750	7.36985e+06	-52589.1	1005.82	-29748.9	0.000000	0.000000	6.266832	0.031002	NaN	0.000000	0.001581	0.001770	28.0811	0.069977	0.002011	34.7985	-65.7779	-163.406	-0.012615	0.265396	-0.820933	-0.822287	0.031002	34.7985	-0.821601	-8.829285E+10	-3.511231E-13	NaN
490	1.000000	0.274769	7.36985e+06	-52589.1	1005.82	-29748.9	0.000000	0.000000	6.274849	-0.020283	NaN	0.000000	0.001564	0.001796	28.0811	0.016434	0.001975	8.319319	173.776	-169.554	0.009866	0.273467	-0.812914	-0.814216	-0.020283	8.319319	-0.811085	-6.357609E+10	3.190378E-13	NaN
490	1.000000	0.282763	7.36985e+06	-52589.1	1005.82	-29748.9	0.000000	0.000000	6.282841	-0.050986	NaN	0.000000	0.001545	0.001768	28.0813	0.059470	0.001958	30.3772	113.326	-168.963	-0.106587	0.281452	-0.804920	-0.806231	-0.050986	30.3772	-0.803661	-5.041503E+10	1.011327E-12	NaN
490	1.000000	0.290794	7.36985e+06	-52589.1	1005.82	-29748.9	0.000000	0.000000	6.290874	0.002213	NaN	0.000000	0.001606	0.001766	28.0816	0.083963	0.002009	41.7876	142.179	-167.35	0.003404	0.289452	-0.796889	-0.798231	0.002213	41.7876	-0.796929	-4.084829E+10	-5.417093E-14	NaN
490	1.000000	0.298756	7.36985e+06	-52589.1	1005.82	-29748.9	0.000000	0.000000	6.298837	0.017363	NaN	0.000000	0.001594	0.001758	28.0812	0.142831	0.002042	69.9527	-89.8274	-163.238	-0.023181	0.297426	-0.788927	-0.790257	0.017363	69.9527	-0.789113	-3.199209E+10	-5.427135E-13	NaN
490	1.000000	0.306752	7.36985e+06	-52589.1	1005.82	-29748.9	0.000000	0.000000	6.306832	-0.012147	NaN	0.000000	0.001586	0.001773	28.0813	0.123614	0.001860	66.4605	-171.087	-166.66	-0.015795	0.305498	-0.780931	-0.782185	-0.012147	66.4605	-0.780794	-2.466145E+10	4.925460E-13	NaN
490	1.000000	0.314804	7.36985e+06	-52589.1	1005.82	-29748.9	0.000000	0.000000	6.314884	-0.010442	NaN	0.000000	0.001600	0.001770	28.0813	0.063406	0.001910	33.1959	176.413	-166.118	-0.000930	0.313508	-0.772879	-0.774175	-0.010442	33.1959	-0.772643	-1.910886E+10	5.464291E-13	NaN
490	1.000000	0.322762	7.36985e+06	-52589.1	1005.82	-29748.9	0.000000	0.000000	6.322844	0.033042	NaN	0.000000	0.001585	0.001749	28.0824	0.051309	0.001955	26.2467	105.802	-167.185	0.075115	0.321532	-0.764921	-0.766152	0.033042	26.2467	-0.765865	-1.545551E+10	-2.137888E-12	NaN
490	1.000000	0.330799	7.36985e+06	-52589.1	1005.82	-29748.9	0.000000	0.000000	6.330880	0.019182	NaN	0.000000	0.001609	0.001742	28.0824	0.086735	0.002078	41.7309	-115.289	-166.304	0.133048	0.329533	-0.756884	-0.758150	0.019182	41.7309	-0.757229	-1.179247E+10	-1.626660E-12	NaN
490	1.000000	0.338754	7.36985e+06	-52589.1	1005.82	-29748.9	0.000000	0.000000	6.338834	-0.011354	NaN	0.000000	0.001593	0.001777	28.0823	0.055018	0.002019	27.2482	13.0079	-165.573	0.030102	0.337483	-0.748929	-0.750200	-0.011354	27.2482	-0.748616	-9.002938E+9	1.261191E-12	NaN
490	1.000000	0.346796	7.36985e+06	-52589.1	1005.82	-29748.9	0.000000	0.000000	6.346875	-0.025394	NaN	0.000000	0.001635	0.001768	28.0827	0.065375	0.001973	33.1341	-142.089	-167.11	0.025143	0.345461	-0.740887	-0.742222	-0.025394	33.1341	-0.740312	-6.939192E+9	3.659537E-12	NaN
490	1.000000	0.354777	7.36985e+06	-52589.1	1005.82	-29748.9	0.000000	0.000000	6.354858	0.014072	NaN	0.000000	0.001602	0.001757	28.0827	0.050244	0.001958	25.6566	26.8496	-166.274	0.030213	0.353513	-0.732906	-0.734170	0.014072	25.6566	-0.733318	-5.572103E+9	-2.525411E-12	NaN
490	1.000000	0.362814	7.36985e+06	-52589.1	1005.82	-29748.9	0.000000	0.000000	6.362896	0.025043	NaN	0.000000	0.001629	0.001773	28.0826	0.019133	0.002064	9.271350	-144.679	-170.533	-0.060860	0.361440	-0.724869	-0.726244	0.025043	9.271350	-0.726895	-4.554942E+9	-5.498018E-12	NaN
490	1.000000	0.370807	7.36985e+06	-52589.1	1005.82	-29748.9	0.000000	0.000000	6.370888	-0.001666	NaN	0.000000	0.001602	0.001763	28.0825	0.117121	0.002068	56.6366	119.087	-165.174	-0.014238	0.369455	-0.716876	-0.718228	-0.001666	56.6366	-0.716854	-3.323226E+9	5.013883E-13	NaN
490	1.000000	0.378804	7.36985e+06	-52589.1	1005.82	-29748.9	0.000000	0.000000	6.378883	-0.029058	NaN	0.000000	0.001578	0.001784	28.0827	0.013526	0.001960	6.902343	127.698	-167.756	-0.017357	0.377518	-0.708879	-0.710165	-0.029058	6.902343	-0.705721	-2.342346E+9	1.240543E-11	NaN
490	1.000000	0.386819	7.36985e+06	-52589.1	1005.82	-29748.9	0.000000	0.000000	6.386900	0.019677	NaN	0.000000	0.001592	0.001780	28.083	0.032647	0.002030	16.0794	-168.589	-164.674	0.013518	0.385495	-0.700864	-0.702188	0.019677	16.0794	-0.701782	-2.069506E+9	-9.508111E-12	NaN
490	1.000000	0.394799	7.36985e+06	-52589.1	1005.82	-29748.9	0.000000	0.000000	6.394877	-0.054977	NaN	0.000000	0.001590	0.001796	28.0825	0.075169	0.001948	38.5786	126.962	-164.423	-0.062325	0.393448	-0.692884	-0.694235	-0.054977	38.5786	-0.691815	-1.512603E+9	3.634615E-11	NaN
490	1.000000	0.402799	7.36985e+06	-52589.1	1005.82	-29748.9	0.000000	0.000000	6.402880	0.030888	NaN	0.000000	0.001620	0.001763	28.0826	0.100399	0.002016	49.805	19.6767	-167.576	0.077719	0.401532	-0.684884	-0.686151	0.030888	49.805	-0.685350	-1.234111E+9	-2.502829E-11	NaN
490	1.000000	0.410812	7.36985e+06	-52589.1	1005.82	-29748.9	0.000000	0.000000	6.410893	0.019121	NaN	0.000000	0.001598	0.001753	28.0825	0.020015	0.002041	9.805410	-47.4968	-165.496	-0.016760	0.409515	-0.676871	-0.678168	0.019121	9.805410	-0.678334	-9.894942E+8	-1.932416E-11	NaN
490	1.000000	0.418795	7.36985e+06	-52589.1	1005.82	-29748.9	0.000000	0.000000	6.418877	0.025287	NaN	0.000000	0.001575	0.001773	28.0825	0.126486	0.002093	60.4471	-32.6845	-167.829	0.053403	0.417492	-0.668888	-0.670191	0.025287	60.4471	-0.669202	-7.420991E+8	-3.407535E-11	NaN
490	1.000000	0.426810	7.36985e+06	-52589.1	1005.82	-29748.9	0.000000	0.000000	6.426889	-0.049766	NaN	0.000000	0.001544	0.001806	28.0825	0.088102	0.002027	43.4709	61.8475	-165.603	0.073829	0.425477	-0.660873	-0.662206	-0.049766	43.4709	-0.660014	-5.554691E+8	8.959204E-11	NaN
490	1.000000	0.434803	7.36985e+06	-52589.1	1005.82	-29748.9	0.000000	0.000000	6.434882	-0.031415	NaN	0.000000	0.001597	0.001808	28.0822	0.117555	0.001975	59.5315	-171.305	-166.69	-0.007728	0.433476	-0.652880	-0.654207	-0.031415	59.5315	-0.652484	-4.380172E+8	7.172176E-11	NaN
490	1.000000	0.442821	7.36985e+06	-52589.1	1005.82	-29748.9	0.000000	0.000000	6.442899	-0.068214	NaN	0.000000	0.001606	0.001839	28.0821	0.048461	0.001867	25.9555	166.568	-164.548	-0.111116	0.441530	-0.644862	-0.646153	-0.068214	25.9555	-0.642891	-3.235558E+8	2.108259E-10	NaN
490	1.000000	0.450844	7.36985e+06	-52589.1	1005.82	-29748.9	0.000000	0.000000	6.450926	0.025827	NaN	0.000000	0.001591	0.001784	28.0823	0.074502	0.001908	39.057	-101.852	-166.235	0.015614	0.449494	-0.636839	-0.638189	0.025827	39.057	-0.637335	-2.714657E+8	-9.513727E-11	NaN
490	1.000000	0.458875	7.36985e+06	-52589.1	1005.82	-29748.9	0.000000	0.000000	6.458955	-0.020898	NaN	0.000000	0.001584	0.001780	28.0813	0.059014	0.001918	30.7616	151.24	-165.216	-0.024666	0.457470	-0.628808	-0.630214	-0.020898	30.7616	-0.628298	-2.040109E+8	1.024363E-10	NaN
490	1.000000	0.466819	7.36985e+06	-52589.1	1005.82	-29748.9	0.000000	0.000000	6.466898	-0.043973	NaN	0.000000	0.001581	0.001760	28.0811	0.068926	0.002003	34.4139	57.7472	-162.988	-0.025569	0.465514	-0.620864	-0.622169	-0.043973	34.4139	-0.619906	-1.564360E+8	2.810931E-10	NaN
490	1.000000	0.474819	7.36985e+06	-52589.1	1005.82	-29748.9	0.000000	0.000000	6.474899	-0.020742	NaN	0.000000	0.001613	0.001809	28.0821	0.074874	0.002014	37.1762	128.045	-166.658	-0.006476	0.473550	-0.612864	-0.614133	-0.020742	37.1762	-0.612445	-1.235251E+8	1.679161E-10	NaN
490	1.000000	0.482828	7.36985e+06	-52589.1	1005.82	-29748.9	0.000000	0.000000	6.482908	-0.012206	NaN	0.000000	0.001609	0.001788	28.0813	0.130733	0.002034	64.2685	-93.7011	-168.577	0.019954	0.481520	-0.604855	-0.606163	-0.012206	64.2685	-0.604713	-9.668304E+7	1.262514E-10	NaN
490	1.000000	0.490848	7.36985e+06	-52589.1	1005.82	-29748.9	0.000000	0.000000	6.490928	-0.009443	NaN	0.000000	0.001572	0.001803	28.081	0.020197	0.002080	9.712293	79.314	-166.871	-0.031475	0.489555	-0.596836	-0.598128	-0.009443	9.712293	-0.596106	-7.359099E+7	1.283182E-10	NaN
490	1.000000	0.498824	7.36985e+06	-52589.1	1005.82	-29748.9	0.000000	0.000000	6.498905	0.025178	NaN	0.000000	0.001626	0.001845	28.0811	0.044158	0.001885	23.4304	-5.062460	-165.069	-0.010318	0.497561	-0.588859	-0.590122	0.025178	23.4304	-0.589665	-5.998628E+7	-4.197365E-10	NaN
490	1.000000	0.506886	7.36985e+06	-52589.1	1005.82	-29748.9	0.000000	0.000000	6.506967	0.006294	NaN	0.000000	0.001639	0.001855	28.0811	0.014535	0.001977	7.352316	168.302	-166.063	-0.052667	0.505552	-0.580797	-0.582131	0.006294	7.352316	-0.581439	-4.619370E+7	-1.362604E-10	NaN
490	1.000000	0.514851	7.36985e+06	-52589.1	1005.82	-29748.9	0.000000	0.000000	6.514932	0.032512	NaN	0.000000	0.001625	0.001788	28.0814	0.104187	0.002002	52.0539	83.708	-168.616	-0.041357	0.513541	-0.572832	-0.574142	0.032512	52.0539	-0.573301	-3.566414E+7	-9.116176E-10	NaN
490	1.000000	0.522859	7.36985e+06	-52589.1	1005.82	-29748.9	0.000000	0.000000	6.522940	0.001473	NaN	0.000000	0.001625	0.001812	28.0812	0.078444	0.002021	38.8151	86.9031	-164.943	0.011231	0.521577	-0.564824	-0.566106	0.001473	38.8151	-0.564853	-2.725757E+7	-5.405333E-11	NaN
490	1.000000	0.530887	7.36985e+06	-52589.1	1005.82	-29748.9	0.000000	0.000000	6.530969	0.024080	NaN	0.000000	0.001597	0.001794	28.0813	0.101209	0.002059	49.166	-162.328	-163.611	0.020919	0.529562	-0.556796	-0.558121	0.024080	49.166	-0.557163	-2.133683E+7	-1.128572E-9	NaN
490	1.000000	0.538878	7.36985e+06	-52589.1	1005.82	-29748.9	0.000000	0.000000	6.538959	-0.001531	NaN	0.000000	0.001653	0.001758	28.0812	0.090074	0.002045	44.0535	100.653	-168.994	0.009694	0.537564	-0.548805	-0.550119	-0.001531	44.0535	-0.548779	-1.633201E+7	9.372734E-11	NaN
490	1.000000	0.546886	7.36985e+06	-52589.1	1005.82	-29748.9	0.000000	0.000000	6.546965	-0.036167	NaN	0.000000	0.001635	0.001810	28.0811	0.028748	0.001936	14.8457	-88.3359	-164.828	-0.000102	0.545531	-0.540797	-0.542152	-0.036167	14.8457	-0.538970	-1.194176E+7	3.028634E-9	NaN
490	1.000000	0.554885	7.36985e+06	-52589.1	1005.82	-29748.9	0.000000	0.000000	6.554964	-0.035851	NaN	0.000000	0.001632	0.001787	28.0812	0.171490	0.001982	86.514	-145.495	-164.671	0.056922	0.553589	-0.532798	-0.534094	-0.035851	86.514	-0.532487	-9.70756e+06	3.693074E-9	NaN
490	1.000000	0.562876	7.36985e+06	-52589.1	1005.82	-29748.9	0.000000	0.000000	6.562956	-0.020111	NaN	0.000000	0.001610	0.001768	28.0814	0.023560	0.002032	11.5947	-158.221	-167.524	0.029531	0.561602	-0.524807	-0.526081	-0.020111	11.5947	-0.523506	-7.28358e+06	2.761175E-9	NaN
490	1.000000	0.570888	7.36985e+06	-52589.1	1005.82	-29748.9	0.000000	0.000000	6.570971	0.056522	NaN	0.000000	0.001615	0.001773	28.0814	0.015353	0.002030	7.563362	-31.6532	-168.188	-0.021188	0.569538	-0.516795	-0.518145	0.056522	7.563362	-0.522399	-7.03011e+06	-8.039956E-9	NaN
490	1.000000	0.578902	7.36985e+06	-52589.1	1005.82	-29748.9	0.000000	0.000000	6.578983	-0.000712	NaN	0.000000	0.001591	0.001734	28.0814	0.040602	0.001917	21.1827	-17.4144	-167.251	-0.038685	0.577595	-0.508781	-0.510088	-0.000712	21.1827	-0.508756	-4.54029e+06	1.568756E-10	NaN
490	1.000000	0.586894	7.36985e+06	-52589.1	1005.82	-29748.9	0.000000	0.000000	6.586974	-0.009178	NaN	0.000000	0.001569	0.001750	28.0813	0.036492	0.002013	18.1297	155.586	-164.135	0.021132	0.585574	-0.500789	-0.502109	-0.009178	18.1297	-0.500409	-3.47319e+06	2.642527E-9	NaN
490	1.000000	0.594898	7.36985e+06	-52589.1	1005.82	-29748.9	0.000000	0.000000	6.594979	0.009312	NaN	0.000000	0.001620	0.001741	28.0825	0.026334	0.001963	13.413	142.04	-168.101	-0.005576	0.593550	-0.492785	-0.494133	0.009312	13.413	-0.493305	-2.76421e+06	-3.368713E-9	NaN
490	1.000000	0.602895	7.36985e+06	-52589.1	1005.82	-29748.9	0.000000	0.000000	6.602973	-0.040991	NaN	0.000000	0.001643	0.001737	28.0826	0.051540	0.002052	25.1131	133.952	-165.523	0.027794	0.601550	-0.484789	-0.486133	-0.040991	25.1131	-0.483564	-2.02027e+06	2.028973E-8	NaN
490	1.000000	0.610927	7.36985e+06	-52589.1	1005.82	-29748.9	0.000000	0.000000	6.611007	-0.019657	NaN	0.000000	0.001637	0.001794	28.0826	0.015035	0.002182	6.890878	151.982	-165.689	0.028283	0.609543	-0.476756	-0.478140	-0.019657	6.890878	-0.474617	-1.514e+06	1.298352E-8	NaN
490	1.000000	0.618912	7.36985e+06	-52589.1	1005.82	-29748.9	0.000000	0.000000	6.618993	-0.001225	NaN	0.000000	0.001611	0.001770	28.0827	0.029278	0.001961	14.9295	-100.063	-168.443	0.013339	0.617610	-0.468771	-0.470073	-0.001225	14.9295	-0.468709	-1.25112e+06	9.793744E-10	NaN
490	1.000000	0.626910	7.36985e+06	-52589.1	1005.82	-29748.9	0.000000	0.000000	6.626990	-0.000465	NaN	0.000000	0.001635	0.001772	28.0827	0.070594	0.002104	33.5563	32.709	-166.451	0.017215	0.625640	-0.460773	-0.462043	-0.000465	33.5563	-0.460763	-967698	4.802293E-10	NaN
490	1.000000	0.634932	7.36985e+06	-52589.1	1005.82	-29748.9	0.000000	0.000000	6.635013	0.018758	NaN	0.000000	0.001593	0.001744	28.0825	0.114601	0.002037	56.2545	100.196	-166.671	0.030585	0.633583	-0.452751	-0.454100	0.018758	56.2545	-0.453001	-752646	-2.492322E-8	NaN
490	1.000000	0.642916	7.36985e+06	-52589.1	1005.82	-29748.9	0.000000	0.000000	6.642998	0.025815	NaN	0.000000	0.001606	0.001790	28.0825	0.114429	0.002019	56.6684	170.363	-166.633	0.011106	0.641597	-0.444767	-0.446086	0.025815	56.6684	-0.445109	-582671	-4.430530E-8	NaN
490	1.000000	0.650913	7.36985e+06	-52589.1	1005.82	-29748.9	0.000000	0.000000	6.650995	0.029225	NaN	0.000000	0.001576	0.001767	28.0822	0.024626	0.001984	12.4138	-58.6634	-166.418	0.024578	0.649632	-0.436770	-0.438051	0.029225	12.4138	-0.438535	-470640	-6.209606E-8	NaN
490	1.000000	0.658925	7.36985e+06	-52589.1	1005.82	-29748.9	0.000000	0.000000	6.659003	-0.057856	NaN	0.000000	0.001608	0.001790	28.0824	0.026558	0.002148	12.3659	-9.071551	-161.694	-0.032098	0.657635	-0.428759	-0.430048	-0.057856	12.3659	-0.425250	-305364	1.894647E-7	NaN
490	1.000000	0.666916	7.36985e+06	-52589.1	1005.82	-29748.9	0.000000	0.000000	6.666996	-0.006674	NaN	0.000000	0.001604	0.001788	28.0826	0.020803	0.002064	10.0787	127.13	-165.07	-0.021495	0.665592	-0.420767	-0.422091	-0.006674	10.0787	-0.420270	-259567	2.571202E-8	NaN
490	1.000000	0.674930	7.36985e+06	-52589.1	1005.82	-29748.9	0.000000	0.000000	6.675011	0.002891	NaN	0.000000	0.001610	0.001779	28.0828	0.195341	0.001869	104.535	-137.213	-163.046	0.005666	0.673587	-0.412753	-0.414096	0.002891	104.535	-0.412774	-203156	-1.423277E-8	NaN
490	1.000000	0.682989	7.36985e+06	-52589.1	1005.82	-29748.9	0.000000	0.000000	6.683068	-0.033586	NaN	0.000000	0.001605	0.001732	28.0828	0.049999	0.002071	24.1386	-121.942	-169.885	0.040124	0.681667	-0.404694	-0.406016	-0.033586	24.1386	-0.403651	-150672	2.229093E-7	NaN
490	1.000000	0.690930	7.36985e+06	-52589.1	1005.82	-29748.9	0.000000	0.000000	6.691012	0.039840	NaN	0.000000	0.001610	0.001784	28.0826	0.113143	0.001968	57.49	155.865	-166.037	0.040723	0.689625	-0.396753	-0.398058	0.039840	57.49	-0.397272	-122203	-3.260120E-7	NaN
490	1.000000	0.698952	7.36985e+06	-52589.1	1005.82	-29748.9	0.000000	0.000000	6.699030	-0.049766	NaN	0.000000	0.001582	0.001792	28.0825	0.089754	0.002026	44.3117	39.2414	-162.87	-0.079705	0.697557	-0.388731	-0.390126	-0.049766	44.3117	-0.387889	-89734.4	5.545888E-7	NaN
490	1.000000	0.706924	7.36985e+06	-52589.1	1005.82	-29748.9	0.000000	0.000000	6.707005	0.003584	NaN	0.000000	0.001629	0.001789	28.0825	0.033235	0.002041	16.2842	-161.219	-167.805	-0.105055	0.705715	-0.380759	-0.381968	0.003584	16.2842	-0.380924	-71309.6	-5.026437E-8	NaN
490	1.000000	0.714918	7.36985e+06	-52589.1	1005.82	-29748.9	0.000000	0.000000	6.714997	-0.042911	NaN	0.000000	0.001591	0.001835	28.0826	0.063063	0.002015	31.2965	-101.189	-170.073	-0.023512	0.713695	-0.372765	-0.373988	-0.042911	31.2965	-0.371737	-52617.8	8.155168E-7	NaN
490	1.000000	0.722938	7.36985e+06	-52589.1	1005.82	-29748.9	0.000000	0.000000	6.723018	0.005723	NaN	0.000000	0.001578	0.001808	28.0827	0.071161	0.001879	37.8643	80.2493	-166.673	-0.001910	0.721634	-0.364746	-0.366050	0.005723	37.8643	-0.364859	-41881.1	-1.366521E-7	NaN
490	1.000000	0.730968	7.36985e+06	-52589.1	1005.82	-29748.9	0.000000	0.000000	6.731049	0.012971	NaN	0.000000	0.001581	0.001803	28.0814	0.036030	0.002044	17.6275	40.6913	-167.907	0.054399	0.729624	-0.356715	-0.358059	0.012971	17.6275	-0.357267	-32532.8	-3.987086E-7	NaN
490	1.000000	0.738966	7.36985e+06	-52589.1	1005.82	-29748.9	0.000000	0.000000	6.739045	-0.027738	NaN	0.000000	0.001576	0.001804	28.0813	0.039889	0.002005	19.8993	-19.2175	-167.49	0.055415	0.737675	-0.348717	-0.350008	-0.027738	19.8993	-0.347672	-23615.6	1.174569E-6	NaN
490	1.000000	0.746959	7.36985e+06	-52589.1	1005.82	-29748.9	0.000000	0.000000	6.747041	0.025190	NaN	0.000000	0.001601	0.001809	28.0812	0.041560	0.001943	21.386	13.6246	-166.697	0.081597	0.745699	-0.340724	-0.341984	0.025190	21.386	-0.341607	-19274.2	-1.306924E-6	NaN
490	1.000000	0.754967	7.36985e+06	-52589.1	1005.82	-29748.9	0.000000	0.000000	6.755049	0.033967	NaN	0.000000	0.001623	0.001795	28.0812	0.070493	0.002064	34.1613	-2.623969	-166.798	0.010313	0.753650	-0.332716	-0.334033	0.033967	34.1613	-0.333462	-14659	-2.317134E-6	NaN
490	1.000000	0.762942	7.36985e+06	-52589.1	1005.82	-29748.9	0.000000	0.000000	6.763023	0.003835	NaN	0.000000	0.001602	0.001809	28.081	0.110060	0.001940	56.7294	-127.356	-167.495	0.118096	0.761670	-0.324741	-0.326013	0.003835	56.7294	-0.324791	-10941.5	-3.504993E-7	NaN
490	1.000000	0.770971	7.36985e+06	-52589.1	1005.82	-29748.9	0.000000	0.000000	6.771053	0.035612	NaN	0.000000	0.001584	0.001788	28.0816	0.050595	0.001928	26.2398	-64.8005	-166.578	0.093622	0.769702	-0.316712	-0.317981	0.035612	26.2398	-0.317730	-8614.03	-4.134192E-6	NaN
490	1.000000	0.779007	7.36985e+06	-52589.1	1005.82	-29748.9	0.000000	0.000000	6.779087	-0.005244	NaN	0.000000	0.001570	0.001759	28.0815	0.042465	0.002056	20.6556	-13.799	-163.815	0.008226	0.777646	-0.308676	-0.310037	-0.005244	20.6556	-0.308486	-6289.78	8.337182E-7	NaN
490	1.000000	0.786939	7.36985e+06	-52589.1	1005.82	-29748.9	0.000000	0.000000	6.787019	0.003119	NaN	0.000000	0.001604	0.001728	28.0812	0.050663	0.002140	23.6728	-152.348	-167.538	-0.025786	0.785650	-0.300745	-0.302033	0.003119	23.6728	-0.300843	-4843.81	-6.439694E-7	NaN
490	1.000000	0.794953	7.36985e+06	-52589.1	1005.82	-29748.9	0.000000	0.000000	6.795033	-0.010281	NaN	0.000000	0.001641	0.001719	28.0812	0.012962	0.001931	6.713324	-131.103	-167.108	-0.007784	0.793643	-0.292731	-0.294040	-0.010281	6.713324	-0.291582	-3523.63	2.917697E-6	NaN
490	1.000000	0.803000	7.36985e+06	-52589.1	1005.82	-29748.9	0.000000	0.000000	6.803080	0.002898	NaN	0.000000	0.001608	0.001732	28.0812	0.086931	0.001937	44.8842	88.1636	-165.075	-0.084359	0.801672	-0.284683	-0.286011	0.002898	44.8842	-0.284732	-2781.21	-1.041822E-6	NaN
490	1.000000	0.810980	7.36985e+06	-52589.1	1005.82	-29748.9	0.000000	0.000000	6.811063	0.052345	NaN	0.000000	0.001603	0.001787	28.0816	0.028401	0.001911	14.8644	9.362699	-165.296	0.049362	0.809656	-0.276703	-0.278027	0.052345	14.8644	-0.279344	-2307.12	-2.268840E-5	NaN
490	1.000000	0.818998	7.36985e+06	-52589.1	1005.82	-29748.9	0.000000	0.000000	6.819079	0.003335	NaN	0.000000	0.001612	0.001733	28.0816	0.088872	0.002001	44.4167	-160.152	-166.319	0.057929	0.817679	-0.268685	-0.270004	0.003335	44.4167	-0.268741	-1593.67	-2.092608E-6	NaN
490	1.000000	0.826987	7.36985e+06	-52589.1	1005.82	-29748.9	0.000000	0.000000	6.827066	-0.035315	NaN	0.000000	0.001603	0.001784	28.0814	0.092880	0.001972	47.0968	30.0511	-168.146	0.041569	0.825726	-0.260696	-0.261957	-0.035315	47.0968	-0.260134	-1177.53	2.999124E-5	NaN
490	1.000000	0.835002	7.36985e+06	-52589.1	1005.82	-29748.9	0.000000	0.000000	6.835083	0.023768	NaN	0.000000	0.001609	0.001711	28.0815	0.080868	0.001936	41.7671	-75.5128	-169.86	-0.016823	0.833685	-0.252682	-0.253998	0.023768	41.7671	-0.253108	-918.268	-2.588404E-5	NaN
490	1.000000	0.843009	7.36985e+06	-52589.1	1005.82	-29748.9	0.000000	0.000000	6.843089	-0.012772	NaN	0.000000	0.001582	0.001737	28.0814	0.014941	0.001949	7.664238	-101.947	-168.855	0.079015	0.841692	-0.244674	-0.245991	-0.012772	7.664238	-0.243424	-650.044	1.964847E-5	NaN
490	1.000000	0.850977	7.36985e+06	-52589.1	1005.82	-29748.9	0.000000	0.000000	6.851056	-0.029690	NaN	0.000000	0.001591	0.001710	28.0814	0.039473	0.001958	20.1553	37.5618	-166.633	-0.013668	0.849676	-0.236706	-0.238007	-0.029690	20.1553	-0.235601	-490.555	6.052291E-5	NaN
490	1.000000	0.858996	7.36985e+06	-52589.1	1005.82	-29748.9	0.000000	0.000000	6.859077	0.016090	NaN	0.000000	0.001591	0.001717	28.0814	0.091013	0.002103	43.2863	-72.8204	-166.228	0.074509	0.857679	-0.228687	-0.230004	0.016090	43.2863	-0.228966	-385.637	-4.172192E-5	NaN
490	1.000000	0.866997	7.36985e+06	-52589.1	1005.82	-29748.9	0.000000	0.000000	6.867076	-0.036256	NaN	0.000000	0.001596	0.001713	28.0828	0.057922	0.002058	28.1462	143.98	-166.727	-0.030965	0.865727	-0.220686	-0.221956	-0.036256	28.1462	-0.219720	-274.919	0.000132	NaN
490	1.000000	0.875005	7.36985e+06	-52589.1	1005.82	-29748.9	0.000000	0.000000	6.875088	0.076509	NaN	0.000000	0.001558	0.001723	28.0829	0.042406	0.002022	20.9711	-66.2979	-166.567	0.073330	0.873681	-0.212678	-0.214002	0.076509	20.9711	-0.215415	-234.521	-0.000326	NaN
490	1.000000	0.883011	7.36985e+06	-52589.1	1005.82	-29748.9	0.000000	0.000000	6.883092	0.030803	NaN	0.000000	0.001603	0.001729	28.0825	0.024131	0.001963	12.2934	-3.987276	-166.877	0.008421	0.881676	-0.204672	-0.206007	0.030803	12.2934	-0.206552	-168.592	-0.000183	NaN
490	1.000000	0.891016	7.36985e+06	-52589.1	1005.82	-29748.9	0.000000	0.000000	6.891097	0.001330	NaN	0.000000	0.001577	0.001719	28.0826	0.038133	0.001937	19.6846	168.66	-164.8	0.076998	0.889714	-0.196667	-0.197969	0.001330	19.6846	-0.196717	-116.309	-1.143635E-5	NaN
490	1.000000	0.899015	7.36985e+06	-52589.1	1005.82	-29748.9	0.000000	0.000000	6.899095	-0.009285	NaN	0.000000	0.001590	0.001726	28.0825	0.044391	0.001882	23.59	-20.6316	-167.985	0.056906	0.897782	-0.188668	-0.189901	-0.009285	23.59	-0.188373	-84.49	0.000110	NaN
490	1.000000	0.907054	7.36985e+06	-52589.1	1005.82	-29748.9	0.000000	0.000000	6.907134	-0.003078	NaN	0.000000	0.001567	0.001737	28.0825	0.114095	0.001970	57.9166	-45.5749	-163.485	0.077074	0.905738	-0.180629	-0.181945	-0.003078	57.9166	-0.180589	-62.4434	4.928865E-5	NaN
490	1.000000	0.915029	7.36985e+06	-52589.1	1005.82	-29748.9	0.000000	0.000000	6.915108	-0.037342	NaN	0.000000	0.001594	0.001714	28.0826	0.094893	0.002049	46.3038	-93.9263	-166.672	0.042793	0.913681	-0.172654	-0.174002	-0.037342	46.3038	-0.172049	-44.5773	0.000838	NaN
490	1.000000	0.923069	7.36985e+06	-52589.1	1005.82	-29748.9	0.000000	0.000000	6.923149	-0.024716	NaN	0.000000	0.001578	0.001703	28.0824	0.022500	0.001824	12.3351	135.974	-167.33	0.057280	0.921686	-0.164614	-0.165997	-0.024716	12.3351	-0.163111	-31.1214	0.000794	NaN
490	1.000000	0.931028	7.36985e+06	-52589.1	1005.82	-29748.9	0.000000	0.000000	6.931104	-0.092834	NaN	0.000000	0.001572	0.001699	28.0825	0.013791	0.001788	7.713477	178.943	-165.172	-0.002781	0.929701	-0.156655	-0.157982	-0.092834	7.713477	-0.147629	-16.3914	0.005664	NaN
490	1.000000	0.939032	7.36985e+06	-52589.1	1005.82	-29748.9	0.000000	0.000000	6.939112	-0.013103	NaN	0.000000	0.001620	0.001719	28.0824	0.145497	0.001929	75.4222	163.541	-168.25	0.005790	0.937693	-0.148651	-0.149990	-0.013103	75.4222	-0.148521	-17.0203	0.000770	NaN
490	1.000000	0.947059	7.36985e+06	-52589.1	1005.82	-29748.9	0.000000	0.000000	6.947138	-0.019731	NaN	0.000000	0.001574	0.001751	28.0823	0.074529	0.002009	37.1036	-163.416	-165.15	-0.030253	0.945758	-0.140625	-0.141925	-0.019731	37.1036	-0.140226	-11.9455	0.001652	NaN
490	1.000000	0.955042	7.36985e+06	-52589.1	1005.82	-29748.9	0.000000	0.000000	6.955122	-0.010594	NaN	0.000000	0.001584	0.001777	28.0824	0.040737	0.002078	19.6078	61.8253	-168.524	-0.017149	0.953747	-0.132641	-0.133936	-0.010594	19.6078	-0.132236	-8.419251	0.001258	NaN
490	1.000000	0.963072	7.36985e+06	-52589.1	1005.82	-29748.9	0.000000	0.000000	6.963154	0.028381	NaN	0.000000	0.001650	0.001768	28.0825	0.029570	0.002051	14.4176	-35.0718	-166.446	-0.012565	0.961757	-0.124611	-0.125926	0.028381	14.4176	-0.126087	-6.389383	-0.004442	NaN
490	1.000000	0.971038	7.36985e+06	-52589.1	1005.82	-29748.9	0.000000	0.000000	6.971119	0.002125	NaN	0.000000	0.001645	0.001772	28.0828	0.017752	0.001925	9.220145	99.7931	-167.779	-0.066428	0.969747	-0.116645	-0.117936	0.002125	9.220145	-0.116817	-4.163169	-0.000511	NaN
490	1.000000	0.979087	7.36985e+06	-52589.1	1005.82	-29748.9	0.000000	0.000000	6.979168	0.013044	NaN	0.000000	0.001676	0.001706	28.0825	0.087714	0.002016	43.5087	-92.4716	-168.829	-0.048416	0.977779	-0.108596	-0.109904	0.013044	43.5087	-0.108821	-2.837549	-0.004597	NaN
490	1.000000	0.987075	7.36985e+06	-52589.1	1005.82	-29748.9	0.000000	0.000000	6.987153	-0.052623	NaN	0.000000	0.001593	0.001686	28.0826	0.023914	0.002105	11.3595	-156.927	-168.338	0.018644	0.985813	-0.100608	-0.101870	-0.052623	11.3595	-0.097134	-1.576669	0.033376	NaN
490	1.000000	0.995053	7.36985e+06	-52589.1	1005.82	-29748.9	0.000000	0.000000	6.995134	0.017312	NaN	0.000000	0.001580	0.001677	28.0824	0.031128	0.002135	14.5784	-96.037	-169.411	0.004071	0.993749	-0.092630	-0.093934	0.017312	14.5784	-0.093521	-1.304890	-0.013267	NaN
490	1.000000	1.003038	7.36985e+06	-52589.1	1005.82	-29748.9	0.000000	0.000000	7.003118	-0.027655	NaN	0.000000	0.001578	0.001656	28.0814	0.039234	0.001907	20.5785	-35.2318	-166.629	-0.021662	1.001759	-0.084645	-0.085924	-0.027655	20.5785	-0.083637	-0.761272	0.036327	NaN
490	1.000000	1.011085	7.36985e+06	-52589.1	1005.82	-29748.9	0.000000	0.000000	7.011165	-0.003295	NaN	0.000000	0.001614	0.001683	28.0814	0.089295	0.001990	44.8783	-169.038	-165.296	0.016055	1.009743	-0.076598	-0.077940	-0.003295	44.8783	-0.076543	-0.506089	0.006510	NaN
490	1.000000	1.019074	7.36985e+06	-52589.1	1005.82	-29748.9	0.000000	0.000000	7.019155	-0.003207	NaN	0.000000	0.001568	0.001713	28.0814	0.045518	0.002175	20.9294	46.7604	-167.897	-0.027359	1.017694	-0.068609	-0.069989	-0.003207	20.9294	-0.068494	-0.310692	0.010323	NaN
490	1.000000	1.027072	7.36985e+06	-52589.1	1005.82	-29748.9	0.000000	0.000000	7.027150	-0.069769	NaN	0.000000	0.001553	0.001670	28.0814	0.060644	0.001935	31.3394	66.5334	-169.29	0.032297	1.025758	-0.060611	-0.061925	-0.069769	31.3394	-0.058941	-0.167888	0.415569	NaN
490	1.000000	1.035096	7.36985e+06	-52589.1	1005.82	-29748.9	0.000000	0.000000	7.035179	0.053274	NaN	0.000000	0.001587	0.001652	28.0813	0.027729	0.001909	14.5227	-172.682	-164.859	0.057176	1.033765	-0.052587	-0.053918	0.053274	14.5227	-0.055338	-0.131774	-0.404284	NaN
490	1.000000	1.043086	7.36985e+06	-52589.1	1005.82	-29748.9	0.000000	0.000000	7.043164	-0.051321	NaN	0.000000	0.001565	0.001696	28.0815	0.008739	0.001983	4.407803	170.548	-164.212	-0.077259	1.041714	-0.044597	-0.045969	-0.051321	4.407803	-0.035865	-0.033967	1.510926	NaN
490	1.000000	1.051081	7.36985e+06	-52589.1	1005.82	-29748.9	0.000000	0.000000	7.051160	-0.021840	NaN	0.000000	0.001603	0.001689	28.0813	0.067447	0.001895	35.5964	5.792945	-167.045	-0.027720	1.049725	-0.036603	-0.037958	-0.021840	35.5964	-0.036142	-0.034617	0.630897	NaN
490	1.000000	1.059079	7.36985e+06	-52589.1	1005.82	-29748.9	0.000000	0.000000	7.059161	0.033454	NaN	0.000000	0.001585	0.001713	28.0816	0.081832	0.002172	37.6684	8.475790	-165.981	0.037221	1.057804	-0.028604	-0.029879	0.033454	37.6684	-0.029270	-0.021964	-1.523108	NaN
490	1.000000	1.067100	7.36985e+06	-52589.1	1005.82	-29748.9	0.000000	0.000000	7.067177	-0.065873	NaN	0.000000	0.001558	0.001719	28.0815	0.046511	0.001992	23.3495	24.4504	-165.84	0.010573	1.065779	-0.020584	-0.021904	-0.065873	23.3495	-0.018468	-0.011477	5.739343	NaN
490	1.000000	1.075063	7.36985e+06	-52589.1	1005.82	-29748.9	0.000000	0.000000	7.075145	0.026677	NaN	0.000000	0.001555	0.001721	28.0813	0.067566	0.001861	36.3025	110.78	-165.676	0.040028	1.073798	-0.012620	-0.013885	0.026677	36.3025	-0.013171	-0.008201	-3.252905	NaN
490	1.000000	1.083103	7.36985e+06	-52589.1	1005.82	-29748.9	0.000000	0.000000	7.083193	0.237275	NaN	0.000000	0.001576	0.001683	28.0817	0.532550	0.001998	266.514	19.4756	-171	-0.050401	1.081768	-0.004580	-0.005915	0.237275	266.514	-0.005248	-0.003572	-66.429	NaN
490	1.000000	1.091063	7.36985e+06	-52589.1	1005.82	-29748.9	0.000000	0.000000	7.091429	6.942640	NaN	0.000000	0.001559	0.001692	28.0812	7.068911	0.001764	4007.58	13.3714	-173.509	5.893526	1.089685	0.003380	0.002002	6.942640	4007.58	0.002081	0.001620	4285.27	90966.6
490	2.000000	1.094704	7.36985e+06	-52589.1	1005.82	-29748.9	0.000000	0.000000	7.095247	11.255	NaN	0.000000	0.001566	0.001661	28.0824	10.6196	0.001681	6319.01	7.268124	-173.087	11.4481	1.094321	0.007021	0.006638	11.255	6319.01	0.005685	0.004767	2360.83	83614.5
490	2.000000	1.096675	7.36985e+06	-52589.1	1005.82	-29748.9	0.000000	0.000000	7.097346	14.3503	NaN	0.000000	0.001563	0.001692	28.0813	12.2899	0.001795	6845.62	7.524904	-172.824	14.5409	1.096362	0.008992	0.008679	14.3503	6845.62	0.007420	0.006452	2224.04	77862.2
490	2.000000	1.098636	7.36985e+06	-52589.1	1005.82	-29748.9	0.000000	0.000000	7.099432	17.3999	NaN	0.000000	0.001578	0.001701	28.0814	14.2998	0.001560	9168.11	4.450062	-176.047	16.7919	1.098337	0.010953	0.010654	17.3999	9168.11	0.009529	0.008663	2008.52	89994.9
490	2.000000	1.100662	7.36985e+06	-52589.1	1005.82	-29748.9	0.000000	0.000000	7.101540	19.3855	NaN	0.000000	0.001573	0.001670	28.0816	16.8885	0.001843	9164.21	8.772806	-178.16	19.1947	1.100352	0.012979	0.012669	19.3855	9164.21	0.011393	0.010771	1799.79	80675.4
490	2.000000	1.102651	7.36985e+06	-52589.1	1005.82	-29748.9	0.000000	0.000000	7.103770	25.2542	NaN	0.000000	0.001553	0.001675	28.0814	18.2144	0.001720	10592	5.776836	-178.22	24.3264	1.102267	0.014968	0.014584	25.2542	10592	0.013179	0.012934	1952.57	85092.1
490	2.000000	1.104616	7.36985e+06	-52589.1	1005.82	-29748.9	0.000000	0.000000	7.105821	27.3571	NaN	0.000000	0.001559	0.001696	28.0838	20.7614	0.001843	11263.3	5.716663	-178.306	25.8871	1.104313	0.016933	0.016630	27.3571	11263.3	0.015111	0.015434	1772.54	82832.4
490	2.000000	1.106652	7.36985e+06	-52589.1	1005.82	-29748.9	0.000000	0.000000	7.108020	31.3229	NaN	0.000000	0.001573	0.001654	28.0827	22.615	0.001763	12826	7.582224	179.103	31.808	1.106358	0.018969	0.018675	31.3229	12826	0.017137	0.018241	1717.13	86763.5
490	2.000000	1.108572	7.36985e+06	-52589.1	1005.82	-29748.9	0.000000	0.000000	7.110133	36.0131	NaN	0.000000	0.001576	0.001663	28.0826	24.09	0.001763	13666	5.173148	-178.251	34.8356	1.108291	0.020889	0.020608	36.0131	13666	0.018912	0.020862	1726.26	86444.3
490	2.000000	1.110620	7.36985e+06	-52589.1	1005.82	-29748.9	0.000000	0.000000	7.112405	41.4308	NaN	0.000000	0.001560	0.001651	28.0824	25.8862	0.001724	15015.3	6.591934	179.779	42.0384	1.110254	0.022937	0.022571	41.4308	15015.3	0.020868	0.023924	1731.75	88692.4
490	2.000000	1.112609	7.36985e+06	-52589.1	1005.82	-29748.9	0.000000	0.000000	7.114652	47.705	NaN	0.000000	0.001544	0.001656	28.0825	27.6223	0.001776	15556.3	6.271513	178.879	47.8081	1.112297	0.024926	0.024614	47.705	15556.3	0.022626	0.026838	1777.5	86756.2
490	2.000000	1.114619	7.36985e+06	-52589.1	1005.82	-29748.9	0.000000	0.000000	7.116792	50.8889	NaN	0.000000	0.001535	0.001699	28.0826	30.2492	0.001901	15912.4	10.0022	175.32	51.4009	1.114286	0.026936	0.026603	50.8889	15912.4	0.024537	0.030179	1686.21	83686
490	2.000000	1.116596	7.36985e+06	-52589.1	1005.82	-29748.9	0.000000	0.000000	7.119121	59.4179	NaN	0.000000	0.001558	0.001722	28.0823	31.4197	0.001849	16989.1	2.948039	-177.707	58.047	1.116207	0.028913	0.028524	59.4179	16989.1	0.026290	0.033405	1778.72	84925.8
490	2.000000	1.118568	7.36985e+06	-52589.1	1005.82	-29748.9	0.000000	0.000000	7.121364	66.0175	NaN	0.000000	0.001540	0.001690	28.0826	33.2936	0.001706	19518.5	6.334746	176.941	65.8262	1.118239	0.030885	0.030556	66.0175	19518.5	0.028348	0.037390	1765.66	92224
490	2.000000	1.120572	7.36985e+06	-52589.1	1005.82	-29748.9	0.000000	0.000000	7.123548	70.4092	NaN	0.000000	0.001509	0.001684	28.0825	35.8291	0.001733	20678.7	6.019477	176.608	69.4505	1.120258	0.032889	0.032575	70.4092	20678.7	0.030335	0.041441	1699.01	92806.5
490	2.000000	1.122526	7.36985e+06	-52589.1	1005.82	-29748.9	0.000000	0.000000	7.125918	80.5203	NaN	0.000000	0.001520	0.001682	28.0825	36.8355	0.001814	20303.4	4.232965	178.968	76.9295	1.122182	0.034843	0.034499	80.5203	20303.4	0.031868	0.044706	1801.12	87732.8
490	2.000000	1.124570	7.36985e+06	-52589.1	1005.82	-29748.9	0.000000	0.000000	7.128189	86.0418	NaN	0.000000	0.001564	0.001666	28.0824	39.1113	0.001899	20592.2	6.582510	177.246	86.3582	1.124152	0.036887	0.036469	86.0418	20592.2	0.033753	0.048882	1760.18	85094.4
490	2.000000	1.126576	7.36985e+06	-52589.1	1005.82	-29748.9	0.000000	0.000000	7.130374	90.3686	NaN	0.000000	0.001556	0.001687	28.0823	40.529	0.001716	23618.2	2.515246	179.867	89.8527	1.126257	0.038893	0.038574	90.3686	23618.2	0.036024	0.054156	1668.66	92724.7
490	2.000000	1.128563	7.36985e+06	-52589.1	1005.82	-29748.9	0.000000	0.000000	7.132804	101.162	NaN	0.000000	0.001569	0.001647	28.0824	42.788	0.001838	23284.5	6.033617	175.677	99.5777	1.128170	0.040880	0.040487	101.162	23284.5	0.037622	0.058027	1743.38	88313.6
490	2.000000	1.130551	7.36985e+06	-52589.1	1005.82	-29748.9	0.000000	0.000000	7.135144	109.718	NaN	0.000000	0.001553	0.001649	28.0826	45.1806	0.001735	26046	3.050871	176.952	108.535	1.130252	0.042868	0.042569	109.718	26046	0.039709	0.063277	1733.92	94599.9
490	2.000000	1.132541	7.36985e+06	-52589.1	1005.82	-29748.9	0.000000	0.000000	7.137632	121.83	NaN	0.000000	0.001553	0.001636	28.0826	46.1086	0.001682	27417.3	4.823132	175.167	119.858	1.132199	0.044858	0.044516	121.83	27417.3	0.041525	0.068029	1790.87	96040
490	2.000000	1.134570	7.36985e+06	-52589.1	1005.82	-29748.9	0.000000	0.000000	7.139722	123.303	NaN	0.000000	0.001561	0.001651	28.0825	49.2172	0.001760	27962.9	4.211363	175.304	122.327	1.134251	0.046887	0.046568	123.303	27962.9	0.043580	0.073608	1675.14	94165.7
490	2.000000	1.136584	7.36985e+06	-52589.1	1005.82	-29748.9	0.000000	0.000000	7.142305	137.159	NaN	0.000000	0.001553	0.001687	28.0825	51.693	0.001826	28312.9	6.659659	173.748	135.738	1.136148	0.048901	0.048465	137.159	28312.9	0.045267	0.078348	1750.63	92415.3
490	2.000000	1.138554	7.36985e+06	-52589.1	1005.82	-29748.9	0.000000	0.000000	7.144505	142.718	NaN	0.000000	0.001563	0.001649	28.0817	52.32	0.001743	30010.4	4.150154	175.124	142.528	1.138262	0.050871	0.050579	142.718	30010.4	0.047305	0.084264	1693.7	94454.5
490	2.000000	1.140535	7.36985e+06	-52589.1	1005.82	-29748.9	0.000000	0.000000	7.146846	151.495	NaN	0.000000	0.001516	0.001678	28.0814	54.7604	0.001723	31776.1	3.061726	176.137	150.816	1.140236	0.052852	0.052553	151.495	31776.1	0.049276	0.090189	1679.75	96671.2
490	2.000000	1.142504	7.36985e+06	-52589.1	1005.82	-29748.9	0.000000	0.000000	7.149148	159.585	NaN	0.000000	0.001562	0.001689	28.0813	56.8063	0.001865	30461.2	6.185621	172.55	157.839	1.142262	0.054821	0.054579	159.585	30461.2	0.050892	0.095190	1676.49	90203.7
490	2.000000	1.144457	7.36985e+06	-52589.1	1005.82	-29748.9	0.000000	0.000000	7.151642	172.758	NaN	0.000000	0.001555	0.001653	28.0811	58.7887	0.001731	33964.2	7.100815	170.792	168.703	1.144151	0.056774	0.056468	172.758	33964.2	0.052959	0.101778	1697.4	97267.6
490	2.000000	1.146520	7.36985e+06	-52589.1	1005.82	-29748.9	0.000000	0.000000	7.154188	184.481	NaN	0.000000	0.001538	0.001704	28.0812	60.1019	0.001843	32614.6	2.596695	176.456	180.794	1.146148	0.058837	0.058465	184.481	32614.6	0.054595	0.107143	1721.82	91033.9
490	2.000000	1.148597	7.36985e+06	-52589.1	1005.82	-29748.9	0.000000	0.000000	7.156413	188.086	NaN	0.000000	0.001545	0.001678	28.0813	62.9088	0.001814	34681.6	8.058200	169.871	188.685	1.148179	0.060914	0.060496	188.086	34681.6	0.056846	0.114743	1639.19	93542.6
490	2.000000	1.150608	7.36985e+06	-52589.1	1005.82	-29748.9	0.000000	0.000000	7.158848	198.4	NaN	0.000000	0.001547	0.001696	28.0811	64.5536	0.001804	35774.6	3.631295	174.723	202.966	1.150266	0.062925	0.062583	198.4	35774.6	0.058765	0.121418	1634.03	93801.1
490	2.000000	1.152507	7.36985e+06	-52589.1	1005.82	-29748.9	0.000000	0.000000	7.161492	216.508	NaN	0.000000	0.001563	0.001663	28.0812	65.626	0.001733	37867.8	4.175748	173.28	216.056	1.152211	0.064824	0.064528	216.508	37867.8	0.060536	0.127736	1694.97	96802.6
490	2.000000	1.154506	7.36985e+06	-52589.1	1005.82	-29748.9	0.000000	0.000000	7.163953	227.725	NaN	0.000000	0.001548	0.001671	28.0814	67.6471	0.001734	39018.4	2.368003	174.996	225.896	1.154244	0.066823	0.066561	227.725	39018.4	0.062446	0.134725	1690.3	97122.3
490	2.000000	1.156602	7.36985e+06	-52589.1	1005.82	-29748.9	0.000000	0.000000	7.166612	241.419	NaN	0.000000	0.001558	0.001656	28.0814	70.4621	0.001856	37974.4	6.433890	171.515	242.413	1.156228	0.068919	0.068545	241.419	37974.4	0.064151	0.141113	1710.81	92359.1
490	2.000000	1.158479	7.36985e+06	-52589.1	1005.82	-29748.9	0.000000	0.000000	7.168950	252.635	NaN	0.000000	0.001597	0.001677	28.0816	71.8927	0.001770	40616.9	3.089782	174.016	250.472	1.158281	0.070796	0.070598	252.635	40616.9	0.066131	0.148705	1698.9	96231.4
490	2.000000	1.160565	7.36985e+06	-52589.1	1005.82	-29748.9	0.000000	0.000000	7.171425	262.112	NaN	0.000000	0.001548	0.001671	28.0813	74.0053	0.001775	41685	3.854593	173.449	262.926	1.160122	0.072882	0.072439	262.112	41685	0.068166	0.156706	1672.63	96207.6
490	2.000000	1.162481	7.36985e+06	-52589.1	1005.82	-29748.9	0.000000	0.000000	7.174015	278.48	NaN	0.000000	0.001551	0.001659	28.0814	75.6901	0.001816	41677.5	6.066960	170.689	276.811	1.162227	0.074798	0.074544	278.48	41677.5	0.069787	0.163221	1706.15	94251.3
490	2.000000	1.164405	7.36985e+06	-52589.1	1005.82	-29748.9	0.000000	0.000000	7.176521	292.625	NaN	0.000000	0.001549	0.001669	28.0812	78.3381	0.001786	43858.4	5.357077	171.261	285.182	1.164067	0.076722	0.076384	292.625	43858.4	0.071718	0.171148	1709.77	96859
490	2.000000	1.166661	7.36985e+06	-52589.1	1005.82	-29748.9	0.000000	0.000000	7.178822	293.722	NaN	0.000000	0.001539	0.001618	28.0813	81.6042	0.001826	44693	6.027722	170.732	302.036	1.166321	0.078978	0.078638	293.722	44693	0.074049	0.180948	1623.24	95992.2
490	2.000000	1.168454	7.36985e+06	-52589.1	1005.82	-29748.9	0.000000	0.000000	7.181594	317.515	NaN	0.000000	0.001543	0.001665	28.0813	82.5462	0.001817	45417.5	4.412241	172.061	313.158	1.168170	0.080771	0.080487	317.515	45417.5	0.075528	0.187300	1695.22	95880
490	2.000000	1.170434	7.36985e+06	-52589.1	1005.82	-29748.9	0.000000	0.000000	7.183899	325.428	NaN	0.000000	0.001553	0.001661	28.0812	84.6632	0.001785	47443.3	3.979352	172.091	321.332	1.170168	0.082751	0.082485	325.428	47443.3	0.077607	0.196400	1656.97	97808.7
490	2.000000	1.172430	7.36985e+06	-52589.1	1005.82	-29748.9	0.000000	0.000000	7.186944	350.946	NaN	0.000000	0.001583	0.001685	28.0817	85.6413	0.001762	48607.7	5.004899	170.844	347.405	1.172176	0.084747	0.084493	350.946	48607.7	0.079332	0.204108	1719.41	98298.9
490	2.000000	1.174383	7.36985e+06	-52589.1	1005.82	-29748.9	0.000000	0.000000	7.189291	360.513	NaN	0.000000	0.001570	0.001657	28.0824	89.3143	0.001766	50575.6	7.183464	168.071	352.589	1.174043	0.086700	0.086360	360.513	50575.6	0.081354	0.213317	1690.03	100047
490	2.000000	1.176630	7.36985e+06	-52589.1	1005.82	-29748.9	0.000000	0.000000	7.192211	376.878	NaN	0.000000	0.001577	0.001646	28.0826	92.2098	0.001849	49857.1	10.9709	165.921	381.107	1.176168	0.088947	0.088485	376.878	49857.1	0.083278	0.222254	1695.71	96621.8
490	2.000000	1.178458	7.36985e+06	-52589.1	1005.82	-29748.9	0.000000	0.000000	7.194336	384.108	NaN	0.000000	0.001554	0.001667	28.0826	92.0995	0.001744	52803	4.993592	170.321	380.836	1.178164	0.090775	0.090481	384.108	52803	0.085319	0.231925	1656.17	100175
490	2.000000	1.180588	7.36985e+06	-52589.1	1005.82	-29748.9	0.000000	0.000000	7.196830	392.964	NaN	0.000000	0.001543	0.001669	28.0827	95.5369	0.001908	50064.7	4.008558	171.557	398.284	1.180310	0.092905	0.092627	392.964	50064.7	0.087018	0.240123	1636.52	93344.5
490	2.000000	1.182422	7.36985e+06	-52589.1	1005.82	-29748.9	0.000000	0.000000	7.199235	406.859	NaN	0.000000	0.001542	0.001657	28.0828	95.9555	0.001797	53397.7	4.214393	170.465	401.61	1.182201	0.094739	0.094518	406.859	53397.7	0.089024	0.249971	1627.63	97577.9
490	2.000000	1.184470	7.36985e+06	-52589.1	1005.82	-29748.9	0.000000	0.000000	7.202708	441.497	NaN	0.000000	0.001554	0.001672	28.0826	97.1036	0.001732	56068.1	2.553081	172.54	438.347	1.184010	0.096787	0.096327	441.497	56068.1	0.090881	0.259254	1702.95	100607
490	2.000000	1.186472	7.36985e+06	-52589.1	1005.82	-29748.9	0.000000	0.000000	7.205118	451.397	NaN	0.000000	0.001557	0.001678	28.0824	99.7128	0.001720	57986.8	4.483716	170.558	447.059	1.186083	0.098789	0.098399	451.397	57986.8	0.092951	0.269784	1673.18	101999
490	2.000000	1.188453	7.36985e+06	-52589.1	1005.82	-29748.9	0.000000	0.000000	7.207510	461.396	NaN	0.000000	0.001591	0.001671	28.0826	101.1	0.001790	56470.9	2.571882	172.171	458.036	1.188149	0.100770	0.100466	461.396	56470.9	0.094642	0.278534	1656.51	97759.3
490	2.000000	1.190436	7.36985e+06	-52589.1	1005.82	-29748.9	0.000000	0.000000	7.210309	481.227	NaN	0.000000	0.001549	0.001675	28.0827	104.084	0.001790	58152.8	6.268372	168.274	476.63	1.190147	0.102753	0.102464	481.227	58152.8	0.096547	0.288546	1667.77	98909.2
490	2.000000	1.191489	7.36985e+06	-52589.1	1005.82	-29748.9	0.000000	0.000000	7.211617	487.456	NaN	0.000000	0.001537	0.001654	28.0826	104.506	0.001935	54015.6	5.574085	170.156	485.286	1.191152	0.103806	0.103469	487.456	54015.6	0.097037	0.291152	1674.23	91460.2