File: remote_trans/data/nanoindenter/0828-1/data/Data_2025-08-06,11h17m57s/2025-07-22_16-23-58_1_1029.txt
2025-07-22, 16:23:58, 1
Index	Phase	Displacement	Time	Pos X	Pos Y	Pos Z	Rot A	Rot B	Piezo Z	Force A	Force B	Gripper	Voltage A	Voltage B	Temperature	Amplitude force	Amplitude pos	Stiffness	Phase shift	Phase excitation	Force A raw	Displacement raw	HMax	HMax raw	Real Force	Real Stiffness	Contact Depth	Area	Hardness	Reduced Mod.
[#]	[#]	[um]	[s]	[um]	[um]	[um]	[m°]	[m°]	[um]	[uN]	[uN]	[V]	[V]	[V]	[°C]	[uN]	[um]	[N/m]	[°]	[°]	[uN]	[um]	[um]	[um]	[uN]	[N/m]	[um]	[um^2]	[MPa]	[MPa]
1029	1.000000	0.002081	7.37511e+06	-51589.1	1055.82	-29751.7	0.000000	0.000000	6.002798	0.004611	NaN	0.000000	0.001541	0.001568	28.083	0.060313	0.000862	70.0028	-95.7754	-167.072	-0.004577	0.000796	-1.078825	-1.080110	0.004611	70.0028	-1.078874	-2.608540E+14	-1.767769E-17	NaN
1029	1.000000	0.010042	7.37511e+06	-51589.1	1055.82	-29751.7	0.000000	0.000000	6.010759	0.017265	NaN	0.000000	0.001558	0.001601	28.0829	0.087613	0.000930	94.1897	147.942	-161.715	-0.000201	0.008695	-1.070864	-1.072211	0.017265	94.1897	-1.071002	-2.044779E+14	-8.443567E-17	NaN
1029	1.000000	0.018056	7.37511e+06	-51589.1	1055.82	-29751.7	0.000000	0.000000	6.018770	-0.035104	NaN	0.000000	0.001548	0.001551	28.0817	0.110325	0.001745	63.2062	156.747	-163.544	-0.082817	0.016677	-1.062851	-1.064229	-0.035104	63.2062	-1.062434	-1.568668E+14	2.237808E-16	NaN
1029	1.000000	0.026039	7.37511e+06	-51589.1	1055.82	-29751.7	0.000000	0.000000	6.026756	0.035446	NaN	0.000000	0.001568	0.001532	28.0815	0.056376	0.001876	30.0485	-120.325	-163.885	-0.086142	0.024706	-1.054867	-1.056200	0.035446	30.0485	-1.055752	-1.275651E+14	-2.778664E-16	NaN
1029	1.000000	0.034002	7.37511e+06	-51589.1	1055.82	-29751.7	0.000000	0.000000	6.034716	-0.058496	NaN	0.000000	0.001544	0.001561	28.0818	0.123113	0.001937	63.5692	172.124	-164.292	-0.049017	0.032700	-1.046904	-1.048206	-0.058496	63.5692	-1.046214	-9.495399E+13	6.160419E-16	NaN
1029	1.000000	0.042049	7.37511e+06	-51589.1	1055.82	-29751.7	0.000000	0.000000	6.042762	-0.061176	NaN	0.000000	0.001661	0.001561	28.0817	0.130793	0.001935	67.5902	-127.441	-164.674	-0.072237	0.040738	-1.038858	-1.040168	-0.061176	67.5902	-1.038179	-7.404201E+13	8.262394E-16	NaN
1029	1.000000	0.050043	7.37511e+06	-51589.1	1055.82	-29751.7	0.000000	0.000000	6.050757	-0.042779	NaN	0.000000	0.001643	0.001568	28.0818	0.063330	0.002029	31.2111	-128.252	-164.708	-0.030862	0.048707	-1.030863	-1.032199	-0.042779	31.2111	-1.029836	-5.718317E+13	7.481001E-16	NaN
1029	1.000000	0.058050	7.37511e+06	-51589.1	1055.82	-29751.7	0.000000	0.000000	6.058765	-0.035357	NaN	0.000000	0.001627	0.001553	28.0829	0.130003	0.001986	65.4457	-32.5987	-164.5	-0.042365	0.056704	-1.022856	-1.024202	-0.035357	65.4457	-1.022451	-4.549090E+13	7.772401E-16	NaN
1029	1.000000	0.066030	7.37511e+06	-51589.1	1055.82	-29751.7	0.000000	0.000000	6.066745	-0.016744	NaN	0.000000	0.001660	0.001509	28.0816	0.063931	0.002077	30.775	-3.720295	-165.116	-0.084688	0.064760	-1.014876	-1.016146	-0.016744	30.775	-1.014468	-3.552370E+13	4.713594E-16	NaN
1029	1.000000	0.074058	7.37511e+06	-51589.1	1055.82	-29751.7	0.000000	0.000000	6.074770	-0.110742	NaN	0.000000	0.001649	0.001549	28.0819	0.088871	0.002118	41.9583	-12.3001	-162.3	-0.061726	0.072692	-1.006848	-1.008214	-0.110742	41.9583	-1.004868	-2.638203E+13	4.197627E-15	NaN
1029	1.000000	0.082016	7.37511e+06	-51589.1	1055.82	-29751.7	0.000000	0.000000	6.082728	-0.085812	NaN	0.000000	0.001635	0.001541	28.0818	0.030243	0.001916	15.7883	-45.3329	-166.918	-0.040165	0.080771	-0.998890	-1.000135	-0.085812	15.7883	-0.994814	-1.931712E+13	4.442291E-15	NaN
1029	1.000000	0.090052	7.37511e+06	-51589.1	1055.82	-29751.7	0.000000	0.000000	6.090771	0.066760	NaN	0.000000	0.001655	0.001557	28.0816	0.087171	0.001938	44.9725	71.042	-165.57	-0.012263	0.088750	-0.990854	-0.992156	0.066760	44.9725	-0.991968	-1.768533E+13	-3.774860E-15	NaN
1029	1.000000	0.098093	7.37511e+06	-51589.1	1055.82	-29751.7	0.000000	0.000000	6.098807	-0.049498	NaN	0.000000	0.001613	0.001606	28.0819	0.094297	0.002003	47.0681	-50.5509	-166.654	-0.124804	0.096752	-0.982814	-0.984154	-0.049498	47.0681	-0.982025	-1.299243E+13	3.809776E-15	NaN
1029	1.000000	0.106065	7.37511e+06	-51589.1	1055.82	-29751.7	0.000000	0.000000	6.106780	-0.044725	NaN	0.000000	0.001635	0.001627	28.0816	0.120137	0.002147	55.9666	-66.864	-164.067	-0.091986	0.104757	-0.974841	-0.976149	-0.044725	55.9666	-0.974241	-1.020519E+13	4.382544E-15	NaN
1029	1.000000	0.114069	7.37511e+06	-51589.1	1055.82	-29751.7	0.000000	0.000000	6.114785	0.001127	NaN	0.000000	0.001633	0.001580	28.0818	0.108898	0.002039	53.4158	146.274	-165.684	-0.027341	0.112760	-0.966837	-0.968146	0.001127	53.4158	-0.966853	-8.114335E+12	-1.389103E-16	NaN
1029	1.000000	0.122076	7.37511e+06	-51589.1	1055.82	-29751.7	0.000000	0.000000	6.122792	-0.017192	NaN	0.000000	0.001669	0.001573	28.0817	0.051506	0.002069	24.899	136.744	-164.171	0.059261	0.120708	-0.958830	-0.960198	-0.017192	24.899	-0.958312	-6.224643E+12	2.761888E-15	NaN
1029	1.000000	0.130021	7.37511e+06	-51589.1	1055.82	-29751.7	0.000000	0.000000	6.130738	0.024392	NaN	0.000000	0.001703	0.001560	28.0815	0.056489	0.001964	28.7603	93.1605	-163.392	-0.067583	0.128746	-0.950885	-0.952160	0.024392	28.7603	-0.951521	-5.041293E+12	-4.838526E-15	NaN
1029	1.000000	0.138090	7.37511e+06	-51589.1	1055.82	-29751.7	0.000000	0.000000	6.138805	-0.024041	NaN	0.000000	0.001730	0.001571	28.0821	0.072906	0.002026	35.9908	42.9904	-164.148	-0.096271	0.136690	-0.942817	-0.944216	-0.024041	35.9908	-0.942316	-3.787707E+12	6.347106E-15	NaN
1029	1.000000	0.146070	7.37511e+06	-51589.1	1055.82	-29751.7	0.000000	0.000000	6.146787	0.027635	NaN	0.000000	0.001695	0.001594	28.0817	0.080467	0.001968	40.898	-135.24	-162.346	0.028807	0.144723	-0.934836	-0.936183	0.027635	40.898	-0.935343	-3.049997E+12	-9.060754E-15	NaN
1029	1.000000	0.154079	7.37511e+06	-51589.1	1055.82	-29751.7	0.000000	0.000000	6.154795	-0.015867	NaN	0.000000	0.001690	0.001559	28.0831	0.086586	0.001893	45.7506	12.0055	-165.261	0.040609	0.152742	-0.926827	-0.928164	-0.015867	45.7506	-0.926567	-2.321989E+12	6.833569E-15	NaN
1029	1.000000	0.162065	7.37511e+06	-51589.1	1055.82	-29751.7	0.000000	0.000000	6.162781	-0.016082	NaN	0.000000	0.001705	0.001527	28.083	0.138735	0.002069	67.0437	46.1114	-166.597	0.019666	0.160818	-0.918841	-0.920088	-0.016082	67.0437	-0.918661	-1.816050E+12	8.855515E-15	NaN
1029	1.000000	0.170092	7.37511e+06	-51589.1	1055.82	-29751.7	0.000000	0.000000	6.170807	-0.012419	NaN	0.000000	0.001694	0.001536	28.0829	0.058099	0.001948	29.8189	-51.2839	-163.456	-0.084053	0.168721	-0.910815	-0.912185	-0.012419	29.8189	-0.910502	-1.409113E+12	8.813056E-15	NaN
1029	1.000000	0.178101	7.37511e+06	-51589.1	1055.82	-29751.7	0.000000	0.000000	6.178814	-0.076477	NaN	0.000000	0.001719	0.001553	28.0833	0.088118	0.002018	43.6697	159.049	-165.11	-0.029916	0.176797	-0.902805	-0.904109	-0.076477	43.6697	-0.901492	-1.064696E+12	7.183037E-14	NaN
1029	1.000000	0.186092	7.37511e+06	-51589.1	1055.82	-29751.7	0.000000	0.000000	6.186808	-0.024566	NaN	0.000000	0.001692	0.001546	28.0829	0.037764	0.001931	19.5585	131.089	-164.462	-0.041701	0.184776	-0.894814	-0.896130	-0.024566	19.5585	-0.893872	-8.399424E+11	2.924687E-14	NaN
1029	1.000000	0.194100	7.37511e+06	-51589.1	1055.82	-29751.7	0.000000	0.000000	6.194816	0.003605	NaN	0.000000	0.001723	0.001545	28.0832	0.043437	0.001826	23.7819	-17.3213	-167.289	0.018470	0.192792	-0.886806	-0.888114	0.003605	23.7819	-0.886920	-6.765097E+11	-5.328493E-15	NaN
1029	1.000000	0.202090	7.37511e+06	-51589.1	1055.82	-29751.7	0.000000	0.000000	6.202806	0.000583	NaN	0.000000	0.001715	0.001553	28.083	0.031162	0.002053	15.1757	-125.321	-167.652	-0.053150	0.200717	-0.878816	-0.880190	0.000583	15.1757	-0.878845	-5.261284E+11	-1.107178E-15	NaN
1029	1.000000	0.210134	7.37511e+06	-51589.1	1055.82	-29751.7	0.000000	0.000000	6.210848	-0.048836	NaN	0.000000	0.001701	0.001580	28.083	0.082904	0.002175	38.1225	127.308	-168.039	0.005734	0.208785	-0.870773	-0.872121	-0.048836	38.1225	-0.869812	-3.970986E+11	1.229815E-13	NaN
1029	1.000000	0.218091	7.37511e+06	-51589.1	1055.82	-29751.7	0.000000	0.000000	6.218807	-0.021405	NaN	0.000000	0.001655	0.001531	28.0831	0.077803	0.002009	38.7366	-129.83	-164.867	-0.020017	0.216812	-0.862815	-0.864094	-0.021405	38.7366	-0.862400	-3.152168E+11	6.790558E-14	NaN
1029	1.000000	0.226107	7.37511e+06	-51589.1	1055.82	-29751.7	0.000000	0.000000	6.226823	0.003952	NaN	0.000000	0.001684	0.001602	28.0828	0.062336	0.002119	29.4116	-160.824	-165.611	0.083038	0.224832	-0.854799	-0.856074	0.003952	29.4116	-0.854900	-2.495091E+11	-1.583745E-14	NaN
1029	1.000000	0.234105	7.37511e+06	-51589.1	1055.82	-29751.7	0.000000	0.000000	6.234821	-0.002969	NaN	0.000000	0.001657	0.001546	28.0832	0.100508	0.002104	47.761	134.871	-164.636	-0.054963	0.232766	-0.846801	-0.848140	-0.002969	47.761	-0.846754	-1.935458E+11	1.534068E-14	NaN
1029	1.000000	0.242113	7.37511e+06	-51589.1	1055.82	-29751.7	0.000000	0.000000	6.242828	-0.014227	NaN	0.000000	0.001681	0.001565	28.0829	0.072894	0.001978	36.856	11.1429	-164.187	0.025103	0.240802	-0.838793	-0.840104	-0.014227	36.856	-0.838504	-1.496313E+11	9.508013E-14	NaN
1029	1.000000	0.250090	7.37511e+06	-51589.1	1055.82	-29751.7	0.000000	0.000000	6.250803	-0.057233	NaN	0.000000	0.001642	0.001581	28.083	0.075512	0.002094	36.0549	-0.699149	-164.638	-0.062890	0.248816	-0.830817	-0.832090	-0.057233	36.0549	-0.829626	-1.134272E+11	5.045774E-13	NaN
1029	1.000000	0.258122	7.37511e+06	-51589.1	1055.82	-29751.7	0.000000	0.000000	6.258834	-0.081507	NaN	0.000000	0.001651	0.001530	28.0829	0.054787	0.002038	26.8821	-129.077	-167.576	-0.107773	0.256743	-0.822785	-0.824163	-0.081507	26.8821	-0.820511	-8.533645E+10	9.551233E-13	NaN
1029	1.000000	0.266122	7.37511e+06	-51589.1	1055.82	-29751.7	0.000000	0.000000	6.266839	0.019835	NaN	0.000000	0.001648	0.001557	28.0828	0.043434	0.002012	21.5889	-121.923	-163.175	0.031653	0.264847	-0.814784	-0.816059	0.019835	21.5889	-0.815473	-7.291540E+10	-2.720327E-13	NaN
1029	1.000000	0.274134	7.37511e+06	-51589.1	1055.82	-29751.7	0.000000	0.000000	6.274848	-0.054105	NaN	0.000000	0.001640	0.001577	28.0828	0.064436	0.002048	31.4587	-57.1651	-164.872	-0.034346	0.272794	-0.806772	-0.808113	-0.054105	31.4587	-0.805482	-5.336636E+10	1.013849E-12	NaN
1029	1.000000	0.282130	7.37511e+06	-51589.1	1055.82	-29751.7	0.000000	0.000000	6.282841	-0.118917	NaN	0.000000	0.001603	0.001582	28.0827	0.073373	0.002033	36.0986	146.604	-168.232	-0.095591	0.280856	-0.798776	-0.800050	-0.118917	36.0986	-0.796306	-4.005992E+10	2.968490E-12	NaN
1029	1.000000	0.290136	7.37511e+06	-51589.1	1055.82	-29751.7	0.000000	0.000000	6.290849	-0.078458	NaN	0.000000	0.001642	0.001544	28.0819	0.117128	0.002069	56.612	-123.524	-161.515	-0.145973	0.288828	-0.790770	-0.792078	-0.078458	56.612	-0.789730	-3.261535E+10	2.405565E-12	NaN
1029	1.000000	0.298167	7.37511e+06	-51589.1	1055.82	-29751.7	0.000000	0.000000	6.298882	-0.037458	NaN	0.000000	0.001635	0.001599	28.0814	0.010484	0.002144	4.890038	-138.168	-164.972	-0.113469	0.296878	-0.782739	-0.784028	-0.037458	4.890038	-0.776994	-2.189687E+10	1.710661E-12	NaN
1029	1.000000	0.306140	7.37511e+06	-51589.1	1055.82	-29751.7	0.000000	0.000000	6.306854	-0.058476	NaN	0.000000	0.001647	0.001593	28.0815	0.041465	0.002098	19.7607	-34.9498	-163.341	-0.009222	0.304794	-0.774766	-0.776112	-0.058476	19.7607	-0.772546	-1.905135E+10	3.069373E-12	NaN
1029	1.000000	0.314127	7.37511e+06	-51589.1	1055.82	-29751.7	0.000000	0.000000	6.314842	-0.025432	NaN	0.000000	0.001623	0.001602	28.0815	0.065400	0.001924	33.986	-164.918	-167.779	0.016095	0.312833	-0.766779	-0.768074	-0.025432	33.986	-0.766218	-1.562697E+10	1.627416E-12	NaN
1029	1.000000	0.322151	7.37511e+06	-51589.1	1055.82	-29751.7	0.000000	0.000000	6.322863	-0.105365	NaN	0.000000	0.001648	0.001602	28.0816	0.033380	0.002098	15.911	-136.505	-165.791	-0.073259	0.320841	-0.758755	-0.760065	-0.105365	15.911	-0.753789	-1.058740E+10	9.951940E-12	NaN
1029	1.000000	0.330141	7.37511e+06	-51589.1	1055.82	-29751.7	0.000000	0.000000	6.330856	-0.035512	NaN	0.000000	0.001627	0.001573	28.0816	0.075337	0.001966	38.3222	125.359	-165.528	-0.093249	0.328808	-0.750765	-0.752098	-0.035512	38.3222	-0.750070	-9.422761E+9	3.768708E-12	NaN
1029	1.000000	0.338166	7.37511e+06	-51589.1	1055.82	-29751.7	0.000000	0.000000	6.338881	-0.017260	NaN	0.000000	0.001609	0.001577	28.081	0.020247	0.002063	9.816417	-46.8776	-165.331	-0.088718	0.336840	-0.742740	-0.744066	-0.017260	9.816417	-0.741421	-7.184836E+9	2.402245E-12	NaN
1029	1.000000	0.346161	7.37511e+06	-51589.1	1055.82	-29751.7	0.000000	0.000000	6.346879	0.051282	NaN	0.000000	0.001617	0.001544	28.0815	0.023838	0.001934	12.3272	-41.2782	-164.027	0.029744	0.344857	-0.734745	-0.736049	0.051282	12.3272	-0.737865	-6.426529E+9	-7.979767E-12	NaN
1029	1.000000	0.354152	7.37511e+06	-51589.1	1055.82	-29751.7	0.000000	0.000000	6.354868	-0.006186	NaN	0.000000	0.001582	0.001530	28.0815	0.021021	0.001966	10.6919	-81.9598	-164.006	-0.005750	0.352829	-0.726754	-0.728077	-0.006186	10.6919	-0.726320	-4.473513E+9	1.382825E-12	NaN
1029	1.000000	0.362175	7.37511e+06	-51589.1	1055.82	-29751.7	0.000000	0.000000	6.362887	-0.099947	NaN	0.000000	0.001618	0.001592	28.0815	0.091992	0.002038	45.1278	155.686	-161.391	-0.080543	0.360875	-0.718732	-0.720031	-0.099947	45.1278	-0.717071	-3.345944E+9	2.987101E-11	NaN
1029	1.000000	0.370200	7.37511e+06	-51589.1	1055.82	-29751.7	0.000000	0.000000	6.370914	-0.049968	NaN	0.000000	0.001552	0.001514	28.0815	0.077564	0.002056	37.7288	-19.6653	-163.591	-0.069716	0.368864	-0.710706	-0.712042	-0.049968	37.7288	-0.709713	-2.655408E+9	1.881752E-11	NaN
1029	1.000000	0.378187	7.37511e+06	-51589.1	1055.82	-29751.7	0.000000	0.000000	6.378902	-0.035809	NaN	0.000000	0.001625	0.001605	28.0814	0.151772	0.002104	72.126	-107.254	-162.825	-0.032902	0.376865	-0.702719	-0.704041	-0.035809	72.126	-0.702347	-2.106594E+9	1.699867E-11	NaN
1029	1.000000	0.386155	7.37511e+06	-51589.1	1055.82	-29751.7	0.000000	0.000000	6.386870	-0.029226	NaN	0.000000	0.001613	0.001592	28.082	0.012991	0.001998	6.501979	-156.7	-166.068	-0.052827	0.384871	-0.694751	-0.696035	-0.029226	6.501979	-0.691380	-1.492013E+9	1.958864E-11	NaN
1029	1.000000	0.394142	7.37511e+06	-51589.1	1055.82	-29751.7	0.000000	0.000000	6.394857	-0.008692	NaN	0.000000	0.001599	0.001603	28.0815	0.032170	0.001990	16.164	66.9769	-163.817	-0.085391	0.392873	-0.686765	-0.688033	-0.008692	16.164	-0.686361	-1.274046E+9	6.822502E-12	NaN
1029	1.000000	0.402152	7.37511e+06	-51589.1	1055.82	-29751.7	0.000000	0.000000	6.402866	-0.035486	NaN	0.000000	0.001555	0.001599	28.0819	0.058318	0.001894	30.789	109.218	-165.529	-0.047067	0.400861	-0.678755	-0.680045	-0.035486	30.789	-0.677890	-9.757724E+8	3.636724E-11	NaN
1029	1.000000	0.410173	7.37511e+06	-51589.1	1055.82	-29751.7	0.000000	0.000000	6.410886	-0.085062	NaN	0.000000	0.001604	0.001613	28.0814	0.023068	0.001927	11.972	49.5939	-165.187	-0.069067	0.408831	-0.670733	-0.672075	-0.085062	11.972	-0.665404	-6.583778E+8	1.291989E-10	NaN
1029	1.000000	0.418175	7.37511e+06	-51589.1	1055.82	-29751.7	0.000000	0.000000	6.418891	-0.008400	NaN	0.000000	0.001609	0.001585	28.0815	0.012349	0.002166	5.700979	13.2001	-164.201	-0.007550	0.416869	-0.662731	-0.664037	-0.008400	5.700979	-0.661626	-5.844455E+8	1.437303E-11	NaN
1029	1.000000	0.426174	7.37511e+06	-51589.1	1055.82	-29751.7	0.000000	0.000000	6.426891	0.028169	NaN	0.000000	0.001641	0.001570	28.0832	0.113071	0.002034	55.6024	75.8281	-165.365	-0.048937	0.424880	-0.654732	-0.656026	0.028169	55.6024	-0.655112	-4.758853E+8	-5.919318E-11	NaN
1029	1.000000	0.434180	7.37511e+06	-51589.1	1055.82	-29751.7	0.000000	0.000000	6.434895	-0.024513	NaN	0.000000	0.001612	0.001595	28.0827	0.087780	0.001849	47.4808	36.4683	-167.191	0.015711	0.432852	-0.646726	-0.648054	-0.024513	47.4808	-0.646339	-3.607791E+8	6.794426E-11	NaN
1029	1.000000	0.442216	7.37512e+06	-51589.1	1055.82	-29751.7	0.000000	0.000000	6.442932	-0.007799	NaN	0.000000	0.001602	0.001616	28.0827	0.121028	0.001938	62.4404	135.412	-164.52	-0.000690	0.440882	-0.638690	-0.640024	-0.007799	62.4404	-0.638596	-2.825065E+8	2.760738E-11	NaN
1029	1.000000	0.450221	7.37512e+06	-51589.1	1055.82	-29751.7	0.000000	0.000000	6.450937	0.002103	NaN	0.000000	0.001600	0.001588	28.0828	0.034796	0.001970	17.663	-104.232	-163.182	-0.010980	0.448888	-0.630686	-0.632019	0.002103	17.663	-0.630775	-2.206303E+8	-9.529555E-12	NaN
1029	1.000000	0.458192	7.37512e+06	-51589.1	1055.82	-29751.7	0.000000	0.000000	6.458909	0.026675	NaN	0.000000	0.001619	0.001629	28.0828	0.061579	0.001892	32.547	-119.912	-168.365	-0.005634	0.456894	-0.622714	-0.624012	0.026675	32.547	-0.623329	-1.743356E+8	-1.530069E-10	NaN
1029	1.000000	0.466228	7.37512e+06	-51589.1	1055.82	-29751.7	0.000000	0.000000	6.466941	-0.076624	NaN	0.000000	0.001585	0.001552	28.083	0.102363	0.002058	49.7429	165.687	-161.722	-0.071247	0.464934	-0.614678	-0.615972	-0.076624	49.7429	-0.613523	-1.278118E+8	5.995066E-10	NaN
1029	1.000000	0.474215	7.37512e+06	-51589.1	1055.82	-29751.7	0.000000	0.000000	6.474931	-0.000211	NaN	0.000000	0.001575	0.001572	28.0829	0.034111	0.001986	17.1715	-81.6159	-165.128	0.077005	0.472930	-0.606692	-0.607976	-0.000211	17.1715	-0.606682	-1.029111E+8	2.050403E-12	NaN
1029	1.000000	0.482248	7.37512e+06	-51589.1	1055.82	-29751.7	0.000000	0.000000	6.482964	-0.005064	NaN	0.000000	0.001592	0.001596	28.0831	0.133557	0.002000	66.7765	160.554	-164.036	-0.024624	0.480937	-0.598658	-0.599970	-0.005064	66.7765	-0.598601	-7.965218E+7	6.357783E-11	NaN
1029	1.000000	0.490233	7.37512e+06	-51589.1	1055.82	-29751.7	0.000000	0.000000	6.490948	-0.038360	NaN	0.000000	0.001579	0.001597	28.0827	0.007815	0.001987	3.933646	134.896	-164.684	-0.117553	0.488923	-0.590673	-0.591984	-0.038360	3.933646	-0.583359	-4.910020E+7	7.812534E-10	NaN
1029	1.000000	0.498208	7.37512e+06	-51589.1	1055.82	-29751.7	0.000000	0.000000	6.498925	0.015616	NaN	0.000000	0.001574	0.001599	28.0827	0.085278	0.001915	44.5406	-132.136	-162.869	0.016053	0.496923	-0.582698	-0.583983	0.015616	44.5406	-0.582961	-4.848297E+7	-3.220961E-10	NaN
1029	1.000000	0.506233	7.37512e+06	-51589.1	1055.82	-29751.7	0.000000	0.000000	6.506948	-0.013263	NaN	0.000000	0.001604	0.001594	28.0831	0.067746	0.001959	34.5765	-87.0998	-165.977	-0.057556	0.504921	-0.574674	-0.575985	-0.013263	34.5765	-0.574386	-3.691635E+7	3.592588E-10	NaN
1029	1.000000	0.514212	7.37512e+06	-51589.1	1055.82	-29751.7	0.000000	0.000000	6.514924	-0.089496	NaN	0.000000	0.001603	0.001609	28.0827	0.100012	0.001857	53.8553	139.433	-167.265	-0.130034	0.512892	-0.566694	-0.568014	-0.089496	53.8553	-0.565448	-2.777910E+7	3.221694E-9	NaN
1029	1.000000	0.522240	7.37512e+06	-51589.1	1055.82	-29751.7	0.000000	0.000000	6.522954	-0.043758	NaN	0.000000	0.001586	0.001624	28.083	0.039865	0.002202	18.1021	-117.791	-163.641	-0.030943	0.520947	-0.558666	-0.559959	-0.043758	18.1021	-0.556853	-2.112712E+7	2.071172E-9	NaN
1029	1.000000	0.530212	7.37512e+06	-51589.1	1055.82	-29751.7	0.000000	0.000000	6.530928	0.000587	NaN	0.000000	0.001591	0.001656	28.0828	0.140385	0.002052	68.4184	115.078	-163.575	0.003780	0.528944	-0.550695	-0.551962	0.000587	68.4184	-0.550701	-1.736462E+7	-3.380872E-11	NaN
1029	1.000000	0.538244	7.37512e+06	-51589.1	1055.82	-29751.7	0.000000	0.000000	6.538958	-0.039099	NaN	0.000000	0.001599	0.001588	28.083	0.063859	0.001855	34.4305	-16.3191	-163.821	-0.070021	0.536935	-0.542663	-0.543971	-0.039099	34.4305	-0.541811	-1.307585E+7	2.990189E-9	NaN
1029	1.000000	0.546291	7.37512e+06	-51589.1	1055.82	-29751.7	0.000000	0.000000	6.547001	-0.155634	NaN	0.000000	0.001650	0.001602	28.0829	0.110777	0.002096	52.8406	-35.1752	-161.581	-0.113280	0.544925	-0.534615	-0.535981	-0.155634	52.8406	-0.532406	-9.68238e+06	1.607398E-8	NaN
1029	1.000000	0.554221	7.37512e+06	-51589.1	1055.82	-29751.7	0.000000	0.000000	6.554937	-0.026119	NaN	0.000000	0.001619	0.001623	28.0827	0.117190	0.002001	58.5626	-160.669	-163.028	0.034118	0.552945	-0.526685	-0.527961	-0.026119	58.5626	-0.526350	-7.97765e+06	3.274050E-9	NaN
1029	1.000000	0.562257	7.37512e+06	-51589.1	1055.82	-29751.7	0.000000	0.000000	6.562973	-0.008875	NaN	0.000000	0.001588	0.001625	28.0816	0.074383	0.002078	35.7982	-157.449	-164.376	-0.005702	0.560947	-0.518649	-0.519959	-0.008875	35.7982	-0.518463	-6.19762e+06	1.432004E-9	NaN
1029	1.000000	0.570239	7.37512e+06	-51589.1	1055.82	-29751.7	0.000000	0.000000	6.570951	-0.103092	NaN	0.000000	0.001620	0.001641	28.0815	0.046066	0.002090	22.0427	-32.8099	-165.561	-0.066588	0.568894	-0.510667	-0.512012	-0.103092	22.0427	-0.507159	-4.31361e+06	2.389915E-8	NaN
1029	1.000000	0.578265	7.37512e+06	-51589.1	1055.82	-29751.7	0.000000	0.000000	6.578979	-0.061702	NaN	0.000000	0.001571	0.001578	28.0818	0.025991	0.002080	12.4944	124.828	-165.365	-0.091844	0.576947	-0.502641	-0.503959	-0.061702	12.4944	-0.498937	-3.31279e+06	1.862540E-8	NaN
1029	1.000000	0.586256	7.37512e+06	-51589.1	1055.82	-29751.7	0.000000	0.000000	6.586973	0.009463	NaN	0.000000	0.001567	0.001561	28.0817	0.102095	0.002026	50.394	134.117	-166.822	-0.038536	0.584986	-0.494650	-0.495920	0.009463	50.394	-0.494791	-2.89943e+06	-3.263629E-9	NaN
1029	1.000000	0.594255	7.37512e+06	-51589.1	1055.82	-29751.7	0.000000	0.000000	6.594970	-0.012926	NaN	0.000000	0.001595	0.001611	28.0815	0.043618	0.002074	21.0288	-83.0854	-164.383	0.020992	0.593012	-0.486652	-0.487895	-0.012926	21.0288	-0.486191	-2.19858e+06	5.879038E-9	NaN
1029	1.000000	0.602268	7.37512e+06	-51589.1	1055.82	-29751.7	0.000000	0.000000	6.602981	-0.064660	NaN	0.000000	0.001555	0.001609	28.0813	0.140942	0.001967	71.6556	-152.083	-164.786	0.024672	0.600927	-0.478638	-0.479979	-0.064660	71.6556	-0.477962	-1.6865e+06	3.833960E-8	NaN
1029	1.000000	0.610274	7.37512e+06	-51589.1	1055.82	-29751.7	0.000000	0.000000	6.610987	-0.073650	NaN	0.000000	0.001561	0.001584	28.0817	0.080172	0.001773	45.2242	-38.7334	-165.77	0.023904	0.608953	-0.470633	-0.471953	-0.073650	45.2242	-0.469411	-1.27982e+06	5.754698E-8	NaN
1029	1.000000	0.618238	7.37512e+06	-51589.1	1055.82	-29751.7	0.000000	0.000000	6.618953	-0.026261	NaN	0.000000	0.001595	0.001593	28.0818	0.079012	0.002012	39.2721	161.964	-165.099	-0.019640	0.616950	-0.462668	-0.463956	-0.026261	39.2721	-0.462166	-1.01264e+06	2.593365E-8	NaN
1029	1.000000	0.626272	7.37512e+06	-51589.1	1055.82	-29751.7	0.000000	0.000000	6.626986	-0.050209	NaN	0.000000	0.001618	0.001565	28.0813	0.116755	0.002072	56.3404	101.694	-165.717	-0.102036	0.624947	-0.454634	-0.455959	-0.050209	56.3404	-0.453966	-776548	6.465704E-8	NaN
1029	1.000000	0.634284	7.37512e+06	-51589.1	1055.82	-29751.7	0.000000	0.000000	6.634998	-0.059389	NaN	0.000000	0.001650	0.001561	28.0814	0.026231	0.002055	12.7619	-118.374	-167.315	-0.009895	0.632921	-0.446622	-0.447985	-0.059389	12.7619	-0.443132	-546447	1.086825E-7	NaN
1029	1.000000	0.642281	7.37512e+06	-51589.1	1055.82	-29751.7	0.000000	0.000000	6.642995	-0.043777	NaN	0.000000	0.001636	0.001549	28.0814	0.031374	0.001934	16.2199	-118.477	-162.665	-0.120356	0.640937	-0.438625	-0.439969	-0.043777	16.2199	-0.436601	-441947	9.905541E-8	NaN
1029	1.000000	0.650275	7.37512e+06	-51589.1	1055.82	-29751.7	0.000000	0.000000	6.650989	-0.048221	NaN	0.000000	0.001633	0.001556	28.0815	0.033047	0.001966	16.8093	-147.588	-160.831	-0.084887	0.648931	-0.430631	-0.431975	-0.048221	16.8093	-0.428480	-339276	1.421296E-7	NaN
1029	1.000000	0.658300	7.37512e+06	-51589.1	1055.82	-29751.7	0.000000	0.000000	6.659015	-0.013253	NaN	0.000000	0.001608	0.001556	28.0814	0.047093	0.001886	24.9759	68.9744	-165.559	0.001694	0.656952	-0.422606	-0.423954	-0.013253	24.9759	-0.422208	-276520	4.792907E-8	NaN
1029	1.000000	0.666292	7.37512e+06	-51589.1	1055.82	-29751.7	0.000000	0.000000	6.667007	-0.041813	NaN	0.000000	0.001627	0.001546	28.0814	0.035085	0.001936	18.118	-115.14	-162.217	-0.102589	0.664998	-0.414614	-0.415908	-0.041813	18.118	-0.412883	-203885	2.050807E-7	NaN
1029	1.000000	0.674314	7.37512e+06	-51589.1	1055.82	-29751.7	0.000000	0.000000	6.675032	0.048006	NaN	0.000000	0.001636	0.001588	28.0817	0.095657	0.001948	49.1143	-160.828	-163.999	0.025182	0.673010	-0.406593	-0.407896	0.048006	49.1143	-0.407326	-169963	-2.824504E-7	NaN
1029	1.000000	0.682316	7.37512e+06	-51589.1	1055.82	-29751.7	0.000000	0.000000	6.683033	0.020647	NaN	0.000000	0.001598	0.001553	28.0814	0.101340	0.002167	46.7572	18.7866	-163.224	0.039326	0.681021	-0.398590	-0.399885	0.020647	46.7572	-0.398921	-129004	-1.600456E-7	NaN
1029	1.000000	0.690311	7.37512e+06	-51589.1	1055.82	-29751.7	0.000000	0.000000	6.691025	-0.037673	NaN	0.000000	0.001617	0.001580	28.0813	0.027348	0.001918	14.2598	94.8451	-163.901	-0.080436	0.688974	-0.390596	-0.391932	-0.037673	14.2598	-0.388614	-91905.2	4.099097E-7	NaN
1029	1.000000	0.698293	7.37512e+06	-51589.1	1055.82	-29751.7	0.000000	0.000000	6.699008	-0.019281	NaN	0.000000	0.001636	0.001556	28.0826	0.059345	0.001945	30.51	-39.4079	-161.458	-0.086852	0.696982	-0.382613	-0.383924	-0.019281	30.51	-0.382139	-74230.1	2.597441E-7	NaN
1029	1.000000	0.706320	7.37512e+06	-51589.1	1055.82	-29751.7	0.000000	0.000000	6.707035	-0.026520	NaN	0.000000	0.001632	0.001605	28.0826	0.035699	0.002130	16.7622	-102.113	-161.228	0.021618	0.704970	-0.374586	-0.375936	-0.026520	16.7622	-0.373400	-55597.6	4.770017E-7	NaN
1029	1.000000	0.714330	7.37512e+06	-51589.1	1055.82	-29751.7	0.000000	0.000000	6.715047	0.010521	NaN	0.000000	0.001598	0.001614	28.0828	0.008681	0.002089	4.156084	-32.5605	-165.187	-0.060694	0.713055	-0.366576	-0.367851	0.010521	4.156084	-0.368475	-47223.5	-2.227945E-7	NaN
1029	1.000000	0.722297	7.37512e+06	-51589.1	1055.82	-29751.7	0.000000	0.000000	6.723011	-0.038009	NaN	0.000000	0.001620	0.001622	28.0825	0.025255	0.001996	12.6554	-87.9082	-160.72	-0.041659	0.720942	-0.358610	-0.359964	-0.038009	12.6554	-0.356357	-31560.8	1.204298E-6	NaN
1029	1.000000	0.730315	7.37512e+06	-51589.1	1055.82	-29751.7	0.000000	0.000000	6.731030	-0.019434	NaN	0.000000	0.001623	0.001622	28.0828	0.056708	0.001986	28.5572	-49.0754	-163.995	0.067113	0.729047	-0.350591	-0.351859	-0.019434	28.5572	-0.350081	-25596.3	7.592587E-7	NaN
1029	1.000000	0.738321	7.37512e+06	-51589.1	1055.82	-29751.7	0.000000	0.000000	6.739036	-0.027990	NaN	0.000000	0.001602	0.001605	28.0826	0.078349	0.002046	38.3003	92.7973	-164.657	0.009372	0.737008	-0.342586	-0.343898	-0.027990	38.3003	-0.342037	-19554.2	1.431402E-6	NaN
1029	1.000000	0.746351	7.37512e+06	-51589.1	1055.82	-29751.7	0.000000	0.000000	6.747067	0.008589	NaN	0.000000	0.001562	0.001606	28.0826	0.018499	0.001934	9.565705	-176.711	-166.332	-0.023083	0.745053	-0.334556	-0.335853	0.008589	9.565705	-0.335229	-15557.3	-5.520987E-7	NaN
1029	1.000000	0.754348	7.37512e+06	-51589.1	1055.82	-29751.7	0.000000	0.000000	6.755061	-0.080109	NaN	0.000000	0.001553	0.001598	28.0829	0.023762	0.001993	11.921	-63.0907	-164.393	-0.027458	0.753001	-0.326558	-0.327905	-0.080109	11.921	-0.321518	-9794.35	8.179141E-6	NaN
1029	1.000000	0.762360	7.37512e+06	-51589.1	1055.82	-29751.7	0.000000	0.000000	6.763078	0.045794	NaN	0.000000	0.001584	0.001568	28.0825	0.029975	0.001952	15.3576	139.97	-161.477	0.033249	0.760995	-0.318546	-0.319912	0.045794	15.3576	-0.320782	-9553.24	-4.793570E-6	NaN
1029	1.000000	0.770326	7.37512e+06	-51589.1	1055.82	-29751.7	0.000000	0.000000	6.771039	-0.087334	NaN	0.000000	0.001526	0.001572	28.0829	0.125184	0.001897	65.9864	-62.5861	-163.747	-0.030972	0.769081	-0.310580	-0.311825	-0.087334	65.9864	-0.309588	-6530.59	1.337308E-5	NaN
1029	1.000000	0.778336	7.37512e+06	-51589.1	1055.82	-29751.7	0.000000	0.000000	6.779052	-0.009468	NaN	0.000000	0.001557	0.001571	28.0827	0.132346	0.002002	66.1174	-59.1332	-161.483	0.030117	0.777032	-0.302570	-0.303874	-0.009468	66.1174	-0.302462	-5119.95	1.849162E-6	NaN
1029	1.000000	0.786329	7.37512e+06	-51589.1	1055.82	-29751.7	0.000000	0.000000	6.787044	-0.009614	NaN	0.000000	0.001567	0.001532	28.0827	0.124303	0.001820	68.2933	-65.1409	-164.274	-0.004322	0.785034	-0.294578	-0.295872	-0.009614	68.2933	-0.294472	-3892.26	2.470039E-6	NaN
1029	1.000000	0.794335	7.37512e+06	-51589.1	1055.82	-29751.7	0.000000	0.000000	6.795050	-0.016272	NaN	0.000000	0.001567	0.001559	28.0828	0.078166	0.002008	38.9247	158.109	-157.173	-0.106733	0.793002	-0.286572	-0.287904	-0.016272	38.9247	-0.286258	-2932.05	5.549620E-6	NaN
1029	1.000000	0.802334	7.37512e+06	-51589.1	1055.82	-29751.7	0.000000	0.000000	6.803047	-0.065824	NaN	0.000000	0.001535	0.001559	28.0826	0.104217	0.002108	49.4459	-130.606	-167.609	-0.055311	0.801022	-0.278572	-0.279885	-0.065824	49.4459	-0.277574	-2169.4	3.034224E-5	NaN
1029	1.000000	0.810365	7.37512e+06	-51589.1	1055.82	-29751.7	0.000000	0.000000	6.811080	-0.017549	NaN	0.000000	0.001577	0.001570	28.0829	0.038712	0.002097	18.4629	103.296	-166.401	0.002345	0.809026	-0.270541	-0.271880	-0.017549	18.4629	-0.269828	-1655.52	1.060031E-5	NaN
1029	1.000000	0.818354	7.37512e+06	-51589.1	1055.82	-29751.7	0.000000	0.000000	6.819065	-0.125893	NaN	0.000000	0.001545	0.001649	28.0826	0.084997	0.001885	45.0881	-83.8304	-164.058	-0.084804	0.817103	-0.262552	-0.263804	-0.125893	45.0881	-0.260458	-1191.06	0.000106	NaN
1029	1.000000	0.826355	7.37512e+06	-51589.1	1055.82	-29751.7	0.000000	0.000000	6.827067	-0.121031	NaN	0.000000	0.001560	0.001538	28.0827	0.101135	0.002098	48.1994	128.278	-163.501	-0.167674	0.825045	-0.254551	-0.255862	-0.121031	48.1994	-0.252668	-904.007	0.000134	NaN
1029	1.000000	0.834357	7.37512e+06	-51589.1	1055.82	-29751.7	0.000000	0.000000	6.835071	-0.061939	NaN	0.000000	0.001542	0.001545	28.0813	0.075969	0.001994	38.0976	-169.139	-164.464	-0.110793	0.833038	-0.246549	-0.247868	-0.061939	38.0976	-0.245330	-695.946	8.899982E-5	NaN
1029	1.000000	0.842390	7.37512e+06	-51589.1	1055.82	-29751.7	0.000000	0.000000	6.843105	-0.030313	NaN	0.000000	0.001579	0.001560	28.0813	0.021330	0.001970	10.8292	-93.6087	-160.962	-0.034888	0.841010	-0.238516	-0.239896	-0.030313	10.8292	-0.236417	-505.215	5.999931E-5	NaN
1029	1.000000	0.850347	7.37512e+06	-51589.1	1055.82	-29751.7	0.000000	0.000000	6.851061	-0.066196	NaN	0.000000	0.001532	0.001556	28.0815	0.084868	0.002090	40.6069	173.61	-164.597	-0.076189	0.849043	-0.230559	-0.231863	-0.066196	40.6069	-0.229336	-390.873	0.000169	NaN
1029	1.000000	0.858360	7.37512e+06	-51589.1	1055.82	-29751.7	0.000000	0.000000	6.859075	-0.040284	NaN	0.000000	0.001553	0.001575	28.0814	0.162446	0.001968	82.536	128.722	-168.575	-0.060978	0.857042	-0.222546	-0.223864	-0.040284	82.536	-0.222180	-300.933	0.000134	NaN
1029	1.000000	0.866359	7.37512e+06	-51589.1	1055.82	-29751.7	0.000000	0.000000	6.867073	-0.054687	NaN	0.000000	0.001579	0.001552	28.0823	0.046902	0.002104	22.2895	179.836	-165.93	-0.046659	0.865027	-0.214547	-0.215879	-0.054687	22.2895	-0.212707	-212.114	0.000258	NaN
1029	1.000000	0.874403	7.37512e+06	-51589.1	1055.82	-29751.7	0.000000	0.000000	6.875117	-0.052010	NaN	0.000000	0.001549	0.001545	28.0815	0.055709	0.002000	27.859	-84.4672	-161.794	-0.072226	0.873057	-0.206503	-0.207849	-0.052010	27.859	-0.205103	-159.677	0.000326	NaN
1029	1.000000	0.882392	7.37512e+06	-51589.1	1055.82	-29751.7	0.000000	0.000000	6.883106	-0.056202	NaN	0.000000	0.001581	0.001556	28.0815	0.045623	0.001950	23.3915	-9.268176	-164.701	-0.103819	0.881094	-0.198514	-0.199812	-0.056202	23.3915	-0.196712	-116.284	0.000483	NaN
1029	1.000000	0.890377	7.37512e+06	-51589.1	1055.82	-29751.7	0.000000	0.000000	6.891089	-0.089618	NaN	0.000000	0.001554	0.001571	28.0813	0.058696	0.001978	29.6786	-109.497	-167.347	-0.100606	0.889037	-0.190529	-0.191869	-0.089618	29.6786	-0.188265	-84.1387	0.001065	NaN
1029	1.000000	0.898383	7.37512e+06	-51589.1	1055.82	-29751.7	0.000000	0.000000	6.899098	-0.031608	NaN	0.000000	0.001597	0.001540	28.0815	0.022134	0.002132	10.3833	-154.772	-164.076	-0.055223	0.897122	-0.182524	-0.183784	-0.031608	10.3833	-0.180240	-61.5967	0.000513	NaN
1029	1.000000	0.906377	7.37512e+06	-51589.1	1055.82	-29751.7	0.000000	0.000000	6.907090	-0.094087	NaN	0.000000	0.001566	0.001542	28.0815	0.084895	0.001983	42.8057	-161.914	-163.972	-0.079798	0.905027	-0.174529	-0.175879	-0.094087	42.8057	-0.172880	-46.0761	0.002042	NaN
1029	1.000000	0.914368	7.37512e+06	-51589.1	1055.82	-29751.7	0.000000	0.000000	6.915082	-0.054641	NaN	0.000000	0.001580	0.001578	28.0813	0.036441	0.002020	18.0413	96.422	-163.834	-0.040151	0.913056	-0.166538	-0.167850	-0.054641	18.0413	-0.164267	-32.6148	0.001675	NaN
1029	1.000000	0.922414	7.37512e+06	-51589.1	1055.82	-29751.7	0.000000	0.000000	6.923125	-0.117199	NaN	0.000000	0.001571	0.001623	28.0818	0.064746	0.001990	32.5405	142.906	-167.526	-0.063835	0.921117	-0.158492	-0.159790	-0.117199	32.5405	-0.155791	-23.057	0.005083	NaN
1029	1.000000	0.930401	7.37512e+06	-51589.1	1055.82	-29751.7	0.000000	0.000000	6.931115	-0.041587	NaN	0.000000	0.001584	0.001577	28.0818	0.058221	0.002063	28.2168	-57.6482	-164.28	-0.025412	0.929097	-0.150505	-0.151810	-0.041587	28.2168	-0.149400	-17.6624	0.002355	NaN
1029	1.000000	0.938396	7.37512e+06	-51589.1	1055.82	-29751.7	0.000000	0.000000	6.939110	-0.048364	NaN	0.000000	0.001589	0.001559	28.0816	0.034422	0.002000	17.2127	-4.106765	-167.503	-0.050936	0.937075	-0.142511	-0.143831	-0.048364	17.2127	-0.140403	-12.0375	0.004018	NaN
1029	1.000000	0.946411	7.37512e+06	-51589.1	1055.82	-29751.7	0.000000	0.000000	6.947127	-0.010987	NaN	0.000000	0.001529	0.001573	28.0817	0.029053	0.002073	14.0141	77.5358	-161.908	-0.051792	0.945114	-0.134495	-0.135793	-0.010987	14.0141	-0.133907	-9.065422	0.001212	NaN
1029	1.000000	0.954414	7.37512e+06	-51589.1	1055.82	-29751.7	0.000000	0.000000	6.955126	-0.096014	NaN	0.000000	0.001538	0.001597	28.0816	0.075664	0.002008	37.6766	120.666	-166.88	-0.080040	0.953089	-0.126493	-0.127817	-0.096014	37.6766	-0.124581	-5.966243	0.016093	NaN
1029	1.000000	0.962404	7.37512e+06	-51589.1	1055.82	-29751.7	0.000000	0.000000	6.963118	-0.067967	NaN	0.000000	0.001535	0.001603	28.0819	0.088932	0.002037	43.665	175.635	-163.191	-0.112095	0.961081	-0.118502	-0.119825	-0.067967	43.665	-0.117335	-4.265703	0.015933	NaN
1029	1.000000	0.970434	7.37512e+06	-51589.1	1055.82	-29751.7	0.000000	0.000000	6.971149	-0.039998	NaN	0.000000	0.001563	0.001629	28.0827	0.040213	0.001961	20.5023	-20.9465	-162.452	-0.078445	0.969119	-0.110472	-0.111787	-0.039998	20.5023	-0.109009	-2.863684	0.013967	NaN
1029	1.000000	0.978426	7.37512e+06	-51589.1	1055.82	-29751.7	0.000000	0.000000	6.979143	0.008902	NaN	0.000000	0.001543	0.001595	28.0828	0.055933	0.002083	26.854	-37.799	-163.256	0.033765	0.977155	-0.102480	-0.103751	0.008902	26.854	-0.102728	-2.098078	-0.004243	NaN
1029	1.000000	0.986423	7.37512e+06	-51589.1	1055.82	-29751.7	0.000000	0.000000	6.987137	-0.034490	NaN	0.000000	0.001566	0.001605	28.0831	0.055311	0.002095	26.3969	166.152	-164.246	0.050729	0.985140	-0.094483	-0.095766	-0.034490	26.3969	-0.093504	-1.303677	0.026456	NaN
1029	1.000000	0.994420	7.37512e+06	-51589.1	1055.82	-29751.7	0.000000	0.000000	6.995134	-0.042472	NaN	0.000000	0.001515	0.001612	28.0829	0.041182	0.002041	20.1802	-107.894	-162.893	-0.148031	0.993094	-0.086487	-0.087813	-0.042472	20.1802	-0.084908	-0.817442	0.051957	NaN
1029	1.000000	1.002443	7.37512e+06	-51589.1	1055.82	-29751.7	0.000000	0.000000	7.003157	-0.064284	NaN	0.000000	0.001552	0.001613	28.0835	0.023949	0.001885	12.7057	127.053	-166.762	-0.086590	1.001138	-0.078463	-0.079769	-0.064284	12.7057	-0.074668	-0.452822	0.141963	NaN
1029	1.000000	1.010417	7.37512e+06	-51589.1	1055.82	-29751.7	0.000000	0.000000	7.011134	0.011150	NaN	0.000000	0.001578	0.001608	28.0828	0.031784	0.001981	16.045	-1.964030	-164.796	-0.100399	1.009128	-0.070489	-0.071778	0.011150	16.045	-0.071010	-0.362962	-0.030719	NaN
1029	1.000000	1.018427	7.37512e+06	-51589.1	1055.82	-29751.7	0.000000	0.000000	7.019145	0.044673	NaN	0.000000	0.001568	0.001620	28.0829	0.100520	0.001971	50.9987	52.0014	-167.062	-0.059310	1.017119	-0.062480	-0.063787	0.044673	50.9987	-0.063137	-0.221082	-0.202065	NaN
1029	1.000000	1.026443	7.37512e+06	-51589.1	1055.82	-29751.7	0.000000	0.000000	7.027156	-0.087722	NaN	0.000000	0.001549	0.001580	28.0829	0.090916	0.002032	44.7391	-27.4848	-166.655	-0.025488	1.025110	-0.054463	-0.055796	-0.087722	44.7391	-0.052993	-0.112253	0.781468	NaN
1029	1.000000	1.034459	7.37512e+06	-51589.1	1055.82	-29751.7	0.000000	0.000000	7.035172	-0.079975	NaN	0.000000	0.001565	0.001598	28.0828	0.070214	0.001896	37.0405	-76.9937	-166.918	-0.015630	1.033145	-0.046447	-0.047761	-0.079975	37.0405	-0.044828	-0.063494	1.259558	NaN
1029	1.000000	1.042443	7.37512e+06	-51589.1	1055.82	-29751.7	0.000000	0.000000	7.043158	-0.038649	NaN	0.000000	0.001552	0.001618	28.0831	0.035056	0.001985	17.6643	-127.19	-165.385	0.039881	1.041153	-0.038463	-0.039753	-0.038649	17.6643	-0.036822	-0.036270	1.065580	NaN
1029	1.000000	1.050447	7.37512e+06	-51589.1	1055.82	-29751.7	0.000000	0.000000	7.051163	0.003017	NaN	0.000000	0.001516	0.001602	28.0826	0.041626	0.001927	21.6029	-159.341	-165.673	-0.120628	1.049219	-0.030459	-0.031687	0.003017	21.6029	-0.030564	-0.023864	-0.126429	NaN
1029	1.000000	1.058434	7.37512e+06	-51589.1	1055.82	-29751.7	0.000000	0.000000	7.059150	0.000457	NaN	0.000000	0.001543	0.001659	28.0833	0.031080	0.002014	15.4292	94.9686	-163.748	-0.011844	1.057172	-0.022472	-0.023735	0.000457	15.4292	-0.022495	-0.014537	-0.031460	NaN
1029	1.000000	1.066448	7.37512e+06	-51589.1	1055.82	-29751.7	0.000000	0.000000	7.067163	-0.044264	NaN	0.000000	0.001557	0.001607	28.083	0.016685	0.001852	9.008243	-76.8821	-165.786	0.057319	1.065167	-0.014458	-0.015739	-0.044264	9.008243	-0.010773	-0.006828	6.482253	NaN
1029	1.000000	1.074448	7.37512e+06	-51589.1	1055.82	-29751.7	0.000000	0.000000	7.075164	0.005975	NaN	0.000000	0.001579	0.001603	28.0828	0.107931	0.002094	51.5407	-67.0465	-166.492	0.000765	1.073138	-0.006458	-0.007768	0.005975	51.5407	-0.006545	-0.004368	-1.368057	NaN
1029	1.000000	1.082406	7.37512e+06	-51589.1	1055.82	-29751.7	0.000000	0.000000	7.083396	6.651693	NaN	0.000000	0.001561	0.001589	28.0831	7.046815	0.001837	3836.68	10.996	-169.2	4.272017	1.081079	0.001500	0.000173	6.651693	3836.68	0.000200	0.000150	44441.8	286522
1029	2.000000	1.085990	7.37512e+06	-51589.1	1055.82	-29751.7	0.000000	0.000000	7.087163	11.128	NaN	0.000000	0.001565	0.001590	28.0828	10.5107	0.001581	6647.3	7.129151	-171.844	11.2094	1.085701	0.005083	0.004795	11.128	6647.3	0.003828	0.003089	3602.93	109279
1029	2.000000	1.087948	7.37512e+06	-51589.1	1055.82	-29751.7	0.000000	0.000000	7.089258	14.4428	NaN	0.000000	0.001540	0.001596	28.0836	13.1873	0.001719	7672.8	6.774715	-173.25	13.1391	1.087621	0.007042	0.006715	14.4428	7672.8	0.005630	0.004715	3062.85	102085
1029	2.000000	1.089956	7.37512e+06	-51589.1	1055.82	-29751.7	0.000000	0.000000	7.091445	18.7868	NaN	0.000000	0.001536	0.001584	28.0816	15.0742	0.001593	9464.06	1.762938	-169.983	17.5322	1.089599	0.009050	0.008693	18.7868	9464.06	0.007561	0.006595	2848.86	106478
1029	2.000000	1.091901	7.37512e+06	-51589.1	1055.82	-29751.7	0.000000	0.000000	7.093482	21.0416	NaN	0.000000	0.001545	0.001583	28.0817	17.1247	0.001755	9756.42	4.975764	-173.839	19.4655	1.091607	0.010995	0.010701	21.0416	9756.42	0.009377	0.008497	2476.23	96698.7
1029	2.000000	1.093936	7.37512e+06	-51589.1	1055.82	-29751.7	0.000000	0.000000	7.095694	25.3306	NaN	0.000000	0.001567	0.001605	28.0816	20.3556	0.001895	10739.7	6.088154	-175.349	24.8678	1.093606	0.013030	0.012700	25.3306	10739.7	0.011261	0.010617	2385.86	95228.3
1029	2.000000	1.095921	7.37512e+06	-51589.1	1055.82	-29751.7	0.000000	0.000000	7.097808	28.4726	NaN	0.000000	0.001554	0.001516	28.0815	21.7282	0.001804	12043.3	10.5759	179.161	29.377	1.095642	0.015015	0.014736	28.4726	12043.3	0.013242	0.013012	2188.22	96461
1029	2.000000	1.097977	7.37512e+06	-51589.1	1055.82	-29751.7	0.000000	0.000000	7.100009	32.0007	NaN	0.000000	0.001578	0.001588	28.082	23.8874	0.001809	13207.8	7.450345	-176.924	33.4171	1.097580	0.017071	0.016674	32.0007	13207.8	0.015254	0.015625	2047.99	96536
1029	2.000000	1.099960	7.37512e+06	-51589.1	1055.82	-29751.7	0.000000	0.000000	7.102237	37.9557	NaN	0.000000	0.001565	0.001556	28.0817	25.4368	0.001923	13230.6	10.1056	179.758	37.7874	1.099587	0.019054	0.018680	37.9557	13230.6	0.016902	0.017907	2119.66	90332.9
1029	2.000000	1.101909	7.37512e+06	-51589.1	1055.82	-29751.7	0.000000	0.000000	7.104446	44.276	NaN	0.000000	0.001571	0.001581	28.0817	27.216	0.001780	15288.2	7.718774	179.336	43.6094	1.101594	0.021003	0.020688	44.276	15288.2	0.018831	0.020738	2134.98	96993.6
1029	2.000000	1.103857	7.37512e+06	-51589.1	1055.82	-29751.7	0.000000	0.000000	7.106514	47.1961	NaN	0.000000	0.001583	0.001589	28.0817	28.3463	0.001701	16668.5	1.219468	-175.323	45.1618	1.103626	0.022951	0.022720	47.1961	16668.5	0.020827	0.023858	1978.17	98593.3
1029	2.000000	1.105896	7.37512e+06	-51589.1	1055.82	-29751.7	0.000000	0.000000	7.108829	53.904	NaN	0.000000	0.001570	0.001557	28.0815	30.4992	0.001796	16983.1	4.538951	-178.195	53.8079	1.105576	0.024990	0.024670	53.904	16983.1	0.022610	0.026810	2010.57	94763.3
1029	2.000000	1.107881	7.37512e+06	-51589.1	1055.82	-29751.7	0.000000	0.000000	7.111142	61.8754	NaN	0.000000	0.001570	0.001548	28.0823	33.0768	0.001844	17935.6	2.900394	-177.181	61.0207	1.107514	0.026975	0.026608	61.8754	17935.6	0.024387	0.029910	2068.71	94750.1
1029	2.000000	1.109887	7.37512e+06	-51589.1	1055.82	-29751.7	0.000000	0.000000	7.113368	67.2357	NaN	0.000000	0.001571	0.001559	28.0814	35.6929	0.001880	18987.1	9.733823	176.044	66.2995	1.109549	0.028981	0.028643	67.2357	18987.1	0.026325	0.033471	2008.8	94820.2
1029	2.000000	1.111834	7.37512e+06	-51589.1	1055.82	-29751.7	0.000000	0.000000	7.115671	75.8927	NaN	0.000000	0.001551	0.001566	28.0818	36.3597	0.001700	21385.4	2.910367	-179.367	72.2286	1.111539	0.030927	0.030633	75.8927	21385.4	0.028266	0.037226	2038.71	101267
1029	2.000000	1.113876	7.37512e+06	-51589.1	1055.82	-29751.7	0.000000	0.000000	7.117852	79.2733	NaN	0.000000	0.001546	0.001560	28.0817	39.5012	0.001831	21572.9	4.692674	178.354	77.849	1.113629	0.032970	0.032723	79.2733	21572.9	0.030214	0.041188	1924.66	97117.1
1029	2.000000	1.115864	7.37512e+06	-51589.1	1055.82	-29751.7	0.000000	0.000000	7.120334	91.2749	NaN	0.000000	0.001510	0.001593	28.0816	39.9104	0.001775	22490.2	3.317656	-179.958	88.3029	1.115505	0.034958	0.034599	91.2749	22490.2	0.031914	0.044805	2037.17	97074.3
1029	2.000000	1.117857	7.37512e+06	-51589.1	1055.82	-29751.7	0.000000	0.000000	7.122480	94.9949	NaN	0.000000	0.001564	0.001582	28.082	42.1062	0.001766	23842.8	-1.983855	-175.692	92.6318	1.117564	0.036951	0.036657	94.9949	23842.8	0.033963	0.049358	1924.61	98051
1029	2.000000	1.119918	7.37512e+06	-51589.1	1055.82	-29751.7	0.000000	0.000000	7.124942	104.755	NaN	0.000000	0.001544	0.001627	28.0815	44.8248	0.001902	23561.7	5.992796	177.762	103.19	1.119510	0.039012	0.038604	104.755	23561.7	0.035677	0.053335	1964.11	93212.5
1029	2.000000	1.121863	7.37512e+06	-51589.1	1055.82	-29751.7	0.000000	0.000000	7.127167	111.561	NaN	0.000000	0.001570	0.001634	28.0817	46.7616	0.001856	25199.7	5.129746	177.206	111.398	1.121596	0.040956	0.040690	111.561	25199.7	0.037636	0.058062	1921.4	95547.9
1029	2.000000	1.123848	7.37512e+06	-51589.1	1055.82	-29751.7	0.000000	0.000000	7.129599	122.409	NaN	0.000000	0.001602	0.001630	28.0827	48.7462	0.001858	26237.3	6.859081	175.41	119.874	1.123556	0.042942	0.042649	122.409	26237.3	0.039443	0.062597	1955.52	95811.2
1029	2.000000	1.125802	7.37512e+06	-51589.1	1055.82	-29751.7	0.000000	0.000000	7.131885	130.487	NaN	0.000000	0.001547	0.001597	28.0828	48.7882	0.001734	28128.6	4.602303	177.141	128.578	1.125554	0.044896	0.044648	130.487	28128.6	0.041417	0.067741	1926.25	98740.2
1029	2.000000	1.127849	7.37512e+06	-51589.1	1055.82	-29751.7	0.000000	0.000000	7.134408	142.089	NaN	0.000000	0.001555	0.001640	28.0832	51.0887	0.001681	30399.5	7.855323	173.17	141.198	1.127507	0.046943	0.046600	142.089	30399.5	0.043437	0.073212	1940.78	102648
1029	2.000000	1.129930	7.37512e+06	-51589.1	1055.82	-29751.7	0.000000	0.000000	7.136925	152.684	NaN	0.000000	0.001543	0.001635	28.0828	52.1033	0.001761	29594.7	1.059440	-179.369	154.593	1.129507	0.049024	0.048601	152.684	29594.7	0.045154	0.078026	1956.84	96798.5
1029	2.000000	1.131787	7.37512e+06	-51589.1	1055.82	-29751.7	0.000000	0.000000	7.139162	161.907	NaN	0.000000	0.001571	0.001627	28.0829	53.8732	0.001704	31620.7	2.874985	177.21	157.812	1.131477	0.050881	0.050571	161.907	31620.7	0.047041	0.083486	1939.34	99985.7
1029	2.000000	1.133837	7.37512e+06	-51589.1	1055.82	-29751.7	0.000000	0.000000	7.141617	171.763	NaN	0.000000	0.001579	0.001617	28.0828	57.3485	0.001924	29805.7	4.910231	175.576	169.988	1.133498	0.052930	0.052592	171.763	29805.7	0.048608	0.088160	1948.3	91714.1
1029	2.000000	1.135844	7.37512e+06	-51589.1	1055.82	-29751.7	0.000000	0.000000	7.144062	182.4	NaN	0.000000	0.001521	0.001629	28.0829	56.9205	0.001702	33450.7	1.463058	178.807	180.944	1.135625	0.054938	0.054719	182.4	33450.7	0.050849	0.095054	1918.91	99127.3
1029	2.000000	1.137823	7.37512e+06	-51589.1	1055.82	-29751.7	0.000000	0.000000	7.146575	195.392	NaN	0.000000	0.001576	0.001630	28.0831	60.1313	0.001737	34610.7	3.675698	175.395	192.227	1.137494	0.056917	0.056588	195.392	34610.7	0.052683	0.100887	1936.74	99555.6
1029	2.000000	1.139856	7.37512e+06	-51589.1	1055.82	-29751.7	0.000000	0.000000	7.148964	204.04	NaN	0.000000	0.001581	0.001608	28.083	63.2615	0.001760	35949.8	7.727184	172.068	202.884	1.139487	0.058950	0.058580	204.04	35949.8	0.054693	0.107470	1898.57	100190
1029	2.000000	1.141808	7.37512e+06	-51589.1	1055.82	-29751.7	0.000000	0.000000	7.151372	215.136	NaN	0.000000	0.001590	0.001610	28.0831	64.334	0.001902	33822.9	4.553627	176.067	212.858	1.141471	0.060902	0.060565	215.136	33822.9	0.056132	0.112303	1915.67	92212.1
1029	2.000000	1.143825	7.37512e+06	-51589.1	1055.82	-29751.7	0.000000	0.000000	7.153905	227.706	NaN	0.000000	0.001554	0.001631	28.0828	65.3956	0.001678	38981.8	1.955328	176.956	225.974	1.143420	0.062918	0.062514	227.706	38981.8	0.058537	0.120616	1887.86	102549
1029	2.000000	1.145846	7.37512e+06	-51589.1	1055.82	-29751.7	0.000000	0.000000	7.156215	234.701	NaN	0.000000	0.001572	0.001618	28.0829	65.4427	0.001608	40693.5	1.011223	176.508	234.568	1.145642	0.064940	0.064736	234.701	40693.5	0.060615	0.128021	1833.3	103910
1029	2.000000	1.147830	7.37512e+06	-51589.1	1055.82	-29751.7	0.000000	0.000000	7.158798	249.28	NaN	0.000000	0.001558	0.001631	28.0834	69.9626	0.001727	40514.8	8.418091	169.856	249.075	1.147477	0.066924	0.066570	249.28	40514.8	0.062309	0.134219	1857.27	101037
1029	2.000000	1.149904	7.37512e+06	-51589.1	1055.82	-29751.7	0.000000	0.000000	7.161543	265.581	NaN	0.000000	0.001558	0.001621	28.0829	71.4897	0.001875	38119.3	1.902828	176.856	266.515	1.149491	0.068998	0.068584	265.581	38119.3	0.063773	0.139684	1901.31	93184.8
1029	2.000000	1.151844	7.37512e+06	-51589.1	1055.82	-29751.7	0.000000	0.000000	7.163909	275.939	NaN	0.000000	0.001570	0.001647	28.0831	73.7184	0.001863	39567.8	3.261628	175.89	277.841	1.151557	0.070938	0.070651	275.939	39567.8	0.065708	0.147068	1876.27	94266.4
1029	2.000000	1.153823	7.37512e+06	-51589.1	1055.82	-29751.7	0.000000	0.000000	7.166672	295.038	NaN	0.000000	0.001617	0.001626	28.0828	75.7758	0.001872	40485.5	5.272398	173.104	292.364	1.153392	0.072916	0.072485	295.038	40485.5	0.067451	0.153873	1917.42	94295.8
1029	2.000000	1.155792	7.37512e+06	-51589.1	1055.82	-29751.7	0.000000	0.000000	7.169054	305.085	NaN	0.000000	0.001635	0.001639	28.0825	76.3256	0.001742	43812.5	5.482287	172.137	303.096	1.155482	0.074885	0.074576	305.085	43812.5	0.069663	0.162719	1874.91	99232
1029	2.000000	1.157798	7.37512e+06	-51589.1	1055.82	-29751.7	0.000000	0.000000	7.171655	319.529	NaN	0.000000	0.001622	0.001636	28.0818	78.1302	0.001807	43232.2	2.004695	175.285	319.143	1.157570	0.076892	0.076664	319.529	43232.2	0.071349	0.169618	1883.81	95905.6
1029	2.000000	1.159827	7.37512e+06	-51589.1	1055.82	-29751.7	0.000000	0.000000	7.174281	334.041	NaN	0.000000	0.001625	0.001639	28.0816	79.9607	0.001792	44610.2	2.111372	174.94	333.811	1.159550	0.078921	0.078644	334.041	44610.2	0.073305	0.177793	1878.82	96660.8
1029	2.000000	1.161790	7.37512e+06	-51589.1	1055.82	-29751.7	0.000000	0.000000	7.177031	353.188	NaN	0.000000	0.001629	0.001623	28.0819	81.2947	0.001780	45680.8	4.071410	173.585	351.09	1.161421	0.080884	0.080515	353.188	45680.8	0.075085	0.185386	1905.15	96932.2
1029	2.000000	1.163826	7.37512e+06	-51589.1	1055.82	-29751.7	0.000000	0.000000	7.179491	363.512	NaN	0.000000	0.001639	0.001607	28.0818	84.7238	0.001775	47723.2	6.961166	169.959	364.759	1.163496	0.082919	0.082590	363.512	47723.2	0.077207	0.194632	1867.69	98831.4
1029	2.000000	1.165774	7.37512e+06	-51589.1	1055.82	-29751.7	0.000000	0.000000	7.182305	384.545	NaN	0.000000	0.001617	0.001620	28.0819	84.7687	0.001750	48430.6	10.6152	167.046	381.732	1.165300	0.084868	0.084394	384.545	48430.6	0.078913	0.202223	1901.58	98396
1029	2.000000	1.167797	7.37512e+06	-51589.1	1055.82	-29751.7	0.000000	0.000000	7.184685	393.24	NaN	0.000000	0.001601	0.001673	28.0816	87.9552	0.001891	46509.2	3.399527	173.418	390.778	1.167536	0.086890	0.086629	393.24	46509.2	0.080549	0.209628	1875.89	92808.4
1029	2.000000	1.169730	7.37512e+06	-51589.1	1055.82	-29751.7	0.000000	0.000000	7.186977	401.951	NaN	0.000000	0.001572	0.001626	28.0816	88.5345	0.001715	51610.3	1.442057	174.138	396.356	1.169451	0.088824	0.088545	401.951	51610.3	0.082983	0.220873	1819.83	100332
1029	2.000000	1.171819	7.37512e+06	-51589.1	1055.82	-29751.7	0.000000	0.000000	7.190036	425.554	NaN	0.000000	0.001571	0.001638	28.0819	91.1313	0.001803	50548.5	6.248137	170.024	425.894	1.171432	0.090913	0.090526	425.554	50548.5	0.084599	0.228490	1862.46	96615.6
1029	2.000000	1.173764	7.37512e+06	-51589.1	1055.82	-29751.7	0.000000	0.000000	7.192244	431.941	NaN	0.000000	0.001608	0.001590	28.0815	92.7935	0.001862	49837.5	2.602630	173.525	429.254	1.173630	0.092858	0.092724	431.941	49837.5	0.086358	0.236922	1823.14	93546.3
1029	2.000000	1.175851	7.37512e+06	-51589.1	1055.82	-29751.7	0.000000	0.000000	7.195441	458.941	NaN	0.000000	0.001636	0.001610	28.0818	93.0586	0.001761	52834.8	3.113184	173.394	461.684	1.175457	0.094945	0.094551	458.941	52834.8	0.088430	0.247035	1857.8	97121.1
1029	2.000000	1.177700	7.37512e+06	-51589.1	1055.82	-29751.7	0.000000	0.000000	7.198020	476.695	NaN	0.000000	0.001598	0.001616	28.0815	95.8124	0.001811	52893.8	7.327897	168.781	469.504	1.177337	0.096793	0.096431	476.695	52893.8	0.090034	0.255000	1869.39	95699.2
1029	2.000000	1.179802	7.37512e+06	-51589.1	1055.82	-29751.7	0.000000	0.000000	7.200740	491.701	NaN	0.000000	0.001635	0.001593	28.0816	97.084	0.001842	52700.5	2.560496	173.878	489.599	1.179561	0.098896	0.098655	491.701	52700.5	0.091899	0.264405	1859.65	93638.1
1029	2.000000	1.181703	7.37512e+06	-51589.1	1055.82	-29751.7	0.000000	0.000000	7.203459	511.624	NaN	0.000000	0.001580	0.001633	28.0818	98.7253	0.001785	55316.8	6.788684	168.477	505.632	1.181417	0.100797	0.100511	511.624	55316.8	0.093860	0.274471	1864.03	96467.7
1029	2.000000	1.182789	7.37512e+06	-51589.1	1055.82	-29751.7	0.000000	0.000000	7.205088	524.801	NaN	0.000000	0.001573	0.001616	28.0817	99.2748	0.001734	57261.8	6.704242	168.884	522.755	1.182441	0.101883	0.101535	524.801	57261.8	0.095009	0.280451	1871.27	98789.2