File: remote_trans/data/nanoindenter/0828-1/data/Data_2025-08-06,11h17m57s/2025-07-22_16-23-58_1_1139.txt
2025-07-22, 16:23:58, 1
Index	Phase	Displacement	Time	Pos X	Pos Y	Pos Z	Rot A	Rot B	Piezo Z	Force A	Force B	Gripper	Voltage A	Voltage B	Temperature	Amplitude force	Amplitude pos	Stiffness	Phase shift	Phase excitation	Force A raw	Displacement raw	HMax	HMax raw	Real Force	Real Stiffness	Contact Depth	Area	Hardness	Reduced Mod.
[#]	[#]	[um]	[s]	[um]	[um]	[um]	[m°]	[m°]	[um]	[uN]	[uN]	[V]	[V]	[V]	[°C]	[uN]	[um]	[N/m]	[°]	[°]	[uN]	[um]	[um]	[um]	[uN]	[N/m]	[um]	[um^2]	[MPa]	[MPa]
1139	1.000000	0.002959	7.37619e+06	-57089.1	1055.82	-29736.9	0.000000	0.000000	6.002798	0.109400	NaN	0.000000	0.001601	0.001727	28.0795	0.111102	0.000845	131.463	-71.7391	-171.046	0.215618	0.001726	-1.709515	-1.710748	0.109400	131.463	-1.710139	-6.936265E+22	-1.577211E-24	NaN
1139	1.000000	0.014951	7.37619e+06	-57089.1	1055.82	-29736.9	0.000000	0.000000	6.014789	0.053633	NaN	0.000000	0.001581	0.001743	28.0796	0.014283	0.001760	8.117008	-166.557	-162.285	0.017833	0.013829	-1.697523	-1.698645	0.053633	8.117008	-1.702478	-5.487314E+22	-9.773948E-25	NaN
1139	1.000000	0.026960	7.37619e+06	-57089.1	1055.82	-29736.9	0.000000	0.000000	6.026794	-0.027472	NaN	0.000000	0.001610	0.001732	28.0805	0.041678	0.001932	21.5762	92.3224	-162.013	-0.016309	0.025586	-1.685514	-1.686888	-0.027472	21.5762	-1.684559	-3.171740E+22	8.661504E-25	NaN
1139	1.000000	0.038933	7.37619e+06	-57089.1	1055.82	-29736.9	0.000000	0.000000	6.038769	0.027404	NaN	0.000000	0.001620	0.001754	28.0805	0.098116	0.002008	48.8724	56.8554	-165.073	0.091234	0.037629	-1.673541	-1.674845	0.027404	48.8724	-1.673962	-2.293435E+22	-1.194901E-24	NaN
1139	1.000000	0.050898	7.3762e+06	-57089.1	1055.82	-29736.9	0.000000	0.000000	6.050732	-0.023095	NaN	0.000000	0.001592	0.001696	28.0803	0.035263	0.001980	17.8094	121.443	-167.357	-0.053763	0.049621	-1.661576	-1.662853	-0.023095	17.8094	-1.660604	-1.523936E+22	1.515489E-24	NaN
1139	1.000000	0.062922	7.3762e+06	-57089.1	1055.82	-29736.9	0.000000	0.000000	6.062759	0.036437	NaN	0.000000	0.001608	0.001708	28.0804	0.061009	0.002129	28.6505	152.52	-162.737	-0.037901	0.061602	-1.649552	-1.650872	0.036437	28.6505	-1.650506	-1.118797E+22	-3.256793E-24	NaN
1139	1.000000	0.074937	7.3762e+06	-57089.1	1055.82	-29736.9	0.000000	0.000000	6.074777	0.101897	NaN	0.000000	0.001608	0.001714	28.0806	0.088013	0.002212	39.785	-5.078708	-163.632	0.136016	0.073600	-1.637537	-1.638874	0.101897	39.785	-1.639458	-7.978005E+21	-1.277220E-23	NaN
1139	1.000000	0.086937	7.3762e+06	-57089.1	1055.82	-29736.9	0.000000	0.000000	6.086772	0.008595	NaN	0.000000	0.001587	0.001731	28.0809	0.074125	0.002019	36.7162	103.112	-166.461	0.005245	0.085597	-1.625537	-1.626877	0.008595	36.7162	-1.625713	-5.237883E+21	-1.640840E-24	NaN
1139	1.000000	0.098932	7.3762e+06	-57089.1	1055.82	-29736.9	0.000000	0.000000	6.098766	-0.021766	NaN	0.000000	0.001569	0.001724	28.0809	0.112170	0.001963	57.1362	172.116	-163.261	0.040198	0.097551	-1.613542	-1.614923	-0.021766	57.1362	-1.613257	-3.577062E+21	6.084984E-24	NaN
1139	1.000000	0.110934	7.3762e+06	-57089.1	1055.82	-29736.9	0.000000	0.000000	6.110769	-0.003794	NaN	0.000000	0.001583	0.001697	28.0807	0.070045	0.002069	33.8483	-173.709	-164.434	0.030541	0.109661	-1.601540	-1.602813	-0.003794	33.8483	-1.601456	-2.492272E+21	1.522439E-24	NaN
1139	1.000000	0.122936	7.3762e+06	-57089.1	1055.82	-29736.9	0.000000	0.000000	6.122773	0.043099	NaN	0.000000	0.001620	0.001709	28.0808	0.049871	0.001880	26.5329	101.103	-164.493	0.073540	0.121644	-1.589538	-1.590830	0.043099	26.5329	-1.590756	-1.795858E+21	-2.399900E-23	NaN
1139	1.000000	0.134931	7.3762e+06	-57089.1	1055.82	-29736.9	0.000000	0.000000	6.134768	0.045236	NaN	0.000000	0.001546	0.001693	28.0809	0.105206	0.002091	50.311	155.269	-162.355	0.054210	0.133678	-1.577543	-1.578796	0.045236	50.311	-1.578217	-1.223114E+21	-3.698391E-23	NaN
1139	1.000000	0.146933	7.3762e+06	-57089.1	1055.82	-29736.9	0.000000	0.000000	6.146767	-0.033718	NaN	0.000000	0.001578	0.001738	28.0808	0.105883	0.001886	56.1268	10.3272	-167.574	-0.023008	0.145653	-1.565541	-1.566821	-0.033718	56.1268	-1.565090	-8.181055E+20	4.121445E-23	NaN
1139	1.000000	0.158932	7.3762e+06	-57089.1	1055.82	-29736.9	0.000000	0.000000	6.158767	-0.001085	NaN	0.000000	0.001582	0.001722	28.0806	0.033358	0.002020	16.5097	-22.8458	-161.379	0.023756	0.157632	-1.553542	-1.554842	-0.001085	16.5097	-1.553492	-5.734232E+20	1.891832E-24	NaN
1139	1.000000	0.170968	7.3762e+06	-57089.1	1055.82	-29736.9	0.000000	0.000000	6.170803	-0.019370	NaN	0.000000	0.001577	0.001716	28.0796	0.048733	0.001983	24.5723	15.3209	-163.417	-0.013527	0.169673	-1.541506	-1.542801	-0.019370	24.5723	-1.540915	-3.900059E+20	4.966558E-23	NaN
1139	1.000000	0.182966	7.3762e+06	-57089.1	1055.82	-29736.9	0.000000	0.000000	6.182800	-0.023851	NaN	0.000000	0.001598	0.001697	28.0798	0.053968	0.001996	27.0347	68.8785	-166.162	0.034297	0.181668	-1.529508	-1.530806	-0.023851	27.0347	-1.528847	-2.694163E+20	8.852821E-23	NaN
1139	1.000000	0.194968	7.3762e+06	-57089.1	1055.82	-29736.9	0.000000	0.000000	6.194803	0.013166	NaN	0.000000	0.001545	0.001703	28.0797	0.090652	0.002051	44.199	59.4858	-167.906	-0.061198	0.193686	-1.517506	-1.518788	0.013166	44.199	-1.517730	-1.916079E+20	-6.871109E-23	NaN
1139	1.000000	0.206968	7.3762e+06	-57089.1	1055.82	-29736.9	0.000000	0.000000	6.206805	0.026445	NaN	0.000000	0.001563	0.001753	28.0795	0.059930	0.001876	31.9523	-55.0055	-165.36	0.089955	0.205634	-1.505506	-1.506840	0.026445	31.9523	-1.506126	-1.342462E+20	-1.969898E-22	NaN
1139	1.000000	0.218970	7.3762e+06	-57089.1	1055.82	-29736.9	0.000000	0.000000	6.218807	0.050079	NaN	0.000000	0.001589	0.001733	28.0796	0.062081	0.002017	30.7737	-57.004	-164.805	-0.050345	0.217662	-1.493504	-1.494812	0.050079	30.7737	-1.494725	-9.463577E+19	-5.291740E-22	NaN
1139	1.000000	0.230969	7.3762e+06	-57089.1	1055.82	-29736.9	0.000000	0.000000	6.230804	-0.020285	NaN	0.000000	0.001581	0.001737	28.0797	0.062252	0.002076	29.9806	82.3194	-165.186	-0.051201	0.229678	-1.481505	-1.482796	-0.020285	29.9806	-1.480997	-6.211465E+19	3.265705E-22	NaN
1139	1.000000	0.242981	7.3762e+06	-57089.1	1055.82	-29736.9	0.000000	0.000000	6.242819	0.049035	NaN	0.000000	0.001566	0.001757	28.0796	0.046410	0.001881	24.6708	-121.481	-164.369	0.003319	0.241675	-1.469493	-1.470799	0.049035	24.6708	-1.470983	-4.568533E+19	-1.073313E-21	NaN
1139	1.000000	0.254988	7.3762e+06	-57089.1	1055.82	-29736.9	0.000000	0.000000	6.254823	-0.015225	NaN	0.000000	0.001554	0.001775	28.0798	0.079405	0.002044	38.8473	-164.502	-165.929	-0.009445	0.253702	-1.457486	-1.458772	-0.015225	38.8473	-1.457192	-2.992245E+19	5.088295E-22	NaN
1139	1.000000	0.266980	7.3762e+06	-57089.1	1055.82	-29736.9	0.000000	0.000000	6.266816	0.035644	NaN	0.000000	0.001585	0.001775	28.0797	0.107530	0.002083	51.6315	-147.949	-164.746	0.042494	0.265663	-1.445494	-1.446812	0.035644	51.6315	-1.446012	-2.123220E+19	-1.678792E-21	NaN
1139	1.000000	0.278951	7.3762e+06	-57089.1	1055.82	-29736.9	0.000000	0.000000	6.278787	0.024179	NaN	0.000000	0.001595	0.001722	28.0799	0.047009	0.002131	22.0639	-30.9473	-163.893	0.100107	0.277698	-1.433523	-1.434776	0.024179	22.0639	-1.434345	-1.484099E+19	-1.629176E-21	NaN
1139	1.000000	0.291010	7.3762e+06	-57089.1	1055.82	-29736.9	0.000000	0.000000	6.290843	-0.049670	NaN	0.000000	0.001621	0.001771	28.0801	0.078987	0.002036	38.7888	-158.414	-165.877	-0.013618	0.289671	-1.421465	-1.422803	-0.049670	38.7888	-1.420504	-9.703443E+18	5.118785E-21	NaN
1139	1.000000	0.303017	7.3762e+06	-57089.1	1055.82	-29736.9	0.000000	0.000000	6.302849	-0.063268	NaN	0.000000	0.001609	0.001727	28.0808	0.090659	0.002024	44.7878	-122.717	-163.931	-0.002079	0.301711	-1.409457	-1.410763	-0.063268	44.7878	-1.408398	-6.690753E+18	9.456019E-21	NaN
1139	1.000000	0.315020	7.3762e+06	-57089.1	1055.82	-29736.9	0.000000	0.000000	6.314858	0.067980	NaN	0.000000	0.001596	0.001787	28.0808	0.049028	0.001963	24.973	177.077	-164.464	-0.007293	0.313707	-1.397454	-1.398767	0.067980	24.973	-1.399496	-5.090251E+18	-1.335500E-20	NaN
1139	1.000000	0.327020	7.3762e+06	-57089.1	1055.82	-29736.9	0.000000	0.000000	6.326858	0.089051	NaN	0.000000	0.001582	0.001771	28.0808	0.043299	0.002011	21.5334	65.2714	-166.61	0.094856	0.325737	-1.385454	-1.386737	0.089051	21.5334	-1.388556	-3.637476E+18	-2.448167E-20	NaN
1139	1.000000	0.339036	7.3762e+06	-57089.1	1055.82	-29736.9	0.000000	0.000000	6.338871	-0.002427	NaN	0.000000	0.001584	0.001754	28.0808	0.097642	0.001888	51.7113	63.7219	-164.94	-0.030335	0.337741	-1.373438	-1.374733	-0.002427	51.7113	-1.373403	-2.283505E+18	1.062963E-21	NaN
1139	1.000000	0.351032	7.3762e+06	-57089.1	1055.82	-29736.9	0.000000	0.000000	6.350864	-0.083716	NaN	0.000000	0.001608	0.001745	28.0808	0.040835	0.001995	20.4658	54.1194	-168.045	-0.034954	0.349730	-1.361442	-1.362744	-0.083716	20.4658	-1.358374	-1.438876E+18	5.818135E-20	NaN
1139	1.000000	0.363043	7.3762e+06	-57089.1	1055.82	-29736.9	0.000000	0.000000	6.362880	0.046947	NaN	0.000000	0.001598	0.001749	28.0809	0.072392	0.002114	34.2399	-52.6005	-168.567	0.066331	0.361721	-1.349431	-1.350753	0.046947	34.2399	-1.350460	-1.128151E+18	-4.161416E-20	NaN
1139	1.000000	0.375041	7.3762e+06	-57089.1	1055.82	-29736.9	0.000000	0.000000	6.374877	0.024961	NaN	0.000000	0.001585	0.001732	28.0814	0.055723	0.001977	28.1807	-54.6005	-166.08	0.057449	0.373696	-1.337433	-1.338778	0.024961	28.1807	-1.338098	-7.714552E+17	-3.235638E-20	NaN
1139	1.000000	0.387069	7.3762e+06	-57089.1	1055.82	-29736.9	0.000000	0.000000	6.386905	0.026996	NaN	0.000000	0.001587	0.001705	28.0811	0.038057	0.002033	18.7229	16.0983	-171.566	0.082865	0.385780	-1.325405	-1.326694	0.026996	18.7229	-1.326487	-5.398197E+17	-5.001019E-20	NaN
1139	1.000000	0.399068	7.3762e+06	-57089.1	1055.82	-29736.9	0.000000	0.000000	6.398904	0.012569	NaN	0.000000	0.001572	0.001733	28.081	0.020310	0.001915	10.6057	-164.986	-163.738	0.048798	0.397751	-1.313406	-1.314723	0.012569	10.6057	-1.314295	-3.710121E+17	-3.387809E-20	NaN
1139	1.000000	0.411070	7.3762e+06	-57089.1	1055.82	-29736.9	0.000000	0.000000	6.410905	0.012048	NaN	0.000000	0.001564	0.001726	28.0809	0.054909	0.002125	25.8396	-102.79	-164.583	0.003125	0.409731	-1.301404	-1.302743	0.012048	25.8396	-1.301754	-2.522527E+17	-4.776140E-20	NaN
1139	1.000000	0.423081	7.3762e+06	-57089.1	1055.82	-29736.9	0.000000	0.000000	6.422915	-0.029456	NaN	0.000000	0.001588	0.001722	28.0808	0.059274	0.001893	31.3124	-163.196	-166.12	-0.041763	0.421741	-1.289393	-1.290733	-0.029456	31.3124	-1.288687	-1.687375E+17	1.745685E-19	NaN
1139	1.000000	0.435076	7.3762e+06	-57089.1	1055.82	-29736.9	0.000000	0.000000	6.434913	0.033705	NaN	0.000000	0.001572	0.001716	28.0797	0.096006	0.001969	48.7661	149.308	-166.2	0.074430	0.433787	-1.277398	-1.278687	0.033705	48.7661	-1.277916	-1.211239E+17	-2.782713E-19	NaN
1139	1.000000	0.447081	7.3762e+06	-57089.1	1055.82	-29736.9	0.000000	0.000000	6.446918	0.050362	NaN	0.000000	0.001566	0.001729	28.0796	0.049715	0.002120	23.4531	-76.9419	-164.652	-0.012385	0.445732	-1.265393	-1.266742	0.050362	23.4531	-1.267003	-8.656139E+16	-5.818028E-19	NaN
1139	1.000000	0.459078	7.3762e+06	-57089.1	1055.82	-29736.9	0.000000	0.000000	6.458916	0.075934	NaN	0.000000	0.001563	0.001732	28.0797	0.045056	0.001896	23.7675	-26.7171	-166.024	0.105754	0.457752	-1.253397	-1.254722	0.075934	23.7675	-1.255793	-6.129153E+16	-1.238898E-18	NaN
1139	1.000000	0.471116	7.3762e+06	-57089.1	1055.82	-29736.9	0.000000	0.000000	6.470947	-0.092566	NaN	0.000000	0.001630	0.001739	28.0797	0.044766	0.002109	21.2263	-114.52	-164.274	-0.089000	0.469747	-1.241359	-1.242727	-0.092566	21.2263	-1.238088	-3.552709E+16	2.605517E-18	NaN
1139	1.000000	0.483083	7.3762e+06	-57089.1	1055.82	-29736.9	0.000000	0.000000	6.482920	0.048267	NaN	0.000000	0.001558	0.001765	28.0797	0.108630	0.001885	57.6168	21.352	-164.098	-0.030010	0.481816	-1.229391	-1.230658	0.048267	57.6168	-1.230019	-2.770746E+16	-1.742035E-18	NaN
1139	1.000000	0.495135	7.3762e+06	-57089.1	1055.82	-29736.9	0.000000	0.000000	6.494970	-0.006174	NaN	0.000000	0.001592	0.001763	28.0795	0.038822	0.001978	19.6291	-136.578	-164.284	0.071498	0.493788	-1.217339	-1.218686	-0.006174	19.6291	-1.217103	-1.860903E+16	3.317900E-19	NaN
1139	1.000000	0.507086	7.3762e+06	-57089.1	1055.82	-29736.9	0.000000	0.000000	6.506920	-0.008217	NaN	0.000000	0.001607	0.001744	28.0795	0.077649	0.001892	41.0334	36.809	-163.796	0.016026	0.505765	-1.205389	-1.206709	-0.008217	41.0334	-1.205238	-1.290891E+16	6.365009E-19	NaN
1139	1.000000	0.519116	7.3762e+06	-57089.1	1055.82	-29736.9	0.000000	0.000000	6.518951	-0.003143	NaN	0.000000	0.001564	0.001745	28.0794	0.042034	0.002081	20.1969	-33.6465	-164.843	0.007643	0.517840	-1.193358	-1.194634	-0.003143	20.1969	-1.193241	-8.917370E+15	3.524242E-19	NaN
1139	1.000000	0.531098	7.3762e+06	-57089.1	1055.82	-29736.9	0.000000	0.000000	6.530935	0.038114	NaN	0.000000	0.001550	0.001749	28.0796	0.076385	0.001956	39.0528	-6.708209	-164.985	-0.020304	0.529806	-1.181376	-1.182668	0.038114	39.0528	-1.182108	-6.325744E+15	-6.025243E-18	NaN
1139	1.000000	0.543111	7.3762e+06	-57089.1	1055.82	-29736.9	0.000000	0.000000	6.542945	-0.018841	NaN	0.000000	0.001567	0.001756	28.0797	0.043452	0.001882	23.0893	24.6392	-162.438	0.040138	0.541765	-1.169363	-1.170709	-0.018841	23.0893	-1.168751	-4.189390E+15	4.497399E-18	NaN
1139	1.000000	0.555131	7.3762e+06	-57089.1	1055.82	-29736.9	0.000000	0.000000	6.554971	0.125519	NaN	0.000000	0.001592	0.001750	28.0796	0.054563	0.002048	26.6437	144.461	-165.441	0.010406	0.553813	-1.157343	-1.158661	0.125519	26.6437	-1.160877	-3.285644E+15	-3.820217E-17	NaN
1139	1.000000	0.567118	7.3762e+06	-57089.1	1055.82	-29736.9	0.000000	0.000000	6.566953	-0.004245	NaN	0.000000	0.001600	0.001727	28.0798	0.026871	0.001953	13.7585	-124.121	-167.856	0.018171	0.565774	-1.145356	-1.146700	-0.004245	13.7585	-1.145124	-2.020453E+15	2.101145E-18	NaN
1139	1.000000	0.579120	7.3762e+06	-57089.1	1055.82	-29736.9	0.000000	0.000000	6.578956	0.023941	NaN	0.000000	0.001611	0.001759	28.0812	0.034496	0.001949	17.6996	-143.327	-163.88	0.007389	0.577813	-1.133354	-1.134661	0.023941	17.6996	-1.134369	-1.449493E+15	-1.651658E-17	NaN
1139	1.000000	0.591121	7.3762e+06	-57089.1	1055.82	-29736.9	0.000000	0.000000	6.590959	0.073684	NaN	0.000000	0.001601	0.001777	28.0806	0.077183	0.001961	39.3505	-83.7331	-165.198	0.049633	0.589826	-1.121353	-1.122648	0.073684	39.3505	-1.122758	-1.012670E+15	-7.276218E-17	NaN
1139	1.000000	0.603134	7.3762e+06	-57089.1	1055.82	-29736.9	0.000000	0.000000	6.602969	-0.019150	NaN	0.000000	0.001588	0.001738	28.0808	0.094034	0.002188	42.9696	59.2397	-163.407	0.066314	0.601844	-1.109340	-1.110631	-0.019150	42.9696	-1.109006	-6.621291E+14	2.892208E-17	NaN
1139	1.000000	0.615165	7.3762e+06	-57089.1	1055.82	-29736.8	0.000000	0.000000	6.615002	0.041238	NaN	0.000000	0.001597	0.001758	28.0809	0.079765	0.002032	39.2558	-22.6239	-164.602	0.014831	0.613826	-1.097309	-1.098648	0.041238	39.2558	-1.098097	-4.726338E+14	-8.725193E-17	NaN
1139	1.000000	0.627120	7.3762e+06	-57089.1	1055.82	-29736.9	0.000000	0.000000	6.626955	-0.014333	NaN	0.000000	0.001568	0.001722	28.0806	0.094197	0.001960	48.0665	8.610777	-167.551	0.033397	0.625826	-1.085354	-1.086649	-0.014333	48.0665	-1.085130	-3.165320E+14	4.528215E-17	NaN
1139	1.000000	0.639151	7.3762e+06	-57089.1	1055.82	-29736.8	0.000000	0.000000	6.638983	-0.062066	NaN	0.000000	0.001568	0.001774	28.0809	0.116160	0.001925	60.3329	176.551	-166.765	-0.028763	0.637854	-1.073323	-1.074620	-0.062066	60.3329	-1.072552	-2.145213E+14	2.893238E-16	NaN
1139	1.000000	0.651165	7.3762e+06	-57089.1	1055.82	-29736.8	0.000000	0.000000	6.650999	-0.017641	NaN	0.000000	0.001678	0.001734	28.0809	0.102938	0.001998	51.5079	-137.01	-167.567	0.043561	0.649841	-1.061309	-1.062633	-0.017641	51.5079	-1.061052	-1.503020E+14	1.173706E-16	NaN
1139	1.000000	0.663149	7.3762e+06	-57089.1	1055.82	-29736.8	0.000000	0.000000	6.662986	0.059444	NaN	0.000000	0.001678	0.001718	28.081	0.089891	0.002077	43.2789	-18.3049	-169.422	0.005165	0.661896	-1.049325	-1.050578	0.059444	43.2789	-1.050355	-1.079420E+14	-5.507048E-16	NaN
1139	1.000000	0.675167	7.3762e+06	-57089.1	1055.82	-29736.8	0.000000	0.000000	6.675002	-0.002102	NaN	0.000000	0.001622	0.001745	28.0808	0.085664	0.001918	44.6686	160.517	-165.208	0.068407	0.673780	-1.037307	-1.038694	-0.002102	44.6686	-1.037272	-7.199115E+13	2.920201E-17	NaN
1139	1.000000	0.687205	7.3762e+06	-57089.1	1055.82	-29736.8	0.000000	0.000000	6.687042	0.040945	NaN	0.000000	0.001627	0.001736	28.0806	0.083739	0.002006	41.7434	-41.3232	-166.354	-0.047260	0.685856	-1.025269	-1.026618	0.040945	41.7434	-1.026004	-5.078489E+13	-8.062482E-16	NaN
1139	1.000000	0.699200	7.3762e+06	-57089.1	1055.82	-29736.8	0.000000	0.000000	6.699036	0.008254	NaN	0.000000	0.001674	0.001734	28.0807	0.077174	0.001998	38.6291	-140.597	-167.258	0.001263	0.697920	-1.013274	-1.014554	0.008254	38.6291	-1.013434	-3.440331E+13	-2.399239E-16	NaN
1139	1.000000	0.711205	7.3762e+06	-57089.1	1055.82	-29736.8	0.000000	0.000000	6.711039	-0.013384	NaN	0.000000	0.001588	0.001778	28.0794	0.047608	0.002067	23.0361	81.2585	-164.295	-0.002907	0.709831	-1.001269	-1.002643	-0.013384	23.0361	-1.000834	-2.328056E+13	5.748997E-16	NaN
1139	1.000000	0.723189	7.3762e+06	-57089.1	1055.82	-29736.8	0.000000	0.000000	6.723024	-0.015651	NaN	0.000000	0.001624	0.001735	28.0801	0.079386	0.001990	39.8866	-84.7874	-164.894	-0.015457	0.721890	-0.989285	-0.990584	-0.015651	39.8866	-0.988991	-1.612568E+13	9.705487E-16	NaN
1139	1.000000	0.735231	7.3762e+06	-57089.1	1055.82	-29736.8	0.000000	0.000000	6.735067	0.012134	NaN	0.000000	0.001594	0.001749	28.0797	0.106692	0.001948	54.7585	132.698	-165.769	0.043202	0.733938	-0.977243	-0.978536	0.012134	54.7585	-0.977409	-1.125915E+13	-1.077684E-15	NaN
1139	1.000000	0.747220	7.3762e+06	-57089.1	1055.82	-29736.8	0.000000	0.000000	6.747056	0.030705	NaN	0.000000	0.001613	0.001757	28.0799	0.017689	0.001910	9.262014	106.15	-164.467	0.076465	0.745925	-0.965255	-0.966549	0.030705	9.262014	-0.967741	-8.340968E+12	-3.681257E-15	NaN
1139	1.000000	0.759225	7.3762e+06	-57089.1	1055.82	-29736.8	0.000000	0.000000	6.759060	-0.005020	NaN	0.000000	0.001589	0.001748	28.0798	0.100683	0.002080	48.3978	-36.5515	-161.688	0.014391	0.757907	-0.953249	-0.954567	-0.005020	48.3978	-0.953171	-5.306364E+12	9.460994E-16	NaN
1139	1.000000	0.771231	7.3762e+06	-57089.1	1055.82	-29736.8	0.000000	0.000000	6.771067	0.032199	NaN	0.000000	0.001578	0.001760	28.0797	0.081859	0.002065	39.6373	-160.887	-166.326	0.014690	0.769916	-0.941244	-0.942558	0.032199	39.6373	-0.941853	-3.733646E+12	-8.624072E-15	NaN
1139	1.000000	0.783223	7.3762e+06	-57089.1	1055.82	-29736.8	0.000000	0.000000	6.783058	0.008252	NaN	0.000000	0.001608	0.001770	28.0802	0.079112	0.001897	41.7064	42.5011	-165.471	0.090854	0.781917	-0.929251	-0.930557	0.008252	41.7064	-0.929399	-2.535667E+12	-3.254292E-15	NaN
1139	1.000000	0.795246	7.3762e+06	-57089.1	1055.82	-29736.8	0.000000	0.000000	6.795079	-0.036059	NaN	0.000000	0.001562	0.001775	28.0799	0.135895	0.002005	67.7677	-25.7296	-167.693	0.020155	0.793921	-0.917228	-0.918553	-0.036059	67.7677	-0.916829	-1.715505E+12	2.101972E-14	NaN
1139	1.000000	0.807233	7.3762e+06	-57089.1	1055.82	-29736.8	0.000000	0.000000	6.807070	0.038528	NaN	0.000000	0.001598	0.001746	28.0796	0.139953	0.002093	66.8513	-61.6586	-165.895	-0.068164	0.805949	-0.905241	-0.906525	0.038528	66.8513	-0.905673	-1.212605E+12	-3.177304E-14	NaN
1139	1.000000	0.819247	7.3762e+06	-57089.1	1055.82	-29736.8	0.000000	0.000000	6.819083	0.005421	NaN	0.000000	0.001608	0.001773	28.0796	0.067393	0.001942	34.7088	-132.735	-167.982	0.014890	0.817884	-0.893227	-0.894590	0.005421	34.7088	-0.893344	-8.262546E+11	-6.561313E-15	NaN
1139	1.000000	0.831242	7.3762e+06	-57089.1	1055.82	-29736.8	0.000000	0.000000	6.831077	-0.015277	NaN	0.000000	0.001600	0.001726	28.08	0.100982	0.001938	52.094	21.7168	-164.175	-0.085402	0.829930	-0.881232	-0.882544	-0.015277	52.094	-0.881012	-5.628521E+11	2.714204E-14	NaN
1139	1.000000	0.843251	7.3762e+06	-57089.1	1055.82	-29736.8	0.000000	0.000000	6.843086	0.006568	NaN	0.000000	0.001579	0.001764	28.0804	0.015312	0.002041	7.502495	78.1776	-167.496	0.042545	0.841921	-0.869223	-0.870553	0.006568	7.502495	-0.869880	-3.979390E+11	-1.650608E-14	NaN
1139	1.000000	0.855245	7.3762e+06	-57089.1	1055.82	-29736.8	0.000000	0.000000	6.855081	0.030825	NaN	0.000000	0.001563	0.001755	28.0809	0.080292	0.001943	41.3173	123.259	-166.93	0.038930	0.853916	-0.857229	-0.858559	0.030825	41.3173	-0.857789	-2.730181E+11	-1.129049E-13	NaN
1139	1.000000	0.867272	7.3762e+06	-57089.1	1055.82	-29736.8	0.000000	0.000000	6.867109	0.041840	NaN	0.000000	0.001575	0.001735	28.0805	0.130924	0.002029	64.5106	-8.169487	-161.757	0.079423	0.865947	-0.845202	-0.846527	0.041840	64.5106	-0.845688	-1.872161E+11	-2.234835E-13	NaN
1139	1.000000	0.879281	7.3762e+06	-57089.1	1055.82	-29736.8	0.000000	0.000000	6.879115	-0.031352	NaN	0.000000	0.001659	0.001761	28.0805	0.034733	0.002006	17.3147	99.4922	-164.929	-0.026009	0.877926	-0.833193	-0.834548	-0.031352	17.3147	-0.831835	-1.215223E+11	2.579941E-13	NaN
1139	1.000000	0.891289	7.3762e+06	-57089.1	1055.82	-29736.8	0.000000	0.000000	6.891123	-0.014118	NaN	0.000000	0.001632	0.001733	28.0809	0.061738	0.002030	30.409	-165.702	-166.628	-0.020713	0.889897	-0.821185	-0.822577	-0.014118	30.409	-0.820837	-8.621096E+10	1.637583E-13	NaN
1139	1.000000	0.903266	7.3762e+06	-57089.1	1055.82	-29736.8	0.000000	0.000000	6.903101	0.013183	NaN	0.000000	0.001671	0.001760	28.0803	0.017171	0.001950	8.806431	79.0902	-168.037	-0.000761	0.901949	-0.809208	-0.810525	0.013183	8.806431	-0.810331	-6.209601E+10	-2.123020E-13	NaN
1139	1.000000	0.915242	7.3762e+06	-57089.1	1055.82	-29736.8	0.000000	0.000000	6.915078	0.020063	NaN	0.000000	0.001668	0.001748	28.0809	0.066480	0.001979	33.5858	172.805	-166.676	-0.079109	0.913947	-0.797233	-0.798527	0.020063	33.5858	-0.797681	-4.181918E+10	-4.797650E-13	NaN
1139	1.000000	0.927281	7.3762e+06	-57089.1	1055.82	-29736.8	0.000000	0.000000	6.927119	0.074781	NaN	0.000000	0.001691	0.001750	28.0811	0.039361	0.002096	18.7821	78.5457	-170.556	0.065302	0.925951	-0.785193	-0.786523	0.074781	18.7821	-0.788179	-3.107058E+10	-2.406802E-12	NaN
1139	1.000000	0.939274	7.3762e+06	-57089.1	1055.82	-29736.8	0.000000	0.000000	6.939108	-0.010093	NaN	0.000000	0.001656	0.001792	28.081	0.066059	0.001988	33.237	165.328	-165.538	0.074941	0.937952	-0.773201	-0.774522	-0.010093	33.237	-0.772973	-1.930729E+10	5.227419E-13	NaN
1139	1.000000	0.951285	7.3762e+06	-57089.1	1055.82	-29736.8	0.000000	0.000000	6.951122	0.045999	NaN	0.000000	0.001607	0.001776	28.0809	0.108437	0.001944	55.79	55.0819	-167.291	0.026703	0.949986	-0.761189	-0.762488	0.045999	55.79	-0.761808	-1.361108E+10	-3.379493E-12	NaN
1139	1.000000	0.963295	7.3762e+06	-57089.1	1055.82	-29736.8	0.000000	0.000000	6.963131	0.040972	NaN	0.000000	0.001571	0.001762	28.0808	0.064301	0.001991	32.2964	108.999	-166.983	0.014408	0.961999	-0.749180	-0.750475	0.040972	32.2964	-0.750131	-9.440685E+9	-4.339986E-12	NaN
1139	1.000000	0.975279	7.3762e+06	-57089.1	1055.82	-29736.8	0.000000	0.000000	6.975116	0.054356	NaN	0.000000	0.001634	0.001762	28.0809	0.077382	0.002042	37.9026	-42.6989	-165.691	0.153866	0.973970	-0.737195	-0.738504	0.054356	37.9026	-0.738271	-6.508787E+9	-8.351216E-12	NaN
1139	1.000000	0.987309	7.3762e+06	-57089.1	1055.82	-29736.8	0.000000	0.000000	6.987142	-0.036123	NaN	0.000000	0.001622	0.001766	28.0797	0.033619	0.001954	17.2011	25.3945	-164.76	0.010900	0.985991	-0.725165	-0.726483	-0.036123	17.2011	-0.723590	-4.106114E+9	8.797363E-12	NaN
1139	1.000000	0.999324	7.3762e+06	-57089.1	1055.82	-29736.8	0.000000	0.000000	6.999160	0.026259	NaN	0.000000	0.001613	0.001755	28.0796	0.035986	0.002004	17.9556	-128.746	-164.813	0.087391	0.998070	-0.713150	-0.714405	0.026259	17.9556	-0.714247	-3.061929E+9	-8.575954E-12	NaN
1139	1.000000	1.011307	7.3762e+06	-57089.1	1055.82	-29736.8	0.000000	0.000000	7.011145	0.081694	NaN	0.000000	0.001651	0.001757	28.0797	0.113960	0.001976	57.6615	-97.1678	-164.023	0.081911	1.010064	-0.701167	-0.702410	0.081694	57.6615	-0.702230	-2.098844E+9	-3.892338E-11	NaN
1139	1.000000	1.023303	7.3762e+06	-57089.1	1055.82	-29736.8	0.000000	0.000000	7.023137	-0.023914	NaN	0.000000	0.001607	0.001690	28.0797	0.086236	0.001981	43.5306	13.8072	-165.928	-0.022820	1.022054	-0.689171	-0.690420	-0.023914	43.5306	-0.688759	-1.373902E+9	1.740567E-11	NaN
1139	1.000000	1.035312	7.3762e+06	-57089.1	1055.82	-29736.8	0.000000	0.000000	7.035148	0.006318	NaN	0.000000	0.001626	0.001712	28.0796	0.091791	0.001940	47.3135	130.298	-165.633	-0.006897	1.034008	-0.677162	-0.678466	0.006318	47.3135	-0.677262	-9.566519E+8	-6.604756E-12	NaN
1139	1.000000	1.047332	7.3762e+06	-57089.1	1055.82	-29736.8	0.000000	0.000000	7.047169	0.051016	NaN	0.000000	0.001608	0.001703	28.0797	0.023226	0.001992	11.6609	-140.467	-168.23	0.013628	1.046066	-0.665142	-0.666408	0.051016	11.6609	-0.668423	-7.241135E+8	-7.045331E-11	NaN
1139	1.000000	1.059334	7.3762e+06	-57089.1	1055.82	-29736.8	0.000000	0.000000	7.059169	-0.001811	NaN	0.000000	0.001596	0.001733	28.0797	0.103584	0.002052	50.4787	116.23	-165.53	-0.025209	1.057970	-0.653140	-0.654504	-0.001811	50.4787	-0.653113	-4.467913E+8	4.053945E-12	NaN
1139	1.000000	1.071348	7.3762e+06	-57089.1	1055.82	-29736.8	0.000000	0.000000	7.071183	-0.014926	NaN	0.000000	0.001637	0.001652	28.0798	0.085080	0.002074	41.0141	-138.817	-163.536	0.034275	1.070032	-0.641126	-0.642442	-0.014926	41.0141	-0.640853	-3.033842E+8	4.919716E-11	NaN
1139	1.000000	1.083336	7.3762e+06	-57089.1	1055.82	-29736.8	0.000000	0.000000	7.083172	0.017523	NaN	0.000000	0.001579	0.001720	28.0797	0.024568	0.001985	12.3755	-25.4019	-169.148	0.005442	1.082012	-0.629138	-0.630462	0.017523	12.3755	-0.630200	-2.166550E+8	-8.088167E-11	NaN
1139	1.000000	1.095357	7.3762e+06	-57089.1	1055.82	-29736.8	0.000000	0.000000	7.095194	0.030707	NaN	0.000000	0.001609	0.001715	28.0797	0.088883	0.002076	42.8189	121.624	-166.473	0.030717	1.094035	-0.617117	-0.618439	0.030707	42.8189	-0.617655	-1.456774E+8	-2.107874E-10	NaN
1139	1.000000	1.107357	7.3762e+06	-57089.1	1055.82	-29736.8	0.000000	0.000000	7.107196	0.090990	NaN	0.000000	0.001626	0.001686	28.0799	0.126674	0.001947	65.0664	163.765	-167.023	0.031872	1.106062	-0.605117	-0.606413	0.090990	65.0664	-0.606166	-1.012406E+8	-8.987500E-10	NaN
1139	1.000000	1.119344	7.3762e+06	-57089.1	1055.82	-29736.8	0.000000	0.000000	7.119182	0.055085	NaN	0.000000	0.001633	0.001704	28.0811	0.075879	0.002005	37.8508	4.198049	-165.173	-0.006052	1.118052	-0.593130	-0.594422	0.055085	37.8508	-0.594221	-6.931872E+7	-7.946687E-10	NaN
1139	1.000000	1.131338	7.3762e+06	-57089.1	1055.82	-29736.8	0.000000	0.000000	7.131174	0.031607	NaN	0.000000	0.001618	0.001703	28.081	0.062752	0.001930	32.5159	-5.995222	-165.337	-0.006837	1.130023	-0.581136	-0.582451	0.031607	32.5159	-0.581866	-4.682421E+7	-6.750163E-10	NaN
1139	1.000000	1.143363	7.3762e+06	-57089.1	1055.82	-29736.8	0.000000	0.000000	7.143200	0.046370	NaN	0.000000	0.001675	0.001706	28.0812	0.033407	0.001935	17.2624	-55.4145	-165.384	-0.010189	1.142019	-0.569111	-0.570455	0.046370	17.2624	-0.571126	-3.328051E+7	-1.393320E-9	NaN
1139	1.000000	1.155339	7.3762e+06	-57089.1	1055.82	-29736.8	0.000000	0.000000	7.155174	0.008579	NaN	0.000000	0.001662	0.001725	28.081	0.159235	0.002070	76.9293	89.5811	-164.123	0.072499	1.154096	-0.557135	-0.558378	0.008579	76.9293	-0.557219	-2.137471E+7	-4.013411E-10	NaN
1139	1.000000	1.167382	7.3762e+06	-57089.1	1055.82	-29736.8	0.000000	0.000000	7.167217	0.000253	NaN	0.000000	0.001665	0.001701	28.0809	0.061211	0.002066	29.6291	27.6617	-166.204	0.014781	1.166006	-0.545092	-0.546468	0.000253	29.6291	-0.545098	-1.452253E+7	-1.745299E-11	NaN
1139	1.000000	1.179380	7.3762e+06	-57089.1	1055.82	-29736.8	0.000000	0.000000	7.179216	0.010888	NaN	0.000000	0.001700	0.001727	28.0809	0.118611	0.002007	59.0886	-106.12	-164.821	0.020303	1.178049	-0.533094	-0.534425	0.010888	59.0886	-0.533232	-9.94145e+06	-1.095237E-9	NaN
1139	1.000000	1.191400	7.3762e+06	-57089.1	1055.82	-29736.8	0.000000	0.000000	7.191239	0.077827	NaN	0.000000	0.001630	0.001737	28.081	0.022936	0.001983	11.5667	-54.4449	-164.492	0.039813	1.190053	-0.521074	-0.522421	0.077827	11.5667	-0.526120	-7.91917e+06	-9.827712E-9	NaN
1139	1.000000	1.203381	7.3762e+06	-57089.1	1055.82	-29736.8	0.000000	0.000000	7.203216	0.002989	NaN	0.000000	0.001585	0.001722	28.0812	0.051326	0.001927	26.6298	-168.036	-167.39	0.007873	1.202059	-0.509093	-0.510416	0.002989	26.6298	-0.509177	-4.60212e+06	-6.495313E-10	NaN
1139	1.000000	1.215392	7.3762e+06	-57089.1	1055.82	-29736.8	0.000000	0.000000	7.215226	-0.018050	NaN	0.000000	0.001621	0.001707	28.081	0.056779	0.001904	29.8272	-52.7399	-165.973	-0.024046	1.214148	-0.497082	-0.498326	-0.018050	29.8272	-0.496628	-3.07585e+06	5.868357E-9	NaN
1139	1.000000	1.227425	7.3762e+06	-57089.1	1055.82	-29736.8	0.000000	0.000000	7.227263	0.067952	NaN	0.000000	0.001591	0.001720	28.0809	0.053716	0.001939	27.7101	-132.164	-166.19	0.042109	1.226080	-0.485049	-0.486394	0.067952	27.7101	-0.486888	-2.24853e+06	-3.022043E-8	NaN
1139	1.000000	1.239410	7.3762e+06	-57089.1	1055.82	-29736.8	0.000000	0.000000	7.239246	0.022543	NaN	0.000000	0.001552	0.001755	28.0812	0.089897	0.001939	46.3576	55.7583	-163.545	0.060375	1.238094	-0.473065	-0.474380	0.022543	46.3576	-0.473429	-1.4571e+06	-1.547109E-8	NaN
1139	1.000000	1.251412	7.3762e+06	-57089.1	1055.82	-29736.8	0.000000	0.000000	7.251248	0.027334	NaN	0.000000	0.001580	0.001741	28.0809	0.080076	0.001894	42.2773	56.1955	-168.489	0.001141	1.250109	-0.461062	-0.462365	0.027334	42.2773	-0.461547	-992547	-2.753971E-8	NaN
1139	1.000000	1.263439	7.3762e+06	-57089.1	1055.82	-29736.8	0.000000	0.000000	7.263274	-0.007315	NaN	0.000000	0.001566	0.001742	28.0796	0.048341	0.002126	22.7379	51.9832	-163.326	-0.034048	1.262143	-0.449035	-0.450331	-0.007315	22.7379	-0.448794	-656681	1.113981E-8	NaN
1139	1.000000	1.275435	7.3762e+06	-57089.1	1055.82	-29736.8	0.000000	0.000000	7.275273	0.057333	NaN	0.000000	0.001650	0.001709	28.0797	0.049509	0.001913	25.8787	61.7365	-164.78	0.068591	1.274086	-0.437039	-0.438388	0.057333	25.8787	-0.438701	-473175	-1.211657E-7	NaN
1139	1.000000	1.287390	7.3762e+06	-57089.1	1055.82	-29736.8	0.000000	0.000000	7.287229	0.082892	NaN	0.000000	0.001674	0.001745	28.0799	0.061575	0.001966	31.3197	110.482	-166.946	0.095433	1.286130	-0.425084	-0.426344	0.082892	31.3197	-0.427069	-324026	-2.558179E-7	NaN
1139	1.000000	1.299432	7.3762e+06	-57089.1	1055.82	-29736.8	0.000000	0.000000	7.299269	0.050186	NaN	0.000000	0.001661	0.001712	28.08	0.168781	0.001945	86.7869	-176.959	-166.724	0.061987	1.298093	-0.413042	-0.414381	0.050186	86.7869	-0.413476	-207875	-2.414219E-7	NaN
1139	1.000000	1.311460	7.3762e+06	-57089.1	1055.82	-29736.8	0.000000	0.000000	7.311298	0.049904	NaN	0.000000	0.001639	0.001734	28.0794	0.039807	0.002098	18.9772	10.5881	-166.701	0.087943	1.310186	-0.401014	-0.402288	0.049904	18.9772	-0.402986	-147421	-3.385154E-7	NaN
1139	1.000000	1.323405	7.3762e+06	-57089.1	1055.82	-29736.8	0.000000	0.000000	7.323241	0.013966	NaN	0.000000	0.001662	0.001738	28.0795	0.038209	0.001929	19.8042	-176.786	-164.1	-0.037803	1.322146	-0.389069	-0.390328	0.013966	19.8042	-0.389598	-94931.8	-1.471212E-7	NaN
1139	1.000000	1.335501	7.3762e+06	-57089.1	1055.82	-29736.8	0.000000	0.000000	7.335338	0.049521	NaN	0.000000	0.001650	0.001696	28.0794	0.069582	0.002067	33.662	158.928	-165.769	0.015111	1.334157	-0.376973	-0.378317	0.049521	33.662	-0.378077	-64904.8	-7.629762E-7	NaN
1139	1.000000	1.347443	7.3762e+06	-57089.1	1055.82	-29736.8	0.000000	0.000000	7.347282	0.090339	NaN	0.000000	0.001634	0.001742	28.0795	0.041716	0.001957	21.3177	59.34	-164.392	0.091043	1.346174	-0.365031	-0.366300	0.090339	21.3177	-0.368209	-46808.6	-1.929957E-6	NaN
1139	1.000000	1.359438	7.3762e+06	-57089.1	1055.82	-29736.8	0.000000	0.000000	7.359276	0.052661	NaN	0.000000	0.001649	0.001748	28.0795	0.019574	0.002126	9.206406	151.299	-169.337	0.078804	1.358156	-0.353036	-0.354318	0.052661	9.206406	-0.357326	-32596.2	-1.615550E-6	NaN
1139	1.000000	1.371479	7.3762e+06	-57089.1	1055.82	-29736.8	0.000000	0.000000	7.371315	0.027323	NaN	0.000000	0.001686	0.001736	28.0794	0.086949	0.002138	40.6739	-37.4767	-166.57	0.015403	1.370187	-0.340995	-0.342287	0.027323	40.6739	-0.341499	-19204.2	-1.422777E-6	NaN
1139	1.000000	1.383471	7.3762e+06	-57089.1	1055.82	-29736.8	0.000000	0.000000	7.383306	-0.012441	NaN	0.000000	0.001664	0.001709	28.0794	0.079709	0.002013	39.6043	-44.349	-164.332	-0.008876	1.382123	-0.329003	-0.330351	-0.012441	39.6043	-0.328767	-12514	9.941479E-7	NaN
1139	1.000000	1.395477	7.3762e+06	-57089.1	1055.82	-29736.8	0.000000	0.000000	7.395308	-0.092811	NaN	0.000000	0.001657	0.001754	28.0809	0.038127	0.002065	18.4655	-101.162	-169.28	-0.024612	1.394211	-0.316997	-0.318263	-0.092811	18.4655	-0.313228	-7392.26	1.255519E-5	NaN
1139	1.000000	1.407491	7.3762e+06	-57089.1	1055.82	-29736.8	0.000000	0.000000	7.407326	-0.000196	NaN	0.000000	0.001728	0.001737	28.0806	0.103370	0.002058	50.2288	26.1718	-162.361	0.006341	1.406181	-0.304983	-0.306293	-0.000196	50.2288	-0.304980	-5580.3	3.508650E-8	NaN
1139	1.000000	1.419492	7.3762e+06	-57089.1	1055.82	-29736.8	0.000000	0.000000	7.419330	0.053057	NaN	0.000000	0.001712	0.001712	28.0807	0.116602	0.001992	58.5267	58.8532	-165.263	0.040918	1.418183	-0.292982	-0.294291	0.053057	58.5267	-0.293662	-3785.24	-1.401688E-5	NaN
1139	1.000000	1.431500	7.3762e+06	-57089.1	1055.82	-29736.8	0.000000	0.000000	7.431336	0.029380	NaN	0.000000	0.001685	0.001722	28.081	0.036144	0.002084	17.3475	-135.237	-164.718	0.045582	1.430204	-0.280974	-0.282270	0.029380	17.3475	-0.282244	-2551.54	-1.151457E-5	NaN
1139	1.000000	1.443516	7.3762e+06	-57089.1	1055.82	-29736.8	0.000000	0.000000	7.443355	0.095492	NaN	0.000000	0.001728	0.001723	28.0807	0.107330	0.001974	54.3638	-83.8209	-167.926	0.058807	1.442225	-0.268958	-0.270249	0.095492	54.3638	-0.270275	-1681.62	-5.678601E-5	NaN
1139	1.000000	1.455513	7.3762e+06	-57089.1	1055.82	-29736.8	0.000000	0.000000	7.455350	0.038639	NaN	0.000000	0.001705	0.001699	28.0807	0.054685	0.001984	27.5585	-168.253	-164.622	0.023333	1.454178	-0.256961	-0.258296	0.038639	27.5585	-0.258012	-1092.51	-3.536737E-5	NaN
1139	1.000000	1.467500	7.3762e+06	-57089.1	1055.82	-29736.8	0.000000	0.000000	7.467334	-0.037796	NaN	0.000000	0.001699	0.001698	28.0807	0.031114	0.002088	14.9021	-106.414	-165.107	-0.030835	1.466215	-0.244974	-0.246259	-0.037796	14.9021	-0.243072	-641.886	5.888246E-5	NaN
1139	1.000000	1.479517	7.3762e+06	-57089.1	1055.82	-29736.8	0.000000	0.000000	7.479354	0.038090	NaN	0.000000	0.001682	0.001698	28.0807	0.056430	0.001906	29.6065	-49.7055	-169.947	0.032711	1.478259	-0.232957	-0.234215	0.038090	29.6065	-0.233922	-461.646	-8.250963E-5	NaN
1139	1.000000	1.491511	7.3762e+06	-57089.1	1055.82	-29736.8	0.000000	0.000000	7.491351	0.100573	NaN	0.000000	0.001735	0.001697	28.0806	0.085627	0.002167	39.5094	-122.333	-167.081	0.025596	1.490210	-0.220963	-0.222265	0.100573	39.5094	-0.222872	-308.667	-0.000326	NaN
1139	1.000000	1.503527	7.3762e+06	-57089.1	1055.82	-29736.8	0.000000	0.000000	7.503365	0.076901	NaN	0.000000	0.001685	0.001722	28.0817	0.107055	0.002090	51.2133	78.9065	-163.588	0.075334	1.502219	-0.208947	-0.210255	0.076901	51.2133	-0.210074	-192.313	-0.000400	NaN
1139	1.000000	1.515506	7.3762e+06	-57089.1	1055.82	-29736.8	0.000000	0.000000	7.515343	0.058910	NaN	0.000000	0.001659	0.001711	28.0844	0.072336	0.002050	35.2913	-9.397824	-167.079	0.037775	1.514167	-0.196968	-0.198307	0.058910	35.2913	-0.198220	-123.143	-0.000478	NaN
1139	1.000000	1.527533	7.3762e+06	-57089.1	1055.82	-29736.8	0.000000	0.000000	7.527366	-0.031689	NaN	0.000000	0.001629	0.001686	28.0799	0.078370	0.001872	41.8678	-132.745	-165.032	0.023906	1.526240	-0.184942	-0.186234	-0.031689	41.8678	-0.184374	-72.3726	0.000438	NaN
1139	1.000000	1.539534	7.3762e+06	-57089.1	1055.82	-29736.8	0.000000	0.000000	7.539371	0.029286	NaN	0.000000	0.001654	0.001675	28.08	0.062463	0.001941	32.1838	151.482	-163.738	0.028093	1.538296	-0.172940	-0.174178	0.029286	32.1838	-0.173622	-47.4536	-0.000617	NaN
1139	1.000000	1.551533	7.3762e+06	-57089.1	1055.82	-29736.8	0.000000	0.000000	7.551369	0.020983	NaN	0.000000	0.001658	0.001665	28.0799	0.101534	0.002032	49.9566	159.772	-166.877	-0.005181	1.550254	-0.160941	-0.162220	0.020983	49.9566	-0.161256	-28.8585	-0.000727	NaN
1139	1.000000	1.563554	7.3762e+06	-57089.1	1055.82	-29736.8	0.000000	0.000000	7.563392	0.055929	NaN	0.000000	0.001658	0.001687	28.0795	0.063970	0.002048	31.2359	52.5531	-165.907	-0.060477	1.562192	-0.148920	-0.150282	0.055929	31.2359	-0.150263	-18.3143	-0.003054	NaN
1139	1.000000	1.575532	7.3762e+06	-57089.1	1055.82	-29736.8	0.000000	0.000000	7.575368	0.031570	NaN	0.000000	0.001642	0.001687	28.0795	0.021900	0.002057	10.6453	-134.868	-165.579	0.037866	1.574253	-0.136942	-0.138221	0.031570	10.6453	-0.139167	-11.4101	-0.002767	NaN
1139	1.000000	1.587565	7.3762e+06	-57089.1	1055.82	-29736.8	0.000000	0.000000	7.587401	0.015898	NaN	0.000000	0.001672	0.001709	28.0799	0.059619	0.002070	28.7979	-117.89	-165.144	-0.023449	1.586255	-0.124909	-0.126219	0.015898	28.7979	-0.125323	-6.171363	-0.002576	NaN
1139	1.000000	1.599597	7.3762e+06	-57089.1	1055.82	-29736.8	0.000000	0.000000	7.599432	-0.001222	NaN	0.000000	0.001697	0.001672	28.0795	0.211067	0.001948	108.373	-162.361	-164.041	-0.012569	1.598263	-0.112877	-0.114211	-0.001222	108.373	-0.112869	-3.451149	0.000354	NaN
1139	1.000000	1.611578	7.3762e+06	-57089.1	1055.82	-29736.8	0.000000	0.000000	7.611414	0.034640	NaN	0.000000	0.001654	0.001720	28.0796	0.128191	0.002019	63.4771	87.3456	-162.773	0.005430	1.610289	-0.100896	-0.102185	0.034640	63.4771	-0.101306	-1.952605	-0.017740	NaN
1139	1.000000	1.623598	7.3762e+06	-57089.1	1055.82	-29736.8	0.000000	0.000000	7.623430	-0.080256	NaN	0.000000	0.001677	0.001674	28.0796	0.095205	0.001952	48.773	50.7493	-167.839	-0.028539	1.622268	-0.088876	-0.090206	-0.080256	48.773	-0.087642	-0.950786	0.084410	NaN
1139	1.000000	1.635614	7.3762e+06	-57089.1	1055.82	-29736.8	0.000000	0.000000	7.635450	0.008375	NaN	0.000000	0.001718	0.001670	28.0795	0.055846	0.001978	28.2365	-33.8125	-164.524	-0.027888	1.634269	-0.076860	-0.078205	0.008375	28.2365	-0.077082	-0.522401	-0.016031	NaN
1139	1.000000	1.647579	7.3762e+06	-57089.1	1055.82	-29736.8	0.000000	0.000000	7.647418	0.093430	NaN	0.000000	0.001676	0.001659	28.0801	0.107206	0.002034	52.7019	143.809	-164.549	0.070625	1.646220	-0.064895	-0.066254	0.093430	52.7019	-0.066224	-0.269399	-0.346808	NaN
1139	1.000000	1.659622	7.3762e+06	-57089.1	1055.82	-29736.8	0.000000	0.000000	7.659455	-0.044475	NaN	0.000000	0.001693	0.001683	28.0797	0.098205	0.001928	50.9345	128.973	-163.508	0.009174	1.658319	-0.052853	-0.054155	-0.044475	50.9345	-0.052198	-0.106271	0.418508	NaN
1139	1.000000	1.671608	7.3762e+06	-57089.1	1055.82	-29736.8	0.000000	0.000000	7.671442	-0.022091	NaN	0.000000	0.001682	0.001712	28.0809	0.071872	0.002114	33.9953	-124.422	-164.812	0.016390	1.670315	-0.040866	-0.042159	-0.022091	33.9953	-0.040379	-0.046437	0.475730	NaN
1139	1.000000	1.683603	7.3762e+06	-57089.1	1055.82	-29736.8	0.000000	0.000000	7.683437	-0.023110	NaN	0.000000	0.001722	0.001698	28.081	0.077777	0.001956	39.7564	-101.361	-166.945	-0.056351	1.682301	-0.028871	-0.030173	-0.023110	39.7564	-0.028435	-0.020835	1.109181	NaN
1139	1.000000	1.695621	7.3762e+06	-57089.1	1055.82	-29736.8	0.000000	0.000000	7.695453	-0.092363	NaN	0.000000	0.001701	0.001705	28.0811	0.014719	0.001944	7.573052	120.903	-166.722	-0.048810	1.694322	-0.016853	-0.018152	-0.092363	7.573052	-0.007706	-0.005059	18.2581	NaN
1139	1.000000	1.707630	7.3762e+06	-57089.1	1055.82	-29736.8	0.000000	0.000000	7.707463	-0.049506	NaN	0.000000	0.001700	0.001712	28.0811	0.075716	0.001968	38.4653	-174.874	-165.756	-0.138686	1.706306	-0.004844	-0.006168	-0.049506	38.4653	-0.003879	-0.002700	18.3346	NaN
1139	2.000000	1.718173	7.3762e+06	-57089.1	1055.82	-29736.8	0.000000	0.000000	7.718423	10.0729	NaN	0.000000	0.001694	0.001717	28.0811	10.166	0.001549	6563.71	11.4193	-176.635	10.3829	1.717814	0.005699	0.005340	10.0729	6563.71	0.004548	0.003725	2704.41	98261.1
1139	2.000000	1.721120	7.3762e+06	-57089.1	1055.82	-29736.8	0.000000	0.000000	7.721552	14.5032	NaN	0.000000	0.001717	0.001694	28.0808	12.6821	0.001530	8289.21	7.046746	-175.36	14.0962	1.720823	0.008646	0.008349	14.5032	8289.21	0.007334	0.006366	2278.16	94917.7
1139	2.000000	1.724140	7.3762e+06	-57089.1	1055.82	-29736.8	0.000000	0.000000	7.724655	16.5375	NaN	0.000000	0.001729	0.001722	28.081	15.7965	0.001641	9623.56	10.0656	-178.944	17.0407	1.723805	0.011665	0.011331	16.5375	9623.56	0.010377	0.009603	1722.11	89723.1
1139	2.000000	1.727081	7.3762e+06	-57089.1	1055.82	-29736.8	0.000000	0.000000	7.727895	23.7912	NaN	0.000000	0.001708	0.001698	28.0809	20.3167	0.001626	12496	4.089653	-177.073	21.9318	1.726779	0.014607	0.014305	23.7912	12496	0.013179	0.012933	1839.6	100392
1139	2.000000	1.730076	7.3762e+06	-57089.1	1055.82	-29736.8	0.000000	0.000000	7.730959	25.456	NaN	0.000000	0.001646	0.001726	28.081	22.7388	0.001752	12981.3	6.779993	-177.86	24.4396	1.729678	0.017602	0.017204	25.456	12981.3	0.016132	0.016824	1513.07	91437.8
1139	2.000000	1.733028	7.3762e+06	-57089.1	1055.82	-29736.8	0.000000	0.000000	7.734134	30.8957	NaN	0.000000	0.001652	0.001745	28.0809	25.5462	0.001745	14638.1	6.180924	-178.071	30.0944	1.732734	0.020554	0.020260	30.8957	14638.1	0.018971	0.020951	1474.7	92397.3
1139	2.000000	1.736038	7.3762e+06	-57089.1	1055.82	-29736.8	0.000000	0.000000	7.737500	39.5316	NaN	0.000000	0.001714	0.001701	28.0812	28.7034	0.001844	15561.9	2.865741	-174.91	39.1287	1.735743	0.023564	0.023269	39.5316	15561.9	0.021659	0.025216	1567.69	89535.1
1139	2.000000	1.739048	7.3762e+06	-57089.1	1055.82	-29736.8	0.000000	0.000000	7.740810	46.8446	NaN	0.000000	0.001690	0.001728	28.08	31.8964	0.001720	18547.6	3.978345	179.749	46.0404	1.738695	0.026574	0.026221	46.8446	18547.6	0.024679	0.030435	1539.18	97135.1
1139	2.000000	1.742098	7.3762e+06	-57089.1	1055.82	-29736.8	0.000000	0.000000	7.743994	50.1008	NaN	0.000000	0.001697	0.001673	28.0797	34.9533	0.001887	18528	4.129212	-178.91	52.636	1.741827	0.029623	0.029353	50.1008	18528	0.027595	0.035907	1395.29	89332.7
1139	2.000000	1.745095	7.3762e+06	-57089.1	1055.82	-29736.8	0.000000	0.000000	7.747566	64.0557	NaN	0.000000	0.001729	0.001645	28.0802	37.1387	0.001766	21026.8	9.996767	176.171	65.1091	1.744663	0.032621	0.032189	64.0557	21026.8	0.030336	0.041443	1545.62	94366.9
1139	2.000000	1.747997	7.3762e+06	-57089.1	1055.82	-29736.8	0.000000	0.000000	7.750776	71.5435	NaN	0.000000	0.001780	0.001660	28.0796	39.434	0.001816	21720.8	3.414810	-179.43	69.0095	1.747641	0.035523	0.035167	71.5435	21720.8	0.033053	0.047309	1512.27	91238.5
1139	2.000000	1.751048	7.3762e+06	-57089.1	1055.82	-29736.8	0.000000	0.000000	7.754190	80.3757	NaN	0.000000	0.001732	0.001656	28.0795	41.7769	0.001728	24179	4.005360	178.985	81.1657	1.750684	0.038574	0.038209	80.3757	24179	0.036081	0.054293	1480.41	94806.7
1139	2.000000	1.754092	7.3762e+06	-57089.1	1055.82	-29736.8	0.000000	0.000000	7.757654	90.576	NaN	0.000000	0.001760	0.001678	28.0795	43.8301	0.001755	24978.1	3.180991	-179.544	92.0696	1.753700	0.041618	0.041226	90.576	24978.1	0.038898	0.061212	1479.71	92239
1139	2.000000	1.756994	7.3762e+06	-57089.1	1055.82	-29736.8	0.000000	0.000000	7.760960	100.392	NaN	0.000000	0.001762	0.001683	28.0796	47.1642	0.001734	27205.8	4.697160	176.859	99.1939	1.756639	0.044520	0.044165	100.392	27205.8	0.041752	0.068636	1462.67	94876.7
1139	2.000000	1.759995	7.3762e+06	-57089.1	1055.82	-29736.8	0.000000	0.000000	7.764314	108.986	NaN	0.000000	0.001769	0.001669	28.0805	51.1655	0.001771	28890.6	6.890857	173.971	108.307	1.759663	0.047521	0.047189	108.986	28890.6	0.044692	0.076714	1420.67	95299.8
1139	2.000000	1.763030	7.3762e+06	-57089.1	1055.82	-29736.8	0.000000	0.000000	7.768117	127.635	NaN	0.000000	0.001728	0.001674	28.0793	53.6998	0.001778	30200.3	3.284801	176.762	125.911	1.762653	0.050556	0.050179	127.635	30200.3	0.047387	0.084507	1510.35	94915.9
1139	2.000000	1.766147	7.3762e+06	-57089.1	1055.82	-29736.8	0.000000	0.000000	7.771404	131.768	NaN	0.000000	0.001745	0.001661	28.0798	57.9103	0.001776	32601	6.785728	173.309	139.711	1.765782	0.053673	0.053308	131.768	32601	0.050642	0.094407	1395.74	96940
1139	2.000000	1.768956	7.3762e+06	-57089.1	1055.82	-29736.8	0.000000	0.000000	7.775131	154.078	NaN	0.000000	0.001751	0.001647	28.0794	59.6597	0.001729	34496.1	4.613829	174.567	152.096	1.768672	0.056482	0.056198	154.078	34496.1	0.053132	0.102340	1505.56	98519.4
1139	2.000000	1.771907	7.3762e+06	-57089.1	1055.82	-29736.8	0.000000	0.000000	7.778662	168.181	NaN	0.000000	0.001721	0.001628	28.08	63.41	0.001824	34771.2	4.286542	174.707	162.479	1.771665	0.059433	0.059191	168.181	34771.2	0.055805	0.111197	1512.46	95267.7
1139	2.000000	1.775061	7.3762e+06	-57089.1	1055.82	-29736.8	0.000000	0.000000	7.782683	189.262	NaN	0.000000	0.001693	0.001661	28.0808	65.3716	0.001741	37554.1	4.960818	174.992	190.21	1.774548	0.062587	0.062074	189.262	37554.1	0.058807	0.121565	1556.88	98407.1
1139	2.000000	1.777963	7.3762e+06	-57089.1	1055.82	-29736.8	0.000000	0.000000	7.786210	204.465	NaN	0.000000	0.001710	0.001671	28.0806	67.9779	0.001815	37445.1	4.676703	174.203	203.362	1.777606	0.065489	0.065132	204.465	37445.1	0.061393	0.130852	1562.57	94575.5
1139	2.000000	1.780952	7.3762e+06	-57089.1	1055.82	-29736.8	0.000000	0.000000	7.789717	217.059	NaN	0.000000	0.001684	0.001675	28.0808	70.7462	0.001824	38788.8	5.795731	172.988	214.473	1.780667	0.068478	0.068193	217.059	38788.8	0.064281	0.141604	1532.86	94176.2
1139	2.000000	1.783932	7.3762e+06	-57089.1	1055.82	-29736.8	0.000000	0.000000	7.793444	235.21	NaN	0.000000	0.001726	0.001636	28.0807	73.6534	0.001872	39335.3	5.579303	173.336	233.177	1.783675	0.071458	0.071201	235.21	39335.3	0.066973	0.151993	1547.5	92181.4
1139	2.000000	1.786990	7.3762e+06	-57089.1	1055.82	-29736.8	0.000000	0.000000	7.797139	250.666	NaN	0.000000	0.001707	0.001628	28.0809	76.234	0.001828	41711.7	9.080901	169.724	251.172	1.786568	0.074516	0.074094	250.666	41711.7	0.070009	0.164126	1527.28	94068.2
1139	2.000000	1.790010	7.3762e+06	-57089.1	1055.82	-29736.8	0.000000	0.000000	7.800824	266.833	NaN	0.000000	0.001699	0.001680	28.081	78.6344	0.001753	44866.3	6.448870	172.082	267.833	1.789475	0.077536	0.077001	266.833	44866.3	0.073075	0.176823	1509.04	97482
1139	2.000000	1.792958	7.3762e+06	-57089.1	1055.82	-29736.8	0.000000	0.000000	7.804519	284.998	NaN	0.000000	0.001710	0.001659	28.0804	81.5745	0.001861	43835.5	3.400877	174.731	284.957	1.792616	0.080484	0.080141	284.998	43835.5	0.075607	0.187644	1518.83	92455.3
1139	2.000000	1.795941	7.3762e+06	-57089.1	1055.82	-29736.8	0.000000	0.000000	7.808251	303.183	NaN	0.000000	0.001721	0.001637	28.0808	84.6539	0.001760	48109	6.327574	171.291	300.69	1.795540	0.083467	0.083066	303.183	48109	0.078741	0.201451	1505	97929.9
1139	2.000000	1.798954	7.3762e+06	-57089.1	1055.82	-29736.8	0.000000	0.000000	7.812293	328.221	NaN	0.000000	0.001735	0.001655	28.0804	88.0458	0.001823	48307.4	5.194661	171.82	325.206	1.798590	0.086480	0.086116	328.221	48307.4	0.081384	0.213455	1537.66	95528.6
1139	2.000000	1.802022	7.37621e+06	-57089.1	1055.82	-29736.8	0.000000	0.000000	7.815946	342.435	NaN	0.000000	0.001753	0.001647	28.0806	90.383	0.001750	51634	4.421582	172.843	348.303	1.801640	0.089547	0.089166	342.435	51634	0.084573	0.228371	1499.47	98716.2
1139	2.000000	1.804908	7.37621e+06	-57089.1	1055.82	-29736.8	0.000000	0.000000	7.819945	369.493	NaN	0.000000	0.001713	0.001676	28.0807	91.8997	0.001837	50017.4	3.468247	173.219	365.538	1.804599	0.092434	0.092125	369.493	50017.4	0.086893	0.239516	1542.67	93374.1
1139	2.000000	1.808045	7.37621e+06	-57089.1	1055.82	-29736.8	0.000000	0.000000	7.823818	387.375	NaN	0.000000	0.001709	0.001692	28.0794	92.976	0.001750	53115.9	3.212734	173.872	392.829	1.807671	0.095571	0.095197	387.375	53115.9	0.090101	0.255334	1517.13	96038
1139	2.000000	1.810958	7.37621e+06	-57089.1	1055.82	-29736.8	0.000000	0.000000	7.827602	408.528	NaN	0.000000	0.001727	0.001654	28.0796	96.0138	0.001880	51070	1.513935	175.922	408.114	1.810534	0.098484	0.098060	408.528	51070	0.092485	0.267396	1527.8	90232.2
1139	2.000000	1.813968	7.37621e+06	-57089.1	1055.82	-29736.8	0.000000	0.000000	7.831732	435.777	NaN	0.000000	0.001711	0.001686	28.0794	99.0238	0.001822	54342.7	5.938877	170.858	438.099	1.813511	0.101493	0.101037	435.777	54342.7	0.095479	0.282915	1540.31	93344
1139	2.000000	1.816399	7.37621e+06	-57089.1	1055.82	-29736.8	0.000000	0.000000	7.834879	453.173	NaN	0.000000	0.001689	0.001696	28.0795	101.517	0.001779	57077.3	5.456174	-8.919973	449.275	1.815999	0.103924	0.103525	453.173	57077.3	0.097970	0.296134	1530.3	95828