File: remote_trans/data/nanoindenter/0828-1/data/Data_2025-08-06,11h17m57s/2025-07-22_16-23-58_1_288.txt
2025-07-22, 16:23:58, 1
Index	Phase	Displacement	Time	Pos X	Pos Y	Pos Z	Rot A	Rot B	Piezo Z	Force A	Force B	Gripper	Voltage A	Voltage B	Temperature	Amplitude force	Amplitude pos	Stiffness	Phase shift	Phase excitation	Force A raw	Displacement raw	HMax	HMax raw	Real Force	Real Stiffness	Contact Depth	Area	Hardness	Reduced Mod.
[#]	[#]	[um]	[s]	[um]	[um]	[um]	[m°]	[m°]	[um]	[uN]	[uN]	[V]	[V]	[V]	[°C]	[uN]	[um]	[N/m]	[°]	[°]	[uN]	[um]	[um]	[um]	[uN]	[N/m]	[um]	[um^2]	[MPa]	[MPa]
288	1.000000	0.002312	7.36787e+06	-53039.1	955.819	-29747.8	0.000000	0.000000	6.002793	-0.031830	NaN	0.000000	0.001730	0.001714	28.0811	0.128037	0.000800	160.125	140.286	-155.698	0.010113	0.000995	-1.107694	-1.109011	-0.031830	160.125	-1.107545	-6.329013E+14	5.029278E-17	NaN
288	1.000000	0.012379	7.36787e+06	-53039.1	955.82	-29747.8	0.000000	0.000000	6.012860	-0.027704	NaN	0.000000	0.001732	0.001654	28.0806	0.058089	0.001285	45.2051	108.084	19.2126	-0.027859	0.010941	-1.097627	-1.099065	-0.027704	45.2051	-1.097167	-4.592438E+14	6.032495E-17	NaN
288	1.000000	0.022281	7.36787e+06	-53039.1	955.818	-29747.8	0.000000	0.000000	6.022761	-0.029123	NaN	0.000000	0.001727	0.001659	28.08	0.129380	0.001682	76.9229	90.6244	-164.885	0.005276	0.020982	-1.087726	-1.089024	-0.029123	76.9229	-1.087442	-3.399845E+14	8.565926E-17	NaN
288	1.000000	0.032291	7.36787e+06	-53039.1	955.819	-29747.8	0.000000	0.000000	6.032772	-0.012134	NaN	0.000000	0.001704	0.001684	28.0803	0.054655	0.001902	28.7316	-77.4419	17.4482	-0.029544	0.030904	-1.077715	-1.079102	-0.012134	28.7316	-1.077399	-2.492167E+14	4.868827E-17	NaN
288	1.000000	0.042268	7.36787e+06	-53039.1	955.819	-29747.8	0.000000	0.000000	6.042751	0.016785	NaN	0.000000	0.001735	0.001682	28.0803	0.024889	0.001991	12.4976	-163.816	-166.367	0.089204	0.041005	-1.067738	-1.069002	0.016785	12.4976	-1.068745	-1.906924E+14	-8.802279E-17	NaN
288	1.000000	0.052275	7.36787e+06	-53039.1	955.818	-29747.8	0.000000	0.000000	6.052755	-0.044247	NaN	0.000000	0.001711	0.001659	28.0806	0.054477	0.001998	27.2619	-143.717	15.184	-0.100179	0.050915	-1.057732	-1.059091	-0.044247	27.2619	-1.056514	-1.306094E+14	3.387757E-16	NaN
288	1.000000	0.062276	7.36787e+06	-53039.1	955.818	-29747.8	0.000000	0.000000	6.062759	0.019332	NaN	0.000000	0.001747	0.001656	28.079	0.098759	0.002233	44.2344	160.403	-163.927	-0.006473	0.060990	-1.047730	-1.049016	0.019332	44.2344	-1.048058	-1.005319E+14	-1.923000E-16	NaN
288	1.000000	0.072274	7.36787e+06	-53039.1	955.818	-29747.8	0.000000	0.000000	6.072754	-0.050054	NaN	0.000000	0.001713	0.001694	28.0793	0.073754	0.002097	35.1706	-138.066	14.3099	-0.062805	0.070912	-1.037732	-1.039094	-0.050054	35.1706	-1.036665	-7.065143E+13	7.084571E-16	NaN
288	1.000000	0.082314	7.36787e+06	-53039.1	955.818	-29747.8	0.000000	0.000000	6.082794	-0.037948	NaN	0.000000	0.001714	0.001632	28.0791	0.112506	0.002110	53.3226	169.009	-161.279	-0.015914	0.080923	-1.027692	-1.029083	-0.037948	53.3226	-1.027158	-5.263303E+13	7.209923E-16	NaN
288	1.000000	0.092293	7.36787e+06	-53039.1	955.819	-29747.8	0.000000	0.000000	6.092776	0.015392	NaN	0.000000	0.001647	0.001605	28.0793	0.049489	0.002125	23.2908	-157.037	12.2532	-0.028660	0.090931	-1.017713	-1.019075	0.015392	23.2908	-1.018209	-3.988887E+13	-3.858777E-16	NaN
288	1.000000	0.102277	7.36787e+06	-53039.1	955.818	-29747.8	0.000000	0.000000	6.102757	-0.049681	NaN	0.000000	0.001665	0.001625	28.079	0.022717	0.001930	11.7711	-36.5683	-159.824	-0.164340	0.100958	-1.007729	-1.009048	-0.049681	11.7711	-1.004564	-2.613413E+13	1.901001E-15	NaN
288	1.000000	0.112315	7.36787e+06	-53039.1	955.818	-29747.8	0.000000	0.000000	6.112796	-0.023720	NaN	0.000000	0.001671	0.001671	28.0793	0.086072	0.001933	44.5245	89.1265	16.2091	-0.078639	0.110866	-0.997691	-0.999141	-0.023720	44.5245	-0.997291	-2.085939E+13	1.137119E-15	NaN
288	1.000000	0.122310	7.36787e+06	-53039.1	955.82	-29747.8	0.000000	0.000000	6.122791	-0.035759	NaN	0.000000	0.001659	0.001673	28.0792	0.076510	0.002055	37.2273	21.4451	-167.719	0.005359	0.121053	-0.987696	-0.988953	-0.035759	37.2273	-0.986976	-1.514878E+13	2.360543E-15	NaN
288	1.000000	0.132290	7.36787e+06	-53039.1	955.818	-29747.8	0.000000	0.000000	6.132772	-0.020423	NaN	0.000000	0.001665	0.001655	28.0794	0.084574	0.002020	41.8724	154.309	14.2192	-0.026172	0.130908	-0.977716	-0.979099	-0.020423	41.8724	-0.977350	-1.123846E+13	1.817206E-15	NaN
288	1.000000	0.142313	7.36787e+06	-53039.1	955.818	-29747.8	0.000000	0.000000	6.142795	-0.007582	NaN	0.000000	0.001636	0.001718	28.0789	0.032848	0.001964	16.7253	-103.55	-163.149	-0.028867	0.140990	-0.967693	-0.969016	-0.007582	16.7253	-0.967353	-8.241130E+12	9.200165E-16	NaN
288	1.000000	0.152328	7.36787e+06	-53039.1	955.817	-29747.8	0.000000	0.000000	6.152808	-0.048451	NaN	0.000000	0.001687	0.001680	28.0791	0.059355	0.002109	28.1464	42.7851	13.5207	-0.059116	0.150868	-0.957679	-0.959138	-0.048451	28.1464	-0.956388	-5.863592E+12	8.262956E-15	NaN
288	1.000000	0.162308	7.36787e+06	-53039.1	955.818	-29747.8	0.000000	0.000000	6.162787	-0.078523	NaN	0.000000	0.001687	0.001678	28.0793	0.114018	0.002108	54.101	-58.2195	-161.38	-0.105944	0.160986	-0.947698	-0.949020	-0.078523	54.101	-0.946609	-4.328112E+12	1.814245E-14	NaN
288	1.000000	0.172320	7.36787e+06	-53039.1	955.818	-29747.8	0.000000	0.000000	6.172798	-0.100845	NaN	0.000000	0.001673	0.001690	28.0792	0.138695	0.001994	69.5389	153.955	16.512	-0.088689	0.171014	-0.937686	-0.938992	-0.100845	69.5389	-0.936598	-3.171338E+12	3.179894E-14	NaN
288	1.000000	0.182320	7.36787e+06	-53039.1	955.819	-29747.8	0.000000	0.000000	6.182801	-0.016832	NaN	0.000000	0.001673	0.001684	28.0793	0.043985	0.002012	21.857	-31.2372	-164.81	-0.048115	0.181013	-0.927686	-0.928994	-0.016832	21.857	-0.927109	-2.361417E+12	7.128033E-15	NaN
288	1.000000	0.192319	7.36787e+06	-53039.1	955.819	-29747.8	0.000000	0.000000	6.192799	-0.052494	NaN	0.000000	0.001684	0.001682	28.0795	0.035590	0.001989	17.8921	114.158	14.5362	-0.078040	0.190965	-0.917687	-0.919042	-0.052494	17.8921	-0.915487	-1.645387E+12	3.190358E-14	NaN
288	1.000000	0.202343	7.36787e+06	-53039.1	955.82	-29747.8	0.000000	0.000000	6.202822	-0.076338	NaN	0.000000	0.001676	0.001645	28.0803	0.078110	0.001813	43.081	-68.0053	-166.317	-0.115387	0.200981	-0.907663	-0.909025	-0.076338	43.081	-0.906334	-1.237779E+12	6.167311E-14	NaN
288	1.000000	0.212350	7.36787e+06	-53039.1	955.818	-29747.8	0.000000	0.000000	6.212831	-0.024777	NaN	0.000000	0.001633	0.001711	28.0805	0.063708	0.002017	31.58	-138.35	12.5482	-0.007533	0.210974	-0.897656	-0.899033	-0.024777	31.58	-0.897067	-9.277628E+11	2.670573E-14	NaN
288	1.000000	0.222343	7.36787e+06	-53039.1	955.819	-29747.8	0.000000	0.000000	6.222823	-0.051774	NaN	0.000000	0.001658	0.001670	28.0803	0.096899	0.001922	50.4102	-77.0846	-166.473	-0.032471	0.221069	-0.887663	-0.888937	-0.051774	50.4102	-0.886893	-6.759470E+11	7.659504E-14	NaN
288	1.000000	0.232373	7.36787e+06	-53039.1	955.819	-29747.8	0.000000	0.000000	6.232853	-0.043381	NaN	0.000000	0.001672	0.001690	28.0807	0.040878	0.001993	20.5117	-9.307529	13.3444	-0.023426	0.231045	-0.877633	-0.878962	-0.043381	20.5117	-0.876047	-4.822158E+11	8.996264E-14	NaN
288	1.000000	0.242351	7.36787e+06	-53039.1	955.818	-29747.8	0.000000	0.000000	6.242832	-0.009474	NaN	0.000000	0.001646	0.001688	28.0803	0.153892	0.002097	73.4036	-44.4882	-163.995	0.043515	0.241037	-0.867655	-0.868969	-0.009474	73.4036	-0.867559	-3.701798E+11	2.559238E-14	NaN
288	1.000000	0.252345	7.36787e+06	-53039.1	955.818	-29747.8	0.000000	0.000000	6.252825	-0.035911	NaN	0.000000	0.001637	0.001661	28.0808	0.125358	0.001971	63.6055	68.0985	15.7766	-0.065755	0.250980	-0.857662	-0.859026	-0.035911	63.6055	-0.857238	-2.683712E+11	1.338121E-13	NaN
288	1.000000	0.262379	7.36787e+06	-53039.1	955.818	-29747.8	0.000000	0.000000	6.262861	0.002109	NaN	0.000000	0.001658	0.001651	28.0804	0.091001	0.002070	43.9668	-109.194	-163.549	-0.053004	0.261036	-0.847627	-0.848970	0.002109	43.9668	-0.847663	-1.991099E+11	-1.059315E-14	NaN
288	1.000000	0.272331	7.36787e+06	-53039.1	955.818	-29747.8	0.000000	0.000000	6.272812	-0.019143	NaN	0.000000	0.001667	0.001651	28.0805	0.037438	0.002041	18.3387	-153.672	16.1757	-0.013393	0.271027	-0.837675	-0.838979	-0.019143	18.3387	-0.836893	-1.422956E+11	1.345274E-13	NaN
288	1.000000	0.282357	7.36787e+06	-53039.1	955.818	-29747.8	0.000000	0.000000	6.282835	-0.104141	NaN	0.000000	0.001638	0.001634	28.0802	0.043720	0.002079	21.0296	76.0277	-167.699	-0.071961	0.281114	-0.827649	-0.828892	-0.104141	21.0296	-0.823935	-9.496506E+10	1.096621E-12	NaN
288	1.000000	0.292346	7.36787e+06	-53039.1	955.818	-29747.8	0.000000	0.000000	6.292827	-0.026062	NaN	0.000000	0.001633	0.001654	28.0802	0.031356	0.001922	16.3128	-35.9917	14.0727	0.050682	0.290989	-0.817660	-0.819017	-0.026062	16.3128	-0.816462	-7.520121E+10	3.465604E-13	NaN
288	1.000000	0.302383	7.36787e+06	-53039.1	955.819	-29747.8	0.000000	0.000000	6.302866	0.007256	NaN	0.000000	0.001589	0.001700	28.0802	0.073749	0.001896	38.8881	107.704	-166.481	-0.058467	0.301067	-0.807623	-0.808939	0.007256	38.8881	-0.807763	-5.730832E+10	-1.266121E-13	NaN
288	1.000000	0.312357	7.36787e+06	-53039.1	955.818	-29747.8	0.000000	0.000000	6.312837	-0.057282	NaN	0.000000	0.001632	0.001702	28.0802	0.090802	0.002107	43.092	105.007	16.3252	-0.050948	0.311038	-0.797649	-0.798968	-0.057282	43.092	-0.796652	-4.049644E+10	1.414505E-12	NaN
288	1.000000	0.322377	7.36787e+06	-53039.1	955.818	-29747.8	0.000000	0.000000	6.322858	-0.021918	NaN	0.000000	0.001646	0.001683	28.0801	0.078886	0.001835	42.9951	53.2709	-166.44	0.001847	0.321115	-0.787629	-0.788892	-0.021918	42.9951	-0.787247	-3.017775E+10	7.263032E-13	NaN
288	1.000000	0.332405	7.36787e+06	-53039.1	955.818	-29747.8	0.000000	0.000000	6.332885	-0.048442	NaN	0.000000	0.001645	0.001650	28.0799	0.128511	0.002017	63.7197	-131.071	15.5179	-0.061146	0.331067	-0.777601	-0.778939	-0.048442	63.7197	-0.777031	-2.192187E+10	2.209739E-12	NaN
288	1.000000	0.342386	7.36787e+06	-53039.1	955.817	-29747.8	0.000000	0.000000	6.342869	0.018767	NaN	0.000000	0.001631	0.001712	28.079	0.094431	0.002037	46.3692	-115.441	-164.331	-0.032640	0.341083	-0.767620	-0.768923	0.018767	46.3692	-0.767924	-1.648443E+10	-1.138487E-12	NaN
288	1.000000	0.352387	7.36787e+06	-53039.1	955.818	-29747.8	0.000000	0.000000	6.352865	-0.088118	NaN	0.000000	0.001678	0.001692	28.079	0.099544	0.001908	52.1719	20.2203	13.4233	-0.141897	0.351062	-0.757619	-0.758944	-0.088118	52.1719	-0.756352	-1.147292E+10	7.680526E-12	NaN
288	1.000000	0.362402	7.36787e+06	-53039.1	955.819	-29747.8	0.000000	0.000000	6.362885	0.015110	NaN	0.000000	0.001726	0.001667	28.0789	0.029407	0.002031	14.4822	134.921	-165.312	-0.073785	0.361125	-0.747604	-0.748881	0.015110	14.4822	-0.748386	-8.938302E+9	-1.690508E-12	NaN
288	1.000000	0.372402	7.36787e+06	-53039.1	955.818	-29747.8	0.000000	0.000000	6.372885	0.041637	NaN	0.000000	0.001720	0.001625	28.0789	0.137990	0.002057	67.0729	-57.6479	15.259	-0.008118	0.371036	-0.737605	-0.738970	0.041637	67.0729	-0.738070	-6.467991E+9	-6.437400E-12	NaN
288	1.000000	0.382408	7.36787e+06	-53039.1	955.819	-29747.8	0.000000	0.000000	6.382888	-0.036536	NaN	0.000000	0.001645	0.001667	28.0797	0.088507	0.001857	47.6598	152.203	-165.658	-0.116049	0.381178	-0.727599	-0.728829	-0.036536	47.6598	-0.727024	-4.573409E+9	7.988851E-12	NaN
288	1.000000	0.392441	7.36787e+06	-53039.1	955.82	-29747.8	0.000000	0.000000	6.392921	-0.042981	NaN	0.000000	0.001626	0.001675	28.0787	0.008922	0.001954	4.565179	-67.9442	11.5703	0.066266	0.391028	-0.717565	-0.718978	-0.042981	4.565179	-0.710504	-2.722237E+9	1.578894E-11	NaN
288	1.000000	0.402415	7.36787e+06	-53039.1	955.817	-29747.8	0.000000	0.000000	6.402896	-0.016763	NaN	0.000000	0.001607	0.001720	28.079	0.014334	0.002004	7.151471	146.057	-169.638	0.024809	0.401124	-0.707592	-0.708882	-0.016763	7.151471	-0.705834	-2.350614E+9	7.131214E-12	NaN
288	1.000000	0.412385	7.36787e+06	-53039.1	955.819	-29747.8	0.000000	0.000000	6.412868	0.028384	NaN	0.000000	0.001630	0.001634	28.0788	0.061577	0.001915	32.16	-79.3613	15.4203	-0.110930	0.411008	-0.697621	-0.698998	0.028384	32.16	-0.698283	-1.853899E+9	-1.531037E-11	NaN
288	1.000000	0.422432	7.36787e+06	-53039.1	955.818	-29747.8	0.000000	0.000000	6.422912	-0.044071	NaN	0.000000	0.001601	0.001646	28.079	0.025014	0.002012	12.4355	-155.687	-162.601	-0.024690	0.421175	-0.687574	-0.688831	-0.044071	12.4355	-0.684916	-1.217388E+9	3.620147E-11	NaN
288	1.000000	0.432407	7.36787e+06	-53039.1	955.819	-29747.8	0.000000	0.000000	6.432890	0.015089	NaN	0.000000	0.001601	0.001657	28.0788	0.059848	0.002085	28.7011	47.8939	14.4587	0.069511	0.431038	-0.677599	-0.678968	0.015089	28.7011	-0.677994	-9.789552E+8	-1.541358E-11	NaN
288	1.000000	0.442443	7.36787e+06	-53039.1	955.819	-29747.8	0.000000	0.000000	6.442922	-0.064378	NaN	0.000000	0.001665	0.001632	28.0791	0.072154	0.001994	36.1789	-145.85	-163.198	0.090589	0.441170	-0.667563	-0.668836	-0.064378	36.1789	-0.666229	-6.757159E+8	9.527397E-11	NaN
288	1.000000	0.452448	7.36787e+06	-53039.1	955.818	-29747.8	0.000000	0.000000	6.452928	-0.035125	NaN	0.000000	0.001652	0.001632	28.0789	0.005900	0.002085	2.829421	96.5643	14.1144	-0.037777	0.451102	-0.657558	-0.658904	-0.035125	2.829421	-0.648248	-3.831869E+8	9.166665E-11	NaN
288	1.000000	0.462429	7.36787e+06	-53039.1	955.819	-29747.8	0.000000	0.000000	6.462911	0.013589	NaN	0.000000	0.001631	0.001628	28.0792	0.069649	0.002003	34.7721	83.7534	-165.21	0.050370	0.461170	-0.647577	-0.648836	0.013589	34.7721	-0.647870	-3.786516E+8	-3.588739E-11	NaN
288	1.000000	0.472453	7.36787e+06	-53039.1	955.818	-29747.8	0.000000	0.000000	6.472933	-0.057757	NaN	0.000000	0.001619	0.001680	28.0801	0.047264	0.001894	24.9506	-116.777	19.5532	-0.091008	0.471089	-0.637553	-0.638917	-0.057757	24.9506	-0.635817	-2.587515E+8	2.232123E-10	NaN
288	1.000000	0.482473	7.36787e+06	-53039.1	955.819	-29747.8	0.000000	0.000000	6.482951	-0.086349	NaN	0.000000	0.001628	0.001647	28.0805	0.012120	0.001940	6.247075	112.074	-165.782	-0.117653	0.481150	-0.627533	-0.628856	-0.086349	6.247075	-0.617167	-1.434441E+8	6.019693E-10	NaN
288	1.000000	0.492455	7.36787e+06	-53039.1	955.819	-29747.8	0.000000	0.000000	6.492940	0.065833	NaN	0.000000	0.001630	0.001702	28.0803	0.077887	0.001983	39.2783	172.025	13.0951	0.044549	0.491067	-0.617551	-0.618939	0.065833	39.2783	-0.618808	-1.510950E+8	-4.357090E-10	NaN
288	1.000000	0.502478	7.36787e+06	-53039.1	955.817	-29747.8	0.000000	0.000000	6.502957	-0.075837	NaN	0.000000	0.001641	0.001691	28.0803	0.026765	0.002169	12.3391	-83.2596	-164.461	-0.013948	0.501151	-0.607528	-0.608856	-0.075837	12.3391	-0.602919	-9.133869E+7	8.302803E-10	NaN
288	1.000000	0.512485	7.36787e+06	-53039.1	955.818	-29747.8	0.000000	0.000000	6.512966	-0.028677	NaN	0.000000	0.001652	0.001669	28.0801	0.172812	0.002026	85.2847	127.249	16.6646	-0.076486	0.511086	-0.597521	-0.598920	-0.028677	85.2847	-0.597269	-7.635611E+7	3.755739E-10	NaN
288	1.000000	0.522476	7.36787e+06	-53039.1	955.819	-29747.8	0.000000	0.000000	6.522958	-0.009367	NaN	0.000000	0.001674	0.001691	28.0803	0.111417	0.002084	53.4561	157.733	-162.988	-0.010957	0.521166	-0.587530	-0.588840	-0.009367	53.4561	-0.587398	-5.582058E+7	1.678045E-10	NaN
288	1.000000	0.532466	7.36787e+06	-53039.1	955.818	-29747.8	0.000000	0.000000	6.532948	0.009729	NaN	0.000000	0.001677	0.001659	28.0802	0.107779	0.002087	51.651	101.499	16.1779	-0.064123	0.531120	-0.577540	-0.578886	0.009729	51.651	-0.577682	-4.099436E+7	-2.373304E-10	NaN
288	1.000000	0.542462	7.36787e+06	-53039.1	955.818	-29747.8	0.000000	0.000000	6.542945	0.037328	NaN	0.000000	0.001696	0.001620	28.0801	0.143746	0.001964	73.1876	-133.694	-165.278	-0.018098	0.541136	-0.567545	-0.568870	0.037328	73.1876	-0.567927	-3.005996E+7	-1.241792E-9	NaN
288	1.000000	0.552477	7.36787e+06	-53039.1	955.818	-29747.8	0.000000	0.000000	6.552956	-0.057157	NaN	0.000000	0.001659	0.001646	28.0802	0.094531	0.001957	48.2932	23.4212	13.4186	-0.045327	0.551122	-0.557530	-0.558884	-0.057157	48.2932	-0.556642	-2.098534E+7	2.723642E-9	NaN
288	1.000000	0.562493	7.36787e+06	-53039.1	955.818	-29747.8	0.000000	0.000000	6.562969	-0.132129	NaN	0.000000	0.001694	0.001643	28.0802	0.087316	0.001946	44.8716	10.5459	-162.805	-0.052485	0.561170	-0.547513	-0.548836	-0.132129	44.8716	-0.545305	-1.461856E+7	9.038462E-9	NaN
288	1.000000	0.572474	7.36787e+06	-53039.1	955.819	-29747.8	0.000000	0.000000	6.572955	-0.018472	NaN	0.000000	0.001711	0.001666	28.0802	0.026701	0.001993	13.3989	-67.1964	16.2576	0.040799	0.571136	-0.537532	-0.538870	-0.018472	13.3989	-0.536498	-1.103531E+7	1.673907E-9	NaN
288	1.000000	0.582510	7.36787e+06	-53039.1	955.818	-29747.8	0.000000	0.000000	6.582993	0.025290	NaN	0.000000	0.001661	0.001631	28.0801	0.091143	0.001968	46.305	-168.076	-162.002	-0.017405	0.581209	-0.527496	-0.528797	0.025290	46.305	-0.527906	-8.38464e+06	-3.016177E-9	NaN
288	1.000000	0.592494	7.36787e+06	-53039.1	955.818	-29747.8	0.000000	0.000000	6.592978	0.055951	NaN	0.000000	0.001658	0.001653	28.0802	0.014089	0.001960	7.187409	-43.7395	12.1338	-0.009467	0.591135	-0.517513	-0.518872	0.055951	7.187409	-0.523351	-7.24755e+06	-7.719937E-9	NaN
288	1.000000	0.602533	7.36787e+06	-53039.1	955.818	-29747.8	0.000000	0.000000	6.603014	-0.020606	NaN	0.000000	0.001640	0.001652	28.0805	0.108785	0.002047	53.1373	-3.431185	-165.717	-0.113110	0.601200	-0.507474	-0.508806	-0.020606	53.1373	-0.507183	-4.31683e+06	4.773519E-9	NaN
288	1.000000	0.612502	7.36787e+06	-53039.1	955.817	-29747.8	0.000000	0.000000	6.612985	0.006326	NaN	0.000000	0.001593	0.001682	28.0792	0.056917	0.002174	26.1785	-75.4016	15.8887	0.039043	0.611126	-0.497504	-0.498880	0.006326	26.1785	-0.497685	-3.18212e+06	-1.988040E-9	NaN
288	1.000000	0.622512	7.36787e+06	-53039.1	955.818	-29747.8	0.000000	0.000000	6.622993	-0.036170	NaN	0.000000	0.001619	0.001702	28.079	0.012081	0.002211	5.464072	-164.201	-163.903	0.018467	0.621172	-0.487494	-0.488834	-0.036170	5.464072	-0.482530	-1.95403e+06	1.851041E-8	NaN
288	1.000000	0.632477	7.36787e+06	-53039.1	955.819	-29747.8	0.000000	0.000000	6.632957	-0.061279	NaN	0.000000	0.001618	0.001706	28.0792	0.044357	0.001957	22.6634	134.875	16.9093	-0.058770	0.631223	-0.477529	-0.478783	-0.061279	22.6634	-0.475501	-1.55784e+06	3.933603E-8	NaN
288	1.000000	0.642486	7.36787e+06	-53039.1	955.818	-29747.8	0.000000	0.000000	6.642967	-0.027656	NaN	0.000000	0.001650	0.001652	28.0793	0.067479	0.002155	31.3119	-179.132	-165.068	-0.023423	0.641223	-0.467520	-0.468783	-0.027656	31.3119	-0.466858	-1.17848e+06	2.346715E-8	NaN
288	1.000000	0.652528	7.36787e+06	-53039.1	955.818	-29747.8	0.000000	0.000000	6.653009	-0.023742	NaN	0.000000	0.001652	0.001671	28.0793	0.054098	0.002033	26.6132	-174.675	17.2937	-0.085192	0.651176	-0.457478	-0.458831	-0.023742	26.6132	-0.456809	-851450	2.788402E-8	NaN
288	1.000000	0.662511	7.36787e+06	-53039.1	955.818	-29747.8	0.000000	0.000000	6.662992	-0.012392	NaN	0.000000	0.001650	0.001660	28.0791	0.066981	0.002049	32.6937	-32.1274	-164.052	-0.125098	0.661246	-0.447496	-0.448760	-0.012392	32.6937	-0.447211	-623822	1.986424E-8	NaN
288	1.000000	0.672528	7.36787e+06	-53039.1	955.818	-29747.8	0.000000	0.000000	6.673009	-0.001892	NaN	0.000000	0.001712	0.001667	28.0793	0.052683	0.002040	25.83	-109.704	14.7276	-0.017570	0.671153	-0.437479	-0.438853	-0.001892	25.83	-0.437424	-453933	4.169076E-9	NaN
288	1.000000	0.682540	7.36787e+06	-53039.1	955.819	-29747.8	0.000000	0.000000	6.683019	-0.064017	NaN	0.000000	0.001662	0.001628	28.0792	0.135764	0.001946	69.7607	156.53	-165.309	-0.030389	0.681241	-0.427466	-0.428765	-0.064017	69.7607	-0.426778	-320969	1.994495E-7	NaN
288	1.000000	0.692583	7.36787e+06	-53039.1	955.819	-29747.8	0.000000	0.000000	6.693063	-0.047728	NaN	0.000000	0.001656	0.001620	28.0791	0.051295	0.001884	27.2327	82.2455	15.4372	-0.021021	0.691178	-0.417423	-0.418828	-0.047728	27.2327	-0.416108	-226565	2.106579E-7	NaN
288	1.000000	0.702527	7.36787e+06	-53039.1	955.819	-29747.8	0.000000	0.000000	6.703009	0.012967	NaN	0.000000	0.001649	0.001672	28.0791	0.091752	0.002070	44.3245	57.7923	-163.49	0.017013	0.701185	-0.407479	-0.408821	0.012967	44.3245	-0.407699	-172054	-7.536308E-8	NaN
288	1.000000	0.712527	7.36787e+06	-53039.1	955.819	-29747.8	0.000000	0.000000	6.713008	-0.038789	NaN	0.000000	0.001636	0.001668	28.0792	0.069203	0.002040	33.9275	164.761	14.5003	0.038435	0.711204	-0.397479	-0.398803	-0.038789	33.9275	-0.396621	-119615	3.242785E-7	NaN
288	1.000000	0.722542	7.36787e+06	-53039.1	955.818	-29747.8	0.000000	0.000000	6.723022	-0.047144	NaN	0.000000	0.001644	0.001630	28.0792	0.103231	0.002009	51.3822	90.9166	-164.012	-0.106175	0.721254	-0.387464	-0.388752	-0.047144	51.3822	-0.386776	-86502.8	5.449960E-7	NaN
288	1.000000	0.732523	7.36787e+06	-53039.1	955.818	-29747.8	0.000000	0.000000	6.733003	-0.042815	NaN	0.000000	0.001708	0.001683	28.0794	0.105511	0.002018	52.2977	-39.3137	19.506	0.007450	0.731267	-0.377483	-0.378739	-0.042815	52.2977	-0.376869	-62363.5	6.865359E-7	NaN
288	1.000000	0.742582	7.36787e+06	-53039.1	955.819	-29747.8	0.000000	0.000000	6.743064	-0.017295	NaN	0.000000	0.001656	0.001631	28.0793	0.030591	0.001914	15.9794	123.374	-167.467	-0.098598	0.741246	-0.367424	-0.368761	-0.017295	15.9794	-0.366612	-44392	3.896074E-7	NaN
288	1.000000	0.752558	7.36787e+06	-53039.1	955.818	-29747.8	0.000000	0.000000	6.753039	-0.031780	NaN	0.000000	0.001650	0.001642	28.0806	0.080468	0.001996	40.3077	-54.1477	14.4751	-0.074592	0.751198	-0.357448	-0.358808	-0.031780	40.3077	-0.356857	-32090.6	9.903357E-7	NaN
288	1.000000	0.762582	7.36787e+06	-53039.1	955.818	-29747.8	0.000000	0.000000	6.763063	-0.018899	NaN	0.000000	0.001659	0.001645	28.0803	0.089498	0.002008	44.5795	110.256	-164.823	-0.029291	0.761239	-0.347424	-0.348767	-0.018899	44.5795	-0.347106	-23172.7	8.155730E-7	NaN
288	1.000000	0.772559	7.36787e+06	-53039.1	955.818	-29747.8	0.000000	0.000000	6.773039	-0.050491	NaN	0.000000	0.001632	0.001674	28.0803	0.067364	0.001834	36.7254	-51.868	13.3677	-0.085963	0.771188	-0.337447	-0.338818	-0.050491	36.7254	-0.336416	-16190.8	3.118500E-6	NaN
288	1.000000	0.782591	7.36787e+06	-53039.1	955.819	-29747.8	0.000000	0.000000	6.783074	0.014175	NaN	0.000000	0.001651	0.001683	28.0801	0.004105	0.001953	2.102059	148.447	-164.546	-0.001632	0.781260	-0.327415	-0.328746	0.014175	2.102059	-0.332473	-14178.9	-9.997070E-7	NaN
288	1.000000	0.792592	7.36787e+06	-53039.1	955.819	-29747.8	0.000000	0.000000	6.793074	0.004313	NaN	0.000000	0.001627	0.001691	28.0804	0.200423	0.002143	93.5351	-176.765	16.3667	0.008531	0.791238	-0.317415	-0.318768	0.004313	93.5351	-0.317449	-8532.39	-5.055010E-7	NaN
288	1.000000	0.802578	7.36787e+06	-53039.1	955.818	-29747.8	0.000000	0.000000	6.803061	0.016898	NaN	0.000000	0.001640	0.001662	28.0801	0.049746	0.001932	25.7429	-48.9052	-162.689	-0.103255	0.801306	-0.307428	-0.308701	0.016898	25.7429	-0.307920	-6169.62	-2.738920E-6	NaN
288	1.000000	0.812587	7.36787e+06	-53039.1	955.817	-29747.8	0.000000	0.000000	6.813071	0.031444	NaN	0.000000	0.001640	0.001688	28.0802	0.145741	0.002038	71.5225	-97.719	17.6522	0.030694	0.811219	-0.297419	-0.298787	0.031444	71.5225	-0.297749	-4356.1	-7.218466E-6	NaN
288	1.000000	0.822604	7.36787e+06	-53039.1	955.818	-29747.8	0.000000	0.000000	6.823087	0.030645	NaN	0.000000	0.001673	0.001680	28.0801	0.058756	0.002048	28.6875	-164.86	-166.799	-0.028585	0.821300	-0.287402	-0.288707	0.030645	28.6875	-0.288203	-3135.94	-9.772101E-6	NaN
288	1.000000	0.832607	7.36788e+06	-53039.1	955.82	-29747.8	0.000000	0.000000	6.833087	-0.055658	NaN	0.000000	0.001665	0.001681	28.0801	0.106170	0.001978	53.6683	-137.95	13.5426	-0.032204	0.831273	-0.277399	-0.278733	-0.055658	53.6683	-0.276621	-2098.61	2.652134E-5	NaN
288	1.000000	0.842609	7.36788e+06	-53039.1	955.818	-29747.8	0.000000	0.000000	6.843092	0.010464	NaN	0.000000	0.001680	0.001694	28.0803	0.115132	0.002034	56.5917	-63.6391	-164.351	0.003546	0.841372	-0.267397	-0.268634	0.010464	56.5917	-0.267536	-1527.73	-6.849517E-6	NaN
288	1.000000	0.852606	7.36788e+06	-53039.1	955.819	-29747.8	0.000000	0.000000	6.853088	-0.007943	NaN	0.000000	0.001657	0.001686	28.0802	0.095654	0.001868	51.2025	69.7291	17.534	-0.049044	0.851269	-0.257400	-0.258738	-0.007943	51.2025	-0.257284	-1064.73	7.459977E-6	NaN
288	1.000000	0.862602	7.36788e+06	-53039.1	955.818	-29747.8	0.000000	0.000000	6.863083	-0.030809	NaN	0.000000	0.001654	0.001655	28.0804	0.041110	0.002037	20.1774	142.207	-165.306	0.029191	0.861322	-0.247404	-0.248684	-0.030809	20.1774	-0.246259	-719.454	4.282313E-5	NaN
288	1.000000	0.872612	7.36788e+06	-53039.1	955.818	-29747.8	0.000000	0.000000	6.873092	-0.050916	NaN	0.000000	0.001690	0.001672	28.0801	0.030909	0.001884	16.4087	78.1892	15.877	-0.063641	0.871244	-0.237394	-0.238763	-0.050916	16.4087	-0.235067	-481.165	0.000106	NaN
288	1.000000	0.882618	7.36788e+06	-53039.1	955.818	-29747.8	0.000000	0.000000	6.883099	-0.025019	NaN	0.000000	0.001713	0.001657	28.0788	0.038808	0.001933	20.0784	-82.6497	-162.557	0.096665	0.881308	-0.227389	-0.228699	-0.025019	20.0784	-0.226454	-351.893	7.109845E-5	NaN
288	1.000000	0.892635	7.36788e+06	-53039.1	955.818	-29747.8	0.000000	0.000000	6.893115	-0.068974	NaN	0.000000	0.001690	0.001679	28.0788	0.060158	0.002035	29.5682	174.127	15.4622	-0.004873	0.891292	-0.217371	-0.218715	-0.068974	29.5682	-0.215621	-236.321	0.000292	NaN
288	1.000000	0.902633	7.36788e+06	-53039.1	955.818	-29747.8	0.000000	0.000000	6.903112	-0.052057	NaN	0.000000	0.001675	0.001644	28.0791	0.076251	0.002019	37.7594	81.2306	-165.787	0.021848	0.901301	-0.207374	-0.208705	-0.052057	37.7594	-0.206340	-167.259	0.000311	NaN
288	1.000000	0.912619	7.36788e+06	-53039.1	955.82	-29747.8	0.000000	0.000000	6.913098	-0.070196	NaN	0.000000	0.001723	0.001651	28.079	0.033036	0.002130	15.5121	-93.4973	14.6902	-0.079825	0.911246	-0.197387	-0.198760	-0.070196	15.5121	-0.193994	-104.837	0.000670	NaN
288	1.000000	0.922621	7.36788e+06	-53039.1	955.817	-29747.8	0.000000	0.000000	6.923101	-0.067045	NaN	0.000000	0.001713	0.001688	28.0788	0.011203	0.001949	5.747353	18.1037	-164.9	-0.079351	0.921348	-0.187385	-0.188659	-0.067045	5.747353	-0.178636	-57.8401	0.001159	NaN
288	1.000000	0.932614	7.36788e+06	-53039.1	955.818	-29747.8	0.000000	0.000000	6.933096	-0.017882	NaN	0.000000	0.001717	0.001686	28.0786	0.009743	0.002075	4.696459	142.838	13.8479	-0.130280	0.931298	-0.177392	-0.178708	-0.017882	4.696459	-0.174536	-49.2046	0.000363	NaN
288	1.000000	0.942626	7.36788e+06	-53039.1	955.819	-29747.8	0.000000	0.000000	6.943106	-0.050617	NaN	0.000000	0.001696	0.001669	28.0789	0.097140	0.001915	50.7389	49.8227	-168.603	-0.028663	0.941263	-0.167381	-0.168743	-0.050617	50.7389	-0.166632	-35.8854	0.001411	NaN
288	1.000000	0.952644	7.36788e+06	-53039.1	955.817	-29747.8	0.000000	0.000000	6.953125	-0.020266	NaN	0.000000	0.001729	0.001643	28.0787	0.046801	0.001951	23.9921	86.5875	17.6764	-0.054018	0.951285	-0.157362	-0.158721	-0.020266	23.9921	-0.156729	-23.9673	0.000846	NaN
288	1.000000	0.962672	7.36788e+06	-53039.1	955.818	-29747.8	0.000000	0.000000	6.963153	-0.012531	NaN	0.000000	0.001733	0.001677	28.0789	0.065977	0.001856	35.5389	166.523	-165.533	-0.089513	0.961327	-0.147335	-0.148679	-0.012531	35.5389	-0.147070	-16.0086	0.000783	NaN
288	1.000000	0.972679	7.36788e+06	-53039.1	955.819	-29747.8	0.000000	0.000000	6.973161	-0.016716	NaN	0.000000	0.001704	0.001652	28.079	0.010424	0.001968	5.295269	-45.0728	17.2893	-0.058016	0.971274	-0.137327	-0.138732	-0.016716	5.295269	-0.134959	-9.495427	0.001760	NaN
288	1.000000	0.982646	7.36788e+06	-53039.1	955.819	-29747.8	0.000000	0.000000	6.983127	-0.015153	NaN	0.000000	0.001672	0.001674	28.0788	0.063643	0.001995	31.909	46.8317	-164.931	-0.062835	0.981347	-0.127360	-0.128659	-0.015153	31.909	-0.127004	-6.660411	0.002275	NaN
288	1.000000	0.992689	7.36788e+06	-53039.1	955.819	-29747.8	0.000000	0.000000	6.993171	0.016839	NaN	0.000000	0.001704	0.001701	28.0788	0.006021	0.001887	3.191472	173.653	16.0768	0.100336	0.991302	-0.117318	-0.118705	0.016839	3.191472	-0.121275	-5.125608	-0.003285	NaN
288	1.000000	1.002655	7.36788e+06	-53039.1	955.82	-29747.8	0.000000	0.000000	7.003134	-0.061330	NaN	0.000000	0.001650	0.001675	28.0789	0.084752	0.002067	41.006	88.0365	-165.521	-0.055347	1.001385	-0.107351	-0.108621	-0.061330	41.006	-0.106230	-2.498351	0.024548	NaN
288	1.000000	1.012700	7.36788e+06	-53039.1	955.819	-29747.8	0.000000	0.000000	7.013182	-0.003061	NaN	0.000000	0.001685	0.001704	28.0785	0.074795	0.001966	38.0444	-114.454	20.9999	0.007525	1.011337	-0.097306	-0.098670	-0.003061	38.0444	-0.097245	-1.585833	0.001931	NaN
288	1.000000	1.022684	7.36788e+06	-53039.1	955.82	-29747.8	0.000000	0.000000	7.023164	-0.043496	NaN	0.000000	0.001739	0.001670	28.0801	0.097614	0.002030	48.0795	-75.8984	-164.809	0.011110	1.021376	-0.087323	-0.088630	-0.043496	48.0795	-0.086644	-0.900044	0.048327	NaN
288	1.000000	1.032714	7.36788e+06	-53039.1	955.82	-29747.8	0.000000	0.000000	7.033193	-0.086237	NaN	0.000000	0.001696	0.001673	28.0801	0.066326	0.001978	33.5326	117.527	16.0968	-0.058790	1.031353	-0.077292	-0.078653	-0.086237	33.5326	-0.075363	-0.471959	0.182721	NaN
288	1.000000	1.042663	7.36788e+06	-53039.1	955.819	-29747.8	0.000000	0.000000	7.043143	-0.047335	NaN	0.000000	0.001725	0.001683	28.0802	0.092167	0.001958	47.0609	-30.4019	-167.377	-0.024640	1.041385	-0.067344	-0.068621	-0.047335	47.0609	-0.066589	-0.275692	0.171694	NaN
288	1.000000	1.052709	7.36788e+06	-53039.1	955.819	-29747.8	0.000000	0.000000	7.053190	-0.037220	NaN	0.000000	0.001721	0.001686	28.0801	0.037592	0.002183	17.221	109.529	18.3872	0.007508	1.051324	-0.057297	-0.058682	-0.037220	17.221	-0.055676	-0.134831	0.276048	NaN
288	1.000000	1.062668	7.36788e+06	-53039.1	955.818	-29747.8	0.000000	0.000000	7.063148	-0.050033	NaN	0.000000	0.001679	0.001642	28.0801	0.021766	0.001967	11.0638	103.43	-166.962	-0.020151	1.061433	-0.047338	-0.048574	-0.050033	11.0638	-0.043946	-0.059671	0.838474	NaN
288	1.000000	1.072680	7.36788e+06	-53039.1	955.818	-29747.8	0.000000	0.000000	7.073161	-0.020458	NaN	0.000000	0.001679	0.001700	28.0802	0.053217	0.001889	28.1684	-146.726	14.0809	0.042032	1.071323	-0.037327	-0.038683	-0.020458	28.1684	-0.036782	-0.036169	0.565628	NaN
288	1.000000	1.082685	7.36788e+06	-53039.1	955.818	-29747.8	0.000000	0.000000	7.083165	-0.038064	NaN	0.000000	0.001656	0.001677	28.0799	0.138995	0.002114	65.7349	131.064	-164.954	-0.072224	1.081382	-0.027321	-0.028624	-0.038064	65.7349	-0.026887	-0.018923	2.011551	NaN
288	1.000000	1.092715	7.36788e+06	-53039.1	955.819	-29747.8	0.000000	0.000000	7.093195	-0.046555	NaN	0.000000	0.001715	0.001711	28.0802	0.042830	0.002136	20.0562	-36.094	14.2595	-0.080837	1.091328	-0.017291	-0.018678	-0.046555	20.0562	-0.015550	-0.009608	4.845631	NaN
288	1.000000	1.102714	7.36788e+06	-53039.1	955.819	-29747.8	0.000000	0.000000	7.103195	-0.035171	NaN	0.000000	0.001751	0.001683	28.0801	0.071102	0.002102	33.8247	90.3855	-165.231	0.008357	1.101405	-0.007292	-0.008601	-0.035171	33.8247	-0.006512	-0.004348	8.089748	NaN
288	1.000000	1.112674	7.36788e+06	-53039.1	955.819	-29747.8	0.000000	0.000000	7.113211	1.333283	NaN	0.000000	0.001655	0.001654	28.0801	1.966763	0.001839	1069.56	12.2496	13.0544	0.366174	1.111397	0.002668	0.001390	1.333283	1069.56	0.001733	0.001340	995.096	26696.1
288	2.000000	1.120268	7.36788e+06	-53039.1	955.819	-29747.8	0.000000	0.000000	7.121060	7.519863	NaN	0.000000	0.001616	0.001609	28.0805	8.764114	0.001838	4768.55	10.8274	-171.069	7.238552	1.119994	0.010262	0.009988	7.519863	4768.55	0.009079	0.008176	919.726	48181.9
288	2.000000	1.122747	7.36788e+06	-53039.1	955.819	-29747.8	0.000000	0.000000	7.123783	13.4793	NaN	0.000000	0.001658	0.001638	28.0805	11.792	0.001702	6929.45	6.716392	7.772016	13.2615	1.122378	0.012740	0.012372	13.4793	6929.45	0.011282	0.010641	1266.75	61374
288	2.000000	1.125176	7.36788e+06	-53039.1	955.819	-29747.8	0.000000	0.000000	7.126352	16.8786	NaN	0.000000	0.001678	0.001656	28.0801	14.2415	0.001667	8543.46	10.0687	-177.171	15.7517	1.124939	0.015170	0.014933	16.8786	8543.46	0.013688	0.013575	1243.33	66993.4
288	2.000000	1.127727	7.36788e+06	-53039.1	955.82	-29747.8	0.000000	0.000000	7.129051	20.4847	NaN	0.000000	0.001685	0.001641	28.0802	17.495	0.001705	10263.4	12.1737	-2.197183	20.3975	1.127262	0.017720	0.017256	20.4847	10263.4	0.016223	0.016952	1208.42	72021.2
288	2.000000	1.130177	7.36788e+06	-53039.1	955.819	-29747.8	0.000000	0.000000	7.131671	24.6029	NaN	0.000000	0.001673	0.001671	28.0791	20.1156	0.001753	11476.7	6.645267	-177.077	23.6458	1.129818	0.020170	0.019812	24.6029	11476.7	0.018563	0.020334	1209.95	73532.8
288	2.000000	1.132681	7.36788e+06	-53039.1	955.819	-29747.8	0.000000	0.000000	7.134539	33.4439	NaN	0.000000	0.001627	0.001661	28.0793	22.2319	0.001783	12469.9	4.721985	3.927027	32.6565	1.132320	0.022675	0.022314	33.4439	12469.9	0.020664	0.023596	1417.35	74168.1
288	2.000000	1.135178	7.36788e+06	-53039.1	955.819	-29747.8	0.000000	0.000000	7.137303	39.9304	NaN	0.000000	0.001633	0.001680	28.079	24.8759	0.001803	13797.2	8.954231	179.445	40.0059	1.134796	0.025172	0.024789	39.9304	13797.2	0.023002	0.027480	1453.07	76042.1
288	2.000000	1.137699	7.36788e+06	-53039.1	955.819	-29747.8	0.000000	0.000000	7.140007	44.3949	NaN	0.000000	0.001693	0.001709	28.0799	27.0929	0.001766	15340.7	6.190787	3.008651	47.0701	1.137228	0.027693	0.027222	44.3949	15340.7	0.025523	0.031973	1388.5	78383.7
288	2.000000	1.140158	7.36788e+06	-53039.1	955.82	-29747.8	0.000000	0.000000	7.142782	52.0711	NaN	0.000000	0.001729	0.001703	28.079	30.4988	0.001878	16241.2	7.429838	179.332	51.9671	1.139832	0.030152	0.029826	52.0711	16241.2	0.027747	0.036204	1438.26	77985.2
288	2.000000	1.142670	7.36788e+06	-53039.1	955.819	-29747.8	0.000000	0.000000	7.145735	62.8097	NaN	0.000000	0.001710	0.001693	28.0795	32.384	0.001817	17820.1	6.255804	-0.296312	63.525	1.142317	0.032664	0.032310	62.8097	17820.1	0.030020	0.040785	1540	80617.8
288	2.000000	1.145099	7.36788e+06	-53039.1	955.819	-29747.8	0.000000	0.000000	7.148425	69.1323	NaN	0.000000	0.001700	0.001692	28.0787	34.1664	0.001650	20701.5	4.534302	178.529	66.802	1.144797	0.035093	0.034791	69.1323	20701.5	0.032588	0.046279	1493.8	87918.6
288	2.000000	1.147560	7.36788e+06	-53039.1	955.819	-29747.8	0.000000	0.000000	7.151123	74.8957	NaN	0.000000	0.001675	0.001655	28.0792	36.741	0.001733	21197.6	1.664367	1.795728	70.3252	1.147270	0.037554	0.037264	74.8957	21197.6	0.034904	0.051523	1453.65	85322
288	2.000000	1.150089	7.36788e+06	-53039.1	955.818	-29747.8	0.000000	0.000000	7.153988	83.0887	NaN	0.000000	0.001674	0.001682	28.0792	40.0278	0.001967	20349.8	2.337130	-177.812	80.2703	1.149873	0.040083	0.039867	83.0887	20349.8	0.037021	0.056555	1469.16	78180.3
288	2.000000	1.152655	7.36788e+06	-53039.1	955.819	-29747.8	0.000000	0.000000	7.156895	91.3488	NaN	0.000000	0.001643	0.001732	28.0801	40.7528	0.001727	23592.3	0.644045	2.617876	90.3798	1.152328	0.042649	0.042322	91.3488	23592.3	0.039745	0.063372	1441.48	85624.1
288	2.000000	1.155095	7.36788e+06	-53039.1	955.819	-29747.8	0.000000	0.000000	7.159958	106.529	NaN	0.000000	0.001661	0.001708	28.0789	42.3896	0.001710	24791.3	3.272609	-179.733	104.529	1.154719	0.045088	0.044712	106.529	24791.3	0.041866	0.068938	1545.28	86266.4
288	2.000000	1.157533	7.36788e+06	-53039.1	955.82	-29747.8	0.000000	0.000000	7.162753	115.175	NaN	0.000000	0.001668	0.001693	28.0793	45.9205	0.001730	26537.6	2.490885	-0.344008	111.448	1.157261	0.047527	0.047254	115.175	26537.6	0.044272	0.075535	1524.8	88219.1
288	2.000000	1.160059	7.36788e+06	-53039.1	955.818	-29747.8	0.000000	0.000000	7.165778	127.333	NaN	0.000000	0.001650	0.001654	28.0791	48.9541	0.001802	27165.4	1.998529	-179.649	124.073	1.159812	0.050053	0.049805	127.333	27165.4	0.046537	0.082012	1552.62	86666.7
288	2.000000	1.162605	7.36788e+06	-53039.1	955.819	-29747.8	0.000000	0.000000	7.168821	139.41	NaN	0.000000	0.001655	0.001702	28.0813	51.4201	0.001881	27335.1	4.337103	-1.932171	136.325	1.162266	0.052599	0.052259	139.41	27335.1	0.048774	0.088660	1572.41	83874.4
288	2.000000	1.165130	7.36788e+06	-53039.1	955.819	-29747.8	0.000000	0.000000	7.171903	152.96	NaN	0.000000	0.001679	0.001690	28.0802	54.6882	0.001914	28576.6	6.981486	174.729	153.978	1.164717	0.055124	0.054711	152.96	28576.6	0.051109	0.095873	1595.45	84321.3
288	2.000000	1.167574	7.36788e+06	-53039.1	955.818	-29747.8	0.000000	0.000000	7.174921	166.904	NaN	0.000000	0.001623	0.001678	28.0803	55.8243	0.001780	31353.8	4.366490	-3.338390	163.236	1.167204	0.057568	0.057198	166.904	31353.8	0.053575	0.103784	1608.19	88919.7
288	2.000000	1.170094	7.36788e+06	-53039.1	955.819	-29747.8	0.000000	0.000000	7.177985	180.147	NaN	0.000000	0.001664	0.001689	28.0805	59.0186	0.001860	31738.8	6.187913	174.858	177.332	1.169744	0.060088	0.059737	180.147	31738.8	0.055831	0.111283	1618.81	86925.7
288	2.000000	1.172582	7.36788e+06	-53039.1	955.82	-29747.8	0.000000	0.000000	7.181059	194.389	NaN	0.000000	0.001678	0.001682	28.0805	60.8934	0.001827	33323.6	6.386597	-5.278696	192.154	1.172165	0.062575	0.062158	194.389	33323.6	0.058200	0.119434	1627.58	88097.1
288	2.000000	1.175107	7.36788e+06	-53039.1	955.818	-29747.8	0.000000	0.000000	7.184104	207.042	NaN	0.000000	0.001684	0.001671	28.08	62.3748	0.001706	36569.7	4.725185	174.938	207.885	1.174819	0.065100	0.064813	207.042	36569.7	0.060854	0.128889	1606.36	93065.1
288	2.000000	1.177584	7.36788e+06	-53039.1	955.82	-29747.8	0.000000	0.000000	7.187208	222.275	NaN	0.000000	0.001693	0.001668	28.0803	65.5813	0.001837	35696.6	4.056105	-3.869508	220.234	1.177226	0.067578	0.067220	222.275	35696.6	0.062908	0.136441	1629.1	88293.3
288	2.000000	1.179996	7.36788e+06	-53039.1	955.82	-29747.8	0.000000	0.000000	7.190023	232.061	NaN	0.000000	0.001666	0.001668	28.0803	67.757	0.001911	35455.2	2.058750	178.131	225.652	1.179758	0.069990	0.069752	232.061	35455.2	0.065081	0.144656	1604.22	85169.6
288	2.000000	1.182598	7.36788e+06	-53039.1	955.819	-29747.8	0.000000	0.000000	7.193420	251.393	NaN	0.000000	0.001664	0.001676	28.0804	68.4714	0.001801	38020.7	5.702678	-5.537677	250.239	1.182131	0.072592	0.072125	251.393	38020.7	0.067633	0.154593	1626.16	88348.5
288	2.000000	1.185084	7.36788e+06	-53039.1	955.819	-29747.8	0.000000	0.000000	7.196643	269.332	NaN	0.000000	0.001651	0.001688	28.0802	70.1155	0.001751	40045.3	7.092882	171.573	267.45	1.184723	0.075078	0.074717	269.332	40045.3	0.070033	0.164223	1640.04	90283.4
288	2.000000	1.187550	7.36788e+06	-53039.1	955.82	-29747.8	0.000000	0.000000	7.199946	289.677	NaN	0.000000	0.001652	0.001668	28.0804	71.3253	0.001695	42084.8	1.524937	-2.559297	284.983	1.187217	0.077543	0.077211	289.677	42084.8	0.072381	0.173908	1665.69	92201.5
288	2.000000	1.190117	7.36788e+06	-53039.1	955.819	-29747.8	0.000000	0.000000	7.202303	284.58	NaN	0.000000	0.001684	0.001685	28.0805	75.6345	0.001762	42925.2	0.802132	177.158	284.295	1.190023	0.080110	0.080017	284.58	42925.2	0.075138	0.185615	1533.18	91028.9
288	2.000000	1.192553	7.36788e+06	-53039.1	955.82	-29747.8	0.000000	0.000000	7.206122	318.191	NaN	0.000000	0.001611	0.001695	28.0803	78.4075	0.001707	45944.3	5.838464	-7.641626	312.833	1.192165	0.082546	0.082158	318.191	45944.3	0.077352	0.195275	1629.45	94990.9
288	2.000000	1.195099	7.36788e+06	-53039.1	955.819	-29747.8	0.000000	0.000000	7.209243	332.17	NaN	0.000000	0.001636	0.001698	28.0801	80.8423	0.001885	42890.5	5.789526	172.968	332.345	1.194731	0.085093	0.084725	332.17	42890.5	0.079284	0.203892	1629.15	86782.8
288	2.000000	1.197544	7.36788e+06	-53039.1	955.819	-29747.8	0.000000	0.000000	7.212621	354.863	NaN	0.000000	0.001592	0.001687	28.0792	82.2638	0.001715	47964.4	2.550716	-4.598776	350.449	1.197204	0.087537	0.087197	354.863	47964.4	0.081989	0.216246	1641.02	94236.5
288	2.000000	1.200065	7.36788e+06	-53039.1	955.819	-29747.8	0.000000	0.000000	7.215745	369.509	NaN	0.000000	0.001638	0.001637	28.0791	85.9879	0.001869	46010.6	2.912503	175.71	367.312	1.199718	0.090059	0.089712	369.509	46010.6	0.084036	0.225824	1636.27	88459.9
288	2.000000	1.202473	7.36788e+06	-53039.1	955.82	-29747.8	0.000000	0.000000	7.219113	392.873	NaN	0.000000	0.001658	0.001656	28.0793	87.7208	0.001810	48453.5	5.958311	-8.015023	385.938	1.202224	0.092467	0.092218	392.873	48453.5	0.086385	0.237054	1657.31	90923.1
288	2.000000	1.205009	7.36788e+06	-53039.1	955.821	-29747.8	0.000000	0.000000	7.222330	409.414	NaN	0.000000	0.001628	0.001674	28.079	90.1174	0.001760	51208.3	7.614072	169.808	405.503	1.204725	0.095003	0.094719	409.414	51208.3	0.089007	0.249885	1638.41	93592.9
288	2.000000	1.207511	7.36788e+06	-53039.1	955.819	-29747.8	0.000000	0.000000	7.225698	430.471	NaN	0.000000	0.001651	0.001655	28.0795	92.7573	0.001718	54006.6	6.945250	-10.0771	424.572	1.207185	0.097505	0.097179	430.471	54006.6	0.091527	0.262518	1639.78	96303.1
288	2.000000	1.210133	7.36788e+06	-53039.1	955.82	-29747.8	0.000000	0.000000	7.229102	449.465	NaN	0.000000	0.001656	0.001670	28.0791	97.2057	0.001950	49857.5	9.638363	168.966	451.052	1.209608	0.100127	0.099602	449.465	49857.5	0.093366	0.271919	1652.94	87354.2
288	2.000000	1.212624	7.36788e+06	-53039.1	955.82	-29747.8	0.000000	0.000000	7.232162	463.309	NaN	0.000000	0.001606	0.001683	28.0794	97.2334	0.001771	54917.7	2.606160	-5.536611	463.396	1.212347	0.102618	0.102340	463.309	54917.7	0.096290	0.287189	1613.26	93627.2
288	2.000000	1.215068	7.36788e+06	-53039.1	955.819	-29747.8	0.000000	0.000000	7.235598	487.429	NaN	0.000000	0.001624	0.001678	28.079	100.348	0.001911	52502.4	4.507494	172.921	486.264	1.214755	0.105062	0.104748	487.429	52502.4	0.098099	0.296828	1642.12	88043.9
288	2.000000	1.217464	7.36788e+06	-53039.1	955.82	-29747.8	0.000000	0.000000	7.238994	511.746	NaN	0.000000	0.001643	0.001686	28.0795	102.079	0.001762	57942.5	5.967488	-9.366765	506.047	1.217096	0.107458	0.107089	511.746	57942.5	0.100834	0.311687	1641.86	94822.5
288	2.000000	1.217998	7.36788e+06	-53039.1	955.82	-29747.8	0.000000	0.000000	7.239775	517.744	NaN	0.000000	0.001668	0.001690	28.0791	102.533	0.001806	56763.4	7.237416	169.67	514.627	1.217615	0.107992	0.107609	517.744	56763.4	0.101151	0.313429	1651.87	92634.3