File: remote_trans/data/nanoindenter/0828-1/data/Data_2025-08-06,11h17m57s/2025-07-22_16-23-58_1_4.txt
2025-07-22, 16:23:58, 1
Index	Phase	Displacement	Time	Pos X	Pos Y	Pos Z	Rot A	Rot B	Piezo Z	Force A	Force B	Gripper	Voltage A	Voltage B	Temperature	Amplitude force	Amplitude pos	Stiffness	Phase shift	Phase excitation	Force A raw	Displacement raw	HMax	HMax raw	Real Force	Real Stiffness	Contact Depth	Area	Hardness	Reduced Mod.
[#]	[#]	[um]	[s]	[um]	[um]	[um]	[m°]	[m°]	[um]	[uN]	[uN]	[V]	[V]	[V]	[°C]	[uN]	[um]	[N/m]	[°]	[°]	[uN]	[um]	[um]	[um]	[uN]	[N/m]	[um]	[um^2]	[MPa]	[MPa]
4.000000	1.000000	0.002592	7.36508e+06	-38839.1	955.819	-29796.7	0.000000	0.000000	6.002805	-0.037961	NaN	0.000000	0.001635	0.001724	28.0944	0.082428	0.001007	81.817	15.5273	-162.921	-0.086879	0.001363	-1.124861	-1.126090	-0.037961	81.817	-1.124513	-1.069104E+15	3.550743E-17	NaN
4.000000	1.000000	0.012624	7.36508e+06	-38839.1	955.817	-29796.7	0.000000	0.000000	6.012840	0.034733	NaN	0.000000	0.001627	0.001688	28.0801	0.089899	0.001206	74.5561	38.8903	15.5662	0.028867	0.011219	-1.114829	-1.116233	0.034733	74.5561	-1.115178	-8.012638E+14	-4.334812E-17	NaN
4.000000	1.000000	0.022566	7.36508e+06	-38839.1	955.818	-29796.7	0.000000	0.000000	6.022780	0.006053	NaN	0.000000	0.001629	0.001709	28.0999	0.084488	0.001819	46.4449	-179.53	-167.846	0.004955	0.021241	-1.104887	-1.106212	0.006053	46.4449	-1.104985	-5.847668E+14	-1.035178E-17	NaN
4.000000	1.000000	0.032559	7.36508e+06	-38839.1	955.818	-29796.7	0.000000	0.000000	6.032773	-0.006780	NaN	0.000000	0.001620	0.001707	28.1304	0.085799	0.001798	47.7262	-37.9965	13.9188	-0.057344	0.031158	-1.094894	-1.096295	-0.006780	47.7262	-1.094788	-4.266701E+14	1.589160E-17	NaN
4.000000	1.000000	0.042549	7.36508e+06	-38839.1	955.818	-29796.7	0.000000	0.000000	6.042761	-0.065104	NaN	0.000000	0.001627	0.001721	28.094	0.041932	0.002024	20.7136	144.851	-166.444	0.015956	0.041287	-1.084904	-1.086166	-0.065104	20.7136	-1.082547	-2.922271E+14	2.227846E-16	NaN
4.000000	1.000000	0.052523	7.36508e+06	-38839.1	955.819	-29796.7	0.000000	0.000000	6.052737	-0.016395	NaN	0.000000	0.001621	0.001698	28.0789	0.145869	0.002036	71.6515	154.186	14.7515	0.035959	0.051216	-1.074930	-1.076237	-0.016395	71.6515	-1.074758	-2.296731E+14	7.138417E-17	NaN
4.000000	1.000000	0.062534	7.36508e+06	-38839.1	955.819	-29796.7	0.000000	0.000000	6.062749	0.030804	NaN	0.000000	0.001646	0.001774	28.099	0.048422	0.001911	25.3418	-156.264	-164.796	0.036905	0.061236	-1.064919	-1.066217	0.030804	25.3418	-1.065831	-1.742502E+14	-1.767823E-16	NaN
4.000000	1.000000	0.072502	7.36508e+06	-38839.1	955.818	-29796.7	0.000000	0.000000	6.072716	-0.015353	NaN	0.000000	0.001657	0.001718	28.131	0.023790	0.001972	12.0611	-109.441	18.6043	-0.083998	0.071178	-1.054950	-1.056275	-0.015353	12.0611	-1.053996	-1.208160E+14	1.270793E-16	NaN
4.000000	1.000000	0.082567	7.36508e+06	-38839.1	955.818	-29796.7	0.000000	0.000000	6.082779	-0.062651	NaN	0.000000	0.001637	0.001704	28.0958	0.170393	0.002102	81.0558	-74.6595	-162.52	-0.038103	0.081258	-1.044886	-1.046195	-0.062651	81.0558	-1.044306	-8.950976E+13	6.999313E-16	NaN
4.000000	1.000000	0.092568	7.36508e+06	-38839.1	955.819	-29796.7	0.000000	0.000000	6.092782	-0.020444	NaN	0.000000	0.001660	0.001733	28.0814	0.018295	0.002017	9.070853	126.922	15.4749	0.003342	0.091213	-1.034885	-1.036240	-0.020444	9.070853	-1.033194	-6.345160E+13	3.221949E-16	NaN
4.000000	1.000000	0.102576	7.36508e+06	-38839.1	955.819	-29796.7	0.000000	0.000000	6.102788	-0.047901	NaN	0.000000	0.001625	0.001736	28.1001	0.016638	0.001993	8.346030	-114.424	-164.65	-0.112825	0.101276	-1.024877	-1.026177	-0.047901	8.346030	-1.020573	-4.291988E+13	1.116064E-15	NaN
4.000000	1.000000	0.112568	7.36508e+06	-38839.1	955.819	-29796.7	0.000000	0.000000	6.112781	-0.030016	NaN	0.000000	0.001666	0.001677	28.1312	0.050948	0.001964	25.9452	21.9994	15.1483	-0.031134	0.111224	-1.014885	-1.016228	-0.030016	25.9452	-1.014017	-3.503071E+13	8.568469E-16	NaN
4.000000	1.000000	0.122600	7.36508e+06	-38839.1	955.818	-29796.7	0.000000	0.000000	6.122813	-0.042868	NaN	0.000000	0.001662	0.001726	28.0954	0.034454	0.001973	17.4612	-60.5574	-166.897	-0.061107	0.121257	-1.004853	-1.006196	-0.042868	17.4612	-1.003012	-2.490665E+13	1.721138E-15	NaN
4.000000	1.000000	0.132558	7.36508e+06	-38839.1	955.818	-29796.7	0.000000	0.000000	6.132772	0.002501	NaN	0.000000	0.001640	0.001711	28.0802	0.054668	0.002047	26.7075	72.2489	15.6633	-0.054747	0.131232	-0.994895	-0.996221	0.002501	26.7075	-0.994965	-1.940797E+13	-1.288647E-16	NaN
4.000000	1.000000	0.142576	7.36508e+06	-38839.1	955.82	-29796.7	0.000000	0.000000	6.142789	-0.046749	NaN	0.000000	0.001655	0.001702	28.099	0.104708	0.002036	51.4192	-162.261	-166.572	-0.042890	0.141319	-0.984877	-0.986134	-0.046749	51.4192	-0.984195	-1.389701E+13	3.363982E-15	NaN
4.000000	1.000000	0.152587	7.36508e+06	-38839.1	955.818	-29796.7	0.000000	0.000000	6.152799	-0.056564	NaN	0.000000	0.001648	0.001721	28.1321	0.048728	0.002151	22.65	-74.1617	13.2922	-0.127430	0.151183	-0.974866	-0.976270	-0.056564	22.65	-0.972993	-9.817448E+12	5.761568E-15	NaN
4.000000	1.000000	0.162546	7.36508e+06	-38839.1	955.819	-29796.7	0.000000	0.000000	6.162759	-0.032795	NaN	0.000000	0.001658	0.001689	28.0972	0.101873	0.001896	53.7258	-50.627	-164.848	-0.030309	0.161287	-0.964907	-0.966166	-0.032795	53.7258	-0.964449	-7.530827E+12	4.354717E-15	NaN
4.000000	1.000000	0.172578	7.36508e+06	-38839.1	955.819	-29796.7	0.000000	0.000000	6.172793	0.010779	NaN	0.000000	0.001654	0.001722	28.083	0.024620	0.002028	12.1403	123.017	18.3301	0.019646	0.171236	-0.954875	-0.956217	0.010779	12.1403	-0.955541	-5.711478E+12	-1.887210E-15	NaN
4.000000	1.000000	0.182572	7.36508e+06	-38839.1	955.818	-29796.7	0.000000	0.000000	6.182787	0.023627	NaN	0.000000	0.001691	0.001734	28.1014	0.088080	0.001849	47.6282	93.6171	-160.928	-0.031912	0.181248	-0.944881	-0.946205	0.023627	47.6282	-0.945253	-4.149608E+12	-5.693750E-15	NaN
4.000000	1.000000	0.192593	7.36508e+06	-38839.1	955.819	-29796.7	0.000000	0.000000	6.192807	-0.006043	NaN	0.000000	0.001660	0.001749	28.1324	0.040198	0.001946	20.6609	-13.7733	16.4454	0.011328	0.191213	-0.934860	-0.936240	-0.006043	20.6609	-0.934641	-2.984203E+12	2.024985E-15	NaN
4.000000	1.000000	0.202610	7.36508e+06	-38839.1	955.819	-29796.7	0.000000	0.000000	6.202821	-0.081678	NaN	0.000000	0.001619	0.001747	28.0956	0.071236	0.002018	35.3041	-162.745	-164.109	-0.095223	0.201301	-0.924842	-0.926152	-0.081678	35.3041	-0.923107	-2.085248E+12	3.916941E-14	NaN
4.000000	1.000000	0.212632	7.36508e+06	-38839.1	955.818	-29796.7	0.000000	0.000000	6.212846	-0.008121	NaN	0.000000	0.001608	0.001710	28.0802	0.049197	0.002040	24.1144	143.135	11.0869	-0.092394	0.211228	-0.914821	-0.916225	-0.008121	24.1144	-0.914569	-1.599058E+12	5.078558E-15	NaN
4.000000	1.000000	0.222609	7.36508e+06	-38839.1	955.818	-29796.7	0.000000	0.000000	6.222822	-0.036222	NaN	0.000000	0.001578	0.001701	28.0998	0.042772	0.001935	22.1002	17.4402	-161.559	-0.043751	0.221336	-0.904844	-0.906117	-0.036222	22.1002	-0.903615	-1.137374E+12	3.184670E-14	NaN
4.000000	1.000000	0.232631	7.36508e+06	-38839.1	955.818	-29796.7	0.000000	0.000000	6.232845	0.001105	NaN	0.000000	0.001661	0.001699	28.1317	0.107196	0.001958	54.7599	143.177	16.8017	0.057027	0.231254	-0.894822	-0.896199	0.001105	54.7599	-0.894837	-8.655629E+11	-1.276845E-15	NaN
4.000000	1.000000	0.242628	7.36508e+06	-38839.1	955.818	-29796.7	0.000000	0.000000	6.242842	-0.007109	NaN	0.000000	0.001567	0.001684	28.0959	0.122378	0.002131	57.4212	174.485	-166.731	-0.018538	0.241338	-0.884825	-0.886115	-0.007109	57.4212	-0.884732	-6.319705E+11	1.124938E-14	NaN
4.000000	1.000000	0.252622	7.36508e+06	-38839.1	955.818	-29796.7	0.000000	0.000000	6.252832	-0.117462	NaN	0.000000	0.001603	0.001729	28.0795	0.035819	0.002111	16.9667	145.6	19.4366	-0.034366	0.251302	-0.874831	-0.876151	-0.117462	16.9667	-0.869638	-3.949598E+11	2.974017E-13	NaN
4.000000	1.000000	0.262636	7.36508e+06	-38839.1	955.818	-29796.7	0.000000	0.000000	6.262849	-0.034593	NaN	0.000000	0.001624	0.001708	28.0982	0.126383	0.002121	59.5975	-36.3986	-164.169	-0.059840	0.261333	-0.864817	-0.866120	-0.034593	59.5975	-0.864382	-3.352930E+11	1.031710E-13	NaN
4.000000	1.000000	0.272630	7.36508e+06	-38839.1	955.819	-29796.7	0.000000	0.000000	6.272844	-0.014050	NaN	0.000000	0.001600	0.001715	28.1302	0.141104	0.002069	68.2146	116.981	18.2698	-0.003907	0.271204	-0.854823	-0.856249	-0.014050	68.2146	-0.854669	-2.477142E+11	5.671859E-14	NaN
4.000000	1.000000	0.282633	7.36508e+06	-38839.1	955.818	-29796.7	0.000000	0.000000	6.282844	-0.083041	NaN	0.000000	0.001621	0.001700	28.095	0.081717	0.002056	39.738	-174.234	-163.42	-0.089142	0.281315	-0.844820	-0.846137	-0.083041	39.738	-0.843253	-1.735236E+11	4.785553E-13	NaN
4.000000	1.000000	0.292638	7.36508e+06	-38839.1	955.818	-29796.7	0.000000	0.000000	6.292847	-0.125678	NaN	0.000000	0.001619	0.001693	28.0794	0.121333	0.001911	63.5065	-17.3563	13.9194	-0.045689	0.291307	-0.834815	-0.836146	-0.125678	63.5065	-0.833330	-1.273273E+11	9.870493E-13	NaN
4.000000	1.000000	0.302636	7.36508e+06	-38839.1	955.818	-29796.7	0.000000	0.000000	6.302848	-0.057538	NaN	0.000000	0.001630	0.001704	28.0979	0.079376	0.002062	38.4875	124.2	-166.383	-0.082886	0.301367	-0.824817	-0.826086	-0.057538	38.4875	-0.823696	-9.425945E+10	6.104264E-13	NaN
4.000000	1.000000	0.312647	7.36508e+06	-38839.1	955.818	-29796.7	0.000000	0.000000	6.312861	-8.429741E-5	NaN	0.000000	0.001605	0.001690	28.1309	0.057925	0.002080	27.8437	-172.787	15.8971	-0.004791	0.311326	-0.814806	-0.816127	-8.429741E-5	27.8437	-0.814804	-7.140640E+10	1.180530E-15	NaN
4.000000	1.000000	0.322662	7.36508e+06	-38839.1	955.819	-29796.7	0.000000	0.000000	6.322873	-0.076285	NaN	0.000000	0.001587	0.001667	28.0961	0.136354	0.001957	69.6694	142.394	-167.81	-0.034993	0.321330	-0.804791	-0.806123	-0.076285	69.6694	-0.803970	-5.090314E+10	1.498626E-12	NaN
4.000000	1.000000	0.332646	7.36508e+06	-38839.1	955.818	-29796.7	0.000000	0.000000	6.332860	-0.008159	NaN	0.000000	0.001613	0.001675	28.0795	0.012949	0.001936	6.686807	-130.234	13.0092	-0.001002	0.331304	-0.794806	-0.796149	-0.008159	6.686807	-0.793891	-3.714740E+10	2.196367E-13	NaN
4.000000	1.000000	0.342663	7.36508e+06	-38839.1	955.818	-29796.7	0.000000	0.000000	6.342877	-0.011549	NaN	0.000000	0.001621	0.001737	28.0981	0.091796	0.001994	46.0383	153.085	-163.768	0.003151	0.341370	-0.784790	-0.786083	-0.011549	46.0383	-0.784601	-2.778125E+10	4.157068E-13	NaN
4.000000	1.000000	0.352655	7.36508e+06	-38839.1	955.819	-29796.7	0.000000	0.000000	6.352872	0.048677	NaN	0.000000	0.001641	0.001719	28.1298	0.100671	0.001901	52.9534	-9.336908	20.9866	0.037226	0.351288	-0.774798	-0.776165	0.048677	52.9534	-0.775487	-2.088801E+10	-2.330395E-12	NaN
4.000000	1.000000	0.362664	7.36508e+06	-38839.1	955.818	-29796.7	0.000000	0.000000	6.362878	-0.016005	NaN	0.000000	0.001569	0.001705	28.0959	0.055814	0.002033	27.4507	74.1708	-165.458	-0.005383	0.361392	-0.764789	-0.766061	-0.016005	27.4507	-0.764352	-1.473996E+10	1.085817E-12	NaN
4.000000	1.000000	0.372681	7.36508e+06	-38839.1	955.819	-29796.7	0.000000	0.000000	6.372894	-0.042241	NaN	0.000000	0.001630	0.001740	28.0797	0.033865	0.001933	17.5166	-2.343390	18.6809	0.030645	0.371346	-0.754772	-0.756107	-0.042241	17.5166	-0.752963	-1.031691E+10	4.094352E-12	NaN
4.000000	1.000000	0.382695	7.36508e+06	-38839.1	955.819	-29796.7	0.000000	0.000000	6.382907	-0.064184	NaN	0.000000	0.001602	0.001703	28.0979	0.097993	0.001928	50.8346	84.1266	-162.969	0.050144	0.381330	-0.744758	-0.746123	-0.064184	50.8346	-0.743811	-7.743856E+9	8.288398E-12	NaN
4.000000	1.000000	0.392664	7.36508e+06	-38839.1	955.818	-29796.7	0.000000	0.000000	6.392879	-0.003617	NaN	0.000000	0.001599	0.001708	28.1323	0.064223	0.001980	32.4414	-117.557	12.85	0.022659	0.391332	-0.734789	-0.736121	-0.003617	32.4414	-0.734705	-5.820001E+9	6.214437E-13	NaN
4.000000	1.000000	0.402715	7.36508e+06	-38839.1	955.819	-29796.7	0.000000	0.000000	6.402928	-0.031962	NaN	0.000000	0.001574	0.001733	28.0976	0.024923	0.001883	13.2332	-105.334	-166.13	-0.017500	0.401431	-0.724738	-0.726022	-0.031962	13.2332	-0.722927	-4.021488E+9	7.947922E-12	NaN
4.000000	1.000000	0.412703	7.36508e+06	-38839.1	955.819	-29796.7	0.000000	0.000000	6.412915	-0.075783	NaN	0.000000	0.001593	0.001731	28.0804	0.028137	0.001992	14.128	-43.625	12.185	-0.120457	0.411271	-0.714750	-0.716182	-0.075783	14.128	-0.710727	-2.741347E+9	2.764460E-11	NaN
4.000000	1.000000	0.422702	7.36508e+06	-38839.1	955.819	-29796.7	0.000000	0.000000	6.422915	-0.048813	NaN	0.000000	0.001614	0.001719	28.0993	0.073161	0.002031	36.021	-46.6656	-161.674	0.041283	0.421405	-0.704750	-0.706048	-0.048813	36.021	-0.703734	-2.200490E+9	2.218265E-11	NaN
4.000000	1.000000	0.432714	7.36508e+06	-38839.1	955.819	-29796.7	0.000000	0.000000	6.432928	0.003631	NaN	0.000000	0.001630	0.001704	28.1319	0.036506	0.001834	19.9046	-166.048	16.6932	-0.063934	0.431307	-0.694739	-0.696146	0.003631	19.9046	-0.694876	-1.665485E+9	-2.180224E-12	NaN
4.000000	1.000000	0.442698	7.36508e+06	-38839.1	955.819	-29796.7	0.000000	0.000000	6.442913	0.008207	NaN	0.000000	0.001615	0.001690	28.0968	0.092568	0.002124	43.5889	-98.0823	-164.458	-0.005660	0.441421	-0.684755	-0.686032	0.008207	43.5889	-0.684896	-1.216616E+9	-6.745756E-12	NaN
4.000000	1.000000	0.452702	7.36508e+06	-38839.1	955.819	-29796.7	0.000000	0.000000	6.452915	-0.035911	NaN	0.000000	0.001603	0.001708	28.0805	0.067730	0.002094	32.34	109.747	15.1931	-0.115156	0.451347	-0.674750	-0.676106	-0.035911	32.34	-0.673918	-8.609981E+8	4.170888E-11	NaN
4.000000	1.000000	0.462734	7.36508e+06	-38839.1	955.819	-29796.7	0.000000	0.000000	6.462949	0.005312	NaN	0.000000	0.001628	0.001706	28.0982	0.063048	0.002168	29.0757	-71.9161	-162.862	-0.022953	0.461404	-0.664719	-0.666049	0.005312	29.0757	-0.664856	-6.470905E+8	-8.208291E-12	NaN
4.000000	1.000000	0.472717	7.36508e+06	-38839.1	955.818	-29796.7	0.000000	0.000000	6.472929	-0.063650	NaN	0.000000	0.001577	0.001688	28.1325	0.035644	0.002052	17.371	-39.0118	14.9677	-0.006719	0.471410	-0.654736	-0.656043	-0.063650	17.371	-0.651988	-4.312070E+8	1.476083E-10	NaN
4.000000	1.000000	0.482747	7.36508e+06	-38839.1	955.818	-29796.7	0.000000	0.000000	6.482961	-0.016751	NaN	0.000000	0.001637	0.001742	28.0988	0.064902	0.001891	34.3283	-92.1806	-164.497	0.004871	0.481451	-0.644706	-0.646002	-0.016751	34.3283	-0.644340	-3.387084E+8	4.945586E-11	NaN
4.000000	1.000000	0.492757	7.36508e+06	-38839.1	955.818	-29796.7	0.000000	0.000000	6.492969	-0.067299	NaN	0.000000	0.001620	0.001772	28.0814	0.069152	0.001860	37.1685	-34.7122	14.9687	-0.138968	0.491344	-0.634696	-0.636109	-0.067299	37.1685	-0.633338	-2.392504E+8	2.812904E-10	NaN
4.000000	1.000000	0.502750	7.36508e+06	-38839.1	955.818	-29796.7	0.000000	0.000000	6.502962	-0.041912	NaN	0.000000	0.001621	0.001696	28.0978	0.074173	0.002016	36.795	-114.501	-163.068	-0.082246	0.501456	-0.624703	-0.625997	-0.041912	36.795	-0.623849	-1.772276E+8	2.364846E-10	NaN
4.000000	1.000000	0.512698	7.36508e+06	-38839.1	955.819	-29796.7	0.000000	0.000000	6.512912	-0.020965	NaN	0.000000	0.001623	0.001727	28.1295	0.010467	0.002017	5.189796	-23.6236	13.028	-0.061081	0.511371	-0.614755	-0.616082	-0.020965	5.189796	-0.611725	-1.207380E+8	1.736379E-10	NaN
4.000000	1.000000	0.522740	7.36508e+06	-38839.1	955.819	-29796.7	0.000000	0.000000	6.522954	0.004119	NaN	0.000000	0.001613	0.001708	28.0959	0.065589	0.002008	32.6696	-53.6013	-165.863	-0.052771	0.521401	-0.604713	-0.606052	0.004119	32.6696	-0.604808	-9.697461E+7	-4.247863E-11	NaN
4.000000	1.000000	0.532744	7.36508e+06	-38839.1	955.818	-29796.7	0.000000	0.000000	6.532960	0.053833	NaN	0.000000	0.001621	0.001705	28.0797	0.030526	0.002077	14.6965	4.190053	15.252	0.018592	0.531353	-0.594709	-0.596099	0.053833	14.6965	-0.597456	-7.681077E+7	-7.008517E-10	NaN
4.000000	1.000000	0.542721	7.36508e+06	-38839.1	955.818	-29796.7	0.000000	0.000000	6.542938	0.054858	NaN	0.000000	0.001596	0.001652	28.0958	0.086835	0.001904	45.6158	54.8172	-163.942	0.060899	0.541427	-0.584732	-0.586026	0.054858	45.6158	-0.585634	-5.277878E+7	-1.039386E-9	NaN
4.000000	1.000000	0.552746	7.36508e+06	-38839.1	955.818	-29796.7	0.000000	0.000000	6.552958	-0.060401	NaN	0.000000	0.001609	0.001677	28.1308	0.089812	0.001988	45.1789	-101.5	16.9033	-0.094968	0.551388	-0.574707	-0.576065	-0.060401	45.1789	-0.573704	-3.612422E+7	1.672038E-9	NaN
4.000000	1.000000	0.562784	7.36508e+06	-38839.1	955.819	-29796.7	0.000000	0.000000	6.562999	0.026771	NaN	0.000000	0.001602	0.001697	28.0968	0.103358	0.002043	50.5974	-39.2615	-164.748	0.038195	0.561419	-0.564669	-0.566034	0.026771	50.5974	-0.565066	-2.744359E+7	-9.754865E-10	NaN
4.000000	1.000000	0.572770	7.36508e+06	-38839.1	955.818	-29796.7	0.000000	0.000000	6.572984	-0.016050	NaN	0.000000	0.001586	0.001706	28.0799	0.060250	0.002039	29.5431	93.8021	14.9859	-0.039423	0.571385	-0.554683	-0.556068	-0.016050	29.5431	-0.554276	-1.946076E+7	8.247496E-10	NaN
4.000000	1.000000	0.582799	7.36508e+06	-38839.1	955.819	-29796.7	0.000000	0.000000	6.583013	-0.001625	NaN	0.000000	0.001568	0.001690	28.0977	0.053325	0.001983	26.8907	-88.5948	-164.329	-0.048145	0.581471	-0.544654	-0.545982	-0.001625	26.8907	-0.544609	-1.429744E+7	1.136414E-10	NaN
4.000000	1.000000	0.592788	7.36508e+06	-38839.1	955.819	-29796.7	0.000000	0.000000	6.593001	-0.039453	NaN	0.000000	0.001540	0.001668	28.1296	0.075994	0.001979	38.407	-10.5041	12.8182	-0.055116	0.591402	-0.534665	-0.536051	-0.039453	38.407	-0.533894	-1.015419E+7	3.885396E-9	NaN
4.000000	1.000000	0.602752	7.36509e+06	-38839.1	955.819	-29796.7	0.000000	0.000000	6.602965	-0.026676	NaN	0.000000	0.001551	0.001742	28.0949	0.116216	0.001990	58.4036	173.609	-159.245	0.000348	0.601422	-0.524701	-0.526031	-0.026676	58.4036	-0.524359	-7.48512e+06	3.563830E-9	NaN
4.000000	1.000000	0.612787	7.36509e+06	-38839.1	955.818	-29796.7	0.000000	0.000000	6.613000	-0.050315	NaN	0.000000	0.001579	0.001687	28.0786	0.044727	0.002029	22.047	-5.376049	14.0305	-0.009374	0.611413	-0.514665	-0.516040	-0.050315	22.047	-0.512954	-5.19457e+06	9.686060E-9	NaN
4.000000	1.000000	0.622781	7.36509e+06	-38839.1	955.818	-29796.7	0.000000	0.000000	6.622994	-0.043012	NaN	0.000000	0.001574	0.001792	28.096	0.063396	0.002012	31.5138	-59.5478	-162.106	-0.027027	0.621456	-0.504672	-0.505997	-0.043012	31.5138	-0.503648	-3.85388e+06	1.116081E-8	NaN
4.000000	1.000000	0.632781	7.36509e+06	-38839.1	955.817	-29796.7	0.000000	0.000000	6.632995	-0.013280	NaN	0.000000	0.001552	0.001809	28.1308	0.088502	0.001981	44.6832	-63.91	18.5401	-0.067151	0.631418	-0.494672	-0.496035	-0.013280	44.6832	-0.494449	-2.86772e+06	4.630697E-9	NaN
4.000000	1.000000	0.642783	7.36509e+06	-38839.1	955.818	-29796.7	0.000000	0.000000	6.642992	-0.115446	NaN	0.000000	0.001580	0.001797	28.0979	0.029802	0.001996	14.9327	-59.2855	-163.418	-0.107418	0.641486	-0.484670	-0.485967	-0.115446	14.9327	-0.478872	-1.73675e+06	6.647238E-8	NaN
4.000000	1.000000	0.652805	7.36509e+06	-38839.1	955.819	-29796.7	0.000000	0.000000	6.653019	0.006574	NaN	0.000000	0.001593	0.001760	28.0805	0.092760	0.002025	45.8045	-18.5379	18.0121	0.054925	0.651441	-0.474648	-0.476012	0.006574	45.8045	-0.474756	-1.52083e+06	-4.322498E-9	NaN
4.000000	1.000000	0.662796	7.36509e+06	-38839.1	955.819	-29796.7	0.000000	0.000000	6.663009	-0.028163	NaN	0.000000	0.001570	0.001805	28.0974	0.023985	0.002069	11.5941	-19.8007	-161.375	0.101262	0.661502	-0.464657	-0.465951	-0.028163	11.5941	-0.462835	-1.03478e+06	2.721650E-8	NaN
4.000000	1.000000	0.672814	7.36509e+06	-38839.1	955.818	-29796.7	0.000000	0.000000	6.673029	0.010000	NaN	0.000000	0.001574	0.001781	28.1307	0.046084	0.001989	23.1737	-85.927	15.1963	-0.001424	0.671449	-0.454639	-0.456004	0.010000	23.1737	-0.454962	-802026	-1.246874E-8	NaN
4.000000	1.000000	0.682815	7.36509e+06	-38839.1	955.818	-29796.7	0.000000	0.000000	6.683029	-0.008101	NaN	0.000000	0.001602	0.001764	28.0969	0.052140	0.002118	24.6142	147.531	-166.284	-0.009901	0.681533	-0.444638	-0.445920	-0.008101	24.6142	-0.444391	-569249	1.423168E-8	NaN
4.000000	1.000000	0.692823	7.36509e+06	-38839.1	955.818	-29796.7	0.000000	0.000000	6.693036	-0.025479	NaN	0.000000	0.001606	0.001765	28.0794	0.032767	0.002046	16.0177	-168.895	16.4124	0.000403	0.691451	-0.434630	-0.436002	-0.025479	16.0177	-0.433437	-398714	6.390186E-8	NaN
4.000000	1.000000	0.702806	7.36509e+06	-38839.1	955.818	-29796.7	0.000000	0.000000	6.703018	-0.058134	NaN	0.000000	0.001567	0.001751	28.0952	0.051522	0.001954	26.3628	-94.6277	-162.549	-0.057191	0.701497	-0.424647	-0.425956	-0.058134	26.3628	-0.422993	-283690	2.049219E-7	NaN
4.000000	1.000000	0.712801	7.36509e+06	-38839.1	955.819	-29796.7	0.000000	0.000000	6.713016	0.009381	NaN	0.000000	0.001600	0.001760	28.1318	0.083533	0.002140	39.0386	11.6009	15.7056	0.045892	0.711439	-0.414652	-0.416014	0.009381	39.0386	-0.414832	-217304	-4.316822E-8	NaN
4.000000	1.000000	0.722819	7.36509e+06	-38839.1	955.818	-29796.7	0.000000	0.000000	6.723030	-0.059604	NaN	0.000000	0.001611	0.001694	28.0987	0.107961	0.001902	56.7658	170.948	-164.003	-0.035495	0.721529	-0.404634	-0.405924	-0.059604	56.7658	-0.403847	-151644	3.930508E-7	NaN
4.000000	1.000000	0.732829	7.36509e+06	-38839.1	955.818	-29796.7	0.000000	0.000000	6.733043	-0.009260	NaN	0.000000	0.001565	0.001718	28.0798	0.060196	0.001995	30.1673	-41.0777	14.9476	-0.076910	0.731445	-0.394624	-0.396008	-0.009260	30.1673	-0.394394	-111168	8.329606E-8	NaN
4.000000	1.000000	0.742836	7.36509e+06	-38839.1	955.818	-29796.7	0.000000	0.000000	6.743046	-0.100246	NaN	0.000000	0.001566	0.001700	28.0972	0.070115	0.002016	34.7738	-93.0584	-163.775	-0.093707	0.741539	-0.384617	-0.385914	-0.100246	34.7738	-0.382455	-75008.3	1.336470E-6	NaN
4.000000	1.000000	0.752851	7.36509e+06	-38839.1	955.818	-29796.7	0.000000	0.000000	6.753063	-0.050266	NaN	0.000000	0.001532	0.001727	28.1309	0.080756	0.002027	39.8462	-29.8287	14.1498	-0.062667	0.751526	-0.374602	-0.375927	-0.050266	39.8462	-0.373656	-56071.1	8.964603E-7	NaN
4.000000	1.000000	0.762849	7.36509e+06	-38839.1	955.818	-29796.7	0.000000	0.000000	6.763062	-0.020899	NaN	0.000000	0.001559	0.001690	28.0977	0.137512	0.002060	66.7431	168.995	-164.379	-0.068610	0.761510	-0.364604	-0.365943	-0.020899	66.7431	-0.364369	-41205.2	5.071944E-7	NaN
4.000000	1.000000	0.772837	7.36509e+06	-38839.1	955.819	-29796.7	0.000000	0.000000	6.773051	-0.026924	NaN	0.000000	0.001555	0.001686	28.0776	0.057644	0.001993	28.9239	-140.894	14.2626	-0.016661	0.771418	-0.354616	-0.356035	-0.026924	28.9239	-0.353917	-29094.6	9.253956E-7	NaN
4.000000	1.000000	0.782863	7.36509e+06	-38839.1	955.818	-29796.7	0.000000	0.000000	6.783076	-0.032531	NaN	0.000000	0.001589	0.001706	28.0949	0.156768	0.002085	75.2058	149.417	-166.354	-0.039029	0.781547	-0.344590	-0.345906	-0.032531	75.2058	-0.344266	-21070.4	1.543929E-6	NaN
4.000000	1.000000	0.792873	7.36509e+06	-38839.1	955.819	-29796.7	0.000000	0.000000	6.793087	0.012226	NaN	0.000000	0.001548	0.001679	28.1308	0.073401	0.001921	38.2035	-52.2018	13.8391	-0.008929	0.791482	-0.334580	-0.335971	0.012226	38.2035	-0.334820	-15344.8	-7.967516E-7	NaN
4.000000	1.000000	0.802863	7.36509e+06	-38839.1	955.818	-29796.7	0.000000	0.000000	6.803076	-0.034673	NaN	0.000000	0.001596	0.001748	28.0975	0.034019	0.002048	16.613	-137.74	-164.949	-0.006325	0.801501	-0.324590	-0.325952	-0.034673	16.613	-0.323025	-10306.8	3.364076E-6	NaN
4.000000	1.000000	0.812882	7.36509e+06	-38839.1	955.818	-29796.7	0.000000	0.000000	6.813096	-0.011420	NaN	0.000000	0.001587	0.001735	28.0795	0.092190	0.002005	45.9819	142.898	15.4108	-0.032544	0.811483	-0.314571	-0.315970	-0.011420	45.9819	-0.314384	-7688.85	1.485262E-6	NaN
4.000000	1.000000	0.822875	7.36509e+06	-38839.1	955.817	-29796.7	0.000000	0.000000	6.823087	-0.048200	NaN	0.000000	0.001587	0.001697	28.0964	0.078899	0.002020	39.0649	71.3944	-161.855	-0.033757	0.821574	-0.304578	-0.305879	-0.048200	39.0649	-0.303653	-5332.81	9.038355E-6	NaN
4.000000	1.000000	0.832875	7.36509e+06	-38839.1	955.818	-29796.7	0.000000	0.000000	6.833089	-0.006165	NaN	0.000000	0.001596	0.001694	28.1296	0.073767	0.002058	35.8434	45.5235	15.729	-0.053187	0.831482	-0.294578	-0.295971	-0.006165	35.8434	-0.294449	-3889.24	1.585080E-6	NaN
4.000000	1.000000	0.842861	7.36509e+06	-38839.1	955.819	-29796.7	0.000000	0.000000	6.843075	0.004855	NaN	0.000000	0.001601	0.001707	28.0962	0.058555	0.002056	28.4777	37.6754	-165.712	0.034887	0.841585	-0.284592	-0.285868	0.004855	28.4777	-0.284720	-2780.1	-1.746445E-6	NaN
4.000000	1.000000	0.852895	7.36509e+06	-38839.1	955.818	-29796.7	0.000000	0.000000	6.853108	-0.025353	NaN	0.000000	0.001577	0.001728	28.0793	0.023694	0.001966	12.0499	174.463	13.8271	-0.030587	0.851501	-0.274558	-0.275952	-0.025353	12.0499	-0.272980	-1848.36	1.371652E-5	NaN
4.000000	1.000000	0.862879	7.36509e+06	-38839.1	955.818	-29796.7	0.000000	0.000000	6.863093	0.011868	NaN	0.000000	0.001581	0.001715	28.0939	0.036591	0.001950	18.7686	-51.9199	-164.781	-0.009835	0.861554	-0.264574	-0.265899	0.011868	18.7686	-0.265049	-1400	-8.477266E-6	NaN
4.000000	1.000000	0.872890	7.36509e+06	-38839.1	955.818	-29796.7	0.000000	0.000000	6.873104	-0.017249	NaN	0.000000	0.001582	0.001759	28.1307	0.021551	0.001934	11.1436	-167.291	17.4114	-0.024100	0.871540	-0.254563	-0.255913	-0.017249	11.1436	-0.253402	-927.887	1.858943E-5	NaN
4.000000	1.000000	0.882889	7.36509e+06	-38839.1	955.818	-29796.7	0.000000	0.000000	6.883100	-0.070765	NaN	0.000000	0.001573	0.001714	28.0966	0.109649	0.001994	54.9917	-139.597	-163.948	-0.118008	0.881603	-0.244564	-0.245850	-0.070765	54.9917	-0.243599	-654.132	0.000108	NaN
4.000000	1.000000	0.892874	7.36509e+06	-38839.1	955.818	-29796.7	0.000000	0.000000	6.893085	-0.071518	NaN	0.000000	0.001536	0.001667	28.0788	0.049988	0.002027	24.6642	140.156	12.939	-0.027271	0.891580	-0.234579	-0.235873	-0.071518	24.6642	-0.232405	-436.953	0.000164	NaN
4.000000	1.000000	0.902917	7.36509e+06	-38839.1	955.818	-29796.7	0.000000	0.000000	6.903130	-0.034995	NaN	0.000000	0.001559	0.001676	28.0958	0.077406	0.002068	37.4382	-155.687	-166.648	-0.018171	0.901608	-0.224536	-0.225845	-0.034995	37.4382	-0.223835	-319.755	0.000109	NaN
4.000000	1.000000	0.912924	7.36509e+06	-38839.1	955.818	-29796.7	0.000000	0.000000	6.913140	0.033784	NaN	0.000000	0.001526	0.001628	28.1309	0.075075	0.002163	34.7154	169.965	16.7035	0.028694	0.911554	-0.214529	-0.215899	0.033784	34.7154	-0.215259	-233.171	-0.000145	NaN
4.000000	1.000000	0.922891	7.36509e+06	-38839.1	955.818	-29796.7	0.000000	0.000000	6.923106	0.026059	NaN	0.000000	0.001557	0.001657	28.0991	0.014770	0.002013	7.335709	-3.725267	-163.665	-0.025452	0.921641	-0.204562	-0.205812	0.026059	7.335709	-0.207226	-172.907	-0.000151	NaN
4.000000	1.000000	0.932932	7.36509e+06	-38839.1	955.818	-29796.7	0.000000	0.000000	6.933142	-0.097880	NaN	0.000000	0.001594	0.001675	28.0792	0.101145	0.001995	50.6905	69.0246	15.8588	-0.064471	0.931526	-0.194521	-0.195927	-0.097880	50.6905	-0.193073	-101.21	0.000967	NaN
4.000000	1.000000	0.942897	7.36509e+06	-38839.1	955.819	-29796.7	0.000000	0.000000	6.943106	-0.135305	NaN	0.000000	0.001574	0.001638	28.0944	0.119379	0.001957	60.9908	52.3312	-165.806	-0.147558	0.941636	-0.184556	-0.185817	-0.135305	60.9908	-0.182892	-68.3175	0.001981	NaN
4.000000	1.000000	0.952941	7.36509e+06	-38839.1	955.818	-29796.7	0.000000	0.000000	6.953152	-0.092755	NaN	0.000000	0.001551	0.001630	28.1319	0.032087	0.001855	17.2945	173.408	17.6022	-0.062357	0.951583	-0.174512	-0.175870	-0.092755	17.2945	-0.170489	-41.8893	0.002214	NaN
4.000000	1.000000	0.962933	7.36509e+06	-38839.1	955.818	-29796.7	0.000000	0.000000	6.963146	-0.040551	NaN	0.000000	0.001583	0.001636	28.0992	0.075889	0.001917	39.5867	115.994	-163.236	-0.090027	0.961649	-0.164520	-0.165804	-0.040551	39.5867	-0.163751	-31.9411	0.001270	NaN
4.000000	1.000000	0.972940	7.36509e+06	-38839.1	955.818	-29796.7	0.000000	0.000000	6.973156	0.053478	NaN	0.000000	0.001590	0.001624	28.0803	0.050904	0.001999	25.4625	30.1362	17.0703	0.133510	0.971561	-0.154513	-0.155892	0.053478	25.4625	-0.156089	-23.3423	-0.002291	NaN
4.000000	1.000000	0.982958	7.36509e+06	-38839.1	955.818	-29796.7	0.000000	0.000000	6.983168	-0.097295	NaN	0.000000	0.001581	0.001657	28.096	0.017307	0.001993	8.685059	-26.2643	-165.768	-0.064852	0.981602	-0.144495	-0.145851	-0.097295	8.685059	-0.136093	-9.979807	0.009749	NaN
4.000000	1.000000	0.992961	7.36509e+06	-38839.1	955.817	-29796.7	0.000000	0.000000	6.993175	-0.008328	NaN	0.000000	0.001574	0.001660	28.1305	0.077956	0.002102	37.0841	55.8379	10.3927	-0.060073	0.991554	-0.134492	-0.135899	-0.008328	37.0841	-0.134324	-9.233382	0.000902	NaN
4.000000	1.000000	1.002929	7.36509e+06	-38839.1	955.818	-29796.7	0.000000	0.000000	7.003143	0.000746	NaN	0.000000	0.001575	0.001668	28.0989	0.068073	0.002003	33.9868	-171.291	-163.328	-0.041656	1.001618	-0.124524	-0.125835	0.000746	33.9868	-0.124541	-5.955191	-0.000125	NaN
4.000000	1.000000	1.012968	7.36509e+06	-38839.1	955.817	-29796.7	0.000000	0.000000	7.013178	-0.104430	NaN	0.000000	0.001574	0.001642	28.079	0.040493	0.001956	20.6974	25.8186	14.746	-0.055714	1.011603	-0.114485	-0.115850	-0.104430	20.6974	-0.110700	-3.108992	0.033590	NaN
4.000000	1.000000	1.022940	7.36509e+06	-38839.1	955.818	-29796.7	0.000000	0.000000	7.023153	-0.043489	NaN	0.000000	0.001578	0.001686	28.0945	0.072613	0.001988	36.5237	-156.222	-163.182	-0.064856	1.021637	-0.104513	-0.105816	-0.043489	36.5237	-0.103620	-2.194076	0.019821	NaN
4.000000	1.000000	1.032953	7.36509e+06	-38839.1	955.818	-29796.7	0.000000	0.000000	7.033161	-0.153441	NaN	0.000000	0.001597	0.001719	28.1315	0.029764	0.001909	15.5936	94.8209	18.0278	-0.051541	1.031586	-0.094500	-0.095867	-0.153441	15.5936	-0.087120	-0.923933	0.166074	NaN
4.000000	1.000000	1.042984	7.36509e+06	-38839.1	955.818	-29796.7	0.000000	0.000000	7.043198	0.002793	NaN	0.000000	0.001585	0.001635	28.0992	0.026081	0.002085	12.5083	68.976	-163.049	-0.012299	1.041698	-0.084469	-0.085755	0.002793	12.5083	-0.084637	-0.805144	-0.003469	NaN
4.000000	1.000000	1.052966	7.36509e+06	-38839.1	955.819	-29796.7	0.000000	0.000000	7.053180	-0.018879	NaN	0.000000	0.001614	0.001706	28.0786	0.039335	0.001988	19.7868	-57.4536	14.7771	-0.089069	1.051626	-0.074487	-0.075827	-0.018879	19.7868	-0.073771	-0.429140	0.043993	NaN
4.000000	1.000000	1.062947	7.36509e+06	-38839.1	955.818	-29796.7	0.000000	0.000000	7.063160	-0.029572	NaN	0.000000	0.001587	0.001669	28.0942	0.123402	0.002030	60.7899	153.225	-164.342	-0.008230	1.061644	-0.064506	-0.065809	-0.029572	60.7899	-0.064141	-0.235872	0.125372	NaN
4.000000	1.000000	1.072960	7.36509e+06	-38839.1	955.818	-29796.7	0.000000	0.000000	7.073173	-0.039212	NaN	0.000000	0.001597	0.001653	28.129	0.057855	0.001847	31.3223	-25.2603	13.6868	-0.012688	1.071659	-0.054493	-0.055794	-0.039212	31.3223	-0.053554	-0.116664	0.336106	NaN
4.000000	1.000000	1.082999	7.36509e+06	-38839.1	955.818	-29796.7	0.000000	0.000000	7.083213	-0.017689	NaN	0.000000	0.001603	0.001655	28.0977	0.033213	0.002028	16.3779	32.8857	-164.894	0.012735	1.081689	-0.044454	-0.045764	-0.017689	16.3779	-0.043644	-0.058413	0.302821	NaN
4.000000	1.000000	1.093002	7.36509e+06	-38839.1	955.817	-29796.7	0.000000	0.000000	7.093214	-0.049757	NaN	0.000000	0.001597	0.001665	28.0781	0.088824	0.001991	44.602	-74.6954	10.7045	-0.015868	1.091629	-0.034451	-0.035824	-0.049757	44.602	-0.033614	-0.029170	1.705777	NaN
4.000000	1.000000	1.102971	7.36509e+06	-38839.1	955.818	-29796.7	0.000000	0.000000	7.103186	0.015322	NaN	0.000000	0.001593	0.001658	28.0919	0.056518	0.001951	28.9655	90.4325	-163.576	0.012323	1.101648	-0.024482	-0.025804	0.015322	28.9655	-0.024879	-0.016748	-0.914860	NaN
4.000000	1.000000	1.112975	7.36509e+06	-38839.1	955.819	-29796.7	0.000000	0.000000	7.113188	-0.035353	NaN	0.000000	0.001581	0.001665	28.1303	0.080088	0.002061	38.8538	-124.833	14.9264	-0.047256	1.111596	-0.014478	-0.015857	-0.035353	38.8538	-0.013796	-0.008564	4.128187	NaN
4.000000	1.000000	1.122969	7.36509e+06	-38839.1	955.819	-29796.7	0.000000	0.000000	7.123180	-0.075097	NaN	0.000000	0.001578	0.001645	28.0986	0.033329	0.002040	16.3374	-7.326841	-161.153	-0.097514	1.121729	-0.004484	-0.005724	-0.075097	16.3374	-0.001036	-0.000759	98.9104	NaN
4.000000	1.000000	1.132962	7.36509e+06	-38839.1	955.818	-29796.7	0.000000	0.000000	7.133369	4.693700	NaN	0.000000	0.001583	0.001640	28.0782	5.507846	0.001810	3043.32	8.670922	12.2489	2.793068	1.131595	0.005509	0.004142	4.693700	3043.32	0.004352	0.003550	1322.16	46666.4
4.000000	2.000000	1.137590	7.36509e+06	-38839.1	955.818	-29796.7	0.000000	0.000000	7.138255	10.9735	NaN	0.000000	0.001577	0.001647	28.0939	10.7395	0.001494	7188.95	2.713867	-170.052	10.6142	1.137288	0.010137	0.009835	10.9735	7188.95	0.008992	0.008082	1357.71	73058.2
4.000000	2.000000	1.140055	7.36509e+06	-38839.1	955.817	-29796.7	0.000000	0.000000	7.140848	14.0877	NaN	0.000000	0.001568	0.001652	28.129	13.4296	0.001705	7877.38	8.637134	5.651492	13.192	1.139682	0.012602	0.012229	14.0877	7877.38	0.011261	0.010617	1326.95	69849.4
4.000000	2.000000	1.142513	7.36509e+06	-38839.1	955.817	-29796.7	0.000000	0.000000	7.143457	17.7393	NaN	0.000000	0.001596	0.001672	28.098	17.0023	0.001755	9685.55	8.858122	-177.166	16.3843	1.142254	0.015060	0.014801	17.7393	9685.55	0.013687	0.013574	1306.86	75952.9
4.000000	2.000000	1.145040	7.36509e+06	-38839.1	955.818	-29796.7	0.000000	0.000000	7.146222	23.548	NaN	0.000000	0.001592	0.001651	28.0779	20.0691	0.001725	11631.6	11.339	-0.069373	23.0392	1.144649	0.017587	0.017196	23.548	11631.6	0.016068	0.016737	1406.97	82144.2
4.000000	2.000000	1.147501	7.36509e+06	-38839.1	955.819	-29796.7	0.000000	0.000000	7.148852	27.6568	NaN	0.000000	0.001609	0.001639	28.0933	21.7634	0.001701	12796.6	6.449060	-177.901	28.2313	1.147247	0.020048	0.019794	27.6568	12796.6	0.018427	0.020130	1373.88	82402.8
4.000000	2.000000	1.150015	7.36509e+06	-38839.1	955.818	-29796.7	0.000000	0.000000	7.151606	33.5027	NaN	0.000000	0.001621	0.001640	28.1316	23.8088	0.001745	13643.5	5.843327	3.288578	33.7886	1.149686	0.022562	0.022233	33.5027	13643.5	0.020720	0.023687	1414.41	80993.1
4.000000	2.000000	1.152452	7.36509e+06	-38839.1	955.817	-29796.7	0.000000	0.000000	7.154277	39.1793	NaN	0.000000	0.001604	0.001619	28.1013	26.7897	0.001852	14463.6	1.965721	-175.95	37.2596	1.152158	0.024999	0.024705	39.1793	14463.6	0.022968	0.027422	1428.75	79799.5
4.000000	2.000000	1.154991	7.36509e+06	-38839.1	955.817	-29796.7	0.000000	0.000000	7.157077	45.5567	NaN	0.000000	0.001599	0.001688	28.0816	29.4806	0.001918	15367	9.734677	-1.527128	44.0093	1.154597	0.027538	0.027144	45.5567	15367	0.025315	0.031590	1442.11	78992.1
4.000000	2.000000	1.157461	7.36509e+06	-38839.1	955.819	-29796.7	0.000000	0.000000	7.159819	52.1643	NaN	0.000000	0.001600	0.001684	28.0946	31.2298	0.001823	17133.2	2.164139	-176.289	50.7846	1.157183	0.030008	0.029730	52.1643	17133.2	0.027725	0.036160	1442.59	82318.4
4.000000	2.000000	1.159961	7.36509e+06	-38839.1	955.818	-29796.7	0.000000	0.000000	7.162658	60.4182	NaN	0.000000	0.001603	0.001692	28.1304	33.1649	0.001703	19477.4	5.415112	-0.605468	58.73	1.159653	0.032508	0.032200	60.4182	19477.4	0.030182	0.041121	1469.28	87755.1
4.000000	2.000000	1.162460	7.36509e+06	-38839.1	955.818	-29796.7	0.000000	0.000000	7.165392	66.1381	NaN	0.000000	0.001609	0.001689	28.0998	37.212	0.001873	19866.4	8.559332	177.115	65.9231	1.162094	0.035007	0.034641	66.1381	19866.4	0.032511	0.046108	1434.41	84528.3
4.000000	2.000000	1.165015	7.36509e+06	-38839.1	955.817	-29796.7	0.000000	0.000000	7.168351	75.9778	NaN	0.000000	0.001603	0.001668	28.0793	38.7628	0.001781	21760.8	6.324251	-1.449254	76.2417	1.164597	0.037562	0.037144	75.9778	21760.8	0.034943	0.051614	1472.03	87511.3
4.000000	2.000000	1.167451	7.36509e+06	-38839.1	955.817	-29796.7	0.000000	0.000000	7.171207	86.1864	NaN	0.000000	0.001588	0.001672	28.0942	40.8955	0.001782	22943.5	6.892689	177.004	84.5555	1.167100	0.039998	0.039647	86.1864	22943.5	0.037181	0.056946	1513.47	87841.5
4.000000	2.000000	1.169855	7.36509e+06	-38839.1	955.817	-29796.7	0.000000	0.000000	7.173938	94.1586	NaN	0.000000	0.001645	0.001653	28.1326	42.6025	0.001779	23940.7	2.422298	0.616849	87.6573	1.169524	0.042402	0.042071	94.1586	23940.7	0.039452	0.062620	1503.66	87408.7
4.000000	2.000000	1.172456	7.36509e+06	-38839.1	955.819	-29796.7	0.000000	0.000000	7.176902	102.975	NaN	0.000000	0.001648	0.001663	28.1014	46.1361	0.001830	25208.2	6.099314	176.156	101.728	1.172125	0.045003	0.044672	102.975	25208.2	0.041939	0.069136	1489.46	87592
4.000000	2.000000	1.174948	7.36509e+06	-38839.1	955.819	-29796.7	0.000000	0.000000	7.179807	113.047	NaN	0.000000	0.001584	0.001628	28.0813	47.7744	0.001808	26431.2	6.383947	-4.298718	110.635	1.174628	0.047495	0.047175	113.047	26431.2	0.044287	0.075576	1495.8	87841
4.000000	2.000000	1.177420	7.36509e+06	-38839.1	955.819	-29796.7	0.000000	0.000000	7.182728	123.954	NaN	0.000000	0.001593	0.001635	28.0933	49.268	0.001879	26215.4	3.453929	179.103	122.041	1.177166	0.049967	0.049713	123.954	26215.4	0.046421	0.081672	1517.72	83809.7
4.000000	2.000000	1.179941	7.36509e+06	-38839.1	955.819	-29796.7	0.000000	0.000000	7.185629	133.205	NaN	0.000000	0.001623	0.001661	28.1311	52.0805	0.001826	28519.5	3.970010	-2.559050	130.986	1.179661	0.052488	0.052208	133.205	28519.5	0.048985	0.089303	1491.61	87193.2
4.000000	2.000000	1.182426	7.36509e+06	-38839.1	955.818	-29796.7	0.000000	0.000000	7.188585	144.663	NaN	0.000000	0.001580	0.001671	28.0988	54.7472	0.001872	29243.6	2.580533	179.339	143.419	1.182203	0.054973	0.054750	144.663	29243.6	0.051263	0.096356	1501.33	86072.5
4.000000	2.000000	1.184923	7.36509e+06	-38839.1	955.819	-29796.7	0.000000	0.000000	7.191685	159.343	NaN	0.000000	0.001630	0.001670	28.0774	55.7095	0.001666	33444.1	1.975183	-1.550172	155.826	1.184601	0.057470	0.057148	159.343	33444.1	0.053897	0.104837	1519.92	94370.6
4.000000	2.000000	1.187409	7.36509e+06	-38839.1	955.819	-29796.7	0.000000	0.000000	7.194772	173.983	NaN	0.000000	0.001636	0.001658	28.0922	58.1926	0.001925	30236.6	5.803947	175.941	171.529	1.187050	0.059956	0.059597	173.983	30236.6	0.055640	0.110640	1572.51	83051.7
4.000000	2.000000	1.189933	7.36509e+06	-38839.1	955.818	-29796.7	0.000000	0.000000	7.197932	189.457	NaN	0.000000	0.001638	0.001675	28.1302	59.7542	0.001736	34418.5	4.928319	-3.954126	187.179	1.189427	0.062480	0.061974	189.457	34418.5	0.058351	0.119963	1579.3	90790.7
4.000000	2.000000	1.192410	7.36509e+06	-38839.1	955.819	-29796.7	0.000000	0.000000	7.200918	201.828	NaN	0.000000	0.001651	0.001670	28.0998	62.7491	0.001714	36611.6	4.190343	175.083	199.648	1.192129	0.064957	0.064676	201.828	36611.6	0.060823	0.128775	1567.29	93212.9
4.000000	2.000000	1.194902	7.36509e+06	-38839.1	955.819	-29796.7	0.000000	0.000000	7.204048	217.351	NaN	0.000000	0.001619	0.001680	28.0775	65.0898	0.001789	36393.3	5.963065	-5.604424	213.413	1.194536	0.067449	0.067083	217.351	36393.3	0.062970	0.136672	1590.31	89940.4
4.000000	2.000000	1.197444	7.36509e+06	-38839.1	955.818	-29796.7	0.000000	0.000000	7.207066	228.943	NaN	0.000000	0.001592	0.001673	28.0927	68.0479	0.001855	36681.3	7.904190	172.996	228.795	1.196990	0.069991	0.069537	228.943	36681.3	0.065310	0.145535	1573.11	87848.6
4.000000	2.000000	1.199860	7.36509e+06	-38839.1	955.817	-29796.7	0.000000	0.000000	7.210218	246.867	NaN	0.000000	0.001632	0.001723	28.1288	70.4196	0.001786	39432.7	5.073689	-5.898900	241.136	1.199524	0.072407	0.072071	246.867	39432.7	0.067711	0.154903	1593.69	91537.5
4.000000	2.000000	1.202393	7.36509e+06	-38839.1	955.817	-29796.7	0.000000	0.000000	7.213147	256.48	NaN	0.000000	0.001629	0.001721	28.098	73.772	0.001766	41761.8	5.659275	172.896	253.816	1.202087	0.074940	0.074635	256.48	41761.8	0.070334	0.165450	1550.2	93803.6
4.000000	2.000000	1.204998	7.36509e+06	-38839.1	955.818	-29796.7	0.000000	0.000000	7.216493	274.52	NaN	0.000000	0.001655	0.001675	28.0787	75.4568	0.001750	43112.8	7.636073	-8.284259	274.16	1.204500	0.077545	0.077047	274.52	43112.8	0.072769	0.175535	1563.9	94015.1
4.000000	2.000000	1.207389	7.36509e+06	-38839.1	955.818	-29796.7	0.000000	0.000000	7.219617	292.36	NaN	0.000000	0.001620	0.001676	28.0916	78.1592	0.001894	41263	5.283837	173.947	289.893	1.207070	0.079936	0.079617	292.36	41263	0.074622	0.183397	1594.14	88031.5
4.000000	2.000000	1.209875	7.36509e+06	-38839.1	955.819	-29796.7	0.000000	0.000000	7.222748	308.05	NaN	0.000000	0.001619	0.001676	28.1302	79.0425	0.001728	45742.4	-0.463893	-1.401405	303.924	1.209653	0.082423	0.082200	308.05	45742.4	0.077372	0.195361	1576.82	94552.6
4.000000	2.000000	1.212403	7.36509e+06	-38839.1	955.818	-29796.7	0.000000	0.000000	7.225894	323.08	NaN	0.000000	0.001646	0.001655	28.1015	83.1421	0.001808	45998.2	4.812508	173.456	325.384	1.212061	0.084950	0.084608	323.08	45998.2	0.079683	0.205691	1570.71	92663.1
4.000000	2.000000	1.214848	7.36509e+06	-38839.1	955.819	-29796.7	0.000000	0.000000	7.229315	346.848	NaN	0.000000	0.001614	0.001692	28.0789	84.5493	0.001785	47367	3.356340	-5.328714	340.644	1.214550	0.087395	0.087097	346.848	47367	0.081903	0.215851	1606.89	93147.7
4.000000	2.000000	1.217304	7.36509e+06	-38839.1	955.819	-29796.7	0.000000	0.000000	7.232376	361.571	NaN	0.000000	0.001611	0.001686	28.0937	86.3627	0.001816	47564.6	4.179491	173.878	357.313	1.217043	0.089851	0.089590	361.571	47564.6	0.084150	0.226361	1597.32	91339
4.000000	2.000000	1.219846	7.36509e+06	-38839.1	955.818	-29796.7	0.000000	0.000000	7.235877	384.911	NaN	0.000000	0.001577	0.001667	28.1301	89.8957	0.001854	48496	6.174632	-8.435304	379.596	1.219482	0.092393	0.092029	384.911	48496	0.086440	0.237321	1621.9	90951.7
4.000000	2.000000	1.222462	7.36509e+06	-38839.1	955.818	-29796.7	0.000000	0.000000	7.239040	398.221	NaN	0.000000	0.001626	0.001632	28.1012	93.8328	0.001950	48108.9	8.229011	169.943	400.61	1.222085	0.095009	0.094632	398.221	48108.9	0.088801	0.248868	1600.13	88107.8
4.000000	2.000000	1.224896	7.36509e+06	-38839.1	955.817	-29796.7	0.000000	0.000000	7.242288	418.013	NaN	0.000000	0.001617	0.001657	28.079	93.9662	0.001762	53344	5.775485	-8.415382	414.162	1.224565	0.097443	0.097112	418.013	53344	0.091566	0.262717	1591.11	95085.5
4.000000	2.000000	1.227331	7.36509e+06	-38839.1	955.818	-29796.7	0.000000	0.000000	7.245425	435.097	NaN	0.000000	0.001570	0.001663	28.091	95.36	0.001838	51875.1	3.832673	172.997	431.286	1.227129	0.099878	0.099676	435.097	51875.1	0.093588	0.273065	1593.38	90698.4
4.000000	2.000000	1.229710	7.36509e+06	-38839.1	955.819	-29796.7	0.000000	0.000000	7.248707	457.091	NaN	0.000000	0.001628	0.001692	28.131	98.5764	0.001727	57073.5	1.859285	-5.355727	445.698	1.229323	0.102257	0.101870	457.091	57073.5	0.096250	0.286978	1592.78	97338.3
4.000000	2.000000	1.232295	7.36509e+06	-38839.1	955.819	-29796.7	0.000000	0.000000	7.252258	480.615	NaN	0.000000	0.001577	0.001665	28.1024	102.277	0.001753	58353.2	3.658613	173.396	475.496	1.231927	0.104842	0.104474	480.615	58353.2	0.098664	0.299871	1602.74	97357.7
4.000000	2.000000	1.234278	7.36509e+06	-38839.1	955.819	-29796.7	0.000000	0.000000	7.255011	499.329	NaN	0.000000	0.001590	0.001678	28.1026	103.459	0.001798	57550.2	6.285302	170.412	493.644	1.233958	0.106825	0.106505	499.329	57550.2	0.100318	0.308854	1616.72	94611.4