File: remote_trans/data/nanoindenter/0828-1/data/Data_2025-08-06,11h17m57s/2025-07-22_16-23-58_1_1125.txt
2025-07-22, 16:23:58, 1
Index	Phase	Displacement	Time	Pos X	Pos Y	Pos Z	Rot A	Rot B	Piezo Z	Force A	Force B	Gripper	Voltage A	Voltage B	Temperature	Amplitude force	Amplitude pos	Stiffness	Phase shift	Phase excitation	Force A raw	Displacement raw	HMax	HMax raw	Real Force	Real Stiffness	Contact Depth	Area	Hardness	Reduced Mod.
[#]	[#]	[um]	[s]	[um]	[um]	[um]	[m°]	[m°]	[um]	[uN]	[uN]	[V]	[V]	[V]	[°C]	[uN]	[um]	[N/m]	[°]	[°]	[uN]	[um]	[um]	[um]	[uN]	[N/m]	[um]	[um^2]	[MPa]	[MPa]
1125	1.000000	0.002479	7.37606e+06	-56389.1	1055.82	-29739.1	0.000000	0.000000	6.002769	-0.063934	NaN	0.000000	0.001643	0.001693	28.0819	0.041544	0.000947	43.875	-117.29	-168.615	-0.015392	0.001279	-1.109389	-1.110589	-0.063934	43.875	-1.108296	-6.477630E+14	9.869918E-17	NaN
1125	1.000000	0.012565	7.37606e+06	-56389.1	1055.82	-29739.1	0.000000	0.000000	6.012858	0.034231	NaN	0.000000	0.001627	0.001688	28.0817	0.072636	0.001272	57.0848	85.6659	12.8246	-0.044248	0.011116	-1.099303	-1.100752	0.034231	57.0848	-1.099753	-4.974543E+14	-6.881248E-17	NaN
1125	1.000000	0.022465	7.37606e+06	-56389.1	1055.82	-29739.1	0.000000	0.000000	6.022758	0.017144	NaN	0.000000	0.001596	0.001681	28.0816	0.100123	0.001636	61.2154	44.8141	-168.105	0.022063	0.021146	-1.089403	-1.090721	0.017144	61.2154	-1.089613	-3.635918E+14	-4.715128E-17	NaN
1125	1.000000	0.032480	7.37606e+06	-56389.1	1055.82	-29739.1	0.000000	0.000000	6.032772	-0.026149	NaN	0.000000	0.001602	0.001674	28.0814	0.024421	0.001847	13.2191	21.4787	13.8751	0.077243	0.031103	-1.079387	-1.080765	-0.026149	13.2191	-1.077904	-2.531420E+14	1.032978E-16	NaN
1125	1.000000	0.042469	7.37606e+06	-56389.1	1055.82	-29739.1	0.000000	0.000000	6.042766	0.107772	NaN	0.000000	0.001606	0.001697	28.0815	0.131309	0.002055	63.8899	-149.188	-167.533	0.086796	0.041141	-1.069399	-1.070727	0.107772	63.8899	-1.070664	-2.023522E+14	-5.325938E-16	NaN
1125	1.000000	0.052457	7.37606e+06	-56389.1	1055.82	-29739.1	0.000000	0.000000	6.052752	0.063332	NaN	0.000000	0.001633	0.001702	28.0813	0.116054	0.001963	59.1259	-155.381	15.0137	0.027024	0.051105	-1.059411	-1.060763	0.063332	59.1259	-1.060214	-1.464542E+14	-4.324376E-16	NaN
1125	1.000000	0.062464	7.37606e+06	-56389.1	1055.82	-29739.1	0.000000	0.000000	6.062755	-0.036300	NaN	0.000000	0.001640	0.001698	28.0815	0.007859	0.001934	4.062724	-45.5573	-169.97	-0.051645	0.061156	-1.049404	-1.050712	-0.036300	4.062724	-1.042703	-8.517434E+13	4.261808E-16	NaN
1125	1.000000	0.072504	7.37606e+06	-56389.1	1055.82	-29739.1	0.000000	0.000000	6.072797	0.012543	NaN	0.000000	0.001600	0.001697	28.0815	0.009503	0.002160	4.400028	23.4643	15.606	0.033811	0.071129	-1.039364	-1.040739	0.012543	4.400028	-1.041502	-8.206593E+13	-1.528414E-16	NaN
1125	1.000000	0.082460	7.37606e+06	-56389.1	1055.82	-29739.1	0.000000	0.000000	6.082755	0.046084	NaN	0.000000	0.001608	0.001756	28.0815	0.035742	0.001930	18.517	102.413	-166.018	0.013250	0.081131	-1.029407	-1.030737	0.046084	18.517	-1.031274	-5.978826E+13	-7.707882E-16	NaN
1125	1.000000	0.092493	7.37606e+06	-56389.1	1055.82	-29739.1	0.000000	0.000000	6.092789	0.080636	NaN	0.000000	0.001616	0.001695	28.0812	0.108533	0.002023	53.6543	-77.9685	13.1967	-0.035982	0.091081	-1.019375	-1.020787	0.080636	53.6543	-1.020502	-4.282575E+13	-1.882877E-15	NaN
1125	1.000000	0.102450	7.37606e+06	-56389.1	1055.82	-29739.1	0.000000	0.000000	6.102742	-0.004288	NaN	0.000000	0.001604	0.001657	28.0824	0.065117	0.001945	33.4726	-45.3378	-166.614	0.029202	0.101173	-1.009418	-1.010694	-0.004288	33.4726	-1.009322	-3.028711E+13	1.415699E-16	NaN
1125	1.000000	0.112469	7.37606e+06	-56389.1	1055.82	-29739.1	0.000000	0.000000	6.112760	-0.021871	NaN	0.000000	0.001612	0.001732	28.0825	0.055830	0.002119	26.3424	114.35	12.5555	-0.020370	0.111097	-0.999399	-1.000771	-0.021871	26.3424	-0.998777	-2.184229E+13	1.001334E-15	NaN
1125	1.000000	0.122520	7.37606e+06	-56389.1	1055.82	-29739.1	0.000000	0.000000	6.122816	0.083392	NaN	0.000000	0.001598	0.001694	28.0824	0.096036	0.001922	49.9774	-175.087	-167.294	0.074708	0.121145	-0.989348	-0.990722	0.083392	49.9774	-0.990599	-1.695048E+13	-4.919754E-15	NaN
1125	1.000000	0.132491	7.37606e+06	-56389.1	1055.82	-29739.1	0.000000	0.000000	6.132785	0.038364	NaN	0.000000	0.001623	0.001676	28.0824	0.041017	0.001961	20.9142	175.455	16.3494	-0.014807	0.131160	-0.979377	-0.980708	0.038364	20.9142	-0.980753	-1.248978E+13	-3.071669E-15	NaN
1125	1.000000	0.142491	7.37606e+06	-56389.1	1055.82	-29739.1	0.000000	0.000000	6.142781	-0.069168	NaN	0.000000	0.001667	0.001697	28.0826	0.022884	0.001845	12.4065	-109.71	-166.011	-0.116495	0.141189	-0.969377	-0.970679	-0.069168	12.4065	-0.965195	-7.707353E+12	8.974272E-15	NaN
1125	1.000000	0.152489	7.37606e+06	-56389.1	1055.82	-29739.1	0.000000	0.000000	6.152785	0.085423	NaN	0.000000	0.001696	0.001694	28.0829	0.112083	0.002035	55.0737	133.752	13.9149	0.040392	0.151180	-0.959379	-0.960688	0.085423	55.0737	-0.960542	-6.670759E+12	-1.280552E-14	NaN
1125	1.000000	0.162522	7.37606e+06	-56389.1	1055.82	-29739.1	0.000000	0.000000	6.162815	0.013387	NaN	0.000000	0.001665	0.001703	28.0825	0.095421	0.001949	48.9533	5.827207	-168.7	0.020629	0.161151	-0.949346	-0.950717	0.013387	48.9533	-0.949551	-4.742104E+12	-2.822925E-15	NaN
1125	1.000000	0.172535	7.37606e+06	-56389.1	1055.82	-29739.1	0.000000	0.000000	6.172826	-0.045978	NaN	0.000000	0.001673	0.001695	28.0826	0.016277	0.001997	8.150196	40.3015	13.5492	-0.051771	0.171110	-0.939333	-0.940758	-0.045978	8.150196	-0.935102	-3.027230E+12	1.518799E-14	NaN
1125	1.000000	0.182520	7.37606e+06	-56389.1	1055.82	-29739.1	0.000000	0.000000	6.182812	-0.003732	NaN	0.000000	0.001686	0.001696	28.0827	0.115105	0.002024	56.8624	-159.95	-163.053	-0.039755	0.181156	-0.929348	-0.930712	-0.003732	56.8624	-0.929299	-2.527726E+12	1.476278E-15	NaN
1125	1.000000	0.192487	7.37606e+06	-56389.1	1055.82	-29739.1	0.000000	0.000000	6.192779	0.010818	NaN	0.000000	0.001657	0.001727	28.0828	0.031514	0.001960	16.0792	159.396	14.7021	-0.071649	0.191208	-0.919381	-0.920660	0.010818	16.0792	-0.919886	-1.886539E+12	-5.734473E-15	NaN
1125	1.000000	0.202531	7.37606e+06	-56389.1	1055.82	-29739.1	0.000000	0.000000	6.202824	0.006513	NaN	0.000000	0.001628	0.001729	28.0826	0.083164	0.001883	44.1722	-21.119	-162.707	0.054978	0.201204	-0.909337	-0.910664	0.006513	44.1722	-0.909447	-1.363635E+12	-4.776440E-15	NaN
1125	1.000000	0.212534	7.37606e+06	-56389.1	1055.82	-29739.1	0.000000	0.000000	6.212831	0.089628	NaN	0.000000	0.001622	0.001711	28.0829	0.069579	0.002081	33.4362	59.7431	15.2284	0.008737	0.211164	-0.899333	-0.900703	0.089628	33.4362	-0.901344	-1.059802E+12	-8.457011E-14	NaN
1125	1.000000	0.222520	7.37606e+06	-56389.1	1055.82	-29739.1	0.000000	0.000000	6.222812	-0.007612	NaN	0.000000	0.001612	0.001743	28.083	0.079936	0.002146	37.2446	-166.657	-164.737	0.046321	0.221214	-0.889348	-0.890654	-0.007612	37.2446	-0.889195	-7.261579E+11	1.048242E-14	NaN
1125	1.000000	0.232521	7.37606e+06	-56389.1	1055.82	-29739.1	0.000000	0.000000	6.232812	-0.034226	NaN	0.000000	0.001623	0.001713	28.0817	0.087007	0.001963	44.316	170.326	11.4499	-0.070409	0.231205	-0.879347	-0.880662	-0.034226	44.316	-0.878768	-5.248620E+11	6.520870E-14	NaN
1125	1.000000	0.242504	7.37606e+06	-56389.1	1055.82	-29739.1	0.000000	0.000000	6.242797	0.017232	NaN	0.000000	0.001644	0.001684	28.0815	0.106910	0.001920	55.6734	-155.437	-167.982	-0.000415	0.241236	-0.869364	-0.870632	0.017232	55.6734	-0.869596	-3.944428E+11	-4.368573E-14	NaN
1125	1.000000	0.252521	7.37606e+06	-56389.1	1055.82	-29739.1	0.000000	0.000000	6.252814	0.024477	NaN	0.000000	0.001632	0.001690	28.0816	0.102119	0.001996	51.1731	-162.748	11.835	0.058441	0.251165	-0.859347	-0.860703	0.024477	51.1731	-0.859706	-2.898265E+11	-8.445269E-14	NaN
1125	1.000000	0.262577	7.37606e+06	-56389.1	1055.82	-29739.1	0.000000	0.000000	6.262870	0.016468	NaN	0.000000	0.001670	0.001725	28.0818	0.029781	0.001980	15.0406	-104.57	-164.537	0.029538	0.261218	-0.849291	-0.850650	0.016468	15.0406	-0.850112	-2.149071E+11	-7.662662E-14	NaN
1125	1.000000	0.272547	7.37606e+06	-56389.1	1055.82	-29739.1	0.000000	0.000000	6.272843	0.070713	NaN	0.000000	0.001656	0.001712	28.0814	0.103000	0.001949	52.8519	28.8606	14.6689	-0.052575	0.271160	-0.839320	-0.840707	0.070713	52.8519	-0.840324	-1.583731E+11	-4.464953E-13	NaN
1125	1.000000	0.282561	7.37606e+06	-56389.1	1055.82	-29739.1	0.000000	0.000000	6.282851	-0.042037	NaN	0.000000	0.001611	0.001690	28.0813	0.051075	0.002142	23.8442	53.9112	-165.689	-0.103796	0.281212	-0.829307	-0.830656	-0.042037	23.8442	-0.827985	-1.077639E+11	3.900838E-13	NaN
1125	1.000000	0.292573	7.37606e+06	-56389.1	1055.82	-29739.1	0.000000	0.000000	6.292866	0.006887	NaN	0.000000	0.001640	0.001682	28.0813	0.086612	0.001956	44.285	104.073	13.6409	0.019911	0.291226	-0.819295	-0.820642	0.006887	44.285	-0.819411	-8.245703E+10	-8.352323E-14	NaN
1125	1.000000	0.302544	7.37606e+06	-56389.1	1055.82	-29739.1	0.000000	0.000000	6.302839	0.061997	NaN	0.000000	0.001646	0.001705	28.0815	0.077696	0.001991	39.0289	-90.8841	-164.426	0.056001	0.301205	-0.809324	-0.810663	0.061997	39.0289	-0.810515	-6.245422E+10	-9.926771E-13	NaN
1125	1.000000	0.312565	7.37606e+06	-56389.1	1055.82	-29739.1	0.000000	0.000000	6.312860	0.051346	NaN	0.000000	0.001652	0.001685	28.0815	0.175402	0.002065	84.9219	-37.5518	13.2951	0.033251	0.311166	-0.799303	-0.800701	0.051346	84.9219	-0.799756	-4.462256E+10	-1.150664E-12	NaN
1125	1.000000	0.322547	7.37606e+06	-56389.1	1055.82	-29739.1	0.000000	0.000000	6.322839	-0.005577	NaN	0.000000	0.001678	0.001684	28.0813	0.092812	0.001985	46.7648	-153.856	-168.839	-0.006930	0.321213	-0.789321	-0.790655	-0.005577	46.7648	-0.789232	-3.211061E+10	1.736749E-13	NaN
1125	1.000000	0.332562	7.37606e+06	-56389.1	1055.82	-29739.1	0.000000	0.000000	6.332855	0.004769	NaN	0.000000	0.001704	0.001655	28.0817	0.047292	0.001992	23.7435	175.575	13.7311	-0.006872	0.331229	-0.779306	-0.780638	0.004769	23.7435	-0.779456	-2.365073E+10	-2.016548E-13	NaN
1125	1.000000	0.342588	7.37606e+06	-56389.1	1055.82	-29739.1	0.000000	0.000000	6.342878	-0.052445	NaN	0.000000	0.001684	0.001695	28.0814	0.016323	0.001902	8.580616	140.714	-163.133	-0.110162	0.341260	-0.769280	-0.770607	-0.052445	8.580616	-0.764696	-1.489993E+10	3.519804E-12	NaN
1125	1.000000	0.352590	7.37606e+06	-56389.1	1055.82	-29739.1	0.000000	0.000000	6.352880	-0.064351	NaN	0.000000	0.001654	0.001691	28.0814	0.108424	0.001976	54.8642	45.9024	16.7597	-0.082410	0.351179	-0.759278	-0.760688	-0.064351	54.8642	-0.758398	-1.223230E+10	5.260746E-12	NaN
1125	1.000000	0.362597	7.37606e+06	-56389.1	1055.82	-29739.1	0.000000	0.000000	6.362891	0.039860	NaN	0.000000	0.001658	0.001662	28.0812	0.063592	0.001961	32.4292	-42.3834	-165.697	0.016901	0.361250	-0.749271	-0.750618	0.039860	32.4292	-0.750192	-9.458857E+9	-4.214091E-12	NaN
1125	1.000000	0.372569	7.37606e+06	-56389.1	1055.82	-29739.1	0.000000	0.000000	6.372864	0.072985	NaN	0.000000	0.001653	0.001700	28.0827	0.026121	0.002022	12.9175	-42.9223	10.0215	0.135264	0.371245	-0.739299	-0.740623	0.072985	12.9175	-0.743537	-7.677571E+9	-9.506299E-12	NaN
1125	1.000000	0.382592	7.37606e+06	-56389.1	1055.82	-29739.1	0.000000	0.000000	6.382883	-0.030720	NaN	0.000000	0.001654	0.001676	28.0826	0.072524	0.002034	35.6611	98.4545	-165.294	0.019733	0.381271	-0.729276	-0.730597	-0.030720	35.6611	-0.728630	-4.809935E+9	6.386706E-12	NaN
1125	1.000000	0.392569	7.37606e+06	-56389.1	1055.82	-29739.1	0.000000	0.000000	6.392860	-0.031390	NaN	0.000000	0.001647	0.001691	28.0825	0.136042	0.002014	67.5555	73.6813	13.4046	0.068250	0.391238	-0.719299	-0.720630	-0.031390	67.5555	-0.718950	-3.549428E+9	8.843812E-12	NaN
1125	1.000000	0.402592	7.37606e+06	-56389.1	1055.82	-29739.1	0.000000	0.000000	6.402883	-0.041900	NaN	0.000000	0.001633	0.001657	28.0828	0.088327	0.002049	43.112	121.793	-163.787	-0.023102	0.401266	-0.709276	-0.710602	-0.041900	43.112	-0.708547	-2.559873E+9	1.636786E-11	NaN
1125	1.000000	0.412555	7.37606e+06	-56389.1	1055.82	-29739.1	0.000000	0.000000	6.412846	-0.019813	NaN	0.000000	0.001656	0.001694	28.0827	0.117177	0.001959	59.8018	96.34	19.5951	-0.051009	0.411269	-0.699313	-0.700599	-0.019813	59.8018	-0.699065	-1.900009E+9	1.042790E-11	NaN
1125	1.000000	0.422628	7.37606e+06	-56389.1	1055.82	-29739.1	0.000000	0.000000	6.422921	0.020734	NaN	0.000000	0.001676	0.001707	28.0827	0.058572	0.001854	31.588	-80.0208	-167.932	0.001215	0.421298	-0.689240	-0.690570	0.020734	31.588	-0.689732	-1.416637E+9	-1.463572E-11	NaN
1125	1.000000	0.432587	7.37606e+06	-56389.1	1055.82	-29739.1	0.000000	0.000000	6.432880	0.013145	NaN	0.000000	0.001662	0.001675	28.0826	0.021175	0.002053	10.3123	-89.3461	11.0099	0.057717	0.431282	-0.679281	-0.680586	0.013145	10.3123	-0.680237	-1.050627E+9	-1.251128E-11	NaN
1125	1.000000	0.442643	7.37606e+06	-56389.1	1055.82	-29739.1	0.000000	0.000000	6.442935	-0.023546	NaN	0.000000	0.001633	0.001697	28.083	0.038921	0.002037	19.1098	-163.494	-168.413	-0.037711	0.441261	-0.669225	-0.670607	-0.023546	19.1098	-0.668301	-7.213234E+8	3.264336E-11	NaN
1125	1.000000	0.452621	7.37606e+06	-56389.1	1055.82	-29739.1	0.000000	0.000000	6.452911	-0.049915	NaN	0.000000	0.001646	0.001707	28.0828	0.119379	0.001901	62.7886	81.4831	12.1389	0.046322	0.451248	-0.659247	-0.660620	-0.049915	62.7886	-0.658651	-5.320898E+8	9.380914E-11	NaN
1125	1.000000	0.462654	7.37606e+06	-56389.1	1055.82	-29739.1	0.000000	0.000000	6.462947	0.018144	NaN	0.000000	0.001607	0.001687	28.0827	0.103319	0.002022	51.1097	162.975	-167.219	0.023842	0.461336	-0.649214	-0.650532	0.018144	51.1097	-0.649480	-3.983894E+8	-4.554261E-11	NaN
1125	1.000000	0.472651	7.37606e+06	-56389.1	1055.82	-29739.1	0.000000	0.000000	6.472943	-0.011192	NaN	0.000000	0.001630	0.001711	28.0825	0.088904	0.002012	44.188	38.5772	16.5797	0.015609	0.471328	-0.639217	-0.640540	-0.011192	44.188	-0.639027	-2.863793E+8	3.908174E-11	NaN
1125	1.000000	0.482633	7.37606e+06	-56389.1	1055.82	-29739.1	0.000000	0.000000	6.482924	-0.012965	NaN	0.000000	0.001640	0.001718	28.0829	0.181099	0.001861	97.2977	-1.672073	-164.65	-0.051453	0.481313	-0.629235	-0.630555	-0.012965	97.2977	-0.629135	-2.094837E+8	6.189045E-11	NaN
1125	1.000000	0.492655	7.37606e+06	-56389.1	1055.82	-29739.1	0.000000	0.000000	6.492947	0.008698	NaN	0.000000	0.001640	0.001664	28.0836	0.020741	0.002111	9.826664	-28.6043	15.8171	0.082487	0.491291	-0.619213	-0.620577	0.008698	9.826664	-0.619877	-1.562949E+8	-5.565338E-11	NaN
1125	1.000000	0.502661	7.37606e+06	-56389.1	1055.82	-29739.1	0.000000	0.000000	6.502953	-0.010470	NaN	0.000000	0.001697	0.001707	28.0828	0.098193	0.002068	47.4792	-146.184	-164.217	-0.052693	0.501361	-0.609207	-0.610507	-0.010470	47.4792	-0.609041	-1.108981E+8	9.441345E-11	NaN
1125	1.000000	0.512666	7.37606e+06	-56389.1	1055.82	-29739.1	0.000000	0.000000	6.512956	-0.045672	NaN	0.000000	0.001708	0.001687	28.0815	0.103680	0.002043	50.7535	-0.634466	17.2934	0.038831	0.511270	-0.599202	-0.600598	-0.045672	50.7535	-0.598527	-7.946433E+7	5.747527E-10	NaN
1125	1.000000	0.522637	7.37606e+06	-56389.1	1055.82	-29739.1	0.000000	0.000000	6.522932	0.062287	NaN	0.000000	0.001697	0.001694	28.0816	0.067219	0.001915	35.1066	164.852	-169.56	0.057420	0.521321	-0.589230	-0.590547	0.062287	35.1066	-0.590561	-6.171653E+7	-1.009251E-9	NaN
1125	1.000000	0.532652	7.37606e+06	-56389.1	1055.82	-29739.1	0.000000	0.000000	6.532943	-0.021401	NaN	0.000000	0.001716	0.001722	28.0814	0.102485	0.002030	50.4882	62.2048	13.8658	0.024886	0.531294	-0.579216	-0.580574	-0.021401	50.4882	-0.578898	-4.261062E+7	5.022347E-10	NaN
1125	1.000000	0.542655	7.37606e+06	-56389.1	1055.82	-29739.1	0.000000	0.000000	6.542946	-0.044876	NaN	0.000000	0.001713	0.001742	28.0813	0.037053	0.001929	19.2053	155.086	-167.918	-0.077566	0.541308	-0.569213	-0.570560	-0.044876	19.2053	-0.567460	-2.961649E+7	1.515247E-9	NaN
1125	1.000000	0.552687	7.37606e+06	-56389.1	1055.82	-29739.1	0.000000	0.000000	6.552979	0.001828	NaN	0.000000	0.001680	0.001702	28.0817	0.103605	0.002009	51.5615	-136.609	14.0576	-0.003549	0.551306	-0.559181	-0.560562	0.001828	51.5615	-0.559208	-2.277281E+7	-8.025033E-11	NaN
1125	1.000000	0.562685	7.37606e+06	-56389.1	1055.82	-29739.1	0.000000	0.000000	6.562975	-0.050397	NaN	0.000000	0.001664	0.001725	28.0812	0.093677	0.002053	45.6394	109.06	-162.29	-0.050604	0.561353	-0.549183	-0.550515	-0.050397	45.6394	-0.548355	-1.611282E+7	3.127745E-9	NaN
1125	1.000000	0.572666	7.37606e+06	-56389.1	1055.82	-29739.1	0.000000	0.000000	6.572958	-0.010593	NaN	0.000000	0.001718	0.001694	28.0814	0.093357	0.001953	47.8111	81.7563	10.1784	-0.024675	0.571331	-0.539202	-0.540537	-0.010593	47.8111	-0.539036	-1.196693E+7	8.851689E-10	NaN
1125	1.000000	0.582688	7.37606e+06	-56389.1	1055.82	-29739.1	0.000000	0.000000	6.582983	0.074348	NaN	0.000000	0.001674	0.001696	28.0813	0.054333	0.002035	26.7034	12.9927	-164.237	0.038813	0.581357	-0.529180	-0.530511	0.074348	26.7034	-0.531268	-9.33654e+06	-7.963141E-9	NaN
1125	1.000000	0.592698	7.37606e+06	-56389.1	1055.82	-29739.1	0.000000	0.000000	6.592989	-0.021711	NaN	0.000000	0.001724	0.001693	28.0816	0.027226	0.002019	13.4865	-40.2291	14.1656	0.007166	0.591323	-0.519170	-0.520545	-0.021711	13.4865	-0.517963	-6.099e+06	3.559797E-9	NaN
1125	1.000000	0.602678	7.37606e+06	-56389.1	1055.82	-29739.1	0.000000	0.000000	6.602970	0.005553	NaN	0.000000	0.001698	0.001658	28.0814	0.063463	0.002080	30.5177	-129.168	-167.255	0.013410	0.601388	-0.509190	-0.510480	0.005553	30.5177	-0.509327	-4.62418e+06	-1.200902E-9	NaN
1125	1.000000	0.612688	7.37606e+06	-56389.1	1055.82	-29739.1	0.000000	0.000000	6.612980	-0.016607	NaN	0.000000	0.001687	0.001667	28.0814	0.069773	0.002094	33.3162	-75.9334	14.7311	0.018529	0.611287	-0.499180	-0.500581	-0.016607	33.3162	-0.498806	-3.29884e+06	5.034154E-9	NaN
1125	1.000000	0.622715	7.37606e+06	-56389.1	1055.82	-29739.1	0.000000	0.000000	6.623008	0.012417	NaN	0.000000	0.001678	0.001658	28.0817	0.076570	0.002043	37.4727	-167.895	-168.332	-0.007768	0.621405	-0.489153	-0.490463	0.012417	37.4727	-0.489402	-2.43798e+06	-5.093322E-9	NaN
1125	1.000000	0.632719	7.37606e+06	-56389.1	1055.82	-29739.1	0.000000	0.000000	6.633011	-0.009652	NaN	0.000000	0.001709	0.001663	28.0814	0.075227	0.001929	39.0035	-41.4909	15.6591	0.019371	0.631371	-0.479149	-0.480497	-0.009652	39.0035	-0.478964	-1.74187e+06	5.541030E-9	NaN
1125	1.000000	0.642698	7.37606e+06	-56389.1	1055.82	-29739.1	0.000000	0.000000	6.642987	-0.063403	NaN	0.000000	0.001738	0.001697	28.0828	0.046877	0.001996	23.4867	129.737	-166.514	0.080867	0.641399	-0.469170	-0.470469	-0.063403	23.4867	-0.467146	-1.1895e+06	5.330200E-8	NaN
1125	1.000000	0.652702	7.37606e+06	-56389.1	1055.82	-29739.1	0.000000	0.000000	6.652993	-0.024353	NaN	0.000000	0.001724	0.001669	28.0827	0.121740	0.002122	57.3594	24.0591	13.4913	-0.127949	0.651349	-0.459166	-0.460519	-0.024353	57.3594	-0.458848	-909544	2.677527E-8	NaN
1125	1.000000	0.662707	7.37606e+06	-56389.1	1055.82	-29739.1	0.000000	0.000000	6.663000	0.007651	NaN	0.000000	0.001735	0.001665	28.0832	0.052081	0.002048	25.4277	-62.7026	-167.34	-0.033368	0.661438	-0.449161	-0.450430	0.007651	25.4277	-0.449387	-669428	-1.142944E-8	NaN
1125	1.000000	0.672709	7.37606e+06	-56389.1	1055.82	-29739.1	0.000000	0.000000	6.673002	0.028614	NaN	0.000000	0.001715	0.001686	28.0827	0.111360	0.001935	57.554	-10.2162	15.3001	-0.039428	0.671366	-0.439159	-0.440502	0.028614	57.554	-0.439532	-486134	-5.885985E-8	NaN
1125	1.000000	0.682713	7.37606e+06	-56389.1	1055.82	-29739.1	0.000000	0.000000	6.683006	0.026162	NaN	0.000000	0.001724	0.001667	28.0827	0.020374	0.002087	9.760170	-19.7344	-167.309	0.001302	0.681464	-0.429155	-0.430404	0.026162	9.760170	-0.431166	-370297	-7.065070E-8	NaN
1125	1.000000	0.692721	7.37606e+06	-56389.1	1055.82	-29739.1	0.000000	0.000000	6.693013	-0.007489	NaN	0.000000	0.001679	0.001671	28.0831	0.101360	0.002048	49.5041	-99.3157	12.9045	-0.037490	0.691316	-0.419147	-0.420552	-0.007489	49.5041	-0.419034	-249294	3.004285E-8	NaN
1125	1.000000	0.702736	7.37606e+06	-56389.1	1055.82	-29739.1	0.000000	0.000000	6.703030	0.032892	NaN	0.000000	0.001672	0.001681	28.0827	0.067595	0.002004	33.7305	-47.8013	-166.446	0.061320	0.701380	-0.409132	-0.410488	0.032892	33.7305	-0.409863	-184694	-1.780910E-7	NaN
1125	1.000000	0.712744	7.37606e+06	-56389.1	1055.82	-29739.1	0.000000	0.000000	6.713034	-0.044007	NaN	0.000000	0.001678	0.001684	28.0828	0.102582	0.002002	51.2315	170.36	13.9943	-0.046975	0.711401	-0.399124	-0.400467	-0.044007	51.2315	-0.398480	-127149	3.461046E-7	NaN
1125	1.000000	0.722764	7.37606e+06	-56389.1	1055.82	-29739.1	0.000000	0.000000	6.723059	0.071657	NaN	0.000000	0.001639	0.001686	28.0826	0.095110	0.001907	49.8771	-83.0384	-163.9	0.009045	0.721452	-0.389104	-0.390416	0.071657	49.8771	-0.390181	-96774.3	-7.404528E-7	NaN
1125	1.000000	0.732723	7.37606e+06	-56389.1	1055.82	-29739.1	0.000000	0.000000	6.733017	0.039399	NaN	0.000000	0.001648	0.001705	28.0829	0.019349	0.002012	9.616835	5.418722	12.9536	-0.036137	0.731345	-0.379145	-0.380523	0.039399	9.616835	-0.382218	-74423	-5.293942E-7	NaN
1125	1.000000	0.742740	7.37606e+06	-56389.1	1055.82	-29739.1	0.000000	0.000000	6.743031	-0.042964	NaN	0.000000	0.001656	0.001728	28.0825	0.063250	0.001881	33.6289	144.847	-166.399	-0.054621	0.741483	-0.369128	-0.370385	-0.042964	33.6289	-0.368170	-46747.5	9.190748E-7	NaN
1125	1.000000	0.752764	7.37606e+06	-56389.1	1055.82	-29739.1	0.000000	0.000000	6.753055	-0.041960	NaN	0.000000	0.001662	0.001679	28.083	0.127587	0.002097	60.8288	169.5	12.2895	-0.091158	0.751353	-0.359104	-0.360515	-0.041960	60.8288	-0.358586	-33994	1.234345E-6	NaN
1125	1.000000	0.762755	7.37606e+06	-56389.1	1055.82	-29739.1	0.000000	0.000000	6.763048	0.003274	NaN	0.000000	0.001664	0.001679	28.0827	0.098083	0.002122	46.2183	93.8872	-164.908	-0.094581	0.761477	-0.349112	-0.350391	0.003274	46.2183	-0.349166	-24825	-1.318891E-7	NaN
1125	1.000000	0.772761	7.37606e+06	-56389.1	1055.82	-29739.1	0.000000	0.000000	6.773051	-0.053371	NaN	0.000000	0.001672	0.001678	28.0828	0.047263	0.002042	23.1471	117.444	14.0227	-0.015631	0.771406	-0.339107	-0.340462	-0.053371	23.1471	-0.337378	-16722.8	3.191525E-6	NaN
1125	1.000000	0.782778	7.37606e+06	-56389.1	1055.82	-29739.1	0.000000	0.000000	6.783070	-0.003352	NaN	0.000000	0.001692	0.001714	28.0815	0.087204	0.002024	43.0901	50.8233	-163.578	0.051908	0.781392	-0.329090	-0.330476	-0.003352	43.0901	-0.329032	-12626	2.655197E-7	NaN
1125	1.000000	0.792787	7.37606e+06	-56389.1	1055.82	-29739.1	0.000000	0.000000	6.793083	0.066402	NaN	0.000000	0.001625	0.001733	28.0817	0.041364	0.002017	20.5075	-88.9877	14.9201	-0.017787	0.791371	-0.319080	-0.320497	0.066402	20.5075	-0.321509	-9791.25	-6.781724E-6	NaN
1125	1.000000	0.802764	7.37606e+06	-56389.1	1055.82	-29739.1	0.000000	0.000000	6.803056	-0.016622	NaN	0.000000	0.001662	0.001699	28.0818	0.078078	0.001782	43.8256	34.9982	-164.438	-0.082253	0.801435	-0.309103	-0.310433	-0.016622	43.8256	-0.308819	-6361.69	2.612787E-6	NaN
1125	1.000000	0.812770	7.37606e+06	-56389.1	1055.82	-29739.1	0.000000	0.000000	6.813063	0.001579	NaN	0.000000	0.001683	0.001717	28.0815	0.088868	0.001855	47.9084	151.597	15.633	0.006306	0.811449	-0.299098	-0.300419	0.001579	47.9084	-0.299122	-4566.35	-3.458220E-7	NaN
1125	1.000000	0.822767	7.37606e+06	-56389.1	1055.82	-29739.1	0.000000	0.000000	6.823057	-0.064321	NaN	0.000000	0.001676	0.001674	28.0812	0.038023	0.002066	18.4062	-42.5146	-165.948	-0.034307	0.821484	-0.289100	-0.290384	-0.064321	18.4062	-0.286480	-2954.59	2.176974E-5	NaN
1125	1.000000	0.832781	7.37606e+06	-56389.1	1055.82	-29739.1	0.000000	0.000000	6.833075	0.018398	NaN	0.000000	0.001656	0.001688	28.0815	0.098378	0.001927	51.0541	150.103	13.7035	0.057672	0.831385	-0.279086	-0.280482	0.018398	51.0541	-0.279357	-2308.15	-7.970941E-6	NaN
1125	1.000000	0.842801	7.37606e+06	-56389.1	1055.82	-29739.1	0.000000	0.000000	6.843094	0.024112	NaN	0.000000	0.001644	0.001703	28.0815	0.072330	0.002096	34.5071	168.237	-165.825	0.046397	0.841449	-0.269067	-0.270419	0.024112	34.5071	-0.269591	-1641.82	-1.468609E-5	NaN
1125	1.000000	0.852813	7.37606e+06	-56389.1	1055.82	-29739.1	0.000000	0.000000	6.853104	-0.042563	NaN	0.000000	0.001628	0.001679	28.0815	0.119189	0.001903	62.6411	-149.582	15.1763	-0.061310	0.851471	-0.259055	-0.260396	-0.042563	62.6411	-0.258545	-1113.29	3.823166E-5	NaN
1125	1.000000	0.862788	7.37606e+06	-56389.1	1055.82	-29739.1	0.000000	0.000000	6.863078	-0.073872	NaN	0.000000	0.001673	0.001695	28.0815	0.084097	0.001905	44.1481	-17.0567	-164.743	-0.033567	0.861477	-0.249079	-0.250390	-0.073872	44.1481	-0.247824	-760.826	9.709387E-5	NaN
1125	1.000000	0.872811	7.37606e+06	-56389.1	1055.82	-29739.1	0.000000	0.000000	6.873101	-0.056694	NaN	0.000000	0.001645	0.001676	28.0817	0.091964	0.002125	43.2711	76.6893	14.6239	-0.038093	0.871470	-0.239057	-0.240398	-0.056694	43.2711	-0.238074	-536.343	0.000106	NaN
1125	1.000000	0.882804	7.37606e+06	-56389.1	1055.82	-29739.1	0.000000	0.000000	6.883092	-0.096869	NaN	0.000000	0.001669	0.001658	28.0815	0.136255	0.002015	67.6241	-164.872	-163.307	-0.075822	0.881475	-0.229064	-0.230393	-0.096869	67.6241	-0.227990	-372.163	0.000260	NaN
1125	1.000000	0.892804	7.37606e+06	-56389.1	1055.82	-29739.1	0.000000	0.000000	6.893098	0.030327	NaN	0.000000	0.001639	0.001684	28.0815	0.076421	0.001918	39.8362	-109.041	11.8519	0.032891	0.891470	-0.219064	-0.220398	0.030327	39.8362	-0.219635	-274.057	-0.000111	NaN
1125	1.000000	0.902823	7.37606e+06	-56389.1	1055.82	-29739.1	0.000000	0.000000	6.903118	0.058339	NaN	0.000000	0.001679	0.001697	28.0816	0.025035	0.001946	12.8648	66.0675	-165.17	0.076307	0.901482	-0.209045	-0.210386	0.058339	12.8648	-0.212446	-210.068	-0.000278	NaN
1125	1.000000	0.912840	7.37606e+06	-56389.1	1055.82	-29739.1	0.000000	0.000000	6.913132	0.000983	NaN	0.000000	0.001649	0.001691	28.0816	0.091105	0.001906	47.8018	99.9692	14.8927	0.034375	0.911447	-0.199028	-0.200420	0.000983	47.8018	-0.199044	-127.048	-7.740398E-6	NaN
1125	1.000000	0.922813	7.37606e+06	-56389.1	1055.82	-29739.1	0.000000	0.000000	6.923102	-0.086545	NaN	0.000000	0.001696	0.001704	28.0826	0.145593	0.001809	80.4619	170.543	-165.081	0.011201	0.921540	-0.189055	-0.190327	-0.086545	80.4619	-0.188248	-84.0847	0.001029	NaN
1125	1.000000	0.932820	7.37606e+06	-56389.1	1055.82	-29739.1	0.000000	0.000000	6.933110	-0.065184	NaN	0.000000	0.001711	0.001725	28.0826	0.052308	0.001919	27.2586	-9.773001	13.5801	0.005412	0.931466	-0.179048	-0.180402	-0.065184	27.2586	-0.177254	-54.7805	0.001190	NaN
1125	1.000000	0.942808	7.37606e+06	-56389.1	1055.82	-29739.1	0.000000	0.000000	6.943102	0.033265	NaN	0.000000	0.001702	0.001740	28.0827	0.061599	0.001929	31.9331	-132.099	-165.938	-0.032767	0.941492	-0.169060	-0.170376	0.033265	31.9331	-0.169841	-40.8177	-0.000815	NaN
1125	1.000000	0.952825	7.37606e+06	-56389.1	1055.82	-29739.1	0.000000	0.000000	6.953114	-0.099456	NaN	0.000000	0.001694	0.001742	28.0827	0.080009	0.002047	39.0935	56.8852	14.6622	-0.051252	0.951464	-0.159043	-0.160404	-0.099456	39.0935	-0.157135	-24.3718	0.004081	NaN
1125	1.000000	0.962841	7.37606e+06	-56389.1	1055.82	-29739.1	0.000000	0.000000	6.963129	-0.098870	NaN	0.000000	0.001661	0.001702	28.0826	0.084384	0.001903	44.3392	179.774	-164.827	-0.116362	0.961521	-0.149027	-0.150347	-0.098870	44.3392	-0.147355	-16.2025	0.006102	NaN
1125	1.000000	0.972818	7.37606e+06	-56389.1	1055.82	-29739.1	0.000000	0.000000	6.973109	-0.029789	NaN	0.000000	0.001698	0.001717	28.0826	0.028678	0.002010	14.2662	-98.4778	16.0304	-0.048916	0.971477	-0.139050	-0.140391	-0.029789	14.2662	-0.137484	-10.6053	0.002809	NaN
1125	1.000000	0.982868	7.37606e+06	-56389.1	1055.82	-29739.1	0.000000	0.000000	6.983161	0.015514	NaN	0.000000	0.001722	0.001745	28.083	0.071807	0.002017	35.5949	-80.8136	-165.844	0.022779	0.981551	-0.129000	-0.130317	0.015514	35.5949	-0.129327	-7.394674	-0.002098	NaN
1125	1.000000	0.992863	7.37606e+06	-56389.1	1055.82	-29739.1	0.000000	0.000000	6.993156	0.017502	NaN	0.000000	0.001723	0.001693	28.0826	0.069403	0.002065	33.6039	91.2303	15.4165	-0.010862	0.991477	-0.119005	-0.120391	0.017502	33.6039	-0.119395	-4.697495	-0.003726	NaN
1125	1.000000	1.002862	7.37606e+06	-56389.1	1055.82	-29739.1	0.000000	0.000000	7.003153	-0.034859	NaN	0.000000	0.001673	0.001707	28.0829	0.004957	0.001855	2.672045	-156.068	-167.013	-0.012960	1.001575	-0.109006	-0.110293	-0.034859	2.672045	-0.099221	-1.755808	0.019853	NaN
1125	1.000000	1.012842	7.37606e+06	-56389.1	1055.82	-29739.1	0.000000	0.000000	7.013133	-0.052321	NaN	0.000000	0.001705	0.001666	28.0827	0.034232	0.002020	16.9487	-118.53	17.0367	-0.068869	1.011531	-0.099025	-0.100337	-0.052321	16.9487	-0.096710	-1.542392	0.033922	NaN
1125	1.000000	1.022850	7.37606e+06	-56389.1	1055.82	-29739.1	0.000000	0.000000	7.023142	-0.004974	NaN	0.000000	0.001724	0.001652	28.0829	0.099492	0.001919	51.8392	-4.710660	-162.776	0.005805	1.021549	-0.089018	-0.090319	-0.004974	51.8392	-0.088946	-1.020942	0.004872	NaN
1125	1.000000	1.032880	7.37606e+06	-56389.1	1055.82	-29739.1	0.000000	0.000000	7.033172	-0.001488	NaN	0.000000	0.001684	0.001690	28.0825	0.072900	0.001981	36.8082	166.9	15.3368	0.075296	1.031507	-0.078988	-0.080361	-0.001488	36.8082	-0.078958	-0.582825	0.002554	NaN
1125	1.000000	1.042842	7.37606e+06	-56389.1	1055.82	-29739.1	0.000000	0.000000	7.043135	0.015245	NaN	0.000000	0.001677	0.001679	28.0829	0.140479	0.001977	71.0545	25.8136	-167.291	0.012624	1.041548	-0.069026	-0.070320	0.015245	71.0545	-0.069187	-0.324368	-0.047001	NaN
1125	1.000000	1.052879	7.37606e+06	-56389.1	1055.82	-29739.1	0.000000	0.000000	7.053169	-0.069429	NaN	0.000000	0.001656	0.001681	28.0816	0.075271	0.002056	36.6057	64.0124	12.7788	0.032190	1.051494	-0.058988	-0.060373	-0.069429	36.6057	-0.057566	-0.153157	0.453320	NaN
1125	1.000000	1.062878	7.37606e+06	-56389.1	1055.82	-29739.1	0.000000	0.000000	7.063170	-0.018721	NaN	0.000000	0.001652	0.001686	28.0814	0.041225	0.002101	19.6261	-47.1399	-169.196	-0.068488	1.061560	-0.048990	-0.050308	-0.018721	19.6261	-0.048274	-0.080890	0.231440	NaN
1125	1.000000	1.072854	7.37606e+06	-56389.1	1055.82	-29739.1	0.000000	0.000000	7.073145	-0.036866	NaN	0.000000	0.001655	0.001680	28.0813	0.080508	0.001928	41.7635	-41.4372	14.5507	-0.068681	1.071498	-0.039014	-0.040370	-0.036866	41.7635	-0.038352	-0.040315	0.914437	NaN
1125	1.000000	1.082896	7.37606e+06	-56389.1	1055.82	-29739.1	0.000000	0.000000	7.083187	-0.029647	NaN	0.000000	0.001628	0.001689	28.0816	0.112408	0.001942	57.8896	-70.8074	-163.439	0.015586	1.081556	-0.028972	-0.030312	-0.029647	57.8896	-0.028588	-0.021037	1.409277	NaN
1125	1.000000	1.092883	7.37606e+06	-56389.1	1055.82	-29739.1	0.000000	0.000000	7.093178	0.067685	NaN	0.000000	0.001657	0.001673	28.0818	0.155848	0.002068	75.3487	73.8402	13.6256	0.055936	1.091534	-0.018985	-0.020334	0.067685	75.3487	-0.019658	-0.012312	-5.497514	NaN
1125	1.000000	1.102871	7.37606e+06	-56389.1	1055.82	-29739.1	0.000000	0.000000	7.103163	-0.007712	NaN	0.000000	0.001631	0.001648	28.0813	0.059765	0.002051	29.1339	-129.035	-162.668	-0.049284	1.101589	-0.008997	-0.010279	-0.007712	29.1339	-0.008798	-0.005696	1.353835	NaN
1125	1.000000	1.112863	7.37606e+06	-56389.1	1055.82	-29739.1	0.000000	0.000000	7.113193	0.910396	NaN	0.000000	0.001647	0.001693	28.0813	1.402037	0.001991	704.343	4.928857	19.0782	0.223366	1.111552	0.000995	-0.000316	0.910396	704.343	2.573626E-5	1.924253E-5	47311.7	146699
1125	2.000000	1.121438	7.37606e+06	-56389.1	1055.82	-29739.1	0.000000	0.000000	7.122109	9.212613	NaN	0.000000	0.001650	0.001687	28.0815	9.449575	0.001899	4976.42	13.49	-174.818	9.081661	1.121066	0.009570	0.009199	9.212613	4976.42	0.008181	0.007229	1274.33	53473.7
1125	2.000000	1.123957	7.37606e+06	-56389.1	1055.82	-29739.1	0.000000	0.000000	7.124776	12.8044	NaN	0.000000	0.001601	0.001686	28.0814	12.1023	0.001728	7004.39	10.4616	3.145109	12.2924	1.123555	0.012089	0.011687	12.8044	7004.39	0.010718	0.009991	1281.65	64024.7
1125	2.000000	1.126378	7.37606e+06	-56389.1	1055.82	-29739.1	0.000000	0.000000	7.127315	15.668	NaN	0.000000	0.001644	0.001659	28.0815	14.0495	0.001701	8261.38	6.492244	-175.292	14.5642	1.126077	0.014510	0.014209	15.668	8261.38	0.013088	0.012819	1222.25	66665.2
1125	2.000000	1.128903	7.37606e+06	-56389.1	1055.82	-29739.1	0.000000	0.000000	7.129953	18.4204	NaN	0.000000	0.001649	0.001689	28.0815	16.9409	0.001950	8689.2	10.3701	2.232809	18.1488	1.128518	0.017035	0.016650	18.4204	8689.2	0.015445	0.015883	1159.72	62991.4
1125	2.000000	1.131374	7.37606e+06	-56389.1	1055.82	-29739.1	0.000000	0.000000	7.132622	23.2402	NaN	0.000000	0.001650	0.001693	28.0819	18.8148	0.001789	10517.8	6.845788	-176.023	22.5354	1.130990	0.019506	0.019122	23.2402	10517.8	0.017849	0.019274	1205.79	69217.4
1125	2.000000	1.133920	7.37606e+06	-56389.1	1055.82	-29739.1	0.000000	0.000000	7.135304	26.5448	NaN	0.000000	0.001656	0.001698	28.0815	20.6785	0.001777	11636.7	6.394597	3.566883	25.7463	1.133584	0.022052	0.021716	26.5448	11636.7	0.020341	0.023081	1150.05	69979.9
1125	2.000000	1.136345	7.37606e+06	-56389.1	1055.82	-29739.1	0.000000	0.000000	7.137901	30.6992	NaN	0.000000	0.001656	0.001686	28.0816	23.5506	0.001890	12461.7	6.303409	-178.287	29.0807	1.136039	0.024477	0.024171	30.6992	12461.7	0.022630	0.026844	1143.6	69490
1125	2.000000	1.138840	7.37606e+06	-56389.1	1055.82	-29739.1	0.000000	0.000000	7.140717	38.5186	NaN	0.000000	0.001662	0.001694	28.0826	25.9891	0.001844	14090.8	7.677826	-0.024684	37.8871	1.138489	0.026972	0.026621	38.5186	14090.8	0.024922	0.030873	1247.64	73268.7
1125	2.000000	1.141294	7.37606e+06	-56389.1	1055.82	-29739.1	0.000000	0.000000	7.143399	44.0582	NaN	0.000000	0.001643	0.001706	28.0831	28.4474	0.001846	15407.1	3.914425	-177.451	41.8066	1.140998	0.029426	0.029130	44.0582	15407.1	0.027282	0.035298	1248.19	74924.2
1125	2.000000	1.143843	7.37606e+06	-56389.1	1055.82	-29739.1	0.000000	0.000000	7.146266	51.7885	NaN	0.000000	0.001653	0.001719	28.0826	30.174	0.001871	16131.5	4.340009	2.910304	49.4238	1.143527	0.031975	0.031659	51.7885	16131.5	0.029567	0.039852	1299.53	73828.6
1125	2.000000	1.146271	7.37606e+06	-56389.1	1055.82	-29739.1	0.000000	0.000000	7.149089	61.4041	NaN	0.000000	0.001579	0.001695	28.0827	32.5671	0.001690	19270.7	6.874052	176.016	59.1174	1.146013	0.034403	0.034145	61.4041	19270.7	0.032013	0.045019	1363.95	82979.8
1125	2.000000	1.148835	7.37606e+06	-56389.1	1055.82	-29739.1	0.000000	0.000000	7.151879	66.8799	NaN	0.000000	0.001629	0.001691	28.0828	35.1575	0.001780	19750.2	3.722085	0.278382	65.6339	1.148501	0.036968	0.036634	66.8799	19750.2	0.034428	0.050422	1326.4	80358.7
1125	2.000000	1.151291	7.37606e+06	-56389.1	1055.82	-29739.1	0.000000	0.000000	7.154812	78.4813	NaN	0.000000	0.001659	0.001689	28.0829	38.0983	0.001818	20956.3	6.965861	178.603	77.3669	1.150956	0.039423	0.039088	78.4813	20956.3	0.036614	0.055571	1412.27	81220
1125	2.000000	1.153761	7.37606e+06	-56389.1	1055.82	-29739.1	0.000000	0.000000	7.157747	89.7706	NaN	0.000000	0.001652	0.001682	28.0824	40.0703	0.001829	21906.7	5.045126	-0.180007	83.7488	1.153371	0.041893	0.041503	89.7706	21906.7	0.038820	0.061013	1471.33	81028.4
1125	2.000000	1.156273	7.37606e+06	-56389.1	1055.82	-29739.1	0.000000	0.000000	7.160662	99.5669	NaN	0.000000	0.001668	0.001697	28.083	42.8166	0.001802	23759.7	4.090627	178.381	97.1808	1.155997	0.044405	0.044129	99.5669	23759.7	0.041262	0.067331	1478.78	83657.9
1125	2.000000	1.158766	7.37606e+06	-56389.1	1055.82	-29739.1	0.000000	0.000000	7.163562	109.453	NaN	0.000000	0.001657	0.001680	28.0826	45.2351	0.001709	26473.3	5.777227	-3.227250	107.661	1.158369	0.046898	0.046501	109.453	26473.3	0.043797	0.074210	1474.9	88787
1125	2.000000	1.161242	7.37606e+06	-56389.1	1055.82	-29739.1	0.000000	0.000000	7.166447	119.414	NaN	0.000000	0.001659	0.001694	28.0827	49.3592	0.001839	26846.6	5.015349	176.642	115.481	1.161019	0.049374	0.049151	119.414	26846.6	0.046038	0.080561	1482.29	86417.4
1125	2.000000	1.163791	7.37606e+06	-56389.1	1055.82	-29739.1	0.000000	0.000000	7.169450	130.454	NaN	0.000000	0.001642	0.001703	28.0825	50.0242	0.001824	27425.8	4.723103	-2.240008	126.331	1.163398	0.051923	0.051530	130.454	27425.8	0.048356	0.087398	1492.65	84758.2
1125	2.000000	1.166268	7.37606e+06	-56389.1	1055.82	-29739.1	0.000000	0.000000	7.172261	138.556	NaN	0.000000	0.001595	0.001668	28.083	52.6444	0.001859	28323.4	3.530243	178.054	136.307	1.165927	0.054400	0.054059	138.556	28323.4	0.050732	0.094688	1463.3	84095.3
1125	2.000000	1.168769	7.37606e+06	-56389.1	1055.82	-29739.1	0.000000	0.000000	7.175376	153.5	NaN	0.000000	0.001664	0.001676	28.0827	55.2561	0.001814	30464.2	5.488263	-4.188464	150.834	1.168341	0.056901	0.056473	153.5	30464.2	0.053122	0.102306	1500.4	87018.8
1125	2.000000	1.171227	7.37606e+06	-56389.1	1055.82	-29739.1	0.000000	0.000000	7.178234	163.2	NaN	0.000000	0.001604	0.001716	28.0825	57.8853	0.001808	32024.6	4.433259	176.138	159.532	1.171012	0.059359	0.059144	163.2	32024.6	0.055537	0.110293	1479.69	88101.4
1125	2.000000	1.173712	7.37606e+06	-56389.1	1055.82	-29739.1	0.000000	0.000000	7.181285	176.969	NaN	0.000000	0.001639	0.001689	28.0814	59.4216	0.001793	33148	5.177688	-4.472191	170.02	1.173351	0.061844	0.061483	176.969	33148	0.057840	0.118177	1497.49	88097.6
1125	2.000000	1.176314	7.37606e+06	-56389.1	1055.82	-29739.1	0.000000	0.000000	7.184407	189.604	NaN	0.000000	0.001644	0.001710	28.0817	62.211	0.001813	34314.4	5.686259	174.096	191.098	1.175975	0.064446	0.064107	189.604	34314.4	0.060302	0.126893	1494.2	88009.8
1125	2.000000	1.178756	7.37606e+06	-56389.1	1055.82	-29739.1	0.000000	0.000000	7.187476	204.836	NaN	0.000000	0.001594	0.001725	28.0816	63.5863	0.001721	36947.7	2.947172	-3.651140	200.506	1.178379	0.066889	0.066511	204.836	36947.7	0.062731	0.135781	1508.58	91609.4
1125	2.000000	1.181265	7.37606e+06	-56389.1	1055.82	-29739.1	0.000000	0.000000	7.190612	220.084	NaN	0.000000	0.001576	0.001676	28.0815	67.032	0.001869	35859.3	3.989929	175.911	219.12	1.180937	0.069397	0.069070	220.084	35859.3	0.064794	0.143559	1533.06	86468.9
1125	2.000000	1.183787	7.37606e+06	-56389.1	1055.82	-29739.1	0.000000	0.000000	7.193776	235.69	NaN	0.000000	0.001614	0.001707	28.0814	68.6161	0.001769	38787.1	5.246361	-6.047065	233.308	1.183452	0.071919	0.071584	235.69	38787.1	0.067362	0.153522	1535.22	90443
1125	2.000000	1.186217	7.37606e+06	-56389.1	1055.82	-29739.1	0.000000	0.000000	7.197035	255.852	NaN	0.000000	0.001605	0.001719	28.0815	70.2991	0.001737	40468.1	3.757925	174.405	253.843	1.185937	0.074349	0.074069	255.852	40468.1	0.069607	0.162494	1574.53	91720.8
1125	2.000000	1.188725	7.37606e+06	-56389.1	1055.82	-29739.1	0.000000	0.000000	7.200173	271.161	NaN	0.000000	0.001623	0.001696	28.0815	73.8399	0.001822	40527	6.676698	-7.721807	267.924	1.188297	0.076857	0.076430	271.161	40527	0.071839	0.171650	1579.73	89370.8
1125	2.000000	1.191304	7.37606e+06	-56389.1	1055.82	-29739.1	0.000000	0.000000	7.203355	285.802	NaN	0.000000	0.001539	0.001718	28.0815	76.6767	0.001853	41380.2	4.914138	173.894	284.644	1.190862	0.079436	0.078994	285.802	41380.2	0.074256	0.181831	1571.8	88660.7
1125	2.000000	1.193783	7.37606e+06	-56389.1	1055.82	-29739.1	0.000000	0.000000	7.206508	302.188	NaN	0.000000	0.001590	0.001710	28.0814	77.7059	0.001761	44130.7	6.702757	-8.072969	299.063	1.193436	0.081915	0.081568	302.188	44130.7	0.076780	0.192755	1567.73	91835.7
1125	2.000000	1.196228	7.37606e+06	-56389.1	1055.82	-29739.1	0.000000	0.000000	7.209574	317.309	NaN	0.000000	0.001623	0.001723	28.0814	80.2531	0.001769	45354.2	4.725545	172.768	315.266	1.195935	0.084360	0.084068	317.309	45354.2	0.079113	0.203119	1562.18	91942.1
1125	2.000000	1.198777	7.37606e+06	-56389.1	1055.82	-29739.1	0.000000	0.000000	7.212716	331.71	NaN	0.000000	0.001594	0.001710	28.0814	82.6553	0.001804	45816.4	2.236528	-4.290295	330.214	1.198409	0.086909	0.086541	331.71	45816.4	0.081479	0.213893	1550.82	90509.9
1125	2.000000	1.201233	7.37606e+06	-56389.1	1055.82	-29739.1	0.000000	0.000000	7.215919	349.848	NaN	0.000000	0.001589	0.001722	28.0814	86.017	0.001811	47505.6	6.320049	171.367	347.126	1.200905	0.089365	0.089037	349.848	47505.6	0.083842	0.224909	1555.51	91519.6
1125	2.000000	1.203705	7.37606e+06	-56389.1	1055.82	-29739.1	0.000000	0.000000	7.219289	371.669	NaN	0.000000	0.001546	0.001673	28.0817	87.0689	0.001782	48859.8	6.098440	-8.586919	365.624	1.203378	0.091838	0.091510	371.669	48859.8	0.086132	0.235834	1575.98	91922.6
1125	2.000000	1.206233	7.37606e+06	-56389.1	1055.82	-29739.1	0.000000	0.000000	7.222686	392.808	NaN	0.000000	0.001613	0.001674	28.0831	89.2597	0.001784	50022.5	5.603727	171.76	390.81	1.205865	0.094366	0.093997	392.808	50022.5	0.088476	0.247262	1588.63	91909.3
1125	2.000000	1.208739	7.37606e+06	-56389.1	1055.82	-29739.1	0.000000	0.000000	7.225829	408.309	NaN	0.000000	0.001620	0.001748	28.0828	91.1525	0.001862	48956.1	2.159654	-4.571709	405.257	1.208345	0.096871	0.096478	408.309	48956.1	0.090615	0.257915	1583.11	88072.7
1125	2.000000	1.211242	7.37606e+06	-56389.1	1055.82	-29739.1	0.000000	0.000000	7.229374	433.62	NaN	0.000000	0.001583	0.001691	28.0827	95.157	0.001837	51814	7.961950	169.39	435.032	1.210869	0.099375	0.099001	433.62	51814	0.093098	0.270540	1602.79	91013.1
1125	2.000000	1.213638	7.37606e+06	-56389.1	1055.82	-29739.1	0.000000	0.000000	7.232630	454.511	NaN	0.000000	0.001570	0.001693	28.0827	95.4861	0.001711	55821.9	6.653311	-9.876802	445.889	1.213319	0.101770	0.101451	454.511	55821.9	0.095664	0.283884	1601.04	95720.9
1125	2.000000	1.216233	7.37606e+06	-56389.1	1055.82	-29739.1	0.000000	0.000000	7.235833	469.305	NaN	0.000000	0.001560	0.001703	28.0829	97.1781	0.001640	59261.6	4.421688	171.596	466.591	1.215976	0.104366	0.104108	469.305	59261.6	0.098426	0.298587	1571.75	99085.7
1125	2.000000	1.218531	7.37606e+06	-56389.1	1055.82	-29739.1	0.000000	0.000000	7.238692	482.935	NaN	0.000000	0.001563	0.001674	28.0828	100.705	0.001798	56012.7	2.576772	-6.322200	470.791	1.218288	0.106664	0.106420	482.935	56012.7	0.100197	0.308196	1566.97	92182
1125	2.000000	1.219145	7.37606e+06	-56389.1	1055.82	-29739.1	0.000000	0.000000	7.239864	496.513	NaN	0.000000	0.001592	0.001690	28.0829	100.915	0.001808	55812.2	2.453585	174.377	490.334	1.218674	0.107277	0.106806	496.513	55812.2	0.100605	0.310426	1599.46	91521.5