File: remote_trans/data/nanoindenter/0828-1/data/Data_2025-08-06,11h17m57s/2025-07-22_16-23-58_1_759.txt
2025-07-22, 16:23:58, 1
Index	Phase	Displacement	Time	Pos X	Pos Y	Pos Z	Rot A	Rot B	Piezo Z	Force A	Force B	Gripper	Voltage A	Voltage B	Temperature	Amplitude force	Amplitude pos	Stiffness	Phase shift	Phase excitation	Force A raw	Displacement raw	HMax	HMax raw	Real Force	Real Stiffness	Contact Depth	Area	Hardness	Reduced Mod.
[#]	[#]	[um]	[s]	[um]	[um]	[um]	[m°]	[m°]	[um]	[uN]	[uN]	[V]	[V]	[V]	[°C]	[uN]	[um]	[N/m]	[°]	[°]	[uN]	[um]	[um]	[um]	[uN]	[N/m]	[um]	[um^2]	[MPa]	[MPa]
759	1.000000	0.002732	7.37248e+06	-39139.1	1005.82	-29794.9	0.000000	0.000000	6.002836	0.035003	NaN	0.000000	0.001627	0.001692	28.0848	0.029906	0.000988	30.2627	-175.199	-166.9	0.021056	0.001479	-1.104182	-1.105435	0.035003	30.2627	-1.105050	-5.859339E+14	-5.973937E-17	NaN
759	1.000000	0.012762	7.37248e+06	-39139.1	1005.82	-29794.9	0.000000	0.000000	6.012862	-0.063966	NaN	0.000000	0.001597	0.001707	28.0851	0.063888	0.001178	54.2547	164.149	12.7028	-0.053429	0.011367	-1.094152	-1.095547	-0.063966	54.2547	-1.093268	-4.070914E+14	1.571301E-16	NaN
759	1.000000	0.022634	7.37248e+06	-39139.1	1005.82	-29794.9	0.000000	0.000000	6.022739	0.055695	NaN	0.000000	0.001592	0.001696	28.0846	0.045010	0.001786	25.1962	-166.74	-166.844	0.030607	0.021360	-1.084280	-1.085554	0.055695	25.1962	-1.085938	-3.245377E+14	-1.716135E-16	NaN
759	1.000000	0.032639	7.37248e+06	-39139.1	1005.82	-29794.9	0.000000	0.000000	6.032741	-0.026372	NaN	0.000000	0.001630	0.001722	28.0847	0.063215	0.001963	32.2041	-20.4201	15.6088	0.052951	0.031272	-1.074275	-1.075642	-0.026372	32.2041	-1.073661	-2.220090E+14	1.187901E-16	NaN
759	1.000000	0.042660	7.37248e+06	-39139.1	1005.82	-29794.9	0.000000	0.000000	6.042761	-0.053596	NaN	0.000000	0.001577	0.001734	28.0848	0.021459	0.001885	11.3823	-165.006	-170.14	-0.033679	0.041314	-1.064254	-1.065600	-0.053596	11.3823	-1.060722	-1.487744E+14	3.602490E-16	NaN
759	1.000000	0.052651	7.37248e+06	-39139.1	1005.82	-29794.9	0.000000	0.000000	6.052754	0.022714	NaN	0.000000	0.001592	0.001752	28.0847	0.027186	0.002092	12.9938	136.677	14.3209	-0.036104	0.051295	-1.054263	-1.055619	0.022714	12.9938	-1.055574	-1.268650E+14	-1.790432E-16	NaN
759	1.000000	0.062659	7.37248e+06	-39139.1	1005.82	-29794.9	0.000000	0.000000	6.062760	-0.055249	NaN	0.000000	0.001610	0.001776	28.0834	0.072030	0.001984	36.2983	-40.9059	-165.272	-0.066196	0.061387	-1.044254	-1.045527	-0.055249	36.2983	-1.043113	-8.626279E+13	6.404757E-16	NaN
759	1.000000	0.072635	7.37248e+06	-39139.1	1005.82	-29794.9	0.000000	0.000000	6.072738	0.003361	NaN	0.000000	0.001591	0.001748	28.0836	0.070969	0.001952	36.3517	-25.5669	13.3073	-0.019480	0.071295	-1.034279	-1.035619	0.003361	36.3517	-1.034348	-6.575964E+13	-5.111222E-17	NaN
759	1.000000	0.082661	7.37248e+06	-39139.1	1005.82	-29794.9	0.000000	0.000000	6.082762	-0.031829	NaN	0.000000	0.001630	0.001789	28.0837	0.124147	0.002030	61.1464	-166.377	-163.875	-0.088566	0.081352	-1.024253	-1.025562	-0.031829	61.1464	-1.023863	-4.752472E+13	6.697266E-16	NaN
759	1.000000	0.092634	7.37248e+06	-39139.1	1005.82	-29794.9	0.000000	0.000000	6.092734	-0.067949	NaN	0.000000	0.001581	0.001778	28.0837	0.164957	0.002034	81.0875	103.463	12.6965	-0.046949	0.091301	-1.014280	-1.015613	-0.067949	81.0875	-1.013652	-3.463616E+13	1.961803E-15	NaN
759	1.000000	0.102642	7.37248e+06	-39139.1	1005.82	-29794.9	0.000000	0.000000	6.102745	0.000202	NaN	0.000000	0.001616	0.001785	28.0837	0.073296	0.001978	37.0476	12.9887	-168.907	-0.097516	0.101393	-1.004272	-1.005521	0.000202	37.0476	-1.004276	-2.590213E+13	-7.806404E-18	NaN
759	1.000000	0.112677	7.37248e+06	-39139.1	1005.82	-29794.9	0.000000	0.000000	6.112781	0.010980	NaN	0.000000	0.001634	0.001785	28.0838	0.095077	0.001956	48.6138	-31.483	13.3244	-0.039963	0.111325	-0.994237	-0.995589	0.010980	48.6138	-0.994406	-1.907424E+13	-5.756429E-16	NaN
759	1.000000	0.122697	7.37248e+06	-39139.1	1005.82	-29794.9	0.000000	0.000000	6.122800	0.014691	NaN	0.000000	0.001593	0.001810	28.0837	0.088930	0.002020	44.0265	-47.3621	-165.082	0.024840	0.121432	-0.984217	-0.985482	0.014691	44.0265	-0.984468	-1.401509E+13	-1.048223E-15	NaN
759	1.000000	0.132674	7.37248e+06	-39139.1	1005.82	-29794.9	0.000000	0.000000	6.132779	0.038165	NaN	0.000000	0.001639	0.001767	28.0836	0.121321	0.002087	58.1248	-172.352	13.7841	0.047757	0.131290	-0.974240	-0.975623	0.038165	58.1248	-0.974732	-1.036170E+13	-3.683275E-15	NaN
759	1.000000	0.142684	7.37248e+06	-39139.1	1005.82	-29794.9	0.000000	0.000000	6.142783	-0.111747	NaN	0.000000	0.001580	0.001782	28.0837	0.058110	0.001906	30.4808	-39.6035	-166.684	-0.141918	0.141417	-0.964230	-0.965497	-0.111747	30.4808	-0.961480	-6.867853E+12	1.627099E-14	NaN
759	1.000000	0.152668	7.37248e+06	-39139.1	1005.82	-29794.9	0.000000	0.000000	6.152770	-0.037295	NaN	0.000000	0.001571	0.001781	28.0836	0.054565	0.001938	28.1616	-103.423	15.4105	0.006717	0.151296	-0.954246	-0.955618	-0.037295	28.1616	-0.953252	-5.319700E+12	7.010701E-15	NaN
759	1.000000	0.162682	7.37248e+06	-39139.1	1005.82	-29794.9	0.000000	0.000000	6.162784	-0.002561	NaN	0.000000	0.001587	0.001779	28.084	0.057250	0.002011	28.4691	-51.5783	-165.866	-0.024615	0.161405	-0.944232	-0.945509	-0.002561	28.4691	-0.944165	-4.011657E+12	6.384694E-16	NaN
759	1.000000	0.172718	7.37248e+06	-39139.1	1005.82	-29794.9	0.000000	0.000000	6.172819	-0.028240	NaN	0.000000	0.001587	0.001815	28.0834	0.049340	0.002049	24.0757	25.8516	12.8812	-0.041242	0.171297	-0.934196	-0.935617	-0.028240	24.0757	-0.933316	-2.863876E+12	9.860779E-15	NaN
759	1.000000	0.182705	7.37248e+06	-39139.1	1005.82	-29794.9	0.000000	0.000000	6.182809	0.028398	NaN	0.000000	0.001604	0.001767	28.084	0.074465	0.001978	37.6379	148.241	-165.39	0.050889	0.181346	-0.924209	-0.925568	0.028398	37.6379	-0.924775	-2.196168E+12	-1.293080E-14	NaN
759	1.000000	0.192751	7.37248e+06	-39139.1	1005.82	-29794.9	0.000000	0.000000	6.192855	0.033580	NaN	0.000000	0.001636	0.001797	28.0848	0.064035	0.001972	32.4721	-64.4587	13.836	-0.000386	0.191294	-0.914163	-0.915620	0.033580	32.4721	-0.914939	-1.617579E+12	-2.075944E-14	NaN
759	1.000000	0.202710	7.37248e+06	-39139.1	1005.82	-29794.9	0.000000	0.000000	6.202810	-0.067187	NaN	0.000000	0.001606	0.001773	28.085	0.058152	0.002058	28.2575	106.191	-167.025	-0.095305	0.201399	-0.904204	-0.905515	-0.067187	28.2575	-0.902421	-1.095905E+12	6.130697E-14	NaN
759	1.000000	0.212672	7.37248e+06	-39139.1	1005.82	-29794.9	0.000000	0.000000	6.212773	-0.044821	NaN	0.000000	0.001586	0.001751	28.085	0.040803	0.002106	19.3754	-130.987	13.4627	-0.142458	0.211381	-0.894242	-0.895533	-0.044821	19.3754	-0.892507	-8.050037E+11	5.567824E-14	NaN
759	1.000000	0.222755	7.37248e+06	-39139.1	1005.82	-29794.9	0.000000	0.000000	6.222855	-0.058737	NaN	0.000000	0.001596	0.001739	28.0852	0.076251	0.001994	38.2329	87.7225	-165.624	-0.026328	0.221397	-0.884159	-0.885517	-0.058737	38.2329	-0.883007	-5.989212E+11	9.807136E-14	NaN
759	1.000000	0.232706	7.37248e+06	-39139.1	1005.82	-29794.9	0.000000	0.000000	6.232813	0.084534	NaN	0.000000	0.001639	0.001765	28.0846	0.054778	0.001906	28.741	-161.614	11.8117	-0.003505	0.231364	-0.874208	-0.875549	0.084534	28.741	-0.876414	-4.877562E+11	-1.733117E-13	NaN
759	1.000000	0.242710	7.37248e+06	-39139.1	1005.82	-29794.9	0.000000	0.000000	6.242811	-0.048960	NaN	0.000000	0.001631	0.001708	28.0849	0.122546	0.002071	59.1619	-149.309	-167.406	-0.100651	0.241437	-0.864203	-0.865477	-0.048960	59.1619	-0.863583	-3.270476E+11	1.497028E-13	NaN
759	1.000000	0.252735	7.37248e+06	-39139.1	1005.82	-29794.9	0.000000	0.000000	6.252839	0.022801	NaN	0.000000	0.001620	0.001737	28.0847	0.049748	0.002156	23.0728	136.319	11.7376	0.070241	0.251334	-0.854179	-0.855580	0.022801	23.0728	-0.854920	-2.496645E+11	-9.132520E-14	NaN
759	1.000000	0.262701	7.37248e+06	-39139.1	1005.82	-29794.9	0.000000	0.000000	6.262804	-0.004122	NaN	0.000000	0.001646	0.001761	28.0857	0.073195	0.002039	35.9025	-167.911	-166.939	-0.008976	0.261433	-0.844213	-0.845481	-0.004122	35.9025	-0.844127	-1.783178E+11	2.311669E-14	NaN
759	1.000000	0.272766	7.37248e+06	-39139.1	1005.82	-29794.9	0.000000	0.000000	6.272865	-0.071714	NaN	0.000000	0.001670	0.001811	28.0848	0.144766	0.001850	78.2331	-120.694	13.4572	-0.068010	0.271327	-0.834148	-0.835587	-0.071714	78.2331	-0.833461	-1.278467E+11	5.609370E-13	NaN
759	1.000000	0.282730	7.37248e+06	-39139.1	1005.82	-29794.9	0.000000	0.000000	6.282832	-0.017117	NaN	0.000000	0.001656	0.001812	28.0846	0.072111	0.002098	34.3645	38.4784	-165.51	0.042334	0.281473	-0.824184	-0.825441	-0.017117	34.3645	-0.823810	-9.459662E+10	1.809452E-13	NaN
759	1.000000	0.292760	7.37248e+06	-39139.1	1005.82	-29794.9	0.000000	0.000000	6.292861	-0.021009	NaN	0.000000	0.001668	0.001819	28.0847	0.070937	0.002010	35.2933	7.350169	13.8256	-0.074172	0.291406	-0.814154	-0.815508	-0.021009	35.2933	-0.813708	-6.900380E+10	3.044662E-13	NaN
759	1.000000	0.302765	7.37248e+06	-39139.1	1005.82	-29794.9	0.000000	0.000000	6.302867	-0.019078	NaN	0.000000	0.001673	0.001786	28.0845	0.039944	0.002017	19.8013	-145.411	-165.225	-0.000443	0.301438	-0.804149	-0.805475	-0.019078	19.8013	-0.803427	-5.004647E+10	3.811966E-13	NaN
759	1.000000	0.312777	7.37248e+06	-39139.1	1005.82	-29794.9	0.000000	0.000000	6.312878	-0.051502	NaN	0.000000	0.001720	0.001749	28.0846	0.063443	0.002051	30.9331	-92.3407	17.6572	-0.042517	0.311407	-0.794137	-0.795507	-0.051502	30.9331	-0.792888	-3.600004E+10	1.430609E-12	NaN
759	1.000000	0.322765	7.37248e+06	-39139.1	1005.82	-29794.9	0.000000	0.000000	6.322867	-0.015488	NaN	0.000000	0.001679	0.001764	28.0845	0.059607	0.002001	29.7951	128.215	-167.884	-0.109954	0.321446	-0.784149	-0.785468	-0.015488	29.7951	-0.783759	-2.705865E+10	5.723926E-13	NaN
759	1.000000	0.332776	7.37248e+06	-39139.1	1005.82	-29794.9	0.000000	0.000000	6.332876	-0.090463	NaN	0.000000	0.001675	0.001783	28.0836	0.058696	0.001897	30.9422	167.92	13.6213	-0.040409	0.331413	-0.774137	-0.775501	-0.090463	30.9422	-0.771945	-1.869584E+10	4.838670E-12	NaN
759	1.000000	0.342774	7.37248e+06	-39139.1	1005.82	-29794.9	0.000000	0.000000	6.342874	-0.074988	NaN	0.000000	0.001664	0.001767	28.0831	0.187708	0.002045	91.7755	165.926	-169.43	-0.090839	0.341426	-0.764140	-0.765488	-0.074988	91.7755	-0.763527	-1.436403E+10	5.220519E-12	NaN
759	1.000000	0.352771	7.37248e+06	-39139.1	1005.82	-29794.9	0.000000	0.000000	6.352871	-0.056159	NaN	0.000000	0.001579	0.001784	28.0832	0.124886	0.002074	60.219	-119.02	13.6619	-0.102393	0.351406	-0.754143	-0.755508	-0.056159	60.219	-0.753444	-1.047344E+10	5.362030E-12	NaN
759	1.000000	0.362757	7.37248e+06	-39139.1	1005.82	-29794.9	0.000000	0.000000	6.362858	-0.036873	NaN	0.000000	0.001589	0.001749	28.0834	0.109343	0.001897	57.6548	-117.738	-163.873	0.060779	0.361401	-0.744157	-0.745513	-0.036873	57.6548	-0.743677	-7.711511E+9	4.781553E-12	NaN
759	1.000000	0.372778	7.37248e+06	-39139.1	1005.82	-29794.9	0.000000	0.000000	6.372879	-0.038542	NaN	0.000000	0.001590	0.001736	28.0831	0.060768	0.001971	30.8285	-85.3681	14.0289	-0.027971	0.371416	-0.734136	-0.735498	-0.038542	30.8285	-0.733199	-5.551356E+9	6.942746E-12	NaN
759	1.000000	0.382774	7.37248e+06	-39139.1	1005.82	-29794.9	0.000000	0.000000	6.382876	-0.028893	NaN	0.000000	0.001601	0.001731	28.0833	0.045265	0.002109	21.4576	120.776	-163.558	-0.067170	0.381508	-0.724140	-0.725406	-0.028893	21.4576	-0.723130	-4.047188E+9	7.138984E-12	NaN
759	1.000000	0.392766	7.37248e+06	-39139.1	1005.82	-29794.9	0.000000	0.000000	6.392868	-0.022493	NaN	0.000000	0.001597	0.001739	28.0834	0.023239	0.001904	12.2019	-117.576	9.230383	-0.016657	0.391437	-0.714148	-0.715477	-0.022493	12.2019	-0.712765	-2.922669E+9	7.695988E-12	NaN
759	1.000000	0.402793	7.37248e+06	-39139.1	1005.82	-29794.9	0.000000	0.000000	6.402897	0.031259	NaN	0.000000	0.001680	0.001714	28.0837	0.068556	0.002059	33.3017	178.133	-166.836	-0.081245	0.401525	-0.704121	-0.705389	0.031259	33.3017	-0.704825	-2.277245E+9	-1.372648E-11	NaN
759	1.000000	0.412808	7.37248e+06	-39139.1	1005.82	-29794.9	0.000000	0.000000	6.412910	-0.013884	NaN	0.000000	0.001653	0.001747	28.0833	0.096124	0.001986	48.4047	151.197	14.9265	0.029070	0.411432	-0.694106	-0.695482	-0.013884	48.4047	-0.693891	-1.614661E+9	8.599019E-12	NaN
759	1.000000	0.422816	7.37248e+06	-39139.1	1005.82	-29794.9	0.000000	0.000000	6.422915	-0.101636	NaN	0.000000	0.001644	0.001728	28.0834	0.083509	0.002016	41.4215	161.81	-166.109	-0.013082	0.421479	-0.684098	-0.685435	-0.101636	41.4215	-0.682257	-1.119635E+9	9.077586E-11	NaN
759	1.000000	0.432792	7.37248e+06	-39139.1	1005.82	-29794.9	0.000000	0.000000	6.432893	-0.049329	NaN	0.000000	0.001667	0.001714	28.0834	0.067540	0.001828	36.94	-150.597	12.1785	-0.014366	0.431442	-0.674122	-0.675472	-0.049329	36.94	-0.673120	-8.396331E+8	5.875096E-11	NaN
759	1.000000	0.442817	7.37248e+06	-39139.1	1005.82	-29794.9	0.000000	0.000000	6.442917	-0.080417	NaN	0.000000	0.001661	0.001737	28.0836	0.081553	0.002059	39.6047	-44.5934	-166.146	-0.054704	0.441490	-0.664096	-0.665424	-0.080417	39.6047	-0.662574	-6.021674E+8	1.335456E-10	NaN
759	1.000000	0.452820	7.37248e+06	-39139.1	1005.82	-29794.9	0.000000	0.000000	6.452920	-0.068914	NaN	0.000000	0.001607	0.001730	28.0833	0.047040	0.001964	23.9497	77.6788	14.4208	-0.046493	0.451525	-0.654094	-0.655389	-0.068914	23.9497	-0.651936	-4.305021E+8	1.600792E-10	NaN
759	1.000000	0.462838	7.37248e+06	-39139.1	1005.82	-29794.9	0.000000	0.000000	6.462940	-0.015970	NaN	0.000000	0.001604	0.001720	28.0835	0.061618	0.001960	31.4416	-109.735	-164.455	-0.046294	0.461537	-0.644076	-0.645377	-0.015970	31.4416	-0.643695	-3.318751E+8	4.812140E-11	NaN
759	1.000000	0.472847	7.37248e+06	-39139.1	1005.82	-29794.9	0.000000	0.000000	6.472952	0.054270	NaN	0.000000	0.001571	0.001721	28.0847	0.127986	0.001945	65.8106	-6.149310	16.2398	-0.025733	0.471409	-0.634066	-0.635505	0.054270	65.8106	-0.634685	-2.496588E+8	-2.173768E-10	NaN
759	1.000000	0.482856	7.37248e+06	-39139.1	1005.82	-29794.9	0.000000	0.000000	6.482959	-0.000744	NaN	0.000000	0.001611	0.001718	28.0847	0.043526	0.002037	21.368	87.7425	-163.842	-0.017916	0.481526	-0.624058	-0.625388	-0.000744	21.368	-0.624032	-1.782554E+8	4.171983E-12	NaN
759	1.000000	0.492851	7.37248e+06	-39139.1	1005.82	-29794.9	0.000000	0.000000	6.492953	-0.023416	NaN	0.000000	0.001618	0.001710	28.0847	0.083923	0.001943	43.1904	124.313	13.2334	-0.036897	0.491460	-0.614063	-0.615454	-0.023416	43.1904	-0.613656	-1.283534E+8	1.824359E-10	NaN
759	1.000000	0.502840	7.37248e+06	-39139.1	1005.82	-29794.9	0.000000	0.000000	6.502942	-0.034130	NaN	0.000000	0.001629	0.001703	28.0847	0.023035	0.001990	11.5768	-71.3167	-166.994	-0.062882	0.501553	-0.604074	-0.605361	-0.034130	11.5768	-0.601863	-8.833030E+7	3.863906E-10	NaN
759	1.000000	0.512842	7.37248e+06	-39139.1	1005.82	-29794.9	0.000000	0.000000	6.512943	-0.051055	NaN	0.000000	0.001610	0.001677	28.085	0.145295	0.001828	79.494	41.667	15.2876	-0.173194	0.511506	-0.594071	-0.595408	-0.051055	79.494	-0.593590	-6.794357E+7	7.514356E-10	NaN
759	1.000000	0.522849	7.37248e+06	-39139.1	1005.82	-29794.9	0.000000	0.000000	6.522952	0.006522	NaN	0.000000	0.001611	0.001743	28.0847	0.114015	0.002100	54.3007	-144.449	-165.843	0.001023	0.521533	-0.584065	-0.585381	0.006522	54.3007	-0.584155	-5.035759E+7	-1.295172E-10	NaN
759	1.000000	0.532847	7.37248e+06	-39139.1	1005.82	-29794.9	0.000000	0.000000	6.532950	0.004231	NaN	0.000000	0.001581	0.001742	28.0848	0.017944	0.002080	8.625168	154.511	12.5283	0.018076	0.531482	-0.574066	-0.575432	0.004231	8.625168	-0.574434	-3.697319E+7	-1.144311E-10	NaN
759	1.000000	0.542841	7.37248e+06	-39139.1	1005.82	-29794.9	0.000000	0.000000	6.542942	-0.061557	NaN	0.000000	0.001603	0.001748	28.0846	0.032804	0.002031	16.1484	122.084	-164.643	0.018234	0.541542	-0.564073	-0.565371	-0.061557	16.1484	-0.561214	-2.427535E+7	2.535795E-9	NaN
759	1.000000	0.552852	7.37248e+06	-39139.1	1005.82	-29794.9	0.000000	0.000000	6.552955	0.000605	NaN	0.000000	0.001593	0.001706	28.0843	0.047645	0.002051	23.2332	-71.4778	15.1694	-0.002085	0.551525	-0.554062	-0.555389	0.000605	23.2332	-0.554082	-1.934080E+7	-3.129196E-11	NaN
759	1.000000	0.562881	7.37248e+06	-39139.1	1005.82	-29794.9	0.000000	0.000000	6.562983	-0.014879	NaN	0.000000	0.001586	0.001712	28.0846	0.085831	0.002001	42.8978	-14.0616	-167.06	-0.080322	0.561540	-0.544033	-0.545374	-0.014879	42.8978	-0.543773	-1.392085E+7	1.068842E-9	NaN
759	1.000000	0.572885	7.37248e+06	-39139.1	1005.82	-29794.9	0.000000	0.000000	6.572987	-0.020836	NaN	0.000000	0.001569	0.001735	28.0843	0.032413	0.002041	15.8839	-143.355	15.8116	-0.041014	0.571546	-0.534029	-0.535368	-0.020836	15.8839	-0.533045	-9.88238e+06	2.108425E-9	NaN
759	1.000000	0.582851	7.37248e+06	-39139.1	1005.82	-29794.9	0.000000	0.000000	6.582950	-0.079787	NaN	0.000000	0.001633	0.001739	28.0846	0.095102	0.002005	47.4402	-106.06	-161.876	-0.040460	0.581566	-0.524063	-0.525348	-0.079787	47.4402	-0.522802	-7.12126e+06	1.120400E-8	NaN
759	1.000000	0.592858	7.37248e+06	-39139.1	1005.82	-29794.9	0.000000	0.000000	6.592961	0.000200	NaN	0.000000	0.001610	0.001731	28.0843	0.098474	0.002019	48.7778	103.732	12.1383	-0.105858	0.591563	-0.514055	-0.515351	0.000200	48.7778	-0.514059	-5.38181e+06	-3.711154E-11	NaN
759	1.000000	0.602862	7.37248e+06	-39139.1	1005.82	-29794.9	0.000000	0.000000	6.602964	-0.021061	NaN	0.000000	0.001614	0.001717	28.0832	0.114522	0.002049	55.8837	-109.263	-166.92	-0.084458	0.601541	-0.504052	-0.505372	-0.021061	55.8837	-0.503770	-3.86894e+06	5.443532E-9	NaN
759	1.000000	0.612876	7.37248e+06	-39139.1	1005.82	-29794.9	0.000000	0.000000	6.612979	0.009770	NaN	0.000000	0.001617	0.001693	28.0833	0.063175	0.002056	30.7229	-119.803	14.163	-0.015923	0.611495	-0.494038	-0.495419	0.009770	30.7229	-0.494277	-2.8519e+06	-3.425752E-9	NaN
759	1.000000	0.622905	7.37248e+06	-39139.1	1005.82	-29794.9	0.000000	0.000000	6.623003	-0.128278	NaN	0.000000	0.001600	0.001745	28.0831	0.023919	0.001889	12.6639	65.4549	-164.37	-0.021088	0.621575	-0.484008	-0.485339	-0.128278	12.6639	-0.476411	-1.60425e+06	7.996135E-8	NaN
759	1.000000	0.632881	7.37248e+06	-39139.1	1005.82	-29794.9	0.000000	0.000000	6.632982	-0.040576	NaN	0.000000	0.001538	0.001681	28.083	0.033306	0.002155	15.4562	61.0361	15.3634	-0.027268	0.631493	-0.474033	-0.475421	-0.040576	15.4562	-0.472064	-1.39428e+06	2.910142E-8	NaN
759	1.000000	0.642910	7.37248e+06	-39139.1	1005.82	-29794.9	0.000000	0.000000	6.643011	-0.021119	NaN	0.000000	0.001582	0.001685	28.083	0.060649	0.001854	32.7186	150.065	-163.219	-0.037522	0.641607	-0.464004	-0.465307	-0.021119	32.7186	-0.463520	-1.05796e+06	1.996193E-8	NaN
759	1.000000	0.652904	7.37248e+06	-39139.1	1005.82	-29794.9	0.000000	0.000000	6.653003	-0.086888	NaN	0.000000	0.001570	0.001708	28.0835	0.067310	0.001971	34.1496	79.7475	13.0682	-0.092977	0.651524	-0.454010	-0.455389	-0.086888	34.1496	-0.452102	-731031	1.188571E-7	NaN
759	1.000000	0.662901	7.37248e+06	-39139.1	1005.82	-29794.9	0.000000	0.000000	6.663002	-0.026480	NaN	0.000000	0.001582	0.001664	28.0833	0.043547	0.002028	21.476	160.913	-164.607	0.001231	0.661605	-0.444013	-0.445308	-0.026480	21.476	-0.443089	-545683	4.852582E-8	NaN
759	1.000000	0.672931	7.37248e+06	-39139.1	1005.82	-29794.9	0.000000	0.000000	6.673033	-0.013271	NaN	0.000000	0.001582	0.001647	28.0833	0.108403	0.001992	54.4062	-130.346	12.2351	-0.019281	0.671536	-0.433983	-0.435378	-0.013271	54.4062	-0.433800	-403452	3.289256E-8	NaN
759	1.000000	0.682915	7.37248e+06	-39139.1	1005.82	-29794.9	0.000000	0.000000	6.683017	-0.032717	NaN	0.000000	0.001544	0.001645	28.0831	0.062207	0.001930	32.2258	-168.224	-167.714	-0.032388	0.681559	-0.423999	-0.425355	-0.032717	32.2258	-0.423237	-285963	1.144088E-7	NaN
759	1.000000	0.692898	7.37248e+06	-39139.1	1005.82	-29794.9	0.000000	0.000000	6.693001	-0.007366	NaN	0.000000	0.001564	0.001693	28.0835	0.059624	0.002097	28.4335	79.5363	13.5796	-0.011666	0.691585	-0.414016	-0.415329	-0.007366	28.4335	-0.413821	-210240	3.503693E-8	NaN
759	1.000000	0.702883	7.37248e+06	-39139.1	1005.82	-29794.9	0.000000	0.000000	6.702984	-0.041141	NaN	0.000000	0.001555	0.001595	28.0833	0.044587	0.001942	22.954	-168.157	-165.802	-0.070783	0.701668	-0.404031	-0.405246	-0.041141	22.954	-0.402686	-145979	2.818291E-7	NaN
759	1.000000	0.712920	7.37248e+06	-39139.1	1005.82	-29794.9	0.000000	0.000000	6.713021	-0.035346	NaN	0.000000	0.001606	0.001636	28.0834	0.018011	0.001998	9.015444	177.404	13.1915	0.026682	0.711534	-0.393994	-0.395380	-0.035346	9.015444	-0.391053	-99594.3	3.549030E-7	NaN
759	1.000000	0.722931	7.37248e+06	-39139.1	1005.82	-29794.9	0.000000	0.000000	6.723032	-0.046272	NaN	0.000000	0.001567	0.001594	28.0835	0.049241	0.002001	24.6037	119.264	-166.748	-0.043325	0.721630	-0.383983	-0.385284	-0.046272	24.6037	-0.382572	-75298.7	6.145071E-7	NaN
759	1.000000	0.732916	7.37248e+06	-39139.1	1005.82	-29794.9	0.000000	0.000000	6.733017	-0.035574	NaN	0.000000	0.001576	0.001624	28.0834	0.046220	0.001980	23.3387	-35.1739	13.3965	0.003337	0.731580	-0.373998	-0.375334	-0.035574	23.3387	-0.372855	-54603.9	6.514913E-7	NaN
759	1.000000	0.742920	7.37248e+06	-39139.1	1005.82	-29794.9	0.000000	0.000000	6.743023	0.000825	NaN	0.000000	0.001587	0.001629	28.085	0.059800	0.001958	30.537	164.78	-167.416	0.082392	0.741613	-0.363993	-0.365301	0.000825	30.537	-0.364014	-40721.2	-2.025047E-8	NaN
759	1.000000	0.752941	7.37248e+06	-39139.1	1005.82	-29794.9	0.000000	0.000000	6.753043	-0.013740	NaN	0.000000	0.001595	0.001666	28.085	0.076425	0.002088	36.6055	-48.9635	17.5729	-0.040308	0.751607	-0.353973	-0.355307	-0.013740	36.6055	-0.353691	-28875.9	4.758293E-7	NaN
759	1.000000	0.762968	7.37248e+06	-39139.1	1005.82	-29794.9	0.000000	0.000000	6.763066	-0.127836	NaN	0.000000	0.001573	0.001697	28.0854	0.095791	0.001880	50.942	72.9442	-163.235	-0.030962	0.761634	-0.343946	-0.345280	-0.127836	50.942	-0.342064	-19571.4	6.531807E-6	NaN
759	1.000000	0.772949	7.37248e+06	-39139.1	1005.82	-29794.9	0.000000	0.000000	6.773052	0.010716	NaN	0.000000	0.001585	0.001664	28.085	0.066297	0.002081	31.8657	-135.655	16.7808	-0.003197	0.771589	-0.333965	-0.335325	0.010716	31.8657	-0.334217	-15036.6	-7.126423E-7	NaN
759	1.000000	0.782962	7.37248e+06	-39139.1	1005.82	-29794.9	0.000000	0.000000	6.783064	-0.010852	NaN	0.000000	0.001599	0.001660	28.0849	0.078268	0.001914	40.8913	-96.7863	-166.283	-0.008119	0.781645	-0.323952	-0.325268	-0.010852	40.8913	-0.323753	-10563.8	1.027315E-6	NaN
759	1.000000	0.792987	7.37248e+06	-39139.1	1005.82	-29794.9	0.000000	0.000000	6.793088	-0.039674	NaN	0.000000	0.001566	0.001708	28.0852	0.098714	0.001975	49.9932	-115.333	13.759	-0.015886	0.791634	-0.313927	-0.315280	-0.039674	49.9932	-0.313332	-7418.45	5.347969E-6	NaN
759	1.000000	0.802956	7.37248e+06	-39139.1	1005.82	-29794.9	0.000000	0.000000	6.803056	-0.072982	NaN	0.000000	0.001588	0.001686	28.0846	0.066269	0.001912	34.6557	-21.528	-166.973	-0.089705	0.801708	-0.303958	-0.305206	-0.072982	34.6557	-0.302379	-5105.29	1.429545E-5	NaN
759	1.000000	0.812987	7.37248e+06	-39139.1	1005.82	-29794.9	0.000000	0.000000	6.813087	-0.074315	NaN	0.000000	0.001582	0.001739	28.0847	0.032557	0.001999	16.2897	129.215	12.9123	-0.036404	0.811564	-0.293927	-0.295349	-0.074315	16.2897	-0.290505	-3395.25	2.188784E-5	NaN
759	1.000000	0.822966	7.37248e+06	-39139.1	1005.82	-29794.9	0.000000	0.000000	6.823067	-0.063634	NaN	0.000000	0.001584	0.001771	28.0845	0.024471	0.001983	12.3388	165.685	-168.627	-0.064910	0.821637	-0.283948	-0.285277	-0.063634	12.3388	-0.280080	-2366.85	2.688569E-5	NaN
759	1.000000	0.832970	7.37248e+06	-39139.1	1005.82	-29794.9	0.000000	0.000000	6.833071	-0.038359	NaN	0.000000	0.001528	0.001762	28.0848	0.100359	0.002125	47.2385	-161.061	13.5687	-0.041319	0.831650	-0.273944	-0.275264	-0.038359	47.2385	-0.273335	-1871.45	2.049673E-5	NaN
759	1.000000	0.842979	7.37248e+06	-39139.1	1005.82	-29794.9	0.000000	0.000000	6.843083	0.022549	NaN	0.000000	0.001556	0.001762	28.0847	0.141381	0.001956	72.2779	126.28	-165.386	0.057416	0.841616	-0.263934	-0.265298	0.022549	72.2779	-0.264168	-1357.35	-1.661232E-5	NaN
759	1.000000	0.852990	7.37248e+06	-39139.1	1005.82	-29794.9	0.000000	0.000000	6.853092	-0.013087	NaN	0.000000	0.001599	0.001730	28.0849	0.045946	0.001944	23.6348	-118.955	16.7972	-0.027081	0.851633	-0.253924	-0.255281	-0.013087	23.6348	-0.253508	-931.403	1.405051E-5	NaN
759	1.000000	0.863000	7.37248e+06	-39139.1	1005.82	-29794.9	0.000000	0.000000	6.863099	-0.084281	NaN	0.000000	0.001587	0.001713	28.085	0.048755	0.001921	25.38	-179.285	-168.293	-0.035120	0.861696	-0.243914	-0.245218	-0.084281	25.38	-0.241423	-605.015	0.000139	NaN
759	1.000000	0.873003	7.37248e+06	-39139.1	1005.82	-29794.9	0.000000	0.000000	6.873103	-0.059666	NaN	0.000000	0.001590	0.001758	28.0846	0.016968	0.001964	8.638284	123.111	14.0407	-0.006572	0.871635	-0.233911	-0.235279	-0.059666	8.638284	-0.228731	-382.35	0.000156	NaN
759	1.000000	0.882998	7.37248e+06	-39139.1	1005.82	-29794.9	0.000000	0.000000	6.883101	0.002419	NaN	0.000000	0.001599	0.001763	28.0835	0.035992	0.002086	17.2527	66.5705	-166.459	0.007399	0.881673	-0.223916	-0.225241	0.002419	17.2527	-0.224021	-321.94	-7.514625E-6	NaN
759	1.000000	0.892975	7.37248e+06	-39139.1	1005.82	-29794.9	0.000000	0.000000	6.893076	-0.031808	NaN	0.000000	0.001612	0.001734	28.0834	0.110068	0.002026	54.3376	99.9268	15.9017	0.000438	0.891630	-0.213939	-0.215284	-0.031808	54.3376	-0.213500	-218.456	0.000146	NaN
759	1.000000	0.903006	7.37248e+06	-39139.1	1005.82	-29794.9	0.000000	0.000000	6.903107	-0.055781	NaN	0.000000	0.001590	0.001727	28.0836	0.057256	0.001976	28.9726	-50.9893	-164.707	-0.029823	0.901729	-0.203908	-0.205185	-0.055781	28.9726	-0.202464	-144.58	0.000386	NaN
759	1.000000	0.913024	7.37248e+06	-39139.1	1005.82	-29794.9	0.000000	0.000000	6.913126	-0.018756	NaN	0.000000	0.001610	0.001756	28.0832	0.073114	0.001965	37.2064	40.0847	14.3698	-0.096927	0.911608	-0.193889	-0.195306	-0.018756	37.2064	-0.193511	-102.923	0.000182	NaN
759	1.000000	0.923014	7.37248e+06	-39139.1	1005.82	-29794.9	0.000000	0.000000	6.923112	-0.094799	NaN	0.000000	0.001598	0.001740	28.0834	0.037155	0.002020	18.3923	132.726	-163.989	-0.062481	0.921696	-0.183900	-0.185218	-0.094799	18.3923	-0.180035	-61.1022	0.001551	NaN
759	1.000000	0.933035	7.37248e+06	-39139.1	1005.82	-29794.9	0.000000	0.000000	6.933135	-0.080775	NaN	0.000000	0.001612	0.001762	28.0834	0.038459	0.002069	18.5909	76.0331	13.2364	-0.071049	0.931675	-0.173878	-0.175239	-0.080775	18.5909	-0.170620	-42.1085	0.001918	NaN
759	1.000000	0.943044	7.37248e+06	-39139.1	1005.82	-29794.9	0.000000	0.000000	6.943147	0.002876	NaN	0.000000	0.001630	0.001756	28.0833	0.063316	0.002044	30.9715	41.5592	-165.916	0.048243	0.941737	-0.163870	-0.165177	0.002876	30.9715	-0.163939	-32.1853	-8.936201E-5	NaN
759	1.000000	0.953038	7.37248e+06	-39139.1	1005.82	-29794.9	0.000000	0.000000	6.953138	-0.051404	NaN	0.000000	0.001567	0.001719	28.0852	0.107763	0.002095	51.4396	156.303	16.0833	-0.010326	0.951644	-0.153876	-0.155270	-0.051404	51.4396	-0.153127	-20.6437	0.002490	NaN
759	1.000000	0.963054	7.37248e+06	-39139.1	1005.82	-29794.9	0.000000	0.000000	6.963153	-0.079637	NaN	0.000000	0.001592	0.001734	28.0874	0.022055	0.001964	11.2274	55.8169	-168.352	-0.051057	0.961684	-0.143860	-0.145230	-0.079637	11.2274	-0.138540	-11.1041	0.007172	NaN
759	1.000000	0.973008	7.37248e+06	-39139.1	1005.82	-29794.9	0.000000	0.000000	6.973108	-0.059090	NaN	0.000000	0.001527	0.001712	28.0844	0.112031	0.001891	59.2469	-157.815	13.1398	-0.018816	0.971646	-0.133906	-0.135268	-0.059090	59.2469	-0.133158	-8.770299	0.006738	NaN
759	1.000000	0.983036	7.37248e+06	-39139.1	1005.82	-29794.9	0.000000	0.000000	6.983137	-0.055394	NaN	0.000000	0.001553	0.001751	28.0839	0.107668	0.001906	56.5004	-56.0652	-168.733	-0.014603	0.981702	-0.123878	-0.125212	-0.055394	56.5004	-0.123142	-5.586032	0.009917	NaN
759	1.000000	0.993013	7.37248e+06	-39139.1	1005.82	-29794.9	0.000000	0.000000	6.993117	0.026054	NaN	0.000000	0.001531	0.001736	28.0835	0.068192	0.002046	33.3245	-104.891	13.1892	0.051646	0.991598	-0.113901	-0.115315	0.026054	33.3245	-0.114488	-3.728467	-0.006988	NaN
759	1.000000	1.003062	7.37248e+06	-39139.1	1005.82	-29794.9	0.000000	0.000000	7.003164	-0.040935	NaN	0.000000	0.001572	0.001740	28.0833	0.053940	0.002031	26.5535	-159.117	-164.644	0.022214	1.001752	-0.103851	-0.105162	-0.040935	26.5535	-0.102695	-2.094581	0.019543	NaN
759	1.000000	1.013068	7.37248e+06	-39139.1	1005.82	-29794.9	0.000000	0.000000	7.013168	-0.051988	NaN	0.000000	0.001571	0.001743	28.0848	0.076772	0.002121	36.1934	87.2511	15.9231	0.016435	1.011702	-0.093846	-0.095212	-0.051988	36.1934	-0.092769	-1.253877	0.041462	NaN
759	1.000000	1.023071	7.37248e+06	-39139.1	1005.82	-29794.9	0.000000	0.000000	7.023170	-0.085119	NaN	0.000000	0.001633	0.001777	28.0846	0.068252	0.002072	32.9347	-134.78	-165.983	-0.003659	1.021700	-0.083843	-0.085214	-0.085119	32.9347	-0.081905	-0.690256	0.123316	NaN
759	1.000000	1.033038	7.37248e+06	-39139.1	1005.82	-29794.9	0.000000	0.000000	7.033140	-0.019974	NaN	0.000000	0.001623	0.001797	28.0845	0.017540	0.001872	9.370467	153.647	10.9225	-0.005173	1.031712	-0.073876	-0.075202	-0.019974	9.370467	-0.072277	-0.392105	0.050941	NaN
759	1.000000	1.043096	7.37248e+06	-39139.1	1005.82	-29794.9	0.000000	0.000000	7.043196	-0.065533	NaN	0.000000	0.001600	0.001746	28.0846	0.054387	0.002044	26.6068	-50.6032	-167.359	-0.081671	1.041750	-0.063818	-0.065163	-0.065533	26.6068	-0.061971	-0.204957	0.319737	NaN
759	1.000000	1.053060	7.37248e+06	-39139.1	1005.82	-29794.9	0.000000	0.000000	7.053161	-0.051113	NaN	0.000000	0.001610	0.001717	28.0846	0.056185	0.002065	27.2097	-71.6133	10.3004	-0.090512	1.051692	-0.053854	-0.055222	-0.051113	27.2097	-0.052445	-0.108099	0.472836	NaN
759	1.000000	1.063046	7.37248e+06	-39139.1	1005.82	-29794.9	0.000000	0.000000	7.063147	-0.033327	NaN	0.000000	0.001611	0.001686	28.085	0.092170	0.001891	48.7376	47.191	-166.75	-0.014100	1.061725	-0.043868	-0.045189	-0.033327	48.7376	-0.043355	-0.057240	0.582231	NaN
759	1.000000	1.073063	7.37248e+06	-39139.1	1005.82	-29794.9	0.000000	0.000000	7.073166	-0.002930	NaN	0.000000	0.001590	0.001702	28.0846	0.068488	0.002081	32.9108	-48.17	11.3771	-0.073484	1.071702	-0.033851	-0.035212	-0.002930	32.9108	-0.033784	-0.029503	0.099315	NaN
759	1.000000	1.083065	7.37248e+06	-39139.1	1005.82	-29794.9	0.000000	0.000000	7.083168	0.002624	NaN	0.000000	0.001655	0.001672	28.0849	0.103613	0.001952	53.083	-172.298	-168.455	-0.007416	1.081752	-0.023849	-0.025162	0.002624	53.083	-0.023886	-0.015783	-0.166237	NaN
759	1.000000	1.093075	7.37248e+06	-39139.1	1005.82	-29794.9	0.000000	0.000000	7.093177	-0.016997	NaN	0.000000	0.001626	0.001700	28.085	0.199318	0.001855	107.46	-80.8316	15.5517	-0.035895	1.091685	-0.013839	-0.015229	-0.016997	107.46	-0.013720	-0.008520	1.995053	NaN
759	1.000000	1.103080	7.37248e+06	-39139.1	1005.82	-29794.9	0.000000	0.000000	7.103184	0.008928	NaN	0.000000	0.001754	0.001733	28.085	0.114436	0.002005	57.0697	136.304	-166.416	-0.080384	1.101728	-0.003834	-0.005186	0.008928	57.0697	-0.003951	-0.002747	-3.250195	NaN
759	1.000000	1.112983	7.37248e+06	-39139.1	1005.82	-29794.9	0.000000	0.000000	7.113357	6.588553	NaN	0.000000	0.001656	0.001725	28.0846	6.711552	0.001607	4176.88	10.1178	8.655620	4.623910	1.111730	0.006069	0.004816	6.588553	4176.88	0.004886	0.004030	1634.97	60115.3
759	2.000000	1.116663	7.37248e+06	-39139.1	1005.82	-29794.9	0.000000	0.000000	7.117211	10.8397	NaN	0.000000	0.001678	0.001738	28.0846	11.0697	0.001774	6239.32	8.073716	-174.244	10.861	1.116432	0.009749	0.009518	10.8397	6239.32	0.008446	0.007505	1444.25	65799.8
759	2.000000	1.119118	7.37248e+06	-39139.1	1005.82	-29794.9	0.000000	0.000000	7.119875	15.9236	NaN	0.000000	0.001702	0.001745	28.0846	13.2913	0.001809	7346.5	8.429122	4.318627	14.6242	1.118819	0.012204	0.011905	15.9236	7346.5	0.010578	0.009831	1619.74	67694.7
759	2.000000	1.121619	7.37248e+06	-39139.1	1005.82	-29794.9	0.000000	0.000000	7.122516	19.3085	NaN	0.000000	0.001693	0.001721	28.0843	15.3577	0.001797	8548.25	7.275808	-174.694	18.8668	1.121284	0.014705	0.014370	19.3085	8548.25	0.013011	0.012724	1517.46	69236.3
759	2.000000	1.124078	7.37248e+06	-39139.1	1005.82	-29794.9	0.000000	0.000000	7.125241	25.7963	NaN	0.000000	0.001677	0.001712	28.0832	18.0768	0.001728	10461.2	4.143635	4.672730	23.5931	1.123798	0.017164	0.016884	25.7963	10461.2	0.015315	0.015708	1642.29	76261.1
759	2.000000	1.126575	7.37248e+06	-39139.1	1005.82	-29794.9	0.000000	0.000000	7.127866	28.9266	NaN	0.000000	0.001687	0.001705	28.0837	21.7856	0.001849	11779.3	7.396833	-178.287	28.2418	1.126278	0.019661	0.019364	28.9266	11779.3	0.017819	0.019231	1504.19	77605.6
759	2.000000	1.129054	7.37248e+06	-39139.1	1005.82	-29794.9	0.000000	0.000000	7.130765	39.1308	NaN	0.000000	0.001676	0.001744	28.0832	23.8919	0.001693	14111	5.086952	1.847152	36.9531	1.128720	0.022140	0.021806	39.1308	14111	0.020060	0.022637	1728.59	85687.2
759	2.000000	1.131577	7.37248e+06	-39139.1	1005.82	-29794.9	0.000000	0.000000	7.133519	44.7516	NaN	0.000000	0.001711	0.001763	28.0832	25.9937	0.001680	15472.6	4.221045	-178.732	43.7131	1.131209	0.024664	0.024295	44.7516	15472.6	0.022494	0.026614	1681.48	86651.9
759	2.000000	1.134070	7.37248e+06	-39139.1	1005.82	-29794.9	0.000000	0.000000	7.136298	51.7346	NaN	0.000000	0.001759	0.001713	28.0832	29.0955	0.001721	16902.3	6.735043	-2.387557	50.081	1.133686	0.027156	0.026773	51.7346	16902.3	0.024860	0.030762	1681.79	88047.1
759	2.000000	1.136548	7.37248e+06	-39139.1	1005.82	-29794.9	0.000000	0.000000	7.138948	55.9054	NaN	0.000000	0.001716	0.001682	28.0835	31.5579	0.001819	17346.6	5.509231	179.74	54.3168	1.136257	0.029634	0.029343	55.9054	17346.6	0.027217	0.035173	1589.44	84505.4
759	2.000000	1.139088	7.37248e+06	-39139.1	1005.82	-29794.9	0.000000	0.000000	7.141946	67.0453	NaN	0.000000	0.001694	0.001712	28.0833	33.5957	0.001780	18877	6.409029	-3.098049	64.9613	1.138755	0.032174	0.031841	67.0453	18877	0.029510	0.039735	1687.33	86521
759	2.000000	1.141570	7.37248e+06	-39139.1	1005.82	-29794.9	0.000000	0.000000	7.144581	70.7656	NaN	0.000000	0.001722	0.001711	28.0834	35.9179	0.001832	19603.3	9.372796	174.258	71.1417	1.141290	0.034656	0.034376	70.7656	19603.3	0.031948	0.044879	1576.81	84543.6
759	2.000000	1.144023	7.37248e+06	-39139.1	1005.82	-29794.9	0.000000	0.000000	7.147526	82.7444	NaN	0.000000	0.001733	0.001721	28.0834	37.925	0.001847	20528.2	7.218995	-3.820813	80.3914	1.143648	0.037109	0.036734	82.7444	20528.2	0.034086	0.049639	1666.93	84180.9
759	2.000000	1.146536	7.37248e+06	-39139.1	1005.82	-29794.9	0.000000	0.000000	7.150275	88.4777	NaN	0.000000	0.001722	0.001719	28.0837	39.6221	0.001818	21797.3	-2.603212	-175.082	86.5416	1.146335	0.039622	0.039421	88.4777	21797.3	0.036578	0.055483	1594.67	84546.4
759	2.000000	1.149041	7.37248e+06	-39139.1	1005.82	-29794.9	0.000000	0.000000	7.153320	101.611	NaN	0.000000	0.001714	0.001734	28.0836	42.8576	0.001831	23410.9	6.484738	-3.524712	99.3836	1.148672	0.042127	0.041758	101.611	23410.9	0.038872	0.061146	1661.77	86498.3
759	2.000000	1.151589	7.37248e+06	-39139.1	1005.82	-29794.9	0.000000	0.000000	7.156146	108.391	NaN	0.000000	0.001695	0.001696	28.0835	45.0915	0.001724	26158.7	7.045231	174.102	110.009	1.151215	0.044675	0.044301	108.391	26158.7	0.041568	0.068142	1590.66	91554.7
759	2.000000	1.154041	7.37248e+06	-39139.1	1005.82	-29794.9	0.000000	0.000000	7.159024	118.755	NaN	0.000000	0.001767	0.001737	28.0836	48.2383	0.001853	26036.8	4.921037	-2.998191	117.763	1.153687	0.047127	0.046774	118.755	26036.8	0.043707	0.073958	1605.72	87471.9
759	2.000000	1.156488	7.37248e+06	-39139.1	1005.82	-29794.9	0.000000	0.000000	7.161977	131.052	NaN	0.000000	0.001749	0.001724	28.0835	50.3843	0.001728	29153.9	5.122645	175.589	128.102	1.156157	0.049575	0.049243	131.052	29153.9	0.046203	0.081040	1617.14	93566.7
759	2.000000	1.159107	7.37248e+06	-39139.1	1005.82	-29794.9	0.000000	0.000000	7.164987	140.582	NaN	0.000000	0.001770	0.001712	28.0848	51.4789	0.001761	29237.8	2.016780	-0.749393	141.006	1.158812	0.052193	0.051898	140.582	29237.8	0.048587	0.088096	1595.77	89999.2
759	2.000000	1.161524	7.37248e+06	-39139.1	1005.82	-29794.9	0.000000	0.000000	7.168127	158.19	NaN	0.000000	0.001754	0.001752	28.0846	53.1655	0.001719	30929.9	-1.325718	-178.269	155.713	1.161167	0.054610	0.054253	158.19	30929.9	0.050774	0.094822	1668.29	91769.3
759	2.000000	1.164025	7.37248e+06	-39139.1	1005.82	-29794.9	0.000000	0.000000	7.171219	172.56	NaN	0.000000	0.001748	0.001751	28.085	58.0707	0.001804	32195.4	5.347917	-5.255981	169.011	1.163551	0.057111	0.056637	172.56	32195.4	0.053091	0.102208	1688.32	92007.9
759	2.000000	1.166528	7.37248e+06	-39139.1	1005.82	-29794.9	0.000000	0.000000	7.174124	182.337	NaN	0.000000	0.001717	0.001726	28.0846	60.4738	0.001943	31131.8	4.385278	176.34	180.48	1.166131	0.059614	0.059218	182.337	31131.8	0.055222	0.109234	1669.24	86059.5
759	2.000000	1.168982	7.37248e+06	-39139.1	1005.82	-29794.9	0.000000	0.000000	7.177118	195.488	NaN	0.000000	0.001754	0.001780	28.0847	62.3771	0.001824	34205.8	4.952623	-5.703709	190.663	1.168652	0.062068	0.061738	195.488	34205.8	0.057782	0.117976	1657.02	90986.5
759	2.000000	1.171497	7.37248e+06	-39139.1	1005.82	-29794.9	0.000000	0.000000	7.180184	208.893	NaN	0.000000	0.001670	0.001749	28.0846	65.0209	0.001696	38348.9	4.915678	173.278	208.965	1.171140	0.064583	0.064227	208.893	38348.9	0.060498	0.127599	1637.1	98085
759	2.000000	1.174027	7.37248e+06	-39139.1	1005.82	-29794.9	0.000000	0.000000	7.183168	219.947	NaN	0.000000	0.001660	0.001738	28.0845	68.5244	0.001795	38170.4	4.795659	-7.022874	218.542	1.173760	0.067113	0.066846	219.947	38170.4	0.062792	0.136009	1617.15	94561.7
759	2.000000	1.176526	7.37248e+06	-39139.1	1005.82	-29794.9	0.000000	0.000000	7.186327	236.021	NaN	0.000000	0.001631	0.001769	28.0848	70.8623	0.001841	38493.5	1.055837	177.053	234.624	1.176198	0.069612	0.069284	236.021	38493.5	0.065013	0.144397	1634.53	92551.1
759	2.000000	1.178994	7.37248e+06	-39139.1	1005.82	-29794.9	0.000000	0.000000	7.189746	259.151	NaN	0.000000	0.001640	0.001740	28.0845	72.0647	0.001772	40676.8	4.679674	-6.487185	255.946	1.178614	0.072080	0.071700	259.151	40676.8	0.067301	0.153284	1690.66	94923
759	2.000000	1.181500	7.37248e+06	-39139.1	1005.82	-29794.9	0.000000	0.000000	7.192736	270.923	NaN	0.000000	0.001599	0.001713	28.085	74.1806	0.001781	41639.9	4.653891	172.811	268.071	1.181123	0.074586	0.074209	270.923	41639.9	0.069706	0.162895	1663.17	94260.2
759	2.000000	1.183886	7.37248e+06	-39139.1	1005.82	-29794.9	0.000000	0.000000	7.195764	286.555	NaN	0.000000	0.001684	0.001763	28.0843	77.3271	0.001771	43662.3	3.895427	-6.783819	277.701	1.183665	0.076972	0.076751	286.555	43662.3	0.072049	0.172525	1660.95	96040.6
759	2.000000	1.186406	7.37248e+06	-39139.1	1005.82	-29794.9	0.000000	0.000000	7.199083	306.001	NaN	0.000000	0.001568	0.001750	28.0846	79.9326	0.001727	46277.6	4.029182	172.684	300.729	1.186255	0.079492	0.079341	306.001	46277.6	0.074533	0.183015	1671.99	98832.5
759	2.000000	1.188940	7.37248e+06	-39139.1	1005.82	-29794.9	0.000000	0.000000	7.202514	327.81	NaN	0.000000	0.001636	0.001740	28.0848	81.9938	0.001718	47723.4	8.571498	-11.4086	321.678	1.188562	0.082026	0.081648	327.81	47723.4	0.076875	0.193172	1696.98	99204.6
759	2.000000	1.191437	7.37248e+06	-39139.1	1005.82	-29794.9	0.000000	0.000000	7.205845	348.12	NaN	0.000000	0.001591	0.001743	28.0839	84.5229	0.001742	48517.9	5.930005	171.141	345.767	1.191069	0.084523	0.084155	348.12	48517.9	0.079142	0.203252	1712.76	98323.7
759	2.000000	1.193893	7.37248e+06	-39139.1	1005.82	-29794.9	0.000000	0.000000	7.208930	363.433	NaN	0.000000	0.001593	0.001743	28.0834	87.5797	0.001725	50776.6	7.274610	-11.2575	356.34	1.193547	0.086979	0.086633	363.433	50776.6	0.081611	0.214499	1694.33	100167
759	2.000000	1.196542	7.37248e+06	-39139.1	1005.82	-29794.9	0.000000	0.000000	7.211860	370.254	NaN	0.000000	0.001631	0.001743	28.0835	90.85	0.001679	54110.9	3.500008	171.693	370.434	1.196382	0.089628	0.089468	370.254	54110.9	0.084496	0.228005	1623.88	103535
759	2.000000	1.199033	7.37248e+06	-39139.1	1005.82	-29794.9	0.000000	0.000000	7.215429	396.503	NaN	0.000000	0.001660	0.001733	28.0837	93.4184	0.001802	51835.4	8.348072	-12.5373	394.629	1.198753	0.092119	0.091839	396.503	51835.4	0.086382	0.237038	1672.74	97272.5
759	2.000000	1.201477	7.37248e+06	-39139.1	1005.82	-29794.9	0.000000	0.000000	7.218874	420.851	NaN	0.000000	0.001588	0.001715	28.0839	93.6647	0.001739	53869.7	2.669640	173.313	418.777	1.201140	0.094563	0.094226	420.851	53869.7	0.088704	0.248388	1694.33	98753.6
759	2.000000	1.203871	7.37248e+06	-39139.1	1005.82	-29794.9	0.000000	0.000000	7.222097	441.015	NaN	0.000000	0.001594	0.001716	28.0835	97.5768	0.001763	55348.8	4.075764	-8.427103	432.177	1.203521	0.096957	0.096607	441.015	55348.8	0.090981	0.259759	1697.79	99219.3
759	2.000000	1.206399	7.37248e+06	-39139.1	1005.82	-29794.9	0.000000	0.000000	7.225531	463.087	NaN	0.000000	0.001558	0.001679	28.0838	100.537	0.001762	57069.4	3.537834	171.934	457.455	1.206100	0.099485	0.099186	463.087	57069.4	0.093399	0.272090	1701.96	99958.6
759	2.000000	1.208943	7.37248e+06	-39139.1	1005.82	-29794.9	0.000000	0.000000	7.228674	477.669	NaN	0.000000	0.001582	0.001719	28.0836	102.208	0.001759	58107.6	5.103093	-9.800305	471.656	1.208557	0.102029	0.101643	477.669	58107.6	0.095863	0.284936	1676.41	99456.3
759	2.000000	1.211491	7.37249e+06	-39139.1	1005.82	-29794.9	0.000000	0.000000	7.231886	493.803	NaN	0.000000	0.001642	0.001689	28.0839	103.774	0.001642	63195	4.083312	170.349	492.425	1.211175	0.104578	0.104262	493.803	63195	0.098717	0.300156	1645.16	105386
759	2.000000	1.213075	7.37249e+06	-39139.1	1005.82	-29794.9	0.000000	0.000000	7.233941	505.28	NaN	0.000000	0.001638	0.001699	28.0836	108.524	0.001806	60096.5	4.619439	-9.722043	508.06	1.212779	0.106161	0.105866	505.28	60096.5	0.099855	0.306331	1649.46	99203.4