File: remote_trans/data/nanoindenter/0828-1/data/Data_2025-08-06,11h17m57s/2025-07-22_16-23-58_1_139.txt
2025-07-22, 16:23:58, 1
Index	Phase	Displacement	Time	Pos X	Pos Y	Pos Z	Rot A	Rot B	Piezo Z	Force A	Force B	Gripper	Voltage A	Voltage B	Temperature	Amplitude force	Amplitude pos	Stiffness	Phase shift	Phase excitation	Force A raw	Displacement raw	HMax	HMax raw	Real Force	Real Stiffness	Contact Depth	Area	Hardness	Reduced Mod.
[#]	[#]	[um]	[s]	[um]	[um]	[um]	[m°]	[m°]	[um]	[uN]	[uN]	[V]	[V]	[V]	[°C]	[uN]	[um]	[N/m]	[°]	[°]	[uN]	[um]	[um]	[um]	[uN]	[N/m]	[um]	[um^2]	[MPa]	[MPa]
139	1.000000	0.002059	7.3664e+06	-45589.1	955.818	-29772.4	0.000000	0.000000	6.002796	-0.025487	NaN	0.000000	0.001654	0.001609	28.129	0.066560	0.000977	68.1178	-5.499083	-169.293	-0.025892	0.000754	-1.057880	-1.059185	-0.025487	68.1178	-1.057600	-1.350708E+14	1.886901E-16	NaN
139	1.000000	0.010043	7.3664e+06	-45589.1	955.818	-29772.4	0.000000	0.000000	6.010782	0.001407	NaN	0.000000	0.001638	0.001618	28.1278	0.201002	0.000950	211.653	111.946	-169.519	-0.062972	0.008709	-1.049896	-1.051230	0.001407	211.653	-1.049901	-1.064347E+14	-1.321520E-17	NaN
139	1.000000	0.018028	7.3664e+06	-45589.1	955.819	-29772.4	0.000000	0.000000	6.018765	-0.027952	NaN	0.000000	0.001680	0.001605	28.127	0.045058	0.001708	26.3855	-171.019	-168.94	0.043959	0.016732	-1.041911	-1.043207	-0.027952	26.3855	-1.041117	-8.109258E+13	3.446887E-16	NaN
139	1.000000	0.026029	7.3664e+06	-45589.1	955.818	-29772.4	0.000000	0.000000	6.026766	-0.034020	NaN	0.000000	0.001636	0.001607	28.1268	0.103404	0.001728	59.8306	93.22	-167.66	-0.052987	0.024697	-1.033910	-1.035242	-0.034020	59.8306	-1.033484	-6.402375E+13	5.313619E-16	NaN
139	1.000000	0.034007	7.3664e+06	-45589.1	955.818	-29772.4	0.000000	0.000000	6.034747	0.019585	NaN	0.000000	0.001613	0.001636	28.127	0.044418	0.001951	22.7695	9.479284	-165.323	0.020194	0.032692	-1.025932	-1.027248	0.019585	22.7695	-1.026577	-5.169315E+13	-3.788633E-16	NaN
139	1.000000	0.042010	7.3664e+06	-45589.1	955.818	-29772.4	0.000000	0.000000	6.042748	-0.017712	NaN	0.000000	0.001649	0.001644	28.1268	0.137820	0.002093	65.8522	-53.2943	-163.594	-0.032799	0.040672	-1.017929	-1.019267	-0.017712	65.8522	-1.017727	-3.929822E+13	4.507147E-16	NaN
139	1.000000	0.050031	7.3664e+06	-45589.1	955.818	-29772.4	0.000000	0.000000	6.050766	-0.090326	NaN	0.000000	0.001691	0.001669	28.1279	0.102591	0.001934	53.0367	-74.9779	-169.256	0.013247	0.048661	-1.009908	-1.011278	-0.090326	53.0367	-1.008631	-2.964501E+13	3.046916E-15	NaN
139	1.000000	0.058005	7.3664e+06	-45589.1	955.819	-29772.4	0.000000	0.000000	6.058743	-0.011891	NaN	0.000000	0.001637	0.001634	28.1285	0.073643	0.001984	37.114	164.584	-165.436	-0.017455	0.056721	-1.001934	-1.003218	-0.011891	37.114	-1.001693	-2.390929E+13	4.973347E-16	NaN
139	1.000000	0.065990	7.3664e+06	-45589.1	955.818	-29772.4	0.000000	0.000000	6.066727	-0.039933	NaN	0.000000	0.001648	0.001609	28.1278	0.032242	0.001970	16.3701	-86.5619	-165.934	-0.017803	0.064726	-0.993949	-0.995214	-0.039933	16.3701	-0.992119	-1.776868E+13	2.247369E-15	NaN
139	1.000000	0.074005	7.3664e+06	-45589.1	955.818	-29772.4	0.000000	0.000000	6.074743	-0.033774	NaN	0.000000	0.001596	0.001615	28.128	0.112546	0.002071	54.3484	-132.923	-170.327	-0.055742	0.072717	-0.985934	-0.987223	-0.033774	54.3484	-0.985468	-1.445657E+13	2.336244E-15	NaN
139	1.000000	0.082002	7.3664e+06	-45589.1	955.818	-29772.4	0.000000	0.000000	6.082742	0.040263	NaN	0.000000	0.001618	0.001646	28.1284	0.064976	0.001949	33.3428	11.3087	-163.839	-0.058846	0.080689	-0.977937	-0.979250	0.040263	33.3428	-0.978843	-1.177112E+13	-3.420516E-15	NaN
139	1.000000	0.090035	7.3664e+06	-45589.1	955.819	-29772.4	0.000000	0.000000	6.090770	-0.080361	NaN	0.000000	0.001634	0.001634	28.1272	0.041555	0.002156	19.2742	-0.410207	-165.482	-0.115316	0.088721	-0.969904	-0.971218	-0.080361	19.2742	-0.966777	-8.095156E+12	9.927014E-15	NaN
139	1.000000	0.098025	7.3664e+06	-45589.1	955.819	-29772.4	0.000000	0.000000	6.098760	-0.065884	NaN	0.000000	0.001551	0.001628	28.1274	0.087218	0.001921	45.3916	-29.7109	-164.455	-0.081737	0.096666	-0.961915	-0.963273	-0.065884	45.3916	-0.960826	-6.729828E+12	9.789811E-15	NaN
139	1.000000	0.106034	7.3664e+06	-45589.1	955.818	-29772.4	0.000000	0.000000	6.106772	-0.009105	NaN	0.000000	0.001583	0.001626	28.127	0.094876	0.001948	48.712	50.1164	-168.292	-0.058342	0.104758	-0.953905	-0.955181	-0.009105	48.712	-0.953765	-5.405028E+12	1.684560E-15	NaN
139	1.000000	0.114026	7.3664e+06	-45589.1	955.818	-29772.4	0.000000	0.000000	6.114765	0.010571	NaN	0.000000	0.001607	0.001609	28.127	0.115065	0.001994	57.7008	100.454	-163.831	0.011325	0.112711	-0.945913	-0.947228	0.010571	57.7008	-0.946050	-4.253596E+12	-2.485128E-15	NaN
139	1.000000	0.122049	7.3664e+06	-45589.1	955.818	-29772.4	0.000000	0.000000	6.122786	-0.021010	NaN	0.000000	0.001591	0.001619	28.127	0.031865	0.002065	15.4323	140.38	-165.384	0.003627	0.120711	-0.937890	-0.939228	-0.021010	15.4323	-0.936869	-3.198133E+12	6.569564E-15	NaN
139	1.000000	0.130028	7.3664e+06	-45589.1	955.818	-29772.4	0.000000	0.000000	6.130766	-0.024512	NaN	0.000000	0.001600	0.001616	28.1279	0.052142	0.002027	25.722	144.473	-163.295	0.020504	0.128698	-0.929911	-0.931241	-0.024512	25.722	-0.929196	-2.519710E+12	9.728238E-15	NaN
139	1.000000	0.138045	7.3664e+06	-45589.1	955.819	-29772.4	0.000000	0.000000	6.138780	-0.061229	NaN	0.000000	0.001624	0.001639	28.1285	0.139555	0.002039	68.4573	107.096	-163.885	-0.012670	0.136714	-0.921895	-0.923225	-0.061229	68.4573	-0.921224	-1.966660E+12	3.113341E-14	NaN
139	1.000000	0.146012	7.3664e+06	-45589.1	955.818	-29772.4	0.000000	0.000000	6.146745	-0.116711	NaN	0.000000	0.001680	0.001651	28.1281	0.002425	0.002047	1.184385	105.213	-166.212	-0.113362	0.144726	-0.913927	-0.915213	-0.116711	1.184385	-0.840021	-1.568837E+11	7.439356E-13	NaN
139	1.000000	0.154048	7.3664e+06	-45589.1	955.819	-29772.4	0.000000	0.000000	6.154782	-0.117550	NaN	0.000000	0.001654	0.001631	28.1294	0.076456	0.001944	39.326	-126.483	-167.853	-0.067454	0.152736	-0.905891	-0.907203	-0.117550	39.326	-0.903649	-1.138589E+12	1.032421E-13	NaN
139	1.000000	0.162048	7.3664e+06	-45589.1	955.818	-29772.4	0.000000	0.000000	6.162786	-0.023996	NaN	0.000000	0.001647	0.001627	28.1295	0.115151	0.002046	56.2776	136.673	-166.241	-0.111534	0.160694	-0.897891	-0.899245	-0.023996	56.2776	-0.897571	-9.424261E+11	2.546221E-14	NaN
139	1.000000	0.170043	7.3664e+06	-45589.1	955.818	-29772.4	0.000000	0.000000	6.170783	0.034082	NaN	0.000000	0.001669	0.001595	28.1284	0.147331	0.002055	71.679	-80.8487	-164.14	0.006292	0.168794	-0.889896	-0.891145	0.034082	71.679	-0.890253	-7.504722E+11	-4.541347E-14	NaN
139	1.000000	0.178059	7.3664e+06	-45589.1	955.818	-29772.4	0.000000	0.000000	6.178798	0.011062	NaN	0.000000	0.001661	0.001618	28.1286	0.023359	0.001916	12.192	63.5447	-165.318	-0.104779	0.176713	-0.881880	-0.883226	0.011062	12.192	-0.882560	-5.906483E+11	-1.872821E-14	NaN
139	1.000000	0.186073	7.3664e+06	-45589.1	955.818	-29772.4	0.000000	0.000000	6.186810	-0.039159	NaN	0.000000	0.001673	0.001590	28.1283	0.026554	0.001888	14.0643	116.048	-166.05	-0.019880	0.184801	-0.873866	-0.875138	-0.039159	14.0643	-0.871778	-4.221746E+11	9.275554E-14	NaN
139	1.000000	0.194041	7.3664e+06	-45589.1	955.818	-29772.4	0.000000	0.000000	6.194780	0.019692	NaN	0.000000	0.001666	0.001560	28.1285	0.052175	0.002080	25.0871	-141.638	-169.767	-0.026881	0.192775	-0.865898	-0.867164	0.019692	25.0871	-0.866487	-3.580253E+11	-5.500077E-14	NaN
139	1.000000	0.202064	7.3664e+06	-45589.1	955.818	-29772.4	0.000000	0.000000	6.202798	-0.092068	NaN	0.000000	0.001681	0.001616	28.1289	0.031207	0.001994	15.6531	-6.534029	-169.6	-0.052919	0.200730	-0.857876	-0.859209	-0.092068	15.6531	-0.853464	-2.385856E+11	3.858914E-13	NaN
139	1.000000	0.210075	7.3664e+06	-45589.1	955.818	-29772.4	0.000000	0.000000	6.210813	-0.001454	NaN	0.000000	0.001678	0.001601	28.1299	0.093738	0.002132	43.9578	99.5231	-167.032	-0.036571	0.208731	-0.849864	-0.851208	-0.001454	43.9578	-0.849839	-2.130901E+11	6.825605E-15	NaN
139	1.000000	0.218064	7.3664e+06	-45589.1	955.818	-29772.4	0.000000	0.000000	6.218801	-0.028887	NaN	0.000000	0.001682	0.001605	28.1298	0.064543	0.002036	31.7021	12.3516	-166.347	-0.034003	0.216775	-0.841875	-0.843164	-0.028887	31.7021	-0.841192	-1.627205E+11	1.775231E-13	NaN
139	1.000000	0.226087	7.3664e+06	-45589.1	955.818	-29772.4	0.000000	0.000000	6.226824	-0.041511	NaN	0.000000	0.001693	0.001626	28.1296	0.024173	0.001958	12.3427	44.2742	-166.685	-0.152922	0.224785	-0.833852	-0.835154	-0.041511	12.3427	-0.831330	-1.196214E+11	3.470227E-13	NaN
139	1.000000	0.234099	7.3664e+06	-45589.1	955.818	-29772.4	0.000000	0.000000	6.234840	0.079250	NaN	0.000000	0.001675	0.001602	28.1298	0.046542	0.002078	22.4028	-112.905	-164.113	-0.056970	0.232797	-0.825840	-0.827142	0.079250	22.4028	-0.828494	-1.094878E+11	-7.238213E-13	NaN
139	1.000000	0.242125	7.3664e+06	-45589.1	955.818	-29772.4	0.000000	0.000000	6.242864	0.007347	NaN	0.000000	0.001634	0.001645	28.1299	0.044277	0.002034	21.7644	51.6987	-166.784	-0.006168	0.240783	-0.817814	-0.819156	0.007347	21.7644	-0.818067	-7.906756E+10	-9.292376E-14	NaN
139	1.000000	0.250084	7.3664e+06	-45589.1	955.818	-29772.4	0.000000	0.000000	6.250821	-0.042060	NaN	0.000000	0.001630	0.001586	28.1288	0.116296	0.001975	58.8959	121.869	-168.663	0.007142	0.248820	-0.809855	-0.811119	-0.042060	58.8959	-0.809320	-6.016460E+10	6.990886E-13	NaN
139	1.000000	0.258065	7.3664e+06	-45589.1	955.818	-29772.4	0.000000	0.000000	6.258800	-0.078379	NaN	0.000000	0.001648	0.001593	28.1287	0.101233	0.001866	54.254	-95.5529	-163.525	-0.084044	0.256819	-0.801874	-0.803120	-0.078379	54.254	-0.800791	-4.608863E+10	1.700618E-12	NaN
139	1.000000	0.266122	7.3664e+06	-45589.1	955.819	-29772.4	0.000000	0.000000	6.266860	-0.023456	NaN	0.000000	0.001719	0.001596	28.1288	0.091058	0.001978	46.0274	28.0268	-164.003	-0.081636	0.264770	-0.793817	-0.795170	-0.023456	46.0274	-0.793435	-3.662072E+10	6.405156E-13	NaN
139	1.000000	0.274096	7.3664e+06	-45589.1	955.818	-29772.4	0.000000	0.000000	6.274835	0.005085	NaN	0.000000	0.001716	0.001583	28.1289	0.062414	0.002001	31.1872	119.408	-170.349	0.034149	0.272809	-0.785843	-0.787130	0.005085	31.1872	-0.785965	-2.899225E+10	-1.754012E-13	NaN
139	1.000000	0.282101	7.3664e+06	-45589.1	955.819	-29772.4	0.000000	0.000000	6.282838	-0.028235	NaN	0.000000	0.001687	0.001659	28.1294	0.054096	0.001856	29.1463	-148.101	-166.172	0.056471	0.280794	-0.777838	-0.779145	-0.028235	29.1463	-0.777112	-2.197774E+10	1.284727E-12	NaN
139	1.000000	0.290121	7.3664e+06	-45589.1	955.818	-29772.4	0.000000	0.000000	6.290859	-0.008753	NaN	0.000000	0.001712	0.001653	28.1286	0.026420	0.001954	13.5192	175.563	-169.101	0.001825	0.288784	-0.769818	-0.771155	-0.008753	13.5192	-0.769332	-1.722770E+10	5.080667E-13	NaN
139	1.000000	0.298139	7.3664e+06	-45589.1	955.818	-29772.4	0.000000	0.000000	6.298876	-0.037159	NaN	0.000000	0.001693	0.001636	28.1289	0.067017	0.002112	31.7272	-82.2832	-167.246	0.000624	0.296729	-0.761801	-0.763210	-0.037159	31.7272	-0.760922	-1.323873E+10	2.806861E-12	NaN
139	1.000000	0.306141	7.3664e+06	-45589.1	955.818	-29772.4	0.000000	0.000000	6.306880	0.017773	NaN	0.000000	0.001665	0.001631	28.129	0.059744	0.001840	32.4684	173.57	-164.33	0.069018	0.304788	-0.753799	-0.755151	0.017773	32.4684	-0.754209	-1.072774E+10	-1.656754E-12	NaN
139	1.000000	0.314110	7.3664e+06	-45589.1	955.819	-29772.4	0.000000	0.000000	6.314849	0.015624	NaN	0.000000	0.001674	0.001641	28.1287	0.013716	0.002001	6.853446	-54.1342	-162.031	0.085027	0.312844	-0.745829	-0.747095	0.015624	6.853446	-0.747539	-8.703887E+9	-1.795044E-12	NaN
139	1.000000	0.322141	7.3664e+06	-45589.1	955.818	-29772.4	0.000000	0.000000	6.322881	0.042378	NaN	0.000000	0.001661	0.001597	28.1289	0.030729	0.001912	16.0756	-69.8959	-164.868	0.037819	0.320794	-0.737799	-0.739145	0.042378	16.0756	-0.739776	-6.823411E+9	-6.210747E-12	NaN
139	1.000000	0.330133	7.3664e+06	-45589.1	955.818	-29772.4	0.000000	0.000000	6.330871	-0.015568	NaN	0.000000	0.001671	0.001607	28.1279	0.019538	0.001893	10.3229	-38.811	-162.63	-0.144120	0.328821	-0.729806	-0.731118	-0.015568	10.3229	-0.728675	-4.816645E+9	3.232078E-12	NaN
139	1.000000	0.338129	7.3664e+06	-45589.1	955.818	-29772.4	0.000000	0.000000	6.338865	-0.055533	NaN	0.000000	0.001608	0.001636	28.1277	0.031698	0.001952	16.2362	-46.284	-166.38	-0.052474	0.336740	-0.721810	-0.723199	-0.055533	16.2362	-0.719245	-3.582382E+9	1.550172E-11	NaN
139	1.000000	0.346147	7.3664e+06	-45589.1	955.818	-29772.4	0.000000	0.000000	6.346884	-0.025224	NaN	0.000000	0.001597	0.001624	28.1279	0.024983	0.002076	12.032	-104.294	-163.666	-0.015560	0.344849	-0.713792	-0.715090	-0.025224	12.032	-0.712220	-2.873031E+9	8.779521E-12	NaN
139	1.000000	0.354147	7.3664e+06	-45589.1	955.819	-29772.4	0.000000	0.000000	6.354883	-0.062066	NaN	0.000000	0.001649	0.001608	28.1282	0.049229	0.001947	25.2815	-101.06	-169.3	-0.068252	0.352824	-0.705792	-0.707115	-0.062066	25.2815	-0.703951	-2.215540E+9	2.801382E-11	NaN
139	1.000000	0.362164	7.3664e+06	-45589.1	955.818	-29772.4	0.000000	0.000000	6.362904	0.037124	NaN	0.000000	0.001620	0.001604	28.1283	0.022569	0.001997	11.3016	-162.95	-167.361	0.093367	0.360822	-0.697775	-0.699117	0.037124	11.3016	-0.700238	-1.971449E+9	-1.883066E-11	NaN
139	1.000000	0.370119	7.3664e+06	-45589.1	955.819	-29772.4	0.000000	0.000000	6.370856	-0.039768	NaN	0.000000	0.001613	0.001626	28.1288	0.031410	0.001957	16.0466	95.9083	-165.985	-0.088911	0.368805	-0.689820	-0.691134	-0.039768	16.0466	-0.687961	-1.339835E+9	2.968137E-11	NaN
139	1.000000	0.378176	7.3664e+06	-45589.1	955.819	-29772.4	0.000000	0.000000	6.378912	-0.060654	NaN	0.000000	0.001635	0.001648	28.1288	0.012885	0.001929	6.678882	-160.666	-162.793	-0.009940	0.376822	-0.681763	-0.683117	-0.060654	6.678882	-0.674952	-8.895266E+8	6.818682E-11	NaN
139	1.000000	0.386138	7.3664e+06	-45589.1	955.817	-29772.4	0.000000	0.000000	6.386878	0.035260	NaN	0.000000	0.001640	0.001642	28.1291	0.068811	0.002031	33.8866	-139.953	-164.17	0.025422	0.384810	-0.673801	-0.675129	0.035260	33.8866	-0.674581	-8.791930E+8	-4.010520E-11	NaN
139	1.000000	0.394178	7.3664e+06	-45589.1	955.819	-29772.4	0.000000	0.000000	6.394919	0.071459	NaN	0.000000	0.001638	0.001650	28.1286	0.077457	0.002098	36.9264	-93.4534	-167.854	-0.018672	0.392844	-0.665762	-0.667095	0.071459	36.9264	-0.667213	-6.970127E+8	-1.025218E-10	NaN
139	1.000000	0.402139	7.3664e+06	-45589.1	955.819	-29772.4	0.000000	0.000000	6.402876	-0.042939	NaN	0.000000	0.001674	0.001631	28.1288	0.146765	0.002006	73.1626	176.511	-166.464	-0.064289	0.400807	-0.657800	-0.659132	-0.042939	73.1626	-0.657360	-5.108590E+8	8.405335E-11	NaN
139	1.000000	0.410178	7.3664e+06	-45589.1	955.819	-29772.4	0.000000	0.000000	6.410916	-0.007289	NaN	0.000000	0.001636	0.001632	28.128	0.126008	0.002099	60.0252	161.37	-163.976	-0.010155	0.408852	-0.649761	-0.651087	-0.007289	60.0252	-0.649670	-4.007895E+8	1.818725E-11	NaN
139	1.000000	0.418162	7.3664e+06	-45589.1	955.818	-29772.4	0.000000	0.000000	6.418901	0.021761	NaN	0.000000	0.001590	0.001620	28.1278	0.082816	0.002059	40.2288	26.5597	-167.407	0.031111	0.416879	-0.641778	-0.643060	0.021761	40.2288	-0.642183	-3.164044E+8	-6.877517E-11	NaN
139	1.000000	0.426164	7.3664e+06	-45589.1	955.819	-29772.4	0.000000	0.000000	6.426900	-0.042174	NaN	0.000000	0.001640	0.001644	28.1289	0.108979	0.002117	51.4699	-168.507	-168.957	-0.048585	0.424885	-0.633776	-0.635054	-0.042174	51.4699	-0.633161	-2.379181E+8	1.772632E-10	NaN
139	1.000000	0.434155	7.3664e+06	-45589.1	955.819	-29772.4	0.000000	0.000000	6.434891	-0.069057	NaN	0.000000	0.001632	0.001644	28.1294	0.164654	0.001947	84.5567	-125.088	-167.814	-0.072327	0.432801	-0.625784	-0.627138	-0.069057	84.5567	-0.625171	-1.847983E+8	3.736879E-10	NaN
139	1.000000	0.442175	7.3664e+06	-45589.1	955.819	-29772.4	0.000000	0.000000	6.442913	0.004792	NaN	0.000000	0.001591	0.001690	28.129	0.145642	0.002072	70.2808	44.8516	-165.836	-0.009099	0.440879	-0.617764	-0.619060	0.004792	70.2808	-0.617816	-1.464212E+8	-3.273005E-11	NaN
139	1.000000	0.450159	7.3664e+06	-45589.1	955.818	-29772.4	0.000000	0.000000	6.450897	-0.016610	NaN	0.000000	0.001621	0.001670	28.1301	0.011626	0.002007	5.793078	-170.005	-163.437	0.014032	0.448891	-0.609780	-0.611049	-0.016610	5.793078	-0.607630	-1.060469E+8	1.566253E-10	NaN
139	1.000000	0.458196	7.3664e+06	-45589.1	955.818	-29772.4	0.000000	0.000000	6.458933	-0.038703	NaN	0.000000	0.001587	0.001663	28.13	0.065001	0.002003	32.449	49.3717	-169.245	-0.067838	0.456893	-0.601743	-0.603046	-0.038703	32.449	-0.600849	-8.553644E+7	4.524749E-10	NaN
139	1.000000	0.466176	7.3664e+06	-45589.1	955.818	-29772.4	0.000000	0.000000	6.466913	-0.025575	NaN	0.000000	0.001617	0.001657	28.1297	0.066119	0.001938	34.1099	-149.219	-164.158	-0.047003	0.464881	-0.593763	-0.595058	-0.025575	34.1099	-0.593201	-6.711069E+7	3.810888E-10	NaN
139	1.000000	0.474209	7.3664e+06	-45589.1	955.818	-29772.4	0.000000	0.000000	6.474947	-0.013228	NaN	0.000000	0.001665	0.001637	28.1303	0.036232	0.001896	19.1097	-13.8348	-164.847	-0.027515	0.472854	-0.585730	-0.587085	-0.013228	19.1097	-0.585211	-5.207393E+7	2.540290E-10	NaN
139	1.000000	0.482198	7.3664e+06	-45589.1	955.818	-29772.4	0.000000	0.000000	6.482935	-0.022232	NaN	0.000000	0.001635	0.001624	28.13	0.092742	0.001978	46.8954	175.705	-161.262	-0.061876	0.480894	-0.577741	-0.579046	-0.022232	46.8954	-0.577386	-4.061072E+7	5.474438E-10	NaN
139	1.000000	0.490196	7.3664e+06	-45589.1	955.819	-29772.4	0.000000	0.000000	6.490933	-0.036573	NaN	0.000000	0.001618	0.001642	28.1295	0.035008	0.002011	17.4092	-105.358	-163.704	-0.127690	0.488851	-0.569743	-0.571089	-0.036573	17.4092	-0.568167	-3.029067E+7	1.207399E-9	NaN
139	1.000000	0.498205	7.3664e+06	-45589.1	955.819	-29772.4	0.000000	0.000000	6.498944	0.018593	NaN	0.000000	0.001604	0.001683	28.129	0.131434	0.002026	64.8791	-130.949	-164.567	0.015530	0.496911	-0.561735	-0.563028	0.018593	64.8791	-0.561949	-2.485095E+7	-7.481998E-10	NaN
139	1.000000	0.506188	7.3664e+06	-45589.1	955.818	-29772.4	0.000000	0.000000	6.506927	0.017266	NaN	0.000000	0.001646	0.001651	28.1291	0.086687	0.001914	45.2939	49.661	-167.726	0.051955	0.504845	-0.553751	-0.555094	0.017266	45.2939	-0.554037	-1.931323E+7	-8.939763E-10	NaN
139	1.000000	0.514191	7.3664e+06	-45589.1	955.819	-29772.4	0.000000	0.000000	6.514930	0.013281	NaN	0.000000	0.001632	0.001627	28.1291	0.093690	0.001932	48.482	-166.975	-164.878	0.035381	0.512898	-0.545748	-0.547041	0.013281	48.482	-0.545954	-1.492444E+7	-8.898761E-10	NaN
139	1.000000	0.522211	7.3664e+06	-45589.1	955.818	-29772.4	0.000000	0.000000	6.522947	-0.069224	NaN	0.000000	0.001616	0.001661	28.1289	0.070653	0.001985	35.6003	86.9174	-166.178	-0.049678	0.520862	-0.537728	-0.539077	-0.069224	35.6003	-0.536269	-1.095484E+7	6.319015E-9	NaN
139	1.000000	0.530204	7.3664e+06	-45589.1	955.818	-29772.4	0.000000	0.000000	6.530940	-0.041812	NaN	0.000000	0.001617	0.001594	28.1302	0.089727	0.002009	44.6674	38.5711	-163.762	-0.059086	0.528917	-0.529736	-0.531022	-0.041812	44.6674	-0.529033	-8.69263e+06	4.810094E-9	NaN
139	1.000000	0.538212	7.3664e+06	-45589.1	955.818	-29772.4	0.000000	0.000000	6.538951	0.012883	NaN	0.000000	0.001579	0.001630	28.13	0.102183	0.002012	50.7849	22.066	-165.452	-0.030742	0.536907	-0.521727	-0.523032	0.012883	50.7849	-0.521917	-6.92245e+06	-1.861074E-9	NaN
139	1.000000	0.546217	7.3664e+06	-45589.1	955.819	-29772.4	0.000000	0.000000	6.546956	0.015583	NaN	0.000000	0.001594	0.001617	28.1304	0.048320	0.002133	22.6505	-152.292	-166.075	0.006863	0.544909	-0.513722	-0.515030	0.015583	22.6505	-0.514238	-5.41286e+06	-2.878938E-9	NaN
139	1.000000	0.554226	7.3664e+06	-45589.1	955.819	-29772.4	0.000000	0.000000	6.554964	-0.016353	NaN	0.000000	0.001589	0.001625	28.1303	0.060519	0.002153	28.1063	36.1576	-163.984	-0.014307	0.552931	-0.505713	-0.507008	-0.016353	28.1063	-0.505276	-4.06067e+06	4.027179E-9	NaN
139	1.000000	0.562249	7.3664e+06	-45589.1	955.818	-29772.4	0.000000	0.000000	6.562986	-0.030727	NaN	0.000000	0.001593	0.001630	28.129	0.054458	0.001968	27.6748	56.0203	-164.667	-0.050844	0.560915	-0.497690	-0.499024	-0.030727	27.6748	-0.496858	-3.09862e+06	9.916215E-9	NaN
139	1.000000	0.570226	7.3664e+06	-45589.1	955.819	-29772.4	0.000000	0.000000	6.570962	-0.051250	NaN	0.000000	0.001603	0.001636	28.128	0.063325	0.001990	31.8288	-75.3347	-166.349	-0.008458	0.568957	-0.489714	-0.490982	-0.051250	31.8288	-0.488506	-2.36871e+06	2.163638E-8	NaN
139	1.000000	0.578234	7.3664e+06	-45589.1	955.818	-29772.4	0.000000	0.000000	6.578972	-0.015956	NaN	0.000000	0.001616	0.001593	28.1282	0.068460	0.001996	34.297	85.4787	-168.747	-0.047621	0.576945	-0.481705	-0.482994	-0.015956	34.297	-0.481356	-1.88151e+06	8.480368E-9	NaN
139	1.000000	0.586241	7.3664e+06	-45589.1	955.819	-29772.4	0.000000	0.000000	6.586981	0.044504	NaN	0.000000	0.001637	0.001609	28.1281	0.132790	0.001922	69.1018	176.69	-166.073	-0.051568	0.584957	-0.473698	-0.474983	0.044504	69.1018	-0.474181	-1.49287e+06	-2.981126E-8	NaN
139	1.000000	0.594258	7.3664e+06	-45589.1	955.819	-29772.4	0.000000	0.000000	6.594997	0.014433	NaN	0.000000	0.001617	0.001613	28.1279	0.047851	0.001932	24.7623	-85.3456	-166.925	-0.010586	0.592944	-0.465681	-0.466995	0.014433	24.7623	-0.466118	-1.15065e+06	-1.254298E-8	NaN
139	1.000000	0.602234	7.3664e+06	-45589.1	955.819	-29772.4	0.000000	0.000000	6.602972	-0.003206	NaN	0.000000	0.001627	0.001620	28.1281	0.059905	0.001915	31.2767	73.8868	-168.487	-0.058820	0.600952	-0.457705	-0.458987	-0.003206	31.2767	-0.457628	-874345	3.666930E-9	NaN
139	1.000000	0.610248	7.3664e+06	-45589.1	955.819	-29772.4	0.000000	0.000000	6.610983	-0.072873	NaN	0.000000	0.001639	0.001606	28.1293	0.018000	0.001979	9.096229	43.9213	-168.27	-0.037762	0.608967	-0.449691	-0.450972	-0.072873	9.096229	-0.443683	-556318	1.309910E-7	NaN
139	1.000000	0.618252	7.3664e+06	-45589.1	955.818	-29772.4	0.000000	0.000000	6.618990	-0.018088	NaN	0.000000	0.001653	0.001597	28.1294	0.100953	0.002079	48.5493	89.4944	-166.618	-0.011713	0.616963	-0.441687	-0.442976	-0.018088	48.5493	-0.441407	-516682	3.500759E-8	NaN
139	1.000000	0.626282	7.3664e+06	-45589.1	955.818	-29772.4	0.000000	0.000000	6.627019	-0.021264	NaN	0.000000	0.001608	0.001612	28.1294	0.129661	0.001930	67.1968	26.235	-166.553	0.011706	0.624985	-0.433658	-0.434954	-0.021264	67.1968	-0.433420	-398499	5.336058E-8	NaN
139	1.000000	0.634237	7.3664e+06	-45589.1	955.818	-29772.4	0.000000	0.000000	6.634976	0.029146	NaN	0.000000	0.001589	0.001637	28.1294	0.049101	0.002000	24.552	37.968	-165.029	-0.012907	0.632956	-0.425702	-0.426983	0.029146	24.552	-0.426593	-319036	-9.135560E-8	NaN
139	1.000000	0.642255	7.3664e+06	-45589.1	955.818	-29772.4	0.000000	0.000000	6.642993	-0.024407	NaN	0.000000	0.001621	0.001589	28.1293	0.082580	0.002006	41.1754	-35.8899	-165.303	-0.015503	0.640929	-0.417684	-0.419010	-0.024407	41.1754	-0.417239	-235097	1.038176E-7	NaN
139	1.000000	0.650256	7.3664e+06	-45589.1	955.818	-29772.4	0.000000	0.000000	6.650997	0.056355	NaN	0.000000	0.001622	0.001623	28.1283	0.044817	0.001983	22.6045	-55.1585	-165.789	0.022829	0.648908	-0.409683	-0.411031	0.056355	22.6045	-0.411553	-195198	-2.887056E-7	NaN
139	1.000000	0.658279	7.3664e+06	-45589.1	955.818	-29772.4	0.000000	0.000000	6.659015	-0.061658	NaN	0.000000	0.001608	0.001609	28.1287	0.040368	0.001900	21.2487	-39.5034	-169.503	-0.023664	0.656991	-0.401660	-0.402948	-0.061658	21.2487	-0.399484	-131412	4.691968E-7	NaN
139	1.000000	0.666272	7.3664e+06	-45589.1	955.818	-29772.4	0.000000	0.000000	6.667010	-0.017304	NaN	0.000000	0.001619	0.001625	28.128	0.080528	0.001997	40.3152	-151.269	-163.16	-0.039242	0.665005	-0.393667	-0.394935	-0.017304	40.3152	-0.393345	-107398	1.611247E-7	NaN
139	1.000000	0.674261	7.3664e+06	-45589.1	955.818	-29772.4	0.000000	0.000000	6.675001	0.033654	NaN	0.000000	0.001623	0.001619	28.128	0.116062	0.001926	60.262	162.902	-163.536	0.021060	0.672979	-0.385678	-0.386961	0.033654	60.262	-0.386097	-84586.1	-3.978722E-7	NaN
139	1.000000	0.682269	7.3664e+06	-45589.1	955.818	-29772.4	0.000000	0.000000	6.683007	-0.030053	NaN	0.000000	0.001644	0.001617	28.1285	0.075067	0.001986	37.8035	135.238	-165.59	-0.023851	0.681002	-0.377670	-0.378937	-0.030053	37.8035	-0.377074	-62787	4.786430E-7	NaN
139	1.000000	0.690313	7.3664e+06	-45589.1	955.819	-29772.4	0.000000	0.000000	6.691050	-0.022531	NaN	0.000000	0.001619	0.001628	28.1294	0.056637	0.002039	27.7713	36.0584	-165.144	-0.022000	0.688984	-0.369627	-0.370955	-0.022531	27.7713	-0.369018	-48082.1	4.685903E-7	NaN
139	1.000000	0.698320	7.3664e+06	-45589.1	955.818	-29772.4	0.000000	0.000000	6.699056	-0.051558	NaN	0.000000	0.001594	0.001650	28.1308	0.060519	0.002011	30.0978	-109.426	-164.197	-0.036800	0.696957	-0.361619	-0.362982	-0.051558	30.0978	-0.360334	-36031.1	1.430940E-6	NaN
139	1.000000	0.706301	7.3664e+06	-45589.1	955.818	-29772.4	0.000000	0.000000	6.707038	-0.041197	NaN	0.000000	0.001615	0.001620	28.1303	0.137100	0.002017	67.9585	-93.1607	-164.255	-0.015289	0.704971	-0.353638	-0.354968	-0.041197	67.9585	-0.353183	-28390.7	1.451083E-6	NaN
139	1.000000	0.714260	7.3664e+06	-45589.1	955.819	-29772.4	0.000000	0.000000	6.714996	-0.055830	NaN	0.000000	0.001603	0.001647	28.1306	0.092375	0.002067	44.6843	-128.34	-164.661	-0.045916	0.713000	-0.345679	-0.346939	-0.055830	44.6843	-0.344742	-21409.4	2.607717E-6	NaN
139	1.000000	0.722293	7.3664e+06	-45589.1	955.819	-29772.4	0.000000	0.000000	6.723032	0.009845	NaN	0.000000	0.001622	0.001614	28.131	0.090817	0.001973	46.0233	125.869	-165.222	-0.063433	0.720957	-0.337646	-0.338982	0.009845	46.0233	-0.337807	-16965.6	-5.803029E-7	NaN
139	1.000000	0.730294	7.3664e+06	-45589.1	955.819	-29772.4	0.000000	0.000000	6.731036	0.077091	NaN	0.000000	0.001636	0.001606	28.1295	0.101958	0.002093	48.7239	3.738479	-165.033	0.025148	0.728972	-0.329645	-0.330968	0.077091	48.7239	-0.330832	-13416.2	-5.746112E-6	NaN
139	1.000000	0.738329	7.3664e+06	-45589.1	955.819	-29772.4	0.000000	0.000000	6.739067	-0.021368	NaN	0.000000	0.001628	0.001628	28.1296	0.074096	0.002042	36.2813	160.657	-166.519	0.010635	0.737022	-0.321610	-0.322918	-0.021368	36.2813	-0.321168	-9678.96	2.207674E-6	NaN
139	1.000000	0.746290	7.3664e+06	-45589.1	955.818	-29772.4	0.000000	0.000000	6.747026	-0.046643	NaN	0.000000	0.001612	0.001639	28.1291	0.081056	0.001841	44.0387	-0.019493	-166.014	0.011569	0.744944	-0.313649	-0.314995	-0.046643	44.0387	-0.312855	-7299.14	6.390184E-6	NaN
139	1.000000	0.754315	7.3664e+06	-45589.1	955.818	-29772.4	0.000000	0.000000	6.755051	-0.044270	NaN	0.000000	0.001593	0.001625	28.1295	0.059225	0.001955	30.2995	143.794	-167.503	-0.061243	0.752968	-0.305624	-0.306971	-0.044270	30.2995	-0.304529	-5494.88	8.056634E-6	NaN
139	1.000000	0.762310	7.3664e+06	-45589.1	955.818	-29772.4	0.000000	0.000000	6.763046	-0.049832	NaN	0.000000	0.001615	0.001605	28.13	0.048128	0.002016	23.8705	-24.7538	-169.981	-0.023752	0.760995	-0.297629	-0.298944	-0.049832	23.8705	-0.296063	-4111.15	1.212116E-5	NaN
139	1.000000	0.770293	7.3664e+06	-45589.1	955.818	-29772.4	0.000000	0.000000	6.771031	-0.021068	NaN	0.000000	0.001632	0.001637	28.1307	0.072086	0.001980	36.4157	20.4096	-165.019	-0.056323	0.769033	-0.289646	-0.290906	-0.021068	36.4157	-0.289212	-3247.12	6.488248E-6	NaN
139	1.000000	0.778325	7.3664e+06	-45589.1	955.818	-29772.4	0.000000	0.000000	6.779064	0.018541	NaN	0.000000	0.001580	0.001634	28.1306	0.086760	0.002059	42.1408	150.249	-165.746	0.030094	0.777039	-0.281614	-0.282901	0.018541	42.1408	-0.281944	-2525.1	-7.342841E-6	NaN
139	1.000000	0.786298	7.3664e+06	-45589.1	955.818	-29772.4	0.000000	0.000000	6.787034	-0.054074	NaN	0.000000	0.001665	0.001612	28.1308	0.057347	0.001878	30.5297	76.9118	-168.351	-0.064547	0.785010	-0.273641	-0.274929	-0.054074	30.5297	-0.272313	-1805.79	2.994457E-5	NaN
139	1.000000	0.794308	7.3664e+06	-45589.1	955.819	-29772.4	0.000000	0.000000	6.795044	-0.063051	NaN	0.000000	0.001615	0.001636	28.131	0.100265	0.001916	52.3366	141.839	-166.609	-0.073376	0.793011	-0.265631	-0.266928	-0.063051	52.3366	-0.264728	-1384.3	4.554741E-5	NaN
139	1.000000	0.802313	7.3664e+06	-45589.1	955.818	-29772.4	0.000000	0.000000	6.803052	0.005297	NaN	0.000000	0.001626	0.001639	28.1311	0.100181	0.002053	48.7873	-59.5666	-165.988	-0.008632	0.801059	-0.257626	-0.258880	0.005297	48.7873	-0.257707	-1080.79	-4.900680E-6	NaN
139	1.000000	0.810326	7.3664e+06	-45589.1	955.818	-29772.4	0.000000	0.000000	6.811063	-0.031883	NaN	0.000000	0.001622	0.001639	28.1293	0.017669	0.002028	8.713498	-26.5607	-165.334	-0.005687	0.809025	-0.249613	-0.250914	-0.031883	8.713498	-0.246869	-735.307	4.336015E-5	NaN
139	1.000000	0.818327	7.3664e+06	-45589.1	955.818	-29772.4	0.000000	0.000000	6.819064	-0.032785	NaN	0.000000	0.001601	0.001645	28.1297	0.074798	0.002022	36.9836	54.4857	-167.046	-0.058426	0.817032	-0.241612	-0.242907	-0.032785	36.9836	-0.240947	-594.755	5.512280E-5	NaN
139	1.000000	0.826348	7.3664e+06	-45589.1	955.818	-29772.4	0.000000	0.000000	6.827086	-0.010053	NaN	0.000000	0.001591	0.001633	28.131	0.043037	0.002136	20.1448	105.258	-166.288	0.006033	0.825030	-0.233591	-0.234909	-0.010053	20.1448	-0.233217	-450.008	2.233853E-5	NaN
139	1.000000	0.834320	7.3664e+06	-45589.1	955.818	-29772.4	0.000000	0.000000	6.835057	-0.032533	NaN	0.000000	0.001599	0.001628	28.1287	0.107007	0.002021	52.9442	-17.9763	-167	-0.025683	0.833051	-0.225619	-0.226888	-0.032533	52.9442	-0.225159	-335.625	9.693226E-5	NaN
139	1.000000	0.842351	7.3664e+06	-45589.1	955.818	-29772.4	0.000000	0.000000	6.843088	-0.033617	NaN	0.000000	0.001562	0.001657	28.1285	0.025434	0.001873	13.5778	-108.079	-165.34	-0.040223	0.841076	-0.217589	-0.218863	-0.033617	13.5778	-0.215732	-237.288	0.000142	NaN
139	1.000000	0.850376	7.3664e+06	-45589.1	955.819	-29772.4	0.000000	0.000000	6.851115	0.017794	NaN	0.000000	0.001593	0.001635	28.1296	0.041543	0.001986	20.9228	26.4105	-167.091	0.031099	0.849046	-0.209563	-0.210893	0.017794	20.9228	-0.210201	-193.23	-9.208706E-5	NaN
139	1.000000	0.858332	7.3664e+06	-45589.1	955.818	-29772.4	0.000000	0.000000	6.859067	-0.087647	NaN	0.000000	0.001593	0.001587	28.1297	0.006156	0.002062	2.985506	-174.95	-166.331	0.016724	0.857002	-0.201607	-0.202937	-0.087647	2.985506	-0.179589	-60.0435	0.001460	NaN
139	1.000000	0.866360	7.3664e+06	-45589.1	955.818	-29772.4	0.000000	0.000000	6.867096	-0.064334	NaN	0.000000	0.001624	0.001614	28.1298	0.019267	0.001985	9.704051	114.972	-166.362	-0.011378	0.865060	-0.193579	-0.194879	-0.064334	9.704051	-0.188607	-85.2564	0.000755	NaN
139	1.000000	0.874344	7.3664e+06	-45589.1	955.819	-29772.4	0.000000	0.000000	6.875080	-0.052683	NaN	0.000000	0.001582	0.001626	28.1297	0.031559	0.002004	15.7494	-75.6115	-168.094	0.003220	0.873014	-0.185596	-0.186925	-0.052683	15.7494	-0.183087	-68.8381	0.000765	NaN
139	1.000000	0.882367	7.3664e+06	-45589.1	955.818	-29772.4	0.000000	0.000000	6.883104	-0.016628	NaN	0.000000	0.001616	0.001605	28.1297	0.019124	0.002082	9.185705	-23.9691	-164.41	-0.060318	0.881049	-0.177572	-0.178890	-0.016628	9.185705	-0.176215	-52.581	0.000316	NaN
139	1.000000	0.890379	7.3664e+06	-45589.1	955.819	-29772.4	0.000000	0.000000	6.891116	-0.041743	NaN	0.000000	0.001595	0.001665	28.1284	0.031673	0.002116	14.9651	36.4949	-165.108	-0.046032	0.889070	-0.169560	-0.170869	-0.041743	14.9651	-0.167468	-37.1122	0.001125	NaN
139	1.000000	0.898359	7.3664e+06	-45589.1	955.818	-29772.4	0.000000	0.000000	6.899095	-0.042022	NaN	0.000000	0.001659	0.001654	28.1289	0.049702	0.002107	23.59	19.4396	-169.386	0.020499	0.897051	-0.161580	-0.162888	-0.042022	23.59	-0.160244	-27.6903	0.001518	NaN
139	1.000000	0.906358	7.3664e+06	-45589.1	955.819	-29772.4	0.000000	0.000000	6.907096	0.002115	NaN	0.000000	0.001627	0.001663	28.1291	0.055523	0.002033	27.3051	107.495	-168.811	0.009411	0.905065	-0.153581	-0.154874	0.002115	27.3051	-0.153639	-21.0888	-0.000100	NaN
139	1.000000	0.914392	7.3664e+06	-45589.1	955.818	-29772.4	0.000000	0.000000	6.915130	-0.009061	NaN	0.000000	0.001633	0.001641	28.1284	0.039167	0.002061	19.0073	179.718	-163.991	0.024052	0.913127	-0.145547	-0.146812	-0.009061	19.0073	-0.145189	-14.7798	0.000613	NaN
139	1.000000	0.922354	7.3664e+06	-45589.1	955.818	-29772.4	0.000000	0.000000	6.923090	-0.053446	NaN	0.000000	0.001625	0.001608	28.1286	0.051088	0.002027	25.1984	-173.599	-168.146	-0.029238	0.921090	-0.137585	-0.138849	-0.053446	25.1984	-0.135994	-9.936649	0.005379	NaN
139	1.000000	0.930375	7.3664e+06	-45589.1	955.818	-29772.4	0.000000	0.000000	6.931112	-0.042614	NaN	0.000000	0.001632	0.001582	28.1298	0.078501	0.001976	39.7267	99.9784	-164.174	0.022696	0.929026	-0.129564	-0.130913	-0.042614	39.7267	-0.128759	-7.208667	0.005912	NaN
139	1.000000	0.938403	7.3664e+06	-45589.1	955.82	-29772.4	0.000000	0.000000	6.939140	-0.040537	NaN	0.000000	0.001638	0.001605	28.1302	0.061274	0.002054	29.8276	-143.716	-164.674	-0.002664	0.937056	-0.121536	-0.122883	-0.040537	29.8276	-0.120517	-4.948789	0.008191	NaN
139	1.000000	0.946374	7.3664e+06	-45589.1	955.818	-29772.4	0.000000	0.000000	6.947111	-0.047946	NaN	0.000000	0.001630	0.001648	28.1298	0.019425	0.001977	9.825814	-83.3524	-165.274	-0.092353	0.945065	-0.113565	-0.114874	-0.047946	9.825814	-0.109905	-2.991431	0.016028	NaN
139	1.000000	0.954355	7.3664e+06	-45589.1	955.819	-29772.4	0.000000	0.000000	6.955091	-0.057319	NaN	0.000000	0.001641	0.001654	28.1295	0.107241	0.001988	53.9389	-17.3206	-164.393	0.010872	0.953008	-0.105584	-0.106931	-0.057319	53.9389	-0.104787	-2.325831	0.024644	NaN
139	1.000000	0.962409	7.3664e+06	-45589.1	955.818	-29772.4	0.000000	0.000000	6.963148	0.009134	NaN	0.000000	0.001622	0.001602	28.1297	0.067339	0.001943	34.6506	24.1292	-167.648	0.057326	0.961101	-0.097530	-0.098838	0.009134	34.6506	-0.097728	-1.625907	-0.005618	NaN
139	1.000000	0.970393	7.3664e+06	-45589.1	955.817	-29772.4	0.000000	0.000000	6.971130	-0.034861	NaN	0.000000	0.001632	0.001589	28.1294	0.042500	0.001938	21.9304	109.527	-167.595	-0.077076	0.969065	-0.089546	-0.090874	-0.034861	21.9304	-0.088354	-0.988549	0.035265	NaN
139	1.000000	0.978409	7.3664e+06	-45589.1	955.817	-29772.4	0.000000	0.000000	6.979145	-0.058538	NaN	0.000000	0.001630	0.001604	28.1297	0.053795	0.001938	27.7629	-49.0769	-166.28	-0.051446	0.977096	-0.081530	-0.082843	-0.058538	27.7629	-0.079949	-0.617168	0.094850	NaN
139	1.000000	0.986411	7.3664e+06	-45589.1	955.818	-29772.4	0.000000	0.000000	6.987148	-0.027080	NaN	0.000000	0.001653	0.001623	28.1295	0.134204	0.002058	65.2139	14.1403	-166.529	-0.107125	0.985070	-0.073528	-0.074869	-0.027080	65.2139	-0.073217	-0.415054	0.065243	NaN
139	1.000000	0.994427	7.3664e+06	-45589.1	955.817	-29772.4	0.000000	0.000000	6.995164	-0.031311	NaN	0.000000	0.001618	0.001596	28.1298	0.160301	0.002081	77.048	-11.6215	-165.318	-0.003205	0.993091	-0.065512	-0.066848	-0.031311	77.048	-0.065208	-0.252540	0.123982	NaN
139	1.000000	1.002432	7.3664e+06	-45589.1	955.817	-29772.4	0.000000	0.000000	7.003170	-0.018426	NaN	0.000000	0.001642	0.001569	28.1298	0.004784	0.002013	2.376455	-162.878	-165.451	-0.044150	1.001080	-0.057507	-0.058859	-0.018426	2.376455	-0.051692	-0.102619	0.179557	NaN
139	1.000000	1.010447	7.3664e+06	-45589.1	955.817	-29772.4	0.000000	0.000000	7.011181	-0.102242	NaN	0.000000	0.001641	0.001564	28.1308	0.079129	0.001984	39.8866	72.6747	-167.778	-0.059626	1.009112	-0.049492	-0.050827	-0.102242	39.8866	-0.047570	-0.076994	1.327913	NaN
139	1.000000	1.018411	7.3664e+06	-45589.1	955.818	-29772.4	0.000000	0.000000	7.019196	1.121535	NaN	0.000000	0.001690	0.001592	28.1309	0.815419	0.001899	429.287	12.5393	-165.216	0.804139	1.017064	-0.041528	-0.042875	1.121535	429.287	-0.043488	-0.057775	-19.4123	NaN
139	1.000000	1.026417	7.3664e+06	-45589.1	955.818	-29772.4	0.000000	0.000000	7.027305	3.643602	NaN	0.000000	0.001669	0.001598	28.1307	1.519893	0.002023	751.367	13.1736	-167.203	3.190096	1.025068	-0.033523	-0.034871	3.643602	751.367	-0.037160	-0.037122	-98.1512	NaN
139	1.000000	1.034436	7.3664e+06	-45589.1	955.818	-29772.4	0.000000	0.000000	7.035455	6.807786	NaN	0.000000	0.001692	0.001654	28.1312	1.859441	0.001942	957.525	8.443723	-167.58	6.347276	1.033073	-0.025503	-0.026866	6.807786	957.525	-0.030835	-0.024286	-280.312	NaN
139	2.000000	1.041883	7.3664e+06	-45589.1	955.817	-29772.4	0.000000	0.000000	7.043010	9.451785	NaN	0.000000	0.001723	0.001646	28.1306	2.141618	0.001838	1165.35	12.0328	-169.208	9.428405	1.041058	-0.018056	-0.018881	9.451785	1165.35	-0.024139	-0.016023	-589.905	NaN
139	2.000000	1.044052	7.3664e+06	-45589.1	955.818	-29772.4	0.000000	0.000000	7.045192	9.763760	NaN	0.000000	0.001715	0.001641	28.1297	2.298478	0.002002	1148.04	10.3548	-169.879	9.839566	1.043727	-0.015887	-0.016212	9.763760	1148.04	-0.022266	-0.014343	-680.74	NaN
139	2.000000	1.045986	7.3664e+06	-45589.1	955.818	-29772.4	0.000000	0.000000	7.047156	10.5094	NaN	0.000000	0.001704	0.001619	28.1296	2.520797	0.002007	1255.89	4.692123	-166.936	10.4341	1.045658	-0.013953	-0.014281	10.5094	1255.89	-0.020229	-0.012731	-825.508	NaN
139	2.000000	1.047948	7.3664e+06	-45589.1	955.818	-29772.4	0.000000	0.000000	7.049138	10.9779	NaN	0.000000	0.001724	0.001644	28.1297	2.513835	0.001958	1283.64	6.647483	-166.837	10.9087	1.047713	-0.011991	-0.012226	10.9779	1283.64	-0.018405	-0.011435	-960.013	NaN
139	2.000000	1.049949	7.3664e+06	-45589.1	955.818	-29772.4	0.000000	0.000000	7.051166	11.6454	NaN	0.000000	0.001691	0.001637	28.13	2.658443	0.002082	1276.8	10.3142	-170.81	11.5702	1.049647	-0.009990	-0.010293	11.6454	1276.8	-0.016831	-0.010403	-1119.45	NaN
139	2.000000	1.051972	7.3664e+06	-45589.1	955.818	-29772.4	0.000000	0.000000	7.053212	12.1936	NaN	0.000000	0.001682	0.001650	28.1296	2.725666	0.002148	1268.82	10.6651	-169.352	12.2564	1.051658	-0.007967	-0.008281	12.1936	1268.82	-0.015174	-0.009380	-1299.93	NaN
139	2.000000	1.053943	7.3664e+06	-45589.1	955.819	-29772.4	0.000000	0.000000	7.055199	12.608	NaN	0.000000	0.001703	0.001640	28.1311	2.615852	0.001995	1310.99	7.610869	-166.76	12.5932	1.053623	-0.005997	-0.006316	12.608	1310.99	-0.013209	-0.008223	-1533.21	NaN
139	2.000000	1.055925	7.3664e+06	-45589.1	955.819	-29772.4	0.000000	0.000000	7.057190	12.8162	NaN	0.000000	0.001717	0.001658	28.1306	2.559883	0.001806	1417.1	7.598036	-166.854	12.6729	1.055568	-0.004014	-0.004372	12.8162	1417.1	-0.010797	-0.006842	-1873.07	NaN
139	2.000000	1.057945	7.3664e+06	-45589.1	955.818	-29772.4	0.000000	0.000000	7.059216	12.9733	NaN	0.000000	0.001698	0.001658	28.1302	2.738791	0.002019	1356.4	7.781589	-165.991	13.0053	1.057617	-0.001994	-0.002322	12.9733	1356.4	-0.009168	-0.005910	-2195.23	NaN
139	2.000000	1.059917	7.3664e+06	-45589.1	955.819	-29772.4	0.000000	0.000000	7.061192	13.0615	NaN	0.000000	0.001682	0.001639	28.1298	2.915426	0.002007	1452.79	5.642787	-166.848	13.0023	1.059585	-2.233289E-5	-0.000355	13.0615	1452.79	-0.006765	-0.004500	-2902.62	NaN
139	2.000000	1.061903	7.3664e+06	-45589.1	955.819	-29772.4	0.000000	0.000000	7.063184	13.1822	NaN	0.000000	0.001688	0.001628	28.1298	2.942548	0.002071	1420.61	8.820983	-167.607	13.2237	1.061629	0.001964	0.001690	13.1822	1420.61	-0.004995	-0.003414	-3861.59	NaN
139	2.000000	1.063913	7.3664e+06	-45589.1	955.818	-29772.4	0.000000	0.000000	7.065209	13.5655	NaN	0.000000	0.001648	0.001613	28.129	3.154240	0.001995	1581.38	9.375517	-168.597	13.5414	1.063592	0.003974	0.003653	13.5655	1581.38	-0.002460	-0.001756	-7727.32	NaN
139	2.000000	1.065896	7.3664e+06	-45589.1	955.818	-29772.4	0.000000	0.000000	7.067197	13.6756	NaN	0.000000	0.001638	0.001580	28.1286	3.281251	0.001975	1661.25	12.8074	-172.432	13.6414	1.065630	0.005957	0.005691	13.6756	1661.25	-0.000217	-0.000162	-84598.4	NaN
139	2.000000	1.067901	7.3664e+06	-45589.1	955.819	-29772.4	0.000000	0.000000	7.069131	11.9643	NaN	0.000000	0.001657	0.001599	28.1285	3.277262	0.001961	1671.22	13.6948	-172.631	12.1744	1.067635	0.007962	0.007695	11.9643	1671.22	0.002592	0.002040	5865.93	33808.9
139	2.000000	1.069924	7.3664e+06	-45589.1	955.818	-29772.4	0.000000	0.000000	7.071143	11.6866	NaN	0.000000	0.001642	0.001592	28.1293	3.402589	0.002051	1659.04	11.1906	-172.091	11.6937	1.069580	0.009985	0.009641	11.6866	1659.04	0.004702	0.003863	3025.09	24386.8
139	2.000000	1.071898	7.3664e+06	-45589.1	955.819	-29772.4	0.000000	0.000000	7.073134	12.1025	NaN	0.000000	0.001603	0.001597	28.1285	3.518219	0.001941	1812.49	8.661894	-167.849	12.0103	1.071616	0.011959	0.011677	12.1025	1812.49	0.006951	0.005986	2021.93	21404
139	2.000000	1.073894	7.3664e+06	-45589.1	955.818	-29772.4	0.000000	0.000000	7.075185	13.4416	NaN	0.000000	0.001632	0.001631	28.1301	4.627321	0.001859	2489.07	7.277220	-168.4	13.0976	1.073564	0.013955	0.013625	13.4416	2489.07	0.009905	0.009076	1480.96	23870.3
139	2.000000	1.075875	7.3664e+06	-45589.1	955.819	-29772.4	0.000000	0.000000	7.077236	15.1541	NaN	0.000000	0.001612	0.001630	28.1301	6.708680	0.001837	3651.37	7.319689	-171.794	14.8894	1.075505	0.015935	0.015565	15.1541	3651.37	0.012823	0.012491	1213.24	29849.5
139	2.000000	1.077945	7.3664e+06	-45589.1	955.818	-29772.4	0.000000	0.000000	7.079363	16.5157	NaN	0.000000	0.001614	0.001632	28.1296	8.120626	0.001896	4283.22	6.763491	-170.351	16.3832	1.077603	0.018006	0.017664	16.5157	4283.22	0.015114	0.015438	1069.82	31495.6
139	2.000000	1.079874	7.3664e+06	-45589.1	955.818	-29772.4	0.000000	0.000000	7.081407	19.3179	NaN	0.000000	0.001617	0.001616	28.13	10.6925	0.001783	5995.47	7.812170	-174.24	18.8209	1.079550	0.019935	0.019611	19.3179	5995.47	0.017519	0.018792	1027.99	39958.6
139	2.000000	1.081893	7.3664e+06	-45589.1	955.818	-29772.4	0.000000	0.000000	7.083588	23.2708	NaN	0.000000	0.001595	0.001643	28.1296	13.4202	0.001931	6951.34	6.079033	-171.799	22.8833	1.081541	0.021954	0.021602	23.2708	6951.34	0.019443	0.021675	1073.65	43138.7
139	2.000000	1.083861	7.3664e+06	-45589.1	955.818	-29772.4	0.000000	0.000000	7.085722	27.302	NaN	0.000000	0.001609	0.001608	28.1285	15.5491	0.001657	9384.99	6.472659	-176.196	27.4395	1.083596	0.023922	0.023657	27.302	9384.99	0.021740	0.025351	1076.95	53852.6
139	2.000000	1.085875	7.3664e+06	-45589.1	955.818	-29772.4	0.000000	0.000000	7.087893	31.1419	NaN	0.000000	0.001623	0.001653	28.129	17.7484	0.001565	11342.1	6.903055	-179.735	30.1431	1.085519	0.025935	0.025580	31.1419	11342.1	0.023876	0.029003	1073.75	60847.8
139	2.000000	1.087895	7.3664e+06	-45589.1	955.818	-29772.4	0.000000	0.000000	7.090110	35.9137	NaN	0.000000	0.001655	0.001651	28.1288	21.4352	0.001820	11779.4	9.158822	178.625	34.7153	1.087586	0.027956	0.027647	35.9137	11779.4	0.025670	0.032245	1113.77	59932.8
139	2.000000	1.089868	7.3664e+06	-45589.1	955.818	-29772.4	0.000000	0.000000	7.092221	39.2751	NaN	0.000000	0.001625	0.001662	28.1286	22.7837	0.001719	13250.6	5.359275	-178.532	37.4023	1.089468	0.029929	0.029528	39.2751	13250.6	0.027706	0.036122	1087.28	63697.2
139	2.000000	1.091874	7.3664e+06	-45589.1	955.819	-29772.4	0.000000	0.000000	7.094388	43.1972	NaN	0.000000	0.001636	0.001687	28.1295	26.4434	0.001989	13297.5	9.554916	179.165	42.8216	1.091580	0.031935	0.031641	43.1972	13297.5	0.029499	0.039711	1087.79	60966.2
139	2.000000	1.093847	7.3664e+06	-45589.1	955.819	-29772.4	0.000000	0.000000	7.096621	49.5193	NaN	0.000000	0.001619	0.001625	28.1309	27.2862	0.001838	14847.7	7.699242	179.281	49.1628	1.093545	0.033908	0.033606	49.5193	14847.7	0.031406	0.043709	1132.92	64884.9
139	2.000000	1.095875	7.3664e+06	-45589.1	955.818	-29772.4	0.000000	0.000000	7.098877	55.069	NaN	0.000000	0.001658	0.001680	28.1315	30.0158	0.001798	16690.8	8.573091	175.728	55.5283	1.095582	0.035936	0.035642	55.069	16690.8	0.033461	0.048224	1141.94	69441.4
139	2.000000	1.097921	7.3664e+06	-45589.1	955.82	-29772.4	0.000000	0.000000	7.101170	61.0818	NaN	0.000000	0.001629	0.001656	28.1314	31.786	0.001756	18097.5	8.524252	177.932	62.5864	1.097507	0.037982	0.037568	61.0818	18097.5	0.035450	0.052800	1156.86	71957.6
139	2.000000	1.099870	7.3664e+06	-45589.1	955.818	-29772.4	0.000000	0.000000	7.103328	66.1538	NaN	0.000000	0.001660	0.001662	28.1311	33.8021	0.001845	18318.6	4.319097	179.919	66.1674	1.099543	0.039931	0.039604	66.1538	18318.6	0.037222	0.057047	1159.63	70072.7
139	2.000000	1.101854	7.3664e+06	-45589.1	955.819	-29772.4	0.000000	0.000000	7.105631	73.9026	NaN	0.000000	0.001661	0.001684	28.1313	34.7967	0.001856	18746.3	7.261324	177.094	73.5476	1.101530	0.041915	0.041591	73.9026	18746.3	0.038959	0.061365	1204.32	69140
139	2.000000	1.103860	7.3664e+06	-45589.1	955.819	-29772.4	0.000000	0.000000	7.107857	79.2541	NaN	0.000000	0.001645	0.001678	28.1299	36.1428	0.001737	20802	9.262036	173.304	77.932	1.103518	0.043921	0.043579	79.2541	20802	0.041064	0.066806	1186.32	73530.9
139	2.000000	1.105806	7.3664e+06	-45589.1	955.818	-29772.4	0.000000	0.000000	7.110171	88.2123	NaN	0.000000	0.001633	0.001680	28.1303	38.0521	0.001928	19737.3	4.775195	179.726	86.6458	1.105479	0.045867	0.045540	88.2123	19737.3	0.042515	0.070689	1247.9	67824.5
139	2.000000	1.107804	7.3664e+06	-45589.1	955.819	-29772.4	0.000000	0.000000	7.112440	94.8256	NaN	0.000000	0.001655	0.001684	28.1298	40.0163	0.001799	22245.2	5.147623	177.436	92.1175	1.107487	0.047865	0.047548	94.8256	22245.2	0.044668	0.076646	1237.18	73411.4
139	2.000000	1.109828	7.3664e+06	-45589.1	955.819	-29772.4	0.000000	0.000000	7.114716	100.948	NaN	0.000000	0.001655	0.001670	28.1298	41.842	0.001737	24095.1	6.812657	174.975	98.6883	1.109513	0.049889	0.049573	100.948	24095.1	0.046746	0.082622	1221.8	76586.6
139	2.000000	1.111825	7.3664e+06	-45589.1	955.819	-29772.4	0.000000	0.000000	7.116985	107.561	NaN	0.000000	0.001627	0.001672	28.1304	44.2462	0.001688	26213.7	4.753800	176.184	106.354	1.111575	0.051886	0.051636	107.561	26213.7	0.048808	0.088765	1211.75	80386.2
139	2.000000	1.113836	7.3664e+06	-45589.1	955.819	-29772.4	0.000000	0.000000	7.119429	118.114	NaN	0.000000	0.001628	0.001665	28.131	45.764	0.001872	24442.9	7.341048	174.484	118.021	1.113515	0.053896	0.053576	118.114	24442.9	0.050272	0.093257	1266.55	73128.3
139	2.000000	1.115747	7.3664e+06	-45589.1	955.819	-29772.4	0.000000	0.000000	7.121772	128.591	NaN	0.000000	0.001622	0.001664	28.1314	47.3474	0.001746	27121.4	3.704736	177.254	124.434	1.115474	0.055808	0.055535	128.591	27121.4	0.052252	0.099501	1292.36	78554.6
139	2.000000	1.117876	7.3664e+06	-45589.1	955.819	-29772.4	0.000000	0.000000	7.124279	137.792	NaN	0.000000	0.001641	0.001663	28.1311	50.4123	0.001852	27224.4	6.267246	175.278	137.028	1.117504	0.057937	0.057565	137.792	27224.4	0.054141	0.105642	1304.33	76527
139	2.000000	1.119844	7.3664e+06	-45589.1	955.819	-29772.4	0.000000	0.000000	7.126464	143.075	NaN	0.000000	0.001630	0.001650	28.1309	52.5445	0.001855	28327.5	6.583865	173.442	143.644	1.119513	0.059905	0.059574	143.075	28327.5	0.056117	0.112253	1274.57	77247.1
139	2.000000	1.121895	7.3664e+06	-45589.1	955.819	-29772.4	0.000000	0.000000	7.128836	150.893	NaN	0.000000	0.001626	0.001675	28.1316	54.8559	0.001780	30823.4	6.483389	173.03	152.165	1.121565	0.061956	0.061626	150.893	30823.4	0.058284	0.119728	1260.29	81386.9
139	2.000000	1.123792	7.3664e+06	-45589.1	955.819	-29772.4	0.000000	0.000000	7.131142	160.839	NaN	0.000000	0.001659	0.001665	28.13	56.6052	0.001793	31562.9	9.129704	169.808	158.095	1.123612	0.063853	0.063673	160.839	31562.9	0.060031	0.125920	1277.32	81265
139	2.000000	1.125792	7.3664e+06	-45589.1	955.819	-29772.4	0.000000	0.000000	7.133676	173.806	NaN	0.000000	0.001620	0.001706	28.13	57.9791	0.001884	30766.3	2.804223	177.215	171.54	1.125578	0.065853	0.065639	173.806	30766.3	0.061616	0.131668	1320.04	77465.7
139	2.000000	1.127911	7.3664e+06	-45589.1	955.82	-29772.4	0.000000	0.000000	7.136168	182.891	NaN	0.000000	0.001624	0.001720	28.1294	59.0205	0.001784	33083.4	7.242978	173.932	184.167	1.127423	0.067972	0.067483	182.891	33083.4	0.063826	0.139884	1307.45	80816.3
139	2.000000	1.129754	7.3664e+06	-45589.1	955.818	-29772.4	0.000000	0.000000	7.138456	193.709	NaN	0.000000	0.001665	0.001704	28.1287	61.434	0.001902	32302.3	5.220417	174.418	190.741	1.129504	0.069815	0.069564	193.709	32302.3	0.065318	0.145564	1330.75	77353.4
139	2.000000	1.131844	7.3664e+06	-45589.1	955.819	-29772.4	0.000000	0.000000	7.140887	202.002	NaN	0.000000	0.001620	0.001680	28.1286	64.3022	0.001892	33979.9	10.0896	168.952	201.667	1.131438	0.071905	0.071499	202.002	33979.9	0.067447	0.153856	1312.93	79147.7
139	2.000000	1.133833	7.3664e+06	-45589.1	955.819	-29772.4	0.000000	0.000000	7.143346	213.448	NaN	0.000000	0.001685	0.001683	28.1298	64.3212	0.001778	36172.2	5.963418	172.438	213.536	1.133511	0.073894	0.073572	213.448	36172.2	0.069468	0.161931	1318.14	82126.6
139	2.000000	1.135785	7.3664e+06	-45589.1	955.819	-29772.4	0.000000	0.000000	7.145776	225.067	NaN	0.000000	0.001645	0.001683	28.1299	65.5668	0.001707	38404.2	1.683969	176.454	222.691	1.135493	0.075846	0.075553	225.067	38404.2	0.071451	0.170040	1323.61	85089.5
139	2.000000	1.137873	7.3664e+06	-45589.1	955.819	-29772.4	0.000000	0.000000	7.148141	231.827	NaN	0.000000	0.001633	0.001650	28.1303	69.5532	0.001884	36922.9	9.110293	170.243	232.252	1.137305	0.077934	0.077366	231.827	36922.9	0.073225	0.177453	1306.42	80080.7
139	2.000000	1.139750	7.3664e+06	-45589.1	955.819	-29772.4	0.000000	0.000000	7.150443	242.171	NaN	0.000000	0.001668	0.001659	28.1299	70.0314	0.001778	39397	4.816719	173.279	239.758	1.139446	0.079811	0.079507	242.171	39397	0.075201	0.185884	1302.8	83486.4
139	2.000000	1.140299	7.3664e+06	-45589.1	955.819	-29772.4	0.000000	0.000000	7.151155	246.135	NaN	0.000000	0.001646	0.001680	28.096	71.56	0.001847	38734.6	10.5705	-12.9434	243.643	1.139880	0.080359	0.079941	246.135	38734.6	0.075594	0.187583	1312.14	81710