File: remote_trans/data/nanoindenter/0828-1/data/Data_2025-08-06,11h17m57s/2025-07-22_16-23-58_1_264.txt
2025-07-22, 16:23:58, 1
Index	Phase	Displacement	Time	Pos X	Pos Y	Pos Z	Rot A	Rot B	Piezo Z	Force A	Force B	Gripper	Voltage A	Voltage B	Temperature	Amplitude force	Amplitude pos	Stiffness	Phase shift	Phase excitation	Force A raw	Displacement raw	HMax	HMax raw	Real Force	Real Stiffness	Contact Depth	Area	Hardness	Reduced Mod.
[#]	[#]	[um]	[s]	[um]	[um]	[um]	[m°]	[m°]	[um]	[uN]	[uN]	[V]	[V]	[V]	[°C]	[uN]	[um]	[N/m]	[°]	[°]	[uN]	[um]	[um]	[um]	[uN]	[N/m]	[um]	[um^2]	[MPa]	[MPa]
264	1.000000	0.002345	7.36763e+06	-51839.1	955.819	-29751.2	0.000000	0.000000	6.002807	0.050856	NaN	0.000000	0.001622	0.001656	28.0801	0.082235	0.001188	69.2399	173.466	-166.791	0.053386	0.001075	-1.140220	-1.141491	0.050856	69.2399	-1.140771	-1.766362E+15	-2.879128E-17	NaN
264	1.000000	0.012397	7.36763e+06	-51839.1	955.818	-29751.2	0.000000	0.000000	6.012856	-0.023597	NaN	0.000000	0.001615	0.001654	28.0799	0.022182	0.001343	16.5118	117.199	18.0005	-0.038064	0.010956	-1.130168	-1.131609	-0.023597	16.5118	-1.129096	-1.231689E+15	1.915836E-17	NaN
264	1.000000	0.022278	7.36763e+06	-51839.1	955.819	-29751.2	0.000000	0.000000	6.022739	0.031334	NaN	0.000000	0.001637	0.001654	28.0804	0.170548	0.001811	94.1989	32.9909	-163.748	0.076187	0.021021	-1.120288	-1.121544	0.031334	94.1989	-1.120537	-9.455347E+14	-3.313900E-17	NaN
264	1.000000	0.032321	7.36763e+06	-51839.1	955.818	-29751.2	0.000000	0.000000	6.032782	0.033860	NaN	0.000000	0.001625	0.001644	28.0801	0.034417	0.001920	17.9301	-146.84	13.4874	0.160017	0.030920	-1.110244	-1.111645	0.033860	17.9301	-1.111660	-7.187381E+14	-4.710999E-17	NaN
264	1.000000	0.042309	7.36763e+06	-51839.1	955.819	-29751.2	0.000000	0.000000	6.042769	0.002837	NaN	0.000000	0.001621	0.001650	28.0806	0.069491	0.001935	35.9085	-74.0969	-165.667	0.009697	0.040973	-1.100256	-1.101592	0.002837	35.9085	-1.100315	-5.061735E+14	-5.605268E-18	NaN
264	1.000000	0.052256	7.36763e+06	-51839.1	955.82	-29751.2	0.000000	0.000000	6.052719	0.072726	NaN	0.000000	0.001595	0.001667	28.08	0.103367	0.001960	52.7372	-61.1261	15.0858	0.058778	0.050945	-1.090309	-1.091620	0.072726	52.7372	-1.091343	-3.835754E+14	-1.896000E-16	NaN
264	1.000000	0.062310	7.36763e+06	-51839.1	955.818	-29751.2	0.000000	0.000000	6.062773	0.061847	NaN	0.000000	0.001626	0.001653	28.0807	0.029575	0.001999	14.7975	-3.451624	-162.592	0.007053	0.061037	-1.080255	-1.081529	0.061847	14.7975	-1.083390	-2.999457E+14	-2.061927E-16	NaN
264	1.000000	0.072300	7.36763e+06	-51839.1	955.819	-29751.2	0.000000	0.000000	6.072760	0.024844	NaN	0.000000	0.001632	0.001654	28.0798	0.073686	0.001945	37.882	171.021	15.4639	0.047242	0.070872	-1.070265	-1.071693	0.024844	37.882	-1.070757	-2.029382E+14	-1.224236E-16	NaN
264	1.000000	0.082320	7.36763e+06	-51839.1	955.819	-29751.2	0.000000	0.000000	6.082782	0.057253	NaN	0.000000	0.001625	0.001645	28.0801	0.126692	0.001929	65.6669	-41.3695	-164.77	0.073363	0.080992	-1.060246	-1.061574	0.057253	65.6669	-1.060900	-1.495928E+14	-3.827264E-16	NaN
264	1.000000	0.092293	7.36763e+06	-51839.1	955.819	-29751.2	0.000000	0.000000	6.092755	0.058132	NaN	0.000000	0.001640	0.001677	28.079	0.058699	0.001968	29.8216	20.2188	16.2158	0.075766	0.090937	-1.050272	-1.051628	0.058132	29.8216	-1.051734	-1.126480E+14	-5.160520E-16	NaN
264	1.000000	0.102307	7.36763e+06	-51839.1	955.818	-29751.2	0.000000	0.000000	6.102766	0.007538	NaN	0.000000	0.001583	0.001657	28.0789	0.076819	0.001856	41.399	153.41	-165.358	0.086783	0.100984	-1.040259	-1.041581	0.007538	41.399	-1.040395	-7.930180E+13	-9.505621E-17	NaN
264	1.000000	0.112310	7.36764e+06	-51839.1	955.819	-29751.2	0.000000	0.000000	6.112767	-0.073436	NaN	0.000000	0.001610	0.001631	28.0786	0.055313	0.001976	27.9859	-169.092	15.6384	-0.036287	0.110916	-1.030255	-1.031649	-0.073436	27.9859	-1.028287	-5.450567E+13	1.347318E-15	NaN
264	1.000000	0.122318	7.36764e+06	-51839.1	955.819	-29751.2	0.000000	0.000000	6.122778	0.013583	NaN	0.000000	0.001610	0.001659	28.0789	0.042275	0.002014	20.993	-165.675	-167.674	0.015161	0.121030	-1.020248	-1.021535	0.013583	20.993	-1.020733	-4.313333E+13	-3.148997E-16	NaN
264	1.000000	0.132327	7.36764e+06	-51839.1	955.819	-29751.2	0.000000	0.000000	6.132790	0.068356	NaN	0.000000	0.001581	0.001696	28.079	0.023567	0.002015	11.6954	-87.325	16.4937	0.095366	0.130926	-1.010238	-1.011639	0.068356	11.6954	-1.014622	-3.569284E+13	-1.915111E-15	NaN
264	1.000000	0.142344	7.36764e+06	-51839.1	955.819	-29751.2	0.000000	0.000000	6.142808	0.102579	NaN	0.000000	0.001621	0.001673	28.079	0.044936	0.002141	20.9879	43.0404	-163.776	0.070353	0.140991	-1.000221	-1.001575	0.102579	20.9879	-1.003887	-2.559164E+13	-4.008312E-15	NaN
264	1.000000	0.152307	7.36764e+06	-51839.1	955.819	-29751.2	0.000000	0.000000	6.152769	0.035896	NaN	0.000000	0.001573	0.001638	28.0787	0.096471	0.002018	47.8075	38.1612	16.9624	0.081708	0.150975	-0.990258	-0.991591	0.035896	47.8075	-0.990821	-1.706742E+13	-2.103177E-15	NaN
264	1.000000	0.162348	7.36764e+06	-51839.1	955.819	-29751.2	0.000000	0.000000	6.162810	0.054388	NaN	0.000000	0.001601	0.001627	28.0787	0.060814	0.002023	30.0666	-29.0369	-164.965	-0.011152	0.161013	-0.980217	-0.981552	0.054388	30.0666	-0.981574	-1.281176E+13	-4.245155E-15	NaN
264	1.000000	0.172342	7.36764e+06	-51839.1	955.818	-29751.2	0.000000	0.000000	6.172803	0.035166	NaN	0.000000	0.001602	0.001630	28.0789	0.086448	0.001935	44.6695	-90.9127	16.0057	0.001007	0.170953	-0.970224	-0.971612	0.035166	44.6695	-0.970814	-9.175590E+12	-3.832611E-15	NaN
264	1.000000	0.182341	7.36764e+06	-51839.1	955.82	-29751.2	0.000000	0.000000	6.182803	0.062428	NaN	0.000000	0.001585	0.001651	28.0788	0.110443	0.002100	52.5989	99.8061	-165.5	0.059473	0.181039	-0.960225	-0.961526	0.062428	52.5989	-0.961115	-6.790449E+12	-9.193452E-15	NaN
264	1.000000	0.192282	7.36764e+06	-51839.1	955.819	-29751.2	0.000000	0.000000	6.192744	0.043564	NaN	0.000000	0.001606	0.001624	28.0789	0.097102	0.001871	51.8951	133.212	13.6973	0.059491	0.190997	-0.950283	-0.951568	0.043564	51.8951	-0.950912	-4.946885E+12	-8.806276E-15	NaN
264	1.000000	0.202332	7.36764e+06	-51839.1	955.819	-29751.2	0.000000	0.000000	6.202792	0.014237	NaN	0.000000	0.001592	0.001637	28.0789	0.105857	0.002016	52.4957	122.135	-167.244	-0.022222	0.201067	-0.940233	-0.941498	0.014237	52.4957	-0.940436	-3.572936E+12	-3.984778E-15	NaN
264	1.000000	0.212354	7.36764e+06	-51839.1	955.818	-29751.2	0.000000	0.000000	6.212811	-0.066242	NaN	0.000000	0.001609	0.001610	28.0792	0.069145	0.001925	35.9275	-74.0192	11.5102	-0.146553	0.211001	-0.930211	-0.931564	-0.066242	35.9275	-0.928828	-2.491024E+12	2.659239E-14	NaN
264	1.000000	0.222333	7.36764e+06	-51839.1	955.818	-29751.2	0.000000	0.000000	6.222793	0.002714	NaN	0.000000	0.001635	0.001626	28.0789	0.091488	0.001974	46.3427	-162.046	-166.496	0.020763	0.221005	-0.920232	-0.921560	0.002714	46.3427	-0.920276	-1.909575E+12	-1.421496E-15	NaN
264	1.000000	0.232392	7.36764e+06	-51839.1	955.819	-29751.2	0.000000	0.000000	6.232853	0.034108	NaN	0.000000	0.001646	0.001633	28.0802	0.020728	0.002195	9.442986	-73.9386	14.6548	0.043323	0.231024	-0.910173	-0.911541	0.034108	9.442986	-0.912883	-1.517382E+12	-2.247852E-14	NaN
264	1.000000	0.242351	7.36764e+06	-51839.1	955.819	-29751.2	0.000000	0.000000	6.242812	0.040403	NaN	0.000000	0.001649	0.001646	28.0801	0.079885	0.001964	40.667	41.348	-161.994	-0.011827	0.241083	-0.900214	-0.901482	0.040403	40.667	-0.900959	-1.047199E+12	-3.858149E-14	NaN
264	1.000000	0.252396	7.36764e+06	-51839.1	955.819	-29751.2	0.000000	0.000000	6.252858	0.066744	NaN	0.000000	0.001636	0.001622	28.0804	0.115728	0.001877	61.6546	-98.0691	17.9988	-0.005620	0.250966	-0.890169	-0.891599	0.066744	61.6546	-0.890981	-7.676818E+11	-8.694232E-14	NaN
264	1.000000	0.262379	7.36764e+06	-51839.1	955.819	-29751.2	0.000000	0.000000	6.262841	0.060616	NaN	0.000000	0.001617	0.001671	28.0801	0.091899	0.001885	48.753	-120.493	-165.264	0.032937	0.261027	-0.880186	-0.881538	0.060616	48.753	-0.881119	-5.647239E+11	-1.073367E-13	NaN
264	1.000000	0.272378	7.36764e+06	-51839.1	955.818	-29751.2	0.000000	0.000000	6.272838	0.019689	NaN	0.000000	0.001601	0.001676	28.0805	0.021582	0.001986	10.8672	-98.3722	16.507	0.009564	0.271042	-0.870187	-0.871524	0.019689	10.8672	-0.871546	-4.191420E+11	-4.697514E-14	NaN
264	1.000000	0.282414	7.36764e+06	-51839.1	955.818	-29751.2	0.000000	0.000000	6.282872	-0.039167	NaN	0.000000	0.001647	0.001673	28.0802	0.115450	0.001955	59.0606	83.8774	-166.209	-0.057617	0.281068	-0.860151	-0.861497	-0.039167	59.0606	-0.859654	-2.893601E+11	1.353576E-13	NaN
264	1.000000	0.292381	7.36764e+06	-51839.1	955.819	-29751.2	0.000000	0.000000	6.292842	0.023086	NaN	0.000000	0.001614	0.001611	28.0807	0.053458	0.002032	26.3043	-51.0978	14.5204	0.008618	0.291039	-0.850184	-0.851526	0.023086	26.3043	-0.850842	-2.198585E+11	-1.050060E-13	NaN
264	1.000000	0.302386	7.36764e+06	-51839.1	955.818	-29751.2	0.000000	0.000000	6.302845	-0.032600	NaN	0.000000	0.001595	0.001679	28.0799	0.036706	0.002059	17.8276	-51.6893	-164.39	-0.041726	0.301095	-0.840179	-0.841471	-0.032600	17.8276	-0.838808	-1.510560E+11	2.158130E-13	NaN
264	1.000000	0.312391	7.36764e+06	-51839.1	955.818	-29751.2	0.000000	0.000000	6.312850	-0.012323	NaN	0.000000	0.001581	0.001670	28.0802	0.033867	0.002057	16.4636	13.3675	16.3585	0.001096	0.310994	-0.830174	-0.831572	-0.012323	16.4636	-0.829613	-1.133794E+11	1.086850E-13	NaN
264	1.000000	0.322429	7.36764e+06	-51839.1	955.818	-29751.2	0.000000	0.000000	6.322889	0.007039	NaN	0.000000	0.001619	0.001658	28.0803	0.023704	0.002014	11.7713	178.027	-167.484	0.002418	0.321090	-0.820136	-0.821475	0.007039	11.7713	-0.820585	-8.553375E+10	-8.229504E-14	NaN
264	1.000000	0.332385	7.36764e+06	-51839.1	955.818	-29751.2	0.000000	0.000000	6.332847	0.046779	NaN	0.000000	0.001582	0.001647	28.0802	0.098925	0.001986	49.8034	-104.294	17.549	0.044096	0.331095	-0.810180	-0.811470	0.046779	49.8034	-0.810885	-6.317898E+10	-7.404261E-13	NaN
264	1.000000	0.342417	7.36764e+06	-51839.1	955.818	-29751.2	0.000000	0.000000	6.342878	0.022664	NaN	0.000000	0.001571	0.001653	28.0801	0.066625	0.002040	32.6546	10.8436	-164.3	0.048541	0.341160	-0.800148	-0.801405	0.022664	32.6546	-0.800668	-4.591310E+10	-4.936356E-13	NaN
264	1.000000	0.352401	7.36764e+06	-51839.1	955.819	-29751.2	0.000000	0.000000	6.352862	0.040185	NaN	0.000000	0.001584	0.001651	28.0803	0.034446	0.002044	16.8511	-60.6279	16.3781	-0.020139	0.351060	-0.790165	-0.791506	0.040185	16.8511	-0.791953	-3.496302E+10	-1.149349E-12	NaN
264	1.000000	0.362398	7.36764e+06	-51839.1	955.818	-29751.2	0.000000	0.000000	6.362856	-0.028464	NaN	0.000000	0.001609	0.001661	28.0801	0.139998	0.001928	72.6084	163.712	-165.062	0.019095	0.361097	-0.780167	-0.781468	-0.028464	72.6084	-0.779873	-2.396135E+10	1.187894E-12	NaN
264	1.000000	0.372439	7.36764e+06	-51839.1	955.819	-29751.2	0.000000	0.000000	6.372901	0.035927	NaN	0.000000	0.001563	0.001667	28.0791	0.073274	0.001940	37.7636	150.637	13.9116	0.017218	0.371057	-0.770126	-0.771509	0.035927	37.7636	-0.770839	-1.806003E+10	-1.989336E-12	NaN
264	1.000000	0.382439	7.36764e+06	-51839.1	955.818	-29751.2	0.000000	0.000000	6.382897	-0.037995	NaN	0.000000	0.001606	0.001658	28.0785	0.068262	0.001999	34.1401	96.5487	-161.273	0.037327	0.381093	-0.760127	-0.761473	-0.037995	34.1401	-0.759292	-1.257963E+10	3.020373E-12	NaN
264	1.000000	0.392444	7.36764e+06	-51839.1	955.819	-29751.2	0.000000	0.000000	6.392904	0.018087	NaN	0.000000	0.001572	0.001620	28.0791	0.129683	0.002088	62.0957	-143.286	12.0193	-0.066278	0.391056	-0.750122	-0.751510	0.018087	62.0957	-0.750340	-9.502759E+9	-1.903371E-12	NaN
264	1.000000	0.402448	7.36764e+06	-51839.1	955.819	-29751.2	0.000000	0.000000	6.402910	0.039211	NaN	0.000000	0.001618	0.001664	28.0788	0.036400	0.001916	18.9959	-153.308	-163.346	0.053663	0.401125	-0.740117	-0.741440	0.039211	18.9959	-0.741665	-7.239904E+9	-5.415903E-12	NaN
264	1.000000	0.412453	7.36764e+06	-51839.1	955.818	-29751.2	0.000000	0.000000	6.412916	0.070603	NaN	0.000000	0.001593	0.001689	28.079	0.187596	0.002001	93.7566	-106.769	13.3792	0.088544	0.411065	-0.730112	-0.731501	0.070603	93.7566	-0.730677	-5.129017E+9	-1.376539E-11	NaN
264	1.000000	0.422441	7.36764e+06	-51839.1	955.818	-29751.2	0.000000	0.000000	6.422902	0.024610	NaN	0.000000	0.001639	0.001635	28.0787	0.114758	0.002075	55.296	86.3379	-163.501	0.020936	0.421114	-0.720124	-0.721452	0.024610	55.296	-0.720458	-3.721505E+9	-6.612996E-12	NaN
264	1.000000	0.432460	7.36764e+06	-51839.1	955.819	-29751.2	0.000000	0.000000	6.432921	0.024922	NaN	0.000000	0.001664	0.001670	28.0788	0.033545	0.002064	16.2492	-62.505	15.2404	-0.000709	0.431144	-0.710105	-0.711422	0.024922	16.2492	-0.711256	-2.787294E+9	-8.941151E-12	NaN
264	1.000000	0.442465	7.36764e+06	-51839.1	955.819	-29751.2	0.000000	0.000000	6.442924	-0.015737	NaN	0.000000	0.001593	0.001689	28.0788	0.028547	0.001873	15.2431	-155.704	-163.9	0.003893	0.441162	-0.700100	-0.701403	-0.015737	15.2431	-0.699326	-1.915675E+9	8.215042E-12	NaN
264	1.000000	0.452465	7.36764e+06	-51839.1	955.819	-29751.2	0.000000	0.000000	6.452927	0.054943	NaN	0.000000	0.001609	0.001658	28.0789	0.055037	0.002032	27.0819	-94.8072	15.6573	-0.010293	0.451119	-0.690101	-0.691446	0.054943	27.0819	-0.691622	-1.503439E+9	-3.654469E-11	NaN
264	1.000000	0.462456	7.36764e+06	-51839.1	955.818	-29751.2	0.000000	0.000000	6.462916	0.022748	NaN	0.000000	0.001614	0.001677	28.0788	0.064920	0.002058	31.5413	-16.4719	-167.63	0.051574	0.461140	-0.680109	-0.681425	0.022748	31.5413	-0.680650	-1.064388E+9	-2.137186E-11	NaN
264	1.000000	0.472485	7.36764e+06	-51839.1	955.818	-29751.2	0.000000	0.000000	6.472948	0.061425	NaN	0.000000	0.001580	0.001704	28.0787	0.161597	0.002043	79.0979	-133.909	13.4112	0.002232	0.471107	-0.670080	-0.671458	0.061425	79.0979	-0.670662	-7.770592E+8	-7.904860E-11	NaN
264	1.000000	0.482493	7.36764e+06	-51839.1	955.818	-29751.2	0.000000	0.000000	6.482953	0.013173	NaN	0.000000	0.001570	0.001724	28.079	0.111387	0.002025	55.0022	143.021	-163.158	0.024830	0.481155	-0.660072	-0.661410	0.013173	55.0022	-0.660252	-5.596533E+8	-2.353843E-11	NaN
264	1.000000	0.492469	7.36764e+06	-51839.1	955.818	-29751.2	0.000000	0.000000	6.492931	0.061473	NaN	0.000000	0.001602	0.001689	28.0789	0.093113	0.002223	41.8787	63.3045	15.8049	-0.002369	0.491134	-0.650096	-0.651432	0.061473	41.8787	-0.651197	-4.205764E+8	-1.461641E-10	NaN
264	1.000000	0.502476	7.36764e+06	-51839.1	955.819	-29751.2	0.000000	0.000000	6.502936	0.008374	NaN	0.000000	0.001568	0.001696	28.0799	0.083361	0.001955	42.6452	132.915	-165.302	0.016099	0.501205	-0.640089	-0.641360	0.008374	42.6452	-0.640236	-2.975283E+8	-2.814657E-11	NaN
264	1.000000	0.512497	7.36764e+06	-51839.1	955.818	-29751.2	0.000000	0.000000	6.512957	0.006912	NaN	0.000000	0.001573	0.001735	28.0802	0.088098	0.001955	45.0612	-89.5805	14.3459	0.007764	0.511123	-0.630068	-0.631442	0.006912	45.0612	-0.630183	-2.165383E+8	-3.192085E-11	NaN
264	1.000000	0.522488	7.36764e+06	-51839.1	955.818	-29751.2	0.000000	0.000000	6.522949	0.040148	NaN	0.000000	0.001601	0.001728	28.0804	0.102391	0.002018	50.7367	15.72	-168.983	0.019547	0.521200	-0.620078	-0.621366	0.040148	50.7367	-0.620671	-1.602722E+8	-2.504960E-10	NaN
264	1.000000	0.532509	7.36764e+06	-51839.1	955.819	-29751.2	0.000000	0.000000	6.532970	0.026522	NaN	0.000000	0.001587	0.001699	28.0799	0.083268	0.002138	38.9508	-124.283	15.5306	0.025579	0.531098	-0.610056	-0.611467	0.026522	38.9508	-0.610566	-1.163877E+8	-2.278737E-10	NaN
264	1.000000	0.542471	7.36764e+06	-51839.1	955.817	-29751.2	0.000000	0.000000	6.542932	0.014511	NaN	0.000000	0.001597	0.001683	28.08	0.022895	0.001944	11.7791	122.921	-164.155	0.074755	0.541184	-0.600094	-0.601382	0.014511	11.7791	-0.601018	-8.599555E+7	-1.687401E-10	NaN
264	1.000000	0.552504	7.36764e+06	-51839.1	955.819	-29751.2	0.000000	0.000000	6.552964	0.016625	NaN	0.000000	0.001617	0.001708	28.0802	0.134056	0.001988	67.4303	148.353	16.9084	-0.013285	0.551107	-0.590061	-0.591459	0.016625	67.4303	-0.590246	-6.110312E+7	-2.720752E-10	NaN
264	1.000000	0.562541	7.36764e+06	-51839.1	955.818	-29751.2	0.000000	0.000000	6.563000	-0.014531	NaN	0.000000	0.001588	0.001691	28.0803	0.098124	0.002005	48.9356	170.273	-162.95	-0.038634	0.561177	-0.580024	-0.581388	-0.014531	48.9356	-0.579801	-4.385139E+7	3.313606E-10	NaN
264	1.000000	0.572512	7.36764e+06	-51839.1	955.819	-29751.2	0.000000	0.000000	6.572975	0.079495	NaN	0.000000	0.001570	0.001661	28.08	0.123955	0.002064	60.0681	-44.0133	17.5388	0.048255	0.571126	-0.570053	-0.571439	0.079495	60.0681	-0.571046	-3.319574E+7	-2.394737E-9	NaN
264	1.000000	0.582513	7.36764e+06	-51839.1	955.819	-29751.2	0.000000	0.000000	6.582974	0.031488	NaN	0.000000	0.001595	0.001700	28.0803	0.053368	0.001947	27.4094	-101.394	-164.726	-0.004307	0.581179	-0.560052	-0.561386	0.031488	27.4094	-0.560914	-2.404466E+7	-1.309556E-9	NaN
264	1.000000	0.592514	7.36764e+06	-51839.1	955.818	-29751.2	0.000000	0.000000	6.592974	0.009895	NaN	0.000000	0.001590	0.001678	28.0802	0.026051	0.001978	13.1692	177.064	14.7167	-0.008853	0.591146	-0.550051	-0.551419	0.009895	13.1692	-0.550615	-1.731696E+7	-5.714283E-10	NaN
264	1.000000	0.602514	7.36764e+06	-51839.1	955.819	-29751.2	0.000000	0.000000	6.602977	0.085902	NaN	0.000000	0.001604	0.001688	28.08	0.096870	0.002011	48.1811	30.1742	-165.92	0.075318	0.601190	-0.540051	-0.541375	0.085902	48.1811	-0.541388	-1.290064E+7	-6.658745E-9	NaN
264	1.000000	0.612498	7.36764e+06	-51839.1	955.818	-29751.2	0.000000	0.000000	6.612961	0.077353	NaN	0.000000	0.001583	0.001669	28.0801	0.138470	0.002033	68.1116	-42.368	16.7796	0.105583	0.611173	-0.530067	-0.531393	0.077353	68.1116	-0.530919	-9.23287e+06	-8.377969E-9	NaN
264	1.000000	0.622528	7.36764e+06	-51839.1	955.818	-29751.2	0.000000	0.000000	6.622991	0.070419	NaN	0.000000	0.001615	0.001666	28.0802	0.068732	0.002188	31.416	-35.9471	-162.319	0.033675	0.621273	-0.520037	-0.521292	0.070419	31.416	-0.521718	-6.87846e+06	-1.023754E-8	NaN
264	1.000000	0.632522	7.36764e+06	-51839.1	955.818	-29751.2	0.000000	0.000000	6.632983	0.039816	NaN	0.000000	0.001609	0.001647	28.0802	0.101287	0.001884	53.765	0.510523	15.2755	0.021732	0.631168	-0.510043	-0.511398	0.039816	53.765	-0.510598	-4.81672e+06	-8.266155E-9	NaN
264	1.000000	0.642525	7.36764e+06	-51839.1	955.819	-29751.2	0.000000	0.000000	6.642986	0.018255	NaN	0.000000	0.001606	0.001663	28.0789	0.040246	0.002029	19.8388	-17.1644	-167.369	-0.002626	0.641220	-0.500040	-0.501345	0.018255	19.8388	-0.500730	-3.50915e+06	-5.202180E-9	NaN
264	1.000000	0.652560	7.36764e+06	-51839.1	955.818	-29751.2	0.000000	0.000000	6.653021	0.046661	NaN	0.000000	0.001640	0.001656	28.0786	0.154892	0.001858	83.3795	-121.904	16.3263	0.074087	0.651160	-0.490005	-0.491405	0.046661	83.3795	-0.490425	-2.51961e+06	-1.851908E-8	NaN
264	1.000000	0.662575	7.36764e+06	-51839.1	955.818	-29751.2	0.000000	0.000000	6.663037	0.055163	NaN	0.000000	0.001598	0.001776	28.0791	0.029021	0.002064	14.0576	140.141	-166.071	0.108585	0.661225	-0.479991	-0.481340	0.055163	14.0576	-0.482934	-1.97963e+06	-2.786526E-8	NaN
264	1.000000	0.672546	7.36764e+06	-51839.1	955.818	-29751.2	0.000000	0.000000	6.673006	0.003767	NaN	0.000000	0.001632	0.001708	28.0788	0.043403	0.002034	21.3424	172.515	18.1814	-0.009064	0.671160	-0.470019	-0.471405	0.003767	21.3424	-0.470151	-1.31078e+06	-2.873958E-9	NaN
264	1.000000	0.682559	7.36764e+06	-51839.1	955.819	-29751.2	0.000000	0.000000	6.683020	0.022753	NaN	0.000000	0.001612	0.001686	28.0787	0.183048	0.001904	96.1431	-108.397	-163.982	0.033322	0.681282	-0.460006	-0.461283	0.022753	96.1431	-0.460184	-949726	-2.395720E-8	NaN
264	1.000000	0.692539	7.36764e+06	-51839.1	955.818	-29751.2	0.000000	0.000000	6.693001	0.041643	NaN	0.000000	0.001640	0.001698	28.0787	0.058468	0.002035	28.7343	-112.083	17.8529	0.036187	0.691236	-0.450026	-0.451330	0.041643	28.7343	-0.451113	-707969	-5.882080E-8	NaN
264	1.000000	0.702563	7.36764e+06	-51839.1	955.817	-29751.2	0.000000	0.000000	6.703023	0.004166	NaN	0.000000	0.001600	0.001721	28.0788	0.092318	0.002085	44.2714	-102.579	-165.389	0.043478	0.701263	-0.440002	-0.441302	0.004166	44.2714	-0.440073	-494756	-8.420455E-9	NaN
264	1.000000	0.712551	7.36764e+06	-51839.1	955.819	-29751.2	0.000000	0.000000	6.713012	0.029761	NaN	0.000000	0.001597	0.001728	28.0789	0.086256	0.001985	43.4496	-163.766	18.2299	-0.035902	0.711243	-0.430014	-0.431322	0.029761	43.4496	-0.430528	-362682	-8.205848E-8	NaN
264	1.000000	0.722549	7.36764e+06	-51839.1	955.818	-29751.2	0.000000	0.000000	6.723009	-0.001293	NaN	0.000000	0.001605	0.001697	28.0788	0.060001	0.001947	30.8129	-82.7369	-162.772	-0.020446	0.721229	-0.420016	-0.421336	-0.001293	30.8129	-0.419985	-257155	5.026724E-9	NaN
264	1.000000	0.732570	7.36764e+06	-51839.1	955.818	-29751.2	0.000000	0.000000	6.733029	-0.011244	NaN	0.000000	0.001607	0.001751	28.0788	0.079356	0.002015	39.3802	62.8663	19.8412	0.017533	0.731269	-0.409995	-0.411296	-0.011244	39.3802	-0.409781	-184200	6.104336E-8	NaN
264	1.000000	0.742614	7.36764e+06	-51839.1	955.818	-29751.2	0.000000	0.000000	6.743074	0.016504	NaN	0.000000	0.001562	0.001688	28.0787	0.098653	0.002085	47.3117	105.548	-161.833	0.093096	0.741211	-0.399951	-0.401354	0.016504	47.3117	-0.400213	-134596	-1.226215E-7	NaN
264	1.000000	0.752620	7.36764e+06	-51839.1	955.82	-29751.2	0.000000	0.000000	6.753081	0.036982	NaN	0.000000	0.001580	0.001685	28.0792	0.076330	0.002180	35.0101	-152.777	14.5145	0.074811	0.751230	-0.389946	-0.391336	0.036982	35.0101	-0.390738	-98564.5	-3.752065E-7	NaN
264	1.000000	0.762593	7.36764e+06	-51839.1	955.819	-29751.2	0.000000	0.000000	6.763054	0.035163	NaN	0.000000	0.001553	0.001745	28.0789	0.086832	0.001951	44.5093	177.086	-164.92	0.049148	0.761225	-0.379972	-0.381341	0.035163	44.5093	-0.380565	-70468.4	-4.989867E-7	NaN
264	1.000000	0.772585	7.36764e+06	-51839.1	955.819	-29751.2	0.000000	0.000000	6.773045	0.020148	NaN	0.000000	0.001567	0.001775	28.0788	0.058821	0.001957	30.0502	144.109	13.3917	0.016513	0.771181	-0.369980	-0.371384	0.020148	30.0502	-0.370483	-50476	-3.991523E-7	NaN
264	1.000000	0.782604	7.36764e+06	-51839.1	955.818	-29751.2	0.000000	0.000000	6.783065	0.035268	NaN	0.000000	0.001525	0.001686	28.0803	0.072687	0.001954	37.1903	-65.9482	-161.125	0.101076	0.781290	-0.359961	-0.361276	0.035268	37.1903	-0.360672	-36438.6	-9.678638E-7	NaN
264	1.000000	0.792572	7.36764e+06	-51839.1	955.818	-29751.2	0.000000	0.000000	6.793031	-0.012543	NaN	0.000000	0.001537	0.001691	28.0804	0.048629	0.002141	22.7163	53.3437	13.2773	0.003534	0.791234	-0.349993	-0.351332	-0.012543	22.7163	-0.349579	-25170.6	4.983383E-7	NaN
264	1.000000	0.802607	7.36764e+06	-51839.1	955.818	-29751.2	0.000000	0.000000	6.803068	0.048595	NaN	0.000000	0.001510	0.001697	28.0801	0.107547	0.001981	54.2766	47.9412	-167.016	0.001914	0.801289	-0.339959	-0.341276	0.048595	54.2766	-0.340630	-18652.6	-2.605291E-6	NaN
264	1.000000	0.812613	7.36764e+06	-51839.1	955.818	-29751.2	0.000000	0.000000	6.813076	0.079486	NaN	0.000000	0.001529	0.001686	28.0798	0.085468	0.001958	43.6402	151.842	14.7709	0.049947	0.811219	-0.329953	-0.331346	0.079486	43.6402	-0.331319	-13638.1	-5.828243E-6	NaN
264	1.000000	0.822599	7.36764e+06	-51839.1	955.818	-29751.2	0.000000	0.000000	6.823061	0.075478	NaN	0.000000	0.001575	0.001694	28.08	0.028288	0.001865	15.1714	75.7612	-164.63	0.105345	0.821268	-0.319967	-0.321297	0.075478	15.1714	-0.323698	-10544.2	-7.158241E-6	NaN
264	1.000000	0.832626	7.36764e+06	-51839.1	955.819	-29751.2	0.000000	0.000000	6.833088	0.058548	NaN	0.000000	0.001575	0.001698	28.0799	0.106778	0.001953	54.67	-152.484	14.4737	0.078807	0.831223	-0.309939	-0.311342	0.058548	54.67	-0.310742	-6792.67	-8.619277E-6	NaN
264	1.000000	0.842623	7.36764e+06	-51839.1	955.818	-29751.2	0.000000	0.000000	6.843083	-0.012779	NaN	0.000000	0.001562	0.001682	28.0799	0.060882	0.002226	27.3491	1.394387	-167.536	0.085811	0.841288	-0.299942	-0.301277	-0.012779	27.3491	-0.299591	-4640.35	2.753951E-6	NaN
264	1.000000	0.852643	7.36764e+06	-51839.1	955.818	-29751.2	0.000000	0.000000	6.853104	0.022604	NaN	0.000000	0.001558	0.001687	28.08	0.067990	0.002089	32.5539	-178.847	14.2546	0.015634	0.851238	-0.289922	-0.291327	0.022604	32.5539	-0.290443	-3387.96	-6.672002E-6	NaN
264	1.000000	0.862639	7.36764e+06	-51839.1	955.819	-29751.2	0.000000	0.000000	6.863101	0.059887	NaN	0.000000	0.001540	0.001658	28.0801	0.049890	0.002206	22.6191	-118.182	-163.583	0.108643	0.861332	-0.279926	-0.281233	0.059887	22.6191	-0.281912	-2522.26	-2.374326E-5	NaN
264	1.000000	0.872633	7.36764e+06	-51839.1	955.818	-29751.2	0.000000	0.000000	6.873092	-0.004287	NaN	0.000000	0.001591	0.001682	28.08	0.025217	0.002029	12.4269	-100.098	13.627	0.020224	0.871255	-0.269932	-0.271310	-0.004287	12.4269	-0.269674	-1646.58	2.603587E-6	NaN
264	1.000000	0.882646	7.36764e+06	-51839.1	955.819	-29751.2	0.000000	0.000000	6.883106	-0.004273	NaN	0.000000	0.001588	0.001701	28.0799	0.092778	0.002046	45.3508	147.525	-164.113	-0.020157	0.881339	-0.259919	-0.261226	-0.004273	45.3508	-0.259849	-1165.72	3.665373E-6	NaN
264	1.000000	0.892663	7.36764e+06	-51839.1	955.818	-29751.2	0.000000	0.000000	6.893122	-0.008790	NaN	0.000000	0.001563	0.001708	28.08	0.056630	0.002017	28.0762	-81.4301	17.5222	-0.016903	0.891258	-0.249902	-0.251308	-0.008790	28.0762	-0.249668	-812.503	1.081902E-5	NaN
264	1.000000	0.902646	7.36764e+06	-51839.1	955.819	-29751.2	0.000000	0.000000	6.903106	0.008826	NaN	0.000000	0.001587	0.001658	28.0802	0.045654	0.002097	21.7719	152.783	-161.891	0.030417	0.901349	-0.239919	-0.241217	0.008826	21.7719	-0.240223	-579.485	-1.523149E-5	NaN
264	1.000000	0.912619	7.36764e+06	-51839.1	955.818	-29751.2	0.000000	0.000000	6.913079	0.011192	NaN	0.000000	0.001570	0.001638	28.0786	0.015829	0.001946	8.135546	140.025	17.6196	0.059115	0.911234	-0.229946	-0.231331	0.011192	8.135546	-0.230978	-414.906	-2.697432E-5	NaN
264	1.000000	0.922675	7.36764e+06	-51839.1	955.819	-29751.2	0.000000	0.000000	6.923136	0.032888	NaN	0.000000	0.001545	0.001668	28.0788	0.031090	0.001937	16.0518	-122.047	-162.998	0.136642	0.921313	-0.219891	-0.221252	0.032888	16.0518	-0.221427	-292.729	-0.000112	NaN
264	1.000000	0.932652	7.36764e+06	-51839.1	955.819	-29751.2	0.000000	0.000000	6.933109	-0.061503	NaN	0.000000	0.001565	0.001669	28.0787	0.021911	0.001947	11.2517	2.742473	18.5559	-0.069662	0.931249	-0.209913	-0.211316	-0.061503	11.2517	-0.205813	-163.991	0.000375	NaN
264	1.000000	0.942656	7.36764e+06	-51839.1	955.819	-29751.2	0.000000	0.000000	6.943115	-0.004768	NaN	0.000000	0.001588	0.001665	28.0789	0.022047	0.001912	11.5323	-1.600187	-162.01	0.061815	0.941335	-0.199909	-0.201230	-0.004768	11.5323	-0.199599	-129.751	3.674476E-5	NaN
264	1.000000	0.952679	7.36764e+06	-51839.1	955.818	-29751.2	0.000000	0.000000	6.953136	-0.054311	NaN	0.000000	0.001554	0.001730	28.0787	0.068678	0.002002	34.3058	-52.6221	15.0069	0.001325	0.951288	-0.189886	-0.191277	-0.054311	34.3058	-0.188699	-85.5597	0.000635	NaN
264	1.000000	0.962658	7.36764e+06	-51839.1	955.819	-29751.2	0.000000	0.000000	6.963120	0.057221	NaN	0.000000	0.001569	0.001750	28.0787	0.067326	0.002069	32.5446	-55.1091	-165.906	0.073445	0.961379	-0.179907	-0.181186	0.057221	32.5446	-0.181226	-64.0178	-0.000894	NaN
264	1.000000	0.972688	7.36764e+06	-51839.1	955.82	-29751.2	0.000000	0.000000	6.973150	0.036823	NaN	0.000000	0.001550	0.001757	28.0789	0.071714	0.002012	35.6348	-64.6575	11.8607	0.092925	0.971297	-0.169877	-0.171268	0.036823	35.6348	-0.170652	-42.1623	-0.000873	NaN
264	1.000000	0.982689	7.36764e+06	-51839.1	955.818	-29751.2	0.000000	0.000000	6.983150	0.031066	NaN	0.000000	0.001605	0.001737	28.0789	0.042943	0.001989	21.5878	64.971	-168.707	-0.028080	0.981356	-0.159876	-0.161209	0.031066	21.5878	-0.160956	-28.5068	-0.001090	NaN
264	1.000000	0.992710	7.36764e+06	-51839.1	955.818	-29751.2	0.000000	0.000000	6.993172	0.055768	NaN	0.000000	0.001597	0.001724	28.0788	0.051859	0.001780	29.1263	125.468	11.6582	-0.018447	0.991352	-0.149855	-0.151214	0.055768	29.1263	-0.151291	-19.121	-0.002917	NaN
264	1.000000	1.002695	7.36764e+06	-51839.1	955.82	-29751.2	0.000000	0.000000	7.003157	0.061141	NaN	0.000000	0.001537	0.001690	28.0788	0.136945	0.002050	66.7926	4.807290	-166.654	0.098386	1.001425	-0.139870	-0.141141	0.061141	66.7926	-0.140557	-12.1176	-0.005046	NaN
264	1.000000	1.012675	7.36764e+06	-51839.1	955.819	-29751.2	0.000000	0.000000	7.013134	-0.010898	NaN	0.000000	0.001550	0.001681	28.0791	0.102480	0.002017	50.8107	-98.7276	15.8423	0.007181	1.011333	-0.129891	-0.131233	-0.010898	50.8107	-0.129730	-7.529383	0.001447	NaN
264	1.000000	1.022710	7.36764e+06	-51839.1	955.819	-29751.2	0.000000	0.000000	7.023170	0.016553	NaN	0.000000	0.001570	0.001667	28.079	0.058584	0.002001	29.2737	-61.3654	-165.797	0.047331	1.021392	-0.119855	-0.121173	0.016553	29.2737	-0.120279	-4.894622	-0.003382	NaN
264	1.000000	1.032703	7.36764e+06	-51839.1	955.819	-29751.2	0.000000	0.000000	7.033163	0.025593	NaN	0.000000	0.001565	0.001671	28.0788	0.035329	0.001961	18.0191	148.432	14.4838	0.037884	1.031376	-0.109863	-0.111189	0.025593	18.0191	-0.110928	-3.143368	-0.008142	NaN
264	1.000000	1.042699	7.36764e+06	-51839.1	955.82	-29751.2	0.000000	0.000000	7.043158	-0.004450	NaN	0.000000	0.001575	0.001746	28.0788	0.037634	0.002004	18.7842	154.11	-163.828	-0.019789	1.041386	-0.099866	-0.101179	-0.004450	18.7842	-0.099689	-1.798308	0.002475	NaN
264	1.000000	1.052717	7.36764e+06	-51839.1	955.821	-29751.2	0.000000	0.000000	7.053176	-0.026100	NaN	0.000000	0.001591	0.001723	28.0803	0.061382	0.001813	33.8654	-171.605	15.4238	-0.083724	1.051325	-0.089848	-0.091240	-0.026100	33.8654	-0.089270	-1.039092	0.025118	NaN
264	1.000000	1.062690	7.36764e+06	-51839.1	955.819	-29751.2	0.000000	0.000000	7.063148	-0.031577	NaN	0.000000	0.001547	0.001698	28.0801	0.043784	0.001897	23.0821	168.593	-168.003	-0.046619	1.061406	-0.079875	-0.081159	-0.031577	23.0821	-0.078849	-0.579165	0.054522	NaN
264	1.000000	1.072712	7.36764e+06	-51839.1	955.819	-29751.2	0.000000	0.000000	7.073174	0.048505	NaN	0.000000	0.001597	0.001717	28.0801	0.035345	0.001996	17.7072	-12.1495	13.1555	0.067010	1.071300	-0.069853	-0.071265	0.048505	17.7072	-0.071908	-0.383402	-0.126512	NaN
264	1.000000	1.082709	7.36764e+06	-51839.1	955.819	-29751.2	0.000000	0.000000	7.083168	-0.015897	NaN	0.000000	0.001588	0.001708	28.08	0.087117	0.002055	42.3969	175.939	-165.614	-0.063249	1.081425	-0.059857	-0.061140	-0.015897	42.3969	-0.059575	-0.175106	0.090787	NaN
264	1.000000	1.092730	7.36764e+06	-51839.1	955.819	-29751.2	0.000000	0.000000	7.093192	0.048473	NaN	0.000000	0.001605	0.001645	28.0802	0.025629	0.001992	12.8646	-163.449	14.8623	0.057781	1.091366	-0.049835	-0.051199	0.048473	12.8646	-0.052661	-0.109720	-0.441787	NaN
264	1.000000	1.102727	7.36764e+06	-51839.1	955.82	-29751.2	0.000000	0.000000	7.103189	0.044745	NaN	0.000000	0.001560	0.001637	28.08	0.072488	0.002141	33.8633	-157.194	-163.639	0.078718	1.101381	-0.039838	-0.041184	0.044745	33.8633	-0.040829	-0.047925	-0.933654	NaN
264	1.000000	1.112728	7.36764e+06	-51839.1	955.821	-29751.2	0.000000	0.000000	7.113190	0.049056	NaN	0.000000	0.001588	0.001653	28.08	0.107562	0.001973	54.5107	150.127	16.0465	0.008219	1.111398	-0.029837	-0.031168	0.049056	54.5107	-0.030512	-0.023784	-2.062544	NaN
264	1.000000	1.122712	7.36764e+06	-51839.1	955.819	-29751.2	0.000000	0.000000	7.123169	-0.066170	NaN	0.000000	0.001610	0.001657	28.0801	0.076924	0.001931	39.8332	123.112	-163.62	-0.050679	1.121420	-0.019854	-0.021145	-0.066170	39.8332	-0.018608	-0.011573	5.717615	NaN
264	1.000000	1.132767	7.36764e+06	-51839.1	955.82	-29751.2	0.000000	0.000000	7.133223	-0.075674	NaN	0.000000	0.001585	0.001637	28.0802	0.020418	0.001979	10.3194	42.0112	17.5543	-0.011898	1.131431	-0.009798	-0.011134	-0.075674	10.3194	-0.004299	-0.002971	25.4679	NaN
264	1.000000	1.142733	7.36764e+06	-51839.1	955.819	-29751.2	0.000000	0.000000	7.143196	0.059514	NaN	0.000000	0.001580	0.001672	28.0801	0.059289	0.001988	29.8282	-109.387	-164.014	0.029819	1.141440	0.000168	-0.001125	0.059514	29.8282	-0.001328	-0.000968	-61.4902	NaN
264	1.000000	1.152699	7.36764e+06	-51839.1	955.821	-29751.2	0.000000	0.000000	7.153384	5.476792	NaN	0.000000	0.001603	0.001625	28.0802	5.636930	0.001745	3230.18	12.1341	12.0913	4.602850	1.151367	0.010134	0.008802	5.476792	3230.18	0.008862	0.007944	689.404	33111.1
264	2.000000	1.158337	7.36764e+06	-51839.1	955.819	-29751.2	0.000000	0.000000	7.159232	10.5713	NaN	0.000000	0.001598	0.001652	28.0803	10.7592	0.001778	6052.94	8.922959	-174.405	11.0057	1.157981	0.015772	0.015416	10.5713	6052.94	0.014462	0.014575	725.299	45807.3
264	2.000000	1.160774	7.36764e+06	-51839.1	955.819	-29751.2	0.000000	0.000000	7.161833	14.5565	NaN	0.000000	0.001613	0.001634	28.0804	12.7425	0.001566	8135.47	5.955570	7.871459	13.4814	1.160411	0.018209	0.017846	14.5565	8135.47	0.016867	0.017857	815.189	55623.3
264	2.000000	1.163273	7.36764e+06	-51839.1	955.82	-29751.2	0.000000	0.000000	7.164473	18.0122	NaN	0.000000	0.001624	0.001660	28.08	15.3855	0.001797	8563.39	6.383446	-172.163	18.9002	1.162938	0.020707	0.020373	18.0122	8563.39	0.019130	0.021193	849.896	53742.5
264	2.000000	1.165728	7.36764e+06	-51839.1	955.82	-29751.2	0.000000	0.000000	7.167148	23.3699	NaN	0.000000	0.001633	0.001672	28.079	18.1538	0.001846	9831.55	5.226386	6.063053	23.1769	1.165393	0.023162	0.022828	23.3699	9831.55	0.021380	0.024757	943.979	57088.4
264	2.000000	1.168232	7.36764e+06	-51839.1	955.82	-29751.2	0.000000	0.000000	7.169829	27.6538	NaN	0.000000	0.001604	0.001696	28.0791	20.8808	0.001798	11613.4	7.154855	-178.063	27.6621	1.167931	0.025667	0.025366	27.6538	11613.4	0.023881	0.029011	953.214	62294.5
264	2.000000	1.170717	7.36764e+06	-51839.1	955.82	-29751.2	0.000000	0.000000	7.172607	34.7667	NaN	0.000000	0.001608	0.001673	28.079	22.5478	0.001646	13694.7	5.839642	2.727719	33.5149	1.170319	0.028152	0.027754	34.7667	13694.7	0.026248	0.033326	1043.24	68538.9
264	2.000000	1.173126	7.36764e+06	-51839.1	955.82	-29751.2	0.000000	0.000000	7.175295	41.5656	NaN	0.000000	0.001597	0.001675	28.0788	25.5566	0.001767	14466.6	7.824702	179.482	39.1916	1.172864	0.030561	0.030298	41.5656	14466.6	0.028406	0.037504	1108.3	68249.8
264	2.000000	1.175634	7.36764e+06	-51839.1	955.82	-29751.2	0.000000	0.000000	7.178208	51.4034	NaN	0.000000	0.001611	0.001690	28.0789	27.3813	0.001672	16378.1	3.799720	2.331877	48.0204	1.175344	0.033069	0.032779	51.4034	16378.1	0.030715	0.042239	1216.97	72808.2
264	2.000000	1.178176	7.36764e+06	-51839.1	955.82	-29751.2	0.000000	0.000000	7.180924	55.6357	NaN	0.000000	0.001623	0.001707	28.079	30.7458	0.001814	16950.4	5.188395	-178.74	54.0996	1.177882	0.035611	0.035317	55.6357	16950.4	0.033149	0.047524	1170.69	71039.3
264	2.000000	1.180674	7.36764e+06	-51839.1	955.82	-29751.2	0.000000	0.000000	7.183773	64.1813	NaN	0.000000	0.001648	0.001666	28.0788	32.3876	0.001658	19530.3	4.721766	-0.356398	60.8895	1.180335	0.038109	0.037770	64.1813	19530.3	0.035644	0.053257	1205.13	77320.7
264	2.000000	1.183158	7.36764e+06	-51839.1	955.818	-29751.2	0.000000	0.000000	7.186585	72.1665	NaN	0.000000	0.001575	0.001675	28.0788	34.7078	0.001826	19003.8	9.264428	176.199	70.4629	1.182817	0.040593	0.040252	72.1665	19003.8	0.037745	0.058329	1237.22	71890.4
264	2.000000	1.185674	7.36764e+06	-51839.1	955.82	-29751.2	0.000000	0.000000	7.189471	81.1611	NaN	0.000000	0.001609	0.001696	28.0789	38.3573	0.001797	21348.4	10.9822	-6.654314	79.1765	1.185221	0.043109	0.042656	81.1611	21348.4	0.040257	0.064695	1254.51	76683.4
264	2.000000	1.188160	7.36764e+06	-51839.1	955.819	-29751.2	0.000000	0.000000	7.192324	90.0669	NaN	0.000000	0.001584	0.001685	28.0791	41.2698	0.001752	23560	9.328650	173.572	88.9598	1.187892	0.045595	0.045327	90.0669	23560	0.042728	0.071268	1263.77	80630.5
264	2.000000	1.190673	7.36764e+06	-51839.1	955.819	-29751.2	0.000000	0.000000	7.195193	98.7323	NaN	0.000000	0.001639	0.001647	28.079	42.2135	0.001713	24637.2	6.983098	-4.262669	97.6098	1.190302	0.048108	0.047737	98.7323	24637.2	0.045102	0.077878	1267.78	80659.8
264	2.000000	1.193166	7.36764e+06	-51839.1	955.82	-29751.2	0.000000	0.000000	7.198014	106.726	NaN	0.000000	0.001637	0.001659	28.0787	44.2891	0.001758	25191	6.481853	175.656	108.115	1.192894	0.050600	0.050328	106.726	25191	0.047423	0.084614	1261.33	79122
264	2.000000	1.195697	7.36764e+06	-51839.1	955.82	-29751.2	0.000000	0.000000	7.200955	116.659	NaN	0.000000	0.001622	0.001687	28.079	47.775	0.001882	25387.5	6.380053	-3.527108	117.847	1.195281	0.053132	0.052716	116.659	25387.5	0.049686	0.091444	1275.74	76703.4
264	2.000000	1.198176	7.36764e+06	-51839.1	955.82	-29751.2	0.000000	0.000000	7.203907	128.187	NaN	0.000000	0.001610	0.001693	28.0803	49.3879	0.001724	28650.1	5.047697	177.099	128.812	1.197843	0.055610	0.055278	128.187	28650.1	0.052255	0.099509	1288.19	82978.9
264	2.000000	1.200656	7.36764e+06	-51839.1	955.82	-29751.2	0.000000	0.000000	7.206961	142.142	NaN	0.000000	0.001576	0.001702	28.0803	52.1534	0.001771	29448.5	6.548125	-4.658125	139.23	1.200192	0.058090	0.057627	142.142	29448.5	0.054470	0.106730	1331.8	82355.7
264	2.000000	1.203151	7.36764e+06	-51839.1	955.82	-29751.2	0.000000	0.000000	7.209678	147.538	NaN	0.000000	0.001597	0.001671	28.0801	54.9527	0.001820	30187.9	7.563232	173.529	148.061	1.202909	0.060586	0.060343	147.538	30187.9	0.056920	0.114997	1282.98	81332.4
264	2.000000	1.205649	7.36764e+06	-51839.1	955.82	-29751.2	0.000000	0.000000	7.212746	161.387	NaN	0.000000	0.001602	0.001677	28.0803	57.5507	0.001897	30343.2	5.678457	-3.946783	159.478	1.205184	0.063084	0.062619	161.387	30343.2	0.059095	0.122583	1316.55	79180.8
264	2.000000	1.208156	7.36764e+06	-51839.1	955.82	-29751.2	0.000000	0.000000	7.215705	172.364	NaN	0.000000	0.001593	0.001698	28.0802	60.357	0.001917	31480.1	6.913894	173.567	170.772	1.207840	0.065591	0.065275	172.364	31480.1	0.061484	0.131185	1313.9	79408.5
264	2.000000	1.210729	7.36764e+06	-51839.1	955.82	-29751.2	0.000000	0.000000	7.218743	183.693	NaN	0.000000	0.001625	0.001679	28.0804	61.7725	0.001806	34202.4	6.017911	-5.093472	186.716	1.210365	0.068163	0.067799	183.693	34202.4	0.064135	0.141053	1302.3	83202.8
264	2.000000	1.213113	7.36764e+06	-51839.1	955.819	-29751.2	0.000000	0.000000	7.221814	200.393	NaN	0.000000	0.001603	0.001709	28.0798	64.133	0.001906	33650.6	5.740268	175.134	199.578	1.212747	0.070548	0.070181	200.393	33650.6	0.066082	0.148514	1349.32	79777.7
264	2.000000	1.215594	7.36764e+06	-51839.1	955.82	-29751.2	0.000000	0.000000	7.224720	210.739	NaN	0.000000	0.001598	0.001680	28.0803	66.4637	0.001907	34852.8	3.433946	-2.943056	208.426	1.215244	0.073028	0.072679	210.739	34852.8	0.068494	0.158014	1333.67	80105.8
264	2.000000	1.218120	7.36764e+06	-51839.1	955.819	-29751.2	0.000000	0.000000	7.227890	226.393	NaN	0.000000	0.001599	0.001666	28.0803	68.1556	0.001731	39376.1	5.941437	172.882	224.27	1.217827	0.075554	0.075261	226.393	39376.1	0.071242	0.169178	1338.2	87465
264	2.000000	1.220582	7.36764e+06	-51839.1	955.819	-29751.2	0.000000	0.000000	7.230836	238.161	NaN	0.000000	0.001582	0.001681	28.0804	69.1141	0.001769	39078.4	3.159933	-3.979043	233.186	1.220233	0.078017	0.077668	238.161	39078.4	0.073446	0.178387	1335.08	84533.2
264	2.000000	1.223200	7.36764e+06	-51839.1	955.82	-29751.2	0.000000	0.000000	7.233855	247.894	NaN	0.000000	0.001609	0.001672	28.08	71.7363	0.001720	41716.8	5.889127	172.777	251.647	1.222808	0.080635	0.080243	247.894	41716.8	0.076179	0.190126	1303.84	87410.6
264	2.000000	1.225640	7.36764e+06	-51839.1	955.821	-29751.2	0.000000	0.000000	7.237212	270.197	NaN	0.000000	0.001613	0.001677	28.0803	74.5729	0.001781	41877.3	6.309848	-7.349824	269.071	1.225108	0.083075	0.082543	270.197	41877.3	0.078236	0.199194	1356.45	85726.4
264	2.000000	1.228056	7.36764e+06	-51839.1	955.821	-29751.2	0.000000	0.000000	7.240240	285.066	NaN	0.000000	0.001622	0.001668	28.0803	76.3976	0.001728	44213.3	2.871150	175.701	281.251	1.227809	0.085491	0.085244	285.066	44213.3	0.080655	0.210113	1356.72	88124.9
264	2.000000	1.230704	7.36764e+06	-51839.1	955.821	-29751.2	0.000000	0.000000	7.243485	299.586	NaN	0.000000	0.001615	0.001654	28.0802	79.4823	0.001754	45323.6	6.095600	-8.146726	298.713	1.230356	0.088139	0.087791	299.586	45323.6	0.083181	0.221803	1350.69	87925.4
264	2.000000	1.233154	7.36764e+06	-51839.1	955.821	-29751.2	0.000000	0.000000	7.246563	314.88	NaN	0.000000	0.001635	0.001662	28.0797	81.2932	0.001731	46968.3	5.748516	171.84	317.663	1.232847	0.090589	0.090281	314.88	46968.3	0.085561	0.233083	1350.94	88883.8
264	2.000000	1.235609	7.36764e+06	-51839.1	955.82	-29751.2	0.000000	0.000000	7.249687	331.135	NaN	0.000000	0.001612	0.001667	28.0789	84.6235	0.001671	50652.3	4.029646	-6.322006	329.934	1.235156	0.093044	0.092591	331.135	50652.3	0.088141	0.245612	1348.2	93378.6
264	2.000000	1.238084	7.36764e+06	-51839.1	955.82	-29751.2	0.000000	0.000000	7.252735	345.068	NaN	0.000000	0.001611	0.001701	28.079	88.6893	0.001810	48993.9	6.195894	171.703	343.073	1.237801	0.095519	0.095236	345.068	48993.9	0.090237	0.256013	1347.85	88467.6
264	2.000000	1.240612	7.36764e+06	-51839.1	955.819	-29751.2	0.000000	0.000000	7.256183	367.438	NaN	0.000000	0.001623	0.001699	28.079	88.9838	0.001698	52397.6	3.865796	-6.259042	363.829	1.240253	0.098047	0.097688	367.438	52397.6	0.092788	0.268948	1366.2	92310.3
264	2.000000	1.243133	7.36764e+06	-51839.1	955.82	-29751.2	0.000000	0.000000	7.258844	370.849	NaN	0.000000	0.001581	0.001685	28.0788	91.7655	0.001752	52382.2	3.698181	173.227	372.006	1.243036	0.100568	0.100470	370.849	52382.2	0.095258	0.281753	1316.22	90161.7
264	2.000000	1.245623	7.36764e+06	-51839.1	955.82	-29751.2	0.000000	0.000000	7.262580	401.159	NaN	0.000000	0.001596	0.001682	28.0791	94.0302	0.001828	51432.8	5.524679	-8.087253	398.522	1.245246	0.103057	0.102680	401.159	51432.8	0.097208	0.292058	1373.56	86951.8
264	2.000000	1.248033	7.36764e+06	-51839.1	955.82	-29751.2	0.000000	0.000000	7.265878	422.727	NaN	0.000000	0.001613	0.001676	28.0789	96.5463	0.001873	51548.6	4.046603	173.226	418.605	1.247745	0.105468	0.105180	422.727	51548.6	0.099317	0.303405	1393.28	85502.5
264	2.000000	1.250554	7.36764e+06	-51839.1	955.82	-29751.2	0.000000	0.000000	7.268825	433.106	NaN	0.000000	0.001569	0.001670	28.0789	97.4048	0.001780	54726.9	4.516997	-7.806264	427.341	1.250314	0.107989	0.107748	433.106	54726.9	0.102053	0.318418	1360.18	88608.5
264	2.000000	1.253168	7.36764e+06	-51839.1	955.82	-29751.2	0.000000	0.000000	7.272273	453.366	NaN	0.000000	0.001594	0.001666	28.079	99.6793	0.001808	55131.1	6.196001	170.79	457.285	1.252815	0.110603	0.110249	453.366	55131.1	0.104435	0.331768	1366.52	87448.7
264	2.000000	1.255029	7.36764e+06	-51839.1	955.82	-29751.2	0.000000	0.000000	7.274983	474.014	NaN	0.000000	0.001556	0.001693	28.079	101.671	0.001728	58829.4	1.770396	174.816	471.358	1.254793	0.112464	0.112228	474.014	58829.4	0.106421	0.343091	1381.6	91762