File: remote_trans/data/nanoindenter/0828-1/data/Data_2025-08-06,11h17m57s/2025-07-22_16-23-58_1_777.txt
2025-07-22, 16:23:58, 1
Index	Phase	Displacement	Time	Pos X	Pos Y	Pos Z	Rot A	Rot B	Piezo Z	Force A	Force B	Gripper	Voltage A	Voltage B	Temperature	Amplitude force	Amplitude pos	Stiffness	Phase shift	Phase excitation	Force A raw	Displacement raw	HMax	HMax raw	Real Force	Real Stiffness	Contact Depth	Area	Hardness	Reduced Mod.
[#]	[#]	[um]	[s]	[um]	[um]	[um]	[m°]	[m°]	[um]	[uN]	[uN]	[V]	[V]	[V]	[°C]	[uN]	[um]	[N/m]	[°]	[°]	[uN]	[um]	[um]	[um]	[uN]	[N/m]	[um]	[um^2]	[MPa]	[MPa]
777	1.000000	0.002268	7.37265e+06	-38989.1	1055.82	-29795.6	0.000000	0.000000	6.002807	0.027911	NaN	0.000000	0.001678	0.001701	28.0837	0.113979	0.001085	105.029	64.4582	-169.016	-0.011688	0.001048	-1.024432	-1.025653	0.027911	105.029	-1.024632	-4.867041E+13	-5.734653E-16	NaN
777	1.000000	0.010209	7.37265e+06	-38989.1	1055.82	-29795.6	0.000000	0.000000	6.010749	0.056893	NaN	0.000000	0.001641	0.001712	28.084	0.108531	0.001020	106.388	-87.0534	-162.835	-0.011467	0.008924	-1.016491	-1.017776	0.056893	106.388	-1.016892	-3.829452E+13	-1.485666E-15	NaN
777	1.000000	0.018229	7.37265e+06	-38989.1	1055.82	-29795.6	0.000000	0.000000	6.018769	0.062572	NaN	0.000000	0.001663	0.001712	28.0838	0.024076	0.001689	14.2532	-161.378	-165.073	-0.004428	0.016926	-1.008471	-1.009774	0.062572	14.2532	-1.011764	-3.266798E+13	-1.915402E-15	NaN
777	1.000000	0.026228	7.37265e+06	-38989.1	1055.82	-29795.6	0.000000	0.000000	6.026768	0.056737	NaN	0.000000	0.001654	0.001694	28.0838	0.034256	0.001764	19.4157	84.6545	-165.202	0.096092	0.024894	-1.000473	-1.001806	0.056737	19.4157	-1.002664	-2.463980E+13	-2.302645E-15	NaN
777	1.000000	0.034212	7.37265e+06	-38989.1	1055.82	-29795.6	0.000000	0.000000	6.034750	-0.003344	NaN	0.000000	0.001657	0.001661	28.0835	0.096503	0.001856	51.9968	30.653	-163.463	0.037530	0.032879	-0.992488	-0.993821	-0.003344	51.9968	-0.992440	-1.794597E+13	1.863252E-16	NaN
777	1.000000	0.042199	7.37265e+06	-38989.1	1055.82	-29795.6	0.000000	0.000000	6.042739	0.060654	NaN	0.000000	0.001660	0.001661	28.0835	0.145579	0.001937	75.1691	17.1931	-163.991	0.067285	0.040935	-0.984501	-0.985765	0.060654	75.1691	-0.985106	-1.429545E+13	-4.242858E-15	NaN
777	1.000000	0.050215	7.37265e+06	-38989.1	1055.82	-29795.6	0.000000	0.000000	6.050755	0.061289	NaN	0.000000	0.001657	0.001701	28.0837	0.041537	0.001925	21.5819	128.896	-164.023	-0.012828	0.048931	-0.976485	-0.977769	0.061289	21.5819	-0.978615	-1.168828E+13	-5.243622E-15	NaN
777	1.000000	0.058211	7.37265e+06	-38989.1	1055.82	-29795.6	0.000000	0.000000	6.058752	0.078852	NaN	0.000000	0.001671	0.001700	28.0839	0.072905	0.002092	34.8536	94.7808	-162.889	0.009031	0.056898	-0.968489	-0.969802	0.078852	34.8536	-0.970186	-8.998500E+12	-8.762759E-15	NaN
777	1.000000	0.066199	7.37266e+06	-38989.1	1055.82	-29795.6	0.000000	0.000000	6.066740	0.096635	NaN	0.000000	0.001697	0.001706	28.0839	0.011495	0.002129	5.398600	8.200609	-163.824	0.106166	0.064878	-0.960502	-0.961822	0.096635	5.398600	-0.973927	-1.010604E+13	-9.562149E-15	NaN
777	1.000000	0.074231	7.37266e+06	-38989.1	1055.82	-29795.6	0.000000	0.000000	6.074771	0.046465	NaN	0.000000	0.001673	0.001688	28.0836	0.042610	0.002004	21.2646	-53.1632	-164.246	0.019075	0.072923	-0.952469	-0.953777	0.046465	21.2646	-0.954108	-5.462896E+12	-8.505567E-15	NaN
777	1.000000	0.082219	7.37266e+06	-38989.1	1055.82	-29795.6	0.000000	0.000000	6.082759	0.057540	NaN	0.000000	0.001649	0.001692	28.0835	0.077657	0.002004	38.7578	87.8029	-165.935	0.147254	0.080894	-0.944481	-0.945807	0.057540	38.7578	-0.945594	-4.193780E+12	-1.372028E-14	NaN
777	1.000000	0.090210	7.37266e+06	-38989.1	1055.82	-29795.6	0.000000	0.000000	6.090749	0.047943	NaN	0.000000	0.001674	0.001713	28.0836	0.073800	0.002026	36.4328	106.818	-163.228	0.054854	0.088922	-0.936491	-0.937778	0.047943	36.4328	-0.937478	-3.259160E+12	-1.471010E-14	NaN
777	1.000000	0.098235	7.37266e+06	-38989.1	1055.82	-29795.6	0.000000	0.000000	6.098773	-0.002556	NaN	0.000000	0.001678	0.001680	28.0836	0.001839	0.002074	0.886895	-81.7517	-160.551	0.017989	0.096901	-0.928465	-0.929800	-0.002556	0.886895	-0.926304	-2.303091E+12	1.109644E-15	NaN
777	1.000000	0.106195	7.37266e+06	-38989.1	1055.82	-29795.6	0.000000	0.000000	6.106733	0.004963	NaN	0.000000	0.001692	0.001685	28.0837	0.071475	0.001954	36.5722	-88.2307	-168.424	0.010028	0.104930	-0.920505	-0.921771	0.004963	36.5722	-0.920607	-1.929298E+12	-2.572219E-15	NaN
777	1.000000	0.114256	7.37266e+06	-38989.1	1055.82	-29795.6	0.000000	0.000000	6.114796	0.069049	NaN	0.000000	0.001669	0.001676	28.0838	0.087509	0.001949	44.8893	152.862	-164.991	0.028443	0.112924	-0.912445	-0.913776	0.069049	44.8893	-0.913598	-1.551533E+12	-4.450341E-14	NaN
777	1.000000	0.122218	7.37266e+06	-38989.1	1055.82	-29795.6	0.000000	0.000000	6.122757	0.035658	NaN	0.000000	0.001690	0.001698	28.0824	0.134397	0.002020	66.5311	-54.3915	-161.809	0.023098	0.120925	-0.904482	-0.905775	0.035658	66.5311	-0.904884	-1.183195E+12	-3.013685E-14	NaN
777	1.000000	0.130211	7.37266e+06	-38989.1	1055.82	-29795.5	0.000000	0.000000	6.130747	-0.027332	NaN	0.000000	0.001702	0.001701	28.084	0.098197	0.002051	47.8831	82.5313	-166.251	-0.068162	0.128933	-0.896489	-0.897767	-0.027332	47.8831	-0.896061	-8.991691E+11	3.039702E-14	NaN
777	1.000000	0.138243	7.37266e+06	-38989.1	1055.82	-29795.6	0.000000	0.000000	6.138783	0.057224	NaN	0.000000	0.001647	0.001712	28.0824	0.052976	0.001832	28.9183	-60.0725	-165.354	-0.008000	0.136958	-0.888458	-0.889743	0.057224	28.9183	-0.889942	-7.432361E+11	-7.699241E-14	NaN
777	1.000000	0.146249	7.37266e+06	-38989.1	1055.82	-29795.5	0.000000	0.000000	6.146789	0.040647	NaN	0.000000	0.001695	0.001682	28.0825	0.021378	0.001984	10.776	137.948	-162.42	0.143535	0.144941	-0.880451	-0.881759	0.040647	10.776	-0.883280	-6.040363E+11	-6.729171E-14	NaN
777	1.000000	0.154234	7.37266e+06	-38989.1	1055.82	-29795.6	0.000000	0.000000	6.154771	-0.007868	NaN	0.000000	0.001655	0.001705	28.0826	0.067013	0.001898	35.3157	-146.261	-163.732	0.029620	0.152946	-0.872466	-0.873754	-0.007868	35.3157	-0.872299	-4.290925E+11	1.833664E-14	NaN
777	1.000000	0.162241	7.37266e+06	-38989.1	1055.82	-29795.6	0.000000	0.000000	6.162780	0.024748	NaN	0.000000	0.001695	0.001704	28.0827	0.149978	0.001985	75.5727	-175.605	-165.871	-0.030443	0.160914	-0.864459	-0.865786	0.024748	75.5727	-0.864705	-3.386866E+11	-7.307067E-14	NaN
777	1.000000	0.170278	7.37266e+06	-38989.1	1055.82	-29795.5	0.000000	0.000000	6.170814	-0.031497	NaN	0.000000	0.001714	0.001721	28.0827	0.053872	0.002079	25.9072	132.27	-162.747	-0.081773	0.168976	-0.856422	-0.857724	-0.031497	25.9072	-0.855511	-2.543020E+11	1.238569E-13	NaN
777	1.000000	0.178263	7.37266e+06	-38989.1	1055.82	-29795.5	0.000000	0.000000	6.178800	-0.009847	NaN	0.000000	0.001680	0.001717	28.0824	0.069879	0.002091	33.4233	125.076	-167.122	0.001787	0.176934	-0.848437	-0.849767	-0.009847	33.4233	-0.848216	-2.025746E+11	4.860682E-14	NaN
777	1.000000	0.186266	7.37266e+06	-38989.1	1055.82	-29795.5	0.000000	0.000000	6.186805	0.023688	NaN	0.000000	0.001658	0.001704	28.0825	0.053006	0.002078	25.5081	125.888	-167.282	0.107348	0.184960	-0.840434	-0.841741	0.023688	25.5081	-0.841131	-1.624103E+11	-1.458500E-13	NaN
777	1.000000	0.194272	7.37266e+06	-38989.1	1055.82	-29795.5	0.000000	0.000000	6.194813	0.060103	NaN	0.000000	0.001603	0.001687	28.0827	0.099947	0.002141	46.6927	-104.879	-164.254	0.090475	0.192976	-0.832428	-0.833724	0.060103	46.6927	-0.833393	-1.275774E+11	-4.711079E-13	NaN
777	1.000000	0.202285	7.37266e+06	-38989.1	1055.82	-29795.6	0.000000	0.000000	6.202824	0.019189	NaN	0.000000	0.001614	0.001655	28.0826	0.031461	0.001841	17.0887	-71.3384	-164.585	-0.060667	0.200944	-0.824415	-0.825756	0.019189	17.0887	-0.825257	-9.896782E+10	-1.938933E-13	NaN
777	1.000000	0.210266	7.37266e+06	-38989.1	1055.82	-29795.5	0.000000	0.000000	6.210805	0.031454	NaN	0.000000	0.001608	0.001648	28.0828	0.051078	0.001996	25.5915	-168.168	-169.504	0.080380	0.208985	-0.816434	-0.817715	0.031454	25.5915	-0.817356	-7.733082E+10	-4.067524E-13	NaN
777	1.000000	0.218297	7.37266e+06	-38989.1	1055.82	-29795.5	0.000000	0.000000	6.218835	-0.000465	NaN	0.000000	0.001589	0.001717	28.0827	0.051756	0.001937	26.7225	-108.884	-164.687	0.076080	0.216972	-0.808403	-0.809729	-0.000465	26.7225	-0.808390	-5.844284E+10	7.948582E-15	NaN
777	1.000000	0.226286	7.37266e+06	-38989.1	1055.82	-29795.6	0.000000	0.000000	6.226824	-0.000842	NaN	0.000000	0.001612	0.001678	28.0828	0.027547	0.001892	14.5606	-18.8507	-163.355	0.058701	0.224993	-0.800414	-0.801707	-0.000842	14.5606	-0.800370	-4.548740E+10	1.851424E-14	NaN
777	1.000000	0.234278	7.37266e+06	-38989.1	1055.82	-29795.5	0.000000	0.000000	6.234817	0.034141	NaN	0.000000	0.001597	0.001681	28.0826	0.048443	0.002096	23.117	-16.7687	-166.937	-0.050270	0.233002	-0.792422	-0.793698	0.034141	23.117	-0.793530	-3.672998E+10	-9.295031E-13	NaN
777	1.000000	0.242293	7.37266e+06	-38989.1	1055.82	-29795.5	0.000000	0.000000	6.242830	-0.004339	NaN	0.000000	0.001589	0.001728	28.0826	0.072741	0.001946	37.3837	-154.172	-165.904	-0.050853	0.241036	-0.784407	-0.785664	-0.004339	37.3837	-0.784320	-2.753804E+10	1.575465E-13	NaN
777	1.000000	0.250274	7.37266e+06	-38989.1	1055.82	-29795.5	0.000000	0.000000	6.250817	0.106742	NaN	0.000000	0.001624	0.001666	28.0825	0.016445	0.002029	8.106057	141.714	-165.695	-0.025778	0.248918	-0.776426	-0.777782	0.106742	8.106057	-0.786302	-2.929908E+10	-3.643200E-12	NaN
777	1.000000	0.258305	7.37266e+06	-38989.1	1055.82	-29795.5	0.000000	0.000000	6.258844	0.021122	NaN	0.000000	0.001621	0.001660	28.0839	0.092621	0.001976	46.8823	120.095	-168.211	-0.026268	0.257014	-0.768395	-0.769687	0.021122	46.8823	-0.768733	-1.690741E+10	-1.249266E-12	NaN
777	1.000000	0.266295	7.37266e+06	-38989.1	1055.82	-29795.5	0.000000	0.000000	6.266833	0.012870	NaN	0.000000	0.001608	0.001678	28.084	0.052332	0.001923	27.2183	74.5349	-167.959	0.012261	0.265031	-0.760405	-0.761669	0.012870	27.2183	-0.760760	-1.317166E+10	-9.770931E-13	NaN
777	1.000000	0.274323	7.37266e+06	-38989.1	1055.82	-29795.5	0.000000	0.000000	6.274861	-0.000187	NaN	0.000000	0.001635	0.001642	28.084	0.107286	0.001887	56.854	91.3714	-162.162	0.057422	0.272960	-0.752377	-0.753740	-0.000187	56.854	-0.752375	-1.012851E+10	1.847658E-14	NaN
777	1.000000	0.282303	7.37266e+06	-38989.1	1055.82	-29795.5	0.000000	0.000000	6.282840	-0.024393	NaN	0.000000	0.001602	0.001655	28.0843	0.097215	0.001976	49.1999	107.738	-165.62	-0.041068	0.281061	-0.744397	-0.745639	-0.024393	49.1999	-0.744025	-7.796013E+9	3.128908E-12	NaN
777	1.000000	0.290308	7.37266e+06	-38989.1	1055.82	-29795.5	0.000000	0.000000	6.290847	0.032693	NaN	0.000000	0.001585	0.001688	28.0839	0.013927	0.001990	6.997319	-31.2755	-163.503	-0.020671	0.288990	-0.736393	-0.737710	0.032693	6.997319	-0.739897	-6.849373E+9	-4.773079E-12	NaN
777	1.000000	0.298295	7.37266e+06	-38989.1	1055.82	-29795.5	0.000000	0.000000	6.298830	-0.057177	NaN	0.000000	0.001610	0.001666	28.0843	0.029208	0.001942	15.0408	-132.252	-162.97	-0.010638	0.297001	-0.728406	-0.729699	-0.057177	15.0408	-0.725555	-4.367288E+9	1.309201E-11	NaN
777	1.000000	0.306313	7.37266e+06	-38989.1	1055.82	-29795.6	0.000000	0.000000	6.306851	0.004993	NaN	0.000000	0.001629	0.001666	28.0838	0.097837	0.001914	51.1257	-24.3525	-163.803	0.022531	0.304980	-0.720388	-0.721720	0.004993	51.1257	-0.720461	-3.721843E+9	-1.341628E-12	NaN
777	1.000000	0.314312	7.37266e+06	-38989.1	1055.82	-29795.6	0.000000	0.000000	6.314850	0.011365	NaN	0.000000	0.001626	0.001631	28.0837	0.078955	0.001868	42.2714	143.706	-166.16	0.101148	0.312995	-0.712388	-0.713705	0.011365	42.2714	-0.712590	-2.906605E+9	-3.910036E-12	NaN
777	1.000000	0.322316	7.37266e+06	-38989.1	1055.82	-29795.5	0.000000	0.000000	6.322852	-0.034476	NaN	0.000000	0.001644	0.001680	28.0839	0.091606	0.001984	46.1816	-33.806	-165.029	-0.030433	0.321036	-0.704384	-0.705665	-0.034476	46.1816	-0.703824	-2.206744E+9	1.562319E-11	NaN
777	1.000000	0.330307	7.37266e+06	-38989.1	1055.82	-29795.5	0.000000	0.000000	6.330847	0.060745	NaN	0.000000	0.001623	0.001677	28.084	0.182677	0.002027	90.1223	-142.759	-162.937	0.033997	0.329065	-0.696393	-0.697635	0.060745	90.1223	-0.696899	-1.774910E+9	-3.422449E-11	NaN
777	1.000000	0.338310	7.37266e+06	-38989.1	1055.82	-29795.5	0.000000	0.000000	6.338849	0.010216	NaN	0.000000	0.001580	0.001679	28.0847	0.075879	0.002080	36.4769	-160.08	-162.357	0.051701	0.337022	-0.688390	-0.689679	0.010216	36.4769	-0.688600	-1.367046E+9	-7.473301E-12	NaN
777	1.000000	0.346358	7.37266e+06	-38989.1	1055.82	-29795.5	0.000000	0.000000	6.346897	0.032758	NaN	0.000000	0.001630	0.001690	28.0838	0.059577	0.001994	29.8789	30.7823	-163.598	0.010531	0.345029	-0.680342	-0.681671	0.032758	29.8789	-0.681164	-1.081754E+9	-3.028263E-11	NaN
777	1.000000	0.354345	7.37266e+06	-38989.1	1055.82	-29795.5	0.000000	0.000000	6.354885	0.054314	NaN	0.000000	0.001608	0.001715	28.0838	0.133091	0.001984	67.067	119.961	-162.363	0.026779	0.353020	-0.672355	-0.673680	0.054314	67.067	-0.672962	-8.354717E+8	-6.501013E-11	NaN
777	1.000000	0.362356	7.37266e+06	-38989.1	1055.82	-29795.5	0.000000	0.000000	6.362892	-0.020566	NaN	0.000000	0.001627	0.001692	28.0836	0.046722	0.002094	22.3109	-76.8076	-167.756	-0.032237	0.361055	-0.664345	-0.665645	-0.020566	22.3109	-0.663653	-6.230221E+8	3.300966E-11	NaN
777	1.000000	0.370365	7.37266e+06	-38989.1	1055.82	-29795.5	0.000000	0.000000	6.370903	-0.002108	NaN	0.000000	0.001652	0.001705	28.0835	0.125304	0.001949	64.2758	-178.652	-163.687	-9.555214E-5	0.369044	-0.656335	-0.657656	-0.002108	64.2758	-0.656310	-4.942201E+8	4.266018E-12	NaN
777	1.000000	0.378372	7.37266e+06	-38989.1	1055.82	-29795.5	0.000000	0.000000	6.378910	-0.004935	NaN	0.000000	0.001604	0.001702	28.0841	0.016897	0.002006	8.424669	-48.3002	-167.365	-0.004481	0.377033	-0.648328	-0.649668	-0.004935	8.424669	-0.647889	-3.788689E+8	1.302566E-11	NaN
777	1.000000	0.386348	7.37266e+06	-38989.1	1055.82	-29795.5	0.000000	0.000000	6.386886	-0.015083	NaN	0.000000	0.001627	0.001703	28.0836	0.038582	0.002025	19.0517	160.68	-165.982	-0.032615	0.385073	-0.640352	-0.641627	-0.015083	19.0517	-0.639758	-2.930693E+8	5.146419E-11	NaN
777	1.000000	0.394322	7.37266e+06	-38989.1	1055.82	-29795.5	0.000000	0.000000	6.394861	0.041912	NaN	0.000000	0.001680	0.001714	28.0828	0.023262	0.001971	11.804	143.843	-164.096	0.050938	0.393001	-0.632378	-0.633700	0.041912	11.804	-0.635041	-2.524883E+8	-1.659964E-10	NaN
777	1.000000	0.402354	7.37266e+06	-38989.1	1055.82	-29795.5	0.000000	0.000000	6.402894	0.048298	NaN	0.000000	0.001647	0.001705	28.0826	0.049143	0.001998	24.597	15.3846	-163.129	0.035795	0.401031	-0.624346	-0.625669	0.048298	24.597	-0.625819	-1.886245E+8	-2.560528E-10	NaN
777	1.000000	0.410327	7.37266e+06	-38989.1	1055.82	-29795.5	0.000000	0.000000	6.410864	-0.001295	NaN	0.000000	0.001672	0.001709	28.0826	0.020773	0.002150	9.663826	103.515	-166.478	0.017127	0.409040	-0.616374	-0.617660	-0.001295	9.663826	-0.616273	-1.394431E+8	9.285783E-12	NaN
777	1.000000	0.418369	7.37266e+06	-38989.1	1055.82	-29795.5	0.000000	0.000000	6.418908	0.038089	NaN	0.000000	0.001657	0.001700	28.083	0.179092	0.001987	90.1196	-15.1614	-164.238	0.067154	0.417052	-0.608331	-0.609649	0.038089	90.1196	-0.608648	-1.095251E+8	-3.477620E-10	NaN
777	1.000000	0.426342	7.37266e+06	-38989.1	1055.82	-29795.5	0.000000	0.000000	6.426878	-0.042811	NaN	0.000000	0.001659	0.001684	28.0827	0.017429	0.001996	8.731287	171.036	-163.969	-0.084863	0.425078	-0.600358	-0.601622	-0.042811	8.731287	-0.596681	-7.494392E+7	5.712354E-10	NaN
777	1.000000	0.434373	7.37266e+06	-38989.1	1055.82	-29795.5	0.000000	0.000000	6.434911	0.005438	NaN	0.000000	0.001611	0.001737	28.0827	0.121604	0.002004	60.6721	96.8795	-166.139	-0.045316	0.433079	-0.592328	-0.593621	0.005438	60.6721	-0.592395	-6.541506E+7	-8.312489E-11	NaN
777	1.000000	0.442361	7.37266e+06	-38989.1	1055.82	-29795.5	0.000000	0.000000	6.442896	-0.078061	NaN	0.000000	0.001631	0.001721	28.0825	0.078569	0.001849	42.4812	-21.2656	-163.844	-0.013445	0.441126	-0.584339	-0.585574	-0.078061	42.4812	-0.582961	-4.848235E+7	1.610089E-9	NaN
777	1.000000	0.450339	7.37266e+06	-38989.1	1055.82	-29795.5	0.000000	0.000000	6.450881	0.089620	NaN	0.000000	0.001611	0.001737	28.0828	0.098386	0.001930	50.9722	144.807	-163.648	0.064299	0.449033	-0.576361	-0.577667	0.089620	50.9722	-0.577680	-4.099183E+7	-2.186284E-9	NaN
777	1.000000	0.458381	7.37266e+06	-38989.1	1055.82	-29795.5	0.000000	0.000000	6.458919	0.005247	NaN	0.000000	0.001577	0.001793	28.0828	0.117243	0.002064	56.803	169.942	-167.494	0.085357	0.457054	-0.568319	-0.569647	0.005247	56.803	-0.568389	-3.050459E+7	-1.719954E-10	NaN
777	1.000000	0.466379	7.37266e+06	-38989.1	1055.82	-29795.5	0.000000	0.000000	6.466917	-0.009302	NaN	0.000000	0.001566	0.001724	28.0826	0.032359	0.002011	16.0884	-70.7033	-164.7	0.038238	0.465049	-0.560321	-0.561651	-0.009302	16.0884	-0.559887	-2.327118E+7	3.997398E-10	NaN
777	1.000000	0.474395	7.37266e+06	-38989.1	1055.82	-29795.5	0.000000	0.000000	6.474931	-0.041607	NaN	0.000000	0.001578	0.001689	28.0829	0.017342	0.002077	8.350501	-173.267	-164.265	-0.074806	0.473118	-0.552305	-0.553582	-0.041607	8.350501	-0.548568	-1.622271E+7	2.564744E-9	NaN
777	1.000000	0.482382	7.37266e+06	-38989.1	1055.82	-29795.5	0.000000	0.000000	6.482922	0.059335	NaN	0.000000	0.001612	0.001725	28.0828	0.062877	0.002018	31.1586	-115.532	-165.344	0.050470	0.481129	-0.544318	-0.545571	0.059335	31.1586	-0.545746	-1.482597E+7	-4.002121E-9	NaN
777	1.000000	0.490374	7.37266e+06	-38989.1	1055.82	-29795.5	0.000000	0.000000	6.490916	0.086434	NaN	0.000000	0.001566	0.001696	28.0832	0.076120	0.002087	36.4706	-130.892	-162.387	0.015144	0.489137	-0.536326	-0.537564	0.086434	36.4706	-0.538103	-1.161587E+7	-7.441046E-9	NaN
777	1.000000	0.498383	7.37266e+06	-38989.1	1055.82	-29795.5	0.000000	0.000000	6.498922	0.028303	NaN	0.000000	0.001591	0.001704	28.0828	0.044219	0.001950	22.673	-0.685579	-161.737	-0.002409	0.497118	-0.528317	-0.529582	0.028303	22.673	-0.529254	-8.75402e+06	-3.233179E-9	NaN
777	1.000000	0.506429	7.37266e+06	-38989.1	1055.82	-29795.5	0.000000	0.000000	6.506969	0.045079	NaN	0.000000	0.001598	0.001672	28.0825	0.069101	0.002008	34.4072	176.959	-165.376	0.079498	0.505071	-0.520271	-0.521629	0.045079	34.4072	-0.521254	-6.77694e+06	-6.651771E-9	NaN
777	1.000000	0.514397	7.37266e+06	-38989.1	1055.82	-29795.5	0.000000	0.000000	6.514934	-0.005060	NaN	0.000000	0.001578	0.001718	28.0824	0.100033	0.001971	50.7507	126.644	-165.941	0.097670	0.513129	-0.512303	-0.513572	-0.005060	50.7507	-0.512229	-5.0752e+06	9.969086E-10	NaN
777	1.000000	0.522411	7.37266e+06	-38989.1	1055.82	-29795.5	0.000000	0.000000	6.522948	-0.019864	NaN	0.000000	0.001593	0.001682	28.0824	0.077541	0.001964	39.4794	4.085736	-164.74	-0.002035	0.521121	-0.504289	-0.505579	-0.019864	39.4794	-0.503912	-3.88668e+06	5.110724E-9	NaN
777	1.000000	0.530465	7.37266e+06	-38989.1	1055.82	-29795.5	0.000000	0.000000	6.531005	0.059583	NaN	0.000000	0.001584	0.001696	28.0837	0.043189	0.002033	21.2401	-100.471	-165.687	-0.009756	0.529075	-0.496235	-0.497625	0.059583	21.2401	-0.498339	-3.2497e+06	-1.833504E-8	NaN
777	1.000000	0.538388	7.37266e+06	-38989.1	1055.82	-29795.5	0.000000	0.000000	6.538927	0.033879	NaN	0.000000	0.001611	0.001709	28.0836	0.061514	0.002038	30.1884	127.181	-163.77	-1.920024E-5	0.537115	-0.488312	-0.489586	0.033879	30.1884	-0.489154	-2.41861e+06	-1.400781E-8	NaN
777	1.000000	0.546408	7.37266e+06	-38989.1	1055.82	-29795.5	0.000000	0.000000	6.546948	0.067250	NaN	0.000000	0.001606	0.001714	28.0839	0.054545	0.001903	28.6671	-14.9975	-166.577	0.064641	0.545056	-0.480293	-0.481644	0.067250	28.6671	-0.482052	-1.92419e+06	-3.494966E-8	NaN
777	1.000000	0.554426	7.37266e+06	-38989.1	1055.82	-29795.5	0.000000	0.000000	6.554963	-0.017990	NaN	0.000000	0.001606	0.001717	28.0837	0.042470	0.001950	21.7827	126.355	-165.786	-0.074310	0.553108	-0.472274	-0.473593	-0.017990	21.7827	-0.471655	-1.37599e+06	1.307417E-8	NaN
777	1.000000	0.562425	7.37266e+06	-38989.1	1055.82	-29795.5	0.000000	0.000000	6.562960	-0.056797	NaN	0.000000	0.001613	0.001660	28.0838	0.006571	0.002039	3.222937	-58.0157	-168.701	0.118255	0.561108	-0.464275	-0.465592	-0.056797	3.222937	-0.451058	-706719	8.036688E-8	NaN
777	1.000000	0.570417	7.37266e+06	-38989.1	1055.82	-29795.5	0.000000	0.000000	6.570954	-0.003216	NaN	0.000000	0.001599	0.001695	28.0837	0.041108	0.001915	21.4644	-4.771922	-163.022	0.052429	0.569106	-0.456283	-0.457594	-0.003216	21.4644	-0.456171	-834046	3.855379E-9	NaN
777	1.000000	0.578465	7.37266e+06	-38989.1	1055.82	-29795.5	0.000000	0.000000	6.579002	-0.025627	NaN	0.000000	0.001611	0.001699	28.0834	0.041707	0.002033	20.5117	102.759	-164.245	-0.049683	0.577076	-0.448235	-0.449624	-0.025627	20.5117	-0.447298	-625572	4.096566E-8	NaN
777	1.000000	0.586446	7.37266e+06	-38989.1	1055.82	-29795.5	0.000000	0.000000	6.586983	-0.013043	NaN	0.000000	0.001580	0.001711	28.084	0.022573	0.001937	11.6542	136.381	-166.481	-0.027223	0.585134	-0.440254	-0.441566	-0.013043	11.6542	-0.439415	-484289	2.693192E-8	NaN
777	1.000000	0.594440	7.37266e+06	-38989.1	1055.82	-29795.5	0.000000	0.000000	6.594981	0.061148	NaN	0.000000	0.001603	0.001668	28.0837	0.082212	0.002006	40.9784	42.753	-164.777	0.065538	0.593116	-0.432260	-0.433584	0.061148	40.9784	-0.433379	-397966	-1.536508E-7	NaN
777	1.000000	0.602426	7.37266e+06	-38989.1	1055.82	-29795.5	0.000000	0.000000	6.602963	-0.012305	NaN	0.000000	0.001597	0.001673	28.0839	0.137503	0.002126	64.6713	106.471	-164.573	-0.052657	0.601141	-0.424274	-0.425559	-0.012305	64.6713	-0.424132	-294428	4.179162E-8	NaN
777	1.000000	0.610467	7.37266e+06	-38989.1	1055.82	-29795.5	0.000000	0.000000	6.611005	0.019108	NaN	0.000000	0.001607	0.001665	28.0836	0.044428	0.001989	22.3408	-132.301	-166.456	0.051109	0.609124	-0.416234	-0.417576	0.019108	22.3408	-0.416875	-232315	-8.224989E-8	NaN
777	1.000000	0.618469	7.37266e+06	-38989.1	1055.82	-29795.5	0.000000	0.000000	6.619006	-0.023684	NaN	0.000000	0.001581	0.001670	28.0836	0.082087	0.002026	40.5225	-60.177	-161.071	0.015619	0.617155	-0.408231	-0.409545	-0.023684	40.5225	-0.407793	-172585	1.372305E-7	NaN
777	1.000000	0.626473	7.37266e+06	-38989.1	1055.82	-29795.5	0.000000	0.000000	6.627014	0.069211	NaN	0.000000	0.001580	0.001666	28.0839	0.016644	0.002011	8.274933	177.31	-164.56	0.073988	0.625065	-0.400227	-0.401635	0.069211	8.274933	-0.406500	-165426	-4.183825E-7	NaN
777	1.000000	0.634430	7.37266e+06	-38989.1	1055.82	-29795.5	0.000000	0.000000	6.634966	-0.047610	NaN	0.000000	0.001579	0.001654	28.0837	0.051008	0.001899	26.8567	121.885	-163.022	0.022822	0.633121	-0.392270	-0.393580	-0.047610	26.8567	-0.390941	-99224.8	4.798189E-7	NaN
777	1.000000	0.642454	7.37266e+06	-38989.1	1055.82	-29795.5	0.000000	0.000000	6.642992	0.011951	NaN	0.000000	0.001568	0.001725	28.0844	0.179954	0.002141	84.0661	60.373	-167.207	0.002827	0.641190	-0.384247	-0.385510	0.011951	84.0661	-0.384353	-79858.4	-1.496489E-7	NaN
777	1.000000	0.650446	7.37266e+06	-38989.1	1055.82	-29795.5	0.000000	0.000000	6.650985	0.032674	NaN	0.000000	0.001581	0.001715	28.0837	0.153095	0.002111	72.52	-133.817	-162.219	-0.061317	0.649179	-0.376254	-0.377521	0.032674	72.52	-0.376592	-61794.4	-5.287593E-7	NaN
777	1.000000	0.658486	7.37266e+06	-38989.1	1055.82	-29795.5	0.000000	0.000000	6.659027	0.077960	NaN	0.000000	0.001627	0.001700	28.0838	0.145305	0.002060	70.5265	89.4768	-162.788	0.071160	0.657146	-0.368214	-0.369555	0.077960	70.5265	-0.369043	-48121.6	-1.620057E-6	NaN
777	1.000000	0.666456	7.37266e+06	-38989.1	1055.82	-29795.5	0.000000	0.000000	6.666994	0.009759	NaN	0.000000	0.001654	0.001694	28.083	0.082202	0.001828	44.9726	179.974	-166.081	0.038906	0.665161	-0.360244	-0.361539	0.009759	44.9726	-0.360407	-36118.5	-2.701938E-7	NaN
777	1.000000	0.674475	7.37266e+06	-38989.1	1055.82	-29795.5	0.000000	0.000000	6.675009	-0.080158	NaN	0.000000	0.001575	0.001693	28.0825	0.033546	0.001883	17.8158	-78.5269	-164.879	-0.156827	0.673222	-0.352225	-0.353478	-0.080158	17.8158	-0.348851	-24565.3	3.263059E-6	NaN
777	1.000000	0.682439	7.37266e+06	-38989.1	1055.82	-29795.5	0.000000	0.000000	6.682976	-0.022311	NaN	0.000000	0.001639	0.001691	28.0829	0.062420	0.002013	31.0039	-17.2703	-163.467	-0.047342	0.681164	-0.344261	-0.345537	-0.022311	31.0039	-0.343722	-20690	1.078328E-6	NaN
777	1.000000	0.690480	7.37266e+06	-38989.1	1055.82	-29795.5	0.000000	0.000000	6.691016	-0.034978	NaN	0.000000	0.001616	0.001730	28.0828	0.097391	0.002071	47.0172	36.9791	-167.13	-0.099736	0.689213	-0.336220	-0.337488	-0.034978	47.0172	-0.335662	-15785.5	2.215836E-6	NaN
777	1.000000	0.698465	7.37266e+06	-38989.1	1055.82	-29795.5	0.000000	0.000000	6.699003	0.013431	NaN	0.000000	0.001599	0.001752	28.083	0.126259	0.001886	66.9291	-125.146	-162.604	0.052917	0.697188	-0.328235	-0.329512	0.013431	66.9291	-0.328386	-12353.9	-1.087227E-6	NaN
777	1.000000	0.706483	7.37266e+06	-38989.1	1055.82	-29795.5	0.000000	0.000000	6.707020	-0.009010	NaN	0.000000	0.001646	0.001666	28.0829	0.020439	0.002061	9.917249	120.757	-163.007	-0.079287	0.705170	-0.320217	-0.321530	-0.009010	9.917249	-0.319536	-9158.14	9.838280E-7	NaN
777	1.000000	0.714481	7.37266e+06	-38989.1	1055.82	-29795.5	0.000000	0.000000	6.715019	0.006484	NaN	0.000000	0.001625	0.001696	28.0828	0.097974	0.002102	46.6012	138.852	-165.087	0.003943	0.713161	-0.312219	-0.313540	0.006484	46.6012	-0.312323	-7168.3	-9.045785E-7	NaN
777	1.000000	0.722522	7.37266e+06	-38989.1	1055.82	-29795.5	0.000000	0.000000	6.723058	-0.028451	NaN	0.000000	0.001632	0.001716	28.0826	0.022864	0.002008	11.3846	16.954	-164.006	-0.020664	0.721210	-0.304179	-0.305490	-0.028451	11.3846	-0.302304	-5092.32	5.586946E-6	NaN
777	1.000000	0.730486	7.37266e+06	-38989.1	1055.82	-29795.5	0.000000	0.000000	6.731025	0.020522	NaN	0.000000	0.001611	0.001725	28.0828	0.132438	0.001982	66.8313	-31.4121	-165.051	0.008871	0.729226	-0.296214	-0.297474	0.020522	66.8313	-0.296445	-4165.34	-4.926865E-6	NaN
777	1.000000	0.738494	7.37266e+06	-38989.1	1055.82	-29795.5	0.000000	0.000000	6.739029	-0.057629	NaN	0.000000	0.001602	0.001712	28.0829	0.061473	0.002055	29.9207	-120.823	-164.112	-0.013392	0.737184	-0.288206	-0.289516	-0.057629	29.9207	-0.286762	-2983.55	1.931566E-5	NaN
777	1.000000	0.746497	7.37266e+06	-38989.1	1055.82	-29795.5	0.000000	0.000000	6.747036	0.017037	NaN	0.000000	0.001573	0.001719	28.0826	0.088671	0.001970	45.0207	149.595	-167.962	-0.004196	0.745209	-0.280203	-0.281491	0.017037	45.0207	-0.280487	-2400.55	-7.097210E-6	NaN
777	1.000000	0.754504	7.37266e+06	-38989.1	1055.82	-29795.5	0.000000	0.000000	6.755043	0.031954	NaN	0.000000	0.001613	0.001684	28.0828	0.014191	0.001875	7.569356	-10.6331	-163.274	0.055039	0.753214	-0.272196	-0.273486	0.031954	7.569356	-0.275363	-2008.59	-1.590885E-5	NaN
777	1.000000	0.762496	7.37266e+06	-38989.1	1055.82	-29795.5	0.000000	0.000000	6.763034	-0.000462	NaN	0.000000	0.001585	0.001702	28.0825	0.031816	0.002087	15.2419	-64.9367	-165.56	0.057487	0.761193	-0.264204	-0.265507	-0.000462	15.2419	-0.264181	-1357.96	3.400596E-7	NaN
777	1.000000	0.770552	7.37266e+06	-38989.1	1055.82	-29795.5	0.000000	0.000000	6.771092	0.060990	NaN	0.000000	0.001568	0.001721	28.0826	0.065509	0.001954	33.5258	64.8173	-164.464	0.042764	0.769150	-0.256148	-0.257550	0.060990	33.5258	-0.257513	-1073.37	-5.682093E-5	NaN
777	1.000000	0.778521	7.37266e+06	-38989.1	1055.82	-29795.5	0.000000	0.000000	6.779056	-0.070728	NaN	0.000000	0.001563	0.001729	28.0826	0.029434	0.001852	15.8939	-56.0644	-161.159	0.018960	0.777229	-0.248179	-0.249471	-0.070728	15.8939	-0.244842	-683.896	0.000103	NaN
777	1.000000	0.786537	7.37266e+06	-38989.1	1055.82	-29795.5	0.000000	0.000000	6.787078	0.074632	NaN	0.000000	0.001558	0.001746	28.0825	0.156998	0.002122	74.003	172.921	-168.153	0.033580	0.785216	-0.240163	-0.241484	0.074632	74.003	-0.240919	-594.165	-0.000126	NaN
777	1.000000	0.794522	7.37266e+06	-38989.1	1055.82	-29795.5	0.000000	0.000000	6.795058	-0.044875	NaN	0.000000	0.001554	0.001729	28.0824	0.132205	0.002151	61.4664	-170.273	-163.836	-0.028454	0.793175	-0.232179	-0.233525	-0.044875	61.4664	-0.231631	-424.863	0.000106	NaN
777	1.000000	0.802563	7.37266e+06	-38989.1	1055.82	-29795.5	0.000000	0.000000	6.803102	0.010575	NaN	0.000000	0.001583	0.001712	28.083	0.017465	0.001960	8.910600	161.33	-165.863	0.052731	0.801266	-0.224137	-0.225435	0.010575	8.910600	-0.225027	-334.012	-3.166132E-5	NaN
777	1.000000	0.810549	7.37266e+06	-38989.1	1055.82	-29795.5	0.000000	0.000000	6.811086	-0.024773	NaN	0.000000	0.001584	0.001757	28.0839	0.080631	0.002016	40.0008	62.1231	-163.745	-0.129317	0.809213	-0.216151	-0.217487	-0.024773	40.0008	-0.215687	-236.894	0.000105	NaN
777	1.000000	0.818536	7.37266e+06	-38989.1	1055.82	-29795.5	0.000000	0.000000	6.819074	0.009917	NaN	0.000000	0.001583	0.001731	28.0837	0.058351	0.002019	28.8938	0.719137	-164.676	0.013535	0.817199	-0.208164	-0.209501	0.009917	28.8938	-0.208421	-180.811	-5.484758E-5	NaN
777	1.000000	0.826510	7.37266e+06	-38989.1	1055.82	-29795.5	0.000000	0.000000	6.827047	-0.021046	NaN	0.000000	0.001582	0.001716	28.0837	0.063508	0.001954	32.509	154.51	-165.021	0.040349	0.825237	-0.200190	-0.201463	-0.021046	32.509	-0.199704	-130.269	0.000162	NaN
777	1.000000	0.834536	7.37266e+06	-38989.1	1055.82	-29795.5	0.000000	0.000000	6.835074	-0.014373	NaN	0.000000	0.001605	0.001712	28.084	0.102856	0.001964	52.3618	-95.9272	-164.331	0.042206	0.833217	-0.192164	-0.193483	-0.014373	52.3618	-0.191958	-96.9797	0.000148	NaN
777	1.000000	0.842547	7.37266e+06	-38989.1	1055.82	-29795.5	0.000000	0.000000	6.843086	0.025478	NaN	0.000000	0.001639	0.001726	28.0838	0.100620	0.002096	48.0018	-138.273	-165.086	0.059503	0.841247	-0.184153	-0.185454	0.025478	48.0018	-0.184551	-72.8736	-0.000350	NaN
777	1.000000	0.850569	7.37266e+06	-38989.1	1055.82	-29795.5	0.000000	0.000000	6.851108	0.019895	NaN	0.000000	0.001607	0.001749	28.0842	0.088117	0.002021	43.5938	-131.734	-162.37	0.099496	0.849219	-0.176131	-0.177481	0.019895	43.5938	-0.176473	-53.1203	-0.000375	NaN
777	1.000000	0.858562	7.37266e+06	-38989.1	1055.82	-29795.5	0.000000	0.000000	6.859100	0.020379	NaN	0.000000	0.001590	0.001734	28.0839	0.063299	0.001897	33.366	173.557	-165.366	-0.004979	0.857220	-0.168139	-0.169481	0.020379	33.366	-0.168597	-38.8337	-0.000525	NaN
777	1.000000	0.866576	7.37266e+06	-38989.1	1055.82	-29795.5	0.000000	0.000000	6.867113	-0.006449	NaN	0.000000	0.001620	0.001704	28.0836	0.087725	0.002147	40.8577	77.1406	-166.954	-0.014328	0.865291	-0.160125	-0.161409	-0.006449	40.8577	-0.160006	-27.4219	0.000235	NaN
777	1.000000	0.874509	7.37266e+06	-38989.1	1055.82	-29795.5	0.000000	0.000000	6.875046	-0.023401	NaN	0.000000	0.001620	0.001730	28.084	0.020987	0.002100	9.993735	-71.4178	-165.001	-0.015458	0.873304	-0.152191	-0.153396	-0.023401	9.993735	-0.150435	-18.4473	0.001269	NaN
777	1.000000	0.882569	7.37266e+06	-38989.1	1055.82	-29795.5	0.000000	0.000000	6.883106	-0.022879	NaN	0.000000	0.001628	0.001721	28.0837	0.148554	0.001888	78.6836	-77.5932	-163.695	-0.028208	0.881191	-0.144131	-0.145509	-0.022879	78.6836	-0.143913	-13.9967	0.001635	NaN
777	1.000000	0.890553	7.37266e+06	-38989.1	1055.82	-29795.5	0.000000	0.000000	6.891090	-0.020399	NaN	0.000000	0.001637	0.001733	28.0843	0.021050	0.001893	11.1169	-49.6361	-164.164	-0.050177	0.889304	-0.136147	-0.137397	-0.020399	11.1169	-0.134771	-9.417092	0.002166	NaN
777	1.000000	0.898556	7.37266e+06	-38989.1	1055.82	-29795.5	0.000000	0.000000	6.899094	0.015829	NaN	0.000000	0.001622	0.001715	28.0839	0.120610	0.001835	65.728	158.293	-164.863	0.027761	0.897230	-0.128144	-0.129471	0.015829	65.728	-0.128325	-7.069318	-0.002239	NaN
777	1.000000	0.906561	7.37266e+06	-38989.1	1055.82	-29795.5	0.000000	0.000000	6.907097	-0.040872	NaN	0.000000	0.001640	0.001723	28.0839	0.116239	0.001992	58.3555	-30.8069	-161.977	-0.047561	0.905266	-0.120139	-0.121434	-0.040872	58.3555	-0.119614	-4.745554	0.008613	NaN
777	1.000000	0.914551	7.37266e+06	-38989.1	1055.82	-29795.5	0.000000	0.000000	6.915087	-0.049804	NaN	0.000000	0.001660	0.001707	28.084	0.039656	0.002056	19.2861	-19.1952	-161.485	-0.028718	0.913218	-0.112149	-0.113482	-0.049804	19.2861	-0.110213	-3.036366	0.016403	NaN
777	1.000000	0.922570	7.37266e+06	-38989.1	1055.82	-29795.5	0.000000	0.000000	6.923107	-0.003447	NaN	0.000000	0.001665	0.001744	28.0839	0.095639	0.002003	47.7495	-111.485	-164.101	0.036653	0.921278	-0.104131	-0.105423	-0.003447	47.7495	-0.104076	-2.244794	0.001536	NaN
777	1.000000	0.930578	7.37266e+06	-38989.1	1055.82	-29795.5	0.000000	0.000000	6.931118	0.034658	NaN	0.000000	0.001666	0.001750	28.0842	0.065214	0.001900	34.3173	6.144100	-162.907	-0.006984	0.929340	-0.096122	-0.097360	0.034658	34.3173	-0.096879	-1.556005	-0.022274	NaN
777	1.000000	0.938548	7.37266e+06	-38989.1	1055.82	-29795.5	0.000000	0.000000	6.939085	-0.029611	NaN	0.000000	0.001627	0.001720	28.0833	0.129955	0.001967	66.0603	21.2622	-168.06	0.020386	0.937299	-0.088152	-0.089402	-0.029611	66.0603	-0.087816	-0.959896	0.030848	NaN
777	1.000000	0.946611	7.37266e+06	-38989.1	1055.82	-29795.5	0.000000	0.000000	6.947149	0.012599	NaN	0.000000	0.001581	0.001713	28.0835	0.102084	0.002117	48.2319	-144.4	-166.825	0.028536	0.945302	-0.080089	-0.081398	0.012599	48.2319	-0.080285	-0.629233	-0.020022	NaN
777	1.000000	0.954562	7.37266e+06	-38989.1	1055.82	-29795.5	0.000000	0.000000	6.955099	-0.022118	NaN	0.000000	0.001669	0.001719	28.0827	0.075445	0.002067	36.4936	-158.739	-167.754	-0.017317	0.953262	-0.072138	-0.073439	-0.022118	36.4936	-0.071684	-0.378210	0.058480	NaN
777	1.000000	0.962585	7.37266e+06	-38989.1	1055.82	-29795.5	0.000000	0.000000	6.963122	-0.010092	NaN	0.000000	0.001664	0.001711	28.0825	0.104156	0.001957	53.2268	124.711	-161.818	-0.074866	0.961257	-0.064116	-0.065443	-0.010092	53.2268	-0.063973	-0.233345	0.043250	NaN
777	1.000000	0.970575	7.37266e+06	-38989.1	1055.82	-29795.5	0.000000	0.000000	6.971111	-0.053278	NaN	0.000000	0.001621	0.001732	28.0826	0.094531	0.002060	45.8848	-131.929	-166.925	0.004030	0.969283	-0.056125	-0.057418	-0.053278	45.8848	-0.055254	-0.131023	0.406628	NaN
777	1.000000	0.978587	7.37266e+06	-38989.1	1055.82	-29795.5	0.000000	0.000000	6.979124	-0.016323	NaN	0.000000	0.001633	0.001737	28.0825	0.117353	0.002004	58.5712	59.2017	-164.285	-0.042174	0.977281	-0.048114	-0.049420	-0.016323	58.5712	-0.047905	-0.078823	0.207079	NaN
777	1.000000	0.986593	7.37266e+06	-38989.1	1055.82	-29795.5	0.000000	0.000000	6.987130	-0.005861	NaN	0.000000	0.001611	0.001743	28.0827	0.054854	0.001983	27.6571	-156.833	-167.876	-0.008254	0.985288	-0.040108	-0.041412	-0.005861	27.6571	-0.039949	-0.045060	0.130071	NaN
777	1.000000	0.994593	7.37266e+06	-38989.1	1055.82	-29795.5	0.000000	0.000000	6.995131	0.006961	NaN	0.000000	0.001625	0.001721	28.0826	0.149792	0.002051	73.0434	-34.732	-164.377	0.032229	0.993324	-0.032107	-0.033377	0.006961	73.0434	-0.032178	-0.026516	-0.262510	NaN
777	1.000000	1.002608	7.37266e+06	-38989.1	1055.82	-29795.5	0.000000	0.000000	7.003145	-0.012437	NaN	0.000000	0.001654	0.001745	28.0825	0.061378	0.001914	32.064	-132.635	-167.203	-0.009544	1.001260	-0.024093	-0.025440	-0.012437	32.064	-0.023802	-0.015705	0.791936	NaN
777	1.000000	1.010608	7.37266e+06	-38989.1	1055.82	-29795.5	0.000000	0.000000	7.011145	-0.015084	NaN	0.000000	0.001633	0.001766	28.0826	0.069418	0.001991	34.8586	135.468	-165.804	0.013234	1.009325	-0.016092	-0.017375	-0.015084	34.8586	-0.015768	-0.009740	1.548645	NaN
777	1.000000	1.018613	7.37266e+06	-38989.1	1055.82	-29795.5	0.000000	0.000000	7.019152	0.039169	NaN	0.000000	0.001652	0.001730	28.0824	0.096411	0.002063	46.7308	-106.833	-161.246	0.011040	1.017290	-0.008087	-0.009410	0.039169	46.7308	-0.008716	-0.005649	-6.934007	NaN
777	1.000000	1.026560	7.37266e+06	-38989.1	1055.82	-29795.5	0.000000	0.000000	7.027158	1.469504	NaN	0.000000	0.001673	0.001730	28.0825	2.061776	0.001858	1109.53	10.9956	-168.952	0.394683	1.025233	-0.000140	-0.001467	1.469504	1109.53	-0.001133	-0.000829	-1772.78	NaN
777	2.000000	1.033080	7.37266e+06	-38989.1	1055.82	-29795.5	0.000000	0.000000	7.034120	12.2209	NaN	0.000000	0.001618	0.001753	28.0824	9.125273	0.001600	5704.06	7.402613	-174.438	11.3233	1.032755	0.006380	0.006055	12.2209	5704.06	0.004773	0.003927	3112.07	83163.1
777	2.000000	1.035125	7.37266e+06	-38989.1	1055.82	-29795.5	0.000000	0.000000	7.036328	16.1946	NaN	0.000000	0.001619	0.001734	28.0825	11.6713	0.001689	6911	5.815164	-173.681	15.5771	1.034748	0.008425	0.008048	16.1946	6911	0.006667	0.005707	2837.6	83580.4
777	2.000000	1.037088	7.37266e+06	-38989.1	1055.82	-29795.5	0.000000	0.000000	7.038441	19.8417	NaN	0.000000	0.001667	0.001759	28.0824	13.5837	0.001626	8352.55	11.6935	-177.828	21.0219	1.036778	0.010388	0.010078	19.8417	8352.55	0.008606	0.007674	2585.74	87115.5
777	2.000000	1.039037	7.37266e+06	-38989.1	1055.82	-29795.5	0.000000	0.000000	7.040406	20.2397	NaN	0.000000	0.001671	0.001744	28.0825	15.2949	0.001791	8540.6	4.476989	-171.919	20.1805	1.038774	0.012337	0.012073	20.2397	8540.6	0.010559	0.009810	2063.26	78783.8
777	2.000000	1.041082	7.37266e+06	-38989.1	1055.82	-29795.5	0.000000	0.000000	7.042617	24.2779	NaN	0.000000	0.001676	0.001738	28.0828	17.4543	0.001833	9524.52	5.657908	-173.168	23.4078	1.040745	0.014381	0.014045	24.2779	9524.52	0.012470	0.012057	2013.53	79248.1
777	2.000000	1.043020	7.37266e+06	-38989.1	1055.82	-29795.5	0.000000	0.000000	7.044926	33.2933	NaN	0.000000	0.001688	0.001766	28.0826	20.0157	0.001782	11232.8	6.998566	-178.009	32.1144	1.042759	0.016319	0.016058	33.2933	11232.8	0.014097	0.014099	2361.33	86429.6
777	2.000000	1.044989	7.37266e+06	-38989.1	1055.82	-29795.5	0.000000	0.000000	7.046737	29.4569	NaN	0.000000	0.001697	0.001743	28.0837	21.4154	0.001789	11971.4	5.228564	-177.054	27.1643	1.044698	0.018289	0.017998	29.4569	11971.4	0.016443	0.017258	1706.84	83257
777	2.000000	1.047044	7.37266e+06	-38989.1	1055.82	-29795.5	0.000000	0.000000	7.049040	35.5012	NaN	0.000000	0.001676	0.001736	28.0835	23.0215	0.001812	12704.7	5.129980	-176.813	35.178	1.046726	0.020343	0.020025	35.5012	12704.7	0.018248	0.019863	1787.29	82359.5
777	2.000000	1.049052	7.37266e+06	-38989.1	1055.82	-29795.5	0.000000	0.000000	7.051183	38.7803	NaN	0.000000	0.001726	0.001701	28.0838	25.1797	0.001834	13727.2	3.003152	-175.147	39.3565	1.048718	0.022351	0.022017	38.7803	13727.2	0.020233	0.022909	1692.78	82861.1
777	2.000000	1.051074	7.37266e+06	-38989.1	1055.82	-29795.5	0.000000	0.000000	7.053489	45.6784	NaN	0.000000	0.001703	0.001730	28.0837	26.713	0.001706	15660.3	6.793370	-179.712	46.3575	1.050612	0.024374	0.023912	45.6784	15660.3	0.022187	0.026095	1750.45	88571.2
777	2.000000	1.053037	7.37266e+06	-38989.1	1055.82	-29795.5	0.000000	0.000000	7.055663	50.8017	NaN	0.000000	0.001703	0.001763	28.0834	28.5285	0.001874	15224.5	5.296893	-176.949	52.161	1.052690	0.026337	0.025990	50.8017	15224.5	0.023834	0.028929	1756.06	81780.1
777	2.000000	1.055004	7.37266e+06	-38989.1	1055.82	-29795.5	0.000000	0.000000	7.057723	53.097	NaN	0.000000	0.001713	0.001788	28.0835	30.8997	0.001807	17104.3	4.778850	-178.356	52.1907	1.054700	0.028304	0.028000	53.097	17104.3	0.025975	0.032814	1618.13	86268
777	2.000000	1.057034	7.37266e+06	-38989.1	1055.82	-29795.5	0.000000	0.000000	7.059946	57.7947	NaN	0.000000	0.001712	0.001734	28.0837	31.6709	0.001705	18572.4	6.434392	178.886	57.8921	1.056786	0.030333	0.030086	57.7947	18572.4	0.028000	0.036699	1574.81	88575.1
777	2.000000	1.058970	7.37266e+06	-38989.1	1055.82	-29795.5	0.000000	0.000000	7.062369	69.6433	NaN	0.000000	0.001706	0.001760	28.0838	34.9878	0.001710	20459.4	6.903335	176.119	66.7992	1.058615	0.032269	0.031915	69.6433	20459.4	0.029716	0.040158	1734.23	93278.3
777	2.000000	1.060989	7.37266e+06	-38989.1	1055.82	-29795.5	0.000000	0.000000	7.064299	67.4751	NaN	0.000000	0.001717	0.001784	28.0838	36.7752	0.001991	18471.7	4.474375	-178.388	64.148	1.060691	0.034288	0.033991	67.4751	18471.7	0.031549	0.044015	1533.01	80441.3
777	2.000000	1.062958	7.37266e+06	-38989.1	1055.82	-29795.5	0.000000	0.000000	7.066798	80.3705	NaN	0.000000	0.001707	0.001721	28.0836	38.6774	0.001768	21874.3	7.444497	175.409	78.2947	1.062668	0.036258	0.035968	80.3705	21874.3	0.033502	0.048316	1663.44	90920.8
777	2.000000	1.065066	7.37266e+06	-38989.1	1055.82	-29795.5	0.000000	0.000000	7.069059	84.0916	NaN	0.000000	0.001716	0.001746	28.0837	40.4625	0.001864	21701.9	4.554160	179.257	86.2912	1.064765	0.038365	0.038064	84.0916	21701.9	0.035459	0.052821	1592.02	86271.8
777	2.000000	1.066957	7.37266e+06	-38989.1	1055.82	-29795.5	0.000000	0.000000	7.071502	97.5053	NaN	0.000000	0.001754	0.001744	28.0837	41.3368	0.001680	24608.1	3.418694	178.617	95.4509	1.066611	0.040257	0.039911	97.5053	24608.1	0.037285	0.057201	1704.62	94004.9
777	2.000000	1.068969	7.37266e+06	-38989.1	1055.82	-29795.5	0.000000	0.000000	7.073960	108.376	NaN	0.000000	0.001737	0.001710	28.0839	44.3995	0.001840	24123.8	2.493170	-179.812	106.777	1.068561	0.042269	0.041860	108.376	24123.8	0.038900	0.061215	1770.41	89081.8
777	2.000000	1.071066	7.37266e+06	-38989.1	1055.82	-29795.5	0.000000	0.000000	7.076135	110.263	NaN	0.000000	0.001739	0.001709	28.084	46.3065	0.001758	26341.3	7.993466	174.924	112.684	1.070701	0.044366	0.044001	110.263	26341.3	0.041226	0.067236	1639.93	92812.9
777	2.000000	1.072943	7.37266e+06	-38989.1	1055.82	-29795.5	0.000000	0.000000	7.078140	113.394	NaN	0.000000	0.001727	0.001721	28.0841	47.2747	0.001864	25364.5	2.622621	-179.776	111.958	1.072635	0.046243	0.045935	113.394	25364.5	0.042890	0.071710	1581.28	86538.6
777	2.000000	1.074945	7.37266e+06	-38989.1	1055.82	-29795.5	0.000000	0.000000	7.080731	127.718	NaN	0.000000	0.001695	0.001720	28.0838	49.4878	0.001785	27726.1	4.756806	176.967	125.881	1.074622	0.048245	0.047922	127.718	27726.1	0.044790	0.076992	1658.86	91293.3
777	2.000000	1.076964	7.37266e+06	-38989.1	1055.82	-29795.5	0.000000	0.000000	7.082760	127.965	NaN	0.000000	0.001700	0.001711	28.0838	50.224	0.001681	29876.8	4.193944	176.333	126.983	1.076823	0.050264	0.050123	127.965	29876.8	0.047051	0.083517	1532.2	94453.9
777	2.000000	1.079035	7.37266e+06	-38989.1	1055.82	-29795.5	0.000000	0.000000	7.085247	138.103	NaN	0.000000	0.001664	0.001737	28.0827	53.339	0.001796	29693.3	4.384175	176.849	139.938	1.078694	0.052334	0.051994	138.103	29693.3	0.048846	0.088880	1553.82	90997.6
777	2.000000	1.080926	7.37266e+06	-38989.1	1055.82	-29795.5	0.000000	0.000000	7.087880	156.139	NaN	0.000000	0.001634	0.001704	28.0827	54.1669	0.001731	31293.4	0.291155	-179.327	153.769	1.080661	0.054226	0.053960	156.139	31293.4	0.050483	0.093913	1662.59	93295.9
777	2.000000	1.082984	7.37266e+06	-38989.1	1055.82	-29795.5	0.000000	0.000000	7.090392	167.2	NaN	0.000000	0.001602	0.001745	28.0827	56.883	0.001770	32145	7.630633	173.148	168.299	1.082749	0.056284	0.056049	167.2	32145	0.052383	0.099920	1673.34	92909.7
777	2.000000	1.085073	7.37266e+06	-38989.1	1055.82	-29795.5	0.000000	0.000000	7.092366	164.391	NaN	0.000000	0.001599	0.001744	28.0826	59.8134	0.001865	32077.8	5.020767	176.11	171.629	1.084741	0.058372	0.058040	164.391	32077.8	0.054529	0.106924	1537.46	89627.4
777	2.000000	1.086906	7.37266e+06	-38989.1	1055.82	-29795.5	0.000000	0.000000	7.095025	184.497	NaN	0.000000	0.001623	0.001708	28.0824	59.7598	0.001824	32756.8	1.606402	179.109	181.763	1.086732	0.060206	0.060032	184.497	32756.8	0.055982	0.111795	1650.32	89508.5
777	2.000000	1.088927	7.37266e+06	-38989.1	1055.82	-29795.5	0.000000	0.000000	7.097581	197.518	NaN	0.000000	0.001632	0.001721	28.0826	62.9746	0.001919	32814.1	5.346837	174.739	194.496	1.088593	0.062226	0.061893	197.518	32814.1	0.057712	0.117731	1677.7	87375.2
777	2.000000	1.091019	7.37266e+06	-38989.1	1055.82	-29795.5	0.000000	0.000000	7.099951	204.285	NaN	0.000000	0.001605	0.001752	28.0828	64.5958	0.001843	35056.9	4.193441	176.232	206.507	1.090694	0.064319	0.063993	204.285	35056.9	0.059948	0.125623	1626.18	90367.5
777	2.000000	1.092925	7.37266e+06	-38989.1	1055.82	-29795.5	0.000000	0.000000	7.102621	222.863	NaN	0.000000	0.001614	0.001733	28.0827	65.2179	0.001748	37314.8	3.064275	176.722	221.724	1.092668	0.066225	0.065968	222.863	37314.8	0.061746	0.132142	1686.54	93785.1
777	2.000000	1.094904	7.37266e+06	-38989.1	1055.82	-29795.5	0.000000	0.000000	7.104853	229.008	NaN	0.000000	0.001605	0.001720	28.0831	68.6043	0.001783	38480.6	3.713212	175.372	227.144	1.094614	0.068204	0.067913	229.008	38480.6	0.063741	0.139562	1640.91	94108.9
777	2.000000	1.096975	7.37266e+06	-38989.1	1055.82	-29795.5	0.000000	0.000000	7.107542	244.069	NaN	0.000000	0.001619	0.001740	28.0827	69.9653	0.001764	39665	8.833985	170.165	244.271	1.096601	0.070274	0.069901	244.069	39665	0.065659	0.146881	1661.68	94558
777	2.000000	1.098997	7.37266e+06	-38989.1	1055.82	-29795.5	0.000000	0.000000	7.110107	257.273	NaN	0.000000	0.001614	0.001754	28.0824	71.5589	0.001793	39904	4.727481	175.096	258.586	1.098577	0.072297	0.071876	257.273	39904	0.067461	0.153914	1671.54	92929
777	2.000000	1.101103	7.37266e+06	-38989.1	1055.82	-29795.5	0.000000	0.000000	7.112428	262.517	NaN	0.000000	0.001649	0.001742	28.0826	75.1671	0.001831	41057.8	11.0623	167.833	268.226	1.100711	0.074403	0.074011	262.517	41057.8	0.069608	0.162495	1615.53	93056.8
777	2.000000	1.102959	7.37266e+06	-38989.1	1055.82	-29795.5	0.000000	0.000000	7.114870	276.773	NaN	0.000000	0.001600	0.001701	28.0825	75.0568	0.001715	43770.8	3.880686	174.447	277.064	1.102544	0.076259	0.075843	276.773	43770.8	0.071516	0.170310	1625.11	96903.1
777	2.000000	1.104871	7.37266e+06	-38989.1	1055.82	-29795.5	0.000000	0.000000	7.117512	294.536	NaN	0.000000	0.001607	0.001697	28.0831	78.234	0.001802	43413.7	1.890042	176.499	290.758	1.104618	0.078171	0.077918	294.536	43413.7	0.073082	0.176852	1665.43	94317.9
777	2.000000	1.106915	7.37266e+06	-38989.1	1055.82	-29795.5	0.000000	0.000000	7.119978	304.799	NaN	0.000000	0.001603	0.001717	28.083	79.2963	0.001752	45249.8	3.360445	174.32	303.44	1.106719	0.080215	0.080019	304.799	45249.8	0.075163	0.185721	1641.17	95931.1
777	2.000000	1.108995	7.37266e+06	-38989.1	1055.82	-29795.5	0.000000	0.000000	7.122571	317.29	NaN	0.000000	0.001565	0.001718	28.0828	82.0218	0.001820	45067.3	8.944038	170.025	319.311	1.108648	0.082295	0.081948	317.29	45067.3	0.077015	0.193788	1637.31	93534.4
777	2.000000	1.110899	7.37266e+06	-38989.1	1055.82	-29795.5	0.000000	0.000000	7.125208	335.12	NaN	0.000000	0.001604	0.001724	28.0829	82.6964	0.001825	45317	-0.165856	178.928	331.238	1.110450	0.084199	0.083749	335.12	45317	0.078653	0.201057	1666.8	92336.9
777	2.000000	1.112964	7.37266e+06	-38989.1	1055.82	-29795.5	0.000000	0.000000	7.127318	336.218	NaN	0.000000	0.001617	0.001781	28.084	85.0296	0.001891	44965.4	4.623525	173.275	336.65	1.112802	0.086264	0.086102	336.218	44965.4	0.080656	0.210115	1600.16	89623.7
777	2.000000	1.114885	7.37266e+06	-38989.1	1055.82	-29795.5	0.000000	0.000000	7.129929	352.999	NaN	0.000000	0.001623	0.001742	28.084	86.5223	0.001803	47978.7	2.854457	174.383	350.522	1.114622	0.088185	0.087921	352.999	47978.7	0.082667	0.219398	1608.94	93584.8
777	2.000000	1.117008	7.37266e+06	-38989.1	1055.82	-29795.5	0.000000	0.000000	7.131983	351.337	NaN	0.000000	0.001614	0.001741	28.0843	86.9939	0.001688	51540.4	4.444482	172.296	354.154	1.116920	0.090308	0.090220	351.337	51540.4	0.085196	0.231336	1518.73	97903.8
777	2.000000	1.118922	7.37266e+06	-38989.1	1055.82	-29795.5	0.000000	0.000000	7.135445	389.012	NaN	0.000000	0.001609	0.001719	28.0838	90.2152	0.001786	50504.6	6.132189	171.907	388.289	1.118434	0.092222	0.091734	389.012	50504.6	0.086445	0.237344	1639.02	94714.3
777	2.000000	1.120933	7.37266e+06	-38989.1	1055.82	-29795.5	0.000000	0.000000	7.138238	408.042	NaN	0.000000	0.001635	0.001702	28.084	91.2372	0.001676	54440.5	3.675216	174.289	406.676	1.120446	0.094232	0.093745	408.042	54440.5	0.088611	0.247928	1645.81	99892.3
777	2.000000	1.122832	7.37266e+06	-38989.1	1055.82	-29795.5	0.000000	0.000000	7.140721	422.235	NaN	0.000000	0.001617	0.001768	28.0838	93.0765	0.001857	50134	3.203035	174.881	416.779	1.122450	0.096132	0.095750	422.235	50134	0.089815	0.253907	1662.95	90900.8
777	2.000000	1.124869	7.37266e+06	-38989.1	1055.82	-29795.5	0.000000	0.000000	7.143699	445.161	NaN	0.000000	0.001615	0.001736	28.0843	96.4691	0.001882	51270	8.309787	169.291	441.968	1.124521	0.098168	0.097821	445.161	51270	0.091656	0.263175	1691.5	91309.2
777	2.000000	1.126810	7.37266e+06	-38989.1	1055.82	-29795.5	0.000000	0.000000	7.145731	447.36	NaN	0.000000	0.001595	0.001758	28.084	95.7406	0.001756	54533.8	3.761210	172.911	441.808	1.126541	0.100109	0.099840	447.36	54533.8	0.093957	0.274974	1626.92	95015.2
777	2.000000	1.128908	7.37266e+06	-38989.1	1055.82	-29795.5	0.000000	0.000000	7.148526	464.33	NaN	0.000000	0.001591	0.001786	28.084	99.4577	0.001843	53973	7.925058	168.957	464.199	1.128567	0.102208	0.101867	464.33	53973	0.095755	0.284367	1632.85	92471.9
777	2.000000	1.130914	7.37266e+06	-38989.1	1055.82	-29795.5	0.000000	0.000000	7.151465	487.045	NaN	0.000000	0.001634	0.001771	28.0843	101.191	0.001769	57197.8	5.632802	170.623	487.224	1.130682	0.104213	0.103981	487.045	57197.8	0.097827	0.295368	1648.94	96154.8