File: remote_trans/data/nanoindenter/0828-1/data/Data_2025-08-06,11h17m57s/2025-07-22_16-23-58_1_372.txt
2025-07-22, 16:23:58, 1
Index	Phase	Displacement	Time	Pos X	Pos Y	Pos Z	Rot A	Rot B	Piezo Z	Force A	Force B	Gripper	Voltage A	Voltage B	Temperature	Amplitude force	Amplitude pos	Stiffness	Phase shift	Phase excitation	Force A raw	Displacement raw	HMax	HMax raw	Real Force	Real Stiffness	Contact Depth	Area	Hardness	Reduced Mod.
[#]	[#]	[um]	[s]	[um]	[um]	[um]	[m°]	[m°]	[um]	[uN]	[uN]	[V]	[V]	[V]	[°C]	[uN]	[um]	[N/m]	[°]	[°]	[uN]	[um]	[um]	[um]	[uN]	[N/m]	[um]	[um^2]	[MPa]	[MPa]
372	1.000000	0.002969	7.3687e+06	-57239.1	955.817	-29737.6	0.000000	0.000000	6.002847	-0.038339	NaN	0.000000	0.001572	0.001718	28.0805	0.053311	0.000962	55.3976	59.1724	-164.094	0.003543	0.001655	-0.988698	-0.990011	-0.038339	55.3976	-0.988178	-1.572459E+13	2.438125E-15	NaN
372	1.000000	0.010911	7.3687e+06	-57239.1	955.819	-29737.6	0.000000	0.000000	6.010790	-0.026960	NaN	0.000000	0.001609	0.001747	28.0804	0.043678	0.001005	43.442	-37.5862	-165.431	-0.000242	0.009537	-0.980755	-0.982129	-0.026960	43.442	-0.980289	-1.231146E+13	2.189858E-15	NaN
372	1.000000	0.018874	7.3687e+06	-57239.1	955.818	-29737.6	0.000000	0.000000	6.018754	0.012481	NaN	0.000000	0.001614	0.001708	28.0802	0.089166	0.001777	50.1676	-100.339	-166.498	-0.050253	0.017599	-0.972792	-0.974067	0.012481	50.1676	-0.972979	-9.813065E+12	-1.271901E-15	NaN
372	1.000000	0.026911	7.3687e+06	-57239.1	955.818	-29737.6	0.000000	0.000000	6.026791	-0.010769	NaN	0.000000	0.001633	0.001770	28.0804	0.088529	0.001809	48.9394	3.630666	-164.792	-0.059803	0.025557	-0.964755	-0.966109	-0.010769	48.9394	-0.964590	-7.563805E+12	1.423779E-15	NaN
372	1.000000	0.034866	7.3687e+06	-57239.1	955.818	-29737.6	0.000000	0.000000	6.034748	0.052708	NaN	0.000000	0.001583	0.001739	28.0802	0.051523	0.001831	28.1349	-107.364	-163.971	0.061190	0.033567	-0.956800	-0.958099	0.052708	28.1349	-0.958205	-6.204003E+12	-8.495756E-15	NaN
372	1.000000	0.042865	7.3687e+06	-57239.1	955.818	-29737.6	0.000000	0.000000	6.042746	0.032757	NaN	0.000000	0.001595	0.001788	28.0802	0.051438	0.002105	24.4413	-173.497	-164.859	-0.040657	0.041559	-0.948801	-0.950107	0.032757	24.4413	-0.949806	-4.779865E+12	-6.853138E-15	NaN
372	1.000000	0.050879	7.3687e+06	-57239.1	955.818	-29737.6	0.000000	0.000000	6.050760	0.031687	NaN	0.000000	0.001615	0.001768	28.0801	0.036732	0.002106	17.4374	-148.339	-160.638	0.024942	0.049595	-0.940787	-0.942071	0.031687	17.4374	-0.942149	-3.768218E+12	-8.408882E-15	NaN
372	1.000000	0.058878	7.3687e+06	-57239.1	955.818	-29737.6	0.000000	0.000000	6.058759	0.040273	NaN	0.000000	0.001617	0.001756	28.0798	0.027921	0.001962	14.2323	178.962	-164.331	0.051377	0.057612	-0.932788	-0.934054	0.040273	14.2323	-0.934910	-3.009284E+12	-1.338287E-14	NaN
372	1.000000	0.066898	7.3687e+06	-57239.1	955.818	-29737.6	0.000000	0.000000	6.066779	0.031637	NaN	0.000000	0.001582	0.001674	28.0801	0.119341	0.002013	59.2941	34.5619	-163.799	-0.018150	0.065534	-0.924768	-0.926132	0.031637	59.2941	-0.925168	-2.223201E+12	-1.423049E-14	NaN
372	1.000000	0.074881	7.3687e+06	-57239.1	955.818	-29737.6	0.000000	0.000000	6.074761	0.004402	NaN	0.000000	0.001599	0.001735	28.0802	0.094011	0.002049	45.8888	-142.403	-163.814	0.047659	0.073642	-0.916785	-0.918024	0.004402	45.8888	-0.916857	-1.717006E+12	-2.563995E-15	NaN
372	1.000000	0.082908	7.3687e+06	-57239.1	955.819	-29737.6	0.000000	0.000000	6.082787	-0.003335	NaN	0.000000	0.001615	0.001743	28.0804	0.034886	0.002121	16.4516	99.6203	-163.65	0.024978	0.081575	-0.908758	-0.910091	-0.003335	16.4516	-0.908606	-1.328430E+12	2.510184E-15	NaN
372	1.000000	0.090901	7.3687e+06	-57239.1	955.818	-29737.6	0.000000	0.000000	6.090780	-0.004201	NaN	0.000000	0.001637	0.001720	28.0807	0.055505	0.002011	27.6012	158.96	-163.988	0.013478	0.089616	-0.900765	-0.902050	-0.004201	27.6012	-0.900651	-1.037209E+12	4.050323E-15	NaN
372	1.000000	0.098909	7.3687e+06	-57239.1	955.817	-29737.6	0.000000	0.000000	6.098789	0.007475	NaN	0.000000	0.001652	0.001743	28.0814	0.054516	0.002059	26.4798	79.7047	-166.212	0.060615	0.097589	-0.892757	-0.894077	0.007475	26.4798	-0.892969	-8.166685E+11	-9.152604E-15	NaN
372	1.000000	0.106854	7.3687e+06	-57239.1	955.818	-29737.6	0.000000	0.000000	6.106733	-0.017542	NaN	0.000000	0.001624	0.001741	28.0814	0.077008	0.002086	36.9093	-173.756	-162.179	0.039409	0.105611	-0.884812	-0.886056	-0.017542	36.9093	-0.884456	-6.265525E+11	2.799822E-14	NaN
372	1.000000	0.114922	7.3687e+06	-57239.1	955.818	-29737.6	0.000000	0.000000	6.114804	0.069644	NaN	0.000000	0.001569	0.001778	28.0815	0.070049	0.001970	35.5549	70.8558	-167.742	-0.005565	0.113637	-0.876744	-0.878029	0.069644	35.5549	-0.878213	-5.158755E+11	-1.350024E-13	NaN
372	1.000000	0.122910	7.3687e+06	-57239.1	955.819	-29737.6	0.000000	0.000000	6.122791	0.039886	NaN	0.000000	0.001617	0.001767	28.0817	0.031422	0.001993	15.7669	69.9351	-163.032	0.038218	0.121634	-0.868756	-0.870032	0.039886	15.7669	-0.870653	-4.076458E+11	-9.784558E-14	NaN
372	1.000000	0.130887	7.3687e+06	-57239.1	955.818	-29737.6	0.000000	0.000000	6.130770	0.074217	NaN	0.000000	0.001630	0.001769	28.0812	0.053120	0.001951	27.2309	-17.654	-162.673	0.085653	0.129575	-0.860779	-0.862091	0.074217	27.2309	-0.862823	-3.193986E+11	-2.323661E-13	NaN
372	1.000000	0.138911	7.3687e+06	-57239.1	955.818	-29737.6	0.000000	0.000000	6.138791	0.014306	NaN	0.000000	0.001669	0.001737	28.0815	0.028267	0.001990	14.2034	14.29	-166.514	-0.045243	0.137531	-0.852755	-0.854135	0.014306	14.2034	-0.853511	-2.389323E+11	-5.987632E-14	NaN
372	1.000000	0.146902	7.3687e+06	-57239.1	955.818	-29737.6	0.000000	0.000000	6.146785	0.091405	NaN	0.000000	0.001625	0.001757	28.0814	0.158909	0.002002	79.3686	140.639	-163.889	-0.001430	0.145624	-0.844764	-0.846042	0.091405	79.3686	-0.845628	-1.868663E+11	-4.891441E-13	NaN
372	1.000000	0.154919	7.3687e+06	-57239.1	955.818	-29737.6	0.000000	0.000000	6.154799	0.000747	NaN	0.000000	0.001644	0.001747	28.0814	0.030025	0.001958	15.3343	159.894	-164.126	-0.065428	0.153550	-0.836747	-0.838116	0.000747	15.3343	-0.836784	-1.418126E+11	-5.269155E-15	NaN
372	1.000000	0.162926	7.3687e+06	-57239.1	955.818	-29737.6	0.000000	0.000000	6.162803	-0.059047	NaN	0.000000	0.001643	0.001738	28.0814	0.042625	0.002048	20.8132	74.1455	-167.678	0.023062	0.161589	-0.828740	-0.830077	-0.059047	20.8132	-0.826612	-1.032442E+11	5.719146E-13	NaN
372	1.000000	0.170931	7.3687e+06	-57239.1	955.818	-29737.6	0.000000	0.000000	6.170811	0.015112	NaN	0.000000	0.001648	0.001780	28.0811	0.119105	0.001978	60.2183	123.297	-168.012	-0.004158	0.169661	-0.820735	-0.822005	0.015112	60.2183	-0.820923	-8.644387E+10	-1.748164E-13	NaN
372	1.000000	0.178910	7.3687e+06	-57239.1	955.818	-29737.6	0.000000	0.000000	6.178791	0.019893	NaN	0.000000	0.001642	0.001714	28.0816	0.051374	0.001981	25.9294	-49.2143	-161.728	0.076009	0.177639	-0.812756	-0.814027	0.019893	25.9294	-0.813331	-6.819648E+10	-2.917076E-13	NaN
372	1.000000	0.186919	7.3687e+06	-57239.1	955.819	-29737.6	0.000000	0.000000	6.186801	0.038205	NaN	0.000000	0.001630	0.001751	28.0813	0.102215	0.001908	53.5709	-111.411	-170.483	0.008285	0.185664	-0.804747	-0.806002	0.038205	53.5709	-0.805282	-5.303297E+10	-7.204064E-13	NaN
372	1.000000	0.194894	7.3687e+06	-57239.1	955.818	-29737.6	0.000000	0.000000	6.194775	0.034917	NaN	0.000000	0.001619	0.001758	28.0812	0.031503	0.001945	16.195	159.74	-163.998	0.016195	0.193589	-0.796772	-0.798077	0.034917	16.195	-0.798389	-4.275613E+10	-8.166586E-13	NaN
372	1.000000	0.202926	7.3687e+06	-57239.1	955.817	-29737.6	0.000000	0.000000	6.202805	-0.026900	NaN	0.000000	0.001615	0.001766	28.0813	0.023446	0.001872	12.5263	131.375	-164.39	-0.030318	0.201651	-0.788740	-0.790015	-0.026900	12.5263	-0.787130	-3.006734E+10	8.946673E-13	NaN
372	1.000000	0.210924	7.3687e+06	-57239.1	955.818	-29737.6	0.000000	0.000000	6.210803	-0.003542	NaN	0.000000	0.001630	0.001711	28.0814	0.056251	0.001951	28.8389	-151.066	-166.178	0.027507	0.209623	-0.780742	-0.782043	-0.003542	28.8389	-0.780650	-2.455091E+10	1.442844E-13	NaN
372	1.000000	0.218954	7.3687e+06	-57239.1	955.819	-29737.6	0.000000	0.000000	6.218832	-0.032639	NaN	0.000000	0.001692	0.001749	28.082	0.031334	0.002006	15.6217	157.354	-164.387	-0.029705	0.217606	-0.772712	-0.774060	-0.032639	15.6217	-0.771145	-1.823379E+10	1.790024E-12	NaN
372	1.000000	0.226963	7.3687e+06	-57239.1	955.818	-29737.6	0.000000	0.000000	6.226839	-0.079606	NaN	0.000000	0.001677	0.001731	28.0809	0.096004	0.001890	50.796	-56.679	-163.765	0.007932	0.225694	-0.764703	-0.765972	-0.079606	50.796	-0.763528	-1.436462E+10	5.541803E-12	NaN
372	1.000000	0.234975	7.3687e+06	-57239.1	955.819	-29737.6	0.000000	0.000000	6.234856	0.047120	NaN	0.000000	0.001667	0.001754	28.0801	0.088778	0.002017	44.025	-165.835	-163.376	0.022177	0.233649	-0.756691	-0.758017	0.047120	44.025	-0.757494	-1.189075E+10	-3.962732E-12	NaN
372	1.000000	0.242947	7.3687e+06	-57239.1	955.818	-29737.6	0.000000	0.000000	6.242828	0.046256	NaN	0.000000	0.001702	0.001752	28.08	0.098133	0.001893	51.8515	-132.234	-168.527	0.037573	0.241688	-0.748719	-0.749978	0.046256	51.8515	-0.749389	-9.223520E+9	-5.014969E-12	NaN
372	1.000000	0.250959	7.3687e+06	-57239.1	955.817	-29737.6	0.000000	0.000000	6.250838	0.000670	NaN	0.000000	0.001665	0.001753	28.08	0.110078	0.001983	55.5234	136.676	-163.753	0.024541	0.249645	-0.740707	-0.742021	0.000670	55.5234	-0.740717	-7.027734E+9	-9.533860E-14	NaN
372	1.000000	0.258958	7.3687e+06	-57239.1	955.818	-29737.6	0.000000	0.000000	6.258839	0.033044	NaN	0.000000	0.001657	0.001755	28.0803	0.029978	0.002014	14.8827	-130.054	-166.178	0.054197	0.257633	-0.732708	-0.734033	0.033044	14.8827	-0.734373	-5.759739E+9	-5.737082E-12	NaN
372	1.000000	0.266972	7.3687e+06	-57239.1	955.819	-29737.6	0.000000	0.000000	6.266850	-0.039350	NaN	0.000000	0.001688	0.001785	28.08	0.082403	0.001970	41.8344	-122.629	-162.968	-0.026272	0.265683	-0.724694	-0.725983	-0.039350	41.8344	-0.723988	-4.157767E+9	9.464336E-12	NaN
372	1.000000	0.274976	7.3687e+06	-57239.1	955.818	-29737.6	0.000000	0.000000	6.274855	0.004363	NaN	0.000000	0.001676	0.001704	28.0803	0.039296	0.001867	21.0501	-16.4889	-166.537	0.016975	0.273632	-0.716690	-0.718034	0.004363	21.0501	-0.716846	-3.322414E+9	-1.313296E-12	NaN
372	1.000000	0.283011	7.3687e+06	-57239.1	955.817	-29737.6	0.000000	0.000000	6.282890	-0.011760	NaN	0.000000	0.001660	0.001707	28.0798	0.046092	0.001999	23.0534	99.7988	-167.277	-0.003464	0.281642	-0.708655	-0.710024	-0.011760	23.0534	-0.708272	-2.537869E+9	4.633775E-12	NaN
372	1.000000	0.290975	7.3687e+06	-57239.1	955.818	-29737.6	0.000000	0.000000	6.290852	-0.066259	NaN	0.000000	0.001618	0.001704	28.0799	0.082008	0.001920	42.7108	-5.629671	-166.545	-0.000683	0.289621	-0.700691	-0.702046	-0.066259	42.7108	-0.699528	-1.927884E+9	3.436883E-11	NaN
372	1.000000	0.298967	7.3687e+06	-57239.1	955.818	-29737.6	0.000000	0.000000	6.298844	-0.080122	NaN	0.000000	0.001597	0.001709	28.0803	0.028426	0.001938	14.6641	39.4503	-166.375	-0.071540	0.297649	-0.692699	-0.694017	-0.080122	14.6641	-0.688601	-1.367088E+9	5.860807E-11	NaN
372	1.000000	0.306976	7.3687e+06	-57239.1	955.818	-29737.6	0.000000	0.000000	6.306857	0.028274	NaN	0.000000	0.001601	0.001691	28.0799	0.074441	0.002077	35.837	131.573	-165.374	0.052218	0.305639	-0.684690	-0.686027	0.028274	35.837	-0.685282	-1.231490E+9	-2.295879E-11	NaN
372	1.000000	0.314991	7.3687e+06	-57239.1	955.818	-29737.6	0.000000	0.000000	6.314871	-0.008298	NaN	0.000000	0.001616	0.001695	28.0802	0.054064	0.002021	26.7553	138.181	-163.955	-0.012535	0.313721	-0.676675	-0.677945	-0.008298	26.7553	-0.676442	-9.322645E+8	8.900904E-12	NaN
372	1.000000	0.322987	7.3687e+06	-57239.1	955.818	-29737.6	0.000000	0.000000	6.322865	-0.022444	NaN	0.000000	0.001546	0.001679	28.08	0.085374	0.001970	43.3306	-106.93	-164.838	-0.004694	0.321659	-0.668679	-0.670007	-0.022444	43.3306	-0.668291	-7.211028E+8	3.112517E-11	NaN
372	1.000000	0.330989	7.3687e+06	-57239.1	955.817	-29737.6	0.000000	0.000000	6.330870	0.028754	NaN	0.000000	0.001601	0.001681	28.0799	0.038313	0.002008	19.082	3.296183	-165.878	0.012620	0.329673	-0.660677	-0.661993	0.028754	19.082	-0.661807	-5.877902E+8	-4.891809E-11	NaN
372	1.000000	0.338984	7.3687e+06	-57239.1	955.818	-29737.6	0.000000	0.000000	6.338867	0.065995	NaN	0.000000	0.001594	0.001701	28.0801	0.064776	0.002018	32.092	-43.4938	-161.218	-0.019179	0.337590	-0.652682	-0.654076	0.065995	32.092	-0.654224	-4.627368E+8	-1.426189E-10	NaN
372	1.000000	0.346977	7.3687e+06	-57239.1	955.818	-29737.6	0.000000	0.000000	6.346857	0.024501	NaN	0.000000	0.001592	0.001711	28.0798	0.041527	0.001914	21.7004	-37.5374	-163.052	0.062114	0.345695	-0.644689	-0.645971	0.024501	21.7004	-0.645536	-3.517470E+8	-6.965417E-11	NaN
372	1.000000	0.354982	7.3687e+06	-57239.1	955.819	-29737.6	0.000000	0.000000	6.354861	-0.038405	NaN	0.000000	0.001534	0.001710	28.0803	0.056424	0.001977	28.5335	1.573414	-168.237	0.027408	0.353662	-0.636684	-0.638004	-0.038405	28.5335	-0.635674	-2.575881E+8	1.490961E-10	NaN
372	1.000000	0.362989	7.3687e+06	-57239.1	955.818	-29737.6	0.000000	0.000000	6.362869	0.001734	NaN	0.000000	0.001587	0.001704	28.0803	0.018568	0.002116	8.776822	89.449	-165.703	-0.000169	0.361672	-0.628677	-0.629994	0.001734	8.776822	-0.628825	-2.074391E+8	-8.358905E-12	NaN
372	1.000000	0.371036	7.3687e+06	-57239.1	955.819	-29737.6	0.000000	0.000000	6.370917	0.020315	NaN	0.000000	0.001585	0.001728	28.0813	0.062229	0.002008	30.995	152.338	-170.109	0.001061	0.369657	-0.620630	-0.622009	0.020315	30.995	-0.621121	-1.625717E+8	-1.249591E-10	NaN
372	1.000000	0.378998	7.3687e+06	-57239.1	955.818	-29737.6	0.000000	0.000000	6.378878	0.000463	NaN	0.000000	0.001607	0.001702	28.0813	0.021476	0.002054	10.4545	144.406	-163.424	-0.044633	0.377709	-0.612668	-0.613957	0.000463	10.4545	-0.612701	-1.245294E+8	-3.716371E-12	NaN
372	1.000000	0.387015	7.3687e+06	-57239.1	955.817	-29737.6	0.000000	0.000000	6.386893	-0.047160	NaN	0.000000	0.001570	0.001738	28.0813	0.044298	0.002026	21.8651	-134.12	-166.496	-0.058823	0.385685	-0.604651	-0.605981	-0.047160	21.8651	-0.603033	-9.167104E+7	5.144429E-10	NaN
372	1.000000	0.394989	7.3687e+06	-57239.1	955.818	-29737.6	0.000000	0.000000	6.394867	-0.061267	NaN	0.000000	0.001583	0.001708	28.0815	0.064080	0.001989	32.2116	98.3856	-165.968	0.043722	0.393700	-0.596677	-0.597966	-0.061267	32.2116	-0.595250	-7.161879E+7	8.554562E-10	NaN
372	1.000000	0.403032	7.3687e+06	-57239.1	955.819	-29737.6	0.000000	0.000000	6.402913	0.038399	NaN	0.000000	0.001588	0.001721	28.0811	0.049622	0.001907	26.0189	-34.0092	-164.537	-0.013416	0.401753	-0.588634	-0.589913	0.038399	26.0189	-0.589741	-6.013009E+7	-6.385976E-10	NaN
372	1.000000	0.410999	7.3687e+06	-57239.1	955.818	-29737.6	0.000000	0.000000	6.410879	-0.008855	NaN	0.000000	0.001577	0.001687	28.0811	0.039039	0.002091	18.6698	-12.9887	-164.168	-0.031948	0.409742	-0.580667	-0.581924	-0.008855	18.6698	-0.580311	-4.456753E+7	1.986832E-10	NaN
372	1.000000	0.419038	7.3687e+06	-57239.1	955.818	-29737.6	0.000000	0.000000	6.418918	-0.006601	NaN	0.000000	0.001553	0.001681	28.081	0.043955	0.002028	21.677	169.857	-163.955	0.001025	0.417742	-0.572628	-0.573924	-0.006601	21.677	-0.572399	-3.465614E+7	1.904688E-10	NaN
372	1.000000	0.427017	7.3687e+06	-57239.1	955.818	-29737.6	0.000000	0.000000	6.426896	-0.019265	NaN	0.000000	0.001557	0.001707	28.0809	0.081674	0.002008	40.6695	-140.379	-164.262	0.035189	0.425663	-0.564649	-0.566003	-0.019265	40.6695	-0.564294	-2.677677E+7	7.194771E-10	NaN
372	1.000000	0.435021	7.36871e+06	-57239.1	955.818	-29737.6	0.000000	0.000000	6.434899	-0.040196	NaN	0.000000	0.001546	0.001675	28.081	0.046598	0.002076	22.4449	-32.0308	-162.255	0.005588	0.433713	-0.556645	-0.557953	-0.040196	22.4449	-0.555302	-2.010780E+7	1.999027E-9	NaN
372	1.000000	0.443057	7.36871e+06	-57239.1	955.818	-29737.6	0.000000	0.000000	6.442936	-0.000686	NaN	0.000000	0.001593	0.001650	28.0807	0.075116	0.001992	37.7043	-175.946	-166.067	-0.009401	0.441662	-0.548609	-0.550004	-0.000686	37.7043	-0.548596	-1.623691E+7	4.226060E-11	NaN
372	1.000000	0.451032	7.36871e+06	-57239.1	955.818	-29737.6	0.000000	0.000000	6.450913	0.029590	NaN	0.000000	0.001578	0.001660	28.0812	0.069493	0.001970	35.2816	-42.8542	-166.688	0.036569	0.449724	-0.540634	-0.541942	0.029590	35.2816	-0.541264	-1.284932E+7	-2.302861E-9	NaN
372	1.000000	0.459058	7.36871e+06	-57239.1	955.818	-29737.6	0.000000	0.000000	6.458937	-0.010241	NaN	0.000000	0.001593	0.001679	28.0809	0.123154	0.001920	64.1276	-156.561	-165.063	0.003716	0.457750	-0.532608	-0.533916	-0.010241	64.1276	-0.532488	-9.70789e+06	1.054958E-9	NaN
372	1.000000	0.467058	7.36871e+06	-57239.1	955.819	-29737.6	0.000000	0.000000	6.466937	-0.015412	NaN	0.000000	0.001594	0.001684	28.0809	0.045115	0.001885	23.9294	103.381	-163.763	0.077441	0.465728	-0.524608	-0.525938	-0.015412	23.9294	-0.524125	-7.42926e+06	2.074466E-9	NaN
372	1.000000	0.475072	7.36871e+06	-57239.1	955.818	-29737.6	0.000000	0.000000	6.474953	0.042290	NaN	0.000000	0.001584	0.001672	28.0808	0.090567	0.001926	47.0346	-104.743	-167.239	0.063929	0.473733	-0.516594	-0.517933	0.042290	47.0346	-0.517269	-5.96489e+06	-7.089838E-9	NaN
372	1.000000	0.483041	7.36871e+06	-57239.1	955.819	-29737.6	0.000000	0.000000	6.482922	0.020514	NaN	0.000000	0.001579	0.001724	28.0808	0.027687	0.002089	13.255	172.312	-162.422	-0.066498	0.481779	-0.508625	-0.509887	0.020514	13.255	-0.509786	-4.69281e+06	-4.371367E-9	NaN
372	1.000000	0.491059	7.36871e+06	-57239.1	955.818	-29737.6	0.000000	0.000000	6.490939	0.006714	NaN	0.000000	0.001544	0.001731	28.081	0.110366	0.002060	53.5725	0.744173	-168.419	-0.014204	0.489745	-0.500607	-0.501921	0.006714	53.5725	-0.500701	-3.50588e+06	-1.915013E-9	NaN
372	1.000000	0.499056	7.36871e+06	-57239.1	955.817	-29737.6	0.000000	0.000000	6.498935	-0.029619	NaN	0.000000	0.001560	0.001776	28.0808	0.020151	0.001981	10.1694	-1.133840	-164.023	-0.029275	0.497720	-0.492610	-0.493946	-0.029619	10.1694	-0.490425	-2.51963e+06	1.175530E-8	NaN
372	1.000000	0.507050	7.36871e+06	-57239.1	955.818	-29737.6	0.000000	0.000000	6.506932	0.043860	NaN	0.000000	0.001555	0.001736	28.0798	0.095218	0.002041	46.6518	-9.609292	-163.765	-0.001603	0.505755	-0.484616	-0.485911	0.043860	46.6518	-0.485321	-2.13787e+06	-2.051574E-8	NaN
372	1.000000	0.515056	7.36871e+06	-57239.1	955.819	-29737.6	0.000000	0.000000	6.514933	-0.068927	NaN	0.000000	0.001569	0.001729	28.0798	0.083433	0.002018	41.3486	-9.938112	-167.186	-0.004129	0.513779	-0.476610	-0.477887	-0.068927	41.3486	-0.475360	-1.55074e+06	4.444804E-8	NaN
372	1.000000	0.523057	7.36871e+06	-57239.1	955.817	-29737.6	0.000000	0.000000	6.522934	-0.055556	NaN	0.000000	0.001563	0.001748	28.0799	0.100937	0.002018	50.0212	-55.1203	-165.336	0.026561	0.521839	-0.468610	-0.469827	-0.055556	50.0212	-0.467777	-1.21399e+06	4.576342E-8	NaN
372	1.000000	0.531105	7.36871e+06	-57239.1	955.819	-29737.6	0.000000	0.000000	6.530985	0.026197	NaN	0.000000	0.001580	0.001742	28.0796	0.032774	0.001932	16.9595	-158.503	-160.916	-0.028535	0.529825	-0.460562	-0.461841	0.026197	16.9595	-0.461720	-998127	-2.624658E-8	NaN
372	1.000000	0.539093	7.36871e+06	-57239.1	955.818	-29737.6	0.000000	0.000000	6.538974	0.017270	NaN	0.000000	0.001585	0.001765	28.0799	0.015088	0.002047	7.371060	99.3674	-164.464	-0.026705	0.537783	-0.452573	-0.453883	0.017270	7.371060	-0.454330	-785763	-2.197922E-8	NaN
372	1.000000	0.547078	7.36871e+06	-57239.1	955.818	-29737.6	0.000000	0.000000	6.546959	0.037187	NaN	0.000000	0.001563	0.001760	28.0805	0.088294	0.002029	43.5129	165.342	-164.088	0.000769	0.545755	-0.444588	-0.445911	0.037187	43.5129	-0.445229	-584953	-6.357249E-8	NaN
372	1.000000	0.555099	7.36871e+06	-57239.1	955.818	-29737.6	0.000000	0.000000	6.554979	0.024187	NaN	0.000000	0.001558	0.001766	28.0797	0.084101	0.001955	43.0164	-99.1409	-165.317	0.025989	0.553815	-0.436567	-0.437851	0.024187	43.0164	-0.436989	-447561	-5.404216E-8	NaN
372	1.000000	0.563107	7.36871e+06	-57239.1	955.818	-29737.6	0.000000	0.000000	6.562986	-0.029796	NaN	0.000000	0.001568	0.001759	28.0798	0.072848	0.001985	36.7015	-97.9114	-162.954	-0.010145	0.561839	-0.428559	-0.429827	-0.029796	36.7015	-0.427950	-333466	8.935107E-8	NaN
372	1.000000	0.571111	7.36871e+06	-57239.1	955.818	-29737.6	0.000000	0.000000	6.570992	0.030742	NaN	0.000000	0.001577	0.001759	28.0799	0.057916	0.001971	29.3914	-103.56	-161.895	0.073702	0.569753	-0.420555	-0.421913	0.030742	29.3914	-0.421340	-268792	-1.143705E-7	NaN
372	1.000000	0.579094	7.36871e+06	-57239.1	955.819	-29737.6	0.000000	0.000000	6.578972	-0.037192	NaN	0.000000	0.001570	0.001777	28.0797	0.061618	0.002000	30.8079	43.2596	-166.656	-0.094730	0.577803	-0.412573	-0.413863	-0.037192	30.8079	-0.411667	-195931	1.898211E-7	NaN
372	1.000000	0.587109	7.36871e+06	-57239.1	955.817	-29737.6	0.000000	0.000000	6.586991	0.065233	NaN	0.000000	0.001562	0.001758	28.0801	0.079825	0.002058	38.7816	-36.319	-166.739	0.077454	0.585813	-0.404557	-0.405853	0.065233	38.7816	-0.405819	-161772	-4.032406E-7	NaN
372	1.000000	0.595108	7.36871e+06	-57239.1	955.817	-29737.6	0.000000	0.000000	6.594989	0.023968	NaN	0.000000	0.001595	0.001772	28.0795	0.116446	0.002107	55.2596	-95.5252	-163.122	0.008829	0.593820	-0.396558	-0.397846	0.023968	55.2596	-0.396883	-120648	-1.986584E-7	NaN
372	1.000000	0.603099	7.36871e+06	-57239.1	955.817	-29737.6	0.000000	0.000000	6.602977	-0.033750	NaN	0.000000	0.001559	0.001825	28.0798	0.016613	0.001827	9.094432	165.708	-165.008	-0.016740	0.601799	-0.388567	-0.389867	-0.033750	9.094432	-0.385784	-83717.6	4.031431E-7	NaN
372	1.000000	0.611118	7.36871e+06	-57239.1	955.817	-29737.6	0.000000	0.000000	6.610997	-0.013611	NaN	0.000000	0.001573	0.001788	28.0797	0.087315	0.002029	43.0414	135.584	-166.619	0.030157	0.609801	-0.380548	-0.381865	-0.013611	43.0414	-0.380311	-69879.9	1.947828E-7	NaN
372	1.000000	0.619118	7.36871e+06	-57239.1	955.818	-29737.6	0.000000	0.000000	6.618994	-0.081181	NaN	0.000000	0.001566	0.001785	28.0797	0.063516	0.002022	31.4128	161.97	-168.885	-0.059404	0.617815	-0.372548	-0.373851	-0.081181	31.4128	-0.370610	-50688.3	1.601578E-6	NaN
372	1.000000	0.627107	7.36871e+06	-57239.1	955.818	-29737.6	0.000000	0.000000	6.626987	0.010562	NaN	0.000000	0.001597	0.001753	28.0799	0.012525	0.002043	6.130299	-67.4945	-166.99	0.046961	0.625809	-0.364559	-0.365857	0.010562	6.130299	-0.365851	-43284.8	-2.440074E-7	NaN
372	1.000000	0.635099	7.36871e+06	-57239.1	955.818	-29737.6	0.000000	0.000000	6.634978	-0.013262	NaN	0.000000	0.001594	0.001773	28.0797	0.030528	0.001991	15.3345	22.2118	-163.003	0.063063	0.633793	-0.356567	-0.357873	-0.013262	15.3345	-0.355918	-31102.5	4.263908E-7	NaN
372	1.000000	0.643115	7.36871e+06	-57239.1	955.818	-29737.6	0.000000	0.000000	6.642992	-0.059847	NaN	0.000000	0.001644	0.001759	28.0813	0.089802	0.002146	41.846	-142.499	-166.832	-0.100592	0.641854	-0.348552	-0.349812	-0.059847	41.846	-0.347479	-23463.5	2.550637E-6	NaN
372	1.000000	0.651136	7.36871e+06	-57239.1	955.819	-29737.6	0.000000	0.000000	6.651017	0.036513	NaN	0.000000	0.001631	0.001762	28.0809	0.068399	0.002005	34.1177	122.73	-166.102	-0.066279	0.649828	-0.340530	-0.341838	0.036513	34.1177	-0.341333	-19097.4	-1.911916E-6	NaN
372	1.000000	0.659127	7.36871e+06	-57239.1	955.818	-29737.6	0.000000	0.000000	6.659005	-0.043506	NaN	0.000000	0.001623	0.001748	28.081	0.078327	0.001954	40.085	-135.375	-163.059	-0.006639	0.657819	-0.332539	-0.333847	-0.043506	40.085	-0.331725	-13826.1	3.146680E-6	NaN
372	1.000000	0.667130	7.36871e+06	-57239.1	955.818	-29737.6	0.000000	0.000000	6.667010	0.018575	NaN	0.000000	0.001559	0.001769	28.0811	0.100945	0.002003	50.3992	-126.219	-166.089	0.109643	0.665799	-0.324536	-0.325867	0.018575	50.3992	-0.324813	-10949.4	-1.696409E-6	NaN
372	1.000000	0.675123	7.36871e+06	-57239.1	955.818	-29737.6	0.000000	0.000000	6.675004	0.035818	NaN	0.000000	0.001612	0.001744	28.081	0.042819	0.002122	20.1742	118.635	-162.529	-0.019380	0.673819	-0.316543	-0.317847	0.035818	20.1742	-0.317875	-8656.4	-4.137725E-6	NaN
372	1.000000	0.683127	7.36871e+06	-57239.1	955.818	-29737.6	0.000000	0.000000	6.683007	0.006803	NaN	0.000000	0.001588	0.001730	28.0812	0.053864	0.002028	26.5598	12.639	-165.725	-0.003465	0.681837	-0.308539	-0.309829	0.006803	26.5598	-0.308731	-6342.57	-1.072628E-6	NaN
372	1.000000	0.691142	7.36871e+06	-57239.1	955.818	-29737.6	0.000000	0.000000	6.691023	0.038785	NaN	0.000000	0.001597	0.001741	28.0811	0.047314	0.002143	22.0773	160.065	-163.181	-0.102013	0.689826	-0.300524	-0.301840	0.038785	22.0773	-0.301842	-5012.33	-7.737862E-6	NaN
372	1.000000	0.699138	7.36871e+06	-57239.1	955.818	-29737.6	0.000000	0.000000	6.699018	0.021216	NaN	0.000000	0.001609	0.001764	28.081	0.105123	0.001984	52.9852	-12.1957	-166.65	0.038149	0.697779	-0.292528	-0.293887	0.021216	52.9852	-0.292829	-3678.26	-5.768025E-6	NaN
372	1.000000	0.707126	7.36871e+06	-57239.1	955.818	-29737.6	0.000000	0.000000	6.707009	0.074246	NaN	0.000000	0.001589	0.001742	28.0809	0.039141	0.002118	18.4795	125.6	-165.961	0.074730	0.705850	-0.284540	-0.285816	0.074246	18.4795	-0.287553	-3066.27	-2.421367E-5	NaN
372	1.000000	0.715167	7.36871e+06	-57239.1	955.818	-29737.6	0.000000	0.000000	6.715044	-0.059342	NaN	0.000000	0.001596	0.001741	28.0809	0.052350	0.002037	25.704	-86.3506	-162.881	-0.051849	0.713813	-0.276499	-0.277853	-0.059342	25.704	-0.274768	-1967.36	3.016338E-5	NaN
372	1.000000	0.723154	7.36871e+06	-57239.1	955.818	-29737.6	0.000000	0.000000	6.723035	0.030392	NaN	0.000000	0.001595	0.001767	28.081	0.005356	0.001937	2.765116	18.3964	-163.184	-0.074633	0.721836	-0.268512	-0.269830	0.030392	2.765116	-0.276756	-2108.49	-1.441425E-5	NaN
372	1.000000	0.731158	7.36871e+06	-57239.1	955.819	-29737.6	0.000000	0.000000	6.731038	-0.002458	NaN	0.000000	0.001570	0.001753	28.0807	0.016742	0.001931	8.670524	-145.171	-168.308	0.002035	0.729828	-0.260508	-0.261838	-0.002458	8.670524	-0.260295	-1184.25	2.075725E-6	NaN
372	1.000000	0.739161	7.36871e+06	-57239.1	955.818	-29737.6	0.000000	0.000000	6.739042	0.030480	NaN	0.000000	0.001567	0.001728	28.081	0.077876	0.002149	36.2425	-116.712	-165.217	-0.007658	0.737860	-0.252505	-0.253806	0.030480	36.2425	-0.253136	-919.164	-3.316082E-5	NaN
372	1.000000	0.747141	7.36871e+06	-57239.1	955.818	-29737.6	0.000000	0.000000	6.747021	-0.001720	NaN	0.000000	0.001606	0.001722	28.0807	0.111241	0.001947	57.1357	-96.252	-167.212	0.028339	0.745810	-0.244525	-0.245856	-0.001720	57.1357	-0.244502	-675.634	2.546018E-6	NaN
372	1.000000	0.755210	7.36871e+06	-57239.1	955.817	-29737.6	0.000000	0.000000	6.755089	-0.022642	NaN	0.000000	0.001603	0.001729	28.0806	0.072220	0.001971	36.648	63.8698	-165.806	0.009227	0.753847	-0.236456	-0.237819	-0.022642	36.648	-0.235992	-497.535	4.550884E-5	NaN
372	1.000000	0.763160	7.36871e+06	-57239.1	955.82	-29737.6	0.000000	0.000000	6.763040	-0.000625	NaN	0.000000	0.001634	0.001683	28.0808	0.058586	0.002054	28.5239	-71.5374	-167.831	0.024772	0.761926	-0.228506	-0.229740	-0.000625	28.5239	-0.228490	-379.006	1.649083E-6	NaN
372	1.000000	0.771170	7.36871e+06	-57239.1	955.818	-29737.6	0.000000	0.000000	6.771048	-0.064557	NaN	0.000000	0.001612	0.001734	28.0806	0.099404	0.001945	51.1082	-135.836	-168.907	-0.020271	0.769842	-0.220496	-0.221824	-0.064557	51.1082	-0.219548	-273.183	0.000236	NaN
372	1.000000	0.779181	7.36871e+06	-57239.1	955.818	-29737.6	0.000000	0.000000	6.779060	-0.012830	NaN	0.000000	0.001610	0.001734	28.0796	0.073025	0.002064	35.3831	113.852	-165.382	-0.060915	0.777872	-0.212485	-0.213794	-0.012830	35.3831	-0.212213	-208.261	6.160383E-5	NaN
372	1.000000	0.787178	7.36871e+06	-57239.1	955.818	-29737.6	0.000000	0.000000	6.787060	0.046385	NaN	0.000000	0.001581	0.001717	28.0796	0.095827	0.002060	46.5179	179.067	-168.708	0.025512	0.785903	-0.204488	-0.205763	0.046385	46.5179	-0.205236	-160.473	-0.000289	NaN
372	1.000000	0.795189	7.36871e+06	-57239.1	955.819	-29737.6	0.000000	0.000000	6.795070	0.029325	NaN	0.000000	0.001619	0.001687	28.0794	0.115374	0.001849	62.4037	-64.3212	-165.915	0.064662	0.793904	-0.196477	-0.197762	0.029325	62.4037	-0.196829	-116.805	-0.000251	NaN
372	1.000000	0.803177	7.36871e+06	-57239.1	955.818	-29737.6	0.000000	0.000000	6.803060	0.060504	NaN	0.000000	0.001627	0.001729	28.0795	0.022159	0.001974	11.2265	-28.7612	-165.667	0.066736	0.801857	-0.188489	-0.189809	0.060504	11.2265	-0.192531	-99.132	-0.000610	NaN
372	1.000000	0.811177	7.36871e+06	-57239.1	955.819	-29737.6	0.000000	0.000000	6.811055	-0.034675	NaN	0.000000	0.001600	0.001769	28.0794	0.048277	0.001931	25.0023	109.602	-163.592	-0.003093	0.809888	-0.180489	-0.181778	-0.034675	25.0023	-0.179449	-59.7162	0.000581	NaN
372	1.000000	0.819189	7.36871e+06	-57239.1	955.818	-29737.6	0.000000	0.000000	6.819070	0.031025	NaN	0.000000	0.001606	0.001705	28.0796	0.009440	0.001988	4.749114	67.6824	-167.171	-0.009765	0.817915	-0.172477	-0.173751	0.031025	4.749114	-0.177377	-55.0463	-0.000564	NaN
372	1.000000	0.827178	7.36871e+06	-57239.1	955.819	-29737.6	0.000000	0.000000	6.827058	0.008540	NaN	0.000000	0.001617	0.001701	28.0793	0.063342	0.001925	32.908	-41.7304	-165.389	-0.007940	0.825915	-0.164488	-0.165751	0.008540	32.908	-0.164683	-33.1689	-0.000257	NaN
372	1.000000	0.835207	7.36871e+06	-57239.1	955.819	-29737.6	0.000000	0.000000	6.835091	0.087120	NaN	0.000000	0.001609	0.001746	28.0796	0.099032	0.002136	46.3662	179.244	-164.682	-0.002790	0.833841	-0.156459	-0.157825	0.087120	46.3662	-0.157868	-25.1189	-0.003468	NaN
372	1.000000	0.843195	7.36871e+06	-57239.1	955.818	-29737.6	0.000000	0.000000	6.843075	0.018053	NaN	0.000000	0.001588	0.001756	28.0794	0.119805	0.001986	60.3268	137.69	-166.513	-0.007369	0.841912	-0.148471	-0.149754	0.018053	60.3268	-0.148696	-17.1466	-0.001053	NaN
372	1.000000	0.851180	7.36871e+06	-57239.1	955.818	-29737.6	0.000000	0.000000	6.851060	0.000789	NaN	0.000000	0.001610	0.001750	28.0797	0.018945	0.001964	9.644234	95.4996	-169.111	-0.000606	0.849917	-0.140486	-0.141749	0.000789	9.644234	-0.140548	-12.1128	-6.510636E-5	NaN
372	1.000000	0.859195	7.36871e+06	-57239.1	955.817	-29737.6	0.000000	0.000000	6.859074	-0.017449	NaN	0.000000	0.001661	0.001729	28.0809	0.084949	0.002039	41.6526	-71.1928	-163.503	-0.047406	0.857940	-0.132471	-0.133726	-0.017449	41.6526	-0.132156	-8.389587	0.002080	NaN
372	1.000000	0.867189	7.36871e+06	-57239.1	955.818	-29737.6	0.000000	0.000000	6.867066	-0.069587	NaN	0.000000	0.001673	0.001735	28.0797	0.068296	0.002085	32.7582	-37.4565	-164.892	-0.006869	0.865941	-0.124477	-0.125725	-0.069587	32.7582	-0.122883	-5.520020	0.012606	NaN
372	1.000000	0.875225	7.36871e+06	-57239.1	955.818	-29737.6	0.000000	0.000000	6.875105	-0.004502	NaN	0.000000	0.001620	0.001758	28.0797	0.092986	0.001948	47.7333	62.8612	-165.966	-0.056390	0.873936	-0.116441	-0.117730	-0.004502	47.7333	-0.116370	-4.076284	0.001104	NaN
372	1.000000	0.883219	7.36871e+06	-57239.1	955.818	-29737.6	0.000000	0.000000	6.883098	-0.009243	NaN	0.000000	0.001611	0.001773	28.0797	0.104193	0.001997	52.1812	-78.2011	-168.22	-0.057470	0.881871	-0.108447	-0.109795	-0.009243	52.1812	-0.108314	-2.768139	0.003339	NaN
372	1.000000	0.891232	7.36871e+06	-57239.1	955.818	-29737.6	0.000000	0.000000	6.891110	-0.043815	NaN	0.000000	0.001613	0.001736	28.0799	0.058218	0.002077	28.0239	-19.7372	-162.806	-0.081285	0.889951	-0.100434	-0.101715	-0.043815	28.0239	-0.099262	-1.759436	0.024903	NaN
372	1.000000	0.899233	7.36871e+06	-57239.1	955.818	-29737.6	0.000000	0.000000	6.899112	-0.010107	NaN	0.000000	0.001615	0.001759	28.0796	0.074299	0.002035	36.5186	-110.221	-164.531	-0.015492	0.897949	-0.092433	-0.093717	-0.010107	36.5186	-0.092226	-1.218138	0.008297	NaN
372	1.000000	0.907235	7.36871e+06	-57239.1	955.818	-29737.6	0.000000	0.000000	6.907115	0.006325	NaN	0.000000	0.001596	0.001726	28.0796	0.094613	0.002086	45.3602	-153.871	-161.678	0.038183	0.905998	-0.084431	-0.085668	0.006325	45.3602	-0.084536	-0.800619	-0.007900	NaN
372	1.000000	0.915218	7.36871e+06	-57239.1	955.818	-29737.6	0.000000	0.000000	6.915097	-0.002147	NaN	0.000000	0.001599	0.001782	28.0811	0.067784	0.002070	32.7382	-118.752	-160.479	-0.003126	0.913909	-0.076448	-0.077757	-0.002147	32.7382	-0.076399	-0.501812	0.004278	NaN
372	1.000000	0.923209	7.36871e+06	-57239.1	955.819	-29737.6	0.000000	0.000000	6.923090	0.027581	NaN	0.000000	0.001581	0.001747	28.081	0.093672	0.002033	46.0726	57.3112	-163.732	-0.001461	0.921875	-0.068457	-0.069792	0.027581	46.0726	-0.068906	-0.318757	-0.086527	NaN
372	1.000000	0.931222	7.36871e+06	-57239.1	955.818	-29737.6	0.000000	0.000000	6.931101	-0.031317	NaN	0.000000	0.001595	0.001770	28.0814	0.073128	0.001988	36.7928	-97.1655	-166.724	-0.003528	0.929934	-0.060444	-0.061732	-0.031317	36.7928	-0.059806	-0.177793	0.176141	NaN
372	1.000000	0.939253	7.36871e+06	-57239.1	955.817	-29737.6	0.000000	0.000000	6.939133	0.004290	NaN	0.000000	0.001613	0.001771	28.0809	0.053837	0.002009	26.8025	111.477	-165.767	-0.088258	0.937964	-0.052413	-0.053702	0.004290	26.8025	-0.052533	-0.108755	-0.039446	NaN
372	1.000000	0.947217	7.36871e+06	-57239.1	955.818	-29737.6	0.000000	0.000000	6.947096	-0.007857	NaN	0.000000	0.001634	0.001750	28.0811	0.083573	0.001947	42.921	-58.8341	-164.259	-0.006522	0.945898	-0.044449	-0.045768	-0.007857	42.921	-0.044312	-0.061228	0.128328	NaN
372	1.000000	0.955242	7.36871e+06	-57239.1	955.818	-29737.6	0.000000	0.000000	6.955121	-0.013431	NaN	0.000000	0.001619	0.001773	28.0813	0.119704	0.002010	59.54	144.649	-164.947	-0.010050	0.953922	-0.036424	-0.037744	-0.013431	59.54	-0.036255	-0.034885	0.385006	NaN
372	1.000000	0.963260	7.36871e+06	-57239.1	955.818	-29737.6	0.000000	0.000000	6.963141	0.025815	NaN	0.000000	0.001631	0.001785	28.0812	0.042979	0.001988	21.6185	-142.94	-162.946	-0.012030	0.961940	-0.028406	-0.029726	0.025815	21.6185	-0.029301	-0.022008	-1.172977	NaN
372	1.000000	0.971268	7.36871e+06	-57239.1	955.817	-29737.6	0.000000	0.000000	6.971148	0.015068	NaN	0.000000	0.001626	0.001756	28.0812	0.093246	0.002115	44.0855	167.893	-165.13	0.008837	0.969964	-0.020398	-0.021702	0.015068	44.0855	-0.020655	-0.013052	-1.154477	NaN
372	1.000000	0.979258	7.36871e+06	-57239.1	955.817	-29737.6	0.000000	0.000000	6.979138	0.004754	NaN	0.000000	0.001619	0.001786	28.0812	0.127134	0.002100	60.537	147.065	-164.444	-0.019614	0.977969	-0.012408	-0.013697	0.004754	60.537	-0.012467	-0.007796	-0.609798	NaN
372	1.000000	0.987303	7.36871e+06	-57239.1	955.817	-29737.6	0.000000	0.000000	6.987183	0.003904	NaN	0.000000	0.001602	0.001754	28.0812	0.027644	0.001907	14.4962	-129.083	-163.13	0.015270	0.985955	-0.004363	-0.005711	0.003904	14.4962	-0.004565	-0.003142	-1.242705	NaN
372	1.000000	0.995229	7.36871e+06	-57239.1	955.819	-29737.6	0.000000	0.000000	6.995258	3.640768	NaN	0.000000	0.001635	0.001759	28.0814	4.141196	0.001756	2357.79	5.146090	-165.094	1.922406	0.993957	0.003563	0.002291	3.640768	2357.79	0.002405	0.001885	1931.74	49620
372	2.000000	0.999949	7.36871e+06	-57239.1	955.818	-29737.6	0.000000	0.000000	7.000146	7.709699	NaN	0.000000	0.001621	0.001776	28.0812	8.396666	0.001520	5525.13	5.144663	-170.221	7.609746	0.999596	0.008283	0.007930	7.709699	5525.13	0.007236	0.006268	1229.95	63758.9
372	2.000000	1.001931	7.36871e+06	-57239.1	955.817	-29737.6	0.000000	0.000000	7.002252	10.7323	NaN	0.000000	0.001617	0.001757	28.0812	10.4464	0.001505	6942.67	6.311214	-175.215	10.0471	1.001624	0.010265	0.009958	10.7323	6942.67	0.009106	0.008204	1308.12	70029
372	2.000000	1.003938	7.36871e+06	-57239.1	955.818	-29737.6	0.000000	0.000000	7.004393	13.9765	NaN	0.000000	0.001655	0.001769	28.0812	13.2798	0.001874	7084.72	9.159842	-174.962	13.9788	1.003558	0.012272	0.011892	13.9765	7084.72	0.010793	0.010076	1387.15	64484.9
372	2.000000	1.005929	7.36871e+06	-57239.1	955.818	-29737.6	0.000000	0.000000	7.006414	14.7282	NaN	0.000000	0.001623	0.001774	28.0814	14.9463	0.001702	8779.05	7.250645	-177.192	14.0937	1.005607	0.014263	0.013941	14.7282	8779.05	0.013004	0.012716	1158.27	71129.8
372	2.000000	1.007896	7.36871e+06	-57239.1	955.818	-29737.6	0.000000	0.000000	7.008612	20.3226	NaN	0.000000	0.001583	0.001770	28.0815	16.6255	0.001681	9890.06	8.179389	-178.178	20.1918	1.007577	0.016230	0.015911	20.3226	9890.06	0.014689	0.014872	1366.46	74093.7
372	2.000000	1.009872	7.36871e+06	-57239.1	955.819	-29737.6	0.000000	0.000000	7.010652	21.8744	NaN	0.000000	0.001591	0.001765	28.0812	19.143	0.001939	9873.47	4.360966	-174.53	20.7294	1.009547	0.018206	0.017881	21.8744	9873.47	0.016544	0.017400	1257.13	68385.7
372	2.000000	1.011938	7.36871e+06	-57239.1	955.818	-29737.6	0.000000	0.000000	7.012846	25.0025	NaN	0.000000	0.001577	0.001749	28.0802	20.3502	0.001670	12183.2	5.441233	-178.156	24.9898	1.011511	0.020272	0.019845	25.0025	12183.2	0.018733	0.020590	1214.3	77572.3
372	2.000000	1.013896	7.36871e+06	-57239.1	955.818	-29737.6	0.000000	0.000000	7.015001	29.7771	NaN	0.000000	0.001593	0.001759	28.0799	22.807	0.001758	12970.2	6.508186	-178.405	29.446	1.013501	0.022230	0.021835	29.7771	12970.2	0.020508	0.023348	1275.38	77552.8
372	2.000000	1.015866	7.36871e+06	-57239.1	955.819	-29737.6	0.000000	0.000000	7.017157	34.3036	NaN	0.000000	0.001570	0.001756	28.0803	25.5316	0.001854	13769.5	8.949892	178.945	32.7791	1.015537	0.024200	0.023871	34.3036	13769.5	0.022331	0.026339	1302.39	77516.1
372	2.000000	1.017859	7.36871e+06	-57239.1	955.818	-29737.6	0.000000	0.000000	7.019253	36.8236	NaN	0.000000	0.001592	0.001761	28.0802	25.639	0.001765	14527	3.685677	-176.838	35.984	1.017619	0.026193	0.025953	36.8236	14527	0.024291	0.029739	1238.21	76963.2
372	2.000000	1.019839	7.36871e+06	-57239.1	955.818	-29737.6	0.000000	0.000000	7.021428	41.5273	NaN	0.000000	0.001578	0.001744	28.08	28.4248	0.001796	15827.1	3.120872	-177.722	40.6737	1.019615	0.028173	0.027949	41.5273	15827.1	0.026205	0.033245	1249.12	79306.9
372	2.000000	1.021865	7.36871e+06	-57239.1	955.819	-29737.6	0.000000	0.000000	7.023600	45.0922	NaN	0.000000	0.001569	0.001753	28.0799	30.0716	0.001683	17865.4	3.476911	179.621	43.9746	1.021528	0.030199	0.029862	45.0922	17865.4	0.028306	0.037306	1208.7	84507.2
372	2.000000	1.023856	7.36871e+06	-57239.1	955.819	-29737.6	0.000000	0.000000	7.025810	50.4011	NaN	0.000000	0.001576	0.001765	28.0797	33.0561	0.001793	18440	8.301916	176.358	50.5735	1.023490	0.032190	0.031824	50.4011	18440	0.030140	0.041035	1228.26	83168.3
372	2.000000	1.025828	7.36871e+06	-57239.1	955.82	-29737.6	0.000000	0.000000	7.028160	59.5811	NaN	0.000000	0.001574	0.001786	28.0799	35.3785	0.001792	19746.2	6.204686	176.068	56.712	1.025521	0.034162	0.033855	59.5811	19746.2	0.031899	0.044773	1330.75	85261.1
372	2.000000	1.027809	7.36871e+06	-57239.1	955.819	-29737.6	0.000000	0.000000	7.030281	63.0033	NaN	0.000000	0.001589	0.001739	28.0797	36.2962	0.001778	20411.5	6.407390	176.858	60.6765	1.027468	0.036143	0.035802	63.0033	20411.5	0.033828	0.049053	1284.39	84200.6
372	2.000000	1.029875	7.36871e+06	-57239.1	955.819	-29737.6	0.000000	0.000000	7.032492	66.5288	NaN	0.000000	0.001573	0.001744	28.0796	38.8183	0.001767	21968.6	6.493010	175.474	68.9385	1.029544	0.038209	0.037878	66.5288	21968.6	0.035938	0.053951	1233.12	86411.8
372	2.000000	1.031811	7.36871e+06	-57239.1	955.82	-29737.6	0.000000	0.000000	7.034825	76.1738	NaN	0.000000	0.001563	0.001762	28.0797	39.8872	0.001775	22468.9	6.327326	176.284	75.0115	1.031497	0.040145	0.039831	76.1738	22468.9	0.037603	0.057979	1313.81	85254.7
372	2.000000	1.033768	7.36871e+06	-57239.1	955.82	-29737.6	0.000000	0.000000	7.036932	79.8421	NaN	0.000000	0.001581	0.001750	28.0796	42.3206	0.001791	23628.7	5.395029	176.972	77.2693	1.033418	0.042102	0.041752	79.8421	23628.7	0.039567	0.062915	1269.05	86067
372	2.000000	1.035883	7.36871e+06	-57239.1	955.82	-29737.6	0.000000	0.000000	7.039300	85.9799	NaN	0.000000	0.001577	0.001732	28.0809	45.4112	0.001933	23494.8	7.513032	175.253	87.0625	1.035547	0.044217	0.043881	85.9799	23494.8	0.041472	0.067888	1266.5	82385.1
372	2.000000	1.037815	7.36871e+06	-57239.1	955.82	-29737.6	0.000000	0.000000	7.041706	97.4731	NaN	0.000000	0.001623	0.001767	28.0796	45.7885	0.001780	25729.8	1.560471	178.838	95.0144	1.037420	0.046149	0.045754	97.4731	25729.8	0.043308	0.072857	1337.87	87091.4
372	2.000000	1.039844	7.36871e+06	-57239.1	955.82	-29737.6	0.000000	0.000000	7.043990	103.701	NaN	0.000000	0.001633	0.001706	28.0796	49.3701	0.001831	26966.4	5.465396	175.239	104.709	1.039511	0.048178	0.047845	103.701	26966.4	0.045294	0.078423	1322.33	87978
372	2.000000	1.041792	7.36871e+06	-57239.1	955.819	-29737.6	0.000000	0.000000	7.046182	109.626	NaN	0.000000	0.001585	0.001748	28.0798	49.2137	0.001781	27629.4	0.760334	178.987	107.657	1.041448	0.050126	0.049782	109.626	27629.4	0.047150	0.083808	1308.06	87197.2
372	2.000000	1.043851	7.36871e+06	-57239.1	955.82	-29737.6	0.000000	0.000000	7.048548	117.089	NaN	0.000000	0.001609	0.001750	28.0796	53.0311	0.001920	27620.8	11.2233	169.573	118.239	1.043372	0.052184	0.051706	117.089	27620.8	0.049005	0.089363	1310.26	84417.3
372	2.000000	1.045712	7.36871e+06	-57239.1	955.819	-29737.6	0.000000	0.000000	7.050952	130.286	NaN	0.000000	0.001644	0.001743	28.0815	52.9987	0.001852	28619.9	2.403096	177.744	122.941	1.045407	0.054046	0.053741	130.286	28619.9	0.050632	0.094375	1380.51	85116.2
372	2.000000	1.047814	7.36871e+06	-57239.1	955.82	-29737.6	0.000000	0.000000	7.052934	127.349	NaN	0.000000	0.001627	0.001724	28.0806	54.5672	0.001808	30185.9	3.301458	175.541	125.174	1.047666	0.056148	0.056000	127.349	30185.9	0.052984	0.101860	1250.24	86412.5
372	2.000000	1.049735	7.36871e+06	-57239.1	955.82	-29737.6	0.000000	0.000000	7.055479	142.509	NaN	0.000000	0.001610	0.001761	28.0807	57.1379	0.001926	29672.3	4.207704	174.909	138.663	1.049481	0.058069	0.057815	142.509	29672.3	0.054467	0.106720	1335.36	82985.3
372	2.000000	1.051826	7.36871e+06	-57239.1	955.82	-29737.6	0.000000	0.000000	7.058120	155.902	NaN	0.000000	0.001614	0.001742	28.0808	57.1643	0.001717	33301.4	3.537881	176.004	155.523	1.051469	0.060160	0.059803	155.902	33301.4	0.056649	0.114065	1366.78	90086.2
372	2.000000	1.053797	7.36871e+06	-57239.1	955.821	-29737.6	0.000000	0.000000	7.060514	166.165	NaN	0.000000	0.001588	0.001738	28.0809	59.5603	0.001752	33989.6	3.395838	175.477	166.556	1.053457	0.062131	0.061791	166.165	33989.6	0.058465	0.120361	1380.56	89511
372	2.000000	1.055791	7.36871e+06	-57239.1	955.821	-29737.6	0.000000	0.000000	7.062844	174.343	NaN	0.000000	0.001591	0.001741	28.0814	62.2834	0.001868	33338.3	5.173084	173.877	172.283	1.055539	0.064125	0.063873	174.343	33338.3	0.060203	0.126538	1377.79	85626.1
372	2.000000	1.057744	7.36871e+06	-57239.1	955.82	-29737.6	0.000000	0.000000	7.065311	186.851	NaN	0.000000	0.001622	0.001716	28.0811	63.3054	0.001752	36133.9	5.022642	172.876	185.779	1.057486	0.066078	0.065820	186.851	36133.9	0.062199	0.133813	1396.36	90248.1
372	2.000000	1.059792	7.36871e+06	-57239.1	955.821	-29737.6	0.000000	0.000000	7.067414	188.176	NaN	0.000000	0.001601	0.001733	28.0809	66.3985	0.001774	37430.5	3.153143	174.489	187.48	1.059598	0.068126	0.067932	188.176	37430.5	0.064356	0.141889	1326.22	90787.2
372	2.000000	1.061767	7.36871e+06	-57239.1	955.819	-29737.6	0.000000	0.000000	7.070234	208.719	NaN	0.000000	0.001571	0.001744	28.0811	66.6938	0.001711	38971.4	2.853961	174.489	205.253	1.061435	0.070101	0.069769	208.719	38971.4	0.066084	0.148524	1405.3	92389.3
372	2.000000	1.063697	7.36871e+06	-57239.1	955.821	-29737.6	0.000000	0.000000	7.072680	221.252	NaN	0.000000	0.001568	0.001723	28.081	70.9785	0.001801	39409.2	5.458485	171.678	217.583	1.063431	0.072031	0.071765	221.252	39409.2	0.067821	0.155336	1424.35	91355.8
372	2.000000	1.065892	7.36871e+06	-57239.1	955.819	-29737.6	0.000000	0.000000	7.075224	229.736	NaN	0.000000	0.001541	0.001706	28.0814	71.886	0.001965	36582.4	6.157626	173.791	232.41	1.065411	0.074226	0.073745	229.736	36582.4	0.069516	0.162124	1417.04	83008.2
372	2.000000	1.067708	7.36871e+06	-57239.1	955.821	-29737.6	0.000000	0.000000	7.077701	245.797	NaN	0.000000	0.001546	0.001718	28.0811	73.5635	0.001722	42715.4	4.388780	172.213	241.089	1.067403	0.076042	0.075737	245.797	42715.4	0.071726	0.171180	1435.9	94326
372	2.000000	1.069736	7.36871e+06	-57239.1	955.821	-29737.6	0.000000	0.000000	7.079870	249.228	NaN	0.000000	0.001558	0.001725	28.0811	76.6527	0.001887	40612	2.251166	174.686	244.115	1.069423	0.078070	0.077757	249.228	40612	0.073467	0.178477	1396.42	87828.8
372	2.000000	1.071708	7.36871e+06	-57239.1	955.82	-29737.6	0.000000	0.000000	7.082697	270.018	NaN	0.000000	0.001571	0.001752	28.081	77.5652	0.001853	41856	4.376915	173.133	265.469	1.071402	0.080042	0.079736	270.018	41856	0.075203	0.185897	1452.51	88694
372	2.000000	1.073827	7.36871e+06	-57239.1	955.821	-29737.6	0.000000	0.000000	7.084980	273.987	NaN	0.000000	0.001547	0.001736	28.081	81.1512	0.001762	46066.3	7.605449	168.599	275.296	1.073352	0.082161	0.081686	273.987	46066.3	0.077701	0.196816	1392.1	94869.5
372	2.000000	1.075777	7.36871e+06	-57239.1	955.82	-29737.6	0.000000	0.000000	7.087456	286.786	NaN	0.000000	0.001564	0.001750	28.0811	83.2915	0.001915	43495.5	4.441269	172.72	284.415	1.075563	0.084111	0.083897	286.786	43495.5	0.079166	0.203358	1410.25	88122.5
372	2.000000	1.077736	7.36871e+06	-57239.1	955.821	-29737.6	0.000000	0.000000	7.090045	302.079	NaN	0.000000	0.001571	0.001766	28.0811	84.0025	0.001809	46442.3	1.867253	174.774	300.936	1.077389	0.086070	0.085723	302.079	46442.3	0.081192	0.212572	1421.07	92031.1
372	2.000000	1.079756	7.36871e+06	-57239.1	955.82	-29737.6	0.000000	0.000000	7.092829	320.655	NaN	0.000000	0.001563	0.001718	28.0802	87.3011	0.001726	50570.7	4.884920	171.032	320.058	1.079497	0.088090	0.087831	320.655	50570.7	0.083335	0.222522	1441	97945.8
372	2.000000	1.081770	7.36871e+06	-57239.1	955.82	-29737.6	0.000000	0.000000	7.095238	330.271	NaN	0.000000	0.001564	0.001739	28.0796	87.8547	0.001756	50044.4	4.965048	171.141	331.889	1.081450	0.090104	0.089784	330.271	50044.4	0.085154	0.231139	1428.88	95102.6
372	2.000000	1.083671	7.36871e+06	-57239.1	955.819	-29737.6	0.000000	0.000000	7.097726	344.544	NaN	0.000000	0.001506	0.001772	28.0798	90.9138	0.001892	48041	4.000633	171.67	339.526	1.083497	0.092005	0.091831	344.544	48041	0.086626	0.238218	1446.34	89928.7
372	2.000000	1.085928	7.36871e+06	-57239.1	955.82	-29737.6	0.000000	0.000000	7.100648	360.698	NaN	0.000000	0.001537	0.001764	28.0797	92.672	0.002004	46233.4	10.0621	168.401	367.087	1.085373	0.094262	0.093707	360.698	46233.4	0.088411	0.246940	1460.67	85002.8
372	2.000000	1.087693	7.36871e+06	-57239.1	955.819	-29737.6	0.000000	0.000000	7.103018	375.395	NaN	0.000000	0.001518	0.001728	28.0796	93.2929	0.001963	47521.2	3.775172	172.598	370.214	1.087230	0.096027	0.095564	375.395	47521.2	0.090102	0.255342	1470.17	85921
372	2.000000	1.089697	7.36871e+06	-57239.1	955.819	-29737.6	0.000000	0.000000	7.105638	390.39	NaN	0.000000	0.001573	0.001754	28.08	94.8321	0.001836	51652.4	4.195967	172.047	385.328	1.089422	0.098031	0.097756	390.39	51652.4	0.092362	0.266768	1463.4	91368.5
372	2.000000	1.091737	7.36871e+06	-57239.1	955.821	-29737.6	0.000000	0.000000	7.108437	408.836	NaN	0.000000	0.001590	0.001706	28.0795	96.4368	0.001697	56819.9	7.133694	167.588	405.336	1.091374	0.100070	0.099708	408.836	56819.9	0.094674	0.278702	1466.93	98334.1
372	2.000000	1.093635	7.36871e+06	-57239.1	955.821	-29737.6	0.000000	0.000000	7.110550	414.055	NaN	0.000000	0.001555	0.001721	28.0796	98.0282	0.001828	53639.4	2.929243	172.343	408.387	1.093443	0.101969	0.101777	414.055	53639.4	0.096179	0.286602	1444.7	91541.5
372	2.000000	1.095699	7.36871e+06	-57239.1	955.821	-29737.6	0.000000	0.000000	7.113410	433.375	NaN	0.000000	0.001547	0.001748	28.0797	98.3919	0.001744	56406.6	-0.451013	175.985	428.539	1.095409	0.104033	0.103743	433.375	56406.6	0.098271	0.297750	1455.5	94444.5
372	2.000000	1.097173	7.36871e+06	-57239.1	955.82	-29737.6	0.000000	0.000000	7.115680	452.738	NaN	0.000000	0.001592	0.001742	28.0796	100.206	0.001795	55834.2	0.730603	-5.207964	444.858	1.096836	0.105507	0.105170	452.738	55834.2	0.099425	0.303991	1489.31	92521.5