File: remote_trans/data/nanoindenter/0828-1/data/Data_2025-08-06,11h17m57s/2025-07-22_16-23-58_1_1069.txt
2025-07-22, 16:23:58, 1
Index	Phase	Displacement	Time	Pos X	Pos Y	Pos Z	Rot A	Rot B	Piezo Z	Force A	Force B	Gripper	Voltage A	Voltage B	Temperature	Amplitude force	Amplitude pos	Stiffness	Phase shift	Phase excitation	Force A raw	Displacement raw	HMax	HMax raw	Real Force	Real Stiffness	Contact Depth	Area	Hardness	Reduced Mod.
[#]	[#]	[um]	[s]	[um]	[um]	[um]	[m°]	[m°]	[um]	[uN]	[uN]	[V]	[V]	[V]	[°C]	[uN]	[um]	[N/m]	[°]	[°]	[uN]	[um]	[um]	[um]	[uN]	[N/m]	[um]	[um^2]	[MPa]	[MPa]
1069	1.000000	0.002461	7.3755e+06	-53589.1	1055.82	-29745.8	0.000000	0.000000	6.002767	0.052865	NaN	0.000000	0.001555	0.001696	28.0828	0.034909	0.001002	34.8395	16.7464	-170.207	0.151169	0.001268	-1.138957	-1.140151	0.052865	34.8395	-1.140095	-1.729889E+15	-3.055949E-17	NaN
1069	1.000000	0.012597	7.3755e+06	-53589.1	1055.82	-29745.8	0.000000	0.000000	6.012902	0.044965	NaN	0.000000	0.001556	0.001692	28.0827	0.094663	0.001196	79.125	-151.447	15.9272	0.020485	0.011123	-1.128822	-1.130296	0.044965	79.125	-1.129248	-1.237486E+15	-3.633585E-17	NaN
1069	1.000000	0.022469	7.3755e+06	-53589.1	1055.82	-29745.8	0.000000	0.000000	6.022775	0.078116	NaN	0.000000	0.001542	0.001692	28.0827	0.128110	0.001728	74.1569	-173.702	-165.233	0.082737	0.021178	-1.118950	-1.120240	0.078116	74.1569	-1.119740	-9.225417E+14	-8.467483E-17	NaN
1069	1.000000	0.032442	7.3755e+06	-53589.1	1055.82	-29745.8	0.000000	0.000000	6.032747	0.021130	NaN	0.000000	0.001494	0.001666	28.0827	0.079815	0.001937	41.2127	-157.848	15.1247	0.063190	0.031088	-1.108976	-1.110331	0.021130	41.2127	-1.109361	-6.694391E+14	-3.156392E-17	NaN
1069	1.000000	0.042439	7.3755e+06	-53589.1	1055.82	-29745.8	0.000000	0.000000	6.042746	0.084332	NaN	0.000000	0.001611	0.001686	28.0829	0.052090	0.001982	26.2797	173.971	-165.031	-0.010240	0.041108	-1.098980	-1.100310	0.084332	26.2797	-1.101387	-5.232174E+14	-1.611794E-16	NaN
1069	1.000000	0.052446	7.3755e+06	-53589.1	1055.82	-29745.8	0.000000	0.000000	6.052753	0.070744	NaN	0.000000	0.001597	0.001690	28.0827	0.062759	0.002009	31.2318	-56.4338	11.4614	0.072005	0.051053	-1.088972	-1.090366	0.070744	31.2318	-1.090671	-3.756868E+14	-1.883047E-16	NaN
1069	1.000000	0.062458	7.3755e+06	-53589.1	1055.82	-29745.8	0.000000	0.000000	6.062761	-0.022500	NaN	0.000000	0.001547	0.001647	28.0825	0.143073	0.002028	70.5319	-36.6925	-163.642	0.053646	0.061105	-1.078961	-1.080313	-0.022500	70.5319	-1.078721	-2.596254E+14	8.666249E-17	NaN
1069	1.000000	0.072464	7.3755e+06	-53589.1	1055.82	-29745.8	0.000000	0.000000	6.072769	0.038175	NaN	0.000000	0.001581	0.001642	28.0829	0.020264	0.002037	9.945954	9.575059	12.1047	-0.016651	0.071087	-1.068955	-1.070332	0.038175	9.945954	-1.071834	-2.098106E+14	-1.819485E-16	NaN
1069	1.000000	0.082432	7.3755e+06	-53589.1	1055.82	-29745.8	0.000000	0.000000	6.082735	-0.009735	NaN	0.000000	0.001583	0.001654	28.0823	0.132058	0.002046	64.5453	-165.635	-163.38	-0.045246	0.081157	-1.058987	-1.060262	-0.009735	64.5453	-1.058874	-1.405034E+14	6.928598E-17	NaN
1069	1.000000	0.092444	7.3755e+06	-53589.1	1055.82	-29745.8	0.000000	0.000000	6.092751	0.075425	NaN	0.000000	0.001649	0.001629	28.0816	0.017843	0.001911	9.335403	62.5862	14.0703	0.114999	0.091104	-1.048975	-1.050315	0.075425	9.335403	-1.055035	-1.247634E+14	-6.045477E-16	NaN
1069	1.000000	0.102451	7.3755e+06	-53589.1	1055.82	-29745.8	0.000000	0.000000	6.102757	0.060589	NaN	0.000000	0.001624	0.001643	28.0814	0.031754	0.001999	15.883	-33.3091	-164.857	0.064688	0.101131	-1.038968	-1.040287	0.060589	15.883	-1.041829	-8.290129E+13	-7.308537E-16	NaN
1069	1.000000	0.112458	7.3755e+06	-53589.1	1055.82	-29745.8	0.000000	0.000000	6.112763	0.028614	NaN	0.000000	0.001614	0.001645	28.0819	0.064725	0.002115	30.6056	110.713	12.6123	0.009190	0.111170	-1.028961	-1.030248	0.028614	30.6056	-1.029662	-5.687650E+13	-5.030894E-16	NaN
1069	1.000000	0.122444	7.3755e+06	-53589.1	1055.82	-29745.8	0.000000	0.000000	6.122750	0.060548	NaN	0.000000	0.001655	0.001645	28.0815	0.126882	0.001970	64.4154	129.193	-169.012	0.027172	0.121183	-1.018974	-1.020235	0.060548	64.4154	-1.019679	-4.174826E+13	-1.450309E-15	NaN
1069	1.000000	0.132469	7.3755e+06	-53589.1	1055.82	-29745.8	0.000000	0.000000	6.132777	0.107982	NaN	0.000000	0.001600	0.001667	28.0815	0.059863	0.001926	31.0876	41.4495	12.3886	-0.010645	0.131093	-1.008950	-1.010326	0.107982	31.0876	-1.011555	-3.245736E+13	-3.326873E-15	NaN
1069	1.000000	0.142477	7.3755e+06	-53589.1	1055.82	-29745.8	0.000000	0.000000	6.142783	0.054645	NaN	0.000000	0.001616	0.001648	28.0815	0.043206	0.002016	21.4291	-90.3575	-168.455	0.139799	0.141137	-0.998942	-1.000281	0.054645	21.4291	-1.000854	-2.329539E+13	-2.345758E-15	NaN
1069	1.000000	0.152489	7.3755e+06	-53589.1	1055.82	-29745.8	0.000000	0.000000	6.152794	0.021541	NaN	0.000000	0.001614	0.001660	28.0816	0.013824	0.002026	6.824329	5.250328	14.742	0.101449	0.151077	-0.988930	-0.990342	0.021541	6.824329	-0.991297	-1.732129E+13	-1.243593E-15	NaN
1069	1.000000	0.162487	7.3755e+06	-53589.1	1055.82	-29745.8	0.000000	0.000000	6.162790	-0.006129	NaN	0.000000	0.001617	0.001625	28.0816	0.088520	0.002063	42.9174	32.8249	-164.636	0.006806	0.161163	-0.978932	-0.980255	-0.006129	42.9174	-0.978825	-1.176462E+13	5.209436E-16	NaN
1069	1.000000	0.172497	7.3755e+06	-53589.1	1055.82	-29745.8	0.000000	0.000000	6.172802	0.031465	NaN	0.000000	0.001638	0.001602	28.0815	0.036931	0.002062	17.9118	4.579289	10.8849	0.049418	0.171127	-0.968921	-0.970292	0.031465	17.9118	-0.970239	-9.013299E+12	-3.490962E-15	NaN
1069	1.000000	0.182513	7.3755e+06	-53589.1	1055.82	-29745.8	0.000000	0.000000	6.182818	0.033207	NaN	0.000000	0.001566	0.001589	28.0817	0.075583	0.002045	36.9576	175.05	-167.7	0.024169	0.181236	-0.958906	-0.960183	0.033207	36.9576	-0.959580	-6.474459E+12	-5.128928E-15	NaN
1069	1.000000	0.192511	7.3755e+06	-53589.1	1055.82	-29745.8	0.000000	0.000000	6.192815	0.009127	NaN	0.000000	0.001573	0.001597	28.0814	0.093603	0.001791	52.2548	109.36	16.1154	0.058489	0.191148	-0.948908	-0.950271	0.009127	52.2548	-0.949039	-4.667297E+12	-1.955559E-15	NaN
1069	1.000000	0.202514	7.3755e+06	-53589.1	1055.82	-29745.8	0.000000	0.000000	6.202819	0.037187	NaN	0.000000	0.001563	0.001575	28.0814	0.045103	0.002053	21.9656	147.198	-167.828	0.078407	0.201199	-0.938905	-0.940220	0.037187	21.9656	-0.940174	-3.543973E+12	-1.049304E-14	NaN
1069	1.000000	0.212511	7.3755e+06	-53589.1	1055.82	-29745.8	0.000000	0.000000	6.212814	-0.009658	NaN	0.000000	0.001566	0.001585	28.0814	0.077081	0.001946	39.6056	6.812949	11.4449	0.016478	0.211121	-0.928908	-0.930298	-0.009658	39.6056	-0.928725	-2.483049E+12	3.889549E-15	NaN
1069	1.000000	0.222489	7.3755e+06	-53589.1	1055.82	-29745.8	0.000000	0.000000	6.222796	0.093376	NaN	0.000000	0.001603	0.001585	28.0831	0.084767	0.001990	42.6035	-70.8709	-166.448	0.167561	0.221184	-0.918930	-0.920235	0.093376	42.6035	-0.920574	-1.927328E+12	-4.844863E-14	NaN
1069	1.000000	0.232532	7.3755e+06	-53589.1	1055.82	-29745.8	0.000000	0.000000	6.232837	0.028401	NaN	0.000000	0.001555	0.001556	28.0826	0.053341	0.001935	27.5648	66.3506	15.0083	0.065185	0.231095	-0.908887	-0.910324	0.028401	27.5648	-0.909659	-1.372658E+12	-2.069031E-14	NaN
1069	1.000000	0.242533	7.3755e+06	-53589.1	1055.82	-29745.8	0.000000	0.000000	6.242839	0.045585	NaN	0.000000	0.001555	0.001579	28.0827	0.142644	0.002043	69.8279	-48.7435	-169.089	0.049403	0.241243	-0.898886	-0.900176	0.045585	69.8279	-0.899375	-9.968334E+11	-4.572960E-14	NaN
1069	1.000000	0.252545	7.3755e+06	-53589.1	1055.82	-29745.8	0.000000	0.000000	6.252854	0.122522	NaN	0.000000	0.001553	0.001572	28.0827	0.029748	0.002000	14.8714	39.6558	13.9345	0.099291	0.251142	-0.888873	-0.890277	0.122522	14.8714	-0.895053	-8.713804E+11	-1.406067E-13	NaN
1069	1.000000	0.262525	7.3755e+06	-53589.1	1055.82	-29745.8	0.000000	0.000000	6.262829	0.012343	NaN	0.000000	0.001607	0.001573	28.0829	0.118984	0.002016	59.0168	-150.876	-169.177	0.042726	0.261205	-0.878893	-0.880214	0.012343	59.0168	-0.879050	-5.294984E+11	-2.331119E-14	NaN
1069	1.000000	0.272516	7.3755e+06	-53589.1	1055.82	-29745.8	0.000000	0.000000	6.272823	0.092788	NaN	0.000000	0.001567	0.001542	28.0828	0.050115	0.002101	23.8527	23.4216	14.1148	0.030351	0.271229	-0.868903	-0.870190	0.092788	23.8527	-0.871821	-4.227406E+11	-2.194906E-13	NaN
1069	1.000000	0.282543	7.3755e+06	-53589.1	1055.82	-29745.8	0.000000	0.000000	6.282847	0.028997	NaN	0.000000	0.001623	0.001578	28.0828	0.140892	0.002026	69.5524	-150.972	-167.481	0.082770	0.281229	-0.858876	-0.860189	0.028997	69.5524	-0.859189	-2.851953E+11	-1.016726E-13	NaN
1069	1.000000	0.292551	7.3755e+06	-53589.1	1055.82	-29745.8	0.000000	0.000000	6.292858	0.075164	NaN	0.000000	0.001564	0.001631	28.0828	0.047524	0.002038	23.3186	-0.781514	12.0374	0.070404	0.291205	-0.848867	-0.850213	0.075164	23.3186	-0.851285	-2.229139E+11	-3.371864E-13	NaN
1069	1.000000	0.302537	7.3755e+06	-53589.1	1055.82	-29745.8	0.000000	0.000000	6.302841	-0.004101	NaN	0.000000	0.001575	0.001619	28.0826	0.036467	0.002007	18.1664	-104.453	-166.882	-0.010083	0.301225	-0.838882	-0.840194	-0.004101	18.1664	-0.838712	-1.506077E+11	2.722638E-14	NaN
1069	1.000000	0.312558	7.3755e+06	-53589.1	1055.82	-29745.8	0.000000	0.000000	6.312863	0.019262	NaN	0.000000	0.001587	0.001645	28.0825	0.164482	0.002081	79.0485	162.628	15.4401	0.081680	0.311196	-0.828861	-0.830222	0.019262	79.0485	-0.829043	-1.113824E+11	-1.729390E-13	NaN
1069	1.000000	0.322542	7.3755e+06	-53589.1	1055.82	-29745.8	0.000000	0.000000	6.322848	0.077004	NaN	0.000000	0.001569	0.001620	28.0827	0.080546	0.001888	42.6665	71.5206	-166.192	0.068732	0.321263	-0.818877	-0.820156	0.077004	42.6665	-0.820231	-8.459418E+10	-9.102745E-13	NaN
1069	1.000000	0.332581	7.3755e+06	-53589.1	1055.82	-29745.8	0.000000	0.000000	6.332886	0.037817	NaN	0.000000	0.001546	0.001622	28.0827	0.078502	0.002039	38.4952	38.6817	12.7952	-0.045391	0.331227	-0.808838	-0.810191	0.037817	38.4952	-0.809575	-6.064552E+10	-6.235717E-13	NaN
1069	1.000000	0.342590	7.3755e+06	-53589.1	1055.82	-29745.8	0.000000	0.000000	6.342895	0.042132	NaN	0.000000	0.001559	0.001604	28.0826	0.126548	0.002067	61.2198	-70.6342	-168.17	0.014834	0.341273	-0.798829	-0.800146	0.042132	61.2198	-0.799345	-4.405284E+10	-9.563904E-13	NaN
1069	1.000000	0.352575	7.3755e+06	-53589.1	1055.82	-29745.8	0.000000	0.000000	6.352882	0.091531	NaN	0.000000	0.001572	0.001610	28.0824	0.076078	0.001999	38.0617	97.0114	13.8937	0.080273	0.351207	-0.788844	-0.790212	0.091531	38.0617	-0.790648	-3.356472E+10	-2.727013E-12	NaN
1069	1.000000	0.362552	7.3755e+06	-53589.1	1055.82	-29745.8	0.000000	0.000000	6.362857	0.035002	NaN	0.000000	0.001583	0.001631	28.0813	0.064386	0.001946	33.0894	-149.095	-169.831	0.059631	0.361275	-0.778866	-0.780144	0.035002	33.0894	-0.779660	-2.380170E+10	-1.470579E-12	NaN
1069	1.000000	0.372584	7.3755e+06	-53589.1	1055.82	-29745.8	0.000000	0.000000	6.372888	0.010184	NaN	0.000000	0.001571	0.001582	28.0814	0.036424	0.002038	17.8736	80.7277	13.4865	0.040179	0.371229	-0.768835	-0.770190	0.010184	17.8736	-0.769262	-1.719002E+10	-5.924626E-13	NaN
1069	1.000000	0.382592	7.3755e+06	-53589.1	1055.82	-29745.8	0.000000	0.000000	6.382898	0.060212	NaN	0.000000	0.001577	0.001629	28.0814	0.076109	0.002172	35.0402	69.5764	-167.046	0.006842	0.381233	-0.758827	-0.760185	0.060212	35.0402	-0.760116	-1.290848E+10	-4.664510E-12	NaN
1069	1.000000	0.392569	7.3755e+06	-53589.1	1055.82	-29745.8	0.000000	0.000000	6.392875	0.046340	NaN	0.000000	0.001566	0.001615	28.0814	0.062771	0.002034	30.857	152.511	13.0029	0.126289	0.391226	-0.748850	-0.750193	0.046340	30.857	-0.749976	-9.394893E+9	-4.932417E-12	NaN
1069	1.000000	0.402592	7.3755e+06	-53589.1	1055.82	-29745.8	0.000000	0.000000	6.402897	0.025917	NaN	0.000000	0.001580	0.001593	28.0818	0.100856	0.001996	50.5385	-79.2	-168.718	0.043419	0.401298	-0.738826	-0.740121	0.025917	50.5385	-0.739211	-6.703627E+9	-3.866072E-12	NaN
1069	1.000000	0.412618	7.37551e+06	-53589.1	1055.82	-29745.8	0.000000	0.000000	6.412921	-0.019246	NaN	0.000000	0.001589	0.001628	28.0815	0.032578	0.001990	16.3669	-84.8963	14.6852	0.045035	0.411229	-0.728800	-0.730189	-0.019246	16.3669	-0.727918	-4.703668E+9	4.091682E-12	NaN
1069	1.000000	0.422592	7.37551e+06	-53589.1	1055.82	-29745.8	0.000000	0.000000	6.422896	0.018268	NaN	0.000000	0.001589	0.001624	28.0815	0.120694	0.002080	58.0265	-114.933	-167.067	0.015456	0.421322	-0.718827	-0.720097	0.018268	58.0265	-0.719063	-3.562004E+9	-5.128520E-12	NaN
1069	1.000000	0.432627	7.37551e+06	-53589.1	1055.82	-29745.8	0.000000	0.000000	6.432930	-0.002698	NaN	0.000000	0.001586	0.001615	28.0816	0.103964	0.002019	51.5021	-85.8782	13.9989	-0.023027	0.431284	-0.708792	-0.710135	-0.002698	51.5021	-0.708752	-2.576458E+9	1.047291E-12	NaN
1069	1.000000	0.442616	7.37551e+06	-53589.1	1055.82	-29745.8	0.000000	0.000000	6.442921	0.034884	NaN	0.000000	0.001597	0.001593	28.0818	0.113709	0.002130	53.3945	-118.89	-166.408	0.018231	0.441283	-0.698803	-0.700135	0.034884	53.3945	-0.699293	-1.913715E+9	-1.822817E-11	NaN
1069	1.000000	0.452632	7.37551e+06	-53589.1	1055.82	-29745.8	0.000000	0.000000	6.452940	0.115938	NaN	0.000000	0.001586	0.001618	28.0816	0.044465	0.002076	21.4194	143.235	10.7782	0.135578	0.451240	-0.688787	-0.690179	0.115938	21.4194	-0.692846	-1.562481E+9	-7.420110E-11	NaN
1069	1.000000	0.462642	7.37551e+06	-53589.1	1055.82	-29745.8	0.000000	0.000000	6.462949	0.067804	NaN	0.000000	0.001616	0.001582	28.0816	0.092794	0.002098	44.2346	-144.819	-165.227	0.017452	0.461310	-0.678777	-0.680109	0.067804	44.2346	-0.679926	-1.040392E+9	-6.517176E-11	NaN
1069	1.000000	0.472611	7.37551e+06	-53589.1	1055.82	-29745.8	0.000000	0.000000	6.472910	-0.099026	NaN	0.000000	0.001570	0.001613	28.0815	0.060469	0.002039	29.6614	17.0633	15.0614	-0.115156	0.471271	-0.668808	-0.670148	-0.099026	29.6614	-0.666304	-6.773237E+8	1.462012E-10	NaN
1069	1.000000	0.482620	7.37551e+06	-53589.1	1055.82	-29745.8	0.000000	0.000000	6.482924	0.022585	NaN	0.000000	0.001584	0.001608	28.0811	0.080514	0.002011	40.0292	4.281494	-164.404	0.099506	0.481333	-0.658799	-0.660086	0.022585	40.0292	-0.659222	-5.417664E+8	-4.168809E-11	NaN
1069	1.000000	0.492602	7.37551e+06	-53589.1	1055.82	-29745.8	0.000000	0.000000	6.492906	0.002998	NaN	0.000000	0.001625	0.001652	28.082	0.031035	0.001887	16.4456	-119.744	15.7286	0.054763	0.491273	-0.648817	-0.650145	0.002998	16.4456	-0.648954	-3.918248E+8	-7.650370E-12	NaN
1069	1.000000	0.502632	7.37551e+06	-53589.1	1055.82	-29745.8	0.000000	0.000000	6.502939	0.089185	NaN	0.000000	0.001601	0.001672	28.0827	0.065200	0.001911	34.1206	-167.267	-167.954	0.087727	0.501313	-0.638787	-0.640106	0.089185	34.1206	-0.640747	-3.023732E+8	-2.949517E-10	NaN
1069	1.000000	0.512643	7.37551e+06	-53589.1	1055.82	-29745.8	0.000000	0.000000	6.512946	-0.003631	NaN	0.000000	0.001599	0.001652	28.0831	0.113897	0.001906	59.7485	122.935	11.5922	0.046059	0.511268	-0.628776	-0.630151	-0.003631	59.7485	-0.628730	-2.068168E+8	1.755745E-11	NaN
1069	1.000000	0.522652	7.37551e+06	-53589.1	1055.82	-29745.8	0.000000	0.000000	6.522958	0.067431	NaN	0.000000	0.001581	0.001667	28.0828	0.019063	0.002081	9.162464	-55.5971	-169.544	0.096274	0.521339	-0.618767	-0.620080	0.067431	9.162464	-0.624287	-1.796985E+8	-3.752449E-10	NaN
1069	1.000000	0.532635	7.37551e+06	-53589.1	1055.82	-29745.8	0.000000	0.000000	6.532941	0.066963	NaN	0.000000	0.001566	0.001647	28.0828	0.089793	0.002019	44.4766	49.1427	12.3652	0.085395	0.531285	-0.608784	-0.610133	0.066963	44.4766	-0.609913	-1.140036E+8	-5.873796E-10	NaN
1069	1.000000	0.542663	7.37551e+06	-53589.1	1055.82	-29745.8	0.000000	0.000000	6.542968	0.033789	NaN	0.000000	0.001579	0.001751	28.0828	0.090140	0.002009	44.8699	-92.4968	-165.892	0.038356	0.541317	-0.598756	-0.600102	0.033789	44.8699	-0.599321	-8.149050E+7	-4.146331E-10	NaN
1069	1.000000	0.552668	7.37551e+06	-53589.1	1055.82	-29745.8	0.000000	0.000000	6.552976	0.107107	NaN	0.000000	0.001591	0.001681	28.0828	0.113201	0.002049	55.2425	144.356	13.532	0.090055	0.551224	-0.588751	-0.590195	0.107107	55.2425	-0.590205	-6.102335E+7	-1.755179E-9	NaN
1069	1.000000	0.562687	7.37551e+06	-53589.1	1055.82	-29745.8	0.000000	0.000000	6.562991	0.014155	NaN	0.000000	0.001572	0.001689	28.0827	0.057979	0.001971	29.4146	-134.065	-164.373	0.058186	0.561368	-0.578732	-0.580051	0.014155	29.4146	-0.579093	-4.287543E+7	-3.301524E-10	NaN
1069	1.000000	0.572696	7.37551e+06	-53589.1	1055.82	-29745.8	0.000000	0.000000	6.573002	0.059835	NaN	0.000000	0.001594	0.001634	28.0826	0.061615	0.002029	30.3742	69.7012	15.2103	0.069640	0.571323	-0.568723	-0.570095	0.059835	30.3742	-0.570200	-3.231456E+7	-1.851654E-9	NaN
1069	1.000000	0.582666	7.37551e+06	-53589.1	1055.82	-29745.8	0.000000	0.000000	6.582970	0.014958	NaN	0.000000	0.001552	0.001672	28.0831	0.027048	0.001828	14.7952	-176.68	-167.245	0.005290	0.581344	-0.558753	-0.560075	0.014958	14.7952	-0.559511	-2.299395E+7	-6.505052E-10	NaN
1069	1.000000	0.592684	7.37551e+06	-53589.1	1055.82	-29745.8	0.000000	0.000000	6.592988	0.021165	NaN	0.000000	0.001535	0.001691	28.0829	0.158803	0.002087	76.0906	-64.5574	12.7583	0.007226	0.591285	-0.548735	-0.550134	0.021165	76.0906	-0.548944	-1.641811E+7	-1.289122E-9	NaN
1069	1.000000	0.602696	7.37551e+06	-53589.1	1055.82	-29745.8	0.000000	0.000000	6.603000	0.017184	NaN	0.000000	0.001589	0.001660	28.0829	0.099060	0.002020	49.0347	-135.324	-167.838	-0.004628	0.601342	-0.538723	-0.540077	0.017184	49.0347	-0.538985	-1.194774E+7	-1.438258E-9	NaN
1069	1.000000	0.612679	7.37551e+06	-53589.1	1055.82	-29745.8	0.000000	0.000000	6.612984	0.040192	NaN	0.000000	0.001576	0.001708	28.0829	0.078337	0.001980	39.5717	-6.608028	11.3324	0.052011	0.611374	-0.528740	-0.530045	0.040192	39.5717	-0.529502	-8.82372e+06	-4.554958E-9	NaN
1069	1.000000	0.622689	7.37551e+06	-53589.1	1055.82	-29745.8	0.000000	0.000000	6.622995	0.060334	NaN	0.000000	0.001608	0.001651	28.0828	0.095070	0.001987	47.848	-56.6301	-169.682	0.070696	0.621377	-0.518730	-0.520042	0.060334	47.848	-0.519675	-6.44292e+06	-9.364406E-9	NaN
1069	1.000000	0.632681	7.37551e+06	-53589.1	1055.82	-29745.8	0.000000	0.000000	6.632986	0.036308	NaN	0.000000	0.001597	0.001676	28.0816	0.088050	0.001872	47.0438	7.383789	10.5493	0.036472	0.631274	-0.508738	-0.510145	0.036308	47.0438	-0.509316	-4.62268e+06	-7.854234E-9	NaN
1069	1.000000	0.642690	7.37551e+06	-53589.1	1055.82	-29745.8	0.000000	0.000000	6.642993	-0.014437	NaN	0.000000	0.001579	0.001680	28.0815	0.097447	0.002180	44.7042	147.144	-169.945	0.059402	0.641390	-0.498728	-0.500029	-0.014437	44.7042	-0.498486	-3.2651e+06	4.421645E-9	NaN
1069	1.000000	0.652697	7.37551e+06	-53589.1	1055.82	-29745.8	0.000000	0.000000	6.653001	-8.361143E-5	NaN	0.000000	0.001577	0.001715	28.0818	0.193782	0.001936	100.072	20.0593	9.717749	-0.005508	0.651325	-0.488722	-0.490093	-8.361143E-5	100.072	-0.488721	-2.38517e+06	3.505476E-11	NaN
1069	1.000000	0.662727	7.37551e+06	-53589.1	1055.82	-29745.8	0.000000	0.000000	6.663034	0.074198	NaN	0.000000	0.001576	0.001705	28.0816	0.046525	0.001992	23.3598	98.4501	-166.999	-0.024694	0.661390	-0.478692	-0.480028	0.074198	23.3598	-0.481074	-1.86449e+06	-3.979526E-8	NaN
1069	1.000000	0.672710	7.37551e+06	-53589.1	1055.82	-29745.8	0.000000	0.000000	6.673014	0.028942	NaN	0.000000	0.001557	0.001692	28.0815	0.078773	0.002010	39.1928	177.964	15.2191	0.045180	0.671368	-0.468709	-0.470051	0.028942	39.1928	-0.469263	-1.27371e+06	-2.272284E-8	NaN
1069	1.000000	0.682691	7.37551e+06	-53589.1	1055.82	-29745.8	0.000000	0.000000	6.682995	0.003228	NaN	0.000000	0.001573	0.001651	28.0816	0.136009	0.001977	68.8069	87.5378	-166.847	0.079181	0.681444	-0.458728	-0.459975	0.003228	68.8069	-0.458763	-907046	-3.559060E-9	NaN
1069	1.000000	0.692731	7.37551e+06	-53589.1	1055.82	-29745.8	0.000000	0.000000	6.693039	0.101385	NaN	0.000000	0.001576	0.001719	28.0818	0.044520	0.001905	23.3711	53.9355	14.6944	0.076477	0.691347	-0.448688	-0.450072	0.101385	23.3711	-0.451941	-727230	-1.394127E-7	NaN
1069	1.000000	0.702729	7.37551e+06	-53589.1	1055.82	-29745.8	0.000000	0.000000	6.703033	0.007060	NaN	0.000000	0.001552	0.001669	28.0815	0.077748	0.002029	38.3237	-68.7692	-165.923	-0.064825	0.701461	-0.438689	-0.439958	0.007060	38.3237	-0.438828	-475133	-1.485806E-8	NaN
1069	1.000000	0.712704	7.37551e+06	-53589.1	1055.82	-29745.8	0.000000	0.000000	6.713009	0.033311	NaN	0.000000	0.001554	0.001701	28.0818	0.086414	0.001955	44.2117	20.4312	15.4025	0.078159	0.711322	-0.428714	-0.430097	0.033311	44.2117	-0.429279	-348231	-9.565735E-8	NaN
1069	1.000000	0.722751	7.37551e+06	-53589.1	1055.82	-29745.8	0.000000	0.000000	6.723055	0.009847	NaN	0.000000	0.001568	0.001676	28.0819	0.099699	0.001953	51.0498	-62.4963	-168.511	0.012268	0.721392	-0.418668	-0.420027	0.009847	51.0498	-0.418813	-247498	-3.978818E-8	NaN
1069	1.000000	0.732698	7.37551e+06	-53589.1	1055.82	-29745.8	0.000000	0.000000	6.733003	0.039586	NaN	0.000000	0.001560	0.001702	28.0821	0.069926	0.002003	34.9124	179.305	15.2027	0.086397	0.731360	-0.408721	-0.410058	0.039586	34.9124	-0.409571	-182938	-2.163913E-7	NaN
1069	1.000000	0.742758	7.37551e+06	-53589.1	1055.82	-29745.8	0.000000	0.000000	6.743062	0.017839	NaN	0.000000	0.001540	0.001694	28.082	0.027712	0.001963	14.1179	14.9057	-166.269	0.045525	0.741348	-0.398661	-0.400071	0.017839	14.1179	-0.399608	-131950	-1.351975E-7	NaN
1069	1.000000	0.752726	7.37551e+06	-53589.1	1055.82	-29745.8	0.000000	0.000000	6.753031	0.050847	NaN	0.000000	0.001527	0.001664	28.0819	0.126173	0.001966	64.1714	-137.171	15.5219	0.047430	0.751390	-0.388693	-0.390029	0.050847	64.1714	-0.389287	-93966.4	-5.411235E-7	NaN
1069	1.000000	0.762738	7.37551e+06	-53589.1	1055.82	-29745.8	0.000000	0.000000	6.763045	0.089838	NaN	0.000000	0.001557	0.001663	28.0823	0.081546	0.002113	38.5904	161.283	-164.775	0.012677	0.761437	-0.378681	-0.379982	0.089838	38.5904	-0.380427	-70148.1	-1.280688E-6	NaN
1069	1.000000	0.772733	7.37551e+06	-53589.1	1055.82	-29745.8	0.000000	0.000000	6.773035	-0.024535	NaN	0.000000	0.001572	0.001662	28.0829	0.035181	0.002090	16.8344	-147.855	14.3063	9.261725E-5	0.771353	-0.368686	-0.370066	-0.024535	16.8344	-0.367593	-45861.7	5.349884E-7	NaN
1069	1.000000	0.782744	7.37551e+06	-53589.1	1055.82	-29745.8	0.000000	0.000000	6.783052	0.106408	NaN	0.000000	0.001568	0.001721	28.0828	0.076042	0.002017	37.6934	88.9083	-166.397	0.044600	0.781394	-0.358675	-0.360025	0.106408	37.6934	-0.360792	-36584	-2.908588E-6	NaN
1069	1.000000	0.792795	7.37551e+06	-53589.1	1055.82	-29745.8	0.000000	0.000000	6.793099	0.014478	NaN	0.000000	0.001559	0.001684	28.0828	0.101567	0.002082	48.7833	87.4766	14.2473	0.010154	0.791383	-0.348624	-0.350036	0.014478	48.7833	-0.348846	-24561.5	-5.894543E-7	NaN
1069	1.000000	0.802760	7.37551e+06	-53589.1	1055.82	-29745.8	0.000000	0.000000	6.803067	0.089896	NaN	0.000000	0.001572	0.001699	28.083	0.012923	0.001973	6.549734	101	-165.539	0.005718	0.801475	-0.338659	-0.339944	0.089896	6.549734	-0.348953	-24649	-3.647055E-6	NaN
1069	1.000000	0.812768	7.37551e+06	-53589.1	1055.82	-29745.8	0.000000	0.000000	6.813075	0.080581	NaN	0.000000	0.001501	0.001677	28.0828	0.052886	0.001963	26.9439	143.968	12.4566	0.077793	0.811398	-0.328651	-0.330021	0.080581	26.9439	-0.330894	-13444.2	-5.993744E-6	NaN
1069	1.000000	0.822777	7.37551e+06	-53589.1	1055.82	-29745.8	0.000000	0.000000	6.823085	0.096512	NaN	0.000000	0.001582	0.001672	28.0829	0.025188	0.002064	12.2036	-73.2956	-166	0.213678	0.821463	-0.318641	-0.319956	0.096512	12.2036	-0.324573	-10860.8	-8.886208E-6	NaN
1069	1.000000	0.832759	7.37551e+06	-53589.1	1055.82	-29745.8	0.000000	0.000000	6.833062	-0.016844	NaN	0.000000	0.001586	0.001690	28.0829	0.081774	0.001971	41.4863	-31.0246	11.8345	-0.011857	0.831479	-0.308659	-0.309940	-0.016844	41.4863	-0.308355	-6261.81	2.689970E-6	NaN
1069	1.000000	0.842749	7.37551e+06	-53589.1	1055.82	-29745.8	0.000000	0.000000	6.843055	0.055407	NaN	0.000000	0.001543	0.001672	28.083	0.033779	0.001893	17.8454	-134.661	-163.159	0.064184	0.841459	-0.298670	-0.299960	0.055407	17.8454	-0.300998	-4869.6	-1.137820E-5	NaN
1069	1.000000	0.852787	7.37551e+06	-53589.1	1055.82	-29745.8	0.000000	0.000000	6.853093	0.043358	NaN	0.000000	0.001526	0.001670	28.083	0.044926	0.001968	22.8292	153.167	15.8567	0.010903	0.851411	-0.288632	-0.290008	0.043358	22.8292	-0.290056	-3343.04	-1.296952E-5	NaN
1069	1.000000	0.862799	7.37551e+06	-53589.1	1055.82	-29745.8	0.000000	0.000000	6.863105	0.053889	NaN	0.000000	0.001577	0.001672	28.0829	0.013908	0.002028	6.859194	-45.849	-163.852	0.067537	0.861497	-0.278619	-0.279922	0.053889	6.859194	-0.284512	-2760.09	-1.952426E-5	NaN
1069	1.000000	0.872802	7.37551e+06	-53589.1	1055.82	-29745.8	0.000000	0.000000	6.873106	0.024513	NaN	0.000000	0.001546	0.001680	28.0833	0.066254	0.002020	32.7943	179.868	16.7647	0.015877	0.871453	-0.268617	-0.269965	0.024513	32.7943	-0.269178	-1618.23	-1.514791E-5	NaN
1069	1.000000	0.882819	7.37551e+06	-53589.1	1055.82	-29745.8	0.000000	0.000000	6.883122	-0.017111	NaN	0.000000	0.001588	0.001695	28.0829	0.044145	0.002016	21.9014	118.759	-165.866	0.013571	0.881486	-0.258600	-0.259932	-0.017111	21.9014	-0.258014	-1092.58	1.566127E-5	NaN
1069	1.000000	0.892794	7.37551e+06	-53589.1	1055.82	-29745.8	0.000000	0.000000	6.893097	-0.029758	NaN	0.000000	0.001525	0.001700	28.0832	0.018697	0.001980	9.442553	-99.7969	10.8931	0.007338	0.891425	-0.248624	-0.249993	-0.029758	9.442553	-0.246261	-719.503	4.135908E-5	NaN
1069	1.000000	0.902780	7.37551e+06	-53589.1	1055.82	-29745.8	0.000000	0.000000	6.903084	0.033612	NaN	0.000000	0.001549	0.001688	28.0822	0.036926	0.002027	18.2194	142.347	-165.7	0.038480	0.901467	-0.238639	-0.239951	0.033612	18.2194	-0.240023	-575.321	-5.842387E-5	NaN
1069	1.000000	0.912772	7.37551e+06	-53589.1	1055.82	-29745.8	0.000000	0.000000	6.913079	0.065516	NaN	0.000000	0.001556	0.001672	28.0819	0.008233	0.002040	4.034943	92.653	18.0214	0.098536	0.911420	-0.228646	-0.229999	0.065516	4.034943	-0.240824	-592.138	-0.000111	NaN
1069	1.000000	0.922819	7.37551e+06	-53589.1	1055.82	-29745.8	0.000000	0.000000	6.923125	0.073044	NaN	0.000000	0.001534	0.001687	28.0816	0.068841	0.001894	36.3487	-109.086	-168.167	0.086988	0.921494	-0.218600	-0.219925	0.073044	36.3487	-0.220107	-278.864	-0.000262	NaN
1069	1.000000	0.932796	7.37551e+06	-53589.1	1055.82	-29745.8	0.000000	0.000000	6.933101	0.030944	NaN	0.000000	0.001568	0.001669	28.0817	0.041669	0.001909	21.831	0.938075	14.6044	-0.038072	0.931444	-0.208623	-0.209974	0.030944	21.831	-0.209686	-189.553	-0.000163	NaN
1069	1.000000	0.942837	7.37551e+06	-53589.1	1055.82	-29745.8	0.000000	0.000000	6.943144	0.084965	NaN	0.000000	0.001500	0.001683	28.0819	0.138976	0.002023	68.7018	144.505	-167.312	0.108014	0.941482	-0.198582	-0.199937	0.084965	68.7018	-0.199509	-129.31	-0.000657	NaN
1069	1.000000	0.952815	7.37551e+06	-53589.1	1055.82	-29745.8	0.000000	0.000000	6.953122	0.081346	NaN	0.000000	0.001535	0.001725	28.0815	0.047416	0.001999	23.7199	-54.2123	16.0051	0.042823	0.951466	-0.188604	-0.189953	0.081346	23.7199	-0.191176	-94.1126	-0.000864	NaN
1069	1.000000	0.962800	7.37551e+06	-53589.1	1055.82	-29745.8	0.000000	0.000000	6.963106	0.069268	NaN	0.000000	0.001579	0.001668	28.0815	0.096011	0.002050	46.8327	-84.7163	-166.933	-0.026739	0.961512	-0.178619	-0.179907	0.069268	46.8327	-0.179728	-60.373	-0.001147	NaN
1069	1.000000	0.972846	7.37551e+06	-53589.1	1055.82	-29745.8	0.000000	0.000000	6.973152	0.050485	NaN	0.000000	0.001611	0.001672	28.0817	0.038610	0.002013	19.1822	32.5377	11.528	0.047589	0.971393	-0.168573	-0.170026	0.050485	19.1822	-0.170547	-41.9857	-0.001202	NaN
1069	1.000000	0.982820	7.37551e+06	-53589.1	1055.82	-29745.8	0.000000	0.000000	6.983128	0.120075	NaN	0.000000	0.001588	0.001668	28.0816	0.073193	0.001921	38.1055	-103.007	-164.254	0.111411	0.981498	-0.158599	-0.159921	0.120075	38.1055	-0.160962	-28.5147	-0.004211	NaN
1069	1.000000	0.992812	7.37551e+06	-53589.1	1055.82	-29745.8	0.000000	0.000000	6.993117	0.028332	NaN	0.000000	0.001602	0.001671	28.0818	0.142401	0.002026	70.2824	117.039	11.1325	0.039844	0.991449	-0.148607	-0.149970	0.028332	70.2824	-0.148909	-17.3014	-0.001638	NaN
1069	1.000000	1.002839	7.37551e+06	-53589.1	1055.82	-29745.8	0.000000	0.000000	7.003143	0.009519	NaN	0.000000	0.001619	0.001643	28.0818	0.022049	0.002051	10.7483	-149.861	-162.721	0.093769	1.001571	-0.138579	-0.139848	0.009519	10.7483	-0.139244	-11.4483	-0.000832	NaN
1069	1.000000	1.012849	7.37551e+06	-53589.1	1055.82	-29745.8	0.000000	0.000000	7.013154	0.040077	NaN	0.000000	0.001623	0.001670	28.0817	0.068197	0.001941	35.1376	-75.9204	12.2019	0.011045	1.011458	-0.128570	-0.129961	0.040077	35.1376	-0.129425	-7.427338	-0.005396	NaN
1069	1.000000	1.022859	7.37551e+06	-53589.1	1055.82	-29745.8	0.000000	0.000000	7.023164	0.046033	NaN	0.000000	0.001606	0.001706	28.0818	0.063551	0.002026	31.3704	48.8255	-165.375	0.042821	1.021574	-0.118560	-0.119845	0.046033	31.3704	-0.119660	-4.755793	-0.009679	NaN
1069	1.000000	1.032851	7.37551e+06	-53589.1	1055.82	-29745.8	0.000000	0.000000	7.033154	-0.028060	NaN	0.000000	0.001620	0.001686	28.0819	0.039943	0.001943	20.5608	160.062	12.1125	-0.036989	1.031510	-0.108567	-0.109909	-0.028060	20.5608	-0.107544	-2.665518	0.010527	NaN
1069	1.000000	1.042847	7.37551e+06	-53589.1	1055.82	-29745.8	0.000000	0.000000	7.043150	-0.014560	NaN	0.000000	0.001633	0.001707	28.0828	0.008698	0.002026	4.293580	-144.234	-164.976	-0.021199	1.041537	-0.098572	-0.099881	-0.014560	4.293580	-0.096029	-1.488623	0.009781	NaN
1069	1.000000	1.052862	7.37551e+06	-53589.1	1055.82	-29745.8	0.000000	0.000000	7.053169	0.080650	NaN	0.000000	0.001640	0.001698	28.0832	0.120831	0.001994	60.5948	-112.127	12.7511	0.064340	1.051497	-0.088557	-0.089922	0.080650	60.5948	-0.089555	-1.055282	-0.076425	NaN
1069	1.000000	1.062856	7.37551e+06	-53589.1	1055.82	-29745.8	0.000000	0.000000	7.063158	-0.044597	NaN	0.000000	0.001642	0.001722	28.0829	0.041499	0.002006	20.683	174.311	-166.387	-0.027197	1.061485	-0.078562	-0.079934	-0.044597	20.683	-0.076945	-0.518214	0.086058	NaN
1069	1.000000	1.072875	7.37551e+06	-53589.1	1055.82	-29745.8	0.000000	0.000000	7.073182	0.086865	NaN	0.000000	0.001611	0.001690	28.083	0.052364	0.002118	24.7192	33.5272	13.8093	0.121090	1.071485	-0.068543	-0.069933	0.086865	24.7192	-0.071179	-0.366729	-0.236865	NaN
1069	1.000000	1.082857	7.37551e+06	-53589.1	1055.82	-29745.8	0.000000	0.000000	7.083163	0.048544	NaN	0.000000	0.001614	0.001703	28.0824	0.012036	0.001955	6.157569	-48.8075	-167.288	0.029384	1.081530	-0.058562	-0.059888	0.048544	6.157569	-0.064474	-0.240975	-0.201448	NaN
1069	1.000000	1.092853	7.37551e+06	-53589.1	1055.82	-29745.8	0.000000	0.000000	7.093157	0.033362	NaN	0.000000	0.001592	0.001667	28.0831	0.084815	0.001935	43.8428	-113.544	10.789	0.036226	1.091508	-0.048566	-0.049911	0.033362	43.8428	-0.049137	-0.085921	-0.388290	NaN
1069	1.000000	1.102910	7.37551e+06	-53589.1	1055.82	-29745.8	0.000000	0.000000	7.103218	0.099800	NaN	0.000000	0.001554	0.001702	28.0828	0.039615	0.001924	20.5897	-21.0815	-163.47	0.086393	1.101489	-0.038509	-0.039930	0.099800	20.5897	-0.042144	-0.052562	-1.898716	NaN
1069	1.000000	1.112867	7.37551e+06	-53589.1	1055.82	-29745.8	0.000000	0.000000	7.113172	0.034898	NaN	0.000000	0.001542	0.001702	28.0828	0.062540	0.001994	31.3659	171.645	13.8108	0.069004	1.111501	-0.028552	-0.029917	0.034898	31.3659	-0.029386	-0.022127	-1.577128	NaN
1069	1.000000	1.122887	7.37551e+06	-53589.1	1055.82	-29745.8	0.000000	0.000000	7.123191	0.013161	NaN	0.000000	0.001525	0.001653	28.0827	0.071615	0.002034	35.2157	-7.825615	-166.682	-0.009784	1.121570	-0.018532	-0.019849	0.013161	35.2157	-0.018812	-0.011714	-1.123583	NaN
1069	1.000000	1.132867	7.37551e+06	-53589.1	1055.82	-29745.8	0.000000	0.000000	7.133172	0.041127	NaN	0.000000	0.001511	0.001678	28.083	0.036716	0.002030	18.0859	144.594	13.8304	0.063304	1.131499	-0.008552	-0.009919	0.041127	18.0859	-0.010257	-0.006534	-6.294003	NaN
1069	1.000000	1.142867	7.37551e+06	-53589.1	1055.82	-29745.8	0.000000	0.000000	7.143223	1.262762	NaN	0.000000	0.001550	0.001637	28.0829	1.865341	0.002010	927.922	7.689435	-167.865	0.390852	1.141586	0.001449	0.000167	1.262762	927.922	0.000428	0.000322	3915.67	47209.2
1069	2.000000	1.150984	7.37551e+06	-53589.1	1055.82	-29745.8	0.000000	0.000000	7.151668	9.234773	NaN	0.000000	0.001554	0.001673	28.083	9.256370	0.001609	5752.52	7.077788	5.673078	8.742753	1.150626	0.009566	0.009207	9.234773	5752.52	0.008362	0.007417	1245.11	61026.9
1069	2.000000	1.153456	7.37551e+06	-53589.1	1055.82	-29745.8	0.000000	0.000000	7.154242	11.7467	NaN	0.000000	0.001567	0.001678	28.0831	12.3572	0.001770	6981.35	4.860698	-172.84	11.2944	1.153190	0.012037	0.011771	11.7467	6981.35	0.010775	0.010055	1168.2	63608.2
1069	2.000000	1.155938	7.37551e+06	-53589.1	1055.82	-29745.8	0.000000	0.000000	7.156889	15.7467	NaN	0.000000	0.001560	0.001681	28.0829	14.318	0.001767	8101	7.361096	5.529637	15.0339	1.155623	0.014519	0.014204	15.7467	8101	0.013061	0.012786	1231.56	65455.3
1069	2.000000	1.158449	7.37551e+06	-53589.1	1055.82	-29745.8	0.000000	0.000000	7.159484	17.786	NaN	0.000000	0.001543	0.001702	28.0818	16.055	0.001622	9896.12	1.897342	-172.57	17.8339	1.158110	0.017030	0.016691	17.786	9896.12	0.015682	0.016206	1097.52	71024.2
1069	2.000000	1.160928	7.37551e+06	-53589.1	1055.82	-29745.8	0.000000	0.000000	7.162189	23.2698	NaN	0.000000	0.001555	0.001675	28.0817	18.7909	0.001730	10863.7	4.897589	3.908591	22.7631	1.160603	0.019509	0.019184	23.2698	10863.7	0.017903	0.019353	1202.37	71346.9
1069	2.000000	1.163414	7.37551e+06	-53589.1	1055.82	-29745.8	0.000000	0.000000	7.164870	28.0374	NaN	0.000000	0.001569	0.001687	28.0819	22.1652	0.001781	12442.5	8.087554	177.979	27.3866	1.163076	0.021995	0.021657	28.0374	12442.5	0.020305	0.023024	1217.77	74919.5
1069	2.000000	1.165941	7.37551e+06	-53589.1	1055.82	-29745.8	0.000000	0.000000	7.167715	35.7403	NaN	0.000000	0.001524	0.001682	28.0816	24.3954	0.001787	13654.9	5.994424	0.410704	34.7304	1.165523	0.024522	0.024105	35.7403	13654.9	0.022559	0.026724	1337.38	76315.2
1069	2.000000	1.168441	7.37551e+06	-53589.1	1055.82	-29745.8	0.000000	0.000000	7.170409	40.4669	NaN	0.000000	0.001560	0.001683	28.0817	26.8326	0.001804	14870.7	9.337763	176.732	41.3159	1.168082	0.027022	0.026663	40.4669	14870.7	0.024981	0.030981	1306.18	77189
1069	2.000000	1.170882	7.37551e+06	-53589.1	1055.82	-29745.8	0.000000	0.000000	7.173082	46.1191	NaN	0.000000	0.001534	0.001662	28.0818	29.2184	0.001795	16276.3	5.402623	-0.432509	44.9353	1.170470	0.029463	0.029051	46.1191	16276.3	0.027338	0.035407	1302.55	79028.6
1069	2.000000	1.173402	7.37551e+06	-53589.1	1055.82	-29745.8	0.000000	0.000000	7.175820	51.4025	NaN	0.000000	0.001544	0.001685	28.0817	32.4913	0.001804	18015.2	7.292907	176.259	52.2885	1.173029	0.031983	0.031610	51.4025	18015.2	0.029843	0.040419	1271.73	81868.6
1069	2.000000	1.175951	7.37551e+06	-53589.1	1055.82	-29745.8	0.000000	0.000000	7.178800	61.8917	NaN	0.000000	0.001556	0.001676	28.0816	33.6803	0.001902	17709.6	5.981617	-0.336294	63.9718	1.175520	0.034532	0.034101	61.8917	17709.6	0.031911	0.044798	1381.58	76445.7
1069	2.000000	1.178392	7.37551e+06	-53589.1	1055.82	-29745.8	0.000000	0.000000	7.181350	64.5343	NaN	0.000000	0.001545	0.001685	28.0817	35.6477	0.001786	19958.4	1.885486	-178.586	65.0405	1.178145	0.036973	0.036726	64.5343	19958.4	0.034548	0.050698	1272.91	80984.8
1069	2.000000	1.180839	7.37551e+06	-53589.1	1055.82	-29745.8	0.000000	0.000000	7.184227	74.9907	NaN	0.000000	0.001572	0.001663	28.0818	38.116	0.001760	21660.1	2.752195	-0.653428	71.9367	1.180562	0.039420	0.039144	74.9907	21660.1	0.036823	0.056077	1337.29	83568.5
1069	2.000000	1.183384	7.37551e+06	-53589.1	1055.82	-29745.8	0.000000	0.000000	7.187125	83.5594	NaN	0.000000	0.001558	0.001684	28.0817	41.0419	0.001876	21871.5	4.627652	177.745	82.7757	1.183104	0.041966	0.041686	83.5594	21871.5	0.039100	0.061724	1353.77	80431.7
1069	2.000000	1.185903	7.37551e+06	-53589.1	1055.82	-29745.8	0.000000	0.000000	7.190037	93.127	NaN	0.000000	0.001573	0.001713	28.0817	43.1295	0.001763	24469.5	6.652645	-4.638204	93.4903	1.185481	0.044484	0.044062	93.127	24469.5	0.041630	0.068309	1363.32	85538.2
1069	2.000000	1.188267	7.37551e+06	-53589.1	1055.82	-29745.8	0.000000	0.000000	7.192832	103.616	NaN	0.000000	0.001571	0.001697	28.0819	45.0982	0.001819	24787.4	5.215754	176.243	99.5533	1.187975	0.046848	0.046556	103.616	24787.4	0.043713	0.073976	1400.67	83264.2
1069	2.000000	1.190835	7.37551e+06	-53589.1	1055.82	-29745.8	0.000000	0.000000	7.195707	111.065	NaN	0.000000	0.001563	0.001716	28.0826	47.3144	0.001746	27101.4	3.854684	-3.779753	107.68	1.190576	0.049417	0.049157	111.065	27101.4	0.046343	0.081446	1363.67	86762.4
1069	2.000000	1.193385	7.37551e+06	-53589.1	1055.82	-29745.8	0.000000	0.000000	7.198681	121.394	NaN	0.000000	0.001566	0.001632	28.0829	51.2409	0.001782	28750	5.924707	173.609	122.73	1.193086	0.051966	0.051667	121.394	28750	0.048799	0.088737	1368.02	88177.8
1069	2.000000	1.195914	7.37551e+06	-53589.1	1055.82	-29745.8	0.000000	0.000000	7.201731	134.042	NaN	0.000000	0.001583	0.001643	28.0827	52.6916	0.001883	27976	7.808960	-5.782483	135.903	1.195444	0.054495	0.054026	134.042	27976	0.050901	0.095220	1407.71	82831.2
1069	2.000000	1.198297	7.37551e+06	-53589.1	1055.82	-29745.8	0.000000	0.000000	7.204626	146.479	NaN	0.000000	0.001538	0.001636	28.083	55.2901	0.001849	29897.1	7.351383	172.305	142.757	1.198003	0.056878	0.056584	146.479	29897.1	0.053204	0.102573	1428.05	85287.8
1069	2.000000	1.200824	7.37551e+06	-53589.1	1055.82	-29745.8	0.000000	0.000000	7.207520	155.421	NaN	0.000000	0.001561	0.001644	28.0828	58.0445	0.001886	30781.8	3.571182	-3.269353	152.49	1.200550	0.059405	0.059131	155.421	30781.8	0.055618	0.110566	1405.69	84577.8
1069	2.000000	1.203306	7.37551e+06	-53589.1	1055.82	-29745.8	0.000000	0.000000	7.210286	162.319	NaN	0.000000	0.001514	0.001664	28.0828	59.6475	0.001835	32503.2	1.441655	177.518	160.334	1.203132	0.061888	0.061713	162.319	32503.2	0.058142	0.119231	1361.39	86001.4
1069	2.000000	1.205837	7.37551e+06	-53589.1	1055.82	-29745.8	0.000000	0.000000	7.213531	179.682	NaN	0.000000	0.001551	0.001648	28.0829	62.1423	0.001897	32763	3.406042	-3.977993	178.312	1.205560	0.064418	0.064142	179.682	32763	0.060305	0.126904	1415.89	84027
1069	2.000000	1.208293	7.37551e+06	-53589.1	1055.82	-29745.8	0.000000	0.000000	7.216706	197.167	NaN	0.000000	0.001537	0.001685	28.0831	65.278	0.001882	34681.1	9.283406	169.215	194.686	1.207965	0.066874	0.066546	197.167	34681.1	0.062610	0.135333	1456.91	86131.8
1069	2.000000	1.210744	7.37551e+06	-53589.1	1055.82	-29745.8	0.000000	0.000000	7.219913	215.534	NaN	0.000000	0.001521	0.001664	28.0829	66.756	0.001729	38612.2	4.440896	-6.031326	209.465	1.210407	0.069325	0.068988	215.534	38612.2	0.065139	0.144878	1487.7	92682.4
1069	2.000000	1.213280	7.37551e+06	-53589.1	1055.82	-29745.8	0.000000	0.000000	7.222743	222.684	NaN	0.000000	0.001558	0.001663	28.0829	70.8736	0.001830	38724.4	6.229528	171.071	220.758	1.213059	0.071861	0.071640	222.684	38724.4	0.067548	0.154258	1443.58	90081
1069	2.000000	1.215828	7.37551e+06	-53589.1	1055.82	-29745.8	0.000000	0.000000	7.226081	241.886	NaN	0.000000	0.001577	0.001667	28.083	72.7092	0.001876	38767.7	8.207416	-10.2587	238.633	1.215448	0.074410	0.074029	241.886	38767.7	0.069730	0.162992	1484.04	87732.4
1069	2.000000	1.218300	7.37551e+06	-53589.1	1055.82	-29745.8	0.000000	0.000000	7.229280	259.591	NaN	0.000000	0.001590	0.001660	28.0828	74.2682	0.001750	42446.2	5.746503	171.062	258.665	1.217976	0.076881	0.076557	259.591	42446.2	0.072294	0.173545	1495.82	93090.7
1069	2.000000	1.220755	7.37551e+06	-53589.1	1055.82	-29745.8	0.000000	0.000000	7.232320	273.793	NaN	0.000000	0.001557	0.001673	28.083	77.0078	0.001835	41971.7	8.164633	-9.968227	267.825	1.220345	0.079336	0.078927	273.793	41971.7	0.074443	0.182631	1499.16	89731.1
1069	2.000000	1.223342	7.37551e+06	-53589.1	1055.82	-29745.8	0.000000	0.000000	7.235584	290.237	NaN	0.000000	0.001567	0.001672	28.0833	79.8883	0.001861	42936.1	4.697380	172.932	290.664	1.222930	0.081923	0.081511	290.237	42936.1	0.076854	0.193080	1503.2	89274.4
1069	2.000000	1.225849	7.37551e+06	-53589.1	1055.82	-29745.8	0.000000	0.000000	7.238413	298.073	NaN	0.000000	0.001580	0.001646	28.0819	81.7679	0.001767	46274.3	4.894306	-8.555577	297.66	1.225708	0.084431	0.084289	298.073	46274.3	0.079599	0.205314	1451.79	93304.7
1069	2.000000	1.228165	7.37551e+06	-53589.1	1055.82	-29745.8	0.000000	0.000000	7.241755	323.048	NaN	0.000000	0.001559	0.001658	28.0818	82.5225	0.001844	44748.9	0.788732	176.434	315.402	1.227866	0.086746	0.086448	323.048	44748.9	0.081331	0.213212	1515.15	88542
1069	2.000000	1.230799	7.37551e+06	-53589.1	1055.82	-29745.8	0.000000	0.000000	7.245057	339.283	NaN	0.000000	0.001559	0.001679	28.0816	85.34	0.001729	49357.4	1.908047	-5.605895	336.788	1.230462	0.089380	0.089044	339.283	49357.4	0.084224	0.226716	1496.51	94707.5
1069	2.000000	1.233307	7.37551e+06	-53589.1	1055.82	-29745.8	0.000000	0.000000	7.248255	356.033	NaN	0.000000	0.001603	0.001665	28.0818	89.1624	0.001786	49911.3	4.790087	170.743	355.546	1.233007	0.091888	0.091588	356.033	49911.3	0.086538	0.237795	1497.22	93512.7
1069	2.000000	1.235767	7.37551e+06	-53589.1	1055.82	-29745.8	0.000000	0.000000	7.251469	374.37	NaN	0.000000	0.001589	0.001679	28.0818	90.6074	0.001794	50506.3	4.724405	-8.437074	370.938	1.235536	0.094348	0.094117	374.37	50506.3	0.088789	0.248808	1504.66	92509.6
1069	2.000000	1.238215	7.37551e+06	-53589.1	1055.82	-29745.8	0.000000	0.000000	7.254967	399.916	NaN	0.000000	0.001593	0.001669	28.0819	91.8567	0.001655	55500.9	4.516788	170.52	394.964	1.237913	0.096796	0.096494	399.916	55500.9	0.091392	0.261833	1527.37	99097
1069	2.000000	1.240722	7.37551e+06	-53589.1	1055.82	-29745.8	0.000000	0.000000	7.258265	419.129	NaN	0.000000	0.001609	0.001622	28.0817	94.1794	0.001792	52560	2.322987	-6.370657	412.751	1.240370	0.099303	0.098951	419.129	52560	0.093322	0.271695	1542.65	92127.2
1069	2.000000	1.243256	7.37551e+06	-53589.1	1055.82	-29745.8	0.000000	0.000000	7.261445	434.842	NaN	0.000000	0.001530	0.001653	28.0822	97.7073	0.001813	53901.3	5.390171	170.357	430.952	1.242973	0.101837	0.101554	434.842	53901.3	0.095787	0.284532	1528.27	92322.5
1069	2.000000	1.245729	7.37551e+06	-53589.1	1055.82	-29745.8	0.000000	0.000000	7.264887	458.396	NaN	0.000000	0.001565	0.001651	28.0818	98.7682	0.001935	51052.4	3.875301	-6.621979	451.315	1.245429	0.104310	0.104010	458.396	51052.4	0.097575	0.294023	1559.05	86019.8
1069	2.000000	1.248183	7.37551e+06	-53589.1	1055.82	-29745.8	0.000000	0.000000	7.268328	482.373	NaN	0.000000	0.001506	0.001699	28.0819	102.331	0.001955	52333	5.483681	171.158	477.072	1.247863	0.106764	0.106445	482.373	52333	0.099851	0.306309	1574.79	86391.1
1069	2.000000	1.248839	7.37551e+06	-53589.1	1055.82	-29745.8	0.000000	0.000000	7.269020	483.278	NaN	0.000000	0.001545	0.001666	28.0821	103.024	0.001802	57160.7	7.979757	-12.1981	483.847	1.248344	0.107420	0.106925	483.278	57160.7	0.101079	0.313033	1543.85	93341.6