File: remote_trans/data/nanoindenter/0828-1/data/Data_2025-08-06,11h17m57s/2025-07-22_16-23-58_1_29.txt
2025-07-22, 16:23:58, 1
Index	Phase	Displacement	Time	Pos X	Pos Y	Pos Z	Rot A	Rot B	Piezo Z	Force A	Force B	Gripper	Voltage A	Voltage B	Temperature	Amplitude force	Amplitude pos	Stiffness	Phase shift	Phase excitation	Force A raw	Displacement raw	HMax	HMax raw	Real Force	Real Stiffness	Contact Depth	Area	Hardness	Reduced Mod.
[#]	[#]	[um]	[s]	[um]	[um]	[um]	[m°]	[m°]	[um]	[uN]	[uN]	[V]	[V]	[V]	[°C]	[uN]	[um]	[N/m]	[°]	[°]	[uN]	[um]	[um]	[um]	[uN]	[N/m]	[um]	[um^2]	[MPa]	[MPa]
29	1.000000	0.002284	7.36532e+06	-40089.1	955.818	-29792	0.000000	0.000000	6.002833	0.012634	NaN	0.000000	0.001607	0.001734	28.0852	0.011347	0.000866	13.1036	-83.4674	-169.322	0.037730	0.000987	-1.025840	-1.027137	0.012634	13.1036	-1.026563	-5.167170E+13	-2.444959E-16	NaN
29	1.000000	0.010233	7.36532e+06	-40089.1	955.819	-29792	0.000000	0.000000	6.010783	0.027227	NaN	0.000000	0.001586	0.001701	28.0865	0.086098	0.001016	84.7769	77.0235	-164.062	0.013523	0.008939	-1.017890	-1.019185	0.027227	84.7769	-1.018131	-3.979318E+13	-6.842244E-16	NaN
29	1.000000	0.018228	7.36532e+06	-40089.1	955.819	-29792	0.000000	0.000000	6.018774	-0.048689	NaN	0.000000	0.001592	0.001723	28.0861	0.015712	0.001744	9.011560	56.2123	-165.358	0.008641	0.016903	-1.009896	-1.011221	-0.048689	9.011560	-1.005844	-2.719206E+13	1.790572E-15	NaN
29	1.000000	0.026268	7.36532e+06	-40089.1	955.818	-29792	0.000000	0.000000	6.026815	-0.035294	NaN	0.000000	0.001606	0.001730	28.0866	0.036856	0.001850	19.9275	28.5195	-164.248	-0.000274	0.024907	-1.001856	-1.003216	-0.035294	19.9275	-1.000528	-2.306085E+13	1.530486E-15	NaN
29	1.000000	0.034246	7.36532e+06	-40089.1	955.818	-29792	0.000000	0.000000	6.034795	0.009107	NaN	0.000000	0.001577	0.001728	28.0878	0.045752	0.002033	22.5054	-96.2352	-165.293	-0.039396	0.032926	-0.993878	-0.995198	0.009107	22.5054	-0.994181	-1.894189E+13	-4.807955E-16	NaN
29	1.000000	0.042206	7.36532e+06	-40089.1	955.819	-29792.1	0.000000	0.000000	6.042755	0.012125	NaN	0.000000	0.001615	0.001755	28.087	0.020223	0.001966	10.2841	-167.785	-161.651	-0.002979	0.040926	-0.985918	-0.987198	0.012125	10.2841	-0.986802	-1.506744E+13	-8.047233E-16	NaN
29	1.000000	0.050195	7.36532e+06	-40089.1	955.818	-29792.1	0.000000	0.000000	6.050742	-0.034435	NaN	0.000000	0.001631	0.001763	28.0865	0.027225	0.001937	14.0584	36.9462	-164.152	0.046052	0.048894	-0.977929	-0.979230	-0.034435	14.0584	-0.976092	-1.080820E+13	3.186019E-15	NaN
29	1.000000	0.058234	7.36532e+06	-40089.1	955.818	-29792.1	0.000000	0.000000	6.058781	-0.040616	NaN	0.000000	0.001606	0.001698	28.0859	0.071502	0.001887	37.8879	-56.3037	-162.49	-0.087739	0.056884	-0.969890	-0.971240	-0.040616	37.8879	-0.969086	-8.696585E+12	4.670292E-15	NaN
29	1.000000	0.066226	7.36532e+06	-40089.1	955.819	-29792.1	0.000000	0.000000	6.066775	-0.000654	NaN	0.000000	0.001633	0.001746	28.086	0.041190	0.002054	20.0518	70.5796	-161.389	-0.026564	0.064893	-0.961897	-0.963231	-0.000654	20.0518	-0.961873	-6.952150E+12	9.410730E-17	NaN
29	1.000000	0.074208	7.36532e+06	-40089.1	955.819	-29792.1	0.000000	0.000000	6.074756	-0.039610	NaN	0.000000	0.001646	0.001721	28.0852	0.040804	0.002134	19.1194	-153.021	-165.399	-0.062086	0.072872	-0.953915	-0.955252	-0.039610	19.1194	-0.952362	-5.174605E+12	7.654636E-15	NaN
29	1.000000	0.082247	7.36532e+06	-40089.1	955.819	-29792.1	0.000000	0.000000	6.082797	0.037789	NaN	0.000000	0.001619	0.001713	28.0856	0.068729	0.001982	34.6825	160.131	-164.594	0.084023	0.080960	-0.945877	-0.947164	0.037789	34.6825	-0.946694	-4.339492E+12	-8.708064E-15	NaN
29	1.000000	0.090225	7.36532e+06	-40089.1	955.818	-29792.1	0.000000	0.000000	6.090775	0.027701	NaN	0.000000	0.001618	0.001715	28.0852	0.115044	0.002000	57.5089	-15.5249	-164.362	0.039810	0.088926	-0.937899	-0.939198	0.027701	57.5089	-0.938260	-3.339357E+12	-8.295308E-15	NaN
29	1.000000	0.098217	7.36532e+06	-40089.1	955.818	-29792.1	0.000000	0.000000	6.098766	0.008752	NaN	0.000000	0.001639	0.001710	28.0852	0.057963	0.001926	30.0992	163.492	-165.674	0.031373	0.096910	-0.929907	-0.931214	0.008752	30.0992	-0.930125	-2.593501E+12	-3.374653E-15	NaN
29	1.000000	0.106237	7.36532e+06	-40089.1	955.819	-29792.1	0.000000	0.000000	6.106783	-0.092645	NaN	0.000000	0.001603	0.001722	28.0877	0.137492	0.002133	64.4621	117.235	-161.54	0.018738	0.104931	-0.921886	-0.923193	-0.092645	64.4621	-0.920808	-1.941429E+12	4.772024E-14	NaN
29	1.000000	0.114247	7.36532e+06	-40089.1	955.818	-29792.1	0.000000	0.000000	6.114794	-0.048176	NaN	0.000000	0.001560	0.001714	28.0879	0.032153	0.001962	16.3845	-67.5389	-163.282	-0.018185	0.112970	-0.913877	-0.915154	-0.048176	16.3845	-0.911672	-1.461315E+12	3.296779E-14	NaN
29	1.000000	0.122242	7.36532e+06	-40089.1	955.817	-29792.1	0.000000	0.000000	6.122790	-0.021382	NaN	0.000000	0.001543	0.001737	28.0878	0.081645	0.001989	41.0483	133.549	-163.204	-0.052374	0.120966	-0.905882	-0.907158	-0.021382	41.0483	-0.905491	-1.205739E+12	1.773382E-14	NaN
29	1.000000	0.130239	7.36532e+06	-40089.1	955.818	-29792.1	0.000000	0.000000	6.130788	0.011683	NaN	0.000000	0.001557	0.001700	28.0878	0.038793	0.001970	19.6914	-91.6655	-167.532	-0.013225	0.128931	-0.897885	-0.899193	0.011683	19.6914	-0.898330	-9.649439E+11	-1.210700E-14	NaN
29	1.000000	0.138233	7.36532e+06	-40089.1	955.819	-29792.1	0.000000	0.000000	6.138780	-0.041210	NaN	0.000000	0.001544	0.001676	28.0876	0.064229	0.002004	32.0557	13.9957	-164.684	-0.130529	0.136924	-0.889891	-0.891200	-0.041210	32.0557	-0.888927	-7.201195E+11	5.722725E-14	NaN
29	1.000000	0.146257	7.36532e+06	-40089.1	955.818	-29792.1	0.000000	0.000000	6.146804	-0.043424	NaN	0.000000	0.001542	0.001680	28.0863	0.062220	0.002187	28.4538	-108.039	-165.517	0.063044	0.144956	-0.881867	-0.883168	-0.043424	28.4538	-0.880722	-5.577933E+11	7.784986E-14	NaN
29	1.000000	0.154252	7.36532e+06	-40089.1	955.819	-29792.1	0.000000	0.000000	6.154798	-0.054248	NaN	0.000000	0.001576	0.001709	28.0868	0.035402	0.001983	17.8547	-25.5232	-164.144	0.022270	0.153004	-0.873872	-0.875120	-0.054248	17.8547	-0.871593	-4.197584E+11	1.292367E-13	NaN
29	1.000000	0.162257	7.36532e+06	-40089.1	955.818	-29792.1	0.000000	0.000000	6.162804	-0.047053	NaN	0.000000	0.001570	0.001675	28.0869	0.092111	0.001936	47.5842	-136.361	-163.261	-0.106466	0.160961	-0.865867	-0.867162	-0.047053	47.5842	-0.865125	-3.431519E+11	1.371197E-13	NaN
29	1.000000	0.170281	7.36532e+06	-40089.1	955.818	-29792.1	0.000000	0.000000	6.170830	-2.062369E-5	NaN	0.000000	0.001560	0.001688	28.0872	0.065144	0.001944	33.5058	-4.746970	-165.184	-0.083672	0.168944	-0.857842	-0.859180	-2.062369E-5	33.5058	-0.857842	-2.734702E+11	7.541477E-17	NaN
29	1.000000	0.178265	7.36532e+06	-40089.1	955.819	-29792.1	0.000000	0.000000	6.178814	0.000711	NaN	0.000000	0.001572	0.001716	28.0863	0.036332	0.001907	19.0518	115.16	-167.224	0.056536	0.176957	-0.849859	-0.851167	0.000711	19.0518	-0.849887	-2.134064E+11	-3.331932E-15	NaN
29	1.000000	0.186248	7.36532e+06	-40089.1	955.817	-29792.1	0.000000	0.000000	6.186796	-0.032496	NaN	0.000000	0.001578	0.001665	28.0873	0.010283	0.001786	5.757930	57.993	-163.144	-0.012004	0.184928	-0.841875	-0.843195	-0.032496	5.757930	-0.837643	-1.456648E+11	2.230863E-13	NaN
29	1.000000	0.194264	7.36532e+06	-40089.1	955.819	-29792.1	0.000000	0.000000	6.194812	-0.021781	NaN	0.000000	0.001569	0.001729	28.0889	0.115903	0.001932	59.9973	-13.3399	-166.062	-0.056321	0.192963	-0.833859	-0.835160	-0.021781	59.9973	-0.833587	-1.283512E+11	1.697007E-13	NaN
29	1.000000	0.202281	7.36532e+06	-40089.1	955.819	-29792.1	0.000000	0.000000	6.202829	-0.015649	NaN	0.000000	0.001569	0.001697	28.0867	0.114837	0.001908	60.1999	-53.8951	-165.345	0.085494	0.200975	-0.825843	-0.827149	-0.015649	60.1999	-0.825648	-1.001834E+11	1.562073E-13	NaN
29	1.000000	0.210271	7.36532e+06	-40089.1	955.819	-29792.1	0.000000	0.000000	6.210820	-7.732880E-5	NaN	0.000000	0.001597	0.001680	28.0876	0.049624	0.002023	24.535	91.5403	-162.849	0.000958	0.208969	-0.817853	-0.819155	-7.732880E-5	24.535	-0.817851	-7.853545E+10	9.846355E-16	NaN
29	1.000000	0.218296	7.36532e+06	-40089.1	955.818	-29792.1	0.000000	0.000000	6.218841	-0.085330	NaN	0.000000	0.001580	0.001686	28.0879	0.018988	0.001996	9.510740	-134.047	-164.682	-0.109689	0.216965	-0.809828	-0.811159	-0.085330	9.510740	-0.803099	-4.953625E+10	1.722585E-12	NaN
29	1.000000	0.226259	7.36532e+06	-40089.1	955.819	-29792.1	0.000000	0.000000	6.226808	-0.006434	NaN	0.000000	0.001581	0.001661	28.0857	0.082611	0.001892	43.6746	-94.6093	-161.786	-0.025200	0.224942	-0.801865	-0.803181	-0.006434	43.6746	-0.801754	-4.749756E+10	1.354669E-13	NaN
29	1.000000	0.234281	7.36532e+06	-40089.1	955.818	-29792.1	0.000000	0.000000	6.234828	-0.059289	NaN	0.000000	0.001526	0.001684	28.0875	0.039003	0.001937	20.1318	-116.155	-163.75	-0.123567	0.232970	-0.793842	-0.795154	-0.059289	20.1318	-0.791634	-3.461552E+10	1.712775E-12	NaN
29	1.000000	0.242297	7.36532e+06	-40089.1	955.819	-29792.1	0.000000	0.000000	6.242846	0.018708	NaN	0.000000	0.001591	0.001672	28.0852	0.047620	0.001966	24.2256	-145.828	-164.913	0.037856	0.241019	-0.785827	-0.787105	0.018708	24.2256	-0.786406	-2.939490E+10	-6.364385E-13	NaN
29	1.000000	0.250299	7.36532e+06	-40089.1	955.819	-29792.1	0.000000	0.000000	6.250848	0.009928	NaN	0.000000	0.001560	0.001677	28.0847	0.031788	0.001971	16.1296	-81.4287	-165.839	-0.095911	0.248984	-0.777825	-0.779140	0.009928	16.1296	-0.778287	-2.280068E+10	-4.354222E-13	NaN
29	1.000000	0.258284	7.36532e+06	-40089.1	955.818	-29792.1	0.000000	0.000000	6.258831	-0.066131	NaN	0.000000	0.001577	0.001709	28.0857	0.092754	0.001988	46.6486	-130.281	-164.152	-0.069868	0.256970	-0.769839	-0.771153	-0.066131	46.6486	-0.768776	-1.693030E+10	3.906099E-12	NaN
29	1.000000	0.266305	7.36532e+06	-40089.1	955.818	-29792.1	0.000000	0.000000	6.266852	-0.044702	NaN	0.000000	0.001621	0.001689	28.0858	0.066861	0.002016	33.1636	-147.58	-163.534	-0.050092	0.264955	-0.761819	-0.763169	-0.044702	33.1636	-0.760808	-1.319139E+10	3.388708E-12	NaN
29	1.000000	0.274316	7.36532e+06	-40089.1	955.818	-29792.1	0.000000	0.000000	6.274865	0.011382	NaN	0.000000	0.001578	0.001695	28.0854	0.083212	0.002052	40.5453	-124.949	-163.553	-0.000599	0.272998	-0.753808	-0.755126	0.011382	40.5453	-0.754018	-1.066378E+10	-1.067309E-12	NaN
29	1.000000	0.282298	7.36532e+06	-40089.1	955.818	-29792.1	0.000000	0.000000	6.282844	-0.081288	NaN	0.000000	0.001585	0.001689	28.0857	0.017900	0.001916	9.344398	2.194486	-163.462	0.025465	0.280979	-0.745826	-0.747145	-0.081288	9.344398	-0.739301	-6.722643E+9	1.209170E-11	NaN
29	1.000000	0.290315	7.36532e+06	-40089.1	955.819	-29792.1	0.000000	0.000000	6.290863	-0.030929	NaN	0.000000	0.001615	0.001678	28.0861	0.121596	0.001864	65.224	-109.766	-162.252	-0.039984	0.289027	-0.737809	-0.739097	-0.030929	65.224	-0.737453	-6.343954E+9	4.875338E-12	NaN
29	1.000000	0.298297	7.36532e+06	-40089.1	955.819	-29792.1	0.000000	0.000000	6.298843	-0.073839	NaN	0.000000	0.001596	0.001676	28.0858	0.064722	0.002007	32.2555	-131.548	-165.908	-0.058641	0.296980	-0.729827	-0.731144	-0.073839	32.2555	-0.728110	-4.732044E+9	1.560413E-11	NaN
29	1.000000	0.306293	7.36532e+06	-40089.1	955.818	-29792.1	0.000000	0.000000	6.306842	-7.359816E-5	NaN	0.000000	0.001598	0.001665	28.0854	0.104701	0.001989	52.6277	90.2885	-165.285	-0.067801	0.305028	-0.721830	-0.723096	-7.359816E-5	52.6277	-0.721829	-3.885255E+9	1.894294E-14	NaN
29	1.000000	0.314330	7.36532e+06	-40089.1	955.818	-29792.1	0.000000	0.000000	6.314878	-0.023012	NaN	0.000000	0.001609	0.001684	28.0853	0.106307	0.002058	51.6431	166.591	-165.792	-0.061038	0.313023	-0.713794	-0.715101	-0.023012	51.6431	-0.713460	-2.987175E+9	7.703733E-12	NaN
29	1.000000	0.322326	7.36532e+06	-40089.1	955.818	-29792.1	0.000000	0.000000	6.322873	-0.038462	NaN	0.000000	0.001565	0.001712	28.0853	0.145479	0.002151	67.6329	-122.786	-164.987	-0.055597	0.320982	-0.705798	-0.707142	-0.038462	67.6329	-0.705372	-2.316732E+9	1.660184E-11	NaN
29	1.000000	0.330316	7.36532e+06	-40089.1	955.819	-29792.1	0.000000	0.000000	6.330865	0.019141	NaN	0.000000	0.001538	0.001718	28.0845	0.115382	0.001969	58.5927	117.466	-166.028	-0.032466	0.329028	-0.697808	-0.699096	0.019141	58.5927	-0.698053	-1.840527E+9	-1.039995E-11	NaN
29	1.000000	0.338310	7.36532e+06	-40089.1	955.819	-29792.1	0.000000	0.000000	6.338858	-0.026184	NaN	0.000000	0.001579	0.001719	28.0847	0.076544	0.001997	38.3233	111.147	-165.97	-0.019904	0.337019	-0.689814	-0.691105	-0.026184	38.3233	-0.689302	-1.397570E+9	1.873513E-11	NaN
29	1.000000	0.346330	7.36532e+06	-40089.1	955.818	-29792.1	0.000000	0.000000	6.346876	-0.067290	NaN	0.000000	0.001551	0.001689	28.0857	0.059944	0.002029	29.5442	80.158	-165.066	-0.040883	0.345023	-0.681794	-0.683101	-0.067290	29.5442	-0.680086	-1.045623E+9	6.435407E-11	NaN
29	1.000000	0.354319	7.36532e+06	-40089.1	955.817	-29792.1	0.000000	0.000000	6.354868	-0.001737	NaN	0.000000	0.001599	0.001686	28.0857	0.133519	0.002034	65.638	132.609	-163.508	-0.085875	0.353029	-0.673805	-0.675095	-0.001737	65.638	-0.673785	-8.574030E+8	2.025965E-12	NaN
29	1.000000	0.362346	7.36532e+06	-40089.1	955.818	-29792.1	0.000000	0.000000	6.362892	-0.069368	NaN	0.000000	0.001543	0.001658	28.0856	0.084125	0.001935	43.4844	106.565	-163.677	-0.054421	0.361051	-0.665778	-0.667072	-0.069368	43.4844	-0.664582	-6.415246E+8	1.081302E-10	NaN
29	1.000000	0.370360	7.36532e+06	-40089.1	955.819	-29792.1	0.000000	0.000000	6.370911	0.056703	NaN	0.000000	0.001555	0.001638	28.0857	0.013305	0.002058	6.464169	19.4068	-163.913	-0.030036	0.368993	-0.657764	-0.659130	0.056703	6.464169	-0.664343	-6.367101E+8	-8.905655E-11	NaN
29	1.000000	0.378322	7.36532e+06	-40089.1	955.819	-29792.1	0.000000	0.000000	6.378871	-0.007900	NaN	0.000000	0.001534	0.001704	28.0876	0.046062	0.001997	23.0704	-140.608	-162.501	-0.052255	0.377063	-0.649802	-0.651061	-0.007900	23.0704	-0.649545	-3.992040E+8	1.979003E-11	NaN
29	1.000000	0.386350	7.36532e+06	-40089.1	955.818	-29792.1	0.000000	0.000000	6.386901	0.040467	NaN	0.000000	0.001572	0.001690	28.0862	0.080789	0.001876	43.0566	-26.0195	-165.539	0.070643	0.385010	-0.641774	-0.643114	0.040467	43.0566	-0.642478	-3.193681E+8	-1.267103E-10	NaN
29	1.000000	0.394369	7.36532e+06	-40089.1	955.818	-29792.1	0.000000	0.000000	6.394916	-0.044534	NaN	0.000000	0.001585	0.001703	28.0855	0.042037	0.002016	20.8548	-56.0588	-164.431	-0.132702	0.393078	-0.633755	-0.635046	-0.044534	20.8548	-0.632153	-2.304586E+8	1.932412E-10	NaN
29	1.000000	0.402368	7.36532e+06	-40089.1	955.817	-29792.1	0.000000	0.000000	6.402918	0.015284	NaN	0.000000	0.001569	0.001684	28.0863	0.038199	0.002030	18.8183	123.228	-169.469	-0.033777	0.401042	-0.625756	-0.627082	0.015284	18.8183	-0.626365	-1.919092E+8	-7.964037E-11	NaN
29	1.000000	0.410358	7.36532e+06	-40089.1	955.818	-29792.1	0.000000	0.000000	6.410907	0.014361	NaN	0.000000	0.001576	0.001694	28.0873	0.134187	0.001929	69.557	68.2294	-163.764	-0.052792	0.409060	-0.617766	-0.619064	0.014361	69.557	-0.617921	-1.469110E+8	-9.775520E-11	NaN
29	1.000000	0.418352	7.36532e+06	-40089.1	955.818	-29792.1	0.000000	0.000000	6.418901	0.004751	NaN	0.000000	0.001615	0.001688	28.086	0.129916	0.001977	65.73	3.215655	-165.26	-0.069526	0.416995	-0.609772	-0.611128	0.004751	65.73	-0.609826	-1.136910E+8	-4.179051E-11	NaN
29	1.000000	0.426366	7.36532e+06	-40089.1	955.819	-29792.1	0.000000	0.000000	6.426917	0.047974	NaN	0.000000	0.001594	0.001667	28.0866	0.077402	0.001969	39.31	-35.8751	-164.348	0.094487	0.425046	-0.601758	-0.603078	0.047974	39.31	-0.602673	-9.063048E+7	-5.293343E-10	NaN
29	1.000000	0.434357	7.36532e+06	-40089.1	955.818	-29792.1	0.000000	0.000000	6.434904	-0.041150	NaN	0.000000	0.001580	0.001696	28.0873	0.144402	0.001929	74.8736	164.521	-161.763	0.002172	0.433026	-0.593767	-0.595098	-0.041150	74.8736	-0.593355	-6.743866E+7	6.101894E-10	NaN
29	1.000000	0.442403	7.36532e+06	-40089.1	955.819	-29792.1	0.000000	0.000000	6.442950	-0.047826	NaN	0.000000	0.001570	0.001662	28.0871	0.095170	0.002060	46.188	1.635633	-164.742	-0.048125	0.441045	-0.585721	-0.587079	-0.047826	46.188	-0.584944	-5.163516E+7	9.262377E-10	NaN
29	1.000000	0.450383	7.36532e+06	-40089.1	955.818	-29792.1	0.000000	0.000000	6.450929	-0.058454	NaN	0.000000	0.001587	0.001653	28.0861	0.025588	0.002047	12.5009	-87.9336	-164.542	-0.035828	0.449072	-0.577741	-0.579052	-0.058454	12.5009	-0.574234	-3.673865E+7	1.591063E-9	NaN
29	1.000000	0.458386	7.36532e+06	-40089.1	955.819	-29792.1	0.000000	0.000000	6.458932	-0.062943	NaN	0.000000	0.001560	0.001668	28.0862	0.034764	0.001983	17.5325	61.0869	-163.943	-0.009910	0.457048	-0.569738	-0.571076	-0.062943	17.5325	-0.567045	-2.922798E+7	2.153514E-9	NaN
29	1.000000	0.466366	7.36532e+06	-40089.1	955.819	-29792.1	0.000000	0.000000	6.466916	0.013668	NaN	0.000000	0.001577	0.001695	28.0852	0.124719	0.002155	57.8873	64.7373	-167.913	0.002410	0.465085	-0.561757	-0.563039	0.013668	57.8873	-0.561935	-2.483915E+7	-5.502522E-10	NaN
29	1.000000	0.474383	7.36532e+06	-40089.1	955.818	-29792.1	0.000000	0.000000	6.474932	0.017482	NaN	0.000000	0.001563	0.001692	28.0853	0.127047	0.002092	60.7441	-172.513	-164.57	-0.019708	0.473072	-0.553741	-0.555052	0.017482	60.7441	-0.553957	-1.926408E+7	-9.074875E-10	NaN
29	1.000000	0.482385	7.36532e+06	-40089.1	955.819	-29792.1	0.000000	0.000000	6.482934	0.008224	NaN	0.000000	0.001576	0.001682	28.0846	0.031442	0.002078	15.1326	167.026	-167.724	0.017719	0.481039	-0.545739	-0.547085	0.008224	15.1326	-0.546146	-1.501640E+7	-5.476780E-10	NaN
29	1.000000	0.490388	7.36532e+06	-40089.1	955.818	-29792.1	0.000000	0.000000	6.490937	0.003782	NaN	0.000000	0.001546	0.001668	28.0861	0.055367	0.001976	28.0224	-78.3279	-163.318	0.007775	0.489076	-0.537735	-0.539048	0.003782	28.0224	-0.537837	-1.151728E+7	-3.283856E-10	NaN
29	1.000000	0.498388	7.36532e+06	-40089.1	955.818	-29792.1	0.000000	0.000000	6.498935	-0.044480	NaN	0.000000	0.001592	0.001707	28.086	0.050375	0.001930	26.1035	18.6581	-167.709	-0.066000	0.497098	-0.529736	-0.531026	-0.044480	26.1035	-0.528458	-8.53406e+06	5.212050E-9	NaN
29	1.000000	0.506403	7.36532e+06	-40089.1	955.82	-29792.1	0.000000	0.000000	6.506951	-0.034343	NaN	0.000000	0.001588	0.001688	28.087	0.067992	0.001953	34.8059	-169.709	-164.996	-0.017403	0.505073	-0.521721	-0.523051	-0.034343	34.8059	-0.520981	-6.71795e+06	5.112065E-9	NaN
29	1.000000	0.514420	7.36532e+06	-40089.1	955.818	-29792.1	0.000000	0.000000	6.514966	-0.079513	NaN	0.000000	0.001574	0.001674	28.0858	0.041427	0.002020	20.5066	-121.028	-165.827	-0.027220	0.513098	-0.513704	-0.515026	-0.079513	20.5066	-0.510796	-4.84726e+06	1.640378E-8	NaN
29	1.000000	0.522375	7.36532e+06	-40089.1	955.819	-29792.1	0.000000	0.000000	6.522922	-0.045897	NaN	0.000000	0.001570	0.001696	28.0859	0.091539	0.001987	46.0584	-171.954	-164.869	-0.025944	0.521071	-0.505749	-0.507053	-0.045897	46.0584	-0.505001	-4.02496e+06	1.140303E-8	NaN
29	1.000000	0.530397	7.36532e+06	-40089.1	955.819	-29792.1	0.000000	0.000000	6.530943	-0.062711	NaN	0.000000	0.001624	0.001683	28.085	0.057658	0.002049	28.137	51.4638	-161.954	-0.020701	0.529044	-0.497727	-0.499080	-0.062711	28.137	-0.496055	-3.01975e+06	2.076710E-8	NaN
29	1.000000	0.538420	7.36532e+06	-40089.1	955.818	-29792.1	0.000000	0.000000	6.538967	-0.039797	NaN	0.000000	0.001570	0.001692	28.0846	0.165318	0.001921	86.0512	-144.378	-164.387	-0.031526	0.537109	-0.489704	-0.491015	-0.039797	86.0512	-0.489357	-2.43449e+06	1.634700E-8	NaN
29	1.000000	0.546418	7.36532e+06	-40089.1	955.819	-29792.1	0.000000	0.000000	6.546967	-0.015516	NaN	0.000000	0.001603	0.001688	28.0838	0.115425	0.001991	57.9697	28.4189	-167.395	-0.025023	0.545088	-0.481705	-0.483036	-0.015516	57.9697	-0.481505	-1.89056e+06	8.207109E-9	NaN
29	1.000000	0.554420	7.36533e+06	-40089.1	955.819	-29792.1	0.000000	0.000000	6.554969	-0.019201	NaN	0.000000	0.001571	0.001661	28.0845	0.084572	0.001895	44.6217	-136.185	-166.759	-0.003175	0.553135	-0.473703	-0.474989	-0.019201	44.6217	-0.473381	-1.45481e+06	1.319798E-8	NaN
29	1.000000	0.562449	7.36533e+06	-40089.1	955.818	-29792.1	0.000000	0.000000	6.562995	-0.068809	NaN	0.000000	0.001592	0.001679	28.0851	0.139001	0.002041	68.0891	127.426	-167.964	-0.079099	0.561157	-0.465674	-0.466967	-0.068809	68.0891	-0.464917	-1.10682e+06	6.216805E-8	NaN
29	1.000000	0.570460	7.36533e+06	-40089.1	955.819	-29792.1	0.000000	0.000000	6.571007	-0.034903	NaN	0.000000	0.001559	0.001689	28.0836	0.058010	0.001841	31.5075	82.6016	-164.425	0.008441	0.569125	-0.457664	-0.458999	-0.034903	31.5075	-0.456833	-852120	4.096046E-8	NaN
29	1.000000	0.578435	7.36533e+06	-40089.1	955.819	-29792.1	0.000000	0.000000	6.578982	-0.043485	NaN	0.000000	0.001578	0.001709	28.0855	0.033023	0.001956	16.8804	-41.857	-162.815	-0.049651	0.577140	-0.449689	-0.450984	-0.043485	16.8804	-0.447757	-634958	6.848557E-8	NaN
29	1.000000	0.586427	7.36533e+06	-40089.1	955.818	-29792.1	0.000000	0.000000	6.586971	-0.126233	NaN	0.000000	0.001561	0.001667	28.0856	0.134450	0.001972	68.1751	130.956	-165.553	-0.094598	0.585145	-0.441697	-0.442978	-0.126233	68.1751	-0.440308	-498552	2.531997E-7	NaN
29	1.000000	0.594456	7.36533e+06	-40089.1	955.818	-29792.1	0.000000	0.000000	6.595003	-0.042769	NaN	0.000000	0.001536	0.001700	28.0851	0.154271	0.001958	78.8104	122.771	-166.258	-0.046569	0.593115	-0.433668	-0.435009	-0.042769	78.8104	-0.433261	-396441	1.078833E-7	NaN
29	1.000000	0.602458	7.36533e+06	-40089.1	955.818	-29792.1	0.000000	0.000000	6.603006	-0.013859	NaN	0.000000	0.001539	0.001670	28.0849	0.069108	0.002105	32.832	78.1105	-165.226	0.073528	0.601114	-0.425666	-0.427010	-0.013859	32.832	-0.425350	-306363	4.523604E-8	NaN
29	1.000000	0.610456	7.36533e+06	-40089.1	955.818	-29792.1	0.000000	0.000000	6.611003	-0.060854	NaN	0.000000	0.001556	0.001692	28.0853	0.096733	0.002030	47.6423	77.0079	-166.061	-0.061053	0.609164	-0.417667	-0.418960	-0.060854	47.6423	-0.416709	-231060	2.633681E-7	NaN
29	1.000000	0.618440	7.36533e+06	-40089.1	955.818	-29792.1	0.000000	0.000000	6.618987	-0.031143	NaN	0.000000	0.001507	0.001685	28.0859	0.084048	0.002053	40.9323	-63.3623	-166.554	-0.047133	0.617141	-0.409684	-0.410983	-0.031143	40.9323	-0.409113	-180215	1.728102E-7	NaN
29	1.000000	0.626459	7.36533e+06	-40089.1	955.819	-29792.1	0.000000	0.000000	6.627007	-0.024336	NaN	0.000000	0.001487	0.001677	28.0829	0.052592	0.001991	26.4164	81.3584	-162.038	-0.030471	0.625069	-0.401665	-0.403055	-0.024336	26.4164	-0.400974	-138000	1.763483E-7	NaN
29	1.000000	0.634462	7.36533e+06	-40089.1	955.818	-29792.1	0.000000	0.000000	6.635008	-0.079147	NaN	0.000000	0.001518	0.001660	28.0849	0.048561	0.001943	24.9865	32.6788	-166.941	-0.096638	0.633125	-0.393662	-0.394999	-0.079147	24.9865	-0.391286	-100360	7.886298E-7	NaN
29	1.000000	0.642449	7.36533e+06	-40089.1	955.819	-29792.1	0.000000	0.000000	6.642993	-0.113892	NaN	0.000000	0.001515	0.001616	28.084	0.112661	0.002074	54.3164	176.344	-163.195	-0.044944	0.641101	-0.385675	-0.387023	-0.113892	54.3164	-0.384102	-79199	1.438054E-6	NaN
29	1.000000	0.650467	7.36533e+06	-40089.1	955.82	-29792.1	0.000000	0.000000	6.651013	-0.069841	NaN	0.000000	0.001528	0.001686	28.0858	0.041321	0.001982	20.8449	51.15	-163.2	-0.057517	0.649141	-0.377657	-0.378983	-0.069841	20.8449	-0.375144	-58903.2	1.185684E-6	NaN
29	1.000000	0.658466	7.36533e+06	-40089.1	955.818	-29792.1	0.000000	0.000000	6.659013	-0.052371	NaN	0.000000	0.001529	0.001675	28.0853	0.019876	0.001972	10.0797	151.121	-167.685	-0.067234	0.657131	-0.369658	-0.370993	-0.052371	10.0797	-0.365761	-43154.9	1.213565E-6	NaN
29	1.000000	0.666456	7.36533e+06	-40089.1	955.819	-29792.1	0.000000	0.000000	6.667002	-0.072971	NaN	0.000000	0.001540	0.001673	28.0876	0.051170	0.001871	27.342	-168.82	-168.268	-0.023808	0.665148	-0.361668	-0.362976	-0.072971	27.342	-0.359666	-35239	2.070740E-6	NaN
29	1.000000	0.674477	7.36533e+06	-40089.1	955.818	-29792.1	0.000000	0.000000	6.675025	-0.024846	NaN	0.000000	0.001571	0.001674	28.0871	0.066896	0.002021	33.0996	-125.959	-163.399	-0.035945	0.673138	-0.353647	-0.354986	-0.024846	33.0996	-0.353084	-28296.6	8.780505E-7	NaN
29	1.000000	0.682480	7.36533e+06	-40089.1	955.818	-29792.1	0.000000	0.000000	6.683029	-0.013749	NaN	0.000000	0.001520	0.001663	28.0872	0.114417	0.002051	55.796	-149.312	-163.842	0.003570	0.681181	-0.345643	-0.346943	-0.013749	55.796	-0.345459	-21929.4	6.269473E-7	NaN
29	1.000000	0.690473	7.36533e+06	-40089.1	955.819	-29792.1	0.000000	0.000000	6.691019	-0.076743	NaN	0.000000	0.001565	0.001656	28.0852	0.050900	0.002000	25.4457	-158.391	-166.865	-0.087295	0.689176	-0.337651	-0.338948	-0.076743	25.4457	-0.335389	-15641.1	4.906486E-6	NaN
29	1.000000	0.698478	7.36533e+06	-40089.1	955.819	-29792.1	0.000000	0.000000	6.699024	-0.059203	NaN	0.000000	0.001582	0.001645	28.0866	0.116973	0.002133	54.8317	124.813	-162.263	-0.029183	0.697167	-0.329646	-0.330957	-0.059203	54.8317	-0.328836	-12543	4.719969E-6	NaN
29	1.000000	0.706494	7.36533e+06	-40089.1	955.819	-29792.1	0.000000	0.000000	6.707040	-0.075099	NaN	0.000000	0.001617	0.001670	28.0842	0.075295	0.001845	40.8052	-90.4345	-164.458	0.036387	0.705231	-0.321630	-0.322893	-0.075099	40.8052	-0.320249	-9382.27	8.004301E-6	NaN
29	1.000000	0.714509	7.36533e+06	-40089.1	955.818	-29792.1	0.000000	0.000000	6.715054	-0.098265	NaN	0.000000	0.001590	0.001631	28.0847	0.034047	0.001995	17.0679	-70.9981	-167.664	-0.122544	0.713169	-0.313615	-0.314955	-0.098265	17.0679	-0.309297	-6466.22	1.519669E-5	NaN
29	1.000000	0.722484	7.36533e+06	-40089.1	955.819	-29792.1	0.000000	0.000000	6.723031	-0.046760	NaN	0.000000	0.001591	0.001617	28.086	0.036292	0.001891	19.1957	-34.8987	-165.994	-0.018967	0.721187	-0.305640	-0.306937	-0.046760	19.1957	-0.303813	-5362.06	8.720481E-6	NaN
29	1.000000	0.730482	7.36533e+06	-40089.1	955.818	-29792.1	0.000000	0.000000	6.731031	0.005029	NaN	0.000000	0.001613	0.001609	28.0859	0.115906	0.002017	57.4582	-124.985	-164.279	0.038816	0.729186	-0.297642	-0.298938	0.005029	57.4582	-0.297708	-4349.96	-1.156085E-6	NaN
29	1.000000	0.738496	7.36533e+06	-40089.1	955.818	-29792.1	0.000000	0.000000	6.739044	-0.037459	NaN	0.000000	0.001582	0.001623	28.0861	0.023503	0.001967	11.9508	91.3391	-164.667	-0.041309	0.737163	-0.289627	-0.290961	-0.037459	11.9508	-0.287277	-3037.13	1.233355E-5	NaN
29	1.000000	0.746474	7.36533e+06	-40089.1	955.819	-29792.1	0.000000	0.000000	6.747022	-0.038750	NaN	0.000000	0.001605	0.001617	28.0855	0.095689	0.002037	46.9856	25.9381	-165.243	-0.053959	0.745194	-0.281649	-0.282929	-0.038750	46.9856	-0.281031	-2446.34	1.584019E-5	NaN
29	1.000000	0.754509	7.36533e+06	-40089.1	955.819	-29792.1	0.000000	0.000000	6.755057	-0.027297	NaN	0.000000	0.001622	0.001593	28.0858	0.027939	0.001945	14.3616	3.444538	-162.282	0.022737	0.753153	-0.273615	-0.274971	-0.027297	14.3616	-0.272190	-1798.04	1.518137E-5	NaN
29	1.000000	0.762507	7.36533e+06	-40089.1	955.818	-29792.1	0.000000	0.000000	6.763053	-0.071667	NaN	0.000000	0.001582	0.001654	28.0867	0.040271	0.002032	19.8179	43.9111	-162.053	-0.019452	0.761189	-0.265616	-0.266935	-0.071667	19.8179	-0.262904	-1298.3	5.520121E-5	NaN
29	1.000000	0.770521	7.36533e+06	-40089.1	955.818	-29792.1	0.000000	0.000000	6.771068	-0.040365	NaN	0.000000	0.001565	0.001615	28.0862	0.062606	0.002080	30.098	140.512	-163.495	-0.009106	0.769227	-0.257603	-0.258897	-0.040365	30.098	-0.256597	-1039.17	3.884337E-5	NaN
29	1.000000	0.778504	7.36533e+06	-40089.1	955.819	-29792.1	0.000000	0.000000	6.779052	-0.015959	NaN	0.000000	0.001578	0.001617	28.0858	0.092138	0.001926	47.8442	-27.7739	-167.727	-0.075703	0.777237	-0.249620	-0.250887	-0.015959	47.8442	-0.249370	-803.934	1.985066E-5	NaN
29	1.000000	0.786532	7.36533e+06	-40089.1	955.818	-29792.1	0.000000	0.000000	6.787079	-0.046306	NaN	0.000000	0.001603	0.001627	28.0843	0.067963	0.001994	34.083	-73.8441	-164.386	-0.083950	0.785170	-0.241592	-0.242954	-0.046306	34.083	-0.240573	-586.812	7.891037E-5	NaN
29	1.000000	0.794532	7.36533e+06	-40089.1	955.818	-29792.1	0.000000	0.000000	6.795082	0.035357	NaN	0.000000	0.001589	0.001610	28.084	0.042575	0.001972	21.5889	60.9633	-163.81	-0.091998	0.793133	-0.233592	-0.234991	0.035357	21.5889	-0.234820	-476.895	-7.413985E-5	NaN
29	1.000000	0.802521	7.36533e+06	-40089.1	955.818	-29792.1	0.000000	0.000000	6.803069	-0.027514	NaN	0.000000	0.001597	0.001616	28.0836	0.088943	0.001993	44.6384	139.742	-165.475	-0.050479	0.801267	-0.225602	-0.226857	-0.027514	44.6384	-0.225140	-335.397	8.203290E-5	NaN
29	1.000000	0.810539	7.36533e+06	-40089.1	955.819	-29792.1	0.000000	0.000000	6.811087	-0.026855	NaN	0.000000	0.001600	0.001637	28.0826	0.071219	0.002027	35.131	-99.9402	-165.814	-0.089004	0.809162	-0.217585	-0.218962	-0.026855	35.131	-0.217012	-248.786	0.000108	NaN
29	1.000000	0.818545	7.36533e+06	-40089.1	955.817	-29792.1	0.000000	0.000000	6.819091	-0.079361	NaN	0.000000	0.001594	0.001590	28.0833	0.105372	0.001919	54.8958	97.6986	-167.937	-0.075458	0.817229	-0.209578	-0.210895	-0.079361	54.8958	-0.208494	-181.304	0.000438	NaN
29	1.000000	0.826533	7.36533e+06	-40089.1	955.818	-29792.1	0.000000	0.000000	6.827078	-0.087224	NaN	0.000000	0.001618	0.001598	28.0856	0.092501	0.002009	46.0337	-17.5392	-164.198	-0.019527	0.825239	-0.201591	-0.202885	-0.087224	46.0337	-0.200170	-132.585	0.000658	NaN
29	1.000000	0.834537	7.36533e+06	-40089.1	955.819	-29792.1	0.000000	0.000000	6.835082	-0.079629	NaN	0.000000	0.001586	0.001576	28.085	0.026248	0.002025	12.961	4.326290	-165	-0.034604	0.833243	-0.193587	-0.194881	-0.079629	12.961	-0.188979	-86.4892	0.000921	NaN
29	1.000000	0.842547	7.36533e+06	-40089.1	955.818	-29792.1	0.000000	0.000000	6.843096	-0.016063	NaN	0.000000	0.001618	0.001577	28.0849	0.008700	0.001959	4.441860	-132.156	-167.64	-0.025081	0.841256	-0.185576	-0.186868	-0.016063	4.441860	-0.182864	-68.244	0.000235	NaN
29	1.000000	0.850543	7.36533e+06	-40089.1	955.819	-29792.1	0.000000	0.000000	6.851088	-0.095537	NaN	0.000000	0.001607	0.001622	28.0854	0.023376	0.001897	12.321	-131.471	-164.735	-0.107308	0.849244	-0.177580	-0.178880	-0.095537	12.321	-0.171765	-44.0762	0.002168	NaN
29	1.000000	0.858529	7.36533e+06	-40089.1	955.818	-29792.1	0.000000	0.000000	6.859079	0.017686	NaN	0.000000	0.001599	0.001586	28.0838	0.051876	0.001953	26.5586	-178.29	-165.566	0.034808	0.857242	-0.169595	-0.170882	0.017686	26.5586	-0.170094	-41.2335	-0.000429	NaN
29	1.000000	0.866563	7.36533e+06	-40089.1	955.818	-29792.1	0.000000	0.000000	6.867109	-0.069906	NaN	0.000000	0.001585	0.001585	28.0826	0.087137	0.002037	42.7838	35.038	-166.103	-0.115608	0.865277	-0.161561	-0.162847	-0.069906	42.7838	-0.160335	-27.7935	0.002515	NaN
29	1.000000	0.874543	7.36533e+06	-40089.1	955.819	-29792.1	0.000000	0.000000	6.875087	-0.120188	NaN	0.000000	0.001602	0.001578	28.0827	0.078569	0.001996	39.3667	88.634	-165.166	-0.096179	0.873233	-0.153581	-0.154891	-0.120188	39.3667	-0.151291	-19.1212	0.006286	NaN
29	1.000000	0.882568	7.36533e+06	-40089.1	955.817	-29792.1	0.000000	0.000000	6.883114	-0.086433	NaN	0.000000	0.001615	0.001576	28.0843	0.067455	0.002067	32.6401	172.764	-164.543	-0.142917	0.881233	-0.145556	-0.146891	-0.086433	32.6401	-0.143570	-13.7926	0.006267	NaN
29	1.000000	0.890546	7.36533e+06	-40089.1	955.818	-29792.1	0.000000	0.000000	6.891092	-0.080378	NaN	0.000000	0.001607	0.001541	28.0847	0.006403	0.002074	3.086906	-23.3933	-165.818	-0.002343	0.889301	-0.137578	-0.138823	-0.080378	3.086906	-0.118049	-4.411090	0.018222	NaN
29	1.000000	0.898563	7.36533e+06	-40089.1	955.818	-29792.1	0.000000	0.000000	6.899113	0.031551	NaN	0.000000	0.001607	0.001616	28.0831	0.089384	0.002060	43.3863	-107.607	-164.694	-0.053613	0.897245	-0.129561	-0.130879	0.031551	43.3863	-0.130106	-7.657201	-0.004120	NaN
29	1.000000	0.906560	7.36533e+06	-40089.1	955.818	-29792.1	0.000000	0.000000	6.907106	-0.080085	NaN	0.000000	0.001610	0.001589	28.0846	0.064217	0.002119	30.2983	-76.8929	-164.503	-0.052499	0.905286	-0.121563	-0.122838	-0.080085	30.2983	-0.119581	-4.738271	0.016902	NaN
29	1.000000	0.914562	7.36533e+06	-40089.1	955.818	-29792.1	0.000000	0.000000	6.915110	-0.034504	NaN	0.000000	0.001621	0.001588	28.0847	0.076078	0.002008	37.8935	-165.235	-163.41	-0.082056	0.913226	-0.113561	-0.114898	-0.034504	37.8935	-0.112879	-3.452777	0.009993	NaN
29	1.000000	0.922574	7.36533e+06	-40089.1	955.819	-29792.1	0.000000	0.000000	6.923117	-0.127892	NaN	0.000000	0.001616	0.001640	28.0856	0.038186	0.002023	18.8774	-48.586	-163.411	-0.163846	0.921266	-0.105550	-0.106857	-0.127892	18.8774	-0.100469	-1.871343	0.068342	NaN
29	1.000000	0.930595	7.36533e+06	-40089.1	955.818	-29792.1	0.000000	0.000000	6.931142	-0.046455	NaN	0.000000	0.001619	0.001583	28.0856	0.091850	0.001947	47.1854	-97.8123	-163.258	-0.043563	0.929277	-0.097529	-0.098847	-0.046455	47.1854	-0.096791	-1.548878	0.029992	NaN
29	1.000000	0.938568	7.36533e+06	-40089.1	955.818	-29792.1	0.000000	0.000000	6.939112	-0.121754	NaN	0.000000	0.001564	0.001607	28.0861	0.058684	0.001967	29.8295	-129.147	-165.164	-0.070190	0.937329	-0.089556	-0.090795	-0.121754	29.8295	-0.086494	-0.892637	0.136398	NaN
29	1.000000	0.946594	7.36533e+06	-40089.1	955.819	-29792.1	0.000000	0.000000	6.947139	-0.098772	NaN	0.000000	0.001559	0.001581	28.0845	0.044394	0.002022	21.9531	32.5694	-166.594	-0.181882	0.945271	-0.081529	-0.082853	-0.098772	21.9531	-0.078155	-0.556243	0.177570	NaN
29	1.000000	0.954585	7.36533e+06	-40089.1	955.818	-29792.1	0.000000	0.000000	6.955135	0.016993	NaN	0.000000	0.001553	0.001563	28.0849	0.055374	0.002002	27.653	161.372	-167.077	-0.024949	0.953265	-0.073539	-0.074859	0.016993	27.653	-0.074000	-0.435065	-0.039057	NaN
29	1.000000	0.962592	7.36533e+06	-40089.1	955.818	-29792.1	0.000000	0.000000	6.963138	-0.077731	NaN	0.000000	0.001618	0.001559	28.085	0.031289	0.002113	14.8048	164.845	-165.025	0.065478	0.961246	-0.065532	-0.066877	-0.077731	14.8048	-0.061594	-0.199978	0.388697	NaN
29	1.000000	0.970567	7.36533e+06	-40089.1	955.818	-29792.1	0.000000	0.000000	6.971113	-0.064348	NaN	0.000000	0.001591	0.001574	28.0851	0.090525	0.002010	45.0296	71.8407	-167.179	0.010537	0.969262	-0.057557	-0.058862	-0.064348	45.0296	-0.056485	-0.142412	0.451844	NaN
29	1.000000	0.978591	7.36533e+06	-40089.1	955.817	-29792.1	0.000000	0.000000	6.979137	-0.068098	NaN	0.000000	0.001606	0.001557	28.0851	0.003893	0.002085	1.867281	-60.0299	-164.171	-0.043499	0.977271	-0.049533	-0.050853	-0.068098	1.867281	-0.022181	-0.014272	4.771609	NaN
29	1.000000	0.986575	7.36533e+06	-40089.1	955.818	-29792.1	0.000000	0.000000	6.987122	-0.054970	NaN	0.000000	0.001600	0.001587	28.0852	0.071739	0.002078	34.5217	-40.5156	-163.309	-0.007804	0.985280	-0.041549	-0.042844	-0.054970	34.5217	-0.040354	-0.046357	1.185802	NaN
29	1.000000	0.994605	7.36533e+06	-40089.1	955.817	-29792.1	0.000000	0.000000	6.995153	-0.026311	NaN	0.000000	0.001578	0.001553	28.0852	0.039270	0.001971	19.9266	-91.3861	-166.9	-0.051677	0.993329	-0.033519	-0.034795	-0.026311	19.9266	-0.032529	-0.027137	0.969560	NaN
29	1.000000	1.002594	7.36533e+06	-40089.1	955.817	-29792.1	0.000000	0.000000	7.003141	-0.053710	NaN	0.000000	0.001589	0.001545	28.0854	0.123850	0.001981	62.515	-95.1329	-163.988	-0.002150	1.001291	-0.025529	-0.026833	-0.053710	62.515	-0.024885	-0.016754	3.205744	NaN
29	1.000000	1.010594	7.36533e+06	-40089.1	955.817	-29792.1	0.000000	0.000000	7.011142	-0.027730	NaN	0.000000	0.001607	0.001576	28.0849	0.073747	0.002008	36.7255	135.116	-164.025	0.051989	1.009266	-0.017530	-0.018857	-0.027730	36.7255	-0.016963	-0.010487	2.644222	NaN
29	1.000000	1.018626	7.36533e+06	-40089.1	955.817	-29792.1	0.000000	0.000000	7.019171	-0.110218	NaN	0.000000	0.001614	0.001576	28.0851	0.133893	0.001965	68.1268	52.2798	-158.787	-0.085375	1.017331	-0.009497	-0.010793	-0.110218	68.1268	-0.008284	-0.005398	20.4197	NaN
29	1.000000	1.026636	7.36533e+06	-40089.1	955.817	-29792.1	0.000000	0.000000	7.027183	-0.051188	NaN	0.000000	0.001581	0.001546	28.0851	0.147571	0.002085	70.7696	27.2259	-165.778	-0.017191	1.025258	-0.001488	-0.002865	-0.051188	70.7696	-0.000945	-0.000694	73.7722	NaN
29	1.000000	1.034564	7.36533e+06	-40089.1	955.818	-29792.1	0.000000	0.000000	7.035342	5.575513	NaN	0.000000	0.001599	0.001543	28.084	6.236957	0.001791	3482.64	9.537511	-169.565	3.756705	1.033288	0.006440	0.005164	5.575513	3482.64	0.005239	0.004353	1280.97	48229
29	2.000000	1.038284	7.36533e+06	-40089.1	955.817	-29792.1	0.000000	0.000000	7.039305	11.491	NaN	0.000000	0.001592	0.001515	28.0854	10.3636	0.001549	6691.72	2.033571	-170.234	10.9167	1.037858	0.010160	0.009735	11.491	6691.72	0.008872	0.007955	1444.56	68548.9
29	2.000000	1.040253	7.36533e+06	-40089.1	955.818	-29792.1	0.000000	0.000000	7.041427	15.195	NaN	0.000000	0.001615	0.001549	28.0848	11.6141	0.001545	7516.81	0.460505	-167.697	14.4359	1.039972	0.012129	0.011848	15.195	7516.81	0.010613	0.009871	1539.36	69123.7
29	2.000000	1.042235	7.36533e+06	-40089.1	955.818	-29792.1	0.000000	0.000000	7.043580	19.3623	NaN	0.000000	0.001605	0.001531	28.0832	15.1873	0.001689	8990.97	8.664764	-177.073	19.8027	1.041870	0.014111	0.013746	19.3623	8990.97	0.012496	0.012090	1601.56	74709
29	2.000000	1.044241	7.36533e+06	-40089.1	955.818	-29792.1	0.000000	0.000000	7.045767	23.7953	NaN	0.000000	0.001652	0.001560	28.0844	17.6679	0.001774	9959.72	7.848172	-175.106	23.4473	1.043857	0.016117	0.015733	23.7953	9959.72	0.014325	0.014396	1652.95	75841.2
29	2.000000	1.046206	7.36533e+06	-40089.1	955.818	-29792.1	0.000000	0.000000	7.047906	28.0023	NaN	0.000000	0.001606	0.001554	28.0844	19.376	0.001653	11723.4	5.876823	-177.865	27.711	1.045844	0.018082	0.017720	28.0023	11723.4	0.016291	0.017045	1642.82	82040
29	2.000000	1.048155	7.36533e+06	-40089.1	955.817	-29792.1	0.000000	0.000000	7.049991	31.3266	NaN	0.000000	0.001612	0.001563	28.084	21.5565	0.001830	11780.8	3.989184	-175.674	29.7538	1.047880	0.020031	0.019756	31.3266	11780.8	0.018036	0.019550	1602.36	76978.8
29	2.000000	1.050187	7.36533e+06	-40089.1	955.818	-29792.1	0.000000	0.000000	7.052157	34.5834	NaN	0.000000	0.001610	0.001611	28.0845	23.4153	0.001804	12977.5	9.119561	179.179	35.42	1.049839	0.022063	0.021716	34.5834	12977.5	0.020065	0.022644	1527.25	78792.4
29	2.000000	1.052174	7.36533e+06	-40089.1	955.818	-29792.1	0.000000	0.000000	7.054449	41.9889	NaN	0.000000	0.001586	0.001604	28.0841	25.1814	0.001797	14012.8	7.418444	-179.862	41.4635	1.051865	0.024050	0.023741	41.9889	14012.8	0.021803	0.025455	1649.53	80243.5
29	2.000000	1.054113	7.36533e+06	-40089.1	955.818	-29792.1	0.000000	0.000000	7.056684	49.2207	NaN	0.000000	0.001618	0.001596	28.0831	26.608	0.001775	14989.9	2.822215	-175.463	45.3679	1.053807	0.025989	0.025683	49.2207	14989.9	0.023526	0.028389	1733.81	81282.7
29	2.000000	1.056103	7.36533e+06	-40089.1	955.818	-29792.1	0.000000	0.000000	7.058888	54.4079	NaN	0.000000	0.001613	0.001533	28.0831	28.7384	0.001835	15664.5	6.338386	-179.3	52.6467	1.055784	0.027979	0.027660	54.4079	15664.5	0.025374	0.031700	1716.35	80382.5
29	2.000000	1.058183	7.36533e+06	-40089.1	955.818	-29792.1	0.000000	0.000000	7.061059	56.6365	NaN	0.000000	0.001617	0.001569	28.0838	30.7956	0.001831	16820.2	3.544874	-177.062	58.5905	1.057894	0.030059	0.029770	56.6365	16820.2	0.027534	0.035787	1582.62	81235.1
29	2.000000	1.060113	7.36533e+06	-40089.1	955.819	-29792.1	0.000000	0.000000	7.063374	65.9859	NaN	0.000000	0.001637	0.001580	28.083	31.741	0.001721	18441.9	1.729873	-176.684	63.3074	1.059780	0.031989	0.031656	65.9859	18441.9	0.029306	0.039317	1678.29	84974.1
29	2.000000	1.062179	7.36533e+06	-40089.1	955.817	-29792.1	0.000000	0.000000	7.065616	70.2821	NaN	0.000000	0.001617	0.001585	28.0832	34.639	0.001734	19981.7	5.595741	177.825	72.6148	1.061938	0.034055	0.033814	70.2821	19981.7	0.031417	0.043732	1607.1	87298.1
29	2.000000	1.064151	7.36533e+06	-40089.1	955.817	-29792.1	0.000000	0.000000	7.068004	80.414	NaN	0.000000	0.001611	0.001588	28.083	36.8465	0.001909	19303.1	8.158318	178.731	80.3634	1.063752	0.036027	0.035628	80.414	19303.1	0.032902	0.046975	1711.86	81371
29	2.000000	1.066164	7.36533e+06	-40089.1	955.818	-29792.1	0.000000	0.000000	7.070083	82.0259	NaN	0.000000	0.001592	0.001581	28.0853	38.2575	0.001798	21281.8	3.693827	-179.74	82.3285	1.065909	0.038040	0.037785	82.0259	21281.8	0.035149	0.052094	1574.59	85190.1
29	2.000000	1.068180	7.36533e+06	-40089.1	955.818	-29792.1	0.000000	0.000000	7.072512	92.0416	NaN	0.000000	0.001584	0.001542	28.0847	41.3128	0.001909	21645.7	9.775814	174.756	94.0066	1.067815	0.040057	0.039692	92.0416	21645.7	0.036867	0.056184	1638.23	83433.6
29	2.000000	1.070057	7.36533e+06	-40089.1	955.818	-29792.1	0.000000	0.000000	7.074960	105.962	NaN	0.000000	0.001549	0.001577	28.0843	41.4422	0.001756	23599.9	3.590799	179.892	103.038	1.069707	0.041933	0.041584	105.962	23599.9	0.038566	0.060374	1755.08	87751.8
29	2.000000	1.072192	7.36533e+06	-40089.1	955.817	-29792.1	0.000000	0.000000	7.077354	112.257	NaN	0.000000	0.001586	0.001545	28.083	43.778	0.001796	24379.3	4.418148	179.339	114.907	1.071738	0.044068	0.043614	112.257	24379.3	0.040615	0.065626	1710.55	86947.1
29	2.000000	1.074113	7.36533e+06	-40089.1	955.818	-29792.1	0.000000	0.000000	7.079624	120.74	NaN	0.000000	0.001565	0.001578	28.0825	45.9178	0.001759	26106.4	3.589044	179.494	119.473	1.073772	0.045989	0.045648	120.74	26106.4	0.042521	0.070705	1707.65	89700.4
29	2.000000	1.076148	7.36533e+06	-40089.1	955.818	-29792.1	0.000000	0.000000	7.081908	126.809	NaN	0.000000	0.001610	0.001576	28.0844	48.113	0.001735	27737	6.237356	175.214	127.31	1.075783	0.048024	0.047659	126.809	27737	0.044595	0.076443	1658.87	91656.7
29	2.000000	1.078076	7.36533e+06	-40089.1	955.817	-29792.1	0.000000	0.000000	7.084287	137.777	NaN	0.000000	0.001580	0.001547	28.0851	49.9354	0.001808	27613.1	0.342720	-178.486	134.605	1.077769	0.049952	0.049645	137.777	27613.1	0.046210	0.081059	1699.7	88610.7
29	2.000000	1.080094	7.36533e+06	-40089.1	955.818	-29792.1	0.000000	0.000000	7.086754	148.73	NaN	0.000000	0.001614	0.001564	28.0846	51.011	0.001584	32207	5.013861	175.224	148.003	1.079820	0.051970	0.051696	148.73	32207	0.048506	0.087852	1692.97	99276.9
29	2.000000	1.082027	7.36533e+06	-40089.1	955.817	-29792.1	0.000000	0.000000	7.088763	150.577	NaN	0.000000	0.001585	0.001567	28.0851	53.7636	0.001820	29539	3.344083	178.037	145.026	1.081651	0.053903	0.053527	150.577	29539	0.050079	0.092659	1625.07	88659.5
29	2.000000	1.084102	7.36533e+06	-40089.1	955.817	-29792.1	0.000000	0.000000	7.091507	166.833	NaN	0.000000	0.001586	0.001537	28.0856	55.3549	0.001765	31363.9	3.885789	176.624	164.91	1.083837	0.055978	0.055713	166.833	31363.9	0.051989	0.098659	1691.01	91229.3
29	2.000000	1.086065	7.36533e+06	-40089.1	955.818	-29792.1	0.000000	0.000000	7.093895	177.174	NaN	0.000000	0.001580	0.001588	28.0855	57.3807	0.001777	32283.4	9.003846	170.967	175.124	1.085796	0.057941	0.057672	177.174	32283.4	0.053825	0.104602	1693.8	91197.5
29	2.000000	1.088066	7.36533e+06	-40089.1	955.818	-29792.1	0.000000	0.000000	7.096059	181.129	NaN	0.000000	0.001631	0.001583	28.0851	58.1198	0.001598	36370.9	2.427637	176.565	177.697	1.087816	0.059943	0.059692	181.129	36370.9	0.056207	0.112561	1609.16	99045.1
29	2.000000	1.090112	7.36533e+06	-40089.1	955.817	-29792.1	0.000000	0.000000	7.098466	189.918	NaN	0.000000	0.001629	0.001536	28.0853	59.3364	0.001733	34238.9	4.136467	175.768	189.686	1.089770	0.061989	0.061646	189.918	34238.9	0.057828	0.118136	1607.62	91012.5
29	2.000000	1.092142	7.36533e+06	-40089.1	955.817	-29792.1	0.000000	0.000000	7.100817	197.757	NaN	0.000000	0.001612	0.001544	28.0847	62.518	0.001786	35004.9	2.683819	178.052	197.439	1.091623	0.064018	0.063500	197.757	35004.9	0.059781	0.125023	1581.76	90449.7
29	2.000000	1.094117	7.36533e+06	-40089.1	955.818	-29792.1	0.000000	0.000000	7.103319	210.569	NaN	0.000000	0.001596	0.001536	28.085	65.363	0.001941	33673.9	5.273203	175.765	209.768	1.093735	0.065993	0.065611	210.569	33673.9	0.061303	0.130524	1613.26	85157.2
29	2.000000	1.096080	7.36533e+06	-40089.1	955.819	-29792.1	0.000000	0.000000	7.105600	218.311	NaN	0.000000	0.001619	0.001555	28.0841	67.0447	0.001794	37377.4	2.966074	176.586	218.141	1.095832	0.067956	0.067709	218.311	37377.4	0.063576	0.138942	1571.24	91614.8
29	2.000000	1.098075	7.36533e+06	-40089.1	955.818	-29792.1	0.000000	0.000000	7.108114	230.938	NaN	0.000000	0.001621	0.001581	28.0846	68.3399	0.001839	37164.9	0.854059	178.436	228.869	1.097860	0.069951	0.069736	230.938	37164.9	0.065291	0.145460	1587.64	89029.5
29	2.000000	1.100024	7.36533e+06	-40089.1	955.819	-29792.1	0.000000	0.000000	7.110435	239.995	NaN	0.000000	0.001638	0.001556	28.0848	70.682	0.001933	36559.9	7.056686	172.634	235.496	1.099746	0.071900	0.071622	239.995	36559.9	0.066976	0.152006	1578.85	85673.8
29	2.000000	1.102106	7.36533e+06	-40089.1	955.819	-29792.1	0.000000	0.000000	7.113159	255.61	NaN	0.000000	0.001636	0.001576	28.0857	71.3614	0.001788	39902.9	3.054141	175.921	255.82	1.101756	0.073982	0.073632	255.61	39902.9	0.069178	0.160758	1590.03	90926.6
29	2.000000	1.104010	7.36533e+06	-40089.1	955.817	-29792.1	0.000000	0.000000	7.115383	263.379	NaN	0.000000	0.001611	0.001562	28.0862	74.2084	0.001805	41108.8	8.372916	170.98	257.095	1.103813	0.075887	0.075689	263.379	41108.8	0.071081	0.168515	1562.94	91493.1
29	2.000000	1.106026	7.36533e+06	-40089.1	955.818	-29792.1	0.000000	0.000000	7.117667	269.932	NaN	0.000000	0.001630	0.001568	28.0861	76.7069	0.001762	43541.9	12.5719	165.847	265.711	1.105707	0.077902	0.077583	269.932	43541.9	0.073252	0.177569	1520.15	94405.3
29	2.000000	1.108104	7.36533e+06	-40089.1	955.818	-29792.1	0.000000	0.000000	7.120379	285.343	NaN	0.000000	0.001594	0.001548	28.0856	79.4234	0.001843	43087.6	8.540160	169.962	285.898	1.107725	0.079980	0.079601	285.343	43087.6	0.075013	0.185078	1541.75	91505.7
29	2.000000	1.110085	7.36533e+06	-40089.1	955.818	-29792.1	0.000000	0.000000	7.123068	302.561	NaN	0.000000	0.001610	0.001607	28.0835	78.9756	0.001976	39974.9	8.184903	171.152	302.392	1.109601	0.081961	0.081477	302.561	39974.9	0.076285	0.190590	1587.5	83658.6
29	2.000000	1.112014	7.36533e+06	-40089.1	955.818	-29792.1	0.000000	0.000000	7.125591	317.008	NaN	0.000000	0.001628	0.001579	28.083	79.5123	0.001777	44733.7	3.956834	174.803	312.426	1.111624	0.083890	0.083500	317.008	44733.7	0.078576	0.200711	1579.43	91226.8
29	2.000000	1.114077	7.36533e+06	-40089.1	955.818	-29792.1	0.000000	0.000000	7.127925	323.635	NaN	0.000000	0.001619	0.001603	28.0826	83.9228	0.001787	46967.3	10.3488	168.119	321.908	1.113665	0.085953	0.085541	323.635	46967.3	0.080785	0.210704	1535.97	93482.8
29	2.000000	1.115993	7.36533e+06	-40089.1	955.818	-29792.1	0.000000	0.000000	7.130376	336.645	NaN	0.000000	0.001614	0.001563	28.0842	83.6514	0.001731	48326.8	2.901829	174.178	331.897	1.115798	0.087869	0.087674	336.645	48326.8	0.082644	0.219293	1535.14	94286.3
29	2.000000	1.117985	7.36533e+06	-40089.1	955.818	-29792.1	0.000000	0.000000	7.132968	351.224	NaN	0.000000	0.001606	0.001606	28.0831	86.236	0.001840	46866.2	4.894794	172.559	346.419	1.117761	0.089862	0.089637	351.224	46866.2	0.084241	0.226794	1548.65	89911.9
29	2.000000	1.120065	7.36533e+06	-40089.1	955.818	-29792.1	0.000000	0.000000	7.135803	369.605	NaN	0.000000	0.001687	0.001590	28.0823	87.3936	0.001835	47623.6	7.421657	170.509	367.826	1.119726	0.091942	0.091603	369.605	47623.6	0.086121	0.235777	1567.6	89607.6
29	2.000000	1.122053	7.36533e+06	-40089.1	955.818	-29792.1	0.000000	0.000000	7.138210	379.817	NaN	0.000000	0.001667	0.001586	28.0833	89.0418	0.001919	46391.7	5.469757	173.441	379.289	1.121643	0.093929	0.093519	379.817	46391.7	0.087788	0.243883	1557.37	85826.8
29	2.000000	1.124084	7.36533e+06	-40089.1	955.819	-29792.1	0.000000	0.000000	7.140811	393.664	NaN	0.000000	0.001651	0.001598	28.0835	91.7272	0.001743	52623.1	8.470174	169.315	393.943	1.123637	0.095961	0.095513	393.664	52623.1	0.090350	0.256582	1534.26	94915.4
29	2.000000	1.125971	7.36533e+06	-40089.1	955.818	-29792.1	0.000000	0.000000	7.143616	416.016	NaN	0.000000	0.001651	0.001588	28.0839	92.7002	0.001729	53621.2	8.704470	168.693	411.974	1.125636	0.097848	0.097512	416.016	53621.2	0.092029	0.265069	1569.46	95154.8
29	2.000000	1.127958	7.36533e+06	-40089.1	955.819	-29792.1	0.000000	0.000000	7.146141	429.119	NaN	0.000000	0.001657	0.001585	28.0843	93.8608	0.001739	53964.7	4.460967	172.235	424.142	1.127688	0.099834	0.099564	429.119	53964.7	0.093870	0.274525	1563.14	94100.6
29	2.000000	1.130069	7.36533e+06	-40089.1	955.819	-29792.1	0.000000	0.000000	7.148642	438.602	NaN	0.000000	0.001628	0.001558	28.0837	94.7616	0.001754	54013.7	4.578126	171.804	436.294	1.129761	0.101945	0.101638	438.602	54013.7	0.095855	0.284890	1539.55	92456.7
29	2.000000	1.132193	7.36533e+06	-40089.1	955.819	-29792.1	0.000000	0.000000	7.151225	449.781	NaN	0.000000	0.001678	0.001563	28.0833	98.9353	0.001771	55848.7	4.405091	173	460.314	1.131806	0.104069	0.103682	449.781	55848.7	0.098029	0.296450	1517.22	93715.2
29	2.000000	1.134119	7.36533e+06	-40089.1	955.818	-29792.1	0.000000	0.000000	7.154088	472.559	NaN	0.000000	0.001716	0.001555	28.0832	97.6556	0.002055	47516.5	6.151584	172.107	473.266	1.133593	0.105996	0.105469	472.559	47516.5	0.098537	0.299183	1579.5	79368.8
29	2.000000	1.134988	7.36533e+06	-40089.1	955.818	-29792.1	0.000000	0.000000	7.154551	462.712	NaN	0.000000	0.001720	0.001570	28.1209	104.547	0.001652	63272.8	5.157757	170.994	459.044	1.134850	0.106864	0.106726	462.712	63272.8	0.101379	0.314687	1470.39	103051