File: remote_trans/data/nanoindenter/0828-1/data/Data_2025-08-06,11h17m57s/2025-07-22_16-23-58_1_486.txt
2025-07-22, 16:23:58, 1
Index	Phase	Displacement	Time	Pos X	Pos Y	Pos Z	Rot A	Rot B	Piezo Z	Force A	Force B	Gripper	Voltage A	Voltage B	Temperature	Amplitude force	Amplitude pos	Stiffness	Phase shift	Phase excitation	Force A raw	Displacement raw	HMax	HMax raw	Real Force	Real Stiffness	Contact Depth	Area	Hardness	Reduced Mod.
[#]	[#]	[um]	[s]	[um]	[um]	[um]	[m°]	[m°]	[um]	[uN]	[uN]	[V]	[V]	[V]	[°C]	[uN]	[um]	[N/m]	[°]	[°]	[uN]	[um]	[um]	[um]	[uN]	[N/m]	[um]	[um^2]	[MPa]	[MPa]
486	1.000000	0.002782	7.36981e+06	-52789.1	1005.82	-29748.2	0.000000	0.000000	6.002810	0.069535	NaN	0.000000	0.001561	0.001722	28.0809	0.067563	0.000948	71.2957	-147.09	-167.001	0.091733	0.001490	-1.125360	-1.126653	0.069535	71.2957	-1.126092	-1.122530E+15	-6.194531E-17	NaN
486	1.000000	0.012818	7.36981e+06	-52789.1	1005.82	-29748.3	0.000000	0.000000	6.012844	0.042747	NaN	0.000000	0.001574	0.001727	28.0808	0.028334	0.001127	25.1313	153.022	10.5735	0.050000	0.011391	-1.115325	-1.116752	0.042747	25.1313	-1.116600	-8.372547E+14	-5.105599E-17	NaN
486	1.000000	0.022741	7.36981e+06	-52789.1	1005.82	-29748.3	0.000000	0.000000	6.022768	0.031398	NaN	0.000000	0.001525	0.001727	28.0806	0.123561	0.001753	70.5019	159.856	-163.527	-0.052195	0.021393	-1.105401	-1.106749	0.031398	70.5019	-1.105735	-5.984773E+14	-5.246342E-17	NaN
486	1.000000	0.032711	7.36981e+06	-52789.1	1005.82	-29748.3	0.000000	0.000000	6.032739	0.075605	NaN	0.000000	0.001548	0.001743	28.0808	0.012301	0.001858	6.619397	100.788	11.906	0.150503	0.031355	-1.095431	-1.096788	0.075605	6.619397	-1.103998	-5.671912E+14	-1.332963E-16	NaN
486	1.000000	0.042691	7.36981e+06	-52789.1	1005.82	-29748.3	0.000000	0.000000	6.042716	0.002191	NaN	0.000000	0.001577	0.001715	28.081	0.030530	0.001965	15.5348	175.766	-163.102	0.056367	0.041448	-1.085451	-1.086694	0.002191	15.5348	-1.085557	-3.207404E+14	-6.832157E-18	NaN
486	1.000000	0.052693	7.36981e+06	-52789.1	1005.82	-29748.3	0.000000	0.000000	6.052718	0.011188	NaN	0.000000	0.001569	0.001752	28.082	0.067187	0.001989	33.779	74.8029	12.8293	0.011977	0.051343	-1.075449	-1.076800	0.011188	33.779	-1.075698	-2.364452E+14	-4.731713E-17	NaN
486	1.000000	0.062721	7.36981e+06	-52789.1	1005.82	-29748.3	0.000000	0.000000	6.062748	0.069550	NaN	0.000000	0.001555	0.001760	28.082	0.082851	0.002073	39.9647	-52.1615	-163.753	0.080672	0.061420	-1.065422	-1.066723	0.069550	39.9647	-1.066727	-1.791485E+14	-3.882247E-16	NaN
486	1.000000	0.072728	7.36981e+06	-52789.1	1005.82	-29748.3	0.000000	0.000000	6.072755	0.042608	NaN	0.000000	0.001555	0.001741	28.0819	0.078254	0.002010	38.9268	22.1558	16.3445	0.065621	0.071345	-1.055414	-1.056797	0.042608	38.9268	-1.056235	-1.294871E+14	-3.290542E-16	NaN
486	1.000000	0.082763	7.36981e+06	-52789.1	1005.82	-29748.3	0.000000	0.000000	6.082789	0.012728	NaN	0.000000	0.001517	0.001698	28.0821	0.062597	0.001997	31.3463	62.4819	-166.097	-0.002172	0.081450	-1.045379	-1.046692	0.012728	31.3463	-1.045684	-9.340870E+13	-1.362621E-16	NaN
486	1.000000	0.092742	7.36981e+06	-52789.1	1005.82	-29748.3	0.000000	0.000000	6.092766	-0.017207	NaN	0.000000	0.001548	0.001705	28.082	0.157574	0.002028	77.6893	127.457	13.7241	0.106943	0.091375	-1.035401	-1.036767	-0.017207	77.6893	-1.035234	-6.758991E+13	2.545828E-16	NaN
486	1.000000	0.102762	7.36981e+06	-52789.1	1005.82	-29748.3	0.000000	0.000000	6.102788	0.036743	NaN	0.000000	0.001531	0.001725	28.082	0.051286	0.001946	26.3611	-171.346	-160.96	0.046229	0.101420	-1.025381	-1.026723	0.036743	26.3611	-1.026426	-5.145282E+13	-7.141134E-16	NaN
486	1.000000	0.112723	7.36981e+06	-52789.1	1005.82	-29748.3	0.000000	0.000000	6.112749	0.034500	NaN	0.000000	0.001537	0.001722	28.0823	0.025144	0.001990	12.6344	32.1196	17.2562	0.006361	0.111397	-1.015419	-1.016746	0.034500	12.6344	-1.017467	-3.898286E+13	-8.849959E-16	NaN
486	1.000000	0.122759	7.36981e+06	-52789.1	1005.82	-29748.3	0.000000	0.000000	6.122783	-0.014196	NaN	0.000000	0.001551	0.001704	28.0819	0.094166	0.001934	48.6794	-102.141	-165.171	-0.016870	0.121451	-1.005384	-1.006692	-0.014196	48.6794	-1.005165	-2.662591E+13	5.331538E-16	NaN
486	1.000000	0.132744	7.36981e+06	-52789.1	1005.82	-29748.3	0.000000	0.000000	6.132768	-0.013687	NaN	0.000000	0.001557	0.001739	28.0823	0.097673	0.001901	51.3907	-50.8213	16.4734	0.055190	0.131384	-0.995399	-0.996758	-0.013687	51.3907	-0.995199	-1.954905E+13	7.001604E-16	NaN
486	1.000000	0.142788	7.36981e+06	-52789.1	1005.82	-29748.3	0.000000	0.000000	6.142816	0.075443	NaN	0.000000	0.001554	0.001727	28.0819	0.067005	0.001918	34.9399	-159.416	-167.674	0.038977	0.141418	-0.985354	-0.986724	0.075443	34.9399	-0.986974	-1.514790E+13	-4.980444E-15	NaN
486	1.000000	0.152776	7.36981e+06	-52789.1	1005.82	-29748.3	0.000000	0.000000	6.152799	-0.053333	NaN	0.000000	0.001587	0.001696	28.0823	0.101345	0.002192	46.2392	165.129	11.9501	-0.108030	0.151435	-0.975366	-0.976707	-0.053333	46.2392	-0.974501	-1.028782E+13	5.184068E-15	NaN
486	1.000000	0.162782	7.36981e+06	-52789.1	1005.82	-29748.3	0.000000	0.000000	6.162807	0.006216	NaN	0.000000	0.001582	0.001691	28.0819	0.008758	0.002025	4.325658	1.569051	-166.512	0.063718	0.161498	-0.965361	-0.966645	0.006216	4.325658	-0.966438	-8.010533E+12	-7.760260E-16	NaN
486	1.000000	0.172788	7.36981e+06	-52789.1	1005.82	-29748.3	0.000000	0.000000	6.172814	0.031384	NaN	0.000000	0.001596	0.001698	28.0823	0.038322	0.002059	18.609	-104.6	13.1254	0.003692	0.171377	-0.955355	-0.956765	0.031384	18.609	-0.956620	-5.905981E+12	-5.313952E-15	NaN
486	1.000000	0.182773	7.36981e+06	-52789.1	1005.82	-29748.3	0.000000	0.000000	6.182799	0.026038	NaN	0.000000	0.001592	0.001726	28.0815	0.053113	0.002041	26.0245	120.84	-165.895	0.016913	0.181445	-0.945369	-0.946697	0.026038	26.0245	-0.946120	-4.262766E+12	-6.108219E-15	NaN
486	1.000000	0.192786	7.36981e+06	-52789.1	1005.82	-29748.3	0.000000	0.000000	6.192813	0.043726	NaN	0.000000	0.001536	0.001685	28.081	0.063406	0.001979	32.0458	-23.7147	16.451	0.029874	0.191454	-0.935356	-0.936688	0.043726	32.0458	-0.936380	-3.149842E+12	-1.388184E-14	NaN
486	1.000000	0.202778	7.36981e+06	-52789.1	1005.82	-29748.3	0.000000	0.000000	6.202803	0.016307	NaN	0.000000	0.001612	0.001736	28.0807	0.050237	0.002160	23.2559	86.5837	-163.441	0.064589	0.201443	-0.925365	-0.926699	0.016307	23.2559	-0.925891	-2.273704E+12	-7.171907E-15	NaN
486	1.000000	0.212801	7.36981e+06	-52789.1	1005.82	-29748.3	0.000000	0.000000	6.212829	0.085839	NaN	0.000000	0.001617	0.001722	28.0809	0.035758	0.001936	18.4712	157.447	16.7446	0.104893	0.211402	-0.915341	-0.916741	0.085839	18.4712	-0.918827	-1.825433E+12	-4.702373E-14	NaN
486	1.000000	0.222788	7.36981e+06	-52789.1	1005.82	-29748.3	0.000000	0.000000	6.222815	0.039817	NaN	0.000000	0.001625	0.001690	28.081	0.044324	0.001948	22.751	123.401	-164.209	0.056241	0.221455	-0.905354	-0.906687	0.039817	22.751	-0.906667	-1.250656E+12	-3.183665E-14	NaN
486	1.000000	0.232818	7.36981e+06	-52789.1	1005.82	-29748.3	0.000000	0.000000	6.232846	0.059965	NaN	0.000000	0.001638	0.001720	28.0809	0.060476	0.001884	32.0986	103.409	19.6788	0.040294	0.231454	-0.895324	-0.896689	0.059965	32.0986	-0.896725	-9.179356E+11	-6.532550E-14	NaN
486	1.000000	0.242839	7.36981e+06	-52789.1	1005.82	-29748.3	0.000000	0.000000	6.242864	0.001630	NaN	0.000000	0.001600	0.001763	28.0807	0.075939	0.002099	36.1841	-76.031	-161.757	0.002232	0.241478	-0.885303	-0.886664	0.001630	36.1841	-0.885337	-6.439842E+11	-2.530877E-15	NaN
486	1.000000	0.252811	7.36981e+06	-52789.1	1005.82	-29748.3	0.000000	0.000000	6.252837	0.011715	NaN	0.000000	0.001621	0.001706	28.081	0.088848	0.001892	46.972	178.917	17.1445	-0.014402	0.251500	-0.875331	-0.876643	0.011715	46.972	-0.875518	-4.743435E+11	-2.469645E-14	NaN
486	1.000000	0.262806	7.36981e+06	-52789.1	1005.82	-29748.3	0.000000	0.000000	6.262830	-0.017158	NaN	0.000000	0.001616	0.001695	28.081	0.047861	0.001843	25.9701	-162.18	-164.061	0.023133	0.261506	-0.865337	-0.866637	-0.017158	25.9701	-0.864841	-3.401247E+11	5.044653E-14	NaN
486	1.000000	0.272826	7.36981e+06	-52789.1	1005.82	-29748.3	0.000000	0.000000	6.272854	0.060823	NaN	0.000000	0.001546	0.001703	28.0809	0.054927	0.001949	28.1875	-68.4345	11.337	0.081513	0.271409	-0.855316	-0.856733	0.060823	28.1875	-0.856935	-2.658438E+11	-2.287910E-13	NaN
486	1.000000	0.282841	7.36981e+06	-52789.1	1005.82	-29748.3	0.000000	0.000000	6.282868	0.050666	NaN	0.000000	0.001535	0.001721	28.0805	0.071231	0.002007	35.4941	167.886	-165.574	0.091968	0.281475	-0.845302	-0.846667	0.050666	35.4941	-0.846372	-1.912533E+11	-2.649162E-13	NaN
486	1.000000	0.292836	7.36981e+06	-52789.1	1005.82	-29748.3	0.000000	0.000000	6.292863	0.063339	NaN	0.000000	0.001523	0.001685	28.0809	0.038851	0.002072	18.7461	25.1896	16.8401	0.045771	0.291472	-0.835307	-0.836670	0.063339	18.7461	-0.837841	-1.465692E+11	-4.321452E-13	NaN
486	1.000000	0.302804	7.36981e+06	-52789.1	1005.82	-29748.3	0.000000	0.000000	6.302830	0.044161	NaN	0.000000	0.001522	0.001680	28.0808	0.032452	0.002068	15.6933	119.447	-167.932	-0.088383	0.301510	-0.825339	-0.826633	0.044161	15.6933	-0.827449	-1.059762E+11	-4.167028E-13	NaN
486	1.000000	0.312817	7.36981e+06	-52789.1	1005.82	-29748.3	0.000000	0.000000	6.312846	0.114797	NaN	0.000000	0.001566	0.001699	28.0808	0.063417	0.001871	33.8883	-10.2504	15.5623	0.001063	0.311494	-0.815326	-0.816648	0.114797	33.8883	-0.817867	-7.857406E+10	-1.461003E-12	NaN
486	1.000000	0.322824	7.36981e+06	-52789.1	1005.82	-29748.3	0.000000	0.000000	6.322851	0.064862	NaN	0.000000	0.001560	0.001740	28.082	0.032995	0.002076	15.8933	-14.7354	-165.639	0.018221	0.321583	-0.805318	-0.806559	0.064862	15.8933	-0.808379	-5.842262E+10	-1.110214E-12	NaN
486	1.000000	0.332834	7.36981e+06	-52789.1	1005.82	-29748.3	0.000000	0.000000	6.332860	0.034388	NaN	0.000000	0.001561	0.001706	28.0822	0.066001	0.002122	31.0977	-3.042708	13.0847	0.024384	0.331475	-0.795309	-0.796667	0.034388	31.0977	-0.796138	-3.985054E+10	-8.629146E-13	NaN
486	1.000000	0.342822	7.36981e+06	-52789.1	1005.82	-29748.3	0.000000	0.000000	6.342846	-0.021843	NaN	0.000000	0.001548	0.001690	28.082	0.081637	0.001967	41.4977	133.633	-162.664	-0.085239	0.341508	-0.785321	-0.786635	-0.021843	41.4977	-0.784926	-2.806472E+10	7.783152E-13	NaN
486	1.000000	0.352837	7.36981e+06	-52789.1	1005.82	-29748.3	0.000000	0.000000	6.352863	0.034594	NaN	0.000000	0.001578	0.001699	28.0821	0.026140	0.002030	12.8751	-78.6099	16.0602	0.045217	0.351513	-0.775306	-0.776629	0.034594	12.8751	-0.777321	-2.212187E+10	-1.563792E-12	NaN
486	1.000000	0.362864	7.36981e+06	-52789.1	1005.82	-29748.3	0.000000	0.000000	6.362890	0.017091	NaN	0.000000	0.001567	0.001723	28.0819	0.056994	0.002070	27.5313	166.584	-163.44	0.017491	0.361511	-0.765278	-0.766631	0.017091	27.5313	-0.765744	-1.539684E+10	-1.110046E-12	NaN
486	1.000000	0.372874	7.36981e+06	-52789.1	1005.82	-29748.3	0.000000	0.000000	6.372901	0.048340	NaN	0.000000	0.001599	0.001717	28.0822	0.089987	0.002106	42.7282	-73.5904	15.2026	0.150737	0.371516	-0.755268	-0.756626	0.048340	42.7282	-0.756117	-1.138854E+10	-4.244573E-12	NaN
486	1.000000	0.382858	7.36981e+06	-52789.1	1005.82	-29748.3	0.000000	0.000000	6.382882	-0.025893	NaN	0.000000	0.001548	0.001725	28.0821	0.119420	0.002044	58.4254	168.327	-163.384	-0.045107	0.381484	-0.745284	-0.746659	-0.025893	58.4254	-0.744952	-8.025924E+9	3.226139E-12	NaN
486	1.000000	0.392892	7.36981e+06	-52789.1	1005.82	-29748.3	0.000000	0.000000	6.392918	0.025084	NaN	0.000000	0.001575	0.001708	28.082	0.074912	0.001884	39.7699	-163.691	11.3745	0.068773	0.391450	-0.735251	-0.736693	0.025084	39.7699	-0.735724	-6.009023E+9	-4.174429E-12	NaN
486	1.000000	0.402865	7.36981e+06	-52789.1	1005.82	-29748.3	0.000000	0.000000	6.402891	0.010971	NaN	0.000000	0.001546	0.001690	28.0836	0.108439	0.002131	50.8821	131.493	-164.414	0.055686	0.401558	-0.725277	-0.726584	0.010971	50.8821	-0.725439	-4.351455E+9	-2.521152E-12	NaN
486	1.000000	0.412844	7.36981e+06	-52789.1	1005.82	-29748.3	0.000000	0.000000	6.412871	0.051453	NaN	0.000000	0.001584	0.001694	28.0821	0.032280	0.002015	16.0164	27.8181	15.3222	-0.052690	0.411509	-0.715298	-0.716633	0.051453	16.0164	-0.717708	-3.413579E+9	-1.507307E-11	NaN
486	1.000000	0.422891	7.36981e+06	-52789.1	1005.82	-29748.3	0.000000	0.000000	6.422917	0.036302	NaN	0.000000	0.001590	0.001684	28.0823	0.014399	0.001969	7.310916	122.812	-164.254	-0.001246	0.421533	-0.705252	-0.706609	0.036302	7.310916	-0.708976	-2.594625E+9	-1.399126E-11	NaN
486	1.000000	0.432886	7.36981e+06	-52789.1	1005.82	-29748.3	0.000000	0.000000	6.432910	-0.019313	NaN	0.000000	0.001576	0.001700	28.0819	0.104039	0.001991	52.2626	123.367	14.9547	0.036664	0.431545	-0.695256	-0.696598	-0.019313	52.2626	-0.694979	-1.670912E+9	1.155862E-11	NaN
486	1.000000	0.442902	7.36981e+06	-52789.1	1005.82	-29748.3	0.000000	0.000000	6.442929	0.056006	NaN	0.000000	0.001574	0.001707	28.0825	0.077147	0.001925	40.07	111.244	-166.214	-0.017084	0.441562	-0.685241	-0.686580	0.056006	40.07	-0.686289	-1.271151E+9	-4.405948E-11	NaN
486	1.000000	0.452896	7.36981e+06	-52789.1	1005.82	-29748.3	0.000000	0.000000	6.452924	0.070127	NaN	0.000000	0.001586	0.001714	28.082	0.058766	0.002052	28.6354	-56.4254	15.2426	0.105411	0.451579	-0.675246	-0.676564	0.070127	28.6354	-0.677083	-9.512789E+8	-7.371870E-11	NaN
486	1.000000	0.462913	7.36981e+06	-52789.1	1005.82	-29748.3	0.000000	0.000000	6.462938	0.017137	NaN	0.000000	0.001564	0.001691	28.0809	0.007731	0.002078	3.720511	107.862	-164.793	0.025398	0.461655	-0.665230	-0.666488	0.017137	3.720511	-0.668684	-7.301000E+8	-2.347273E-11	NaN
486	1.000000	0.472904	7.36981e+06	-52789.1	1005.82	-29748.3	0.000000	0.000000	6.472932	0.074941	NaN	0.000000	0.001608	0.001675	28.0808	0.126634	0.001883	67.2388	64.6254	14.4066	-0.005808	0.471552	-0.655239	-0.656591	0.074941	67.2388	-0.656074	-4.905565E+8	-1.527666E-10	NaN
486	1.000000	0.482895	7.36981e+06	-52789.1	1005.82	-29748.3	0.000000	0.000000	6.482923	0.080230	NaN	0.000000	0.001662	0.001720	28.0808	0.059567	0.002064	28.8599	23.5167	-166.445	0.074237	0.481559	-0.645248	-0.646583	0.080230	28.8599	-0.647333	-3.722799E+8	-2.155108E-10	NaN
486	1.000000	0.492908	7.36981e+06	-52789.1	1005.82	-29748.3	0.000000	0.000000	6.492932	0.001443	NaN	0.000000	0.001619	0.001669	28.0809	0.083714	0.001971	42.4625	-43.3708	15.0927	0.002827	0.491562	-0.635235	-0.636580	0.001443	42.4625	-0.635260	-2.542410E+8	-5.674039E-12	NaN
486	1.000000	0.502895	7.36981e+06	-52789.1	1005.82	-29748.3	0.000000	0.000000	6.502921	0.037163	NaN	0.000000	0.001653	0.001674	28.081	0.059473	0.002095	28.383	29.21	-166.847	-0.010065	0.501591	-0.625247	-0.626551	0.037163	28.383	-0.626229	-1.910878E+8	-1.944838E-10	NaN
486	1.000000	0.512906	7.36981e+06	-52789.1	1005.82	-29748.3	0.000000	0.000000	6.512930	-0.014590	NaN	0.000000	0.001638	0.001679	28.0812	0.078378	0.002017	38.868	38.2885	18.0458	0.027779	0.511557	-0.615236	-0.616585	-0.014590	38.868	-0.614955	-1.337418E+8	1.090941E-10	NaN
486	1.000000	0.522927	7.36981e+06	-52789.1	1005.82	-29748.3	0.000000	0.000000	6.522953	0.030926	NaN	0.000000	0.001641	0.001712	28.0808	0.039867	0.002023	19.7066	27.2439	-164.373	-0.023544	0.521614	-0.605216	-0.606529	0.030926	19.7066	-0.606393	-1.019707E+8	-3.032782E-10	NaN
486	1.000000	0.532917	7.36981e+06	-52789.1	1005.82	-29748.3	0.000000	0.000000	6.532942	-0.005705	NaN	0.000000	0.001591	0.001676	28.0808	0.016195	0.002016	8.031758	-56.55	12.8243	-0.010403	0.531550	-0.595225	-0.596592	-0.005705	8.031758	-0.594692	-7.036250E+7	8.108527E-11	NaN
486	1.000000	0.542930	7.36981e+06	-52789.1	1005.82	-29748.3	0.000000	0.000000	6.542958	0.065144	NaN	0.000000	0.001588	0.001687	28.081	0.096139	0.001917	50.1581	-92.9465	-166.761	0.083930	0.541583	-0.585212	-0.586560	0.065144	50.1581	-0.586186	-5.371281E+7	-1.212820E-9	NaN
486	1.000000	0.552924	7.36981e+06	-52789.1	1005.82	-29748.3	0.000000	0.000000	6.552949	-0.000820	NaN	0.000000	0.001615	0.001692	28.0813	0.107452	0.002038	52.7129	-175.819	15.0414	-0.056842	0.551612	-0.575219	-0.576530	-0.000820	52.7129	-0.575207	-3.789267E+7	2.164153E-11	NaN
486	1.000000	0.562942	7.36981e+06	-52789.1	1005.82	-29748.3	0.000000	0.000000	6.562967	0.016096	NaN	0.000000	0.001615	0.001690	28.0811	0.075056	0.001952	38.4543	-49.8489	-164.881	0.073265	0.561630	-0.565201	-0.566512	0.016096	38.4543	-0.565515	-2.783838E+7	-5.782015E-10	NaN
486	1.000000	0.572953	7.36981e+06	-52789.1	1005.82	-29748.3	0.000000	0.000000	6.572980	0.071790	NaN	0.000000	0.001610	0.001688	28.0809	0.107612	0.001900	56.6507	-59.3371	11.8593	0.034132	0.571611	-0.555190	-0.556531	0.071790	56.6507	-0.556140	-2.065245E+7	-3.476086E-9	NaN
486	1.000000	0.582935	7.36981e+06	-52789.1	1005.82	-29748.3	0.000000	0.000000	6.582961	0.027076	NaN	0.000000	0.001587	0.001685	28.0812	0.127463	0.001932	65.9907	101.68	-169.271	0.022058	0.581668	-0.545207	-0.546474	0.027076	65.9907	-0.545515	-1.471689E+7	-1.839820E-9	NaN
486	1.000000	0.592960	7.36981e+06	-52789.1	1005.82	-29748.3	0.000000	0.000000	6.592984	-0.008622	NaN	0.000000	0.001585	0.001689	28.0816	0.089060	0.002002	44.4789	-36.1569	12.929	0.010092	0.591612	-0.535183	-0.536531	-0.008622	44.4789	-0.535037	-1.053190E+7	8.186744E-10	NaN
486	1.000000	0.602950	7.36981e+06	-52789.1	1005.82	-29748.3	0.000000	0.000000	6.602978	0.099027	NaN	0.000000	0.001597	0.001703	28.0822	0.091576	0.002019	45.3601	-146.359	-168.628	0.129483	0.601621	-0.525193	-0.526522	0.099027	45.3601	-0.526830	-8.10111e+06	-1.222383E-8	NaN
486	1.000000	0.612936	7.36981e+06	-52789.1	1005.82	-29748.3	0.000000	0.000000	6.612960	-0.004401	NaN	0.000000	0.001576	0.001700	28.0822	0.088834	0.001938	45.8457	108.713	13.3965	-0.012738	0.611614	-0.515207	-0.516529	-0.004401	45.8457	-0.515135	-5.57069e+06	7.900510E-10	NaN
486	1.000000	0.622941	7.36981e+06	-52789.1	1005.82	-29748.3	0.000000	0.000000	6.622968	0.059972	NaN	0.000000	0.001605	0.001724	28.0823	0.108962	0.001957	55.681	171.419	-167.147	0.119494	0.621602	-0.505202	-0.506540	0.059972	55.681	-0.506010	-4.15736e+06	-1.442549E-8	NaN
486	1.000000	0.632977	7.36981e+06	-52789.1	1005.82	-29748.3	0.000000	0.000000	6.633004	0.062901	NaN	0.000000	0.001620	0.001706	28.0822	0.079649	0.002172	36.6665	119.229	17.1232	0.099496	0.631623	-0.495166	-0.496520	0.062901	36.6665	-0.496452	-3.0585e+06	-2.056586E-8	NaN
486	1.000000	0.642993	7.36981e+06	-52789.1	1005.82	-29748.3	0.000000	0.000000	6.643022	0.104315	NaN	0.000000	0.001629	0.001691	28.0824	0.051973	0.002051	25.3353	-124.064	-167.82	0.091963	0.641656	-0.485150	-0.486486	0.104315	25.3353	-0.488238	-2.34834e+06	-4.442068E-8	NaN
486	1.000000	0.653010	7.36981e+06	-52789.1	1005.82	-29748.3	0.000000	0.000000	6.653034	-0.027893	NaN	0.000000	0.001591	0.001691	28.0825	0.097188	0.001872	51.9076	-174.313	15.8094	0.014020	0.651629	-0.475132	-0.476514	-0.027893	51.9076	-0.474729	-1.51953e+06	1.835611E-8	NaN
486	1.000000	0.662983	7.36981e+06	-52789.1	1005.82	-29748.3	0.000000	0.000000	6.663009	0.029579	NaN	0.000000	0.001575	0.001681	28.0824	0.084995	0.002000	42.4997	51.7984	-166.087	0.037531	0.661642	-0.465160	-0.466500	0.029579	42.4997	-0.465682	-1.13454e+06	-2.607114E-8	NaN
486	1.000000	0.672965	7.36981e+06	-52789.1	1005.82	-29748.3	0.000000	0.000000	6.672989	-0.027124	NaN	0.000000	0.001575	0.001663	28.0825	0.057553	0.001803	31.9168	160.667	14.3973	-0.002937	0.671671	-0.455178	-0.456472	-0.027124	31.9168	-0.454540	-791132	3.428472E-8	NaN
486	1.000000	0.682983	7.36981e+06	-52789.1	1005.82	-29748.3	0.000000	0.000000	6.683008	0.026950	NaN	0.000000	0.001566	0.001696	28.0824	0.024823	0.002067	12.0084	37.4743	-166.664	0.012968	0.681671	-0.445160	-0.446472	0.026950	12.0084	-0.446843	-616412	-4.372111E-8	NaN
486	1.000000	0.692988	7.36981e+06	-52789.1	1005.82	-29748.3	0.000000	0.000000	6.693016	0.067240	NaN	0.000000	0.001587	0.001670	28.0827	0.010520	0.002124	4.953303	91.2017	16.4926	0.164335	0.691622	-0.435154	-0.436520	0.067240	4.953303	-0.445335	-586971	-1.145541E-7	NaN
486	1.000000	0.702986	7.36981e+06	-52789.1	1005.82	-29748.3	0.000000	0.000000	6.703010	-0.004887	NaN	0.000000	0.001541	0.001696	28.0824	0.020178	0.001917	10.527	-52.1359	-166.842	-0.018445	0.701717	-0.425157	-0.426425	-0.004887	10.527	-0.424809	-301002	1.623638E-8	NaN
486	1.000000	0.713018	7.36981e+06	-52789.1	1005.82	-29748.3	0.000000	0.000000	6.713043	0.011856	NaN	0.000000	0.001555	0.001733	28.0824	0.079587	0.001929	41.2509	144.326	16.1918	-0.034876	0.711658	-0.415125	-0.416484	0.011856	41.2509	-0.415340	-220946	-5.365895E-8	NaN
486	1.000000	0.722994	7.36981e+06	-52789.1	1005.82	-29748.3	0.000000	0.000000	6.723020	0.035366	NaN	0.000000	0.001598	0.001706	28.0823	0.101488	0.001899	53.4517	-34.1946	-169.09	0.047907	0.721690	-0.405148	-0.406453	0.035366	53.4517	-0.405645	-160852	-2.198687E-7	NaN
486	1.000000	0.733016	7.36981e+06	-52789.1	1005.82	-29748.3	0.000000	0.000000	6.733042	0.033478	NaN	0.000000	0.001548	0.001684	28.0812	0.096596	0.001884	51.273	-11.386	13.2987	-0.007089	0.731652	-0.395126	-0.396491	0.033478	51.273	-0.395616	-115726	-2.892903E-7	NaN
486	1.000000	0.743004	7.36981e+06	-52789.1	1005.82	-29748.3	0.000000	0.000000	6.743031	0.043115	NaN	0.000000	0.001559	0.001757	28.0809	0.100434	0.002030	49.4831	163.029	-167.064	-0.006724	0.741699	-0.385138	-0.386443	0.043115	49.4831	-0.385792	-83739.1	-5.148736E-7	NaN
486	1.000000	0.753024	7.36981e+06	-52789.1	1005.82	-29748.3	0.000000	0.000000	6.753050	0.039603	NaN	0.000000	0.001567	0.001695	28.081	0.014190	0.001942	7.307286	63.1348	15.0755	0.037972	0.751678	-0.375118	-0.376464	0.039603	7.307286	-0.379183	-67323.2	-5.882522E-7	NaN
486	1.000000	0.763027	7.36981e+06	-52789.1	1005.82	-29748.3	0.000000	0.000000	6.763056	0.110023	NaN	0.000000	0.001537	0.001716	28.0812	0.120446	0.002005	60.072	176.616	-168.075	0.080112	0.761714	-0.365116	-0.366429	0.110023	60.072	-0.366490	-44211.9	-2.488539E-6	NaN
486	1.000000	0.773052	7.36981e+06	-52789.1	1005.82	-29748.3	0.000000	0.000000	6.773078	0.052321	NaN	0.000000	0.001545	0.001716	28.0808	0.035770	0.002079	17.2044	72.1233	14.0868	0.001616	0.771645	-0.355091	-0.356498	0.052321	17.2044	-0.357372	-32646.4	-1.602659E-6	NaN
486	1.000000	0.783056	7.36981e+06	-52789.1	1005.82	-29748.3	0.000000	0.000000	6.783083	0.047776	NaN	0.000000	0.001587	0.001690	28.0809	0.099505	0.002106	47.2476	15.2576	-168.577	0.071958	0.781687	-0.345086	-0.346456	0.047776	47.2476	-0.345844	-22214.5	-2.150661E-6	NaN
486	1.000000	0.793020	7.36981e+06	-52789.1	1005.82	-29748.3	0.000000	0.000000	6.793048	0.073722	NaN	0.000000	0.001572	0.001724	28.0809	0.096832	0.001999	48.4515	-148.981	10.7122	0.103299	0.791684	-0.335122	-0.336458	0.073722	48.4515	-0.336263	-16108	-4.576756E-6	NaN
486	1.000000	0.803044	7.36981e+06	-52789.1	1005.82	-29748.3	0.000000	0.000000	6.803069	0.003449	NaN	0.000000	0.001564	0.001702	28.0812	0.020734	0.001953	10.6189	90.1206	-164.243	-0.012509	0.801703	-0.325098	-0.326440	0.003449	10.6189	-0.325342	-11147	-3.094185E-7	NaN
486	1.000000	0.813013	7.36981e+06	-52789.1	1005.82	-29748.3	0.000000	0.000000	6.813038	-0.003487	NaN	0.000000	0.001589	0.001701	28.081	0.059857	0.002102	28.477	86.9388	10.9127	0.043163	0.811712	-0.315129	-0.316431	-0.003487	28.477	-0.315037	-7861.41	4.435926E-7	NaN
486	1.000000	0.823033	7.36981e+06	-52789.1	1005.82	-29748.3	0.000000	0.000000	6.823061	0.077867	NaN	0.000000	0.001597	0.001723	28.0809	0.054056	0.002091	25.8545	-154.725	-165.859	0.036042	0.821786	-0.305109	-0.306357	0.077867	25.8545	-0.307368	-6054.45	-1.286104E-5	NaN
486	1.000000	0.833054	7.36981e+06	-52789.1	1005.82	-29748.3	0.000000	0.000000	6.833080	0.033099	NaN	0.000000	0.001610	0.001700	28.0811	0.162888	0.002115	77.0192	-113.596	14.3812	-0.012357	0.831712	-0.295088	-0.296430	0.033099	77.0192	-0.295411	-4019.94	-8.233768E-6	NaN
486	1.000000	0.843068	7.36981e+06	-52789.1	1005.82	-29748.3	0.000000	0.000000	6.843094	0.048461	NaN	0.000000	0.001549	0.001706	28.0811	0.034719	0.001992	17.4294	-29.0713	-167.439	-0.024618	0.841785	-0.285075	-0.286358	0.048461	17.4294	-0.287160	-3024.94	-1.602044E-5	NaN
486	1.000000	0.853033	7.36981e+06	-52789.1	1005.82	-29748.3	0.000000	0.000000	6.853060	0.064751	NaN	0.000000	0.001597	0.001725	28.0807	0.018431	0.001932	9.538846	-148.882	12.0191	0.073054	0.851689	-0.275110	-0.276453	0.064751	9.538846	-0.280201	-2376.83	-2.724249E-5	NaN
486	1.000000	0.863058	7.36981e+06	-52789.1	1005.82	-29748.3	0.000000	0.000000	6.863084	0.021413	NaN	0.000000	0.001578	0.001718	28.0808	0.035332	0.001959	18.0366	-14.6612	-165.21	-0.010403	0.861732	-0.265084	-0.266411	0.021413	18.0366	-0.265975	-1446.29	-1.480568E-5	NaN
486	1.000000	0.873045	7.36981e+06	-52789.1	1005.82	-29748.3	0.000000	0.000000	6.873071	0.018199	NaN	0.000000	0.001601	0.001721	28.0821	0.122763	0.002011	61.0327	-60.2771	12.9087	0.001455	0.871677	-0.255097	-0.256466	0.018199	61.0327	-0.255321	-993.237	-1.832243E-5	NaN
486	1.000000	0.883047	7.36981e+06	-52789.1	1005.82	-29748.3	0.000000	0.000000	6.883073	0.031243	NaN	0.000000	0.001506	0.001734	28.082	0.091719	0.001883	48.7123	145.903	-167.094	-0.026661	0.881791	-0.245096	-0.246351	0.031243	48.7123	-0.245577	-702.128	-4.449743E-5	NaN
486	1.000000	0.893102	7.36981e+06	-52789.1	1005.82	-29748.3	0.000000	0.000000	6.893129	0.050339	NaN	0.000000	0.001597	0.001687	28.082	0.035944	0.002089	17.2101	-101.556	13.0974	0.012223	0.891672	-0.235040	-0.236471	0.050339	17.2101	-0.237234	-520.337	-9.674340E-5	NaN
486	1.000000	0.903098	7.36981e+06	-52789.1	1005.82	-29748.3	0.000000	0.000000	6.903125	0.048812	NaN	0.000000	0.001590	0.001664	28.082	0.122926	0.002068	59.4365	121.71	-163.364	0.050058	0.901795	-0.225044	-0.226348	0.048812	59.4365	-0.225660	-341.838	-0.000143	NaN
486	1.000000	0.913080	7.36981e+06	-52789.1	1005.82	-29748.3	0.000000	0.000000	6.913108	0.067708	NaN	0.000000	0.001563	0.001682	28.0821	0.070968	0.001891	37.5216	-85.262	10.6468	0.129579	0.911719	-0.215062	-0.216423	0.067708	37.5216	-0.216416	-243.369	-0.000278	NaN
486	1.000000	0.923070	7.36981e+06	-52789.1	1005.82	-29748.3	0.000000	0.000000	6.923097	0.060005	NaN	0.000000	0.001577	0.001722	28.0822	0.072791	0.002103	34.6113	94.8801	-169.616	-0.017462	0.921786	-0.205073	-0.206357	0.060005	34.6113	-0.206373	-167.467	-0.000358	NaN
486	1.000000	0.933112	7.36981e+06	-52789.1	1005.82	-29748.3	0.000000	0.000000	6.933138	0.028222	NaN	0.000000	0.001599	0.001711	28.082	0.052063	0.001923	27.0748	-15.8611	16.4464	0.051928	0.931739	-0.195031	-0.196404	0.028222	27.0748	-0.195812	-112.37	-0.000251	NaN
486	1.000000	0.943105	7.36981e+06	-52789.1	1005.82	-29748.3	0.000000	0.000000	6.943133	0.066604	NaN	0.000000	0.001621	0.001694	28.0824	0.042808	0.002132	20.0744	159.907	-167.295	0.064554	0.941857	-0.185037	-0.186286	0.066604	20.0744	-0.187526	-81.7716	-0.000815	NaN
486	1.000000	0.953098	7.36981e+06	-52789.1	1005.82	-29748.3	0.000000	0.000000	6.953125	0.043992	NaN	0.000000	0.001580	0.001659	28.0823	0.103042	0.001999	51.5364	176.689	15.5201	0.038383	0.951726	-0.175044	-0.176417	0.043992	51.5364	-0.175685	-51.4914	-0.000854	NaN
486	1.000000	0.963119	7.36981e+06	-52789.1	1005.82	-29748.3	0.000000	0.000000	6.963147	0.077793	NaN	0.000000	0.001562	0.001691	28.0824	0.049119	0.001960	25.0636	88.9648	-164.689	0.029493	0.961787	-0.165023	-0.166355	0.077793	25.0636	-0.167351	-36.939	-0.002106	NaN
486	1.000000	0.973126	7.36981e+06	-52789.1	1005.82	-29748.3	0.000000	0.000000	6.973151	0.008556	NaN	0.000000	0.001582	0.001673	28.0822	0.064764	0.002017	32.1152	44.2842	12.8429	0.094257	0.971770	-0.155017	-0.156373	0.008556	32.1152	-0.155217	-22.5153	-0.000380	NaN
486	1.000000	0.983120	7.36981e+06	-52789.1	1005.82	-29748.3	0.000000	0.000000	6.983143	-0.036097	NaN	0.000000	0.001599	0.001685	28.083	0.028638	0.001884	15.2045	-67.2826	-166.62	-0.002724	0.981813	-0.145023	-0.146329	-0.036097	15.2045	-0.143242	-13.6008	0.002654	NaN
486	1.000000	0.993115	7.36981e+06	-52789.1	1005.82	-29748.3	0.000000	0.000000	6.993142	0.037367	NaN	0.000000	0.001569	0.001708	28.0823	0.070350	0.002012	34.9636	-24.9175	11.7381	0.015309	0.991740	-0.135027	-0.136402	0.037367	34.9636	-0.135829	-9.864758	-0.003788	NaN
486	1.000000	1.003111	7.36981e+06	-52789.1	1005.82	-29748.3	0.000000	0.000000	7.003136	0.021583	NaN	0.000000	0.001580	0.001711	28.0816	0.071206	0.001982	35.9228	-45.667	-164.851	-0.042327	1.001784	-0.125032	-0.126359	0.021583	35.9228	-0.125482	-6.216282	-0.003472	NaN
486	1.000000	1.013097	7.36981e+06	-52789.1	1005.82	-29748.3	0.000000	0.000000	7.013123	0.023831	NaN	0.000000	0.001659	0.001712	28.081	0.014825	0.002026	7.318994	155.063	14.595	0.047047	1.011756	-0.115045	-0.116387	0.023831	7.318994	-0.117487	-4.296360	-0.005547	NaN
486	1.000000	1.023140	7.36981e+06	-52789.1	1005.82	-29748.3	0.000000	0.000000	7.023166	0.028513	NaN	0.000000	0.001644	0.001714	28.0811	0.143867	0.002054	70.0567	100.301	-169.186	0.042909	1.021818	-0.105002	-0.106324	0.028513	70.0567	-0.105307	-2.386763	-0.011946	NaN
486	1.000000	1.033117	7.36981e+06	-52789.1	1005.82	-29748.3	0.000000	0.000000	7.033143	0.027824	NaN	0.000000	0.001662	0.001704	28.081	0.010418	0.001939	5.373277	59.2867	13.8928	0.001466	1.031757	-0.095025	-0.096386	0.027824	5.373277	-0.098909	-1.727903	-0.016103	NaN
486	1.000000	1.043117	7.36981e+06	-52789.1	1005.82	-29748.3	0.000000	0.000000	7.043142	0.001710	NaN	0.000000	0.001629	0.001730	28.0811	0.047407	0.002053	23.0907	-155.935	-167.76	-0.004347	1.041859	-0.085026	-0.086283	0.001710	23.0907	-0.085081	-0.825361	-0.002072	NaN
486	1.000000	1.053121	7.36981e+06	-52789.1	1005.82	-29748.3	0.000000	0.000000	7.053146	0.014639	NaN	0.000000	0.001643	0.001712	28.081	0.030909	0.001983	15.5883	-105.693	9.939072	0.019907	1.051794	-0.075022	-0.076349	0.014639	15.5883	-0.075726	-0.482239	-0.030356	NaN
486	1.000000	1.063129	7.36981e+06	-52789.1	1005.82	-29748.3	0.000000	0.000000	7.063158	0.099928	NaN	0.000000	0.001656	0.001719	28.0807	0.001906	0.001889	1.009169	-68.1388	-169.889	0.098586	1.061792	-0.065013	-0.066350	0.099928	1.009169	-0.139279	-11.4657	-0.008715	NaN
486	1.000000	1.073167	7.36981e+06	-52789.1	1005.82	-29748.3	0.000000	0.000000	7.073193	0.030719	NaN	0.000000	0.001687	0.001745	28.0807	0.134847	0.002165	62.2987	-115.723	16.1538	0.001606	1.071745	-0.054976	-0.056398	0.030719	62.2987	-0.055346	-0.131841	-0.233003	NaN
486	1.000000	1.083156	7.36981e+06	-52789.1	1005.82	-29748.3	0.000000	0.000000	7.083182	0.041606	NaN	0.000000	0.001654	0.001711	28.0807	0.028862	0.001953	14.7797	-125.729	-169.064	0.056529	1.081781	-0.044987	-0.046362	0.041606	14.7797	-0.047098	-0.074486	-0.558580	NaN
486	1.000000	1.093162	7.36981e+06	-52789.1	1005.82	-29748.3	0.000000	0.000000	7.093189	0.076207	NaN	0.000000	0.001658	0.001727	28.0808	0.095645	0.002020	47.3425	-168.495	14.1156	0.116523	1.091807	-0.034981	-0.036336	0.076207	47.3425	-0.036188	-0.034726	-2.194551	NaN
486	1.000000	1.103178	7.36981e+06	-52789.1	1005.82	-29748.3	0.000000	0.000000	7.103204	0.022948	NaN	0.000000	0.001616	0.001715	28.0807	0.028474	0.002103	13.5391	84.6834	-168.667	0.011482	1.101839	-0.024964	-0.026303	0.022948	13.5391	-0.026235	-0.018182	-1.262170	NaN
486	1.000000	1.113137	7.36981e+06	-52789.1	1005.82	-29748.3	0.000000	0.000000	7.113162	0.015056	NaN	0.000000	0.001628	0.001735	28.0805	0.066491	0.002100	31.6673	58.2025	11.7698	0.013000	1.111830	-0.015005	-0.016313	0.015056	31.6673	-0.015362	-0.009493	-1.585909	NaN
486	1.000000	1.123174	7.36981e+06	-52789.1	1005.82	-29748.3	0.000000	0.000000	7.123233	0.838405	NaN	0.000000	0.001637	0.001708	28.0807	1.357611	0.001820	746.135	5.273405	-164.409	0.233523	1.121847	-0.004969	-0.006295	0.838405	746.135	-0.005811	-0.003921	-213.838	NaN
486	2.000000	1.131245	7.36981e+06	-52789.1	1005.82	-29748.3	0.000000	0.000000	7.131638	8.946328	NaN	0.000000	0.001627	0.001714	28.0808	9.245927	0.001625	5689.04	6.136435	7.529210	8.398628	1.130882	0.003103	0.002739	8.946328	5689.04	0.001923	0.001493	5992.74	134525
486	2.000000	1.133668	7.36981e+06	-52789.1	1005.82	-29748.3	0.000000	0.000000	7.134236	13.1972	NaN	0.000000	0.001661	0.001711	28.0818	11.9263	0.001433	8324.67	4.378330	-176.502	12.1593	1.133403	0.005526	0.005261	13.1972	8324.67	0.004337	0.003536	3732.29	127905
486	2.000000	1.136128	7.36981e+06	-52789.1	1005.82	-29748.3	0.000000	0.000000	7.136869	17.4155	NaN	0.000000	0.001616	0.001739	28.082	15.4328	0.001610	9584.46	2.574215	5.905664	15.6404	1.135850	0.007985	0.007707	17.4155	9584.46	0.006623	0.005663	3075.05	116359
486	2.000000	1.138643	7.36981e+06	-52789.1	1005.82	-29748.3	0.000000	0.000000	7.139596	22.5803	NaN	0.000000	0.001664	0.001751	28.0842	19.0502	0.001832	10399	1.415871	-172.881	21.3907	1.138412	0.010500	0.010270	22.5803	10399	0.008872	0.007955	2838.66	106526
486	2.000000	1.141166	7.36981e+06	-52789.1	1005.82	-29748.3	0.000000	0.000000	7.142260	26.0042	NaN	0.000000	0.001621	0.001713	28.0856	21.3926	0.001917	11161.8	9.495586	-0.724664	26.2062	1.140794	0.013024	0.012651	26.0042	11161.8	0.011276	0.010635	2445.22	98887.8
486	2.000000	1.143636	7.36981e+06	-52789.1	1005.82	-29748.3	0.000000	0.000000	7.144885	29.7599	NaN	0.000000	0.001608	0.001752	28.0845	23.623	0.001895	12467.4	9.263467	178.77	29.7316	1.143330	0.015494	0.015187	29.7599	12467.4	0.013704	0.013595	2188.97	97690.7
486	2.000000	1.146119	7.36981e+06	-52789.1	1005.82	-29748.3	0.000000	0.000000	7.147582	34.9666	NaN	0.000000	0.001634	0.001745	28.0839	25.1964	0.001764	14285.4	0.669204	5.387188	33.882	1.145873	0.017976	0.017731	34.9666	14285.4	0.016140	0.016836	2076.85	100587
486	2.000000	1.148592	7.36981e+06	-52789.1	1005.82	-29748.3	0.000000	0.000000	7.150259	39.9428	NaN	0.000000	0.001652	0.001750	28.0825	28.1924	0.001840	15324.8	5.158029	-179.849	38.7055	1.148324	0.020449	0.020181	39.9428	15324.8	0.018495	0.020232	1974.26	98435.2
486	2.000000	1.151134	7.36981e+06	-52789.1	1005.82	-29748.3	0.000000	0.000000	7.153104	47.2913	NaN	0.000000	0.001607	0.001747	28.0839	29.9725	0.001772	16912.5	3.333956	1.811356	47.361	1.150681	0.022992	0.022538	47.2913	16912.5	0.020895	0.023968	1973.14	99809.2
486	2.000000	1.153618	7.36981e+06	-52789.1	1005.82	-29748.3	0.000000	0.000000	7.155824	53.0329	NaN	0.000000	0.001649	0.001710	28.0821	31.9348	0.001741	18347.6	3.806062	178.817	51.8309	1.153308	0.025475	0.025166	53.0329	18347.6	0.023307	0.028008	1893.48	100164
486	2.000000	1.156088	7.36981e+06	-52789.1	1005.82	-29748.3	0.000000	0.000000	7.158541	59.0431	NaN	0.000000	0.001580	0.001713	28.0828	34.7113	0.001797	19312.5	5.091687	-2.372765	57.2688	1.155816	0.027945	0.027673	59.0431	19312.5	0.025652	0.032213	1832.88	98309.3
486	2.000000	1.158577	7.36981e+06	-52789.1	1005.82	-29748.3	0.000000	0.000000	7.161448	69.205	NaN	0.000000	0.001642	0.001701	28.0821	36.6138	0.001673	21890.3	4.112354	177.418	67.2855	1.158282	0.030434	0.030140	69.205	21890.3	0.028063	0.036825	1879.3	104221
486	2.000000	1.161082	7.36981e+06	-52789.1	1005.82	-29748.3	0.000000	0.000000	7.164329	78.3458	NaN	0.000000	0.001616	0.001721	28.0826	38.2857	0.001737	22038.2	5.023521	-2.569086	77.0767	1.160673	0.032940	0.032530	78.3458	22038.2	0.030273	0.041312	1896.43	99062.9
486	2.000000	1.163582	7.36981e+06	-52789.1	1005.82	-29748.3	0.000000	0.000000	7.167075	84.3298	NaN	0.000000	0.001617	0.001711	28.0822	39.9213	0.001701	23463.6	0.105186	-178.679	82.6408	1.163249	0.035439	0.035106	84.3298	23463.6	0.032744	0.046623	1808.77	99281.7
486	2.000000	1.166070	7.36981e+06	-52789.1	1005.82	-29748.3	0.000000	0.000000	7.169781	89.6123	NaN	0.000000	0.001633	0.001705	28.0833	43.3598	0.001799	24103.9	2.601586	-1.748613	87.6065	1.165835	0.037928	0.037693	89.6123	24103.9	0.035140	0.052071	1720.95	96507.5
486	2.000000	1.168598	7.36981e+06	-52789.1	1005.82	-29748.3	0.000000	0.000000	7.172670	98.4192	NaN	0.000000	0.001649	0.001725	28.0808	46.8612	0.001899	24675.4	1.836247	179.273	99.2461	1.168309	0.040455	0.040166	98.4192	24675.4	0.037464	0.057638	1707.53	93903.2
486	2.000000	1.171155	7.36981e+06	-52789.1	1005.82	-29748.3	0.000000	0.000000	7.175581	107.02	NaN	0.000000	0.001665	0.001705	28.081	48.9312	0.001736	28182.9	5.468518	-6.436069	108.052	1.170877	0.043012	0.042734	107.02	28182.9	0.040164	0.064454	1660.4	101422
486	2.000000	1.173588	7.36981e+06	-52789.1	1005.82	-29748.3	0.000000	0.000000	7.178421	116.9	NaN	0.000000	0.001643	0.001689	28.0809	49.49	0.001698	29149.6	0.766484	179.059	118.495	1.173272	0.045445	0.045130	116.9	29149.6	0.042438	0.070480	1658.63	100317
486	2.000000	1.175997	7.36981e+06	-52789.1	1005.82	-29748.3	0.000000	0.000000	7.181291	128.115	NaN	0.000000	0.001648	0.001674	28.0812	53.0386	0.001863	28470.5	5.252507	-5.317436	123.518	1.175673	0.047854	0.047531	128.115	28470.5	0.044479	0.076116	1683.14	94282.2
486	2.000000	1.178543	7.36981e+06	-52789.1	1005.82	-29748.3	0.000000	0.000000	7.184210	137.169	NaN	0.000000	0.001581	0.001680	28.081	55.1579	0.001782	30949.3	4.587719	174.578	134.531	1.178270	0.050401	0.050128	137.169	30949.3	0.047077	0.083592	1640.92	97800.3
486	2.000000	1.181079	7.36981e+06	-52789.1	1005.82	-29748.3	0.000000	0.000000	7.187329	151.38	NaN	0.000000	0.001647	0.001678	28.0811	56.773	0.001695	33490.3	2.871946	-4.200359	148.891	1.180693	0.052936	0.052550	151.38	33490.3	0.049546	0.091015	1663.24	101423
486	2.000000	1.183560	7.36981e+06	-52789.1	1005.82	-29748.3	0.000000	0.000000	7.190168	160.073	NaN	0.000000	0.001562	0.001714	28.0809	59.1064	0.001622	36438.3	4.923535	172.77	161.257	1.183258	0.055418	0.055116	160.073	36438.3	0.052123	0.099087	1615.47	105760
486	2.000000	1.186006	7.36981e+06	-52789.1	1005.82	-29748.3	0.000000	0.000000	7.193185	173.948	NaN	0.000000	0.001584	0.001713	28.0811	62.6414	0.001830	34224.6	2.923913	-4.557414	169.076	1.185739	0.057864	0.057597	173.948	34224.6	0.054052	0.105348	1651.17	96338.3
486	2.000000	1.188547	7.36981e+06	-52789.1	1005.82	-29748.3	0.000000	0.000000	7.196160	184.494	NaN	0.000000	0.001591	0.001711	28.0811	65.1067	0.001921	33890	2.530676	175.879	183.228	1.188264	0.060405	0.060122	184.494	33890	0.056322	0.112951	1633.4	92129.9
486	2.000000	1.191039	7.36981e+06	-52789.1	1005.82	-29748.3	0.000000	0.000000	7.199274	199.635	NaN	0.000000	0.001574	0.001722	28.0812	66.7265	0.001880	35488.3	3.514907	-5.204930	195.212	1.190681	0.062896	0.062539	199.635	35488.3	0.058677	0.121108	1648.41	93169.3
486	2.000000	1.193591	7.36981e+06	-52789.1	1005.82	-29748.3	0.000000	0.000000	7.202290	210.902	NaN	0.000000	0.001608	0.001670	28.0811	69.0362	0.001790	38574.8	4.819654	172.452	213.503	1.193313	0.065449	0.065170	210.902	38574.8	0.061348	0.130688	1613.78	97489.8
486	2.000000	1.195939	7.36981e+06	-52789.1	1005.82	-29748.3	0.000000	0.000000	7.205349	228.208	NaN	0.000000	0.001598	0.001705	28.0813	70.9859	0.001722	41234.3	3.588849	-6.615501	220.521	1.195571	0.067796	0.067428	228.208	41234.3	0.063645	0.139203	1639.39	100974
486	2.000000	1.198482	7.36981e+06	-52789.1	1005.82	-29748.3	0.000000	0.000000	7.208247	236.833	NaN	0.000000	0.001594	0.001721	28.0814	74.5616	0.001757	42431.8	2.581237	173.977	232.29	1.198227	0.070339	0.070084	236.833	42431.8	0.066153	0.148792	1591.7	100502
486	2.000000	1.201015	7.36981e+06	-52789.1	1005.82	-29748.3	0.000000	0.000000	7.211221	247.558	NaN	0.000000	0.001570	0.001723	28.0823	76.5136	0.001871	40889.5	5.803801	-7.924176	244.071	1.200740	0.072872	0.072598	247.558	40889.5	0.068331	0.157366	1573.14	94173.7
486	2.000000	1.203567	7.36981e+06	-52789.1	1005.82	-29748.3	0.000000	0.000000	7.214435	263.647	NaN	0.000000	0.001569	0.001741	28.0824	79.222	0.001819	43561.3	7.871367	169.315	264.67	1.203210	0.075424	0.075067	263.647	43561.3	0.070885	0.167707	1572.07	97184.9
486	2.000000	1.205979	7.36981e+06	-52789.1	1005.82	-29748.3	0.000000	0.000000	7.217584	281.56	NaN	0.000000	0.001544	0.001719	28.0825	80.6973	0.001798	44881.2	5.416260	-8.911544	274.918	1.205656	0.077837	0.077514	281.56	44881.2	0.073132	0.177061	1590.19	97448.8
486	2.000000	1.208457	7.36981e+06	-52789.1	1005.82	-29748.3	0.000000	0.000000	7.220870	301.204	NaN	0.000000	0.001580	0.001693	28.0823	83.8913	0.001816	46193.3	7.549679	168.352	296.54	1.208129	0.080314	0.079986	301.204	46193.3	0.075424	0.186850	1612.01	97635
486	2.000000	1.211053	7.36981e+06	-52789.1	1005.82	-29748.3	0.000000	0.000000	7.224153	317.911	NaN	0.000000	0.001565	0.001694	28.0823	84.5291	0.001746	48411.6	3.731026	-7.522948	316.035	1.210690	0.082910	0.082547	317.911	48411.6	0.077985	0.198078	1604.98	99381.3
486	2.000000	1.213557	7.36981e+06	-52789.1	1005.82	-29748.3	0.000000	0.000000	7.227231	331.859	NaN	0.000000	0.001546	0.001754	28.0822	86.8508	0.001755	49473.7	7.069576	169.723	332.472	1.213087	0.085414	0.084945	331.859	49473.7	0.080383	0.208872	1588.81	98902.4
486	2.000000	1.216091	7.36981e+06	-52789.1	1005.82	-29748.3	0.000000	0.000000	7.230273	344.212	NaN	0.000000	0.001538	0.001710	28.0824	89.82	0.001761	51006.6	5.977951	-10.2069	345.599	1.215654	0.087949	0.087512	344.212	51006.6	0.082887	0.220427	1561.57	99258.4
486	2.000000	1.218520	7.36981e+06	-52789.1	1005.82	-29748.3	0.000000	0.000000	7.233383	360.776	NaN	0.000000	0.001544	0.001716	28.0822	93.2064	0.001832	50879.7	4.214972	170.929	359.426	1.218181	0.090377	0.090039	360.776	50879.7	0.085059	0.230683	1563.95	96785.5
486	2.000000	1.221047	7.36981e+06	-52789.1	1005.82	-29748.3	0.000000	0.000000	7.236623	378.118	NaN	0.000000	0.001531	0.001703	28.0826	94.6825	0.001944	48708.4	4.910610	-8.740983	377.312	1.220722	0.092904	0.092579	378.118	48708.4	0.087082	0.240433	1572.66	90757.1
486	2.000000	1.223522	7.36981e+06	-52789.1	1005.82	-29748.3	0.000000	0.000000	7.240133	403.281	NaN	0.000000	0.001547	0.001737	28.0823	95.8804	0.001707	56162.5	6.720916	168.094	402.645	1.223053	0.095379	0.094911	403.281	56162.5	0.089994	0.254797	1582.75	101654
486	2.000000	1.226050	7.36981e+06	-52789.1	1005.82	-29748.3	0.000000	0.000000	7.243145	415.049	NaN	0.000000	0.001571	0.001702	28.0823	97.8625	0.001772	55228	2.071621	-7.015948	415.63	1.225707	0.097907	0.097564	415.049	55228	0.092271	0.266303	1558.56	97778.9
486	2.000000	1.228653	7.36981e+06	-52789.1	1005.82	-29748.3	0.000000	0.000000	7.246341	429.454	NaN	0.000000	0.001593	0.001707	28.0818	101.205	0.001886	53666	4.136847	170.917	434.91	1.228264	0.100511	0.100121	429.454	53666	0.094509	0.277842	1545.68	93019.4
486	2.000000	1.229023	7.36981e+06	-52789.1	1005.82	-29748.3	0.000000	0.000000	7.246659	428.175	NaN	0.000000	0.001583	0.001712	28.0824	101.052	0.001800	56127.9	4.112881	-9.409344	426.565	1.228790	0.100881	0.100648	428.175	56127.9	0.095160	0.281239	1522.46	96697.3