File: remote_trans/data/nanoindenter/0828-1/data/Data_2025-08-06,11h17m57s/2025-07-22_16-23-58_1_188.txt
2025-07-22, 16:23:58, 1
Index	Phase	Displacement	Time	Pos X	Pos Y	Pos Z	Rot A	Rot B	Piezo Z	Force A	Force B	Gripper	Voltage A	Voltage B	Temperature	Amplitude force	Amplitude pos	Stiffness	Phase shift	Phase excitation	Force A raw	Displacement raw	HMax	HMax raw	Real Force	Real Stiffness	Contact Depth	Area	Hardness	Reduced Mod.
[#]	[#]	[um]	[s]	[um]	[um]	[um]	[m°]	[m°]	[um]	[uN]	[uN]	[V]	[V]	[V]	[°C]	[uN]	[um]	[N/m]	[°]	[°]	[uN]	[um]	[um]	[um]	[uN]	[N/m]	[um]	[um^2]	[MPa]	[MPa]
188	1.000000	0.002745	7.36688e+06	-48039.1	955.819	-29764.3	0.000000	0.000000	6.002792	0.011925	NaN	0.000000	0.001702	0.001692	28.0789	0.099911	0.000970	103.024	9.390780	-163.144	0.000567	0.001493	-1.042903	-1.044155	0.011925	103.024	-1.042990	-8.593446E+13	-1.387711E-16	NaN
188	1.000000	0.010705	7.36688e+06	-48039.1	955.818	-29764.3	0.000000	0.000000	6.010755	0.069576	NaN	0.000000	0.001769	0.001679	28.0788	0.061803	0.000916	67.5019	170.911	-161.564	0.012745	0.009434	-1.034943	-1.036214	0.069576	67.5019	-1.035716	-6.860468E+13	-1.014160E-15	NaN
188	1.000000	0.018715	7.36688e+06	-48039.1	955.819	-29764.3	0.000000	0.000000	6.018761	-0.022557	NaN	0.000000	0.001745	0.001721	28.08	0.047951	0.001726	27.7834	48.6531	-164.374	-0.038235	0.017447	-1.026933	-1.028200	-0.022557	27.7834	-1.026324	-5.128942E+13	4.398044E-16	NaN
188	1.000000	0.026730	7.36688e+06	-48039.1	955.819	-29764.3	0.000000	0.000000	6.026778	0.029822	NaN	0.000000	0.001732	0.001688	28.0802	0.113315	0.001824	62.1399	175.879	-164.32	0.062347	0.025355	-1.018918	-1.020292	0.029822	62.1399	-1.019278	-4.123172E+13	-7.232723E-16	NaN
188	1.000000	0.034722	7.36688e+06	-48039.1	955.818	-29764.3	0.000000	0.000000	6.034770	0.012515	NaN	0.000000	0.001749	0.001701	28.0801	0.064071	0.001796	35.681	118.402	-165.262	0.019436	0.033378	-1.010926	-1.012269	0.012515	35.681	-1.011189	-3.209074E+13	-3.899766E-16	NaN
188	1.000000	0.042716	7.36688e+06	-48039.1	955.819	-29764.3	0.000000	0.000000	6.042767	0.111266	NaN	0.000000	0.001732	0.001696	28.0804	0.099395	0.001887	52.6723	119.644	-164.745	0.141486	0.041394	-1.002932	-1.004254	0.111266	52.6723	-1.004516	-2.609582E+13	-4.263751E-15	NaN
188	1.000000	0.050707	7.36688e+06	-48039.1	955.818	-29764.3	0.000000	0.000000	6.050750	-0.079512	NaN	0.000000	0.001726	0.001659	28.0806	0.021283	0.002007	10.6069	-22.3912	-164.344	-0.065007	0.049440	-0.994941	-0.996208	-0.079512	10.6069	-0.989319	-1.629059E+13	4.880853E-15	NaN
188	1.000000	0.058717	7.36688e+06	-48039.1	955.818	-29764.3	0.000000	0.000000	6.058767	0.081001	NaN	0.000000	0.001746	0.001661	28.0805	0.033373	0.002147	15.5441	163.073	-166.667	0.031564	0.057421	-0.986931	-0.988227	0.081001	15.5441	-0.990839	-1.707707E+13	-4.743252E-15	NaN
188	1.000000	0.066698	7.36688e+06	-48039.1	955.818	-29764.3	0.000000	0.000000	6.066744	-0.028663	NaN	0.000000	0.001710	0.001669	28.0804	0.024968	0.002176	11.4743	177.239	-164.943	-0.003231	0.065433	-0.978949	-0.980215	-0.028663	11.4743	-0.977076	-1.114328E+13	2.572255E-15	NaN
188	1.000000	0.074745	7.36688e+06	-48039.1	955.818	-29764.3	0.000000	0.000000	6.074792	0.015886	NaN	0.000000	0.001696	0.001643	28.0802	0.120208	0.001923	62.5197	111.125	-158.845	0.006026	0.073366	-0.970903	-0.972282	0.015886	62.5197	-0.971094	-9.255556E+12	-1.716324E-15	NaN
188	1.000000	0.082712	7.36688e+06	-48039.1	955.819	-29764.3	0.000000	0.000000	6.082761	0.038857	NaN	0.000000	0.001676	0.001626	28.0803	0.075517	0.001992	37.9049	-58.3065	-165.609	0.032219	0.081421	-0.962935	-0.964226	0.038857	37.9049	-0.963704	-7.358744E+12	-5.280410E-15	NaN
188	1.000000	0.090731	7.36688e+06	-48039.1	955.818	-29764.3	0.000000	0.000000	6.090778	-0.004106	NaN	0.000000	0.001671	0.001682	28.0806	0.032597	0.001989	16.39	47.0823	-166.827	0.001127	0.089377	-0.954917	-0.956270	-0.004106	16.39	-0.954729	-5.569258E+12	7.372036E-16	NaN
188	1.000000	0.098738	7.36688e+06	-48039.1	955.819	-29764.3	0.000000	0.000000	6.098786	0.038351	NaN	0.000000	0.001691	0.001704	28.0805	0.014868	0.002028	7.329880	146.247	-167.048	-0.013685	0.097430	-0.946910	-0.948217	0.038351	7.329880	-0.950834	-4.934898E+12	-7.771482E-15	NaN
188	1.000000	0.106720	7.36688e+06	-48039.1	955.818	-29764.3	0.000000	0.000000	6.106769	0.062448	NaN	0.000000	0.001679	0.001701	28.0804	0.071191	0.001974	36.0624	-120.482	-163.089	-0.034071	0.105412	-0.938928	-0.940236	0.062448	36.0624	-0.940227	-3.549751E+12	-1.759222E-14	NaN
188	1.000000	0.114721	7.36688e+06	-48039.1	955.819	-29764.3	0.000000	0.000000	6.114771	0.074919	NaN	0.000000	0.001677	0.001700	28.0803	0.142264	0.001893	75.1716	-28.1154	-167.845	0.078325	0.113442	-0.930926	-0.932205	0.074919	75.1716	-0.931674	-2.721361E+12	-2.752999E-14	NaN
188	1.000000	0.122725	7.36688e+06	-48039.1	955.819	-29764.3	0.000000	0.000000	6.122773	0.020028	NaN	0.000000	0.001625	0.001677	28.0803	0.060847	0.001983	30.6804	-103.451	-166.038	0.019472	0.121427	-0.922922	-0.924221	0.020028	30.6804	-0.923412	-2.105076E+12	-9.514320E-15	NaN
188	1.000000	0.130746	7.36688e+06	-48039.1	955.818	-29764.3	0.000000	0.000000	6.130793	-0.008255	NaN	0.000000	0.001632	0.001672	28.0804	0.028047	0.002010	13.9505	-94.0057	-163.146	0.046886	0.129417	-0.914902	-0.916231	-0.008255	13.9505	-0.914458	-1.593570E+12	5.180095E-15	NaN
188	1.000000	0.138756	7.36688e+06	-48039.1	955.818	-29764.3	0.000000	0.000000	6.138806	0.055103	NaN	0.000000	0.001644	0.001671	28.0803	0.068469	0.002080	32.9184	30.937	-162.744	0.025244	0.137437	-0.906891	-0.908211	0.055103	32.9184	-0.908147	-1.309572E+12	-4.207686E-14	NaN
188	1.000000	0.146719	7.36688e+06	-48039.1	955.818	-29764.3	0.000000	0.000000	6.146769	0.064459	NaN	0.000000	0.001662	0.001664	28.08	0.073008	0.002032	35.937	-159.313	-166.971	0.111105	0.145432	-0.898928	-0.900216	0.064459	35.937	-0.900274	-1.025096E+12	-6.288138E-14	NaN
188	1.000000	0.154738	7.36688e+06	-48039.1	955.818	-29764.3	0.000000	0.000000	6.154786	0.009336	NaN	0.000000	0.001678	0.001656	28.079	0.030171	0.002051	14.7127	-35.835	-165.274	0.026295	0.153455	-0.890909	-0.892192	0.009336	14.7127	-0.891385	-7.773937E+11	-1.200905E-14	NaN
188	1.000000	0.162759	7.36688e+06	-48039.1	955.819	-29764.3	0.000000	0.000000	6.162808	0.038507	NaN	0.000000	0.001682	0.001694	28.0792	0.008571	0.002120	4.042385	-77.6195	-160.86	0.003512	0.161387	-0.882888	-0.884261	0.038507	4.042385	-0.890033	-7.453480E+11	-5.166372E-14	NaN
188	1.000000	0.170744	7.36688e+06	-48039.1	955.819	-29764.3	0.000000	0.000000	6.170797	0.135345	NaN	0.000000	0.001673	0.001700	28.0788	0.069990	0.001969	35.538	-107.141	-160.042	0.175814	0.169453	-0.874903	-0.876195	0.135345	35.538	-0.877760	-5.086410E+11	-2.660907E-13	NaN
188	1.000000	0.178747	7.36688e+06	-48039.1	955.818	-29764.3	0.000000	0.000000	6.178795	0.020778	NaN	0.000000	0.001682	0.001695	28.0788	0.076045	0.001991	38.1976	60.41	-165.158	0.027827	0.177447	-0.866901	-0.868200	0.020778	38.1976	-0.867309	-3.673100E+11	-5.656849E-14	NaN
188	1.000000	0.186755	7.36688e+06	-48039.1	955.818	-29764.3	0.000000	0.000000	6.186803	0.033438	NaN	0.000000	0.001770	0.001707	28.0788	0.074031	0.002052	36.0706	-171.601	-164.317	-0.002911	0.185447	-0.858893	-0.860201	0.033438	36.0706	-0.859588	-2.887632E+11	-1.157987E-13	NaN
188	1.000000	0.194754	7.36688e+06	-48039.1	955.818	-29764.3	0.000000	0.000000	6.194800	-0.021776	NaN	0.000000	0.001651	0.001673	28.0792	0.079034	0.002015	39.2258	-102.18	-165.114	0.012203	0.193504	-0.850894	-0.852143	-0.021776	39.2258	-0.850477	-2.173706E+11	1.001814E-13	NaN
188	1.000000	0.202790	7.36688e+06	-48039.1	955.818	-29764.3	0.000000	0.000000	6.202839	0.056582	NaN	0.000000	0.001682	0.001671	28.0788	0.039998	0.001891	21.1528	-24.463	-166.238	0.009411	0.201462	-0.842858	-0.844186	0.056582	21.1528	-0.844864	-1.824660E+11	-3.100968E-13	NaN
188	1.000000	0.210770	7.36688e+06	-48039.1	955.819	-29764.3	0.000000	0.000000	6.210816	-0.032882	NaN	0.000000	0.001692	0.001661	28.0788	0.101305	0.001906	53.149	-55.0778	-166.532	-0.000294	0.209461	-0.834877	-0.836186	-0.032882	53.149	-0.834413	-1.317027E+11	2.496682E-13	NaN
188	1.000000	0.218768	7.36688e+06	-48039.1	955.818	-29764.3	0.000000	0.000000	6.218815	-0.006253	NaN	0.000000	0.001696	0.001669	28.0789	0.057223	0.002059	27.7918	130.415	-165.941	0.018656	0.217447	-0.826879	-0.828200	-0.006253	27.7918	-0.826711	-1.035612E+11	6.037906E-14	NaN
188	1.000000	0.226786	7.36688e+06	-48039.1	955.818	-29764.3	0.000000	0.000000	6.226834	0.036892	NaN	0.000000	0.001708	0.001671	28.079	0.068294	0.001996	34.2119	40.9133	-166.235	0.028230	0.225436	-0.818862	-0.820212	0.036892	34.2119	-0.819671	-8.312758E+10	-4.438007E-13	NaN
188	1.000000	0.234812	7.36688e+06	-48039.1	955.818	-29764.3	0.000000	0.000000	6.234860	0.025966	NaN	0.000000	0.001698	0.001691	28.0794	0.170841	0.001988	85.9258	-26.9326	-161.992	0.054917	0.233472	-0.810836	-0.812176	0.025966	85.9258	-0.811062	-6.353072E+10	-4.087226E-13	NaN
188	1.000000	0.242785	7.36688e+06	-48039.1	955.819	-29764.3	0.000000	0.000000	6.242833	0.005726	NaN	0.000000	0.001682	0.001671	28.079	0.048676	0.001980	24.5776	-125.854	-169.384	0.077154	0.241495	-0.802862	-0.804153	0.005726	24.5776	-0.803037	-4.944052E+10	-1.158100E-13	NaN
188	1.000000	0.250765	7.36688e+06	-48039.1	955.819	-29764.3	0.000000	0.000000	6.250813	0.007701	NaN	0.000000	0.001671	0.001690	28.079	0.095192	0.002031	46.8605	-161.397	-164.192	9.062666E-5	0.249517	-0.794882	-0.796131	0.007701	46.8605	-0.795005	-3.846419E+10	-2.001996E-13	NaN
188	1.000000	0.258803	7.36688e+06	-48039.1	955.819	-29764.3	0.000000	0.000000	6.258851	0.012089	NaN	0.000000	0.001712	0.001652	28.0792	0.139535	0.002015	69.253	-61.2136	-164.814	-0.002458	0.257436	-0.786845	-0.788212	0.012089	69.253	-0.786975	-2.992284E+10	-4.039928E-13	NaN
188	1.000000	0.266802	7.36688e+06	-48039.1	955.819	-29764.3	0.000000	0.000000	6.266847	-0.048696	NaN	0.000000	0.001668	0.001665	28.079	0.109014	0.001954	55.7882	-61.2739	-166.925	-0.028329	0.265468	-0.778846	-0.780180	-0.048696	55.7882	-0.778191	-2.273255E+10	2.142126E-12	NaN
188	1.000000	0.274805	7.36688e+06	-48039.1	955.818	-29764.3	0.000000	0.000000	6.274853	0.033559	NaN	0.000000	0.001637	0.001683	28.0789	0.050573	0.002066	24.4729	101.036	-169.488	0.025730	0.273479	-0.770843	-0.772169	0.033559	24.4729	-0.771871	-1.865287E+10	-1.799136E-12	NaN
188	1.000000	0.282796	7.36688e+06	-48039.1	955.818	-29764.3	0.000000	0.000000	6.282846	0.070620	NaN	0.000000	0.001678	0.001664	28.0791	0.062360	0.002059	30.2898	128.025	-166.54	0.009890	0.281467	-0.762851	-0.764180	0.070620	30.2898	-0.764600	-1.485498E+10	-4.753939E-12	NaN
188	1.000000	0.290796	7.36688e+06	-48039.1	955.818	-29764.3	0.000000	0.000000	6.290842	-0.025063	NaN	0.000000	0.001647	0.001724	28.0804	0.066725	0.002007	33.2385	-120.367	-163.394	-0.022003	0.289503	-0.754852	-0.756145	-0.025063	33.2385	-0.754286	-1.075376E+10	2.330584E-12	NaN
188	1.000000	0.298806	7.36688e+06	-48039.1	955.818	-29764.3	0.000000	0.000000	6.298854	0.012471	NaN	0.000000	0.001681	0.001701	28.0803	0.026593	0.001918	13.8639	107.195	-166.629	-0.035041	0.297470	-0.746841	-0.748178	0.012471	13.8639	-0.747516	-8.697665E+9	-1.433779E-12	NaN
188	1.000000	0.306805	7.36688e+06	-48039.1	955.818	-29764.3	0.000000	0.000000	6.306855	0.063595	NaN	0.000000	0.001713	0.001690	28.0801	0.063241	0.002064	30.6339	44.1495	-161.319	0.009901	0.305473	-0.738843	-0.740174	0.063595	30.6339	-0.740400	-6.958247E+9	-9.139499E-12	NaN
188	1.000000	0.314804	7.36688e+06	-48039.1	955.818	-29764.3	0.000000	0.000000	6.314850	-0.010735	NaN	0.000000	0.001654	0.001671	28.0801	0.075499	0.001977	38.1944	160.93	-163.299	-0.002238	0.313476	-0.730844	-0.732172	-0.010735	38.1944	-0.730633	-5.121960E+9	2.095804E-12	NaN
188	1.000000	0.322821	7.36688e+06	-48039.1	955.818	-29764.3	0.000000	0.000000	6.322869	0.019308	NaN	0.000000	0.001665	0.001659	28.0803	0.025013	0.002074	12.0578	-3.137627	-165.208	0.036133	0.321469	-0.722827	-0.724179	0.019308	12.0578	-0.724028	-4.162885E+9	-4.638173E-12	NaN
188	1.000000	0.330813	7.36688e+06	-48039.1	955.817	-29764.3	0.000000	0.000000	6.330863	0.068371	NaN	0.000000	0.001663	0.001661	28.0805	0.047434	0.002036	23.2961	-83.3912	-166.381	0.098440	0.329505	-0.714834	-0.716142	0.068371	23.2961	-0.717036	-3.342268E+9	-2.045641E-11	NaN
188	1.000000	0.338853	7.36688e+06	-48039.1	955.818	-29764.3	0.000000	0.000000	6.338900	0.012076	NaN	0.000000	0.001712	0.001661	28.0804	0.069002	0.002100	32.8571	-118.555	-163.201	-0.023069	0.337548	-0.706795	-0.708100	0.012076	32.8571	-0.707071	-2.443818E+9	-4.941290E-12	NaN
188	1.000000	0.346829	7.36688e+06	-48039.1	955.818	-29764.3	0.000000	0.000000	6.346875	-0.007966	NaN	0.000000	0.001701	0.001708	28.0801	0.010670	0.001983	5.381370	46.7446	-163.341	0.000776	0.345538	-0.698819	-0.700110	-0.007966	5.381370	-0.697709	-1.820698E+9	4.375306E-12	NaN
188	1.000000	0.354825	7.36688e+06	-48039.1	955.819	-29764.3	0.000000	0.000000	6.354869	-0.064248	NaN	0.000000	0.001660	0.001724	28.0805	0.023223	0.002083	11.1495	-168.008	-165.944	-0.040203	0.353563	-0.690823	-0.692085	-0.064248	11.1495	-0.686501	-1.279647E+9	5.020787E-11	NaN
188	1.000000	0.362817	7.36688e+06	-48039.1	955.819	-29764.3	0.000000	0.000000	6.362864	-0.009129	NaN	0.000000	0.001650	0.001723	28.0803	0.072684	0.001948	37.3197	162.702	-165.373	0.004648	0.361562	-0.682830	-0.684086	-0.009129	37.3197	-0.682647	-1.133443E+9	8.054358E-12	NaN
188	1.000000	0.370841	7.36688e+06	-48039.1	955.818	-29764.3	0.000000	0.000000	6.370885	-0.083734	NaN	0.000000	0.001663	0.001646	28.0802	0.050979	0.001956	26.0574	-16.9502	-162.637	-0.109408	0.369577	-0.674806	-0.676071	-0.083734	26.0574	-0.672396	-8.206968E+8	1.020275E-10	NaN
188	1.000000	0.378839	7.36688e+06	-48039.1	955.819	-29764.3	0.000000	0.000000	6.378886	-0.010643	NaN	0.000000	0.001687	0.001693	28.0802	0.072673	0.001901	38.2285	50.272	-164.88	-0.010725	0.377515	-0.666809	-0.668133	-0.010643	38.2285	-0.666600	-6.836683E+8	1.556774E-11	NaN
188	1.000000	0.386879	7.36688e+06	-48039.1	955.818	-29764.3	0.000000	0.000000	6.386925	-0.030558	NaN	0.000000	0.001648	0.001651	28.0802	0.036964	0.001995	18.5309	-71.6758	-165.246	-0.008147	0.385545	-0.658769	-0.660103	-0.030558	18.5309	-0.657532	-5.136403E+8	5.949256E-11	NaN
188	1.000000	0.394868	7.36688e+06	-48039.1	955.818	-29764.3	0.000000	0.000000	6.394915	-0.010216	NaN	0.000000	0.001653	0.001685	28.0801	0.069845	0.002041	34.2246	-17.044	-165.689	-0.005524	0.393554	-0.650779	-0.652094	-0.010216	34.2246	-0.650555	-4.121465E+8	2.478809E-11	NaN
188	1.000000	0.402874	7.36688e+06	-48039.1	955.819	-29764.3	0.000000	0.000000	6.402922	0.028469	NaN	0.000000	0.001666	0.001697	28.0801	0.031413	0.001951	16.0972	35.6114	-163.694	0.082194	0.401531	-0.642774	-0.644117	0.028469	16.0972	-0.644100	-3.361535E+8	-8.468901E-11	NaN
188	1.000000	0.410864	7.36688e+06	-48039.1	955.818	-29764.3	0.000000	0.000000	6.410911	-0.009550	NaN	0.000000	0.001652	0.001667	28.0801	0.110886	0.002036	54.4716	-175.933	-168.356	-0.077669	0.409564	-0.634783	-0.636084	-0.009550	54.4716	-0.634652	-2.493980E+8	3.829059E-11	NaN
188	1.000000	0.418848	7.36688e+06	-48039.1	955.819	-29764.3	0.000000	0.000000	6.418892	-0.069320	NaN	0.000000	0.001638	0.001685	28.0802	0.027950	0.001949	14.3408	125.075	-163.749	-0.072892	0.417556	-0.626800	-0.628091	-0.069320	14.3408	-0.623174	-1.734838E+8	3.995744E-10	NaN
188	1.000000	0.426886	7.36688e+06	-48039.1	955.819	-29764.3	0.000000	0.000000	6.426933	0.007819	NaN	0.000000	0.001618	0.001693	28.079	0.087273	0.002062	42.3145	127.686	-163.584	0.006623	0.425567	-0.618762	-0.620080	0.007819	42.3145	-0.618900	-1.515367E+8	-5.160105E-11	NaN
188	1.000000	0.434872	7.36688e+06	-48039.1	955.817	-29764.3	0.000000	0.000000	6.434922	0.062235	NaN	0.000000	0.001655	0.001709	28.0788	0.084469	0.002114	39.9596	-56.9982	-167.344	0.066274	0.433545	-0.610775	-0.612102	0.062235	39.9596	-0.611944	-1.215771E+8	-5.119007E-10	NaN
188	1.000000	0.442879	7.36688e+06	-48039.1	955.819	-29764.3	0.000000	0.000000	6.442925	-0.006866	NaN	0.000000	0.001629	0.001667	28.0793	0.071243	0.002063	34.526	72.4892	-164.85	-0.034923	0.441602	-0.602769	-0.604045	-0.006866	34.526	-0.602620	-9.047705E+7	7.588578E-11	NaN
188	1.000000	0.450871	7.36688e+06	-48039.1	955.817	-29764.3	0.000000	0.000000	6.450917	-0.021958	NaN	0.000000	0.001633	0.001670	28.0792	0.053647	0.002019	26.5723	172.471	-162.822	0.025889	0.449571	-0.594777	-0.596077	-0.021958	26.5723	-0.594157	-6.917797E+7	3.174088E-10	NaN
188	1.000000	0.458841	7.36688e+06	-48039.1	955.818	-29764.3	0.000000	0.000000	6.458888	-0.001749	NaN	0.000000	0.001624	0.001665	28.0788	0.048492	0.002019	24.0167	15.575	-165.339	-0.002068	0.457579	-0.586806	-0.588069	-0.001749	24.0167	-0.586752	-5.468579E+7	3.198350E-11	NaN
188	1.000000	0.466874	7.36688e+06	-48039.1	955.819	-29764.3	0.000000	0.000000	6.466923	0.046812	NaN	0.000000	0.001658	0.001669	28.079	0.118314	0.001977	59.8412	136.57	-166.501	0.094004	0.465551	-0.578774	-0.580097	0.046812	59.8412	-0.579360	-4.324103E+7	-1.082574E-9	NaN
188	1.000000	0.474857	7.36688e+06	-48039.1	955.818	-29764.3	0.000000	0.000000	6.474904	0.014807	NaN	0.000000	0.001663	0.001665	28.079	0.089118	0.001998	44.6131	-174.989	-166.004	0.019267	0.473637	-0.570791	-0.572010	0.014807	44.6131	-0.571040	-3.318934E+7	-4.461405E-10	NaN
188	1.000000	0.482859	7.36688e+06	-48039.1	955.818	-29764.3	0.000000	0.000000	6.482909	0.080106	NaN	0.000000	0.001670	0.001700	28.0792	0.148437	0.002012	73.7778	42.3244	-162.713	0.066307	0.481594	-0.562789	-0.564054	0.080106	73.7778	-0.563603	-2.619481E+7	-3.058102E-9	NaN
188	1.000000	0.490842	7.36688e+06	-48039.1	955.818	-29764.3	0.000000	0.000000	6.490890	0.017278	NaN	0.000000	0.001662	0.001697	28.079	0.066013	0.002046	32.2603	1.436113	-167.845	-0.032405	0.489590	-0.554806	-0.556058	0.017278	32.2603	-0.555207	-2.004744E+7	-8.618504E-10	NaN
188	1.000000	0.498885	7.36688e+06	-48039.1	955.818	-29764.3	0.000000	0.000000	6.498931	-0.029079	NaN	0.000000	0.001658	0.001698	28.079	0.035506	0.002043	17.3762	163.227	-165.439	0.010993	0.497585	-0.546762	-0.548062	-0.029079	17.3762	-0.545507	-1.471324E+7	1.976352E-9	NaN
188	1.000000	0.506891	7.36688e+06	-48039.1	955.818	-29764.3	0.000000	0.000000	6.506941	0.059484	NaN	0.000000	0.001618	0.001722	28.0789	0.001063	0.002018	0.526720	161.375	-164.922	-0.024233	0.505569	-0.538756	-0.540078	0.059484	0.526720	-0.623457	-1.750402E+8	-3.398328E-10	NaN
188	1.000000	0.514907	7.36688e+06	-48039.1	955.818	-29764.3	0.000000	0.000000	6.514956	0.062545	NaN	0.000000	0.001662	0.001716	28.0789	0.102718	0.001941	52.9162	-154.686	-165.732	0.027913	0.513577	-0.530741	-0.532071	0.062545	52.9162	-0.531627	-9.4444e+06	-6.622455E-9	NaN
188	1.000000	0.522883	7.36688e+06	-48039.1	955.819	-29764.3	0.000000	0.000000	6.522933	0.072619	NaN	0.000000	0.001647	0.001668	28.079	0.056643	0.001930	29.355	178.471	-162.494	0.109800	0.521547	-0.522764	-0.524101	0.072619	29.355	-0.524620	-7.54791e+06	-9.621085E-9	NaN
188	1.000000	0.530891	7.36688e+06	-48039.1	955.818	-29764.3	0.000000	0.000000	6.530938	0.006501	NaN	0.000000	0.001655	0.001630	28.079	0.131952	0.002061	64.0325	65.4861	-162.316	-0.017442	0.529601	-0.514757	-0.516047	0.006501	64.0325	-0.514833	-5.51706e+06	-1.178265E-9	NaN
188	1.000000	0.538865	7.36688e+06	-48039.1	955.818	-29764.3	0.000000	0.000000	6.538909	-0.072281	NaN	0.000000	0.001657	0.001641	28.0794	0.101079	0.001962	51.5057	-3.007376	-165.016	0.017772	0.537592	-0.506782	-0.508055	-0.072281	51.5057	-0.505730	-4.12017e+06	1.754331E-8	NaN
188	1.000000	0.546922	7.36688e+06	-48039.1	955.818	-29764.3	0.000000	0.000000	6.546970	0.024394	NaN	0.000000	0.001675	0.001654	28.0793	0.131271	0.002001	65.6074	-108.801	-164.629	0.009599	0.545580	-0.498726	-0.500067	0.024394	65.6074	-0.499005	-3.31994e+06	-7.347753E-9	NaN
188	1.000000	0.554913	7.36688e+06	-48039.1	955.818	-29764.3	0.000000	0.000000	6.554960	-0.005166	NaN	0.000000	0.001684	0.001680	28.0788	0.066247	0.002070	31.9963	118.094	-164.525	-0.120635	0.553555	-0.490734	-0.492093	-0.005166	31.9963	-0.490613	-2.5349e+06	2.037897E-9	NaN
188	1.000000	0.562935	7.36688e+06	-48039.1	955.819	-29764.3	0.000000	0.000000	6.562982	-0.004749	NaN	0.000000	0.001689	0.001669	28.0797	0.138958	0.001955	71.0607	-78.7444	-164.92	0.050034	0.561631	-0.482713	-0.484016	-0.004749	71.0607	-0.482663	-1.96243e+06	2.420011E-9	NaN
188	1.000000	0.570933	7.36688e+06	-48039.1	955.818	-29764.3	0.000000	0.000000	6.570977	-0.080764	NaN	0.000000	0.001651	0.001705	28.0798	0.056184	0.002052	27.383	-145.286	-163.8	-0.023125	0.569593	-0.474715	-0.476054	-0.080764	27.383	-0.472502	-1.41415e+06	5.711116E-8	NaN
188	1.000000	0.578951	7.36688e+06	-48039.1	955.818	-29764.3	0.000000	0.000000	6.578999	0.007049	NaN	0.000000	0.001640	0.001660	28.0797	0.030103	0.001976	15.2312	52.8093	-163.151	-0.042519	0.577700	-0.466696	-0.467947	0.007049	15.2312	-0.467043	-1.18557e+06	-5.945238E-9	NaN
188	1.000000	0.586951	7.36688e+06	-48039.1	955.818	-29764.3	0.000000	0.000000	6.586996	-0.043226	NaN	0.000000	0.001665	0.001665	28.0804	0.144124	0.002061	69.9453	-51.9929	-165.812	0.014358	0.585621	-0.458697	-0.460027	-0.043226	69.9453	-0.458234	-891641	4.847892E-8	NaN
188	1.000000	0.594906	7.36688e+06	-48039.1	955.818	-29764.3	0.000000	0.000000	6.594954	0.030114	NaN	0.000000	0.001691	0.001653	28.0802	0.070694	0.001841	38.4008	-107.854	-165.203	0.047922	0.593556	-0.450742	-0.452091	0.030114	38.4008	-0.451330	-712960	-4.223775E-8	NaN
188	1.000000	0.602936	7.36688e+06	-48039.1	955.818	-29764.3	0.000000	0.000000	6.602985	0.040069	NaN	0.000000	0.001631	0.001657	28.0798	0.119415	0.001982	60.2453	10.4836	-162.512	0.121039	0.601577	-0.442711	-0.444070	0.040069	60.2453	-0.443210	-547838	-7.313940E-8	NaN
188	1.000000	0.610942	7.36688e+06	-48039.1	955.818	-29764.3	0.000000	0.000000	6.610989	0.013941	NaN	0.000000	0.001676	0.001711	28.0799	0.047189	0.001996	23.6361	-98.354	-162.705	-0.013815	0.609653	-0.434706	-0.435994	0.013941	23.6361	-0.435148	-421549	-3.307007E-8	NaN
188	1.000000	0.618945	7.36688e+06	-48039.1	955.818	-29764.3	0.000000	0.000000	6.618992	-0.001041	NaN	0.000000	0.001670	0.001699	28.0795	0.001507	0.002026	0.743890	84.5123	-166.383	-0.064112	0.617628	-0.426703	-0.428019	-0.001041	0.743890	-0.425653	-309412	3.363445E-9	NaN
188	1.000000	0.626967	7.36688e+06	-48039.1	955.818	-29764.3	0.000000	0.000000	6.627015	0.009621	NaN	0.000000	0.001641	0.001702	28.0798	0.081042	0.002045	39.6222	106.87	-164.845	0.041424	0.625652	-0.418680	-0.419996	0.009621	39.6222	-0.418863	-247902	-3.881118E-8	NaN
188	1.000000	0.634946	7.36688e+06	-48039.1	955.818	-29764.3	0.000000	0.000000	6.634993	-0.007049	NaN	0.000000	0.001617	0.001687	28.0808	0.071803	0.002003	35.8458	-109.092	-163.232	0.075401	0.633647	-0.410702	-0.412000	-0.007049	35.8458	-0.410554	-188922	3.731310E-8	NaN
188	1.000000	0.642948	7.36688e+06	-48039.1	955.818	-29764.3	0.000000	0.000000	6.642994	-0.035793	NaN	0.000000	0.001662	0.001751	28.0798	0.041891	0.001936	21.6351	-43.331	-167.618	0.001726	0.641641	-0.402699	-0.404006	-0.035793	21.6351	-0.401459	-140213	2.552717E-7	NaN
188	1.000000	0.650960	7.36688e+06	-48039.1	955.819	-29764.3	0.000000	0.000000	6.651010	0.069080	NaN	0.000000	0.001626	0.001686	28.0802	0.095756	0.001969	48.6403	-26.5985	-165.241	0.006570	0.649673	-0.394688	-0.395975	0.069080	48.6403	-0.395753	-116249	-5.942477E-7	NaN
188	1.000000	0.658971	7.36688e+06	-48039.1	955.817	-29764.3	0.000000	0.000000	6.659020	0.055140	NaN	0.000000	0.001641	0.001687	28.08	0.048403	0.002062	23.4723	-159.83	-163.679	0.018122	0.657621	-0.386677	-0.388027	0.055140	23.4723	-0.388439	-91374.6	-6.034491E-7	NaN
188	1.000000	0.666983	7.36688e+06	-48039.1	955.818	-29764.3	0.000000	0.000000	6.667030	0.014795	NaN	0.000000	0.001658	0.001701	28.0798	0.039674	0.002009	19.749	144.739	-164.873	-0.045552	0.665711	-0.378665	-0.379937	0.014795	19.749	-0.379227	-67420.3	-2.194393E-7	NaN
188	1.000000	0.674950	7.36688e+06	-48039.1	955.818	-29764.3	0.000000	0.000000	6.674996	-0.023984	NaN	0.000000	0.001670	0.001703	28.0801	0.075762	0.002029	37.336	-130.752	-164.411	-0.012330	0.673632	-0.370697	-0.372015	-0.023984	37.336	-0.370215	-50029.9	4.793949E-7	NaN
188	1.000000	0.682972	7.36688e+06	-48039.1	955.818	-29764.3	0.000000	0.000000	6.683019	0.013170	NaN	0.000000	0.001666	0.001683	28.08	0.116973	0.002060	56.7801	-115.921	-163.81	0.024997	0.681679	-0.362676	-0.363968	0.013170	56.7801	-0.362850	-39176	-3.361706E-7	NaN
188	1.000000	0.690954	7.36688e+06	-48039.1	955.819	-29764.3	0.000000	0.000000	6.691001	-0.012120	NaN	0.000000	0.001647	0.001713	28.0801	0.041625	0.002009	20.7215	-87.5041	-161.534	-0.071449	0.689663	-0.354693	-0.355984	-0.012120	20.7215	-0.354255	-29423.9	4.119205E-7	NaN
188	1.000000	0.698966	7.36688e+06	-48039.1	955.818	-29764.3	0.000000	0.000000	6.699014	0.019921	NaN	0.000000	0.001657	0.001749	28.0786	0.107806	0.002096	51.4277	-30.744	-163.487	0.029614	0.697669	-0.346681	-0.347979	0.019921	51.4277	-0.346972	-23068.7	-8.635379E-7	NaN
188	1.000000	0.706993	7.36688e+06	-48039.1	955.818	-29764.3	0.000000	0.000000	6.707038	-0.056816	NaN	0.000000	0.001649	0.001730	28.0786	0.088834	0.002025	43.8656	-25.1231	-165.306	0.011248	0.705652	-0.338655	-0.339996	-0.056816	43.8656	-0.337683	-16895.3	3.362851E-6	NaN
188	1.000000	0.715003	7.36688e+06	-48039.1	955.819	-29764.3	0.000000	0.000000	6.715050	-0.008393	NaN	0.000000	0.001628	0.001727	28.079	0.068453	0.001913	35.774	-100.47	-165.681	-0.005446	0.713666	-0.330645	-0.331982	-0.008393	35.774	-0.330469	-13253	6.332784E-7	NaN
188	1.000000	0.722983	7.36688e+06	-48039.1	955.817	-29764.3	0.000000	0.000000	6.723029	-0.027207	NaN	0.000000	0.001671	0.001752	28.0792	0.018994	0.001982	9.584552	81.3074	-166.262	-0.050255	0.721678	-0.322665	-0.323970	-0.027207	9.584552	-0.320536	-9473.79	2.871787E-6	NaN
188	1.000000	0.730994	7.36688e+06	-48039.1	955.818	-29764.3	0.000000	0.000000	6.731045	0.095658	NaN	0.000000	0.001635	0.001695	28.0791	0.069362	0.002018	34.3703	-4.695780	-165.701	0.081715	0.729673	-0.314654	-0.315975	0.095658	34.3703	-0.316741	-8329.69	-1.148395E-5	NaN
188	1.000000	0.739005	7.36688e+06	-48039.1	955.818	-29764.3	0.000000	0.000000	6.739052	0.018410	NaN	0.000000	0.001624	0.001665	28.0787	0.018065	0.001884	9.590866	165.669	-167.61	0.038697	0.737686	-0.306643	-0.307961	0.018410	9.590866	-0.308083	-6203.89	-2.967463E-6	NaN
188	1.000000	0.746995	7.36688e+06	-48039.1	955.819	-29764.3	0.000000	0.000000	6.747042	-0.001471	NaN	0.000000	0.001654	0.001665	28.0788	0.015319	0.002078	7.373568	-1.077315	-165.165	-0.064743	0.745720	-0.298652	-0.299927	-0.001471	7.373568	-0.298503	-4470.28	3.289716E-7	NaN
188	1.000000	0.755002	7.36688e+06	-48039.1	955.818	-29764.3	0.000000	0.000000	6.755050	0.024720	NaN	0.000000	0.001673	0.001717	28.0787	0.077979	0.002076	37.556	84.6084	-164.603	0.007666	0.753657	-0.290646	-0.291990	0.024720	37.556	-0.291139	-3470.29	-7.123210E-6	NaN
188	1.000000	0.762989	7.36688e+06	-48039.1	955.818	-29764.3	0.000000	0.000000	6.763035	-0.036591	NaN	0.000000	0.001659	0.001717	28.0788	0.052893	0.001996	26.5033	-66.1154	-166.668	0.055968	0.761704	-0.282658	-0.283944	-0.036591	26.5033	-0.281623	-2497.11	1.465347E-5	NaN
188	1.000000	0.770998	7.36688e+06	-48039.1	955.818	-29764.3	0.000000	0.000000	6.771042	-0.077372	NaN	0.000000	0.001638	0.001698	28.0789	0.086693	0.001993	43.4897	-82.3377	-165.678	-0.037294	0.769738	-0.274650	-0.275910	-0.077372	43.4897	-0.273316	-1870.15	4.137216E-5	NaN
188	1.000000	0.779004	7.36688e+06	-48039.1	955.819	-29764.3	0.000000	0.000000	6.779049	-0.046803	NaN	0.000000	0.001666	0.001732	28.0787	0.140608	0.002028	69.3436	-155.34	-165.508	-0.036836	0.777732	-0.266643	-0.267916	-0.046803	69.3436	-0.266137	-1454.57	3.217676E-5	NaN
188	1.000000	0.787030	7.36688e+06	-48039.1	955.819	-29764.3	0.000000	0.000000	6.787075	-0.054729	NaN	0.000000	0.001666	0.001705	28.0788	0.030441	0.001996	15.2478	6.395628	-162.898	-0.055282	0.785688	-0.258617	-0.259960	-0.054729	15.2478	-0.255925	-1014.73	5.393441E-5	NaN
188	1.000000	0.795039	7.36688e+06	-48039.1	955.817	-29764.3	0.000000	0.000000	6.795086	0.010110	NaN	0.000000	0.001656	0.001702	28.0789	0.036511	0.001929	18.9278	5.609767	-162.432	0.038075	0.793701	-0.250609	-0.251946	0.010110	18.9278	-0.251010	-852.265	-1.186306E-5	NaN
188	1.000000	0.803010	7.36688e+06	-48039.1	955.818	-29764.3	0.000000	0.000000	6.803057	0.004545	NaN	0.000000	0.001680	0.001714	28.0789	0.060262	0.001976	30.4953	130.637	-167.27	-0.003169	0.801718	-0.242638	-0.243929	0.004545	30.4953	-0.242749	-634.505	-7.163571E-6	NaN
188	1.000000	0.811013	7.36688e+06	-48039.1	955.818	-29764.3	0.000000	0.000000	6.811063	0.053616	NaN	0.000000	0.001678	0.001705	28.0789	0.080951	0.001958	41.3401	-37.9346	-168.436	0.073311	0.809722	-0.234634	-0.235925	0.053616	41.3401	-0.235607	-490.655	-0.000109	NaN
188	1.000000	0.819017	7.36688e+06	-48039.1	955.818	-29764.3	0.000000	0.000000	6.819063	-0.022034	NaN	0.000000	0.001676	0.001680	28.0789	0.024201	0.002113	11.4543	-117.208	-163.887	-0.048546	0.817748	-0.226631	-0.227900	-0.022034	11.4543	-0.225188	-335.988	6.557935E-5	NaN
188	1.000000	0.827009	7.36688e+06	-48039.1	955.818	-29764.3	0.000000	0.000000	6.827061	0.117112	NaN	0.000000	0.001680	0.001707	28.0788	0.086009	0.001956	43.9785	162.688	-163.719	0.143963	0.825727	-0.218638	-0.219921	0.117112	43.9785	-0.220636	-284.334	-0.000412	NaN
188	1.000000	0.835062	7.36688e+06	-48039.1	955.819	-29764.3	0.000000	0.000000	6.835112	0.084650	NaN	0.000000	0.001669	0.001673	28.0801	0.047465	0.002076	22.8606	-106.069	-165.184	0.073348	0.833715	-0.210586	-0.211933	0.084650	22.8606	-0.213363	-217.349	-0.000389	NaN
188	1.000000	0.843031	7.36688e+06	-48039.1	955.818	-29764.3	0.000000	0.000000	6.843074	-0.095700	NaN	0.000000	0.001646	0.001684	28.0799	0.080495	0.001991	40.4205	-169.743	-163.851	-0.045333	0.841704	-0.202617	-0.203944	-0.095700	40.4205	-0.200841	-135.993	0.000704	NaN
188	1.000000	0.851021	7.36688e+06	-48039.1	955.818	-29764.3	0.000000	0.000000	6.851067	-0.029783	NaN	0.000000	0.001694	0.001665	28.0802	0.094897	0.001975	48.0467	-121.022	-165.169	-0.098253	0.849752	-0.194627	-0.195896	-0.029783	48.0467	-0.194162	-105.514	0.000282	NaN
188	1.000000	0.859043	7.36688e+06	-48039.1	955.819	-29764.3	0.000000	0.000000	6.859091	0.016995	NaN	0.000000	0.001689	0.001695	28.0803	0.101702	0.001951	52.1176	94.3295	-163.456	-0.010373	0.857691	-0.186604	-0.187956	0.016995	52.1176	-0.186849	-79.6606	-0.000213	NaN
188	1.000000	0.867011	7.36688e+06	-48039.1	955.819	-29764.3	0.000000	0.000000	6.867060	0.037017	NaN	0.000000	0.001707	0.001701	28.0801	0.052014	0.001927	26.9955	95.9947	-166.904	0.030019	0.865694	-0.178636	-0.179953	0.037017	26.9955	-0.179665	-60.2227	-0.000615	NaN
188	1.000000	0.875018	7.36688e+06	-48039.1	955.819	-29764.3	0.000000	0.000000	6.875066	0.024644	NaN	0.000000	0.001658	0.001706	28.0801	0.079257	0.002074	38.2087	-55.8099	-165.154	-0.050223	0.873738	-0.170629	-0.171910	0.024644	38.2087	-0.171113	-42.9457	-0.000574	NaN
188	1.000000	0.883068	7.36688e+06	-48039.1	955.817	-29764.3	0.000000	0.000000	6.883119	0.077476	NaN	0.000000	0.001705	0.001710	28.0799	0.060041	0.002004	29.9621	-64.5267	-161.454	0.119838	0.881724	-0.162579	-0.163923	0.077476	29.9621	-0.164519	-32.9493	-0.002351	NaN
188	1.000000	0.891053	7.36688e+06	-48039.1	955.818	-29764.3	0.000000	0.000000	6.891101	0.023830	NaN	0.000000	0.001680	0.001689	28.0799	0.080336	0.001975	40.6792	92.5838	-164.981	0.066292	0.889741	-0.154595	-0.155907	0.023830	40.6792	-0.155034	-22.3457	-0.001066	NaN
188	1.000000	0.899054	7.36688e+06	-48039.1	955.819	-29764.3	0.000000	0.000000	6.899102	0.025860	NaN	0.000000	0.001657	0.001677	28.0799	0.116403	0.001934	60.189	115.123	-166.863	0.067827	0.897746	-0.146594	-0.147902	0.025860	60.189	-0.146916	-15.9044	-0.001626	NaN
188	1.000000	0.907081	7.36688e+06	-48039.1	955.819	-29764.3	0.000000	0.000000	6.907131	0.066361	NaN	0.000000	0.001678	0.001669	28.0801	0.095786	0.001987	48.215	8.129848	-166.469	0.133022	0.905724	-0.138566	-0.139924	0.066361	48.215	-0.139599	-11.6258	-0.005708	NaN
188	1.000000	0.915064	7.36688e+06	-48039.1	955.818	-29764.3	0.000000	0.000000	6.915111	-0.005261	NaN	0.000000	0.001666	0.001633	28.0801	0.054763	0.001969	27.8071	60.67	-163.106	0.021111	0.913730	-0.130584	-0.131918	-0.005261	27.8071	-0.130442	-7.772925	0.000677	NaN
188	1.000000	0.923070	7.36688e+06	-48039.1	955.819	-29764.3	0.000000	0.000000	6.923118	0.002944	NaN	0.000000	0.001689	0.001650	28.0799	0.010801	0.001892	5.709712	19.4256	-164.208	0.015921	0.921773	-0.122577	-0.123874	0.002944	5.709712	-0.122964	-5.540473	-0.000531	NaN
188	1.000000	0.931111	7.36688e+06	-48039.1	955.818	-29764.3	0.000000	0.000000	6.931156	-0.057832	NaN	0.000000	0.001672	0.001689	28.0799	0.039346	0.001892	20.7971	106.902	-165.957	0.028374	0.929798	-0.114537	-0.115850	-0.057832	20.7971	-0.112451	-3.382683	0.017096	NaN
188	1.000000	0.939073	7.36688e+06	-48039.1	955.818	-29764.3	0.000000	0.000000	6.939121	0.012442	NaN	0.000000	0.001686	0.001650	28.08	0.076562	0.002042	37.5005	-9.098585	-165.167	0.145702	0.937745	-0.106574	-0.107902	0.012442	37.5005	-0.106823	-2.572658	-0.004836	NaN
188	1.000000	0.947074	7.36688e+06	-48039.1	955.818	-29764.3	0.000000	0.000000	6.947125	0.092594	NaN	0.000000	0.001701	0.001688	28.0802	0.071612	0.001935	37.0018	-16.1373	-164.371	0.012186	0.945789	-0.098573	-0.099858	0.092594	37.0018	-0.100450	-1.869559	-0.049527	NaN
188	1.000000	0.955083	7.36688e+06	-48039.1	955.818	-29764.3	0.000000	0.000000	6.955128	-0.038950	NaN	0.000000	0.001698	0.001695	28.0798	0.102626	0.002025	50.6746	155.347	-165.257	-0.027138	0.953795	-0.090565	-0.091853	-0.038950	50.6746	-0.089988	-1.080303	0.036054	NaN
188	1.000000	0.963084	7.36688e+06	-48039.1	955.819	-29764.3	0.000000	0.000000	6.963131	0.008392	NaN	0.000000	0.001711	0.001704	28.08	0.033738	0.002000	16.8689	-2.244223	-165.874	0.000734	0.961750	-0.082564	-0.083898	0.008392	16.8689	-0.082937	-0.731842	-0.011467	NaN
188	1.000000	0.971059	7.36688e+06	-48039.1	955.818	-29764.3	0.000000	0.000000	6.971110	0.093433	NaN	0.000000	0.001688	0.001680	28.0786	0.069737	0.001949	35.7786	92.4808	-164.474	0.090019	0.969776	-0.074589	-0.075872	0.093433	35.7786	-0.076548	-0.506223	-0.184569	NaN
188	1.000000	0.979081	7.36688e+06	-48039.1	955.818	-29764.3	0.000000	0.000000	6.979126	-0.044776	NaN	0.000000	0.001653	0.001719	28.079	0.080535	0.001934	41.6441	106.711	-163.824	-0.010546	0.977804	-0.066567	-0.067844	-0.044776	41.6441	-0.065760	-0.261587	0.171172	NaN
188	1.000000	0.987089	7.36688e+06	-48039.1	955.819	-29764.3	0.000000	0.000000	6.987136	-0.012298	NaN	0.000000	0.001680	0.001711	28.079	0.093333	0.001933	48.2779	44.1835	-167.026	-0.082751	0.985831	-0.058559	-0.059817	-0.012298	48.2779	-0.058368	-0.161595	0.076103	NaN
188	1.000000	0.995085	7.36688e+06	-48039.1	955.819	-29764.3	0.000000	0.000000	6.995131	-0.026194	NaN	0.000000	0.001677	0.001727	28.0789	0.100812	0.002183	46.1845	56.9504	-161.56	0.070980	0.993832	-0.050563	-0.051815	-0.026194	46.1845	-0.050137	-0.092127	0.284319	NaN
188	1.000000	1.003088	7.36688e+06	-48039.1	955.818	-29764.3	0.000000	0.000000	7.003134	-0.040210	NaN	0.000000	0.001699	0.001658	28.0791	0.067551	0.002044	33.0487	71.0032	-165.992	-0.009374	1.001771	-0.042559	-0.043876	-0.040210	33.0487	-0.041647	-0.050756	0.792215	NaN
188	1.000000	1.011070	7.36688e+06	-48039.1	955.819	-29764.3	0.000000	0.000000	7.011117	0.007917	NaN	0.000000	0.001672	0.001646	28.079	0.122196	0.001945	62.8097	-59.8855	-163.426	0.019971	1.009781	-0.034578	-0.035866	0.007917	62.8097	-0.034672	-0.031321	-0.252760	NaN
188	1.000000	1.019132	7.36688e+06	-48039.1	955.818	-29764.3	0.000000	0.000000	7.019177	-0.053999	NaN	0.000000	0.001685	0.001699	28.0789	0.083762	0.002104	39.8013	-61.7393	-165.03	-0.035853	1.017829	-0.026515	-0.027819	-0.053999	39.8013	-0.025498	-0.017384	3.106170	NaN
188	1.000000	1.027081	7.36688e+06	-48039.1	955.818	-29764.3	0.000000	0.000000	7.027129	0.015819	NaN	0.000000	0.001678	0.001704	28.0786	0.143236	0.002006	71.3904	-152.788	-166.586	0.000720	1.025815	-0.018567	-0.019833	0.015819	71.3904	-0.018733	-0.011659	-1.356823	NaN
188	1.000000	1.035113	7.36688e+06	-48039.1	955.819	-29764.3	0.000000	0.000000	7.035160	0.014539	NaN	0.000000	0.001683	0.001701	28.0789	0.080373	0.001908	42.121	170.527	-164.524	-0.069005	1.033793	-0.010535	-0.011855	0.014539	42.121	-0.010794	-0.006841	-2.125362	NaN
188	1.000000	1.043125	7.36688e+06	-48039.1	955.818	-29764.3	0.000000	0.000000	7.043170	-0.051882	NaN	0.000000	0.001707	0.001700	28.0791	0.038526	0.002091	18.4227	-143.708	-165.326	-0.030993	1.041824	-0.002523	-0.003823	-0.051882	18.4227	-0.000411	-0.000305	170.364	NaN
188	1.000000	1.051114	7.36688e+06	-48039.1	955.819	-29764.3	0.000000	0.000000	7.051262	2.457069	NaN	0.000000	0.001689	0.001716	28.0791	2.441786	0.002031	1202.12	8.539624	-168.561	1.351186	1.049878	0.005467	0.004231	2.457069	1202.12	0.003934	0.003181	772.472	19473.9
188	2.000000	1.057644	7.36688e+06	-48039.1	955.818	-29764.3	0.000000	0.000000	7.058070	9.236338	NaN	0.000000	0.001698	0.001672	28.0788	6.688444	0.001687	3964.01	5.282901	-167.077	9.278838	1.057287	0.011996	0.011639	9.236338	3964.01	0.010248	0.009459	976.479	37238.3
188	2.000000	1.059713	7.36688e+06	-48039.1	955.819	-29764.3	0.000000	0.000000	7.060202	10.7522	NaN	0.000000	0.001676	0.001715	28.0788	8.586611	0.001745	4922.03	9.550700	-173.343	10.6932	1.059355	0.014066	0.013707	10.7522	4922.03	0.012427	0.012006	895.592	41041.5
188	2.000000	1.061631	7.36688e+06	-48039.1	955.817	-29764.3	0.000000	0.000000	7.062262	14.2095	NaN	0.000000	0.001685	0.001673	28.0788	11.0495	0.001823	6061.11	6.483322	-172.498	14.1519	1.061340	0.015983	0.015693	14.2095	6061.11	0.014225	0.014266	996.073	46364
188	2.000000	1.063602	7.36688e+06	-48039.1	955.818	-29764.3	0.000000	0.000000	7.064396	18.164	NaN	0.000000	0.001654	0.001695	28.0791	13.3377	0.001820	7328.52	8.103747	-175.076	17.7846	1.063340	0.017955	0.017693	18.164	7328.52	0.016096	0.016774	1082.85	51697.3
188	2.000000	1.065584	7.36688e+06	-48039.1	955.818	-29764.3	0.000000	0.000000	7.066473	20.4859	NaN	0.000000	0.001665	0.001673	28.0796	14.428	0.001722	8376.62	3.148154	-172.119	19.2486	1.065304	0.019936	0.019656	20.4859	8376.62	0.018102	0.019647	1042.68	54599.8
188	2.000000	1.067555	7.36688e+06	-48039.1	955.817	-29764.3	0.000000	0.000000	7.068454	20.7242	NaN	0.000000	0.001675	0.001653	28.079	16.5701	0.001762	9402.87	5.838526	-174.464	19.5884	1.067350	0.021907	0.021703	20.7242	9402.87	0.020254	0.022943	903.272	56715.9
188	2.000000	1.069596	7.36688e+06	-48039.1	955.818	-29764.3	0.000000	0.000000	7.070710	25.9632	NaN	0.000000	0.001670	0.001697	28.0798	19.5731	0.002010	9739.45	9.779039	-176.788	25.8971	1.069303	0.023948	0.023655	25.9632	9739.45	0.021949	0.025698	1010.33	55508.5
188	2.000000	1.071572	7.36688e+06	-48039.1	955.817	-29764.3	0.000000	0.000000	7.072773	28.0569	NaN	0.000000	0.001689	0.001699	28.0801	20.6643	0.001749	11811.7	7.288261	-176.786	26.7629	1.071291	0.025925	0.025643	28.0569	11811.7	0.024143	0.029475	951.873	62857
188	2.000000	1.073584	7.36688e+06	-48039.1	955.818	-29764.3	0.000000	0.000000	7.074906	31.0082	NaN	0.000000	0.001710	0.001707	28.0801	23.1147	0.001870	12359.1	9.011344	-179.522	31.2823	1.073318	0.027936	0.027670	31.0082	12359.1	0.026055	0.032962	940.716	62194.3
188	2.000000	1.075556	7.36688e+06	-48039.1	955.818	-29764.3	0.000000	0.000000	7.077194	38.6901	NaN	0.000000	0.001672	0.001711	28.0803	24.5298	0.001723	14235.5	9.218125	177.797	37.5605	1.075243	0.029908	0.029595	38.6901	14235.5	0.027870	0.036444	1061.62	68128.5
188	2.000000	1.077555	7.36688e+06	-48039.1	955.818	-29764.3	0.000000	0.000000	7.079276	40.7034	NaN	0.000000	0.001674	0.001731	28.0803	26.7751	0.001833	14604.5	4.822144	-177.514	40.189	1.077295	0.031908	0.031647	40.7034	14604.5	0.029818	0.040366	1008.35	66412.4
188	2.000000	1.079624	7.36688e+06	-48039.1	955.818	-29764.3	0.000000	0.000000	7.081512	44.7851	NaN	0.000000	0.001658	0.001698	28.0803	28.0393	0.001898	14774.9	4.027827	-174.751	45.3678	1.079250	0.033976	0.033603	44.7851	14774.9	0.031703	0.044347	1009.88	64100.9
188	2.000000	1.081580	7.36688e+06	-48039.1	955.818	-29764.3	0.000000	0.000000	7.083684	50.0249	NaN	0.000000	0.001675	0.001679	28.0801	30.1088	0.001761	17098.1	7.473130	178.842	49.8711	1.081276	0.035932	0.035629	50.0249	17098.1	0.033738	0.048848	1024.09	70680.1
188	2.000000	1.083583	7.36688e+06	-48039.1	955.819	-29764.3	0.000000	0.000000	7.085770	52.0503	NaN	0.000000	0.001668	0.001691	28.08	31.1485	0.001732	17989.3	5.557070	-179.11	52.9581	1.083245	0.037935	0.037598	52.0503	17989.3	0.035765	0.053543	972.117	71029
188	2.000000	1.085549	7.36689e+06	-48039.1	955.817	-29764.3	0.000000	0.000000	7.088179	62.8314	NaN	0.000000	0.001679	0.001659	28.0801	33.0419	0.001793	18423.8	6.273941	-179.79	61.7086	1.085162	0.039901	0.039514	62.8314	18423.8	0.037343	0.057343	1095.71	70293
188	2.000000	1.087544	7.36689e+06	-48039.1	955.817	-29764.3	0.000000	0.000000	7.090146	62.1277	NaN	0.000000	0.001684	0.001650	28.0801	35.5866	0.001834	19407.4	6.299922	179.352	62.268	1.087159	0.041897	0.041511	62.1277	19407.4	0.039496	0.062731	990.377	70794.4
188	2.000000	1.089672	7.36689e+06	-48039.1	955.819	-29764.3	0.000000	0.000000	7.092467	66.8539	NaN	0.000000	0.001669	0.001645	28.0803	37.6029	0.001805	20831.9	8.422055	177.057	71.2087	1.089249	0.044024	0.043602	66.8539	20831.9	0.041617	0.068274	979.194	72840.5
188	2.000000	1.091511	7.36689e+06	-48039.1	955.817	-29764.3	0.000000	0.000000	7.094685	76.0452	NaN	0.000000	0.001682	0.001734	28.0802	38.9545	0.001825	21339.8	2.925083	-178.011	74.1672	1.091159	0.045863	0.045511	76.0452	21339.8	0.043191	0.072534	1048.41	72392.1
188	2.000000	1.093578	7.36689e+06	-48039.1	955.819	-29764.3	0.000000	0.000000	7.097048	83.2397	NaN	0.000000	0.001685	0.001739	28.08	40.9972	0.001782	23010.8	2.869409	-179.111	86.7678	1.093281	0.047931	0.047633	83.2397	23010.8	0.045218	0.078207	1064.36	75176.7
188	2.000000	1.095482	7.36689e+06	-48039.1	955.819	-29764.3	0.000000	0.000000	7.099404	94.2461	NaN	0.000000	0.001683	0.001720	28.0806	41.4979	0.001687	24591.5	4.741622	178.238	91.7729	1.095197	0.049834	0.049550	94.2461	24591.5	0.046960	0.083249	1132.1	77869.8
188	2.000000	1.097564	7.36689e+06	-48039.1	955.819	-29764.3	0.000000	0.000000	7.101518	95.0158	NaN	0.000000	0.001664	0.001745	28.08	44.6818	0.001729	25835.3	9.356806	174.667	95.9961	1.097137	0.051916	0.051490	95.0158	25835.3	0.049158	0.089828	1057.75	78755.2
188	2.000000	1.099584	7.36689e+06	-48039.1	955.818	-29764.3	0.000000	0.000000	7.103896	103.738	NaN	0.000000	0.001681	0.001774	28.0803	46.9141	0.001902	24666.9	6.563398	177.819	103.75	1.099150	0.053936	0.053503	103.738	24666.9	0.050782	0.094845	1093.77	73177.9
188	2.000000	1.101426	7.36689e+06	-48039.1	955.818	-29764.3	0.000000	0.000000	7.105853	106.51	NaN	0.000000	0.001675	0.001766	28.0804	49.1796	0.001900	25879.9	6.504392	176.492	102.692	1.101180	0.055779	0.055532	106.51	25879.9	0.052692	0.100916	1055.43	74431.3
188	2.000000	1.103589	7.36689e+06	-48039.1	955.819	-29764.3	0.000000	0.000000	7.108075	107.953	NaN	0.000000	0.001651	0.001754	28.0792	51.2036	0.001795	28532.8	4.165281	178.212	112.581	1.103260	0.057942	0.057612	107.953	28532.8	0.055104	0.108840	991.854	79017.5
188	2.000000	1.105483	7.36689e+06	-48039.1	955.818	-29764.3	0.000000	0.000000	7.110628	124.007	NaN	0.000000	0.001667	0.001757	28.0795	52.2215	0.001826	28591.4	5.279911	176.641	122.035	1.105172	0.059835	0.059525	124.007	28591.4	0.056582	0.113838	1089.33	77421.9
188	2.000000	1.107572	7.36689e+06	-48039.1	955.818	-29764.3	0.000000	0.000000	7.113000	130.864	NaN	0.000000	0.001642	0.001746	28.0788	54.2357	0.001702	31872.2	3.649212	177.08	132.715	1.107219	0.061925	0.061571	130.864	31872.2	0.058845	0.121701	1075.3	83471.5
188	2.000000	1.109543	7.36689e+06	-48039.1	955.818	-29764.3	0.000000	0.000000	7.115386	140.993	NaN	0.000000	0.001656	0.001721	28.0791	56.806	0.001803	31502.9	7.272590	174.114	142.723	1.109197	0.063895	0.063549	140.993	31502.9	0.060538	0.127746	1103.7	80528.7
188	2.000000	1.111481	7.36689e+06	-48039.1	955.818	-29764.3	0.000000	0.000000	7.117795	152.414	NaN	0.000000	0.001698	0.001717	28.079	58.4772	0.001842	31740.3	6.787198	174.084	150.576	1.111130	0.065834	0.065482	152.414	31740.3	0.062232	0.133934	1137.98	79238.9
188	2.000000	1.113485	7.36689e+06	-48039.1	955.818	-29764.3	0.000000	0.000000	7.120170	161.441	NaN	0.000000	0.001667	0.001727	28.0789	60.4096	0.001890	31962.8	4.734457	176.543	159.503	1.113108	0.067838	0.067460	161.441	31962.8	0.064049	0.140728	1147.19	77844.6
188	2.000000	1.115468	7.36689e+06	-48039.1	955.818	-29764.3	0.000000	0.000000	7.122646	173.442	NaN	0.000000	0.001686	0.001720	28.0794	61.828	0.001775	34836.1	8.560080	171.893	171.414	1.115092	0.069820	0.069445	173.442	34836.1	0.066086	0.148533	1167.7	82583
188	2.000000	1.117496	7.36689e+06	-48039.1	955.819	-29764.3	0.000000	0.000000	7.124981	180.925	NaN	0.000000	0.001653	0.001749	28.0787	64.3567	0.001852	34752.3	7.196823	173.154	179.215	1.117193	0.071848	0.071546	180.925	34752.3	0.067943	0.155823	1161.1	80434.3
188	2.000000	1.119514	7.36689e+06	-48039.1	955.819	-29764.3	0.000000	0.000000	7.127296	188.135	NaN	0.000000	0.001665	0.001747	28.079	65.9181	0.001740	37879.5	6.317982	173.067	186.744	1.119190	0.073867	0.073542	188.135	37879.5	0.070142	0.164665	1142.53	85285.7
188	2.000000	1.121431	7.36689e+06	-48039.1	955.819	-29764.3	0.000000	0.000000	7.129634	198.388	NaN	0.000000	0.001672	0.001737	28.0787	67.0368	0.001791	37429.6	6.575087	172.952	194.71	1.121181	0.075783	0.075533	198.388	37429.6	0.071808	0.171520	1156.65	82571.6
188	2.000000	1.123504	7.36689e+06	-48039.1	955.818	-29764.3	0.000000	0.000000	7.132101	207.968	NaN	0.000000	0.001661	0.001713	28.0788	69.9623	0.001893	36966.8	3.678397	175.729	207.356	1.123270	0.077856	0.077623	207.968	36966.8	0.073637	0.179196	1160.56	79784.9
188	2.000000	1.125456	7.36689e+06	-48039.1	955.818	-29764.3	0.000000	0.000000	7.134559	220.257	NaN	0.000000	0.001656	0.001724	28.0792	70.5683	0.001798	39244.8	6.393186	172.75	216.191	1.125142	0.079809	0.079494	220.257	39244.8	0.075599	0.187608	1174.03	82780.7
188	2.000000	1.127416	7.36689e+06	-48039.1	955.818	-29764.3	0.000000	0.000000	7.136912	229.822	NaN	0.000000	0.001648	0.001706	28.0788	72.8978	0.001746	41739.6	4.621686	174.361	225.942	1.127156	0.081768	0.081509	229.822	41739.6	0.077638	0.196540	1169.34	86019.4
188	2.000000	1.129550	7.36689e+06	-48039.1	955.817	-29764.3	0.000000	0.000000	7.139454	239.743	NaN	0.000000	0.001650	0.001736	28.0791	74.7683	0.001861	40180.4	7.227495	173.329	240.193	1.129031	0.083902	0.083383	239.743	40180.4	0.079427	0.204538	1172.12	81171
188	2.000000	1.131402	7.36689e+06	-48039.1	955.817	-29764.3	0.000000	0.000000	7.141714	249.682	NaN	0.000000	0.001622	0.001724	28.0787	77.1383	0.001888	40867.7	4.575137	174.276	245.565	1.131213	0.085754	0.085566	249.682	40867.7	0.081172	0.212480	1175.09	81001.7
188	2.000000	1.133496	7.36689e+06	-48039.1	955.819	-29764.3	0.000000	0.000000	7.144478	265.979	NaN	0.000000	0.001633	0.001701	28.0786	78.5658	0.001709	45976.7	5.642681	172.927	266.539	1.133090	0.087848	0.087442	265.979	45976.7	0.083509	0.223342	1190.91	88884.6
188	2.000000	1.135483	7.36689e+06	-48039.1	955.818	-29764.3	0.000000	0.000000	7.147102	281.472	NaN	0.000000	0.001646	0.001697	28.0789	80.0517	0.001920	41687.5	6.154134	173.234	281.154	1.135133	0.089835	0.089485	281.472	41687.5	0.084771	0.229311	1227.47	79536.5
188	2.000000	1.137576	7.36689e+06	-48039.1	955.819	-29764.3	0.000000	0.000000	7.149734	294.575	NaN	0.000000	0.001628	0.001722	28.0792	82.2853	0.001839	44736.1	10.976	168.616	299.942	1.137049	0.091928	0.091401	294.575	44736.1	0.086990	0.239985	1227.47	83433.4
188	2.000000	1.139409	7.36689e+06	-48039.1	955.818	-29764.3	0.000000	0.000000	7.152120	308.017	NaN	0.000000	0.001586	0.001706	28.0803	83.6548	0.001775	47126	3.558833	174.62	302.407	1.138971	0.093761	0.093324	308.017	47126	0.088859	0.249156	1236.24	86257.8
188	2.000000	1.141494	7.36689e+06	-48039.1	955.819	-29764.3	0.000000	0.000000	7.154654	318.938	NaN	0.000000	0.001661	0.001757	28.0799	85.3422	0.001814	47038.5	4.591504	173.664	319.033	1.141128	0.095846	0.095481	318.938	47038.5	0.090761	0.258648	1233.1	84503
188	2.000000	1.143418	7.36689e+06	-48039.1	955.819	-29764.3	0.000000	0.000000	7.157273	335.831	NaN	0.000000	0.001689	0.001750	28.0801	88.6248	0.001773	49978.5	3.806323	173.677	332.635	1.143065	0.097771	0.097417	335.831	49978.5	0.092731	0.268657	1250.04	88096.3
188	2.000000	1.145333	7.36689e+06	-48039.1	955.819	-29764.3	0.000000	0.000000	7.159833	351.514	NaN	0.000000	0.001635	0.001753	28.08	88.7152	0.001775	49977.1	4.381791	172.957	345.545	1.145097	0.099686	0.099449	351.514	49977.1	0.094411	0.277330	1267.5	86705.4
188	2.000000	1.147548	7.36689e+06	-48039.1	955.819	-29764.3	0.000000	0.000000	7.162693	367.224	NaN	0.000000	0.001651	0.001752	28.0799	92.7237	0.001870	49572.1	6.888885	171.487	370.2	1.147002	0.101900	0.101355	367.224	49572.1	0.096344	0.287474	1277.42	84471.6
188	2.000000	1.149495	7.36689e+06	-48039.1	955.819	-29764.3	0.000000	0.000000	7.165085	378.053	NaN	0.000000	0.001626	0.001735	28.0808	94.3098	0.001737	54288.8	7.088858	169.855	376.523	1.149114	0.103847	0.103466	378.053	54288.8	0.098625	0.299657	1261.62	90609
188	2.000000	1.151416	7.36689e+06	-48039.1	955.818	-29764.3	0.000000	0.000000	7.167733	395.715	NaN	0.000000	0.001673	0.001719	28.0801	95.468	0.001837	51972.7	5.939048	171.656	393.156	1.151070	0.105769	0.105422	395.715	51972.7	0.100058	0.307437	1287.14	85638.7
188	2.000000	1.153416	7.36689e+06	-48039.1	955.818	-29764.3	0.000000	0.000000	7.170154	405.951	NaN	0.000000	0.001637	0.001694	28.0801	97.3808	0.001728	56345.5	7.376780	169.668	402.288	1.153010	0.107768	0.107362	405.951	56345.5	0.102365	0.320151	1268	90981.8
188	2.000000	1.155288	7.36689e+06	-48039.1	955.818	-29764.3	0.000000	0.000000	7.172834	425.601	NaN	0.000000	0.001616	0.001714	28.0802	97.4459	0.001937	50301.9	2.950408	174.582	416.163	1.155005	0.109641	0.109357	425.601	50301.9	0.103295	0.325345	1308.15	80572.2