File: remote_trans/data/nanoindenter/0828-1/data/Data_2025-08-06,11h17m57s/2025-07-22_16-23-58_1_40.txt
2025-07-22, 16:23:58, 1
Index	Phase	Displacement	Time	Pos X	Pos Y	Pos Z	Rot A	Rot B	Piezo Z	Force A	Force B	Gripper	Voltage A	Voltage B	Temperature	Amplitude force	Amplitude pos	Stiffness	Phase shift	Phase excitation	Force A raw	Displacement raw	HMax	HMax raw	Real Force	Real Stiffness	Contact Depth	Area	Hardness	Reduced Mod.
[#]	[#]	[um]	[s]	[um]	[um]	[um]	[m°]	[m°]	[um]	[uN]	[uN]	[V]	[V]	[V]	[°C]	[uN]	[um]	[N/m]	[°]	[°]	[uN]	[um]	[um]	[um]	[uN]	[N/m]	[um]	[um^2]	[MPa]	[MPa]
40	1.000000	0.002088	7.36543e+06	-40639.1	955.82	-29789.9	0.000000	0.000000	6.002815	-0.011399	NaN	0.000000	0.001569	0.001701	28.0949	0.022688	0.000896	25.3213	-135.526	-160.257	-0.065618	0.000813	-1.072528	-1.073803	-0.011399	25.3213	-1.072190	-2.121361E+14	5.373241E-17	NaN
40	1.000000	0.010049	7.36543e+06	-40639.1	955.819	-29789.9	0.000000	0.000000	6.010776	0.003158	NaN	0.000000	0.001565	0.001722	28.0949	0.026893	0.000927	29.0106	76.3472	-164.902	-0.007789	0.008755	-1.064568	-1.065861	0.003158	29.0106	-1.064649	-1.679953E+14	-1.880101E-17	NaN
40	1.000000	0.018027	7.36543e+06	-40639.1	955.818	-29789.9	0.000000	0.000000	6.018755	0.024860	NaN	0.000000	0.001561	0.001751	28.0943	0.053886	0.001795	30.0163	1.507777	-166.417	0.026517	0.016752	-1.056589	-1.057865	0.024860	30.0163	-1.057210	-1.334536E+14	-1.862826E-16	NaN
40	1.000000	0.026052	7.36543e+06	-40639.1	955.818	-29789.9	0.000000	0.000000	6.026776	-0.078352	NaN	0.000000	0.001606	0.001764	28.0962	0.082431	0.001760	46.8435	-149.897	-167.297	-0.064561	0.024640	-1.048565	-1.049976	-0.078352	46.8435	-1.047310	-9.823271E+13	7.976113E-16	NaN
40	1.000000	0.034052	7.36543e+06	-40639.1	955.818	-29789.9	0.000000	0.000000	6.034778	-0.036371	NaN	0.000000	0.001587	0.001694	28.0954	0.029002	0.001911	15.1763	179.668	-164.589	0.028512	0.032713	-1.040565	-1.041903	-0.036371	15.1763	-1.038767	-7.540306E+13	4.823525E-16	NaN
40	1.000000	0.042055	7.36543e+06	-40639.1	955.819	-29789.9	0.000000	0.000000	6.042782	0.003517	NaN	0.000000	0.001578	0.001760	28.0956	0.108294	0.001914	56.5752	-143.564	-167.104	0.004351	0.040705	-1.032562	-1.033911	0.003517	56.5752	-1.032608	-6.231081E+13	-5.644348E-17	NaN
40	1.000000	0.050041	7.36543e+06	-40639.1	955.818	-29789.9	0.000000	0.000000	6.050768	-0.002530	NaN	0.000000	0.001603	0.001734	28.0959	0.092924	0.001959	47.4304	-50.589	-166.628	-0.088885	0.048757	-1.024575	-1.025860	-0.002530	47.4304	-1.024535	-4.852537E+13	5.213243E-17	NaN
40	1.000000	0.058039	7.36543e+06	-40639.1	955.819	-29789.9	0.000000	0.000000	6.058763	-0.071264	NaN	0.000000	0.001565	0.001709	28.0955	0.081550	0.001895	43.0291	31.6067	-167.992	-0.062872	0.056716	-1.016578	-1.017900	-0.071264	43.0291	-1.015336	-3.649122E+13	1.952897E-15	NaN
40	1.000000	0.066032	7.36543e+06	-40639.1	955.818	-29789.9	0.000000	0.000000	6.066760	0.019486	NaN	0.000000	0.001593	0.001724	28.0936	0.159762	0.002025	78.9129	0.064435	-168.472	-0.066460	0.064686	-1.008584	-1.009930	0.019486	78.9129	-1.008769	-2.977260E+13	-6.544858E-16	NaN
40	1.000000	0.074030	7.36543e+06	-40639.1	955.818	-29789.9	0.000000	0.000000	6.074754	-0.077595	NaN	0.000000	0.001573	0.001716	28.0945	0.080255	0.002063	38.9007	-91.991	-166.396	-0.093431	0.072745	-1.000586	-1.001872	-0.077595	38.9007	-0.999090	-2.205554E+13	3.518178E-15	NaN
40	1.000000	0.082026	7.36543e+06	-40639.1	955.818	-29789.9	0.000000	0.000000	6.082750	-0.064610	NaN	0.000000	0.001573	0.001717	28.0939	0.025288	0.001857	13.6214	44.1348	-167.307	-0.026493	0.080740	-0.992591	-0.993876	-0.064610	13.6214	-0.989033	-1.614696E+13	4.001390E-15	NaN
40	1.000000	0.090038	7.36543e+06	-40639.1	955.819	-29789.9	0.000000	0.000000	6.090765	-0.004652	NaN	0.000000	0.001587	0.001757	28.0934	0.055613	0.002037	27.3052	-131.508	-168.352	-0.064673	0.088691	-0.984578	-0.985925	-0.004652	27.3052	-0.984450	-1.400759E+13	3.320965E-16	NaN
40	1.000000	0.098068	7.36543e+06	-40639.1	955.819	-29789.9	0.000000	0.000000	6.098793	-0.068566	NaN	0.000000	0.001553	0.001760	28.0944	0.060348	0.002020	29.8794	-118.374	-165.184	-0.035987	0.096747	-0.976548	-0.977869	-0.068566	29.8794	-0.974827	-1.039236E+13	6.597692E-15	NaN
40	1.000000	0.106051	7.36543e+06	-40639.1	955.818	-29789.9	0.000000	0.000000	6.106776	-0.057879	NaN	0.000000	0.001583	0.001733	28.0958	0.054184	0.002034	26.638	153.566	-164.627	-0.038451	0.104770	-0.968566	-0.969846	-0.057879	26.638	-0.966936	-8.135181E+12	7.114644E-15	NaN
40	1.000000	0.114045	7.36543e+06	-40639.1	955.819	-29789.9	0.000000	0.000000	6.114769	-0.089781	NaN	0.000000	0.001618	0.001749	28.0961	0.035915	0.002124	16.9109	104.399	-166.9	-0.036849	0.112728	-0.960571	-0.961888	-0.089781	16.9109	-0.956589	-5.900423E+12	1.521599E-14	NaN
40	1.000000	0.122054	7.36543e+06	-40639.1	955.818	-29789.9	0.000000	0.000000	6.122781	-0.010553	NaN	0.000000	0.001557	0.001710	28.0953	0.027198	0.001998	13.6156	-14.1803	-164.065	0.019162	0.120746	-0.952562	-0.953870	-0.010553	13.6156	-0.951981	-5.113829E+12	2.063613E-15	NaN
40	1.000000	0.130078	7.36543e+06	-40639.1	955.818	-29789.9	0.000000	0.000000	6.130807	0.027712	NaN	0.000000	0.001577	0.001714	28.0942	0.143008	0.001992	71.7756	-166.602	-165.24	-0.023245	0.128804	-0.944538	-0.945812	0.027712	71.7756	-0.944828	-4.095096E+12	-6.767234E-15	NaN
40	1.000000	0.138059	7.36543e+06	-40639.1	955.819	-29789.9	0.000000	0.000000	6.138784	-0.052037	NaN	0.000000	0.001566	0.001718	28.0937	0.065978	0.001995	33.0694	164.924	-166.114	-0.019490	0.136747	-0.936557	-0.937870	-0.052037	33.0694	-0.935377	-3.053244E+12	1.704317E-14	NaN
40	1.000000	0.146056	7.36543e+06	-40639.1	955.817	-29789.9	0.000000	0.000000	6.146783	0.003680	NaN	0.000000	0.001589	0.001740	28.0922	0.097380	0.002008	48.4928	-155.838	-165.309	-0.077990	0.144757	-0.928560	-0.929859	0.003680	48.4928	-0.928617	-2.474777E+12	-1.486802E-15	NaN
40	1.000000	0.154072	7.36543e+06	-40639.1	955.818	-29789.9	0.000000	0.000000	6.154799	0.002355	NaN	0.000000	0.001556	0.001729	28.0925	0.123917	0.001829	67.7425	178.919	-164.135	-0.005908	0.152768	-0.920545	-0.921848	0.002355	67.7425	-0.920571	-1.927142E+12	-1.221907E-15	NaN
40	1.000000	0.162052	7.36543e+06	-40639.1	955.818	-29789.9	0.000000	0.000000	6.162777	-0.056929	NaN	0.000000	0.001581	0.001758	28.0929	0.005645	0.001850	3.051118	12.4709	-167.774	0.062852	0.160746	-0.912565	-0.913870	-0.056929	3.051118	-0.898571	-9.722031E+11	5.855633E-14	NaN
40	1.000000	0.170084	7.36543e+06	-40639.1	955.819	-29789.9	0.000000	0.000000	6.170811	-0.009613	NaN	0.000000	0.001570	0.001780	28.0928	0.075051	0.002005	37.4297	5.167312	-165.729	0.002732	0.168768	-0.904532	-0.905848	-0.009613	37.4297	-0.904340	-1.163328E+12	8.263720E-15	NaN
40	1.000000	0.178088	7.36543e+06	-40639.1	955.818	-29789.9	0.000000	0.000000	6.178815	-0.026056	NaN	0.000000	0.001591	0.001732	28.0934	0.078727	0.002195	35.8682	42.3418	-167.88	-0.071745	0.176798	-0.896528	-0.897818	-0.026056	35.8682	-0.895983	-8.969826E+11	2.904799E-14	NaN
40	1.000000	0.186063	7.36543e+06	-40639.1	955.818	-29789.9	0.000000	0.000000	6.186789	-0.037513	NaN	0.000000	0.001566	0.001751	28.0931	0.139722	0.001977	70.6667	56.9	-165.37	0.007852	0.184817	-0.888553	-0.889799	-0.037513	70.6667	-0.888155	-7.030289E+11	5.335906E-14	NaN
40	1.000000	0.194073	7.36543e+06	-40639.1	955.818	-29789.9	0.000000	0.000000	6.194800	-0.006788	NaN	0.000000	0.001558	0.001765	28.0939	0.110252	0.001877	58.7447	93.7354	-168.772	-0.034349	0.192787	-0.880543	-0.881829	-0.006788	58.7447	-0.880456	-5.531941E+11	1.227005E-14	NaN
40	1.000000	0.202087	7.36543e+06	-40639.1	955.817	-29789.9	0.000000	0.000000	6.202818	0.073934	NaN	0.000000	0.001574	0.001741	28.0944	0.063552	0.002057	30.8903	-20.3385	-165.156	0.095053	0.200789	-0.872529	-0.873827	0.073934	30.8903	-0.874324	-4.570250E+11	-1.617724E-13	NaN
40	1.000000	0.210064	7.36543e+06	-40639.1	955.818	-29789.9	0.000000	0.000000	6.210788	-0.099058	NaN	0.000000	0.001590	0.001710	28.0941	0.029095	0.002042	14.2497	82.2303	-163.094	-0.111597	0.208822	-0.864552	-0.865794	-0.099058	14.2497	-0.859338	-2.865251E+11	3.457209E-13	NaN
40	1.000000	0.218124	7.36543e+06	-40639.1	955.818	-29789.9	0.000000	0.000000	6.218851	-0.004273	NaN	0.000000	0.001574	0.001754	28.0932	0.135663	0.002134	63.5854	117.421	-169.645	-0.102170	0.216810	-0.856492	-0.857806	-0.004273	63.5854	-0.856442	-2.617929E+11	1.632269E-14	NaN
40	1.000000	0.226081	7.36543e+06	-40639.1	955.819	-29789.9	0.000000	0.000000	6.226807	-0.025799	NaN	0.000000	0.001580	0.001726	28.0928	0.023609	0.001980	11.9233	28.3532	-166.478	-0.139895	0.224835	-0.848535	-0.849781	-0.025799	11.9233	-0.846913	-1.945034E+11	1.326426E-13	NaN
40	1.000000	0.234107	7.36543e+06	-40639.1	955.818	-29789.9	0.000000	0.000000	6.234835	0.011653	NaN	0.000000	0.001621	0.001745	28.092	0.129880	0.001962	66.207	67.2501	-163.95	-0.042870	0.232797	-0.840510	-0.841820	0.011653	66.207	-0.840642	-1.599500E+11	-7.285664E-14	NaN
40	1.000000	0.242107	7.36543e+06	-40639.1	955.818	-29789.9	0.000000	0.000000	6.242833	-0.024727	NaN	0.000000	0.001564	0.001754	28.093	0.081733	0.002066	39.5575	-175.442	-165.118	-0.036702	0.240764	-0.832509	-0.833853	-0.024727	39.5575	-0.832041	-1.223042E+11	2.021769E-13	NaN
40	1.000000	0.250102	7.36543e+06	-40639.1	955.819	-29789.9	0.000000	0.000000	6.250827	-0.040317	NaN	0.000000	0.001604	0.001727	28.0923	0.077055	0.002058	37.4453	-151.266	-163.78	-0.037498	0.248758	-0.824514	-0.825858	-0.040317	37.4453	-0.823707	-9.429214E+10	4.275801E-13	NaN
40	1.000000	0.258104	7.36543e+06	-40639.1	955.819	-29789.9	0.000000	0.000000	6.258830	-0.021539	NaN	0.000000	0.001593	0.001749	28.0921	0.100002	0.002008	49.8136	77.5699	-164.767	-0.033599	0.256762	-0.816513	-0.817854	-0.021539	49.8136	-0.816188	-7.456216E+10	2.888779E-13	NaN
40	1.000000	0.266126	7.36543e+06	-40639.1	955.818	-29789.9	0.000000	0.000000	6.266852	-0.042079	NaN	0.000000	0.001608	0.001767	28.0936	0.085811	0.001916	44.791	76.5939	-164.257	-0.030638	0.264803	-0.808490	-0.809814	-0.042079	44.791	-0.807785	-5.734880E+10	7.337387E-13	NaN
40	1.000000	0.274136	7.36543e+06	-40639.1	955.819	-29789.9	0.000000	0.000000	6.274861	-0.041880	NaN	0.000000	0.001634	0.001760	28.0954	0.067785	0.001978	34.2712	-154.102	-168.041	-0.025816	0.272816	-0.800481	-0.801800	-0.041880	34.2712	-0.799564	-4.435530E+10	9.442015E-13	NaN
40	1.000000	0.282122	7.36543e+06	-40639.1	955.818	-29789.9	0.000000	0.000000	6.282849	0.015765	NaN	0.000000	0.001620	0.001775	28.0955	0.051806	0.001920	26.9821	-95.1184	-168.006	0.054378	0.280811	-0.792495	-0.793806	0.015765	26.9821	-0.792933	-3.605081E+10	-4.373068E-13	NaN
40	1.000000	0.290133	7.36543e+06	-40639.1	955.818	-29789.9	0.000000	0.000000	6.290860	-0.019202	NaN	0.000000	0.001635	0.001791	28.0935	0.054614	0.002002	27.2855	0.445740	-165.655	0.043079	0.288841	-0.784483	-0.785775	-0.019202	27.2855	-0.783955	-2.722547E+10	7.052922E-13	NaN
40	1.000000	0.298134	7.36543e+06	-40639.1	955.819	-29789.9	0.000000	0.000000	6.298859	-0.064051	NaN	0.000000	0.001672	0.001731	28.0948	0.027500	0.002050	13.4122	69.6859	-163.415	-0.062943	0.296811	-0.776482	-0.777805	-0.064051	13.4122	-0.772900	-1.926365E+10	3.324950E-12	NaN
40	1.000000	0.306147	7.36543e+06	-40639.1	955.818	-29789.9	0.000000	0.000000	6.306871	-0.079708	NaN	0.000000	0.001692	0.001734	28.0936	0.031358	0.002045	15.331	-94.3948	-166.69	-0.051342	0.304825	-0.768469	-0.769791	-0.079708	15.331	-0.764570	-1.484111E+10	5.370724E-12	NaN
40	1.000000	0.314117	7.36543e+06	-40639.1	955.819	-29789.9	0.000000	0.000000	6.314844	0.001816	NaN	0.000000	0.001658	0.001732	28.0933	0.086873	0.002057	42.2421	-111.929	-163.362	-0.034459	0.312809	-0.760499	-0.761808	0.001816	42.2421	-0.760532	-1.307776E+10	-1.388463E-13	NaN
40	1.000000	0.322140	7.36543e+06	-40639.1	955.818	-29789.9	0.000000	0.000000	6.322868	0.004247	NaN	0.000000	0.001720	0.001739	28.0942	0.086350	0.001922	44.9368	95.5737	-166.265	-0.008354	0.320845	-0.752476	-0.753772	0.004247	44.9368	-0.752547	-1.018322E+10	-4.170383E-13	NaN
40	1.000000	0.330143	7.36543e+06	-40639.1	955.817	-29789.9	0.000000	0.000000	6.330867	-0.090109	NaN	0.000000	0.001660	0.001753	28.0936	0.082629	0.001923	42.9734	-129.429	-163.981	-0.161107	0.328824	-0.744473	-0.745792	-0.090109	42.9734	-0.742901	-7.525933E+9	1.197319E-11	NaN
40	1.000000	0.338133	7.36543e+06	-40639.1	955.818	-29789.9	0.000000	0.000000	6.338858	-0.047446	NaN	0.000000	0.001696	0.001756	28.0942	0.070467	0.001879	37.5072	101.253	-166.818	-0.059254	0.336831	-0.736484	-0.737786	-0.047446	37.5072	-0.735535	-5.973532E+9	7.942724E-12	NaN
40	1.000000	0.346166	7.36543e+06	-40639.1	955.819	-29789.9	0.000000	0.000000	6.346892	-0.019868	NaN	0.000000	0.001683	0.001733	28.0946	0.076777	0.001968	39.0223	-92.121	-164.468	-0.047772	0.344862	-0.728451	-0.729755	-0.019868	39.0223	-0.728069	-4.725916E+9	4.204139E-12	NaN
40	1.000000	0.354156	7.36543e+06	-40639.1	955.819	-29789.9	0.000000	0.000000	6.354885	0.061132	NaN	0.000000	0.001675	0.001755	28.0947	0.088361	0.001947	45.3766	-95.2152	-167.932	0.038512	0.352905	-0.720461	-0.721711	0.061132	45.3766	-0.721471	-3.841799E+9	-1.591240E-11	NaN
40	1.000000	0.362147	7.36543e+06	-40639.1	955.819	-29789.9	0.000000	0.000000	6.362875	0.036651	NaN	0.000000	0.001684	0.001765	28.0939	0.038450	0.001949	19.7317	13.9272	-168.345	0.026395	0.360851	-0.712470	-0.713765	0.036651	19.7317	-0.713863	-3.025224E+9	-1.211511E-11	NaN
40	1.000000	0.370144	7.36543e+06	-40639.1	955.819	-29789.9	0.000000	0.000000	6.370870	-0.038655	NaN	0.000000	0.001690	0.001723	28.094	0.062559	0.002138	29.2632	-118.021	-168.527	-0.119224	0.368851	-0.704472	-0.705765	-0.038655	29.2632	-0.703482	-2.183099E+9	1.770637E-11	NaN
40	1.000000	0.378145	7.36543e+06	-40639.1	955.818	-29789.9	0.000000	0.000000	6.378872	-0.016086	NaN	0.000000	0.001662	0.001740	28.0942	0.157577	0.001987	79.2873	23.7338	-167.01	-0.052921	0.376826	-0.696471	-0.697791	-0.016086	79.2873	-0.696319	-1.742841E+9	9.229911E-12	NaN
40	1.000000	0.386171	7.36543e+06	-40639.1	955.818	-29789.9	0.000000	0.000000	6.386896	-0.041635	NaN	0.000000	0.001713	0.001749	28.0931	0.068769	0.002012	34.1768	-36.1281	-165.57	0.028643	0.384851	-0.688446	-0.689765	-0.041635	34.1768	-0.687532	-1.321860E+9	3.149723E-11	NaN
40	1.000000	0.394165	7.36543e+06	-40639.1	955.819	-29789.9	0.000000	0.000000	6.394890	-0.062556	NaN	0.000000	0.001726	0.001731	28.0938	0.053666	0.001905	28.1709	-96.6834	-169.356	-0.056286	0.392886	-0.680451	-0.681730	-0.062556	28.1709	-0.678786	-1.003681E+9	6.232661E-11	NaN
40	1.000000	0.402176	7.36543e+06	-40639.1	955.819	-29789.9	0.000000	0.000000	6.402900	-0.083713	NaN	0.000000	0.001717	0.001747	28.0933	0.030192	0.001956	15.4332	124.319	-165.703	-0.049264	0.400906	-0.672440	-0.673710	-0.083713	15.4332	-0.668372	-7.229414E+8	1.157947E-10	NaN
40	1.000000	0.410171	7.36543e+06	-40639.1	955.819	-29789.9	0.000000	0.000000	6.410897	-0.033698	NaN	0.000000	0.001702	0.001742	28.092	0.063719	0.002012	31.6685	-15.3419	-168.081	-0.039304	0.408919	-0.664445	-0.665698	-0.033698	31.6685	-0.663647	-6.228957E+8	5.409817E-11	NaN
40	1.000000	0.418198	7.36543e+06	-40639.1	955.82	-29789.9	0.000000	0.000000	6.418922	-0.075033	NaN	0.000000	0.001664	0.001729	28.0909	0.096384	0.001916	50.2957	-60.7082	-164.834	-0.068962	0.416899	-0.656418	-0.657717	-0.075033	50.2957	-0.655299	-4.787046E+8	1.567423E-10	NaN
40	1.000000	0.426196	7.36543e+06	-40639.1	955.819	-29789.9	0.000000	0.000000	6.426922	-0.043292	NaN	0.000000	0.001662	0.001744	28.094	0.066375	0.001916	34.6421	21.8689	-168.981	-0.043260	0.424820	-0.648420	-0.649797	-0.043292	34.6421	-0.647483	-3.740478E+8	1.157399E-10	NaN
40	1.000000	0.434206	7.36543e+06	-40639.1	955.818	-29789.9	0.000000	0.000000	6.434934	0.019793	NaN	0.000000	0.001653	0.001777	28.0927	0.087042	0.001893	45.9718	96.4013	-167.811	-0.028570	0.432856	-0.640410	-0.641761	0.019793	45.9718	-0.640733	-3.022366E+8	-6.549007E-11	NaN
40	1.000000	0.442194	7.36543e+06	-40639.1	955.819	-29789.9	0.000000	0.000000	6.442918	-0.061627	NaN	0.000000	0.001653	0.001749	28.0928	0.097209	0.002174	44.7233	-169.77	-165.988	-0.057433	0.440862	-0.632423	-0.633754	-0.061627	44.7233	-0.631389	-2.249577E+8	2.739499E-10	NaN
40	1.000000	0.450220	7.36543e+06	-40639.1	955.819	-29789.9	0.000000	0.000000	6.450945	-0.054075	NaN	0.000000	0.001688	0.001712	28.0919	0.051508	0.001990	25.8773	26.0064	-167.41	-0.053931	0.448882	-0.624397	-0.625734	-0.054075	25.8773	-0.622829	-1.716003E+8	3.151223E-10	NaN
40	1.000000	0.458188	7.36543e+06	-40639.1	955.818	-29789.9	0.000000	0.000000	6.458913	-0.049098	NaN	0.000000	0.001665	0.001725	28.0934	0.041762	0.001994	20.9451	-69.9526	-169.074	-0.022521	0.456941	-0.616428	-0.617675	-0.049098	20.9451	-0.614670	-1.325432E+8	3.704313E-10	NaN
40	1.000000	0.466209	7.36543e+06	-40639.1	955.818	-29789.9	0.000000	0.000000	6.466932	-0.085036	NaN	0.000000	0.001699	0.001710	28.0922	0.043802	0.002009	21.7997	-6.954969	-165.605	-0.089273	0.464859	-0.608408	-0.609757	-0.085036	21.7997	-0.605482	-9.907003E+7	8.583402E-10	NaN
40	1.000000	0.474212	7.36543e+06	-40639.1	955.819	-29789.9	0.000000	0.000000	6.474935	-0.093967	NaN	0.000000	0.001697	0.001759	28.0905	0.143206	0.001985	72.1323	-130.016	-162.559	0.014360	0.472871	-0.600404	-0.601746	-0.093967	72.1323	-0.599427	-8.176593E+7	1.149219E-9	NaN
40	1.000000	0.482206	7.36543e+06	-40639.1	955.818	-29789.9	0.000000	0.000000	6.482933	0.000346	NaN	0.000000	0.001680	0.001728	28.0922	0.078412	0.002032	38.5907	150.828	-166.63	-0.014990	0.480932	-0.592410	-0.593684	0.000346	38.5907	-0.592417	-6.546155E+7	-5.277967E-12	NaN
40	1.000000	0.490194	7.36543e+06	-40639.1	955.819	-29789.9	0.000000	0.000000	6.490920	-0.048565	NaN	0.000000	0.001680	0.001713	28.0911	0.079067	0.002049	38.5971	40.184	-165.55	-0.001120	0.488866	-0.584422	-0.585750	-0.048565	38.5971	-0.583478	-4.928604E+7	9.853679E-10	NaN
40	1.000000	0.498221	7.36543e+06	-40639.1	955.818	-29789.9	0.000000	0.000000	6.498949	0.026103	NaN	0.000000	0.001659	0.001756	28.0913	0.002691	0.001945	1.383106	-37.5421	-165.051	-0.035122	0.496928	-0.576396	-0.577689	0.026103	1.383106	-0.590550	-6.169500E+7	-4.230941E-10	NaN
40	1.000000	0.506211	7.36543e+06	-40639.1	955.818	-29789.9	0.000000	0.000000	6.506939	0.026673	NaN	0.000000	0.001647	0.001737	28.0929	0.123763	0.002174	56.9336	-137.588	-164.734	0.022328	0.504918	-0.568406	-0.569698	0.026673	56.9336	-0.568757	-3.086414E+7	-8.641983E-10	NaN
40	1.000000	0.514209	7.36543e+06	-40639.1	955.818	-29789.9	0.000000	0.000000	6.514937	0.000305	NaN	0.000000	0.001691	0.001773	28.0931	0.119117	0.002017	59.0669	43.285	-164.725	-0.024775	0.512915	-0.560407	-0.561701	0.000305	59.0669	-0.560411	-2.366256E+7	-1.289471E-11	NaN
40	1.000000	0.522238	7.36543e+06	-40639.1	955.819	-29789.9	0.000000	0.000000	6.522966	0.000656	NaN	0.000000	0.001706	0.001726	28.0928	0.080453	0.001933	41.6168	36.0746	-166.37	-0.053207	0.520911	-0.552378	-0.553706	0.000656	41.6168	-0.552390	-1.832530E+7	-3.578066E-11	NaN
40	1.000000	0.530254	7.36543e+06	-40639.1	955.817	-29789.9	0.000000	0.000000	6.530981	0.001265	NaN	0.000000	0.001674	0.001703	28.0928	0.094796	0.001976	47.9723	-74.2951	-168.561	-0.025738	0.528918	-0.544362	-0.545699	0.001265	47.9723	-0.544382	-1.419435E+7	-8.910328E-11	NaN
40	1.000000	0.538238	7.36543e+06	-40639.1	955.818	-29789.9	0.000000	0.000000	6.538964	-0.030976	NaN	0.000000	0.001700	0.001695	28.0926	0.065634	0.001889	34.7438	-86.5588	-167.402	-0.016157	0.536894	-0.536378	-0.537722	-0.030976	34.7438	-0.535710	-1.076061E+7	2.878630E-9	NaN
40	1.000000	0.546243	7.36543e+06	-40639.1	955.818	-29789.9	0.000000	0.000000	6.546970	-0.016209	NaN	0.000000	0.001663	0.001731	28.0928	0.069532	0.002001	34.751	-174.149	-167.891	-0.092155	0.544955	-0.528373	-0.529661	-0.016209	34.751	-0.528023	-8.41626e+06	1.925926E-9	NaN
40	1.000000	0.554242	7.36543e+06	-40639.1	955.818	-29789.9	0.000000	0.000000	6.554966	-0.068508	NaN	0.000000	0.001679	0.001698	28.0932	0.044514	0.002144	20.7657	78.5191	-166.516	-0.015599	0.552908	-0.520374	-0.521708	-0.068508	20.7657	-0.517900	-6.08679e+06	1.125522E-8	NaN
40	1.000000	0.562209	7.36543e+06	-40639.1	955.818	-29789.9	0.000000	0.000000	6.562932	-0.113110	NaN	0.000000	0.001717	0.001741	28.0924	0.118768	0.002026	58.6302	118.472	-167.178	-0.095889	0.560912	-0.512407	-0.513704	-0.113110	58.6302	-0.510960	-4.87292e+06	2.321193E-8	NaN
40	1.000000	0.570255	7.36543e+06	-40639.1	955.818	-29789.9	0.000000	0.000000	6.570980	-0.045451	NaN	0.000000	0.001721	0.001754	28.0922	0.083259	0.001947	42.7572	98.5824	-164.503	-0.029012	0.568944	-0.504362	-0.505672	-0.045451	42.7572	-0.503564	-3.84353e+06	1.182538E-8	NaN
40	1.000000	0.578269	7.36543e+06	-40639.1	955.819	-29789.9	0.000000	0.000000	6.578995	-0.040360	NaN	0.000000	0.001695	0.001749	28.0927	0.088318	0.002056	42.9619	-160.504	-166.501	-0.090300	0.576917	-0.496347	-0.497699	-0.040360	42.9619	-0.495643	-2.97995e+06	1.354377E-8	NaN
40	1.000000	0.586234	7.36543e+06	-40639.1	955.819	-29789.9	0.000000	0.000000	6.586959	-0.055959	NaN	0.000000	0.001660	0.001718	28.0918	0.024091	0.001964	12.2652	100.345	-166.362	-0.119165	0.584998	-0.488382	-0.489618	-0.055959	12.2652	-0.484961	-2.11319e+06	2.648102E-8	NaN
40	1.000000	0.594274	7.36543e+06	-40639.1	955.82	-29789.9	0.000000	0.000000	6.595001	-0.011261	NaN	0.000000	0.001689	0.001739	28.0929	0.046635	0.001824	25.5727	124.953	-164.653	-0.048144	0.592920	-0.480342	-0.481696	-0.011261	25.5727	-0.480012	-1.80175e+06	6.249827E-9	NaN
40	1.000000	0.602257	7.36543e+06	-40639.1	955.817	-29789.9	0.000000	0.000000	6.602980	-0.097976	NaN	0.000000	0.001664	0.001751	28.0938	0.109695	0.001989	55.1392	-121.722	-164.419	-0.101677	0.600969	-0.472359	-0.473647	-0.097976	55.1392	-0.471026	-1.34835e+06	7.266375E-8	NaN
40	1.000000	0.610245	7.36543e+06	-40639.1	955.819	-29789.9	0.000000	0.000000	6.610970	-0.061994	NaN	0.000000	0.001642	0.001765	28.0938	0.013927	0.001868	7.457706	4.262749	-168.924	-0.015369	0.608909	-0.464371	-0.465708	-0.061994	7.457706	-0.458136	-888838	6.974720E-8	NaN
40	1.000000	0.618269	7.36543e+06	-40639.1	955.818	-29789.9	0.000000	0.000000	6.618991	-0.108121	NaN	0.000000	0.001668	0.001757	28.093	0.082613	0.001996	41.3809	20.9208	-165.037	-0.097342	0.617002	-0.456348	-0.457614	-0.108121	41.3809	-0.454388	-787243	1.373414E-7	NaN
40	1.000000	0.626260	7.36543e+06	-40639.1	955.819	-29789.9	0.000000	0.000000	6.626984	-0.070114	NaN	0.000000	0.001630	0.001746	28.0918	0.022208	0.001970	11.271	72.1158	-167.249	-0.052281	0.624970	-0.448356	-0.449647	-0.070114	11.271	-0.443691	-556458	1.260002E-7	NaN
40	1.000000	0.634264	7.36543e+06	-40639.1	955.818	-29789.9	0.000000	0.000000	6.634991	-0.020421	NaN	0.000000	0.001614	0.001754	28.0921	0.071005	0.001894	37.495	-125.248	-167.183	-0.028296	0.632922	-0.440352	-0.441694	-0.020421	37.495	-0.439943	-492680	4.144839E-8	NaN
40	1.000000	0.642275	7.36543e+06	-40639.1	955.817	-29789.9	0.000000	0.000000	6.643001	-0.029990	NaN	0.000000	0.001624	0.001758	28.0922	0.078538	0.002059	38.1374	33.6827	-167.066	-0.098744	0.640988	-0.432341	-0.433628	-0.029990	38.1374	-0.431752	-377430	7.945950E-8	NaN
40	1.000000	0.650279	7.36543e+06	-40639.1	955.818	-29789.9	0.000000	0.000000	6.651004	-0.034717	NaN	0.000000	0.001596	0.001766	28.0919	0.071339	0.002065	34.5461	167.248	-164.875	-0.012208	0.648929	-0.424338	-0.425688	-0.034717	34.5461	-0.423584	-289216	1.200398E-7	NaN
40	1.000000	0.658265	7.36543e+06	-40639.1	955.818	-29789.9	0.000000	0.000000	6.658988	-0.099495	NaN	0.000000	0.001610	0.001770	28.0926	0.093108	0.002085	44.6548	170.421	-167.31	-0.085565	0.656959	-0.416351	-0.417658	-0.099495	44.6548	-0.414680	-216229	4.601372E-7	NaN
40	1.000000	0.666276	7.36543e+06	-40639.1	955.818	-29789.9	0.000000	0.000000	6.667000	-0.069761	NaN	0.000000	0.001597	0.001770	28.0932	0.077342	0.001956	39.5496	-1.824207	-165.101	-0.102107	0.665011	-0.408341	-0.409605	-0.069761	39.5496	-0.407018	-168258	4.146084E-7	NaN
40	1.000000	0.674277	7.36543e+06	-40639.1	955.818	-29789.9	0.000000	0.000000	6.675001	-0.094823	NaN	0.000000	0.001581	0.001750	28.0938	0.098473	0.002006	49.0851	140.344	-168.015	-0.113411	0.672978	-0.400339	-0.401639	-0.094823	49.0851	-0.398890	-128873	7.357900E-7	NaN
40	1.000000	0.682288	7.36543e+06	-40639.1	955.818	-29789.9	0.000000	0.000000	6.683015	-0.006105	NaN	0.000000	0.001603	0.001750	28.0911	0.097886	0.001902	51.4579	6.652355	-166.222	0.033816	0.680982	-0.392329	-0.393634	-0.006105	51.4579	-0.392240	-103561	5.894961E-8	NaN
40	1.000000	0.690311	7.36543e+06	-40639.1	955.819	-29789.9	0.000000	0.000000	6.691034	-0.087240	NaN	0.000000	0.001564	0.001729	28.0913	0.056859	0.001944	29.2531	115.978	-169.733	-0.097143	0.688980	-0.384306	-0.385636	-0.087240	29.2531	-0.382069	-74057.6	1.178007E-6	NaN
40	1.000000	0.698316	7.36543e+06	-40639.1	955.818	-29789.9	0.000000	0.000000	6.699041	-0.061184	NaN	0.000000	0.001613	0.001760	28.0914	0.026406	0.002014	13.1125	-111.295	-162.92	-0.008504	0.697027	-0.376300	-0.377589	-0.061184	13.1125	-0.372800	-54504.9	1.122534E-6	NaN
40	1.000000	0.706297	7.36543e+06	-40639.1	955.819	-29789.9	0.000000	0.000000	6.707023	-0.013249	NaN	0.000000	0.001593	0.001736	28.0903	0.097543	0.001974	49.4131	-27.8027	-165.776	0.001836	0.704993	-0.368320	-0.369623	-0.013249	49.4131	-0.368119	-46668.4	2.839043E-7	NaN
40	1.000000	0.714305	7.36543e+06	-40639.1	955.817	-29789.9	0.000000	0.000000	6.715030	-0.064266	NaN	0.000000	0.001610	0.001771	28.0901	0.066115	0.002061	32.0775	1.552701	-169.664	-0.010715	0.712944	-0.360311	-0.361672	-0.064266	32.0775	-0.358808	-34246.4	1.876578E-6	NaN
40	1.000000	0.722301	7.36543e+06	-40639.1	955.818	-29789.9	0.000000	0.000000	6.723027	-0.040061	NaN	0.000000	0.001598	0.001744	28.0905	0.102039	0.001932	52.8232	-155.026	-166.544	-0.039323	0.721040	-0.352315	-0.353576	-0.040061	52.8232	-0.351746	-27060.7	1.480401E-6	NaN
40	1.000000	0.730314	7.36543e+06	-40639.1	955.819	-29789.9	0.000000	0.000000	6.731039	-0.042711	NaN	0.000000	0.001579	0.001777	28.09	0.102522	0.001933	53.0313	117.837	-165.542	-0.065091	0.728993	-0.344303	-0.345623	-0.042711	53.0313	-0.343699	-20674	2.065911E-6	NaN
40	1.000000	0.738310	7.36543e+06	-40639.1	955.817	-29789.9	0.000000	0.000000	6.739037	0.004411	NaN	0.000000	0.001567	0.001744	28.0895	0.080482	0.002078	38.7325	-110.05	-170.823	0.039266	0.736987	-0.336306	-0.337630	0.004411	38.7325	-0.336392	-16177.6	-2.726910E-7	NaN
40	1.000000	0.746354	7.36543e+06	-40639.1	955.817	-29789.9	0.000000	0.000000	6.747079	-0.066511	NaN	0.000000	0.001634	0.001750	28.0917	0.064985	0.002109	30.8181	11.6424	-166.806	-0.006916	0.744964	-0.328262	-0.329653	-0.066511	30.8181	-0.326644	-11648.1	5.710005E-6	NaN
40	1.000000	0.754330	7.36543e+06	-40639.1	955.817	-29789.9	0.000000	0.000000	6.755057	-0.006080	NaN	0.000000	0.001660	0.001747	28.0919	0.040562	0.002109	19.2359	-14.4556	-165.557	-0.058129	0.753015	-0.320286	-0.321601	-0.006080	19.2359	-0.320049	-9318.85	6.524289E-7	NaN
40	1.000000	0.762321	7.36543e+06	-40639.1	955.818	-29789.9	0.000000	0.000000	6.763046	-0.044541	NaN	0.000000	0.001626	0.001791	28.0912	0.053439	0.001943	27.5024	-47.8917	-167.003	0.061740	0.760993	-0.312296	-0.313623	-0.044541	27.5024	-0.311081	-6871.49	6.481962E-6	NaN
40	1.000000	0.770352	7.36543e+06	-40639.1	955.818	-29789.9	0.000000	0.000000	6.771077	-0.057558	NaN	0.000000	0.001623	0.001774	28.0916	0.096782	0.001843	52.5108	83.7158	-168.114	-0.098285	0.769007	-0.304264	-0.305609	-0.057558	52.5108	-0.303442	-5294.44	1.087138E-5	NaN
40	1.000000	0.778337	7.36543e+06	-40639.1	955.819	-29789.9	0.000000	0.000000	6.779066	0.043341	NaN	0.000000	0.001640	0.001726	28.0915	0.061555	0.002058	29.9033	122.841	-167.918	0.067197	0.777034	-0.296280	-0.297582	0.043341	29.9033	-0.297367	-4299.35	-1.008090E-5	NaN
40	1.000000	0.786345	7.36543e+06	-40639.1	955.818	-29789.9	0.000000	0.000000	6.787067	-0.116360	NaN	0.000000	0.001643	0.001797	28.0903	0.145326	0.002063	70.4445	31.8334	-167.277	-0.088050	0.785004	-0.288272	-0.289612	-0.116360	70.4445	-0.287033	-3011.65	3.863660E-5	NaN
40	1.000000	0.794335	7.36543e+06	-40639.1	955.819	-29789.9	0.000000	0.000000	6.795063	0.004316	NaN	0.000000	0.001609	0.001754	28.0904	0.054763	0.001985	27.5873	177.489	-166.329	0.026789	0.793079	-0.280281	-0.281538	0.004316	27.5873	-0.280398	-2393.21	-1.803459E-6	NaN
40	1.000000	0.802367	7.36543e+06	-40639.1	955.818	-29789.9	0.000000	0.000000	6.803093	-0.039227	NaN	0.000000	0.001624	0.001755	28.0892	0.102128	0.002101	48.6089	57.209	-168.8	-0.103245	0.801040	-0.272249	-0.273577	-0.039227	48.6089	-0.271644	-1764.07	2.223678E-5	NaN
40	1.000000	0.810344	7.36543e+06	-40639.1	955.819	-29789.9	0.000000	0.000000	6.811069	-0.054352	NaN	0.000000	0.001611	0.001767	28.0902	0.069592	0.001955	35.5957	-65.9816	-171.478	-0.006161	0.809027	-0.264272	-0.265590	-0.054352	35.5957	-0.263127	-1308.52	4.153733E-5	NaN
40	1.000000	0.818349	7.36543e+06	-40639.1	955.818	-29789.9	0.000000	0.000000	6.819074	-0.052652	NaN	0.000000	0.001651	0.001756	28.091	0.062706	0.001932	32.4562	5.877336	-169.781	-0.025863	0.817073	-0.256268	-0.257543	-0.052652	32.4562	-0.255051	-983.785	5.351973E-5	NaN
40	1.000000	0.826383	7.36543e+06	-40639.1	955.819	-29789.9	0.000000	0.000000	6.827111	0.026066	NaN	0.000000	0.001637	0.001744	28.0928	0.038565	0.002001	19.2729	0.651860	-166.053	0.051037	0.825110	-0.248234	-0.249506	0.026066	19.2729	-0.249248	-800.444	-3.256479E-5	NaN
40	1.000000	0.834359	7.36543e+06	-40639.1	955.818	-29789.9	0.000000	0.000000	6.835084	-0.041906	NaN	0.000000	0.001642	0.001737	28.0929	0.093920	0.002104	44.6433	160.079	-163.845	-0.025899	0.833023	-0.240257	-0.241593	-0.041906	44.6433	-0.239553	-565.686	7.407911E-5	NaN
40	1.000000	0.842336	7.36543e+06	-40639.1	955.819	-29789.9	0.000000	0.000000	6.843063	-0.007632	NaN	0.000000	0.001602	0.001711	28.0927	0.024100	0.001973	12.2141	-149.323	-168.208	0.047176	0.841054	-0.232280	-0.233562	-0.007632	12.2141	-0.231812	-427.658	1.784698E-5	NaN
40	1.000000	0.850378	7.36543e+06	-40639.1	955.818	-29789.9	0.000000	0.000000	6.851104	-0.019977	NaN	0.000000	0.001609	0.001752	28.0916	0.029163	0.001986	14.6878	130.365	-164.508	0.019882	0.849041	-0.224239	-0.225575	-0.019977	14.6878	-0.223219	-312.615	6.390260E-5	NaN
40	1.000000	0.858342	7.36543e+06	-40639.1	955.818	-29789.9	0.000000	0.000000	6.859067	-0.073768	NaN	0.000000	0.001595	0.001727	28.0912	0.035950	0.002006	17.9214	47.4654	-165.58	-0.078292	0.857099	-0.216274	-0.217518	-0.073768	17.9214	-0.213187	-215.932	0.000342	NaN
40	1.000000	0.866380	7.36543e+06	-40639.1	955.818	-29789.9	0.000000	0.000000	6.867107	-0.002501	NaN	0.000000	0.001587	0.001745	28.0903	0.082659	0.001937	42.6698	151.867	-169.55	-0.062091	0.865086	-0.208236	-0.209530	-0.002501	42.6698	-0.208192	-179.27	1.394823E-5	NaN
40	1.000000	0.874377	7.36544e+06	-40639.1	955.818	-29789.9	0.000000	0.000000	6.875103	-0.049213	NaN	0.000000	0.001632	0.001721	28.0911	0.086827	0.001996	43.4943	49.6642	-161.912	-0.033810	0.873073	-0.200239	-0.201544	-0.049213	43.4943	-0.199390	-128.728	0.000382	NaN
40	1.000000	0.882364	7.36544e+06	-40639.1	955.818	-29789.9	0.000000	0.000000	6.883089	-0.048610	NaN	0.000000	0.001642	0.001718	28.0913	0.015745	0.001947	8.088493	149.102	-165.55	-0.105859	0.881052	-0.192252	-0.193565	-0.048610	8.088493	-0.187745	-82.4677	0.000589	NaN
40	1.000000	0.890394	7.36544e+06	-40639.1	955.818	-29789.9	0.000000	0.000000	6.891120	-0.012861	NaN	0.000000	0.001622	0.001703	28.0911	0.194761	0.001964	99.1555	23.8398	-167.832	0.120844	0.889098	-0.184223	-0.185518	-0.012861	99.1555	-0.184125	-71.6769	0.000179	NaN
40	1.000000	0.898385	7.36544e+06	-40639.1	955.819	-29789.9	0.000000	0.000000	6.899111	-0.043508	NaN	0.000000	0.001629	0.001736	28.0915	0.057542	0.001949	29.5258	-167.455	-167.493	-0.061441	0.897093	-0.176231	-0.177523	-0.043508	29.5258	-0.175126	-50.3671	0.000864	NaN
40	1.000000	0.906404	7.36544e+06	-40639.1	955.819	-29789.9	0.000000	0.000000	6.907129	-0.058566	NaN	0.000000	0.001618	0.001723	28.0924	0.098416	0.001977	49.7743	-153.866	-163.437	-0.049927	0.905064	-0.168212	-0.169552	-0.058566	49.7743	-0.167330	-36.9067	0.001587	NaN
40	1.000000	0.914408	7.36544e+06	-40639.1	955.817	-29789.9	0.000000	0.000000	6.915135	-0.020014	NaN	0.000000	0.001632	0.001707	28.0926	0.142600	0.002093	68.1388	149.639	-164.99	-0.065853	0.913121	-0.160208	-0.161496	-0.020014	68.1388	-0.159988	-27.4013	0.000730	NaN
40	1.000000	0.922396	7.36544e+06	-40639.1	955.818	-29789.9	0.000000	0.000000	6.923122	-0.037619	NaN	0.000000	0.001633	0.001723	28.0918	0.034218	0.001939	17.6465	104.04	-167.554	-0.018122	0.921058	-0.152220	-0.153558	-0.037619	17.6465	-0.150621	-18.5918	0.002023	NaN
40	1.000000	0.930423	7.36544e+06	-40639.1	955.819	-29789.9	0.000000	0.000000	6.931148	-0.047691	NaN	0.000000	0.001639	0.001694	28.0921	0.085830	0.001887	45.4953	22.8613	-164.729	-0.059127	0.929070	-0.144194	-0.145547	-0.047691	45.4953	-0.143407	-13.6973	0.003482	NaN
40	1.000000	0.938408	7.36544e+06	-40639.1	955.818	-29789.9	0.000000	0.000000	6.939135	-0.020118	NaN	0.000000	0.001620	0.001751	28.0911	0.056379	0.002016	27.9596	94.5103	-167.216	0.047217	0.937090	-0.136208	-0.137526	-0.020118	27.9596	-0.135668	-9.795701	0.002054	NaN
40	1.000000	0.946421	7.36544e+06	-40639.1	955.818	-29789.9	0.000000	0.000000	6.947146	-0.042049	NaN	0.000000	0.001639	0.001761	28.0905	0.096046	0.002100	45.7467	-77.5118	-170.059	-0.005321	0.945038	-0.128196	-0.129578	-0.042049	45.7467	-0.127506	-6.813186	0.006172	NaN
40	1.000000	0.954381	7.36544e+06	-40639.1	955.818	-29789.9	0.000000	0.000000	6.955108	-0.012036	NaN	0.000000	0.001649	0.001762	28.0888	0.023660	0.001935	12.2264	-7.218424	-164.566	-0.012141	0.953091	-0.120235	-0.121526	-0.012036	12.2264	-0.119497	-4.719736	0.002550	NaN
40	1.000000	0.962436	7.36544e+06	-40639.1	955.82	-29789.9	0.000000	0.000000	6.963165	0.020725	NaN	0.000000	0.001661	0.001731	28.0896	0.147517	0.002024	72.8813	-16.5192	-169.164	0.007039	0.961095	-0.112180	-0.113521	0.020725	72.8813	-0.112393	-3.373299	-0.006144	NaN
40	1.000000	0.970389	7.36544e+06	-40639.1	955.819	-29789.9	0.000000	0.000000	6.971116	0.001771	NaN	0.000000	0.001655	0.001776	28.0897	0.068635	0.001897	36.1828	120.997	-166.248	-0.046000	0.969110	-0.104227	-0.105506	0.001771	36.1828	-0.104264	-2.265932	-0.000781	NaN
40	1.000000	0.978421	7.36544e+06	-40639.1	955.819	-29789.9	0.000000	0.000000	6.979147	-0.050478	NaN	0.000000	0.001653	0.001745	28.0895	0.100782	0.001956	51.531	70.8444	-163.979	-0.028037	0.977131	-0.096195	-0.097485	-0.050478	51.531	-0.095460	-1.445071	0.034931	NaN
40	1.000000	0.986377	7.36544e+06	-40639.1	955.818	-29789.9	0.000000	0.000000	6.987103	-0.027035	NaN	0.000000	0.001609	0.001757	28.0902	0.082332	0.002082	39.5542	-108.81	-168.894	-0.079463	0.985099	-0.088240	-0.089518	-0.027035	39.5542	-0.087727	-0.955245	0.028302	NaN
40	1.000000	0.994454	7.36544e+06	-40639.1	955.818	-29789.9	0.000000	0.000000	6.995179	-0.065444	NaN	0.000000	0.001634	0.001773	28.0907	0.053073	0.002003	26.4971	34.6016	-166.39	0.016190	0.993106	-0.080162	-0.081510	-0.065444	26.4971	-0.078310	-0.561273	0.116599	NaN
40	1.000000	1.002403	7.36544e+06	-40639.1	955.819	-29789.9	0.000000	0.000000	7.003129	-0.046723	NaN	0.000000	0.001603	0.001775	28.0907	0.084497	0.001859	45.4587	114.432	-169.209	-0.056785	1.001132	-0.072213	-0.073485	-0.046723	45.4587	-0.071442	-0.372673	0.125374	NaN
40	1.000000	1.010430	7.36544e+06	-40639.1	955.818	-29789.9	0.000000	0.000000	7.011153	-0.105705	NaN	0.000000	0.001609	0.001770	28.0907	0.067926	0.001954	34.7685	-127.441	-164.252	-0.066088	1.009100	-0.064186	-0.065517	-0.105705	34.7685	-0.061906	-0.204094	0.517924	NaN
40	1.000000	1.018413	7.36544e+06	-40639.1	955.818	-29789.9	0.000000	0.000000	7.019139	-0.024079	NaN	0.000000	0.001591	0.001771	28.0906	0.070024	0.002063	33.9478	-94.3021	-165.254	-0.020567	1.017158	-0.056203	-0.057458	-0.024079	33.9478	-0.055671	-0.134785	0.178647	NaN
40	1.000000	1.026436	7.36544e+06	-40639.1	955.818	-29789.9	0.000000	0.000000	7.027160	-0.098901	NaN	0.000000	0.001616	0.001757	28.0891	0.095256	0.001938	49.141	-112.77	-167.369	-0.120250	1.025112	-0.048180	-0.049504	-0.098901	49.141	-0.046671	-0.072283	1.368243	NaN
40	1.000000	1.034439	7.36544e+06	-40639.1	955.817	-29789.9	0.000000	0.000000	7.035167	0.018740	NaN	0.000000	0.001633	0.001748	28.0892	0.015329	0.001944	7.886144	-112.067	-166.793	0.049860	1.033113	-0.040177	-0.041503	0.018740	7.886144	-0.041960	-0.051885	-0.361178	NaN
40	1.000000	1.042426	7.36544e+06	-40639.1	955.818	-29789.9	0.000000	0.000000	7.043150	-0.080666	NaN	0.000000	0.001668	0.001722	28.0889	0.021815	0.002074	10.5162	93.3585	-168.099	-0.044034	1.041130	-0.032190	-0.033486	-0.080666	10.5162	-0.026437	-0.018408	4.382249	NaN
40	1.000000	1.050440	7.36544e+06	-40639.1	955.817	-29789.9	0.000000	0.000000	7.051218	1.246456	NaN	0.000000	0.001585	0.001713	28.0891	1.158708	0.001901	609.625	13.88	-168.662	0.815506	1.049106	-0.024176	-0.025510	1.246456	609.625	-0.025710	-0.017609	-70.7834	NaN
40	1.000000	1.058475	7.36544e+06	-40639.1	955.816	-29789.9	0.000000	0.000000	7.059287	2.071454	NaN	0.000000	0.001637	0.001735	28.0903	1.405644	0.001950	720.691	17.4211	-169.482	1.977717	1.057136	-0.016142	-0.017481	2.071454	720.691	-0.018297	-0.011362	-182.313	NaN
40	1.000000	1.066429	7.36544e+06	-40639.1	955.818	-29789.9	0.000000	0.000000	7.067287	3.194917	NaN	0.000000	0.001650	0.001727	28.0894	1.676404	0.001994	840.907	11.6378	-165.711	2.873511	1.065139	-0.008188	-0.009477	3.194917	840.907	-0.011037	-0.006979	-457.769	NaN
40	1.000000	1.074450	7.36544e+06	-40639.1	955.818	-29789.9	0.000000	0.000000	7.075399	5.389494	NaN	0.000000	0.001645	0.001743	28.0902	2.083114	0.001909	1091.16	8.826842	-168.101	4.795758	1.073151	-0.000166	-0.001465	5.389494	1091.16	-0.003870	-0.002695	-1999.97	NaN
40	2.000000	1.081904	7.36544e+06	-40639.1	955.819	-29789.9	0.000000	0.000000	7.083025	9.585120	NaN	0.000000	0.001598	0.001730	28.0899	3.081005	0.001921	1603.89	9.210315	-169.24	9.283018	1.081052	0.007287	0.006435	9.585120	1603.89	0.002805	0.002217	4324.23	31124.5
40	2.000000	1.084036	7.36544e+06	-40639.1	955.818	-29789.9	0.000000	0.000000	7.085203	10.7071	NaN	0.000000	0.001645	0.001714	28.0906	3.384897	0.001860	1820.11	4.887675	-168.773	10.4118	1.083720	0.009419	0.009103	10.7071	1820.11	0.005007	0.004140	2586.28	25844.7
40	2.000000	1.086010	7.36544e+06	-40639.1	955.816	-29789.9	0.000000	0.000000	7.087232	12.0326	NaN	0.000000	0.001613	0.001743	28.0913	3.748156	0.001928	1944.34	5.443297	-167.907	11.8382	1.085753	0.011394	0.011136	12.0326	1944.34	0.006753	0.005790	2078.04	23344.9
40	2.000000	1.087985	7.36544e+06	-40639.1	955.818	-29789.9	0.000000	0.000000	7.089266	13.4731	NaN	0.000000	0.001615	0.001719	28.0897	4.134458	0.001940	2130.88	11.012	-174.492	13.1631	1.087698	0.013368	0.013082	13.4731	2130.88	0.008626	0.007694	1751.01	22194.4
40	2.000000	1.090001	7.36544e+06	-40639.1	955.818	-29789.9	0.000000	0.000000	7.091328	14.6026	NaN	0.000000	0.001632	0.001718	28.0907	4.292443	0.002000	2146.54	6.305172	-169.147	14.5168	1.089716	0.015384	0.015100	14.6026	2146.54	0.010282	0.009497	1537.62	20124.4
40	2.000000	1.091985	7.36544e+06	-40639.1	955.818	-29789.9	0.000000	0.000000	7.093364	15.8498	NaN	0.000000	0.001647	0.001724	28.0908	4.440883	0.001971	2253.19	4.966953	-168.212	15.7019	1.091712	0.017369	0.017095	15.8498	2253.19	0.012093	0.011601	1366.19	19112.4
40	2.000000	1.093970	7.36544e+06	-40639.1	955.817	-29789.9	0.000000	0.000000	7.095388	16.8135	NaN	0.000000	0.001593	0.001735	28.0899	4.733944	0.001951	2426.02	5.767637	-169.051	16.6933	1.093644	0.019354	0.019027	16.8135	2426.02	0.014156	0.014176	1186.03	18615.9
40	2.000000	1.095967	7.36544e+06	-40639.1	955.817	-29789.9	0.000000	0.000000	7.097472	18.9407	NaN	0.000000	0.001626	0.001721	28.0901	5.975635	0.001978	3021.77	9.134774	-172.961	18.7365	1.095665	0.021350	0.021049	18.9407	3021.77	0.016649	0.017548	1079.36	20841.1
40	2.000000	1.097954	7.36544e+06	-40639.1	955.818	-29789.9	0.000000	0.000000	7.099596	22.2383	NaN	0.000000	0.001692	0.001719	28.0912	8.423672	0.001884	4470.02	6.719143	-172.382	21.6912	1.097628	0.023338	0.023012	22.2383	4470.02	0.019607	0.021928	1014.14	27579.1
40	2.000000	1.099956	7.36544e+06	-40639.1	955.819	-29789.9	0.000000	0.000000	7.101025	8.308157	NaN	0.000000	0.001679	0.001708	28.091	8.700437	0.001707	5096.38	4.667946	-171.065	7.796248	1.099638	0.025340	0.025021	8.308157	5096.38	0.024117	0.029429	282.309	27142.2
40	2.000000	1.101959	7.36544e+06	-40639.1	955.819	-29789.9	0.000000	0.000000	7.103197	12.4133	NaN	0.000000	0.001619	0.001767	28.0903	11.4404	0.001889	6056.89	8.939814	-175.585	11.9051	1.101601	0.027343	0.026985	12.4133	6056.89	0.025806	0.032498	381.97	30696.8
40	2.000000	1.103920	7.36544e+06	-40639.1	955.818	-29789.9	0.000000	0.000000	7.105376	17.7393	NaN	0.000000	0.001619	0.001792	28.0917	13.054	0.001683	7756.5	5.986464	-175.315	16.9591	1.103577	0.029303	0.028960	17.7393	7756.5	0.027588	0.035893	494.228	37405.4
40	2.000000	1.105937	7.36544e+06	-40639.1	955.819	-29789.9	0.000000	0.000000	7.107571	22.059	NaN	0.000000	0.001629	0.001791	28.0909	15.1123	0.001809	8355.65	8.776544	-176.517	21.7545	1.105564	0.031321	0.030948	22.059	8355.65	0.029341	0.039388	560.043	38465.5
40	2.000000	1.107966	7.36544e+06	-40639.1	955.818	-29789.9	0.000000	0.000000	7.109756	25.8437	NaN	0.000000	0.001629	0.001796	28.0893	17.3347	0.001803	9616.96	5.270949	-174.536	25.2267	1.107602	0.033350	0.032985	25.8437	9616.96	0.031334	0.043555	593.359	42101.1
40	2.000000	1.109921	7.36544e+06	-40639.1	955.819	-29789.9	0.000000	0.000000	7.111844	29.1122	NaN	0.000000	0.001647	0.001766	28.0897	18.6735	0.001616	11558.8	4.893669	-176.969	28.9351	1.109554	0.035304	0.034938	29.1122	11558.8	0.033415	0.048120	604.987	48141.6
40	2.000000	1.111905	7.36544e+06	-40639.1	955.818	-29789.9	0.000000	0.000000	7.113983	32.8568	NaN	0.000000	0.001679	0.001732	28.0897	21.1988	0.001793	11820.6	7.374369	-178.351	32.9171	1.111657	0.037289	0.037041	32.8568	11820.6	0.035204	0.052222	629.178	47259.3
40	2.000000	1.113963	7.36544e+06	-40639.1	955.818	-29789.9	0.000000	0.000000	7.116226	37.3553	NaN	0.000000	0.001657	0.001741	28.0903	23.1699	0.001655	14000	3.772668	-177.611	37.4481	1.113612	0.039347	0.038996	37.3553	14000	0.037346	0.057349	651.365	53411.8
40	2.000000	1.115902	7.36544e+06	-40639.1	955.818	-29789.9	0.000000	0.000000	7.118440	44.0451	NaN	0.000000	0.001623	0.001781	28.0902	26.0456	0.001691	15401.5	6.480835	178.597	42.3811	1.115574	0.041286	0.040958	44.0451	15401.5	0.039141	0.061828	712.384	56590.7
40	2.000000	1.117916	7.36544e+06	-40639.1	955.818	-29789.9	0.000000	0.000000	7.120734	50.8716	NaN	0.000000	0.001605	0.001783	28.0896	28.6881	0.001720	16681.6	5.656464	178.917	48.8906	1.117561	0.043300	0.042944	50.8716	16681.6	0.041012	0.066671	763.022	59025.8
40	2.000000	1.119931	7.36544e+06	-40639.1	955.818	-29789.9	0.000000	0.000000	7.123006	57.135	NaN	0.000000	0.001605	0.001792	28.0895	30.4192	0.001803	16873.8	4.467826	-179.824	57.2459	1.119641	0.045315	0.045025	57.135	16873.8	0.042775	0.071397	800.245	57696
40	2.000000	1.121897	7.36544e+06	-40639.1	955.819	-29789.9	0.000000	0.000000	7.125351	66.3555	NaN	0.000000	0.001632	0.001789	28.0902	32.7411	0.001734	18876.9	2.725705	-178.776	65.9349	1.121564	0.047281	0.046947	66.3555	18876.9	0.044644	0.076581	866.473	62322.4
40	2.000000	1.123873	7.36544e+06	-40639.1	955.818	-29789.9	0.000000	0.000000	7.127741	76.4456	NaN	0.000000	0.001658	0.001782	28.0892	33.5781	0.001667	20137.7	1.240950	-178.495	74.3444	1.123660	0.049256	0.049043	76.4456	20137.7	0.046409	0.081638	936.398	64392.8
40	2.000000	1.125869	7.36544e+06	-40639.1	955.819	-29789.9	0.000000	0.000000	7.130138	86.1785	NaN	0.000000	0.001578	0.001761	28.0889	37.2723	0.001626	22925.4	4.677274	177.259	85.0344	1.125567	0.051253	0.050951	86.1785	22925.4	0.048434	0.087634	983.396	70754.6
40	2.000000	1.127943	7.36544e+06	-40639.1	955.819	-29789.9	0.000000	0.000000	7.132722	98.5904	NaN	0.000000	0.001604	0.001733	28.088	40.1818	0.001761	22819.5	7.499048	174.659	96.8984	1.127531	0.053327	0.052914	98.5904	22819.5	0.050087	0.092682	1063.75	68482.9
40	2.000000	1.129875	7.36544e+06	-40639.1	955.819	-29789.9	0.000000	0.000000	7.135185	111.5	NaN	0.000000	0.001621	0.001750	28.0886	41.7151	0.001740	23972.9	3.715055	177.167	109.256	1.129564	0.055259	0.054948	111.5	23972.9	0.051771	0.097965	1138.17	69977.6
40	2.000000	1.131916	7.36544e+06	-40639.1	955.819	-29789.9	0.000000	0.000000	7.137633	121.418	NaN	0.000000	0.001639	0.001745	28.0882	44.7159	0.001818	24598.8	5.754214	175.837	120.2	1.131552	0.057300	0.056936	121.418	24598.8	0.053598	0.103858	1169.08	69737.7
40	2.000000	1.133906	7.36544e+06	-40639.1	955.819	-29789.9	0.000000	0.000000	7.140116	133.403	NaN	0.000000	0.001582	0.001751	28.0887	45.5831	0.001668	27325.4	5.800269	174.315	133.815	1.133611	0.059290	0.058994	133.403	27325.4	0.055629	0.110601	1206.16	75068.9
40	2.000000	1.135826	7.36544e+06	-40639.1	955.819	-29789.9	0.000000	0.000000	7.142646	148.258	NaN	0.000000	0.001585	0.001756	28.0891	49.2354	0.001981	24856.8	7.085681	174.247	144.514	1.135522	0.061210	0.060905	148.258	24856.8	0.056736	0.114366	1296.35	67153.7
40	2.000000	1.137890	7.36544e+06	-40639.1	955.82	-29789.9	0.000000	0.000000	7.145087	157.416	NaN	0.000000	0.001626	0.001763	28.0885	50.2458	0.001856	27065.8	4.380127	176.135	156.058	1.137570	0.063274	0.062953	157.416	27065.8	0.058912	0.121936	1290.97	70815.3
40	2.000000	1.139951	7.36544e+06	-40639.1	955.818	-29789.9	0.000000	0.000000	7.147616	168.826	NaN	0.000000	0.001582	0.001742	28.089	51.1575	0.001813	28211.1	4.421170	175.063	170.517	1.139632	0.065334	0.065015	168.826	28211.1	0.060846	0.128859	1310.16	71801.8
40	2.000000	1.141840	7.36544e+06	-40639.1	955.818	-29789.9	0.000000	0.000000	7.150242	186.737	NaN	0.000000	0.001639	0.001702	28.0894	53.7854	0.001771	30370.1	4.874965	174.076	184.899	1.141624	0.067224	0.067008	186.737	30370.1	0.062612	0.135343	1379.73	75422.7
40	2.000000	1.143876	7.36544e+06	-40639.1	955.818	-29789.9	0.000000	0.000000	7.153126	207.37	NaN	0.000000	0.001604	0.001739	28.0888	55.2365	0.001803	30635.9	8.507072	170.951	206.087	1.143542	0.069260	0.068926	207.37	30635.9	0.064184	0.141236	1468.25	74478.6
40	2.000000	1.145769	7.36544e+06	-40639.1	955.818	-29789.9	0.000000	0.000000	7.155195	211.662	NaN	0.000000	0.001574	0.001706	28.0889	57.9939	0.001793	32349.7	3.036797	175.92	205.761	1.145544	0.071153	0.070927	211.662	32349.7	0.066246	0.149153	1419.1	76529.4
40	2.000000	1.147929	7.36544e+06	-40639.1	955.818	-29789.9	0.000000	0.000000	7.157958	226.35	NaN	0.000000	0.001581	0.001748	28.0886	59.7672	0.001820	32834.5	6.055497	174.16	226.852	1.147463	0.073312	0.072847	226.35	32834.5	0.068142	0.156612	1445.29	75803.8
40	2.000000	1.149852	7.36544e+06	-40639.1	955.817	-29789.9	0.000000	0.000000	7.160543	242.443	NaN	0.000000	0.001552	0.001723	28.0888	61.3769	0.001841	33339.2	2.498504	175.849	240.838	1.149507	0.075236	0.074891	242.443	33339.2	0.069782	0.163201	1485.55	75399.4
40	2.000000	1.151885	7.36544e+06	-40639.1	955.818	-29789.9	0.000000	0.000000	7.163088	254.902	NaN	0.000000	0.001596	0.001750	28.0891	64.0353	0.001836	34882.7	4.724914	173.019	253.467	1.151559	0.077269	0.076943	254.902	34882.7	0.071788	0.171438	1486.85	76971.6
40	2.000000	1.153807	7.36544e+06	-40639.1	955.818	-29789.9	0.000000	0.000000	7.165729	272.4	NaN	0.000000	0.001586	0.001723	28.0894	65.1521	0.001757	37091.2	6.649772	170.943	267.981	1.153491	0.079190	0.078874	272.4	37091.2	0.073682	0.179389	1518.49	80010.3
40	2.000000	1.155827	7.36544e+06	-40639.1	955.819	-29789.9	0.000000	0.000000	7.168433	289.068	NaN	0.000000	0.001584	0.001748	28.0882	66.3493	0.001667	39804.4	4.420324	172.669	285.113	1.155407	0.081210	0.080791	289.068	39804.4	0.075764	0.188321	1534.98	83802.3
40	2.000000	1.157824	7.36544e+06	-40639.1	955.818	-29789.9	0.000000	0.000000	7.171293	310.049	NaN	0.000000	0.001582	0.001723	28.09	69.5394	0.001747	39813.3	5.283785	172.985	305.851	1.157421	0.083208	0.082804	310.049	39813.3	0.077367	0.195340	1587.23	82301
40	2.000000	1.159829	7.36544e+06	-40639.1	955.818	-29789.9	0.000000	0.000000	7.173856	323.614	NaN	0.000000	0.001622	0.001738	28.0898	71.7942	0.001821	39424.5	6.602312	170.791	319.962	1.159428	0.085213	0.084812	323.614	39424.5	0.079057	0.202867	1595.2	79971.2
40	2.000000	1.161829	7.36544e+06	-40639.1	955.818	-29789.9	0.000000	0.000000	7.176509	339.519	NaN	0.000000	0.001610	0.001742	28.0905	73.8735	0.001840	40138.8	5.648658	170.774	335.721	1.161534	0.087212	0.086918	339.519	40138.8	0.080868	0.211087	1608.43	79819
40	2.000000	1.163778	7.36544e+06	-40639.1	955.819	-29789.9	0.000000	0.000000	7.179434	363.263	NaN	0.000000	0.001592	0.001737	28.0901	73.2856	0.001662	44105.9	5.124055	171.288	359.394	1.163492	0.089162	0.088876	363.263	44105.9	0.082985	0.220882	1644.6	85741.4
40	2.000000	1.165851	7.36544e+06	-40639.1	955.818	-29789.9	0.000000	0.000000	7.181883	372.415	NaN	0.000000	0.001617	0.001744	28.0909	76.3716	0.001872	40788.7	5.799684	171.285	373.156	1.165636	0.091235	0.091019	372.415	40788.7	0.084387	0.227487	1637.08	78133.1
40	2.000000	1.167835	7.36544e+06	-40639.1	955.819	-29789.9	0.000000	0.000000	7.184559	389.257	NaN	0.000000	0.001592	0.001733	28.0891	78.0583	0.001825	42767.7	5.826755	170.896	386.427	1.167608	0.093219	0.092992	389.257	42767.7	0.086392	0.237088	1641.83	80248.1
40	2.000000	1.169772	7.36544e+06	-40639.1	955.818	-29789.9	0.000000	0.000000	7.187854	422.309	NaN	0.000000	0.001586	0.001740	28.0886	78.3006	0.001721	45502.3	3.007920	173.153	416.833	1.169453	0.095155	0.094837	422.309	45502.3	0.088195	0.245877	1717.56	83839.4
40	2.000000	1.171721	7.36544e+06	-40639.1	955.819	-29789.9	0.000000	0.000000	7.189907	424.83	NaN	0.000000	0.001654	0.001787	28.0891	80.0775	0.001747	45849.7	3.088291	173.378	417.25	1.171399	0.097105	0.096783	424.83	45849.7	0.090155	0.255607	1662.04	82855.8
40	2.000000	1.173918	7.36544e+06	-40639.1	955.819	-29789.9	0.000000	0.000000	7.193213	451.797	NaN	0.000000	0.001587	0.001737	28.0885	82.8457	0.001876	44160.1	9.518400	168.059	454.471	1.173423	0.099302	0.098807	451.797	44160.1	0.091629	0.263035	1717.63	78667.6
40	2.000000	1.175686	7.36544e+06	-40639.1	955.818	-29789.9	0.000000	0.000000	7.195621	467.385	NaN	0.000000	0.001645	0.001727	28.0892	83.9346	0.001804	46520.4	5.076584	171.139	458.173	1.175421	0.101069	0.100804	467.385	46520.4	0.093534	0.272788	1713.36	81377.5
40	2.000000	1.177853	7.36544e+06	-40639.1	955.819	-29789.9	0.000000	0.000000	7.198630	487.884	NaN	0.000000	0.001635	0.001763	28.0906	86.1331	0.001783	48317.5	4.617440	171.748	487.124	1.177492	0.103236	0.102876	487.884	48317.5	0.095663	0.283882	1718.61	82853.1
40	2.000000	1.179939	7.36544e+06	-40639.1	955.819	-29789.9	0.000000	0.000000	7.201437	505.422	NaN	0.000000	0.001613	0.001725	28.0915	88.0457	0.001800	48916.1	6.867237	169.102	509.377	1.179558	0.105322	0.104942	505.422	48916.1	0.097573	0.294010	1719.06	82422.1
40	2.000000	1.180375	7.36544e+06	-40639.1	955.82	-29789.9	0.000000	0.000000	7.201885	505.727	NaN	0.000000	0.001619	0.001722	28.1304	87.0762	0.001753	49666.3	0.529248	-4.651292	503.476	1.180081	0.105758	0.105465	505.727	49666.3	0.098121	0.296948	1703.08	83271.2