File: remote_trans/data/nanoindenter/0828-1/data/Data_2025-08-06,11h17m57s/2025-07-22_16-23-58_1_804.txt
2025-07-22, 16:23:58, 1
Index	Phase	Displacement	Time	Pos X	Pos Y	Pos Z	Rot A	Rot B	Piezo Z	Force A	Force B	Gripper	Voltage A	Voltage B	Temperature	Amplitude force	Amplitude pos	Stiffness	Phase shift	Phase excitation	Force A raw	Displacement raw	HMax	HMax raw	Real Force	Real Stiffness	Contact Depth	Area	Hardness	Reduced Mod.
[#]	[#]	[um]	[s]	[um]	[um]	[um]	[m°]	[m°]	[um]	[uN]	[uN]	[V]	[V]	[V]	[°C]	[uN]	[um]	[N/m]	[°]	[°]	[uN]	[um]	[um]	[um]	[uN]	[N/m]	[um]	[um^2]	[MPa]	[MPa]
804	1.000000	0.001989	7.37292e+06	-40339.1	1055.82	-29790.4	0.000000	0.000000	6.002815	-0.028440	NaN	0.000000	0.001615	0.001755	28.083	0.044342	0.000874	50.7194	99.3829	-168.482	-0.034843	0.000722	-1.079788	-1.081055	-0.028440	50.7194	-1.079368	-2.648676E+14	1.073742E-16	NaN
804	1.000000	0.009920	7.37292e+06	-40339.1	1055.82	-29790.4	0.000000	0.000000	6.010746	-0.039425	NaN	0.000000	0.001627	0.001734	28.083	0.035020	0.000856	40.9002	-110.361	-160.465	-0.052200	0.008609	-1.071857	-1.073168	-0.039425	40.9002	-1.071134	-2.053184E+14	1.920199E-16	NaN
804	1.000000	0.017941	7.37292e+06	-40339.1	1055.82	-29790.4	0.000000	0.000000	6.018764	-0.119514	NaN	0.000000	0.001664	0.001747	28.0829	0.046418	0.001739	26.6867	-141.811	-170.903	-0.086648	0.016605	-1.063835	-1.065172	-0.119514	26.6867	-1.060477	-1.476479E+14	8.094523E-16	NaN
804	1.000000	0.025968	7.37292e+06	-40339.1	1055.82	-29790.4	0.000000	0.000000	6.026794	-0.037726	NaN	0.000000	0.001651	0.001762	28.0832	0.014174	0.001813	7.819694	34.0555	-167.012	0.006803	0.024678	-1.055809	-1.057099	-0.037726	7.819694	-1.052191	-1.142518E+14	3.302011E-16	NaN
804	1.000000	0.033920	7.37292e+06	-40339.1	1055.82	-29790.4	0.000000	0.000000	6.034745	-0.054848	NaN	0.000000	0.001644	0.001766	28.083	0.030325	0.002011	15.08	174.729	-165.137	-0.018070	0.032614	-1.047857	-1.049163	-0.054848	15.08	-1.045129	-9.181908E+13	5.973462E-16	NaN
804	1.000000	0.041932	7.37292e+06	-40339.1	1055.82	-29790.4	0.000000	0.000000	6.042760	-0.002510	NaN	0.000000	0.001629	0.001763	28.0831	0.118157	0.002119	55.7577	109.135	-166.972	0.042775	0.040627	-1.039845	-1.041150	-0.002510	55.7577	-1.039811	-7.788045E+13	3.222741E-17	NaN
804	1.000000	0.049919	7.37292e+06	-40339.1	1055.82	-29790.4	0.000000	0.000000	6.050747	-0.002376	NaN	0.000000	0.001627	0.001747	28.0827	0.030621	0.001836	16.6823	111.581	-168.425	0.043257	0.048609	-1.031858	-1.033168	-0.002376	16.6823	-1.031751	-6.067823E+13	3.915166E-17	NaN
804	1.000000	0.057927	7.37292e+06	-40339.1	1055.82	-29790.4	0.000000	0.000000	6.058751	-0.089929	NaN	0.000000	0.001627	0.001765	28.083	0.078280	0.001934	40.4859	43.7636	-167.877	-0.059465	0.056570	-1.023850	-1.025207	-0.089929	40.4859	-1.022184	-4.511716E+13	1.993241E-15	NaN
804	1.000000	0.065950	7.37292e+06	-40339.1	1055.82	-29790.4	0.000000	0.000000	6.066775	-0.067028	NaN	0.000000	0.001624	0.001765	28.0828	0.151618	0.001918	79.045	140.175	-164.782	-0.146997	0.064604	-1.015827	-1.017173	-0.067028	79.045	-1.015191	-3.632856E+13	1.845040E-15	NaN
804	1.000000	0.073971	7.37292e+06	-40339.1	1055.82	-29790.4	0.000000	0.000000	6.074796	-0.065850	NaN	0.000000	0.001627	0.001772	28.0831	0.085618	0.002086	41.0379	126.827	-163.863	0.014789	0.072596	-1.007806	-1.009181	-0.065850	41.0379	-1.006602	-2.783870E+13	2.365397E-15	NaN
804	1.000000	0.081914	7.37292e+06	-40339.1	1055.82	-29790.4	0.000000	0.000000	6.082740	-0.043011	NaN	0.000000	0.001650	0.001711	28.0829	0.038912	0.002030	19.1667	86.8039	-163.746	-0.004555	0.080600	-0.999863	-1.001177	-0.043011	19.1667	-0.998180	-2.144189E+13	2.005945E-15	NaN
804	1.000000	0.089945	7.37292e+06	-40339.1	1055.82	-29790.4	0.000000	0.000000	6.090770	-0.064433	NaN	0.000000	0.001644	0.001720	28.083	0.102394	0.001940	52.7792	-14.0226	-164.615	-0.065409	0.088632	-0.991832	-0.993145	-0.064433	52.7792	-0.990917	-1.711810E+13	3.764001E-15	NaN
804	1.000000	0.097929	7.37292e+06	-40339.1	1055.82	-29790.4	0.000000	0.000000	6.098755	-0.044075	NaN	0.000000	0.001618	0.001728	28.083	0.108118	0.001941	55.7007	-172.463	-171.2	-0.034920	0.096621	-0.983848	-0.985156	-0.044075	55.7007	-0.983255	-1.349766E+13	3.265345E-15	NaN
804	1.000000	0.105943	7.37292e+06	-40339.1	1055.82	-29790.4	0.000000	0.000000	6.106769	-0.033134	NaN	0.000000	0.001672	0.001712	28.0819	0.055168	0.002052	26.8878	-40.2986	-163.945	-0.037832	0.104621	-0.975834	-0.977156	-0.033134	26.8878	-0.974910	-1.041897E+13	3.180140E-15	NaN
804	1.000000	0.113936	7.37292e+06	-40339.1	1055.82	-29790.4	0.000000	0.000000	6.114760	-0.086076	NaN	0.000000	0.001647	0.001689	28.0819	0.076111	0.002138	35.6029	-35.84	-166.251	-0.114182	0.112645	-0.967841	-0.969132	-0.086076	35.6029	-0.966028	-7.909112E+12	1.088312E-14	NaN
804	1.000000	0.121940	7.37292e+06	-40339.1	1055.82	-29790.4	0.000000	0.000000	6.122767	-0.038775	NaN	0.000000	0.001628	0.001694	28.0815	0.162190	0.002154	75.309	154.441	-166.47	-0.047200	0.120625	-0.959837	-0.961152	-0.038775	75.309	-0.959450	-6.448508E+12	6.013018E-15	NaN
804	1.000000	0.129934	7.37292e+06	-40339.1	1055.82	-29790.4	0.000000	0.000000	6.130760	-0.038119	NaN	0.000000	0.001667	0.001698	28.0818	0.137391	0.001981	69.3671	151.518	-165.844	-0.002882	0.128674	-0.951843	-0.953103	-0.038119	69.3671	-0.951431	-5.027166E+12	7.582529E-15	NaN
804	1.000000	0.137942	7.37292e+06	-40339.1	1055.82	-29790.4	0.000000	0.000000	6.138765	-0.112449	NaN	0.000000	0.001637	0.001721	28.0818	0.132518	0.001996	66.3919	170.036	-166.161	-0.039995	0.136653	-0.943835	-0.945124	-0.112449	66.3919	-0.942565	-3.817173E+12	2.945860E-14	NaN
804	1.000000	0.145960	7.37292e+06	-40339.1	1055.82	-29790.4	0.000000	0.000000	6.146786	-0.058400	NaN	0.000000	0.001598	0.001715	28.0816	0.010941	0.001993	5.490594	70.9571	-165.974	-0.086623	0.144603	-0.935817	-0.937174	-0.058400	5.490594	-0.927839	-2.415646E+12	2.417586E-14	NaN
804	1.000000	0.153965	7.37292e+06	-40339.1	1055.82	-29790.4	0.000000	0.000000	6.154790	-0.052368	NaN	0.000000	0.001610	0.001697	28.0821	0.128478	0.001991	64.5295	-144.098	-166.372	-0.015701	0.152701	-0.927812	-0.929076	-0.052368	64.5295	-0.927204	-2.368404E+12	2.211124E-14	NaN
804	1.000000	0.161954	7.37292e+06	-40339.1	1055.82	-29790.4	0.000000	0.000000	6.162780	-0.033066	NaN	0.000000	0.001629	0.001706	28.0816	0.024182	0.002008	12.0413	126.324	-165.488	-0.016162	0.160672	-0.919823	-0.921105	-0.033066	12.0413	-0.917763	-1.766071E+12	1.872318E-14	NaN
804	1.000000	0.169971	7.37292e+06	-40339.1	1055.82	-29790.4	0.000000	0.000000	6.170800	0.035109	NaN	0.000000	0.001632	0.001686	28.0816	0.059662	0.001960	30.437	0.796958	-168.531	-0.025502	0.168670	-0.911806	-0.913107	0.035109	30.437	-0.912671	-1.507437E+12	-2.329057E-14	NaN
804	1.000000	0.177966	7.37292e+06	-40339.1	1055.82	-29790.4	0.000000	0.000000	6.178791	-0.068933	NaN	0.000000	0.001655	0.001705	28.0817	0.120293	0.002115	56.8671	15.7467	-162.623	-0.050822	0.176676	-0.903811	-0.905101	-0.068933	56.8671	-0.902902	-1.112431E+12	6.196632E-14	NaN
804	1.000000	0.185953	7.37292e+06	-40339.1	1055.82	-29790.4	0.000000	0.000000	6.186781	-0.006761	NaN	0.000000	0.001615	0.001739	28.0816	0.081682	0.002038	40.0742	159.209	-167.335	-0.075899	0.184692	-0.895824	-0.897085	-0.006761	40.0742	-0.895697	-8.890392E+11	7.604412E-15	NaN
804	1.000000	0.193979	7.37292e+06	-40339.1	1055.82	-29790.4	0.000000	0.000000	6.194806	-0.008324	NaN	0.000000	0.001617	0.001689	28.0821	0.079647	0.001888	42.1941	-178.173	-166.079	-0.013085	0.192634	-0.887798	-0.889143	-0.008324	42.1941	-0.887650	-6.920680E+11	1.202822E-14	NaN
804	1.000000	0.201995	7.37292e+06	-40339.1	1055.82	-29790.4	0.000000	0.000000	6.202819	-0.089865	NaN	0.000000	0.001598	0.001719	28.0816	0.027829	0.001907	14.5945	41.636	-168.777	-0.031076	0.200656	-0.879782	-0.881121	-0.089865	14.5945	-0.875163	-4.691318E+11	1.915553E-13	NaN
804	1.000000	0.209990	7.37292e+06	-40339.1	1055.82	-29790.4	0.000000	0.000000	6.210816	-0.052049	NaN	0.000000	0.001594	0.001734	28.0817	0.148467	0.002031	73.1062	49.5989	-167.772	-0.028644	0.208673	-0.871787	-0.873104	-0.052049	73.1062	-0.871253	-4.153322E+11	1.253192E-13	NaN
804	1.000000	0.217942	7.37292e+06	-40339.1	1055.82	-29790.4	0.000000	0.000000	6.218766	-0.081465	NaN	0.000000	0.001569	0.001693	28.0816	0.035192	0.002120	16.6011	-83.2269	-165.623	0.002169	0.216662	-0.863835	-0.865115	-0.081465	16.6011	-0.860155	-2.939105E+11	2.771756E-13	NaN
804	1.000000	0.225979	7.37292e+06	-40339.1	1055.82	-29790.4	0.000000	0.000000	6.226809	0.040219	NaN	0.000000	0.001611	0.001686	28.0817	0.056597	0.002130	26.5701	-109.119	-166.173	-0.004552	0.224675	-0.855798	-0.857102	0.040219	26.5701	-0.856933	-2.658298E+11	-1.512946E-13	NaN
804	1.000000	0.233979	7.37292e+06	-40339.1	1055.82	-29790.4	0.000000	0.000000	6.234806	-0.035242	NaN	0.000000	0.001595	0.001708	28.082	0.033023	0.002027	16.2912	-157.698	-165.646	-0.046157	0.232684	-0.847798	-0.849093	-0.035242	16.2912	-0.846175	-1.900812E+11	1.854053E-13	NaN
804	1.000000	0.242021	7.37292e+06	-40339.1	1055.82	-29790.4	0.000000	0.000000	6.242849	0.024684	NaN	0.000000	0.001607	0.001696	28.0823	0.096131	0.002074	46.347	-40.9425	-169.279	0.060754	0.240672	-0.839756	-0.841105	0.024684	46.347	-0.840156	-1.575449E+11	-1.566786E-13	NaN
804	1.000000	0.249997	7.37292e+06	-40339.1	1055.82	-29790.4	0.000000	0.000000	6.250824	-0.025841	NaN	0.000000	0.001622	0.001727	28.0833	0.090459	0.001908	47.407	46.6977	-168.221	0.022517	0.248674	-0.831780	-0.833103	-0.025841	47.407	-0.831371	-1.197742E+11	2.157482E-13	NaN
804	1.000000	0.258025	7.37292e+06	-40339.1	1055.82	-29790.4	0.000000	0.000000	6.258854	0.027729	NaN	0.000000	0.001640	0.001720	28.083	0.070946	0.001931	36.7389	-5.991090	-163.586	0.009357	0.256697	-0.823751	-0.825080	0.027729	36.7389	-0.824318	-9.610677E+10	-2.885197E-13	NaN
804	1.000000	0.266022	7.37292e+06	-40339.1	1055.82	-29790.4	0.000000	0.000000	6.266848	-0.040285	NaN	0.000000	0.001626	0.001730	28.0829	0.039824	0.001972	20.1901	149.718	-167.164	-0.091961	0.264695	-0.815755	-0.817082	-0.040285	20.1901	-0.814258	-7.019994E+10	5.738614E-13	NaN
804	1.000000	0.274000	7.37292e+06	-40339.1	1055.82	-29790.4	0.000000	0.000000	6.274822	-0.143060	NaN	0.000000	0.001617	0.001753	28.083	0.061106	0.001986	30.7608	118.683	-166.139	-0.180763	0.272700	-0.807777	-0.809077	-0.143060	30.7608	-0.804289	-5.141313E+10	2.782558E-12	NaN
804	1.000000	0.282035	7.37292e+06	-40339.1	1055.82	-29790.4	0.000000	0.000000	6.282860	-0.061303	NaN	0.000000	0.001635	0.001730	28.0829	0.055090	0.002057	26.7805	151.964	-167.267	-0.163634	0.280667	-0.799742	-0.801110	-0.061303	26.7805	-0.798025	-4.227237E+10	1.450200E-12	NaN
804	1.000000	0.290017	7.37292e+06	-40339.1	1055.82	-29790.4	0.000000	0.000000	6.290845	0.020502	NaN	0.000000	0.001632	0.001738	28.0832	0.114173	0.002081	54.8733	-137.124	-161.75	0.040992	0.288658	-0.791760	-0.793119	0.020502	54.8733	-0.792041	-3.505872E+10	-5.847820E-13	NaN
804	1.000000	0.298045	7.37292e+06	-40339.1	1055.82	-29790.4	0.000000	0.000000	6.298872	-0.031685	NaN	0.000000	0.001657	0.001727	28.0832	0.072571	0.002021	35.9033	166.002	-165.941	-0.011748	0.296689	-0.783732	-0.785088	-0.031685	35.9033	-0.783070	-2.648150E+10	1.196492E-12	NaN
804	1.000000	0.306047	7.37292e+06	-40339.1	1055.82	-29790.4	0.000000	0.000000	6.306873	-0.050971	NaN	0.000000	0.001629	0.001744	28.0834	0.083367	0.002063	40.4035	-78.4536	-169.171	-0.068365	0.304741	-0.775730	-0.777036	-0.050971	40.4035	-0.774784	-2.043328E+10	2.494508E-12	NaN
804	1.000000	0.314044	7.37292e+06	-40339.1	1055.82	-29790.4	0.000000	0.000000	6.314872	0.006269	NaN	0.000000	0.001621	0.001741	28.0831	0.103978	0.001950	53.3088	-27.9624	-170.075	-0.062859	0.312675	-0.767733	-0.769102	0.006269	53.3088	-0.767822	-1.643181E+10	-3.814888E-13	NaN
804	1.000000	0.322058	7.37292e+06	-40339.1	1055.82	-29790.4	0.000000	0.000000	6.322885	-0.008152	NaN	0.000000	0.001596	0.001767	28.0832	0.060424	0.002085	28.9862	-166.422	-166.279	0.007308	0.320693	-0.759719	-0.761084	-0.008152	28.9862	-0.759508	-1.266515E+10	6.436583E-13	NaN
804	1.000000	0.330033	7.37292e+06	-40339.1	1055.82	-29790.4	0.000000	0.000000	6.330861	-0.004115	NaN	0.000000	0.001667	0.001761	28.0831	0.076219	0.002059	37.0112	-145.092	-166.336	0.009677	0.328738	-0.751744	-0.753039	-0.004115	37.0112	-0.751661	-9.904266E+9	4.154389E-13	NaN
804	1.000000	0.338053	7.37292e+06	-40339.1	1055.82	-29790.4	0.000000	0.000000	6.338881	0.012798	NaN	0.000000	0.001730	0.001742	28.0831	0.123978	0.001991	62.2598	-132.225	-168.469	-0.022908	0.336735	-0.743724	-0.745042	0.012798	62.2598	-0.743878	-7.760212E+9	-1.649242E-12	NaN
804	1.000000	0.346055	7.37292e+06	-40339.1	1055.82	-29790.4	0.000000	0.000000	6.346881	-0.054340	NaN	0.000000	0.001687	0.001713	28.0833	0.086909	0.002056	42.268	-64.5977	-168.688	-0.038397	0.344714	-0.735722	-0.737063	-0.054340	42.268	-0.734758	-5.829607E+9	9.321330E-12	NaN
804	1.000000	0.354028	7.37292e+06	-40339.1	1055.82	-29790.4	0.000000	0.000000	6.354856	0.004179	NaN	0.000000	0.001645	0.001751	28.0831	0.085814	0.002006	42.7829	109.219	-164.919	-0.011833	0.352752	-0.727749	-0.729025	0.004179	42.7829	-0.727823	-4.689529E+9	-8.911950E-13	NaN
804	1.000000	0.362026	7.37292e+06	-40339.1	1055.82	-29790.4	0.000000	0.000000	6.362849	-0.111685	NaN	0.000000	0.001607	0.001740	28.0832	0.100706	0.002023	49.7749	0.991833	-167.441	-0.097534	0.360799	-0.719751	-0.720978	-0.111685	49.7749	-0.718068	-3.452417E+9	3.234989E-11	NaN
804	1.000000	0.370068	7.37292e+06	-40339.1	1055.82	-29790.4	0.000000	0.000000	6.370889	-0.142024	NaN	0.000000	0.001630	0.001755	28.083	0.044467	0.001980	22.4623	26.115	-167.215	-0.181065	0.368710	-0.711709	-0.713067	-0.142024	22.4623	-0.706967	-2.435893E+9	5.830475E-11	NaN
804	1.000000	0.378076	7.37292e+06	-40339.1	1055.82	-29790.4	0.000000	0.000000	6.378904	0.009606	NaN	0.000000	0.001668	0.001722	28.0824	0.016178	0.001987	8.142435	87.8106	-165.595	-0.012579	0.376782	-0.703701	-0.704995	0.009606	8.142435	-0.704585	-2.260175E+9	-4.249904E-12	NaN
804	1.000000	0.386064	7.37292e+06	-40339.1	1055.82	-29790.4	0.000000	0.000000	6.386891	-0.026891	NaN	0.000000	0.001623	0.001773	28.0817	0.067856	0.002026	33.488	177.755	-168.076	-0.111497	0.384746	-0.695713	-0.697031	-0.026891	33.488	-0.695110	-1.677820E+9	1.602754E-11	NaN
804	1.000000	0.394068	7.37292e+06	-40339.1	1055.82	-29790.4	0.000000	0.000000	6.394896	0.016075	NaN	0.000000	0.001595	0.001776	28.0816	0.093197	0.002045	45.5662	101.791	-165.925	0.030055	0.392739	-0.687709	-0.689038	0.016075	45.5662	-0.687974	-1.340378E+9	-1.199306E-11	NaN
804	1.000000	0.402061	7.37292e+06	-40339.1	1055.82	-29790.4	0.000000	0.000000	6.402888	-0.013982	NaN	0.000000	0.001639	0.001727	28.0816	0.046419	0.002090	22.2149	26.9256	-163.563	0.006887	0.400747	-0.679716	-0.681030	-0.013982	22.2149	-0.679244	-1.018286E+9	1.373067E-11	NaN
804	1.000000	0.410084	7.37292e+06	-40339.1	1055.82	-29790.4	0.000000	0.000000	6.410911	-0.034940	NaN	0.000000	0.001672	0.001746	28.0816	0.175047	0.002106	83.1272	117.863	-165.583	-0.147338	0.408710	-0.671693	-0.673067	-0.034940	83.1272	-0.671377	-7.947682E+8	4.396274E-11	NaN
804	1.000000	0.418101	7.37292e+06	-40339.1	1055.82	-29790.4	0.000000	0.000000	6.418926	-0.059725	NaN	0.000000	0.001631	0.001753	28.0816	0.104685	0.002015	51.9472	-146.38	-163.221	-0.060634	0.416762	-0.663676	-0.665015	-0.059725	51.9472	-0.662814	-6.067412E+8	9.843539E-11	NaN
804	1.000000	0.426084	7.37292e+06	-40339.1	1055.82	-29790.4	0.000000	0.000000	6.426909	-0.064625	NaN	0.000000	0.001644	0.001734	28.0821	0.035173	0.001949	18.0425	-85.4292	-166.619	0.003395	0.424784	-0.655693	-0.656993	-0.064625	18.0425	-0.653007	-4.452947E+8	1.451289E-10	NaN
804	1.000000	0.434091	7.37292e+06	-40339.1	1055.82	-29790.4	0.000000	0.000000	6.434917	-0.036931	NaN	0.000000	0.001675	0.001755	28.0814	0.080184	0.002002	40.0515	25.9221	-167.426	-0.066615	0.432747	-0.647686	-0.649030	-0.036931	40.0515	-0.646995	-3.683259E+8	1.002665E-10	NaN
804	1.000000	0.442087	7.37292e+06	-40339.1	1055.82	-29790.4	0.000000	0.000000	6.442913	-0.042993	NaN	0.000000	0.001651	0.001714	28.0823	0.012063	0.001976	6.103257	68.1848	-168.215	-0.057883	0.440796	-0.639690	-0.640981	-0.042993	6.103257	-0.634407	-2.474744E+8	1.737260E-10	NaN
804	1.000000	0.450095	7.37292e+06	-40339.1	1055.82	-29790.4	0.000000	0.000000	6.450920	-0.065822	NaN	0.000000	0.001663	0.001761	28.0814	0.068155	0.002111	32.2792	144.345	-166.204	-0.068531	0.448748	-0.631682	-0.633029	-0.065822	32.2792	-0.630153	-2.163328E+8	3.042608E-10	NaN
804	1.000000	0.458097	7.37292e+06	-40339.1	1055.82	-29790.4	0.000000	0.000000	6.458923	-0.039962	NaN	0.000000	0.001643	0.001746	28.0813	0.111681	0.001999	55.8648	104	-169.348	-0.008009	0.456766	-0.623680	-0.625011	-0.039962	55.8648	-0.623144	-1.733155E+8	2.305755E-10	NaN
804	1.000000	0.466099	7.37292e+06	-40339.1	1055.82	-29790.4	0.000000	0.000000	6.466924	-0.055580	NaN	0.000000	0.001634	0.001740	28.0815	0.043694	0.002142	20.396	-117.384	-165.909	-0.104969	0.464778	-0.615678	-0.616999	-0.055580	20.396	-0.613634	-1.282646E+8	4.333221E-10	NaN
804	1.000000	0.474077	7.37292e+06	-40339.1	1055.82	-29790.4	0.000000	0.000000	6.474902	-0.070686	NaN	0.000000	0.001643	0.001721	28.0813	0.075449	0.001903	39.6481	-119.686	-165.963	-0.107836	0.472820	-0.607700	-0.608957	-0.070686	39.6481	-0.606363	-1.018748E+8	6.938549E-10	NaN
804	1.000000	0.482121	7.37292e+06	-40339.1	1055.82	-29790.4	0.000000	0.000000	6.482946	-0.073394	NaN	0.000000	0.001659	0.001714	28.0818	0.115092	0.002071	55.5764	138.138	-168.526	-0.049016	0.480816	-0.599656	-0.600961	-0.073394	55.5764	-0.598665	-7.981349E+7	9.195667E-10	NaN
804	1.000000	0.490144	7.37292e+06	-40339.1	1055.82	-29790.4	0.000000	0.000000	6.490971	-0.022375	NaN	0.000000	0.001645	0.001697	28.0815	0.091725	0.002143	42.8019	-87.2937	-164.907	-0.052516	0.488797	-0.591633	-0.592980	-0.022375	42.8019	-0.591240	-6.306189E+7	3.548128E-10	NaN
804	1.000000	0.498126	7.37292e+06	-40339.1	1055.82	-29790.4	0.000000	0.000000	6.498954	0.024987	NaN	0.000000	0.001661	0.001700	28.0818	0.065732	0.001969	33.3792	170.055	-167.211	0.030247	0.496750	-0.583651	-0.585027	0.024987	33.3792	-0.584213	-5.044949E+7	-4.952943E-10	NaN
804	1.000000	0.506133	7.37292e+06	-40339.1	1055.82	-29790.4	0.000000	0.000000	6.506958	-0.072662	NaN	0.000000	0.001639	0.001724	28.0816	0.082660	0.001902	43.4674	11.1736	-166.358	-0.024154	0.504781	-0.575644	-0.576996	-0.072662	43.4674	-0.574390	-3.692113E+7	1.968028E-9	NaN
804	1.000000	0.514106	7.37292e+06	-40339.1	1055.82	-29790.4	0.000000	0.000000	6.514932	-0.026967	NaN	0.000000	0.001629	0.001705	28.0817	0.101886	0.002163	47.11	-55.7202	-167.62	-0.069055	0.512805	-0.567671	-0.568972	-0.026967	47.11	-0.567242	-2.941134E+7	9.169034E-10	NaN
804	1.000000	0.522107	7.37292e+06	-40339.1	1055.82	-29790.4	0.000000	0.000000	6.522933	-0.044479	NaN	0.000000	0.001622	0.001699	28.0828	0.026144	0.001908	13.7002	-103.757	-166.42	-0.019308	0.520841	-0.559670	-0.560936	-0.044479	13.7002	-0.557235	-2.138550E+7	2.079873E-9	NaN
804	1.000000	0.530113	7.37292e+06	-40339.1	1055.82	-29790.4	0.000000	0.000000	6.530940	-0.024777	NaN	0.000000	0.001630	0.001721	28.0832	0.011529	0.001947	5.921582	-104.999	-163.445	-0.072842	0.528860	-0.551664	-0.552917	-0.024777	5.921582	-0.548526	-1.620073E+7	1.529346E-9	NaN
804	1.000000	0.538123	7.37292e+06	-40339.1	1055.82	-29790.4	0.000000	0.000000	6.538948	-0.059220	NaN	0.000000	0.001622	0.001745	28.0834	0.050856	0.002160	23.5442	-116.817	-166.162	0.003530	0.536815	-0.543654	-0.544962	-0.059220	23.5442	-0.541768	-1.305781E+7	4.535256E-9	NaN
804	1.000000	0.546143	7.37292e+06	-40339.1	1055.82	-29790.4	0.000000	0.000000	6.546969	-0.029682	NaN	0.000000	0.001633	0.001685	28.0828	0.037991	0.002018	18.8283	9.980395	-166.572	0.047537	0.544859	-0.535634	-0.536918	-0.029682	18.8283	-0.534452	-1.033676E+7	2.871500E-9	NaN
804	1.000000	0.554099	7.37292e+06	-40339.1	1055.82	-29790.4	0.000000	0.000000	6.554924	-0.059986	NaN	0.000000	0.001621	0.001707	28.0828	0.036012	0.001797	20.0448	-102.666	-167.128	-0.081100	0.552853	-0.527678	-0.528924	-0.059986	20.0448	-0.525434	-7.74705e+06	7.743047E-9	NaN
804	1.000000	0.562138	7.37292e+06	-40339.1	1055.82	-29790.4	0.000000	0.000000	6.562965	-0.006892	NaN	0.000000	0.001616	0.001739	28.0828	0.070344	0.002091	33.6463	-42.3183	-166.366	-0.063906	0.560803	-0.519639	-0.520974	-0.006892	33.6463	-0.519486	-6.40391e+06	1.076171E-9	NaN
804	1.000000	0.570147	7.37292e+06	-40339.1	1055.82	-29790.4	0.000000	0.000000	6.570972	-0.058099	NaN	0.000000	0.001607	0.001759	28.0829	0.019789	0.002127	9.303617	15.2368	-168.999	-0.130499	0.568788	-0.511630	-0.512989	-0.058099	9.303617	-0.506947	-4.28427e+06	1.356098E-8	NaN
804	1.000000	0.578148	7.37292e+06	-40339.1	1055.82	-29790.4	0.000000	0.000000	6.578978	0.055168	NaN	0.000000	0.001628	0.001754	28.0831	0.062733	0.001962	31.9811	-1.985780	-165.794	0.015073	0.576859	-0.503629	-0.504918	0.055168	31.9811	-0.504922	-4.01477e+06	-1.374116E-8	NaN
804	1.000000	0.586141	7.37292e+06	-40339.1	1055.82	-29790.4	0.000000	0.000000	6.586967	-0.055675	NaN	0.000000	0.001600	0.001770	28.0829	0.102842	0.002032	50.6177	-15.4308	-166.32	-0.037735	0.584891	-0.495636	-0.496886	-0.055675	50.6177	-0.494811	-2.9013e+06	1.918965E-8	NaN
804	1.000000	0.594161	7.37292e+06	-40339.1	1055.82	-29790.4	0.000000	0.000000	6.594987	-0.041926	NaN	0.000000	0.001611	0.001726	28.083	0.027355	0.002030	13.4751	-84.4051	-167.041	-0.070082	0.592850	-0.487616	-0.488927	-0.041926	13.4751	-0.485283	-2.13523e+06	1.963541E-8	NaN
804	1.000000	0.602161	7.37292e+06	-40339.1	1055.82	-29790.4	0.000000	0.000000	6.602987	-0.037275	NaN	0.000000	0.001633	0.001728	28.0828	0.094265	0.002103	44.8284	36.5452	-167.484	-0.095060	0.600830	-0.479616	-0.480947	-0.037275	44.8284	-0.478992	-1.74348e+06	2.137953E-8	NaN
804	1.000000	0.610162	7.37292e+06	-40339.1	1055.82	-29790.4	0.000000	0.000000	6.610988	-0.042761	NaN	0.000000	0.001615	0.001736	28.0828	0.065280	0.002012	32.4391	171.208	-166.124	-0.085751	0.608869	-0.471615	-0.472908	-0.042761	32.4391	-0.470626	-1.33104e+06	3.212614E-8	NaN
804	1.000000	0.618155	7.37292e+06	-40339.1	1055.82	-29790.4	0.000000	0.000000	6.618983	-0.011828	NaN	0.000000	0.001613	0.001715	28.0827	0.111537	0.002097	53.2001	-52.9539	-169.281	-0.054528	0.616831	-0.463622	-0.464946	-0.011828	53.2001	-0.463455	-1.05573e+06	1.120384E-8	NaN
804	1.000000	0.626161	7.37292e+06	-40339.1	1055.82	-29790.4	0.000000	0.000000	6.626987	-0.030568	NaN	0.000000	0.001639	0.001694	28.083	0.106712	0.002079	51.3308	-177.551	-162.535	0.010812	0.624793	-0.455616	-0.456984	-0.030568	51.3308	-0.455169	-807424	3.785876E-8	NaN
804	1.000000	0.634160	7.37292e+06	-40339.1	1055.82	-29790.4	0.000000	0.000000	6.634986	-0.044307	NaN	0.000000	0.001595	0.001718	28.083	0.045817	0.001981	23.1262	127.443	-166.616	-0.064254	0.632850	-0.447617	-0.448927	-0.044307	23.1262	-0.446180	-603297	7.344172E-8	NaN
804	1.000000	0.642165	7.37292e+06	-40339.1	1055.82	-29790.4	0.000000	0.000000	6.642991	-0.039256	NaN	0.000000	0.001602	0.001718	28.0829	0.051387	0.002041	25.1756	-175.831	-166.848	-0.082156	0.640893	-0.439612	-0.440884	-0.039256	25.1756	-0.438442	-469215	8.366225E-8	NaN
804	1.000000	0.650144	7.37292e+06	-40339.1	1055.82	-29790.4	0.000000	0.000000	6.650970	-0.042153	NaN	0.000000	0.001652	0.001714	28.083	0.062314	0.001972	31.5931	121.638	-165.705	-0.090249	0.648849	-0.431633	-0.432928	-0.042153	31.5931	-0.430632	-363918	1.158305E-7	NaN
804	1.000000	0.658187	7.37292e+06	-40339.1	1055.82	-29790.4	0.000000	0.000000	6.659011	-0.094560	NaN	0.000000	0.001618	0.001728	28.0816	0.102791	0.001759	58.4493	-88.1693	-165.947	-0.116338	0.656885	-0.423590	-0.424892	-0.094560	58.4493	-0.422376	-278038	3.400959E-7	NaN
804	1.000000	0.666220	7.37292e+06	-40339.1	1055.82	-29790.4	0.000000	0.000000	6.667045	-0.058458	NaN	0.000000	0.001618	0.001706	28.0816	0.055595	0.002012	27.6305	94.6791	-166.245	-0.048764	0.664898	-0.415557	-0.416879	-0.058458	27.6305	-0.413970	-211267	2.767004E-7	NaN
804	1.000000	0.674191	7.37292e+06	-40339.1	1055.82	-29790.4	0.000000	0.000000	6.675017	-0.039306	NaN	0.000000	0.001616	0.001685	28.0818	0.072981	0.002182	33.4433	146.889	-165.866	0.050744	0.672885	-0.407586	-0.408892	-0.039306	33.4433	-0.406704	-166538	2.360193E-7	NaN
804	1.000000	0.682183	7.37292e+06	-40339.1	1055.82	-29790.4	0.000000	0.000000	6.683008	-0.053409	NaN	0.000000	0.001595	0.001716	28.0816	0.043958	0.002116	20.7713	178.404	-167.042	-0.020871	0.680901	-0.399594	-0.400876	-0.053409	20.7713	-0.397666	-123793	4.314413E-7	NaN
804	1.000000	0.690189	7.37292e+06	-40339.1	1055.82	-29790.4	0.000000	0.000000	6.691012	-0.116527	NaN	0.000000	0.001611	0.001722	28.0819	0.162877	0.001923	84.7059	-57.5133	-169.414	-0.128482	0.688855	-0.391588	-0.392922	-0.116527	84.7059	-0.390556	-97977.6	1.189318E-6	NaN
804	1.000000	0.698159	7.37292e+06	-40339.1	1055.82	-29790.4	0.000000	0.000000	6.698984	-0.064425	NaN	0.000000	0.001628	0.001718	28.0815	0.025133	0.002009	12.5113	103.52	-169.865	-0.120645	0.696853	-0.383618	-0.384924	-0.064425	12.5113	-0.379756	-68609.5	9.390128E-7	NaN
804	1.000000	0.706182	7.37292e+06	-40339.1	1055.82	-29790.4	0.000000	0.000000	6.707007	-0.076942	NaN	0.000000	0.001595	0.001722	28.0817	0.067925	0.001973	34.4353	-118.51	-164.063	-0.027778	0.704918	-0.375595	-0.376859	-0.076942	34.4353	-0.373919	-56562.4	1.360300E-6	NaN
804	1.000000	0.714219	7.37292e+06	-40339.1	1055.82	-29790.4	0.000000	0.000000	6.715045	-0.046932	NaN	0.000000	0.001593	0.001738	28.0816	0.054956	0.001992	27.5856	-110.431	-166.486	-0.074128	0.712851	-0.367558	-0.368926	-0.046932	27.5856	-0.366282	-43908.5	1.068868E-6	NaN
804	1.000000	0.722218	7.37292e+06	-40339.1	1055.82	-29790.4	0.000000	0.000000	6.723044	-0.041233	NaN	0.000000	0.001630	0.001731	28.0815	0.051137	0.002079	24.6025	129.562	-165.472	-0.024646	0.720949	-0.359559	-0.360828	-0.041233	24.6025	-0.358302	-33673.6	1.224489E-6	NaN
804	1.000000	0.730237	7.37292e+06	-40339.1	1055.82	-29790.4	0.000000	0.000000	6.731062	-0.071709	NaN	0.000000	0.001628	0.001719	28.0819	0.032223	0.002011	16.021	-91.1147	-171.911	-0.082576	0.728830	-0.351540	-0.352947	-0.071709	16.021	-0.348183	-24022.4	2.985083E-6	NaN
804	1.000000	0.738227	7.37292e+06	-40339.1	1055.82	-29790.4	0.000000	0.000000	6.739052	-0.080306	NaN	0.000000	0.001636	0.001706	28.0816	0.112854	0.001935	58.3107	8.342238	-165.555	-0.101908	0.736924	-0.343550	-0.344853	-0.080306	58.3107	-0.342517	-19870.9	4.041400E-6	NaN
804	1.000000	0.746221	7.37292e+06	-40339.1	1055.82	-29790.4	0.000000	0.000000	6.747050	0.036157	NaN	0.000000	0.001608	0.001764	28.0817	0.063331	0.001954	32.4085	-99.4056	-166.401	-0.019088	0.744889	-0.335556	-0.336888	0.036157	32.4085	-0.336393	-16178.3	-2.234915E-6	NaN
804	1.000000	0.754209	7.37292e+06	-40339.1	1055.82	-29790.4	0.000000	0.000000	6.755030	-0.150457	NaN	0.000000	0.001580	0.001775	28.0814	0.091589	0.001941	47.1863	138.988	-168.158	-0.055450	0.752918	-0.327568	-0.328859	-0.150457	47.1863	-0.325177	-11084.9	1.357308E-5	NaN
804	1.000000	0.762232	7.37292e+06	-40339.1	1055.82	-29790.4	0.000000	0.000000	6.763056	-0.084056	NaN	0.000000	0.001625	0.001757	28.0818	0.128944	0.002083	61.9123	150.362	-167.575	-0.024059	0.760881	-0.319545	-0.320896	-0.084056	61.9123	-0.318527	-8850.19	9.497684E-6	NaN
804	1.000000	0.770221	7.37292e+06	-40339.1	1055.82	-29790.4	0.000000	0.000000	6.771047	-0.024096	NaN	0.000000	0.001618	0.001760	28.0819	0.071616	0.001990	35.9958	73.376	-169.535	-0.160695	0.768914	-0.311556	-0.312863	-0.024096	35.9958	-0.311054	-6865.22	3.509903E-6	NaN
804	1.000000	0.778222	7.37292e+06	-40339.1	1055.82	-29790.4	0.000000	0.000000	6.779048	-0.034367	NaN	0.000000	0.001615	0.001760	28.0816	0.023597	0.002041	11.5601	159.517	-164.659	-0.000239	0.776869	-0.303555	-0.304908	-0.034367	11.5601	-0.301326	-4924.51	6.978814E-6	NaN
804	1.000000	0.786217	7.37292e+06	-40339.1	1055.82	-29790.4	0.000000	0.000000	6.787043	-0.048213	NaN	0.000000	0.001590	0.001728	28.0819	0.063706	0.002091	30.4669	-34.0006	-165.839	-0.020701	0.784958	-0.295560	-0.296819	-0.048213	30.4669	-0.294373	-3878.99	1.242918E-5	NaN
804	1.000000	0.794231	7.37292e+06	-40339.1	1055.82	-29790.4	0.000000	0.000000	6.795055	-0.076958	NaN	0.000000	0.001657	0.001724	28.0828	0.096537	0.002021	47.7746	-129.359	-167.591	-0.064369	0.792946	-0.287546	-0.288831	-0.076958	47.7746	-0.286338	-2940.19	2.617442E-5	NaN
804	1.000000	0.802244	7.37292e+06	-40339.1	1055.82	-29790.4	0.000000	0.000000	6.803069	-0.059717	NaN	0.000000	0.001647	0.001722	28.083	0.119905	0.001977	60.6524	-63.1941	-165.216	-0.084605	0.800904	-0.279533	-0.280873	-0.059717	60.6524	-0.278794	-2263.47	2.638274E-5	NaN
804	1.000000	0.810248	7.37292e+06	-40339.1	1055.82	-29790.4	0.000000	0.000000	6.811074	-0.042678	NaN	0.000000	0.001639	0.001747	28.0827	0.065724	0.002032	32.3401	-11.1526	-167.047	-0.074304	0.808948	-0.271529	-0.272829	-0.042678	32.3401	-0.270539	-1697.23	2.514548E-5	NaN
804	1.000000	0.818238	7.37292e+06	-40339.1	1055.82	-29790.4	0.000000	0.000000	6.819069	0.086950	NaN	0.000000	0.001594	0.001721	28.0832	0.077512	0.001959	39.5608	123.789	-166.597	0.008478	0.816912	-0.263539	-0.264865	0.086950	39.5608	-0.265188	-1406.87	-6.180409E-5	NaN
804	1.000000	0.826249	7.37292e+06	-40339.1	1055.82	-29790.4	0.000000	0.000000	6.827078	0.043614	NaN	0.000000	0.001601	0.001739	28.0828	0.108414	0.002076	52.226	168.603	-164.555	0.053719	0.824942	-0.255528	-0.256835	0.043614	52.226	-0.256154	-1023	-4.263359E-5	NaN
804	1.000000	0.834278	7.37292e+06	-40339.1	1055.82	-29790.4	0.000000	0.000000	6.835106	-0.011867	NaN	0.000000	0.001610	0.001731	28.0829	0.074640	0.002046	36.4779	-171.789	-168.546	-0.070277	0.832971	-0.247499	-0.248806	-0.011867	36.4779	-0.247255	-745.507	1.591847E-5	NaN
804	1.000000	0.842267	7.37292e+06	-40339.1	1055.82	-29790.4	0.000000	0.000000	6.843094	-0.030797	NaN	0.000000	0.001624	0.001703	28.083	0.074701	0.001902	39.2745	-26.8179	-166.608	0.039587	0.841008	-0.239510	-0.240769	-0.030797	39.2745	-0.238922	-552.971	5.569297E-5	NaN
804	1.000000	0.850241	7.37292e+06	-40339.1	1055.82	-29790.4	0.000000	0.000000	6.851063	-0.125685	NaN	0.000000	0.001595	0.001717	28.0829	0.071524	0.002061	34.7104	-16.5678	-165.022	-0.094475	0.848916	-0.231536	-0.232861	-0.125685	34.7104	-0.228821	-383.604	0.000328	NaN
804	1.000000	0.858245	7.37292e+06	-40339.1	1055.82	-29790.4	0.000000	0.000000	6.859070	-0.077273	NaN	0.000000	0.001603	0.001726	28.0831	0.056873	0.001947	29.2086	145.579	-168.253	-0.092293	0.856965	-0.223532	-0.224812	-0.077273	29.2086	-0.221548	-294.025	0.000263	NaN
804	1.000000	0.866287	7.37292e+06	-40339.1	1055.82	-29790.4	0.000000	0.000000	6.867112	-0.067985	NaN	0.000000	0.001621	0.001728	28.083	0.026498	0.002108	12.5679	-179.324	-166.275	-0.118402	0.864956	-0.215490	-0.216821	-0.067985	12.5679	-0.211433	-202.305	0.000336	NaN
804	1.000000	0.874258	7.37292e+06	-40339.1	1055.82	-29790.4	0.000000	0.000000	6.875085	-0.032669	NaN	0.000000	0.001565	0.001720	28.083	0.085115	0.002087	40.7923	-83.4303	-165.683	-0.008203	0.872954	-0.207519	-0.208823	-0.032669	40.7923	-0.206918	-170.923	0.000191	NaN
804	1.000000	0.882274	7.37292e+06	-40339.1	1055.82	-29790.4	0.000000	0.000000	6.883101	-0.033854	NaN	0.000000	0.001616	0.001720	28.0829	0.070197	0.002024	34.6869	-2.058411	-166.169	-0.038620	0.880999	-0.199503	-0.200778	-0.033854	34.6869	-0.198771	-125.741	0.000269	NaN
804	1.000000	0.890272	7.37292e+06	-40339.1	1055.82	-29790.4	0.000000	0.000000	6.891096	-0.085202	NaN	0.000000	0.001618	0.001724	28.0829	0.064927	0.001952	33.2641	159.779	-164.338	-0.050534	0.889002	-0.191505	-0.192774	-0.085202	33.2641	-0.189584	-88.5266	0.000962	NaN
804	1.000000	0.898242	7.37292e+06	-40339.1	1055.82	-29790.4	0.000000	0.000000	6.899071	0.016870	NaN	0.000000	0.001629	0.001746	28.0829	0.108808	0.002103	51.735	-43.7281	-168.987	-0.066396	0.896950	-0.183535	-0.184827	0.016870	51.735	-0.183779	-70.7188	-0.000239	NaN
804	1.000000	0.906283	7.37292e+06	-40339.1	1055.82	-29790.4	0.000000	0.000000	6.907110	-0.014124	NaN	0.000000	0.001612	0.001769	28.083	0.101339	0.001991	50.9041	117.772	-166.944	-0.057115	0.904999	-0.175494	-0.176778	-0.014124	50.9041	-0.175286	-50.6865	0.000279	NaN
804	1.000000	0.914293	7.37292e+06	-40339.1	1055.82	-29790.4	0.000000	0.000000	6.915118	-0.055384	NaN	0.000000	0.001614	0.001739	28.0831	0.071422	0.002069	34.5162	8.929133	-163.902	-0.022417	0.913043	-0.167484	-0.168734	-0.055384	34.5162	-0.166281	-35.3802	0.001565	NaN
804	1.000000	0.922255	7.37292e+06	-40339.1	1055.82	-29790.4	0.000000	0.000000	6.923081	-0.043612	NaN	0.000000	0.001634	0.001671	28.0829	0.039823	0.002035	19.5669	-165.384	-165.657	-0.062696	0.920962	-0.159522	-0.160815	-0.043612	19.5669	-0.157850	-25.1008	0.001737	NaN
804	1.000000	0.930275	7.37292e+06	-40339.1	1055.82	-29790.4	0.000000	0.000000	6.931106	0.071498	NaN	0.000000	0.001577	0.001740	28.0817	0.071951	0.002034	35.3657	150.581	-166.562	-0.071324	0.928958	-0.151502	-0.152819	0.071498	35.3657	-0.153018	-20.5506	-0.003479	NaN
804	1.000000	0.938295	7.37292e+06	-40339.1	1055.82	-29790.4	0.000000	0.000000	6.939122	-0.011777	NaN	0.000000	0.001628	0.001641	28.0816	0.041153	0.002118	19.4291	-100.077	-169.67	-0.012658	0.936961	-0.143482	-0.144816	-0.011777	19.4291	-0.143027	-13.4762	0.000874	NaN
804	1.000000	0.946283	7.37292e+06	-40339.1	1055.82	-29790.4	0.000000	0.000000	6.947109	-0.049780	NaN	0.000000	0.001601	0.001668	28.0818	0.076719	0.001994	38.4743	173.709	-165.723	-0.040177	0.945017	-0.135494	-0.136760	-0.049780	38.4743	-0.134523	-9.315038	0.005344	NaN
804	1.000000	0.954314	7.37292e+06	-40339.1	1055.82	-29790.4	0.000000	0.000000	6.955140	-0.024474	NaN	0.000000	0.001584	0.001724	28.0819	0.072142	0.001981	36.424	-100.949	-165.499	-0.049417	0.952979	-0.127463	-0.128798	-0.024474	36.424	-0.126959	-6.646931	0.003682	NaN
804	1.000000	0.962300	7.37292e+06	-40339.1	1055.82	-29790.4	0.000000	0.000000	6.963126	-0.031173	NaN	0.000000	0.001586	0.001643	28.0818	0.056133	0.001982	28.3277	34.9532	-166.27	-0.067888	0.960978	-0.119477	-0.120799	-0.031173	28.3277	-0.118652	-4.537266	0.006870	NaN
804	1.000000	0.970300	7.37292e+06	-40339.1	1055.82	-29790.4	0.000000	0.000000	6.971128	0.008075	NaN	0.000000	0.001616	0.001637	28.0818	0.087672	0.002115	41.4505	-67.6017	-163.646	-0.080385	0.968987	-0.111477	-0.112790	0.008075	41.4505	-0.111623	-3.250689	-0.002484	NaN
804	1.000000	0.978358	7.37292e+06	-40339.1	1055.82	-29790.4	0.000000	0.000000	6.979186	0.013548	NaN	0.000000	0.001609	0.001641	28.0818	0.120531	0.001965	61.3277	169.771	-163.632	-0.101862	0.977017	-0.103419	-0.104760	0.013548	61.3277	-0.103585	-2.190224	-0.006185	NaN
804	1.000000	0.986303	7.37292e+06	-40339.1	1055.82	-29790.4	0.000000	0.000000	6.987130	-0.015895	NaN	0.000000	0.001612	0.001656	28.0816	0.052465	0.001940	27.0448	129.679	-166.644	-0.034318	0.984968	-0.095474	-0.096809	-0.015895	27.0448	-0.095034	-1.413130	0.011248	NaN
804	1.000000	0.994315	7.37292e+06	-40339.1	1055.82	-29790.4	0.000000	0.000000	6.995141	-0.041933	NaN	0.000000	0.001610	0.001688	28.0816	0.097930	0.001951	50.1858	-130.519	-168.767	0.016516	0.993031	-0.087462	-0.088746	-0.041933	50.1858	-0.086835	-0.909576	0.046102	NaN
804	1.000000	1.002322	7.37292e+06	-40339.1	1055.82	-29790.4	0.000000	0.000000	7.003148	-0.048605	NaN	0.000000	0.001605	0.001720	28.0818	0.095588	0.001957	48.8346	153.61	-167.623	-0.077990	1.000983	-0.079455	-0.080794	-0.048605	48.8346	-0.078708	-0.574444	0.084612	NaN
804	1.000000	1.010331	7.37292e+06	-40339.1	1055.82	-29790.4	0.000000	0.000000	7.011161	0.032436	NaN	0.000000	0.001607	0.001720	28.0818	0.090993	0.002061	44.1553	102.788	-167.949	0.046327	1.009053	-0.071446	-0.072724	0.032436	44.1553	-0.071996	-0.385479	-0.084144	NaN
804	1.000000	1.018320	7.37292e+06	-40339.1	1055.82	-29790.4	0.000000	0.000000	7.019146	-0.054988	NaN	0.000000	0.001633	0.001668	28.0818	0.156750	0.002000	78.3648	-68.6857	-166.267	-0.034056	1.017014	-0.063457	-0.064763	-0.054988	78.3648	-0.062931	-0.218153	0.252063	NaN
804	1.000000	1.026282	7.37292e+06	-40339.1	1055.82	-29790.4	0.000000	0.000000	7.027109	-0.024714	NaN	0.000000	0.001621	0.001672	28.0816	0.108358	0.002105	51.4886	95.7869	-168.686	-0.011994	1.025036	-0.055495	-0.056741	-0.024714	51.4886	-0.055135	-0.129963	0.190163	NaN
804	1.000000	1.034322	7.37292e+06	-40339.1	1055.82	-29790.4	0.000000	0.000000	7.035148	-0.048026	NaN	0.000000	0.001598	0.001696	28.0815	0.032175	0.002074	15.5144	95.6927	-171.547	0.024680	1.033096	-0.047455	-0.048681	-0.048026	15.5144	-0.045133	-0.064874	0.740292	NaN
804	1.000000	1.042344	7.37292e+06	-40339.1	1055.82	-29790.4	0.000000	0.000000	7.043171	-0.013755	NaN	0.000000	0.001591	0.001662	28.0816	0.100181	0.001925	52.0523	-58.5241	-169.28	0.020215	1.040959	-0.039433	-0.040818	-0.013755	52.0523	-0.039235	-0.042870	0.320852	NaN
804	1.000000	1.050322	7.37292e+06	-40339.1	1055.82	-29790.4	0.000000	0.000000	7.051148	-0.038809	NaN	0.000000	0.001620	0.001670	28.0815	0.066067	0.001916	34.4823	-36.5591	-165.735	0.007758	1.049071	-0.031455	-0.032706	-0.038809	34.4823	-0.030611	-0.023936	1.621360	NaN
804	1.000000	1.058347	7.37292e+06	-40339.1	1055.82	-29790.4	0.000000	0.000000	7.059171	-0.084902	NaN	0.000000	0.001635	0.001691	28.0812	0.073931	0.001987	37.2163	-138.912	-166.117	-0.079236	1.057037	-0.023430	-0.024740	-0.084902	37.2163	-0.021719	-0.013891	6.112203	NaN
804	1.000000	1.066361	7.37292e+06	-40339.1	1055.82	-29790.4	0.000000	0.000000	7.067187	-0.031311	NaN	0.000000	0.001624	0.001663	28.0827	0.106985	0.002077	51.5031	-6.149550	-165.111	-0.087627	1.065030	-0.015416	-0.016747	-0.031311	51.5031	-0.014960	-0.009252	3.384353	NaN
804	1.000000	1.074351	7.37292e+06	-40339.1	1055.82	-29790.4	0.000000	0.000000	7.075176	-0.072277	NaN	0.000000	0.001648	0.001639	28.0824	0.014575	0.001910	7.629992	99.6159	-166.607	0.019254	1.073045	-0.007426	-0.008732	-0.072277	7.629992	-0.000321	-0.000238	303.101	NaN
804	1.000000	1.082306	7.37292e+06	-40339.1	1055.82	-29790.4	0.000000	0.000000	7.083310	4.289609	NaN	0.000000	0.001596	0.001649	28.0826	5.156875	0.001700	3033.23	9.615533	-169.345	2.628102	1.081009	0.000529	-0.000768	4.289609	3033.23	-0.000532	-0.000393	-10907.1	NaN
804	2.000000	1.086909	7.37292e+06	-40339.1	1055.82	-29790.4	0.000000	0.000000	7.088136	9.725563	NaN	0.000000	0.001620	0.001683	28.0827	10.293	0.001617	6366.64	7.870758	-174.732	9.681157	1.086562	0.005132	0.004785	9.725563	6366.64	0.003986	0.003227	3014.12	102401
804	2.000000	1.088890	7.37292e+06	-40339.1	1055.82	-29790.4	0.000000	0.000000	7.090231	12.4838	NaN	0.000000	0.001616	0.001699	28.0827	12.3765	0.001644	7526.4	6.819465	-176.018	12.6335	1.088572	0.007113	0.006795	12.4838	7526.4	0.005869	0.004940	2526.93	97832.8
804	2.000000	1.090902	7.37292e+06	-40339.1	1055.82	-29790.4	0.000000	0.000000	7.092401	16.3411	NaN	0.000000	0.001637	0.001692	28.0831	14.7713	0.001775	8322.09	7.832135	-176.529	16.2388	1.090496	0.009125	0.008719	16.3411	8322.09	0.007652	0.006687	2443.61	92978
804	2.000000	1.092813	7.37292e+06	-40339.1	1055.82	-29790.4	0.000000	0.000000	7.094469	20.1539	NaN	0.000000	0.001618	0.001679	28.0826	16.734	0.001629	10273.9	5.380714	-176.387	18.9079	1.092495	0.011036	0.010718	20.1539	10273.9	0.009564	0.008701	2316.14	100626
804	2.000000	1.094822	7.37292e+06	-40339.1	1055.82	-29790.4	0.000000	0.000000	7.096554	21.9983	NaN	0.000000	0.001641	0.001687	28.0833	19.7297	0.001952	10106.7	5.994230	-176.093	22.095	1.094567	0.013045	0.012790	21.9983	10106.7	0.011413	0.010794	2037.92	88875.7
804	2.000000	1.096821	7.37292e+06	-40339.1	1055.82	-29790.4	0.000000	0.000000	7.098729	26.2839	NaN	0.000000	0.001625	0.001651	28.0827	21.5097	0.001839	11696.1	6.074948	-177.833	25.8505	1.096526	0.015044	0.014749	26.2839	11696.1	0.013358	0.013158	1997.54	93157.4
804	2.000000	1.098783	7.37292e+06	-40339.1	1055.82	-29790.4	0.000000	0.000000	7.100957	32.7612	NaN	0.000000	0.001596	0.001677	28.0829	23.031	0.001785	12900.7	1.740788	-175.471	31.7254	1.098442	0.017006	0.016665	32.7612	12900.7	0.015101	0.015421	2124.51	94915.2
804	2.000000	1.100843	7.37292e+06	-40339.1	1055.82	-29790.4	0.000000	0.000000	7.103210	37.4473	NaN	0.000000	0.001600	0.001619	28.0828	25.9769	0.001859	13973.3	8.711492	178.535	37.8378	1.100518	0.019066	0.018741	37.4473	13973.3	0.017056	0.018126	2065.94	94824.5
804	2.000000	1.102792	7.37292e+06	-40339.1	1055.82	-29790.4	0.000000	0.000000	7.105320	41.3747	NaN	0.000000	0.001594	0.001667	28.0827	27.0305	0.001885	14340.9	5.731874	-179.131	39.9721	1.102440	0.021015	0.020663	41.3747	14340.9	0.018851	0.020769	1992.09	90915.3
804	2.000000	1.104785	7.37292e+06	-40339.1	1055.82	-29790.4	0.000000	0.000000	7.107561	47.4202	NaN	0.000000	0.001575	0.001678	28.0843	29.4831	0.001834	16072.7	4.297858	-179.649	46.164	1.104480	0.023008	0.022703	47.4202	16072.7	0.020795	0.023807	1991.83	95171.3
804	2.000000	1.106797	7.37292e+06	-40339.1	1055.82	-29790.4	0.000000	0.000000	7.109779	52.4295	NaN	0.000000	0.001625	0.001666	28.0824	30.3964	0.001708	17795.2	8.099956	174.859	51.5342	1.106480	0.025020	0.024703	52.4295	17795.2	0.022810	0.027152	1930.93	98666.7
804	2.000000	1.108767	7.37292e+06	-40339.1	1055.82	-29790.4	0.000000	0.000000	7.111949	57.3061	NaN	0.000000	0.001611	0.001696	28.0829	32.3648	0.001669	19394.7	6.283787	177.832	56.7153	1.108419	0.026990	0.026642	57.3061	19394.7	0.024774	0.030605	1872.45	101289
804	2.000000	1.110870	7.37292e+06	-40339.1	1055.82	-29790.4	0.000000	0.000000	7.114394	65.6	NaN	0.000000	0.001612	0.001668	28.0828	34.9505	0.001769	19755.4	7.532324	176.656	67.6866	1.110512	0.029093	0.028735	65.6	19755.4	0.026603	0.033996	1929.62	97891
804	2.000000	1.112784	7.37292e+06	-40339.1	1055.82	-29790.4	0.000000	0.000000	7.116491	70.0867	NaN	0.000000	0.001629	0.001689	28.0828	36.9797	0.001825	20259.7	5.638692	177.423	70.2081	1.112446	0.031007	0.030669	70.0867	20259.7	0.028412	0.037517	1868.15	95563.9
804	2.000000	1.114798	7.37292e+06	-40339.1	1055.82	-29790.4	0.000000	0.000000	7.118674	74.1778	NaN	0.000000	0.001594	0.001667	28.0821	39.2896	0.001793	21912.2	7.499645	174.279	74.6166	1.114471	0.033021	0.032694	74.1778	21912.2	0.030482	0.041749	1776.74	97979.1
804	2.000000	1.116774	7.37292e+06	-40339.1	1055.82	-29790.4	0.000000	0.000000	7.121162	86.6407	NaN	0.000000	0.001593	0.001670	28.0816	40.6678	0.001789	22734.9	5.412380	176.506	85.1542	1.116431	0.034997	0.034654	86.6407	22734.9	0.032139	0.045293	1912.89	97599.9
804	2.000000	1.118724	7.37292e+06	-40339.1	1055.82	-29790.4	0.000000	0.000000	7.123341	92.2069	NaN	0.000000	0.001589	0.001638	28.0816	42.7439	0.001873	22815.3	1.834999	179.389	89.4549	1.118397	0.036947	0.036620	92.2069	22815.3	0.033916	0.049252	1872.15	93926.5
804	2.000000	1.120796	7.37292e+06	-40339.1	1055.82	-29790.4	0.000000	0.000000	7.125752	100.463	NaN	0.000000	0.001623	0.001655	28.0818	44.618	0.001741	25626.5	0.393890	179.961	99.1165	1.120512	0.039019	0.038735	100.463	25626.5	0.036079	0.054288	1850.56	100487
804	2.000000	1.122746	7.37292e+06	-40339.1	1055.82	-29790.4	0.000000	0.000000	7.128039	108.657	NaN	0.000000	0.001594	0.001673	28.0815	46.1902	0.001758	26279.8	5.971368	174.631	107.565	1.122422	0.040969	0.040645	108.657	26279.8	0.037868	0.058635	1853.11	99155.3
804	2.000000	1.124759	7.37292e+06	-40339.1	1055.82	-29790.4	0.000000	0.000000	7.130341	115.69	NaN	0.000000	0.001599	0.001761	28.082	49.0628	0.001825	26884.2	2.778476	177.283	113.449	1.124511	0.042982	0.042734	115.69	26884.2	0.039754	0.063395	1824.9	97553.1
804	2.000000	1.126685	7.37292e+06	-40339.1	1055.82	-29790.4	0.000000	0.000000	7.132711	126.486	NaN	0.000000	0.001626	0.001740	28.0817	49.3856	0.001615	30580.2	4.367326	173.951	122.834	1.126411	0.044909	0.044634	126.486	30580.2	0.041806	0.068780	1839	106533
804	2.000000	1.128692	7.37292e+06	-40339.1	1055.82	-29790.4	0.000000	0.000000	7.135156	137.145	NaN	0.000000	0.001574	0.001714	28.0817	52.1246	0.001756	29685.5	2.348487	176.726	133.354	1.128404	0.046915	0.046627	137.145	29685.5	0.043450	0.073248	1872.34	100212
804	2.000000	1.130817	7.37292e+06	-40339.1	1055.82	-29790.4	0.000000	0.000000	7.137447	141.198	NaN	0.000000	0.001589	0.001731	28.0816	54.3324	0.001747	31095.2	2.535831	175.773	142.132	1.130535	0.049040	0.048758	141.198	31095.2	0.045634	0.079397	1778.38	100824
804	2.000000	1.132681	7.37292e+06	-40339.1	1055.82	-29790.4	0.000000	0.000000	7.139827	153.753	NaN	0.000000	0.001632	0.001719	28.0814	56.7148	0.001808	31362.8	5.305451	173.683	149.792	1.132434	0.050904	0.050657	153.753	31362.8	0.047227	0.084036	1829.6	98845.1
804	2.000000	1.134765	7.37292e+06	-40339.1	1055.82	-29790.4	0.000000	0.000000	7.142390	165.413	NaN	0.000000	0.001629	0.001666	28.0819	57.69	0.001805	31968.1	4.125181	175.723	164.839	1.134341	0.052988	0.052564	165.413	31968.1	0.049107	0.089673	1844.62	97534.8
804	2.000000	1.136670	7.37292e+06	-40339.1	1055.82	-29790.4	0.000000	0.000000	7.144672	174.568	NaN	0.000000	0.001611	0.001706	28.0817	59.0808	0.001814	32569.8	4.427628	174.801	169.212	1.136377	0.054893	0.054600	174.568	32569.8	0.050873	0.095131	1835.03	96477.6
804	2.000000	1.138732	7.37292e+06	-40339.1	1055.82	-29790.4	0.000000	0.000000	7.147012	181.326	NaN	0.000000	0.001634	0.001708	28.0819	61.8715	0.001905	32473.2	6.725186	171.437	179.265	1.138418	0.056955	0.056641	181.326	32473.2	0.052767	0.101159	1792.49	93281.7
804	2.000000	1.140778	7.37292e+06	-40339.1	1055.82	-29790.4	0.000000	0.000000	7.149509	192.32	NaN	0.000000	0.001644	0.001760	28.0818	62.7082	0.001714	36580.3	3.790499	173.738	192.518	1.140424	0.059001	0.058647	192.32	36580.3	0.055058	0.108685	1769.51	101376
804	2.000000	1.142692	7.37292e+06	-40339.1	1055.82	-29790.4	0.000000	0.000000	7.152062	207.849	NaN	0.000000	0.001645	0.001728	28.0817	62.9024	0.001704	36910.4	2.371330	176.495	204.75	1.142235	0.060915	0.060458	207.849	36910.4	0.056692	0.114214	1819.82	99784.5
804	2.000000	1.144783	7.37292e+06	-40339.1	1055.82	-29790.4	0.000000	0.000000	7.154393	213.698	NaN	0.000000	0.001649	0.001720	28.0819	68.0005	0.001841	36939.9	8.280162	169.849	216.859	1.144471	0.063006	0.062694	213.698	36939.9	0.058668	0.121074	1765.02	96993.8
804	2.000000	1.146679	7.37292e+06	-40339.1	1055.82	-29790.4	0.000000	0.000000	7.156909	228.794	NaN	0.000000	0.001640	0.001733	28.0817	68.0275	0.001769	38457.4	2.435715	175.706	225.398	1.146404	0.064902	0.064627	228.794	38457.4	0.060440	0.127392	1795.97	98442.1
804	2.000000	1.148715	7.37292e+06	-40339.1	1055.82	-29790.4	0.000000	0.000000	7.159444	240.934	NaN	0.000000	0.001629	0.001719	28.0832	71.8107	0.001871	38389.4	4.326884	173.212	237.934	1.148368	0.066938	0.066591	240.934	38389.4	0.062231	0.133930	1798.95	95839.5
804	2.000000	1.150731	7.37292e+06	-40339.1	1055.82	-29790.4	0.000000	0.000000	7.161875	251.042	NaN	0.000000	0.001627	0.001715	28.083	72.8967	0.001808	40323.5	8.217474	169.998	249.248	1.150298	0.068954	0.068521	251.042	40323.5	0.064285	0.141620	1772.64	97896.8
804	2.000000	1.152745	7.37293e+06	-40339.1	1055.82	-29790.4	0.000000	0.000000	7.164525	266.507	NaN	0.000000	0.001597	0.001706	28.0828	73.639	0.001669	44117	1.821017	174.221	266.021	1.152403	0.070968	0.070626	266.507	44117	0.066437	0.149897	1777.94	104108
804	2.000000	1.154742	7.37293e+06	-40339.1	1055.82	-29790.4	0.000000	0.000000	7.166626	269.039	NaN	0.000000	0.001612	0.001728	28.0827	76.7287	0.001830	41919	0.212546	176.553	267.916	1.154538	0.072965	0.072761	269.039	41919	0.068152	0.156650	1717.45	96765.1
804	2.000000	1.156701	7.37293e+06	-40339.1	1055.82	-29790.4	0.000000	0.000000	7.169601	293.769	NaN	0.000000	0.001598	0.001732	28.0828	78.7739	0.001773	44440.1	9.094637	167.729	294.146	1.156289	0.074924	0.074512	293.769	44440.1	0.069966	0.163949	1791.83	100275
804	2.000000	1.158721	7.37293e+06	-40339.1	1055.82	-29790.4	0.000000	0.000000	7.171961	302.052	NaN	0.000000	0.001605	0.001709	28.0835	81.6102	0.001815	44956.6	9.005083	167.449	302.383	1.158324	0.076944	0.076547	302.052	44956.6	0.071905	0.171922	1756.92	99060.7
804	2.000000	1.160677	7.37293e+06	-40339.1	1055.82	-29790.4	0.000000	0.000000	7.174652	319.942	NaN	0.000000	0.001605	0.001713	28.0828	82.0868	0.001782	46063.3	4.127592	172.912	316.374	1.160410	0.078900	0.078633	319.942	46063.3	0.073690	0.179423	1783.17	99354.9
804	2.000000	1.162792	7.37293e+06	-40339.1	1055.82	-29790.4	0.000000	0.000000	7.177122	328.563	NaN	0.000000	0.001598	0.001758	28.0831	83.8581	0.001746	48033.9	4.029394	171.853	332.578	1.162466	0.081015	0.080689	328.563	48033.9	0.075885	0.188847	1739.83	100987
804	2.000000	1.164771	7.37293e+06	-40339.1	1055.82	-29790.4	0.000000	0.000000	7.179678	342.603	NaN	0.000000	0.001614	0.001736	28.0828	86.8372	0.001872	46397.2	3.976135	171.882	343.056	1.164507	0.082994	0.082730	342.603	46397.2	0.077456	0.195734	1750.35	95814.6
804	2.000000	1.166712	7.37293e+06	-40339.1	1055.82	-29790.4	0.000000	0.000000	7.182254	358.074	NaN	0.000000	0.001600	0.001763	28.0829	86.7104	0.001847	46950.7	1.013895	175.284	357.21	1.166500	0.084935	0.084723	358.074	46950.7	0.079215	0.203578	1758.9	95071.3
804	2.000000	1.168745	7.37293e+06	-40339.1	1055.82	-29790.4	0.000000	0.000000	7.185208	380.453	NaN	0.000000	0.001617	0.001736	28.0829	89.9183	0.001881	47814.3	4.803235	171.709	380.993	1.168334	0.086968	0.086558	380.453	47814.3	0.081001	0.211693	1797.2	94946.2
804	2.000000	1.170765	7.37293e+06	-40339.1	1055.82	-29790.4	0.000000	0.000000	7.187901	396.843	NaN	0.000000	0.001656	0.001745	28.0828	91.6722	0.001773	51700.1	9.385639	167.161	398.508	1.170199	0.088988	0.088422	396.843	51700.1	0.083231	0.222037	1787.28	100242
804	2.000000	1.172638	7.37293e+06	-40339.1	1055.82	-29790.4	0.000000	0.000000	7.190500	414.517	NaN	0.000000	0.001660	0.001728	28.0831	91.2802	0.001653	55220.5	3.313067	171.956	409.995	1.172174	0.090861	0.090397	414.517	55220.5	0.085231	0.231504	1790.54	104856
804	2.000000	1.174580	7.37293e+06	-40339.1	1055.82	-29790.4	0.000000	0.000000	7.192910	425.913	NaN	0.000000	0.001672	0.001738	28.0828	95.052	0.001798	52856.8	0.728646	174.788	419.543	1.174471	0.092803	0.092694	425.913	52856.8	0.086759	0.238865	1783.07	98809.3
804	2.000000	1.176666	7.37293e+06	-40339.1	1055.82	-29790.4	0.000000	0.000000	7.195730	443.755	NaN	0.000000	0.001691	0.001752	28.083	96.6978	0.001872	51668.5	5.269159	170.049	442.161	1.176416	0.094889	0.094639	443.755	51668.5	0.088447	0.247121	1795.7	94960.6
804	2.000000	1.178659	7.37293e+06	-40339.1	1055.82	-29790.4	0.000000	0.000000	7.198058	451.909	NaN	0.000000	0.001606	0.001730	28.083	99.0532	0.001664	59539.2	1.253098	173.189	448.379	1.178391	0.096882	0.096614	451.909	59539.2	0.091190	0.260812	1732.7	106516
804	2.000000	1.180804	7.37293e+06	-40339.1	1055.82	-29790.4	0.000000	0.000000	7.200991	471.076	NaN	0.000000	0.001613	0.001703	28.083	102.766	0.001853	55450.5	7.090056	168.459	473.894	1.180292	0.099027	0.098515	471.076	55450.5	0.092655	0.268270	1755.98	97812.1
804	2.000000	1.182845	7.37293e+06	-40339.1	1055.82	-29790.4	0.000000	0.000000	7.203348	478.784	NaN	0.000000	0.001639	0.001672	28.0819	105.633	0.001764	59896.1	8.723850	166.105	488.363	1.182315	0.101068	0.100538	478.784	59896.1	0.095072	0.280783	1705.17	103273
804	2.000000	1.184060	7.37293e+06	-40339.1	1055.82	-29790.4	0.000000	0.000000	7.205410	499.383	NaN	0.000000	0.001638	0.001719	28.0815	105.831	0.001846	57319.5	2.326600	-7.569918	487.813	1.183637	0.102283	0.101860	499.383	57319.5	0.095749	0.284334	1756.32	98211.2