File: remote_trans/data/nanoindenter/0828-1/data/Data_2025-08-06,11h17m57s/2025-07-22_16-23-58_1_1208.txt
2025-07-22, 16:23:58, 1
Index	Phase	Displacement	Time	Pos X	Pos Y	Pos Z	Rot A	Rot B	Piezo Z	Force A	Force B	Gripper	Voltage A	Voltage B	Temperature	Amplitude force	Amplitude pos	Stiffness	Phase shift	Phase excitation	Force A raw	Displacement raw	HMax	HMax raw	Real Force	Real Stiffness	Contact Depth	Area	Hardness	Reduced Mod.
[#]	[#]	[um]	[s]	[um]	[um]	[um]	[m°]	[m°]	[um]	[uN]	[uN]	[V]	[V]	[V]	[°C]	[uN]	[um]	[N/m]	[°]	[°]	[uN]	[um]	[um]	[um]	[uN]	[N/m]	[um]	[um^2]	[MPa]	[MPa]
1208	1.000000	0.002632	7.37685e+06	-55189.1	1105.82	-29739.7	0.000000	0.000000	6.002802	0.023705	NaN	0.000000	0.001558	0.001742	28.083	0.069458	0.000985	70.4999	-64.0293	-164.85	0.049295	0.001344	-1.270277	-1.271565	0.023705	70.4999	-1.270530	-9.648799E+16	-2.456732E-19	NaN
1208	1.000000	0.012674	7.37685e+06	-55189.1	1105.82	-29739.7	0.000000	0.000000	6.012845	0.029891	NaN	0.000000	0.001561	0.001766	28.0828	0.110431	0.001207	91.4783	130.288	16.8513	-0.065691	0.011229	-1.260235	-1.261680	0.029891	91.4783	-1.260480	-7.080880E+16	-4.221365E-19	NaN
1208	1.000000	0.022553	7.37685e+06	-55189.1	1105.82	-29739.7	0.000000	0.000000	6.022722	-0.012486	NaN	0.000000	0.001570	0.001790	28.083	0.031242	0.001779	17.5603	-84.0315	-168.648	0.052916	0.021279	-1.250356	-1.251630	-0.012486	17.5603	-1.249823	-5.099826E+16	2.448227E-19	NaN
1208	1.000000	0.032577	7.37686e+06	-55189.1	1105.82	-29739.7	0.000000	0.000000	6.032748	0.025516	NaN	0.000000	0.001541	0.001762	28.0824	0.054564	0.001981	27.541	-88.2845	16.6356	0.039440	0.031255	-1.240332	-1.241654	0.025516	27.541	-1.241027	-3.889393E+16	-6.560501E-19	NaN
1208	1.000000	0.042575	7.37686e+06	-55189.1	1105.82	-29739.7	0.000000	0.000000	6.042746	0.022208	NaN	0.000000	0.001537	0.001789	28.0824	0.028704	0.001894	15.1552	31.871	-168.713	0.109384	0.041239	-1.230334	-1.231670	0.022208	15.1552	-1.231433	-2.894089E+16	-7.673648E-19	NaN
1208	1.000000	0.052602	7.37686e+06	-55189.1	1105.82	-29739.7	0.000000	0.000000	6.052774	0.072510	NaN	0.000000	0.001557	0.001783	28.0816	0.092557	0.001943	47.6474	-139.282	12.026	0.038128	0.051219	-1.220308	-1.221690	0.072510	47.6474	-1.221449	-2.127640E+16	-3.407997E-18	NaN
1208	1.000000	0.062578	7.37686e+06	-55189.1	1105.82	-29739.7	0.000000	0.000000	6.062750	0.041195	NaN	0.000000	0.001558	0.001810	28.082	0.022680	0.002172	10.4422	-48.3097	-168.035	0.025131	0.061243	-1.210331	-1.211666	0.041195	10.4422	-1.213290	-1.654558E+16	-2.489782E-18	NaN
1208	1.000000	0.072595	7.37686e+06	-55189.1	1105.82	-29739.7	0.000000	0.000000	6.072769	0.122977	NaN	0.000000	0.001548	0.001797	28.0814	0.134784	0.002078	64.8728	34.7474	12.401	0.025843	0.071278	-1.200315	-1.201632	0.122977	64.8728	-1.201736	-1.158778E+16	-1.061263E-17	NaN
1208	1.000000	0.082604	7.37686e+06	-55189.1	1105.82	-29739.7	0.000000	0.000000	6.082776	0.043857	NaN	0.000000	0.001547	0.001756	28.0819	0.067488	0.002011	33.5666	16.7732	-165.688	0.058668	0.081272	-1.190305	-1.191637	0.043857	33.5666	-1.191285	-8.395309E+15	-5.224006E-18	NaN
1208	1.000000	0.092579	7.37686e+06	-55189.1	1105.82	-29739.7	0.000000	0.000000	6.092749	0.017025	NaN	0.000000	0.001568	0.001722	28.0815	0.054534	0.002048	26.625	104.483	14.7501	0.010268	0.091196	-1.180330	-1.181714	0.017025	26.625	-1.180810	-6.077448E+15	-2.801342E-18	NaN
1208	1.000000	0.102609	7.37686e+06	-55189.1	1105.82	-29739.7	0.000000	0.000000	6.102779	0.012767	NaN	0.000000	0.001618	0.001751	28.0818	0.042046	0.001871	22.4775	5.127232	-164.369	0.068929	0.101329	-1.170300	-1.171580	0.012767	22.4775	-1.170726	-4.452646E+15	-2.867244E-18	NaN
1208	1.000000	0.112590	7.37686e+06	-55189.1	1105.82	-29739.7	0.000000	0.000000	6.112761	0.047322	NaN	0.000000	0.001555	0.001730	28.0818	0.081624	0.002084	39.1761	99.486	15.8094	0.024255	0.111242	-1.160320	-1.161667	0.047322	39.1761	-1.161226	-3.321198E+15	-1.424842E-17	NaN
1208	1.000000	0.122607	7.37686e+06	-55189.1	1105.82	-29739.7	0.000000	0.000000	6.122778	0.027096	NaN	0.000000	0.001577	0.001732	28.0818	0.148288	0.001938	76.4979	-148.271	-164.103	0.023168	0.121289	-1.150302	-1.151620	0.027096	76.4979	-1.150568	-2.390191E+15	-1.133621E-17	NaN
1208	1.000000	0.132595	7.37686e+06	-55189.1	1105.82	-29739.7	0.000000	0.000000	6.132765	-0.003015	NaN	0.000000	0.001596	0.001778	28.0818	0.063868	0.002028	31.4977	-70.4649	13.2076	0.067985	0.131242	-1.140314	-1.141667	-0.003015	31.4977	-1.140242	-1.737739E+15	1.735037E-18	NaN
1208	1.000000	0.142629	7.37686e+06	-55189.1	1105.82	-29739.7	0.000000	0.000000	6.142802	0.079911	NaN	0.000000	0.001576	0.001736	28.0819	0.100179	0.002086	48.0178	140.437	-166.677	-0.029856	0.141289	-1.130280	-1.131621	0.079911	48.0178	-1.131529	-1.327774E+15	-6.018417E-17	NaN
1208	1.000000	0.152631	7.37686e+06	-55189.1	1105.82	-29739.7	0.000000	0.000000	6.152806	0.138832	NaN	0.000000	0.001558	0.001745	28.0821	0.091053	0.002090	43.5558	-98.2359	17.0877	0.066100	0.151255	-1.120279	-1.121654	0.138832	43.5558	-1.122669	-1.009910E+15	-1.374697E-16	NaN
1208	1.000000	0.162617	7.37686e+06	-55189.1	1105.82	-29739.7	0.000000	0.000000	6.162787	0.005673	NaN	0.000000	0.001587	0.001770	28.0816	0.039315	0.002043	19.2433	-74.3329	-166.96	0.051989	0.161315	-1.110293	-1.111594	0.005673	19.2433	-1.110514	-6.937151E+14	-8.177798E-18	NaN
1208	1.000000	0.172598	7.37686e+06	-55189.1	1105.82	-29739.7	0.000000	0.000000	6.172769	0.026141	NaN	0.000000	0.001615	0.001701	28.083	0.019232	0.001981	9.709497	128.239	13.5912	0.019947	0.171232	-1.100311	-1.101678	0.026141	9.709497	-1.102330	-5.386960E+14	-4.852556E-17	NaN
1208	1.000000	0.182634	7.37686e+06	-55189.1	1105.82	-29739.7	0.000000	0.000000	6.182804	0.003895	NaN	0.000000	0.001599	0.001767	28.083	0.045085	0.001906	23.6516	-150.38	-167.246	0.123228	0.181336	-1.090275	-1.091573	0.003895	23.6516	-1.090399	-3.725331E+14	-1.045518E-17	NaN
1208	1.000000	0.192618	7.37686e+06	-55189.1	1105.82	-29739.7	0.000000	0.000000	6.192791	0.083228	NaN	0.000000	0.001600	0.001776	28.0832	0.121173	0.001969	61.5461	-27.6966	10.9726	0.021871	0.191272	-1.080292	-1.081637	0.083228	61.5461	-1.081306	-2.812282E+14	-2.959440E-16	NaN
1208	1.000000	0.202643	7.37686e+06	-55189.1	1105.82	-29739.7	0.000000	0.000000	6.202814	0.020916	NaN	0.000000	0.001599	0.001775	28.0829	0.107069	0.001965	54.4755	-174.405	-170.844	-0.008879	0.201369	-1.070266	-1.071540	0.020916	54.4755	-1.070554	-2.016664E+14	-1.037167E-16	NaN
1208	1.000000	0.212645	7.37686e+06	-55189.1	1105.82	-29739.7	0.000000	0.000000	6.212815	0.021384	NaN	0.000000	0.001592	0.001750	28.0829	0.103175	0.001868	55.2411	37.5396	13.4933	0.041220	0.211307	-1.060265	-1.061602	0.021384	55.2411	-1.060555	-1.480054E+14	-1.444801E-16	NaN
1208	1.000000	0.222635	7.37686e+06	-55189.1	1105.82	-29739.7	0.000000	0.000000	6.222804	-0.014968	NaN	0.000000	0.001558	0.001740	28.0832	0.056270	0.001974	28.5121	-83.51	-171.126	0.001278	0.221340	-1.050274	-1.051570	-0.014968	28.5121	-1.049880	-1.063660E+14	1.407172E-16	NaN
1208	1.000000	0.232648	7.37686e+06	-55189.1	1105.82	-29739.7	0.000000	0.000000	6.232820	0.039615	NaN	0.000000	0.001581	0.001734	28.083	0.127089	0.002046	62.111	155.93	11.3312	-0.083848	0.231282	-1.040261	-1.041627	0.039615	62.111	-1.040739	-8.015096E+13	-4.942494E-16	NaN
1208	1.000000	0.242659	7.37686e+06	-55189.1	1105.82	-29739.7	0.000000	0.000000	6.242827	-0.050946	NaN	0.000000	0.001584	0.001705	28.0828	0.080141	0.001977	40.5386	-43.9599	-168.019	-0.008526	0.241384	-1.030250	-1.031525	-0.050946	40.5386	-1.029308	-5.625613E+13	9.055997E-16	NaN
1208	1.000000	0.252665	7.37686e+06	-55189.1	1105.82	-29739.7	0.000000	0.000000	6.252836	0.036704	NaN	0.000000	0.001578	0.001749	28.0829	0.118537	0.002006	59.0969	-75.3948	13.9019	0.075297	0.251275	-1.020245	-1.021634	0.036704	59.0969	-1.020710	-4.310329E+13	-8.515443E-16	NaN
1208	1.000000	0.262653	7.37686e+06	-55189.1	1105.82	-29739.7	0.000000	0.000000	6.262821	-0.036134	NaN	0.000000	0.001595	0.001706	28.083	0.104544	0.002003	52.196	25.1151	-167.851	-0.071973	0.261399	-1.010256	-1.011510	-0.036134	52.196	-1.009737	-3.067894E+13	1.177809E-15	NaN
1208	1.000000	0.272674	7.37686e+06	-55189.1	1105.82	-29739.7	0.000000	0.000000	6.272847	0.084856	NaN	0.000000	0.001586	0.001714	28.0829	0.088805	0.002025	43.8649	17.3021	13.1806	0.058759	0.271304	-1.000236	-1.001605	0.084856	43.8649	-1.001687	-2.390423E+13	-3.549823E-15	NaN
1208	1.000000	0.282658	7.37686e+06	-55189.1	1105.82	-29739.7	0.000000	0.000000	6.282827	-0.003549	NaN	0.000000	0.001568	0.001753	28.0828	0.055583	0.002006	27.7084	1.306451	-167.883	-0.022226	0.281315	-0.990252	-0.991594	-0.003549	27.7084	-0.990155	-1.671884E+13	2.122548E-16	NaN
1208	1.000000	0.292675	7.37686e+06	-55189.1	1105.82	-29739.7	0.000000	0.000000	6.292846	0.029604	NaN	0.000000	0.001547	0.001746	28.083	0.030473	0.002022	15.0703	92.2667	17.1231	0.033023	0.291292	-0.980234	-0.981617	0.029604	15.0703	-0.981707	-1.286508E+13	-2.301152E-15	NaN
1208	1.000000	0.302682	7.37686e+06	-55189.1	1105.82	-29739.7	0.000000	0.000000	6.302855	0.063414	NaN	0.000000	0.001565	0.001737	28.0832	0.071387	0.001953	36.5491	103.204	-164.072	0.069321	0.301366	-0.970227	-0.971543	0.063414	36.5491	-0.971528	-9.381170E+12	-6.759739E-15	NaN
1208	1.000000	0.312696	7.37686e+06	-55189.1	1105.82	-29739.7	0.000000	0.000000	6.312871	0.118384	NaN	0.000000	0.001590	0.001759	28.0816	0.061132	0.002035	30.0449	-34.0294	15.8022	0.108066	0.311332	-0.960213	-0.961577	0.118384	30.0449	-0.963168	-7.237343E+12	-1.635735E-14	NaN
1208	1.000000	0.322695	7.37686e+06	-55189.1	1105.82	-29739.7	0.000000	0.000000	6.322868	0.072979	NaN	0.000000	0.001570	0.001796	28.0817	0.048742	0.002015	24.1855	102.667	-167.153	0.131585	0.321400	-0.950214	-0.951509	0.072979	24.1855	-0.952477	-5.193176E+12	-1.405280E-14	NaN
1208	1.000000	0.332694	7.37686e+06	-55189.1	1105.82	-29739.7	0.000000	0.000000	6.332864	0.000923	NaN	0.000000	0.001589	0.001770	28.0819	0.042708	0.001965	21.7393	24.0057	13.8067	0.128269	0.331341	-0.940215	-0.941568	0.000923	21.7393	-0.940247	-3.551929E+12	-2.598160E-16	NaN
1208	1.000000	0.342696	7.37686e+06	-55189.1	1105.82	-29739.7	0.000000	0.000000	6.342868	0.076197	NaN	0.000000	0.001591	0.001737	28.0818	0.098227	0.001949	50.4063	-138.386	-165.065	0.092088	0.341405	-0.930214	-0.931504	0.076197	50.4063	-0.931347	-2.693904E+12	-2.828493E-14	NaN
1208	1.000000	0.352670	7.37686e+06	-55189.1	1105.82	-29739.7	0.000000	0.000000	6.352842	0.045563	NaN	0.000000	0.001578	0.001754	28.0819	0.046672	0.001997	23.3706	46.192	13.0169	0.029663	0.351388	-0.920239	-0.921522	0.045563	23.3706	-0.921701	-1.996066E+12	-2.282626E-14	NaN
1208	1.000000	0.362695	7.37686e+06	-55189.1	1105.82	-29739.7	0.000000	0.000000	6.362866	0.027596	NaN	0.000000	0.001541	0.001757	28.0818	0.079573	0.001935	41.129	31.251	-169.136	0.007300	0.361406	-0.910214	-0.911503	0.027596	41.129	-0.910717	-1.418561E+12	-1.945353E-14	NaN
1208	1.000000	0.372730	7.37686e+06	-55189.1	1105.82	-29739.7	0.000000	0.000000	6.372901	0.028555	NaN	0.000000	0.001553	0.001757	28.0824	0.083228	0.002028	41.0341	-11.0088	13.5335	0.005291	0.371289	-0.900180	-0.901621	0.028555	41.0341	-0.900701	-1.038831E+12	-2.748802E-14	NaN
1208	1.000000	0.382704	7.37686e+06	-55189.1	1105.82	-29739.7	0.000000	0.000000	6.382876	0.064821	NaN	0.000000	0.001562	0.001753	28.082	0.069558	0.001878	37.0427	-35.4925	-167.057	0.033466	0.381418	-0.890205	-0.891491	0.064821	37.0427	-0.891518	-7.806051E+11	-8.303959E-14	NaN
1208	1.000000	0.392745	7.37686e+06	-55189.1	1105.82	-29739.7	0.000000	0.000000	6.392913	-0.028464	NaN	0.000000	0.001584	0.001744	28.0823	0.070758	0.002028	34.8825	148.912	16.2534	-0.005290	0.391340	-0.880165	-0.881569	-0.028464	34.8825	-0.879553	-5.378474E+11	5.292145E-14	NaN
1208	1.000000	0.402728	7.37686e+06	-55189.1	1105.82	-29739.7	0.000000	0.000000	6.402896	-0.040279	NaN	0.000000	0.001584	0.001750	28.0821	0.022587	0.001836	12.3021	-65.1988	-166.086	-0.042372	0.401452	-0.870182	-0.871457	-0.040279	12.3021	-0.867726	-3.721132E+11	1.082451E-13	NaN
1208	1.000000	0.412719	7.37686e+06	-55189.1	1105.82	-29739.7	0.000000	0.000000	6.412891	0.055862	NaN	0.000000	0.001523	0.001753	28.0822	0.094209	0.002088	45.128	155.902	11.5725	0.116646	0.411369	-0.860191	-0.861541	0.055862	45.128	-0.861119	-3.028781E+11	-1.844377E-13	NaN
1208	1.000000	0.422713	7.37686e+06	-55189.1	1105.82	-29739.7	0.000000	0.000000	6.422882	-0.004187	NaN	0.000000	0.001538	0.001759	28.0822	0.067735	0.002039	33.2123	40.7706	-168.817	0.015886	0.421391	-0.850197	-0.851518	-0.004187	33.2123	-0.850102	-2.148418E+11	1.948774E-14	NaN
1208	1.000000	0.432733	7.37686e+06	-55189.1	1105.82	-29739.7	0.000000	0.000000	6.432906	0.085096	NaN	0.000000	0.001596	0.001756	28.082	0.083056	0.002020	41.1155	-89.1528	14.777	0.052702	0.431376	-0.840176	-0.841534	0.085096	41.1155	-0.841728	-1.654657E+11	-5.142809E-13	NaN
1208	1.000000	0.442738	7.37686e+06	-55189.1	1105.82	-29739.7	0.000000	0.000000	6.442908	-0.005770	NaN	0.000000	0.001559	0.001758	28.0825	0.091748	0.001936	47.3878	-148.355	-168.907	-0.116240	0.441439	-0.830171	-0.831470	-0.005770	47.3878	-0.830080	-1.150445E+11	5.015277E-14	NaN
1208	1.000000	0.452794	7.37686e+06	-55189.1	1105.82	-29739.7	0.000000	0.000000	6.452967	0.069696	NaN	0.000000	0.001602	0.001730	28.0832	0.119247	0.002001	59.6055	121.19	14.935	0.123068	0.451368	-0.820115	-0.821541	0.069696	59.6055	-0.820992	-8.662896E+10	-8.045347E-13	NaN
1208	1.000000	0.462754	7.37686e+06	-55189.1	1105.82	-29739.7	0.000000	0.000000	6.462923	0.002177	NaN	0.000000	0.001562	0.001769	28.083	0.107054	0.002043	52.4037	118.239	-166.154	0.050386	0.461439	-0.810156	-0.811470	0.002177	52.4037	-0.810187	-6.181682E+10	-3.521923E-14	NaN
1208	1.000000	0.472737	7.37686e+06	-55189.1	1105.82	-29739.7	0.000000	0.000000	6.472908	0.021432	NaN	0.000000	0.001566	0.001777	28.0831	0.014522	0.002039	7.121315	-155.674	13.7157	0.035651	0.471430	-0.800172	-0.801479	0.021432	7.121315	-0.802429	-4.851023E+10	-4.418056E-13	NaN
1208	1.000000	0.482777	7.37686e+06	-55189.1	1105.82	-29739.7	0.000000	0.000000	6.482949	0.054767	NaN	0.000000	0.001556	0.001737	28.0831	0.065707	0.001992	32.9937	134.312	-166.664	0.017083	0.481461	-0.790132	-0.791448	0.054767	32.9937	-0.791377	-3.433846E+10	-1.594924E-12	NaN
1208	1.000000	0.492745	7.37686e+06	-55189.1	1105.82	-29739.7	0.000000	0.000000	6.492919	0.095219	NaN	0.000000	0.001560	0.001755	28.0828	0.038611	0.002056	18.7786	65.2369	12.1771	0.074910	0.491330	-0.780164	-0.781579	0.095219	18.7786	-0.783967	-2.723536E+10	-3.496159E-12	NaN
1208	1.000000	0.502780	7.37686e+06	-55189.1	1105.82	-29739.7	0.000000	0.000000	6.502954	0.092421	NaN	0.000000	0.001569	0.001730	28.0829	0.070153	0.002021	34.7133	78.5848	-166.21	0.030385	0.501459	-0.770129	-0.771451	0.092421	34.7133	-0.772126	-1.880227E+10	-4.915434E-12	NaN
1208	1.000000	0.512760	7.37686e+06	-55189.1	1105.82	-29739.7	0.000000	0.000000	6.512931	0.040269	NaN	0.000000	0.001600	0.001762	28.0828	0.046115	0.002095	22.0106	171.211	11.5233	0.024130	0.511409	-0.760149	-0.761501	0.040269	22.0106	-0.761522	-1.348971E+10	-2.985199E-12	NaN
1208	1.000000	0.522773	7.37686e+06	-55189.1	1105.82	-29739.7	0.000000	0.000000	6.522943	0.000928	NaN	0.000000	0.001600	0.001754	28.0828	0.054773	0.001825	30.0185	69.3926	-165.936	-0.051509	0.521431	-0.750136	-0.751478	0.000928	30.0185	-0.750159	-9.448970E+9	-9.821012E-14	NaN
1208	1.000000	0.532799	7.37686e+06	-55189.1	1105.82	-29739.7	0.000000	0.000000	6.532969	0.006941	NaN	0.000000	0.001598	0.001736	28.0828	0.043257	0.001873	23.0944	-128.523	11.7037	0.044327	0.531434	-0.740110	-0.741475	0.006941	23.0944	-0.740335	-6.944255E+9	-9.995976E-13	NaN
1208	1.000000	0.542796	7.37686e+06	-55189.1	1105.82	-29739.7	0.000000	0.000000	6.542967	0.027301	NaN	0.000000	0.001597	0.001754	28.0827	0.080322	0.002055	39.0822	-71.3856	-162.852	0.132066	0.541445	-0.730113	-0.731465	0.027301	39.0822	-0.730637	-5.122647E+9	-5.329451E-12	NaN
1208	1.000000	0.552779	7.37686e+06	-55189.1	1105.82	-29739.7	0.000000	0.000000	6.552949	0.004428	NaN	0.000000	0.001574	0.001761	28.0828	0.122384	0.001881	65.0514	-112.241	17.7831	0.033674	0.551458	-0.720130	-0.721451	0.004428	65.0514	-0.720181	-3.689303E+9	-1.200242E-12	NaN
1208	1.000000	0.562765	7.37686e+06	-55189.1	1105.82	-29739.7	0.000000	0.000000	6.562938	0.077652	NaN	0.000000	0.001561	0.001771	28.0827	0.111097	0.002061	53.8969	69.9055	-168.543	0.037737	0.561508	-0.710144	-0.711401	0.077652	53.8969	-0.711224	-2.784562E+9	-2.788666E-11	NaN
1208	1.000000	0.572786	7.37686e+06	-55189.1	1105.82	-29739.7	0.000000	0.000000	6.572958	0.043447	NaN	0.000000	0.001588	0.001776	28.0836	0.046740	0.002001	23.357	14.0752	13.221	0.028359	0.571424	-0.700123	-0.701485	0.043447	23.357	-0.701518	-2.052397E+9	-2.116892E-11	NaN
1208	1.000000	0.582772	7.37686e+06	-55189.1	1105.82	-29739.7	0.000000	0.000000	6.582942	0.009870	NaN	0.000000	0.001558	0.001766	28.0816	0.055207	0.001905	28.9788	129.252	-168.101	0.018902	0.581477	-0.690137	-0.691432	0.009870	28.9788	-0.690393	-1.446396E+9	-6.823605E-12	NaN
1208	1.000000	0.592781	7.37686e+06	-55189.1	1105.82	-29739.7	0.000000	0.000000	6.592952	0.032025	NaN	0.000000	0.001523	0.001751	28.0818	0.074468	0.001934	38.4954	-101.091	11.8381	0.032408	0.591452	-0.680128	-0.681457	0.032025	38.4954	-0.680752	-1.067802E+9	-2.999121E-11	NaN
1208	1.000000	0.602817	7.37686e+06	-55189.1	1105.82	-29739.7	0.000000	0.000000	6.602989	0.044963	NaN	0.000000	0.001529	0.001756	28.0818	0.079834	0.001914	41.7065	87.6968	-166.527	0.088273	0.601541	-0.670092	-0.671369	0.044963	41.7065	-0.670901	-7.829181E+8	-5.743017E-11	NaN
1208	1.000000	0.612822	7.37686e+06	-55189.1	1105.82	-29739.7	0.000000	0.000000	6.612994	0.041624	NaN	0.000000	0.001545	0.001780	28.0816	0.031874	0.002035	15.6594	-12.3453	12.8951	0.047551	0.611413	-0.660087	-0.661496	0.041624	15.6594	-0.662080	-5.928744E+8	-7.020684E-11	NaN
1208	1.000000	0.622795	7.37686e+06	-55189.1	1105.82	-29739.7	0.000000	0.000000	6.622965	0.006728	NaN	0.000000	0.001576	0.001769	28.082	0.097657	0.002159	45.2272	-165.563	-167.153	0.022573	0.621495	-0.650114	-0.651414	0.006728	45.2272	-0.650226	-4.078825E+8	-1.649521E-11	NaN
1208	1.000000	0.632831	7.37686e+06	-55189.1	1105.82	-29739.7	0.000000	0.000000	6.632999	-0.039249	NaN	0.000000	0.001577	0.001760	28.0817	0.120509	0.001956	61.6047	-170.07	9.252433	-0.016362	0.631512	-0.640079	-0.641397	-0.039249	61.6047	-0.639601	-2.916163E+8	1.345916E-10	NaN
1208	1.000000	0.642862	7.37686e+06	-55189.1	1105.82	-29739.7	0.000000	0.000000	6.643031	-0.013135	NaN	0.000000	0.001580	0.001779	28.0818	0.097807	0.002123	46.0646	-71.5429	-163.967	-0.096386	0.641572	-0.630047	-0.631337	-0.013135	46.0646	-0.629833	-2.141577E+8	6.133116E-11	NaN
1208	1.000000	0.652801	7.37686e+06	-55189.1	1105.82	-29739.7	0.000000	0.000000	6.652975	0.113667	NaN	0.000000	0.001604	0.001734	28.0816	0.079800	0.002038	39.1575	99.5876	15.8926	0.067204	0.651489	-0.620108	-0.621420	0.113667	39.1575	-0.622285	-1.686724E+8	-6.738948E-10	NaN
1208	1.000000	0.662827	7.37686e+06	-55189.1	1105.82	-29739.7	0.000000	0.000000	6.662993	-0.106921	NaN	0.000000	0.001609	0.001720	28.0822	0.049885	0.002073	24.0675	-166.061	-167.55	-0.087346	0.661544	-0.610082	-0.611365	-0.106921	24.0675	-0.606750	-1.031313E+8	1.036750E-9	NaN
1208	1.000000	0.672825	7.37686e+06	-55189.1	1105.82	-29739.7	0.000000	0.000000	6.672996	0.036155	NaN	0.000000	0.001586	0.001740	28.0817	0.052107	0.001959	26.5935	-75.5128	12.3364	-0.021289	0.671463	-0.600084	-0.601446	0.036155	26.5935	-0.601104	-8.623061E+7	-4.192837E-10	NaN
1208	1.000000	0.682875	7.37686e+06	-55189.1	1105.82	-29739.7	0.000000	0.000000	6.683045	-0.008476	NaN	0.000000	0.001584	0.001764	28.0819	0.036691	0.001996	18.3841	-61.8337	-162.648	0.042877	0.681502	-0.590034	-0.591407	-0.008476	18.3841	-0.589688	-6.002987E+7	1.411903E-10	NaN
1208	1.000000	0.692848	7.37686e+06	-55189.1	1105.82	-29739.7	0.000000	0.000000	6.693021	0.090549	NaN	0.000000	0.001618	0.001713	28.0817	0.104348	0.001906	54.7424	110.696	11.5672	0.078059	0.691561	-0.580062	-0.581348	0.090549	54.7424	-0.581302	-4.599340E+7	-1.968728E-9	NaN
1208	1.000000	0.702850	7.37686e+06	-55189.1	1105.82	-29739.7	0.000000	0.000000	6.703021	0.028449	NaN	0.000000	0.001633	0.001750	28.0819	0.100112	0.002029	49.3499	161.557	-164.338	0.092685	0.701487	-0.570059	-0.571422	0.028449	49.3499	-0.570492	-3.261556E+7	-8.722474E-10	NaN
1208	1.000000	0.712862	7.37686e+06	-55189.1	1105.82	-29739.7	0.000000	0.000000	6.713036	0.091356	NaN	0.000000	0.001604	0.001743	28.0814	0.070510	0.001926	36.6132	106.539	13.9409	0.030290	0.711448	-0.560047	-0.561461	0.091356	36.6132	-0.561918	-2.482625E+7	-3.679827E-9	NaN
1208	1.000000	0.722886	7.37686e+06	-55189.1	1105.82	-29739.7	0.000000	0.000000	6.723057	0.036599	NaN	0.000000	0.001607	0.001737	28.083	0.001445	0.001958	0.738116	-118.353	-167.942	0.000302	0.721596	-0.550023	-0.551314	0.036599	0.738116	-0.587212	-5.549116E+7	-6.595529E-10	NaN
1208	1.000000	0.732853	7.37686e+06	-55189.1	1105.82	-29739.7	0.000000	0.000000	6.733024	0.052148	NaN	0.000000	0.001623	0.001745	28.0831	0.077166	0.002096	36.8085	158.244	13.5365	0.044618	0.731512	-0.540057	-0.541397	0.052148	36.8085	-0.541119	-1.279025E+7	-4.077191E-9	NaN
1208	1.000000	0.742862	7.37686e+06	-55189.1	1105.82	-29739.7	0.000000	0.000000	6.743037	0.114803	NaN	0.000000	0.001653	0.001729	28.0829	0.079327	0.002126	37.3197	-42.8026	-165.751	0.056567	0.741577	-0.530047	-0.531332	0.114803	37.3197	-0.532354	-9.6663e+06	-1.187659E-8	NaN
1208	1.000000	0.752856	7.37686e+06	-55189.1	1105.82	-29739.7	0.000000	0.000000	6.753029	0.072202	NaN	0.000000	0.001604	0.001778	28.083	0.075185	0.001836	40.9501	19.3842	15.1043	0.042502	0.751525	-0.520053	-0.521384	0.072202	40.9501	-0.521376	-6.80345e+06	-1.061253E-8	NaN
1208	1.000000	0.762878	7.37686e+06	-55189.1	1105.82	-29739.7	0.000000	0.000000	6.763046	-0.027037	NaN	0.000000	0.001606	0.001772	28.0827	0.060014	0.002150	27.9144	-101.774	-166.147	0.104449	0.761531	-0.510032	-0.511378	-0.027037	27.9144	-0.509305	-4.62102e+06	5.850963E-9	NaN
1208	1.000000	0.772892	7.37686e+06	-55189.1	1105.82	-29739.7	0.000000	0.000000	6.773065	0.091032	NaN	0.000000	0.001609	0.001755	28.083	0.035360	0.002056	17.199	122.795	14.1206	0.087587	0.771516	-0.500017	-0.501393	0.091032	17.199	-0.503987	-3.89602e+06	-2.336531E-8	NaN
1208	1.000000	0.782872	7.37686e+06	-55189.1	1105.82	-29739.7	0.000000	0.000000	6.783044	0.045687	NaN	0.000000	0.001538	0.001730	28.0829	0.131998	0.002045	64.5403	-154.902	-162.87	0.012915	0.781527	-0.490037	-0.491382	0.045687	64.5403	-0.490568	-2.53121e+06	-1.804930E-8	NaN
1208	1.000000	0.792864	7.37686e+06	-55189.1	1105.82	-29739.7	0.000000	0.000000	6.793034	0.001498	NaN	0.000000	0.001591	0.001754	28.0831	0.053800	0.001904	28.2541	39.341	11.9265	0.035597	0.791521	-0.480045	-0.481388	0.001498	28.2541	-0.480085	-1.80598e+06	-8.294516E-10	NaN
1208	1.000000	0.802882	7.37686e+06	-55189.1	1105.82	-29739.7	0.000000	0.000000	6.803052	0.010865	NaN	0.000000	0.001594	0.001738	28.083	0.020156	0.001998	10.0868	-152.009	-166.94	0.070497	0.801658	-0.470028	-0.471252	0.010865	10.0868	-0.470836	-1.34007e+06	-8.107768E-9	NaN
1208	1.000000	0.812883	7.37686e+06	-55189.1	1105.82	-29739.7	0.000000	0.000000	6.813058	0.114858	NaN	0.000000	0.001590	0.001725	28.083	0.120088	0.002004	59.9184	83.8063	14.9362	0.068390	0.811537	-0.460026	-0.461372	0.114858	59.9184	-0.461464	-989882	-1.160321E-7	NaN
1208	1.000000	0.822910	7.37686e+06	-55189.1	1105.82	-29739.7	0.000000	0.000000	6.823082	0.059485	NaN	0.000000	0.001612	0.001749	28.0831	0.163665	0.001893	86.4432	59.7719	-170.516	0.015329	0.821572	-0.449999	-0.451337	0.059485	86.4432	-0.450515	-694385	-8.566637E-8	NaN
1208	1.000000	0.832896	7.37686e+06	-55189.1	1105.82	-29739.7	0.000000	0.000000	6.833065	-0.003014	NaN	0.000000	0.001571	0.001761	28.0831	0.072629	0.001971	36.8441	-36.7138	16.5722	0.058447	0.831509	-0.440014	-0.441400	-0.003014	36.8441	-0.439952	-492822	6.115995E-9	NaN
1208	1.000000	0.842858	7.37686e+06	-55189.1	1105.82	-29739.7	0.000000	0.000000	6.843031	0.077524	NaN	0.000000	0.001627	0.001745	28.0833	0.099926	0.001986	50.326	147.587	-165.503	-0.005362	0.841540	-0.430051	-0.431369	0.077524	50.326	-0.431206	-370786	-2.090796E-7	NaN
1208	1.000000	0.852888	7.37686e+06	-55189.1	1105.82	-29739.7	0.000000	0.000000	6.853059	0.021450	NaN	0.000000	0.001597	0.001750	28.0822	0.090272	0.002110	42.7892	-125.602	14.0139	0.085208	0.851601	-0.420021	-0.421309	0.021450	42.7892	-0.420397	-260645	-8.229619E-8	NaN
1208	1.000000	0.862923	7.37686e+06	-55189.1	1105.82	-29739.7	0.000000	0.000000	6.863095	0.050128	NaN	0.000000	0.001625	0.001760	28.0816	0.018475	0.001982	9.320108	-84.0092	-166.862	0.063240	0.861591	-0.409986	-0.411318	0.050128	9.320108	-0.414020	-211609	-2.368896E-7	NaN
1208	1.000000	0.872905	7.37686e+06	-55189.1	1105.82	-29739.7	0.000000	0.000000	6.873075	0.012476	NaN	0.000000	0.001565	0.001764	28.0818	0.088862	0.001969	45.13	70.2641	13.7756	0.053436	0.871521	-0.400005	-0.401388	0.012476	45.13	-0.400212	-134592	-9.269651E-8	NaN
1208	1.000000	0.882910	7.37686e+06	-55189.1	1105.82	-29739.7	0.000000	0.000000	6.883078	-0.024878	NaN	0.000000	0.001580	0.001738	28.082	0.017637	0.001996	8.838194	-61.75	-167.241	0.059483	0.881581	-0.390000	-0.391328	-0.024878	8.838194	-0.387889	-89733.1	2.772498E-7	NaN
1208	1.000000	0.892916	7.37686e+06	-55189.1	1105.82	-29739.7	0.000000	0.000000	6.893086	0.002920	NaN	0.000000	0.001548	0.001744	28.0819	0.072991	0.002008	36.3448	60.0259	14.5262	0.013904	0.891553	-0.379993	-0.381356	0.002920	36.3448	-0.380053	-69286.8	-4.214025E-8	NaN
1208	1.000000	0.902911	7.37686e+06	-55189.1	1105.82	-29739.7	0.000000	0.000000	6.903079	-0.030003	NaN	0.000000	0.001555	0.001753	28.0818	0.108848	0.001961	55.507	-175.62	-166.803	-0.009910	0.901610	-0.369999	-0.371299	-0.030003	55.507	-0.369593	-49008	6.122119E-7	NaN
1208	1.000000	0.912941	7.37686e+06	-55189.1	1105.82	-29739.7	0.000000	0.000000	6.913112	0.029888	NaN	0.000000	0.001546	0.001741	28.0821	0.048978	0.001973	24.8286	142.907	13.668	0.095967	0.911568	-0.359969	-0.361342	0.029888	24.8286	-0.360871	-36680.8	-8.148001E-7	NaN
1208	1.000000	0.922946	7.37686e+06	-55189.1	1105.82	-29739.7	0.000000	0.000000	6.923115	-0.017161	NaN	0.000000	0.001559	0.001769	28.0819	0.042603	0.001943	21.9284	62.9911	-169.657	0.029206	0.921625	-0.349964	-0.351284	-0.017161	21.9284	-0.349377	-25000.9	6.864312E-7	NaN
1208	1.000000	0.932957	7.37686e+06	-55189.1	1105.82	-29739.7	0.000000	0.000000	6.933127	0.001401	NaN	0.000000	0.001592	0.001755	28.082	0.048102	0.002049	23.4736	175.36	12.9642	0.006055	0.931589	-0.339952	-0.341321	0.001401	23.4736	-0.339997	-18260.3	-7.672769E-8	NaN
1208	1.000000	0.942968	7.37686e+06	-55189.1	1105.82	-29739.7	0.000000	0.000000	6.943139	0.023377	NaN	0.000000	0.001563	0.001775	28.0819	0.012563	0.001983	6.334572	80.4095	-165.392	0.014498	0.941642	-0.329941	-0.331267	0.023377	6.334572	-0.332709	-14292	-1.635672E-6	NaN
1208	1.000000	0.952981	7.37686e+06	-55189.1	1105.82	-29739.7	0.000000	0.000000	6.953153	0.039227	NaN	0.000000	0.001559	0.001743	28.0822	0.150843	0.002078	72.6076	-149.38	10.4763	0.076877	0.951558	-0.319928	-0.321352	0.039227	72.6076	-0.320333	-9408.95	-4.169100E-6	NaN
1208	1.000000	0.962948	7.37686e+06	-55189.1	1105.82	-29739.7	0.000000	0.000000	6.963117	-0.016991	NaN	0.000000	0.001578	0.001752	28.0818	0.070228	0.002046	34.3247	126.857	-165.623	0.009172	0.961639	-0.309961	-0.311270	-0.016991	34.3247	-0.309590	-6531.11	2.601516E-6	NaN
1208	1.000000	0.972965	7.37686e+06	-55189.1	1105.82	-29739.7	0.000000	0.000000	6.973135	0.014724	NaN	0.000000	0.001533	0.001772	28.082	0.031065	0.001990	15.61	-131.666	14.4585	0.052026	0.971581	-0.299944	-0.301328	0.014724	15.61	-0.300652	-4812.09	-3.059721E-6	NaN
1208	1.000000	0.982959	7.37686e+06	-55189.1	1105.82	-29739.7	0.000000	0.000000	6.983130	0.018335	NaN	0.000000	0.001541	0.001747	28.0819	0.091813	0.001983	46.3004	57.8361	-171.114	0.087062	0.981650	-0.289950	-0.291260	0.018335	46.3004	-0.290247	-3365.13	-5.448399E-6	NaN
1208	1.000000	0.992948	7.37686e+06	-55189.1	1105.82	-29739.7	0.000000	0.000000	6.993121	0.072151	NaN	0.000000	0.001588	0.001760	28.0834	0.061487	0.002067	29.7441	-9.576569	16.4552	-0.020404	0.991603	-0.279961	-0.281307	0.072151	29.7441	-0.281780	-2510.77	-2.873667E-5	NaN
1208	1.000000	1.002936	7.37686e+06	-55189.1	1105.82	-29739.7	0.000000	0.000000	7.003105	-0.020812	NaN	0.000000	0.001552	0.001738	28.0832	0.127065	0.001870	67.9645	-178.467	-169.315	0.017723	1.001664	-0.269973	-0.271245	-0.020812	67.9645	-0.269744	-1650.62	1.260837E-5	NaN
1208	1.000000	1.012994	7.37686e+06	-55189.1	1105.82	-29739.7	0.000000	0.000000	7.013165	0.016694	NaN	0.000000	0.001533	0.001744	28.0833	0.101133	0.001962	51.5354	73.8438	14.4941	0.024991	1.011613	-0.259915	-0.261297	0.016694	51.5354	-0.260158	-1178.53	-1.416554E-5	NaN
1208	1.000000	1.022978	7.37686e+06	-55189.1	1105.82	-29739.7	0.000000	0.000000	7.023148	0.015226	NaN	0.000000	0.001539	0.001757	28.0835	0.063747	0.001887	33.7866	-88.6	-169.898	0.050539	1.021726	-0.249931	-0.251183	0.015226	33.7866	-0.250269	-830.103	-1.834187E-5	NaN
1208	1.000000	1.032959	7.37686e+06	-55189.1	1105.82	-29739.7	0.000000	0.000000	7.033126	-0.066218	NaN	0.000000	0.001525	0.001741	28.0836	0.093783	0.001962	47.8033	-145.782	8.823369	-0.043208	1.031633	-0.239951	-0.241277	-0.066218	47.8033	-0.238912	-552.772	0.000120	NaN
1208	1.000000	1.042997	7.37686e+06	-55189.1	1105.82	-29739.7	0.000000	0.000000	7.043168	0.030308	NaN	0.000000	0.001557	0.001730	28.0833	0.097954	0.001951	50.1956	103.062	-162.363	0.038122	1.041671	-0.229913	-0.231238	0.030308	50.1956	-0.230366	-405.777	-7.469153E-5	NaN
1208	1.000000	1.052992	7.37686e+06	-55189.1	1105.82	-29739.7	0.000000	0.000000	7.053164	0.038512	NaN	0.000000	0.001539	0.001728	28.0831	0.040919	0.002096	19.5187	-3.387438	11.037	0.089996	1.051640	-0.219917	-0.221269	0.038512	19.5187	-0.221397	-292.4	-0.000132	NaN
1208	1.000000	1.062999	7.37686e+06	-55189.1	1105.82	-29739.7	0.000000	0.000000	7.063171	0.070217	NaN	0.000000	0.001542	0.001758	28.0831	0.086699	0.002079	41.7078	146.131	-166.476	0.047641	1.061686	-0.209911	-0.211223	0.070217	41.7078	-0.211173	-200.356	-0.000350	NaN
1208	1.000000	1.072994	7.37686e+06	-55189.1	1105.82	-29739.7	0.000000	0.000000	7.073165	0.035080	NaN	0.000000	0.001573	0.001749	28.0834	0.080465	0.002016	39.9129	37.0372	16.2861	0.087613	1.071673	-0.199916	-0.201237	0.035080	39.9129	-0.200575	-134.629	-0.000261	NaN
1208	1.000000	1.083021	7.37686e+06	-55189.1	1105.82	-29739.7	0.000000	0.000000	7.083193	0.070561	NaN	0.000000	0.001572	0.001754	28.0831	0.063338	0.002024	31.2862	-128.212	-166.8	0.054754	1.081709	-0.189888	-0.191200	0.070561	31.2862	-0.191580	-95.584	-0.000738	NaN
1208	1.000000	1.093004	7.37686e+06	-55189.1	1105.82	-29739.7	0.000000	0.000000	7.093175	0.035478	NaN	0.000000	0.001606	0.001721	28.0832	0.092689	0.001998	46.3984	168.099	9.601272	-0.048543	1.091701	-0.179905	-0.181208	0.035478	46.3984	-0.180479	-62.1744	-0.000571	NaN
1208	1.000000	1.103002	7.37686e+06	-55189.1	1105.82	-29739.7	0.000000	0.000000	7.103174	0.034431	NaN	0.000000	0.001588	0.001742	28.0833	0.055212	0.002025	27.2649	77.1039	-165.786	0.023980	1.101624	-0.169907	-0.171285	0.034431	27.2649	-0.170854	-42.5039	-0.000810	NaN
1208	1.000000	1.113025	7.37686e+06	-55189.1	1105.82	-29739.7	0.000000	0.000000	7.113199	0.089275	NaN	0.000000	0.001590	0.001734	28.0833	0.049150	0.002062	23.8346	-124.651	8.075482	-0.005523	1.111652	-0.159884	-0.161257	0.089275	23.8346	-0.162693	-30.5976	-0.002918	NaN
1208	1.000000	1.123019	7.37686e+06	-55189.1	1105.82	-29739.7	0.000000	0.000000	7.123188	0.000867	NaN	0.000000	0.001594	0.001750	28.083	0.080732	0.001897	42.5664	124.648	-165.326	-0.005575	1.121698	-0.149891	-0.151211	0.000867	42.5664	-0.149906	-18.0422	-4.803585E-5	NaN
1208	1.000000	1.133007	7.37686e+06	-55189.1	1105.82	-29739.7	0.000000	0.000000	7.133178	0.009897	NaN	0.000000	0.001603	0.001754	28.0819	0.050840	0.001999	25.4381	-148.43	15.4047	-0.027251	1.131656	-0.139902	-0.141253	0.009897	25.4381	-0.140194	-11.9289	-0.000830	NaN
1208	1.000000	1.142998	7.37686e+06	-55189.1	1105.82	-29739.7	0.000000	0.000000	7.143172	0.094963	NaN	0.000000	0.001553	0.001778	28.0823	0.049829	0.002034	24.4938	-74.2365	-162.117	0.036190	1.141728	-0.129911	-0.131181	0.094963	24.4938	-0.132819	-8.639566	-0.010992	NaN
1208	1.000000	1.153050	7.37686e+06	-55189.1	1105.82	-29739.7	0.000000	0.000000	7.153223	0.083171	NaN	0.000000	0.001563	0.001778	28.0822	0.040763	0.002061	19.78	100.991	13.5532	0.059950	1.151656	-0.119859	-0.121254	0.083171	19.78	-0.123013	-5.552898	-0.014978	NaN
1208	1.000000	1.163041	7.37686e+06	-55189.1	1105.82	-29739.7	0.000000	0.000000	7.163210	0.000483	NaN	0.000000	0.001582	0.001745	28.0821	0.022055	0.001995	11.0537	-110.475	-163.288	-0.023110	1.161788	-0.109869	-0.111121	0.000483	11.0537	-0.109901	-2.990830	-0.000162	NaN
1208	1.000000	1.173071	7.37686e+06	-55189.1	1105.82	-29739.7	0.000000	0.000000	7.173241	0.013721	NaN	0.000000	0.001596	0.001773	28.0819	0.071706	0.002012	35.6435	122.562	15.7018	-0.011595	1.171667	-0.099839	-0.101243	0.013721	35.6435	-0.100127	-1.839061	-0.007461	NaN
1208	1.000000	1.183045	7.37686e+06	-55189.1	1105.82	-29739.7	0.000000	0.000000	7.183215	0.010895	NaN	0.000000	0.001573	0.001770	28.0823	0.032250	0.002015	16.0058	69.9415	-167.718	0.037189	1.181799	-0.089865	-0.091111	0.010895	16.0058	-0.090375	-1.103078	-0.009877	NaN
1208	1.000000	1.193049	7.37686e+06	-55189.1	1105.82	-29739.7	0.000000	0.000000	7.193221	0.043950	NaN	0.000000	0.001549	0.001763	28.0818	0.058431	0.002075	28.1562	75.1722	12.4291	-0.008685	1.191718	-0.079860	-0.081191	0.043950	28.1562	-0.081031	-0.656700	-0.066926	NaN
1208	1.000000	1.203055	7.37686e+06	-55189.1	1105.82	-29739.7	0.000000	0.000000	7.203223	-0.046669	NaN	0.000000	0.001566	0.001729	28.0822	0.118097	0.001880	62.8332	-65.9827	-166.448	-0.034954	1.201746	-0.069854	-0.071163	-0.046669	62.8332	-0.069297	-0.326596	0.142896	NaN
1208	1.000000	1.213037	7.37686e+06	-55189.1	1105.82	-29739.7	0.000000	0.000000	7.213208	0.052081	NaN	0.000000	0.001543	0.001742	28.0821	0.082812	0.002031	40.774	-114.658	10.1356	0.025316	1.211730	-0.059873	-0.061179	0.052081	40.774	-0.060831	-0.190222	-0.273793	NaN
1208	1.000000	1.223057	7.37686e+06	-55189.1	1105.82	-29739.7	0.000000	0.000000	7.223231	0.104233	NaN	0.000000	0.001532	0.001770	28.0822	0.041374	0.002050	20.1832	87.8145	-169.263	0.060864	1.221792	-0.049852	-0.051118	0.104233	20.1832	-0.053725	-0.118041	-0.883026	NaN
1208	1.000000	1.233068	7.37686e+06	-55189.1	1105.82	-29739.7	0.000000	0.000000	7.233238	0.026763	NaN	0.000000	0.001562	0.001789	28.082	0.048580	0.002113	22.9949	-43.213	13.4539	0.042068	1.231699	-0.039842	-0.041210	0.026763	22.9949	-0.040715	-0.047542	-0.562936	NaN
1208	1.000000	1.243063	7.37686e+06	-55189.1	1105.82	-29739.7	0.000000	0.000000	7.243279	1.115087	NaN	0.000000	0.001526	0.001772	28.0821	0.807238	0.001887	427.806	15.3605	-166.469	0.855681	1.241723	-0.029846	-0.031187	1.115087	427.806	-0.031801	-0.025866	-43.1099	NaN
1208	1.000000	1.253089	7.37686e+06	-55189.1	1105.82	-29739.7	0.000000	0.000000	7.253425	4.050907	NaN	0.000000	0.001611	0.001780	28.0821	1.186096	0.001825	649.859	8.238473	15.4318	3.678706	1.251691	-0.019821	-0.021219	4.050907	649.859	-0.024496	-0.016368	-247.494	NaN
1208	1.000000	1.263126	7.37686e+06	-55189.1	1105.82	-29739.7	0.000000	0.000000	7.263576	6.819632	NaN	0.000000	0.001644	0.001748	28.0828	2.056407	0.002100	979.116	17.0681	-166.629	6.572121	1.261779	-0.009783	-0.011130	6.819632	979.116	-0.015007	-0.009280	-734.89	NaN
1208	2.000000	1.271198	7.37686e+06	-55189.1	1105.82	-29739.7	0.000000	0.000000	7.271755	9.422746	NaN	0.000000	0.001656	0.001733	28.0832	3.704772	0.001942	1907.36	15.0017	9.863839	9.435290	1.270876	-0.001711	-0.002033	9.422746	1907.36	-0.005417	-0.003677	-2562.72	NaN
1208	2.000000	1.273653	7.37686e+06	-55189.1	1105.82	-29739.7	0.000000	0.000000	7.274273	10.9383	NaN	0.000000	0.001622	0.001734	28.0835	5.057746	0.001720	2940.44	9.413926	-171.236	10.8198	1.273358	0.000744	0.000449	10.9383	2940.44	-0.002046	-0.001471	-7434.74	NaN
1208	2.000000	1.276154	7.37686e+06	-55189.1	1105.82	-29739.7	0.000000	0.000000	7.276901	14.0209	NaN	0.000000	0.001675	0.001720	28.0834	6.515970	0.001920	3393.18	12.0355	6.994657	13.4354	1.275804	0.003245	0.002895	14.0209	3393.18	0.000146	0.000109	128336	296596
1208	2.000000	1.278625	7.37686e+06	-55189.1	1105.82	-29739.7	0.000000	0.000000	7.279501	17.173	NaN	0.000000	0.001626	0.001753	28.0831	7.614236	0.001941	3922.15	12.386	-176.753	16.7698	1.278279	0.005716	0.005370	17.173	3922.15	0.002432	0.001907	9003.46	82050.1
1208	2.000000	1.281121	7.37686e+06	-55189.1	1105.82	-29739.7	0.000000	0.000000	7.282145	20.7636	NaN	0.000000	0.001607	0.001750	28.0833	8.356625	0.002030	4116.92	9.834290	6.429188	20.1391	1.280719	0.008212	0.007810	20.7636	4116.92	0.004429	0.003618	5738.49	62530.8
1208	2.000000	1.283606	7.37686e+06	-55189.1	1105.82	-29739.7	0.000000	0.000000	7.284769	24.1379	NaN	0.000000	0.001605	0.001728	28.0839	8.835461	0.001901	4647.28	9.492861	-174.719	24.0993	1.283208	0.010697	0.010299	24.1379	4647.28	0.006801	0.005838	4134.38	55568.3
1208	2.000000	1.286110	7.37686e+06	-55189.1	1105.82	-29739.7	0.000000	0.000000	7.287392	27.0164	NaN	0.000000	0.001585	0.001791	28.0833	9.431507	0.002069	4559.23	9.177055	6.789879	26.9792	1.285731	0.013201	0.012822	27.0164	4559.23	0.008757	0.007833	3449.26	47066.7
1208	2.000000	1.288591	7.37686e+06	-55189.1	1105.82	-29739.7	0.000000	0.000000	7.289988	29.8368	NaN	0.000000	0.001586	0.001785	28.0833	9.884009	0.002115	4673.44	9.843132	-173.476	29.7614	1.288253	0.015682	0.015344	29.8368	4673.44	0.010894	0.010192	2927.58	42294.9
1208	2.000000	1.291068	7.37686e+06	-55189.1	1105.82	-29739.7	0.000000	0.000000	7.292602	33.1685	NaN	0.000000	0.001609	0.001741	28.0833	9.777636	0.001901	5142.45	5.728591	8.815317	32.0947	1.290710	0.018159	0.017801	33.1685	5142.45	0.013321	0.013111	2529.73	41031.5
1208	2.000000	1.293586	7.37686e+06	-55189.1	1105.82	-29739.7	0.000000	0.000000	7.295238	36.0305	NaN	0.000000	0.001590	0.001752	28.0836	10.5009	0.001936	5423.79	7.788863	-173.38	35.8904	1.293249	0.020677	0.020340	36.0305	5423.79	0.015695	0.016223	2220.93	38905.3
1208	2.000000	1.296041	7.37686e+06	-55189.1	1105.82	-29739.7	0.000000	0.000000	7.297845	39.7174	NaN	0.000000	0.001616	0.001773	28.0832	10.9205	0.001964	5560.24	7.316341	7.687280	38.6359	1.295661	0.023132	0.022752	39.7174	5560.24	0.017774	0.019165	2072.4	36695.5
1208	2.000000	1.298563	7.37686e+06	-55189.1	1105.82	-29739.7	0.000000	0.000000	7.300462	42.0394	NaN	0.000000	0.001588	0.001752	28.0844	11.5959	0.002040	5684.07	8.423972	-173.005	42.3804	1.298242	0.025654	0.025333	42.0394	5684.07	0.020107	0.022710	1851.12	34460.5
1208	2.000000	1.301058	7.37686e+06	-55189.1	1105.82	-29739.7	0.000000	0.000000	7.303082	45.0892	NaN	0.000000	0.001566	0.001711	28.0833	12.3993	0.002007	6177.09	8.794302	4.357395	44.4124	1.300715	0.028149	0.027805	45.0892	6177.09	0.022674	0.026919	1674.97	34397.3
1208	2.000000	1.303548	7.37686e+06	-55189.1	1105.82	-29739.7	0.000000	0.000000	7.305739	49.129	NaN	0.000000	0.001589	0.001740	28.0831	12.7486	0.002043	6239.73	9.016242	-175.153	48.7986	1.303164	0.030639	0.030254	49.129	6239.73	0.024733	0.030532	1609.08	32625.6
1208	2.000000	1.306063	7.37686e+06	-55189.1	1105.82	-29739.7	0.000000	0.000000	7.308427	53.3309	NaN	0.000000	0.001606	0.001706	28.082	12.9578	0.002059	6292.49	6.432043	8.214226	53.4229	1.305721	0.033154	0.032811	53.3309	6292.49	0.026798	0.034367	1551.79	31011.5
1208	2.000000	1.308581	7.37686e+06	-55189.1	1105.82	-29739.7	0.000000	0.000000	7.311128	57.8084	NaN	0.000000	0.001601	0.001718	28.0825	13.3036	0.001918	6935.14	7.008113	-174.513	57.6325	1.308210	0.035671	0.035301	57.8084	6935.14	0.029420	0.039550	1461.67	31860.9
1208	2.000000	1.311005	7.37686e+06	-55189.1	1105.82	-29739.7	0.000000	0.000000	7.313742	62.4071	NaN	0.000000	0.001583	0.001733	28.0822	13.8214	0.001934	7148.2	8.595003	3.208524	61.2865	1.310711	0.038096	0.037802	62.4071	7148.2	0.031548	0.044014	1417.89	31129.7
1208	2.000000	1.313547	7.37686e+06	-55189.1	1105.82	-29739.7	0.000000	0.000000	7.316439	66.1878	NaN	0.000000	0.001593	0.001722	28.0829	14.6504	0.001966	7451.33	9.097576	-177.122	66.2801	1.313244	0.040638	0.040334	66.1878	7451.33	0.033975	0.049387	1340.18	30633.7
1208	2.000000	1.316074	7.37686e+06	-55189.1	1105.82	-29739.7	0.000000	0.000000	7.319177	71.31	NaN	0.000000	0.001605	0.001714	28.0822	14.846	0.001995	7440.6	6.888877	5.552539	71.1758	1.315683	0.043165	0.042774	71.31	7440.6	0.035977	0.054044	1319.47	29241.9
1208	2.000000	1.318546	7.37686e+06	-55189.1	1105.82	-29739.7	0.000000	0.000000	7.321887	77.099	NaN	0.000000	0.001587	0.001727	28.0828	14.8412	0.001790	8291.12	5.011344	-174.638	76.7018	1.318190	0.045637	0.045281	77.099	8291.12	0.038663	0.060617	1271.89	30767.2
1208	2.000000	1.321002	7.37686e+06	-55189.1	1105.82	-29739.7	0.000000	0.000000	7.324535	81.7596	NaN	0.000000	0.001550	0.001749	28.0821	15.7602	0.001897	8306.59	6.668672	4.362564	80.5477	1.320710	0.048093	0.047800	81.7596	8306.59	0.040711	0.065879	1241.06	29568.1
1208	2.000000	1.323535	7.37686e+06	-55189.1	1105.82	-29739.7	0.000000	0.000000	7.327280	86.9171	NaN	0.000000	0.001590	0.001734	28.0822	16.6395	0.002043	8145.05	7.837351	-176.193	86.7742	1.323272	0.050626	0.050362	86.9171	8145.05	0.042622	0.070981	1224.51	27931.6
1208	2.000000	1.326042	7.37686e+06	-55189.1	1105.82	-29739.7	0.000000	0.000000	7.329970	91.3525	NaN	0.000000	0.001659	0.001732	28.0859	16.8831	0.002022	8349.94	5.888224	6.134167	90.677	1.325606	0.053133	0.052697	91.3525	8349.94	0.044927	0.077381	1180.55	27424.5
1208	2.000000	1.328530	7.37686e+06	-55189.1	1105.82	-29739.7	0.000000	0.000000	7.332705	97.3576	NaN	0.000000	0.001629	0.001781	28.0831	17.1863	0.001967	8739.27	6.727990	-175.726	96.5897	1.328180	0.055621	0.055271	97.3576	8739.27	0.047265	0.084149	1156.97	27524.8
1208	2.000000	1.331017	7.37686e+06	-55189.1	1105.82	-29739.7	0.000000	0.000000	7.335404	102.513	NaN	0.000000	0.001591	0.001755	28.0824	17.3708	0.001919	9053.76	6.420187	3.961046	101.371	1.330602	0.058108	0.057692	102.513	9053.76	0.049616	0.091228	1123.7	27386.5
1208	2.000000	1.333516	7.37686e+06	-55189.1	1105.82	-29739.7	0.000000	0.000000	7.338099	107.288	NaN	0.000000	0.001595	0.001728	28.0823	18.4438	0.001991	9261.93	7.468296	-177.056	106.677	1.333194	0.060607	0.060285	107.288	9261.93	0.051919	0.098438	1089.91	26970.8
1208	2.000000	1.336022	7.37686e+06	-55189.1	1105.82	-29739.7	0.000000	0.000000	7.340851	113.265	NaN	0.000000	0.001590	0.001751	28.0824	19.1561	0.002060	9301.02	10.2191	1.108144	112.367	1.335658	0.063113	0.062749	113.265	9301.02	0.053979	0.105109	1077.6	26211
1208	2.000000	1.338495	7.37686e+06	-55189.1	1105.82	-29739.7	0.000000	0.000000	7.343568	119.201	NaN	0.000000	0.001589	0.001788	28.0833	19.1294	0.001897	10082.4	5.812945	-176.123	117.992	1.338183	0.065586	0.065274	119.201	10082.4	0.056719	0.114305	1042.84	27246.2
1208	2.000000	1.341005	7.37686e+06	-55189.1	1105.82	-29739.7	0.000000	0.000000	7.346292	124.411	NaN	0.000000	0.001571	0.001747	28.0833	20.014	0.002000	10007.5	7.882510	2.675351	123.985	1.340609	0.068096	0.067700	124.411	10007.5	0.058772	0.121441	1024.46	26237.1
1208	2.000000	1.343519	7.37686e+06	-55189.1	1105.82	-29739.7	0.000000	0.000000	7.349064	130.653	NaN	0.000000	0.001544	0.001741	28.0833	20.3234	0.001938	10487.4	7.215529	-178.149	129.786	1.343151	0.070610	0.070242	130.653	10487.4	0.061267	0.130390	1002.02	26535.1
1208	2.000000	1.346021	7.37686e+06	-55189.1	1105.82	-29739.7	0.000000	0.000000	7.351801	136.389	NaN	0.000000	0.001565	0.001710	28.0836	20.999	0.002010	10445.2	8.967629	0.930143	135.773	1.345650	0.073112	0.072741	136.389	10445.2	0.063319	0.137977	988.487	25691.4
1208	2.000000	1.348467	7.37686e+06	-55189.1	1105.82	-29739.7	0.000000	0.000000	7.354477	141.964	NaN	0.000000	0.001567	0.001737	28.0833	21.1586	0.001950	10851.9	7.086095	-178.298	140.827	1.348215	0.075558	0.075306	141.964	10851.9	0.065746	0.147216	964.324	25840.5
1208	2.000000	1.350979	7.37686e+06	-55189.1	1105.82	-29739.7	0.000000	0.000000	7.357230	147.842	NaN	0.000000	0.001573	0.001697	28.0832	22.266	0.001999	11137.3	9.970459	-1.084048	146.841	1.350619	0.078069	0.077710	147.842	11137.3	0.068114	0.156499	944.684	25721.7
1208	2.000000	1.353479	7.37686e+06	-55189.1	1105.82	-29739.7	0.000000	0.000000	7.359963	153.502	NaN	0.000000	0.001597	0.001724	28.0834	22.4365	0.002077	10800.1	8.043195	-178.889	152.835	1.353192	0.080570	0.080282	153.502	10800.1	0.069910	0.163721	937.581	24386.4
1208	2.000000	1.356017	7.37686e+06	-55189.1	1105.82	-29739.7	0.000000	0.000000	7.362771	160.072	NaN	0.000000	0.001575	0.001729	28.0835	22.5455	0.001970	11442.3	6.405310	1.995659	159.401	1.355632	0.083107	0.082723	160.072	11442.3	0.072615	0.174889	915.277	24998
1208	2.000000	1.358482	7.37686e+06	-55189.1	1105.82	-29739.7	0.000000	0.000000	7.365410	164.281	NaN	0.000000	0.001588	0.001739	28.084	23.2287	0.001943	11954.8	9.941508	177.392	163.567	1.358220	0.085573	0.085311	164.281	11954.8	0.075267	0.186170	882.421	25314.1
1208	2.000000	1.361016	7.37686e+06	-55189.1	1105.82	-29739.7	0.000000	0.000000	7.368245	171.619	NaN	0.000000	0.001590	0.001711	28.0832	23.1862	0.001989	11659.4	3.528079	5.171583	170.674	1.360650	0.088106	0.087741	171.619	11659.4	0.077067	0.194017	884.559	24184.1
1208	2.000000	1.363500	7.37686e+06	-55189.1	1105.82	-29739.7	0.000000	0.000000	7.371053	179.479	NaN	0.000000	0.001599	0.001738	28.0834	23.9919	0.001939	12371	4.853042	-176.482	179.607	1.363185	0.090591	0.090276	179.479	12371	0.079710	0.205814	872.044	24913.8
1208	2.000000	1.366015	7.37686e+06	-55189.1	1105.82	-29739.7	0.000000	0.000000	7.373841	186.134	NaN	0.000000	0.001645	0.001739	28.0832	24.6606	0.001897	12996.5	7.125412	0.275751	186.381	1.365635	0.093105	0.092726	186.134	12996.5	0.082364	0.217988	853.874	25432.2
1208	2.000000	1.368473	7.37686e+06	-55189.1	1105.82	-29739.7	0.000000	0.000000	7.376560	192.482	NaN	0.000000	0.001619	0.001773	28.0832	24.9373	0.001960	12723.4	6.995804	-179.503	191.409	1.368187	0.095563	0.095277	192.482	12723.4	0.084217	0.226682	849.127	24415.6
1208	2.000000	1.368978	7.37686e+06	-55189.1	1105.82	-29739.7	0.000000	0.000000	7.377131	194.057	NaN	0.000000	0.001609	0.001742	28.0831	25.2259	0.001881	13407.7	9.293364	-3.082868	192.966	1.368622	0.096069	0.095713	194.057	13407.7	0.085214	0.231423	838.537	25463.7