File: remote_trans/data/nanoindenter/0828-1/data/Data_2025-08-06,11h17m57s/2025-07-22_16-23-58_1_1071.txt
2025-07-22, 16:23:58, 1
Index	Phase	Displacement	Time	Pos X	Pos Y	Pos Z	Rot A	Rot B	Piezo Z	Force A	Force B	Gripper	Voltage A	Voltage B	Temperature	Amplitude force	Amplitude pos	Stiffness	Phase shift	Phase excitation	Force A raw	Displacement raw	HMax	HMax raw	Real Force	Real Stiffness	Contact Depth	Area	Hardness	Reduced Mod.
[#]	[#]	[um]	[s]	[um]	[um]	[um]	[m°]	[m°]	[um]	[uN]	[uN]	[V]	[V]	[V]	[°C]	[uN]	[um]	[N/m]	[°]	[°]	[uN]	[um]	[um]	[um]	[uN]	[N/m]	[um]	[um^2]	[MPa]	[MPa]
1071	1.000000	0.002676	7.37552e+06	-53689.1	1055.82	-29744.9	0.000000	0.000000	6.002732	-0.054762	NaN	0.000000	0.001622	0.001707	28.0815	0.062395	0.000997	62.5839	-158.163	-158.266	-0.032610	0.001449	-1.753075	-1.754301	-0.054762	62.5839	-1.752419	-2.526847E+23	2.167219E-25	NaN
1071	1.000000	0.014765	7.37552e+06	-53689.1	1055.82	-29744.9	0.000000	0.000000	6.014826	0.077388	NaN	0.000000	0.001597	0.001698	28.0816	0.032094	0.001706	18.8117	137.238	-163.847	0.040669	0.013566	-1.740986	-1.742184	0.077388	18.8117	-1.744071	-1.957701E+23	-3.953015E-25	NaN
1071	1.000000	0.026751	7.37552e+06	-53689.1	1055.82	-29744.9	0.000000	0.000000	6.026808	-0.027091	NaN	0.000000	0.001631	0.001702	28.0814	0.117147	0.001934	60.5632	-102.716	-165.165	-0.000934	0.025371	-1.728999	-1.730380	-0.027091	60.5632	-1.728664	-1.222237E+23	2.216549E-25	NaN
1071	1.000000	0.038669	7.37552e+06	-53689.1	1055.82	-29744.9	0.000000	0.000000	6.038726	-0.029240	NaN	0.000000	0.001615	0.001717	28.0813	0.117410	0.002138	54.9185	140.68	-165.243	-0.020477	0.037380	-1.717081	-1.718370	-0.029240	54.9185	-1.716682	-8.472751E+22	3.451047E-25	NaN
1071	1.000000	0.050684	7.37552e+06	-53689.1	1055.82	-29744.9	0.000000	0.000000	6.050742	-0.007279	NaN	0.000000	0.001642	0.001750	28.0801	0.058006	0.001926	30.1237	-165.129	-167.134	-0.012706	0.049369	-1.705067	-1.706381	-0.007279	30.1237	-1.704885	-5.906568E+22	1.232297E-25	NaN
1071	1.000000	0.062709	7.37552e+06	-53689.1	1055.82	-29744.9	0.000000	0.000000	6.062769	0.021487	NaN	0.000000	0.001629	0.001728	28.0804	0.055601	0.001826	30.4433	107.178	-167.322	0.023449	0.061383	-1.693041	-1.694367	0.021487	30.4433	-1.693570	-4.178500E+22	-5.142234E-25	NaN
1071	1.000000	0.074669	7.37552e+06	-53689.1	1055.82	-29744.9	0.000000	0.000000	6.074727	-0.015668	NaN	0.000000	0.001608	0.001727	28.0805	0.075380	0.002094	35.9915	122.807	-165.865	-0.019466	0.073416	-1.681081	-1.682334	-0.015668	35.9915	-1.680755	-2.823269E+22	5.549675E-25	NaN
1071	1.000000	0.086719	7.37552e+06	-53689.1	1055.82	-29744.9	0.000000	0.000000	6.086777	0.007097	NaN	0.000000	0.001651	0.001705	28.081	0.053222	0.002085	25.525	110.87	-162.813	0.064106	0.085378	-1.669032	-1.670372	0.007097	25.525	-1.669240	-1.984935E+22	-3.575396E-25	NaN
1071	1.000000	0.098728	7.37552e+06	-53689.1	1055.82	-29744.9	0.000000	0.000000	6.098785	-0.026240	NaN	0.000000	0.001573	0.001747	28.0806	0.068727	0.002012	34.1622	-122.361	-161.796	-0.007234	0.097410	-1.657023	-1.658341	-0.026240	34.1622	-1.656447	-1.341894E+22	1.955441E-24	NaN
1071	1.000000	0.110703	7.37552e+06	-53689.1	1055.82	-29744.9	0.000000	0.000000	6.110759	-0.041893	NaN	0.000000	0.001598	0.001732	28.0808	0.139626	0.001952	71.5394	-138.417	-164.108	0.005772	0.109399	-1.645048	-1.646351	-0.041893	71.5394	-1.644608	-9.340369E+21	4.485162E-24	NaN
1071	1.000000	0.122707	7.37552e+06	-53689.1	1055.82	-29744.9	0.000000	0.000000	6.122766	0.018737	NaN	0.000000	0.001582	0.001748	28.0805	0.030212	0.002075	14.5581	-53.65	-165.006	-0.019346	0.121360	-1.633043	-1.634391	0.018737	14.5581	-1.634009	-6.752325E+21	-2.774878E-24	NaN
1071	1.000000	0.134696	7.37552e+06	-53689.1	1055.82	-29744.9	0.000000	0.000000	6.134751	-0.095965	NaN	0.000000	0.001573	0.001748	28.0803	0.074477	0.001985	37.5273	-145.961	-165.116	-0.075701	0.133447	-1.621054	-1.622303	-0.095965	37.5273	-1.619136	-4.282622E+21	2.240809E-23	NaN
1071	1.000000	0.146716	7.37552e+06	-53689.1	1055.82	-29744.9	0.000000	0.000000	6.146774	-0.007870	NaN	0.000000	0.001577	0.001771	28.0804	0.059206	0.002012	29.4278	-137.346	-164.375	-0.019051	0.145377	-1.609035	-1.610374	-0.007870	29.4278	-1.608834	-3.124011E+21	2.519119E-24	NaN
1071	1.000000	0.158727	7.37552e+06	-53689.1	1055.82	-29744.9	0.000000	0.000000	6.158786	0.002569	NaN	0.000000	0.001607	0.001767	28.0805	0.073263	0.001987	36.8723	-168.021	-165.51	0.026695	0.157460	-1.597023	-1.598291	0.002569	36.8723	-1.597075	-2.179347E+21	-1.178765E-24	NaN
1071	1.000000	0.170713	7.37552e+06	-53689.1	1055.82	-29744.9	0.000000	0.000000	6.170772	0.031980	NaN	0.000000	0.001568	0.001762	28.0807	0.058398	0.001998	29.2231	97.4812	-163.278	0.043134	0.169399	-1.585038	-1.586352	0.031980	29.2231	-1.585858	-1.545682E+21	-2.068990E-23	NaN
1071	1.000000	0.182733	7.37552e+06	-53689.1	1055.82	-29744.9	0.000000	0.000000	6.182793	0.049204	NaN	0.000000	0.001593	0.001757	28.0818	0.129637	0.001932	67.1028	178.008	-162.416	-0.009619	0.181439	-1.573018	-1.574312	0.049204	67.1028	-1.573568	-1.060735E+21	-4.638685E-23	NaN
1071	1.000000	0.194727	7.37552e+06	-53689.1	1055.82	-29744.9	0.000000	0.000000	6.194786	0.007593	NaN	0.000000	0.001589	0.001728	28.0819	0.068407	0.001855	36.8845	-175.285	-166.682	0.090442	0.193410	-1.561023	-1.562340	0.007593	36.8845	-1.561178	-7.256856E+20	-1.046273E-23	NaN
1071	1.000000	0.206737	7.37552e+06	-53689.1	1055.82	-29744.9	0.000000	0.000000	6.206797	0.042993	NaN	0.000000	0.001569	0.001727	28.0819	0.056541	0.001980	28.5629	-108.829	-167.732	0.010405	0.205507	-1.549014	-1.550243	0.042993	28.5629	-1.550142	-5.174772E+20	-8.308120E-23	NaN
1071	1.000000	0.218723	7.37552e+06	-53689.1	1055.82	-29744.9	0.000000	0.000000	6.218782	0.017827	NaN	0.000000	0.001633	0.001751	28.0817	0.051406	0.002090	24.5957	71.8102	-162.782	0.055744	0.217450	-1.537027	-1.538301	0.017827	24.5957	-1.537571	-3.520125E+20	-5.064367E-23	NaN
1071	1.000000	0.230775	7.37552e+06	-53689.1	1055.82	-29744.9	0.000000	0.000000	6.230834	0.017538	NaN	0.000000	0.001594	0.001791	28.0818	0.057029	0.001959	29.1112	156.619	-163.96	0.019699	0.229408	-1.524975	-1.526342	0.017538	29.1112	-1.525427	-2.426020E+20	-7.228996E-23	NaN
1071	1.000000	0.242746	7.37552e+06	-53689.1	1055.82	-29744.9	0.000000	0.000000	6.242807	0.067600	NaN	0.000000	0.001568	0.001754	28.0817	0.116039	0.001974	58.7746	71.7184	-167.231	0.082087	0.241504	-1.513004	-1.514246	0.067600	58.7746	-1.513867	-1.702058E+20	-3.971669E-22	NaN
1071	1.000000	0.254761	7.37552e+06	-53689.1	1055.82	-29744.9	0.000000	0.000000	6.254817	-0.061961	NaN	0.000000	0.001606	0.001781	28.0817	0.070091	0.002003	34.9878	118.248	-167.022	0.008156	0.253474	-1.500989	-1.502277	-0.061961	34.9878	-1.499661	-1.101031E+20	5.627570E-22	NaN
1071	1.000000	0.266771	7.37552e+06	-53689.1	1055.82	-29744.9	0.000000	0.000000	6.266831	0.038514	NaN	0.000000	0.001591	0.001778	28.082	0.096148	0.001984	48.4497	108.448	-163.674	0.102420	0.265475	-1.488979	-1.490276	0.038514	48.4497	-1.489576	-8.081031E+19	-4.766027E-22	NaN
1071	1.000000	0.278809	7.37552e+06	-53689.1	1055.82	-29744.9	0.000000	0.000000	6.278871	0.077642	NaN	0.000000	0.001629	0.001761	28.0821	0.069227	0.002088	33.1483	149.476	-167.351	0.065258	0.277503	-1.476941	-1.478247	0.077642	33.1483	-1.478698	-5.788422E+19	-1.341326E-21	NaN
1071	1.000000	0.290790	7.37552e+06	-53689.1	1055.82	-29744.9	0.000000	0.000000	6.290850	0.055739	NaN	0.000000	0.001547	0.001750	28.0821	0.036916	0.001912	19.3071	98.421	-168.009	0.095502	0.289488	-1.464961	-1.466263	0.055739	19.3071	-1.467126	-4.058625E+19	-1.373355E-21	NaN
1071	1.000000	0.302771	7.37552e+06	-53689.1	1055.82	-29744.9	0.000000	0.000000	6.302832	0.077765	NaN	0.000000	0.001539	0.001755	28.0817	0.039650	0.001959	20.2371	-66.763	-166.399	0.066210	0.301511	-1.452980	-1.454239	0.077765	20.2371	-1.455862	-2.872591E+19	-2.707125E-21	NaN
1071	1.000000	0.314771	7.37552e+06	-53689.1	1055.82	-29744.9	0.000000	0.000000	6.314826	-0.077562	NaN	0.000000	0.001534	0.001755	28.0819	0.116182	0.001960	59.285	-158.814	-165.98	0.026912	0.313532	-1.440980	-1.442219	-0.077562	59.285	-1.439998	-1.765358E+19	4.393535E-21	NaN
1071	1.000000	0.326792	7.37552e+06	-53689.1	1055.82	-29744.9	0.000000	0.000000	6.326851	0.005361	NaN	0.000000	0.001513	0.001762	28.0804	0.020630	0.001902	10.8458	48.5395	-169.313	0.030258	0.325455	-1.428958	-1.430296	0.005361	10.8458	-1.429329	-1.272302E+19	-4.213974E-22	NaN
1071	1.000000	0.338810	7.37552e+06	-53689.1	1055.82	-29744.9	0.000000	0.000000	6.338868	-0.017463	NaN	0.000000	0.001544	0.001771	28.0802	0.076710	0.002092	36.6643	-71.3567	-167.458	0.015729	0.337523	-1.416940	-1.418227	-0.017463	36.6643	-1.416583	-8.602736E+18	2.029887E-21	NaN
1071	1.000000	0.350811	7.37552e+06	-53689.1	1055.82	-29744.9	0.000000	0.000000	6.350866	-0.058608	NaN	0.000000	0.001520	0.001794	28.0804	0.054432	0.001975	27.5654	138.926	-172.551	-0.004076	0.349561	-1.404940	-1.406189	-0.058608	27.5654	-1.403345	-5.729085E+18	1.022988E-20	NaN
1071	1.000000	0.362832	7.37552e+06	-53689.1	1055.82	-29744.9	0.000000	0.000000	6.362888	-0.032528	NaN	0.000000	0.001509	0.001717	28.0805	0.029276	0.002038	14.3649	57.472	-167.235	-0.014083	0.361501	-1.392919	-1.394250	-0.032528	14.3649	-1.391220	-3.947727E+18	8.239589E-21	NaN
1071	1.000000	0.374817	7.37552e+06	-53689.1	1055.82	-29744.9	0.000000	0.000000	6.374873	-0.035056	NaN	0.000000	0.001537	0.001769	28.0806	0.149641	0.002114	70.8012	-129.499	-165.162	0.009145	0.373554	-1.380934	-1.382196	-0.035056	70.8012	-1.380562	-2.845402E+18	1.232009E-20	NaN
1071	1.000000	0.386825	7.37552e+06	-53689.1	1055.82	-29744.9	0.000000	0.000000	6.386882	-0.015162	NaN	0.000000	0.001522	0.001758	28.0804	0.077909	0.002022	38.5389	-11.8465	-167.395	-0.085673	0.385518	-1.368926	-1.370233	-0.015162	38.5389	-1.368631	-1.972061E+18	7.688271E-21	NaN
1071	1.000000	0.398828	7.37552e+06	-53689.1	1055.82	-29744.9	0.000000	0.000000	6.398885	-0.023491	NaN	0.000000	0.001559	0.001796	28.0802	0.129082	0.002068	62.421	-129.995	-168.36	-0.066340	0.397569	-1.356923	-1.358182	-0.023491	62.421	-1.356641	-1.364204E+18	1.721956E-20	NaN
1071	1.000000	0.410855	7.37552e+06	-53689.1	1055.82	-29744.9	0.000000	0.000000	6.410911	-0.063383	NaN	0.000000	0.001569	0.001792	28.0802	0.102852	0.002069	49.7082	69.2909	-165.395	-0.016517	0.409553	-1.344895	-1.346198	-0.063383	49.7082	-1.343939	-9.232166E+17	6.865403E-20	NaN
1071	1.000000	0.422833	7.37552e+06	-53689.1	1055.82	-29744.9	0.000000	0.000000	6.422891	-0.010011	NaN	0.000000	0.001571	0.001803	28.0804	0.047573	0.001999	23.7963	-122.513	-163.003	0.048435	0.421490	-1.332918	-1.334260	-0.010011	23.7963	-1.332602	-6.515091E+17	1.536638E-20	NaN
1071	1.000000	0.434839	7.37552e+06	-53689.1	1055.82	-29744.9	0.000000	0.000000	6.434896	-0.034528	NaN	0.000000	0.001542	0.001809	28.0802	0.063794	0.001976	32.2873	-130.742	-162.757	0.011626	0.433488	-1.320911	-1.322263	-0.034528	32.2873	-1.320109	-4.436738E+17	7.782260E-20	NaN
1071	1.000000	0.446863	7.37552e+06	-53689.1	1055.82	-29744.9	0.000000	0.000000	6.446920	-0.010486	NaN	0.000000	0.001543	0.001799	28.0803	0.013573	0.001955	6.943982	-44.578	-164.855	-0.031115	0.445557	-1.308888	-1.310194	-0.010486	6.943982	-1.307755	-3.034043E+17	3.456164E-20	NaN
1071	1.000000	0.458867	7.37552e+06	-53689.1	1055.82	-29744.9	0.000000	0.000000	6.458926	0.039205	NaN	0.000000	0.001525	0.001804	28.0818	0.039170	0.001968	19.9018	93.2126	-167.011	0.074577	0.457566	-1.296884	-1.298184	0.039205	19.9018	-1.298361	-2.272464E+17	-1.725210E-19	NaN
1071	1.000000	0.470879	7.37552e+06	-53689.1	1055.82	-29744.9	0.000000	0.000000	6.470936	-0.028057	NaN	0.000000	0.001565	0.001772	28.0817	0.087137	0.001968	44.2802	-10.0313	-166.339	0.043732	0.469532	-1.284871	-1.286219	-0.028057	44.2802	-1.284396	-1.478594E+17	1.897549E-19	NaN
1071	1.000000	0.482902	7.37552e+06	-53689.1	1055.82	-29744.9	0.000000	0.000000	6.482959	-0.022926	NaN	0.000000	0.001538	0.001754	28.0815	0.071787	0.002064	34.7858	174.119	-168.247	-0.093914	0.481496	-1.272848	-1.274254	-0.022926	34.7858	-1.272354	-1.020621E+17	2.246307E-19	NaN
1071	1.000000	0.494859	7.37552e+06	-53689.1	1055.82	-29744.9	0.000000	0.000000	6.494916	-0.043259	NaN	0.000000	0.001570	0.001738	28.0817	0.043743	0.002085	20.9761	137.195	-164.944	0.005129	0.493559	-1.260891	-1.262192	-0.043259	20.9761	-1.259344	-6.837540E+16	6.326734E-19	NaN
1071	1.000000	0.506909	7.37552e+06	-53689.1	1055.82	-29744.9	0.000000	0.000000	6.506964	-0.068399	NaN	0.000000	0.001508	0.001746	28.0815	0.070011	0.001969	35.5556	-132.509	-165.749	-0.059089	0.505617	-1.248842	-1.250133	-0.068399	35.5556	-1.247399	-4.732895E+16	1.445174E-18	NaN
1071	1.000000	0.518887	7.37552e+06	-53689.1	1055.82	-29744.9	0.000000	0.000000	6.518945	-0.000992	NaN	0.000000	0.001550	0.001745	28.0819	0.038411	0.002104	18.2587	-115.837	-162.226	0.001269	0.517613	-1.236864	-1.238137	-0.000992	18.2587	-1.236823	-3.416916E+16	2.904566E-20	NaN
1071	1.000000	0.530898	7.37552e+06	-53689.1	1055.82	-29744.9	0.000000	0.000000	6.530957	0.008898	NaN	0.000000	0.001556	0.001743	28.0816	0.042343	0.001980	21.3818	-98.7768	-167.962	0.069543	0.529579	-1.224852	-1.226172	0.008898	21.3818	-1.225164	-2.385726E+16	-3.729700E-19	NaN
1071	1.000000	0.542897	7.37552e+06	-53689.1	1055.82	-29744.9	0.000000	0.000000	6.542955	-0.009834	NaN	0.000000	0.001532	0.001714	28.0817	0.015154	0.002105	7.200515	168.446	-167.776	0.002528	0.541571	-1.212853	-1.214179	-0.009834	7.200515	-1.211829	-1.581692E+16	6.217345E-19	NaN
1071	1.000000	0.554925	7.37553e+06	-53689.1	1055.82	-29744.9	0.000000	0.000000	6.554984	0.021310	NaN	0.000000	0.001545	0.001688	28.0818	0.111664	0.002080	53.6814	-125.469	-163.624	-0.007199	0.553569	-1.200825	-1.202182	0.021310	53.6814	-1.201123	-1.137070E+16	-1.874144E-18	NaN
1071	1.000000	0.566930	7.37553e+06	-53689.1	1055.82	-29744.9	0.000000	0.000000	6.566989	0.003801	NaN	0.000000	0.001537	0.001681	28.0815	0.087686	0.001904	46.0567	152.094	-166.233	-0.019480	0.565573	-1.188820	-1.190177	0.003801	46.0567	-1.188882	-7.795633E+15	-4.875315E-19	NaN
1071	1.000000	0.578919	7.37553e+06	-53689.1	1055.82	-29744.9	0.000000	0.000000	6.578978	0.008283	NaN	0.000000	0.001578	0.001742	28.0814	0.027580	0.002096	13.1552	145.941	-162.953	0.016326	0.577639	-1.176831	-1.178112	0.008283	13.1552	-1.177303	-5.454323E+15	-1.518674E-18	NaN
1071	1.000000	0.590910	7.37553e+06	-53689.1	1055.82	-29744.9	0.000000	0.000000	6.590969	0.014215	NaN	0.000000	0.001570	0.001795	28.0806	0.027128	0.002074	13.0821	-91.6521	-167.309	-0.060153	0.589614	-1.164840	-1.166136	0.014215	13.0821	-1.165655	-3.807665E+15	-3.733217E-18	NaN
1071	1.000000	0.602922	7.37553e+06	-53689.1	1055.82	-29744.9	0.000000	0.000000	6.602978	-0.053823	NaN	0.000000	0.001552	0.001745	28.0803	0.121773	0.001973	61.7097	-150.73	-166.852	-0.056069	0.601655	-1.152828	-1.154095	-0.053823	61.7097	-1.152174	-2.511670E+15	2.142898E-17	NaN
1071	1.000000	0.614960	7.37553e+06	-53689.1	1055.82	-29744.9	0.000000	0.000000	6.615015	-0.067494	NaN	0.000000	0.001589	0.001763	28.0802	0.076202	0.001924	39.6023	-46.9863	-167.163	-0.089319	0.613634	-1.140791	-1.142117	-0.067494	39.6023	-1.139513	-1.699029E+15	3.972509E-17	NaN
1071	1.000000	0.626947	7.37553e+06	-53689.1	1055.82	-29744.9	0.000000	0.000000	6.627004	-0.036565	NaN	0.000000	0.001573	0.001756	28.0802	0.079778	0.001908	41.8211	130.818	-171.21	0.071712	0.625627	-1.128803	-1.130124	-0.036565	41.8211	-1.128147	-1.196104E+15	3.057008E-17	NaN
1071	1.000000	0.638941	7.37553e+06	-53689.1	1055.82	-29744.9	0.000000	0.000000	6.639001	0.036216	NaN	0.000000	0.001562	0.001786	28.0804	0.097441	0.002074	46.9764	-14.6635	-166.364	0.031243	0.637586	-1.116809	-1.118165	0.036216	46.9764	-1.117387	-8.578581E+14	-4.221640E-17	NaN
1071	1.000000	0.650943	7.37553e+06	-53689.1	1055.82	-29744.9	0.000000	0.000000	6.651000	-0.034424	NaN	0.000000	0.001565	0.001730	28.0803	0.028049	0.001908	14.6995	-88.575	-163.636	-0.014443	0.649646	-1.104807	-1.106105	-0.034424	14.6995	-1.103051	-5.508298E+14	6.249503E-17	NaN
1071	1.000000	0.662960	7.37553e+06	-53689.1	1055.82	-29744.9	0.000000	0.000000	6.663019	0.026356	NaN	0.000000	0.001562	0.001739	28.0802	0.141592	0.001904	74.3849	71.2449	-167.742	0.065027	0.661621	-1.092790	-1.094130	0.026356	74.3849	-1.093056	-4.044328E+14	-6.516722E-17	NaN
1071	1.000000	0.674936	7.37553e+06	-53689.1	1055.82	-29744.9	0.000000	0.000000	6.674995	0.025869	NaN	0.000000	0.001570	0.001743	28.0801	0.137447	0.002011	68.3483	-20.3837	-164.775	0.111826	0.673624	-1.080815	-1.082126	0.025869	68.3483	-1.081099	-2.794302E+14	-9.257864E-17	NaN
1071	1.000000	0.686972	7.37553e+06	-53689.1	1055.82	-29744.9	0.000000	0.000000	6.687029	-0.020471	NaN	0.000000	0.001589	0.001740	28.0801	0.101356	0.002056	49.2993	-147.088	-163.841	-0.005218	0.685654	-1.068779	-1.070096	-0.020471	49.2993	-1.068467	-1.890583E+14	1.082794E-16	NaN
1071	1.000000	0.698967	7.37553e+06	-53689.1	1055.82	-29744.9	0.000000	0.000000	6.699024	-0.024876	NaN	0.000000	0.001601	0.001759	28.0801	0.084937	0.001916	44.341	153.014	-166.95	-0.036814	0.697631	-1.056783	-1.058120	-0.024876	44.341	-1.056363	-1.299982E+14	1.913553E-16	NaN
1071	1.000000	0.710952	7.37553e+06	-53689.1	1055.82	-29744.9	0.000000	0.000000	6.711008	-0.053705	NaN	0.000000	0.001578	0.001730	28.0804	0.107695	0.001966	54.7762	-175.191	-163.748	-0.061277	0.709646	-1.044798	-1.046105	-0.053705	54.7762	-1.044063	-8.883735E+13	6.045273E-16	NaN
1071	1.000000	0.722970	7.37553e+06	-53689.1	1055.82	-29744.9	0.000000	0.000000	6.723027	-0.015350	NaN	0.000000	0.001539	0.001764	28.0803	0.102614	0.001960	52.3409	76.4634	-166.046	-0.035862	0.721695	-1.032781	-1.034055	-0.015350	52.3409	-1.032561	-6.221869E+13	2.467157E-16	NaN
1071	1.000000	0.734974	7.37553e+06	-53689.1	1055.82	-29744.9	0.000000	0.000000	6.735031	-0.013117	NaN	0.000000	0.001593	0.001801	28.0816	0.029490	0.002037	14.4793	-135.606	-167.587	-0.021259	0.733682	-1.020777	-1.022068	-0.013117	14.4793	-1.020097	-4.229221E+13	3.101569E-16	NaN
1071	1.000000	0.746976	7.37553e+06	-53689.1	1055.82	-29744.9	0.000000	0.000000	6.747035	0.019344	NaN	0.000000	0.001583	0.001788	28.0814	0.120417	0.001959	61.465	130.183	-168.496	0.017339	0.745639	-1.008775	-1.010111	0.019344	61.465	-1.009011	-2.999637E+13	-6.448895E-16	NaN
1071	1.000000	0.759000	7.37553e+06	-53689.1	1055.82	-29744.9	0.000000	0.000000	6.759056	-0.053519	NaN	0.000000	0.001600	0.001736	28.0814	0.114656	0.002030	56.4765	138.047	-166.093	-0.024354	0.757700	-0.996750	-0.998051	-0.053519	56.4765	-0.996040	-2.006521E+13	2.667265E-15	NaN
1071	1.000000	0.770991	7.37553e+06	-53689.1	1055.82	-29744.9	0.000000	0.000000	6.771052	0.049112	NaN	0.000000	0.001603	0.001753	28.0819	0.071132	0.002074	34.2982	-63.7157	-167.148	-0.019880	0.769666	-0.984759	-0.986084	0.049112	34.2982	-0.985833	-1.462131E+13	-3.358921E-15	NaN
1071	1.000000	0.782946	7.37553e+06	-53689.1	1055.82	-29744.9	0.000000	0.000000	6.783002	-0.062214	NaN	0.000000	0.001561	0.001756	28.0813	0.049779	0.001912	26.0413	94.6022	-164	-0.028011	0.781681	-0.972804	-0.974069	-0.062214	26.0413	-0.971013	-9.232283E+12	6.738765E-15	NaN
1071	1.000000	0.795008	7.37553e+06	-53689.1	1055.82	-29744.9	0.000000	0.000000	6.795065	-0.027755	NaN	0.000000	0.001567	0.001738	28.0813	0.034508	0.002094	16.4764	-161.858	-167.585	-0.048720	0.793716	-0.960743	-0.962035	-0.027755	16.4764	-0.959479	-6.454337E+12	4.300173E-15	NaN
1071	1.000000	0.807002	7.37553e+06	-53689.1	1055.82	-29744.9	0.000000	0.000000	6.807060	0.008199	NaN	0.000000	0.001563	0.001762	28.0814	0.075240	0.001899	39.611	-29.9819	-165.858	0.061977	0.805666	-0.948749	-0.950085	0.008199	39.611	-0.948904	-4.647775E+12	-1.764077E-15	NaN
1071	1.000000	0.819009	7.37553e+06	-53689.1	1055.82	-29744.9	0.000000	0.000000	6.819066	-0.033084	NaN	0.000000	0.001597	0.001752	28.0817	0.076651	0.002019	37.9613	66.1415	-163.671	-0.054528	0.817674	-0.936741	-0.938076	-0.033084	37.9613	-0.936087	-3.121380E+12	1.059919E-14	NaN
1071	1.000000	0.831028	7.37553e+06	-53689.1	1055.82	-29744.9	0.000000	0.000000	6.831085	-0.035680	NaN	0.000000	0.001595	0.001777	28.0815	0.054714	0.001961	27.9011	160.285	-166.997	-0.117330	0.829700	-0.924723	-0.926050	-0.035680	27.9011	-0.923763	-2.128214E+12	1.676516E-14	NaN
1071	1.000000	0.842996	7.37553e+06	-53689.1	1055.82	-29744.9	0.000000	0.000000	6.843053	-0.024047	NaN	0.000000	0.001580	0.001756	28.0814	0.085896	0.002063	41.6286	-98.5414	-168.549	-0.017414	0.841719	-0.912754	-0.914031	-0.024047	41.6286	-0.912321	-1.491111E+12	1.612670E-14	NaN
1071	1.000000	0.855018	7.37553e+06	-53689.1	1055.82	-29744.9	0.000000	0.000000	6.855078	0.029805	NaN	0.000000	0.001595	0.001759	28.0817	0.119277	0.001912	62.3877	55.3135	-168.09	-0.050607	0.853683	-0.900732	-0.902068	0.029805	62.3877	-0.901090	-1.051476E+12	-2.834633E-14	NaN
1071	1.000000	0.867022	7.37553e+06	-53689.1	1055.82	-29744.9	0.000000	0.000000	6.867079	-0.010110	NaN	0.000000	0.001547	0.001721	28.0804	0.089024	0.001943	45.8288	-147.125	-168.004	-0.021495	0.865736	-0.888729	-0.890015	-0.010110	45.8288	-0.888563	-7.120229E+11	1.419894E-14	NaN
1071	1.000000	0.879031	7.37553e+06	-53689.1	1055.82	-29744.9	0.000000	0.000000	6.879087	-0.038314	NaN	0.000000	0.001541	0.001740	28.0802	0.084476	0.001984	42.5781	-177.407	-166.839	-0.013540	0.877736	-0.876720	-0.878015	-0.038314	42.5781	-0.876045	-4.821850E+11	7.945890E-14	NaN
1071	1.000000	0.891041	7.37553e+06	-53689.1	1055.82	-29744.9	0.000000	0.000000	6.891099	-0.005667	NaN	0.000000	0.001553	0.001731	28.0802	0.105177	0.002007	52.4037	168.376	-166.018	0.015270	0.889770	-0.864709	-0.865980	-0.005667	52.4037	-0.864628	-3.378757E+11	1.677387E-14	NaN
1071	1.000000	0.903015	7.37553e+06	-53689.1	1055.82	-29744.9	0.000000	0.000000	6.903072	-0.026231	NaN	0.000000	0.001550	0.001725	28.0805	0.068539	0.001939	35.3497	137.091	-166.598	0.007588	0.901740	-0.852735	-0.854010	-0.026231	35.3497	-0.852179	-2.292122E+11	1.144418E-13	NaN
1071	1.000000	0.915075	7.37553e+06	-53689.1	1055.82	-29744.9	0.000000	0.000000	6.915132	-0.017450	NaN	0.000000	0.001560	0.001774	28.0804	0.077349	0.001905	40.5978	-58.1522	-165.571	0.008865	0.913725	-0.840675	-0.842025	-0.017450	40.5978	-0.840353	-1.585173E+11	1.100844E-13	NaN
1071	1.000000	0.927050	7.37553e+06	-53689.1	1055.82	-29744.9	0.000000	0.000000	6.927108	-0.017392	NaN	0.000000	0.001579	0.001751	28.0807	0.038815	0.002118	18.3271	-114.838	-166.853	-0.002505	0.925773	-0.828700	-0.829977	-0.017392	18.3271	-0.827989	-1.077757E+11	1.613725E-13	NaN
1071	1.000000	0.939046	7.37553e+06	-53689.1	1055.82	-29744.9	0.000000	0.000000	6.939105	0.026806	NaN	0.000000	0.001626	0.001748	28.0804	0.039656	0.001962	20.2118	129.387	-165.834	-0.022386	0.937783	-0.816704	-0.817968	0.026806	20.2118	-0.817699	-7.816437E+10	-3.429476E-13	NaN
1071	1.000000	0.951065	7.37553e+06	-53689.1	1055.82	-29744.9	0.000000	0.000000	6.951120	-0.063653	NaN	0.000000	0.001560	0.001741	28.0803	0.049160	0.002073	23.7176	-7.358234	-167.036	-0.056261	0.949738	-0.804686	-0.806012	-0.063653	23.7176	-0.802673	-4.888101E+10	1.302203E-12	NaN
1071	1.000000	0.963064	7.37553e+06	-53689.1	1055.82	-29744.9	0.000000	0.000000	6.963123	0.023985	NaN	0.000000	0.001612	0.001773	28.0804	0.019231	0.002029	9.476976	-32.9044	-162.583	0.088428	0.961750	-0.792687	-0.794000	0.023985	9.476976	-0.794585	-3.796171E+10	-6.318172E-13	NaN
1071	1.000000	0.975056	7.37553e+06	-53689.1	1055.82	-29744.9	0.000000	0.000000	6.975116	0.031072	NaN	0.000000	0.001565	0.001765	28.0805	0.027580	0.001974	13.9698	-21.8838	-167.569	0.020298	0.973746	-0.780694	-0.782004	0.031072	13.9698	-0.782362	-2.590177E+10	-1.199618E-12	NaN
1071	1.000000	0.987084	7.37553e+06	-53689.1	1055.82	-29744.9	0.000000	0.000000	6.987142	-0.005439	NaN	0.000000	0.001598	0.001732	28.0803	0.095057	0.002043	46.5383	-158.691	-162.589	-0.019422	0.985778	-0.768666	-0.769973	-0.005439	46.5383	-0.768578	-1.682573E+10	3.232832E-13	NaN
1071	1.000000	0.999094	7.37553e+06	-53689.1	1055.82	-29744.9	0.000000	0.000000	6.999150	-0.047497	NaN	0.000000	0.001604	0.001766	28.0807	0.019877	0.002054	9.674870	73.0937	-170.246	-0.059895	0.997844	-0.756656	-0.757906	-0.047497	9.674870	-0.752974	-1.032053E+10	4.602220E-12	NaN
1071	1.000000	1.011081	7.37553e+06	-53689.1	1055.82	-29744.9	0.000000	0.000000	7.011142	0.048973	NaN	0.000000	0.001591	0.001718	28.0816	0.038283	0.002068	18.5153	-28.236	-166.733	0.003739	1.009805	-0.744669	-0.745945	0.048973	18.5153	-0.746653	-8.465487E+9	-5.785055E-12	NaN
1071	1.000000	1.023088	7.37553e+06	-53689.1	1055.82	-29744.9	0.000000	0.000000	7.023146	-0.002727	NaN	0.000000	0.001602	0.001782	28.0819	0.049695	0.001987	25.0096	27.0018	-167.257	0.041607	1.021745	-0.732662	-0.734005	-0.002727	25.0096	-0.732580	-5.444704E+9	5.007801E-13	NaN
1071	1.000000	1.035108	7.37553e+06	-53689.1	1055.82	-29744.9	0.000000	0.000000	7.035166	0.002469	NaN	0.000000	0.001604	0.001740	28.0816	0.038615	0.002104	18.3538	-10.5902	-168.846	-0.058759	1.033726	-0.720642	-0.722024	0.002469	18.3538	-0.720743	-3.754994E+9	-6.575457E-13	NaN
1071	1.000000	1.047116	7.37553e+06	-53689.1	1055.82	-29744.9	0.000000	0.000000	7.047176	0.042776	NaN	0.000000	0.001575	0.001764	28.0814	0.102903	0.001967	52.3262	40.2105	-165.787	0.024672	1.045795	-0.708634	-0.709955	0.042776	52.3262	-0.709247	-2.616830E+9	-1.634668E-11	NaN
1071	1.000000	1.059123	7.37553e+06	-53689.1	1055.82	-29744.9	0.000000	0.000000	7.059181	0.014547	NaN	0.000000	0.001625	0.001752	28.0816	0.071970	0.001965	36.6256	-53.5929	-163.864	-0.071758	1.057785	-0.696628	-0.697965	0.014547	36.6256	-0.696926	-1.776410E+9	-8.188780E-12	NaN
1071	1.000000	1.071106	7.37553e+06	-53689.1	1055.82	-29744.9	0.000000	0.000000	7.071164	0.015315	NaN	0.000000	0.001568	0.001786	28.0816	0.070981	0.002194	32.3591	-178.739	-166.072	0.000761	1.069810	-0.684645	-0.685941	0.015315	32.3591	-0.685000	-1.220593E+9	-1.254732E-11	NaN
1071	1.000000	1.083120	7.37553e+06	-53689.1	1055.82	-29744.9	0.000000	0.000000	7.083179	0.016122	NaN	0.000000	0.001553	0.001802	28.0818	0.110197	0.001918	57.4416	10.3498	-162.231	-0.086807	1.081805	-0.672630	-0.673946	0.016122	57.4416	-0.672841	-8.322720E+8	-1.937161E-11	NaN
1071	1.000000	1.095099	7.37553e+06	-53689.1	1055.82	-29744.9	0.000000	0.000000	7.095159	0.028906	NaN	0.000000	0.001561	0.001778	28.0819	0.076604	0.001993	38.4412	-35.4406	-169.791	0.013542	1.093790	-0.660651	-0.661961	0.028906	38.4412	-0.661215	-5.769146E+8	-5.010388E-11	NaN
1071	1.000000	1.107101	7.37553e+06	-53689.1	1055.82	-29744.9	0.000000	0.000000	7.107158	-0.024449	NaN	0.000000	0.001552	0.001750	28.0818	0.025417	0.002002	12.6937	19.8986	-164.395	0.027271	1.105823	-0.648650	-0.649927	-0.024449	12.6937	-0.647205	-3.707829E+8	6.593884E-11	NaN
1071	1.000000	1.119144	7.37553e+06	-53689.1	1055.82	-29744.9	0.000000	0.000000	7.119202	0.008510	NaN	0.000000	0.001587	0.001764	28.0818	0.060451	0.001969	30.7021	74.6587	-169.311	-0.033995	1.117812	-0.636607	-0.637938	0.008510	30.7021	-0.636815	-2.670412E+8	-3.186745E-11	NaN
1071	1.000000	1.131136	7.37553e+06	-53689.1	1055.82	-29744.9	0.000000	0.000000	7.131193	-0.019214	NaN	0.000000	0.001641	0.001800	28.0818	0.105250	0.002068	50.884	-27.7613	-167.223	-0.003077	1.129797	-0.624614	-0.625953	-0.019214	50.884	-0.624331	-1.799519E+8	1.067704E-10	NaN
1071	1.000000	1.143132	7.37553e+06	-53689.1	1055.82	-29744.9	0.000000	0.000000	7.143185	-0.124550	NaN	0.000000	0.001652	0.001777	28.0806	0.097115	0.002095	46.3464	-12.1062	-164.888	-0.128529	1.141792	-0.612619	-0.613958	-0.124550	46.3464	-0.610603	-1.165228E+8	1.068892E-9	NaN
1071	1.000000	1.155130	7.37553e+06	-53689.1	1055.82	-29744.9	0.000000	0.000000	7.155187	-0.026617	NaN	0.000000	0.001676	0.001744	28.0809	0.045752	0.002114	21.6424	85.8637	-170.582	-0.103696	1.153825	-0.600620	-0.601926	-0.026617	21.6424	-0.599698	-8.247073E+7	3.227442E-10	NaN
1071	1.000000	1.167126	7.37553e+06	-53689.1	1055.82	-29744.9	0.000000	0.000000	7.167186	0.040647	NaN	0.000000	0.001664	0.001756	28.0809	0.170685	0.002150	79.3793	-136.122	-167.708	-0.075599	1.165851	-0.588624	-0.589899	0.040647	79.3793	-0.589008	-5.874796E+7	-6.918949E-10	NaN
1071	1.000000	1.179147	7.37553e+06	-53689.1	1055.82	-29744.9	0.000000	0.000000	7.179207	0.026629	NaN	0.000000	0.001638	0.001764	28.0805	0.040573	0.001925	21.076	166.742	-165.673	-0.019727	1.177865	-0.576603	-0.577885	0.026629	21.076	-0.577551	-4.082395E+7	-6.522925E-10	NaN
1071	1.000000	1.191153	7.37553e+06	-53689.1	1055.82	-29744.9	0.000000	0.000000	7.191209	-0.042530	NaN	0.000000	0.001591	0.001777	28.0807	0.041654	0.001956	21.2922	-53.8575	-164.563	0.072410	1.189812	-0.564598	-0.565938	-0.042530	21.2922	-0.563100	-2.577807E+7	1.649845E-9	NaN
1071	1.000000	1.203145	7.37553e+06	-53689.1	1055.82	-29744.9	0.000000	0.000000	7.203204	0.008952	NaN	0.000000	0.001623	0.001773	28.0807	0.065294	0.001902	34.3344	161.207	-164.953	0.015216	1.201865	-0.552605	-0.553885	0.008952	34.3344	-0.552801	-1.856696E+7	-4.821660E-10	NaN
1071	1.000000	1.215168	7.37553e+06	-53689.1	1055.82	-29744.9	0.000000	0.000000	7.215227	0.030913	NaN	0.000000	0.001652	0.001727	28.0807	0.086600	0.002054	42.171	132.163	-166.793	0.010768	1.213917	-0.540583	-0.541833	0.030913	42.171	-0.541132	-1.279566E+7	-2.415863E-9	NaN
1071	1.000000	1.227158	7.37553e+06	-53689.1	1055.82	-29744.9	0.000000	0.000000	7.227215	-0.018584	NaN	0.000000	0.001618	0.001729	28.0803	0.098730	0.002076	47.5603	-146.168	-164.914	-0.008298	1.225887	-0.528593	-0.529863	-0.018584	47.5603	-0.528300	-8.49101e+06	2.188650E-9	NaN
1071	1.000000	1.239180	7.37553e+06	-53689.1	1055.82	-29744.9	0.000000	0.000000	7.239238	-0.015457	NaN	0.000000	0.001622	0.001795	28.0804	0.102592	0.001978	51.8533	-61.5134	-166.948	0.014237	1.237849	-0.516570	-0.517901	-0.015457	51.8533	-0.516346	-5.79123e+06	2.669061E-9	NaN
1071	1.000000	1.251179	7.37553e+06	-53689.1	1055.82	-29744.9	0.000000	0.000000	7.251234	-0.073074	NaN	0.000000	0.001633	0.001752	28.0807	0.056287	0.001968	28.5993	168.966	-168.608	-0.002214	1.249848	-0.504571	-0.505902	-0.073074	28.5993	-0.502655	-3.73291e+06	1.957562E-8	NaN
1071	1.000000	1.263187	7.37553e+06	-53689.1	1055.82	-29744.9	0.000000	0.000000	7.263243	-0.031943	NaN	0.000000	0.001623	0.001745	28.0801	0.062599	0.002013	31.0983	-149.317	-163.127	-0.096864	1.261873	-0.492564	-0.493878	-0.031943	31.0983	-0.491793	-2.633e+06	1.213160E-8	NaN
1071	1.000000	1.275192	7.37553e+06	-53689.1	1055.82	-29744.9	0.000000	0.000000	7.275251	0.022270	NaN	0.000000	0.001569	0.001731	28.0818	0.040462	0.001920	21.0765	103.092	-165.683	-0.018414	1.273904	-0.480559	-0.481847	0.022270	21.0765	-0.481351	-1.88123e+06	-1.183813E-8	NaN
1071	1.000000	1.287216	7.37553e+06	-53689.1	1055.82	-29744.9	0.000000	0.000000	7.287271	-0.055695	NaN	0.000000	0.001598	0.001768	28.0819	0.080462	0.002104	38.2393	50.3533	-164.192	-0.024242	1.285887	-0.468535	-0.469864	-0.055695	38.2393	-0.467442	-1.20096e+06	4.637545E-8	NaN
1071	1.000000	1.299213	7.37553e+06	-53689.1	1055.82	-29744.9	0.000000	0.000000	7.299271	-0.006410	NaN	0.000000	0.001595	0.001740	28.0819	0.046438	0.001931	24.0527	-147.943	-165.365	-0.091195	1.297908	-0.456537	-0.457843	-0.006410	24.0527	-0.456337	-838549	7.644349E-9	NaN
1071	1.000000	1.311261	7.37553e+06	-53689.1	1055.82	-29744.9	0.000000	0.000000	7.311320	0.010431	NaN	0.000000	0.001565	0.001731	28.0819	0.034002	0.002149	15.8228	45.7674	-166.692	-0.052370	1.309894	-0.444489	-0.445856	0.010431	15.8228	-0.444983	-580307	-1.797416E-8	NaN
1071	1.000000	1.323213	7.37553e+06	-53689.1	1055.82	-29744.9	0.000000	0.000000	7.323271	0.005623	NaN	0.000000	0.001546	0.001716	28.0816	0.080590	0.001988	40.5317	80.7973	-168.627	0.035024	1.321896	-0.432538	-0.433855	0.005623	40.5317	-0.432642	-388527	-1.447349E-8	NaN
1071	1.000000	1.335242	7.37553e+06	-53689.1	1055.82	-29744.9	0.000000	0.000000	7.335298	-0.044466	NaN	0.000000	0.001595	0.001738	28.0819	0.123799	0.002091	59.2094	40.2278	-166.913	-0.079693	1.333973	-0.420509	-0.421777	-0.044466	59.2094	-0.419946	-256828	1.731346E-7	NaN
1071	1.000000	1.347200	7.37553e+06	-53689.1	1055.82	-29744.9	0.000000	0.000000	7.347258	-0.002457	NaN	0.000000	0.001621	0.001757	28.0819	0.044019	0.001994	22.081	144.242	-167.544	0.010019	1.345959	-0.408550	-0.409791	-0.002457	22.081	-0.408467	-176438	1.392716E-8	NaN
1071	1.000000	1.359212	7.37553e+06	-53689.1	1055.82	-29744.9	0.000000	0.000000	7.359269	-0.035726	NaN	0.000000	0.001616	0.001735	28.0817	0.124738	0.002029	61.4788	-26.4414	-169.207	-0.024672	1.357918	-0.396538	-0.397832	-0.035726	61.4788	-0.396102	-117591	3.038129E-7	NaN
1071	1.000000	1.371233	7.37553e+06	-53689.1	1055.82	-29744.9	0.000000	0.000000	7.371290	-0.043591	NaN	0.000000	0.001588	0.001777	28.0822	0.050984	0.002028	25.1438	-31.5686	-166.465	0.008554	1.369873	-0.384517	-0.385878	-0.043591	25.1438	-0.383217	-76918.2	5.667125E-7	NaN
1071	1.000000	1.383233	7.37553e+06	-53689.1	1055.82	-29744.9	0.000000	0.000000	7.383290	-0.012966	NaN	0.000000	0.001600	0.001728	28.0822	0.101323	0.001902	53.2632	87.641	-166.019	-0.043995	1.381923	-0.372518	-0.373827	-0.012966	53.2632	-0.372335	-53671.6	2.415863E-7	NaN
1071	1.000000	1.395262	7.37553e+06	-53689.1	1055.82	-29744.9	0.000000	0.000000	7.395318	-0.054725	NaN	0.000000	0.001643	0.001751	28.0821	0.059508	0.002230	26.6854	-179.247	-168.215	-0.093081	1.393979	-0.360489	-0.361771	-0.054725	26.6854	-0.358951	-34409.1	1.590430E-6	NaN
1071	1.000000	1.407256	7.37553e+06	-53689.1	1055.82	-29744.9	0.000000	0.000000	7.407317	0.058558	NaN	0.000000	0.001614	0.001775	28.0822	0.018523	0.001861	9.952457	-146.074	-168.462	0.056470	1.405931	-0.348494	-0.349819	0.058558	9.952457	-0.352907	-28130	-2.081687E-6	NaN
1071	1.000000	1.419260	7.37553e+06	-53689.1	1055.82	-29744.9	0.000000	0.000000	7.419318	-0.002762	NaN	0.000000	0.001641	0.001749	28.0807	0.052284	0.002141	24.4196	4.740078	-167.518	0.039446	1.417935	-0.336490	-0.337815	-0.002762	24.4196	-0.336405	-16184.9	1.706467E-7	NaN
1071	1.000000	1.431286	7.37553e+06	-53689.1	1055.82	-29744.9	0.000000	0.000000	7.431344	-0.004187	NaN	0.000000	0.001637	0.001754	28.0804	0.074797	0.001955	38.2514	-128.873	-168.324	-0.030956	1.429941	-0.324464	-0.325810	-0.004187	38.2514	-0.324382	-10791.1	3.879769E-7	NaN
1071	1.000000	1.443277	7.37553e+06	-53689.1	1055.82	-29744.9	0.000000	0.000000	7.443331	-0.100190	NaN	0.000000	0.001624	0.001759	28.0808	0.030224	0.002094	14.432	-54.5778	-168.47	-0.030119	1.442002	-0.312473	-0.313748	-0.100190	14.432	-0.307266	-6033.51	1.660560E-5	NaN
1071	1.000000	1.455282	7.37553e+06	-53689.1	1055.82	-29744.9	0.000000	0.000000	7.455341	0.041098	NaN	0.000000	0.001622	0.001771	28.0808	0.063819	0.002065	30.9029	-0.232707	-164.626	0.046089	1.453928	-0.300469	-0.301822	0.041098	30.9029	-0.301466	-4948.27	-8.305581E-6	NaN
1071	1.000000	1.467270	7.37553e+06	-53689.1	1055.82	-29744.9	0.000000	0.000000	7.467327	-0.043148	NaN	0.000000	0.001638	0.001767	28.0807	0.072270	0.001933	37.3954	-53.6241	-164.857	-0.027273	1.465919	-0.288480	-0.289832	-0.043148	37.3954	-0.287615	-3072.84	1.404185E-5	NaN
1071	1.000000	1.479304	7.37553e+06	-53689.1	1055.82	-29744.9	0.000000	0.000000	7.479367	0.119244	NaN	0.000000	0.001619	0.001726	28.0807	0.113952	0.001925	59.1953	-134.566	-167.574	0.029418	1.477991	-0.276446	-0.277760	0.119244	59.1953	-0.277957	-2198.5	-5.423878E-5	NaN
1071	1.000000	1.491293	7.37553e+06	-53689.1	1055.82	-29744.9	0.000000	0.000000	7.491351	-0.002081	NaN	0.000000	0.001606	0.001793	28.0804	0.033626	0.002110	15.9341	-71.1324	-164.922	-0.043716	1.490023	-0.264457	-0.265728	-0.002081	15.9341	-0.264359	-1366.49	1.523071E-6	NaN
1071	1.000000	1.503299	7.37553e+06	-53689.1	1055.82	-29744.9	0.000000	0.000000	7.503356	-0.034658	NaN	0.000000	0.001623	0.001720	28.0805	0.035561	0.001980	17.9556	-83.5662	-165.618	-0.085071	1.502008	-0.252451	-0.253742	-0.034658	17.9556	-0.251003	-852.07	4.067564E-5	NaN
1071	1.000000	1.515293	7.37553e+06	-53689.1	1055.82	-29744.9	0.000000	0.000000	7.515349	-0.061865	NaN	0.000000	0.001623	0.001733	28.0807	0.045317	0.002079	21.7969	128.831	-166.478	-0.041727	1.513974	-0.240457	-0.241776	-0.061865	21.7969	-0.238328	-541.275	0.000114	NaN
1071	1.000000	1.527325	7.37553e+06	-53689.1	1055.82	-29744.9	0.000000	0.000000	7.527383	-0.019662	NaN	0.000000	0.001566	0.001724	28.0806	0.018477	0.002035	9.079707	167.071	-168.928	0.005998	1.526029	-0.228425	-0.229722	-0.019662	9.079707	-0.226801	-356.377	5.517294E-5	NaN
1071	1.000000	1.539319	7.37553e+06	-53689.1	1055.82	-29744.9	0.000000	0.000000	7.539375	-0.052903	NaN	0.000000	0.001594	0.001730	28.0806	0.131014	0.002028	64.5922	-103.067	-169.875	-0.062614	1.538033	-0.216432	-0.217717	-0.052903	64.5922	-0.215817	-238.043	0.000222	NaN
1071	1.000000	1.551298	7.37553e+06	-53689.1	1055.82	-29744.9	0.000000	0.000000	7.551355	-0.042495	NaN	0.000000	0.001625	0.001761	28.0816	0.094634	0.001928	49.0928	-60.2292	-165.253	-0.052039	1.549980	-0.204452	-0.205770	-0.042495	49.0928	-0.203803	-152.06	0.000279	NaN
1071	1.000000	1.563338	7.37553e+06	-53689.1	1055.82	-29744.9	0.000000	0.000000	7.563396	0.007178	NaN	0.000000	0.001585	0.001756	28.0821	0.072202	0.002014	35.8522	128.252	-167.61	-0.084671	1.562039	-0.192413	-0.193711	0.007178	35.8522	-0.192563	-99.2536	-7.232025E-5	NaN
1071	1.000000	1.575336	7.37553e+06	-53689.1	1055.82	-29744.9	0.000000	0.000000	7.575393	-0.023283	NaN	0.000000	0.001591	0.001785	28.0818	0.111033	0.001951	56.9054	151.247	-169.573	-0.062004	1.574047	-0.180414	-0.181703	-0.023283	56.9054	-0.180107	-61.2766	0.000380	NaN
1071	1.000000	1.587354	7.37553e+06	-53689.1	1055.82	-29744.9	0.000000	0.000000	7.587414	0.035859	NaN	0.000000	0.001558	0.001765	28.0817	0.071540	0.002110	33.9071	142.149	-167.401	0.025601	1.586044	-0.168396	-0.169706	0.035859	33.9071	-0.169190	-39.7674	-0.000902	NaN
1071	1.000000	1.599347	7.37553e+06	-53689.1	1055.82	-29744.9	0.000000	0.000000	7.599406	0.026248	NaN	0.000000	0.001590	0.001704	28.082	0.028445	0.001986	14.3208	-120.354	-167.523	0.005217	1.598030	-0.156403	-0.157720	0.026248	14.3208	-0.157778	-25.026	-0.001049	NaN
1071	1.000000	1.611361	7.37553e+06	-53689.1	1055.82	-29744.9	0.000000	0.000000	7.611418	-0.031138	NaN	0.000000	0.001551	0.001770	28.0817	0.021306	0.002099	10.1495	-166.318	-164.246	0.040820	1.610022	-0.144389	-0.145729	-0.031138	10.1495	-0.142088	-12.944	0.002406	NaN
1071	1.000000	1.623366	7.37553e+06	-53689.1	1055.82	-29744.9	0.000000	0.000000	7.623424	0.015536	NaN	0.000000	0.001573	0.001722	28.0818	0.098968	0.002074	47.7182	-103.362	-163.815	0.084417	1.622030	-0.132385	-0.133720	0.015536	47.7182	-0.132629	-8.567291	-0.001813	NaN
1071	1.000000	1.635376	7.37553e+06	-53689.1	1055.82	-29744.9	0.000000	0.000000	7.635433	-0.011996	NaN	0.000000	0.001634	0.001753	28.0817	0.076348	0.001894	40.3167	160.368	-168.444	-0.065290	1.634090	-0.120375	-0.121660	-0.011996	40.3167	-0.120152	-4.865677	0.002465	NaN
1071	1.000000	1.647378	7.37553e+06	-53689.1	1055.82	-29744.9	0.000000	0.000000	7.647437	0.017490	NaN	0.000000	0.001639	0.001751	28.0819	0.076474	0.001978	38.6634	-88.8278	-164.569	0.033697	1.646108	-0.108372	-0.109643	0.017490	38.6634	-0.108711	-2.822420	-0.006197	NaN
1071	1.000000	1.659379	7.37553e+06	-53689.1	1055.82	-29744.9	0.000000	0.000000	7.659438	0.007793	NaN	0.000000	0.001627	0.001714	28.082	0.022592	0.001884	11.9907	-138.485	-163.724	0.101717	1.658072	-0.096371	-0.097678	0.007793	11.9907	-0.096859	-1.554327	-0.005014	NaN
1071	1.000000	1.671390	7.37553e+06	-53689.1	1055.82	-29744.9	0.000000	0.000000	7.671447	-0.033021	NaN	0.000000	0.001639	0.001736	28.0819	0.083306	0.002064	40.37	-160.762	-168.202	0.016465	1.670044	-0.084360	-0.085706	-0.033021	40.37	-0.083746	-0.765981	0.043110	NaN
1071	1.000000	1.683409	7.37553e+06	-53689.1	1055.82	-29744.9	0.000000	0.000000	7.683468	0.021560	NaN	0.000000	0.001656	0.001759	28.0813	0.144414	0.001993	72.4571	40.0798	-163.334	-0.019964	1.682038	-0.072342	-0.073713	0.021560	72.4571	-0.072565	-0.399016	-0.054032	NaN
1071	1.000000	1.695413	7.37553e+06	-53689.1	1055.82	-29744.9	0.000000	0.000000	7.695471	-0.018409	NaN	0.000000	0.001642	0.001752	28.0802	0.052622	0.002135	24.6485	-5.106610	-167.321	-0.014841	1.694070	-0.060337	-0.061680	-0.018409	24.6485	-0.059777	-0.177455	0.103740	NaN
1071	1.000000	1.707407	7.37553e+06	-53689.1	1055.82	-29744.9	0.000000	0.000000	7.707463	-0.053545	NaN	0.000000	0.001580	0.001707	28.0804	0.040817	0.002052	19.8893	-55.2972	-168.479	-0.062798	1.706086	-0.048344	-0.049664	-0.053545	19.8893	-0.046325	-0.070547	0.758999	NaN
1071	1.000000	1.719413	7.37553e+06	-53689.1	1055.82	-29744.9	0.000000	0.000000	7.719474	0.075353	NaN	0.000000	0.001549	0.001733	28.0807	0.022746	0.002057	11.0579	-169.655	-168.445	0.013435	1.718128	-0.036337	-0.037623	0.075353	11.0579	-0.041448	-0.050053	-1.505461	NaN
1071	1.000000	1.731407	7.37553e+06	-53689.1	1055.82	-29744.9	0.000000	0.000000	7.731466	0.015790	NaN	0.000000	0.001533	0.001736	28.0803	0.036000	0.001884	19.111	-93.0872	-170.238	0.009497	1.730080	-0.024344	-0.025670	0.015790	19.111	-0.024963	-0.016833	-0.938050	NaN
1071	1.000000	1.743416	7.37553e+06	-53689.1	1055.82	-29744.9	0.000000	0.000000	7.743472	-0.059137	NaN	0.000000	0.001567	0.001767	28.0806	0.083183	0.001958	42.4812	-143.346	-169.388	-0.026318	1.742105	-0.012334	-0.013646	-0.059137	42.4812	-0.011290	-0.007123	8.301842	NaN
1071	1.000000	1.755358	7.37553e+06	-53689.1	1055.82	-29744.9	0.000000	0.000000	7.755531	2.792925	NaN	0.000000	0.001586	0.001719	28.0802	3.714109	0.001841	2017.14	8.433794	-170.823	1.443940	1.754083	-0.000392	-0.001668	2.792925	2017.14	-0.001431	-0.001040	-2684.45	NaN
1071	2.000000	1.763010	7.37553e+06	-53689.1	1055.82	-29744.9	0.000000	0.000000	7.763423	8.639510	NaN	0.000000	0.001622	0.001733	28.0804	9.230243	0.001588	5813.33	7.566067	-173.024	8.634513	1.762669	0.007260	0.006919	8.639510	5813.33	0.006145	0.005203	1660.6	73635.4
1071	2.000000	1.765908	7.37553e+06	-53689.1	1055.82	-29744.9	0.000000	0.000000	7.766430	11.2778	NaN	0.000000	0.001585	0.001683	28.0814	12.267	0.001735	7068.88	5.496339	-172.797	10.4761	1.765657	0.010158	0.009907	11.2778	7068.88	0.008961	0.008050	1401.03	71983.8
1071	2.000000	1.768929	7.37553e+06	-53689.1	1055.82	-29744.9	0.000000	0.000000	7.769572	14.2164	NaN	0.000000	0.001599	0.001734	28.0803	15.3135	0.002019	7585.04	7.302854	-174.508	13.9747	1.768687	0.013179	0.012936	14.2164	7585.04	0.011773	0.011219	1267.14	65425.7
1071	2.000000	1.771905	7.37553e+06	-53689.1	1055.82	-29744.9	0.000000	0.000000	7.772662	16.9911	NaN	0.000000	0.001617	0.001745	28.0806	17.9738	0.001797	9999.76	9.806687	179.645	16.5299	1.771649	0.016154	0.015898	16.9911	9999.76	0.014880	0.015126	1123.32	74285.4
1071	2.000000	1.774959	7.37553e+06	-53689.1	1055.82	-29744.9	0.000000	0.000000	7.775981	23.4365	NaN	0.000000	0.001623	0.001767	28.0805	21.2178	0.001691	12550.3	4.394286	-177.419	24.1947	1.774682	0.019208	0.018931	23.4365	12550.3	0.017808	0.019214	1219.78	82721.9
1071	2.000000	1.777965	7.37553e+06	-53689.1	1055.82	-29744.9	0.000000	0.000000	7.779159	27.6308	NaN	0.000000	0.001625	0.001724	28.0817	24.0689	0.001859	12949.7	13.1873	175.258	29.1768	1.777625	0.022214	0.021874	27.6308	12949.7	0.020614	0.023516	1174.98	77152.4
1071	2.000000	1.780903	7.37553e+06	-53689.1	1055.82	-29744.9	0.000000	0.000000	7.782186	29.7794	NaN	0.000000	0.001536	0.001726	28.0822	26.2861	0.001847	14234.1	8.535525	178.934	30.0147	1.780651	0.025152	0.024901	29.7794	14234.1	0.023583	0.028489	1045.31	77049.5
1071	2.000000	1.783847	7.37553e+06	-53689.1	1055.82	-29744.9	0.000000	0.000000	7.785509	38.9929	NaN	0.000000	0.001539	0.001754	28.0816	28.3149	0.001774	15964.1	4.032326	-178.126	37.8059	1.783617	0.028097	0.027867	38.9929	15964.1	0.026265	0.033357	1168.95	79858.8
1071	2.000000	1.786918	7.37553e+06	-53689.1	1055.82	-29744.9	0.000000	0.000000	7.788865	45.9165	NaN	0.000000	0.001549	0.001709	28.082	32.0638	0.001871	17135.8	7.243029	177.578	47.2348	1.786505	0.031168	0.030755	45.9165	17135.8	0.029158	0.039016	1176.85	79260.2
1071	2.000000	1.789843	7.37553e+06	-53689.1	1055.82	-29744.9	0.000000	0.000000	7.792000	51.042	NaN	0.000000	0.001551	0.001729	28.0818	34.5254	0.001815	19018.8	3.059919	-179.136	49.2963	1.789537	0.034092	0.033787	51.042	19018.8	0.032079	0.045164	1130.15	81763.9
1071	2.000000	1.792893	7.37553e+06	-53689.1	1055.82	-29744.9	0.000000	0.000000	7.795442	60.5621	NaN	0.000000	0.001545	0.001729	28.0819	37.1151	0.001686	22008	2.957752	179.417	60.6033	1.792477	0.037143	0.036727	60.5621	22008	0.035079	0.051929	1166.24	88236.1
1071	2.000000	1.795887	7.37553e+06	-53689.1	1055.82	-29744.9	0.000000	0.000000	7.798688	66.6754	NaN	0.000000	0.001522	0.001701	28.0819	41.1983	0.001820	22637.7	6.064546	175.967	67.1074	1.795537	0.040137	0.039787	66.6754	22637.7	0.037928	0.058783	1134.27	85306
1071	2.000000	1.798865	7.37553e+06	-53689.1	1055.82	-29744.9	0.000000	0.000000	7.802268	81.3115	NaN	0.000000	0.001576	0.001741	28.0818	43.44	0.001726	25168.8	1.894691	178.77	81.103	1.798574	0.043115	0.042823	81.3115	25168.8	0.040692	0.065828	1235.21	89625.4
1071	2.000000	1.801849	7.37553e+06	-53689.1	1055.82	-29744.9	0.000000	0.000000	7.805459	86.3509	NaN	0.000000	0.001605	0.001700	28.0818	47.9532	0.001836	26121.4	6.339956	174.441	85.3025	1.801549	0.046099	0.045798	86.3509	26121.4	0.043620	0.073717	1171.38	87899.1
1071	2.000000	1.804807	7.37553e+06	-53689.1	1055.82	-29744.9	0.000000	0.000000	7.808797	95.5857	NaN	0.000000	0.001535	0.001704	28.0818	49.5538	0.001775	27921.3	2.877971	177.601	93.5988	1.804562	0.049057	0.048811	95.5857	27921.3	0.046489	0.081872	1167.51	89154.3
1071	2.000000	1.807882	7.37553e+06	-53689.1	1055.82	-29744.9	0.000000	0.000000	7.812455	109.764	NaN	0.000000	0.001544	0.001708	28.0819	52.016	0.001700	30591.2	6.923628	173.387	108.687	1.807461	0.052132	0.051710	109.764	30591.2	0.049441	0.090692	1210.3	92808.1
1071	2.000000	1.810880	7.37553e+06	-53689.1	1055.82	-29744.9	0.000000	0.000000	7.815943	121.69	NaN	0.000000	0.001517	0.001709	28.0812	54.0328	0.001744	30990.6	6.112917	173.924	121.957	1.810406	0.055129	0.054655	121.69	30990.6	0.052184	0.099284	1225.68	89859.5
1071	2.000000	1.813781	7.37553e+06	-53689.1	1055.82	-29744.9	0.000000	0.000000	7.819330	133.479	NaN	0.000000	0.001539	0.001731	28.0807	56.622	0.001710	33114	5.629223	173.135	130.288	1.813523	0.058031	0.057772	133.479	33114	0.055008	0.108518	1230.03	91840.7
1071	2.000000	1.816854	7.37553e+06	-53689.1	1055.82	-29744.9	0.000000	0.000000	7.823071	149.726	NaN	0.000000	0.001523	0.001742	28.0807	58.7433	0.001717	34212.3	6.297488	173.232	148.646	1.816405	0.061104	0.060655	149.726	34212.3	0.057822	0.118113	1267.65	90950.9
1071	2.000000	1.819806	7.37553e+06	-53689.1	1055.82	-29744.9	0.000000	0.000000	7.826519	161.797	NaN	0.000000	0.001534	0.001749	28.0807	63.1585	0.001784	35404.3	5.645247	172.76	161.335	1.819455	0.064056	0.063704	161.797	35404.3	0.060628	0.128070	1263.35	90386.8
1071	2.000000	1.822804	7.37553e+06	-53689.1	1055.82	-29744.9	0.000000	0.000000	7.829814	169.004	NaN	0.000000	0.001503	0.001737	28.0805	65.3712	0.001744	37488.8	1.519513	176.225	166.423	1.822513	0.067054	0.066763	169.004	37488.8	0.063673	0.139307	1213.18	91767.2
1071	2.000000	1.825803	7.37553e+06	-53689.1	1055.82	-29744.9	0.000000	0.000000	7.833206	178.586	NaN	0.000000	0.001542	0.001738	28.0807	68.3117	0.001793	38097.4	2.768496	174.958	175.149	1.825643	0.070052	0.069892	178.586	38097.4	0.066536	0.150285	1188.32	89786.5
1071	2.000000	1.828768	7.37553e+06	-53689.1	1055.82	-29744.9	0.000000	0.000000	7.837015	199.093	NaN	0.000000	0.001481	0.001716	28.0806	71.5728	0.001822	39275.2	5.732223	171.837	194.578	1.828454	0.073018	0.072703	199.093	39275.2	0.069216	0.160912	1237.28	89453.5
1071	2.000000	1.831834	7.37553e+06	-53689.1	1055.82	-29744.9	0.000000	0.000000	7.840798	216.503	NaN	0.000000	0.001510	0.001741	28.0805	74.2891	0.001954	38025.6	2.958361	175.763	217.231	1.831537	0.076084	0.075787	216.503	38025.6	0.071814	0.171544	1262.09	83880.6
1071	2.000000	1.834810	7.37553e+06	-53689.1	1055.82	-29744.9	0.000000	0.000000	7.844109	224.666	NaN	0.000000	0.001546	0.001720	28.0807	76.9917	0.001930	39897.7	4.587130	172.566	221.513	1.834472	0.079059	0.078722	224.666	39897.7	0.074836	0.184315	1218.92	84906.4
1071	2.000000	1.837833	7.37553e+06	-53689.1	1055.82	-29744.9	0.000000	0.000000	7.847855	242.226	NaN	0.000000	0.001611	0.001691	28.0805	80.2108	0.001914	41901.9	4.671998	172.43	239.418	1.837572	0.082083	0.081822	242.226	41901.9	0.077747	0.197023	1229.43	86248
1071	2.000000	1.840692	7.37553e+06	-53689.1	1055.82	-29744.9	0.000000	0.000000	7.851615	264.154	NaN	0.000000	0.001571	0.001718	28.0808	81.0713	0.001680	48245	5.085981	171.317	256.163	1.840407	0.084941	0.084657	264.154	48245	0.080835	0.210934	1252.3	95973.5
1071	2.000000	1.843750	7.37553e+06	-53689.1	1055.82	-29744.9	0.000000	0.000000	7.855340	280.354	NaN	0.000000	0.001592	0.001695	28.0804	83.8418	0.001811	46292.1	1.930282	174.909	277.291	1.843466	0.088000	0.087716	280.354	46292.1	0.083458	0.223100	1256.63	89542.8
1071	2.000000	1.846688	7.37553e+06	-53689.1	1055.82	-29744.9	0.000000	0.000000	7.858993	297.745	NaN	0.000000	0.001609	0.001736	28.0816	85.837	0.001784	48116.8	4.526413	172.353	289.845	1.846282	0.090937	0.090532	297.745	48116.8	0.086296	0.236624	1258.3	90373.3
1071	2.000000	1.850031	7.37553e+06	-53689.1	1055.82	-29744.9	0.000000	0.000000	7.862554	303.06	NaN	0.000000	0.001604	0.001735	28.0821	89.3086	0.001751	51017.8	5.710644	170.584	316.194	1.849580	0.094280	0.093829	303.06	51017.8	0.089825	0.253955	1193.36	92494.6
1071	2.000000	1.852756	7.37553e+06	-53689.1	1055.82	-29744.9	0.000000	0.000000	7.866824	340.607	NaN	0.000000	0.001598	0.001708	28.0816	92.0378	0.001818	50627.7	5.387773	170.959	336.71	1.852360	0.097006	0.096610	340.607	50627.7	0.091960	0.264718	1286.68	89901.9
1071	2.000000	1.855735	7.37553e+06	-53689.1	1055.82	-29744.9	0.000000	0.000000	7.870542	358.568	NaN	0.000000	0.001594	0.001719	28.0817	94.3234	0.001780	52996.4	3.125403	172.775	354.912	1.855455	0.099985	0.099704	358.568	52996.4	0.094911	0.279937	1280.89	91514.3
1071	2.000000	1.858848	7.37553e+06	-53689.1	1055.82	-29744.9	0.000000	0.000000	7.873725	360.285	NaN	0.000000	0.001619	0.001710	28.0817	97.7387	0.001833	53317.6	5.916832	169.801	361.269	1.858622	0.103098	0.102872	360.285	53317.6	0.098030	0.296456	1215.31	89467.1
1071	2.000000	1.860303	7.37553e+06	-53689.1	1055.82	-29744.9	0.000000	0.000000	7.876096	382.529	NaN	0.000000	0.001641	0.001716	28.0818	97.8512	0.001763	55516.1	4.351611	-8.563555	381.424	1.859898	0.104553	0.104147	382.529	55516.1	0.099385	0.303772	1259.26	92027.5