File: remote_trans/data/nanoindenter/0828-1/data/Data_2025-08-06,11h17m57s/2025-07-22_16-23-58_1_1176.txt
2025-07-22, 16:23:58, 1
Index	Phase	Displacement	Time	Pos X	Pos Y	Pos Z	Rot A	Rot B	Piezo Z	Force A	Force B	Gripper	Voltage A	Voltage B	Temperature	Amplitude force	Amplitude pos	Stiffness	Phase shift	Phase excitation	Force A raw	Displacement raw	HMax	HMax raw	Real Force	Real Stiffness	Contact Depth	Area	Hardness	Reduced Mod.
[#]	[#]	[um]	[s]	[um]	[um]	[um]	[m°]	[m°]	[um]	[uN]	[uN]	[V]	[V]	[V]	[°C]	[uN]	[um]	[N/m]	[°]	[°]	[uN]	[um]	[um]	[um]	[uN]	[N/m]	[um]	[um^2]	[MPa]	[MPa]
1176	1.000000	0.002615	7.37655e+06	-56789.1	1105.82	-29737.9	0.000000	0.000000	6.002817	-0.029481	NaN	0.000000	0.001584	0.001732	28.0826	0.033057	0.000984	33.609	-83.2598	-160.955	-0.017236	0.001364	-1.185741	-1.186992	-0.029481	33.609	-1.185083	-6.933712E+15	4.251883E-18	NaN
1176	1.000000	0.012665	7.37655e+06	-56789.1	1105.82	-29737.9	0.000000	0.000000	6.012866	-0.039409	NaN	0.000000	0.001577	0.001678	28.0814	0.078926	0.001221	64.6436	48.1104	17.3232	-0.055638	0.011245	-1.175691	-1.177110	-0.039409	64.6436	-1.175234	-5.116975E+15	7.701582E-18	NaN
1176	1.000000	0.022516	7.37655e+06	-56789.1	1105.82	-29737.9	0.000000	0.000000	6.022720	0.026136	NaN	0.000000	0.001604	0.001702	28.0815	0.134958	0.001776	75.9859	84.0048	-166.951	-0.006500	0.021231	-1.165840	-1.167125	0.026136	75.9859	-1.166098	-3.860038E+15	-6.770843E-18	NaN
1176	1.000000	0.032543	7.37655e+06	-56789.1	1105.82	-29737.9	0.000000	0.000000	6.032747	0.007707	NaN	0.000000	0.001577	0.001703	28.0814	0.128445	0.001872	68.603	-155.496	13.4691	0.017114	0.031214	-1.155812	-1.157141	0.007707	68.603	-1.155897	-2.817520E+15	-2.735443E-18	NaN
1176	1.000000	0.042565	7.37655e+06	-56789.1	1105.82	-29737.9	0.000000	0.000000	6.042766	-0.043727	NaN	0.000000	0.001573	0.001702	28.0818	0.094409	0.002011	46.9393	81.1887	-167.202	-0.187641	0.041272	-1.145791	-1.147084	-0.043727	46.9393	-1.145092	-2.018451E+15	2.166386E-17	NaN
1176	1.000000	0.052573	7.37655e+06	-56789.1	1105.82	-29737.9	0.000000	0.000000	6.052771	-0.121991	NaN	0.000000	0.001613	0.001713	28.0815	0.075252	0.002131	35.3159	133.042	12.3905	-0.010590	0.051172	-1.135783	-1.137184	-0.121991	35.3159	-1.133192	-1.397762E+15	8.727617E-17	NaN
1176	1.000000	0.062541	7.37655e+06	-56789.1	1105.82	-29737.9	0.000000	0.000000	6.062742	-0.066874	NaN	0.000000	0.001608	0.001743	28.0815	0.064771	0.002034	31.8485	-175.257	-163.902	-0.123012	0.061254	-1.125815	-1.127102	-0.066874	31.8485	-1.124240	-1.060117E+15	6.308133E-17	NaN
1176	1.000000	0.072519	7.37655e+06	-56789.1	1105.82	-29737.9	0.000000	0.000000	6.072720	-0.049577	NaN	0.000000	0.001591	0.001736	28.0817	0.040295	0.002103	19.1638	-63.5461	15.9724	-0.164326	0.071205	-1.115837	-1.117151	-0.049577	19.1638	-1.113896	-7.701493E+14	6.437280E-17	NaN
1176	1.000000	0.082541	7.37655e+06	-56789.1	1105.82	-29737.9	0.000000	0.000000	6.082742	-0.045580	NaN	0.000000	0.001595	0.001714	28.0819	0.050098	0.002028	24.7079	14.1881	-163.973	-0.104427	0.081249	-1.105815	-1.107107	-0.045580	24.7079	-1.104432	-5.748484E+14	7.928989E-17	NaN
1176	1.000000	0.092575	7.37655e+06	-56789.1	1105.82	-29737.9	0.000000	0.000000	6.092776	-0.050880	NaN	0.000000	0.001600	0.001688	28.0815	0.131394	0.001946	67.5281	-177.941	16.6734	-0.047966	0.091228	-1.095781	-1.097128	-0.050880	67.5281	-1.095216	-4.323554E+14	1.176813E-16	NaN
1176	1.000000	0.102556	7.37655e+06	-56789.1	1105.82	-29737.9	0.000000	0.000000	6.102761	0.043618	NaN	0.000000	0.001561	0.001658	28.0815	0.080040	0.002118	37.7936	169.692	-165.004	0.017641	0.101232	-1.085800	-1.087124	0.043618	37.7936	-1.086666	-3.319238E+14	-1.314109E-16	NaN
1176	1.000000	0.112565	7.37655e+06	-56789.1	1105.82	-29737.9	0.000000	0.000000	6.112769	0.017234	NaN	0.000000	0.001587	0.001702	28.0816	0.031688	0.001919	16.5139	88.501	15.8084	-0.020437	0.111191	-1.075790	-1.077165	0.017234	16.5139	-1.076573	-2.429339E+14	-7.094142E-17	NaN
1176	1.000000	0.122566	7.37655e+06	-56789.1	1105.82	-29737.9	0.000000	0.000000	6.122769	-0.011867	NaN	0.000000	0.001572	0.001680	28.0814	0.026647	0.001973	13.5039	-77.1408	-165.791	0.042812	0.121238	-1.065790	-1.067117	-0.011867	13.5039	-1.065130	-1.705150E+14	6.959506E-17	NaN
1176	1.000000	0.132587	7.37655e+06	-56789.1	1105.82	-29737.9	0.000000	0.000000	6.132789	-0.040618	NaN	0.000000	0.001526	0.001704	28.0814	0.035608	0.002061	17.2745	99.5025	13.7035	-0.038699	0.131226	-1.055768	-1.057130	-0.040618	17.2745	-1.054005	-1.208501E+14	3.361048E-16	NaN
1176	1.000000	0.142576	7.37655e+06	-56789.1	1105.82	-29737.9	0.000000	0.000000	6.142783	0.096413	NaN	0.000000	0.001525	0.001670	28.0815	0.074563	0.001982	37.6282	-90.8094	-163.397	0.122902	0.141260	-1.045780	-1.047095	0.096413	37.6282	-1.047702	-9.942983E+13	-9.696563E-16	NaN
1176	1.000000	0.152570	7.37655e+06	-56789.1	1105.82	-29737.9	0.000000	0.000000	6.152774	0.025016	NaN	0.000000	0.001535	0.001703	28.0828	0.043410	0.001992	21.79	-176.255	14.4797	-0.020675	0.151214	-1.035786	-1.037142	0.025016	21.79	-1.036647	-7.061157E+13	-3.542816E-16	NaN
1176	1.000000	0.162588	7.37655e+06	-56789.1	1105.82	-29737.9	0.000000	0.000000	6.162791	0.015153	NaN	0.000000	0.001489	0.001719	28.0827	0.114985	0.002108	54.5377	-132.759	-165.313	0.044621	0.161252	-1.025768	-1.027104	0.015153	54.5377	-1.025976	-5.074088E+13	-2.986349E-16	NaN
1176	1.000000	0.172606	7.37655e+06	-56789.1	1105.82	-29737.9	0.000000	0.000000	6.172809	-0.002828	NaN	0.000000	0.001508	0.001704	28.0827	0.093008	0.002079	44.745	-34.9453	17.4453	-0.082989	0.171230	-1.015750	-1.017126	-0.002828	44.745	-1.015703	-3.690870E+13	7.661504E-17	NaN
1176	1.000000	0.182571	7.37655e+06	-56789.1	1105.82	-29737.9	0.000000	0.000000	6.182774	-0.003468	NaN	0.000000	0.001498	0.001703	28.0828	0.063991	0.001954	32.7429	-88.0468	-161.104	0.064007	0.181300	-1.005785	-1.007056	-0.003468	32.7429	-1.005705	-2.707527E+13	1.280949E-16	NaN
1176	1.000000	0.192579	7.37655e+06	-56789.1	1105.82	-29737.9	0.000000	0.000000	6.192779	-0.069569	NaN	0.000000	0.001514	0.001696	28.0831	0.070088	0.001994	35.1505	-162.831	18.7122	0.019872	0.191224	-0.995777	-0.997131	-0.069569	35.1505	-0.994293	-1.900727E+13	3.660134E-15	NaN
1176	1.000000	0.202612	7.37655e+06	-56789.1	1105.82	-29737.9	0.000000	0.000000	6.202816	0.009452	NaN	0.000000	0.001507	0.001683	28.0828	0.103744	0.002026	51.2119	-161.309	-166.067	-0.052113	0.201286	-0.985744	-0.987069	0.009452	51.2119	-0.985882	-1.464365E+13	-6.454406E-16	NaN
1176	1.000000	0.212629	7.37655e+06	-56789.1	1105.82	-29737.9	0.000000	0.000000	6.212832	0.013057	NaN	0.000000	0.001495	0.001715	28.0829	0.059785	0.001910	31.2998	120.331	17.1978	-0.043722	0.211272	-0.975727	-0.977084	0.013057	31.2998	-0.976040	-1.079082E+13	-1.210036E-15	NaN
1176	1.000000	0.222618	7.37655e+06	-56789.1	1105.82	-29737.9	0.000000	0.000000	6.222821	-0.008630	NaN	0.000000	0.001478	0.001703	28.083	0.065650	0.001886	34.8016	1.123412	-163.024	-0.046012	0.221294	-0.965737	-0.967062	-0.008630	34.8016	-0.965551	-7.792963E+12	1.107468E-15	NaN
1176	1.000000	0.232631	7.37655e+06	-56789.1	1105.82	-29737.9	0.000000	0.000000	6.232833	-0.037895	NaN	0.000000	0.001560	0.001670	28.0831	0.017498	0.001969	8.889231	-78.8507	11.6093	-0.036456	0.231289	-0.955725	-0.957067	-0.037895	8.889231	-0.952527	-5.201276E+12	7.285764E-15	NaN
1176	1.000000	0.242615	7.37655e+06	-56789.1	1105.82	-29737.9	0.000000	0.000000	6.242821	0.076284	NaN	0.000000	0.001521	0.001645	28.0826	0.034299	0.001970	17.408	-55.6331	-164.465	-0.007278	0.241296	-0.945741	-0.947060	0.076284	17.408	-0.949027	-4.665636E+12	-1.635017E-14	NaN
1176	1.000000	0.252659	7.37655e+06	-56789.1	1105.82	-29737.9	0.000000	0.000000	6.252860	-0.048255	NaN	0.000000	0.001493	0.001676	28.0827	0.055815	0.002195	25.4243	-106.896	14.7557	-0.030363	0.251246	-0.935697	-0.937109	-0.048255	25.4243	-0.934273	-2.950291E+12	1.635616E-14	NaN
1176	1.000000	0.262614	7.37655e+06	-56789.1	1105.82	-29737.9	0.000000	0.000000	6.262813	-0.103535	NaN	0.000000	0.001498	0.001686	28.0829	0.024317	0.001975	12.3103	42.8664	-162.466	-0.079722	0.261336	-0.925742	-0.927020	-0.103535	12.3103	-0.919434	-1.860219E+12	5.565722E-14	NaN
1176	1.000000	0.272626	7.37655e+06	-56789.1	1105.82	-29737.9	0.000000	0.000000	6.272830	0.006941	NaN	0.000000	0.001510	0.001688	28.0827	0.054541	0.001964	27.7654	-118.676	19.2517	-0.022962	0.271303	-0.915729	-0.917053	0.006941	27.7654	-0.915917	-1.667526E+12	-4.162256E-15	NaN
1176	1.000000	0.282648	7.37655e+06	-56789.1	1105.82	-29737.9	0.000000	0.000000	6.282853	0.049477	NaN	0.000000	0.001530	0.001711	28.0819	0.071193	0.002007	35.4794	74.404	-162.947	0.044946	0.281339	-0.905708	-0.907017	0.049477	35.4794	-0.906753	-1.254033E+12	-3.945392E-14	NaN
1176	1.000000	0.292639	7.37655e+06	-56789.1	1105.82	-29737.9	0.000000	0.000000	6.292844	0.024613	NaN	0.000000	0.001512	0.001720	28.0817	0.022001	0.002042	10.7734	14.109	19.0716	-0.006823	0.291306	-0.895716	-0.897050	0.024613	10.7734	-0.897430	-9.382825E+11	-2.623163E-14	NaN
1176	1.000000	0.302659	7.37655e+06	-56789.1	1105.82	-29737.9	0.000000	0.000000	6.302863	0.037498	NaN	0.000000	0.001522	0.001711	28.0816	0.042061	0.002122	19.8226	116.362	-165.458	0.021227	0.301381	-0.885697	-0.886975	0.037498	19.8226	-0.887116	-6.806516E+11	-5.509141E-14	NaN
1176	1.000000	0.312658	7.37655e+06	-56789.1	1105.82	-29737.9	0.000000	0.000000	6.312860	-0.024097	NaN	0.000000	0.001547	0.001690	28.0814	0.030375	0.001810	16.7797	-88.6668	14.7913	-0.065634	0.311324	-0.875697	-0.877032	-0.024097	16.7797	-0.874620	-4.612629E+11	5.224232E-14	NaN
1176	1.000000	0.322675	7.37655e+06	-56789.1	1105.82	-29737.9	0.000000	0.000000	6.322877	-0.032156	NaN	0.000000	0.001501	0.001719	28.0814	0.068297	0.002162	31.5925	28.5755	-164.744	-0.005074	0.321356	-0.865680	-0.866999	-0.032156	31.5925	-0.864917	-3.409314E+11	9.431917E-14	NaN
1176	1.000000	0.332662	7.37655e+06	-56789.1	1105.82	-29737.9	0.000000	0.000000	6.332864	-0.020524	NaN	0.000000	0.001504	0.001687	28.0816	0.048269	0.002071	23.3105	74.1038	13.0332	0.009012	0.331313	-0.855694	-0.857043	-0.020524	23.3105	-0.855034	-2.505506E+11	8.191554E-14	NaN
1176	1.000000	0.342652	7.37655e+06	-56789.1	1105.82	-29737.9	0.000000	0.000000	6.342856	0.006756	NaN	0.000000	0.001548	0.001681	28.0815	0.069903	0.002182	32.042	41.7916	-166.824	0.014454	0.341360	-0.845703	-0.846996	0.006756	32.042	-0.845861	-1.882304E+11	-3.589399E-14	NaN
1176	1.000000	0.352661	7.37655e+06	-56789.1	1105.82	-29737.9	0.000000	0.000000	6.352863	-0.038274	NaN	0.000000	0.001478	0.001695	28.0817	0.026256	0.001937	13.5516	-65.512	15.1812	-0.051846	0.351343	-0.835695	-0.837012	-0.038274	13.5516	-0.833576	-1.283085E+11	2.982977E-13	NaN
1176	1.000000	0.362676	7.37655e+06	-56789.1	1105.82	-29737.9	0.000000	0.000000	6.362878	-0.016471	NaN	0.000000	0.001486	0.001695	28.0815	0.143616	0.001916	74.9593	-100.133	-162.645	-0.053339	0.361297	-0.825680	-0.827059	-0.016471	74.9593	-0.825515	-9.976849E+10	1.650930E-13	NaN
1176	1.000000	0.372684	7.37655e+06	-56789.1	1105.82	-29737.9	0.000000	0.000000	6.372885	-0.040488	NaN	0.000000	0.001519	0.001704	28.0815	0.080395	0.001882	42.7154	-51.3311	18.1396	-0.076570	0.371379	-0.815672	-0.816977	-0.040488	42.7154	-0.814961	-7.175792E+10	5.642347E-13	NaN
1176	1.000000	0.382685	7.37655e+06	-56789.1	1105.82	-29737.9	0.000000	0.000000	6.382886	-0.045357	NaN	0.000000	0.001491	0.001709	28.0814	0.074036	0.002107	35.1437	87.5791	-161.748	-0.091562	0.381367	-0.805671	-0.806989	-0.045357	35.1437	-0.804703	-5.208295E+10	8.708669E-13	NaN
1176	1.000000	0.392690	7.37655e+06	-56789.1	1105.82	-29737.9	0.000000	0.000000	6.392894	0.020281	NaN	0.000000	0.001479	0.001685	28.0814	0.091465	0.002069	44.2087	107.203	17.2861	-0.008563	0.391331	-0.795666	-0.797024	0.020281	44.2087	-0.796010	-3.969140E+10	-5.109760E-13	NaN
1176	1.000000	0.402695	7.37655e+06	-56789.1	1105.82	-29737.9	0.000000	0.000000	6.402900	0.038087	NaN	0.000000	0.001511	0.001675	28.0816	0.067271	0.001968	34.1827	-2.358728	-163.587	-0.014741	0.401384	-0.785660	-0.786971	0.038087	34.1827	-0.786496	-2.947742E+10	-1.292091E-12	NaN
1176	1.000000	0.412699	7.37655e+06	-56789.1	1105.82	-29737.9	0.000000	0.000000	6.412901	-0.029108	NaN	0.000000	0.001531	0.001712	28.0814	0.069428	0.001869	37.1561	114.212	14.7902	0.022454	0.411333	-0.775656	-0.777023	-0.029108	37.1561	-0.775069	-2.061641E+10	1.411888E-12	NaN
1176	1.000000	0.422690	7.37655e+06	-56789.1	1105.82	-29737.9	0.000000	0.000000	6.422892	-0.037454	NaN	0.000000	0.001476	0.001662	28.0825	0.148359	0.001928	76.9505	10.7026	-162.574	-0.031829	0.421370	-0.765666	-0.766985	-0.037454	76.9505	-0.765301	-1.518461E+10	2.466580E-12	NaN
1176	1.000000	0.432717	7.37655e+06	-56789.1	1105.82	-29737.9	0.000000	0.000000	6.432918	-0.035834	NaN	0.000000	0.001533	0.001680	28.0826	0.062900	0.002113	29.7748	129.794	11.9881	-0.009652	0.431308	-0.755639	-0.757048	-0.035834	29.7748	-0.754736	-1.090648E+10	3.285555E-12	NaN
1176	1.000000	0.442718	7.37655e+06	-56789.1	1105.82	-29737.9	0.000000	0.000000	6.442921	-0.013793	NaN	0.000000	0.001510	0.001664	28.0829	0.096381	0.002021	47.6935	-1.443125	-164.199	-0.016752	0.441415	-0.745637	-0.746941	-0.013793	47.6935	-0.745420	-8.144654E+9	1.693489E-12	NaN
1176	1.000000	0.452718	7.37655e+06	-56789.1	1105.82	-29737.9	0.000000	0.000000	6.452918	-0.062102	NaN	0.000000	0.001548	0.001689	28.0827	0.075405	0.002021	37.3077	-64.685	13.4084	-0.019252	0.451345	-0.735638	-0.737011	-0.062102	37.3077	-0.734390	-5.762719E+9	1.077659E-11	NaN
1176	1.000000	0.462696	7.37655e+06	-56789.1	1105.82	-29737.9	0.000000	0.000000	6.462899	-0.010306	NaN	0.000000	0.001517	0.001693	28.0826	0.066044	0.001884	35.0646	44.3553	-164.762	0.033944	0.461461	-0.725660	-0.726894	-0.010306	35.0646	-0.725439	-4.351540E+9	2.368396E-12	NaN
1176	1.000000	0.472695	7.37655e+06	-56789.1	1105.82	-29737.9	0.000000	0.000000	6.472899	0.030372	NaN	0.000000	0.001514	0.001688	28.0832	0.061250	0.001929	31.7592	-155.525	12.9252	0.045565	0.471331	-0.715661	-0.717025	0.030372	31.7592	-0.716378	-3.273965E+9	-9.276903E-12	NaN
1176	1.000000	0.482733	7.37655e+06	-56789.1	1105.82	-29737.9	0.000000	0.000000	6.482938	0.034682	NaN	0.000000	0.001525	0.001682	28.0828	0.043560	0.002037	21.3852	-151.779	-166.111	0.009611	0.481430	-0.705623	-0.706925	0.034682	21.3852	-0.706839	-2.426080E+9	-1.429535E-11	NaN
1176	1.000000	0.492739	7.37655e+06	-56789.1	1105.82	-29737.9	0.000000	0.000000	6.492941	-0.024419	NaN	0.000000	0.001525	0.001673	28.0827	0.019641	0.001989	9.876019	-138.005	13.8876	0.001250	0.491358	-0.695616	-0.696998	-0.024419	9.876019	-0.693762	-1.608139E+9	1.518444E-11	NaN
1176	1.000000	0.502732	7.37655e+06	-56789.1	1105.82	-29737.9	0.000000	0.000000	6.502935	-0.016256	NaN	0.000000	0.001543	0.001671	28.0829	0.072877	0.002001	36.4134	47.9094	-164.153	-0.060842	0.501411	-0.685624	-0.686945	-0.016256	36.4134	-0.685289	-1.231751E+9	1.319738E-11	NaN
1176	1.000000	0.512731	7.37655e+06	-56789.1	1105.82	-29737.9	0.000000	0.000000	6.512935	0.007827	NaN	0.000000	0.001571	0.001679	28.083	0.105888	0.001988	53.2714	-146.679	15.1784	-0.040858	0.511458	-0.675625	-0.676897	0.007827	53.2714	-0.675735	-9.117270E+8	-8.584892E-12	NaN
1176	1.000000	0.522746	7.37655e+06	-56789.1	1105.82	-29737.9	0.000000	0.000000	6.522948	-0.027189	NaN	0.000000	0.001567	0.001675	28.0828	0.119413	0.001967	60.7115	-130.915	-169.075	0.036440	0.521441	-0.665609	-0.666915	-0.027189	60.7115	-0.665274	-6.556752E+8	4.146776E-11	NaN
1176	1.000000	0.532719	7.37655e+06	-56789.1	1105.82	-29737.9	0.000000	0.000000	6.532922	-0.008393	NaN	0.000000	0.001560	0.001700	28.0828	0.055982	0.001840	30.4291	-89.0811	16.1903	0.008424	0.531417	-0.655637	-0.656939	-0.008393	30.4291	-0.655430	-4.806787E+8	1.746176E-11	NaN
1176	1.000000	0.542764	7.37655e+06	-56789.1	1105.82	-29737.9	0.000000	0.000000	6.542968	0.020671	NaN	0.000000	0.001548	0.001687	28.083	0.083405	0.001943	42.9347	-25.745	-167.016	0.004599	0.541371	-0.645591	-0.646985	0.020671	42.9347	-0.645952	-3.564012E+8	-5.799936E-11	NaN
1176	1.000000	0.552735	7.37655e+06	-56789.1	1105.82	-29737.9	0.000000	0.000000	6.552937	-0.017558	NaN	0.000000	0.001587	0.001692	28.0826	0.067011	0.002043	32.805	164.499	13.3844	-0.117096	0.551373	-0.635621	-0.636983	-0.017558	32.805	-0.635219	-2.539114E+8	6.914963E-11	NaN
1176	1.000000	0.562738	7.37655e+06	-56789.1	1105.82	-29737.9	0.000000	0.000000	6.562942	0.014069	NaN	0.000000	0.001615	0.001684	28.0816	0.203543	0.002110	96.4694	115.48	-167.593	0.009287	0.561459	-0.625617	-0.626896	0.014069	96.4694	-0.625727	-1.880732E+8	-7.480357E-11	NaN
1176	1.000000	0.572759	7.37655e+06	-56789.1	1105.82	-29737.9	0.000000	0.000000	6.572963	0.020875	NaN	0.000000	0.001554	0.001712	28.0816	0.117444	0.002053	57.1951	126	16.111	0.052084	0.571384	-0.615597	-0.616972	0.020875	57.1951	-0.615870	-1.376757E+8	-1.516254E-10	NaN
1176	1.000000	0.582767	7.37655e+06	-56789.1	1105.82	-29737.9	0.000000	0.000000	6.582968	-0.048278	NaN	0.000000	0.001571	0.001725	28.0819	0.075417	0.001977	38.1564	-25.4614	-165.792	-0.039461	0.581433	-0.605589	-0.606923	-0.048278	38.1564	-0.604640	-9.646056E+7	5.004937E-10	NaN
1176	1.000000	0.592775	7.37655e+06	-56789.1	1105.82	-29737.9	0.000000	0.000000	6.592979	0.017886	NaN	0.000000	0.001597	0.001704	28.0817	0.056525	0.001946	29.0535	70.4064	17.0587	-0.044508	0.591392	-0.595581	-0.596963	0.017886	29.0535	-0.596043	-7.344275E+7	-2.435333E-10	NaN
1176	1.000000	0.602765	7.37655e+06	-56789.1	1105.82	-29737.9	0.000000	0.000000	6.602968	-0.005484	NaN	0.000000	0.001578	0.001707	28.0817	0.075314	0.002023	37.2362	136.786	-164.727	0.027523	0.601446	-0.585591	-0.586910	-0.005484	37.2362	-0.585480	-5.252198E+7	1.044131E-10	NaN
1176	1.000000	0.612789	7.37655e+06	-56789.1	1105.82	-29737.9	0.000000	0.000000	6.612990	-0.049734	NaN	0.000000	0.001609	0.001706	28.0815	0.088261	0.002025	43.5851	-67.3251	15.7657	-0.058517	0.611484	-0.575567	-0.576872	-0.049734	43.5851	-0.574711	-3.729958E+7	1.333358E-9	NaN
1176	1.000000	0.622772	7.37655e+06	-56789.1	1105.82	-29737.9	0.000000	0.000000	6.622975	-0.006910	NaN	0.000000	0.001520	0.001728	28.0817	0.022075	0.002032	10.8632	-179.321	-165.222	-0.002416	0.621488	-0.565584	-0.566868	-0.006910	10.8632	-0.565107	-2.747885E+7	2.514639E-10	NaN
1176	1.000000	0.632768	7.37655e+06	-56789.1	1105.82	-29737.9	0.000000	0.000000	6.632972	0.019135	NaN	0.000000	0.001503	0.001711	28.0816	0.010386	0.001940	5.352139	137.284	12.4969	0.018877	0.631443	-0.555588	-0.556913	0.019135	5.352139	-0.558269	-2.210200E+7	-8.657586E-10	NaN
1176	1.000000	0.642823	7.37655e+06	-56789.1	1105.82	-29737.9	0.000000	0.000000	6.643024	-0.054516	NaN	0.000000	0.001500	0.001646	28.0816	0.155341	0.001922	80.8431	-58.6343	-168.156	-0.024102	0.641516	-0.545532	-0.546839	-0.054516	80.8431	-0.545027	-1.448931E+7	3.762471E-9	NaN
1176	1.000000	0.652800	7.37655e+06	-56789.1	1105.82	-29737.9	0.000000	0.000000	6.653003	0.003422	NaN	0.000000	0.001521	0.001675	28.0818	0.131319	0.002003	65.5524	-137.721	12.769	-0.003394	0.651418	-0.535556	-0.536937	0.003422	65.5524	-0.535595	-1.072141E+7	-3.191353E-10	NaN
1176	1.000000	0.662794	7.37655e+06	-56789.1	1105.82	-29737.9	0.000000	0.000000	6.662997	-0.012514	NaN	0.000000	0.001505	0.001694	28.0816	0.072206	0.002008	35.9654	-114.148	-165.451	-0.063078	0.661465	-0.525561	-0.526891	-0.012514	35.9654	-0.525300	-7.71412e+06	1.622251E-9	NaN
1176	1.000000	0.672794	7.37655e+06	-56789.1	1105.82	-29737.9	0.000000	0.000000	6.672994	-0.076008	NaN	0.000000	0.001544	0.001686	28.0817	0.113708	0.002045	55.6089	-136.048	14.1046	-0.034573	0.671516	-0.515562	-0.516840	-0.076008	55.6089	-0.514537	-5.46491e+06	1.390841E-8	NaN
1176	1.000000	0.682794	7.37655e+06	-56789.1	1105.82	-29737.9	0.000000	0.000000	6.682999	0.026363	NaN	0.000000	0.001544	0.001712	28.0817	0.029112	0.001980	14.703	-66.6958	-166.343	0.015916	0.681510	-0.505561	-0.506846	0.026363	14.703	-0.506906	-4.27869e+06	-6.161495E-9	NaN
1176	1.000000	0.692836	7.37655e+06	-56789.1	1105.82	-29737.9	0.000000	0.000000	6.693039	-0.012589	NaN	0.000000	0.001538	0.001639	28.0829	0.026525	0.001997	13.2814	-141.113	14.7651	0.066849	0.691483	-0.495519	-0.496872	-0.012589	13.2814	-0.494808	-2.90108e+06	4.339439E-9	NaN
1176	1.000000	0.702826	7.37655e+06	-56789.1	1105.82	-29737.9	0.000000	0.000000	6.703031	0.026236	NaN	0.000000	0.001568	0.001710	28.0832	0.040593	0.002120	19.1501	-71.1687	-170.001	0.021800	0.701489	-0.485529	-0.486867	0.026236	19.1501	-0.486557	-2.22466e+06	-1.179317E-8	NaN
1176	1.000000	0.712850	7.37655e+06	-56789.1	1105.82	-29737.9	0.000000	0.000000	6.713052	-0.027608	NaN	0.000000	0.001557	0.001724	28.0833	0.106732	0.001974	54.0558	-83.0031	14.6353	-0.095163	0.711471	-0.475505	-0.476884	-0.027608	54.0558	-0.475122	-1.53891e+06	1.793992E-8	NaN
1176	1.000000	0.722824	7.37655e+06	-56789.1	1105.82	-29737.9	0.000000	0.000000	6.723027	-0.012826	NaN	0.000000	0.001571	0.001702	28.083	0.108993	0.001875	58.1401	-27.2578	-164.243	0.030762	0.721553	-0.465531	-0.466802	-0.012826	58.1401	-0.465366	-1.12301e+06	1.142152E-8	NaN
1176	1.000000	0.732851	7.37655e+06	-56789.1	1105.82	-29737.9	0.000000	0.000000	6.733051	-0.095935	NaN	0.000000	0.001547	0.001635	28.0832	0.092836	0.002022	45.9194	157.34	11.7776	-0.039546	0.731439	-0.455504	-0.456916	-0.095935	45.9194	-0.453937	-775833	1.236535E-7	NaN
1176	1.000000	0.742850	7.37655e+06	-56789.1	1105.82	-29737.9	0.000000	0.000000	6.743053	-0.003029	NaN	0.000000	0.001554	0.001660	28.0828	0.125583	0.002140	58.6944	138.254	-165.221	-0.010743	0.741540	-0.445506	-0.446816	-0.003029	58.6944	-0.445467	-589495	5.138212E-9	NaN
1176	1.000000	0.752835	7.37655e+06	-56789.1	1105.82	-29737.9	0.000000	0.000000	6.753036	-0.038784	NaN	0.000000	0.001586	0.001680	28.083	0.070500	0.001909	36.9372	117.116	15.0791	-0.038411	0.751476	-0.435521	-0.436880	-0.038784	36.9372	-0.434733	-415899	9.325243E-8	NaN
1176	1.000000	0.762835	7.37655e+06	-56789.1	1105.82	-29737.9	0.000000	0.000000	6.763040	0.029504	NaN	0.000000	0.001518	0.001682	28.0831	0.093483	0.001977	47.2926	131.827	-164.87	0.051183	0.761536	-0.425520	-0.426820	0.029504	47.2926	-0.425988	-312810	-9.432068E-8	NaN
1176	1.000000	0.772851	7.37655e+06	-56789.1	1105.82	-29737.9	0.000000	0.000000	6.773052	-0.046191	NaN	0.000000	0.001531	0.001686	28.0831	0.070658	0.002085	33.8866	9.636601	16.0315	-0.003750	0.771465	-0.415505	-0.416891	-0.046191	33.8866	-0.414482	-214835	2.150061E-7	NaN
1176	1.000000	0.782866	7.37655e+06	-56789.1	1105.82	-29737.9	0.000000	0.000000	6.783071	0.028710	NaN	0.000000	0.001545	0.001677	28.083	0.064680	0.002041	31.6875	-77.2805	-164.5	-0.033624	0.781564	-0.405489	-0.406791	0.028710	31.6875	-0.406169	-163641	-1.754464E-7	NaN
1176	1.000000	0.792858	7.37655e+06	-56789.1	1105.82	-29737.9	0.000000	0.000000	6.793061	-0.001507	NaN	0.000000	0.001562	0.001675	28.0833	0.056592	0.002031	27.8622	137.566	13.2116	0.001703	0.791496	-0.395498	-0.396860	-0.001507	27.8622	-0.395457	-115123	1.309405E-8	NaN
1176	1.000000	0.802856	7.37655e+06	-56789.1	1105.82	-29737.9	0.000000	0.000000	6.803060	0.025962	NaN	0.000000	0.001538	0.001708	28.0831	0.047555	0.002063	23.048	97.9544	-166.853	-0.030815	0.801638	-0.385500	-0.386717	0.025962	23.048	-0.386345	-85281.2	-3.044269E-7	NaN
1176	1.000000	0.812834	7.37655e+06	-56789.1	1105.82	-29737.9	0.000000	0.000000	6.813035	-0.030944	NaN	0.000000	0.001534	0.001684	28.083	0.084910	0.002023	41.9751	156.303	12.7133	0.055668	0.811559	-0.375522	-0.376797	-0.030944	41.9751	-0.374969	-58563.8	5.283749E-7	NaN
1176	1.000000	0.822846	7.37655e+06	-56789.1	1105.82	-29737.9	0.000000	0.000000	6.823045	-0.100280	NaN	0.000000	0.001559	0.001690	28.0829	0.117059	0.001980	59.1236	160.201	-166.549	-0.038451	0.821611	-0.365510	-0.366745	-0.100280	59.1236	-0.364238	-41025.8	2.444306E-6	NaN
1176	1.000000	0.832859	7.37655e+06	-56789.1	1105.82	-29737.9	0.000000	0.000000	6.833060	-0.041675	NaN	0.000000	0.001553	0.001678	28.0819	0.082867	0.002069	40.0545	-177.974	15.0052	-0.038162	0.831516	-0.355497	-0.356839	-0.041675	40.0545	-0.354717	-29880.9	1.394709E-6	NaN
1176	1.000000	0.842892	7.37655e+06	-56789.1	1105.82	-29737.9	0.000000	0.000000	6.843094	-0.028877	NaN	0.000000	0.001543	0.001649	28.0816	0.088011	0.002099	41.925	50.2271	-167.067	0.001950	0.841571	-0.345464	-0.346785	-0.028877	41.925	-0.344948	-21557.3	1.339527E-6	NaN
1176	1.000000	0.852884	7.37655e+06	-56789.1	1105.82	-29737.9	0.000000	0.000000	6.853089	0.039362	NaN	0.000000	0.001505	0.001696	28.0817	0.138930	0.002009	69.1504	55.0998	15.0265	0.060245	0.851468	-0.335472	-0.336887	0.039362	69.1504	-0.335899	-15911.7	-2.473795E-6	NaN
1176	1.000000	0.862899	7.37655e+06	-56789.1	1105.82	-29737.9	0.000000	0.000000	6.863099	-0.085078	NaN	0.000000	0.001502	0.001712	28.0816	0.065980	0.002034	32.4319	60.4851	-164.965	-0.067930	0.861564	-0.325456	-0.326791	-0.085078	32.4319	-0.323489	-10469.9	8.125899E-6	NaN
1176	1.000000	0.872908	7.37655e+06	-56789.1	1105.82	-29737.9	0.000000	0.000000	6.873112	0.009758	NaN	0.000000	0.001533	0.001706	28.0818	0.046375	0.001963	23.6256	-112.756	16.9938	0.021060	0.871556	-0.315448	-0.316799	0.009758	23.6256	-0.315757	-8056.07	-1.211202E-6	NaN
1176	1.000000	0.882911	7.37655e+06	-56789.1	1105.82	-29737.9	0.000000	0.000000	6.883115	0.008907	NaN	0.000000	0.001514	0.001678	28.0816	0.065127	0.001952	33.3687	15.9467	-164.93	0.006699	0.881593	-0.305445	-0.306763	0.008907	33.3687	-0.305645	-5708.53	-1.560371E-6	NaN
1176	1.000000	0.892887	7.37655e+06	-56789.1	1105.82	-29737.9	0.000000	0.000000	6.893089	-0.034256	NaN	0.000000	0.001539	0.001717	28.0816	0.092302	0.001883	49.0154	67.1779	14.6885	-0.062653	0.891568	-0.295469	-0.296788	-0.034256	49.0154	-0.294945	-3956.04	8.659192E-6	NaN
1176	1.000000	0.902902	7.37656e+06	-56789.1	1105.82	-29737.9	0.000000	0.000000	6.903107	0.034154	NaN	0.000000	0.001572	0.001710	28.0816	0.113326	0.001901	59.6067	113.8	-162.325	0.002591	0.901551	-0.285453	-0.286805	0.034154	59.6067	-0.285883	-2894.26	-1.180055E-5	NaN
1176	1.000000	0.912911	7.37656e+06	-56789.1	1105.82	-29737.9	0.000000	0.000000	6.913113	-0.016307	NaN	0.000000	0.001527	0.001679	28.0815	0.065488	0.001935	33.8465	-145.544	15.7281	-0.008581	0.911571	-0.275445	-0.276785	-0.016307	33.8465	-0.275084	-1989.16	8.198014E-6	NaN
1176	1.000000	0.922899	7.37656e+06	-56789.1	1105.82	-29737.9	0.000000	0.000000	6.923103	0.034712	NaN	0.000000	0.001542	0.001695	28.0814	0.012600	0.001924	6.548638	139.379	-167.149	-0.013586	0.921608	-0.265457	-0.266748	0.034712	6.548638	-0.269433	-1632.74	-2.125981E-5	NaN
1176	1.000000	0.932925	7.37656e+06	-56789.1	1105.82	-29737.9	0.000000	0.000000	6.933126	-0.055623	NaN	0.000000	0.001574	0.001690	28.0818	0.042948	0.002027	21.1864	116.298	14.8901	0.011415	0.931504	-0.255431	-0.256851	-0.055623	21.1864	-0.253462	-929.863	5.981863E-5	NaN
1176	1.000000	0.942951	7.37656e+06	-56789.1	1105.82	-29737.9	0.000000	0.000000	6.943153	-0.028561	NaN	0.000000	0.001518	0.001708	28.0817	0.068449	0.002009	34.072	-124.379	-166.02	0.060803	0.941630	-0.245404	-0.246726	-0.028561	34.072	-0.244776	-682.282	4.186043E-5	NaN
1176	1.000000	0.952896	7.37656e+06	-56789.1	1105.82	-29737.9	0.000000	0.000000	6.953099	0.011024	NaN	0.000000	0.001516	0.001702	28.0817	0.069168	0.002134	32.4126	-154.283	12.7557	-0.020885	0.951590	-0.235460	-0.236765	0.011024	32.4126	-0.235715	-492.576	-2.238003E-5	NaN
1176	1.000000	0.962923	7.37656e+06	-56789.1	1105.82	-29737.9	0.000000	0.000000	6.963129	0.046393	NaN	0.000000	0.001511	0.001682	28.0817	0.099810	0.002065	48.3428	-62.3037	-165.204	0.077434	0.961587	-0.225432	-0.226769	0.046393	48.3428	-0.226152	-348.033	-0.000133	NaN
1176	1.000000	0.972918	7.37656e+06	-56789.1	1105.82	-29737.9	0.000000	0.000000	6.973122	0.014580	NaN	0.000000	0.001563	0.001671	28.083	0.092715	0.001870	49.5935	-73.5391	8.460839	-0.028799	0.971561	-0.215438	-0.216794	0.014580	49.5935	-0.215658	-236.644	-6.161315E-5	NaN
1176	1.000000	0.982913	7.37656e+06	-56789.1	1105.82	-29737.9	0.000000	0.000000	6.983115	-0.032088	NaN	0.000000	0.001526	0.001674	28.083	0.082480	0.001957	42.1445	8.274747	-169.989	0.069544	0.981616	-0.205443	-0.206740	-0.032088	42.1445	-0.204872	-158.297	0.000203	NaN
1176	1.000000	0.992894	7.37656e+06	-56789.1	1105.82	-29737.9	0.000000	0.000000	6.993098	0.003950	NaN	0.000000	0.001534	0.001680	28.0829	0.085713	0.002132	40.2109	-46.9749	12.9735	0.036245	0.991579	-0.195461	-0.196776	0.003950	40.2109	-0.195535	-111.189	-3.552191E-5	NaN
1176	1.000000	1.002952	7.37656e+06	-56789.1	1105.82	-29737.9	0.000000	0.000000	7.003154	-0.029029	NaN	0.000000	0.001529	0.001686	28.0831	0.169628	0.001935	87.6578	-136.799	-164.615	0.006593	1.001669	-0.185403	-0.186687	-0.029029	87.6578	-0.185155	-74.6008	0.000389	NaN
1176	1.000000	1.012916	7.37656e+06	-56789.1	1105.82	-29737.9	0.000000	0.000000	7.013119	-0.010896	NaN	0.000000	0.001517	0.001674	28.0832	0.034940	0.002080	16.8015	17.4797	12.2562	0.029896	1.011538	-0.175439	-0.176818	-0.010896	16.8015	-0.174953	-50.0231	0.000218	NaN
1176	1.000000	1.022929	7.37656e+06	-56789.1	1105.82	-29737.9	0.000000	0.000000	7.023133	0.018186	NaN	0.000000	0.001553	0.001674	28.0832	0.060373	0.002101	28.7349	-72.7767	-167.657	0.043547	1.021626	-0.165426	-0.166730	0.018186	28.7349	-0.165901	-34.8428	-0.000522	NaN
1176	1.000000	1.032919	7.37656e+06	-56789.1	1105.82	-29737.9	0.000000	0.000000	7.033122	-0.005933	NaN	0.000000	0.001529	0.001707	28.083	0.018003	0.001786	10.078	-19.8159	9.679867	-0.041456	1.031620	-0.155437	-0.156736	-0.005933	10.078	-0.154995	-22.3097	0.000266	NaN
1176	1.000000	1.042992	7.37656e+06	-56789.1	1105.82	-29737.9	0.000000	0.000000	7.043196	0.020652	NaN	0.000000	0.001545	0.001659	28.0831	0.046415	0.002133	21.7568	-18.269	-165.94	0.017669	1.041628	-0.145363	-0.146728	0.020652	21.7568	-0.146075	-15.3473	-0.001346	NaN
1176	1.000000	1.052958	7.37656e+06	-56789.1	1105.82	-29737.9	0.000000	0.000000	7.053162	-0.003157	NaN	0.000000	0.001512	0.001679	28.0828	0.084945	0.002160	39.3177	111.055	13.6546	0.038713	1.051600	-0.135397	-0.136755	-0.003157	39.3177	-0.135337	-9.654279	0.000327	NaN
1176	1.000000	1.062978	7.37656e+06	-56789.1	1105.82	-29737.9	0.000000	0.000000	7.063181	-0.008795	NaN	0.000000	0.001521	0.001654	28.0829	0.045901	0.001964	23.3679	100.159	-167.492	-0.042394	1.061683	-0.125377	-0.126673	-0.008795	23.3679	-0.125095	-6.107652	0.001440	NaN
1176	1.000000	1.072958	7.37656e+06	-56789.1	1105.82	-29737.9	0.000000	0.000000	7.073160	-0.013383	NaN	0.000000	0.001515	0.001656	28.0827	0.051847	0.001940	26.7202	94.7143	12.5246	-0.003673	1.071582	-0.115398	-0.116774	-0.013383	26.7202	-0.115022	-3.824447	0.003499	NaN
1176	1.000000	1.082956	7.37656e+06	-56789.1	1105.82	-29737.9	0.000000	0.000000	7.083160	0.036356	NaN	0.000000	0.001570	0.001691	28.0832	0.047714	0.001981	24.0916	71.8345	-163.563	-0.033152	1.081610	-0.105400	-0.106746	0.036356	24.0916	-0.106532	-2.535947	-0.014336	NaN
1176	1.000000	1.092983	7.37656e+06	-56789.1	1105.82	-29737.9	0.000000	0.000000	7.093185	-0.010523	NaN	0.000000	0.001598	0.001680	28.0828	0.005748	0.001980	2.903298	129.531	14.1248	0.042666	1.091601	-0.095373	-0.096754	-0.010523	2.903298	-0.092655	-1.246277	0.008443	NaN
1176	1.000000	1.102949	7.37656e+06	-56789.1	1105.82	-29737.9	0.000000	0.000000	7.103151	-0.048140	NaN	0.000000	0.001614	0.001700	28.0818	0.034385	0.002070	16.6104	-162.251	-166.164	-0.057937	1.101623	-0.085406	-0.086732	-0.048140	16.6104	-0.083233	-0.744154	0.064691	NaN
1176	1.000000	1.112990	7.37656e+06	-56789.1	1105.82	-29737.9	0.000000	0.000000	7.113195	0.044296	NaN	0.000000	0.001593	0.001702	28.0816	0.088864	0.001990	44.6524	119.72	12.9862	-0.054366	1.111671	-0.075366	-0.076685	0.044296	44.6524	-0.076110	-0.493323	-0.089791	NaN
1176	1.000000	1.122986	7.37656e+06	-56789.1	1105.82	-29737.9	0.000000	0.000000	7.123187	-0.055221	NaN	0.000000	0.001666	0.001684	28.0817	0.022805	0.002042	11.1703	-63.9439	-166.591	-0.081867	1.121677	-0.065370	-0.066679	-0.055221	11.1703	-0.061662	-0.200875	0.274902	NaN
1176	1.000000	1.132975	7.37656e+06	-56789.1	1105.82	-29737.9	0.000000	0.000000	7.133180	0.052590	NaN	0.000000	0.001582	0.001673	28.0814	0.089567	0.001997	44.8419	66.692	12.4648	0.010214	1.131640	-0.055381	-0.056716	0.052590	44.8419	-0.056260	-0.140269	-0.374925	NaN
1176	1.000000	1.142998	7.37656e+06	-56789.1	1105.82	-29737.9	0.000000	0.000000	7.143201	-0.002152	NaN	0.000000	0.001586	0.001657	28.0815	0.051533	0.001904	27.0722	-150.815	-164.809	-0.035409	1.141664	-0.045358	-0.046692	-0.002152	27.0722	-0.045299	-0.065633	0.032781	NaN
1176	1.000000	1.153010	7.37656e+06	-56789.1	1105.82	-29737.9	0.000000	0.000000	7.153213	-0.001988	NaN	0.000000	0.001605	0.001707	28.082	0.072641	0.002100	34.5938	48.3525	10.5789	0.048931	1.151637	-0.035345	-0.036719	-0.001988	34.5938	-0.035302	-0.032689	0.060811	NaN
1176	1.000000	1.162994	7.37656e+06	-56789.1	1105.82	-29737.9	0.000000	0.000000	7.163197	-0.005810	NaN	0.000000	0.001592	0.001702	28.0819	0.036379	0.002028	17.939	-156.65	-165.766	0.007544	1.161667	-0.025362	-0.026689	-0.005810	17.939	-0.025119	-0.016992	0.341946	NaN
1176	1.000000	1.173015	7.37656e+06	-56789.1	1105.82	-29737.9	0.000000	0.000000	7.173220	0.037072	NaN	0.000000	0.001596	0.001716	28.0815	0.038483	0.002192	17.5556	26.8096	11.6876	0.011686	1.171654	-0.015341	-0.016702	0.037072	17.5556	-0.016924	-0.010462	-3.543403	NaN
1176	1.000000	1.183032	7.37656e+06	-56789.1	1105.82	-29737.9	0.000000	0.000000	7.183233	-0.044695	NaN	0.000000	0.001623	0.001697	28.0815	0.005146	0.001926	2.671053	-128.617	-166.18	0.024113	1.181698	-0.005324	-0.006657	-0.044695	2.671053	0.007226	0.006258	-7.141600	30.8477
1176	1.000000	1.192986	7.37656e+06	-56789.1	1105.82	-29737.9	0.000000	0.000000	7.193310	2.939148	NaN	0.000000	0.001615	0.001731	28.0816	4.043638	0.001888	2141.2	7.468465	11.2866	1.249429	1.191666	0.004630	0.003311	2.939148	2141.2	0.003600	0.002891	1016.49	36380.8
1176	2.000000	1.198567	7.37656e+06	-56789.1	1105.82	-29737.9	0.000000	0.000000	7.199164	9.573915	NaN	0.000000	0.001543	0.001691	28.0815	9.627756	0.001738	5539.96	8.055732	-174.518	9.301192	1.198263	0.010211	0.009907	9.573915	5539.96	0.008915	0.008001	1196.63	56586.7
1176	2.000000	1.201104	7.37656e+06	-56789.1	1105.82	-29737.9	0.000000	0.000000	7.201952	15.6798	NaN	0.000000	0.001567	0.001706	28.0816	12.5492	0.001771	7087.1	10.3634	2.177161	16.4672	1.200659	0.012748	0.012303	15.6798	7087.1	0.011089	0.010417	1505.22	63441.1
1176	2.000000	1.203507	7.37656e+06	-56789.1	1105.82	-29737.9	0.000000	0.000000	7.204344	15.3864	NaN	0.000000	0.001601	0.001679	28.0815	13.9237	0.001696	8210.87	10.0842	-179.758	15.3986	1.203231	0.015152	0.014876	15.3864	8210.87	0.013746	0.013650	1127.23	64209.5
1176	2.000000	1.206013	7.37656e+06	-56789.1	1105.82	-29737.9	0.000000	0.000000	7.207036	19.9428	NaN	0.000000	0.001537	0.001683	28.0816	16.3648	0.001703	9609.17	3.441269	4.176112	18.9235	1.205680	0.017657	0.017324	19.9428	9609.17	0.016100	0.016781	1188.43	67772.4
1176	2.000000	1.208488	7.37656e+06	-56789.1	1105.82	-29737.9	0.000000	0.000000	7.209644	23.1616	NaN	0.000000	0.001549	0.001674	28.0826	19.6518	0.001875	10481.4	5.387648	-177.44	22.1666	1.208227	0.020132	0.019872	23.1616	10481.4	0.018475	0.020202	1146.49	67374.4
1176	2.000000	1.211035	7.37656e+06	-56789.1	1105.82	-29737.9	0.000000	0.000000	7.212360	27.2575	NaN	0.000000	0.001566	0.001659	28.0826	21.4283	0.002025	10582.6	7.001316	2.962165	26.5879	1.210582	0.022680	0.022227	27.2575	10582.6	0.020748	0.023731	1148.59	62763.1
1176	2.000000	1.213490	7.37656e+06	-56789.1	1105.82	-29737.9	0.000000	0.000000	7.214995	31.6378	NaN	0.000000	0.001580	0.001692	28.0829	23.6166	0.001935	12207.6	9.765426	178.595	31.6792	1.213131	0.025134	0.024776	31.6378	12207.6	0.023191	0.027806	1137.81	66886.1
1176	2.000000	1.215971	7.37656e+06	-56789.1	1105.82	-29737.9	0.000000	0.000000	7.217704	37.1918	NaN	0.000000	0.001551	0.001698	28.0826	25.5167	0.001731	14737.3	0.243946	5.618819	35.5617	1.215544	0.027615	0.027188	37.1918	14737.3	0.025722	0.032343	1149.93	74869.1
1176	2.000000	1.218422	7.37656e+06	-56789.1	1105.82	-29737.9	0.000000	0.000000	7.220286	40.3806	NaN	0.000000	0.001580	0.001698	28.0826	28.7839	0.001991	14458.9	7.020757	179.096	37.8162	1.218114	0.030066	0.029758	40.3806	14458.9	0.027971	0.036644	1101.98	69009.5
1176	2.000000	1.220959	7.37656e+06	-56789.1	1105.82	-29737.9	0.000000	0.000000	7.223005	44.7943	NaN	0.000000	0.001574	0.001712	28.0826	30.2251	0.001877	16103.1	4.693753	0.721068	42.8173	1.220620	0.032604	0.032265	44.7943	16103.1	0.030517	0.041823	1071.05	71940.9
1176	2.000000	1.223476	7.37656e+06	-56789.1	1105.82	-29737.9	0.000000	0.000000	7.225842	52.5684	NaN	0.000000	0.001583	0.001695	28.0828	32.7426	0.001855	17654.1	6.227637	179.184	52.614	1.223123	0.035121	0.034768	52.5684	17654.1	0.032887	0.046941	1119.88	74446.1
1176	2.000000	1.225986	7.37656e+06	-56789.1	1105.82	-29737.9	0.000000	0.000000	7.228594	58.4499	NaN	0.000000	0.001558	0.001661	28.0825	34.3774	0.001709	20112.1	6.434747	-3.432959	58.5817	1.225587	0.037631	0.037232	58.4499	20112.1	0.035451	0.052801	1106.98	79966.8
1176	2.000000	1.228476	7.37656e+06	-56789.1	1105.82	-29737.9	0.000000	0.000000	7.231385	65.7485	NaN	0.000000	0.001549	0.001731	28.0827	37.3329	0.001780	20973.9	6.147874	176.612	65.6503	1.228131	0.040121	0.039775	65.7485	20973.9	0.037770	0.058392	1125.99	79300.7
1176	2.000000	1.230997	7.37656e+06	-56789.1	1105.82	-29737.9	0.000000	0.000000	7.234253	74.2025	NaN	0.000000	0.001558	0.001697	28.0828	38.7458	0.001721	22511.8	7.676255	-4.120631	76.9786	1.230593	0.042641	0.042237	74.2025	22511.8	0.040169	0.064466	1151.04	81006.3
1176	2.000000	1.233417	7.37656e+06	-56789.1	1105.82	-29737.9	0.000000	0.000000	7.236782	76.852	NaN	0.000000	0.001528	0.001713	28.0828	40.4229	0.001772	22806.5	2.555639	179.67	75.9823	1.233115	0.045061	0.044760	76.852	22806.5	0.042534	0.070742	1086.38	78341.9
1176	2.000000	1.235939	7.37656e+06	-56789.1	1105.82	-29737.9	0.000000	0.000000	7.239750	87.7007	NaN	0.000000	0.001584	0.001722	28.0827	43.6216	0.001762	24751.3	6.512343	-5.909358	86.3724	1.235586	0.047583	0.047231	87.7007	24751.3	0.044926	0.077377	1133.43	81295.4
1176	2.000000	1.238528	7.37656e+06	-56789.1	1105.82	-29737.9	0.000000	0.000000	7.242423	89.7212	NaN	0.000000	0.001567	0.001726	28.0828	47.1545	0.001924	24505	6.865752	174.518	94.2686	1.238191	0.050173	0.049835	89.7212	24505	0.047427	0.084625	1060.22	76962.3
1176	2.000000	1.240900	7.37656e+06	-56789.1	1105.82	-29737.9	0.000000	0.000000	7.245471	106.151	NaN	0.000000	0.001582	0.001701	28.0831	47.9699	0.001724	27817.1	5.300300	-4.223086	104.865	1.240535	0.052545	0.052179	106.151	27817.1	0.049683	0.091434	1160.95	84048.6
1176	2.000000	1.243412	7.37656e+06	-56789.1	1105.82	-29737.9	0.000000	0.000000	7.248325	114.472	NaN	0.000000	0.001516	0.001700	28.0814	49.6654	0.001665	29826.9	3.908029	175.342	114.817	1.243042	0.055056	0.054687	114.472	29826.9	0.052178	0.099263	1153.22	86494.6
1176	2.000000	1.245885	7.37656e+06	-56789.1	1105.82	-29737.9	0.000000	0.000000	7.251284	126.31	NaN	0.000000	0.001522	0.001735	28.0812	53.4819	0.001889	28317.5	5.674965	-6.322215	123.36	1.245583	0.057529	0.057227	126.31	28317.5	0.054184	0.105781	1194.07	79546.9
1176	2.000000	1.248441	7.37656e+06	-56789.1	1105.82	-29737.9	0.000000	0.000000	7.254143	133.651	NaN	0.000000	0.001533	0.001735	28.0814	55.4459	0.001723	32174	5.798763	173.052	133.1	1.248053	0.060085	0.059697	133.651	32174	0.056970	0.115168	1160.49	86618.8
1176	2.000000	1.250844	7.37656e+06	-56789.1	1105.82	-29737.9	0.000000	0.000000	7.257039	145.635	NaN	0.000000	0.001529	0.001698	28.0814	56.5918	0.001788	31654.7	4.733290	-5.196990	139.884	1.250498	0.062488	0.062142	145.635	31654.7	0.059038	0.122381	1190.01	82671.3
1176	2.000000	1.253414	7.37656e+06	-56789.1	1105.82	-29737.9	0.000000	0.000000	7.260122	158.114	NaN	0.000000	0.001589	0.001732	28.0813	58.9513	0.001812	32540.6	6.757817	172.299	159.145	1.253054	0.065058	0.064698	158.114	32540.6	0.061414	0.130928	1207.65	82164.2
1176	2.000000	1.255898	7.37656e+06	-56789.1	1105.82	-29737.9	0.000000	0.000000	7.263007	167.852	NaN	0.000000	0.001545	0.001715	28.0813	62.6767	0.001771	35389.6	7.540934	-9.368909	166.79	1.255619	0.067543	0.067263	167.852	35389.6	0.063986	0.140486	1194.79	86264.4
1176	2.000000	1.258347	7.37656e+06	-56789.1	1105.82	-29737.9	0.000000	0.000000	7.265914	178.979	NaN	0.000000	0.001529	0.001702	28.0815	64.8161	0.001790	36219	3.880795	174.146	173.973	1.258216	0.069991	0.069861	178.979	36219	0.066285	0.149306	1198.74	85638.9
1176	2.000000	1.260909	7.37656e+06	-56789.1	1105.82	-29737.9	0.000000	0.000000	7.269193	196.421	NaN	0.000000	0.001545	0.001729	28.0817	66.194	0.001730	38260.8	3.500944	-5.283085	193.61	1.260550	0.072553	0.072194	196.421	38260.8	0.068703	0.158851	1236.51	87706.5
1176	2.000000	1.263368	7.37656e+06	-56789.1	1105.82	-29737.9	0.000000	0.000000	7.272048	206.049	NaN	0.000000	0.001545	0.001692	28.0813	68.8557	0.001743	39506.4	3.413877	173.957	203.63	1.263109	0.075012	0.074753	206.049	39506.4	0.071101	0.168593	1222.17	87906.3
1176	2.000000	1.265939	7.37656e+06	-56789.1	1105.82	-29737.9	0.000000	0.000000	7.275157	219.099	NaN	0.000000	0.001547	0.001697	28.0812	72.3686	0.001840	39334.1	5.063368	-7.139280	219.552	1.265490	0.077583	0.077134	219.099	39334.1	0.073406	0.178218	1229.39	85127
1176	2.000000	1.268372	7.37656e+06	-56789.1	1105.82	-29737.9	0.000000	0.000000	7.278327	237.026	NaN	0.000000	0.001543	0.001708	28.0813	75.344	0.001857	40582.7	6.543714	170.593	236.858	1.268115	0.080017	0.079759	237.026	40582.7	0.075636	0.187769	1262.33	85566.3
1176	2.000000	1.270846	7.37656e+06	-56789.1	1105.82	-29737.9	0.000000	0.000000	7.281327	249.811	NaN	0.000000	0.001528	0.001709	28.0815	75.6929	0.001656	45700.6	2.634664	-6.465590	243.801	1.270521	0.082491	0.082166	249.811	45700.6	0.078391	0.199886	1249.77	93390.8
1176	2.000000	1.273439	7.37656e+06	-56789.1	1105.82	-29737.9	0.000000	0.000000	7.284434	262.307	NaN	0.000000	0.001490	0.001701	28.0812	79.3965	0.001786	44453	8.567202	168.296	265.156	1.273018	0.085083	0.084662	262.307	44453	0.080658	0.210123	1248.35	88600.8
1176	2.000000	1.275823	7.37656e+06	-56789.1	1105.82	-29737.9	0.000000	0.000000	7.287691	283.526	NaN	0.000000	0.001489	0.001738	28.0823	82.4766	0.001866	44209.2	6.210356	-9.575430	277.596	1.275419	0.087467	0.087063	283.526	44209.2	0.082657	0.219353	1292.55	86240.9
1176	2.000000	1.278398	7.37656e+06	-56789.1	1105.82	-29737.9	0.000000	0.000000	7.290306	284.497	NaN	0.000000	0.001516	0.001728	28.0827	84.8022	0.001877	45168.5	3.586181	172.789	284.461	1.278248	0.090042	0.089892	284.497	45168.5	0.085319	0.231924	1226.69	85691.3
1176	2.000000	1.280920	7.37656e+06	-56789.1	1105.82	-29737.9	0.000000	0.000000	7.294009	313.199	NaN	0.000000	0.001499	0.001672	28.0824	85.9799	0.001747	49219	3.197590	-7.144941	311.212	1.280536	0.092564	0.092181	313.199	49219	0.087792	0.243898	1284.14	91054.6
1176	2.000000	1.283291	7.37656e+06	-56789.1	1105.82	-29737.9	0.000000	0.000000	7.296512	316.396	NaN	0.000000	0.001535	0.001725	28.0824	88.5196	0.001748	50636.3	7.044227	168.146	310.404	1.283086	0.094936	0.094731	316.396	50636.3	0.090249	0.256078	1235.55	91421.7
1176	2.000000	1.285759	7.37656e+06	-56789.1	1105.82	-29737.9	0.000000	0.000000	7.300101	343.665	NaN	0.000000	0.001550	0.001700	28.0825	91.3182	0.001847	49445.7	8.515018	-12.5777	336.71	1.285549	0.097403	0.097193	343.665	49445.7	0.092190	0.265890	1292.51	87609.3
1176	2.000000	1.288285	7.37656e+06	-56789.1	1105.82	-29737.9	0.000000	0.000000	7.303482	364.445	NaN	0.000000	0.001523	0.001657	28.0826	92.0521	0.001675	54961.4	1.501736	173.65	358.063	1.288056	0.099929	0.099701	364.445	54961.4	0.094956	0.280174	1300.78	94867.6
1176	2.000000	1.290982	7.37656e+06	-56789.1	1105.82	-29737.9	0.000000	0.000000	7.307039	385.331	NaN	0.000000	0.001528	0.001686	28.0825	96.6549	0.001833	52722	9.231366	-12.527	389.582	1.290350	0.102627	0.101994	385.331	52722	0.097145	0.291726	1320.86	89182
1176	2.000000	1.293343	7.37656e+06	-56789.1	1105.82	-29737.9	0.000000	0.000000	7.310148	403.533	NaN	0.000000	0.001547	0.001680	28.0824	97.8946	0.001825	53654.9	5.914539	169.551	399.84	1.293040	0.104987	0.104684	403.533	53654.9	0.099346	0.303561	1329.33	88973.2
1176	2.000000	1.295427	7.37656e+06	-56789.1	1105.82	-29737.9	0.000000	0.000000	7.312864	418.884	NaN	0.000000	0.001552	0.001665	28.0826	100.104	0.001759	56923.2	8.112513	167.879	420.524	1.294900	0.107071	0.106544	418.884	56923.2	0.101552	0.315645	1327.07	92568.4