File: remote_trans/data/nanoindenter/0828-1/data/Data_2025-08-06,11h17m57s/2025-07-22_16-23-58_1_1076.txt
2025-07-22, 16:23:58, 1
Index	Phase	Displacement	Time	Pos X	Pos Y	Pos Z	Rot A	Rot B	Piezo Z	Force A	Force B	Gripper	Voltage A	Voltage B	Temperature	Amplitude force	Amplitude pos	Stiffness	Phase shift	Phase excitation	Force A raw	Displacement raw	HMax	HMax raw	Real Force	Real Stiffness	Contact Depth	Area	Hardness	Reduced Mod.
[#]	[#]	[um]	[s]	[um]	[um]	[um]	[m°]	[m°]	[um]	[uN]	[uN]	[V]	[V]	[V]	[°C]	[uN]	[um]	[N/m]	[°]	[°]	[uN]	[um]	[um]	[um]	[uN]	[N/m]	[um]	[um^2]	[MPa]	[MPa]
1076	1.000000	0.002071	7.37558e+06	-53939.1	1055.82	-29744.8	0.000000	0.000000	6.002788	0.013623	NaN	0.000000	0.001553	0.001681	28.0838	0.131462	0.000855	153.673	154.004	-166.229	0.047498	0.000865	-1.047939	-1.049145	0.013623	153.673	-1.048006	-1.003703E+14	-1.357288E-16	NaN
1076	1.000000	0.010074	7.37558e+06	-53939.1	1055.82	-29744.8	0.000000	0.000000	6.010791	0.019175	NaN	0.000000	0.001560	0.001659	28.0837	0.071696	0.000919	77.9935	-64.362	-159.458	0.014965	0.008690	-1.039936	-1.041320	0.019175	77.9935	-1.040121	-7.863086E+13	-2.438614E-16	NaN
1076	1.000000	0.018035	7.37558e+06	-53939.1	1055.82	-29744.8	0.000000	0.000000	6.018750	-0.017882	NaN	0.000000	0.001521	0.001616	28.0838	0.059325	0.001711	34.6632	172.219	-165.056	-0.007759	0.016708	-1.031976	-1.033302	-0.017882	34.6632	-1.031589	-6.037416E+13	2.961840E-16	NaN
1076	1.000000	0.026080	7.37558e+06	-53939.1	1055.82	-29744.8	0.000000	0.000000	6.026797	0.017843	NaN	0.000000	0.001533	0.001629	28.0838	0.004707	0.001723	2.732377	-56.5753	-165.62	0.032985	0.024725	-1.023930	-1.025285	0.017843	2.732377	-1.028828	-5.542636E+13	-3.219155E-16	NaN
1076	1.000000	0.034040	7.37558e+06	-53939.1	1055.82	-29744.8	0.000000	0.000000	6.034756	0.009097	NaN	0.000000	0.001539	0.001633	28.0836	0.038041	0.001870	20.3402	106.27	-164.881	0.015810	0.032753	-1.015970	-1.017257	0.009097	20.3402	-1.016306	-3.760505E+13	-2.419177E-16	NaN
1076	1.000000	0.042051	7.37558e+06	-53939.1	1055.82	-29744.8	0.000000	0.000000	6.042766	-0.038786	NaN	0.000000	0.001559	0.001642	28.0835	0.118574	0.002011	58.9483	-123.076	-163.359	-0.002524	0.040760	-1.007959	-1.009250	-0.038786	58.9483	-1.007465	-2.859355E+13	1.356469E-15	NaN
1076	1.000000	0.050024	7.37558e+06	-53939.1	1055.82	-29744.8	0.000000	0.000000	6.050740	0.003693	NaN	0.000000	0.001580	0.001652	28.0838	0.039928	0.001910	20.9067	151.463	-170.615	-0.010394	0.048730	-0.999987	-1.001281	0.003693	20.9067	-1.000119	-2.277064E+13	-1.621976E-16	NaN
1076	1.000000	0.058025	7.37558e+06	-53939.1	1055.82	-29744.8	0.000000	0.000000	6.058741	-0.000900	NaN	0.000000	0.001574	0.001690	28.0837	0.017939	0.001948	9.207111	167.03	-165.061	-0.082269	0.056756	-0.991986	-0.993255	-0.000900	9.207111	-0.991913	-1.765505E+13	5.097106E-17	NaN
1076	1.000000	0.066027	7.37558e+06	-53939.1	1055.82	-29744.8	0.000000	0.000000	6.066742	-0.017508	NaN	0.000000	0.001554	0.001668	28.0834	0.083684	0.001975	42.3662	16.6199	-166.678	-0.129654	0.064743	-0.983984	-0.985267	-0.017508	42.3662	-0.983674	-1.367418E+13	1.280377E-15	NaN
1076	1.000000	0.074053	7.37558e+06	-53939.1	1055.82	-29744.8	0.000000	0.000000	6.074767	-0.054011	NaN	0.000000	0.001570	0.001689	28.0836	0.075847	0.001907	39.7828	-108.049	-165.114	-0.007357	0.072711	-0.975957	-0.977300	-0.054011	39.7828	-0.974939	-1.042853E+13	5.179111E-15	NaN
1076	1.000000	0.082035	7.37558e+06	-53939.1	1055.82	-29744.8	0.000000	0.000000	6.082753	0.033840	NaN	0.000000	0.001554	0.001692	28.0833	0.028618	0.001956	14.6293	-119.847	-167.099	-0.023155	0.080719	-0.967975	-0.969291	0.033840	14.6293	-0.969710	-8.866587E+12	-3.816574E-15	NaN
1076	1.000000	0.090059	7.37558e+06	-53939.1	1055.82	-29744.8	0.000000	0.000000	6.090776	0.022429	NaN	0.000000	0.001616	0.001671	28.0838	0.096818	0.001901	50.9422	-38.4338	-163.071	0.018973	0.088789	-0.959951	-0.961221	0.022429	50.9422	-0.960282	-6.617049E+12	-3.389556E-15	NaN
1076	1.000000	0.098074	7.37558e+06	-53939.1	1055.82	-29744.8	0.000000	0.000000	6.098792	0.052746	NaN	0.000000	0.001590	0.001697	28.0839	0.040389	0.002069	19.5202	156.942	-168.352	0.020277	0.096743	-0.951936	-0.953268	0.052746	19.5202	-0.953963	-5.438387E+12	-9.698916E-15	NaN
1076	1.000000	0.106042	7.37558e+06	-53939.1	1055.82	-29744.8	0.000000	0.000000	6.106758	-0.010256	NaN	0.000000	0.001542	0.001691	28.0832	0.023104	0.001951	11.84	93.4956	-166.426	-0.008900	0.104777	-0.943968	-0.945233	-0.010256	11.84	-0.943319	-3.907578E+12	2.624664E-15	NaN
1076	1.000000	0.114026	7.37558e+06	-53939.1	1055.82	-29744.8	0.000000	0.000000	6.114742	-0.000906	NaN	0.000000	0.001619	0.001676	28.0835	0.098998	0.002049	48.3142	77.9318	-162.777	0.031734	0.112667	-0.935985	-0.937343	-0.000906	48.3142	-0.935971	-3.110096E+12	2.914060E-16	NaN
1076	1.000000	0.122076	7.37558e+06	-53939.1	1055.82	-29744.8	0.000000	0.000000	6.122792	-0.015374	NaN	0.000000	0.001641	0.001678	28.0831	0.021466	0.002005	10.7046	155.841	-165.046	-0.009805	0.120737	-0.927934	-0.929274	-0.015374	10.7046	-0.926857	-2.343012E+12	6.561474E-15	NaN
1076	1.000000	0.130073	7.37558e+06	-53939.1	1055.82	-29744.8	0.000000	0.000000	6.130791	0.047987	NaN	0.000000	0.001564	0.001678	28.0821	0.024929	0.001901	13.1133	145.876	-168.105	0.020649	0.128761	-0.919937	-0.921249	0.047987	13.1133	-0.922682	-2.057845E+12	-2.331927E-14	NaN
1076	1.000000	0.138051	7.37558e+06	-53939.1	1055.82	-29744.8	0.000000	0.000000	6.138768	0.021223	NaN	0.000000	0.001600	0.001658	28.0826	0.055529	0.001948	28.5077	26.0955	-167.913	-0.033191	0.136784	-0.911959	-0.913226	0.021223	28.5077	-0.912518	-1.500259E+12	-1.414621E-14	NaN
1076	1.000000	0.146079	7.37558e+06	-53939.1	1055.82	-29744.8	0.000000	0.000000	6.146800	0.116148	NaN	0.000000	0.001551	0.001659	28.0821	0.020279	0.002053	9.878982	-165.801	-165.251	0.020423	0.144742	-0.903931	-0.905269	0.116148	9.878982	-0.912749	-1.511097E+12	-7.686315E-14	NaN
1076	1.000000	0.154045	7.37558e+06	-53939.1	1055.82	-29744.8	0.000000	0.000000	6.154760	-0.021405	NaN	0.000000	0.001576	0.001624	28.082	0.073324	0.001976	37.1084	-1.286737	-165.042	0.034205	0.152708	-0.895965	-0.897303	-0.021405	37.1084	-0.895533	-8.844969E+11	2.420020E-14	NaN
1076	1.000000	0.162060	7.37558e+06	-53939.1	1055.82	-29744.8	0.000000	0.000000	6.162778	0.032363	NaN	0.000000	0.001590	0.001641	28.082	0.012593	0.002046	6.156369	-176.089	-163.807	-0.004001	0.160730	-0.887950	-0.889281	0.032363	6.156369	-0.891893	-7.897733E+11	-4.097774E-14	NaN
1076	1.000000	0.170047	7.37558e+06	-53939.1	1055.82	-29744.8	0.000000	0.000000	6.170762	-0.033385	NaN	0.000000	0.001544	0.001631	28.0822	0.137158	0.001971	69.5794	29.7384	-163.609	-0.054944	0.168777	-0.879963	-0.881233	-0.033385	69.5794	-0.879603	-5.386959E+11	6.197292E-14	NaN
1076	1.000000	0.178110	7.37558e+06	-53939.1	1055.82	-29744.8	0.000000	0.000000	6.178825	-0.028388	NaN	0.000000	0.001557	0.001654	28.0822	0.069462	0.002035	34.1375	-37.8738	-160.679	-0.125301	0.176769	-0.871900	-0.873242	-0.028388	34.1375	-0.871277	-4.156396E+11	6.829922E-14	NaN
1076	1.000000	0.186092	7.37558e+06	-53939.1	1055.82	-29744.8	0.000000	0.000000	6.186808	0.003406	NaN	0.000000	0.001542	0.001645	28.0824	0.081423	0.001970	41.3302	-121.194	-161.368	0.056461	0.184741	-0.863918	-0.865269	0.003406	41.3302	-0.863980	-3.311235E+11	-1.028546E-14	NaN
1076	1.000000	0.194115	7.37558e+06	-53939.1	1055.82	-29744.8	0.000000	0.000000	6.194835	0.083305	NaN	0.000000	0.001550	0.001678	28.0825	0.063250	0.001936	32.6764	-164.481	-168.933	0.093670	0.192699	-0.855895	-0.857312	0.083305	32.6764	-0.857807	-2.731759E+11	-3.049492E-13	NaN
1076	1.000000	0.202099	7.37558e+06	-53939.1	1055.82	-29744.8	0.000000	0.000000	6.202815	-0.007406	NaN	0.000000	0.001577	0.001684	28.0822	0.075118	0.001942	38.6759	-86.2999	-167.286	-0.053746	0.200793	-0.847912	-0.849217	-0.007406	38.6759	-0.847768	-1.997625E+11	3.707170E-14	NaN
1076	1.000000	0.210125	7.37558e+06	-53939.1	1055.82	-29744.8	0.000000	0.000000	6.210843	0.036314	NaN	0.000000	0.001548	0.001687	28.0822	0.103494	0.001917	53.9939	-49.6903	-163.531	0.127525	0.208789	-0.839885	-0.841222	0.036314	53.9939	-0.840390	-1.586991E+11	-2.288252E-13	NaN
1076	1.000000	0.218106	7.37558e+06	-53939.1	1055.82	-29744.8	0.000000	0.000000	6.218821	-0.035404	NaN	0.000000	0.001605	0.001698	28.0826	0.030536	0.001964	15.55	-62.3368	-163.827	0.009551	0.216765	-0.831904	-0.833245	-0.035404	15.55	-0.830197	-1.154652E+11	3.066239E-13	NaN
1076	1.000000	0.226114	7.37558e+06	-53939.1	1055.82	-29744.8	0.000000	0.000000	6.226829	-0.032914	NaN	0.000000	0.001570	0.001701	28.0826	0.042127	0.001998	21.0894	-49.1493	-163.874	-0.047017	0.224798	-0.823897	-0.825212	-0.032914	21.0894	-0.822726	-9.144865E+10	3.599216E-13	NaN
1076	1.000000	0.234118	7.37558e+06	-53939.1	1055.82	-29744.8	0.000000	0.000000	6.234836	0.044154	NaN	0.000000	0.001528	0.001707	28.0828	0.085415	0.002008	42.5275	167.043	-164.107	-0.050954	0.232801	-0.815892	-0.817209	0.044154	42.5275	-0.816671	-7.569484E+10	-5.833199E-13	NaN
1076	1.000000	0.242123	7.37558e+06	-53939.1	1055.82	-29744.8	0.000000	0.000000	6.242839	-0.007453	NaN	0.000000	0.001524	0.001689	28.0824	0.051148	0.002010	25.4446	-103.406	-164.674	-0.045524	0.240837	-0.807887	-0.809173	-0.007453	25.4446	-0.807667	-5.713751E+10	1.304446E-13	NaN
1076	1.000000	0.250100	7.37558e+06	-53939.1	1055.82	-29744.8	0.000000	0.000000	6.250818	0.057261	NaN	0.000000	0.001543	0.001680	28.0824	0.115151	0.001970	58.4554	96.3252	-167.608	0.074791	0.248798	-0.799911	-0.801213	0.057261	58.4554	-0.800645	-4.587998E+10	-1.248058E-12	NaN
1076	1.000000	0.258110	7.37558e+06	-53939.1	1055.82	-29744.8	0.000000	0.000000	6.258825	-0.036525	NaN	0.000000	0.001519	0.001648	28.0823	0.062863	0.001954	32.1737	160.156	-169.25	-0.004663	0.256831	-0.791900	-0.793179	-0.036525	32.1737	-0.791049	-3.398794E+10	1.074649E-12	NaN
1076	1.000000	0.266116	7.37558e+06	-53939.1	1055.82	-29744.8	0.000000	0.000000	6.266833	0.023811	NaN	0.000000	0.001519	0.001667	28.0836	0.018613	0.001906	9.766767	-177.449	-167.54	-0.002682	0.264775	-0.783894	-0.785236	0.023811	9.766767	-0.785723	-2.877288E+10	-8.275630E-13	NaN
1076	1.000000	0.274114	7.37558e+06	-53939.1	1055.82	-29744.8	0.000000	0.000000	6.274830	0.015634	NaN	0.000000	0.001548	0.001648	28.0836	0.077467	0.001969	39.3333	-78.4111	-163.89	0.075667	0.272830	-0.775897	-0.777180	0.015634	39.3333	-0.776195	-2.135605E+10	-7.320550E-13	NaN
1076	1.000000	0.282139	7.37558e+06	-53939.1	1055.82	-29744.8	0.000000	0.000000	6.282856	0.011352	NaN	0.000000	0.001573	0.001664	28.0838	0.029501	0.001980	14.9006	-62.4475	-165.424	0.013410	0.280854	-0.767871	-0.769156	0.011352	14.9006	-0.768443	-1.675448E+10	-6.775751E-13	NaN
1076	1.000000	0.290096	7.37558e+06	-53939.1	1055.82	-29744.8	0.000000	0.000000	6.290810	-0.047828	NaN	0.000000	0.001570	0.001674	28.0837	0.082584	0.001991	41.475	-124.787	-167.598	-0.045421	0.288780	-0.759914	-0.761231	-0.047828	41.475	-0.759050	-1.248452E+10	3.830975E-12	NaN
1076	1.000000	0.298114	7.37558e+06	-53939.1	1055.82	-29744.8	0.000000	0.000000	6.298831	0.023049	NaN	0.000000	0.001544	0.001669	28.0836	0.049942	0.002122	23.5339	-170.577	-167.392	-0.024806	0.296810	-0.751897	-0.753201	0.023049	23.5339	-0.752631	-1.021024E+10	-2.257476E-12	NaN
1076	1.000000	0.306122	7.37558e+06	-53939.1	1055.82	-29744.8	0.000000	0.000000	6.306839	0.028886	NaN	0.000000	0.001566	0.001652	28.0838	0.097171	0.001926	50.4432	137.919	-165.231	-0.010409	0.304834	-0.743889	-0.745176	0.028886	50.4432	-0.744318	-7.867999E+9	-3.671329E-12	NaN
1076	1.000000	0.314145	7.37558e+06	-53939.1	1055.82	-29744.8	0.000000	0.000000	6.314859	-0.053305	NaN	0.000000	0.001543	0.001632	28.0837	0.032312	0.002059	15.6958	153.293	-164.544	0.033429	0.312873	-0.735866	-0.737137	-0.053305	15.6958	-0.733319	-5.572300E+9	9.566016E-12	NaN
1076	1.000000	0.322141	7.37558e+06	-53939.1	1055.82	-29744.8	0.000000	0.000000	6.322859	0.042611	NaN	0.000000	0.001540	0.001627	28.0839	0.113176	0.002035	55.6138	-126.51	-164.315	-0.001445	0.320856	-0.727870	-0.729154	0.042611	55.6138	-0.728444	-4.781932E+9	-8.910805E-12	NaN
1076	1.000000	0.330138	7.37558e+06	-53939.1	1055.82	-29744.8	0.000000	0.000000	6.330851	-0.060138	NaN	0.000000	0.001527	0.001652	28.0841	0.045261	0.001948	23.2312	-65.2091	-161.773	0.060438	0.328854	-0.719873	-0.721157	-0.060138	23.2312	-0.717931	-3.437609E+9	1.749402E-11	NaN
1076	1.000000	0.338151	7.37558e+06	-53939.1	1055.82	-29744.8	0.000000	0.000000	6.338864	-0.088046	NaN	0.000000	0.001501	0.001638	28.0838	0.084068	0.001929	43.5907	-110.035	-164.105	-0.032705	0.336850	-0.711859	-0.713161	-0.088046	43.5907	-0.710344	-2.708606E+9	3.250587E-11	NaN
1076	1.000000	0.346141	7.37558e+06	-53939.1	1055.82	-29744.8	0.000000	0.000000	6.346858	0.025782	NaN	0.000000	0.001522	0.001637	28.0838	0.054789	0.002046	26.7726	177.747	-165.637	-0.005754	0.344879	-0.703869	-0.705132	0.025782	26.7726	-0.704592	-2.260616E+9	-1.140495E-11	NaN
1076	1.000000	0.354152	7.37558e+06	-53939.1	1055.82	-29744.8	0.000000	0.000000	6.354869	0.017152	NaN	0.000000	0.001545	0.001650	28.0838	0.102909	0.002004	51.3433	162.533	-165.804	0.020607	0.352874	-0.695859	-0.697136	0.017152	51.3433	-0.696109	-1.731364E+9	-9.906759E-12	NaN
1076	1.000000	0.362132	7.37558e+06	-53939.1	1055.82	-29744.8	0.000000	0.000000	6.362849	0.022906	NaN	0.000000	0.001510	0.001630	28.084	0.025266	0.002120	11.9161	128.812	-167.243	-0.018196	0.360903	-0.687878	-0.689108	0.022906	11.9161	-0.689320	-1.398378E+9	-1.638076E-11	NaN
1076	1.000000	0.370173	7.37558e+06	-53939.1	1055.82	-29744.8	0.000000	0.000000	6.370889	0.003787	NaN	0.000000	0.001495	0.001653	28.084	0.116840	0.001998	58.4812	16.9295	-164.89	0.038937	0.368871	-0.679837	-0.681140	0.003787	58.4812	-0.679886	-1.039072E+9	-3.644590E-12	NaN
1076	1.000000	0.378133	7.37558e+06	-53939.1	1055.82	-29744.8	0.000000	0.000000	6.378848	-0.009727	NaN	0.000000	0.001495	0.001623	28.0838	0.039213	0.002164	18.1173	120.305	-167.225	0.024621	0.376813	-0.671878	-0.673197	-0.009727	18.1173	-0.671475	-7.972194E+8	1.220136E-11	NaN
1076	1.000000	0.386152	7.37558e+06	-53939.1	1055.82	-29744.8	0.000000	0.000000	6.386872	0.074693	NaN	0.000000	0.001511	0.001633	28.0839	0.103357	0.001988	51.9811	-25.5536	-165.046	0.001910	0.384833	-0.663858	-0.665178	0.074693	51.9811	-0.664936	-6.487314E+8	-1.151364E-10	NaN
1076	1.000000	0.394194	7.37558e+06	-53939.1	1055.82	-29744.8	0.000000	0.000000	6.394910	-0.000445	NaN	0.000000	0.001549	0.001643	28.0838	0.075574	0.001800	41.9825	74.3188	-165.478	-0.001441	0.392915	-0.655817	-0.657096	-0.000445	41.9825	-0.655809	-4.864606E+8	9.157484E-13	NaN
1076	1.000000	0.402194	7.37558e+06	-53939.1	1055.82	-29744.8	0.000000	0.000000	6.402909	-0.040614	NaN	0.000000	0.001556	0.001641	28.0829	0.007857	0.002010	3.908148	-38.4725	-164.215	-0.080167	0.400853	-0.647816	-0.649158	-0.040614	3.908148	-0.640022	-2.955218E+8	1.374316E-10	NaN
1076	1.000000	0.410168	7.37558e+06	-53939.1	1055.82	-29744.8	0.000000	0.000000	6.410885	0.019950	NaN	0.000000	0.001573	0.001663	28.0827	0.072119	0.001962	36.7503	129.776	-164.64	0.024991	0.408856	-0.639843	-0.641155	0.019950	36.7503	-0.640250	-2.976591E+8	-6.702395E-11	NaN
1076	1.000000	0.418175	7.37558e+06	-53939.1	1055.82	-29744.8	0.000000	0.000000	6.418892	0.011226	NaN	0.000000	0.001560	0.001643	28.0829	0.027817	0.002088	13.3215	-82.6586	-165.016	-0.039868	0.416855	-0.631835	-0.633155	0.011226	13.3215	-0.632467	-2.327572E+8	-4.822856E-11	NaN
1076	1.000000	0.426219	7.37558e+06	-53939.1	1055.82	-29744.8	0.000000	0.000000	6.426936	0.022967	NaN	0.000000	0.001593	0.001658	28.0828	0.015111	0.001844	8.194974	-144.542	-165.469	0.019750	0.424884	-0.623791	-0.625127	0.022967	8.194974	-0.625893	-1.890679E+8	-1.214751E-10	NaN
1076	1.000000	0.434196	7.37558e+06	-53939.1	1055.82	-29744.8	0.000000	0.000000	6.434913	0.027242	NaN	0.000000	0.001590	0.001623	28.0826	0.069562	0.001945	35.7719	76.302	-163.703	-0.045404	0.432891	-0.615814	-0.617120	0.027242	35.7719	-0.616385	-1.399396E+8	-1.946684E-10	NaN
1076	1.000000	0.442192	7.37558e+06	-53939.1	1055.82	-29744.8	0.000000	0.000000	6.442905	-0.072453	NaN	0.000000	0.001627	0.001681	28.0826	0.050378	0.002091	24.094	-100.774	-166.112	-0.057388	0.440892	-0.607819	-0.609119	-0.072453	24.094	-0.605563	-9.932534E+7	7.294523E-10	NaN
1076	1.000000	0.450193	7.37558e+06	-53939.1	1055.82	-29744.8	0.000000	0.000000	6.450909	0.001554	NaN	0.000000	0.001588	0.001687	28.0826	0.085023	0.001944	43.7417	169.164	-166.737	0.045118	0.448863	-0.599818	-0.601148	0.001554	43.7417	-0.599844	-8.285466E+7	-1.875426E-11	NaN
1076	1.000000	0.458202	7.37558e+06	-53939.1	1055.82	-29744.8	0.000000	0.000000	6.458921	0.069609	NaN	0.000000	0.001579	0.001657	28.0826	0.081978	0.001992	41.1447	-3.226181	-164.282	0.134231	0.456925	-0.591809	-0.593085	0.069609	41.1447	-0.593078	-6.684818E+7	-1.041295E-9	NaN
1076	1.000000	0.466203	7.37558e+06	-53939.1	1055.82	-29744.8	0.000000	0.000000	6.466919	-0.000621	NaN	0.000000	0.001565	0.001741	28.0828	0.076169	0.002018	37.7388	-108.293	-165.026	-0.102010	0.464901	-0.583808	-0.585110	-0.000621	37.7388	-0.583795	-4.978453E+7	1.247592E-11	NaN
1076	1.000000	0.474200	7.37558e+06	-53939.1	1055.82	-29744.8	0.000000	0.000000	6.474917	0.025391	NaN	0.000000	0.001601	0.001618	28.0826	0.096419	0.001908	50.5439	-166.606	-163.913	0.007542	0.472897	-0.575811	-0.577113	0.025391	50.5439	-0.576188	-3.909295E+7	-6.495145E-10	NaN
1076	1.000000	0.482221	7.37558e+06	-53939.1	1055.82	-29744.8	0.000000	0.000000	6.482938	0.022464	NaN	0.000000	0.001640	0.001593	28.0829	0.127126	0.002012	63.1937	-178.82	-167.568	-0.051104	0.480944	-0.567790	-0.569066	0.022464	63.1937	-0.568056	-3.018365E+7	-7.442332E-10	NaN
1076	1.000000	0.490222	7.37558e+06	-53939.1	1055.82	-29744.8	0.000000	0.000000	6.490939	0.019132	NaN	0.000000	0.001611	0.001631	28.0826	0.018675	0.002109	8.856769	-171.417	-165.003	-0.009681	0.488902	-0.559789	-0.561109	0.019132	8.856769	-0.561409	-2.442674E+7	-7.832557E-10	NaN
1076	1.000000	0.498208	7.37558e+06	-53939.1	1055.82	-29744.8	0.000000	0.000000	6.498924	-0.007201	NaN	0.000000	0.001623	0.001591	28.0827	0.096919	0.002073	46.7638	123.095	-165.732	-0.042059	0.496972	-0.551802	-0.553038	-0.007201	46.7638	-0.551687	-1.791904E+7	4.018821E-10	NaN
1076	1.000000	0.506249	7.37558e+06	-53939.1	1055.82	-29744.8	0.000000	0.000000	6.506967	0.038278	NaN	0.000000	0.001639	0.001589	28.0828	0.046177	0.002000	23.0893	91.2326	-165.603	0.011667	0.504919	-0.543761	-0.545091	0.038278	23.0893	-0.545004	-1.447909E+7	-2.643678E-9	NaN
1076	1.000000	0.514257	7.37558e+06	-53939.1	1055.82	-29744.8	0.000000	0.000000	6.514971	-0.047395	NaN	0.000000	0.001604	0.001586	28.0829	0.077822	0.001902	40.9263	-36.2033	-164.036	0.041870	0.512929	-0.535754	-0.537082	-0.047395	40.9263	-0.534885	-1.048092E+7	4.521985E-9	NaN
1076	1.000000	0.522232	7.37558e+06	-53939.1	1055.82	-29744.8	0.000000	0.000000	6.522947	-0.040033	NaN	0.000000	0.001556	0.001590	28.0831	0.061572	0.002082	29.5758	-24.1787	-166.172	0.038730	0.520957	-0.527778	-0.529054	-0.040033	29.5758	-0.526763	-8.08371e+06	4.952247E-9	NaN
1076	1.000000	0.530212	7.37558e+06	-53939.1	1055.82	-29744.8	0.000000	0.000000	6.530928	-0.003683	NaN	0.000000	0.001611	0.001598	28.0827	0.095520	0.001914	49.9032	83.4176	-163.809	0.034410	0.528955	-0.519798	-0.521056	-0.003683	49.9032	-0.519743	-6.45688e+06	5.704652E-10	NaN
1076	1.000000	0.538227	7.37558e+06	-53939.1	1055.82	-29744.8	0.000000	0.000000	6.538942	-0.046866	NaN	0.000000	0.001621	0.001617	28.084	0.084174	0.001855	45.3744	88.5524	-162.306	0.006461	0.536953	-0.511783	-0.513058	-0.046866	45.3744	-0.511008	-4.88044e+06	9.602830E-9	NaN
1076	1.000000	0.546265	7.37558e+06	-53939.1	1055.82	-29744.8	0.000000	0.000000	6.546983	0.041518	NaN	0.000000	0.001595	0.001576	28.084	0.011616	0.002048	5.672332	-119.079	-161.361	0.054884	0.544968	-0.503746	-0.505043	0.041518	5.672332	-0.509235	-4.61065e+06	-9.004861E-9	NaN
1076	1.000000	0.554275	7.37558e+06	-53939.1	1055.82	-29744.8	0.000000	0.000000	6.554993	0.039055	NaN	0.000000	0.001580	0.001569	28.0842	0.052863	0.001939	27.2662	-63.028	-162.525	0.015893	0.552929	-0.495736	-0.497081	0.039055	27.2662	-0.496810	-3.09387e+06	-1.262346E-8	NaN
1076	1.000000	0.562238	7.37558e+06	-53939.1	1055.82	-29744.8	0.000000	0.000000	6.562955	0.022885	NaN	0.000000	0.001594	0.001610	28.0843	0.163263	0.002051	79.6082	-136.27	-165.136	0.051583	0.560959	-0.487773	-0.489051	0.022885	79.6082	-0.487988	-2.32957e+06	-9.823807E-9	NaN
1076	1.000000	0.570236	7.37558e+06	-53939.1	1055.82	-29744.8	0.000000	0.000000	6.570950	-0.031785	NaN	0.000000	0.001611	0.001539	28.0841	0.052044	0.002053	25.3527	11.1964	-166.224	-0.054700	0.568935	-0.479775	-0.481076	-0.031785	25.3527	-0.478835	-1.73465e+06	1.832380E-8	NaN
1076	1.000000	0.578264	7.37558e+06	-53939.1	1055.82	-29744.8	0.000000	0.000000	6.578975	-0.125686	NaN	0.000000	0.001605	0.001589	28.0842	0.082848	0.001897	43.6721	55.1365	-166.085	-0.121253	0.576962	-0.471746	-0.473048	-0.125686	43.6721	-0.469588	-1.28715e+06	9.764654E-8	NaN
1076	1.000000	0.586243	7.37558e+06	-53939.1	1055.82	-29744.8	0.000000	0.000000	6.586961	0.042568	NaN	0.000000	0.001599	0.001592	28.0842	0.049989	0.001914	26.121	23.0941	-163.486	-0.048976	0.584949	-0.463767	-0.465061	0.042568	26.121	-0.464989	-1.10943e+06	-3.836913E-8	NaN
1076	1.000000	0.594265	7.37558e+06	-53939.1	1055.82	-29744.8	0.000000	0.000000	6.594982	0.017878	NaN	0.000000	0.001579	0.001594	28.0841	0.081194	0.001969	41.2397	129.787	-166.684	0.008893	0.592997	-0.455745	-0.457013	0.017878	41.2397	-0.456070	-831331	-2.150506E-8	NaN
1076	1.000000	0.602275	7.37558e+06	-53939.1	1055.82	-29744.8	0.000000	0.000000	6.602989	-0.043694	NaN	0.000000	0.001544	0.001587	28.084	0.149849	0.001971	76.023	115.671	-165.188	-0.061374	0.600958	-0.447735	-0.449053	-0.043694	76.023	-0.447304	-625707	6.983179E-8	NaN
1076	1.000000	0.610286	7.37558e+06	-53939.1	1055.82	-29744.8	0.000000	0.000000	6.611002	-0.003700	NaN	0.000000	0.001579	0.001583	28.0841	0.064325	0.001914	33.6116	122.527	-166.04	0.004310	0.608974	-0.439725	-0.441036	-0.003700	33.6116	-0.439642	-487882	7.582976E-9	NaN
1076	1.000000	0.618260	7.37558e+06	-53939.1	1055.82	-29744.8	0.000000	0.000000	6.618977	0.015846	NaN	0.000000	0.001553	0.001609	28.084	0.016796	0.002064	8.139033	-56.6316	-170.888	-0.022293	0.616942	-0.431750	-0.433069	0.015846	8.139033	-0.433210	-395784	-4.003574E-8	NaN
1076	1.000000	0.626263	7.37558e+06	-53939.1	1055.82	-29744.8	0.000000	0.000000	6.626980	0.020092	NaN	0.000000	0.001576	0.001581	28.0838	0.090595	0.001934	46.8346	-160.841	-167.682	0.085375	0.625004	-0.423747	-0.425006	0.020092	46.8346	-0.424069	-293829	-6.837977E-8	NaN
1076	1.000000	0.634266	7.37558e+06	-53939.1	1055.82	-29744.8	0.000000	0.000000	6.634979	-0.064535	NaN	0.000000	0.001607	0.001634	28.0841	0.031771	0.002008	15.8213	-29.2558	-165.642	-0.096418	0.632964	-0.415745	-0.417046	-0.064535	15.8213	-0.412685	-202570	3.185817E-7	NaN
1076	1.000000	0.642309	7.37558e+06	-53939.1	1055.82	-29744.8	0.000000	0.000000	6.643024	-0.034094	NaN	0.000000	0.001554	0.001630	28.0838	0.013696	0.001894	7.230945	-179.995	-167.463	-0.009604	0.640925	-0.407701	-0.409086	-0.034094	7.230945	-0.404165	-153233	2.224998E-7	NaN
1076	1.000000	0.650286	7.37558e+06	-53939.1	1055.82	-29744.8	0.000000	0.000000	6.651000	-0.033195	NaN	0.000000	0.001581	0.001616	28.0843	0.026664	0.001950	13.6729	-12.6979	-164.01	0.045313	0.649014	-0.399725	-0.400996	-0.033195	13.6729	-0.397904	-124765	2.660627E-7	NaN
1076	1.000000	0.658311	7.37558e+06	-53939.1	1055.82	-29744.8	0.000000	0.000000	6.659028	0.016135	NaN	0.000000	0.001554	0.001576	28.0841	0.045930	0.002075	22.1342	151.847	-165.329	0.040206	0.657008	-0.391699	-0.393003	0.016135	22.1342	-0.392246	-103581	-1.557746E-7	NaN
1076	1.000000	0.666270	7.37558e+06	-53939.1	1055.82	-29744.8	0.000000	0.000000	6.666987	0.021140	NaN	0.000000	0.001584	0.001589	28.084	0.007807	0.002155	3.623175	-103.851	-164.027	-0.032676	0.664997	-0.383741	-0.385014	0.021140	3.623175	-0.388117	-90410.6	-2.338263E-7	NaN
1076	1.000000	0.674305	7.37558e+06	-53939.1	1055.82	-29744.8	0.000000	0.000000	6.675023	0.030599	NaN	0.000000	0.001602	0.001594	28.083	0.058682	0.002029	28.9211	133.306	-167.448	-0.003298	0.672962	-0.375705	-0.377049	0.030599	28.9211	-0.376499	-61604.2	-4.966987E-7	NaN
1076	1.000000	0.682284	7.37558e+06	-53939.1	1055.82	-29744.8	0.000000	0.000000	6.682999	-0.036998	NaN	0.000000	0.001571	0.001578	28.0829	0.118140	0.001921	61.4984	-21.7027	-162.412	-0.015896	0.681019	-0.367726	-0.368992	-0.036998	61.4984	-0.367275	-45380.2	8.152878E-7	NaN
1076	1.000000	0.690321	7.37558e+06	-53939.1	1055.82	-29744.8	0.000000	0.000000	6.691034	-0.079194	NaN	0.000000	0.001533	0.001609	28.0829	0.020443	0.002073	9.864020	-21.6142	-162.139	-0.002915	0.688968	-0.359689	-0.361043	-0.079194	9.864020	-0.353668	-28853.2	2.744708E-6	NaN
1076	1.000000	0.698305	7.37558e+06	-53939.1	1055.82	-29744.8	0.000000	0.000000	6.699020	-0.028644	NaN	0.000000	0.001560	0.001614	28.0829	0.059061	0.001946	30.3541	-105.792	-164.759	-0.010425	0.696991	-0.351706	-0.353019	-0.028644	30.3541	-0.350998	-26392.7	1.085295E-6	NaN
1076	1.000000	0.706329	7.37558e+06	-53939.1	1055.82	-29744.8	0.000000	0.000000	6.707045	-0.001715	NaN	0.000000	0.001561	0.001624	28.083	0.054126	0.002046	26.45	-21.9431	-163.872	-0.051770	0.705034	-0.343681	-0.344977	-0.001715	26.45	-0.343633	-20628.4	8.313958E-8	NaN
1076	1.000000	0.714294	7.37558e+06	-53939.1	1055.82	-29744.8	0.000000	0.000000	6.715009	-0.027476	NaN	0.000000	0.001524	0.001618	28.0831	0.018277	0.001916	9.539244	98.6095	-166.409	-0.045672	0.713020	-0.335717	-0.336991	-0.027476	9.539244	-0.333557	-14705.9	1.868360E-6	NaN
1076	1.000000	0.722304	7.37558e+06	-53939.1	1055.82	-29744.9	0.000000	0.000000	6.723019	-0.035742	NaN	0.000000	0.001544	0.001612	28.0829	0.020311	0.002059	9.866245	12.5646	-165.141	0.020129	0.721026	-0.327706	-0.328985	-0.035742	9.866245	-0.324989	-11014.8	3.244939E-6	NaN
1076	1.000000	0.730282	7.37558e+06	-53939.1	1055.82	-29744.8	0.000000	0.000000	6.730999	0.003609	NaN	0.000000	0.001532	0.001583	28.083	0.094407	0.002003	47.1417	-81.3022	-165.365	-0.027464	0.729043	-0.319728	-0.320967	0.003609	47.1417	-0.319786	-9235.98	-3.907456E-7	NaN
1076	1.000000	0.738339	7.37558e+06	-53939.1	1055.82	-29744.8	0.000000	0.000000	6.739052	-0.069539	NaN	0.000000	0.001552	0.001617	28.0827	0.084940	0.002035	41.7337	37.1273	-161.8	-0.068382	0.737061	-0.311672	-0.312949	-0.069539	41.7337	-0.310422	-6718.92	1.034978E-5	NaN
1076	1.000000	0.746320	7.37558e+06	-53939.1	1055.82	-29744.8	0.000000	0.000000	6.747036	-0.015887	NaN	0.000000	0.001592	0.001658	28.0828	0.112540	0.002108	53.3927	-63.8647	-165.621	-0.003928	0.745057	-0.303690	-0.304954	-0.015887	53.3927	-0.303467	-5298.96	2.998122E-6	NaN
1076	1.000000	0.754340	7.37558e+06	-53939.1	1055.82	-29744.9	0.000000	0.000000	6.755055	-0.040852	NaN	0.000000	0.001589	0.001594	28.0828	0.062877	0.002144	29.3305	-28.67	-165.379	-0.052297	0.753036	-0.295670	-0.296974	-0.040852	29.3305	-0.294625	-3912.85	1.044057E-5	NaN
1076	1.000000	0.762351	7.37558e+06	-53939.1	1055.82	-29744.8	0.000000	0.000000	6.763065	-0.052803	NaN	0.000000	0.001580	0.001593	28.0826	0.024979	0.001920	13.0087	56.6218	-163.281	-0.044621	0.760998	-0.287659	-0.289013	-0.052803	13.0087	-0.284615	-2769.99	1.906254E-5	NaN
1076	1.000000	0.770322	7.37558e+06	-53939.1	1055.82	-29744.9	0.000000	0.000000	6.771035	-0.077190	NaN	0.000000	0.001563	0.001618	28.083	0.162126	0.002057	78.8337	165.357	-168.059	-0.089177	0.769016	-0.279688	-0.280994	-0.077190	78.8337	-0.278954	-2276.07	3.391367E-5	NaN
1076	1.000000	0.778311	7.37558e+06	-53939.1	1055.82	-29744.8	0.000000	0.000000	6.779026	-0.011089	NaN	0.000000	0.001554	0.001627	28.0829	0.098153	0.002076	47.2806	122.707	-164.653	-0.050106	0.777067	-0.271700	-0.272943	-0.011089	47.2806	-0.271524	-1756.68	6.312597E-6	NaN
1076	1.000000	0.786341	7.37558e+06	-53939.1	1055.82	-29744.8	0.000000	0.000000	6.787058	0.016666	NaN	0.000000	0.001601	0.001600	28.0831	0.058308	0.001971	29.576	-31.2594	-163.292	-0.013567	0.785011	-0.263669	-0.264999	0.016666	29.576	-0.264092	-1353.69	-1.231150E-5	NaN
1076	1.000000	0.794342	7.37558e+06	-53939.1	1055.82	-29744.8	0.000000	0.000000	6.795057	-0.041885	NaN	0.000000	0.001584	0.001592	28.0829	0.069189	0.002064	33.5244	19.4353	-165.572	-0.041137	0.793023	-0.255668	-0.256988	-0.041885	33.5244	-0.254731	-972.69	4.306101E-5	NaN
1076	1.000000	0.802321	7.37558e+06	-53939.1	1055.82	-29744.9	0.000000	0.000000	6.803039	0.030398	NaN	0.000000	0.001601	0.001603	28.0829	0.012933	0.001827	7.080647	2.113398	-166.814	0.022801	0.801038	-0.247689	-0.248973	0.030398	7.080647	-0.250909	-849.215	-3.579531E-5	NaN
1076	1.000000	0.810349	7.37558e+06	-53939.1	1055.82	-29744.9	0.000000	0.000000	6.811065	-0.012071	NaN	0.000000	0.001603	0.001603	28.0844	0.074830	0.001928	38.8195	-17.0962	-162.753	-0.019393	0.809034	-0.239661	-0.240976	-0.012071	38.8195	-0.239428	-563.138	2.143552E-5	NaN
1076	1.000000	0.818354	7.37558e+06	-53939.1	1055.82	-29744.9	0.000000	0.000000	6.819069	-0.022106	NaN	0.000000	0.001618	0.001607	28.0844	0.093755	0.002021	46.3971	-97.6392	-161.749	0.034871	0.817062	-0.231656	-0.232949	-0.022106	46.3971	-0.231299	-419.772	5.266161E-5	NaN
1076	1.000000	0.826362	7.37558e+06	-53939.1	1055.82	-29744.9	0.000000	0.000000	6.827081	0.072167	NaN	0.000000	0.001585	0.001617	28.0842	0.078272	0.001940	40.3414	100.773	-169.851	-0.012432	0.825078	-0.223648	-0.224932	0.072167	40.3414	-0.224990	-333.559	-0.000216	NaN
1076	1.000000	0.834321	7.37558e+06	-53939.1	1055.82	-29744.9	0.000000	0.000000	6.835039	0.026646	NaN	0.000000	0.001590	0.001589	28.0841	0.116293	0.002026	57.3896	129.055	-162.96	0.057439	0.833079	-0.215689	-0.216931	0.026646	57.3896	-0.216037	-239.986	-0.000111	NaN
1076	1.000000	0.842373	7.37558e+06	-53939.1	1055.82	-29744.9	0.000000	0.000000	6.843089	-0.018018	NaN	0.000000	0.001575	0.001617	28.0842	0.095276	0.002032	46.8853	133.467	-165.757	-0.000522	0.841069	-0.207637	-0.208941	-0.018018	46.8853	-0.207349	-173.703	0.000104	NaN
1076	1.000000	0.850344	7.37558e+06	-53939.1	1055.82	-29744.9	0.000000	0.000000	6.851061	0.011011	NaN	0.000000	0.001585	0.001611	28.0841	0.070064	0.001944	36.0486	-81.1921	-164.254	-0.016150	0.849101	-0.199666	-0.200909	0.011011	36.0486	-0.199896	-131.215	-8.391666E-5	NaN
1076	1.000000	0.858340	7.37558e+06	-53939.1	1055.82	-29744.9	0.000000	0.000000	6.859057	0.040933	NaN	0.000000	0.001558	0.001657	28.0841	0.042139	0.001912	22.0348	146.02	-163.686	0.074878	0.857061	-0.191671	-0.192949	0.040933	22.0348	-0.193064	-101.177	-0.000405	NaN
1076	1.000000	0.866373	7.37558e+06	-53939.1	1055.82	-29744.9	0.000000	0.000000	6.867091	0.045235	NaN	0.000000	0.001582	0.001615	28.0842	0.044468	0.002092	21.2595	-1.170865	-165.137	0.013531	0.865048	-0.183638	-0.184963	0.045235	21.2595	-0.185233	-74.8281	-0.000605	NaN
1076	1.000000	0.874383	7.37558e+06	-53939.1	1055.82	-29744.9	0.000000	0.000000	6.875098	-0.034879	NaN	0.000000	0.001570	0.001622	28.0842	0.081478	0.002016	40.4106	-102.619	-164.049	-0.036592	0.873085	-0.175627	-0.176926	-0.034879	40.4106	-0.174980	-50.0771	0.000697	NaN
1076	1.000000	0.882389	7.37558e+06	-53939.1	1055.82	-29744.9	0.000000	0.000000	6.883109	0.102489	NaN	0.000000	0.001573	0.001586	28.0843	0.098994	0.001895	52.2452	9.846356	-163.238	0.070516	0.881061	-0.167622	-0.168949	0.102489	52.2452	-0.169093	-39.6139	-0.002587	NaN
1076	1.000000	0.890377	7.37558e+06	-53939.1	1055.82	-29744.9	0.000000	0.000000	6.891094	0.026413	NaN	0.000000	0.001601	0.001543	28.0839	0.094408	0.002129	44.3347	-52.5952	-165.956	0.026106	0.889052	-0.159633	-0.160958	0.026413	44.3347	-0.160080	-27.5051	-0.000960	NaN
1076	1.000000	0.898395	7.37558e+06	-53939.1	1055.82	-29744.9	0.000000	0.000000	6.899113	0.031365	NaN	0.000000	0.001648	0.001564	28.0839	0.125696	0.001931	65.0946	-91.651	-165.985	-0.053925	0.897061	-0.151615	-0.152949	0.031365	65.0946	-0.151976	-19.6767	-0.001594	NaN
1076	1.000000	0.906401	7.37558e+06	-53939.1	1055.82	-29744.9	0.000000	0.000000	6.907120	0.064485	NaN	0.000000	0.001627	0.001581	28.084	0.094048	0.002043	46.0245	73.0665	-168.355	0.081076	0.905087	-0.143610	-0.144924	0.064485	46.0245	-0.144660	-14.4505	-0.004462	NaN
1076	1.000000	0.914369	7.37558e+06	-53939.1	1055.82	-29744.9	0.000000	0.000000	6.915084	-0.040473	NaN	0.000000	0.001576	0.001563	28.0839	0.066084	0.001976	33.4464	-148.904	-166.282	-0.049835	0.913066	-0.135641	-0.136944	-0.040473	33.4464	-0.134734	-9.401667	0.004305	NaN
1076	1.000000	0.922432	7.37558e+06	-53939.1	1055.82	-29744.9	0.000000	0.000000	6.923152	0.082244	NaN	0.000000	0.001604	0.001567	28.0841	0.094195	0.002070	45.496	77.3382	-166.301	0.093960	0.921129	-0.127578	-0.128881	0.082244	45.496	-0.128934	-7.265420	-0.011320	NaN
1076	1.000000	0.930403	7.37558e+06	-53939.1	1055.82	-29744.9	0.000000	0.000000	6.931119	0.003550	NaN	0.000000	0.001576	0.001594	28.0839	0.057415	0.002128	26.9848	-107.793	-166.021	0.034656	0.929133	-0.119607	-0.120877	0.003550	26.9848	-0.119706	-4.765902	-0.000745	NaN
1076	1.000000	0.938377	7.37558e+06	-53939.1	1055.82	-29744.9	0.000000	0.000000	6.939091	-0.049711	NaN	0.000000	0.001578	0.001584	28.0843	0.037705	0.002023	18.6396	-76.7533	-165.813	0.009736	0.937061	-0.111633	-0.112949	-0.049711	18.6396	-0.109633	-2.952089	0.016839	NaN
1076	1.000000	0.946424	7.37558e+06	-53939.1	1055.82	-29744.9	0.000000	0.000000	6.947138	-0.048731	NaN	0.000000	0.001614	0.001559	28.0829	0.122983	0.002034	60.4635	73.0208	-165.621	-0.006659	0.945091	-0.103586	-0.104919	-0.048731	60.4635	-0.102982	-2.124986	0.022932	NaN
1076	1.000000	0.954435	7.37558e+06	-53939.1	1055.82	-29744.9	0.000000	0.000000	6.955151	0.012156	NaN	0.000000	0.001568	0.001557	28.0827	0.047810	0.001953	24.4804	-159.73	-169.041	-0.014288	0.953092	-0.095576	-0.096918	0.012156	24.4804	-0.095948	-1.482392	-0.008201	NaN
1076	1.000000	0.962407	7.37558e+06	-53939.1	1055.82	-29744.9	0.000000	0.000000	6.963123	0.008595	NaN	0.000000	0.001641	0.001583	28.0829	0.122856	0.001962	62.6132	-103.51	-162.663	-0.079379	0.961142	-0.087604	-0.088868	0.008595	62.6132	-0.087707	-0.954174	-0.009008	NaN
1076	1.000000	0.970416	7.37558e+06	-53939.1	1055.82	-29744.9	0.000000	0.000000	6.971132	0.000418	NaN	0.000000	0.001593	0.001569	28.0824	0.082313	0.002149	38.3098	-41.6107	-163.374	-0.043302	0.969158	-0.079595	-0.080853	0.000418	38.3098	-0.079603	-0.604988	-0.000690	NaN
1076	1.000000	0.978410	7.37558e+06	-53939.1	1055.82	-29744.9	0.000000	0.000000	6.979123	-0.060401	NaN	0.000000	0.001593	0.001614	28.0827	0.020120	0.001960	10.2628	-85.4411	-168.669	-0.002169	0.977114	-0.071601	-0.072896	-0.060401	10.2628	-0.067187	-0.286272	0.210992	NaN
1076	1.000000	0.986447	7.37558e+06	-53939.1	1055.82	-29744.9	0.000000	0.000000	6.987164	0.022110	NaN	0.000000	0.001577	0.001617	28.0826	0.066368	0.002067	32.1133	129.034	-164.417	0.011771	0.985095	-0.063564	-0.064915	0.022110	32.1133	-0.064080	-0.234954	-0.094105	NaN
1076	1.000000	0.994423	7.37558e+06	-53939.1	1055.82	-29744.9	0.000000	0.000000	6.995139	0.007801	NaN	0.000000	0.001600	0.001616	28.0825	0.118049	0.001977	59.7198	-5.329301	-166.201	-0.064514	0.993164	-0.055588	-0.056847	0.007801	59.7198	-0.055686	-0.134917	-0.057823	NaN
1076	1.000000	1.002444	7.37558e+06	-53939.1	1055.82	-29744.9	0.000000	0.000000	7.003158	-0.040464	NaN	0.000000	0.001606	0.001584	28.0828	0.024608	0.002022	12.1719	-150.54	-164.877	-0.014135	1.001118	-0.047567	-0.048892	-0.040464	12.1719	-0.045073	-0.064601	0.626362	NaN
1076	1.000000	1.010430	7.37558e+06	-53939.1	1055.82	-29744.9	0.000000	0.000000	7.011146	-0.016300	NaN	0.000000	0.001583	0.001593	28.0826	0.067000	0.002012	33.2963	138.871	-167.036	-0.043985	1.009140	-0.039580	-0.040870	-0.016300	33.2963	-0.039213	-0.042803	0.380805	NaN
1076	1.000000	1.018433	7.37558e+06	-53939.1	1055.82	-29744.9	0.000000	0.000000	7.019147	-0.042044	NaN	0.000000	0.001597	0.001580	28.0828	0.049223	0.002067	23.8112	-87.0068	-165.672	0.032566	1.017167	-0.031578	-0.032844	-0.042044	23.8112	-0.030253	-0.023390	1.797479	NaN
1076	1.000000	1.026441	7.37558e+06	-53939.1	1055.82	-29744.9	0.000000	0.000000	7.027156	-0.023649	NaN	0.000000	0.001558	0.001628	28.0827	0.072273	0.001963	36.8177	78.0375	-167.193	-0.051847	1.025080	-0.023570	-0.024930	-0.023649	36.8177	-0.023088	-0.015054	1.570914	NaN
1076	1.000000	1.034426	7.37558e+06	-53939.1	1055.82	-29744.9	0.000000	0.000000	7.035141	-0.023663	NaN	0.000000	0.001579	0.001625	28.0826	0.119129	0.001938	61.4802	124.922	-167.243	-0.107273	1.033131	-0.015584	-0.016879	-0.023663	61.4802	-0.015296	-0.009453	2.503151	NaN
1076	1.000000	1.042448	7.37558e+06	-53939.1	1055.82	-29744.9	0.000000	0.000000	7.043163	-0.035070	NaN	0.000000	0.001566	0.001631	28.0823	0.044584	0.002080	21.4297	131.849	-164.085	-0.037157	1.041159	-0.007562	-0.008852	-0.035070	21.4297	-0.006335	-0.004240	8.271184	NaN
1076	1.000000	1.050455	7.37558e+06	-53939.1	1055.82	-29744.9	0.000000	0.000000	7.051175	0.092766	NaN	0.000000	0.001579	0.001604	28.0824	0.267578	0.002015	132.775	19.221	-164.515	-0.029938	1.049126	0.000445	-0.000885	0.092766	132.775	-7.941464E-5	-5.925630E-5	-1565.51	NaN
1076	1.000000	1.058353	7.37558e+06	-53939.1	1055.82	-29744.9	0.000000	0.000000	7.059372	7.368376	NaN	0.000000	0.001565	0.001611	28.0829	7.558369	0.001679	4500.47	9.838955	-170.462	5.987164	1.057146	0.008343	0.007136	7.368376	4500.47	0.007115	0.006148	1198.57	52441.7
1076	2.000000	1.061079	7.37558e+06	-53939.1	1055.82	-29744.9	0.000000	0.000000	7.062296	12.1809	NaN	0.000000	0.001595	0.001618	28.0826	10.8293	0.001694	6392.48	10.3414	-174.054	11.8557	1.060758	0.011068	0.010748	12.1809	6392.48	0.009639	0.008783	1386.81	62317.7
1076	2.000000	1.063052	7.37558e+06	-53939.1	1055.82	-29744.9	0.000000	0.000000	7.064365	14.4941	NaN	0.000000	0.001580	0.001600	28.0823	12.433	0.001653	7521.42	7.838350	-172.659	15.5877	1.062720	0.013042	0.012710	14.4941	7521.42	0.011596	0.011010	1316.41	65489.8
1076	2.000000	1.064986	7.37558e+06	-53939.1	1055.82	-29744.9	0.000000	0.000000	7.066412	17.2601	NaN	0.000000	0.001563	0.001575	28.0836	15.2972	0.001912	8002.09	10.9537	-176.424	16.6898	1.064730	0.014975	0.014719	17.2601	8002.09	0.013357	0.013157	1311.86	63738.2
1076	2.000000	1.066980	7.37558e+06	-53939.1	1055.82	-29744.9	0.000000	0.000000	7.068551	20.7768	NaN	0.000000	0.001604	0.001578	28.0837	16.2738	0.001659	9811.74	4.720389	-174.762	20.2213	1.066661	0.016969	0.016651	20.7768	9811.74	0.015381	0.015797	1315.22	71322.9
1076	2.000000	1.068946	7.37558e+06	-53939.1	1055.82	-29744.9	0.000000	0.000000	7.070627	23.4666	NaN	0.000000	0.001627	0.001589	28.0839	18.6846	0.001819	10273.8	8.807693	-177.463	23.068	1.068656	0.018936	0.018646	23.4666	10273.8	0.017222	0.018364	1277.84	69265.7
1076	2.000000	1.071010	7.37558e+06	-53939.1	1055.82	-29744.9	0.000000	0.000000	7.072876	27.9335	NaN	0.000000	0.001607	0.001558	28.0836	20.5492	0.001690	12159.5	6.693598	-176.69	28.9739	1.070687	0.021000	0.020677	27.9335	12159.5	0.019277	0.021419	1304.14	75908
1076	2.000000	1.072931	7.37558e+06	-53939.1	1055.82	-29744.9	0.000000	0.000000	7.074983	32.4736	NaN	0.000000	0.001614	0.001591	28.0854	22.5153	0.001744	12909.6	7.465782	-178.826	31.6406	1.072652	0.022920	0.022641	32.4736	12909.6	0.021034	0.024193	1342.27	75830.2
1076	2.000000	1.074939	7.37558e+06	-53939.1	1055.82	-29744.9	0.000000	0.000000	7.077129	35.8415	NaN	0.000000	0.001608	0.001574	28.0837	24.822	0.001687	14712.8	8.568002	178.905	34.1237	1.074611	0.024928	0.024601	35.8415	14712.8	0.023101	0.027651	1296.19	80837
1076	2.000000	1.076977	7.37558e+06	-53939.1	1055.82	-29744.9	0.000000	0.000000	7.079299	39.0222	NaN	0.000000	0.001566	0.001592	28.0837	26.1033	0.001708	15285.1	11.5165	176.338	40.3624	1.076626	0.026967	0.026616	39.0222	15285.1	0.025052	0.031111	1254.3	79174.7
1076	2.000000	1.078965	7.37558e+06	-53939.1	1055.82	-29744.9	0.000000	0.000000	7.081520	44.6923	NaN	0.000000	0.001595	0.001589	28.0841	28.4872	0.001757	16215.4	7.988399	177.901	44.5464	1.078625	0.028955	0.028615	44.6923	16215.4	0.026888	0.034540	1293.95	79715.6
1076	2.000000	1.080949	7.37558e+06	-53939.1	1055.82	-29744.9	0.000000	0.000000	7.083797	51.8292	NaN	0.000000	0.001604	0.001559	28.0838	29.9552	0.001809	16558	5.588210	-177.681	50.9425	1.080574	0.030938	0.030564	51.8292	16558	0.028591	0.037873	1368.49	77734.7
1076	2.000000	1.082934	7.37558e+06	-53939.1	1055.82	-29744.9	0.000000	0.000000	7.085937	55.5994	NaN	0.000000	0.001570	0.001601	28.085	32.775	0.001916	17101.8	9.978881	177.16	56.2644	1.082678	0.032924	0.032667	55.5994	17101.8	0.030486	0.041756	1331.53	76463.4
1076	2.000000	1.084947	7.37558e+06	-53939.1	1055.82	-29744.9	0.000000	0.000000	7.088241	62.6652	NaN	0.000000	0.001596	0.001581	28.0841	34.181	0.001802	18970.9	6.759956	178.467	62.2521	1.084626	0.034937	0.034615	62.6652	18970.9	0.032459	0.045996	1362.42	80817.3
1076	2.000000	1.086932	7.37558e+06	-53939.1	1055.82	-29744.9	0.000000	0.000000	7.090555	70.6624	NaN	0.000000	0.001580	0.001570	28.0842	35.5695	0.001767	20134.1	3.855138	-179.091	69.3512	1.086623	0.036922	0.036613	70.6624	20134.1	0.034290	0.050105	1410.28	82179.4
1076	2.000000	1.088930	7.37558e+06	-53939.1	1055.82	-29744.9	0.000000	0.000000	7.092789	76.4054	NaN	0.000000	0.001614	0.001546	28.0838	38.4043	0.001764	21775.7	4.944838	178.536	76.9679	1.088687	0.038920	0.038677	76.4054	21775.7	0.036288	0.054787	1394.58	84997.2
1076	2.000000	1.090931	7.37558e+06	-53939.1	1055.82	-29744.9	0.000000	0.000000	7.095096	83.8367	NaN	0.000000	0.001570	0.001605	28.0839	39.8542	0.001684	23665.6	5.072699	178.615	82.9047	1.090563	0.040921	0.040553	83.8367	23665.6	0.038264	0.059619	1406.2	88551.9
1076	2.000000	1.092903	7.37558e+06	-53939.1	1055.82	-29744.9	0.000000	0.000000	7.097365	91.0562	NaN	0.000000	0.001568	0.001574	28.0851	41.3717	0.001723	24005.7	1.806209	-179.354	89.2868	1.092589	0.042893	0.042579	91.0562	24005.7	0.040048	0.064152	1419.37	86592.7
1076	2.000000	1.094904	7.37558e+06	-53939.1	1055.82	-29744.9	0.000000	0.000000	7.099675	98.5741	NaN	0.000000	0.001556	0.001580	28.0838	45.0539	0.001742	25863.1	8.827619	174.255	97.4043	1.094598	0.044894	0.044588	98.5741	25863.1	0.042035	0.069395	1420.49	89699.7
1076	2.000000	1.096929	7.37558e+06	-53939.1	1055.82	-29744.9	0.000000	0.000000	7.101931	104.186	NaN	0.000000	0.001605	0.001593	28.0836	45.5177	0.001647	27643.8	5.423791	176.619	104.966	1.096560	0.046919	0.046549	104.186	27643.8	0.044092	0.075030	1388.59	92204.6
1076	2.000000	1.098873	7.37558e+06	-53939.1	1055.82	-29744.9	0.000000	0.000000	7.104142	110.687	NaN	0.000000	0.001575	0.001585	28.0826	48.6805	0.001788	27232.5	2.745753	178.585	107.144	1.098617	0.048863	0.048607	110.687	27232.5	0.045814	0.079916	1385.04	88012.4
1076	2.000000	1.100916	7.37558e+06	-53939.1	1055.82	-29744.9	0.000000	0.000000	7.106505	118.454	NaN	0.000000	0.001616	0.001607	28.0825	50.0312	0.001657	30198	2.196978	178.317	117.158	1.100614	0.050906	0.050604	118.454	30198	0.047964	0.086224	1373.79	93958.6
1076	2.000000	1.102927	7.37558e+06	-53939.1	1055.82	-29744.9	0.000000	0.000000	7.108765	124.504	NaN	0.000000	0.001583	0.001578	28.0837	52.3928	0.001792	29231.1	5.743157	175.712	125.394	1.102553	0.052917	0.052542	124.504	29231.1	0.049722	0.091557	1359.86	88261.8
1076	2.000000	1.104847	7.37558e+06	-53939.1	1055.82	-29744.9	0.000000	0.000000	7.111044	133.234	NaN	0.000000	0.001564	0.001592	28.0826	54.9045	0.001888	29084	6.421979	174.588	131.039	1.104667	0.054837	0.054657	133.234	29084	0.051401	0.096794	1376.48	85409.2
1076	2.000000	1.106855	7.37558e+06	-53939.1	1055.82	-29744.9	0.000000	0.000000	7.113586	146.225	NaN	0.000000	0.001587	0.001574	28.0827	55.05	0.001742	31600.5	6.110504	174.563	144.523	1.106659	0.056845	0.056649	146.225	31600.5	0.053375	0.103128	1417.9	89903.9
1076	2.000000	1.108850	7.37558e+06	-53939.1	1055.82	-29744.9	0.000000	0.000000	7.115894	153.847	NaN	0.000000	0.001574	0.001583	28.0826	58.159	0.001861	31246	5.847464	174.766	152.415	1.108551	0.058840	0.058541	153.847	31246	0.055147	0.108983	1411.66	86474.4
1076	2.000000	1.110902	7.37558e+06	-53939.1	1055.82	-29744.9	0.000000	0.000000	7.118335	163.301	NaN	0.000000	0.001575	0.001581	28.0828	58.9034	0.001848	31869.3	4.364538	176.7	161.86	1.110575	0.060891	0.060565	163.301	31869.3	0.057048	0.115437	1414.64	85698.6
1076	2.000000	1.112851	7.37558e+06	-53939.1	1055.82	-29744.9	0.000000	0.000000	7.120480	168.049	NaN	0.000000	0.001581	0.001599	28.0837	60.7134	0.001775	34196.9	2.930970	177.396	165.621	1.112525	0.062841	0.062515	168.049	34196.9	0.059155	0.122797	1368.52	89159.3
1076	2.000000	1.114821	7.37558e+06	-53939.1	1055.82	-29744.9	0.000000	0.000000	7.122936	179.877	NaN	0.000000	0.001574	0.001630	28.0827	63.003	0.001904	33082.6	4.935468	174.833	174.7	1.114551	0.064810	0.064541	179.877	33082.6	0.060733	0.128448	1400.38	84335.1
1076	2.000000	1.116912	7.37558e+06	-53939.1	1055.82	-29744.9	0.000000	0.000000	7.125354	187.821	NaN	0.000000	0.001571	0.001621	28.0828	63.6776	0.001747	36452.2	3.173425	175.758	188.12	1.116673	0.066902	0.066663	187.821	36452.2	0.063038	0.136925	1371.7	90002.7
1076	2.000000	1.118914	7.37558e+06	-53939.1	1055.82	-29744.9	0.000000	0.000000	7.127692	195.996	NaN	0.000000	0.001578	0.001639	28.0827	66.5666	0.001812	36730.5	5.461407	173.847	196.149	1.118611	0.068903	0.068601	195.996	36730.5	0.064901	0.143969	1361.38	88443.5
1076	2.000000	1.120827	7.37558e+06	-53939.1	1055.82	-29744.9	0.000000	0.000000	7.130351	214.141	NaN	0.000000	0.001579	0.001632	28.0827	68.0954	0.001693	40210.4	5.039926	173.841	209.782	1.120496	0.070817	0.070486	214.141	40210.4	0.066822	0.151403	1414.38	94415.9
1076	2.000000	1.122829	7.37558e+06	-53939.1	1055.82	-29744.9	0.000000	0.000000	7.132944	228.499	NaN	0.000000	0.001614	0.001541	28.0828	69.4375	0.001722	40316.7	5.745773	173.454	225.483	1.122597	0.072819	0.072587	228.499	40316.7	0.068568	0.158312	1443.35	92576.5
1076	2.000000	1.124858	7.37558e+06	-53939.1	1055.82	-29744.9	0.000000	0.000000	7.135263	235.557	NaN	0.000000	0.001599	0.001577	28.0824	71.9609	0.001678	42878.1	2.057229	176.826	232.715	1.124424	0.074848	0.074413	235.557	42878.1	0.070728	0.167060	1410.02	95845.7
1076	2.000000	1.126841	7.37558e+06	-53939.1	1055.82	-29744.9	0.000000	0.000000	7.137625	244.752	NaN	0.000000	0.001589	0.001574	28.083	73.0173	0.001811	40316.8	3.439172	175.692	244.465	1.126546	0.076831	0.076536	244.752	40316.8	0.072278	0.173478	1410.85	88437.5
1076	2.000000	1.128846	7.37558e+06	-53939.1	1055.82	-29744.9	0.000000	0.000000	7.140028	254.447	NaN	0.000000	0.001571	0.001581	28.0826	76.3515	0.001768	43187.9	5.860611	172.092	252.659	1.128519	0.078836	0.078508	254.447	43187.9	0.074417	0.182518	1394.09	92359.6
1076	2.000000	1.130938	7.37558e+06	-53939.1	1055.82	-29744.9	0.000000	0.000000	7.142724	269.135	NaN	0.000000	0.001574	0.001568	28.0825	78.8524	0.001874	42076.1	7.526384	171.785	270.376	1.130452	0.080928	0.080441	269.135	42076.1	0.076130	0.189915	1417.13	88212.3
1076	2.000000	1.132861	7.37558e+06	-53939.1	1055.82	-29744.9	0.000000	0.000000	7.145123	280.714	NaN	0.000000	0.001603	0.001561	28.0838	79.2116	0.001802	43954.4	1.726033	176.384	278.461	1.132563	0.082850	0.082553	280.714	43954.4	0.078060	0.198414	1414.79	90155
1076	2.000000	1.134835	7.37558e+06	-53939.1	1055.82	-29744.9	0.000000	0.000000	7.147671	294.656	NaN	0.000000	0.001553	0.001563	28.0838	82.3135	0.001727	47662.6	7.233057	170.664	291.778	1.134545	0.084824	0.084534	294.656	47662.6	0.080188	0.207982	1416.74	95485.6
1076	2.000000	1.136822	7.37558e+06	-53939.1	1055.82	-29744.9	0.000000	0.000000	7.150643	318.591	NaN	0.000000	0.001595	0.001577	28.0843	83.0193	0.001746	47552.4	4.772423	173.323	315.975	1.136354	0.086812	0.086343	318.591	47552.4	0.081787	0.215312	1479.67	93629.3
1076	2.000000	1.138852	7.37558e+06	-53939.1	1055.82	-29744.9	0.000000	0.000000	7.153108	329.185	NaN	0.000000	0.001633	0.001605	28.0838	87.4411	0.001840	47527.9	3.609344	174.083	328.302	1.138489	0.088841	0.088479	329.185	47527.9	0.083647	0.223987	1469.66	91750.8
1076	2.000000	1.140858	7.37558e+06	-53939.1	1055.82	-29744.9	0.000000	0.000000	7.155580	340.51	NaN	0.000000	0.001601	0.001615	28.0839	89.0372	0.001838	48449.8	4.800833	173.217	338.465	1.140537	0.090848	0.090526	340.51	48449.8	0.085576	0.233159	1460.42	91672.3
1076	2.000000	1.142969	7.37558e+06	-53939.1	1055.82	-29744.9	0.000000	0.000000	7.158126	351.071	NaN	0.000000	0.001548	0.001606	28.084	91.0251	0.001759	51735.8	4.628433	172.165	357.888	1.142543	0.092959	0.092532	351.071	51735.8	0.087869	0.244278	1437.18	95636.1
1076	2.000000	1.144884	7.37558e+06	-53939.1	1055.82	-29744.9	0.000000	0.000000	7.160646	365.78	NaN	0.000000	0.001591	0.001621	28.0838	93.0808	0.001773	52495.8	4.732332	171.824	365.985	1.144675	0.094873	0.094665	365.78	52495.8	0.089648	0.253070	1445.37	95340.5
1076	2.000000	1.146892	7.37558e+06	-53939.1	1055.82	-29744.9	0.000000	0.000000	7.163102	376.671	NaN	0.000000	0.001581	0.001607	28.0843	94.0231	0.001803	52155.8	4.929198	171.95	379.587	1.146651	0.096882	0.096641	376.671	52155.8	0.091465	0.262205	1436.55	93058.3
1076	2.000000	1.148782	7.37558e+06	-53939.1	1055.82	-29744.9	0.000000	0.000000	7.165943	399.797	NaN	0.000000	0.001621	0.001620	28.0839	95.1474	0.001805	52702.3	5.931903	171.489	395.288	1.148447	0.098771	0.098436	399.797	52702.3	0.093082	0.270457	1478.23	92587.8
1076	2.000000	1.150689	7.37558e+06	-53939.1	1055.82	-29744.9	0.000000	0.000000	7.167924	401.58	NaN	0.000000	0.001594	0.001626	28.0843	97.0566	0.001902	51035.4	1.286892	176.197	391.498	1.150299	0.100679	0.100289	401.58	51035.4	0.094777	0.279241	1438.11	88237.9
1076	2.000000	1.152802	7.37558e+06	-53939.1	1055.82	-29744.9	0.000000	0.000000	7.170988	424.737	NaN	0.000000	0.001558	0.001579	28.084	99.0911	0.001709	57991.8	8.524395	167.596	421.772	1.152526	0.102791	0.102515	424.737	57991.8	0.097298	0.292541	1451.89	97959.3
1076	2.000000	1.154750	7.37558e+06	-53939.1	1055.82	-29744.9	0.000000	0.000000	7.173578	440.333	NaN	0.000000	0.001617	0.001581	28.0839	101.199	0.001727	58602.3	2.056056	173.906	436.278	1.154538	0.104739	0.104528	440.333	58602.3	0.099104	0.302246	1456.87	97388.4
1076	2.000000	1.156699	7.37558e+06	-53939.1	1055.82	-29744.9	0.000000	0.000000	7.176466	463.138	NaN	0.000000	0.001625	0.001590	28.0842	101.396	0.001739	58306.5	3.683370	172.794	455.404	1.156383	0.106689	0.106373	463.138	58306.5	0.100732	0.311124	1488.6	95504.5
1076	2.000000	1.157854	7.37558e+06	-53939.1	1055.82	-29744.9	0.000000	0.000000	7.177742	466.096	NaN	0.000000	0.001593	0.001604	28.0841	105.952	0.001857	57067.8	6.090146	169.971	465.604	1.157613	0.107844	0.107602	466.096	57067.8	0.101718	0.316561	1472.37	92669.2