File: remote_trans/data/nanoindenter/0828-1/data/Data_2025-08-06,11h17m57s/2025-07-22_16-23-58_1_1115.txt
2025-07-22, 16:23:58, 1
Index	Phase	Displacement	Time	Pos X	Pos Y	Pos Z	Rot A	Rot B	Piezo Z	Force A	Force B	Gripper	Voltage A	Voltage B	Temperature	Amplitude force	Amplitude pos	Stiffness	Phase shift	Phase excitation	Force A raw	Displacement raw	HMax	HMax raw	Real Force	Real Stiffness	Contact Depth	Area	Hardness	Reduced Mod.
[#]	[#]	[um]	[s]	[um]	[um]	[um]	[m°]	[m°]	[um]	[uN]	[uN]	[V]	[V]	[V]	[°C]	[uN]	[um]	[N/m]	[°]	[°]	[uN]	[um]	[um]	[um]	[uN]	[N/m]	[um]	[um^2]	[MPa]	[MPa]
1115	1.000000	0.002864	7.37596e+06	-55889.1	1055.82	-29740.2	0.000000	0.000000	6.002775	-0.051387	NaN	0.000000	0.001564	0.001648	28.0848	0.094420	0.001126	83.8226	-105.04	-166.27	0.015464	0.001627	-1.205267	-1.206503	-0.051387	83.8226	-1.204807	-1.273839E+16	4.034063E-18	NaN
1115	1.000000	0.012968	7.37596e+06	-55889.1	1055.82	-29740.3	0.000000	0.000000	6.012881	-0.017983	NaN	0.000000	0.001552	0.001682	28.0848	0.135236	0.001228	110.116	144.596	13.9589	-0.023976	0.011450	-1.195162	-1.196680	-0.017983	110.116	-1.195040	-9.425899E+15	1.907790E-18	NaN
1115	1.000000	0.022825	7.37596e+06	-55889.1	1055.82	-29740.3	0.000000	0.000000	6.022738	-0.003094	NaN	0.000000	0.001576	0.001673	28.0847	0.090401	0.001690	53.4882	-154.308	-165.491	0.013952	0.021598	-1.185306	-1.186533	-0.003094	53.4882	-1.185262	-6.972173E+15	4.437785E-19	NaN
1115	1.000000	0.032836	7.37596e+06	-55889.1	1055.82	-29740.3	0.000000	0.000000	6.032748	-0.041546	NaN	0.000000	0.001555	0.001694	28.0845	0.052015	0.001879	27.6873	7.065467	14.7144	-0.022126	0.031470	-1.175294	-1.176661	-0.041546	27.6873	-1.174169	-4.951631E+15	8.390361E-18	NaN
1115	1.000000	0.042824	7.37596e+06	-55889.1	1055.82	-29740.3	0.000000	0.000000	6.042739	0.060974	NaN	0.000000	0.001525	0.001710	28.0849	0.084870	0.002016	42.0969	103.428	-165.049	0.046526	0.041521	-1.165307	-1.166609	0.060974	42.0969	-1.166393	-3.895412E+15	-1.565275E-17	NaN
1115	1.000000	0.052844	7.37596e+06	-55889.1	1055.82	-29740.3	0.000000	0.000000	6.052760	0.059132	NaN	0.000000	0.001502	0.001718	28.0835	0.051733	0.002006	25.794	-133.169	12.1087	0.046775	0.051506	-1.155286	-1.156624	0.059132	25.794	-1.157006	-2.915651E+15	-2.028091E-17	NaN
1115	1.000000	0.062862	7.37596e+06	-55889.1	1055.82	-29740.3	0.000000	0.000000	6.062780	0.111754	NaN	0.000000	0.001531	0.001715	28.0835	0.036379	0.002006	18.1386	-88.8689	-166.85	0.072546	0.061503	-1.145268	-1.146628	0.111754	18.1386	-1.149889	-2.340643E+15	-4.774481E-17	NaN
1115	1.000000	0.072832	7.37596e+06	-55889.1	1055.82	-29740.3	0.000000	0.000000	6.072747	0.031824	NaN	0.000000	0.001553	0.001679	28.0834	0.039479	0.002145	18.401	-112.639	13.0551	0.005709	0.071488	-1.135299	-1.136642	0.031824	18.401	-1.136596	-1.552689E+15	-2.049613E-17	NaN
1115	1.000000	0.082832	7.37596e+06	-55889.1	1055.82	-29740.3	0.000000	0.000000	6.082745	-0.020429	NaN	0.000000	0.001522	0.001699	28.0838	0.047294	0.001913	24.72	-171.37	-167.963	0.049676	0.081564	-1.125298	-1.126567	-0.020429	24.72	-1.124679	-1.074580E+15	1.901122E-17	NaN
1115	1.000000	0.092865	7.37596e+06	-55889.1	1055.82	-29740.3	0.000000	0.000000	6.092779	0.030925	NaN	0.000000	0.001541	0.001745	28.0834	0.058319	0.001966	29.6606	3.089915	11.9968	-0.010104	0.091467	-1.115266	-1.116664	0.030925	29.6606	-1.116048	-8.230902E+14	-3.757220E-17	NaN
1115	1.000000	0.102887	7.37596e+06	-55889.1	1055.82	-29740.3	0.000000	0.000000	6.102800	0.016743	NaN	0.000000	0.001564	0.001753	28.084	0.079317	0.002046	38.7702	5.763994	-164.785	0.037125	0.101488	-1.105244	-1.106643	0.016743	38.7702	-1.105568	-5.953969E+14	-2.812083E-17	NaN
1115	1.000000	0.112883	7.37596e+06	-55889.1	1055.82	-29740.3	0.000000	0.000000	6.112796	0.012568	NaN	0.000000	0.001578	0.001754	28.0839	0.111837	0.002009	55.6585	168.87	12.7382	0.014820	0.111470	-1.095248	-1.096661	0.012568	55.6585	-1.095417	-4.350588E+14	-2.888875E-17	NaN
1115	1.000000	0.122855	7.37596e+06	-55889.1	1055.82	-29740.3	0.000000	0.000000	6.122769	0.029865	NaN	0.000000	0.001559	0.001757	28.0841	0.121281	0.002017	60.1166	-27.2134	-165.481	-0.020264	0.121532	-1.085276	-1.086598	0.029865	60.1166	-1.085649	-3.216467E+14	-9.284991E-17	NaN
1115	1.000000	0.132870	7.37596e+06	-55889.1	1055.82	-29740.3	0.000000	0.000000	6.132784	0.025611	NaN	0.000000	0.001553	0.001739	28.0841	0.053426	0.002022	26.4234	-173.739	8.435727	0.002366	0.131523	-1.075261	-1.076608	0.025611	26.4234	-1.075987	-2.385743E+14	-1.073515E-16	NaN
1115	1.000000	0.142866	7.37596e+06	-55889.1	1055.82	-29740.3	0.000000	0.000000	6.142782	0.061344	NaN	0.000000	0.001603	0.001751	28.0841	0.052003	0.001951	26.6601	159.259	-169.363	0.035080	0.141554	-1.065264	-1.066577	0.061344	26.6601	-1.066990	-1.806124E+14	-3.396421E-16	NaN
1115	1.000000	0.152873	7.37596e+06	-55889.1	1055.82	-29740.3	0.000000	0.000000	6.152787	0.016887	NaN	0.000000	0.001553	0.001746	28.0839	0.033504	0.001879	17.835	132.79	14.7786	-0.023692	0.151547	-1.055258	-1.056583	0.016887	17.835	-1.055968	-1.284207E+14	-1.314983E-16	NaN
1115	1.000000	0.162869	7.37596e+06	-55889.1	1055.82	-29740.3	0.000000	0.000000	6.162783	0.000684	NaN	0.000000	0.001583	0.001771	28.0836	0.058578	0.002076	28.2165	124.599	-170.552	-0.009985	0.161593	-1.045261	-1.046537	0.000684	28.2165	-1.045280	-9.224750E+13	-7.415365E-18	NaN
1115	1.000000	0.172888	7.37596e+06	-55889.1	1055.82	-29740.3	0.000000	0.000000	6.172801	0.004829	NaN	0.000000	0.001602	0.001735	28.0836	0.070883	0.002091	33.9001	-51.4052	12.0391	-0.020209	0.171525	-1.035243	-1.036606	0.004829	33.9001	-1.035350	-6.783128E+13	-7.118954E-17	NaN
1115	1.000000	0.182893	7.37596e+06	-55889.1	1055.82	-29740.3	0.000000	0.000000	6.182808	0.046282	NaN	0.000000	0.001625	0.001753	28.0839	0.080631	0.002076	38.8462	11.3321	-169.114	0.063081	0.181586	-1.025238	-1.026545	0.046282	38.8462	-1.026131	-5.098462E+13	-9.077604E-16	NaN
1115	1.000000	0.192924	7.37596e+06	-55889.1	1055.82	-29740.3	0.000000	0.000000	6.192840	0.049768	NaN	0.000000	0.001622	0.001745	28.0856	0.024318	0.002091	11.6285	-37.3615	11.2387	0.093156	0.191561	-1.015206	-1.016570	0.049768	11.6285	-1.018416	-4.014587E+13	-1.239669E-15	NaN
1115	1.000000	0.202895	7.37596e+06	-55889.1	1055.82	-29740.3	0.000000	0.000000	6.202807	-0.044544	NaN	0.000000	0.001629	0.001741	28.085	0.057154	0.001942	29.4343	42.9887	-165.097	-0.080857	0.201567	-1.005235	-1.006563	-0.044544	29.4343	-1.004100	-2.576134E+13	1.729095E-15	NaN
1115	1.000000	0.212906	7.37596e+06	-55889.1	1055.82	-29740.3	0.000000	0.000000	6.212820	0.026506	NaN	0.000000	0.001640	0.001685	28.0853	0.060396	0.002072	29.1468	37.0014	14.1344	0.008526	0.211538	-0.995225	-0.996592	0.026506	29.1468	-0.995907	-1.998307E+13	-1.326416E-15	NaN
1115	1.000000	0.222892	7.37596e+06	-55889.1	1055.82	-29740.3	0.000000	0.000000	6.222808	0.063144	NaN	0.000000	0.001602	0.001721	28.0852	0.041486	0.002011	20.6344	158.494	-167.952	0.084745	0.221586	-0.985239	-0.986545	0.063144	20.6344	-0.987534	-1.541342E+13	-4.096693E-15	NaN
1115	1.000000	0.232921	7.37596e+06	-55889.1	1055.82	-29740.3	0.000000	0.000000	6.232835	0.014680	NaN	0.000000	0.001606	0.001691	28.0855	0.102568	0.001902	53.9313	65.7364	16.5058	-0.047658	0.231553	-0.975210	-0.976578	0.014680	53.9313	-0.975414	-1.058326E+13	-1.387052E-15	NaN
1115	1.000000	0.242898	7.37596e+06	-55889.1	1055.82	-29740.3	0.000000	0.000000	6.242812	0.024582	NaN	0.000000	0.001584	0.001676	28.085	0.133501	0.002058	64.8834	82.2094	-167.592	0.063466	0.241551	-0.965233	-0.966580	0.024582	64.8834	-0.965517	-7.784745E+12	-3.157755E-15	NaN
1115	1.000000	0.252920	7.37596e+06	-55889.1	1055.82	-29740.3	0.000000	0.000000	6.252833	0.005669	NaN	0.000000	0.001576	0.001665	28.085	0.085582	0.001927	44.4019	-175.093	13.1894	0.051902	0.251573	-0.955211	-0.956557	0.005669	44.4019	-0.955307	-5.670075E+12	-9.998946E-16	NaN
1115	1.000000	0.262938	7.37596e+06	-55889.1	1055.82	-29740.3	0.000000	0.000000	6.262851	0.002458	NaN	0.000000	0.001631	0.001681	28.0851	0.065771	0.001840	35.7409	80.1544	-163.643	0.049024	0.261616	-0.945193	-0.946514	0.002458	35.7409	-0.945244	-4.148443E+12	-5.925766E-16	NaN
1115	1.000000	0.272922	7.37596e+06	-55889.1	1055.82	-29740.3	0.000000	0.000000	6.272836	0.025665	NaN	0.000000	0.001586	0.001673	28.0849	0.022112	0.002109	10.4863	-50.4417	9.781328	-0.019077	0.271579	-0.935209	-0.936552	0.025665	10.4863	-0.937044	-3.215573E+12	-7.981391E-15	NaN
1115	1.000000	0.282928	7.37596e+06	-55889.1	1055.82	-29740.3	0.000000	0.000000	6.282841	-0.008551	NaN	0.000000	0.001563	0.001658	28.0849	0.022491	0.002043	11.0113	-5.046221	-169.743	0.034656	0.281618	-0.925202	-0.926513	-0.008551	11.0113	-0.924620	-2.185633E+12	3.912303E-15	NaN
1115	1.000000	0.292950	7.37596e+06	-55889.1	1055.82	-29740.3	0.000000	0.000000	6.292865	0.032509	NaN	0.000000	0.001590	0.001673	28.0852	0.120362	0.001903	63.2624	-79.8606	13.9045	-0.027119	0.291547	-0.915181	-0.916583	0.032509	63.2624	-0.915566	-1.649438E+12	-1.970935E-14	NaN
1115	1.000000	0.302938	7.37596e+06	-55889.1	1055.82	-29740.3	0.000000	0.000000	6.302849	-0.061142	NaN	0.000000	0.001617	0.001648	28.0855	0.102415	0.001877	54.5647	-97.0833	-170.133	0.032348	0.301666	-0.905193	-0.906465	-0.061142	54.5647	-0.904352	-1.163777E+12	5.253720E-14	NaN
1115	1.000000	0.312932	7.37596e+06	-55889.1	1055.82	-29740.3	0.000000	0.000000	6.312846	0.019916	NaN	0.000000	0.001602	0.001658	28.0851	0.070168	0.001924	36.4675	105.456	13.5988	-0.023664	0.311551	-0.895198	-0.896580	0.019916	36.4675	-0.895608	-8.865745E+11	-2.246421E-14	NaN
1115	1.000000	0.322927	7.37596e+06	-55889.1	1055.82	-29740.3	0.000000	0.000000	6.322839	-0.017433	NaN	0.000000	0.001618	0.001637	28.0841	0.054321	0.002147	25.2965	-33.5856	-164.808	0.000390	0.321628	-0.885204	-0.886503	-0.017433	25.2965	-0.884687	-6.310824E+11	2.762405E-14	NaN
1115	1.000000	0.332938	7.37596e+06	-55889.1	1055.82	-29740.3	0.000000	0.000000	6.332855	0.088841	NaN	0.000000	0.001606	0.001698	28.0838	0.040248	0.002014	19.9792	143.045	12.5092	0.044232	0.331594	-0.875193	-0.876536	0.088841	19.9792	-0.878528	-5.209493E+11	-1.705363E-13	NaN
1115	1.000000	0.342933	7.37596e+06	-55889.1	1055.82	-29740.3	0.000000	0.000000	6.342844	-0.051264	NaN	0.000000	0.001649	0.001708	28.0837	0.142056	0.001859	76.435	-107.755	-167.593	-0.040003	0.341698	-0.865198	-0.866433	-0.051264	76.435	-0.864695	-3.385760E+11	1.514094E-13	NaN
1115	1.000000	0.352942	7.37596e+06	-55889.1	1055.82	-29740.3	0.000000	0.000000	6.352855	-0.004034	NaN	0.000000	0.001663	0.001687	28.0842	0.014331	0.002051	6.986677	-59.2009	12.9956	-0.054394	0.351597	-0.855189	-0.856534	-0.004034	6.986677	-0.854756	-2.483890E+11	1.623914E-14	NaN
1115	1.000000	0.363000	7.37596e+06	-55889.1	1055.82	-29740.3	0.000000	0.000000	6.362914	0.022236	NaN	0.000000	0.001680	0.001698	28.0835	0.100915	0.002004	50.3536	-76.3201	-168.489	0.107054	0.361620	-0.845130	-0.846510	0.022236	50.3536	-0.845462	-1.858982E+11	-1.196159E-13	NaN
1115	1.000000	0.372980	7.37596e+06	-55889.1	1055.82	-29740.3	0.000000	0.000000	6.372892	-0.030072	NaN	0.000000	0.001681	0.001717	28.0842	0.039792	0.002060	19.3207	-126.506	11.7891	0.061279	0.371589	-0.835151	-0.836542	-0.030072	19.3207	-0.833984	-1.299492E+11	2.314137E-13	NaN
1115	1.000000	0.382968	7.37596e+06	-55889.1	1055.82	-29740.3	0.000000	0.000000	6.382881	-0.002776	NaN	0.000000	0.001632	0.001747	28.0839	0.016116	0.001885	8.550127	-141.408	-166.943	0.044482	0.381639	-0.825163	-0.826492	-0.002776	8.550127	-0.824919	-9.792889E+10	2.834628E-14	NaN
1115	1.000000	0.393003	7.37596e+06	-55889.1	1055.82	-29740.3	0.000000	0.000000	6.392916	-0.017661	NaN	0.000000	0.001674	0.001682	28.084	0.051918	0.002028	25.605	-7.878000	12.3968	-0.013582	0.391603	-0.815127	-0.816527	-0.017661	25.605	-0.814610	-7.097565E+10	2.488329E-13	NaN
1115	1.000000	0.402976	7.37596e+06	-55889.1	1055.82	-29740.3	0.000000	0.000000	6.402888	-0.026500	NaN	0.000000	0.001677	0.001665	28.0838	0.064103	0.002112	30.3558	-177.66	-163.321	-0.045775	0.401651	-0.805154	-0.806480	-0.026500	30.3558	-0.804500	-5.175307E+10	5.120410E-13	NaN
1115	1.000000	0.413005	7.37596e+06	-55889.1	1055.82	-29740.3	0.000000	0.000000	6.412917	-0.016531	NaN	0.000000	0.001663	0.001673	28.0841	0.083791	0.002113	39.6602	-153.349	13.0468	0.040945	0.411652	-0.795126	-0.796479	-0.016531	39.6602	-0.794814	-3.823409E+10	4.323658E-13	NaN
1115	1.000000	0.422990	7.37596e+06	-55889.1	1055.82	-29740.3	0.000000	0.000000	6.422905	0.054328	NaN	0.000000	0.001655	0.001678	28.0837	0.031189	0.002081	14.9861	-152.124	-159.734	0.101685	0.421612	-0.785141	-0.786519	0.054328	14.9861	-0.787860	-3.076179E+10	-1.766083E-12	NaN
1115	1.000000	0.433009	7.37596e+06	-55889.1	1055.82	-29740.3	0.000000	0.000000	6.432924	0.046177	NaN	0.000000	0.001668	0.001666	28.0838	0.117506	0.002053	57.2327	-165.137	14.795	0.082587	0.431672	-0.775122	-0.776459	0.046177	57.2327	-0.775727	-2.104549E+10	-2.194167E-12	NaN
1115	1.000000	0.442974	7.37596e+06	-55889.1	1055.82	-29740.3	0.000000	0.000000	6.442889	0.037700	NaN	0.000000	0.001662	0.001672	28.0838	0.066612	0.001928	34.5525	-65.617	-166.95	0.008306	0.441724	-0.765156	-0.766407	0.037700	34.5525	-0.765975	-1.550849E+10	-2.430913E-12	NaN
1115	1.000000	0.453018	7.37596e+06	-55889.1	1055.82	-29740.3	0.000000	0.000000	6.452931	-0.002609	NaN	0.000000	0.001674	0.001688	28.0839	0.060993	0.002030	30.0491	-78.9233	13.0895	-0.102140	0.451654	-0.755113	-0.756477	-0.002609	30.0491	-0.755048	-1.101339E+10	2.368511E-13	NaN
1115	1.000000	0.463003	7.37596e+06	-55889.1	1055.82	-29740.3	0.000000	0.000000	6.462916	-0.005689	NaN	0.000000	0.001694	0.001677	28.0852	0.088100	0.001957	45.0158	-174.007	-166.691	0.009349	0.461733	-0.745128	-0.746397	-0.005689	45.0158	-0.745033	-8.046276E+9	7.069940E-13	NaN
1115	1.000000	0.472990	7.37596e+06	-55889.1	1055.82	-29740.3	0.000000	0.000000	6.472903	0.002065	NaN	0.000000	0.001719	0.001734	28.0851	0.060345	0.002077	29.0569	-54.8911	14.815	0.023018	0.471655	-0.735141	-0.736475	0.002065	29.0569	-0.735194	-5.910006E+9	-3.493914E-13	NaN
1115	1.000000	0.483008	7.37596e+06	-55889.1	1055.82	-29740.3	0.000000	0.000000	6.482921	-0.005075	NaN	0.000000	0.001715	0.001685	28.0853	0.075624	0.001890	40.0172	89.3927	-168.414	-0.001118	0.481719	-0.725123	-0.726412	-0.005075	40.0172	-0.725028	-4.295641E+9	1.181375E-12	NaN
1115	1.000000	0.493020	7.37596e+06	-55889.1	1055.82	-29740.3	0.000000	0.000000	6.492934	0.026737	NaN	0.000000	0.001688	0.001712	28.0853	0.073343	0.002004	36.5926	179.567	13.1917	0.011135	0.491662	-0.715111	-0.716468	0.026737	36.5926	-0.715659	-3.200804E+9	-8.353240E-12	NaN
1115	1.000000	0.503013	7.37596e+06	-55889.1	1055.82	-29740.3	0.000000	0.000000	6.502925	-0.032086	NaN	0.000000	0.001710	0.001664	28.0859	0.086901	0.002185	39.7639	30.4039	-168.698	-0.038297	0.501735	-0.705118	-0.706396	-0.032086	39.7639	-0.704512	-2.254988E+9	1.422877E-11	NaN
1115	1.000000	0.513031	7.37596e+06	-55889.1	1055.82	-29740.3	0.000000	0.000000	6.512942	-0.046205	NaN	0.000000	0.001718	0.001675	28.0854	0.051089	0.001956	26.1176	167.397	13.0201	-0.038721	0.511639	-0.695100	-0.696492	-0.046205	26.1176	-0.693773	-1.608694E+9	2.872209E-11	NaN
1115	1.000000	0.523026	7.37596e+06	-55889.1	1055.82	-29740.3	0.000000	0.000000	6.522941	0.056614	NaN	0.000000	0.001723	0.001707	28.0856	0.053285	0.001972	27.0271	160.715	-166.505	-0.012350	0.521771	-0.685105	-0.686359	0.056614	27.0271	-0.686676	-1.286732E+9	-4.399808E-11	NaN
1115	1.000000	0.533073	7.37596e+06	-55889.1	1055.82	-29740.3	0.000000	0.000000	6.532987	0.027753	NaN	0.000000	0.001617	0.001680	28.0853	0.046623	0.002011	23.1827	-162.454	10.1649	0.007305	0.531675	-0.675058	-0.676456	0.027753	23.1827	-0.675956	-9.180976E+8	-3.022908E-11	NaN
1115	1.000000	0.543052	7.37596e+06	-55889.1	1055.82	-29740.3	0.000000	0.000000	6.542965	0.002457	NaN	0.000000	0.001614	0.001686	28.0855	0.057709	0.002043	28.2455	23.754	-166.103	0.028066	0.541749	-0.665079	-0.666381	0.002457	28.2455	-0.665144	-6.529989E+8	-3.762155E-12	NaN
1115	1.000000	0.553068	7.37596e+06	-55889.1	1055.82	-29740.3	0.000000	0.000000	6.552980	-0.023879	NaN	0.000000	0.001608	0.001732	28.0855	0.106625	0.001946	54.7843	139.142	15.4226	0.037004	0.551684	-0.655063	-0.656447	-0.023879	54.7843	-0.654736	-4.702688E+8	5.077745E-11	NaN
1115	1.000000	0.563048	7.37596e+06	-55889.1	1055.82	-29740.3	0.000000	0.000000	6.562964	0.055105	NaN	0.000000	0.001611	0.001737	28.0854	0.061722	0.001948	31.6807	-30.9173	-164.164	0.071782	0.561787	-0.645083	-0.646344	0.055105	31.6807	-0.646387	-3.613273E+8	-1.525067E-10	NaN
1115	1.000000	0.573091	7.37596e+06	-55889.1	1055.82	-29740.3	0.000000	0.000000	6.573006	0.044073	NaN	0.000000	0.001676	0.001697	28.0854	0.028984	0.002051	14.1288	162.384	11.9793	-0.003904	0.571675	-0.635040	-0.636456	0.044073	14.1288	-0.637379	-2.718469E+8	-1.621240E-10	NaN
1115	1.000000	0.583026	7.37596e+06	-55889.1	1055.82	-29740.3	0.000000	0.000000	6.582940	0.039369	NaN	0.000000	0.001646	0.001703	28.0853	0.033245	0.001949	17.0563	175.024	-164.871	-0.009376	0.581769	-0.625105	-0.626361	0.039369	17.0563	-0.626836	-1.947915E+8	-2.021062E-10	NaN
1115	1.000000	0.593069	7.37596e+06	-55889.1	1055.82	-29740.3	0.000000	0.000000	6.592981	-0.031712	NaN	0.000000	0.001685	0.001682	28.0851	0.012938	0.001991	6.496390	-172.264	13.705	-0.010235	0.591703	-0.615062	-0.616427	-0.031712	6.496390	-0.611401	-1.195054E+8	2.653615E-10	NaN
1115	1.000000	0.603081	7.37596e+06	-55889.1	1055.82	-29740.3	0.000000	0.000000	6.602997	0.061535	NaN	0.000000	0.001737	0.001711	28.084	0.022163	0.001987	11.1522	-75.8937	-167.19	0.078512	0.601806	-0.605049	-0.606325	0.061535	11.1522	-0.609188	-1.114134E+8	-5.523128E-10	NaN
1115	1.000000	0.613065	7.37596e+06	-55889.1	1055.82	-29740.3	0.000000	0.000000	6.612978	-0.003242	NaN	0.000000	0.001701	0.001686	28.0838	0.022792	0.002010	11.3375	-136.682	14.6286	-0.087649	0.611694	-0.595065	-0.596437	-0.003242	11.3375	-0.594851	-7.071750E+7	4.584666E-11	NaN
1115	1.000000	0.623106	7.37596e+06	-55889.1	1055.82	-29740.3	0.000000	0.000000	6.623018	-0.013554	NaN	0.000000	0.001692	0.001719	28.0842	0.060071	0.001991	30.1757	-90.4866	-167.821	-0.010989	0.621795	-0.585025	-0.586335	-0.013554	30.1757	-0.584688	-5.121673E+7	2.646365E-10	NaN
1115	1.000000	0.633087	7.37596e+06	-55889.1	1055.82	-29740.3	0.000000	0.000000	6.633001	0.031793	NaN	0.000000	0.001712	0.001759	28.0838	0.057147	0.002009	28.4464	-167.793	13.7109	-0.030048	0.631708	-0.575044	-0.576423	0.031793	28.4464	-0.575882	-3.871518E+7	-8.211983E-10	NaN
1115	1.000000	0.643104	7.37596e+06	-55889.1	1055.82	-29740.3	0.000000	0.000000	6.643017	0.003366	NaN	0.000000	0.001677	0.001723	28.0841	0.062087	0.002005	30.9723	43.4309	-167.564	0.004392	0.641769	-0.565027	-0.566362	0.003366	30.9723	-0.565108	-2.748034E+7	-1.224814E-10	NaN
1115	1.000000	0.653085	7.37596e+06	-55889.1	1055.82	-29740.3	0.000000	0.000000	6.652996	-0.053161	NaN	0.000000	0.001700	0.001746	28.0839	0.097946	0.001921	50.9871	-113.248	13.8599	-0.045345	0.651690	-0.555046	-0.556440	-0.053161	50.9871	-0.554264	-1.945368E+7	2.732713E-9	NaN
1115	1.000000	0.663120	7.37596e+06	-55889.1	1055.82	-29740.3	0.000000	0.000000	6.663036	0.074639	NaN	0.000000	0.001638	0.001730	28.0842	0.071837	0.001964	36.5766	-29.8578	-168.51	0.069492	0.661820	-0.545011	-0.546311	0.074639	36.5766	-0.546541	-1.520690E+7	-4.908216E-9	NaN
1115	1.000000	0.673083	7.37596e+06	-55889.1	1055.82	-29740.3	0.000000	0.000000	6.672996	0.011302	NaN	0.000000	0.001662	0.001730	28.0841	0.035151	0.001917	18.3372	-43.2028	14.171	-0.015143	0.671739	-0.535048	-0.536391	0.011302	18.3372	-0.535510	-1.069236E+7	-1.057039E-9	NaN
1115	1.000000	0.683074	7.37596e+06	-55889.1	1055.82	-29740.3	0.000000	0.000000	6.682990	0.056689	NaN	0.000000	0.001641	0.001715	28.0839	0.077472	0.002142	36.1656	-80.2756	-166.756	0.102166	0.681802	-0.525056	-0.526328	0.056689	36.1656	-0.526232	-7.9475e+06	-7.132905E-9	NaN
1115	1.000000	0.693086	7.37596e+06	-55889.1	1055.82	-29740.3	0.000000	0.000000	6.693001	0.033569	NaN	0.000000	0.001634	0.001721	28.084	0.100019	0.002103	47.5619	77.8556	12.4376	0.087709	0.691753	-0.515044	-0.516378	0.033569	47.5619	-0.515574	-5.64957e+06	-5.941786E-9	NaN
1115	1.000000	0.703128	7.37596e+06	-55889.1	1055.82	-29740.3	0.000000	0.000000	6.703044	0.052382	NaN	0.000000	0.001615	0.001746	28.0843	0.073431	0.001824	40.2506	-97.0619	-168.123	0.019152	0.701775	-0.505002	-0.506356	0.052382	40.2506	-0.505978	-4.15319e+06	-1.261256E-8	NaN
1115	1.000000	0.713153	7.37596e+06	-55889.1	1055.82	-29740.3	0.000000	0.000000	6.713067	0.021113	NaN	0.000000	0.001618	0.001731	28.084	0.041543	0.001998	20.7947	-87.2421	15.5818	0.015061	0.711749	-0.494978	-0.496382	0.021113	20.7947	-0.495740	-2.98924e+06	-7.063065E-9	NaN
1115	1.000000	0.723117	7.37596e+06	-55889.1	1055.82	-29740.3	0.000000	0.000000	6.723031	0.033310	NaN	0.000000	0.001658	0.001733	28.084	0.054920	0.002239	24.5289	151.535	-165.084	-0.047684	0.721840	-0.485014	-0.486291	0.033310	24.5289	-0.486032	-2.18741e+06	-1.522812E-8	NaN
1115	1.000000	0.733119	7.37596e+06	-55889.1	1055.82	-29740.3	0.000000	0.000000	6.733032	-0.001961	NaN	0.000000	0.001655	0.001685	28.0851	0.098526	0.002093	47.0674	164.796	15.0686	0.009548	0.731767	-0.475012	-0.476363	-0.001961	47.0674	-0.474980	-1.53188e+06	1.280289E-9	NaN
1115	1.000000	0.743126	7.37596e+06	-55889.1	1055.82	-29740.3	0.000000	0.000000	6.743039	-0.017653	NaN	0.000000	0.001638	0.001684	28.0852	0.015653	0.001973	7.932799	-159.699	-169.702	0.003908	0.741799	-0.465005	-0.466332	-0.017653	7.932799	-0.463336	-1.05166e+06	1.678565E-8	NaN
1115	1.000000	0.753154	7.37596e+06	-55889.1	1055.82	-29740.3	0.000000	0.000000	6.753067	-0.019905	NaN	0.000000	0.001609	0.001712	28.0853	0.033312	0.001985	16.7817	-146.037	13.0427	-0.094259	0.751761	-0.454977	-0.456370	-0.019905	16.7817	-0.454087	-779599	2.553277E-8	NaN
1115	1.000000	0.763130	7.37596e+06	-55889.1	1055.82	-29740.3	0.000000	0.000000	6.763043	-0.015600	NaN	0.000000	0.001605	0.001702	28.0853	0.016024	0.002140	7.486422	114.702	-165.99	-0.039329	0.761823	-0.445001	-0.446308	-0.015600	7.486422	-0.443438	-551908	2.826524E-8	NaN
1115	1.000000	0.773136	7.37596e+06	-55889.1	1055.82	-29740.3	0.000000	0.000000	6.773050	0.009242	NaN	0.000000	0.001609	0.001667	28.0853	0.065483	0.001998	32.7693	-75.4347	13.835	-0.009910	0.771750	-0.434995	-0.436381	0.009242	32.7693	-0.435206	-422343	-2.188169E-8	NaN
1115	1.000000	0.783127	7.37596e+06	-55889.1	1055.82	-29740.3	0.000000	0.000000	6.783041	0.017725	NaN	0.000000	0.001650	0.001688	28.0851	0.041226	0.002046	20.1547	36.8524	-168.94	-0.002476	0.781842	-0.425003	-0.426289	0.017725	20.1547	-0.425663	-309507	-5.726708E-8	NaN
1115	1.000000	0.793147	7.37596e+06	-55889.1	1055.82	-29740.3	0.000000	0.000000	6.793061	0.016622	NaN	0.000000	0.001660	0.001735	28.0852	0.067492	0.002061	32.752	-54.4617	13.5883	0.017227	0.791802	-0.414984	-0.416329	0.016622	32.752	-0.415364	-221119	-7.517046E-8	NaN
1115	1.000000	0.803156	7.37596e+06	-55889.1	1055.82	-29740.3	0.000000	0.000000	6.803068	-0.011714	NaN	0.000000	0.001662	0.001666	28.0853	0.007297	0.002025	3.603083	-34.6331	-166.21	-0.005331	0.801843	-0.404975	-0.406288	-0.011714	3.603083	-0.402537	-145264	8.064273E-8	NaN
1115	1.000000	0.813158	7.37596e+06	-55889.1	1055.82	-29740.3	0.000000	0.000000	6.813072	0.015948	NaN	0.000000	0.001689	0.001726	28.0851	0.015963	0.001850	8.630274	165.231	13.6078	-0.020666	0.811782	-0.394973	-0.396349	0.015948	8.630274	-0.396358	-118586	-1.344863E-7	NaN
1115	1.000000	0.823149	7.37596e+06	-55889.1	1055.82	-29740.3	0.000000	0.000000	6.823059	-0.072382	NaN	0.000000	0.001655	0.001723	28.0851	0.094267	0.001877	50.2209	-62.6254	-164.709	-0.098002	0.821834	-0.384982	-0.386297	-0.072382	50.2209	-0.383901	-78675.5	9.200011E-7	NaN
1115	1.000000	0.833163	7.37596e+06	-55889.1	1055.82	-29740.3	0.000000	0.000000	6.833079	0.070618	NaN	0.000000	0.001656	0.001695	28.0852	0.025506	0.002118	12.0405	-66.3284	11.6378	0.101790	0.831768	-0.374968	-0.376363	0.070618	12.0405	-0.379367	-67733	-1.042591E-6	NaN
1115	1.000000	0.843184	7.37596e+06	-55889.1	1055.82	-29740.3	0.000000	0.000000	6.843098	0.001859	NaN	0.000000	0.001661	0.001744	28.0852	0.047102	0.001915	24.6007	-72.6546	-169.16	0.054190	0.841807	-0.364946	-0.366324	0.001859	24.6007	-0.365003	-42081.9	-4.417083E-8	NaN
1115	1.000000	0.853161	7.37596e+06	-55889.1	1055.82	-29740.3	0.000000	0.000000	6.853074	-0.008766	NaN	0.000000	0.001678	0.001720	28.0852	0.096244	0.002060	46.7118	175.085	9.106898	-0.068983	0.851832	-0.354969	-0.356299	-0.008766	46.7118	-0.354829	-29992.6	2.922566E-7	NaN
1115	1.000000	0.863158	7.37596e+06	-55889.1	1055.82	-29740.3	0.000000	0.000000	6.863069	-0.039957	NaN	0.000000	0.001638	0.001757	28.0849	0.069674	0.001966	35.44	-1.939706	-164.908	0.062250	0.861932	-0.344973	-0.346199	-0.039957	35.44	-0.344128	-20973.2	1.905127E-6	NaN
1115	1.000000	0.873163	7.37596e+06	-55889.1	1055.82	-29740.3	0.000000	0.000000	6.873076	0.007299	NaN	0.000000	0.001616	0.001750	28.0839	0.163957	0.001938	84.5988	-39.487	14.7227	-0.029898	0.871807	-0.334968	-0.336324	0.007299	84.5988	-0.335032	-15454.7	-4.722866E-7	NaN
1115	1.000000	0.883186	7.37596e+06	-55889.1	1055.82	-29740.3	0.000000	0.000000	6.883098	-0.026287	NaN	0.000000	0.001609	0.001718	28.0838	0.065025	0.002097	31.0157	51.1915	-165.852	-0.019063	0.881872	-0.324945	-0.326259	-0.026287	31.0157	-0.324309	-10764.5	2.442040E-6	NaN
1115	1.000000	0.893212	7.37596e+06	-55889.1	1055.82	-29740.3	0.000000	0.000000	6.893125	-0.008360	NaN	0.000000	0.001640	0.001708	28.0838	0.042381	0.001954	21.6857	95.5688	12.4738	0.092399	0.891794	-0.314919	-0.316337	-0.008360	21.6857	-0.314630	-7753.23	1.078231E-6	NaN
1115	1.000000	0.903193	7.37596e+06	-55889.1	1055.82	-29740.3	0.000000	0.000000	6.903107	0.021852	NaN	0.000000	0.001655	0.001669	28.0839	0.040652	0.002020	20.1203	27.5545	-169.652	-0.001284	0.901895	-0.304938	-0.306236	0.021852	20.1203	-0.305753	-5729.6	-3.813956E-6	NaN
1115	1.000000	0.913199	7.37596e+06	-55889.1	1055.82	-29740.3	0.000000	0.000000	6.913111	-0.022256	NaN	0.000000	0.001614	0.001705	28.0839	0.044757	0.002068	21.6425	-31.8862	11.3663	0.003497	0.911857	-0.294932	-0.296273	-0.022256	21.6425	-0.294160	-3850.76	5.779697E-6	NaN
1115	1.000000	0.923205	7.37596e+06	-55889.1	1055.82	-29740.3	0.000000	0.000000	6.923118	-0.015282	NaN	0.000000	0.001623	0.001712	28.0837	0.141019	0.001945	72.513	-107.586	-169.355	-0.070044	0.921865	-0.284926	-0.286266	-0.015282	72.513	-0.284768	-2784.67	5.487840E-6	NaN
1115	1.000000	0.933198	7.37596e+06	-55889.1	1055.82	-29740.3	0.000000	0.000000	6.933112	0.027664	NaN	0.000000	0.001639	0.001705	28.0836	0.151656	0.002050	73.9635	-17.9699	10.6416	-0.040692	0.931869	-0.274933	-0.276262	0.027664	73.9635	-0.275213	-1998.16	-1.384488E-5	NaN
1115	1.000000	0.943220	7.37596e+06	-55889.1	1055.82	-29740.3	0.000000	0.000000	6.943133	-0.005064	NaN	0.000000	0.001688	0.001683	28.0841	0.052825	0.001959	26.9694	-63.325	-167.095	-0.042919	0.941881	-0.264911	-0.266250	-0.005064	26.9694	-0.264770	-1386.38	3.652390E-6	NaN
1115	1.000000	0.953192	7.37596e+06	-55889.1	1055.82	-29740.3	0.000000	0.000000	6.953106	0.024304	NaN	0.000000	0.001684	0.001697	28.0839	0.055380	0.002031	27.2653	-77.5024	11.9906	-0.022836	0.951869	-0.254939	-0.256261	0.024304	27.2653	-0.255608	-1003.38	-2.422235E-5	NaN
1115	1.000000	0.963184	7.37596e+06	-55889.1	1055.82	-29740.3	0.000000	0.000000	6.963096	-0.027615	NaN	0.000000	0.001668	0.001671	28.0838	0.030615	0.002019	15.1624	48.6573	-165.55	-0.063259	0.961956	-0.244946	-0.246175	-0.027615	15.1624	-0.243580	-653.693	4.224438E-5	NaN
1115	1.000000	0.973232	7.37596e+06	-55889.1	1055.82	-29740.3	0.000000	0.000000	6.973143	-0.050320	NaN	0.000000	0.001656	0.001722	28.0838	0.123383	0.002021	61.0547	-153.852	15.1753	0.083538	0.971878	-0.234899	-0.236253	-0.050320	61.0547	-0.234280	-467.675	0.000108	NaN
1115	1.000000	0.983210	7.37596e+06	-55889.1	1055.82	-29740.3	0.000000	0.000000	6.983127	0.103960	NaN	0.000000	0.001691	0.001726	28.0835	0.082002	0.002030	40.397	52.3732	-165.195	0.021585	0.981919	-0.224921	-0.226212	0.103960	40.397	-0.226851	-357.026	-0.000291	NaN
1115	1.000000	0.993231	7.37596e+06	-55889.1	1055.82	-29740.3	0.000000	0.000000	6.993147	0.052422	NaN	0.000000	0.001638	0.001731	28.0837	0.054940	0.002031	27.0518	-12.419	15.3155	-0.037345	0.991912	-0.214899	-0.216219	0.052422	27.0518	-0.216353	-242.802	-0.000216	NaN
1115	1.000000	1.003214	7.37596e+06	-55889.1	1055.82	-29740.3	0.000000	0.000000	7.003126	-0.016095	NaN	0.000000	0.001626	0.001686	28.0836	0.045659	0.002035	22.4387	4.231196	-165.386	-0.075734	1.001952	-0.204917	-0.206179	-0.016095	22.4387	-0.204379	-155.39	0.000104	NaN
1115	1.000000	1.013193	7.37596e+06	-55889.1	1055.82	-29740.3	0.000000	0.000000	7.013106	-0.018575	NaN	0.000000	0.001643	0.001717	28.0847	0.099110	0.001956	50.6769	36.1043	11.3632	-0.006594	1.011878	-0.194937	-0.196253	-0.018575	50.6769	-0.194662	-107.55	0.000173	NaN
1115	1.000000	1.023246	7.37596e+06	-55889.1	1055.82	-29740.3	0.000000	0.000000	7.023159	-0.004380	NaN	0.000000	0.001628	0.001721	28.0851	0.069776	0.002107	33.1216	48.4958	-168.989	-0.008806	1.021918	-0.184885	-0.186213	-0.004380	33.1216	-0.184786	-73.54	5.956522E-5	NaN
1115	1.000000	1.033237	7.37596e+06	-55889.1	1055.82	-29740.3	0.000000	0.000000	7.033146	-0.086709	NaN	0.000000	0.001682	0.001692	28.0849	0.006457	0.001905	3.388957	-101.208	12.3498	-0.033167	1.031880	-0.174894	-0.176251	-0.086709	3.388957	-0.155705	-22.9747	0.003774	NaN
1115	1.000000	1.043243	7.37596e+06	-55889.1	1055.82	-29740.3	0.000000	0.000000	7.043155	-0.018353	NaN	0.000000	0.001671	0.001742	28.0849	0.090794	0.001941	46.7704	-167.641	-168.401	-0.012292	1.041942	-0.164888	-0.166189	-0.018353	46.7704	-0.164593	-33.0493	0.000555	NaN
1115	1.000000	1.053266	7.37596e+06	-55889.1	1055.82	-29740.3	0.000000	0.000000	7.053180	0.003762	NaN	0.000000	0.001665	0.001711	28.0848	0.079943	0.001812	44.1284	103.108	14.7655	0.082909	1.051890	-0.154864	-0.156240	0.003762	44.1284	-0.154928	-22.248	-0.000169	NaN
1115	1.000000	1.063271	7.37596e+06	-55889.1	1055.82	-29740.3	0.000000	0.000000	7.063184	0.006466	NaN	0.000000	0.001626	0.001741	28.0852	0.117497	0.002119	55.4512	-8.110410	-166.36	-0.005470	1.061953	-0.144860	-0.146177	0.006466	55.4512	-0.144947	-14.6284	-0.000442	NaN
1115	1.000000	1.073257	7.37596e+06	-55889.1	1055.82	-29740.3	0.000000	0.000000	7.073172	0.052257	NaN	0.000000	0.001629	0.001715	28.085	0.051783	0.002042	25.3545	33.8561	10.4478	0.051873	1.071913	-0.134874	-0.136218	0.052257	25.3545	-0.136420	-10.1234	-0.005162	NaN
1115	1.000000	1.083288	7.37596e+06	-55889.1	1055.82	-29740.3	0.000000	0.000000	7.083204	0.082430	NaN	0.000000	0.001600	0.001712	28.0852	0.093192	0.002107	44.2389	-126.807	-166.076	0.096823	1.081903	-0.124843	-0.126227	0.082430	44.2389	-0.126240	-6.433986	-0.012812	NaN
1115	1.000000	1.093257	7.37596e+06	-55889.1	1055.82	-29740.3	0.000000	0.000000	7.093173	0.057054	NaN	0.000000	0.001629	0.001713	28.0852	0.060161	0.002110	28.5154	-90.2568	14.0884	0.014804	1.091907	-0.114874	-0.116223	0.057054	28.5154	-0.116374	-4.077095	-0.013994	NaN
1115	1.000000	1.103252	7.37596e+06	-55889.1	1055.82	-29740.3	0.000000	0.000000	7.103166	0.006633	NaN	0.000000	0.001598	0.001727	28.0856	0.030574	0.002077	14.718	150.277	-168.4	0.089932	1.102015	-0.104879	-0.106116	0.006633	14.718	-0.105217	-2.376020	-0.002791	NaN
1115	1.000000	1.113250	7.37596e+06	-55889.1	1055.82	-29740.3	0.000000	0.000000	7.113168	0.127513	NaN	0.000000	0.001609	0.001708	28.0852	0.088968	0.001923	46.2661	136.294	13.6714	0.091181	1.111891	-0.094881	-0.096240	0.127513	46.2661	-0.096948	-1.561557	-0.081658	NaN
1115	1.000000	1.123296	7.37596e+06	-55889.1	1055.82	-29740.3	0.000000	0.000000	7.123209	-0.015890	NaN	0.000000	0.001652	0.001727	28.0851	0.024155	0.002103	11.4874	-102.506	-166.321	0.049840	1.121953	-0.084834	-0.086178	-0.015890	11.4874	-0.083797	-0.768153	0.020685	NaN
1115	1.000000	1.133328	7.37596e+06	-55889.1	1055.82	-29740.3	0.000000	0.000000	7.133241	-0.001555	NaN	0.000000	0.001661	0.001714	28.0854	0.077905	0.002160	36.0668	-58.1656	12.5496	0.021167	1.131923	-0.074803	-0.076208	-0.001555	36.0668	-0.074771	-0.455596	0.003413	NaN
1115	1.000000	1.143268	7.37596e+06	-55889.1	1055.82	-29740.3	0.000000	0.000000	7.143181	0.006845	NaN	0.000000	0.001656	0.001705	28.0842	0.093807	0.002030	46.2203	-125.487	-167.357	0.034659	1.141971	-0.064863	-0.066160	0.006845	46.2203	-0.064974	-0.248804	-0.027512	NaN
1115	1.000000	1.153307	7.37596e+06	-55889.1	1055.82	-29740.3	0.000000	0.000000	7.153219	-0.028166	NaN	0.000000	0.001685	0.001721	28.0836	0.060758	0.002148	28.2921	-6.743880	12.3098	-0.063646	1.151893	-0.054823	-0.056238	-0.028166	28.2921	-0.054077	-0.120917	0.232941	NaN
1115	1.000000	1.163306	7.37596e+06	-55889.1	1055.82	-29740.3	0.000000	0.000000	7.163219	-0.002141	NaN	0.000000	0.001657	0.001741	28.0838	0.065331	0.001975	33.0758	-122.303	-163.175	-0.049581	1.161957	-0.044825	-0.046173	-0.002141	33.0758	-0.044776	-0.063263	0.033835	NaN
1115	1.000000	1.173319	7.37596e+06	-55889.1	1055.82	-29740.3	0.000000	0.000000	7.173231	-0.026562	NaN	0.000000	0.001659	0.001723	28.0839	0.042260	0.002089	20.228	-75.9569	12.4508	0.043770	1.171946	-0.034812	-0.036185	-0.026562	20.228	-0.033827	-0.029588	0.897731	NaN
1115	1.000000	1.183317	7.37596e+06	-55889.1	1055.82	-29740.3	0.000000	0.000000	7.183234	0.089510	NaN	0.000000	0.001667	0.001729	28.0861	0.064477	0.001955	32.98	11.4258	-168.544	0.087133	1.181971	-0.024813	-0.026160	0.089510	32.98	-0.026849	-0.018878	-4.741395	NaN
1115	1.000000	1.193299	7.37596e+06	-55889.1	1055.82	-29740.3	0.000000	0.000000	7.193214	0.035672	NaN	0.000000	0.001654	0.001745	28.086	0.065985	0.002010	32.8314	-3.368559	14.3061	0.059013	1.191960	-0.014832	-0.016170	0.035672	32.8314	-0.015647	-0.009666	-3.690340	NaN
1115	1.000000	1.203289	7.37596e+06	-55889.1	1055.82	-29740.3	0.000000	0.000000	7.203290	2.135712	NaN	0.000000	0.001663	0.001758	28.0843	1.407519	0.001854	759.087	8.419191	-165.993	1.788043	1.202002	-0.004841	-0.006129	2.135712	759.087	-0.006952	-0.004611	-463.13	NaN
1115	2.000000	1.213130	7.37596e+06	-55889.1	1055.82	-29740.3	0.000000	0.000000	7.213354	7.558079	NaN	0.000000	0.001656	0.001771	28.084	7.782430	0.001706	4563.05	13.8794	5.821264	6.882258	1.211966	0.005000	0.003835	7.558079	4563.05	0.003757	0.003027	2496.62	75770.2
1115	2.000000	1.215944	7.37596e+06	-55889.1	1055.82	-29740.3	0.000000	0.000000	7.216336	11.6337	NaN	0.000000	0.001642	0.001747	28.0841	10.9724	0.001610	6813.65	8.402110	-174.727	11.588	1.215632	0.007814	0.007501	11.6337	6813.65	0.006533	0.005576	2086.24	83363.6
1115	2.000000	1.218432	7.37596e+06	-55889.1	1055.82	-29740.3	0.000000	0.000000	7.219039	16.8719	NaN	0.000000	0.001663	0.001743	28.0839	15.1005	0.001824	8278.72	9.102576	0.722337	15.7161	1.218026	0.010301	0.009896	16.8719	8278.72	0.008772	0.007849	2149.58	85375
1115	2.000000	1.220909	7.37596e+06	-55889.1	1055.82	-29740.3	0.000000	0.000000	7.221797	23.701	NaN	0.000000	0.001728	0.001746	28.0839	17.9903	0.001828	9840.22	7.781361	-177.383	24.2484	1.220579	0.012778	0.012448	23.701	9840.22	0.010971	0.010281	2305.26	88665.6
1115	2.000000	1.223420	7.37596e+06	-55889.1	1055.82	-29740.3	0.000000	0.000000	7.224816	36.0429	NaN	0.000000	0.001702	0.001772	28.0841	20.2108	0.001697	11909.7	7.056215	1.528229	34.7884	1.223047	0.015289	0.014916	36.0429	11909.7	0.013020	0.012735	2830.32	96423.3
1115	2.000000	1.225921	7.37596e+06	-55889.1	1055.82	-29740.3	0.000000	0.000000	7.227609	43.1368	NaN	0.000000	0.001707	0.001734	28.0839	23.5352	0.001708	13776.9	5.171628	-179.168	44.2024	1.225630	0.017790	0.017499	43.1368	13776.9	0.015442	0.015879	2716.55	99887.4
1115	2.000000	1.228383	7.37596e+06	-55889.1	1055.82	-29740.3	0.000000	0.000000	7.230613	56.3141	NaN	0.000000	0.001731	0.001725	28.0839	26.1872	0.001659	15782.3	2.680180	1.843880	54.3423	1.228061	0.020252	0.019930	56.3141	15782.3	0.017576	0.018875	2983.51	104954
1115	2.000000	1.230827	7.37596e+06	-55889.1	1055.82	-29740.3	0.000000	0.000000	7.233629	70.2145	NaN	0.000000	0.001702	0.001721	28.0851	29.9739	0.001800	16647.6	5.252234	178.691	67.809	1.230557	0.022696	0.022426	70.2145	16647.6	0.019533	0.021814	3218.8	102981
1115	2.000000	1.233377	7.37596e+06	-55889.1	1055.82	-29740.3	0.000000	0.000000	7.236687	82.5776	NaN	0.000000	0.001770	0.001745	28.085	32.2199	0.001743	18483	3.061479	0.396013	80.905	1.233082	0.025246	0.024951	82.5776	18483	0.021895	0.025609	3224.59	105524
1115	2.000000	1.235801	7.37596e+06	-55889.1	1055.82	-29740.3	0.000000	0.000000	7.240006	104.314	NaN	0.000000	0.001754	0.001742	28.0857	34.6107	0.001652	20950.8	3.377616	178.302	100.688	1.235510	0.027671	0.027379	104.314	20950.8	0.023936	0.029109	3583.6	112192
1115	2.000000	1.238263	7.37596e+06	-55889.1	1055.82	-29740.3	0.000000	0.000000	7.243041	118.255	NaN	0.000000	0.001691	0.001773	28.0851	38.1421	0.001841	20719.9	5.329763	-3.061475	114.464	1.238042	0.030133	0.029912	118.255	20719.9	0.025852	0.032584	3629.25	104872
1115	2.000000	1.240811	7.37596e+06	-55889.1	1055.82	-29740.3	0.000000	0.000000	7.246327	136.173	NaN	0.000000	0.001743	0.001770	28.0854	40.6191	0.001652	24587.7	4.890626	175.846	133.523	1.240466	0.032681	0.032335	136.173	24587.7	0.028527	0.037746	3607.59	115626
1115	2.000000	1.243304	7.37596e+06	-55889.1	1055.82	-29740.3	0.000000	0.000000	7.249608	155.356	NaN	0.000000	0.001711	0.001708	28.085	43.3544	0.001785	24292.7	5.973716	-4.582010	150.447	1.242946	0.035173	0.034816	155.356	24292.7	0.030376	0.041528	3741.04	108913
1115	2.000000	1.245799	7.37596e+06	-55889.1	1055.82	-29740.3	0.000000	0.000000	7.252908	174.909	NaN	0.000000	0.001706	0.001732	28.0851	45.5335	0.001808	25187.3	5.227119	176.019	173.209	1.245528	0.037668	0.037397	174.909	25187.3	0.032460	0.045997	3802.61	107297
1115	2.000000	1.248339	7.37596e+06	-55889.1	1055.82	-29740.3	0.000000	0.000000	7.256007	188.521	NaN	0.000000	0.001659	0.001754	28.085	49.0808	0.001792	27391.7	3.294146	-2.786403	187.453	1.247955	0.040208	0.039825	188.521	27391.7	0.035046	0.051854	3635.63	109901
1115	2.000000	1.250722	7.37596e+06	-55889.1	1055.82	-29740.3	0.000000	0.000000	7.259449	214.247	NaN	0.000000	0.001634	0.001753	28.0852	50.2637	0.001814	27715	1.033182	179.115	208.12	1.250426	0.042592	0.042295	214.247	27715	0.036794	0.056005	3825.49	106998
1115	2.000000	1.253275	7.37596e+06	-55889.1	1055.82	-29740.3	0.000000	0.000000	7.262934	236.912	NaN	0.000000	0.001636	0.001767	28.0849	52.2783	0.001803	29001.8	2.784749	-2.772717	230.978	1.252854	0.045144	0.044723	236.912	29001.8	0.039017	0.061513	3851.4	106835
1115	2.000000	1.255740	7.37596e+06	-55889.1	1055.82	-29740.3	0.000000	0.000000	7.266227	257.021	NaN	0.000000	0.001632	0.001736	28.0848	54.7452	0.001666	32853.9	3.110746	175.218	252.226	1.255465	0.047610	0.047334	257.021	32853.9	0.041742	0.068608	3746.22	114597
1115	2.000000	1.258179	7.37596e+06	-55889.1	1055.82	-29740.3	0.000000	0.000000	7.269824	285.175	NaN	0.000000	0.001630	0.001766	28.0851	58.595	0.001818	32235.9	8.081367	-8.629489	277.604	1.257841	0.050048	0.049710	285.175	32235.9	0.043413	0.073147	3898.67	108897
1115	2.000000	1.260853	7.37596e+06	-55889.1	1055.82	-29740.3	0.000000	0.000000	7.273400	307.092	NaN	0.000000	0.001660	0.001758	28.0851	60.9143	0.001814	33586.1	2.658779	176.326	309.588	1.260547	0.052722	0.052416	307.092	33586.1	0.045865	0.080061	3835.72	108448
1115	2.000000	1.263437	7.37596e+06	-55889.1	1055.82	-29740.3	0.000000	0.000000	7.276473	319	NaN	0.000000	0.001632	0.001726	28.0851	63.1645	0.001741	36277.1	4.036236	-5.666487	321.826	1.263293	0.055306	0.055162	319	36277.1	0.048711	0.088470	3605.74	111431
1115	2.000000	1.265800	7.37596e+06	-55889.1	1055.82	-29740.3	0.000000	0.000000	7.280379	356.509	NaN	0.000000	0.001664	0.001726	28.0838	65.2558	0.001731	37697.2	2.736458	175.681	356.871	1.265479	0.057669	0.057348	356.509	37697.2	0.050576	0.094202	3784.51	112215
1115	2.000000	1.268233	7.37596e+06	-55889.1	1055.82	-29740.3	0.000000	0.000000	7.284356	394.037	NaN	0.000000	0.001623	0.001765	28.0838	68.4611	0.001801	38017.3	3.838000	-6.175353	387.456	1.267833	0.060102	0.059703	394.037	38017.3	0.052328	0.099746	3950.41	109978
1115	2.000000	1.270794	7.37596e+06	-55889.1	1055.82	-29740.3	0.000000	0.000000	7.288142	423.794	NaN	0.000000	0.001602	0.001741	28.0838	72.478	0.001837	39463.2	9.010678	168.8	421.689	1.270457	0.062664	0.062326	423.794	39463.2	0.054610	0.107192	3953.61	110125
1115	2.000000	1.273495	7.37596e+06	-55889.1	1055.82	-29740.3	0.000000	0.000000	7.291212	432.757	NaN	0.000000	0.001610	0.001721	28.0838	74.9863	0.001773	42299.9	9.058413	-11.1835	441.519	1.272908	0.065364	0.064777	432.757	42299.9	0.057691	0.117660	3678.04	112667
1115	2.000000	1.275759	7.37596e+06	-55889.1	1055.82	-29740.3	0.000000	0.000000	7.295305	477.232	NaN	0.000000	0.001658	0.001707	28.0838	76.2767	0.001806	42232.6	6.419636	170.26	474.198	1.275436	0.067628	0.067306	477.232	42232.6	0.059153	0.122789	3886.61	110114
1115	2.000000	1.278184	7.37596e+06	-55889.1	1055.82	-29740.3	0.000000	0.000000	7.298975	507.506	NaN	0.000000	0.001671	0.001759	28.084	77.1105	0.001671	46151	2.357097	-6.089349	499.03	1.277876	0.070053	0.069745	507.506	46151	0.061806	0.132362	3834.21	115897
1115	2.000000	1.280706	7.37596e+06	-55889.1	1055.82	-29740.3	0.000000	0.000000	7.302999	544.015	NaN	0.000000	0.001691	0.001738	28.0839	81.5578	0.001822	44769.3	4.655040	172.078	538.925	1.280463	0.072575	0.072332	544.015	44769.3	0.063461	0.138512	3927.57	109903
1115	2.000000	1.283122	7.37596e+06	-55889.1	1055.82	-29740.3	0.000000	0.000000	7.306847	578.823	NaN	0.000000	0.001685	0.001738	28.0839	83.4736	0.001704	48973.7	6.185677	-10.6164	568.263	1.282858	0.074991	0.074727	578.823	48973.7	0.066127	0.148691	3892.8	116036
1115	2.000000	1.285647	7.37596e+06	-55889.1	1055.82	-29740.3	0.000000	0.000000	7.311362	627.181	NaN	0.000000	0.001682	0.001750	28.0844	85.0995	0.001886	45118.9	4.195904	172.789	619.108	1.285419	0.077517	0.077289	627.181	45118.9	0.067091	0.152457	4113.83	105574
1115	2.000000	1.288177	7.37596e+06	-55889.1	1055.82	-29740.3	0.000000	0.000000	7.314778	648.722	NaN	0.000000	0.001679	0.001727	28.0841	87.8675	0.001945	45171	2.166997	-5.665013	639.755	1.287784	0.080046	0.079654	648.722	45171	0.069275	0.161151	4025.56	102806
1115	2.000000	1.290788	7.37596e+06	-55889.1	1055.82	-29740.3	0.000000	0.000000	7.317085	641.34	NaN	0.000000	0.001664	0.001744	28.0839	89.7009	0.001773	50601.2	1.355222	173.853	636.552	1.290610	0.082657	0.082479	641.34	50601.2	0.073151	0.177142	3620.49	109843
1115	2.000000	1.293094	7.37596e+06	-55889.1	1055.82	-29740.3	0.000000	0.000000	7.322805	724.338	NaN	0.000000	0.001696	0.001765	28.0842	91.6248	0.001742	52587	6.364863	-10.9786	710.312	1.292754	0.084963	0.084624	724.338	52587	0.074632	0.183441	3948.63	112177
1115	2.000000	1.295578	7.37596e+06	-55889.1	1055.82	-29740.3	0.000000	0.000000	7.325402	727.065	NaN	0.000000	0.001679	0.001721	28.084	94.8352	0.001810	52383.6	3.699068	171.427	715.899	1.295340	0.087447	0.087209	727.065	52383.6	0.077037	0.193886	3749.96	108691
1115	2.000000	1.298190	7.37596e+06	-55889.1	1055.82	-29740.3	0.000000	0.000000	7.329502	763.249	NaN	0.000000	0.001713	0.001722	28.0851	98.4504	0.001801	54672.7	2.025051	-7.126314	754.05	1.297893	0.090059	0.089762	763.249	54672.7	0.079589	0.205265	3718.35	110252
1115	2.000000	1.300883	7.37596e+06	-55889.1	1055.82	-29740.3	0.000000	0.000000	7.334051	808.344	NaN	0.000000	0.001718	0.001719	28.0849	101.561	0.001827	55597.2	3.809141	171.256	813.937	1.300695	0.092752	0.092564	808.344	55597.2	0.081848	0.215594	3749.37	109397
1115	2.000000	1.303305	7.37596e+06	-55889.1	1055.82	-29740.3	0.000000	0.000000	7.336940	819.703	NaN	0.000000	0.001738	0.001765	28.0854	103.154	0.001851	55728.5	2.565950	-7.648558	815.709	1.303175	0.095174	0.095044	819.703	55728.5	0.084143	0.226329	3621.73	107024
1115	2.000000	1.305808	7.37596e+06	-55889.1	1055.82	-29740.3	0.000000	0.000000	7.341998	881.785	NaN	0.000000	0.001688	0.001784	28.0851	105.033	0.001687	62273.9	5.875283	168.609	884.508	1.305387	0.097678	0.097256	881.785	62273.9	0.087058	0.240316	3669.27	116061
1115	2.000000	1.308219	7.37596e+06	-55889.1	1055.82	-29740.3	0.000000	0.000000	7.346355	929.109	NaN	0.000000	0.001697	0.001773	28.0854	106.759	0.001776	60112	4.901054	-10.4615	922.833	1.307832	0.100088	0.099701	929.109	60112	0.088496	0.247359	3756.11	110426
1115	2.000000	1.310672	7.37596e+06	-55889.1	1055.82	-29740.3	0.000000	0.000000	7.350110	960.753	NaN	0.000000	0.001708	0.001750	28.085	109.887	0.001892	58078.5	7.698415	167.512	956.086	1.310302	0.102541	0.102172	960.753	58078.5	0.090134	0.255502	3760.26	104976
1115	2.000000	1.312119	7.37596e+06	-55889.1	1055.82	-29740.3	0.000000	0.000000	7.350220	928.259	NaN	0.000000	0.001705	0.001729	28.0849	109.966	0.001875	58662.2	3.536543	-9.287783	917.935	1.312036	0.103989	0.103906	928.259	58662.2	0.092121	0.265537	3495.78	104008