File: remote_trans/data/nanoindenter/0828-1/data/Data_2025-08-06,11h17m57s/2025-07-22_16-23-58_1_227.txt
2025-07-22, 16:23:58, 1
Index	Phase	Displacement	Time	Pos X	Pos Y	Pos Z	Rot A	Rot B	Piezo Z	Force A	Force B	Gripper	Voltage A	Voltage B	Temperature	Amplitude force	Amplitude pos	Stiffness	Phase shift	Phase excitation	Force A raw	Displacement raw	HMax	HMax raw	Real Force	Real Stiffness	Contact Depth	Area	Hardness	Reduced Mod.
[#]	[#]	[um]	[s]	[um]	[um]	[um]	[m°]	[m°]	[um]	[uN]	[uN]	[V]	[V]	[V]	[°C]	[uN]	[um]	[N/m]	[°]	[°]	[uN]	[um]	[um]	[um]	[uN]	[N/m]	[um]	[um^2]	[MPa]	[MPa]
227	1.000000	0.002557	7.36727e+06	-49989.1	955.818	-29757.5	0.000000	0.000000	6.002818	0.050941	NaN	0.000000	0.001552	0.001694	28.0797	0.082080	0.001061	77.377	-117.206	-172.64	0.028458	0.001256	-1.131761	-1.133062	0.050941	77.377	-1.132255	-1.357910E+15	-3.751422E-17	NaN
227	1.000000	0.012612	7.36727e+06	-49989.1	955.819	-29757.5	0.000000	0.000000	6.012870	-0.038703	NaN	0.000000	0.001532	0.001662	28.0795	0.067541	0.001219	55.4076	-73.1922	17.7104	0.005794	0.011164	-1.121706	-1.123154	-0.038703	55.4076	-1.121182	-9.645658E+14	4.012476E-17	NaN
227	1.000000	0.022500	7.36727e+06	-49989.1	955.818	-29757.5	0.000000	0.000000	6.022758	-0.009578	NaN	0.000000	0.001584	0.001643	28.079	0.055790	0.001606	34.7479	37.7653	-167.273	-0.117456	0.021204	-1.111819	-1.113114	-0.009578	34.7479	-1.111612	-7.176654E+14	1.334579E-17	NaN
227	1.000000	0.032485	7.36727e+06	-49989.1	955.818	-29757.5	0.000000	0.000000	6.032749	0.136311	NaN	0.000000	0.001561	0.001666	28.0785	0.077144	0.001920	40.1839	18.4863	13.4519	0.103512	0.031162	-1.101834	-1.103156	0.136311	40.1839	-1.104378	-5.738933E+14	-2.375204E-16	NaN
227	1.000000	0.042478	7.36727e+06	-49989.1	955.818	-29757.5	0.000000	0.000000	6.042738	0.028415	NaN	0.000000	0.001537	0.001665	28.0784	0.040940	0.001946	21.0364	-175.399	-164.93	0.029614	0.041170	-1.091841	-1.093148	0.028415	21.0364	-1.092854	-4.019079E+14	-7.069973E-17	NaN
227	1.000000	0.052475	7.36727e+06	-49989.1	955.819	-29757.5	0.000000	0.000000	6.052734	-0.001456	NaN	0.000000	0.001526	0.001686	28.0785	0.054293	0.001995	27.2189	137.137	13.1186	-0.004046	0.051154	-1.081843	-1.083164	-0.001456	27.2189	-1.081803	-2.855851E+14	5.097973E-18	NaN
227	1.000000	0.062511	7.36727e+06	-49989.1	955.819	-29757.5	0.000000	0.000000	6.062770	-0.011291	NaN	0.000000	0.001544	0.001654	28.0787	0.028055	0.002012	13.9467	38.5324	-163.996	0.035325	0.061200	-1.071807	-1.073119	-0.011291	13.9467	-1.071200	-2.057359E+14	5.488261E-17	NaN
227	1.000000	0.072501	7.36727e+06	-49989.1	955.817	-29757.5	0.000000	0.000000	6.072760	-0.006178	NaN	0.000000	0.001551	0.001654	28.0781	0.110999	0.002002	55.441	-34.3983	17.194	-0.026024	0.071151	-1.061817	-1.063167	-0.006178	55.441	-1.061734	-1.535040E+14	4.024637E-17	NaN
227	1.000000	0.082495	7.36727e+06	-49989.1	955.818	-29757.5	0.000000	0.000000	6.082753	-0.007177	NaN	0.000000	0.001537	0.001663	28.0786	0.050700	0.002060	24.6122	143.379	-166.075	-0.004356	0.081169	-1.051824	-1.053150	-0.007177	24.6122	-1.051605	-1.121992E+14	6.396904E-17	NaN
227	1.000000	0.092533	7.36727e+06	-49989.1	955.818	-29757.5	0.000000	0.000000	6.092796	0.101194	NaN	0.000000	0.001567	0.001675	28.0783	0.106196	0.002086	50.9016	62.9259	17.1411	0.063101	0.091129	-1.041785	-1.043189	0.101194	50.9016	-1.043276	-8.669972E+13	-1.167179E-15	NaN
227	1.000000	0.102508	7.36727e+06	-49989.1	955.817	-29757.5	0.000000	0.000000	6.102768	0.026721	NaN	0.000000	0.001561	0.001663	28.0782	0.055161	0.001959	28.1555	30.4474	-162.454	0.019547	0.101161	-1.031810	-1.033158	0.026721	28.1555	-1.032522	-6.214479E+13	-4.299856E-16	NaN
227	1.000000	0.112509	7.36727e+06	-49989.1	955.818	-29757.5	0.000000	0.000000	6.112771	0.093605	NaN	0.000000	0.001578	0.001679	28.0782	0.092766	0.002130	43.5458	-48.1556	14.3698	0.055162	0.111163	-1.021810	-1.023156	0.093605	43.5458	-1.023422	-4.688038E+13	-1.996672E-15	NaN
227	1.000000	0.122527	7.36727e+06	-49989.1	955.818	-29757.5	0.000000	0.000000	6.122787	0.015204	NaN	0.000000	0.001568	0.001667	28.0782	0.101112	0.002011	50.2703	-111.932	-162.177	-0.045312	0.121204	-1.011791	-1.013114	0.015204	50.2703	-1.012018	-3.292598E+13	-4.617772E-16	NaN
227	1.000000	0.132536	7.36727e+06	-49989.1	955.819	-29757.5	0.000000	0.000000	6.132797	0.052151	NaN	0.000000	0.001546	0.001653	28.0786	0.031619	0.001916	16.5061	-138.909	16.0235	0.086468	0.131117	-1.001783	-1.003202	0.052151	16.5061	-1.004152	-2.580309E+13	-2.021130E-15	NaN
227	1.000000	0.142532	7.36727e+06	-49989.1	955.819	-29757.5	0.000000	0.000000	6.142794	0.062859	NaN	0.000000	0.001568	0.001667	28.0783	0.032289	0.001819	17.7524	66.7729	-167.122	0.069430	0.141239	-0.991786	-0.993080	0.062859	17.7524	-0.994442	-1.909546E+13	-3.291815E-15	NaN
227	1.000000	0.152526	7.36727e+06	-49989.1	955.819	-29757.5	0.000000	0.000000	6.152788	0.082361	NaN	0.000000	0.001563	0.001639	28.0781	0.032717	0.001939	16.8743	41.4403	16.1753	0.040034	0.151165	-0.981793	-0.983153	0.082361	16.8743	-0.985453	-1.445022E+13	-5.699657E-15	NaN
227	1.000000	0.162545	7.36727e+06	-49989.1	955.818	-29757.5	0.000000	0.000000	6.162804	-0.005450	NaN	0.000000	0.001583	0.001665	28.0795	0.067506	0.002022	33.3811	56.9235	-161.827	0.028200	0.161225	-0.971774	-0.973093	-0.005450	33.3811	-0.971651	-9.417040E+12	5.787879E-16	NaN
227	1.000000	0.172533	7.36727e+06	-49989.1	955.819	-29757.5	0.000000	0.000000	6.172793	0.016685	NaN	0.000000	0.001597	0.001642	28.08	0.085933	0.001979	43.424	178.193	14.1491	-0.022373	0.171228	-0.961785	-0.963091	0.016685	43.424	-0.962074	-6.995577E+12	-2.385039E-15	NaN
227	1.000000	0.182535	7.36727e+06	-49989.1	955.819	-29757.5	0.000000	0.000000	6.182795	0.045156	NaN	0.000000	0.001572	0.001631	28.0794	0.038831	0.001968	19.7291	-169.93	-165.885	0.037998	0.181249	-0.951784	-0.953069	0.045156	19.7291	-0.953500	-5.360853E+12	-8.423216E-15	NaN
227	1.000000	0.192550	7.36727e+06	-49989.1	955.819	-29757.5	0.000000	0.000000	6.192811	0.045130	NaN	0.000000	0.001571	0.001670	28.0797	0.112418	0.002174	51.7202	-165.182	14.5546	0.037514	0.191215	-0.941769	-0.943104	0.045130	51.7202	-0.942423	-3.800370E+12	-1.187520E-14	NaN
227	1.000000	0.202573	7.36727e+06	-49989.1	955.819	-29757.5	0.000000	0.000000	6.202837	0.131113	NaN	0.000000	0.001581	0.001662	28.0795	0.010315	0.002024	5.095967	41.5401	-166.996	0.054174	0.201221	-0.931746	-0.933097	0.131113	5.095967	-0.951042	-4.966904E+12	-2.639740E-14	NaN
227	1.000000	0.212555	7.36727e+06	-49989.1	955.817	-29757.5	0.000000	0.000000	6.212816	0.031603	NaN	0.000000	0.001595	0.001705	28.0798	0.058734	0.001988	29.5475	26.5766	13.877	0.135482	0.211215	-0.921763	-0.923104	0.031603	29.5475	-0.922565	-2.050404E+12	-1.541327E-14	NaN
227	1.000000	0.222552	7.36727e+06	-49989.1	955.818	-29757.5	0.000000	0.000000	6.222812	0.012024	NaN	0.000000	0.001614	0.001654	28.0792	0.065965	0.001999	32.9911	120.148	-162.924	0.021612	0.221249	-0.911766	-0.913069	0.012024	32.9911	-0.912039	-1.478113E+12	-8.134764E-15	NaN
227	1.000000	0.232554	7.36727e+06	-49989.1	955.819	-29757.5	0.000000	0.000000	6.232816	0.057141	NaN	0.000000	0.001580	0.001684	28.0795	0.068993	0.002058	33.5257	101.833	13.5451	0.021123	0.231203	-0.901764	-0.903115	0.057141	33.5257	-0.903042	-1.117313E+12	-5.114126E-14	NaN
227	1.000000	0.242564	7.36727e+06	-49989.1	955.819	-29757.5	0.000000	0.000000	6.242820	-0.072357	NaN	0.000000	0.001579	0.001653	28.0795	0.062453	0.001994	31.3232	-96.4817	-164.955	-0.045668	0.241285	-0.891754	-0.893034	-0.072357	31.3232	-0.890022	-7.450922E+11	9.711127E-14	NaN
227	1.000000	0.252561	7.36727e+06	-49989.1	955.818	-29757.5	0.000000	0.000000	6.252822	0.047630	NaN	0.000000	0.001566	0.001646	28.0797	0.069289	0.002002	34.6144	-147.063	16.4126	0.045869	0.251256	-0.881757	-0.883062	0.047630	34.6144	-0.882789	-5.948756E+11	-8.006645E-14	NaN
227	1.000000	0.262588	7.36727e+06	-49989.1	955.817	-29757.5	0.000000	0.000000	6.262847	0.010529	NaN	0.000000	0.001565	0.001641	28.0793	0.107652	0.001874	57.439	105.192	-167.471	0.095450	0.261285	-0.871730	-0.873033	0.010529	57.439	-0.871868	-4.233641E+11	-2.486991E-14	NaN
227	1.000000	0.272571	7.36727e+06	-49989.1	955.819	-29757.5	0.000000	0.000000	6.272831	0.042520	NaN	0.000000	0.001589	0.001625	28.0795	0.016944	0.002100	8.066938	83.3562	14.1987	-0.035412	0.271233	-0.861748	-0.863086	0.042520	8.066938	-0.865701	-3.493614E+11	-1.217067E-13	NaN
227	1.000000	0.282591	7.36727e+06	-49989.1	955.818	-29757.5	0.000000	0.000000	6.282850	-0.006624	NaN	0.000000	0.001536	0.001627	28.0799	0.008555	0.002054	4.164469	83.4717	-167.732	-0.023704	0.281310	-0.851728	-0.853009	-0.006624	4.164469	-0.850535	-2.177594E+11	3.041888E-14	NaN
227	1.000000	0.292596	7.36727e+06	-49989.1	955.819	-29757.5	0.000000	0.000000	6.292854	-0.021904	NaN	0.000000	0.001553	0.001679	28.0797	0.060092	0.002084	28.8362	-46.639	15.3713	0.068890	0.291277	-0.841723	-0.843041	-0.021904	28.8362	-0.841153	-1.625224E+11	1.347731E-13	NaN
227	1.000000	0.302596	7.36727e+06	-49989.1	955.818	-29757.5	0.000000	0.000000	6.302856	0.023370	NaN	0.000000	0.001522	0.001668	28.0782	0.042832	0.001998	21.4398	-37.6496	-163.456	-0.032742	0.301334	-0.831722	-0.832984	0.023370	21.4398	-0.832540	-1.242247E+11	-1.881266E-13	NaN
227	1.000000	0.312604	7.36727e+06	-49989.1	955.818	-29757.5	0.000000	0.000000	6.312862	-0.007650	NaN	0.000000	0.001553	0.001677	28.0783	0.056053	0.001945	28.8241	115.072	13.2661	-0.041713	0.311209	-0.821715	-0.823109	-0.007650	28.8241	-0.821516	-8.805734E+10	8.688026E-14	NaN
227	1.000000	0.322597	7.36727e+06	-49989.1	955.818	-29757.5	0.000000	0.000000	6.322861	0.131907	NaN	0.000000	0.001610	0.001674	28.0784	0.088724	0.002009	44.1605	-53.073	-160.719	0.113074	0.321293	-0.811722	-0.813025	0.131907	44.1605	-0.813962	-6.955318E+10	-1.896487E-12	NaN
227	1.000000	0.332582	7.36727e+06	-49989.1	955.819	-29757.5	0.000000	0.000000	6.332842	0.028125	NaN	0.000000	0.001593	0.001670	28.0783	0.043387	0.002051	21.1515	18.7911	16.2505	0.031649	0.331271	-0.801736	-0.803048	0.028125	21.1515	-0.802733	-4.897377E+10	-5.742811E-13	NaN
227	1.000000	0.342614	7.36727e+06	-49989.1	955.818	-29757.5	0.000000	0.000000	6.342873	-0.002063	NaN	0.000000	0.001566	0.001656	28.0783	0.033974	0.002014	16.872	109.425	-168.115	0.048887	0.341253	-0.791704	-0.793065	-0.002063	16.872	-0.791612	-3.459247E+10	5.963694E-14	NaN
227	1.000000	0.352639	7.36727e+06	-49989.1	955.818	-29757.5	0.000000	0.000000	6.352897	-0.013340	NaN	0.000000	0.001575	0.001669	28.0784	0.032288	0.001990	16.2279	163.817	15.1423	0.049439	0.351261	-0.781680	-0.783057	-0.013340	16.2279	-0.781063	-2.487016E+10	5.363783E-13	NaN
227	1.000000	0.362641	7.36727e+06	-49989.1	955.819	-29757.5	0.000000	0.000000	6.362899	-0.026858	NaN	0.000000	0.001602	0.001657	28.0785	0.049474	0.001920	25.772	83.9163	-164.379	0.036216	0.361345	-0.771677	-0.772973	-0.026858	25.772	-0.770896	-1.809188E+10	1.484550E-12	NaN
227	1.000000	0.372653	7.36727e+06	-49989.1	955.817	-29757.5	0.000000	0.000000	6.372908	-0.087919	NaN	0.000000	0.001596	0.001641	28.0785	0.111131	0.001996	55.6841	-2.319693	11.3013	-0.055186	0.371285	-0.761666	-0.763033	-0.087919	55.6841	-0.760481	-1.305722E+10	6.733356E-12	NaN
227	1.000000	0.382617	7.36727e+06	-49989.1	955.818	-29757.5	0.000000	0.000000	6.382879	0.079968	NaN	0.000000	0.001578	0.001667	28.0785	0.054351	0.001991	27.3025	154.602	-167.513	0.043630	0.381267	-0.751702	-0.753051	0.079968	27.3025	-0.753898	-1.062380E+10	-7.527215E-12	NaN
227	1.000000	0.392657	7.36727e+06	-49989.1	955.819	-29757.5	0.000000	0.000000	6.392914	-0.048456	NaN	0.000000	0.001577	0.001643	28.0786	0.058322	0.002061	28.2967	94.2471	13.6818	0.034479	0.391259	-0.741661	-0.743059	-0.048456	28.2967	-0.740377	-6.953275E+9	6.968864E-12	NaN
227	1.000000	0.402646	7.36727e+06	-49989.1	955.819	-29757.5	0.000000	0.000000	6.402905	0.005329	NaN	0.000000	0.001587	0.001640	28.0785	0.097617	0.002007	48.6355	7.240532	-164.273	-0.041283	0.401354	-0.731672	-0.732965	0.005329	48.6355	-0.731755	-5.305421E+9	-1.004441E-12	NaN
227	1.000000	0.412643	7.36727e+06	-49989.1	955.819	-29757.5	0.000000	0.000000	6.412902	0.005682	NaN	0.000000	0.001569	0.001628	28.0784	0.071716	0.002045	35.0723	175.486	13.3377	-0.000915	0.411246	-0.721675	-0.723072	0.005682	35.0723	-0.721797	-3.881288E+9	-1.463887E-12	NaN
227	1.000000	0.422633	7.36727e+06	-49989.1	955.818	-29757.5	0.000000	0.000000	6.422891	-0.012692	NaN	0.000000	0.001574	0.001668	28.0785	0.112879	0.002017	55.9512	149.163	-163.147	0.015692	0.421292	-0.711686	-0.713026	-0.012692	55.9512	-0.711515	-2.810139E+9	4.516641E-12	NaN
227	1.000000	0.432692	7.36727e+06	-49989.1	955.818	-29757.5	0.000000	0.000000	6.432950	-0.018998	NaN	0.000000	0.001536	0.001717	28.0798	0.088349	0.001991	44.3832	-61.7533	16.0687	0.114590	0.431259	-0.701626	-0.703060	-0.018998	44.3832	-0.701305	-2.038723E+9	9.318351E-12	NaN
227	1.000000	0.442640	7.36727e+06	-49989.1	955.818	-29757.5	0.000000	0.000000	6.442899	0.002563	NaN	0.000000	0.001571	0.001669	28.0798	0.047619	0.001887	25.2309	178.063	-165.41	0.047594	0.441360	-0.691678	-0.692958	0.002563	25.2309	-0.691754	-1.509708E+9	-1.697963E-12	NaN
227	1.000000	0.452629	7.36727e+06	-49989.1	955.819	-29757.5	0.000000	0.000000	6.452889	0.020095	NaN	0.000000	0.001609	0.001671	28.0797	0.154123	0.002007	76.8067	-159.61	15.726	0.035972	0.451325	-0.681689	-0.682993	0.020095	76.8067	-0.681885	-1.106595E+9	-1.815911E-11	NaN
227	1.000000	0.462657	7.36727e+06	-49989.1	955.819	-29757.5	0.000000	0.000000	6.462918	0.037706	NaN	0.000000	0.001553	0.001649	28.0798	0.071667	0.001983	36.1345	23.7655	-166.375	0.081356	0.461393	-0.671661	-0.672925	0.037706	36.1345	-0.672444	-8.219284E+8	-4.587555E-11	NaN
227	1.000000	0.472676	7.36727e+06	-49989.1	955.818	-29757.5	0.000000	0.000000	6.472938	0.078064	NaN	0.000000	0.001577	0.001626	28.0797	0.046502	0.001946	23.9015	-18.4611	16.567	0.016893	0.471296	-0.661643	-0.663023	0.078064	23.9015	-0.664092	-6.317040E+8	-1.235767E-10	NaN
227	1.000000	0.482680	7.36727e+06	-49989.1	955.818	-29757.5	0.000000	0.000000	6.482944	0.107316	NaN	0.000000	0.001564	0.001644	28.0799	0.086402	0.002009	43.0114	-63.6233	-161.674	0.111250	0.481377	-0.651638	-0.652942	0.107316	43.0114	-0.653509	-4.524155E+8	-2.372077E-10	NaN
227	1.000000	0.492646	7.36727e+06	-49989.1	955.818	-29757.5	0.000000	0.000000	6.492904	-0.004821	NaN	0.000000	0.001559	0.001638	28.0796	0.134444	0.001900	70.7424	-151.108	15.963	0.044287	0.491360	-0.641673	-0.642959	-0.004821	70.7424	-0.641622	-3.108409E+8	1.550914E-11	NaN
227	1.000000	0.502664	7.36727e+06	-49989.1	955.819	-29757.5	0.000000	0.000000	6.502926	0.069108	NaN	0.000000	0.001536	0.001660	28.0796	0.122412	0.001955	62.61	33.4318	-166.689	0.030458	0.501382	-0.631654	-0.632937	0.069108	62.61	-0.632482	-2.328633E+8	-2.967761E-10	NaN
227	1.000000	0.512690	7.36727e+06	-49989.1	955.818	-29757.5	0.000000	0.000000	6.512950	0.025865	NaN	0.000000	0.001547	0.001613	28.0794	0.032058	0.002141	14.9706	-22.2747	14.0482	0.047179	0.511332	-0.621629	-0.622986	0.025865	14.9706	-0.622924	-1.721176E+8	-1.502765E-10	NaN
227	1.000000	0.522670	7.36727e+06	-49989.1	955.818	-29757.5	0.000000	0.000000	6.522930	0.011780	NaN	0.000000	0.001522	0.001627	28.0797	0.136250	0.001894	71.9469	-129.376	-164.993	0.052280	0.521423	-0.611648	-0.612895	0.011780	71.9469	-0.611771	-1.209143E+8	-9.742081E-11	NaN
227	1.000000	0.532670	7.36727e+06	-49989.1	955.818	-29757.5	0.000000	0.000000	6.532932	0.090543	NaN	0.000000	0.001561	0.001638	28.0794	0.066413	0.001907	34.8338	-165.5	9.494202	0.043114	0.531322	-0.601649	-0.602996	0.090543	34.8338	-0.603598	-9.332694E+7	-9.701700E-10	NaN
227	1.000000	0.542697	7.36727e+06	-49989.1	955.819	-29757.5	0.000000	0.000000	6.542956	0.001281	NaN	0.000000	0.001591	0.001605	28.0797	0.077786	0.001906	40.8194	-46.1109	-166.159	-0.014297	0.541391	-0.591621	-0.592927	0.001281	40.8194	-0.591645	-6.387646E+7	-2.005092E-11	NaN
227	1.000000	0.552707	7.36727e+06	-49989.1	955.819	-29757.5	0.000000	0.000000	6.552966	0.000834	NaN	0.000000	0.001568	0.001645	28.0793	0.089687	0.001985	45.1934	57.7643	16.8091	-0.029456	0.551341	-0.581611	-0.582978	0.000834	45.1934	-0.581625	-4.646745E+7	-1.793793E-11	NaN
227	1.000000	0.562711	7.36727e+06	-49989.1	955.819	-29757.5	0.000000	0.000000	6.562970	0.011571	NaN	0.000000	0.001556	0.001661	28.0796	0.045130	0.001984	22.7491	-156.438	-166.119	0.031490	0.561427	-0.571608	-0.572892	0.011571	22.7491	-0.571989	-3.420695E+7	-3.382744E-10	NaN
227	1.000000	0.572720	7.36727e+06	-49989.1	955.818	-29757.5	0.000000	0.000000	6.572979	0.000254	NaN	0.000000	0.001617	0.001654	28.0783	0.059019	0.002015	29.2856	79.8647	15.6131	0.015151	0.571324	-0.561599	-0.562994	0.000254	29.2856	-0.561605	-2.458011E+7	-1.035326E-11	NaN
227	1.000000	0.582703	7.36727e+06	-49989.1	955.818	-29757.5	0.000000	0.000000	6.582964	0.054664	NaN	0.000000	0.001594	0.001669	28.0785	0.059764	0.002079	28.7472	-179.335	-164.917	0.058028	0.581412	-0.551615	-0.552907	0.054664	28.7472	-0.553041	-1.871006E+7	-2.921622E-9	NaN
227	1.000000	0.592714	7.36727e+06	-49989.1	955.818	-29757.5	0.000000	0.000000	6.592973	-0.016076	NaN	0.000000	0.001619	0.001647	28.0783	0.088879	0.001980	44.8953	120.243	15.5617	-0.072766	0.591352	-0.541604	-0.542967	-0.016076	44.8953	-0.541335	-1.287886E+7	1.248215E-9	NaN
227	1.000000	0.602756	7.36727e+06	-49989.1	955.817	-29757.5	0.000000	0.000000	6.603014	-0.032574	NaN	0.000000	0.001545	0.001635	28.0783	0.054179	0.002047	26.4665	-111.245	-163.156	-0.044399	0.601414	-0.531562	-0.532905	-0.032574	26.4665	-0.530639	-9.15062e+06	3.559779E-9	NaN
227	1.000000	0.612693	7.36727e+06	-49989.1	955.819	-29757.5	0.000000	0.000000	6.612952	0.010796	NaN	0.000000	0.001535	0.001632	28.0784	0.048263	0.002061	23.4175	-49.4777	15.6126	0.024234	0.611354	-0.521626	-0.522965	0.010796	23.4175	-0.521972	-6.93448e+06	-1.556885E-9	NaN
227	1.000000	0.622747	7.36727e+06	-49989.1	955.818	-29757.5	0.000000	0.000000	6.623008	0.047530	NaN	0.000000	0.001585	0.001649	28.0784	0.028658	0.001854	15.4579	94.3662	-165.892	0.017069	0.621481	-0.511571	-0.512838	0.047530	15.4579	-0.513877	-5.35063e+06	-8.882994E-9	NaN
227	1.000000	0.632723	7.36727e+06	-49989.1	955.819	-29757.5	0.000000	0.000000	6.632982	-0.003864	NaN	0.000000	0.001541	0.001641	28.0783	0.056879	0.002109	26.9719	-106.541	10.9899	-0.000119	0.631391	-0.501595	-0.502928	-0.003864	26.9719	-0.501488	-3.59561e+06	1.074718E-9	NaN
227	1.000000	0.642758	7.36727e+06	-49989.1	955.818	-29757.5	0.000000	0.000000	6.643019	0.034220	NaN	0.000000	0.001566	0.001621	28.0782	0.086806	0.001876	46.2627	-178.151	-167.6	-0.032748	0.641431	-0.491560	-0.492888	0.034220	46.2627	-0.492115	-2.66035e+06	-1.286284E-8	NaN
227	1.000000	0.652741	7.36727e+06	-49989.1	955.818	-29757.5	0.000000	0.000000	6.653001	0.004087	NaN	0.000000	0.001543	0.001706	28.0785	0.061399	0.001982	30.9764	174.338	17.069	0.031982	0.651373	-0.481577	-0.482945	0.004087	30.9764	-0.481676	-1.90101e+06	-2.149955E-9	NaN
227	1.000000	0.662746	7.36727e+06	-49989.1	955.818	-29757.5	0.000000	0.000000	6.663004	-0.032930	NaN	0.000000	0.001548	0.001635	28.0784	0.041297	0.001980	20.8592	79.1342	-164.279	-0.019221	0.661414	-0.471572	-0.472904	-0.032930	20.8592	-0.470388	-1.32085e+06	2.493077E-8	NaN
227	1.000000	0.672745	7.36727e+06	-49989.1	955.818	-29757.5	0.000000	0.000000	6.673005	0.027725	NaN	0.000000	0.001576	0.001683	28.0782	0.061954	0.002117	29.2712	-68.6969	17.5253	-0.013270	0.671427	-0.461573	-0.462892	0.027725	29.2712	-0.462284	-1.01649e+06	-2.727571E-8	NaN
227	1.000000	0.682761	7.36727e+06	-49989.1	955.819	-29757.5	0.000000	0.000000	6.683022	0.053349	NaN	0.000000	0.001575	0.001692	28.0786	0.057741	0.002014	28.6711	-106.894	-166.761	0.043900	0.681448	-0.451558	-0.452871	0.053349	28.6711	-0.452953	-751480	-7.099198E-8	NaN
227	1.000000	0.692775	7.36727e+06	-49989.1	955.818	-29757.5	0.000000	0.000000	6.693033	-0.006764	NaN	0.000000	0.001540	0.001695	28.0785	0.051621	0.001949	26.484	-55.431	12.517	0.078021	0.691425	-0.441544	-0.442893	-0.006764	26.484	-0.441352	-515755	1.311537E-8	NaN
227	1.000000	0.702752	7.36727e+06	-49989.1	955.817	-29757.5	0.000000	0.000000	6.703013	0.031243	NaN	0.000000	0.001578	0.001666	28.0783	0.018695	0.001880	9.944763	-120.034	-165.571	0.013289	0.701451	-0.431566	-0.432867	0.031243	9.944763	-0.433922	-405064	-7.713208E-8	NaN
227	1.000000	0.712800	7.36727e+06	-49989.1	955.818	-29757.5	0.000000	0.000000	6.713057	-0.045349	NaN	0.000000	0.001564	0.001637	28.0795	0.086852	0.002078	41.8014	35.0339	13.9275	-0.015185	0.711426	-0.421519	-0.422893	-0.045349	41.8014	-0.420705	-263278	1.722487E-7	NaN
227	1.000000	0.722820	7.36727e+06	-49989.1	955.82	-29757.5	0.000000	0.000000	6.723079	0.015220	NaN	0.000000	0.001617	0.001618	28.0795	0.096560	0.001955	49.4011	-23.4017	-165.779	-0.049427	0.721412	-0.411499	-0.412906	0.015220	49.4011	-0.411730	-196334	-7.752365E-8	NaN
227	1.000000	0.732800	7.36727e+06	-49989.1	955.818	-29757.5	0.000000	0.000000	6.733061	0.042347	NaN	0.000000	0.001589	0.001622	28.0797	0.017368	0.001940	8.950807	79.7217	13.9583	0.045822	0.731355	-0.401519	-0.402963	0.042347	8.950807	-0.405067	-157834	-2.683018E-7	NaN
227	1.000000	0.742781	7.36727e+06	-49989.1	955.819	-29757.5	0.000000	0.000000	6.743041	0.019050	NaN	0.000000	0.001563	0.001621	28.0795	0.044842	0.001979	22.6581	58.9331	-164.805	0.050986	0.741468	-0.391537	-0.392850	0.019050	22.6581	-0.392168	-103315	-1.843871E-7	NaN
227	1.000000	0.752777	7.36727e+06	-49989.1	955.819	-29757.5	0.000000	0.000000	6.753032	-0.094148	NaN	0.000000	0.001573	0.001643	28.0797	0.061931	0.001906	32.4988	-141.475	12.5315	-0.065042	0.751437	-0.381541	-0.382881	-0.094148	32.4988	-0.379369	-67737.4	1.389896E-6	NaN
227	1.000000	0.762780	7.36727e+06	-49989.1	955.818	-29757.5	0.000000	0.000000	6.763038	-0.033818	NaN	0.000000	0.001574	0.001662	28.0796	0.049288	0.002115	23.3064	67.0414	-163.161	-0.011356	0.761502	-0.371538	-0.372816	-0.033818	23.3064	-0.370450	-50420.6	6.707166E-7	NaN
227	1.000000	0.772779	7.36727e+06	-49989.1	955.818	-29757.5	0.000000	0.000000	6.773038	-0.004845	NaN	0.000000	0.001555	0.001668	28.0796	0.164089	0.002123	77.2869	37.2949	13.2466	-0.010150	0.771464	-0.361539	-0.362855	-0.004845	77.2869	-0.361492	-37446.2	1.293899E-7	NaN
227	1.000000	0.782776	7.36727e+06	-49989.1	955.818	-29757.5	0.000000	0.000000	6.783037	0.052757	NaN	0.000000	0.001619	0.001680	28.0794	0.014672	0.002039	7.195463	59.8025	-167.473	0.003881	0.781506	-0.351542	-0.352812	0.052757	7.195463	-0.357041	-32288.6	-1.633932E-6	NaN
227	1.000000	0.792797	7.36727e+06	-49989.1	955.819	-29757.5	0.000000	0.000000	6.793059	0.074454	NaN	0.000000	0.001664	0.001641	28.0795	0.045842	0.001960	23.384	-25.1364	12.5026	0.101436	0.791427	-0.341521	-0.342891	0.074454	23.384	-0.343909	-20820.3	-3.576023E-6	NaN
227	1.000000	0.802808	7.36727e+06	-49989.1	955.819	-29757.5	0.000000	0.000000	6.803065	-0.052746	NaN	0.000000	0.001618	0.001648	28.0797	0.057893	0.002062	28.0796	91.6824	-167.55	-0.069568	0.801483	-0.331510	-0.332836	-0.052746	28.0796	-0.330102	-13090	4.029494E-6	NaN
227	1.000000	0.812798	7.36727e+06	-49989.1	955.818	-29757.5	0.000000	0.000000	6.813058	0.023332	NaN	0.000000	0.001622	0.001640	28.0796	0.061657	0.001999	30.8389	-149.455	12.8685	-0.001126	0.811473	-0.321520	-0.322845	0.023332	30.8389	-0.322088	-9985.09	-2.336665E-6	NaN
227	1.000000	0.822833	7.36727e+06	-49989.1	955.818	-29757.5	0.000000	0.000000	6.823092	0.015146	NaN	0.000000	0.001629	0.001635	28.0794	0.122635	0.002092	58.6221	-64.6646	-165.978	0.098813	0.821467	-0.311486	-0.312851	0.015146	58.6221	-0.311679	-7012.87	-2.159715E-6	NaN
227	1.000000	0.832818	7.36727e+06	-49989.1	955.817	-29757.5	0.000000	0.000000	6.833076	-0.015101	NaN	0.000000	0.001649	0.001629	28.0796	0.049777	0.002073	24.0134	-98.9209	17.5288	0.024665	0.831443	-0.301501	-0.302876	-0.015101	24.0134	-0.301029	-4874.74	3.097729E-6	NaN
227	1.000000	0.842798	7.36727e+06	-49989.1	955.819	-29757.5	0.000000	0.000000	6.843057	-0.013925	NaN	0.000000	0.001589	0.001667	28.0786	0.044177	0.001931	22.8751	17.1031	-169.106	-0.014318	0.841508	-0.291520	-0.292811	-0.013925	22.8751	-0.291064	-3461.24	4.023037E-6	NaN
227	1.000000	0.852833	7.36727e+06	-49989.1	955.818	-29757.5	0.000000	0.000000	6.853094	0.041671	NaN	0.000000	0.001561	0.001668	28.0783	0.103875	0.002137	48.6077	175.052	16.2532	0.016748	0.851498	-0.281485	-0.282821	0.041671	48.6077	-0.282128	-2541.27	-1.639783E-5	NaN
227	1.000000	0.862812	7.36727e+06	-49989.1	955.817	-29757.5	0.000000	0.000000	6.863071	-0.007522	NaN	0.000000	0.001561	0.001667	28.0782	0.132812	0.001990	66.7368	80.2949	-167.819	0.008599	0.861569	-0.271506	-0.272749	-0.007522	66.7368	-0.271422	-1750.43	4.296994E-6	NaN
227	1.000000	0.872826	7.36727e+06	-49989.1	955.819	-29757.5	0.000000	0.000000	6.873088	0.064215	NaN	0.000000	0.001551	0.001646	28.0783	0.117004	0.001941	60.2659	-136.837	15.8757	0.149828	0.871484	-0.261492	-0.262835	0.064215	60.2659	-0.262291	-1270.57	-5.054063E-5	NaN
227	1.000000	0.882822	7.36727e+06	-49989.1	955.818	-29757.5	0.000000	0.000000	6.883080	-0.031625	NaN	0.000000	0.001559	0.001625	28.0788	0.055385	0.002101	26.3561	67.611	-163.555	0.022861	0.881521	-0.251496	-0.252797	-0.031625	26.3561	-0.250596	-839.821	3.765654E-5	NaN
227	1.000000	0.892840	7.36727e+06	-49989.1	955.818	-29757.5	0.000000	0.000000	6.893098	-0.002885	NaN	0.000000	0.001568	0.001657	28.0782	0.051917	0.001976	26.2673	-146.778	17.2132	-0.020963	0.891495	-0.241479	-0.242823	-0.002885	26.2673	-0.241396	-604.433	4.772293E-6	NaN
227	1.000000	0.902826	7.36727e+06	-49989.1	955.819	-29757.5	0.000000	0.000000	6.903085	0.013308	NaN	0.000000	0.001557	0.001656	28.0782	0.096581	0.001870	51.6451	-47.6787	-165.515	-0.038231	0.901521	-0.231493	-0.232798	0.013308	51.6451	-0.231686	-425.71	-3.126167E-5	NaN
227	1.000000	0.912849	7.36727e+06	-49989.1	955.818	-29757.5	0.000000	0.000000	6.913107	-0.016051	NaN	0.000000	0.001584	0.001639	28.0785	0.074295	0.001960	37.9067	-104.219	10.1394	0.044736	0.911493	-0.221470	-0.222826	-0.016051	37.9067	-0.221152	-289.785	5.538772E-5	NaN
227	1.000000	0.922844	7.36727e+06	-49989.1	955.818	-29757.5	0.000000	0.000000	6.923104	0.038115	NaN	0.000000	0.001580	0.001627	28.0785	0.113569	0.001924	59.0382	-63.9817	-167.41	-0.028033	0.921565	-0.211475	-0.212753	0.038115	59.0382	-0.211959	-206.301	-0.000185	NaN
227	1.000000	0.932870	7.36727e+06	-49989.1	955.819	-29757.5	0.000000	0.000000	6.933130	0.018448	NaN	0.000000	0.001558	0.001651	28.0781	0.070459	0.001930	36.5045	55.4078	12.3909	0.008262	0.931525	-0.201448	-0.202793	0.018448	36.5045	-0.201827	-141.152	-0.000131	NaN
227	1.000000	0.942903	7.36727e+06	-49989.1	955.818	-29757.5	0.000000	0.000000	6.943162	-0.010109	NaN	0.000000	0.001593	0.001621	28.0783	0.101143	0.002000	50.5636	26.7195	-166.166	0.049758	0.941584	-0.191415	-0.192735	-0.010109	50.5636	-0.191265	-94.4371	0.000107	NaN
227	1.000000	0.952864	7.36727e+06	-49989.1	955.819	-29757.5	0.000000	0.000000	6.953123	0.012981	NaN	0.000000	0.001578	0.001688	28.0782	0.029864	0.002013	14.8329	56.8876	13.3066	-0.011370	0.951488	-0.181454	-0.182831	0.012981	14.8329	-0.182111	-66.2683	-0.000196	NaN
227	1.000000	0.962879	7.36727e+06	-49989.1	955.819	-29757.5	0.000000	0.000000	6.963139	0.018431	NaN	0.000000	0.001549	0.001645	28.0785	0.033589	0.001895	17.7252	-142.85	-162.135	0.059461	0.961551	-0.171440	-0.172768	0.018431	17.7252	-0.172219	-44.881	-0.000411	NaN
227	1.000000	0.972886	7.36727e+06	-49989.1	955.82	-29757.5	0.000000	0.000000	6.973144	-0.005871	NaN	0.000000	0.001584	0.001646	28.0783	0.051154	0.002001	25.5609	58.798	17.9038	-0.025798	0.971499	-0.161433	-0.162819	-0.005871	25.5609	-0.161260	-28.8635	0.000203	NaN
227	1.000000	0.982855	7.36727e+06	-49989.1	955.818	-29757.5	0.000000	0.000000	6.983114	-0.009096	NaN	0.000000	0.001558	0.001669	28.0798	0.027279	0.002026	13.4626	28.8578	-163.271	-0.032615	0.981624	-0.151463	-0.152695	-0.009096	13.4626	-0.150957	-18.8552	0.000482	NaN
227	1.000000	0.992881	7.36727e+06	-49989.1	955.819	-29757.5	0.000000	0.000000	6.993142	0.057590	NaN	0.000000	0.001564	0.001696	28.08	0.054017	0.002086	25.8989	142.42	13.7151	0.039048	0.991519	-0.141438	-0.142800	0.057590	25.8989	-0.143106	-13.5214	-0.004259	NaN
227	1.000000	1.002908	7.36727e+06	-49989.1	955.817	-29757.5	0.000000	0.000000	7.003165	-0.051661	NaN	0.000000	0.001573	0.001657	28.0797	0.074131	0.001919	38.6235	94.8445	-166.597	-0.028423	1.001595	-0.131410	-0.132723	-0.051661	38.6235	-0.130407	-7.760847	0.006657	NaN
227	1.000000	1.012903	7.36727e+06	-49989.1	955.819	-29757.5	0.000000	0.000000	7.013162	-0.005873	NaN	0.000000	0.001535	0.001622	28.0796	0.063876	0.002004	31.8795	65.971	13.7957	0.034965	1.011535	-0.121415	-0.122784	-0.005873	31.8795	-0.121277	-5.126132	0.001146	NaN
227	1.000000	1.022894	7.36727e+06	-49989.1	955.818	-29757.5	0.000000	0.000000	7.023153	0.015685	NaN	0.000000	0.001562	0.001627	28.0797	0.102611	0.001953	52.5385	-55.7967	-166.847	0.029891	1.021573	-0.111425	-0.112746	0.015685	52.5385	-0.111648	-3.254615	-0.004819	NaN
227	1.000000	1.032937	7.36727e+06	-49989.1	955.817	-29757.5	0.000000	0.000000	7.033195	-0.014408	NaN	0.000000	0.001583	0.001640	28.0798	0.112366	0.002017	55.7028	-95.7035	16.2824	-0.003621	1.031547	-0.101382	-0.102772	-0.014408	55.7028	-0.101188	-1.940966	0.007423	NaN
227	1.000000	1.042912	7.36727e+06	-49989.1	955.817	-29757.5	0.000000	0.000000	7.043170	-0.009062	NaN	0.000000	0.001592	0.001634	28.0798	0.096455	0.001903	50.6845	-42.9821	-166.224	-0.024513	1.041588	-0.091407	-0.092730	-0.009062	50.6845	-0.091273	-1.157617	0.007828	NaN
227	1.000000	1.052886	7.36727e+06	-49989.1	955.819	-29757.5	0.000000	0.000000	7.053146	0.017247	NaN	0.000000	0.001608	0.001636	28.0795	0.048339	0.002087	23.1638	12.0538	13.0149	0.012677	1.051585	-0.081432	-0.082733	0.017247	23.1638	-0.081991	-0.693640	-0.024865	NaN
227	1.000000	1.062879	7.36727e+06	-49989.1	955.817	-29757.5	0.000000	0.000000	7.063139	0.031306	NaN	0.000000	0.001565	0.001622	28.0796	0.061169	0.001968	31.0845	-88.3013	-163.21	0.008807	1.061616	-0.071439	-0.072702	0.031306	31.0845	-0.072195	-0.390149	-0.080242	NaN
227	1.000000	1.072913	7.36727e+06	-49989.1	955.817	-29757.5	0.000000	0.000000	7.073173	0.035010	NaN	0.000000	0.001577	0.001650	28.0796	0.063474	0.001992	31.862	140.591	14.525	-0.013646	1.071552	-0.061406	-0.062766	0.035010	31.862	-0.062230	-0.208450	-0.167956	NaN
227	1.000000	1.082915	7.36727e+06	-49989.1	955.818	-29757.5	0.000000	0.000000	7.083175	0.014983	NaN	0.000000	0.001570	0.001666	28.0795	0.046747	0.001985	23.5495	-120.765	-163.479	0.029622	1.081599	-0.051403	-0.052719	0.014983	23.5495	-0.051880	-0.103965	-0.144114	NaN
227	1.000000	1.092905	7.36727e+06	-49989.1	955.817	-29757.5	0.000000	0.000000	7.093164	0.007344	NaN	0.000000	0.001576	0.001641	28.0795	0.122477	0.001964	62.3664	16.5461	14.1491	0.029006	1.091569	-0.041413	-0.042750	0.007344	62.3664	-0.041502	-0.050242	-0.146182	NaN
227	1.000000	1.102886	7.36727e+06	-49989.1	955.817	-29757.5	0.000000	0.000000	7.103147	0.034384	NaN	0.000000	0.001575	0.001659	28.0795	0.093806	0.002117	44.3014	-112.115	-162.628	0.049321	1.101643	-0.031432	-0.032675	0.034384	44.3014	-0.032014	-0.026231	-1.310835	NaN
227	1.000000	1.112953	7.36727e+06	-49989.1	955.818	-29757.5	0.000000	0.000000	7.113215	0.067675	NaN	0.000000	0.001578	0.001616	28.0796	0.125225	0.001936	64.695	35.6015	10.7092	0.007480	1.111615	-0.021365	-0.022704	0.067675	64.695	-0.022150	-0.014246	-4.750609	NaN
227	1.000000	1.122930	7.36727e+06	-49989.1	955.817	-29757.5	0.000000	0.000000	7.123192	0.060394	NaN	0.000000	0.001563	0.001703	28.0784	0.044507	0.002097	21.2207	-90.5512	-163.977	0.046694	1.121518	-0.011388	-0.012801	0.060394	21.2207	-0.013522	-0.008405	-7.185720	NaN
227	1.000000	1.132944	7.36727e+06	-49989.1	955.818	-29757.5	0.000000	0.000000	7.133206	0.077120	NaN	0.000000	0.001559	0.001704	28.0784	0.116205	0.001955	59.454	67.7659	15.2371	0.043356	1.131595	-0.001375	-0.002723	0.077120	59.454	-0.002348	-0.001679	-45.9377	NaN
227	1.000000	1.142804	7.36727e+06	-49989.1	955.818	-29757.5	0.000000	0.000000	7.143386	7.856312	NaN	0.000000	0.001584	0.001676	28.0789	8.035361	0.001753	4582.51	11.3489	-170.221	6.625048	1.141565	0.008486	0.007247	7.856312	4582.51	0.007200	0.006232	1260.6	53034.2
227	2.000000	1.145960	7.36727e+06	-49989.1	955.819	-29757.5	0.000000	0.000000	7.146687	11.3827	NaN	0.000000	0.001572	0.001648	28.0787	11.7077	0.001557	7520.05	3.834075	7.459894	10.315	1.145615	0.011642	0.011296	11.3827	7520.05	0.010506	0.009750	1167.51	69582.6
227	2.000000	1.148467	7.36727e+06	-49989.1	955.818	-29757.5	0.000000	0.000000	7.149347	15.0977	NaN	0.000000	0.001587	0.001653	28.0786	15.0456	0.001887	7972.81	3.100460	-170.252	14.627	1.148145	0.014148	0.013826	15.0977	7972.81	0.012728	0.012374	1220.1	65482.8
227	2.000000	1.150931	7.36727e+06	-49989.1	955.818	-29757.5	0.000000	0.000000	7.151911	17.5301	NaN	0.000000	0.001572	0.001643	28.0785	16.9834	0.001709	9937.33	7.766286	4.456362	16.9267	1.150595	0.016613	0.016276	17.5301	9937.33	0.015290	0.015674	1118.43	72519.7
227	2.000000	1.153431	7.36727e+06	-49989.1	955.819	-29757.5	0.000000	0.000000	7.154523	20.2661	NaN	0.000000	0.001568	0.001662	28.0786	19.354	0.001740	11124.6	11.7329	178.398	20.7916	1.153120	0.019113	0.018802	20.2661	11124.6	0.017746	0.019124	1059.72	73496.8
227	2.000000	1.155893	7.36727e+06	-49989.1	955.818	-29757.5	0.000000	0.000000	7.157259	26.9192	NaN	0.000000	0.001526	0.001673	28.0784	22.3935	0.001727	12965.8	4.396826	3.563774	26.1576	1.155571	0.021575	0.021252	26.9192	12965.8	0.020018	0.022570	1192.69	78850.9
227	2.000000	1.158412	7.36727e+06	-49989.1	955.817	-29757.5	0.000000	0.000000	7.159937	30.7885	NaN	0.000000	0.001525	0.001656	28.0785	25.2393	0.001788	14117.3	7.975501	179.812	30.9652	1.158110	0.024094	0.023792	30.7885	14117.3	0.022458	0.026553	1159.5	79152.9
227	2.000000	1.160903	7.36727e+06	-49989.1	955.818	-29757.5	0.000000	0.000000	7.162654	36.2976	NaN	0.000000	0.001566	0.001660	28.0782	27.641	0.001850	14943.2	8.063401	-0.794723	35.3605	1.160491	0.026584	0.026173	36.2976	14943.2	0.024762	0.030585	1186.78	78066.1
227	2.000000	1.163383	7.36727e+06	-49989.1	955.817	-29757.5	0.000000	0.000000	7.165324	40.9078	NaN	0.000000	0.001584	0.001649	28.0782	29.0821	0.001689	17214.4	4.973000	-178.778	40.468	1.163106	0.029065	0.028788	40.9078	17214.4	0.027282	0.035299	1158.89	83711.1
227	2.000000	1.165854	7.36727e+06	-49989.1	955.818	-29757.5	0.000000	0.000000	7.168033	46.6952	NaN	0.000000	0.001534	0.001672	28.0781	32.685	0.001873	17450.5	7.487521	-2.408623	43.4489	1.165482	0.031535	0.031163	46.6952	17450.5	0.029528	0.039772	1174.08	79945.7
227	2.000000	1.168429	7.36727e+06	-49989.1	955.817	-29757.5	0.000000	0.000000	7.170852	52.6162	NaN	0.000000	0.001603	0.001660	28.0786	35.5801	0.001788	19895.4	5.241360	178.472	54.3651	1.168091	0.034111	0.033773	52.6162	19895.4	0.032127	0.045268	1162.32	85433.6
227	2.000000	1.170921	7.36727e+06	-49989.1	955.818	-29757.5	0.000000	0.000000	7.173860	65.1689	NaN	0.000000	0.001578	0.001654	28.0797	37.2299	0.001778	20934.3	8.762674	-4.514381	64.6682	1.170492	0.036603	0.036174	65.1689	20934.3	0.034268	0.050055	1301.93	85488
227	2.000000	1.173315	7.36727e+06	-49989.1	955.818	-29757.5	0.000000	0.000000	7.176525	71.7809	NaN	0.000000	0.001576	0.001661	28.0797	38.9716	0.001639	23782.1	5.804970	176.088	69.3465	1.173010	0.038996	0.038691	71.7809	23782.1	0.036733	0.055857	1285.08	91935.8
227	2.000000	1.175767	7.36727e+06	-49989.1	955.817	-29757.5	0.000000	0.000000	7.179506	84.6419	NaN	0.000000	0.001579	0.001655	28.0797	42.5875	0.001688	25227.8	5.105037	-4.170257	79.2795	1.175531	0.041448	0.041212	84.6419	25227.8	0.038932	0.061297	1380.84	93096.4
227	2.000000	1.178325	7.36727e+06	-49989.1	955.818	-29757.5	0.000000	0.000000	7.182313	90.6931	NaN	0.000000	0.001568	0.001679	28.0796	45.731	0.001795	25481.7	6.334603	176.017	89.2702	1.178030	0.044006	0.043711	90.6931	25481.7	0.041337	0.067529	1343.02	89589.3
227	2.000000	1.180844	7.36727e+06	-49989.1	955.817	-29757.5	0.000000	0.000000	7.185423	105.046	NaN	0.000000	0.001552	0.001693	28.0798	47.6706	0.001843	25864.6	6.867431	-4.887321	102.509	1.180427	0.046526	0.046109	105.046	25864.6	0.043480	0.073331	1432.49	87264.1
227	2.000000	1.183386	7.36727e+06	-49989.1	955.817	-29757.5	0.000000	0.000000	7.188565	119.651	NaN	0.000000	0.001551	0.001669	28.0797	49.7667	0.001739	28615.3	4.120643	177.264	118.738	1.182993	0.049068	0.048675	119.651	28615.3	0.045932	0.080254	1490.9	92286.5
227	2.000000	1.185786	7.36727e+06	-49989.1	955.817	-29757.5	0.000000	0.000000	7.191248	126.542	NaN	0.000000	0.001574	0.001682	28.0798	51.6422	0.001698	30411.9	2.263781	-1.362653	123.759	1.185460	0.051468	0.051141	126.542	30411.9	0.048347	0.087372	1448.31	94000.7
227	2.000000	1.188343	7.36727e+06	-49989.1	955.818	-29757.5	0.000000	0.000000	7.193987	130.967	NaN	0.000000	0.001569	0.001674	28.0796	56.0097	0.001846	30334.2	2.508727	177.275	131.117	1.188119	0.054024	0.053801	130.967	30334.2	0.050786	0.094859	1380.65	89984.3
227	2.000000	1.190901	7.36727e+06	-49989.1	955.818	-29757.5	0.000000	0.000000	7.197235	147.728	NaN	0.000000	0.001570	0.001703	28.0801	58.1768	0.001740	33440.4	5.104432	-5.578638	147.346	1.190449	0.056583	0.056131	147.728	33440.4	0.053270	0.102787	1437.22	95296.2
227	2.000000	1.193438	7.36727e+06	-49989.1	955.817	-29757.5	0.000000	0.000000	7.200023	153.838	NaN	0.000000	0.001573	0.001691	28.0794	60.5293	0.001738	34818.3	7.806580	171.145	159.151	1.193049	0.059120	0.058730	153.838	34818.3	0.055806	0.111201	1383.42	95395
227	2.000000	1.195839	7.36727e+06	-49989.1	955.817	-29757.5	0.000000	0.000000	7.203184	172.325	NaN	0.000000	0.001539	0.001674	28.0797	63.3596	0.001767	35849.7	6.076398	-7.754398	170.54	1.195526	0.061521	0.061208	172.325	35849.7	0.057916	0.118441	1454.95	95171.6
227	2.000000	1.198292	7.36727e+06	-49989.1	955.818	-29757.5	0.000000	0.000000	7.206595	195.632	NaN	0.000000	0.001549	0.001684	28.0796	64.8711	0.001604	40446.8	3.774950	173.824	192.505	1.198014	0.063974	0.063696	195.632	40446.8	0.060346	0.127052	1539.77	103673
227	2.000000	1.200821	7.36727e+06	-49989.1	955.817	-29757.5	0.000000	0.000000	7.209554	206.069	NaN	0.000000	0.001576	0.001679	28.08	66.4962	0.001741	38192.8	2.033803	-3.590369	202.193	1.200530	0.066503	0.066212	206.069	38192.8	0.062456	0.134764	1529.11	95053.5
227	2.000000	1.203264	7.36727e+06	-49989.1	955.818	-29757.5	0.000000	0.000000	7.212887	227.736	NaN	0.000000	0.001557	0.001668	28.0797	69.6002	0.001758	39590.5	5.384644	172.309	224.512	1.203010	0.068946	0.068691	227.736	39590.5	0.064631	0.142938	1593.25	95673.4
227	2.000000	1.205781	7.36727e+06	-49989.1	955.817	-29757.5	0.000000	0.000000	7.215908	239.985	NaN	0.000000	0.001584	0.001700	28.0787	73.9577	0.001775	41664	7.205536	-9.097538	237.534	1.205427	0.071463	0.071109	239.985	41664	0.067143	0.152660	1572.03	97425.4
227	2.000000	1.208266	7.36727e+06	-49989.1	955.818	-29757.5	0.000000	0.000000	7.219180	259.114	NaN	0.000000	0.001630	0.001683	28.0786	76.4241	0.001748	43728.9	4.216651	172.706	255.402	1.208010	0.073948	0.073691	259.114	43728.9	0.069504	0.162074	1598.74	99239.6
227	2.000000	1.210820	7.36727e+06	-49989.1	955.816	-29757.5	0.000000	0.000000	7.222584	279.795	NaN	0.000000	0.001650	0.001677	28.0793	78.9932	0.001915	41253.9	4.877808	-6.589526	276.396	1.210392	0.076501	0.076074	279.795	41253.9	0.071415	0.169891	1646.91	91443.7
227	2.000000	1.213236	7.36727e+06	-49989.1	955.818	-29757.5	0.000000	0.000000	7.225923	302.229	NaN	0.000000	0.001654	0.001673	28.0784	81.048	0.001707	47489.5	5.437348	171.566	296.826	1.212906	0.078918	0.078588	302.229	47489.5	0.074145	0.181355	1666.5	101884
227	2.000000	1.215773	7.36727e+06	-49989.1	955.817	-29757.5	0.000000	0.000000	7.229361	324.146	NaN	0.000000	0.001632	0.001679	28.0791	83.0822	0.001728	48070.2	0.920076	-4.054983	319.149	1.215328	0.081455	0.081009	324.146	48070.2	0.076397	0.191081	1696.38	100471
227	2.000000	1.218276	7.36727e+06	-49989.1	955.817	-29757.5	0.000000	0.000000	7.232414	337.539	NaN	0.000000	0.001631	0.001621	28.0787	86.8752	0.001778	48852.1	-1.252352	178.6	336.203	1.217994	0.083957	0.083675	337.539	48852.1	0.078775	0.201605	1674.26	99404.5
227	2.000000	1.220726	7.36727e+06	-49989.1	955.818	-29757.5	0.000000	0.000000	7.236101	367.621	NaN	0.000000	0.001601	0.001653	28.0788	89.4435	0.001840	48607.4	6.043234	-9.148610	360.673	1.220349	0.086407	0.086031	367.621	48607.4	0.080735	0.210477	1746.61	96799.4
227	2.000000	1.223219	7.36727e+06	-49989.1	955.817	-29757.5	0.000000	0.000000	7.239531	390.412	NaN	0.000000	0.001661	0.001699	28.0787	90.8171	0.001761	51583.6	3.223806	172.819	386.601	1.223055	0.088900	0.088737	390.412	51583.6	0.083224	0.222001	1758.6	100025
227	2.000000	1.225709	7.36727e+06	-49989.1	955.815	-29757.5	0.000000	0.000000	7.243190	418.81	NaN	0.000000	0.001586	0.001651	28.0791	94.1179	0.001707	55135.3	5.261968	-9.885808	411.155	1.225441	0.091391	0.091122	418.81	55135.3	0.085694	0.233723	1791.9	104196
227	2.000000	1.228304	7.36727e+06	-49989.1	955.817	-29757.5	0.000000	0.000000	7.246755	442.434	NaN	0.000000	0.001629	0.001660	28.0788	97.9241	0.001833	53431.9	6.050961	169.71	440.353	1.228103	0.093985	0.093785	442.434	53431.9	0.087775	0.243816	1814.62	98865
227	2.000000	1.230775	7.36727e+06	-49989.1	955.817	-29757.5	0.000000	0.000000	7.250095	463.532	NaN	0.000000	0.001654	0.001622	28.0786	99.0166	0.001684	58790.6	4.339653	-9.331275	458.764	1.230591	0.096457	0.096272	463.532	58790.6	0.090544	0.257554	1799.75	105839
227	2.000000	1.233315	7.36727e+06	-49989.1	955.818	-29757.5	0.000000	0.000000	7.254099	499.17	NaN	0.000000	0.001606	0.001651	28.0784	100.688	0.001735	58022.8	6.028535	169.302	502.263	1.232968	0.098996	0.098649	499.17	58022.8	0.092544	0.267699	1864.67	102459
227	2.000000	1.235748	7.36727e+06	-49989.1	955.817	-29757.5	0.000000	0.000000	7.257552	523.961	NaN	0.000000	0.001608	0.001606	28.0786	103.588	0.001792	57820	5.780364	-10.3477	517.262	1.235368	0.101429	0.101050	523.961	57820	0.094633	0.278487	1881.45	100103
227	2.000000	1.238195	7.36727e+06	-49989.1	955.818	-29757.5	0.000000	0.000000	7.261396	557.913	NaN	0.000000	0.001535	0.001633	28.0788	106.058	0.001764	60117.6	2.691326	172.257	553.645	1.237923	0.103877	0.103605	557.913	60117.6	0.096917	0.290510	1920.46	101905
227	2.000000	1.240759	7.36727e+06	-49989.1	955.818	-29757.5	0.000000	0.000000	7.265210	588.31	NaN	0.000000	0.001558	0.001610	28.0797	107.81	0.001725	62498.8	3.499658	-8.288757	583.452	1.240335	0.106441	0.106017	588.31	62498.8	0.099381	0.303750	1936.82	103606
227	2.000000	1.242186	7.36727e+06	-49989.1	955.818	-29757.5	0.000000	0.000000	7.267237	602.921	NaN	0.000000	0.001589	0.001603	28.0799	110.127	0.001789	61543.8	4.600431	170.134	595.959	1.241863	0.107868	0.107544	602.921	61543.8	0.100520	0.309965	1945.12	100995