File: remote_trans/data/nanoindenter/0828-1/data/Data_2025-08-06,11h17m57s/2025-07-22_16-23-58_1_1118.txt
2025-07-22, 16:23:58, 1
Index	Phase	Displacement	Time	Pos X	Pos Y	Pos Z	Rot A	Rot B	Piezo Z	Force A	Force B	Gripper	Voltage A	Voltage B	Temperature	Amplitude force	Amplitude pos	Stiffness	Phase shift	Phase excitation	Force A raw	Displacement raw	HMax	HMax raw	Real Force	Real Stiffness	Contact Depth	Area	Hardness	Reduced Mod.
[#]	[#]	[um]	[s]	[um]	[um]	[um]	[m°]	[m°]	[um]	[uN]	[uN]	[V]	[V]	[V]	[°C]	[uN]	[um]	[N/m]	[°]	[°]	[uN]	[um]	[um]	[um]	[uN]	[N/m]	[um]	[um^2]	[MPa]	[MPa]
1118	1.000000	0.002649	7.37599e+06	-56039.1	1055.82	-29740	0.000000	0.000000	6.002823	0.090634	NaN	0.000000	0.001632	0.001708	28.0834	0.090209	0.000950	94.9379	44.6806	-163.219	0.104925	0.001379	-1.065318	-1.066589	0.090634	94.9379	-1.066034	-1.753478E+14	-5.168813E-16	NaN
1118	1.000000	0.010621	7.37599e+06	-56039.1	1055.82	-29740	0.000000	0.000000	6.010793	0.052369	NaN	0.000000	0.001614	0.001695	28.0829	0.064079	0.000933	68.6605	8.146583	-171.596	0.037275	0.009217	-1.057346	-1.058751	0.052369	68.6605	-1.057918	-1.364076E+14	-3.839129E-16	NaN
1118	1.000000	0.018585	7.37599e+06	-56039.1	1055.82	-29740	0.000000	0.000000	6.018753	-0.030419	NaN	0.000000	0.001693	0.001734	28.0832	0.026784	0.001697	15.7821	-138.647	-166.506	-0.052249	0.017251	-1.049382	-1.050717	-0.030419	15.7821	-1.047937	-1.001564E+14	3.037143E-16	NaN
1118	1.000000	0.026607	7.37599e+06	-56039.1	1055.82	-29740	0.000000	0.000000	6.026779	0.073356	NaN	0.000000	0.001655	0.001736	28.0834	0.049633	0.001868	26.5682	145.49	-164.33	0.094078	0.025214	-1.041361	-1.042754	0.073356	26.5682	-1.043431	-8.711740E+13	-8.420374E-16	NaN
1118	1.000000	0.034569	7.37599e+06	-56039.1	1055.82	-29740	0.000000	0.000000	6.034740	0.026080	NaN	0.000000	0.001662	0.001714	28.0834	0.004007	0.002007	1.996393	-117.453	-168.402	-0.008165	0.033235	-1.033398	-1.034733	0.026080	1.996393	-1.043195	-8.648357E+13	-3.015564E-16	NaN
1118	1.000000	0.042576	7.37599e+06	-56039.1	1055.82	-29740	0.000000	0.000000	6.042747	0.021810	NaN	0.000000	0.001638	0.001726	28.0836	0.061317	0.002060	29.769	-155.839	-167.42	0.093948	0.041278	-1.025391	-1.026689	0.021810	29.769	-1.025940	-5.068385E+13	-4.303110E-16	NaN
1118	1.000000	0.050604	7.37599e+06	-56039.1	1055.82	-29740	0.000000	0.000000	6.050775	0.011791	NaN	0.000000	0.001650	0.001737	28.0834	0.053575	0.001967	27.2388	126.738	-165.055	-0.017625	0.049316	-1.017363	-1.018651	0.011791	27.2388	-1.017687	-3.924960E+13	-3.004192E-16	NaN
1118	1.000000	0.058574	7.37599e+06	-56039.1	1055.82	-29740	0.000000	0.000000	6.058744	0.010314	NaN	0.000000	0.001632	0.001703	28.0838	0.081636	0.002028	40.2508	121.233	-167.941	0.055870	0.057291	-1.009393	-1.010676	0.010314	40.2508	-1.009585	-3.053509E+13	-3.377740E-16	NaN
1118	1.000000	0.066600	7.37599e+06	-56039.1	1055.82	-29740	0.000000	0.000000	6.066769	-0.022027	NaN	0.000000	0.001653	0.001720	28.0833	0.084182	0.002075	40.5631	-175.249	-165.493	-0.003094	0.065326	-1.001367	-1.002642	-0.022027	40.5631	-1.000960	-2.337184E+13	9.424604E-16	NaN
1118	1.000000	0.074585	7.37599e+06	-56039.1	1055.82	-29740	0.000000	0.000000	6.074753	-0.041968	NaN	0.000000	0.001649	0.001684	28.0831	0.101848	0.002053	49.6146	22.9991	-167.987	-0.074461	0.073339	-0.993383	-0.994628	-0.041968	49.6146	-0.992748	-1.811849E+13	2.316319E-15	NaN
1118	1.000000	0.082600	7.37599e+06	-56039.1	1055.82	-29740	0.000000	0.000000	6.082772	0.061963	NaN	0.000000	0.001663	0.001733	28.0832	0.044185	0.002035	21.71	143.572	-170.323	0.040403	0.081276	-0.985367	-0.986691	0.061963	21.71	-0.987508	-1.540077E+13	-4.023346E-15	NaN
1118	1.000000	0.090601	7.37599e+06	-56039.1	1055.82	-29740	0.000000	0.000000	6.090769	-0.027191	NaN	0.000000	0.001655	0.001705	28.0833	0.080240	0.002054	39.0701	-164.314	-165.074	-0.013586	0.089257	-0.977366	-0.978710	-0.027191	39.0701	-0.976844	-1.106355E+13	2.457693E-15	NaN
1118	1.000000	0.098583	7.37599e+06	-56039.1	1055.82	-29740	0.000000	0.000000	6.098756	0.064481	NaN	0.000000	0.001633	0.001733	28.0836	0.118321	0.001951	60.6601	61.2019	-167.253	0.108097	0.097286	-0.969384	-0.970681	0.064481	60.6601	-0.970181	-8.997147E+12	-7.166817E-15	NaN
1118	1.000000	0.106601	7.37599e+06	-56039.1	1055.82	-29740	0.000000	0.000000	6.106769	-0.035425	NaN	0.000000	0.001633	0.001725	28.0833	0.054537	0.002028	26.8974	112.726	-164.551	0.019093	0.105318	-0.961366	-0.962649	-0.035425	26.8974	-0.960378	-6.636994E+12	5.337461E-15	NaN
1118	1.000000	0.114619	7.37599e+06	-56039.1	1055.82	-29740	0.000000	0.000000	6.114788	-0.010154	NaN	0.000000	0.001630	0.001720	28.0834	0.053563	0.001970	27.1888	-38.4425	-166.698	0.050403	0.113311	-0.953348	-0.954656	-0.010154	27.1888	-0.953068	-5.289366E+12	1.919718E-15	NaN
1118	1.000000	0.122581	7.37599e+06	-56039.1	1055.82	-29740	0.000000	0.000000	6.122753	0.041598	NaN	0.000000	0.001641	0.001742	28.0822	0.057516	0.002042	28.1694	-94.8654	-162.723	0.028272	0.121229	-0.945386	-0.946739	0.041598	28.1694	-0.946493	-4.312515E+12	-9.645848E-15	NaN
1118	1.000000	0.130591	7.37599e+06	-56039.1	1055.82	-29740	0.000000	0.000000	6.130764	0.074277	NaN	0.000000	0.001637	0.001733	28.0821	0.052294	0.002061	25.376	143.199	-165.987	0.048156	0.129331	-0.937376	-0.938636	0.074277	25.376	-0.939572	-3.478239E+12	-2.135465E-14	NaN
1118	1.000000	0.138600	7.37599e+06	-56039.1	1055.82	-29740	0.000000	0.000000	6.138771	0.023438	NaN	0.000000	0.001622	0.001743	28.0822	0.072450	0.002041	35.5054	-40.9055	-166.456	0.002803	0.137286	-0.929367	-0.930682	0.023438	35.5054	-0.929862	-2.572375E+12	-9.111489E-15	NaN
1118	1.000000	0.146624	7.37599e+06	-56039.1	1055.82	-29740	0.000000	0.000000	6.146796	0.047207	NaN	0.000000	0.001639	0.001717	28.082	0.140372	0.001898	73.9613	-44.5176	-169.589	0.007823	0.145313	-0.921343	-0.922654	0.047207	73.9613	-0.921822	-2.003559E+12	-2.356168E-14	NaN
1118	1.000000	0.154615	7.37599e+06	-56039.1	1055.82	-29740	0.000000	0.000000	6.154788	0.061297	NaN	0.000000	0.001645	0.001737	28.082	0.096254	0.001946	49.4596	24.0781	-167.432	0.019995	0.153294	-0.913352	-0.914674	0.061297	49.4596	-0.914281	-1.584835E+12	-3.867716E-14	NaN
1118	1.000000	0.162600	7.37599e+06	-56039.1	1055.82	-29740	0.000000	0.000000	6.162770	-0.002335	NaN	0.000000	0.001647	0.001704	28.0822	0.094872	0.001975	48.026	177.982	-164.515	-0.050956	0.161285	-0.905367	-0.906682	-0.002335	48.026	-0.905330	-1.199737E+12	1.946247E-15	NaN
1118	1.000000	0.170639	7.37599e+06	-56039.1	1055.82	-29740	0.000000	0.000000	6.170811	0.050919	NaN	0.000000	0.001655	0.001701	28.082	0.039270	0.002054	19.1141	-133.401	-165.7	0.140403	0.169302	-0.897328	-0.898665	0.050919	19.1141	-0.899326	-9.953137E+11	-5.115866E-14	NaN
1118	1.000000	0.178648	7.37599e+06	-56039.1	1055.82	-29740	0.000000	0.000000	6.178816	-0.051777	NaN	0.000000	0.001698	0.001758	28.0823	0.047119	0.001966	23.9655	-134.549	-165.119	0.067062	0.177267	-0.889319	-0.890700	-0.051777	23.9655	-0.887699	-6.931188E+11	7.470133E-14	NaN
1118	1.000000	0.186647	7.37599e+06	-56039.1	1055.82	-29740	0.000000	0.000000	6.186817	0.022837	NaN	0.000000	0.001616	0.001702	28.0822	0.027456	0.001957	14.0275	-43.1144	-167.173	-0.002252	0.185305	-0.881320	-0.882662	0.022837	14.0275	-0.882541	-5.903039E+11	-3.868739E-14	NaN
1118	1.000000	0.194636	7.37599e+06	-56039.1	1055.82	-29740	0.000000	0.000000	6.194806	0.024749	NaN	0.000000	0.001626	0.001723	28.0822	0.023802	0.001998	11.9156	-149.539	-165.514	0.034550	0.193328	-0.873332	-0.874640	0.024749	11.9156	-0.874889	-4.651435E+11	-5.320803E-14	NaN
1118	1.000000	0.202629	7.37599e+06	-56039.1	1055.82	-29740	0.000000	0.000000	6.202798	-0.016803	NaN	0.000000	0.001661	0.001720	28.0823	0.122431	0.001852	66.1225	-134.677	-165.245	0.029246	0.201316	-0.865338	-0.866651	-0.016803	66.1225	-0.865148	-3.433899E+11	4.893400E-14	NaN
1118	1.000000	0.210639	7.37599e+06	-56039.1	1055.82	-29740	0.000000	0.000000	6.210814	0.111419	NaN	0.000000	0.001639	0.001707	28.0823	0.147879	0.001944	76.0556	175.537	-168.584	0.066765	0.209297	-0.857328	-0.858670	0.111419	76.0556	-0.858426	-2.784981E+11	-4.000700E-13	NaN
1118	1.000000	0.218650	7.37599e+06	-56039.1	1055.82	-29740	0.000000	0.000000	6.218822	0.058591	NaN	0.000000	0.001641	0.001683	28.0824	0.097917	0.002030	48.2433	-77.4366	-165.318	0.059142	0.217314	-0.849318	-0.850653	0.058591	48.2433	-0.850228	-2.156903E+11	-2.716428E-13	NaN
1118	1.000000	0.226663	7.37599e+06	-56039.1	1055.82	-29740	0.000000	0.000000	6.226832	-0.013108	NaN	0.000000	0.001644	0.001705	28.0822	0.050777	0.001896	26.7879	51.6663	-162.664	-0.106830	0.225363	-0.841304	-0.842604	-0.013108	26.7879	-0.840937	-1.614331E+11	8.119805E-14	NaN
1118	1.000000	0.234643	7.37599e+06	-56039.1	1055.82	-29740	0.000000	0.000000	6.234814	0.034204	NaN	0.000000	0.001612	0.001701	28.0824	0.066824	0.002053	32.5535	-63.794	-168.571	0.141193	0.233302	-0.833324	-0.834665	0.034204	32.5535	-0.834112	-1.304716E+11	-2.621568E-13	NaN
1118	1.000000	0.242670	7.37599e+06	-56039.1	1055.82	-29740	0.000000	0.000000	6.242843	0.072194	NaN	0.000000	0.001619	0.001685	28.0824	0.037707	0.002094	18.0095	113.096	-169.395	-0.032905	0.241344	-0.825297	-0.826623	0.072194	18.0095	-0.828304	-1.088413E+11	-6.633005E-13	NaN
1118	1.000000	0.250646	7.37599e+06	-56039.1	1055.82	-29740	0.000000	0.000000	6.250815	-0.017432	NaN	0.000000	0.001595	0.001710	28.0822	0.095766	0.002061	46.4711	-55.8094	-165.355	0.018514	0.249339	-0.817322	-0.818628	-0.017432	46.4711	-0.817040	-7.657255E+10	2.276577E-13	NaN
1118	1.000000	0.258694	7.37599e+06	-56039.1	1055.82	-29740	0.000000	0.000000	6.258864	0.008112	NaN	0.000000	0.001655	0.001720	28.0837	0.105044	0.002179	48.205	168.933	-167.21	0.075277	0.257370	-0.809273	-0.810597	0.008112	48.205	-0.809400	-6.031514E+10	-1.344914E-13	NaN
1118	1.000000	0.266685	7.37599e+06	-56039.1	1055.82	-29740	0.000000	0.000000	6.266858	0.084885	NaN	0.000000	0.001625	0.001711	28.0836	0.104001	0.001946	53.4408	-138.907	-165.076	0.048887	0.265363	-0.801283	-0.802604	0.084885	53.4408	-0.802474	-4.857840E+10	-1.747385E-12	NaN
1118	1.000000	0.274692	7.37599e+06	-56039.1	1055.82	-29740	0.000000	0.000000	6.274863	0.023275	NaN	0.000000	0.001637	0.001694	28.0836	0.087575	0.001978	44.2768	179.673	-161.139	-0.016773	0.273379	-0.793275	-0.794589	0.023275	44.2768	-0.793670	-3.689066E+10	-6.309155E-13	NaN
1118	1.000000	0.282697	7.37599e+06	-56039.1	1055.82	-29740	0.000000	0.000000	6.282866	-0.009204	NaN	0.000000	0.001596	0.001726	28.0837	0.108738	0.002006	54.2174	-147.621	-168.65	0.040066	0.281352	-0.785270	-0.786615	-0.009204	54.2174	-0.785143	-2.825603E+10	3.257205E-13	NaN
1118	1.000000	0.290695	7.37599e+06	-56039.1	1055.82	-29740	0.000000	0.000000	6.290863	-0.029217	NaN	0.000000	0.001622	0.001692	28.0837	0.072673	0.002019	35.9855	95.2557	-167.258	-0.020848	0.289306	-0.777273	-0.778661	-0.029217	35.9855	-0.776664	-2.167156E+10	1.348178E-12	NaN
1118	1.000000	0.298690	7.37599e+06	-56039.1	1055.82	-29740	0.000000	0.000000	6.298860	0.007745	NaN	0.000000	0.001657	0.001718	28.0837	0.080933	0.001955	41.4078	6.585709	-167.219	-0.051381	0.297359	-0.769277	-0.770609	0.007745	41.4078	-0.769417	-1.727363E+10	-4.483615E-13	NaN
1118	1.000000	0.306685	7.37599e+06	-56039.1	1055.82	-29740	0.000000	0.000000	6.306857	0.046252	NaN	0.000000	0.001655	0.001691	28.0835	0.126968	0.002032	62.4827	-151.57	-167.953	0.085036	0.305384	-0.761282	-0.762583	0.046252	62.4827	-0.761837	-1.362377E+10	-3.394968E-12	NaN
1118	1.000000	0.314704	7.37599e+06	-56039.1	1055.82	-29740	0.000000	0.000000	6.314874	0.016229	NaN	0.000000	0.001643	0.001689	28.0835	0.048230	0.001885	25.5885	16.175	-165.56	0.058749	0.313407	-0.753264	-0.754560	0.016229	25.5885	-0.753739	-1.057098E+10	-1.535270E-12	NaN
1118	1.000000	0.322713	7.37599e+06	-56039.1	1055.82	-29740	0.000000	0.000000	6.322885	0.050516	NaN	0.000000	0.001693	0.001689	28.0838	0.050776	0.001993	25.4754	15.1967	-164.198	0.084679	0.321399	-0.745254	-0.746568	0.050516	25.4754	-0.746741	-8.489021E+9	-5.950763E-12	NaN
1118	1.000000	0.330676	7.37599e+06	-56039.1	1055.82	-29740	0.000000	0.000000	6.330847	0.024475	NaN	0.000000	0.001677	0.001714	28.0836	0.028988	0.001949	14.8709	87.0225	-162.808	0.068617	0.329366	-0.737291	-0.738601	0.024475	14.8709	-0.738525	-6.560952E+9	-3.730430E-12	NaN
1118	1.000000	0.338701	7.37599e+06	-56039.1	1055.82	-29740	0.000000	0.000000	6.338872	0.045593	NaN	0.000000	0.001679	0.001737	28.0836	0.098230	0.001853	53.0148	-49.0374	-164.21	0.041119	0.337367	-0.729267	-0.730601	0.045593	53.0148	-0.729912	-5.007288E+9	-9.105264E-12	NaN
1118	1.000000	0.346695	7.37599e+06	-56039.1	1055.82	-29740	0.000000	0.000000	6.346867	0.040252	NaN	0.000000	0.001660	0.001709	28.0838	0.089879	0.001831	49.0941	-153.778	-166.945	-0.044914	0.345413	-0.721272	-0.722554	0.040252	49.0941	-0.721887	-3.892257E+9	-1.034161E-11	NaN
1118	1.000000	0.354714	7.37599e+06	-56039.1	1055.82	-29740	0.000000	0.000000	6.354884	0.017060	NaN	0.000000	0.001663	0.001700	28.0834	0.076310	0.002086	36.5761	20.0545	-164.298	-0.042944	0.353394	-0.713253	-0.714573	0.017060	36.5761	-0.713603	-3.000627E+9	-5.685496E-12	NaN
1118	1.000000	0.362737	7.37599e+06	-56039.1	1055.82	-29740	0.000000	0.000000	6.362907	0.000781	NaN	0.000000	0.001642	0.001710	28.0835	0.082874	0.001999	41.4555	91.9424	-166.848	0.033886	0.361401	-0.705230	-0.706566	0.000781	41.4555	-0.705244	-2.307457E+9	-3.384582E-13	NaN
1118	1.000000	0.370713	7.37599e+06	-56039.1	1055.82	-29740	0.000000	0.000000	6.370883	0.002138	NaN	0.000000	0.001675	0.001716	28.0834	0.091437	0.001826	50.0709	106.668	-166.142	0.056774	0.369387	-0.697254	-0.698580	0.002138	50.0709	-0.697286	-1.796641E+9	-1.189882E-12	NaN
1118	1.000000	0.378733	7.37599e+06	-56039.1	1055.82	-29740	0.000000	0.000000	6.378902	-0.015628	NaN	0.000000	0.001671	0.001704	28.0835	0.071510	0.002113	33.8361	-103.1	-167.969	-0.050477	0.377434	-0.689234	-0.690533	-0.015628	33.8361	-0.688888	-1.379484E+9	1.132869E-11	NaN
1118	1.000000	0.386691	7.37599e+06	-56039.1	1055.82	-29740	0.000000	0.000000	6.386860	-0.025507	NaN	0.000000	0.001664	0.001703	28.0835	0.032237	0.001981	16.2701	127.925	-161.887	-0.005433	0.385447	-0.681276	-0.682521	-0.025507	16.2701	-0.680100	-1.046103E+9	2.438258E-11	NaN
1118	1.000000	0.394704	7.37599e+06	-56039.1	1055.82	-29740	0.000000	0.000000	6.394875	0.027910	NaN	0.000000	0.001678	0.001733	28.0826	0.106782	0.001872	57.0486	-82.4881	-161.279	0.042328	0.393389	-0.673263	-0.674578	0.027910	57.0486	-0.673630	-8.532386E+8	-3.271094E-11	NaN
1118	1.000000	0.402734	7.37599e+06	-56039.1	1055.82	-29740	0.000000	0.000000	6.402904	0.018279	NaN	0.000000	0.001650	0.001716	28.0823	0.043537	0.001930	22.5541	-171.265	-170.652	0.001761	0.401373	-0.665233	-0.666594	0.018279	22.5541	-0.665841	-6.675162E+8	-2.738341E-11	NaN
1118	1.000000	0.410747	7.37599e+06	-56039.1	1055.82	-29740	0.000000	0.000000	6.410917	-0.000797	NaN	0.000000	0.001656	0.001705	28.0822	0.087838	0.001983	44.2852	-81.5444	-166.358	-0.044434	0.409414	-0.657220	-0.658553	-0.000797	44.2852	-0.657207	-5.083990E+8	1.568061E-12	NaN
1118	1.000000	0.418720	7.37599e+06	-56039.1	1055.82	-29740	0.000000	0.000000	6.418888	-0.039325	NaN	0.000000	0.001636	0.001693	28.0822	0.079712	0.001872	42.5806	90.1343	-163.182	0.005482	0.417416	-0.649248	-0.650552	-0.039325	42.5806	-0.648555	-3.869227E+8	1.016359E-10	NaN
1118	1.000000	0.426744	7.37599e+06	-56039.1	1055.82	-29740	0.000000	0.000000	6.426914	0.020802	NaN	0.000000	0.001608	0.001713	28.0823	0.023709	0.001983	11.9558	-174.206	-160.982	0.059031	0.425430	-0.641223	-0.642537	0.020802	11.9558	-0.642528	-3.198726E+8	-6.503193E-11	NaN
1118	1.000000	0.434750	7.37599e+06	-56039.1	1055.82	-29740	0.000000	0.000000	6.434919	-0.019565	NaN	0.000000	0.001642	0.001711	28.0823	0.088288	0.002148	41.1115	173.788	-168.385	0.048096	0.433422	-0.633217	-0.634545	-0.019565	41.1115	-0.632860	-2.356669E+8	8.302121E-11	NaN
1118	1.000000	0.442755	7.37599e+06	-56039.1	1055.82	-29740	0.000000	0.000000	6.442925	0.007908	NaN	0.000000	0.001641	0.001715	28.0822	0.052486	0.001924	27.2776	69.6668	-163.729	-0.003014	0.441479	-0.625212	-0.626489	0.007908	27.2776	-0.625430	-1.863144E+8	-4.244502E-11	NaN
1118	1.000000	0.450765	7.37599e+06	-56039.1	1055.82	-29740	0.000000	0.000000	6.450934	-0.034598	NaN	0.000000	0.001640	0.001694	28.0823	0.065799	0.001814	36.2729	-169.656	-167.176	-0.030618	0.449456	-0.617202	-0.618511	-0.034598	36.2729	-0.616486	-1.403879E+8	2.464481E-10	NaN
1118	1.000000	0.458741	7.37599e+06	-56039.1	1055.82	-29740	0.000000	0.000000	6.458909	-0.033664	NaN	0.000000	0.001645	0.001728	28.0822	0.033504	0.002109	15.8892	-104.916	-168.91	0.038673	0.457455	-0.609226	-0.610512	-0.033664	15.8892	-0.607637	-1.060726E+8	3.173633E-10	NaN
1118	1.000000	0.466724	7.37599e+06	-56039.1	1055.82	-29740	0.000000	0.000000	6.466894	0.003991	NaN	0.000000	0.001631	0.001738	28.0823	0.042605	0.002043	20.8521	126.036	-167.283	0.036224	0.465434	-0.601243	-0.602533	0.003991	20.8521	-0.601387	-8.700738E+7	-4.586704E-11	NaN
1118	1.000000	0.474761	7.37599e+06	-56039.1	1055.82	-29740	0.000000	0.000000	6.474932	0.035765	NaN	0.000000	0.001633	0.001683	28.0821	0.060231	0.001954	30.82	-101.885	-165.672	0.065919	0.473442	-0.593206	-0.594525	0.035765	30.82	-0.594077	-6.900136E+7	-5.183264E-10	NaN
1118	1.000000	0.482746	7.37599e+06	-56039.1	1055.82	-29740	0.000000	0.000000	6.482915	-0.027886	NaN	0.000000	0.001684	0.001679	28.0823	0.053379	0.001938	27.5451	-2.658517	-169.102	-0.036803	0.481488	-0.585221	-0.586479	-0.027886	27.5451	-0.584462	-5.084986E+7	5.483956E-10	NaN
1118	1.000000	0.490794	7.37599e+06	-56039.1	1055.82	-29740	0.000000	0.000000	6.490962	-0.037701	NaN	0.000000	0.001712	0.001720	28.0825	0.093657	0.001899	49.3317	-153.359	-165.524	0.033315	0.489455	-0.577174	-0.578512	-0.037701	49.3317	-0.576600	-3.960924E+7	9.518355E-10	NaN
1118	1.000000	0.498775	7.37599e+06	-56039.1	1055.82	-29740	0.000000	0.000000	6.498944	-0.019140	NaN	0.000000	0.001727	0.001735	28.0821	0.113269	0.001941	58.3466	-16.0219	-166.023	0.085764	0.497428	-0.569192	-0.570539	-0.019140	58.3466	-0.568946	-3.105030E+7	6.164155E-10	NaN
1118	1.000000	0.506762	7.37599e+06	-56039.1	1055.82	-29740	0.000000	0.000000	6.506933	0.044472	NaN	0.000000	0.001691	0.001692	28.0825	0.061954	0.002030	30.515	-44.826	-169.273	0.011060	0.505430	-0.561205	-0.562538	0.044472	30.515	-0.562298	-2.512869E+7	-1.769753E-9	NaN
1118	1.000000	0.514800	7.37599e+06	-56039.1	1055.82	-29740	0.000000	0.000000	6.514973	0.069094	NaN	0.000000	0.001706	0.001722	28.0822	0.078828	0.001984	39.7397	-107.964	-167.05	-0.028374	0.513482	-0.553167	-0.554485	0.069094	39.7397	-0.554471	-1.958251E+7	-3.528352E-9	NaN
1118	1.000000	0.522799	7.37599e+06	-56039.1	1055.82	-29740	0.000000	0.000000	6.522972	0.062764	NaN	0.000000	0.001686	0.001703	28.0825	0.023174	0.002001	11.5838	146.019	-168.182	-0.008520	0.521443	-0.545168	-0.546524	0.062764	11.5838	-0.549232	-1.656966E+7	-3.787888E-9	NaN
1118	1.000000	0.530802	7.37599e+06	-56039.1	1055.82	-29740	0.000000	0.000000	6.530973	0.025587	NaN	0.000000	0.001702	0.001733	28.083	0.087604	0.002036	43.0239	-8.255772	-167.969	-0.004253	0.529409	-0.537165	-0.538559	0.025587	43.0239	-0.537611	-1.143458E+7	-2.237668E-9	NaN
1118	1.000000	0.538761	7.37599e+06	-56039.1	1055.82	-29740	0.000000	0.000000	6.538933	0.050558	NaN	0.000000	0.001715	0.001715	28.0835	0.073311	0.001998	36.6926	34.0792	-166.213	0.071788	0.537485	-0.529206	-0.530483	0.050558	36.6926	-0.530239	-9.0344e+06	-5.596173E-9	NaN
1118	1.000000	0.546779	7.37599e+06	-56039.1	1055.82	-29740	0.000000	0.000000	6.546951	0.057090	NaN	0.000000	0.001721	0.001707	28.0835	0.039950	0.001966	20.3153	-88.9088	-167.7	0.026538	0.545478	-0.521189	-0.522489	0.057090	20.3153	-0.523296	-7.23484e+06	-7.890920E-9	NaN
1118	1.000000	0.554779	7.37599e+06	-56039.1	1055.82	-29740	0.000000	0.000000	6.554947	-0.048175	NaN	0.000000	0.001704	0.001721	28.0834	0.088360	0.002176	40.6032	-78.3002	-165.941	-0.031950	0.553482	-0.513188	-0.514485	-0.048175	40.6032	-0.512298	-5.08649e+06	9.471096E-9	NaN
1118	1.000000	0.562787	7.37599e+06	-56039.1	1055.82	-29740	0.000000	0.000000	6.562959	0.054259	NaN	0.000000	0.001725	0.001741	28.0838	0.025062	0.001935	12.9539	117.027	-167.189	0.073884	0.561494	-0.505180	-0.506474	0.054259	12.9539	-0.508321	-4.47743e+06	-1.211825E-8	NaN
1118	1.000000	0.570788	7.37599e+06	-56039.1	1055.82	-29740	0.000000	0.000000	6.570958	0.012273	NaN	0.000000	0.001720	0.001757	28.0837	0.070003	0.001997	35.049	96.7388	-166.287	-0.077568	0.569476	-0.497179	-0.498491	0.012273	35.049	-0.497442	-3.15733e+06	-3.887057E-9	NaN
1118	1.000000	0.578803	7.37599e+06	-56039.1	1055.82	-29740	0.000000	0.000000	6.578970	-0.045129	NaN	0.000000	0.001747	0.001713	28.0836	0.144960	0.002005	72.3096	28.7039	-165.153	0.003805	0.577448	-0.489165	-0.490520	-0.045129	72.3096	-0.488697	-2.38329e+06	1.893552E-8	NaN
1118	1.000000	0.586806	7.37599e+06	-56039.1	1055.82	-29740	0.000000	0.000000	6.586978	0.052811	NaN	0.000000	0.001754	0.001712	28.0837	0.085743	0.002069	41.4346	80.1554	-168.157	0.055000	0.585494	-0.481161	-0.482473	0.052811	41.4346	-0.482117	-1.92824e+06	-2.738820E-8	NaN
1118	1.000000	0.594798	7.37599e+06	-56039.1	1055.82	-29740	0.000000	0.000000	6.594971	0.083674	NaN	0.000000	0.001709	0.001727	28.0837	0.042309	0.001946	21.7412	67.9299	-165.492	0.029853	0.593500	-0.473169	-0.474467	0.083674	21.7412	-0.476056	-1.58595e+06	-5.275967E-8	NaN
1118	1.000000	0.602827	7.37599e+06	-56039.1	1055.82	-29740	0.000000	0.000000	6.602997	-0.004274	NaN	0.000000	0.001683	0.001742	28.0837	0.100965	0.001992	50.6916	-57.5784	-165.842	0.042816	0.601507	-0.465140	-0.466461	-0.004274	50.6916	-0.465077	-1.11257e+06	3.841678E-9	NaN
1118	1.000000	0.610828	7.37599e+06	-56039.1	1055.82	-29740	0.000000	0.000000	6.610999	0.027831	NaN	0.000000	0.001696	0.001746	28.0836	0.146150	0.002053	71.2036	-168.932	-167.667	0.013240	0.609563	-0.457139	-0.458405	0.027831	71.2036	-0.457432	-868803	-3.203390E-8	NaN
1118	1.000000	0.618817	7.37599e+06	-56039.1	1055.82	-29740	0.000000	0.000000	6.618987	0.004309	NaN	0.000000	0.001671	0.001739	28.0837	0.037873	0.001997	18.9693	-86.8181	-168.617	0.026178	0.617539	-0.449151	-0.450429	0.004309	18.9693	-0.449321	-668003	-6.450209E-9	NaN
1118	1.000000	0.626797	7.37599e+06	-56039.1	1055.82	-29740	0.000000	0.000000	6.626968	0.031689	NaN	0.000000	0.001632	0.001732	28.0837	0.096966	0.002059	47.0845	-101.99	-166.793	0.019677	0.625472	-0.441171	-0.442495	0.031689	47.0845	-0.441675	-521201	-6.079904E-8	NaN
1118	1.000000	0.634805	7.37599e+06	-56039.1	1055.82	-29740	0.000000	0.000000	6.634976	0.024226	NaN	0.000000	0.001628	0.001793	28.0834	0.077324	0.002045	37.8026	49.2471	-169.334	0.007480	0.633513	-0.433162	-0.434454	0.024226	37.8026	-0.433643	-401397	-6.035437E-8	NaN
1118	1.000000	0.642820	7.37599e+06	-56039.1	1055.82	-29740	0.000000	0.000000	6.642989	-0.013001	NaN	0.000000	0.001656	0.001773	28.085	0.034824	0.002001	17.4053	-85.0632	-166.954	0.028811	0.641534	-0.425147	-0.426433	-0.013001	17.4053	-0.424587	-298833	4.350464E-8	NaN
1118	1.000000	0.650835	7.37599e+06	-56039.1	1055.82	-29740	0.000000	0.000000	6.651007	0.071252	NaN	0.000000	0.001671	0.001713	28.0835	0.069892	0.002006	34.8419	57.7177	-164.722	0.007009	0.649565	-0.417132	-0.418402	0.071252	34.8419	-0.418666	-246317	-2.892700E-7	NaN
1118	1.000000	0.658850	7.37599e+06	-56039.1	1055.82	-29740	0.000000	0.000000	6.659022	0.046926	NaN	0.000000	0.001676	0.001755	28.0837	0.038153	0.002087	18.2827	-96.3129	-168.538	-0.084128	0.657549	-0.409117	-0.410418	0.046926	18.2827	-0.411042	-191963	-2.444509E-7	NaN
1118	1.000000	0.666830	7.37599e+06	-56039.1	1055.82	-29740	0.000000	0.000000	6.667000	0.019780	NaN	0.000000	0.001724	0.001740	28.0831	0.195248	0.002006	97.3224	170.384	-167.298	0.003195	0.665529	-0.401137	-0.402438	0.019780	97.3224	-0.401290	-139439	-1.418537E-7	NaN
1118	1.000000	0.674858	7.37599e+06	-56039.1	1055.82	-29740	0.000000	0.000000	6.675028	0.000667	NaN	0.000000	0.001747	0.001718	28.0824	0.032055	0.001987	16.1339	-158.222	-164.392	0.069616	0.673488	-0.393109	-0.394480	0.000667	16.1339	-0.393140	-106675	-6.248220E-9	NaN
1118	1.000000	0.682838	7.37599e+06	-56039.1	1055.82	-29740	0.000000	0.000000	6.683007	-0.020870	NaN	0.000000	0.001725	0.001735	28.0824	0.061661	0.001889	32.6399	29.3382	-167.406	-0.015190	0.681507	-0.385129	-0.386460	-0.020870	32.6399	-0.384650	-80643.6	2.587957E-7	NaN
1118	1.000000	0.690877	7.37599e+06	-56039.1	1055.82	-29740	0.000000	0.000000	6.691050	0.086466	NaN	0.000000	0.001746	0.001749	28.0826	0.147571	0.001886	78.2645	-124.278	-164.071	0.170883	0.689514	-0.377090	-0.378453	0.086466	78.2645	-0.377919	-64567.3	-1.339159E-6	NaN
1118	1.000000	0.698873	7.37599e+06	-56039.1	1055.82	-29740	0.000000	0.000000	6.699041	-0.047851	NaN	0.000000	0.001752	0.001771	28.0827	0.029326	0.001900	15.4366	95.6267	-165.53	-0.040083	0.697506	-0.369094	-0.370461	-0.047851	15.4366	-0.366769	-44624.3	1.072302E-6	NaN
1118	1.000000	0.706840	7.37599e+06	-56039.1	1055.82	-29740	0.000000	0.000000	6.707008	-0.041540	NaN	0.000000	0.001750	0.001746	28.0823	0.031159	0.002085	14.9453	-150.498	-167.832	0.034159	0.705544	-0.361127	-0.362423	-0.041540	14.9453	-0.359042	-34514.1	1.203559E-6	NaN
1118	1.000000	0.714861	7.37599e+06	-56039.1	1055.82	-29740	0.000000	0.000000	6.715031	-0.002356	NaN	0.000000	0.001726	0.001705	28.0825	0.106770	0.002067	51.6564	147.035	-166.788	0.015981	0.713550	-0.353106	-0.354417	-0.002356	51.6564	-0.353072	-28284.8	8.328939E-8	NaN
1118	1.000000	0.722861	7.37599e+06	-56039.1	1055.82	-29740	0.000000	0.000000	6.723034	0.093014	NaN	0.000000	0.001709	0.001746	28.0824	0.065281	0.001862	35.0507	-46.5357	-164.699	0.020730	0.721518	-0.345107	-0.346449	0.093014	35.0507	-0.347097	-23165.5	-4.015178E-6	NaN
1118	1.000000	0.730882	7.37599e+06	-56039.1	1055.82	-29740	0.000000	0.000000	6.731054	0.052104	NaN	0.000000	0.001732	0.001780	28.0825	0.063565	0.001952	32.5594	-92.0045	-165.159	0.044242	0.729527	-0.337085	-0.338440	0.052104	32.5594	-0.338286	-17240.7	-3.022157E-6	NaN
1118	1.000000	0.738872	7.37599e+06	-56039.1	1055.82	-29740	0.000000	0.000000	6.739041	-0.016668	NaN	0.000000	0.001707	0.001728	28.0829	0.071264	0.002009	35.4667	152.686	-170.684	-0.042634	0.737572	-0.329095	-0.330396	-0.016668	35.4667	-0.328742	-12503.3	1.333084E-6	NaN
1118	1.000000	0.746884	7.37599e+06	-56039.1	1055.82	-29740	0.000000	0.000000	6.747055	0.028245	NaN	0.000000	0.001715	0.001735	28.0823	0.020555	0.002216	9.276194	106.379	-167.465	-0.047976	0.745564	-0.321083	-0.322403	0.028245	9.276194	-0.323367	-10426.7	-2.708924E-6	NaN
1118	1.000000	0.754881	7.37599e+06	-56039.1	1055.82	-29740	0.000000	0.000000	6.755051	-0.010343	NaN	0.000000	0.001691	0.001751	28.0826	0.014353	0.002065	6.950022	-151.924	-167.847	0.011416	0.753562	-0.313086	-0.314405	-0.010343	6.950022	-0.311970	-7082.55	1.460283E-6	NaN
1118	1.000000	0.762867	7.37599e+06	-56039.1	1055.82	-29740	0.000000	0.000000	6.763036	-0.014252	NaN	0.000000	0.001690	0.001728	28.0824	0.085491	0.001984	43.0803	176.271	-166.468	-0.087394	0.761563	-0.305100	-0.306404	-0.014252	43.0803	-0.304852	-5555.95	2.565200E-6	NaN
1118	1.000000	0.770876	7.37599e+06	-56039.1	1055.82	-29740	0.000000	0.000000	6.771047	0.042905	NaN	0.000000	0.001643	0.001737	28.0825	0.079174	0.002090	37.8749	-156	-163.751	0.048396	0.769536	-0.297091	-0.298431	0.042905	37.8749	-0.297941	-4384.94	-9.784641E-6	NaN
1118	1.000000	0.778891	7.37599e+06	-56039.1	1055.82	-29740	0.000000	0.000000	6.779063	0.042718	NaN	0.000000	0.001673	0.001752	28.0824	0.119251	0.002062	57.8374	-49.887	-164.13	0.026348	0.777553	-0.289076	-0.290415	0.042718	57.8374	-0.289630	-3294.27	-1.296746E-5	NaN
1118	1.000000	0.786887	7.37599e+06	-56039.1	1055.82	-29740	0.000000	0.000000	6.787056	-0.023220	NaN	0.000000	0.001635	0.001728	28.0822	0.034174	0.002078	16.4492	-74.3486	-167.312	-0.069391	0.785571	-0.281080	-0.282396	-0.023220	16.4492	-0.280021	-2362.06	9.830263E-6	NaN
1118	1.000000	0.794892	7.37599e+06	-56039.1	1055.82	-29740	0.000000	0.000000	6.795061	-0.015155	NaN	0.000000	0.001683	0.001734	28.0826	0.054862	0.001992	27.5375	-1.482851	-169.024	-0.052098	0.793609	-0.273075	-0.274358	-0.015155	27.5375	-0.272662	-1827.97	8.290777E-6	NaN
1118	1.000000	0.802904	7.37599e+06	-56039.1	1055.82	-29740	0.000000	0.000000	6.803074	0.011977	NaN	0.000000	0.001701	0.001718	28.0825	0.031940	0.002014	15.8597	99.1772	-169.707	-0.013965	0.801614	-0.265063	-0.266354	0.011977	15.8597	-0.265630	-1428.89	-8.381730E-6	NaN
1118	1.000000	0.810903	7.37599e+06	-56039.1	1055.82	-29740	0.000000	0.000000	6.811072	-0.032499	NaN	0.000000	0.001645	0.001746	28.0836	0.060611	0.001926	31.466	-33.9173	-167.852	-0.070547	0.809616	-0.257064	-0.258352	-0.032499	31.466	-0.256289	-1027.9	3.161723E-5	NaN
1118	1.000000	0.818901	7.37599e+06	-56039.1	1055.82	-29740	0.000000	0.000000	6.819070	-0.019368	NaN	0.000000	0.001642	0.001708	28.0833	0.155031	0.001893	81.9024	-151.386	-169.952	-0.086543	0.817622	-0.249066	-0.250345	-0.019368	81.9024	-0.248888	-790.252	2.450891E-5	NaN
1118	1.000000	0.826884	7.37599e+06	-56039.1	1055.82	-29740	0.000000	0.000000	6.827057	0.064399	NaN	0.000000	0.001669	0.001716	28.0834	0.158588	0.002053	77.2282	117.361	-163.848	0.014333	0.825634	-0.241083	-0.242333	0.064399	77.2282	-0.241708	-611.237	-0.000105	NaN
1118	1.000000	0.834925	7.37599e+06	-56039.1	1055.82	-29740	0.000000	0.000000	6.835096	0.046209	NaN	0.000000	0.001681	0.001721	28.0838	0.036068	0.002007	17.9696	-77.8234	-166.46	0.055976	0.833675	-0.233042	-0.234292	0.046209	17.9696	-0.234971	-479.504	-9.636844E-5	NaN
1118	1.000000	0.842920	7.37599e+06	-56039.1	1055.82	-29740	0.000000	0.000000	6.843093	0.090803	NaN	0.000000	0.001687	0.001754	28.0835	0.064648	0.001893	34.1485	-53.7552	-169.345	0.133085	0.841629	-0.225048	-0.226338	0.090803	34.1485	-0.227042	-359.523	-0.000253	NaN
1118	1.000000	0.850941	7.37599e+06	-56039.1	1055.82	-29740	0.000000	0.000000	6.851111	-0.006986	NaN	0.000000	0.001681	0.001773	28.0835	0.078461	0.002011	39.0084	-114.849	-164.554	0.025640	0.849589	-0.217026	-0.218378	-0.006986	39.0084	-0.216892	-247.687	2.820348E-5	NaN
1118	1.000000	0.858910	7.37599e+06	-56039.1	1055.82	-29740	0.000000	0.000000	6.859079	-0.008131	NaN	0.000000	0.001697	0.001738	28.0834	0.094720	0.002143	44.1914	-101.065	-165.636	0.031806	0.857548	-0.209058	-0.210419	-0.008131	44.1914	-0.208920	-184.208	4.414198E-5	NaN
1118	1.000000	0.866899	7.37599e+06	-56039.1	1055.82	-29740	0.000000	0.000000	6.867067	-0.044073	NaN	0.000000	0.001669	0.001742	28.0833	0.095067	0.001994	47.6811	45.5318	-164.377	-0.042327	0.865643	-0.201068	-0.202324	-0.044073	47.6811	-0.200375	-133.615	0.000330	NaN
1118	1.000000	0.874938	7.37599e+06	-56039.1	1055.82	-29740	0.000000	0.000000	6.875110	0.063744	NaN	0.000000	0.001656	0.001731	28.0835	0.098451	0.001953	50.4078	112.092	-163.936	-0.019470	0.873582	-0.193029	-0.194385	0.063744	50.4078	-0.193978	-104.774	-0.000608	NaN
1118	1.000000	0.882896	7.37599e+06	-56039.1	1055.82	-29740	0.000000	0.000000	6.883067	0.050706	NaN	0.000000	0.001706	0.001766	28.0833	0.056971	0.002053	27.7491	-167.826	-166.839	0.001863	0.881677	-0.185072	-0.186291	0.050706	27.7491	-0.186442	-78.4165	-0.000647	NaN
1118	1.000000	0.890930	7.37599e+06	-56039.1	1055.82	-29740	0.000000	0.000000	6.891103	0.080225	NaN	0.000000	0.001728	0.001770	28.0836	0.023634	0.001991	11.8686	97.2612	-167.255	0.019627	0.889595	-0.177038	-0.178372	0.080225	11.8686	-0.182107	-66.2588	-0.001211	NaN
1118	1.000000	0.898929	7.37599e+06	-56039.1	1055.82	-29740	0.000000	0.000000	6.899099	0.021319	NaN	0.000000	0.001642	0.001747	28.0835	0.009524	0.001950	4.884796	-148.891	-165.603	-0.031296	0.897625	-0.169038	-0.170342	0.021319	4.884796	-0.172312	-45.0462	-0.000473	NaN
1118	1.000000	0.906955	7.37599e+06	-56039.1	1055.82	-29740	0.000000	0.000000	6.907126	0.017252	NaN	0.000000	0.001653	0.001769	28.0834	0.076034	0.002010	37.8336	40.5294	-165.063	0.028638	0.905593	-0.161012	-0.162375	0.017252	37.8336	-0.161354	-28.9739	-0.000595	NaN
1118	1.000000	0.914928	7.37599e+06	-56039.1	1055.82	-29740	0.000000	0.000000	6.915100	0.049488	NaN	0.000000	0.001643	0.001742	28.0834	0.072168	0.001928	37.4254	84.9072	-163.921	0.036761	0.913637	-0.153039	-0.154330	0.049488	37.4254	-0.154031	-21.4348	-0.002309	NaN
1118	1.000000	0.922915	7.37599e+06	-56039.1	1055.82	-29740	0.000000	0.000000	6.923084	-0.007243	NaN	0.000000	0.001631	0.001742	28.0831	0.072509	0.001824	39.7455	-18.9013	-167.019	0.105996	0.921628	-0.145052	-0.146339	-0.007243	39.7455	-0.144915	-14.6084	0.000496	NaN
1118	1.000000	0.930903	7.37599e+06	-56039.1	1055.82	-29740	0.000000	0.000000	6.931074	0.030936	NaN	0.000000	0.001648	0.001746	28.0835	0.064016	0.001995	32.0815	-148.802	-169.364	0.015008	0.929687	-0.137064	-0.138280	0.030936	32.0815	-0.137787	-10.7461	-0.002879	NaN
1118	1.000000	0.938948	7.37599e+06	-56039.1	1055.82	-29740	0.000000	0.000000	6.939116	-0.022377	NaN	0.000000	0.001621	0.001766	28.0831	0.058538	0.001912	30.6228	-72.4868	-164.157	-0.067281	0.937623	-0.129020	-0.130344	-0.022377	30.6228	-0.128471	-7.116048	0.003145	NaN
1118	1.000000	0.946953	7.37599e+06	-56039.1	1055.82	-29740	0.000000	0.000000	6.947124	0.034341	NaN	0.000000	0.001680	0.001753	28.082	0.021669	0.002008	10.7922	72.3564	-166.261	-0.006299	0.945631	-0.121014	-0.122336	0.034341	10.7922	-0.123400	-5.652557	-0.006075	NaN
1118	1.000000	0.954970	7.37599e+06	-56039.1	1055.82	-29740	0.000000	0.000000	6.955142	0.050755	NaN	0.000000	0.001648	0.001737	28.082	0.102742	0.001940	52.9712	-90.2133	-165.941	0.023087	0.953633	-0.112997	-0.114334	0.050755	52.9712	-0.113715	-3.593752	-0.014123	NaN
1118	1.000000	0.962972	7.37599e+06	-56039.1	1055.82	-29740	0.000000	0.000000	6.963143	0.052729	NaN	0.000000	0.001692	0.001781	28.082	0.120832	0.002141	56.4286	-123.708	-168.883	-0.011548	0.961670	-0.104996	-0.106297	0.052729	56.4286	-0.105696	-2.433277	-0.021670	NaN
1118	1.000000	0.970949	7.37599e+06	-56039.1	1055.82	-29740	0.000000	0.000000	6.971119	-0.001968	NaN	0.000000	0.001679	0.001769	28.0821	0.128141	0.002091	61.2785	30.121	-168.427	0.046762	0.969677	-0.097018	-0.098290	-0.001968	61.2785	-0.096994	-1.565283	0.001258	NaN
1118	1.000000	0.978959	7.37599e+06	-56039.1	1055.82	-29740	0.000000	0.000000	6.979130	0.039699	NaN	0.000000	0.001657	0.001804	28.0821	0.088533	0.002112	41.9123	27.2564	-166.804	-0.005994	0.977675	-0.089008	-0.090293	0.039699	41.9123	-0.089719	-1.064661	-0.037288	NaN
1118	1.000000	0.986947	7.37599e+06	-56039.1	1055.82	-29740	0.000000	0.000000	6.987117	-0.007043	NaN	0.000000	0.001640	0.001784	28.0825	0.096996	0.001997	48.5722	-178.016	-167.71	0.020090	0.985663	-0.081020	-0.082305	-0.007043	48.5722	-0.080911	-0.652236	0.010799	NaN
1118	1.000000	0.994959	7.37599e+06	-56039.1	1055.82	-29740	0.000000	0.000000	6.995129	0.002176	NaN	0.000000	0.001667	0.001788	28.0821	0.120372	0.001912	62.9652	14.6881	-168.649	0.028496	0.993673	-0.073008	-0.074294	0.002176	62.9652	-0.073034	-0.410501	-0.005301	NaN
1118	1.000000	1.002980	7.37599e+06	-56039.1	1055.82	-29740	0.000000	0.000000	7.003149	-0.027604	NaN	0.000000	0.001689	0.001802	28.0822	0.030418	0.001921	15.8361	49.2457	-163.281	0.043759	1.001708	-0.064987	-0.066259	-0.027604	15.8361	-0.063680	-0.228972	0.120557	NaN
1118	1.000000	1.010982	7.37599e+06	-56039.1	1055.82	-29740	0.000000	0.000000	7.011150	-0.023312	NaN	0.000000	0.001751	0.001788	28.0822	0.048838	0.002004	24.3761	-73.6463	-169.03	-0.020752	1.009653	-0.056986	-0.058314	-0.023312	24.3761	-0.056268	-0.140346	0.166105	NaN
1118	1.000000	1.018959	7.37599e+06	-56039.1	1055.82	-29740	0.000000	0.000000	7.019127	-0.048512	NaN	0.000000	0.001717	0.001808	28.082	0.053092	0.002002	26.5182	-65.1033	-167.552	-0.035842	1.017642	-0.049008	-0.050325	-0.048512	26.5182	-0.047636	-0.077351	0.627168	NaN
1118	1.000000	1.026953	7.37599e+06	-56039.1	1055.82	-29740	0.000000	0.000000	7.027121	-0.039399	NaN	0.000000	0.001730	0.001784	28.0822	0.084438	0.001985	42.5369	101.089	-165.846	0.040006	1.025692	-0.041014	-0.042275	-0.039399	42.5369	-0.040320	-0.046245	0.851965	NaN
1118	1.000000	1.034973	7.37599e+06	-56039.1	1055.82	-29740	0.000000	0.000000	7.035142	-0.017710	NaN	0.000000	0.001701	0.001817	28.082	0.019399	0.002057	9.432251	-144.43	-168.36	-0.035296	1.033622	-0.032994	-0.034345	-0.017710	9.432251	-0.031586	-0.025504	0.694418	NaN
1118	1.000000	1.042995	7.37599e+06	-56039.1	1055.82	-29740	0.000000	0.000000	7.043167	0.048184	NaN	0.000000	0.001761	0.001789	28.0822	0.087047	0.002122	41.017	133.622	-164.734	0.086357	1.041664	-0.024972	-0.026303	0.048184	41.017	-0.025853	-0.017763	-2.712593	NaN
1118	1.000000	1.051003	7.37599e+06	-56039.1	1055.82	-29740	0.000000	0.000000	7.051173	-0.007934	NaN	0.000000	0.001734	0.001769	28.082	0.055719	0.002061	27.0362	129.41	-164.466	-0.030344	1.049705	-0.016964	-0.018262	-0.007934	27.0362	-0.016744	-0.010348	0.766720	NaN
1118	1.000000	1.059018	7.37599e+06	-56039.1	1055.82	-29740	0.000000	0.000000	7.059188	0.014192	NaN	0.000000	0.001683	0.001779	28.082	0.082308	0.002001	41.1239	-69.7016	-168.194	0.047502	1.057673	-0.008949	-0.010294	0.014192	41.1239	-0.009208	-0.005933	-2.392165	NaN
1118	1.000000	1.066987	7.37599e+06	-56039.1	1055.82	-29740	0.000000	0.000000	7.067160	0.065930	NaN	0.000000	0.001726	0.001749	28.082	0.071173	0.001998	35.6309	-39.2188	-167.363	0.086901	1.065676	-0.000980	-0.002292	0.065930	35.6309	-0.002368	-0.001693	-38.9499	NaN
1118	1.000000	1.074998	7.37599e+06	-56039.1	1055.82	-29740	0.000000	0.000000	7.075189	0.519353	NaN	0.000000	0.001716	0.001770	28.082	0.826948	0.001982	417.282	17.6288	-167.304	0.105861	1.073677	0.007031	0.005710	0.519353	417.282	0.006097	0.005157	100.704	5308.77
1118	1.000000	1.082973	7.37599e+06	-56039.1	1055.82	-29740	0.000000	0.000000	7.083430	6.993329	NaN	0.000000	0.001698	0.001752	28.0836	6.846537	0.001702	4023.81	8.690616	-170.04	5.092556	1.081698	0.015006	0.013731	6.993329	4023.81	0.013702	0.013594	514.457	31531.4
1118	2.000000	1.086497	7.37599e+06	-56039.1	1055.82	-29740	0.000000	0.000000	7.087163	12.0599	NaN	0.000000	0.001710	0.001721	28.0835	10.2241	0.001558	6561.83	6.551310	-175.455	11.4148	1.086212	0.018530	0.018245	12.0599	6561.83	0.017151	0.018262	660.392	44363.6
1118	2.000000	1.088451	7.37599e+06	-56039.1	1055.82	-29740	0.000000	0.000000	7.089170	13.3492	NaN	0.000000	0.001703	0.001698	28.0831	12.4265	0.001825	6808.54	3.332555	-172.035	12.4382	1.088150	0.020484	0.020183	13.3492	6808.54	0.019014	0.021016	635.195	42909.5
1118	2.000000	1.090481	7.37599e+06	-56039.1	1055.82	-29740	0.000000	0.000000	7.091394	18.0812	NaN	0.000000	0.001755	0.001741	28.0834	14.1333	0.001757	8044.93	4.740576	-174.638	17.6542	1.090162	0.022513	0.022195	18.0812	8044.93	0.020828	0.023860	757.816	47584.2
1118	2.000000	1.092443	7.37599e+06	-56039.1	1055.82	-29740	0.000000	0.000000	7.093358	18.1007	NaN	0.000000	0.001745	0.001737	28.0834	15.5397	0.001882	8258.35	8.273009	-177.332	17.7146	1.092099	0.024476	0.024132	18.1007	8258.35	0.022832	0.027189	665.726	45757.9
1118	2.000000	1.094447	7.37599e+06	-56039.1	1055.82	-29740	0.000000	0.000000	7.095469	20.7315	NaN	0.000000	0.001722	0.001787	28.0836	17.3837	0.001850	9395.51	7.156768	-175.5	21.2763	1.094103	0.026479	0.026135	20.7315	9395.51	0.024825	0.030697	675.353	48994.1
1118	2.000000	1.096418	7.37599e+06	-56039.1	1055.82	-29740	0.000000	0.000000	7.097621	25.1287	NaN	0.000000	0.001749	0.001739	28.0834	18.0994	0.001713	10567.4	3.606762	-173.201	25.4438	1.096095	0.028451	0.028127	25.1287	10567.4	0.026667	0.034119	736.507	52269.2
1118	2.000000	1.098403	7.37599e+06	-56039.1	1055.82	-29740	0.000000	0.000000	7.099748	28.5757	NaN	0.000000	0.001731	0.001762	28.0836	20.7788	0.001901	10928.2	5.571589	-177.491	27.1753	1.098090	0.030436	0.030123	28.5757	10928.2	0.028475	0.037641	759.154	51462.1
1118	2.000000	1.100406	7.37599e+06	-56039.1	1055.82	-29740	0.000000	0.000000	7.101948	33.3525	NaN	0.000000	0.001693	0.001762	28.0835	22.1195	0.001816	12181.4	4.700383	-176.46	33.25	1.100058	0.032439	0.032091	33.3525	12181.4	0.030385	0.041546	802.791	54601.7
1118	2.000000	1.102402	7.37599e+06	-56039.1	1055.82	-29740	0.000000	0.000000	7.104023	35.2671	NaN	0.000000	0.001719	0.001723	28.0835	23.5838	0.001765	13362.4	0.996497	-174.095	35.2296	1.102201	0.034435	0.034234	35.2671	13362.4	0.032455	0.045987	766.894	56930
1118	2.000000	1.104361	7.37599e+06	-56039.1	1055.82	-29740	0.000000	0.000000	7.106397	45.3514	NaN	0.000000	0.001698	0.001733	28.0838	25.818	0.001722	14989.6	1.940360	-176.137	43.0047	1.104027	0.036394	0.036060	45.3514	14989.6	0.034125	0.049728	911.983	61413.2
1118	2.000000	1.106439	7.37599e+06	-56039.1	1055.82	-29740	0.000000	0.000000	7.108449	44.7335	NaN	0.000000	0.001725	0.001772	28.0834	28.1049	0.001746	16099.5	9.100996	175.69	46.8285	1.106055	0.038472	0.038088	44.7335	16099.5	0.036388	0.055027	812.939	62704.3
1118	2.000000	1.108391	7.37599e+06	-56039.1	1055.82	-29740	0.000000	0.000000	7.110756	53.3674	NaN	0.000000	0.001751	0.001761	28.0836	29.8052	0.001839	16208.1	4.247140	-178.353	53.1245	1.108053	0.040423	0.040086	53.3674	16208.1	0.037954	0.058848	906.873	61043.7
1118	2.000000	1.110399	7.37599e+06	-56039.1	1055.82	-29740	0.000000	0.000000	7.113000	59.0949	NaN	0.000000	0.001735	0.001758	28.0836	32.1106	0.001863	17237.5	6.040191	178.175	57.3251	1.110127	0.042432	0.042160	59.0949	17237.5	0.039860	0.063668	928.17	62414.7
1118	2.000000	1.112376	7.37599e+06	-56039.1	1055.82	-29740	0.000000	0.000000	7.115367	68.5894	NaN	0.000000	0.001673	0.001734	28.0834	33.3638	0.001766	18892	6.069736	178.334	68.5431	1.112040	0.044409	0.044073	68.5894	18892	0.041686	0.068457	1001.93	65969.2
1118	2.000000	1.114412	7.37599e+06	-56039.1	1055.82	-29740	0.000000	0.000000	7.117682	75.3725	NaN	0.000000	0.001663	0.001732	28.0841	35.9865	0.001852	19433	2.583915	-178.045	76.7867	1.114046	0.046445	0.046079	75.3725	19433	0.043536	0.073485	1025.68	65495.6
1118	2.000000	1.116321	7.37599e+06	-56039.1	1055.82	-29740	0.000000	0.000000	7.120138	88.6535	NaN	0.000000	0.001692	0.001746	28.0834	37.1038	0.001824	20339.2	4.195934	179.27	85.5963	1.116048	0.048354	0.048081	88.6535	20339.2	0.045085	0.077829	1139.08	66609.4
1118	2.000000	1.118392	7.37599e+06	-56039.1	1055.82	-29740	0.000000	0.000000	7.122375	92.7017	NaN	0.000000	0.001678	0.001729	28.0824	39.4657	0.001608	24545.9	3.325029	177.197	92.4879	1.118022	0.050424	0.050055	92.7017	24545.9	0.047592	0.085115	1089.13	76868.4
1118	2.000000	1.120377	7.37599e+06	-56039.1	1055.82	-29740	0.000000	0.000000	7.124690	100.704	NaN	0.000000	0.001692	0.001748	28.0823	41.8634	0.001812	23106.7	4.832166	178.183	98.8896	1.120013	0.052410	0.052046	100.704	23106.7	0.049141	0.089777	1121.72	70457.9
1118	2.000000	1.122326	7.37599e+06	-56039.1	1055.82	-29740	0.000000	0.000000	7.127032	110.279	NaN	0.000000	0.001673	0.001728	28.0822	44.0772	0.001819	24233.1	5.491501	175.776	108.259	1.121994	0.054358	0.054027	110.279	24233.1	0.050945	0.095357	1156.48	71697.7
1118	2.000000	1.124336	7.37599e+06	-56039.1	1055.82	-29740	0.000000	0.000000	7.129202	114.156	NaN	0.000000	0.001684	0.001741	28.0823	46.3053	0.001781	26006.7	4.991809	175.464	111.23	1.124091	0.056369	0.056124	114.156	26006.7	0.053077	0.102160	1117.43	74339.3
1118	2.000000	1.126507	7.37599e+06	-56039.1	1055.82	-29740	0.000000	0.000000	7.131615	120.021	NaN	0.000000	0.001738	0.001723	28.0821	47.5319	0.001771	26835.8	4.866451	175.881	124.513	1.126128	0.058540	0.058161	120.021	26835.8	0.055186	0.109114	1099.96	74224.8
1118	2.000000	1.128405	7.37599e+06	-56039.1	1055.82	-29740	0.000000	0.000000	7.134002	131.905	NaN	0.000000	0.001674	0.001719	28.0822	49.3801	0.001843	26792.1	7.217536	174.15	133.786	1.128064	0.060438	0.060097	131.905	26792.1	0.056746	0.114398	1153.03	72372.1
1118	2.000000	1.130414	7.37599e+06	-56039.1	1055.82	-29740	0.000000	0.000000	7.136450	142.605	NaN	0.000000	0.001648	0.001761	28.0824	51.4137	0.001724	29827.6	7.598154	173.149	145.007	1.130012	0.062446	0.062045	142.605	29827.6	0.058861	0.121754	1171.25	78099.6
1118	2.000000	1.132377	7.37599e+06	-56039.1	1055.82	-29740	0.000000	0.000000	7.138732	150.344	NaN	0.000000	0.001661	0.001735	28.0822	51.5676	0.001613	31972.8	0.460600	178.899	149.131	1.132012	0.064410	0.064045	150.344	31972.8	0.060883	0.128993	1165.52	81333.7
1118	2.000000	1.134336	7.37599e+06	-56039.1	1055.82	-29740	0.000000	0.000000	7.140923	155.965	NaN	0.000000	0.001634	0.001754	28.0822	55.6575	0.001768	31487.8	3.880750	174.576	154.161	1.134185	0.066369	0.066218	155.965	31487.8	0.062654	0.135498	1151.05	78153.6
1118	2.000000	1.136359	7.37599e+06	-56039.1	1055.82	-29740	0.000000	0.000000	7.143671	173.628	NaN	0.000000	0.001642	0.001754	28.0821	56.1441	0.001779	31559.5	4.392148	175.99	173.051	1.135926	0.068391	0.067958	173.628	31559.5	0.064265	0.141545	1226.66	76640
1118	2.000000	1.138334	7.37599e+06	-56039.1	1055.82	-29740	0.000000	0.000000	7.145988	181.936	NaN	0.000000	0.001646	0.001736	28.082	58.5038	0.001762	33204.7	3.037951	175.852	181.164	1.138025	0.070367	0.070058	181.936	33204.7	0.066257	0.149196	1219.44	78540.6
1118	2.000000	1.140340	7.37599e+06	-56039.1	1055.82	-29740	0.000000	0.000000	7.148433	192.607	NaN	0.000000	0.001656	0.001730	28.0822	60.2944	0.001715	35151.3	5.626957	173.14	189.463	1.139957	0.072372	0.071990	192.607	35151.3	0.068263	0.157093	1226.07	81028.2
1118	2.000000	1.142288	7.37599e+06	-56039.1	1055.82	-29740	0.000000	0.000000	7.150886	204.872	NaN	0.000000	0.001660	0.001738	28.0822	60.7522	0.001737	34970.4	1.613509	176.687	203.287	1.142027	0.074321	0.074059	204.872	34970.4	0.069927	0.163792	1250.81	78945.6
1118	2.000000	1.144320	7.37599e+06	-56039.1	1055.82	-29740	0.000000	0.000000	7.153166	210.889	NaN	0.000000	0.001641	0.001707	28.082	64.3477	0.001889	34070.8	1.801152	176.964	208.8	1.144087	0.076353	0.076120	210.889	34070.8	0.071711	0.171116	1232.43	75250.7
1118	2.000000	1.146374	7.37599e+06	-56039.1	1055.82	-29740	0.000000	0.000000	7.155878	226.88	NaN	0.000000	0.001680	0.001706	28.0822	65.1055	0.001953	33328.8	6.459152	174.118	227.629	1.145887	0.078407	0.077920	226.88	33328.8	0.073301	0.177776	1276.21	72219.9
1118	2.000000	1.148331	7.37599e+06	-56039.1	1055.82	-29740	0.000000	0.000000	7.158163	234.864	NaN	0.000000	0.001674	0.001730	28.0822	68.2032	0.001822	37426.8	4.445594	173.739	233.509	1.147867	0.080364	0.079900	234.864	37426.8	0.075657	0.187860	1250.21	78893.3
1118	2.000000	1.150330	7.37599e+06	-56039.1	1055.82	-29740	0.000000	0.000000	7.160726	248.585	NaN	0.000000	0.001639	0.001709	28.0823	69.6032	0.001752	39717.7	0.360522	177.153	245.194	1.150029	0.082362	0.082062	248.585	39717.7	0.077668	0.196673	1263.95	81824.8
1118	2.000000	1.152353	7.37599e+06	-56039.1	1055.82	-29740	0.000000	0.000000	7.163154	258.402	NaN	0.000000	0.001642	0.001742	28.0833	72.3202	0.001755	41218.7	7.477439	170.407	259.312	1.151992	0.084386	0.084025	258.402	41218.7	0.079684	0.205698	1256.22	83033.4
1118	2.000000	1.154374	7.37599e+06	-56039.1	1055.82	-29740	0.000000	0.000000	7.165645	269.856	NaN	0.000000	0.001654	0.001701	28.0833	75.262	0.001841	40874.8	11.8939	166.344	272.524	1.154011	0.086407	0.086044	269.856	40874.8	0.081455	0.213782	1262.29	80768.8
1118	2.000000	1.156306	7.37599e+06	-56039.1	1055.82	-29740	0.000000	0.000000	7.168022	280.648	NaN	0.000000	0.001645	0.001735	28.0835	75.9442	0.001851	41031.3	7.141574	171.394	279.884	1.155989	0.088339	0.088022	280.648	41031.3	0.083209	0.221933	1264.56	79575.2
1118	2.000000	1.158311	7.37599e+06	-56039.1	1055.82	-29740	0.000000	0.000000	7.170520	292.654	NaN	0.000000	0.001653	0.001776	28.0834	77.9599	0.001780	43797.9	4.048474	173.113	290.467	1.157930	0.090344	0.089962	292.654	43797.9	0.085332	0.231989	1261.5	83079.4
1118	2.000000	1.160291	7.37599e+06	-56039.1	1055.82	-29740	0.000000	0.000000	7.173023	305.361	NaN	0.000000	0.001674	0.001729	28.0833	79.8226	0.001824	43768.8	0.799928	176.746	302.403	1.159914	0.092324	0.091947	305.361	43768.8	0.087091	0.240480	1269.8	81545.3
1118	2.000000	1.162289	7.37599e+06	-56039.1	1055.82	-29740	0.000000	0.000000	7.175366	313.748	NaN	0.000000	0.001641	0.001721	28.0832	82.1961	0.001852	44374.5	5.044292	171.947	310.473	1.161913	0.094322	0.093946	313.748	44374.5	0.089019	0.249945	1255.27	81093.2
1118	2.000000	1.164309	7.37599e+06	-56039.1	1055.82	-29740	0.000000	0.000000	7.178058	330.08	NaN	0.000000	0.001637	0.001790	28.0832	84.3732	0.001947	43333.9	3.192620	174.227	329.842	1.164004	0.096341	0.096037	330.08	43333.9	0.090629	0.257981	1279.47	77948.3
1118	2.000000	1.166310	7.37599e+06	-56039.1	1055.82	-29740	0.000000	0.000000	7.180500	340.792	NaN	0.000000	0.001650	0.001774	28.0835	84.9423	0.001824	46574.3	4.011740	172.549	342.341	1.166086	0.098343	0.098119	340.792	46574.3	0.092855	0.269294	1265.5	81998.6
1118	2.000000	1.168306	7.37599e+06	-56039.1	1055.82	-29740	0.000000	0.000000	7.183517	365.601	NaN	0.000000	0.001666	0.001723	28.0836	85.7446	0.001720	49856.5	3.709140	173.008	363.076	1.167914	0.100339	0.099947	365.601	49856.5	0.094839	0.279565	1307.75	86149.7
1118	2.000000	1.170241	7.37599e+06	-56039.1	1055.82	-29740	0.000000	0.000000	7.185980	378.468	NaN	0.000000	0.001643	0.001740	28.0833	88.3344	0.001901	46474.7	4.939017	171.904	372.877	1.169975	0.102273	0.102008	378.468	46474.7	0.096166	0.286530	1320.86	79323.9
1118	2.000000	1.172252	7.37599e+06	-56039.1	1055.82	-29740	0.000000	0.000000	7.188353	387.253	NaN	0.000000	0.001661	0.001738	28.0833	90.9725	0.001919	47402.5	5.828897	170.746	383.76	1.171981	0.104285	0.104014	387.253	47402.5	0.098158	0.297144	1303.25	79449.5
1118	2.000000	1.174290	7.37599e+06	-56039.1	1055.82	-29740	0.000000	0.000000	7.190866	398.779	NaN	0.000000	0.001662	0.001754	28.0841	92.3879	0.001874	49309.7	5.328394	170.573	399.861	1.174093	0.106323	0.106126	398.779	49309.7	0.100258	0.308526	1292.53	81107.2
1118	2.000000	1.176252	7.37599e+06	-56039.1	1055.82	-29740	0.000000	0.000000	7.193756	421.342	NaN	0.000000	0.001638	0.001785	28.0834	92.4665	0.001787	51756.5	3.718024	172.085	417.243	1.176015	0.108285	0.108048	421.342	51756.5	0.102179	0.319119	1320.33	83706.9
1118	2.000000	1.178242	7.37599e+06	-56039.1	1055.82	-29740	0.000000	0.000000	7.196277	434.259	NaN	0.000000	0.001678	0.001736	28.0833	95.4481	0.001839	51891.7	5.875220	170.361	430.266	1.177854	0.110275	0.109887	434.259	51891.7	0.103999	0.329301	1318.73	82618
1118	2.000000	1.180431	7.37599e+06	-56039.1	1055.82	-29740	0.000000	0.000000	7.198848	443.551	NaN	0.000000	0.001653	0.001765	28.0833	97.3461	0.001777	54786.5	6.591823	169.336	452.018	1.179995	0.112464	0.112027	443.551	54786.5	0.106392	0.342924	1293.44	85476.6
1118	2.000000	1.182317	7.37599e+06	-56039.1	1055.82	-29740	0.000000	0.000000	7.201602	464.631	NaN	0.000000	0.001662	0.001771	28.0834	97.8223	0.001704	57405	4.083162	171.259	464.742	1.181929	0.114350	0.113962	464.631	57405	0.108280	0.353856	1313.05	88167.7
1118	2.000000	1.183232	7.37599e+06	-56039.1	1055.82	-29740	0.000000	0.000000	7.202907	474.132	NaN	0.000000	0.001679	0.001792	28.0835	98.5637	0.001815	54313.8	5.386558	170.418	468.762	1.182978	0.115265	0.115011	474.132	54313.8	0.108718	0.356415	1330.28	83120