File: remote_trans/data/nanoindenter/0828-1/data/Data_2025-08-06,11h17m57s/2025-07-22_16-23-58_1_141.txt
2025-07-22, 16:23:58, 1
Index	Phase	Displacement	Time	Pos X	Pos Y	Pos Z	Rot A	Rot B	Piezo Z	Force A	Force B	Gripper	Voltage A	Voltage B	Temperature	Amplitude force	Amplitude pos	Stiffness	Phase shift	Phase excitation	Force A raw	Displacement raw	HMax	HMax raw	Real Force	Real Stiffness	Contact Depth	Area	Hardness	Reduced Mod.
[#]	[#]	[um]	[s]	[um]	[um]	[um]	[m°]	[m°]	[um]	[uN]	[uN]	[V]	[V]	[V]	[°C]	[uN]	[um]	[N/m]	[°]	[°]	[uN]	[um]	[um]	[um]	[uN]	[N/m]	[um]	[um^2]	[MPa]	[MPa]
141	1.000000	0.002619	7.36642e+06	-45689.1	955.818	-29772.2	0.000000	0.000000	6.002789	0.019610	NaN	0.000000	0.001529	0.001711	28.1275	0.047007	0.000996	47.2155	-147.022	-166.963	0.065180	0.001337	-0.988203	-0.989485	0.019610	47.2155	-0.988515	-1.588937E+13	-1.234148E-15	NaN
141	1.000000	0.010601	7.36642e+06	-45689.1	955.818	-29772.2	0.000000	0.000000	6.010776	0.124524	NaN	0.000000	0.001562	0.001746	28.1272	0.101101	0.000992	101.91	93.3856	-158.681	0.127464	0.009278	-0.980220	-0.981544	0.124524	101.91	-0.981137	-1.263941E+13	-9.852036E-15	NaN
141	1.000000	0.018578	7.36642e+06	-45689.1	955.818	-29772.2	0.000000	0.000000	6.018747	-0.007368	NaN	0.000000	0.001530	0.001698	28.1268	0.053988	0.001622	33.2885	-10.6979	-164.329	-0.037027	0.017287	-0.972244	-0.973535	-0.007368	33.2885	-0.972078	-9.542599E+12	7.721432E-16	NaN
141	1.000000	0.026655	7.36642e+06	-45689.1	955.818	-29772.2	0.000000	0.000000	6.026825	-0.009702	NaN	0.000000	0.001540	0.001709	28.1288	0.096865	0.001926	50.2854	-95.9436	-165.97	-0.010444	0.025267	-0.964167	-0.965554	-0.009702	50.2854	-0.964022	-7.431717E+12	1.305441E-15	NaN
141	1.000000	0.034563	7.36642e+06	-45689.1	955.818	-29772.2	0.000000	0.000000	6.034734	0.029624	NaN	0.000000	0.001560	0.001691	28.1282	0.078725	0.001903	41.3641	-8.231102	-164.88	-0.026697	0.033248	-0.956259	-0.957574	0.029624	41.3641	-0.956796	-5.938500E+12	-4.988386E-15	NaN
141	1.000000	0.042590	7.36642e+06	-45689.1	955.818	-29772.2	0.000000	0.000000	6.042762	0.045623	NaN	0.000000	0.001555	0.001720	28.1281	0.044046	0.001962	22.4537	-176.64	-167.797	0.100577	0.041320	-0.948232	-0.949502	0.045623	22.4537	-0.949756	-4.772348E+12	-9.559865E-15	NaN
141	1.000000	0.050574	7.36642e+06	-45689.1	955.819	-29772.2	0.000000	0.000000	6.050742	-0.045344	NaN	0.000000	0.001563	0.001775	28.1283	0.034723	0.002043	16.9938	65.3779	-164.447	-0.003100	0.049260	-0.940248	-0.941562	-0.045344	16.9938	-0.938247	-3.337950E+12	1.358442E-14	NaN
141	1.000000	0.058568	7.36642e+06	-45689.1	955.818	-29772.2	0.000000	0.000000	6.058741	0.074416	NaN	0.000000	0.001542	0.001736	28.1278	0.047962	0.002064	23.2375	143.67	-165.261	-0.027621	0.057263	-0.932254	-0.933559	0.074416	23.2375	-0.934656	-2.985576E+12	-2.492511E-14	NaN
141	1.000000	0.066603	7.36642e+06	-45689.1	955.818	-29772.2	0.000000	0.000000	6.066776	0.081025	NaN	0.000000	0.001508	0.001729	28.1269	0.014969	0.001908	7.843531	41.1037	-167.554	0.089301	0.065274	-0.924219	-0.925548	0.081025	7.843531	-0.931967	-2.746274E+12	-2.950353E-14	NaN
141	1.000000	0.074616	7.36642e+06	-45689.1	955.819	-29772.2	0.000000	0.000000	6.074786	0.013656	NaN	0.000000	0.001535	0.001752	28.1272	0.050997	0.002073	24.5947	-16.0761	-167.613	0.007887	0.073294	-0.916206	-0.917528	0.013656	24.5947	-0.916623	-1.704529E+12	-8.011355E-15	NaN
141	1.000000	0.082576	7.36642e+06	-45689.1	955.819	-29772.2	0.000000	0.000000	6.082747	0.026040	NaN	0.000000	0.001543	0.001698	28.1267	0.101598	0.001888	53.8134	42.1782	-168.155	0.021781	0.081327	-0.908246	-0.909495	0.026040	53.8134	-0.908609	-1.328528E+12	-1.960094E-14	NaN
141	1.000000	0.090592	7.36642e+06	-45689.1	955.818	-29772.2	0.000000	0.000000	6.090763	0.030237	NaN	0.000000	0.001542	0.001727	28.1272	0.090496	0.001984	45.6056	159.998	-168.117	-0.052635	0.089272	-0.900230	-0.901550	0.030237	45.6056	-0.900728	-1.039673E+12	-2.908271E-14	NaN
141	1.000000	0.098580	7.36642e+06	-45689.1	955.818	-29772.2	0.000000	0.000000	6.098749	-0.020409	NaN	0.000000	0.001560	0.001760	28.1268	0.087195	0.001862	46.8217	105.583	-165.563	-0.015281	0.097284	-0.892242	-0.893538	-0.020409	46.8217	-0.891915	-7.903222E+11	2.582426E-14	NaN
141	1.000000	0.106602	7.36642e+06	-45689.1	955.818	-29772.2	0.000000	0.000000	6.106771	-0.015030	NaN	0.000000	0.001554	0.001698	28.1277	0.103074	0.002022	50.9678	-161.631	-162.87	-0.037407	0.105320	-0.884220	-0.885502	-0.015030	50.9678	-0.883999	-6.177111E+11	2.433219E-14	NaN
141	1.000000	0.114604	7.36642e+06	-45689.1	955.819	-29772.2	0.000000	0.000000	6.114777	0.082631	NaN	0.000000	0.001526	0.001756	28.1277	0.036889	0.001952	18.9009	62.4602	-168.107	0.109444	0.113292	-0.876218	-0.877530	0.082631	18.9009	-0.879497	-5.369137E+11	-1.539002E-13	NaN
141	1.000000	0.122636	7.36642e+06	-45689.1	955.819	-29772.2	0.000000	0.000000	6.122805	-0.002471	NaN	0.000000	0.001568	0.001727	28.1282	0.092692	0.002043	45.38	74.3892	-167.384	-0.049121	0.121267	-0.868186	-0.869555	-0.002471	45.38	-0.868146	-3.770103E+11	6.555272E-15	NaN
141	1.000000	0.130638	7.36642e+06	-45689.1	955.818	-29772.2	0.000000	0.000000	6.130807	-0.014920	NaN	0.000000	0.001618	0.001702	28.128	0.065731	0.001948	33.7343	-28.9604	-165.537	0.006599	0.129285	-0.860184	-0.861537	-0.014920	33.7343	-0.859852	-2.911510E+11	5.124375E-14	NaN
141	1.000000	0.138595	7.36642e+06	-45689.1	955.819	-29772.2	0.000000	0.000000	6.138767	0.057882	NaN	0.000000	0.001624	0.001706	28.1262	0.107294	0.001934	55.4752	-151.791	-167.156	0.043946	0.137280	-0.852227	-0.853542	0.057882	55.4752	-0.853010	-2.352307E+11	-2.460655E-13	NaN
141	1.000000	0.146641	7.36642e+06	-45689.1	955.818	-29772.2	0.000000	0.000000	6.146811	-0.004447	NaN	0.000000	0.001615	0.001684	28.1258	0.071044	0.001948	36.4744	-52.1564	-162.832	-0.024287	0.145277	-0.844181	-0.845545	-0.004447	36.4744	-0.844089	-1.781096E+11	2.497004E-14	NaN
141	1.000000	0.154635	7.36642e+06	-45689.1	955.819	-29772.2	0.000000	0.000000	6.154806	0.030526	NaN	0.000000	0.001635	0.001660	28.1253	0.087074	0.002020	43.1156	-145.158	-165.391	-0.025594	0.153314	-0.836187	-0.837508	0.030526	43.1156	-0.836718	-1.415218E+11	-2.156979E-13	NaN
141	1.000000	0.162637	7.36642e+06	-45689.1	955.818	-29772.2	0.000000	0.000000	6.162806	-0.017296	NaN	0.000000	0.001631	0.001698	28.1252	0.132919	0.001914	69.4345	102.047	-166.9	-0.007251	0.161312	-0.828185	-0.829510	-0.017296	69.4345	-0.827998	-1.078088E+11	1.604333E-13	NaN
141	1.000000	0.170622	7.36642e+06	-45689.1	955.818	-29772.2	0.000000	0.000000	6.170790	-0.048458	NaN	0.000000	0.001620	0.001706	28.126	0.097613	0.001947	50.1324	-165.337	-166.797	0.007755	0.169363	-0.820200	-0.821459	-0.048458	50.1324	-0.819475	-8.262060E+10	5.865108E-13	NaN
141	1.000000	0.178632	7.36642e+06	-45689.1	955.818	-29772.2	0.000000	0.000000	6.178803	0.035875	NaN	0.000000	0.001641	0.001671	28.1252	0.057589	0.002028	28.4014	16.4155	-166.707	0.013661	0.177313	-0.812190	-0.813509	0.035875	28.4014	-0.813138	-6.778554E+10	-5.292478E-13	NaN
141	1.000000	0.186630	7.36642e+06	-45689.1	955.819	-29772.2	0.000000	0.000000	6.186800	-0.006593	NaN	0.000000	0.001612	0.001702	28.1265	0.038290	0.001885	20.3157	-16.5769	-163.729	-0.048895	0.185318	-0.804192	-0.805504	-0.006593	20.3157	-0.803948	-5.086920E+10	1.296066E-13	NaN
141	1.000000	0.194620	7.36642e+06	-45689.1	955.819	-29772.2	0.000000	0.000000	6.194788	-0.029793	NaN	0.000000	0.001628	0.001704	28.1272	0.019783	0.001957	10.1072	167.541	-165.292	-0.148187	0.193339	-0.796202	-0.797483	-0.029793	10.1072	-0.793991	-3.726389E+10	7.995251E-13	NaN
141	1.000000	0.202623	7.36642e+06	-45689.1	955.818	-29772.2	0.000000	0.000000	6.202793	0.009876	NaN	0.000000	0.001603	0.001712	28.1264	0.081077	0.002164	37.4618	-134.943	-168.926	0.009587	0.201397	-0.788199	-0.789425	0.009876	37.4618	-0.788397	-3.128325E+10	-3.156958E-13	NaN
141	1.000000	0.210639	7.36642e+06	-45689.1	955.819	-29772.2	0.000000	0.000000	6.210811	0.064687	NaN	0.000000	0.001635	0.001698	28.1261	0.108977	0.001942	56.1112	62.2808	-168.67	0.053600	0.209359	-0.780183	-0.781463	0.064687	56.1112	-0.781048	-2.485835E+10	-2.602243E-12	NaN
141	1.000000	0.218649	7.36642e+06	-45689.1	955.819	-29772.2	0.000000	0.000000	6.218818	-0.024036	NaN	0.000000	0.001626	0.001682	28.1262	0.029589	0.002068	14.3106	-147.008	-167.005	-0.025588	0.217309	-0.772173	-0.773513	-0.024036	14.3106	-0.770913	-1.810183E+10	1.327800E-12	NaN
141	1.000000	0.226645	7.36642e+06	-45689.1	955.818	-29772.2	0.000000	0.000000	6.226817	0.064914	NaN	0.000000	0.001621	0.001702	28.1254	0.136738	0.002018	67.7539	74.313	-166.267	0.006853	0.225345	-0.764177	-0.765477	0.064914	67.7539	-0.764896	-1.499334E+10	-4.329503E-12	NaN
141	1.000000	0.234689	7.36642e+06	-45689.1	955.817	-29772.2	0.000000	0.000000	6.234860	0.043234	NaN	0.000000	0.001622	0.001666	28.1256	0.034168	0.001754	19.4824	-1.895130	-164.664	-0.004688	0.233355	-0.756133	-0.757467	0.043234	19.4824	-0.757798	-1.200435E+10	-3.601544E-12	NaN
141	1.000000	0.242654	7.36642e+06	-45689.1	955.818	-29772.2	0.000000	0.000000	6.242823	-0.017536	NaN	0.000000	0.001563	0.001733	28.1252	0.129403	0.001997	64.7886	-22.8497	-163.905	-0.018971	0.241376	-0.748168	-0.749446	-0.017536	64.7886	-0.747965	-8.821055E+9	1.988010E-12	NaN
141	1.000000	0.250644	7.36642e+06	-45689.1	955.818	-29772.2	0.000000	0.000000	6.250814	0.017866	NaN	0.000000	0.001541	0.001690	28.125	0.075409	0.002116	35.6424	-106.22	-166.926	0.010592	0.249318	-0.740178	-0.741504	0.017866	35.6424	-0.740554	-6.992001E+9	-2.555179E-12	NaN
141	1.000000	0.258679	7.36642e+06	-45689.1	955.818	-29772.2	0.000000	0.000000	6.258849	0.021732	NaN	0.000000	0.001533	0.001667	28.1252	0.018313	0.002059	8.895370	-40.2991	-166.172	0.041135	0.257330	-0.732143	-0.733492	0.021732	8.895370	-0.733975	-5.688304E+9	-3.820474E-12	NaN
141	1.000000	0.266648	7.36642e+06	-45689.1	955.819	-29772.2	0.000000	0.000000	6.266820	0.047980	NaN	0.000000	0.001508	0.001731	28.1263	0.039415	0.001967	20.0428	27.9108	-165.119	-0.008099	0.265376	-0.724174	-0.725446	0.047980	20.0428	-0.725970	-4.424553E+9	-1.084405E-11	NaN
141	1.000000	0.274701	7.36642e+06	-45689.1	955.818	-29772.2	0.000000	0.000000	6.274872	0.050765	NaN	0.000000	0.001496	0.001688	28.1275	0.015985	0.002018	7.922452	-115.824	-164.562	0.009668	0.273329	-0.716121	-0.717493	0.050765	7.922452	-0.720927	-3.776750E+9	-1.344139E-11	NaN
141	1.000000	0.282663	7.36642e+06	-45689.1	955.819	-29772.2	0.000000	0.000000	6.282834	0.034113	NaN	0.000000	0.001530	0.001688	28.1272	0.045435	0.001962	23.155	-36.6923	-165.187	0.056563	0.281387	-0.708159	-0.709435	0.034113	23.155	-0.709264	-2.618202E+9	-1.302926E-11	NaN
141	1.000000	0.290695	7.36642e+06	-45689.1	955.819	-29772.2	0.000000	0.000000	6.290866	0.023675	NaN	0.000000	0.001515	0.001721	28.1277	0.056051	0.001951	28.7244	53.788	-164.83	0.002727	0.289363	-0.700127	-0.701459	0.023675	28.7244	-0.700745	-2.003099E+9	-1.181916E-11	NaN
141	1.000000	0.298667	7.36642e+06	-45689.1	955.818	-29772.2	0.000000	0.000000	6.298838	0.033634	NaN	0.000000	0.001464	0.001721	28.1278	0.116043	0.001955	59.3641	-101.479	-166.327	-0.007778	0.297404	-0.692155	-0.693418	0.033634	59.3641	-0.692580	-1.549442E+9	-2.170686E-11	NaN
141	1.000000	0.306705	7.36642e+06	-45689.1	955.819	-29772.2	0.000000	0.000000	6.306878	0.076379	NaN	0.000000	0.001505	0.001735	28.1259	0.078122	0.002022	38.642	99.0702	-167.567	0.079806	0.305361	-0.684117	-0.685461	0.076379	38.642	-0.685599	-1.243851E+9	-6.140501E-11	NaN
141	1.000000	0.314669	7.36642e+06	-45689.1	955.818	-29772.2	0.000000	0.000000	6.314840	0.019220	NaN	0.000000	0.001498	0.001694	28.126	0.021845	0.002092	10.4422	-150.088	-166.318	0.092525	0.313395	-0.676152	-0.677427	0.019220	10.4422	-0.677533	-9.648543E+8	-1.991964E-11	NaN
141	1.000000	0.322686	7.36642e+06	-45689.1	955.818	-29772.2	0.000000	0.000000	6.322854	-0.034119	NaN	0.000000	0.001523	0.001661	28.1261	0.084212	0.001858	45.3361	-11.5985	-164.399	-0.068695	0.321403	-0.668136	-0.669419	-0.034119	45.3361	-0.667572	-7.049403E+8	4.840021E-11	NaN
141	1.000000	0.330679	7.36642e+06	-45689.1	955.819	-29772.2	0.000000	0.000000	6.330849	0.017508	NaN	0.000000	0.001532	0.001660	28.126	0.102768	0.002093	49.1019	107.45	-168.581	-0.015097	0.329393	-0.660143	-0.661429	0.017508	49.1019	-0.660410	-5.624567E+8	-3.112807E-11	NaN
141	1.000000	0.338715	7.36642e+06	-45689.1	955.818	-29772.2	0.000000	0.000000	6.338884	-0.008518	NaN	0.000000	0.001525	0.001670	28.1264	0.059007	0.002026	29.1282	71.6714	-168.165	0.031923	0.337360	-0.652107	-0.653462	-0.008518	29.1282	-0.651888	-4.298511E+8	1.981669E-11	NaN
141	1.000000	0.346670	7.36642e+06	-45689.1	955.818	-29772.2	0.000000	0.000000	6.346844	0.086579	NaN	0.000000	0.001546	0.001658	28.1268	0.040572	0.002074	19.5598	26.4089	-164.437	0.047286	0.345412	-0.644151	-0.645410	0.086579	19.5598	-0.647471	-3.739094E+8	-2.315496E-10	NaN
141	1.000000	0.354705	7.36642e+06	-45689.1	955.818	-29772.2	0.000000	0.000000	6.354877	0.064523	NaN	0.000000	0.001529	0.001682	28.1275	0.034039	0.001910	17.8222	79.2993	-167.052	-0.059367	0.353407	-0.636117	-0.637415	0.064523	17.8222	-0.638832	-2.846215E+8	-2.266976E-10	NaN
141	1.000000	0.362710	7.36642e+06	-45689.1	955.819	-29772.2	0.000000	0.000000	6.362880	0.012860	NaN	0.000000	0.001565	0.001683	28.1275	0.024925	0.002143	11.6329	-146.526	-168.04	0.054785	0.361441	-0.628112	-0.629381	0.012860	11.6329	-0.628941	-2.081991E+8	-6.176556E-11	NaN
141	1.000000	0.370731	7.36642e+06	-45689.1	955.818	-29772.2	0.000000	0.000000	6.370902	0.040513	NaN	0.000000	0.001511	0.001696	28.1271	0.064416	0.002108	30.5619	134.781	-165.869	0.032078	0.369394	-0.620091	-0.621428	0.040513	30.5619	-0.621086	-1.623886E+8	-2.494826E-10	NaN
141	1.000000	0.378683	7.36642e+06	-45689.1	955.818	-29772.2	0.000000	0.000000	6.378854	0.024670	NaN	0.000000	0.001541	0.001690	28.1268	0.076076	0.002055	37.0253	104.485	-168.83	0.055725	0.377399	-0.612138	-0.613423	0.024670	37.0253	-0.612638	-1.242817E+8	-1.984980E-10	NaN
141	1.000000	0.386714	7.36642e+06	-45689.1	955.818	-29772.2	0.000000	0.000000	6.386885	0.051121	NaN	0.000000	0.001564	0.001670	28.126	0.098970	0.001957	50.5598	-135.127	-169.615	0.125902	0.385414	-0.604108	-0.605408	0.051121	50.5598	-0.604867	-9.715590E+7	-5.261795E-10	NaN
141	1.000000	0.394740	7.36642e+06	-45689.1	955.818	-29772.2	0.000000	0.000000	6.394912	0.068839	NaN	0.000000	0.001548	0.001669	28.1257	0.106660	0.002093	50.9536	178.447	-164.691	0.026969	0.393412	-0.596082	-0.597410	0.068839	50.9536	-0.597096	-7.593717E+7	-9.065289E-10	NaN
141	1.000000	0.402738	7.36642e+06	-45689.1	955.818	-29772.2	0.000000	0.000000	6.402908	-0.004818	NaN	0.000000	0.001568	0.001690	28.1258	0.025320	0.001969	12.8581	-66.8613	-163.511	0.046268	0.401453	-0.588084	-0.589369	-0.004818	12.8581	-0.587802	-5.654139E+7	8.521907E-11	NaN
141	1.000000	0.410728	7.36642e+06	-45689.1	955.819	-29772.2	0.000000	0.000000	6.410897	-0.034449	NaN	0.000000	0.001606	0.001679	28.1243	0.079010	0.002073	38.1085	-66.9952	-166.04	0.031784	0.409442	-0.580094	-0.581380	-0.034449	38.1085	-0.579416	-4.331705E+7	7.952749E-10	NaN
141	1.000000	0.418722	7.36642e+06	-45689.1	955.818	-29772.2	0.000000	0.000000	6.418892	0.010649	NaN	0.000000	0.001593	0.001663	28.1244	0.053191	0.001962	27.1064	34.3938	-164.12	0.050571	0.417440	-0.572100	-0.573382	0.010649	27.1064	-0.572395	-3.465123E+7	-3.073152E-10	NaN
141	1.000000	0.426738	7.36642e+06	-45689.1	955.818	-29772.2	0.000000	0.000000	6.426910	0.048000	NaN	0.000000	0.001590	0.001696	28.1255	0.072942	0.001963	37.1519	-14.8906	-165.931	0.049799	0.425400	-0.564084	-0.565422	0.048000	37.1519	-0.565053	-2.743194E+7	-1.749779E-9	NaN
141	1.000000	0.434738	7.36642e+06	-45689.1	955.819	-29772.2	0.000000	0.000000	6.434905	-0.079907	NaN	0.000000	0.001567	0.001679	28.1253	0.147716	0.002061	71.6561	151.712	-165.751	-0.010240	0.433447	-0.556084	-0.557375	-0.079907	71.6561	-0.555247	-2.007296E+7	3.980845E-9	NaN
141	1.000000	0.442747	7.36642e+06	-45689.1	955.818	-29772.2	0.000000	0.000000	6.442919	0.070628	NaN	0.000000	0.001550	0.001695	28.1256	0.124053	0.002027	61.2095	-158.42	-166.219	0.105596	0.441443	-0.548075	-0.549379	0.070628	61.2095	-0.548941	-1.641657E+7	-4.302259E-9	NaN
141	1.000000	0.450733	7.36642e+06	-45689.1	955.819	-29772.2	0.000000	0.000000	6.450909	0.132187	NaN	0.000000	0.001589	0.001668	28.1252	0.087620	0.002054	42.6678	-24.4739	-166.639	0.102596	0.449425	-0.540089	-0.541397	0.132187	42.6678	-0.542412	-1.332923E+7	-9.917108E-9	NaN
141	1.000000	0.458762	7.36642e+06	-45689.1	955.818	-29772.2	0.000000	0.000000	6.458932	-0.000378	NaN	0.000000	0.001564	0.001700	28.1255	0.157193	0.001968	79.87	-178.877	-165.183	0.037086	0.457433	-0.532060	-0.533389	-0.000378	79.87	-0.532056	-9.57479e+06	3.947662E-11	NaN
141	1.000000	0.466760	7.36642e+06	-45689.1	955.819	-29772.2	0.000000	0.000000	6.466932	0.063714	NaN	0.000000	0.001536	0.001700	28.1248	0.073244	0.001914	38.2624	44.7998	-165.992	0.069021	0.465494	-0.524062	-0.525328	0.063714	38.2624	-0.525311	-7.71671e+06	-8.256666E-9	NaN
141	1.000000	0.474748	7.36642e+06	-45689.1	955.818	-29772.2	0.000000	0.000000	6.474920	0.048163	NaN	0.000000	0.001545	0.001704	28.1245	0.038309	0.002137	17.9242	-174.152	-160.083	0.121329	0.473446	-0.516074	-0.517376	0.048163	17.9242	-0.518089	-6.1238e+06	-7.864939E-9	NaN
141	1.000000	0.482758	7.36642e+06	-45689.1	955.818	-29772.2	0.000000	0.000000	6.482929	0.027450	NaN	0.000000	0.001569	0.001709	28.1246	0.042891	0.002225	19.2807	46.3967	-164.303	0.068018	0.481445	-0.508064	-0.509377	0.027450	19.2807	-0.509132	-4.59542e+06	-5.973389E-9	NaN
141	1.000000	0.490763	7.36642e+06	-45689.1	955.818	-29772.2	0.000000	0.000000	6.490933	-0.003669	NaN	0.000000	0.001579	0.001696	28.1242	0.054625	0.001935	28.2325	-133.936	-168.205	0.004915	0.489503	-0.500059	-0.501319	-0.003669	28.2325	-0.499961	-3.42356e+06	1.071626E-9	NaN
141	1.000000	0.498798	7.36642e+06	-45689.1	955.819	-29772.2	0.000000	0.000000	6.498968	0.011800	NaN	0.000000	0.001580	0.001680	28.1241	0.051946	0.001994	26.0573	-5.910655	-164.189	-0.031962	0.497501	-0.492024	-0.493321	0.011800	26.0573	-0.492363	-2.68171e+06	-4.400352E-9	NaN
141	1.000000	0.506785	7.36642e+06	-45689.1	955.818	-29772.2	0.000000	0.000000	6.506953	-0.039303	NaN	0.000000	0.001588	0.001679	28.1257	0.033558	0.001989	16.8689	95.7125	-164.781	0.018535	0.505456	-0.484037	-0.485366	-0.039303	16.8689	-0.482290	-1.93898e+06	2.026991E-8	NaN
141	1.000000	0.514780	7.36642e+06	-45689.1	955.819	-29772.2	0.000000	0.000000	6.514952	0.062044	NaN	0.000000	0.001586	0.001710	28.1257	0.025576	0.002023	12.6408	13.3064	-165.583	-0.042117	0.513446	-0.476042	-0.477376	0.062044	12.6408	-0.479723	-1.78506e+06	-3.475708E-8	NaN
141	1.000000	0.522760	7.36642e+06	-45689.1	955.818	-29772.2	0.000000	0.000000	6.522931	0.035224	NaN	0.000000	0.001578	0.001672	28.1255	0.023235	0.002013	11.5434	159.626	-165.513	0.033730	0.521454	-0.468062	-0.469368	0.035224	11.5434	-0.470350	-1.31923e+06	-2.670023E-8	NaN
141	1.000000	0.530774	7.36642e+06	-45689.1	955.82	-29772.2	0.000000	0.000000	6.530944	-0.002059	NaN	0.000000	0.001537	0.001708	28.1254	0.083856	0.001951	42.9716	-16.8547	-166.647	0.037949	0.529475	-0.460048	-0.461347	-0.002059	42.9716	-0.460012	-944467	2.179675E-9	NaN
141	1.000000	0.538759	7.36642e+06	-45689.1	955.819	-29772.2	0.000000	0.000000	6.538930	0.029297	NaN	0.000000	0.001538	0.001686	28.1255	0.044252	0.001988	22.2635	-34.2077	-167.946	0.012866	0.537462	-0.452063	-0.453360	0.029297	22.2635	-0.453050	-753833	-3.886377E-8	NaN
141	1.000000	0.546780	7.36642e+06	-45689.1	955.818	-29772.2	0.000000	0.000000	6.546948	-0.050181	NaN	0.000000	0.001565	0.001698	28.126	0.080229	0.001972	40.6737	118.578	-163.249	0.015463	0.545495	-0.444042	-0.445327	-0.050181	40.6737	-0.443116	-546174	9.187700E-8	NaN
141	1.000000	0.554813	7.36642e+06	-45689.1	955.818	-29772.2	0.000000	0.000000	6.554980	-0.060542	NaN	0.000000	0.001566	0.001677	28.1255	0.096718	0.001871	51.6878	-137.967	-165.137	-0.007766	0.553421	-0.436009	-0.437401	-0.060542	51.6878	-0.435130	-421304	1.437018E-7	NaN
141	1.000000	0.562771	7.36642e+06	-45689.1	955.818	-29772.2	0.000000	0.000000	6.562944	0.079105	NaN	0.000000	0.001544	0.001685	28.1254	0.061282	0.002120	28.9134	-29.1851	-166.228	0.062340	0.561505	-0.428051	-0.429317	0.079105	28.9134	-0.430102	-357693	-2.211534E-7	NaN
141	1.000000	0.570798	7.36642e+06	-45689.1	955.818	-29772.2	0.000000	0.000000	6.570969	0.033428	NaN	0.000000	0.001551	0.001663	28.1255	0.062675	0.002020	31.027	-62.167	-168.058	-0.013766	0.569478	-0.420024	-0.421344	0.033428	31.027	-0.420832	-264374	-1.264420E-7	NaN
141	1.000000	0.578814	7.36642e+06	-45689.1	955.818	-29772.2	0.000000	0.000000	6.578984	0.011125	NaN	0.000000	0.001557	0.001694	28.1252	0.066705	0.002025	32.937	-170.347	-164.351	0.055014	0.577476	-0.412008	-0.413345	0.011125	32.937	-0.412261	-199777	-5.568877E-8	NaN
141	1.000000	0.586840	7.36642e+06	-45689.1	955.819	-29772.2	0.000000	0.000000	6.587011	0.013354	NaN	0.000000	0.001562	0.001676	28.1268	0.133341	0.001917	69.5692	-167.395	-164.914	0.027141	0.585493	-0.403982	-0.405329	0.013354	69.5692	-0.404126	-153036	-8.726216E-8	NaN
141	1.000000	0.594828	7.36642e+06	-45689.1	955.818	-29772.2	0.000000	0.000000	6.595001	0.081356	NaN	0.000000	0.001566	0.001716	28.1263	0.034799	0.001978	17.5963	83.9977	-165.805	0.079092	0.593541	-0.395994	-0.397281	0.081356	17.5963	-0.399461	-131314	-6.195482E-7	NaN
141	1.000000	0.602825	7.36642e+06	-45689.1	955.818	-29772.2	0.000000	0.000000	6.602995	-0.000432	NaN	0.000000	0.001526	0.001720	28.1263	0.096628	0.001974	48.9583	-3.969208	-166.158	0.004955	0.601468	-0.387997	-0.389354	-0.000432	48.9583	-0.387990	-90033.9	4.793606E-9	NaN
141	1.000000	0.610841	7.36642e+06	-45689.1	955.818	-29772.2	0.000000	0.000000	6.611011	0.014753	NaN	0.000000	0.001642	0.001698	28.1266	0.034799	0.001957	17.7807	-106.922	-166.093	-0.016047	0.609522	-0.379981	-0.381300	0.014753	17.7807	-0.380603	-70558.4	-2.090959E-7	NaN
141	1.000000	0.618863	7.36642e+06	-45689.1	955.818	-29772.2	0.000000	0.000000	6.619031	-0.037377	NaN	0.000000	0.001645	0.001692	28.126	0.031945	0.001873	17.0521	-61.3371	-168.737	-0.025712	0.617467	-0.371959	-0.373355	-0.037377	17.0521	-0.370315	-50196	7.446121E-7	NaN
141	1.000000	0.626792	7.36642e+06	-45689.1	955.819	-29772.2	0.000000	0.000000	6.626964	0.053120	NaN	0.000000	0.001615	0.001670	28.1254	0.107266	0.002188	49.0176	49.904	-165.422	0.029345	0.625516	-0.364030	-0.365306	0.053120	49.0176	-0.364842	-41858	-1.269053E-6	NaN
141	1.000000	0.634809	7.36642e+06	-45689.1	955.818	-29772.2	0.000000	0.000000	6.634980	0.042690	NaN	0.000000	0.001558	0.001679	28.125	0.144054	0.002072	69.5199	-23.8385	-165.655	0.037779	0.633492	-0.356013	-0.357330	0.042690	69.5199	-0.356474	-31683.9	-1.347361E-6	NaN
141	1.000000	0.642870	7.36642e+06	-45689.1	955.818	-29772.2	0.000000	0.000000	6.643038	-0.042953	NaN	0.000000	0.001575	0.001706	28.1248	0.092818	0.001822	50.9391	156.236	-168.36	-0.036589	0.641477	-0.347952	-0.349345	-0.042953	50.9391	-0.347320	-23338.9	1.840390E-6	NaN
141	1.000000	0.650847	7.36642e+06	-45689.1	955.818	-29772.2	0.000000	0.000000	6.651019	0.056605	NaN	0.000000	0.001584	0.001691	28.1253	0.059517	0.002020	29.465	-78.0011	-165.426	0.133511	0.649467	-0.339975	-0.341355	0.056605	29.465	-0.341416	-19150.8	-2.955774E-6	NaN
141	1.000000	0.658841	7.36642e+06	-45689.1	955.819	-29772.2	0.000000	0.000000	6.659013	0.053250	NaN	0.000000	0.001563	0.001679	28.1253	0.090470	0.002018	44.8268	179.61	-167.17	0.000925	0.657539	-0.331980	-0.333283	0.053250	44.8268	-0.332871	-14370.6	-3.705516E-6	NaN
141	1.000000	0.666805	7.36642e+06	-45689.1	955.818	-29772.2	0.000000	0.000000	6.666977	0.039238	NaN	0.000000	0.001578	0.001737	28.1265	0.159686	0.001995	80.0286	-11.0815	-169.816	0.045094	0.665504	-0.324017	-0.325318	0.039238	80.0286	-0.324384	-10791.9	-3.635837E-6	NaN
141	1.000000	0.674832	7.36642e+06	-45689.1	955.819	-29772.2	0.000000	0.000000	6.675002	0.024306	NaN	0.000000	0.001571	0.001729	28.1257	0.079550	0.001925	41.324	102.69	-162.814	0.053985	0.673510	-0.315990	-0.317312	0.024306	41.324	-0.316431	-8242.6	-2.948850E-6	NaN
141	1.000000	0.682835	7.36642e+06	-45689.1	955.818	-29772.2	0.000000	0.000000	6.683004	-0.009998	NaN	0.000000	0.001596	0.001709	28.1245	0.082899	0.002022	41.006	-45.8384	-166.231	0.044459	0.681550	-0.307987	-0.309272	-0.009998	41.006	-0.307804	-6145.23	1.626957E-6	NaN
141	1.000000	0.690815	7.36642e+06	-45689.1	955.82	-29772.2	0.000000	0.000000	6.690983	-0.029116	NaN	0.000000	0.001608	0.001702	28.1251	0.041778	0.001945	21.4821	156.08	-167.04	0.039969	0.689551	-0.300007	-0.301271	-0.029116	21.4821	-0.298991	-4545.74	6.405141E-6	NaN
141	1.000000	0.698870	7.36642e+06	-45689.1	955.818	-29772.2	0.000000	0.000000	6.699039	-0.020664	NaN	0.000000	0.001560	0.001671	28.1247	0.103227	0.002028	50.8912	91.2253	-168.941	0.001661	0.697541	-0.291952	-0.293281	-0.020664	50.8912	-0.291648	-3531.62	5.851178E-6	NaN
141	1.000000	0.706829	7.36642e+06	-45689.1	955.818	-29772.2	0.000000	0.000000	6.706998	-0.012760	NaN	0.000000	0.001545	0.001700	28.1238	0.083167	0.001858	44.7708	-57.6794	-166.975	0.051167	0.705531	-0.283993	-0.285291	-0.012760	44.7708	-0.283779	-2690.95	4.741973E-6	NaN
141	1.000000	0.714877	7.36642e+06	-45689.1	955.819	-29772.2	0.000000	0.000000	6.715044	-0.059125	NaN	0.000000	0.001597	0.001705	28.124	0.125775	0.001958	64.2489	-85.2511	-166.288	-0.050465	0.713583	-0.275945	-0.277239	-0.059125	64.2489	-0.275255	-2001.04	2.954710E-5	NaN
141	1.000000	0.722855	7.36642e+06	-45689.1	955.819	-29772.2	0.000000	0.000000	6.723026	0.020396	NaN	0.000000	0.001572	0.001702	28.1233	0.024330	0.001956	12.4411	14.2776	-163.799	0.011456	0.721619	-0.267966	-0.269203	0.020396	12.4411	-0.269196	-1619.27	-1.259571E-5	NaN
141	1.000000	0.730861	7.36642e+06	-45689.1	955.818	-29772.2	0.000000	0.000000	6.731032	0.026633	NaN	0.000000	0.001557	0.001708	28.1237	0.167522	0.001856	90.275	-75.2576	-166.738	0.039703	0.729575	-0.259961	-0.261247	0.026633	90.275	-0.260182	-1179.53	-2.257931E-5	NaN
141	1.000000	0.738891	7.36642e+06	-45689.1	955.819	-29772.2	0.000000	0.000000	6.739061	0.007696	NaN	0.000000	0.001577	0.001710	28.124	0.029609	0.002105	14.0635	126.875	-169.598	0.045559	0.737548	-0.251931	-0.253274	0.007696	14.0635	-0.252342	-893.593	-8.612787E-6	NaN
141	1.000000	0.746857	7.36642e+06	-45689.1	955.819	-29772.2	0.000000	0.000000	6.747025	-0.034075	NaN	0.000000	0.001552	0.001728	28.1245	0.073071	0.002062	35.4396	-99.6169	-164.564	0.007893	0.745528	-0.243965	-0.245294	-0.034075	35.4396	-0.243244	-645.858	5.275897E-5	NaN
141	1.000000	0.754855	7.36642e+06	-45689.1	955.818	-29772.2	0.000000	0.000000	6.755025	-0.012355	NaN	0.000000	0.001523	0.001715	28.1245	0.108245	0.001931	56.061	-174.166	-165.497	0.082890	0.753533	-0.235967	-0.237289	-0.012355	56.061	-0.235801	-494.112	2.500471E-5	NaN
141	1.000000	0.762886	7.36642e+06	-45689.1	955.819	-29772.2	0.000000	0.000000	6.763057	0.036509	NaN	0.000000	0.001527	0.001679	28.1241	0.061278	0.001973	31.0605	-40.591	-165.512	0.007198	0.761506	-0.227936	-0.229316	0.036509	31.0605	-0.228817	-383.559	-9.518598E-5	NaN
141	1.000000	0.770890	7.36642e+06	-45689.1	955.817	-29772.2	0.000000	0.000000	6.771061	0.032894	NaN	0.000000	0.001561	0.001676	28.1245	0.086149	0.001908	45.1482	-147.074	-166.602	-0.041867	0.769607	-0.219932	-0.221215	0.032894	45.1482	-0.220479	-282.697	-0.000116	NaN
141	1.000000	0.778891	7.36642e+06	-45689.1	955.818	-29772.2	0.000000	0.000000	6.779060	-0.003268	NaN	0.000000	0.001558	0.001674	28.1251	0.086267	0.001992	43.2968	54.1411	-164.441	0.055834	0.777526	-0.211931	-0.213296	-0.003268	43.2968	-0.211874	-205.653	1.589265E-5	NaN
141	1.000000	0.786894	7.36642e+06	-45689.1	955.819	-29772.2	0.000000	0.000000	6.787065	0.032618	NaN	0.000000	0.001574	0.001686	28.1231	0.070626	0.002052	34.4103	105.56	-165.699	-0.029312	0.785587	-0.203928	-0.205235	0.032618	34.4103	-0.204639	-156.915	-0.000208	NaN
141	1.000000	0.794907	7.36642e+06	-45689.1	955.818	-29772.2	0.000000	0.000000	6.795075	-0.032452	NaN	0.000000	0.001546	0.001663	28.1233	0.084532	0.001969	42.9311	104.481	-163.828	-0.083802	0.793616	-0.195915	-0.197206	-0.032452	42.9311	-0.195348	-110.401	0.000294	NaN
141	1.000000	0.802899	7.36642e+06	-45689.1	955.818	-29772.2	0.000000	0.000000	6.803071	0.055754	NaN	0.000000	0.001528	0.001703	28.123	0.068398	0.002052	33.3333	65.9766	-168.095	0.058974	0.801594	-0.187923	-0.189228	0.055754	33.3333	-0.189177	-87.1511	-0.000640	NaN
141	1.000000	0.810901	7.36642e+06	-45689.1	955.818	-29772.2	0.000000	0.000000	6.811073	0.053249	NaN	0.000000	0.001524	0.001656	28.1226	0.054675	0.001967	27.8021	165.228	-165.926	0.053162	0.809624	-0.179921	-0.181198	0.053249	27.8021	-0.181357	-64.3475	-0.000828	NaN
141	1.000000	0.818911	7.36642e+06	-45689.1	955.818	-29772.2	0.000000	0.000000	6.819083	0.060371	NaN	0.000000	0.001558	0.001645	28.1247	0.080218	0.001895	42.3368	-131.851	-164.805	-0.016869	0.817585	-0.171911	-0.173237	0.060371	42.3368	-0.172981	-46.2605	-0.001305	NaN
141	1.000000	0.826927	7.36642e+06	-45689.1	955.818	-29772.2	0.000000	0.000000	6.827098	0.027469	NaN	0.000000	0.001524	0.001664	28.125	0.024421	0.002020	12.0913	45.9729	-165.647	0.088055	0.825600	-0.163895	-0.165222	0.027469	12.0913	-0.165598	-34.4196	-0.000798	NaN
141	1.000000	0.834926	7.36642e+06	-45689.1	955.818	-29772.2	0.000000	0.000000	6.835095	-0.013375	NaN	0.000000	0.001540	0.001663	28.1254	0.014730	0.002037	7.229293	-118.073	-166.726	-0.062472	0.833604	-0.155896	-0.157218	-0.013375	7.229293	-0.154508	-21.864	0.000612	NaN
141	1.000000	0.842906	7.36642e+06	-45689.1	955.818	-29772.2	0.000000	0.000000	6.843076	0.001926	NaN	0.000000	0.001564	0.001670	28.1257	0.024244	0.002031	11.9382	-90.8762	-168.719	0.125470	0.841639	-0.147916	-0.149183	0.001926	11.9382	-0.148037	-16.6765	-0.000115	NaN
141	1.000000	0.850889	7.36642e+06	-45689.1	955.818	-29772.2	0.000000	0.000000	6.851060	0.022997	NaN	0.000000	0.001538	0.001689	28.1252	0.092536	0.002013	45.9668	-164.574	-167.559	0.013874	0.849644	-0.139933	-0.141178	0.022997	45.9668	-0.140308	-11.988	-0.001918	NaN
141	1.000000	0.858910	7.36642e+06	-45689.1	955.817	-29772.2	0.000000	0.000000	6.859081	0.029204	NaN	0.000000	0.001560	0.001652	28.1253	0.032125	0.001953	16.4472	-131.363	-165.593	0.070717	0.857609	-0.131912	-0.133213	0.029204	16.4472	-0.133244	-8.803571	-0.003317	NaN
141	1.000000	0.866901	7.36642e+06	-45689.1	955.817	-29772.2	0.000000	0.000000	6.867071	0.021085	NaN	0.000000	0.001525	0.001688	28.1243	0.064170	0.001927	33.3057	-98.272	-166.689	-0.029502	0.865623	-0.123921	-0.125198	0.021085	33.3057	-0.124396	-5.915966	-0.003564	NaN
141	1.000000	0.874936	7.36642e+06	-45689.1	955.818	-29772.2	0.000000	0.000000	6.875107	0.029019	NaN	0.000000	0.001590	0.001673	28.125	0.031051	0.002091	14.8519	139.65	-163.534	0.025092	0.873610	-0.115886	-0.117212	0.029019	14.8519	-0.117351	-4.269060	-0.006798	NaN
141	1.000000	0.882919	7.36642e+06	-45689.1	955.819	-29772.2	0.000000	0.000000	6.883088	-0.013437	NaN	0.000000	0.001575	0.001638	28.1243	0.075202	0.001977	38.0419	-25.8471	-165.527	0.021841	0.881536	-0.107903	-0.109286	-0.013437	38.0419	-0.107638	-2.677851	0.005018	NaN
141	1.000000	0.890942	7.36642e+06	-45689.1	955.819	-29772.2	0.000000	0.000000	6.891111	-0.004583	NaN	0.000000	0.001578	0.001662	28.1246	0.042760	0.001970	21.7077	53.6477	-170.257	0.045166	0.889619	-0.099880	-0.101203	-0.004583	21.7077	-0.099722	-1.801363	0.002544	NaN
141	1.000000	0.898936	7.36642e+06	-45689.1	955.818	-29772.2	0.000000	0.000000	6.899104	-0.035897	NaN	0.000000	0.001562	0.001653	28.1241	0.024838	0.001911	12.9995	117.613	-164.61	0.030070	0.897633	-0.091886	-0.093189	-0.035897	12.9995	-0.089815	-1.070220	0.033542	NaN
141	1.000000	0.906958	7.36642e+06	-45689.1	955.818	-29772.2	0.000000	0.000000	6.907126	-0.030629	NaN	0.000000	0.001543	0.001638	28.1253	0.095300	0.002006	47.5061	104.057	-164.651	-0.066728	0.905577	-0.083864	-0.085245	-0.030629	47.5061	-0.083381	-0.750388	0.040817	NaN
141	1.000000	0.914916	7.36642e+06	-45689.1	955.818	-29772.2	0.000000	0.000000	6.915081	-0.110532	NaN	0.000000	0.001567	0.001673	28.1256	0.142915	0.002006	71.2324	-120.875	-167.438	-0.069053	0.913624	-0.075906	-0.077198	-0.110532	71.2324	-0.074742	-0.454817	0.243026	NaN
141	1.000000	0.922933	7.36642e+06	-45689.1	955.819	-29772.2	0.000000	0.000000	6.923103	-0.010801	NaN	0.000000	0.001576	0.001678	28.1256	0.140411	0.002086	67.3002	133.722	-165.29	0.046081	0.921612	-0.067888	-0.069210	-0.010801	67.3002	-0.067768	-0.296914	0.036379	NaN
141	1.000000	0.930919	7.36642e+06	-45689.1	955.817	-29772.2	0.000000	0.000000	6.931090	0.016899	NaN	0.000000	0.001557	0.001655	28.1254	0.065913	0.001997	33.0114	-60.1451	-162.934	-0.046572	0.929645	-0.059903	-0.061177	0.016899	33.0114	-0.060287	-0.183532	-0.092076	NaN
141	1.000000	0.938957	7.36642e+06	-45689.1	955.818	-29772.2	0.000000	0.000000	6.939129	0.047829	NaN	0.000000	0.001604	0.001661	28.125	0.054847	0.001937	28.3176	-88.977	-166.22	0.037266	0.937661	-0.051865	-0.053161	0.047829	28.3176	-0.053132	-0.113332	-0.422025	NaN
141	1.000000	0.946942	7.36642e+06	-45689.1	955.819	-29772.2	0.000000	0.000000	6.947114	0.037471	NaN	0.000000	0.001566	0.001652	28.1245	0.097625	0.002056	47.482	156.924	-169.68	0.056409	0.945600	-0.043880	-0.045222	0.037471	47.482	-0.044472	-0.061920	-0.605152	NaN
141	1.000000	0.954961	7.36642e+06	-45689.1	955.819	-29772.2	0.000000	0.000000	6.955129	-0.043011	NaN	0.000000	0.001562	0.001642	28.1229	0.107460	0.002115	50.8094	100.982	-168.883	0.027433	0.953669	-0.035861	-0.037153	-0.043011	50.8094	-0.035226	-0.032519	1.322630	NaN
141	1.000000	0.962987	7.36642e+06	-45689.1	955.819	-29772.2	0.000000	0.000000	6.963155	-0.029885	NaN	0.000000	0.001548	0.001662	28.123	0.088856	0.001903	46.6997	-173.672	-165.769	0.019199	0.961629	-0.027835	-0.029193	-0.029885	46.6997	-0.027355	-0.019478	1.534301	NaN
141	1.000000	0.970951	7.36642e+06	-45689.1	955.818	-29772.2	0.000000	0.000000	6.971124	0.061696	NaN	0.000000	0.001582	0.001659	28.1224	0.054573	0.001969	27.7217	-22.7524	-165.689	0.087982	0.969663	-0.019871	-0.021158	0.061696	27.7217	-0.021540	-0.013745	-4.488528	NaN
141	1.000000	0.978951	7.36642e+06	-45689.1	955.818	-29772.2	0.000000	0.000000	6.979121	0.012149	NaN	0.000000	0.001586	0.001647	28.1228	0.064629	0.001990	32.4734	-54.6221	-165.112	0.013517	0.977612	-0.011871	-0.013210	0.012149	32.4734	-0.012152	-0.007615	-1.595332	NaN
141	1.000000	0.986977	7.36642e+06	-45689.1	955.818	-29772.2	0.000000	0.000000	6.987148	0.020345	NaN	0.000000	0.001572	0.001686	28.1238	0.140779	0.002004	70.2574	-143.227	-164.369	0.090379	0.985672	-0.003845	-0.005150	0.020345	70.2574	-0.004062	-0.002819	-7.217292	NaN
141	1.000000	0.994953	7.36642e+06	-45689.1	955.818	-29772.2	0.000000	0.000000	6.995253	3.166851	NaN	0.000000	0.001554	0.001629	28.1236	3.994540	0.001772	2254.46	4.563088	-165.842	1.653332	0.993639	0.004131	0.002817	3.166851	2254.46	0.003077	0.002445	1295.14	41654.3
141	2.000000	1.000482	7.36642e+06	-45689.1	955.818	-29772.2	0.000000	0.000000	7.001062	9.960115	NaN	0.000000	0.001591	0.001692	28.124	8.921231	0.001680	5311.76	3.625632	-169.189	9.337384	1.000157	0.009661	0.009335	9.960115	5311.76	0.008254	0.007305	1363.45	56780.5
141	2.000000	1.002473	7.36642e+06	-45689.1	955.818	-29772.2	0.000000	0.000000	7.003122	11.6522	NaN	0.000000	0.001579	0.001670	28.1236	10.751	0.001569	6851.46	7.757855	-175.78	11.9181	1.002172	0.011652	0.011350	11.6522	6851.46	0.010376	0.009602	1213.47	63880.3
141	2.000000	1.004405	7.36642e+06	-45689.1	955.818	-29772.2	0.000000	0.000000	7.005248	16.3992	NaN	0.000000	0.001582	0.001673	28.1239	14.0441	0.001730	8118.28	4.099199	-174.753	15.6992	1.004137	0.013583	0.013315	16.3992	8118.28	0.012068	0.011571	1417.24	68952.3
141	2.000000	1.006445	7.36642e+06	-45689.1	955.819	-29772.2	0.000000	0.000000	7.007338	17.5912	NaN	0.000000	0.001572	0.001677	28.123	15.47	0.001687	9171.94	4.510204	-173.539	17.8803	1.006139	0.015623	0.015317	17.5912	9171.94	0.014184	0.014213	1237.68	70289.5
141	2.000000	1.008392	7.36642e+06	-45689.1	955.819	-29772.2	0.000000	0.000000	7.009472	22.1455	NaN	0.000000	0.001597	0.001670	28.1223	17.9071	0.001899	9430.07	9.315208	-178.917	21.6889	1.008101	0.017570	0.017279	22.1455	9430.07	0.015809	0.016379	1352.07	67320.2
141	2.000000	1.010365	7.36642e+06	-45689.1	955.818	-29772.2	0.000000	0.000000	7.011599	25.8931	NaN	0.000000	0.001584	0.001655	28.1224	18.945	0.001787	10601.3	3.601263	-174.535	24.322	1.010092	0.019543	0.019270	25.8931	10601.3	0.017711	0.019073	1357.61	70133.8
141	2.000000	1.012392	7.36642e+06	-45689.1	955.818	-29772.2	0.000000	0.000000	7.013776	29.5269	NaN	0.000000	0.001564	0.001682	28.1222	21.1737	0.001839	11513.7	6.851231	-178.188	29.4155	1.012110	0.021570	0.021288	29.5269	11513.7	0.019647	0.021990	1342.73	70937.1
141	2.000000	1.014424	7.36642e+06	-45689.1	955.818	-29772.2	0.000000	0.000000	7.016139	37.5942	NaN	0.000000	0.001581	0.001715	28.1224	23.9251	0.001773	13495.6	8.553629	179.339	39.3628	1.014025	0.023602	0.023203	37.5942	13495.6	0.021513	0.024976	1505.23	78019.9
141	2.000000	1.016408	7.36642e+06	-45689.1	955.818	-29772.2	0.000000	0.000000	7.018356	43.2709	NaN	0.000000	0.001564	0.001708	28.1231	25.6599	0.001798	14269.7	2.357268	-174.844	43.5633	1.016086	0.025586	0.025264	43.2709	14269.7	0.023312	0.028016	1544.53	77890.9
141	2.000000	1.018375	7.36642e+06	-45689.1	955.818	-29772.2	0.000000	0.000000	7.020597	49.9184	NaN	0.000000	0.001559	0.001736	28.1235	27.6305	0.001776	15558.2	3.758714	-178.038	49.9427	1.018137	0.027553	0.027315	49.9184	15558.2	0.025147	0.031284	1595.66	80366.3
141	2.000000	1.020319	7.36642e+06	-45689.1	955.818	-29772.2	0.000000	0.000000	7.022658	52.756	NaN	0.000000	0.001548	0.001703	28.1231	30.1468	0.001945	15500.1	6.133713	-179.921	50.1936	1.020064	0.029497	0.029242	52.756	15500.1	0.026945	0.034649	1522.59	76078.9
141	2.000000	1.022397	7.36642e+06	-45689.1	955.819	-29772.2	0.000000	0.000000	7.024926	57.3743	NaN	0.000000	0.001535	0.001687	28.1245	31.162	0.001786	17447.9	6.005586	179.467	59.724	1.022094	0.031575	0.031272	57.3743	17447.9	0.029109	0.038917	1474.26	80806.4
141	2.000000	1.024312	7.36642e+06	-45689.1	955.819	-29772.2	0.000000	0.000000	7.027164	65.2475	NaN	0.000000	0.001633	0.001713	28.1245	32.3744	0.001688	19175.4	2.526164	-178.809	63.4312	1.024001	0.033490	0.033179	65.2475	19175.4	0.030938	0.042710	1527.69	84772.1
141	2.000000	1.026420	7.36642e+06	-45689.1	955.819	-29772.2	0.000000	0.000000	7.029459	69.7873	NaN	0.000000	0.001620	0.001699	28.1239	35.1534	0.001913	18371.8	5.367718	179.624	69.5763	1.025999	0.035598	0.035177	69.7873	18371.8	0.032750	0.046636	1496.44	77725.9
141	2.000000	1.028350	7.36642e+06	-45689.1	955.819	-29772.2	0.000000	0.000000	7.031688	77.0867	NaN	0.000000	0.001624	0.001695	28.1234	36.7933	0.001766	20837.6	3.585619	179.029	76.2672	1.028089	0.037528	0.037267	77.0867	20837.6	0.034753	0.051173	1506.4	84159.4
141	2.000000	1.030321	7.36642e+06	-45689.1	955.818	-29772.2	0.000000	0.000000	7.033961	84.4215	NaN	0.000000	0.001636	0.001696	28.123	39.6979	0.001943	20428.7	6.392683	177.145	84.1248	1.030015	0.039499	0.039193	84.4215	20428.7	0.036400	0.055055	1533.4	79545.4
141	2.000000	1.032315	7.36642e+06	-45689.1	955.819	-29772.2	0.000000	0.000000	7.036332	93.588	NaN	0.000000	0.001619	0.001709	28.1231	39.7033	0.001704	23301.3	2.012628	179.814	91.2704	1.032043	0.041493	0.041221	93.588	23301.3	0.038481	0.060161	1555.63	86795.5
141	2.000000	1.034352	7.36642e+06	-45689.1	955.819	-29772.2	0.000000	0.000000	7.038654	100.507	NaN	0.000000	0.001584	0.001687	28.1239	42.9755	0.001920	22381.3	6.054630	177.562	100.721	1.034031	0.043530	0.043209	100.507	22381.3	0.040162	0.064448	1559.5	80547.4
141	2.000000	1.036356	7.36642e+06	-45689.1	955.819	-29772.2	0.000000	0.000000	7.041014	109.183	NaN	0.000000	0.001556	0.001702	28.1241	44.6841	0.001874	23844.6	5.957272	177.222	107.497	1.035956	0.045534	0.045134	109.183	23844.6	0.042100	0.069567	1569.46	82596.3
141	2.000000	1.038352	7.36642e+06	-45689.1	955.819	-29772.2	0.000000	0.000000	7.043430	119.423	NaN	0.000000	0.001566	0.001655	28.1243	45.5988	0.001786	25535.9	4.002948	177.613	119.442	1.037985	0.047530	0.047163	119.423	25535.9	0.044022	0.074835	1595.81	85284.7
141	2.000000	1.040302	7.36642e+06	-45689.1	955.82	-29772.2	0.000000	0.000000	7.045711	127.464	NaN	0.000000	0.001572	0.001696	28.1239	48.0378	0.001838	26138.8	3.125433	178.197	126.776	1.040053	0.049480	0.049231	127.464	26138.8	0.045822	0.079939	1594.52	84465.6
141	2.000000	1.042341	7.36642e+06	-45689.1	955.819	-29772.2	0.000000	0.000000	7.048138	136.893	NaN	0.000000	0.001537	0.001688	28.1241	49.1647	0.001729	28436.1	5.248442	175.38	138.036	1.042047	0.051519	0.051225	136.893	28436.1	0.047908	0.086058	1590.71	88562.2
141	2.000000	1.044309	7.36642e+06	-45689.1	955.819	-29772.2	0.000000	0.000000	7.050567	148.097	NaN	0.000000	0.001558	0.001665	28.1241	52.285	0.001820	28732.2	8.269226	171.888	147.059	1.043978	0.053487	0.053156	148.097	28732.2	0.049621	0.091246	1623.06	86903.3
141	2.000000	1.046372	7.36642e+06	-45689.1	955.819	-29772.2	0.000000	0.000000	7.053052	158.356	NaN	0.000000	0.001560	0.001696	28.1229	54.0709	0.001836	29446.9	8.056761	173.391	159.831	1.045942	0.055550	0.055120	158.356	29446.9	0.051517	0.097160	1629.84	86311.6
141	2.000000	1.048315	7.36642e+06	-45689.1	955.819	-29772.2	0.000000	0.000000	7.055340	166.762	NaN	0.000000	0.001532	0.001697	28.1237	54.1671	0.001647	32880.9	1.030035	178.503	167.248	1.047960	0.057493	0.057138	166.762	32880.9	0.053689	0.104156	1601.08	93084.1
141	2.000000	1.050342	7.36642e+06	-45689.1	955.82	-29772.2	0.000000	0.000000	7.057552	171.263	NaN	0.000000	0.001542	0.001677	28.1225	58.8484	0.001900	30977.5	4.879546	174.425	170.885	1.050107	0.059520	0.059285	171.263	30977.5	0.055373	0.109743	1560.59	85434.3
141	2.000000	1.052289	7.36642e+06	-45689.1	955.819	-29772.2	0.000000	0.000000	7.060287	190.427	NaN	0.000000	0.001557	0.001661	28.1229	58.9358	0.001702	34621.3	1.537239	177.683	188.306	1.051898	0.061467	0.061076	190.427	34621.3	0.057342	0.116449	1635.28	92693.1
141	2.000000	1.054334	7.36642e+06	-45689.1	955.819	-29772.2	0.000000	0.000000	7.062629	197.661	NaN	0.000000	0.001557	0.001671	28.1234	61.5088	0.001669	36856.6	6.002658	172.17	197.533	1.054074	0.063512	0.063252	197.661	36856.6	0.059490	0.123985	1594.23	95632.2
141	2.000000	1.056374	7.36642e+06	-45689.1	955.819	-29772.2	0.000000	0.000000	7.065133	208.934	NaN	0.000000	0.001566	0.001707	28.1224	63.9435	0.001896	33718.9	4.383396	175.887	211.306	1.056002	0.065552	0.065180	208.934	33718.9	0.060905	0.129074	1618.71	85748.5
141	2.000000	1.058277	7.36642e+06	-45689.1	955.82	-29772.2	0.000000	0.000000	7.067753	226.398	NaN	0.000000	0.001571	0.001670	28.1229	64.5107	0.001779	36265.9	-0.231948	179.507	223.705	1.057924	0.067455	0.067102	226.398	36265.9	0.062773	0.135938	1665.45	89867.2
141	2.000000	1.060220	7.36642e+06	-45689.1	955.819	-29772.2	0.000000	0.000000	7.070176	238.068	NaN	0.000000	0.001569	0.001669	28.1225	68.198	0.001916	35587.1	5.458816	173.313	233.831	1.059936	0.069398	0.069114	238.068	35587.1	0.064381	0.141985	1676.72	86287
141	2.000000	1.062319	7.36642e+06	-45689.1	955.818	-29772.2	0.000000	0.000000	7.072591	245.735	NaN	0.000000	0.001574	0.001674	28.1226	68.5422	0.001830	37450.4	4.580819	173.937	246.682	1.062043	0.071497	0.071221	245.735	37450.4	0.066576	0.150440	1633.45	88216.2
141	2.000000	1.064323	7.36642e+06	-45689.1	955.818	-29772.2	0.000000	0.000000	7.075233	261.275	NaN	0.000000	0.001567	0.001694	28.1233	70.754	0.001800	39300.2	3.973440	174.68	262.702	1.063939	0.073501	0.073117	261.275	39300.2	0.068515	0.158099	1652.61	90303.4
141	2.000000	1.066308	7.36642e+06	-45689.1	955.819	-29772.2	0.000000	0.000000	7.077936	278.728	NaN	0.000000	0.001563	0.001674	28.1214	72.4606	0.001791	40462.3	3.754298	174.779	277.204	1.065905	0.075487	0.075083	278.728	40462.3	0.070320	0.165392	1685.25	90900.3
141	2.000000	1.068330	7.36642e+06	-45689.1	955.818	-29772.2	0.000000	0.000000	7.080377	288.932	NaN	0.000000	0.001529	0.001677	28.1214	73.9495	0.001824	40548.6	4.730116	173.578	289.945	1.067967	0.077508	0.077145	288.932	40548.6	0.072163	0.173000	1670.13	89068.9
141	2.000000	1.070295	7.36642e+06	-45689.1	955.819	-29772.2	0.000000	0.000000	7.082832	300.845	NaN	0.000000	0.001561	0.001691	28.1216	76.9585	0.001874	41064.6	5.849089	172.137	300.502	1.069960	0.079473	0.079138	300.845	41064.6	0.073979	0.180648	1665.36	88272.2
141	2.000000	1.072172	7.36642e+06	-45689.1	955.819	-29772.2	0.000000	0.000000	7.085466	319.267	NaN	0.000000	0.001552	0.001624	28.1217	77.0312	0.001693	45508.9	7.081833	169.799	313.656	1.072006	0.081350	0.081184	319.267	45508.9	0.076088	0.189731	1682.73	95455.3
141	2.000000	1.074192	7.36642e+06	-45689.1	955.818	-29772.2	0.000000	0.000000	7.088041	332.754	NaN	0.000000	0.001547	0.001701	28.1222	80.3678	0.001826	44018.9	6.935134	170.557	326.821	1.073880	0.083370	0.083058	332.754	44018.9	0.077701	0.196817	1690.67	90652.8
141	2.000000	1.076376	7.36642e+06	-45689.1	955.819	-29772.2	0.000000	0.000000	7.090897	349.101	NaN	0.000000	0.001549	0.001651	28.1223	82.2996	0.001782	46185.3	5.791613	171.444	351.288	1.075989	0.085554	0.085167	349.101	46185.3	0.079885	0.206609	1689.67	92833.2
141	2.000000	1.078255	7.36642e+06	-45689.1	955.82	-29772.2	0.000000	0.000000	7.093502	366.787	NaN	0.000000	0.001566	0.001693	28.1225	83.8386	0.001835	45677	5.606527	171.438	365.597	1.077940	0.087433	0.087118	366.787	45677	0.081410	0.213576	1717.36	90301.4
141	2.000000	1.080239	7.36642e+06	-45689.1	955.82	-29772.2	0.000000	0.000000	7.096306	386.73	NaN	0.000000	0.001579	0.001661	28.1223	85.6319	0.001754	48820.1	3.516650	172.951	384.122	1.079941	0.089417	0.089119	386.73	48820.1	0.083476	0.223185	1732.78	94414.5
141	2.000000	1.082291	7.36642e+06	-45689.1	955.819	-29772.2	0.000000	0.000000	7.099062	403.868	NaN	0.000000	0.001534	0.001688	28.1231	86.8906	0.001760	49375.1	3.975361	172.829	405.331	1.081947	0.091469	0.091125	403.868	49375.1	0.085334	0.231997	1740.83	93656.9
141	2.000000	1.084221	7.36642e+06	-45689.1	955.819	-29772.2	0.000000	0.000000	7.101550	417.418	NaN	0.000000	0.001608	0.001699	28.1222	89.4018	0.001835	48721.1	6.763424	169.742	412.659	1.083926	0.093399	0.093104	417.418	48721.1	0.086974	0.239907	1739.92	90880.2
141	2.000000	1.086298	7.36642e+06	-45689.1	955.819	-29772.2	0.000000	0.000000	7.104226	431.994	NaN	0.000000	0.001551	0.001695	28.1217	90.7269	0.001754	51717.8	6.312743	169.773	431.247	1.086049	0.095476	0.095227	431.994	51717.8	0.089211	0.250900	1721.78	94332.7
141	2.000000	1.088221	7.36642e+06	-45689.1	955.82	-29772.2	0.000000	0.000000	7.106694	445.265	NaN	0.000000	0.001561	0.001695	28.1212	91.5574	0.001631	56141.7	4.938899	170.5	443.903	1.088096	0.097399	0.097275	445.265	56141.7	0.091450	0.262131	1698.64	100184
141	2.000000	1.090295	7.36642e+06	-45689.1	955.819	-29772.2	0.000000	0.000000	7.109596	465.409	NaN	0.000000	0.001542	0.001702	28.1226	95.2366	0.001832	51995	1.603260	174.713	465.001	1.090002	0.099473	0.099180	465.409	51995	0.092759	0.268802	1731.42	91626
141	2.000000	1.092235	7.36642e+06	-45689.1	955.819	-29772.2	0.000000	0.000000	7.112311	484.248	NaN	0.000000	0.001565	0.001684	28.1225	96.2041	0.001782	53987.4	4.700733	171.206	482.064	1.091904	0.101413	0.101082	484.248	53987.4	0.094686	0.278764	1737.13	93421.6
141	2.000000	1.094168	7.36642e+06	-45689.1	955.818	-29772.2	0.000000	0.000000	7.114710	495.584	NaN	0.000000	0.001550	0.001681	28.1228	99.3005	0.001846	53781.2	2.436906	173.26	488.729	1.093829	0.103346	0.103007	495.584	53781.2	0.096435	0.287955	1721.05	91567.6
141	2.000000	1.096177	7.36642e+06	-45689.1	955.819	-29772.2	0.000000	0.000000	7.117482	514.14	NaN	0.000000	0.001572	0.001667	28.1234	102.075	0.001884	54189	6.521932	169.457	506.773	1.095899	0.105355	0.105077	514.14	54189	0.098239	0.297582	1727.72	90757.2
141	2.000000	1.098285	7.36642e+06	-45689.1	955.819	-29772.2	0.000000	0.000000	7.120231	529.755	NaN	0.000000	0.001560	0.001676	28.1235	103.72	0.001914	54187.3	6.595675	169.59	531.956	1.097858	0.107463	0.107037	529.755	54187.3	0.100130	0.307831	1720.93	89230.8