File: remote_trans/data/nanoindenter/0828-1/data/Data_2025-08-06,11h17m57s/2025-07-22_16-23-58_1_1040.txt
2025-07-22, 16:23:58, 1
Index	Phase	Displacement	Time	Pos X	Pos Y	Pos Z	Rot A	Rot B	Piezo Z	Force A	Force B	Gripper	Voltage A	Voltage B	Temperature	Amplitude force	Amplitude pos	Stiffness	Phase shift	Phase excitation	Force A raw	Displacement raw	HMax	HMax raw	Real Force	Real Stiffness	Contact Depth	Area	Hardness	Reduced Mod.
[#]	[#]	[um]	[s]	[um]	[um]	[um]	[m°]	[m°]	[um]	[uN]	[uN]	[V]	[V]	[V]	[°C]	[uN]	[um]	[N/m]	[°]	[°]	[uN]	[um]	[um]	[um]	[uN]	[N/m]	[um]	[um^2]	[MPa]	[MPa]
1040	1.000000	0.002508	7.37522e+06	-52139.1	1055.82	-29750.1	0.000000	0.000000	6.002781	0.067744	NaN	0.000000	0.001660	0.001673	28.0826	0.030505	0.000978	31.1796	144.051	-166.126	0.100341	0.001258	-0.977013	-0.978263	0.067744	31.1796	-0.978642	-1.169814E+13	-5.791040E-15	NaN
1040	1.000000	0.010488	7.37522e+06	-52139.1	1055.82	-29750.1	0.000000	0.000000	6.010759	0.023027	NaN	0.000000	0.001605	0.001662	28.0823	0.017671	0.000985	17.9386	-0.512674	-159.695	0.039862	0.009094	-0.969033	-0.970427	0.023027	17.9386	-0.969996	-8.945500E+12	-2.574095E-15	NaN
1040	1.000000	0.018482	7.37522e+06	-52139.1	1055.82	-29750.1	0.000000	0.000000	6.018752	0.006686	NaN	0.000000	0.001658	0.001610	28.0822	0.169774	0.001759	96.5279	-145.654	-165.281	-0.014470	0.017206	-0.961040	-0.962315	0.006686	96.5279	-0.961092	-6.785547E+12	-9.853254E-16	NaN
1040	1.000000	0.026525	7.37522e+06	-52139.1	1055.82	-29750.1	0.000000	0.000000	6.026793	-0.050290	NaN	0.000000	0.001700	0.001598	28.0824	0.040890	0.001809	22.6094	-136.996	-164.268	-0.072284	0.025189	-0.952996	-0.954332	-0.050290	22.6094	-0.951328	-5.011113E+12	1.003578E-14	NaN
1040	1.000000	0.034465	7.37522e+06	-52139.1	1055.82	-29750.1	0.000000	0.000000	6.034731	-0.087394	NaN	0.000000	0.001681	0.001600	28.0825	0.084721	0.001882	45.0084	48.5416	-164.309	-0.099351	0.033140	-0.945056	-0.946381	-0.087394	45.0084	-0.943600	-3.941904E+12	2.217039E-14	NaN
1040	1.000000	0.042485	7.37522e+06	-52139.1	1055.82	-29750.1	0.000000	0.000000	6.042757	0.052666	NaN	0.000000	0.001680	0.001599	28.0826	0.129487	0.001869	69.2969	158.733	-165.441	0.012981	0.041141	-0.937036	-0.938380	0.052666	69.2969	-0.937606	-3.272199E+12	-1.609509E-14	NaN
1040	1.000000	0.050456	7.37522e+06	-52139.1	1055.82	-29750.1	0.000000	0.000000	6.050725	-0.030757	NaN	0.000000	0.001705	0.001577	28.0823	0.101518	0.002004	50.6457	-136.133	-167.918	-0.006006	0.049202	-0.929065	-0.930320	-0.030757	50.6457	-0.928609	-2.474169E+12	1.243125E-14	NaN
1040	1.000000	0.058493	7.37522e+06	-52139.1	1055.82	-29750.1	0.000000	0.000000	6.058761	-0.054530	NaN	0.000000	0.001716	0.001585	28.0824	0.086040	0.002087	41.2196	123.839	-166.808	-0.033318	0.057204	-0.921028	-0.922317	-0.054530	41.2196	-0.920036	-1.895360E+12	2.877025E-14	NaN
1040	1.000000	0.066488	7.37522e+06	-52139.1	1055.82	-29750.1	0.000000	0.000000	6.066759	0.018864	NaN	0.000000	0.001725	0.001596	28.0823	0.047352	0.001938	24.4291	47.7857	-164.392	0.008449	0.065201	-0.913033	-0.914320	0.018864	24.4291	-0.913613	-1.552223E+12	-1.215275E-14	NaN
1040	1.000000	0.074495	7.37522e+06	-52139.1	1055.82	-29750.1	0.000000	0.000000	6.074762	-0.069887	NaN	0.000000	0.001677	0.001572	28.0826	0.088522	0.002041	43.3648	77.3382	-167.302	-0.034497	0.073192	-0.905027	-0.906329	-0.069887	43.3648	-0.903818	-1.144591E+12	6.105838E-14	NaN
1040	1.000000	0.082514	7.37522e+06	-52139.1	1055.82	-29750.1	0.000000	0.000000	6.082786	0.035839	NaN	0.000000	0.001720	0.001570	28.0836	0.091355	0.001884	48.5007	136.147	-166.143	0.075209	0.081200	-0.897007	-0.898321	0.035839	48.5007	-0.897561	-9.421278E+11	-3.804060E-14	NaN
1040	1.000000	0.090475	7.37522e+06	-52139.1	1055.82	-29750.1	0.000000	0.000000	6.090744	-0.022746	NaN	0.000000	0.001694	0.001600	28.0837	0.057930	0.001978	29.2913	-119.212	-168.247	0.015146	0.089184	-0.889046	-0.890337	-0.022746	29.2913	-0.888463	-7.098116E+11	3.204489E-14	NaN
1040	1.000000	0.098478	7.37522e+06	-52139.1	1055.82	-29750.1	0.000000	0.000000	6.098745	-0.072902	NaN	0.000000	0.001702	0.001602	28.0839	0.049465	0.002183	22.6562	-160.51	-167.322	-0.131390	0.097221	-0.881043	-0.882300	-0.072902	22.6562	-0.878630	-5.226141E+11	1.394950E-13	NaN
1040	1.000000	0.106492	7.37522e+06	-52139.1	1055.82	-29750.1	0.000000	0.000000	6.106762	-0.008107	NaN	0.000000	0.001674	0.001593	28.0836	0.054862	0.001886	29.0885	153.508	-168.014	-0.064122	0.105174	-0.873029	-0.874347	-0.008107	29.0885	-0.872820	-4.361056E+11	1.859042E-14	NaN
1040	1.000000	0.114497	7.37522e+06	-52139.1	1055.82	-29750.1	0.000000	0.000000	6.114766	-0.023485	NaN	0.000000	0.001664	0.001610	28.0839	0.086091	0.001988	43.3141	-73.3859	-167.405	-0.011765	0.113199	-0.865024	-0.866322	-0.023485	43.3141	-0.864617	-3.377614E+11	6.953218E-14	NaN
1040	1.000000	0.122517	7.37522e+06	-52139.1	1055.82	-29750.1	0.000000	0.000000	6.122788	0.031936	NaN	0.000000	0.001668	0.001633	28.0836	0.051326	0.001789	28.682	-78.802	-167.757	-0.018938	0.121206	-0.857004	-0.858316	0.031936	28.682	-0.857840	-2.734496E+11	-1.167904E-13	NaN
1040	1.000000	0.130519	7.37522e+06	-52139.1	1055.82	-29750.1	0.000000	0.000000	6.130787	-0.037672	NaN	0.000000	0.001681	0.001645	28.0834	0.046420	0.001848	25.1145	33.5877	-165.436	-0.039547	0.129151	-0.849003	-0.850370	-0.037672	25.1145	-0.847878	-2.004451E+11	1.879429E-13	NaN
1040	1.000000	0.138495	7.37522e+06	-52139.1	1055.82	-29750.1	0.000000	0.000000	6.138764	-0.014019	NaN	0.000000	0.001672	0.001598	28.0838	0.050103	0.002050	24.4455	24.667	-165.76	0.021150	0.137185	-0.841026	-0.842336	-0.014019	24.4455	-0.840596	-1.597232E+11	8.776907E-14	NaN
1040	1.000000	0.146543	7.37522e+06	-52139.1	1055.82	-29750.1	0.000000	0.000000	6.146813	-0.010779	NaN	0.000000	0.001656	0.001578	28.0836	0.059730	0.002085	28.6528	-152.73	-166.16	-0.092341	0.145213	-0.832978	-0.834309	-0.010779	28.6528	-0.832696	-1.248304E+11	8.634566E-14	NaN
1040	1.000000	0.154505	7.37522e+06	-52139.1	1055.82	-29750.1	0.000000	0.000000	6.154775	-0.016900	NaN	0.000000	0.001653	0.001573	28.0838	0.120067	0.001985	60.4962	120.469	-168.55	-0.076335	0.153247	-0.825016	-0.826274	-0.016900	60.4962	-0.824806	-9.758463E+10	1.731788E-13	NaN
1040	1.000000	0.162498	7.37522e+06	-52139.1	1055.82	-29750.1	0.000000	0.000000	6.162766	-0.038598	NaN	0.000000	0.001661	0.001568	28.0835	0.087169	0.002118	41.1538	-109.787	-165.866	-0.031196	0.161161	-0.817024	-0.818360	-0.038598	41.1538	-0.816320	-7.486959E+10	5.155387E-13	NaN
1040	1.000000	0.170508	7.37522e+06	-52139.1	1055.82	-29750.1	0.000000	0.000000	6.170777	-0.015085	NaN	0.000000	0.001636	0.001641	28.0834	0.082995	0.002090	39.7095	88.1009	-166.309	-0.026525	0.169218	-0.809014	-0.810303	-0.015085	39.7095	-0.808729	-5.906378E+10	2.553950E-13	NaN
1040	1.000000	0.178513	7.37522e+06	-52139.1	1055.82	-29750.1	0.000000	0.000000	6.178783	0.015335	NaN	0.000000	0.001646	0.001613	28.0837	0.135790	0.001938	70.0702	94.9522	-164.528	0.013795	0.177248	-0.801009	-0.802273	0.015335	70.0702	-0.801173	-4.664240E+10	-3.287731E-13	NaN
1040	1.000000	0.186533	7.37522e+06	-52139.1	1055.82	-29750.1	0.000000	0.000000	6.186801	-0.047371	NaN	0.000000	0.001652	0.001628	28.0834	0.027660	0.001923	14.3819	35.9551	-167.353	-0.002108	0.185244	-0.792988	-0.794277	-0.047371	14.3819	-0.790518	-3.342865E+10	1.417081E-12	NaN
1040	1.000000	0.194548	7.37522e+06	-52139.1	1055.82	-29750.1	0.000000	0.000000	6.194820	0.045059	NaN	0.000000	0.001633	0.001587	28.084	0.037458	0.002008	18.6529	47.1434	-169.126	0.071400	0.193227	-0.784973	-0.786294	0.045059	18.6529	-0.786785	-2.974529E+10	-1.514833E-12	NaN
1040	1.000000	0.202530	7.37522e+06	-52139.1	1055.82	-29750.1	0.000000	0.000000	6.202797	-0.066255	NaN	0.000000	0.001639	0.001653	28.0834	0.093681	0.001969	47.5801	39.2231	-168.211	-0.026376	0.201207	-0.776991	-0.778314	-0.066255	47.5801	-0.775947	-2.119094E+10	3.126585E-12	NaN
1040	1.000000	0.210563	7.37522e+06	-52139.1	1055.82	-29750.1	0.000000	0.000000	6.210832	-0.036162	NaN	0.000000	0.001646	0.001659	28.0835	0.122848	0.002018	60.8668	74.5904	-168.321	0.009637	0.209216	-0.768958	-0.770305	-0.036162	60.8668	-0.768512	-1.679096E+10	2.153644E-12	NaN
1040	1.000000	0.218537	7.37522e+06	-52139.1	1055.82	-29750.1	0.000000	0.000000	6.218809	0.037304	NaN	0.000000	0.001666	0.001670	28.0823	0.072807	0.001904	38.232	-78.7497	-165.042	-0.055952	0.217224	-0.760984	-0.762297	0.037304	38.232	-0.761716	-1.357204E+10	-2.748612E-12	NaN
1040	1.000000	0.226543	7.37522e+06	-52139.1	1055.82	-29750.1	0.000000	0.000000	6.226811	-0.047944	NaN	0.000000	0.001638	0.001661	28.0822	0.007605	0.002026	3.754173	0.151883	-165.033	-0.093835	0.225187	-0.752978	-0.754334	-0.047944	3.754173	-0.743400	-7.644716E+9	6.271476E-12	NaN
1040	1.000000	0.234570	7.37522e+06	-52139.1	1055.82	-29750.1	0.000000	0.000000	6.234840	0.011434	NaN	0.000000	0.001722	0.001649	28.0825	0.072637	0.002003	36.2602	118.313	-164.788	0.009782	0.233268	-0.744951	-0.746253	0.011434	36.2602	-0.745188	-8.085525E+9	-1.414111E-12	NaN
1040	1.000000	0.242611	7.37522e+06	-52139.1	1055.82	-29750.1	0.000000	0.000000	6.242880	-0.025321	NaN	0.000000	0.001706	0.001631	28.0823	0.033653	0.001966	17.1184	151.211	-165.926	-0.009658	0.241271	-0.736910	-0.738250	-0.025321	17.1184	-0.735801	-6.023523E+9	4.203672E-12	NaN
1040	1.000000	0.250556	7.37522e+06	-52139.1	1055.82	-29750.1	0.000000	0.000000	6.250826	0.002519	NaN	0.000000	0.001683	0.001628	28.0824	0.035928	0.001980	18.1472	166.616	-167.512	0.042867	0.249265	-0.728965	-0.730256	0.002519	18.1472	-0.729070	-4.876703E+9	-5.166080E-13	NaN
1040	1.000000	0.258588	7.37522e+06	-52139.1	1055.82	-29750.1	0.000000	0.000000	6.258856	-0.049293	NaN	0.000000	0.001718	0.001624	28.0825	0.147187	0.001928	76.3224	-169.549	-168.601	-0.115292	0.257207	-0.720933	-0.722314	-0.049293	76.3224	-0.720449	-3.720459E+9	1.324923E-11	NaN
1040	1.000000	0.266544	7.37522e+06	-52139.1	1055.82	-29750.1	0.000000	0.000000	6.266814	0.005115	NaN	0.000000	0.001702	0.001650	28.0826	0.024853	0.001941	12.804	-83.6036	-170.074	0.050141	0.265251	-0.712977	-0.714270	0.005115	12.804	-0.713277	-2.970067E+9	-1.722192E-12	NaN
1040	1.000000	0.274570	7.37522e+06	-52139.1	1055.82	-29750.1	0.000000	0.000000	6.274839	-0.025659	NaN	0.000000	0.001692	0.001688	28.0826	0.133908	0.002047	65.4169	162.891	-168.419	-0.018091	0.273271	-0.704951	-0.706250	-0.025659	65.4169	-0.704657	-2.265282E+9	1.132710E-11	NaN
1040	1.000000	0.282562	7.37522e+06	-52139.1	1055.82	-29750.1	0.000000	0.000000	6.282832	-0.003322	NaN	0.000000	0.001717	0.001671	28.0825	0.124801	0.001977	63.1324	69.9375	-163.974	0.013113	0.281301	-0.696959	-0.698220	-0.003322	63.1324	-0.696920	-1.776061E+9	1.870354E-12	NaN
1040	1.000000	0.290593	7.37522e+06	-52139.1	1055.82	-29750.1	0.000000	0.000000	6.290863	-0.023032	NaN	0.000000	0.001664	0.001607	28.083	0.142349	0.001961	72.582	-4.435154	-166.646	0.027130	0.289247	-0.688928	-0.690275	-0.023032	72.582	-0.688690	-1.370915E+9	1.680019E-11	NaN
1040	1.000000	0.298566	7.37522e+06	-52139.1	1055.82	-29750.1	0.000000	0.000000	6.298836	0.013691	NaN	0.000000	0.001657	0.001612	28.0828	0.054618	0.001956	27.9223	0.705059	-167.432	-0.020351	0.297227	-0.680956	-0.682294	0.013691	27.9223	-0.681323	-1.087182E+9	-1.259286E-11	NaN
1040	1.000000	0.306585	7.37522e+06	-52139.1	1055.82	-29750.1	0.000000	0.000000	6.306856	0.033813	NaN	0.000000	0.001663	0.001598	28.0826	0.146139	0.001922	76.0319	70.1428	-167.06	-0.051783	0.305222	-0.672937	-0.674299	0.033813	76.0319	-0.673270	-8.436099E+8	-4.008160E-11	NaN
1040	1.000000	0.314577	7.37522e+06	-52139.1	1055.82	-29750.1	0.000000	0.000000	6.314845	-0.052306	NaN	0.000000	0.001659	0.001651	28.0823	0.092748	0.002001	46.3399	31.8487	-164.128	-0.037015	0.313264	-0.664944	-0.666257	-0.052306	46.3399	-0.664098	-6.318116E+8	8.278663E-11	NaN
1040	1.000000	0.322577	7.37522e+06	-52139.1	1055.82	-29750.1	0.000000	0.000000	6.322849	0.039305	NaN	0.000000	0.001655	0.001641	28.0824	0.093827	0.001966	47.7162	-106.871	-165.599	0.013465	0.321321	-0.656944	-0.658200	0.039305	47.7162	-0.657562	-5.141215E+8	-7.645048E-11	NaN
1040	1.000000	0.330586	7.37522e+06	-52139.1	1055.82	-29750.1	0.000000	0.000000	6.330855	-0.029463	NaN	0.000000	0.001624	0.001641	28.0825	0.035257	0.002032	17.3538	152.654	-164.638	-0.023013	0.329314	-0.648935	-0.650207	-0.029463	17.3538	-0.647662	-3.761672E+8	7.832313E-11	NaN
1040	1.000000	0.338622	7.37522e+06	-52139.1	1055.82	-29750.1	0.000000	0.000000	6.338895	0.048646	NaN	0.000000	0.001684	0.001619	28.0824	0.027129	0.001995	13.6012	-100.16	-164.905	-0.017290	0.337277	-0.640899	-0.642244	0.048646	13.6012	-0.643581	-3.306865E+8	-1.471058E-10	NaN
1040	1.000000	0.346613	7.37522e+06	-52139.1	1055.82	-29750.1	0.000000	0.000000	6.346882	-0.015343	NaN	0.000000	0.001622	0.001621	28.083	0.142184	0.002005	70.9166	-33.4966	-167.732	-0.015122	0.345262	-0.632908	-0.634259	-0.015343	70.9166	-0.632746	-2.348172E+8	6.534088E-11	NaN
1040	1.000000	0.354587	7.37522e+06	-52139.1	1055.82	-29750.1	0.000000	0.000000	6.354855	-0.050818	NaN	0.000000	0.001638	0.001651	28.0834	0.008004	0.002076	3.855875	-174.092	-167.436	0.002425	0.353351	-0.624934	-0.626170	-0.050818	3.855875	-0.615050	-1.341459E+8	3.788237E-10	NaN
1040	1.000000	0.362630	7.37522e+06	-52139.1	1055.82	-29750.1	0.000000	0.000000	6.362901	0.020723	NaN	0.000000	0.001626	0.001657	28.0838	0.111329	0.001896	58.7301	3.745913	-167.43	-0.018214	0.361326	-0.616891	-0.618195	0.020723	58.7301	-0.617156	-1.433957E+8	-1.445188E-10	NaN
1040	1.000000	0.370633	7.37522e+06	-52139.1	1055.82	-29750.1	0.000000	0.000000	6.370903	-0.001025	NaN	0.000000	0.001633	0.001679	28.0835	0.026347	0.002040	12.9156	158.234	-165.057	0.010025	0.369293	-0.608889	-0.610228	-0.001025	12.9156	-0.608829	-1.101545E+8	9.301972E-12	NaN
1040	1.000000	0.378627	7.37522e+06	-52139.1	1055.82	-29750.1	0.000000	0.000000	6.378895	-0.065460	NaN	0.000000	0.001689	0.001715	28.0834	0.045257	0.001938	23.3576	87.556	-163.703	-0.006655	0.377276	-0.600894	-0.602245	-0.065460	23.3576	-0.598792	-8.013487E+7	8.168773E-10	NaN
1040	1.000000	0.386636	7.37522e+06	-52139.1	1055.82	-29750.1	0.000000	0.000000	6.386909	0.061001	NaN	0.000000	0.001618	0.001662	28.0835	0.048311	0.001989	24.2924	-150.656	-167.273	0.091959	0.385306	-0.592885	-0.594215	0.061001	24.2924	-0.594768	-7.053186E+7	-8.648693E-10	NaN
1040	1.000000	0.394607	7.37522e+06	-52139.1	1055.82	-29750.1	0.000000	0.000000	6.394877	-0.000541	NaN	0.000000	0.001630	0.001689	28.0834	0.019088	0.002076	9.195374	-78.868	-168.449	-0.067715	0.393306	-0.584914	-0.586215	-0.000541	9.195374	-0.584870	-5.151351E+7	1.049787E-11	NaN
1040	1.000000	0.402598	7.37522e+06	-52139.1	1055.82	-29750.1	0.000000	0.000000	6.402867	-0.021968	NaN	0.000000	0.001663	0.001656	28.0839	0.057617	0.002045	28.1694	85.951	-168.274	-0.110186	0.401293	-0.576923	-0.578228	-0.021968	28.1694	-0.576338	-3.928057E+7	5.592669E-10	NaN
1040	1.000000	0.410605	7.37522e+06	-52139.1	1055.82	-29750.1	0.000000	0.000000	6.410875	-0.018490	NaN	0.000000	0.001624	0.001632	28.0835	0.106287	0.002033	52.2686	83.877	-165.045	-0.103535	0.409337	-0.568916	-0.570185	-0.018490	52.2686	-0.568650	-3.075975E+7	6.011191E-10	NaN
1040	1.000000	0.418623	7.37522e+06	-52139.1	1055.82	-29750.1	0.000000	0.000000	6.418891	-0.044745	NaN	0.000000	0.001603	0.001644	28.0835	0.022091	0.001981	11.1486	102.488	-166.721	-0.105087	0.417314	-0.560898	-0.562207	-0.044745	11.1486	-0.557888	-2.183511E+7	2.049214E-9	NaN
1040	1.000000	0.426639	7.37522e+06	-52139.1	1055.82	-29750.1	0.000000	0.000000	6.426904	-0.101311	NaN	0.000000	0.001623	0.001672	28.0836	0.070128	0.001988	35.2836	37.2645	-165.562	-0.062780	0.425307	-0.552883	-0.554215	-0.101311	35.2836	-0.550729	-1.738015E+7	5.829144E-9	NaN
1040	1.000000	0.434630	7.37522e+06	-52139.1	1055.82	-29750.1	0.000000	0.000000	6.434900	0.004283	NaN	0.000000	0.001669	0.001688	28.0836	0.068757	0.002144	32.0743	-179.252	-167.024	-0.008383	0.433316	-0.544891	-0.546205	0.004283	32.0743	-0.544991	-1.447291E+7	-2.958976E-10	NaN
1040	1.000000	0.442631	7.37522e+06	-52139.1	1055.82	-29750.1	0.000000	0.000000	6.442901	-0.020735	NaN	0.000000	0.001619	0.001658	28.0839	0.064358	0.002112	30.4789	142.471	-166.984	0.049835	0.441328	-0.536890	-0.538194	-0.020735	30.4789	-0.536380	-1.099346E+7	1.886141E-9	NaN
1040	1.000000	0.450651	7.37522e+06	-52139.1	1055.82	-29750.1	0.000000	0.000000	6.450920	-0.038931	NaN	0.000000	0.001605	0.001671	28.0837	0.036870	0.002054	17.9526	30.9545	-167.602	0.002084	0.449356	-0.528870	-0.530166	-0.038931	17.9526	-0.527244	-8.20892e+06	4.742566E-9	NaN
1040	1.000000	0.458677	7.37522e+06	-52139.1	1055.82	-29750.1	0.000000	0.000000	6.458947	0.006330	NaN	0.000000	0.001616	0.001680	28.0839	0.012112	0.002019	5.999451	-34.379	-166.626	-0.012293	0.457340	-0.520844	-0.522181	0.006330	5.999451	-0.521635	-6.86024e+06	-9.227720E-10	NaN
1040	1.000000	0.466648	7.37522e+06	-52139.1	1055.82	-29750.1	0.000000	0.000000	6.466917	-0.024793	NaN	0.000000	0.001597	0.001679	28.0835	0.106173	0.001923	55.2201	-163.521	-167.883	-0.008538	0.465376	-0.512873	-0.514145	-0.024793	55.2201	-0.512536	-5.1255e+06	4.837174E-9	NaN
1040	1.000000	0.474624	7.37522e+06	-52139.1	1055.82	-29750.1	0.000000	0.000000	6.474895	0.028486	NaN	0.000000	0.001604	0.001717	28.0837	0.141035	0.001896	74.4046	134.132	-171.815	0.014476	0.473363	-0.504897	-0.506158	0.028486	74.4046	-0.505184	-4.04868e+06	-7.035877E-9	NaN
1040	1.000000	0.482659	7.37522e+06	-52139.1	1055.82	-29750.1	0.000000	0.000000	6.482928	-0.009210	NaN	0.000000	0.001633	0.001684	28.0836	0.017575	0.002091	8.404644	-17.2353	-167.063	0.051394	0.481355	-0.496862	-0.498166	-0.009210	8.404644	-0.496041	-3.01831e+06	3.051346E-9	NaN
1040	1.000000	0.490648	7.37522e+06	-52139.1	1055.82	-29750.1	0.000000	0.000000	6.490916	-0.057939	NaN	0.000000	0.001638	0.001674	28.0828	0.076259	0.001976	38.5858	121.813	-168.41	-0.049274	0.489386	-0.488873	-0.490135	-0.057939	38.5858	-0.487746	-2.31151e+06	2.506543E-8	NaN
1040	1.000000	0.498666	7.37522e+06	-52139.1	1055.82	-29750.1	0.000000	0.000000	6.498937	0.032498	NaN	0.000000	0.001610	0.001654	28.0828	0.134084	0.001915	70.0237	-8.414364	-161.737	-0.072616	0.497291	-0.480855	-0.482230	0.032498	70.0237	-0.481203	-1.87227e+06	-1.735747E-8	NaN
1040	1.000000	0.506674	7.37522e+06	-52139.1	1055.82	-29750.1	0.000000	0.000000	6.506943	-0.029921	NaN	0.000000	0.001606	0.001672	28.0825	0.044300	0.001958	22.6306	-44.9444	-163.662	-0.025005	0.505361	-0.472847	-0.474160	-0.029921	22.6306	-0.471856	-1.38493e+06	2.160440E-8	NaN
1040	1.000000	0.514658	7.37522e+06	-52139.1	1055.82	-29750.1	0.000000	0.000000	6.514928	0.017617	NaN	0.000000	0.001605	0.001683	28.0823	0.041632	0.001885	22.0895	-36.9256	-161.775	-0.062487	0.513379	-0.464863	-0.466142	0.017617	22.0895	-0.465462	-1.12649e+06	-1.563912E-8	NaN
1040	1.000000	0.522696	7.37522e+06	-52139.1	1055.82	-29750.1	0.000000	0.000000	6.522962	-0.093767	NaN	0.000000	0.001603	0.001658	28.0822	0.065391	0.002000	32.6882	117.735	-168.825	-0.069646	0.521395	-0.456825	-0.458126	-0.093767	32.6882	-0.454674	-794565	1.180109E-7	NaN
1040	1.000000	0.530694	7.37522e+06	-52139.1	1055.82	-29750.1	0.000000	0.000000	6.530964	-0.006126	NaN	0.000000	0.001630	0.001677	28.0822	0.020562	0.002050	10.0327	145.196	-167.711	0.082591	0.529407	-0.448827	-0.450114	-0.006126	10.0327	-0.448369	-647695	9.458659E-9	NaN
1040	1.000000	0.538684	7.37522e+06	-52139.1	1055.82	-29750.1	0.000000	0.000000	6.538954	-0.006657	NaN	0.000000	0.001665	0.001665	28.0824	0.036527	0.002171	16.8224	-98.9287	-165.311	0.011847	0.537347	-0.440837	-0.442174	-0.006657	16.8224	-0.440540	-502330	1.325279E-8	NaN
1040	1.000000	0.546692	7.37522e+06	-52139.1	1055.82	-29750.1	0.000000	0.000000	6.546961	-0.042585	NaN	0.000000	0.001623	0.001656	28.0825	0.070144	0.001956	35.8653	158.548	-166.408	-0.022212	0.545370	-0.432829	-0.434151	-0.042585	35.8653	-0.431938	-379729	1.121456E-7	NaN
1040	1.000000	0.554681	7.37522e+06	-52139.1	1055.82	-29750.1	0.000000	0.000000	6.554949	-0.052531	NaN	0.000000	0.001636	0.001635	28.0826	0.051218	0.002018	25.3751	85.5404	-164.057	-0.025838	0.553377	-0.424840	-0.426144	-0.052531	25.3751	-0.423287	-286428	1.834022E-7	NaN
1040	1.000000	0.562698	7.37522e+06	-52139.1	1055.82	-29750.1	0.000000	0.000000	6.562966	-0.046264	NaN	0.000000	0.001624	0.001602	28.0822	0.083004	0.001931	42.9777	-12.67	-165.93	0.049648	0.561341	-0.416823	-0.418180	-0.046264	42.9777	-0.416016	-225882	2.048145E-7	NaN
1040	1.000000	0.570691	7.37522e+06	-52139.1	1055.82	-29750.1	0.000000	0.000000	6.570959	-0.042826	NaN	0.000000	0.001613	0.001636	28.0823	0.059138	0.001932	30.6172	18.1205	-169.959	-0.033486	0.569405	-0.408830	-0.410116	-0.042826	30.6172	-0.407781	-172518	2.482417E-7	NaN
1040	1.000000	0.578694	7.37522e+06	-52139.1	1055.82	-29750.1	0.000000	0.000000	6.578964	-0.009682	NaN	0.000000	0.001634	0.001628	28.0822	0.049767	0.002048	24.3028	-70.2796	-167.225	-0.020970	0.577339	-0.400827	-0.402182	-0.009682	24.3028	-0.400528	-135996	7.119431E-8	NaN
1040	1.000000	0.586713	7.37522e+06	-52139.1	1055.82	-29750.1	0.000000	0.000000	6.586980	-0.071299	NaN	0.000000	0.001629	0.001646	28.0821	0.004623	0.002070	2.233401	120.952	-163.774	0.001521	0.585367	-0.392808	-0.394154	-0.071299	2.233401	-0.368865	-47838	1.490435E-6	NaN
1040	1.000000	0.594714	7.37522e+06	-52139.1	1055.82	-29750.1	0.000000	0.000000	6.594981	-0.056861	NaN	0.000000	0.001594	0.001648	28.0823	0.012472	0.002104	5.926796	132.434	-165.435	-0.052227	0.593398	-0.384807	-0.386124	-0.056861	5.926796	-0.377612	-63915.3	8.896289E-7	NaN
1040	1.000000	0.602702	7.37522e+06	-52139.1	1055.82	-29750.1	0.000000	0.000000	6.602974	0.038299	NaN	0.000000	0.001615	0.001646	28.082	0.059404	0.001956	30.3753	-37.7622	-171.132	0.031073	0.601413	-0.376819	-0.378108	0.038299	30.3753	-0.377764	-64237.9	-5.962122E-7	NaN
1040	1.000000	0.610716	7.37522e+06	-52139.1	1055.82	-29750.1	0.000000	0.000000	6.610984	-0.058209	NaN	0.000000	0.001613	0.001611	28.0823	0.045017	0.002019	22.2978	131.936	-166.155	0.000336	0.609435	-0.368805	-0.370086	-0.058209	22.2978	-0.366847	-44739.9	1.301053E-6	NaN
1040	1.000000	0.618720	7.37522e+06	-52139.1	1055.82	-29750.1	0.000000	0.000000	6.618989	-0.017900	NaN	0.000000	0.001641	0.001640	28.0822	0.046718	0.002112	22.1172	19.9808	-168.147	-0.006280	0.617389	-0.360801	-0.362132	-0.017900	22.1172	-0.360194	-35863.4	4.991019E-7	NaN
1040	1.000000	0.626721	7.37522e+06	-52139.1	1055.82	-29750.1	0.000000	0.000000	6.626990	-0.019454	NaN	0.000000	0.001632	0.001631	28.0826	0.038860	0.001854	20.9603	-136.105	-165.243	-0.037336	0.625369	-0.352800	-0.354152	-0.019454	20.9603	-0.352104	-27385.9	7.103537E-7	NaN
1040	1.000000	0.634733	7.37522e+06	-52139.1	1055.82	-29750.1	0.000000	0.000000	6.635002	-0.013260	NaN	0.000000	0.001591	0.001630	28.0835	0.065116	0.002043	31.8733	27.2119	-163.62	-0.010727	0.633474	-0.344789	-0.346047	-0.013260	31.8733	-0.344477	-21219.9	6.248979E-7	NaN
1040	1.000000	0.642689	7.37522e+06	-52139.1	1055.82	-29750.1	0.000000	0.000000	6.642959	-0.013999	NaN	0.000000	0.001630	0.001631	28.0834	0.087203	0.002119	41.1522	68.0159	-167.944	0.044536	0.641474	-0.336832	-0.338047	-0.013999	41.1522	-0.336577	-16278.5	8.599357E-7	NaN
1040	1.000000	0.650727	7.37522e+06	-52139.1	1055.82	-29750.1	0.000000	0.000000	6.650998	0.026975	NaN	0.000000	0.001665	0.001633	28.0839	0.093005	0.001991	46.7068	124.919	-170.11	-0.037135	0.649399	-0.328794	-0.330122	0.026975	46.7068	-0.329227	-12709.6	-2.122381E-6	NaN
1040	1.000000	0.658716	7.37522e+06	-52139.1	1055.82	-29750.1	0.000000	0.000000	6.658986	-0.009963	NaN	0.000000	0.001597	0.001687	28.0833	0.093711	0.001962	47.7592	51.5089	-165.796	-0.030571	0.657445	-0.320805	-0.322076	-0.009963	47.7592	-0.320648	-9509.94	1.047676E-6	NaN
1040	1.000000	0.666746	7.37522e+06	-52139.1	1055.82	-29750.1	0.000000	0.000000	6.667014	-0.048790	NaN	0.000000	0.001640	0.001598	28.0833	0.074165	0.002016	36.7939	132.588	-168.335	-0.024838	0.665434	-0.312775	-0.314087	-0.048790	36.7939	-0.311781	-7037.18	6.933128E-6	NaN
1040	1.000000	0.674747	7.37522e+06	-52139.1	1055.82	-29750.1	0.000000	0.000000	6.675017	-0.008116	NaN	0.000000	0.001598	0.001674	28.0835	0.045373	0.001951	23.2528	74.1986	-166.382	0.005176	0.673430	-0.304774	-0.306091	-0.008116	23.2528	-0.304512	-5491.83	1.477790E-6	NaN
1040	1.000000	0.682731	7.37522e+06	-52139.1	1055.82	-29750.1	0.000000	0.000000	6.683000	-0.032650	NaN	0.000000	0.001661	0.001660	28.0845	0.157560	0.001985	79.3571	117.987	-164.05	-0.065345	0.681434	-0.296790	-0.298087	-0.032650	79.3571	-0.296481	-4170.61	7.828572E-6	NaN
1040	1.000000	0.690720	7.37522e+06	-52139.1	1055.82	-29750.1	0.000000	0.000000	6.690990	0.002190	NaN	0.000000	0.001620	0.001685	28.0838	0.122895	0.001980	62.0729	-104.867	-164.943	-0.037559	0.689431	-0.288801	-0.290091	0.002190	62.0729	-0.288827	-3204.26	-6.834115E-7	NaN
1040	1.000000	0.698762	7.37522e+06	-52139.1	1055.82	-29750.1	0.000000	0.000000	6.699032	-0.021152	NaN	0.000000	0.001617	0.001700	28.0835	0.033402	0.002000	16.6995	-75.1841	-164.876	0.012413	0.697434	-0.280759	-0.282087	-0.021152	16.6995	-0.279809	-2344.69	9.021118E-6	NaN
1040	1.000000	0.706768	7.37522e+06	-52139.1	1055.82	-29750.1	0.000000	0.000000	6.707035	-0.075419	NaN	0.000000	0.001663	0.001664	28.0836	0.059579	0.002078	28.6654	53.6403	-167.929	-0.064599	0.705450	-0.272753	-0.274071	-0.075419	28.6654	-0.270780	-1711.58	4.406369E-5	NaN
1040	1.000000	0.714742	7.37522e+06	-52139.1	1055.82	-29750.1	0.000000	0.000000	6.715012	-0.017867	NaN	0.000000	0.001647	0.001654	28.0835	0.043458	0.002105	20.6411	-56.3311	-166.578	0.015831	0.713430	-0.264779	-0.266091	-0.017867	20.6411	-0.264130	-1355.5	1.318130E-5	NaN
1040	1.000000	0.722773	7.37522e+06	-52139.1	1055.82	-29750.1	0.000000	0.000000	6.723047	0.093851	NaN	0.000000	0.001637	0.001659	28.0834	0.064021	0.001904	33.6182	88.329	-167.656	0.113644	0.721426	-0.256748	-0.258095	0.093851	33.6182	-0.258842	-1125	-8.342305E-5	NaN
1040	1.000000	0.730763	7.37522e+06	-52139.1	1055.82	-29750.1	0.000000	0.000000	6.731029	-0.097692	NaN	0.000000	0.001640	0.001634	28.0835	0.049107	0.001919	25.5833	-10.5393	-166.964	-0.109413	0.729495	-0.248758	-0.250026	-0.097692	25.5833	-0.245894	-710.142	0.000138	NaN
1040	1.000000	0.738780	7.37522e+06	-52139.1	1055.82	-29750.1	0.000000	0.000000	6.739050	0.012596	NaN	0.000000	0.001637	0.001634	28.0835	0.102447	0.002139	47.9043	-96.5409	-165.805	0.046515	0.737476	-0.240741	-0.242045	0.012596	47.9043	-0.240939	-594.576	-2.118498E-5	NaN
1040	1.000000	0.746755	7.37522e+06	-52139.1	1055.82	-29750.1	0.000000	0.000000	6.747024	-0.037562	NaN	0.000000	0.001632	0.001635	28.0839	0.093408	0.001868	49.9915	-41.7641	-168.981	-0.038808	0.745504	-0.232766	-0.234017	-0.037562	49.9915	-0.232202	-433.757	8.659757E-5	NaN
1040	1.000000	0.754747	7.37522e+06	-52139.1	1055.82	-29750.1	0.000000	0.000000	6.755016	-0.031824	NaN	0.000000	0.001667	0.001652	28.0836	0.099405	0.001862	53.3745	-30.5244	-166.41	-0.191090	0.753468	-0.224774	-0.226054	-0.031824	53.3745	-0.224327	-325.568	9.774779E-5	NaN
1040	1.000000	0.762757	7.37522e+06	-52139.1	1055.82	-29750.1	0.000000	0.000000	6.763028	0.036375	NaN	0.000000	0.001676	0.001614	28.0831	0.050053	0.001872	26.7391	-50.5474	-163.223	0.006348	0.761465	-0.216764	-0.218056	0.036375	26.7391	-0.217785	-255.989	-0.000142	NaN
1040	1.000000	0.770777	7.37522e+06	-52139.1	1055.82	-29750.1	0.000000	0.000000	6.771047	-0.013500	NaN	0.000000	0.001647	0.001698	28.0824	0.127558	0.002085	61.1753	57.4807	-167.767	0.032953	0.769466	-0.208744	-0.210055	-0.013500	61.1753	-0.208579	-181.877	7.422439E-5	NaN
1040	1.000000	0.778797	7.37522e+06	-52139.1	1055.82	-29750.1	0.000000	0.000000	6.779066	-0.009624	NaN	0.000000	0.001650	0.001656	28.0822	0.065715	0.001995	32.9386	-43.3997	-167.95	-0.023558	0.777456	-0.200724	-0.202065	-0.009624	32.9386	-0.200505	-134.276	7.167557E-5	NaN
1040	1.000000	0.786776	7.37522e+06	-52139.1	1055.82	-29750.1	0.000000	0.000000	6.787048	0.035023	NaN	0.000000	0.001676	0.001662	28.0824	0.059836	0.001968	30.403	60.4473	-166.243	0.023257	0.785491	-0.192745	-0.194031	0.035023	30.403	-0.193609	-103.308	-0.000339	NaN
1040	1.000000	0.794764	7.37522e+06	-52139.1	1055.82	-29750.1	0.000000	0.000000	6.795034	0.003526	NaN	0.000000	0.001658	0.001640	28.0824	0.091314	0.001968	46.3918	111.463	-167.934	-0.006300	0.793459	-0.184757	-0.186062	0.003526	46.3918	-0.184814	-73.6199	-4.789937E-5	NaN
1040	1.000000	0.802798	7.37522e+06	-52139.1	1055.82	-29750.1	0.000000	0.000000	6.803066	-0.038330	NaN	0.000000	0.001662	0.001653	28.0824	0.066477	0.001970	33.7436	126.169	-166.072	-0.029566	0.801480	-0.176723	-0.178042	-0.038330	33.7436	-0.175872	-51.8732	0.000739	NaN
1040	1.000000	0.810790	7.37522e+06	-52139.1	1055.82	-29750.1	0.000000	0.000000	6.811059	-0.027135	NaN	0.000000	0.001664	0.001713	28.0822	0.083965	0.001964	42.7561	148.748	-163.255	-0.087174	0.809511	-0.168731	-0.170010	-0.027135	42.7561	-0.168255	-38.3048	0.000708	NaN
1040	1.000000	0.818801	7.37522e+06	-52139.1	1055.82	-29750.1	0.000000	0.000000	6.819071	-0.006091	NaN	0.000000	0.001681	0.001685	28.0823	0.030795	0.002027	15.1931	-113.53	-161.857	0.016905	0.817505	-0.160720	-0.162016	-0.006091	15.1931	-0.160419	-27.8888	0.000218	NaN
1040	1.000000	0.826798	7.37522e+06	-52139.1	1055.82	-29750.1	0.000000	0.000000	6.827065	-0.082719	NaN	0.000000	0.001674	0.001701	28.0823	0.091066	0.001860	48.9665	-159.758	-166.018	-0.072724	0.825491	-0.152723	-0.154030	-0.082719	48.9665	-0.151456	-19.2534	0.004296	NaN
1040	1.000000	0.834807	7.37522e+06	-52139.1	1055.82	-29750.1	0.000000	0.000000	6.835076	-0.031815	NaN	0.000000	0.001656	0.001710	28.0823	0.126449	0.001904	66.4264	72.4659	-166.101	-0.060769	0.833503	-0.144714	-0.146018	-0.031815	66.4264	-0.144355	-14.2631	0.002231	NaN
1040	1.000000	0.842796	7.37522e+06	-52139.1	1055.82	-29750.1	0.000000	0.000000	6.843066	-0.006604	NaN	0.000000	0.001648	0.001668	28.0826	0.018381	0.001996	9.207995	-163.166	-165.57	-0.030658	0.841499	-0.136725	-0.138022	-0.006604	9.207995	-0.136187	-10.021	0.000659	NaN
1040	1.000000	0.850802	7.37522e+06	-52139.1	1055.82	-29750.1	0.000000	0.000000	6.851070	-0.046165	NaN	0.000000	0.001690	0.001674	28.0824	0.114812	0.001941	59.158	142.407	-167.642	-0.088997	0.849482	-0.128719	-0.130039	-0.046165	59.158	-0.128134	-7.008798	0.006587	NaN
1040	1.000000	0.858808	7.37522e+06	-52139.1	1055.82	-29750.1	0.000000	0.000000	6.859076	-0.053733	NaN	0.000000	0.001671	0.001686	28.0825	0.046055	0.002073	22.2195	109.836	-167.667	-0.064859	0.857481	-0.120713	-0.122041	-0.053733	22.2195	-0.118899	-4.590043	0.011706	NaN
1040	1.000000	0.866792	7.37522e+06	-52139.1	1055.82	-29750.1	0.000000	0.000000	6.867060	-0.055156	NaN	0.000000	0.001677	0.001628	28.0823	0.065098	0.002071	31.432	-16.1059	-166.329	-0.060682	0.865509	-0.112729	-0.114012	-0.055156	31.432	-0.111413	-3.217932	0.017140	NaN
1040	1.000000	0.874835	7.37522e+06	-52139.1	1055.82	-29750.1	0.000000	0.000000	6.875104	-0.024335	NaN	0.000000	0.001675	0.001646	28.0825	0.052710	0.001961	26.8741	-91.119	-167.647	0.021066	0.873545	-0.104686	-0.105976	-0.024335	26.8741	-0.104007	-2.236988	0.010879	NaN
1040	1.000000	0.882827	7.37522e+06	-52139.1	1055.82	-29750.1	0.000000	0.000000	6.883095	-0.047319	NaN	0.000000	0.001665	0.001634	28.0825	0.033264	0.001893	17.5722	160.903	-164.697	0.015317	0.881494	-0.096694	-0.098027	-0.047319	17.5722	-0.094675	-1.386733	0.034122	NaN
1040	1.000000	0.890798	7.37522e+06	-52139.1	1055.82	-29750.1	0.000000	0.000000	6.891065	-0.054793	NaN	0.000000	0.001655	0.001672	28.0823	0.037543	0.001957	19.1824	5.731071	-163.815	-0.094684	0.889511	-0.088724	-0.090010	-0.054793	19.1824	-0.086581	-0.896929	0.061089	NaN
1040	1.000000	0.898818	7.37522e+06	-52139.1	1055.82	-29750.1	0.000000	0.000000	6.899085	-0.076882	NaN	0.000000	0.001654	0.001641	28.0828	0.056952	0.002022	28.162	15.2694	-165.688	-0.135920	0.897510	-0.080703	-0.082011	-0.076882	28.162	-0.078655	-0.572673	0.134251	NaN
1040	1.000000	0.906794	7.37522e+06	-52139.1	1055.82	-29750.1	0.000000	0.000000	6.907063	-0.010726	NaN	0.000000	0.001619	0.001617	28.0836	0.068908	0.001923	35.8428	43.8264	-168.257	-0.056119	0.905536	-0.072727	-0.073985	-0.010726	35.8428	-0.072503	-0.397520	0.026982	NaN
1040	1.000000	0.914826	7.37522e+06	-52139.1	1055.82	-29750.1	0.000000	0.000000	6.915097	0.022247	NaN	0.000000	0.001678	0.001651	28.0839	0.119692	0.002036	58.7897	104.803	-167.597	0.158296	0.913550	-0.064695	-0.065971	0.022247	58.7897	-0.064979	-0.248875	-0.089392	NaN
1040	1.000000	0.922834	7.37522e+06	-52139.1	1055.82	-29750.1	0.000000	0.000000	6.923106	0.033002	NaN	0.000000	0.001618	0.001647	28.0837	0.077665	0.002069	37.5454	-33.1124	-167.364	0.018876	0.921511	-0.056687	-0.058010	0.033002	37.5454	-0.057346	-0.150912	-0.218685	NaN
1040	1.000000	0.930847	7.37522e+06	-52139.1	1055.82	-29750.1	0.000000	0.000000	6.931115	-0.041855	NaN	0.000000	0.001662	0.001656	28.0837	0.059013	0.001995	29.5751	133.325	-165.841	-0.085832	0.929492	-0.048674	-0.050029	-0.041855	29.5751	-0.047613	-0.077227	0.541970	NaN
1040	1.000000	0.938854	7.37522e+06	-52139.1	1055.82	-29750.1	0.000000	0.000000	6.939120	-0.079315	NaN	0.000000	0.001649	0.001630	28.0839	0.046869	0.001911	24.5319	-57.5328	-167.923	-0.060530	0.937573	-0.040668	-0.041948	-0.079315	24.5319	-0.038243	-0.040010	1.982371	NaN
1040	1.000000	0.946872	7.37522e+06	-52139.1	1055.82	-29750.1	0.000000	0.000000	6.947140	-0.045011	NaN	0.000000	0.001654	0.001670	28.0836	0.071067	0.001975	35.9813	-77.292	-168.137	-0.058920	0.945575	-0.032649	-0.033946	-0.045011	35.9813	-0.031711	-0.025714	1.750451	NaN
1040	1.000000	0.954832	7.37522e+06	-52139.1	1055.82	-29750.1	0.000000	0.000000	6.955103	0.001069	NaN	0.000000	0.001684	0.001623	28.084	0.084403	0.002021	41.7587	-37.7293	-169.566	-0.049570	0.953540	-0.024689	-0.025982	0.001069	41.7587	-0.024708	-0.016577	-0.064508	NaN
1040	1.000000	0.962878	7.37522e+06	-52139.1	1055.82	-29750.1	0.000000	0.000000	6.963148	-0.009611	NaN	0.000000	0.001630	0.001619	28.0839	0.031726	0.002151	14.7477	113.135	-164.25	-0.101677	0.961632	-0.016643	-0.017889	-0.009611	14.7477	-0.016154	-0.009978	0.963198	NaN
1040	1.000000	0.970861	7.37522e+06	-52139.1	1055.82	-29750.1	0.000000	0.000000	6.971128	-0.064783	NaN	0.000000	0.001627	0.001661	28.0839	0.102805	0.001839	55.9119	-134.949	-163.95	-0.016749	0.969514	-0.008660	-0.010007	-0.064783	55.9119	-0.007791	-0.005109	12.6801	NaN
1040	1.000000	0.978794	7.37522e+06	-52139.1	1055.82	-29750.1	0.000000	0.000000	6.979197	3.216361	NaN	0.000000	0.001645	0.001662	28.0838	3.961221	0.001905	2079.86	11.7858	-172.336	1.657258	0.977518	-0.000727	-0.002003	3.216361	2079.86	-0.001887	-0.001361	-2363.9	NaN
1040	2.000000	0.984394	7.37522e+06	-52139.1	1055.82	-29750.1	0.000000	0.000000	6.985063	9.685545	NaN	0.000000	0.001618	0.001654	28.0836	9.240068	0.001717	5380.51	4.835562	-170.73	9.005710	0.984101	0.004873	0.004580	9.685545	5380.51	0.003523	0.002825	3428.57	92489.2
1040	2.000000	0.986412	7.37522e+06	-52139.1	1055.82	-29750.1	0.000000	0.000000	6.987148	11.3084	NaN	0.000000	0.001612	0.001625	28.0838	10.3748	0.001667	6224.35	2.484123	-168.952	11.472	0.986095	0.006891	0.006574	11.3084	6224.35	0.005529	0.004621	2447.18	83656.5
1040	2.000000	0.988355	7.37522e+06	-52139.1	1055.82	-29750.1	0.000000	0.000000	6.989174	13.3443	NaN	0.000000	0.001621	0.001649	28.0838	12.4267	0.001717	7237.46	8.419428	-174.043	13.1805	0.988073	0.008834	0.008552	13.3443	7237.46	0.007451	0.006484	2058.02	82117.4
1040	2.000000	0.990375	7.37522e+06	-52139.1	1055.82	-29750.1	0.000000	0.000000	6.991331	16.6828	NaN	0.000000	0.001604	0.001625	28.0838	14.954	0.001763	8483.29	11.0579	-179.765	16.821	0.990022	0.010854	0.010501	16.6828	8483.29	0.009379	0.008499	1962.83	84070.6
1040	2.000000	0.992326	7.37522e+06	-52139.1	1055.82	-29750.1	0.000000	0.000000	6.993457	20.9335	NaN	0.000000	0.001630	0.001628	28.0845	17.248	0.001834	9402.55	8.237566	-177.227	19.8718	0.992042	0.012805	0.012521	20.9335	9402.55	0.011135	0.010470	1999.32	83953.4
1040	2.000000	0.994350	7.37522e+06	-52139.1	1055.82	-29750.1	0.000000	0.000000	6.995699	26.2297	NaN	0.000000	0.001610	0.001663	28.0836	19.392	0.001815	10684	8.860766	-179.083	25.261	0.994013	0.014829	0.014492	26.2297	10684	0.012988	0.012695	2066.13	86634.3
1040	2.000000	0.996339	7.37522e+06	-52139.1	1055.82	-29750.1	0.000000	0.000000	6.997709	26.7331	NaN	0.000000	0.001637	0.001665	28.0838	20.6162	0.001813	11369.3	6.545462	-176.86	26.9418	0.996021	0.016818	0.016500	26.7331	11369.3	0.015055	0.015358	1740.61	83817.5
1040	2.000000	0.998318	7.37522e+06	-52139.1	1055.82	-29750.1	0.000000	0.000000	6.999925	32.5237	NaN	0.000000	0.001644	0.001669	28.0825	23.0994	0.001755	13160.8	5.678724	-178.294	31.6486	0.997966	0.018796	0.018445	32.5237	13160.8	0.016943	0.017964	1810.46	89712.2
1040	2.000000	1.000365	7.37522e+06	-52139.1	1055.82	-29750.1	0.000000	0.000000	7.002073	34.9509	NaN	0.000000	0.001658	0.001661	28.0824	24.7949	0.001750	14165.2	5.837261	-178.711	35.9518	1.000036	0.020844	0.020515	34.9509	14165.2	0.018994	0.020986	1665.47	89337.7
1040	2.000000	1.002290	7.37522e+06	-52139.1	1055.82	-29750.1	0.000000	0.000000	7.004188	39.5777	NaN	0.000000	0.001624	0.001619	28.0826	27.2723	0.001899	14358.8	8.485142	178.187	38.2819	1.002001	0.022769	0.022480	39.5777	14358.8	0.020702	0.023657	1673	85293.1
1040	2.000000	1.004265	7.37522e+06	-52139.1	1055.82	-29750.1	0.000000	0.000000	7.006406	45.4868	NaN	0.000000	0.001619	0.001661	28.0824	28.7715	0.001757	16370.9	6.548338	178.362	42.6728	1.003970	0.024744	0.024449	45.4868	16370.9	0.022660	0.026896	1691.21	91201.3
1040	2.000000	1.006297	7.37522e+06	-52139.1	1055.82	-29750.1	0.000000	0.000000	7.008616	49.8233	NaN	0.000000	0.001608	0.001679	28.0823	29.756	0.001729	17206.4	3.533148	-179.423	48.3844	1.005923	0.026776	0.026402	49.8233	17206.4	0.024604	0.030300	1644.35	90312
1040	2.000000	1.008336	7.37522e+06	-52139.1	1055.82	-29750.1	0.000000	0.000000	7.010957	57.1744	NaN	0.000000	0.001595	0.001661	28.0823	32.9232	0.001774	18557.6	6.417903	177.966	57.856	1.008005	0.028815	0.028484	57.1744	18557.6	0.026504	0.033808	1691.13	92211.1
1040	2.000000	1.010297	7.37522e+06	-52139.1	1055.82	-29750.1	0.000000	0.000000	7.013216	64.4072	NaN	0.000000	0.001627	0.001663	28.0824	33.4235	0.001726	19369.1	2.091926	-178.282	64.639	1.009929	0.030776	0.030408	64.4072	19369.1	0.028282	0.037257	1728.71	91680.7
1040	2.000000	1.012292	7.37522e+06	-52139.1	1055.82	-29750.1	0.000000	0.000000	7.015318	67.0086	NaN	0.000000	0.001639	0.001663	28.0827	37.2718	0.001874	19887.1	5.077158	178.252	66.8136	1.012018	0.032771	0.032497	67.0086	19887.1	0.030244	0.041251	1624.43	89460.2
1040	2.000000	1.014332	7.37522e+06	-52139.1	1055.82	-29750.1	0.000000	0.000000	7.017678	74.8003	NaN	0.000000	0.001631	0.001638	28.0827	38.606	0.001761	21927.5	3.414152	179.45	75.4509	1.014021	0.034811	0.034500	74.8003	21927.5	0.032252	0.045542	1642.45	93876.7
1040	2.000000	1.016312	7.37522e+06	-52139.1	1055.82	-29750.1	0.000000	0.000000	7.020075	84.9305	NaN	0.000000	0.001610	0.001652	28.0825	39.8094	0.001699	23434.1	0.782047	-178.813	86.1769	1.015986	0.036790	0.036464	84.9305	23434.1	0.034072	0.049608	1712.04	96126.9
1040	2.000000	1.018238	7.37522e+06	-52139.1	1055.82	-29750.1	0.000000	0.000000	7.022343	93.257	NaN	0.000000	0.001645	0.001657	28.0824	42.7888	0.001742	24556.7	2.579666	178.233	89.493	1.017932	0.038717	0.038411	93.257	24556.7	0.035868	0.053787	1733.82	96739.6
1040	2.000000	1.020268	7.37522e+06	-52139.1	1055.82	-29750.1	0.000000	0.000000	7.024750	102.395	NaN	0.000000	0.001614	0.001653	28.0824	44.1436	0.001706	25883	9.054280	172.807	102.643	1.019917	0.040747	0.040396	102.395	25883	0.037780	0.058418	1752.81	97840
1040	2.000000	1.022268	7.37522e+06	-52139.1	1055.82	-29750.1	0.000000	0.000000	7.027119	111.39	NaN	0.000000	0.001618	0.001658	28.0829	46.0812	0.001837	25087.7	4.851995	176.214	111.062	1.021957	0.042747	0.042436	111.39	25087.7	0.039417	0.062530	1781.39	91662.3
1040	2.000000	1.024341	7.37522e+06	-52139.1	1055.82	-29750.1	0.000000	0.000000	7.029338	114.926	NaN	0.000000	0.001655	0.001644	28.0826	49.1853	0.001822	26993.6	9.284186	171.383	116.361	1.024051	0.044820	0.044529	114.926	26993.6	0.041627	0.068301	1682.64	94366.9
1040	2.000000	1.026270	7.37522e+06	-52139.1	1055.82	-29750.1	0.000000	0.000000	7.031993	132.595	NaN	0.000000	0.001611	0.001657	28.0822	49.1598	0.001744	28186.8	3.689618	176.277	131.367	1.025959	0.046749	0.046437	132.595	28186.8	0.043221	0.072617	1825.95	95565
1040	2.000000	1.028281	7.37522e+06	-52139.1	1055.82	-29750.1	0.000000	0.000000	7.033957	131.445	NaN	0.000000	0.001651	0.001647	28.0822	52.8569	0.001801	29346.6	6.168755	174.309	131.504	1.027944	0.048760	0.048423	131.445	29346.6	0.045401	0.078729	1669.59	95557.3
1040	2.000000	1.030210	7.37522e+06	-52139.1	1055.82	-29750.1	0.000000	0.000000	7.036528	147.037	NaN	0.000000	0.001634	0.001668	28.0823	52.8038	0.001714	30798.8	-1.124638	-179.464	143.207	1.029888	0.050689	0.050366	147.037	30798.8	0.047109	0.083686	1757.01	97270.3
1040	2.000000	1.032381	7.37522e+06	-52139.1	1055.82	-29750.1	0.000000	0.000000	7.038880	151.477	NaN	0.000000	0.001617	0.001694	28.0839	56.4206	0.001734	32533	3.865696	175.916	158.705	1.032033	0.052859	0.052512	151.477	32533	0.049367	0.090468	1674.38	98821.4
1040	2.000000	1.034276	7.37522e+06	-52139.1	1055.82	-29750.1	0.000000	0.000000	7.041499	169.069	NaN	0.000000	0.001629	0.001680	28.0839	58.4038	0.001787	32687.9	4.680320	174.934	166.145	1.033843	0.054755	0.054322	169.069	32687.9	0.050876	0.095139	1777.07	96823.5
1040	2.000000	1.036355	7.37522e+06	-52139.1	1055.82	-29750.1	0.000000	0.000000	7.043800	174.469	NaN	0.000000	0.001616	0.001663	28.0837	60.9023	0.001733	35134	5.290289	173.621	179.923	1.035946	0.056834	0.056425	174.469	35134	0.053109	0.102266	1706.03	100377
1040	2.000000	1.038200	7.37522e+06	-52139.1	1055.82	-29750.1	0.000000	0.000000	7.046420	193.307	NaN	0.000000	0.001605	0.001703	28.0837	62.5256	0.001783	35068.5	4.418246	174.05	190.712	1.037935	0.058679	0.058414	193.307	35068.5	0.054545	0.106977	1807	97959.1
1040	2.000000	1.040273	7.37522e+06	-52139.1	1055.82	-29750.1	0.000000	0.000000	7.048731	199.077	NaN	0.000000	0.001649	0.001656	28.0836	65.2808	0.001954	33415.3	9.082054	169.728	199.548	1.039955	0.060752	0.060434	199.077	33415.3	0.056284	0.112820	1764.55	90891.9
1040	2.000000	1.042263	7.37522e+06	-52139.1	1055.82	-29750.1	0.000000	0.000000	7.051249	211.941	NaN	0.000000	0.001623	0.001710	28.0836	66.0316	0.001770	37299.2	5.607428	171.941	211.504	1.041859	0.062742	0.062338	211.941	37299.2	0.058480	0.120414	1760.1	98205.1
1040	2.000000	1.044362	7.37522e+06	-52139.1	1055.82	-29750.1	0.000000	0.000000	7.053631	218.802	NaN	0.000000	0.001624	0.001674	28.0836	69.1784	0.001799	38448	5.736972	171.915	223.051	1.044088	0.064841	0.064566	218.802	38448	0.060573	0.127871	1711.11	98233.7
1040	2.000000	1.046191	7.37522e+06	-52139.1	1055.82	-29750.1	0.000000	0.000000	7.056334	240.055	NaN	0.000000	0.001638	0.001642	28.0838	68.9168	0.001689	40805.1	1.451285	175.823	236.538	1.045915	0.066670	0.066394	240.055	40805.1	0.062258	0.134028	1791.07	101833
1040	2.000000	1.048228	7.37522e+06	-52139.1	1055.82	-29750.1	0.000000	0.000000	7.058854	251.824	NaN	0.000000	0.001621	0.001634	28.0834	72.1881	0.001781	40523.1	2.023482	175.576	249.532	1.047890	0.068707	0.068369	251.824	40523.1	0.064046	0.140714	1789.61	98697.6
1040	2.000000	1.050198	7.37522e+06	-52139.1	1055.82	-29750.1	0.000000	0.000000	7.061340	264.345	NaN	0.000000	0.001626	0.001652	28.0834	71.8617	0.001761	40797.8	0.552762	177.14	260.966	1.049890	0.070677	0.070369	264.345	40797.8	0.065817	0.147490	1792.29	97057.5
1040	2.000000	1.052217	7.37522e+06	-52139.1	1055.82	-29750.1	0.000000	0.000000	7.063993	279.775	NaN	0.000000	0.001604	0.001619	28.0836	74.851	0.001806	41452.8	2.269714	175.141	276.772	1.051859	0.072696	0.072338	279.775	41452.8	0.067634	0.154595	1809.73	96322.7
1040	2.000000	1.054288	7.37522e+06	-52139.1	1055.82	-29750.1	0.000000	0.000000	7.066667	294.441	NaN	0.000000	0.001616	0.001664	28.0835	77.1376	0.001862	41418	4.965912	173.138	294.684	1.053912	0.074767	0.074391	294.441	41418	0.069435	0.161796	1819.82	94075.7
1040	2.000000	1.056180	7.37522e+06	-52139.1	1055.82	-29750.1	0.000000	0.000000	7.068887	302.405	NaN	0.000000	0.001646	0.001643	28.0836	78.8272	0.001823	43240	5.102655	171.95	299.821	1.055868	0.076659	0.076347	302.405	43240	0.071414	0.169887	1780.04	95847.2
1040	2.000000	1.058183	7.37522e+06	-52139.1	1055.82	-29750.1	0.000000	0.000000	7.071407	314.96	NaN	0.000000	0.001650	0.001684	28.0836	80.0327	0.001740	45996.9	-0.732577	177.325	311.03	1.057883	0.078662	0.078362	314.96	45996.9	0.073527	0.178730	1762.22	99403.8
1040	2.000000	1.060289	7.37522e+06	-52139.1	1055.82	-29750.1	0.000000	0.000000	7.074022	327.349	NaN	0.000000	0.001612	0.001677	28.0836	82.4618	0.001820	45311.5	5.615612	170.518	329.276	1.059927	0.080768	0.080406	327.349	45311.5	0.075350	0.186529	1754.95	95853.7
1040	2.000000	1.062194	7.37522e+06	-52139.1	1055.82	-29750.1	0.000000	0.000000	7.076632	344.494	NaN	0.000000	0.001595	0.001681	28.0837	85.042	0.001848	46008.5	3.227165	173.475	343	1.061802	0.082673	0.082281	344.494	46008.5	0.077057	0.193975	1775.97	95441.8
1040	2.000000	1.064274	7.37522e+06	-52139.1	1055.82	-29750.1	0.000000	0.000000	7.079434	362.033	NaN	0.000000	0.001601	0.001678	28.0835	87.5717	0.001841	47556.4	8.378156	168.3	360.709	1.063843	0.084753	0.084322	362.033	47556.4	0.079044	0.202809	1785.09	96480.3
1040	2.000000	1.066230	7.37522e+06	-52139.1	1055.82	-29750.1	0.000000	0.000000	7.081959	375.874	NaN	0.000000	0.001601	0.001682	28.0824	88.8834	0.001831	48556.3	7.888499	167.913	376.257	1.065892	0.086709	0.086371	375.874	48556.3	0.080904	0.211248	1779.3	96521.2
1040	2.000000	1.068280	7.37522e+06	-52139.1	1055.82	-29750.1	0.000000	0.000000	7.084204	380.64	NaN	0.000000	0.001642	0.001646	28.0825	88.8019	0.001653	53720.4	0.399174	174.659	382.959	1.068098	0.088759	0.088577	380.64	53720.4	0.083444	0.223037	1706.62	103926
1040	2.000000	1.070196	7.37522e+06	-52139.1	1055.82	-29750.1	0.000000	0.000000	7.087280	408.832	NaN	0.000000	0.001664	0.001640	28.0821	90.2489	0.001823	49492.3	4.786978	171.656	408.521	1.069806	0.090675	0.090285	408.832	49492.3	0.084479	0.227925	1793.72	94714.2
1040	2.000000	1.072175	7.37522e+06	-52139.1	1055.82	-29750.1	0.000000	0.000000	7.089859	423.429	NaN	0.000000	0.001664	0.001656	28.0824	93.5013	0.001796	52051.5	3.738092	171.826	418.949	1.071839	0.092654	0.092318	423.429	52051.5	0.086553	0.237864	1780.13	97508.4
1040	2.000000	1.074207	7.37523e+06	-52139.1	1055.82	-29750.1	0.000000	0.000000	7.092449	436.989	NaN	0.000000	0.001665	0.001634	28.0823	96.3846	0.001888	51053.6	9.743810	166.753	434.169	1.073853	0.094685	0.094331	436.989	51053.6	0.088266	0.246227	1774.74	94000.8
1040	2.000000	1.076196	7.37523e+06	-52139.1	1055.82	-29750.1	0.000000	0.000000	7.095161	454.565	NaN	0.000000	0.001663	0.001676	28.0824	96.4319	0.001675	57564.3	4.927186	170.103	452.023	1.075737	0.096675	0.096216	454.565	57564.3	0.090753	0.258607	1757.75	103421
1040	2.000000	1.078263	7.37523e+06	-52139.1	1055.82	-29750.1	0.000000	0.000000	7.097127	452.102	NaN	0.000000	0.001645	0.001660	28.0827	99.9976	0.001869	53511.6	4.796261	170.387	454.819	1.078099	0.098742	0.098577	452.102	53511.6	0.092406	0.266991	1693.33	94617.9
1040	2.000000	1.080180	7.37523e+06	-52139.1	1055.82	-29750.1	0.000000	0.000000	7.100186	479.873	NaN	0.000000	0.001652	0.001639	28.0822	100.148	0.001785	56103.4	2.761474	172.729	478.112	1.079852	0.100659	0.100331	479.873	56103.4	0.094244	0.276462	1735.76	97486.5
1040	2.000000	1.082208	7.37523e+06	-52139.1	1055.82	-29750.1	0.000000	0.000000	7.103100	501.429	NaN	0.000000	0.001647	0.001640	28.0823	103.316	0.001823	56687.8	7.270842	168.203	501.536	1.081825	0.102687	0.102304	501.429	56687.8	0.096053	0.285933	1753.66	96856.9