File: remote_trans/data/nanoindenter/0828-1/data/Data_2025-08-06,11h17m57s/2025-07-22_16-23-58_1_1065.txt
2025-07-22, 16:23:58, 1
Index	Phase	Displacement	Time	Pos X	Pos Y	Pos Z	Rot A	Rot B	Piezo Z	Force A	Force B	Gripper	Voltage A	Voltage B	Temperature	Amplitude force	Amplitude pos	Stiffness	Phase shift	Phase excitation	Force A raw	Displacement raw	HMax	HMax raw	Real Force	Real Stiffness	Contact Depth	Area	Hardness	Reduced Mod.
[#]	[#]	[um]	[s]	[um]	[um]	[um]	[m°]	[m°]	[um]	[uN]	[uN]	[V]	[V]	[V]	[°C]	[uN]	[um]	[N/m]	[°]	[°]	[uN]	[um]	[um]	[um]	[uN]	[N/m]	[um]	[um^2]	[MPa]	[MPa]
1065	1.000000	0.002173	7.37546e+06	-53389.1	1055.82	-29746.3	0.000000	0.000000	6.002763	-0.086489	NaN	0.000000	0.001596	0.001682	28.0832	0.026091	0.000963	27.0885	150.875	-169.435	-0.013891	0.000920	-1.166457	-1.167710	-0.086489	27.0885	-1.164062	-3.625023E+15	2.385895E-17	NaN
1065	1.000000	0.012281	7.37546e+06	-53389.1	1055.82	-29746.3	0.000000	0.000000	6.012874	-0.005246	NaN	0.000000	0.001549	0.001679	28.0828	0.060357	0.001271	47.5046	177.685	15.7982	0.031870	0.010854	-1.156349	-1.157776	-0.005246	47.5046	-1.156266	-2.849863E+15	1.840679E-18	NaN
1065	1.000000	0.022139	7.37546e+06	-53389.1	1055.82	-29746.3	0.000000	0.000000	6.022732	-0.019539	NaN	0.000000	0.001586	0.001691	28.0825	0.102345	0.001774	57.6931	75.2326	-166.47	-0.055289	0.020806	-1.146491	-1.147824	-0.019539	57.6931	-1.146237	-2.091047E+15	9.344264E-18	NaN
1065	1.000000	0.032137	7.37546e+06	-53389.1	1055.82	-29746.3	0.000000	0.000000	6.032732	0.024348	NaN	0.000000	0.001592	0.001710	28.0829	0.035658	0.001897	18.7982	-34.1582	15.5996	0.018534	0.030834	-1.136493	-1.137796	0.024348	18.7982	-1.137464	-1.594889E+15	-1.526599E-17	NaN
1065	1.000000	0.042160	7.37546e+06	-53389.1	1055.82	-29746.3	0.000000	0.000000	6.042754	0.031417	NaN	0.000000	0.001558	0.001711	28.0828	0.067717	0.001953	34.665	158.621	-163.929	0.044526	0.040834	-1.126470	-1.127796	0.031417	34.665	-1.127150	-1.159832E+15	-2.708714E-17	NaN
1065	1.000000	0.052163	7.37546e+06	-53389.1	1055.82	-29746.3	0.000000	0.000000	6.052757	0.005721	NaN	0.000000	0.001536	0.001700	28.0828	0.104096	0.001848	56.3271	86.3087	13.0032	-0.090424	0.050753	-1.116467	-1.117877	0.005721	56.3271	-1.116543	-8.357765E+14	-6.844763E-18	NaN
1065	1.000000	0.062166	7.37546e+06	-53389.1	1055.82	-29746.3	0.000000	0.000000	6.062761	0.050054	NaN	0.000000	0.001576	0.001689	28.0828	0.049273	0.002055	23.9772	24.9836	-165.394	0.073497	0.060791	-1.106464	-1.107839	0.050054	23.9772	-1.108030	-6.424611E+14	-7.791030E-17	NaN
1065	1.000000	0.072162	7.37546e+06	-53389.1	1055.82	-29746.3	0.000000	0.000000	6.072754	-0.040150	NaN	0.000000	0.001576	0.001693	28.0832	0.060528	0.001994	30.3602	69.7334	13.8907	0.052981	0.070805	-1.096468	-1.097825	-0.040150	30.3602	-1.095476	-4.358479E+14	9.211964E-17	NaN
1065	1.000000	0.082168	7.37546e+06	-53389.1	1055.82	-29746.3	0.000000	0.000000	6.082762	0.024116	NaN	0.000000	0.001556	0.001676	28.0827	0.046017	0.002019	22.7918	-61.3471	-163.151	0.087016	0.080828	-1.086462	-1.087802	0.024116	22.7918	-1.087256	-3.380385E+14	-7.134006E-17	NaN
1065	1.000000	0.092169	7.37546e+06	-53389.1	1055.82	-29746.3	0.000000	0.000000	6.092764	0.020691	NaN	0.000000	0.001563	0.001707	28.0832	0.057332	0.001945	29.4823	-119.366	13.8748	0.065989	0.090804	-1.076461	-1.077826	0.020691	29.4823	-1.076987	-2.460650E+14	-8.408919E-17	NaN
1065	1.000000	0.102186	7.37546e+06	-53389.1	1055.82	-29746.3	0.000000	0.000000	6.102779	-0.027927	NaN	0.000000	0.001555	0.001673	28.0827	0.024342	0.001979	12.2986	160.086	-162.07	0.042811	0.100895	-1.066444	-1.067735	-0.027927	12.2986	-1.064741	-1.684714E+14	1.657695E-16	NaN
1065	1.000000	0.112178	7.37546e+06	-53389.1	1055.82	-29746.3	0.000000	0.000000	6.112771	-0.016441	NaN	0.000000	0.001585	0.001678	28.0832	0.129492	0.001955	66.2377	-3.146635	15.1415	-0.010471	0.110853	-1.056452	-1.057777	-0.016441	66.2377	-1.056266	-1.296105E+14	1.268491E-16	NaN
1065	1.000000	0.122174	7.37546e+06	-53389.1	1055.82	-29746.3	0.000000	0.000000	6.122766	-0.035684	NaN	0.000000	0.001591	0.001678	28.0839	0.042657	0.001887	22.6011	147.385	-162.538	-0.106467	0.120890	-1.046456	-1.047740	-0.035684	22.6011	-1.045271	-9.222426E+13	3.869251E-16	NaN
1065	1.000000	0.132195	7.37546e+06	-53389.1	1055.82	-29746.3	0.000000	0.000000	6.132790	0.046475	NaN	0.000000	0.001580	0.001679	28.084	0.099557	0.001962	50.742	51.4434	11.1971	0.043677	0.130817	-1.036435	-1.037813	0.046475	50.742	-1.037122	-7.165803E+13	-6.485717E-16	NaN
1065	1.000000	0.142179	7.37546e+06	-53389.1	1055.82	-29746.3	0.000000	0.000000	6.142772	-0.020937	NaN	0.000000	0.001601	0.001673	28.0842	0.085909	0.001803	47.649	142.115	-166.836	-0.038968	0.140890	-1.026451	-1.027741	-0.020937	47.649	-1.026121	-5.096904E+13	4.107696E-16	NaN
1065	1.000000	0.152182	7.37546e+06	-53389.1	1055.82	-29746.3	0.000000	0.000000	6.152773	-0.058225	NaN	0.000000	0.001572	0.001663	28.0839	0.025735	0.001882	13.6707	-26.3584	13.2688	-0.016587	0.150827	-1.016448	-1.017803	-0.058225	13.6707	-1.013254	-3.421175E+13	1.701912E-15	NaN
1065	1.000000	0.162189	7.37546e+06	-53389.1	1055.82	-29746.3	0.000000	0.000000	6.162786	0.086499	NaN	0.000000	0.001497	0.001690	28.0838	0.067393	0.002085	32.3217	-162.324	-167.454	0.097132	0.160889	-1.006441	-1.007741	0.086499	32.3217	-1.008448	-2.947752E+13	-2.934401E-15	NaN
1065	1.000000	0.172173	7.37546e+06	-53389.1	1055.82	-29746.3	0.000000	0.000000	6.172768	0.041542	NaN	0.000000	0.001524	0.001672	28.0842	0.052388	0.002056	25.4782	-21.6654	15.4367	0.003460	0.170845	-0.996457	-0.997785	0.041542	25.4782	-0.997680	-2.111197E+13	-1.967680E-15	NaN
1065	1.000000	0.182185	7.37546e+06	-53389.1	1055.82	-29746.3	0.000000	0.000000	6.182778	-0.020627	NaN	0.000000	0.001536	0.001717	28.084	0.072483	0.002019	35.905	152.496	-162.507	-0.022250	0.180928	-0.986445	-0.987702	-0.020627	35.905	-0.986014	-1.470351E+13	1.402844E-15	NaN
1065	1.000000	0.192222	7.37546e+06	-53389.1	1055.82	-29746.3	0.000000	0.000000	6.192815	-0.001175	NaN	0.000000	0.001539	0.001691	28.084	0.063443	0.001978	32.0784	-64.2779	13.6583	0.047185	0.190850	-0.976408	-0.977780	-0.001175	32.0784	-0.976381	-1.090560E+13	1.077556E-16	NaN
1065	1.000000	0.202218	7.37546e+06	-53389.1	1055.82	-29746.3	0.000000	0.000000	6.202816	0.109404	NaN	0.000000	0.001555	0.001669	28.084	0.068734	0.002129	32.2794	0.358942	-165.353	0.057607	0.200906	-0.966412	-0.967724	0.109404	32.2794	-0.968954	-8.660835E+12	-1.263201E-14	NaN
1065	1.000000	0.212202	7.37546e+06	-53389.1	1055.82	-29746.3	0.000000	0.000000	6.212797	0.050434	NaN	0.000000	0.001583	0.001652	28.0843	0.083045	0.001901	43.6745	170.547	14.6461	0.002991	0.210856	-0.956429	-0.957774	0.050434	43.6745	-0.957295	-6.031065E+12	-8.362450E-15	NaN
1065	1.000000	0.222212	7.37546e+06	-53389.1	1055.82	-29746.3	0.000000	0.000000	6.222806	0.001892	NaN	0.000000	0.001633	0.001664	28.0838	0.039917	0.002022	19.7448	45.145	-163.869	0.017006	0.220915	-0.946418	-0.947715	0.001892	19.7448	-0.946490	-4.312034E+12	-4.387346E-16	NaN
1065	1.000000	0.232240	7.37547e+06	-53389.1	1055.82	-29746.3	0.000000	0.000000	6.232834	0.017874	NaN	0.000000	0.001581	0.001681	28.0839	0.080115	0.002017	39.7197	-17.5893	15.1637	-0.016865	0.230865	-0.936390	-0.937765	0.017874	39.7197	-0.936727	-3.184077E+12	-5.613639E-15	NaN
1065	1.000000	0.242232	7.37547e+06	-53389.1	1055.82	-29746.3	0.000000	0.000000	6.242826	0.017566	NaN	0.000000	0.001595	0.001689	28.0839	0.015632	0.002070	7.552345	-96.3527	-164.451	-0.006249	0.240884	-0.926398	-0.927746	0.017566	7.552345	-0.928142	-2.438508E+12	-7.203429E-15	NaN
1065	1.000000	0.252210	7.37547e+06	-53389.1	1055.82	-29746.3	0.000000	0.000000	6.252804	0.021813	NaN	0.000000	0.001638	0.001661	28.083	0.014660	0.002106	6.959859	-116.539	12.8786	0.020425	0.250880	-0.916420	-0.917750	0.021813	6.959859	-0.918771	-1.822251E+12	-1.197012E-14	NaN
1065	1.000000	0.262254	7.37547e+06	-53389.1	1055.82	-29746.3	0.000000	0.000000	6.262846	-0.035471	NaN	0.000000	0.001617	0.001645	28.0826	0.008069	0.001963	4.110689	112.74	-165.982	-0.052893	0.260900	-0.906376	-0.907730	-0.035471	4.110689	-0.899904	-1.013386E+12	3.500288E-14	NaN
1065	1.000000	0.272257	7.37547e+06	-53389.1	1055.82	-29746.3	0.000000	0.000000	6.272852	0.026212	NaN	0.000000	0.001637	0.001682	28.0827	0.052112	0.001995	26.1148	178.375	15.5549	0.120287	0.270892	-0.896373	-0.897738	0.026212	26.1148	-0.897125	-9.294424E+11	-2.820196E-14	NaN
1065	1.000000	0.282251	7.37547e+06	-53389.1	1055.82	-29746.3	0.000000	0.000000	6.282842	-0.057435	NaN	0.000000	0.001645	0.001730	28.083	0.064478	0.001981	32.5489	-137.433	-166.243	-0.077036	0.280886	-0.886379	-0.887744	-0.057435	32.5489	-0.885056	-6.383720E+11	8.997030E-14	NaN
1065	1.000000	0.292245	7.37547e+06	-53389.1	1055.82	-29746.3	0.000000	0.000000	6.292834	-0.098884	NaN	0.000000	0.001593	0.001710	28.0825	0.082770	0.002035	40.6667	128.501	14.8253	-0.161188	0.290892	-0.876386	-0.877738	-0.098884	40.6667	-0.874562	-4.604227E+11	2.147676E-13	NaN
1065	1.000000	0.302285	7.37547e+06	-53389.1	1055.82	-29746.3	0.000000	0.000000	6.302880	0.023976	NaN	0.000000	0.001609	0.001699	28.083	0.050158	0.002043	24.5452	174.976	-166.147	-0.022654	0.300961	-0.866345	-0.867669	0.023976	24.5452	-0.867077	-3.646710E+11	-6.574735E-14	NaN
1065	1.000000	0.312232	7.37547e+06	-53389.1	1055.82	-29746.3	0.000000	0.000000	6.312823	-0.070496	NaN	0.000000	0.001612	0.001730	28.0829	0.056911	0.001936	29.3894	-131.368	11.353	0.014313	0.310899	-0.856398	-0.857731	-0.070496	29.3894	-0.854599	-2.471776E+11	2.852038E-13	NaN
1065	1.000000	0.322281	7.37547e+06	-53389.1	1055.82	-29746.3	0.000000	0.000000	6.322875	0.013577	NaN	0.000000	0.001657	0.001728	28.083	0.086440	0.002055	42.0598	147.997	-164.035	-0.000676	0.320923	-0.846349	-0.847707	0.013577	42.0598	-0.846591	-1.925626E+11	-7.050725E-14	NaN
1065	1.000000	0.332281	7.37547e+06	-53389.1	1055.82	-29746.3	0.000000	0.000000	6.332877	0.052208	NaN	0.000000	0.001648	0.001703	28.0828	0.130415	0.002028	64.3063	-79.8852	13.1808	-0.018409	0.330926	-0.836349	-0.837704	0.052208	64.3063	-0.836958	-1.425842E+11	-3.661543E-13	NaN
1065	1.000000	0.342279	7.37547e+06	-53389.1	1055.82	-29746.3	0.000000	0.000000	6.342868	-0.110970	NaN	0.000000	0.001636	0.001734	28.0829	0.090740	0.001963	46.2204	61.8041	-166.144	-0.067880	0.340952	-0.826351	-0.827678	-0.110970	46.2204	-0.824550	-9.680673E+10	1.146309E-12	NaN
1065	1.000000	0.352300	7.37547e+06	-53389.1	1055.82	-29746.3	0.000000	0.000000	6.352891	-0.046342	NaN	0.000000	0.001620	0.001727	28.0831	0.065063	0.002034	31.9913	-85.9691	15.1207	0.002340	0.350873	-0.816330	-0.817758	-0.046342	31.9913	-0.815244	-7.239469E+10	6.401306E-13	NaN
1065	1.000000	0.362287	7.37547e+06	-53389.1	1055.82	-29746.3	0.000000	0.000000	6.362880	-0.001666	NaN	0.000000	0.001621	0.001722	28.0828	0.147825	0.001877	78.7562	84.0169	-161.461	-0.007853	0.360919	-0.806343	-0.807711	-0.001666	78.7562	-0.806328	-5.479512E+10	3.040512E-14	NaN
1065	1.000000	0.372280	7.37547e+06	-53389.1	1055.82	-29746.3	0.000000	0.000000	6.372873	-0.004513	NaN	0.000000	0.001568	0.001687	28.0829	0.017581	0.001945	9.037133	138.049	15.8688	-0.013801	0.370926	-0.796350	-0.797704	-0.004513	9.037133	-0.795976	-3.964880E+10	1.138366E-13	NaN
1065	1.000000	0.382298	7.37547e+06	-53389.1	1055.82	-29746.3	0.000000	0.000000	6.382890	-0.016315	NaN	0.000000	0.001582	0.001722	28.083	0.078235	0.001989	39.3436	150.965	-165.767	-0.004116	0.380996	-0.786332	-0.787634	-0.016315	39.3436	-0.786021	-2.904304E+10	5.617560E-13	NaN
1065	1.000000	0.392288	7.37547e+06	-53389.1	1055.82	-29746.3	0.000000	0.000000	6.392881	-0.002642	NaN	0.000000	0.001587	0.001727	28.0842	0.091465	0.001954	46.814	-1.816100	12.5588	-0.027675	0.390946	-0.776342	-0.777684	-0.002642	46.814	-0.776300	-2.142619E+10	1.232863E-13	NaN
1065	1.000000	0.402313	7.37547e+06	-53389.1	1055.82	-29746.3	0.000000	0.000000	6.402906	-0.001097	NaN	0.000000	0.001587	0.001708	28.0842	0.088697	0.001983	44.7323	97.7895	-163.94	0.006338	0.400965	-0.766317	-0.767665	-0.001097	44.7323	-0.766299	-1.566662E+10	7.003652E-14	NaN
1065	1.000000	0.412290	7.37547e+06	-53389.1	1055.82	-29746.3	0.000000	0.000000	6.412884	0.001920	NaN	0.000000	0.001612	0.001666	28.084	0.090215	0.001941	46.4893	179.992	13.7908	0.002855	0.410947	-0.756340	-0.757683	0.001920	46.4893	-0.756371	-1.147952E+10	-1.672808E-13	NaN
1065	1.000000	0.422304	7.37547e+06	-53389.1	1055.82	-29746.3	0.000000	0.000000	6.422896	-0.037053	NaN	0.000000	0.001619	0.001694	28.0846	0.081769	0.002138	38.2471	-148.634	-166.211	-0.015559	0.421023	-0.746326	-0.747607	-0.037053	38.2471	-0.745600	-8.190566E+9	4.523877E-12	NaN
1065	1.000000	0.432291	7.37547e+06	-53389.1	1055.82	-29746.3	0.000000	0.000000	6.432884	-0.015193	NaN	0.000000	0.001608	0.001687	28.084	0.029378	0.001888	15.5619	-107.88	15.2431	0.078193	0.430964	-0.736339	-0.737666	-0.015193	15.5619	-0.735607	-5.987002E+9	2.537637E-12	NaN
1065	1.000000	0.442343	7.37547e+06	-53389.1	1055.82	-29746.3	0.000000	0.000000	6.442935	-0.049848	NaN	0.000000	0.001568	0.001688	28.0844	0.091488	0.002061	44.3868	-82.4754	-168.161	0.016905	0.441025	-0.726287	-0.727605	-0.049848	44.3868	-0.725445	-4.352248E+9	1.145346E-11	NaN
1065	1.000000	0.452312	7.37547e+06	-53389.1	1055.82	-29746.3	0.000000	0.000000	6.452907	0.026209	NaN	0.000000	0.001626	0.001667	28.0843	0.041564	0.001912	21.7384	-94.0524	14.1099	0.012101	0.450974	-0.716318	-0.717656	0.026209	21.7384	-0.717222	-3.361919E+9	-7.795778E-12	NaN
1065	1.000000	0.462352	7.37547e+06	-53389.1	1055.82	-29746.3	0.000000	0.000000	6.462948	0.056203	NaN	0.000000	0.001619	0.001645	28.0846	0.027800	0.001900	14.6301	160.275	-165.428	0.019660	0.460976	-0.706278	-0.707654	0.056203	14.6301	-0.709159	-2.609608E+9	-2.153700E-11	NaN
1065	1.000000	0.472319	7.37547e+06	-53389.1	1055.82	-29746.3	0.000000	0.000000	6.472912	0.009368	NaN	0.000000	0.001612	0.001698	28.0842	0.164865	0.001967	83.808	37.263	14.8813	0.036538	0.470998	-0.696311	-0.697632	0.009368	83.808	-0.696395	-1.747019E+9	-5.362210E-12	NaN
1065	1.000000	0.482366	7.37547e+06	-53389.1	1055.82	-29746.3	0.000000	0.000000	6.482958	-0.024155	NaN	0.000000	0.001597	0.001695	28.0844	0.077215	0.002165	35.6584	-4.511317	-168.249	0.043508	0.481053	-0.686264	-0.687577	-0.024155	35.6584	-0.685756	-1.249999E+9	1.932418E-11	NaN
1065	1.000000	0.492329	7.37547e+06	-53389.1	1055.82	-29746.3	0.000000	0.000000	6.492923	0.031176	NaN	0.000000	0.001610	0.001668	28.0845	0.057645	0.002136	26.983	-100.717	14.6848	-0.008739	0.491013	-0.676301	-0.677617	0.031176	26.983	-0.677168	-9.538246E+8	-3.268547E-11	NaN
1065	1.000000	0.502305	7.37547e+06	-53389.1	1055.82	-29746.3	0.000000	0.000000	6.502897	-0.020312	NaN	0.000000	0.001587	0.001710	28.0844	0.091695	0.001995	45.9703	-166.133	-165.139	-0.029188	0.501040	-0.666325	-0.667590	-0.020312	45.9703	-0.665994	-6.707342E+8	3.028299E-11	NaN
1065	1.000000	0.512351	7.37547e+06	-53389.1	1055.82	-29746.3	0.000000	0.000000	6.512947	0.058577	NaN	0.000000	0.001587	0.001697	28.0842	0.032576	0.001968	16.552	-135.696	15.5728	0.029305	0.510951	-0.656279	-0.657679	0.058577	16.552	-0.658933	-5.368530E+8	-1.091124E-10	NaN
1065	1.000000	0.522365	7.37547e+06	-53389.1	1055.82	-29746.3	0.000000	0.000000	6.522958	-0.001753	NaN	0.000000	0.001598	0.001743	28.0842	0.061938	0.001938	31.9613	-144.14	-165.282	-0.037986	0.521027	-0.646265	-0.647603	-0.001753	31.9613	-0.646224	-3.594749E+8	4.875409E-12	NaN
1065	1.000000	0.532354	7.37547e+06	-53389.1	1055.82	-29746.3	0.000000	0.000000	6.532952	0.101967	NaN	0.000000	0.001590	0.001711	28.083	0.074692	0.002089	35.7493	154.038	12.0938	0.068727	0.530967	-0.636276	-0.637663	0.101967	35.7493	-0.638415	-2.808933E+8	-3.630114E-10	NaN
1065	1.000000	0.542372	7.37547e+06	-53389.1	1055.82	-29746.3	0.000000	0.000000	6.542966	0.000196	NaN	0.000000	0.001599	0.001714	28.083	0.015414	0.002073	7.436459	-95.1913	-164.995	-0.070591	0.541041	-0.626258	-0.627589	0.000196	7.436459	-0.626277	-1.913790E+8	-1.025894E-12	NaN
1065	1.000000	0.552336	7.37547e+06	-53389.1	1055.82	-29746.3	0.000000	0.000000	6.552929	-0.012582	NaN	0.000000	0.001583	0.001770	28.0828	0.026651	0.001940	13.7387	41.4827	12.1658	0.020698	0.551001	-0.616294	-0.617629	-0.012582	13.7387	-0.615607	-1.365322E+8	9.215423E-11	NaN
1065	1.000000	0.562376	7.37547e+06	-53389.1	1055.82	-29746.3	0.000000	0.000000	6.562970	0.019529	NaN	0.000000	0.001570	0.001724	28.0829	0.048433	0.001991	24.3202	-101.701	-163.895	0.018250	0.561099	-0.606254	-0.607531	0.019529	24.3202	-0.606856	-1.034798E+8	-1.887194E-10	NaN
1065	1.000000	0.572373	7.37547e+06	-53389.1	1055.82	-29746.3	0.000000	0.000000	6.572968	0.042318	NaN	0.000000	0.001590	0.001757	28.0829	0.054477	0.002045	26.6335	-159.605	16.5204	0.017969	0.570985	-0.596257	-0.597645	0.042318	26.6335	-0.597449	-7.679225E+7	-5.510676E-10	NaN
1065	1.000000	0.582390	7.37547e+06	-53389.1	1055.82	-29746.3	0.000000	0.000000	6.582985	0.051939	NaN	0.000000	0.001600	0.001730	28.0826	0.028927	0.001933	14.9632	-44.1798	-167.2	0.039318	0.581035	-0.586240	-0.587595	0.051939	14.9632	-0.588844	-5.844181E+7	-8.887381E-10	NaN
1065	1.000000	0.592359	7.37547e+06	-53389.1	1055.82	-29746.3	0.000000	0.000000	6.592951	-0.024413	NaN	0.000000	0.001558	0.001719	28.0829	0.087078	0.002048	42.5111	124.779	16.1419	-0.066037	0.591051	-0.576271	-0.577579	-0.024413	42.5111	-0.575841	-3.866416E+7	6.314084E-10	NaN
1065	1.000000	0.602353	7.37547e+06	-53389.1	1055.82	-29746.3	0.000000	0.000000	6.602949	0.045170	NaN	0.000000	0.001613	0.001751	28.0828	0.023814	0.002057	11.5756	113.221	-163.628	-0.016960	0.601058	-0.566277	-0.567572	0.045170	11.5756	-0.569203	-3.130582E+7	-1.442866E-9	NaN
1065	1.000000	0.612398	7.37547e+06	-53389.1	1055.82	-29746.3	0.000000	0.000000	6.612993	0.044470	NaN	0.000000	0.001593	0.001768	28.0828	0.087920	0.001921	45.7776	71.4684	15.8965	-0.040428	0.611074	-0.556232	-0.557556	0.044470	45.7776	-0.556961	-2.119948E+7	-2.097678E-9	NaN
1065	1.000000	0.622419	7.37547e+06	-53389.1	1055.82	-29746.3	0.000000	0.000000	6.623010	-0.063256	NaN	0.000000	0.001626	0.001725	28.0828	0.038416	0.001989	19.3103	138.975	-164.91	-0.069186	0.621130	-0.546211	-0.547500	-0.063256	19.3103	-0.543754	-1.391267E+7	4.546670E-9	NaN
1065	1.000000	0.632403	7.37547e+06	-53389.1	1055.82	-29746.3	0.000000	0.000000	6.632997	0.004637	NaN	0.000000	0.001627	0.001739	28.0829	0.043545	0.002043	21.3098	-147.146	12.8418	-0.005057	0.631067	-0.536227	-0.537563	0.004637	21.3098	-0.536390	-1.099711E+7	-4.216758E-10	NaN
1065	1.000000	0.642410	7.37547e+06	-53389.1	1055.82	-29746.3	0.000000	0.000000	6.643003	-0.010472	NaN	0.000000	0.001592	0.001722	28.0831	0.110492	0.001961	56.332	-138.876	-167.445	0.021071	0.641120	-0.526220	-0.527510	-0.010472	56.332	-0.526080	-7.90901e+06	1.324031E-9	NaN
1065	1.000000	0.652396	7.37547e+06	-53389.1	1055.82	-29746.3	0.000000	0.000000	6.652987	-0.064831	NaN	0.000000	0.001674	0.001706	28.083	0.122781	0.001928	63.6749	178.907	12.087	-0.074371	0.651103	-0.516234	-0.517527	-0.064831	63.6749	-0.515470	-5.63088e+06	1.151348E-8	NaN
1065	1.000000	0.662385	7.37547e+06	-53389.1	1055.82	-29746.3	0.000000	0.000000	6.662982	0.070389	NaN	0.000000	0.001616	0.001714	28.0842	0.085329	0.002015	42.3413	-151.953	-165.179	0.096727	0.661068	-0.506245	-0.507562	0.070389	42.3413	-0.507491	-4.35981e+06	-1.614508E-8	NaN
1065	1.000000	0.672391	7.37547e+06	-53389.1	1055.82	-29746.3	0.000000	0.000000	6.672984	-0.001013	NaN	0.000000	0.001649	0.001718	28.0843	0.130242	0.002031	64.1263	53.4941	15.7191	-0.040075	0.671056	-0.496240	-0.497574	-0.001013	64.1263	-0.496228	-3.03651e+06	3.336776E-10	NaN
1065	1.000000	0.682429	7.37547e+06	-53389.1	1055.82	-29746.3	0.000000	0.000000	6.683023	0.006199	NaN	0.000000	0.001649	0.001686	28.0841	0.051289	0.002069	24.7901	-162.386	-165.669	0.010450	0.681076	-0.486201	-0.487554	0.006199	24.7901	-0.486388	-2.21263e+06	-2.801465E-9	NaN
1065	1.000000	0.692418	7.37547e+06	-53389.1	1055.82	-29746.3	0.000000	0.000000	6.693013	0.045347	NaN	0.000000	0.001632	0.001703	28.0844	0.089479	0.001810	49.446	-1.405199	13.3889	-0.019914	0.691080	-0.476212	-0.477550	0.045347	49.446	-0.476900	-1.62973e+06	-2.782479E-8	NaN
1065	1.000000	0.702454	7.37547e+06	-53389.1	1055.82	-29746.3	0.000000	0.000000	6.703050	0.056272	NaN	0.000000	0.001662	0.001657	28.084	0.095936	0.001796	53.4178	119.632	-164.623	0.073854	0.701136	-0.466176	-0.467494	0.056272	53.4178	-0.466966	-1.18263e+06	-4.758230E-8	NaN
1065	1.000000	0.712456	7.37547e+06	-53389.1	1055.82	-29746.3	0.000000	0.000000	6.713048	-0.033504	NaN	0.000000	0.001622	0.001674	28.0845	0.044537	0.001947	22.8763	-13.7679	14.3378	-0.059220	0.711010	-0.456174	-0.457620	-0.033504	22.8763	-0.455076	-804984	4.162012E-8	NaN
1065	1.000000	0.722429	7.37547e+06	-53389.1	1055.82	-29746.3	0.000000	0.000000	6.723022	-0.000242	NaN	0.000000	0.001645	0.001688	28.0841	0.018212	0.001996	9.125869	170.795	-173.81	-0.019734	0.721166	-0.446201	-0.447464	-0.000242	9.125869	-0.446181	-603315	4.010003E-10	NaN
1065	1.000000	0.732457	7.37547e+06	-53389.1	1055.82	-29746.3	0.000000	0.000000	6.733050	-0.020794	NaN	0.000000	0.001591	0.001695	28.0844	0.071627	0.002024	35.3913	-176.656	16.3625	0.099302	0.731086	-0.436173	-0.437544	-0.020794	35.3913	-0.435732	-429632	4.840044E-8	NaN
1065	1.000000	0.742451	7.37547e+06	-53389.1	1055.82	-29746.3	0.000000	0.000000	6.743045	0.014321	NaN	0.000000	0.001632	0.001704	28.0843	0.052324	0.002012	26.0112	21.2815	-164.221	0.048036	0.741169	-0.426179	-0.427461	0.014321	26.0112	-0.426592	-319023	-4.488995E-8	NaN
1065	1.000000	0.752458	7.37547e+06	-53389.1	1055.82	-29746.3	0.000000	0.000000	6.753052	0.001898	NaN	0.000000	0.001622	0.001698	28.0844	0.083086	0.002030	40.9359	24.411	17.3911	0.024252	0.751067	-0.416172	-0.417563	0.001898	40.9359	-0.416207	-227294	-8.348905E-9	NaN
1065	1.000000	0.762469	7.37547e+06	-53389.1	1055.82	-29746.3	0.000000	0.000000	6.763061	-0.034973	NaN	0.000000	0.001650	0.001697	28.0838	0.057861	0.002056	28.1432	22.8437	-167.787	-0.045108	0.761128	-0.406161	-0.407502	-0.034973	28.1432	-0.405229	-158677	2.204030E-7	NaN
1065	1.000000	0.772476	7.37547e+06	-53389.1	1055.82	-29746.3	0.000000	0.000000	6.773069	-0.008003	NaN	0.000000	0.001623	0.001623	28.0842	0.093278	0.001980	47.1085	143.183	14.1669	0.029182	0.771094	-0.396154	-0.397536	-0.008003	47.1085	-0.396026	-117299	6.822424E-8	NaN
1065	1.000000	0.782433	7.37547e+06	-53389.1	1055.82	-29746.3	0.000000	0.000000	6.783025	-0.028610	NaN	0.000000	0.001597	0.001643	28.0841	0.039977	0.001946	20.5421	91.448	-165.421	0.001089	0.781127	-0.386197	-0.387503	-0.028610	20.5421	-0.385153	-81992.7	3.489382E-7	NaN
1065	1.000000	0.792436	7.37547e+06	-53389.1	1055.82	-29746.3	0.000000	0.000000	6.793030	0.009708	NaN	0.000000	0.001650	0.001704	28.084	0.024811	0.001985	12.5019	128.759	15.3532	-0.021189	0.791125	-0.376194	-0.377505	0.009708	12.5019	-0.376776	-62172.9	-1.561385E-7	NaN
1065	1.000000	0.802471	7.37547e+06	-53389.1	1055.82	-29746.3	0.000000	0.000000	6.803062	-0.041549	NaN	0.000000	0.001663	0.001693	28.0825	0.038726	0.002046	18.9255	46.9003	-166.165	0.037473	0.801109	-0.366159	-0.367521	-0.041549	18.9255	-0.364513	-41402.2	1.003555E-6	NaN
1065	1.000000	0.812477	7.37547e+06	-53389.1	1055.82	-29746.3	0.000000	0.000000	6.813073	0.061315	NaN	0.000000	0.001634	0.001702	28.0829	0.032391	0.001970	16.4399	18.2186	15.9135	-0.012691	0.811126	-0.356153	-0.357504	0.061315	16.4399	-0.358950	-34408.7	-1.781966E-6	NaN
1065	1.000000	0.822465	7.37547e+06	-53389.1	1055.82	-29746.3	0.000000	0.000000	6.823055	-0.076849	NaN	0.000000	0.001597	0.001670	28.0827	0.123780	0.001965	63.0045	142.6	-161.563	-0.116076	0.821117	-0.346165	-0.347513	-0.076849	63.0045	-0.345250	-21776.8	3.528958E-6	NaN
1065	1.000000	0.832460	7.37547e+06	-53389.1	1055.82	-29746.3	0.000000	0.000000	6.833055	0.040299	NaN	0.000000	0.001638	0.001653	28.0829	0.068676	0.002005	34.2593	117.773	14.599	0.066069	0.831155	-0.336170	-0.337475	0.040299	34.2593	-0.337052	-16540.9	-2.436316E-6	NaN
1065	1.000000	0.842469	7.37547e+06	-53389.1	1055.82	-29746.3	0.000000	0.000000	6.843062	-0.016143	NaN	0.000000	0.001630	0.001665	28.0824	0.065323	0.002072	31.5206	-111.511	-168.334	-0.067013	0.841166	-0.326161	-0.327464	-0.016143	31.5206	-0.325777	-11311.9	1.427056E-6	NaN
1065	1.000000	0.852515	7.37547e+06	-53389.1	1055.82	-29746.3	0.000000	0.000000	6.853108	-0.018887	NaN	0.000000	0.001619	0.001698	28.0831	0.104576	0.002040	51.2576	174.527	12.0066	0.002575	0.851105	-0.316115	-0.317525	-0.018887	51.2576	-0.315838	-8078.28	2.338054E-6	NaN
1065	1.000000	0.862491	7.37547e+06	-53389.1	1055.82	-29746.3	0.000000	0.000000	6.863084	-0.009166	NaN	0.000000	0.001587	0.001705	28.0826	0.039294	0.002023	19.4254	170.051	-163.768	-0.094671	0.861160	-0.306139	-0.307470	-0.009166	19.4254	-0.305785	-5735.99	1.598044E-6	NaN
1065	1.000000	0.872494	7.37547e+06	-53389.1	1055.82	-29746.3	0.000000	0.000000	6.873087	-0.005042	NaN	0.000000	0.001576	0.001683	28.0829	0.027042	0.001875	14.4224	-36.2554	15.9155	-0.046228	0.871119	-0.296137	-0.297511	-0.005042	14.4224	-0.295874	-4084.52	1.234388E-6	NaN
1065	1.000000	0.882529	7.37547e+06	-53389.1	1055.82	-29746.3	0.000000	0.000000	6.883121	-0.027254	NaN	0.000000	0.001583	0.001695	28.0827	0.019434	0.001942	10.0049	143.643	-166.205	0.005052	0.881261	-0.286101	-0.287369	-0.027254	10.0049	-0.284058	-2717.09	1.003063E-5	NaN
1065	1.000000	0.892519	7.37547e+06	-53389.1	1055.82	-29746.3	0.000000	0.000000	6.893111	-0.030757	NaN	0.000000	0.001567	0.001728	28.0829	0.048250	0.002046	23.5875	47.6685	14.373	-0.064335	0.891168	-0.276111	-0.277462	-0.030757	23.5875	-0.275133	-1992.59	1.543576E-5	NaN
1065	1.000000	0.902501	7.37547e+06	-53389.1	1055.82	-29746.3	0.000000	0.000000	6.903095	0.007434	NaN	0.000000	0.001571	0.001684	28.0824	0.103217	0.001946	53.0491	-83.8877	-163.779	-0.069280	0.901186	-0.266129	-0.267444	0.007434	53.0491	-0.266234	-1459.52	-5.093286E-6	NaN
1065	1.000000	0.912490	7.37547e+06	-53389.1	1055.82	-29746.3	0.000000	0.000000	6.913084	0.007141	NaN	0.000000	0.001561	0.001694	28.0826	0.085166	0.002005	42.476	163.117	13.187	-0.040144	0.911164	-0.256140	-0.257466	0.007141	42.476	-0.256266	-1027.05	-6.953176E-6	NaN
1065	1.000000	0.922518	7.37547e+06	-53389.1	1055.82	-29746.3	0.000000	0.000000	6.923111	-0.018323	NaN	0.000000	0.001528	0.001683	28.0825	0.098784	0.001930	51.1924	-78.5618	-169.687	-0.084822	0.921175	-0.246112	-0.247455	-0.018323	51.1924	-0.245843	-708.843	2.584859E-5	NaN
1065	1.000000	0.932508	7.37547e+06	-53389.1	1055.82	-29746.3	0.000000	0.000000	6.933102	0.016240	NaN	0.000000	0.001564	0.001689	28.0828	0.153807	0.002044	75.2611	20.5618	12.2491	0.075934	0.931211	-0.236122	-0.237419	0.016240	75.2611	-0.236284	-502.798	-3.229924E-5	NaN
1065	1.000000	0.942550	7.37547e+06	-53389.1	1055.82	-29746.3	0.000000	0.000000	6.943142	-0.029137	NaN	0.000000	0.001599	0.001683	28.0835	0.039485	0.001987	19.8738	62.6325	-165.243	-0.001681	0.941214	-0.226080	-0.227416	-0.029137	19.8738	-0.224981	-333.449	8.738096E-5	NaN
1065	1.000000	0.952519	7.37547e+06	-53389.1	1055.82	-29746.3	0.000000	0.000000	6.953113	0.011636	NaN	0.000000	0.001608	0.001697	28.0835	0.078286	0.001997	39.2028	118.124	16.4607	-0.087129	0.951175	-0.216111	-0.217455	0.011636	39.2028	-0.216334	-242.635	-4.795493E-5	NaN
1065	1.000000	0.962522	7.37547e+06	-53389.1	1055.82	-29746.3	0.000000	0.000000	6.963115	-0.011147	NaN	0.000000	0.001579	0.001695	28.0841	0.086649	0.002169	39.9508	96.2659	-167.166	0.042904	0.961193	-0.206108	-0.207437	-0.011147	39.9508	-0.205899	-164.518	6.775479E-5	NaN
1065	1.000000	0.972523	7.37547e+06	-53389.1	1055.82	-29746.3	0.000000	0.000000	6.973116	-0.000264	NaN	0.000000	0.001592	0.001679	28.0839	0.093253	0.002069	45.0814	167.725	14.1088	-0.050807	0.971191	-0.196107	-0.197439	-0.000264	45.0814	-0.196103	-113.62	2.324218E-6	NaN
1065	1.000000	0.982508	7.37547e+06	-53389.1	1055.82	-29746.3	0.000000	0.000000	6.983102	0.009123	NaN	0.000000	0.001586	0.001653	28.0838	0.024371	0.001949	12.5019	-97.7388	-164.792	0.034263	0.981265	-0.186122	-0.187365	0.009123	12.5019	-0.186670	-79.1099	-0.000115	NaN
1065	1.000000	0.992576	7.37547e+06	-53389.1	1055.82	-29746.3	0.000000	0.000000	6.993168	-0.018545	NaN	0.000000	0.001579	0.001668	28.0841	0.063223	0.002025	31.2168	137.105	17.6248	0.055351	0.991191	-0.176054	-0.177439	-0.018545	31.2168	-0.175609	-51.3375	0.000361	NaN
1065	1.000000	1.002519	7.37547e+06	-53389.1	1055.82	-29746.3	0.000000	0.000000	7.003109	-0.068568	NaN	0.000000	0.001588	0.001688	28.084	0.084024	0.001994	42.1373	-177.773	-164.594	-0.038881	1.001231	-0.166111	-0.167399	-0.068568	42.1373	-0.164891	-33.4494	0.002050	NaN
1065	1.000000	1.012526	7.37547e+06	-53389.1	1055.82	-29746.3	0.000000	0.000000	7.013117	-0.043346	NaN	0.000000	0.001542	0.001682	28.0837	0.085020	0.001955	43.494	-98.5081	13.3376	-0.059076	1.011198	-0.156104	-0.157432	-0.043346	43.494	-0.155357	-22.6464	0.001914	NaN
1065	1.000000	1.022552	7.37547e+06	-53389.1	1055.82	-29746.3	0.000000	0.000000	7.023141	-0.087573	NaN	0.000000	0.001545	0.001709	28.0839	0.075067	0.001962	38.2551	-85.7314	-170.861	-0.065317	1.021257	-0.146079	-0.147373	-0.087573	38.2551	-0.144362	-14.2675	0.006138	NaN
1065	1.000000	1.032542	7.37547e+06	-53389.1	1055.82	-29746.3	0.000000	0.000000	7.033137	0.030774	NaN	0.000000	0.001601	0.001663	28.0841	0.139423	0.001937	71.9928	151.189	14.7145	-0.080381	1.031258	-0.136088	-0.137372	0.030774	71.9928	-0.136408	-10.1184	-0.003041	NaN
1065	1.000000	1.042578	7.37547e+06	-53389.1	1055.82	-29746.3	0.000000	0.000000	7.043173	0.045909	NaN	0.000000	0.001577	0.001654	28.0841	0.045684	0.001910	23.9216	-162.49	-166.756	0.045550	1.041268	-0.126052	-0.127362	0.045909	23.9216	-0.127492	-6.808782	-0.006743	NaN
1065	1.000000	1.052568	7.37547e+06	-53389.1	1055.82	-29746.3	0.000000	0.000000	7.053162	0.015301	NaN	0.000000	0.001593	0.001652	28.084	0.073022	0.002094	34.8766	85.237	15.0775	-0.036389	1.051250	-0.116063	-0.117380	0.015301	34.8766	-0.116392	-4.080420	-0.003750	NaN
1065	1.000000	1.062580	7.37547e+06	-53389.1	1055.82	-29746.3	0.000000	0.000000	7.063168	-0.122365	NaN	0.000000	0.001570	0.001727	28.0841	0.056170	0.001990	28.2267	-32.2196	-167.724	-0.016350	1.061242	-0.106050	-0.107388	-0.122365	28.2267	-0.102799	-2.105514	0.058117	NaN
1065	1.000000	1.072572	7.37547e+06	-53389.1	1055.82	-29746.3	0.000000	0.000000	7.073166	0.019608	NaN	0.000000	0.001610	0.001662	28.0831	0.019018	0.002028	9.375518	-20.0019	11.9589	-0.028380	1.071242	-0.096058	-0.097388	0.019608	9.375518	-0.097627	-1.617452	-0.012123	NaN
1065	1.000000	1.082583	7.37547e+06	-53389.1	1055.82	-29746.3	0.000000	0.000000	7.083171	-0.124132	NaN	0.000000	0.001582	0.001705	28.0829	0.097347	0.002002	48.6329	-29.3157	-168.144	-0.101264	1.081302	-0.086047	-0.087328	-0.124132	48.6329	-0.084133	-0.782768	0.158581	NaN
1065	1.000000	1.092582	7.37547e+06	-53389.1	1055.82	-29746.3	0.000000	0.000000	7.093174	-0.041288	NaN	0.000000	0.001589	0.001657	28.083	0.075312	0.001951	38.6093	43.275	16.1334	0.095542	1.091237	-0.076048	-0.077393	-0.041288	38.6093	-0.075246	-0.468677	0.088095	NaN
1065	1.000000	1.102553	7.37547e+06	-53389.1	1055.82	-29746.3	0.000000	0.000000	7.103148	0.038593	NaN	0.000000	0.001590	0.001725	28.0835	0.115433	0.002019	57.1797	-4.271814	-165.329	-0.039718	1.101280	-0.066077	-0.067350	0.038593	57.1797	-0.066584	-0.275591	-0.140039	NaN
1065	1.000000	1.112577	7.37547e+06	-53389.1	1055.82	-29746.3	0.000000	0.000000	7.113169	-0.039102	NaN	0.000000	0.001564	0.001719	28.0827	0.073860	0.001897	38.9371	-130.255	13.1771	-0.054635	1.111248	-0.056053	-0.057382	-0.039102	38.9371	-0.055300	-0.131432	0.297509	NaN
1065	1.000000	1.122564	7.37547e+06	-53389.1	1055.82	-29746.3	0.000000	0.000000	7.123162	0.118856	NaN	0.000000	0.001562	0.001697	28.0831	0.005948	0.002090	2.845628	33.6947	-166.712	0.041015	1.121234	-0.046066	-0.047396	0.118856	2.845628	-0.077392	-0.531981	-0.223421	NaN
1065	1.000000	1.132588	7.37547e+06	-53389.1	1055.82	-29746.3	0.000000	0.000000	7.133182	-0.000885	NaN	0.000000	0.001547	0.001691	28.0828	0.028725	0.002062	13.9326	-102.84	12.3365	-0.107435	1.131288	-0.036042	-0.037342	-0.000885	13.9326	-0.035994	-0.034267	0.025830	NaN
1065	1.000000	1.142601	7.37547e+06	-53389.1	1055.82	-29746.3	0.000000	0.000000	7.143193	-0.027765	NaN	0.000000	0.001534	0.001661	28.0837	0.055325	0.002036	27.173	-29.8412	-166.726	0.001566	1.141342	-0.026029	-0.027288	-0.027765	27.173	-0.025263	-0.017140	1.619947	NaN
1065	1.000000	1.152620	7.37547e+06	-53389.1	1055.82	-29746.3	0.000000	0.000000	7.153212	-0.022851	NaN	0.000000	0.001553	0.001670	28.0829	0.005705	0.002024	2.819176	-102.47	14.5485	-0.015141	1.151309	-0.016010	-0.017321	-0.022851	2.819176	-0.009931	-0.006348	3.599606	NaN
1065	1.000000	1.162614	7.37547e+06	-53389.1	1055.82	-29746.3	0.000000	0.000000	7.163209	0.034439	NaN	0.000000	0.001504	0.001690	28.0832	0.178964	0.002004	89.3018	34.3205	-162.868	-0.052381	1.161316	-0.006016	-0.007314	0.034439	89.3018	-0.006305	-0.004222	-8.156948	NaN
1065	2.000000	1.172320	7.37547e+06	-53389.1	1055.82	-29746.3	0.000000	0.000000	7.173275	8.782754	NaN	0.000000	0.001520	0.001719	28.0831	8.316489	0.001645	5055.82	9.130024	9.877248	7.380565	1.171244	0.003690	0.002614	8.782754	5055.82	0.002387	0.001871	4695.2	106801
1065	2.000000	1.175157	7.37547e+06	-53389.1	1055.82	-29746.3	0.000000	0.000000	7.176242	11.95	NaN	0.000000	0.001528	0.001698	28.0836	10.6363	0.001630	6523.93	3.518997	-171.244	11.4857	1.174849	0.006527	0.006218	11.95	6523.93	0.005153	0.004274	2796.27	91177.3
1065	2.000000	1.177622	7.37547e+06	-53389.1	1055.82	-29746.3	0.000000	0.000000	7.178870	15.9156	NaN	0.000000	0.001538	0.001698	28.083	14.1633	0.001746	8112.98	6.278474	4.866839	16.3697	1.177307	0.008992	0.008677	15.9156	8112.98	0.007520	0.006554	2428.54	91561.9
1065	2.000000	1.180056	7.37547e+06	-53389.1	1055.82	-29746.3	0.000000	0.000000	7.181455	19.5739	NaN	0.000000	0.001557	0.001730	28.0831	16.3935	0.001696	9664.95	2.553259	-172.998	17.8122	1.179805	0.011426	0.011175	19.5739	9664.95	0.009907	0.009078	2156.09	92676.1
1065	2.000000	1.182627	7.37547e+06	-53389.1	1055.82	-29746.3	0.000000	0.000000	7.184320	26.734	NaN	0.000000	0.001566	0.001684	28.0841	19.2465	0.001654	11635.2	6.307267	2.322601	26.5288	1.182181	0.013997	0.013551	26.734	11635.2	0.012273	0.011819	2261.9	97780.6
1065	2.000000	1.185099	7.37547e+06	-53389.1	1055.82	-29746.3	0.000000	0.000000	7.187002	31.8374	NaN	0.000000	0.001544	0.001733	28.0842	21.935	0.001809	12127.5	6.273615	-177.738	31.4534	1.184799	0.016469	0.016169	31.8374	12127.5	0.014500	0.014625	2176.94	91621.8
1065	2.000000	1.187555	7.37547e+06	-53389.1	1055.82	-29746.3	0.000000	0.000000	7.189614	35.6376	NaN	0.000000	0.001578	0.001704	28.0843	24.2442	0.001838	13187.3	0.857393	7.010085	33.4093	1.187212	0.018925	0.018582	35.6376	13187.3	0.016898	0.017900	1990.88	90053.1
1065	2.000000	1.190107	7.37547e+06	-53389.1	1055.82	-29746.3	0.000000	0.000000	7.192557	45.1397	NaN	0.000000	0.001607	0.001656	28.0845	27.3935	0.001818	15069.4	6.014168	179.936	45.1233	1.189785	0.021477	0.021155	45.1397	15069.4	0.019230	0.021347	2114.53	94231.8
1065	2.000000	1.192580	7.37547e+06	-53389.1	1055.82	-29746.3	0.000000	0.000000	7.195311	51.97	NaN	0.000000	0.001591	0.001703	28.0848	29.018	0.001677	17305.1	6.590193	-0.529993	52.1821	1.192124	0.023950	0.023494	51.97	17305.1	0.021697	0.025280	2055.8	99439.9
1065	2.000000	1.195052	7.37547e+06	-53389.1	1055.82	-29746.3	0.000000	0.000000	7.198164	61.2211	NaN	0.000000	0.001575	0.001652	28.0846	30.9097	0.001824	16946.6	5.690042	179.874	60.1333	1.194763	0.026422	0.026133	61.2211	16946.6	0.023713	0.028715	2132.02	91369.4
1065	2.000000	1.197567	7.37547e+06	-53389.1	1055.82	-29746.3	0.000000	0.000000	7.200862	65.6763	NaN	0.000000	0.001572	0.001670	28.0845	33.4215	0.001771	18871.2	4.263698	0.390851	65.3492	1.197177	0.028937	0.028547	65.6763	18871.2	0.026327	0.033474	1962.02	94236.9
1065	2.000000	1.200024	7.37547e+06	-53389.1	1055.82	-29746.3	0.000000	0.000000	7.203622	73.0655	NaN	0.000000	0.001612	0.001680	28.0847	36.1209	0.001830	19735	4.827642	179.087	71.0178	1.199740	0.031394	0.031110	73.0655	19735	0.028617	0.037926	1926.53	92585.2
1065	2.000000	1.202528	7.37547e+06	-53389.1	1055.82	-29746.3	0.000000	0.000000	7.206446	80.8315	NaN	0.000000	0.001576	0.001706	28.0848	37.3457	0.001840	20300.3	5.284447	-0.552684	78.0173	1.202213	0.033898	0.033583	80.8315	20300.3	0.030912	0.042655	1895.02	89803.2
1065	2.000000	1.205044	7.37547e+06	-53389.1	1055.82	-29746.3	0.000000	0.000000	7.209285	88.6739	NaN	0.000000	0.001580	0.001678	28.0849	39.9088	0.001681	23740.7	5.470965	176.84	88.3323	1.204783	0.036414	0.036153	88.6739	23740.7	0.033613	0.048566	1825.86	98424.2
1065	2.000000	1.207588	7.37547e+06	-53389.1	1055.82	-29746.3	0.000000	0.000000	7.212200	97.6921	NaN	0.000000	0.001593	0.001680	28.0849	43.1417	0.001751	24635.1	5.745314	-3.880424	97.6347	1.207246	0.038958	0.038616	97.6921	24635.1	0.035984	0.054062	1807.04	96801.3
1065	2.000000	1.210023	7.37547e+06	-53389.1	1055.82	-29746.3	0.000000	0.000000	7.215086	108.659	NaN	0.000000	0.001531	0.001631	28.085	46.1022	0.001811	25451.7	6.306718	176.196	107.682	1.209669	0.041393	0.041039	108.659	25451.7	0.038191	0.059438	1828.12	95380.4
1065	2.000000	1.212533	7.37547e+06	-53389.1	1055.82	-29746.3	0.000000	0.000000	7.218049	119.679	NaN	0.000000	0.001517	0.001707	28.0846	47.863	0.001710	27995.1	4.213524	-3.223724	117.869	1.212257	0.043903	0.043627	119.679	27995.1	0.040697	0.065841	1817.7	99680
1065	2.000000	1.215020	7.37547e+06	-53389.1	1055.82	-29746.3	0.000000	0.000000	7.221067	132.589	NaN	0.000000	0.001556	0.001694	28.0843	50.3171	0.001776	28328.5	4.928849	176.314	131.89	1.214707	0.046390	0.046077	132.589	28328.5	0.042880	0.071682	1849.67	96669.7
1065	2.000000	1.217544	7.37547e+06	-53389.1	1055.82	-29746.3	0.000000	0.000000	7.224010	142.771	NaN	0.000000	0.001527	0.001702	28.0833	53.106	0.001917	27700.5	3.759066	-1.944517	142.181	1.217119	0.048914	0.048489	142.771	27700.5	0.045049	0.077726	1836.86	90777.6
1065	2.000000	1.219947	7.37547e+06	-53389.1	1055.82	-29746.3	0.000000	0.000000	7.226961	156.104	NaN	0.000000	0.001574	0.001690	28.0835	55.9073	0.001837	30431	6.751786	173.629	153.615	1.219699	0.051317	0.051069	156.104	30431	0.047470	0.084753	1841.87	95502.2
1065	2.000000	1.222485	7.37547e+06	-53389.1	1055.82	-29746.3	0.000000	0.000000	7.230334	176.397	NaN	0.000000	0.001567	0.001720	28.0833	56.4338	0.001667	33858.4	5.897623	-5.150516	171.833	1.222117	0.053855	0.053487	176.397	33858.4	0.049948	0.092252	1912.11	101848
1065	2.000000	1.225054	7.37547e+06	-53389.1	1055.82	-29746.3	0.000000	0.000000	7.233318	186.49	NaN	0.000000	0.001624	0.001735	28.0833	58.8887	0.001654	35605.8	2.758976	176.478	188.876	1.224737	0.056424	0.056107	186.49	35605.8	0.052496	0.100282	1859.65	102726
1065	2.000000	1.227391	7.37547e+06	-53389.1	1055.82	-29746.3	0.000000	0.000000	7.236227	200.384	NaN	0.000000	0.001598	0.001704	28.0834	61.1101	0.001666	36681.6	0.241979	-0.883586	193.518	1.227072	0.058761	0.058442	200.384	36681.6	0.054664	0.107373	1866.24	102276
1065	2.000000	1.229990	7.37547e+06	-53389.1	1055.82	-29746.3	0.000000	0.000000	7.239260	210.947	NaN	0.000000	0.001600	0.001651	28.0832	65.6523	0.001717	38247.3	5.122787	173.44	210.489	1.229639	0.061360	0.061009	210.947	38247.3	0.057224	0.116042	1817.86	102581
1065	2.000000	1.232483	7.37547e+06	-53389.1	1055.82	-29746.3	0.000000	0.000000	7.242186	221.475	NaN	0.000000	0.001587	0.001731	28.0833	67.477	0.001782	37863.9	4.137400	-5.738658	217.978	1.232184	0.063853	0.063554	221.475	37863.9	0.059466	0.123899	1787.54	98279.8
1065	2.000000	1.234950	7.37547e+06	-53389.1	1055.82	-29746.3	0.000000	0.000000	7.245694	246.788	NaN	0.000000	0.001534	0.001696	28.0833	69.1482	0.001753	39453.9	4.061682	174.968	243.152	1.234654	0.066320	0.066023	246.788	39453.9	0.061629	0.131714	1873.66	99322.1
1065	2.000000	1.237421	7.37547e+06	-53389.1	1055.82	-29746.3	0.000000	0.000000	7.248642	258.384	NaN	0.000000	0.001544	0.001699	28.0829	72.0034	0.001826	39435.3	5.229001	-6.699786	253.299	1.237076	0.068790	0.068446	258.384	39435.3	0.063876	0.140074	1844.62	96267.4
1065	2.000000	1.239993	7.37547e+06	-53389.1	1055.82	-29746.3	0.000000	0.000000	7.251668	269.417	NaN	0.000000	0.001590	0.001674	28.0834	75.0487	0.001820	41246.8	3.784758	174.285	268.961	1.239694	0.071363	0.071064	269.417	41246.8	0.066464	0.150004	1796.07	97300
1065	2.000000	1.242553	7.37547e+06	-53389.1	1055.82	-29746.3	0.000000	0.000000	7.255019	288.664	NaN	0.000000	0.001567	0.001686	28.0834	77.2528	0.001789	43172.4	6.388656	-7.456093	290.586	1.242036	0.073923	0.073406	288.664	43172.4	0.068908	0.159675	1807.82	98710.1
1065	2.000000	1.244954	7.37547e+06	-53389.1	1055.82	-29746.3	0.000000	0.000000	7.257901	300.357	NaN	0.000000	0.001551	0.001676	28.0836	79.5684	0.001862	42733.6	3.395628	174.68	296.996	1.244644	0.076324	0.076014	300.357	42733.6	0.071052	0.168395	1783.64	95143.2
1065	2.000000	1.247446	7.37547e+06	-53389.1	1055.82	-29746.3	0.000000	0.000000	7.261063	316.626	NaN	0.000000	0.001598	0.001660	28.0839	81.1612	0.001709	47498.4	2.061238	-4.642499	312.392	1.247091	0.078816	0.078461	316.626	47498.4	0.073817	0.179959	1759.43	102297
1065	2.000000	1.250044	7.37547e+06	-53389.1	1055.82	-29746.3	0.000000	0.000000	7.264199	329.718	NaN	0.000000	0.001569	0.001668	28.0846	85.0446	0.001767	48122.9	4.888212	171.984	332.745	1.249755	0.081414	0.081125	329.718	48122.9	0.076275	0.190548	1730.36	100722
1065	2.000000	1.252467	7.37547e+06	-53389.1	1055.82	-29746.3	0.000000	0.000000	7.267650	354.724	NaN	0.000000	0.001551	0.001684	28.0848	86.0251	0.001790	48056.1	4.790781	-7.476647	350.446	1.252169	0.083837	0.083539	354.724	48056.1	0.078300	0.199483	1778.22	98303.6
1065	2.000000	1.254995	7.37547e+06	-53389.1	1055.82	-29746.3	0.000000	0.000000	7.270991	374.469	NaN	0.000000	0.001521	0.001679	28.0849	89.7973	0.001814	49495.4	9.946750	167.553	373.973	1.254577	0.086365	0.085947	374.469	49495.4	0.080691	0.210274	1780.86	98615.4
1065	2.000000	1.257475	7.37547e+06	-53389.1	1055.82	-29746.3	0.000000	0.000000	7.274159	391.183	NaN	0.000000	0.001554	0.001670	28.0848	91.6517	0.001841	49770.3	7.578657	-10.8644	388.655	1.257237	0.088845	0.088607	391.183	49770.3	0.082951	0.220722	1772.29	96787.9
1065	2.000000	1.259864	7.37547e+06	-53389.1	1055.82	-29746.3	0.000000	0.000000	7.277306	409.637	NaN	0.000000	0.001549	0.001670	28.0846	94.0728	0.001845	50985.5	5.054188	171.288	402.866	1.259710	0.091234	0.091080	409.637	50985.5	0.085208	0.231395	1770.29	96837.2
1065	2.000000	1.262402	7.37547e+06	-53389.1	1055.82	-29746.3	0.000000	0.000000	7.280950	436.518	NaN	0.000000	0.001513	0.001674	28.0851	94.8416	0.001754	54074.3	4.859469	-8.307594	430.748	1.262102	0.093772	0.093472	436.518	54074.3	0.087717	0.243535	1792.43	100111
1065	2.000000	1.265064	7.37547e+06	-53389.1	1055.82	-29746.3	0.000000	0.000000	7.284074	447.753	NaN	0.000000	0.001522	0.001661	28.0849	97.3496	0.001791	54350.5	5.630283	171.374	454.511	1.264622	0.096434	0.095992	447.753	54350.5	0.090256	0.256109	1748.3	98121.7
1065	2.000000	1.267415	7.37547e+06	-53389.1	1055.82	-29746.3	0.000000	0.000000	7.287291	468.799	NaN	0.000000	0.001531	0.001678	28.085	98.72	0.001689	58460.1	0.574569	-4.901360	461.416	1.267129	0.098785	0.098499	468.799	58460.1	0.092771	0.268861	1743.65	103007
1065	2.000000	1.269992	7.37547e+06	-53389.1	1055.82	-29746.3	0.000000	0.000000	7.290836	492.359	NaN	0.000000	0.001518	0.001662	28.0847	104.372	0.001813	57576	6.909164	169.711	492.795	1.269619	0.101362	0.100989	492.359	57576	0.094948	0.280133	1757.59	99387.8
1065	2.000000	1.270857	7.37547e+06	-53389.1	1055.82	-29746.3	0.000000	0.000000	7.292046	500.747	NaN	0.000000	0.001531	0.001645	28.0845	102.99	0.001784	57730	1.146958	175.08	494.534	1.270585	0.102227	0.101955	500.747	57730	0.095721	0.284186	1762.04	98940.2