File: remote_trans/data/nanoindenter/0828-1/data/Data_2025-08-06,11h17m57s/2025-07-22_16-23-58_1_638.txt
2025-07-22, 16:23:58, 1
Index	Phase	Displacement	Time	Pos X	Pos Y	Pos Z	Rot A	Rot B	Piezo Z	Force A	Force B	Gripper	Voltage A	Voltage B	Temperature	Amplitude force	Amplitude pos	Stiffness	Phase shift	Phase excitation	Force A raw	Displacement raw	HMax	HMax raw	Real Force	Real Stiffness	Contact Depth	Area	Hardness	Reduced Mod.
[#]	[#]	[um]	[s]	[um]	[um]	[um]	[m°]	[m°]	[um]	[uN]	[uN]	[V]	[V]	[V]	[°C]	[uN]	[um]	[N/m]	[°]	[°]	[uN]	[um]	[um]	[um]	[uN]	[N/m]	[um]	[um^2]	[MPa]	[MPa]
638	1.000000	0.001927	7.37129e+06	-45189.1	1005.82	-29773.2	0.000000	0.000000	6.002822	0.007138	NaN	0.000000	0.001738	0.001677	28.0836	0.052140	0.001077	48.3971	-169.079	-159.239	0.040094	0.000677	-1.122288	-1.123538	0.007138	48.3971	-1.122399	-1.001507E+15	-7.127515E-18	NaN
638	1.000000	0.011962	7.37129e+06	-45189.1	1005.82	-29773.2	0.000000	0.000000	6.012856	-0.006257	NaN	0.000000	0.001742	0.001689	28.0835	0.033758	0.001111	30.3923	69.2574	12.9813	-0.048061	0.010494	-1.112253	-1.113721	-0.006257	30.3923	-1.112098	-7.285297E+14	8.588561E-18	NaN
638	1.000000	0.021841	7.37129e+06	-45189.1	1005.82	-29773.2	0.000000	0.000000	6.022736	0.018513	NaN	0.000000	0.001669	0.001668	28.0832	0.050262	0.001807	27.8154	154.515	-163.767	0.047499	0.020536	-1.102374	-1.103679	0.018513	27.8154	-1.102873	-5.478143E+14	-3.379339E-17	NaN
638	1.000000	0.031865	7.37129e+06	-45189.1	1005.82	-29773.2	0.000000	0.000000	6.032760	0.019123	NaN	0.000000	0.001674	0.001639	28.0832	0.065751	0.001905	34.506	14.8903	11.8065	0.002217	0.030460	-1.092350	-1.093755	0.019123	34.506	-1.092765	-4.008141E+14	-4.770923E-17	NaN
638	1.000000	0.041832	7.37129e+06	-45189.1	1005.82	-29773.2	0.000000	0.000000	6.042726	-0.013935	NaN	0.000000	0.001673	0.001655	28.0833	0.082540	0.001933	42.6925	24.3953	-165.593	-0.075985	0.040492	-1.082383	-1.083722	-0.013935	42.6925	-1.082138	-2.885568E+14	4.829269E-17	NaN
638	1.000000	0.051847	7.37129e+06	-45189.1	1005.82	-29773.2	0.000000	0.000000	6.052741	-0.006623	NaN	0.000000	0.001665	0.001684	28.0833	0.095603	0.001969	48.5585	-82.7034	17.7456	0.067042	0.050535	-1.072368	-1.073680	-0.006623	48.5585	-1.072266	-2.126311E+14	3.114922E-17	NaN
638	1.000000	0.061819	7.37129e+06	-45189.1	1005.82	-29773.2	0.000000	0.000000	6.062712	-0.045833	NaN	0.000000	0.001648	0.001732	28.0832	0.128219	0.001931	66.4067	-56.536	-169.924	-0.014824	0.060531	-1.062396	-1.063684	-0.045833	66.4067	-1.061878	-1.541905E+14	2.972502E-16	NaN
638	1.000000	0.071854	7.37129e+06	-45189.1	1005.82	-29773.2	0.000000	0.000000	6.072748	-0.013040	NaN	0.000000	0.001670	0.001738	28.0831	0.131054	0.001934	67.769	-87.9076	11.9223	-0.087728	0.070546	-1.052361	-1.053669	-0.013040	67.769	-1.052217	-1.143440E+14	1.140451E-16	NaN
638	1.000000	0.081868	7.37129e+06	-45189.1	1005.82	-29773.2	0.000000	0.000000	6.082762	-0.011530	NaN	0.000000	0.001653	0.001733	28.0833	0.097443	0.002012	48.4195	-56.7125	-164.576	0.042967	0.080549	-1.042347	-1.043666	-0.011530	48.4195	-1.042169	-8.377744E+13	1.376236E-16	NaN
638	1.000000	0.091882	7.37129e+06	-45189.1	1005.82	-29773.2	0.000000	0.000000	6.092778	0.033010	NaN	0.000000	0.001656	0.001709	28.0832	0.059092	0.001966	30.0615	83.4919	16.8095	-0.007922	0.090470	-1.032333	-1.033745	0.033010	30.0615	-1.033157	-6.337815E+13	-5.208352E-16	NaN
638	1.000000	0.101859	7.37129e+06	-45189.1	1005.82	-29773.2	0.000000	0.000000	6.102754	0.012150	NaN	0.000000	0.001658	0.001696	28.083	0.007265	0.002115	3.435168	-2.912542	-162.942	-0.045747	0.100479	-1.022356	-1.023736	0.012150	3.435168	-1.025009	-4.924218E+13	-2.467488E-16	NaN
638	1.000000	0.111857	7.37129e+06	-45189.1	1005.82	-29773.2	0.000000	0.000000	6.112754	0.040010	NaN	0.000000	0.001645	0.001697	28.0822	0.082032	0.001986	41.3074	-50.4787	17.648	-0.000552	0.110466	-1.012357	-1.013749	0.040010	41.3074	-1.013084	-3.403184E+13	-1.175663E-15	NaN
638	1.000000	0.121883	7.37129e+06	-45189.1	1005.82	-29773.2	0.000000	0.000000	6.122777	-0.006162	NaN	0.000000	0.001665	0.001677	28.0828	0.028041	0.001969	14.2431	151.166	-168.262	0.102004	0.120567	-1.002332	-1.003648	-0.006162	14.2431	-1.002008	-2.414346E+13	2.552235E-16	NaN
638	1.000000	0.131879	7.37129e+06	-45189.1	1005.82	-29773.2	0.000000	0.000000	6.132771	-0.051459	NaN	0.000000	0.001689	0.001684	28.0823	0.109432	0.002044	53.5293	71.8467	13.0468	-0.051889	0.130566	-0.992336	-0.993648	-0.051459	53.5293	-0.991615	-1.749305E+13	2.941676E-15	NaN
638	1.000000	0.141883	7.37129e+06	-45189.1	1005.82	-29773.2	0.000000	0.000000	6.142778	0.025470	NaN	0.000000	0.001738	0.001737	28.0821	0.077103	0.001961	39.318	-118.411	-168.289	0.013409	0.140604	-0.982332	-0.983611	0.025470	39.318	-0.982818	-1.331601E+13	-1.912726E-15	NaN
638	1.000000	0.151908	7.37129e+06	-45189.1	1005.82	-29773.2	0.000000	0.000000	6.152804	0.034601	NaN	0.000000	0.001704	0.001720	28.0826	0.031995	0.002123	15.0697	-23.1262	11.5543	0.074858	0.150506	-0.972307	-0.973709	0.034601	15.0697	-0.974029	-1.013805E+13	-3.413014E-15	NaN
638	1.000000	0.161887	7.37129e+06	-45189.1	1005.82	-29773.2	0.000000	0.000000	6.162784	0.038148	NaN	0.000000	0.001696	0.001697	28.0827	0.074145	0.001919	38.6398	-71.8159	-168.814	0.065974	0.160604	-0.962328	-0.963611	0.038148	38.6398	-0.963068	-7.214874E+12	-5.287471E-15	NaN
638	1.000000	0.171906	7.37129e+06	-45189.1	1005.82	-29773.2	0.000000	0.000000	6.172804	0.062743	NaN	0.000000	0.001692	0.001697	28.0827	0.074176	0.001995	37.1851	-94.8389	13.5375	-0.023712	0.170556	-0.952308	-0.953659	0.062743	37.1851	-0.953574	-5.373080E+12	-1.167723E-14	NaN
638	1.000000	0.181913	7.37129e+06	-45189.1	1005.82	-29773.2	0.000000	0.000000	6.182807	-0.004534	NaN	0.000000	0.001696	0.001636	28.0827	0.106406	0.001971	53.9929	-111.44	-166	-0.049693	0.180600	-0.942302	-0.943615	-0.004534	53.9929	-0.942239	-3.778700E+12	1.199907E-15	NaN
638	1.000000	0.191913	7.37129e+06	-45189.1	1005.82	-29773.2	0.000000	0.000000	6.192809	0.026331	NaN	0.000000	0.001671	0.001663	28.0826	0.088655	0.002166	40.9297	-99.1191	13.6716	0.087596	0.190545	-0.932302	-0.933670	0.026331	40.9297	-0.932784	-2.816918E+12	-9.347449E-15	NaN
638	1.000000	0.201915	7.37129e+06	-45189.1	1005.82	-29773.2	0.000000	0.000000	6.202814	0.108159	NaN	0.000000	0.001648	0.001668	28.0824	0.059116	0.001931	30.6194	-161.494	-164.925	-0.019641	0.200585	-0.922300	-0.923630	0.108159	30.6194	-0.924949	-2.208133E+12	-4.898216E-14	NaN
638	1.000000	0.211897	7.37129e+06	-45189.1	1005.82	-29773.2	0.000000	0.000000	6.212788	-0.100874	NaN	0.000000	0.001700	0.001664	28.0823	0.019280	0.002038	9.458563	-98.1385	14.5397	-0.036523	0.210579	-0.912317	-0.913636	-0.100874	9.458563	-0.904319	-1.162566E+12	8.676832E-14	NaN
638	1.000000	0.221904	7.37129e+06	-45189.1	1005.82	-29773.2	0.000000	0.000000	6.222799	0.023152	NaN	0.000000	0.001675	0.001640	28.0825	0.116165	0.001889	61.4827	-157.081	-167.798	-0.012346	0.220561	-0.902311	-0.903654	0.023152	61.4827	-0.902593	-1.101812E+12	-2.101247E-14	NaN
638	1.000000	0.231961	7.37129e+06	-45189.1	1005.82	-29773.2	0.000000	0.000000	6.232855	-0.034011	NaN	0.000000	0.001673	0.001672	28.0827	0.141601	0.001964	72.0901	86.7979	13.245	0.066452	0.230617	-0.892253	-0.893597	-0.034011	72.0901	-0.891900	-7.899359E+11	4.305487E-14	NaN
638	1.000000	0.241921	7.37129e+06	-45189.1	1005.82	-29773.2	0.000000	0.000000	6.242816	0.013688	NaN	0.000000	0.001681	0.001658	28.0836	0.099343	0.002047	48.5377	148.552	-168.107	0.008779	0.240579	-0.882294	-0.883635	0.013688	48.5377	-0.882505	-5.896406E+11	-2.321388E-14	NaN
638	1.000000	0.251930	7.37129e+06	-45189.1	1005.82	-29773.2	0.000000	0.000000	6.252826	0.034950	NaN	0.000000	0.001688	0.001616	28.0836	0.057919	0.002016	28.7253	-58.0535	9.619535	0.077071	0.250579	-0.872285	-0.873636	0.034950	28.7253	-0.873197	-4.412619E+11	-7.920363E-14	NaN
638	1.000000	0.261949	7.37129e+06	-45189.1	1005.82	-29773.2	0.000000	0.000000	6.262841	-0.067416	NaN	0.000000	0.001672	0.001628	28.0839	0.039908	0.001928	20.7028	-30.7091	-167.137	-0.042594	0.260706	-0.862266	-0.863509	-0.067416	20.7028	-0.859824	-2.908947E+11	2.317523E-13	NaN
638	1.000000	0.271950	7.37129e+06	-45189.1	1005.82	-29773.2	0.000000	0.000000	6.272845	-0.006458	NaN	0.000000	0.001641	0.001638	28.0837	0.050247	0.001933	26.0006	-163.493	13.2679	-0.063784	0.270573	-0.852265	-0.853642	-0.006458	26.0006	-0.852078	-2.284972E+11	2.826140E-14	NaN
638	1.000000	0.281959	7.37129e+06	-45189.1	1005.82	-29773.2	0.000000	0.000000	6.282854	0.014576	NaN	0.000000	0.001657	0.001630	28.0837	0.093223	0.002056	45.3511	-27.4061	-167.009	0.008693	0.280599	-0.842256	-0.843616	0.014576	45.3511	-0.842497	-1.694789E+11	-8.600711E-14	NaN
638	1.000000	0.291964	7.37129e+06	-45189.1	1005.82	-29773.2	0.000000	0.000000	6.292860	0.030553	NaN	0.000000	0.001603	0.001646	28.0837	0.036302	0.001994	18.2042	69.8968	11.6905	0.006573	0.290614	-0.832250	-0.833601	0.030553	18.2042	-0.833509	-1.280397E+11	-2.386191E-13	NaN
638	1.000000	0.301954	7.37129e+06	-45189.1	1005.82	-29773.2	0.000000	0.000000	6.302847	-0.038314	NaN	0.000000	0.001629	0.001663	28.084	0.049143	0.001933	25.421	68.1271	-165.291	-0.061899	0.300675	-0.822261	-0.823540	-0.038314	25.421	-0.821130	-8.700367E+10	4.403767E-13	NaN
638	1.000000	0.311975	7.37129e+06	-45189.1	1005.82	-29773.2	0.000000	0.000000	6.312869	-0.006293	NaN	0.000000	0.001640	0.001634	28.0836	0.080998	0.002013	40.2462	-94.4536	15.4721	0.057429	0.310584	-0.812240	-0.813631	-0.006293	40.2462	-0.812123	-6.567008E+10	9.582635E-14	NaN
638	1.000000	0.321982	7.37129e+06	-45189.1	1005.82	-29773.2	0.000000	0.000000	6.322874	-0.058431	NaN	0.000000	0.001646	0.001668	28.0833	0.054879	0.001958	28.0321	110.944	-165.211	-0.080217	0.320633	-0.802233	-0.803582	-0.058431	28.0321	-0.800670	-4.591511E+10	1.272580E-12	NaN
638	1.000000	0.331969	7.37129e+06	-45189.1	1005.82	-29773.2	0.000000	0.000000	6.332864	0.009671	NaN	0.000000	0.001706	0.001673	28.0835	0.093063	0.001861	50.0022	-7.639347	10.9504	0.016957	0.330606	-0.792246	-0.793609	0.009671	50.0022	-0.792391	-3.544465E+10	-2.728457E-13	NaN
638	1.000000	0.341937	7.37129e+06	-45189.1	1005.82	-29773.2	0.000000	0.000000	6.342832	0.006261	NaN	0.000000	0.001695	0.001659	28.0835	0.104809	0.001924	54.4697	-60.0979	-165.205	0.085413	0.340670	-0.782277	-0.783545	0.006261	54.4697	-0.782364	-2.590294E+10	-2.417195E-13	NaN
638	1.000000	0.351960	7.37129e+06	-45189.1	1005.82	-29773.2	0.000000	0.000000	6.352859	0.119925	NaN	0.000000	0.001759	0.001675	28.0833	0.062354	0.001986	31.4044	-44.7591	16.566	0.011849	0.350633	-0.772255	-0.773581	0.119925	31.4044	-0.775119	-2.064902E+10	-5.807781E-12	NaN
638	1.000000	0.362002	7.37129e+06	-45189.1	1005.82	-29773.2	0.000000	0.000000	6.362897	0.032685	NaN	0.000000	0.001648	0.001679	28.0833	0.107986	0.001966	54.9336	-42.9944	-166.526	-0.025652	0.360692	-0.762213	-0.763523	0.032685	54.9336	-0.762660	-1.397916E+10	-2.338151E-12	NaN
638	1.000000	0.371968	7.37129e+06	-45189.1	1005.82	-29773.2	0.000000	0.000000	6.372865	0.042243	NaN	0.000000	0.001644	0.001651	28.0836	0.055844	0.002115	26.4097	119.366	14.7164	0.014633	0.370643	-0.752246	-0.753572	0.042243	26.4097	-0.753446	-1.047426E+10	-4.033028E-12	NaN
638	1.000000	0.381996	7.37129e+06	-45189.1	1005.82	-29773.2	0.000000	0.000000	6.382892	0.016442	NaN	0.000000	0.001636	0.001651	28.0822	0.074853	0.001897	39.4582	-113.475	-167.22	0.069255	0.380680	-0.742218	-0.743535	0.016442	39.4582	-0.742531	-7.439199E+9	-2.210224E-12	NaN
638	1.000000	0.391994	7.37129e+06	-45189.1	1005.82	-29773.2	0.000000	0.000000	6.392889	-0.002013	NaN	0.000000	0.001690	0.001641	28.0824	0.017635	0.001982	8.897405	41.074	16.0861	-0.028572	0.390655	-0.732220	-0.733560	-0.002013	8.897405	-0.732051	-5.354945E+9	3.759698E-13	NaN
638	1.000000	0.401980	7.37129e+06	-45189.1	1005.82	-29773.2	0.000000	0.000000	6.402873	-0.057666	NaN	0.000000	0.001731	0.001666	28.0822	0.055175	0.002006	27.5028	70.7632	-163.989	0.042573	0.400710	-0.722235	-0.723505	-0.057666	27.5028	-0.720662	-3.745425E+9	1.539650E-11	NaN
638	1.000000	0.412001	7.37129e+06	-45189.1	1005.82	-29773.2	0.000000	0.000000	6.412896	0.012359	NaN	0.000000	0.001730	0.001681	28.0827	0.060598	0.001991	30.4399	71.7203	12.911	-0.054431	0.410635	-0.712214	-0.713580	0.012359	30.4399	-0.712519	-2.900128E+9	-4.261672E-12	NaN
638	1.000000	0.422052	7.37129e+06	-45189.1	1005.82	-29773.2	0.000000	0.000000	6.422948	0.048716	NaN	0.000000	0.001713	0.001650	28.0822	0.107522	0.001973	54.4997	109.957	-165.092	0.036383	0.420716	-0.702163	-0.703499	0.048716	54.4997	-0.702833	-2.139057E+9	-2.277459E-11	NaN
638	1.000000	0.432000	7.37129e+06	-45189.1	1005.82	-29773.2	0.000000	0.000000	6.432897	0.060194	NaN	0.000000	0.001725	0.001669	28.0826	0.080030	0.001983	40.3605	49.2951	12.2406	0.033444	0.430622	-0.692214	-0.693593	0.060194	40.3605	-0.693333	-1.586581E+9	-3.793934E-11	NaN
638	1.000000	0.441964	7.37129e+06	-45189.1	1005.82	-29773.2	0.000000	0.000000	6.442859	0.011135	NaN	0.000000	0.001700	0.001710	28.082	0.079065	0.001962	40.2955	-98.7362	-165.721	0.030155	0.440716	-0.682251	-0.683499	0.011135	40.2955	-0.682458	-1.126743E+9	-9.882135E-12	NaN
638	1.000000	0.452041	7.37129e+06	-45189.1	1005.82	-29773.2	0.000000	0.000000	6.452934	-0.024577	NaN	0.000000	0.001721	0.001678	28.0825	0.082327	0.001977	41.6491	-15.0451	11.1107	-0.115453	0.450677	-0.672174	-0.673538	-0.024577	41.6491	-0.671732	-8.036924E+8	3.057991E-11	NaN
638	1.000000	0.462018	7.37129e+06	-45189.1	1005.82	-29773.2	0.000000	0.000000	6.462912	-0.005112	NaN	0.000000	0.001718	0.001723	28.0821	0.050680	0.001882	26.9323	139.629	-169.079	0.056324	0.460717	-0.662197	-0.663498	-0.005112	26.9323	-0.662055	-5.923936E+8	8.629490E-12	NaN
638	1.000000	0.472033	7.37129e+06	-45189.1	1005.82	-29773.2	0.000000	0.000000	6.472929	0.026254	NaN	0.000000	0.001691	0.001690	28.0821	0.019471	0.001918	10.1543	-178.611	8.817871	-0.056130	0.470703	-0.652182	-0.653512	0.026254	10.1543	-0.654121	-4.612314E+8	-5.692217E-11	NaN
638	1.000000	0.482043	7.37129e+06	-45189.1	1005.82	-29773.2	0.000000	0.000000	6.482937	-0.011091	NaN	0.000000	0.001704	0.001687	28.082	0.083943	0.001948	43.0957	28.3027	-166.607	-0.078089	0.480759	-0.642172	-0.643455	-0.011091	43.0957	-0.641979	-3.143726E+8	3.527970E-11	NaN
638	1.000000	0.492059	7.37129e+06	-45189.1	1005.82	-29773.2	0.000000	0.000000	6.492955	0.024781	NaN	0.000000	0.001688	0.001662	28.082	0.104714	0.001997	52.4466	108.859	13.661	-0.040252	0.490644	-0.632156	-0.633571	0.024781	52.4466	-0.632510	-2.330709E+8	-1.063241E-10	NaN
638	1.000000	0.502072	7.37129e+06	-45189.1	1005.82	-29773.2	0.000000	0.000000	6.502967	0.011921	NaN	0.000000	0.001717	0.001713	28.0822	0.027530	0.002039	13.5031	-81.4511	-169.547	-0.002337	0.500720	-0.622143	-0.623495	0.011921	13.5031	-0.622805	-1.714710E+8	-6.952316E-11	NaN
638	1.000000	0.512057	7.37129e+06	-45189.1	1005.82	-29773.2	0.000000	0.000000	6.512953	0.044866	NaN	0.000000	0.001692	0.001709	28.0828	0.033591	0.001979	16.9714	62.2465	12.0291	-0.018137	0.510673	-0.612158	-0.613542	0.044866	16.9714	-0.614141	-1.303384E+8	-3.442260E-10	NaN
638	1.000000	0.522060	7.37129e+06	-45189.1	1005.82	-29773.2	0.000000	0.000000	6.522954	-0.023752	NaN	0.000000	0.001735	0.001709	28.0834	0.038977	0.002015	19.3464	10.0752	-164.636	-0.047178	0.520746	-0.602155	-0.603468	-0.023752	19.3464	-0.601234	-8.658661E+7	2.743199E-10	NaN
638	1.000000	0.532064	7.37129e+06	-45189.1	1005.82	-29773.2	0.000000	0.000000	6.532958	0.002455	NaN	0.000000	0.001682	0.001704	28.083	0.093294	0.001894	49.2653	56.6219	15.6516	-0.015705	0.530700	-0.592151	-0.593515	0.002455	49.2653	-0.592189	-6.498871E+7	-3.777100E-11	NaN
638	1.000000	0.542051	7.37129e+06	-45189.1	1005.82	-29773.2	0.000000	0.000000	6.542946	0.018285	NaN	0.000000	0.001716	0.001704	28.0831	0.090128	0.002044	44.1023	-177.764	-166.813	-0.009450	0.540802	-0.582164	-0.583413	0.018285	44.1023	-0.582475	-4.774020E+7	-3.830088E-10	NaN
638	1.000000	0.552076	7.37129e+06	-45189.1	1005.82	-29773.2	0.000000	0.000000	6.552971	0.031652	NaN	0.000000	0.001717	0.001684	28.0832	0.032946	0.002077	15.8654	81.0524	14.0149	-0.013291	0.550655	-0.572139	-0.573560	0.031652	15.8654	-0.573636	-3.604584E+7	-8.781019E-10	NaN
638	1.000000	0.562058	7.37129e+06	-45189.1	1005.82	-29773.2	0.000000	0.000000	6.562953	0.022346	NaN	0.000000	0.001727	0.001653	28.0833	0.027678	0.002046	13.5247	107.094	-167.333	-0.033375	0.560729	-0.562157	-0.563486	0.022346	13.5247	-0.563396	-2.602271E+7	-8.587002E-10	NaN
638	1.000000	0.572047	7.37129e+06	-45189.1	1005.82	-29773.2	0.000000	0.000000	6.572942	0.017808	NaN	0.000000	0.001740	0.001649	28.0833	0.079254	0.002091	37.91	13.469	16.9142	0.077643	0.570704	-0.552168	-0.553511	0.017808	37.91	-0.552520	-1.840171E+7	-9.677349E-10	NaN
638	1.000000	0.582072	7.37129e+06	-45189.1	1005.82	-29773.2	0.000000	0.000000	6.582965	-0.050352	NaN	0.000000	0.001703	0.001685	28.0833	0.096925	0.002002	48.4046	43.5415	-163.586	0.027119	0.580763	-0.542143	-0.543452	-0.050352	48.4046	-0.541363	-1.289008E+7	3.906289E-9	NaN
638	1.000000	0.592091	7.37129e+06	-45189.1	1005.82	-29773.2	0.000000	0.000000	6.592987	0.026567	NaN	0.000000	0.001710	0.001695	28.0835	0.049721	0.002035	24.433	-44.3233	15.8906	-0.023686	0.590671	-0.532124	-0.533544	0.026567	24.433	-0.532939	-9.84887e+06	-2.697469E-9	NaN
638	1.000000	0.602101	7.37129e+06	-45189.1	1005.82	-29773.2	0.000000	0.000000	6.602994	-0.018824	NaN	0.000000	0.001716	0.001691	28.0833	0.056106	0.002052	27.3382	-179.124	-166.447	-0.001633	0.600790	-0.522114	-0.523425	-0.018824	27.3382	-0.521598	-6.852e+06	2.747214E-9	NaN
638	1.000000	0.612062	7.37129e+06	-45189.1	1005.82	-29773.2	0.000000	0.000000	6.612959	0.041617	NaN	0.000000	0.001700	0.001654	28.0833	0.068646	0.002017	34.033	38.9503	15.2925	-0.062339	0.610753	-0.512153	-0.513462	0.041617	34.033	-0.513070	-5.21391e+06	-7.981836E-9	NaN
638	1.000000	0.622093	7.37129e+06	-45189.1	1005.82	-29773.2	0.000000	0.000000	6.622987	-0.007412	NaN	0.000000	0.001734	0.001642	28.0832	0.016187	0.001944	8.326586	-156.994	-168.519	0.023745	0.620751	-0.502122	-0.503464	-0.007412	8.326586	-0.501454	-3.59171e+06	2.063691E-9	NaN
638	1.000000	0.632116	7.37129e+06	-45189.1	1005.82	-29773.2	0.000000	0.000000	6.633011	0.012125	NaN	0.000000	0.001716	0.001687	28.0833	0.070281	0.002063	34.0705	-143.42	12.3233	-0.013602	0.630721	-0.492099	-0.493494	0.012125	34.0705	-0.492366	-2.68194e+06	-4.520813E-9	NaN
638	1.000000	0.642102	7.37129e+06	-45189.1	1005.82	-29773.2	0.000000	0.000000	6.642996	-0.010464	NaN	0.000000	0.001748	0.001674	28.0833	0.086285	0.001977	43.6548	-157.046	-168.512	0.014627	0.640804	-0.482113	-0.483411	-0.010464	43.6548	-0.481933	-1.91683e+06	5.458760E-9	NaN
638	1.000000	0.652094	7.37129e+06	-45189.1	1005.82	-29773.2	0.000000	0.000000	6.652989	-0.000203	NaN	0.000000	0.001699	0.001675	28.0819	0.161958	0.001924	84.1563	-11.1116	14.3364	-0.009546	0.650787	-0.472120	-0.473428	-0.000203	84.1563	-0.472119	-1.39674e+06	1.450069E-10	NaN
638	1.000000	0.662097	7.37129e+06	-45189.1	1005.82	-29773.2	0.000000	0.000000	6.662994	0.040665	NaN	0.000000	0.001746	0.001627	28.0823	0.071505	0.002043	34.9929	16.8824	-163.001	0.027090	0.660832	-0.462117	-0.463383	0.040665	34.9929	-0.462989	-1.03994e+06	-3.910333E-8	NaN
638	1.000000	0.672098	7.37129e+06	-45189.1	1005.82	-29773.2	0.000000	0.000000	6.672992	-0.003638	NaN	0.000000	0.001736	0.001657	28.0819	0.044160	0.002017	21.8904	7.836720	14.6318	0.000778	0.670782	-0.452117	-0.453433	-0.003638	21.8904	-0.451992	-728437	4.994778E-9	NaN
638	1.000000	0.682113	7.37129e+06	-45189.1	1005.82	-29773.2	0.000000	0.000000	6.683008	-0.006807	NaN	0.000000	0.001699	0.001668	28.0822	0.065291	0.002000	32.6427	-92.0749	-167.828	-0.064226	0.680792	-0.442102	-0.443423	-0.006807	32.6427	-0.441945	-525788	1.294628E-8	NaN
638	1.000000	0.692125	7.37129e+06	-45189.1	1005.82	-29773.2	0.000000	0.000000	6.693018	-0.025839	NaN	0.000000	0.001714	0.001620	28.0821	0.009527	0.001972	4.831547	0.698582	12.4385	0.030958	0.690760	-0.432090	-0.433455	-0.025839	4.831547	-0.428079	-334874	7.716040E-8	NaN
638	1.000000	0.702126	7.37129e+06	-45189.1	1005.82	-29773.2	0.000000	0.000000	6.703019	-0.034769	NaN	0.000000	0.001697	0.001661	28.0827	0.042404	0.002008	21.12	-11.9836	-164.354	-0.065321	0.700862	-0.422089	-0.423353	-0.034769	21.12	-0.420854	-264561	1.314200E-7	NaN
638	1.000000	0.712122	7.37129e+06	-45189.1	1005.82	-29773.2	0.000000	0.000000	6.713017	-0.004129	NaN	0.000000	0.001708	0.001654	28.0821	0.139929	0.002015	69.4585	66.4737	17.0695	-0.019144	0.710772	-0.412093	-0.413443	-0.004129	69.4585	-0.412048	-198388	2.081496E-8	NaN
638	1.000000	0.722149	7.37129e+06	-45189.1	1005.82	-29773.2	0.000000	0.000000	6.723043	-0.015517	NaN	0.000000	0.001727	0.001623	28.0821	0.194064	0.001987	97.6905	83.1444	-167.555	-0.038859	0.720817	-0.402066	-0.403398	-0.015517	97.6905	-0.401947	-142478	1.089048E-7	NaN
638	1.000000	0.732134	7.37129e+06	-45189.1	1005.82	-29773.2	0.000000	0.000000	6.733028	-0.010788	NaN	0.000000	0.001677	0.001658	28.0822	0.075921	0.001936	39.2134	-149.662	12.3703	-0.001821	0.730771	-0.392081	-0.393444	-0.010788	39.2134	-0.391875	-102324	1.054325E-7	NaN
638	1.000000	0.742148	7.37129e+06	-45189.1	1005.82	-29773.2	0.000000	0.000000	6.743041	-0.031407	NaN	0.000000	0.001714	0.001655	28.0824	0.062358	0.001971	31.6421	2.018065	-164.848	-0.143009	0.740819	-0.382067	-0.383396	-0.031407	31.6421	-0.381322	-72254.1	4.346777E-7	NaN
638	1.000000	0.752147	7.37129e+06	-45189.1	1005.82	-29773.2	0.000000	0.000000	6.753041	-0.029604	NaN	0.000000	0.001650	0.001634	28.0819	0.107651	0.002073	51.9325	174.661	12.2078	0.018109	0.750736	-0.372067	-0.373478	-0.029604	51.9325	-0.371640	-52449	5.644342E-7	NaN
638	1.000000	0.762177	7.37129e+06	-45189.1	1005.82	-29773.3	0.000000	0.000000	6.763074	0.078153	NaN	0.000000	0.001722	0.001666	28.0821	0.040684	0.001926	21.1213	132.971	-168.431	0.048476	0.760833	-0.362038	-0.363382	0.078153	21.1213	-0.364813	-41817.8	-1.868887E-6	NaN
638	1.000000	0.772130	7.37129e+06	-45189.1	1005.82	-29773.2	0.000000	0.000000	6.773020	-0.098104	NaN	0.000000	0.001685	0.001686	28.082	0.032574	0.001858	17.5339	39.5239	12.1463	-0.054831	0.770842	-0.352085	-0.353372	-0.098104	17.5339	-0.347889	-23787.4	4.124212E-6	NaN
638	1.000000	0.782178	7.37129e+06	-45189.1	1005.82	-29773.3	0.000000	0.000000	6.783072	0.000173	NaN	0.000000	0.001707	0.001640	28.082	0.053623	0.001984	27.0319	116.826	-164.511	0.010834	0.780810	-0.342037	-0.343404	0.000173	27.0319	-0.342042	-19557.1	-8.832789E-9	NaN
638	1.000000	0.792162	7.37129e+06	-45189.1	1005.82	-29773.2	0.000000	0.000000	6.793056	-0.014516	NaN	0.000000	0.001698	0.001644	28.0831	0.130826	0.002038	64.1945	-39.5126	13.5406	-0.104406	0.790763	-0.332052	-0.333452	-0.014516	64.1945	-0.331883	-13899.9	1.044346E-6	NaN
638	1.000000	0.802158	7.37129e+06	-45189.1	1005.82	-29773.3	0.000000	0.000000	6.803051	-0.029266	NaN	0.000000	0.001735	0.001648	28.0834	0.083144	0.002095	39.6793	52.3653	-165.185	-0.062378	0.800806	-0.322057	-0.323408	-0.029266	39.6793	-0.321504	-9789.67	2.989445E-6	NaN
638	1.000000	0.812187	7.37129e+06	-45189.1	1005.82	-29773.3	0.000000	0.000000	6.813081	-0.012882	NaN	0.000000	0.001718	0.001693	28.0834	0.054831	0.002032	26.9886	-165.469	16.288	-0.103847	0.810761	-0.312028	-0.313454	-0.012882	26.9886	-0.311670	-7010.59	1.837530E-6	NaN
638	1.000000	0.822178	7.37129e+06	-45189.1	1005.82	-29773.3	0.000000	0.000000	6.823072	-0.004531	NaN	0.000000	0.001711	0.001662	28.0832	0.049833	0.001950	25.5503	-167.943	-164.548	0.060842	0.820866	-0.302037	-0.303349	-0.004531	25.5503	-0.301904	-5022.99	9.020289E-7	NaN
638	1.000000	0.832196	7.37129e+06	-45189.1	1005.82	-29773.3	0.000000	0.000000	6.833092	0.032382	NaN	0.000000	0.001724	0.001620	28.0832	0.116052	0.001934	60.0028	-173.887	15.1421	0.048032	0.830865	-0.292018	-0.293350	0.032382	60.0028	-0.292423	-3627.24	-8.927325E-6	NaN
638	1.000000	0.842179	7.3713e+06	-45189.1	1005.82	-29773.3	0.000000	0.000000	6.843073	-0.022212	NaN	0.000000	0.001718	0.001650	28.0834	0.068949	0.001944	35.4659	-118.908	-165.586	-0.041211	0.840850	-0.282036	-0.283365	-0.022212	35.4659	-0.281566	-2492.18	8.912582E-6	NaN
638	1.000000	0.852176	7.3713e+06	-45189.1	1005.82	-29773.3	0.000000	0.000000	6.853071	-0.007808	NaN	0.000000	0.001714	0.001634	28.0835	0.074667	0.002195	34.0235	-40.615	12.7362	0.044596	0.850863	-0.272038	-0.273352	-0.007808	34.0235	-0.271866	-1777.84	4.392000E-6	NaN
638	1.000000	0.862199	7.3713e+06	-45189.1	1005.82	-29773.3	0.000000	0.000000	6.863091	-0.048899	NaN	0.000000	0.001728	0.001678	28.0834	0.073302	0.002045	35.8469	-27.7215	-166.173	-0.117780	0.860905	-0.262016	-0.263310	-0.048899	35.8469	-0.260993	-1213.76	4.028681E-5	NaN
638	1.000000	0.872199	7.3713e+06	-45189.1	1005.82	-29773.3	0.000000	0.000000	6.873093	-0.009359	NaN	0.000000	0.001743	0.001656	28.0835	0.167871	0.002072	81.0283	-131.938	10.3948	0.024445	0.870842	-0.252016	-0.253373	-0.009359	81.0283	-0.251929	-880.603	1.062851E-5	NaN
638	1.000000	0.882186	7.3713e+06	-45189.1	1005.82	-29773.3	0.000000	0.000000	6.883082	0.024540	NaN	0.000000	0.001758	0.001652	28.0837	0.022999	0.002035	11.3	-52.1928	-167.146	0.028454	0.880927	-0.242029	-0.243287	0.024540	11.3	-0.243657	-655.499	-3.743644E-5	NaN
638	1.000000	0.892190	7.3713e+06	-45189.1	1005.82	-29773.3	0.000000	0.000000	6.893084	-0.006839	NaN	0.000000	0.001750	0.001661	28.0853	0.046597	0.002013	23.1494	-11.2918	14.8925	0.053214	0.890856	-0.232025	-0.233359	-0.006839	23.1494	-0.231804	-427.533	1.599544E-5	NaN
638	1.000000	0.902198	7.3713e+06	-45189.1	1005.82	-29773.3	0.000000	0.000000	6.903094	0.028427	NaN	0.000000	0.001817	0.001637	28.0839	0.023220	0.002103	11.0411	-93.0205	-162.792	0.073936	0.900890	-0.222017	-0.223325	0.028427	11.0411	-0.223948	-321.08	-8.853553E-5	NaN
638	1.000000	0.912212	7.3713e+06	-45189.1	1005.82	-29773.3	0.000000	0.000000	6.913108	0.029476	NaN	0.000000	0.001747	0.001650	28.0833	0.021833	0.001937	11.2744	-160.385	14.1857	-0.002863	0.910889	-0.212003	-0.213326	0.029476	11.2744	-0.213964	-222.246	-0.000133	NaN
638	1.000000	0.922200	7.3713e+06	-45189.1	1005.82	-29773.3	0.000000	0.000000	6.923098	0.064491	NaN	0.000000	0.001779	0.001709	28.0823	0.092034	0.001968	46.7708	123.909	-168.663	0.024063	0.920939	-0.202015	-0.203276	0.064491	46.7708	-0.203049	-147.804	-0.000436	NaN
638	1.000000	0.932243	7.3713e+06	-45189.1	1005.82	-29773.3	0.000000	0.000000	6.933139	0.033632	NaN	0.000000	0.001810	0.001631	28.0825	0.081880	0.002051	39.9161	-29.7652	17.8563	0.022522	0.930878	-0.191972	-0.193337	0.033632	39.9161	-0.192604	-99.4113	-0.000338	NaN
638	1.000000	0.942239	7.3713e+06	-45189.1	1005.82	-29773.3	0.000000	0.000000	6.943135	0.036613	NaN	0.000000	0.001778	0.001638	28.082	0.025832	0.002065	12.5067	-146.056	-166.951	0.036838	0.940921	-0.181976	-0.183293	0.036613	12.5067	-0.184171	-71.8048	-0.000510	NaN
638	1.000000	0.952210	7.3713e+06	-45189.1	1005.82	-29773.3	0.000000	0.000000	6.953106	0.022702	NaN	0.000000	0.001741	0.001700	28.0822	0.017650	0.002054	8.592725	-165.235	13.3445	0.062436	0.950892	-0.172004	-0.173323	0.022702	8.592725	-0.173986	-48.1434	-0.000472	NaN
638	1.000000	0.962250	7.3713e+06	-45189.1	1005.82	-29773.3	0.000000	0.000000	6.963148	0.082813	NaN	0.000000	0.001788	0.001682	28.0823	0.032111	0.002095	15.327	-165.109	-164.914	0.007273	0.960921	-0.161965	-0.163294	0.082813	15.327	-0.166017	-35.0064	-0.002366	NaN
638	1.000000	0.972246	7.3713e+06	-45189.1	1005.82	-29773.3	0.000000	0.000000	6.973141	0.018134	NaN	0.000000	0.001765	0.001685	28.0822	0.095650	0.001961	48.781	72.8213	12.0046	0.002542	0.970923	-0.151969	-0.153292	0.018134	48.781	-0.152248	-19.9011	-0.000911	NaN
638	1.000000	0.982234	7.3713e+06	-45189.1	1005.82	-29773.3	0.000000	0.000000	6.983127	-0.030025	NaN	0.000000	0.001739	0.001660	28.082	0.062522	0.001956	31.9574	171.764	-166.146	-0.094929	0.980872	-0.141981	-0.143343	-0.030025	31.9574	-0.141276	-12.4996	0.002402	NaN
638	1.000000	0.992255	7.3713e+06	-45189.1	1005.82	-29773.3	0.000000	0.000000	6.993150	0.015476	NaN	0.000000	0.001749	0.001645	28.0822	0.070923	0.002037	34.8229	-78.9857	13.8166	0.018908	0.990866	-0.131960	-0.133349	0.015476	34.8229	-0.132294	-8.440784	-0.001834	NaN
638	1.000000	1.002244	7.3713e+06	-45189.1	1005.82	-29773.3	0.000000	0.000000	7.003140	0.042395	NaN	0.000000	0.001715	0.001656	28.082	0.026492	0.002093	12.6603	-160.466	-166.73	-0.042487	1.000909	-0.121971	-0.123306	0.042395	12.6603	-0.124482	-5.939345	-0.007138	NaN
638	1.000000	1.012265	7.3713e+06	-45189.1	1005.82	-29773.3	0.000000	0.000000	7.013160	0.007958	NaN	0.000000	0.001775	0.001698	28.0823	0.047076	0.002073	22.7081	19.2731	10.794	0.013654	1.010853	-0.111950	-0.113362	0.007958	22.7081	-0.112213	-3.344245	-0.002380	NaN
638	1.000000	1.022258	7.3713e+06	-45189.1	1005.82	-29773.3	0.000000	0.000000	7.023155	0.044114	NaN	0.000000	0.001782	0.001680	28.0818	0.043783	0.001840	23.7933	-35.2617	-165.388	0.068907	1.020920	-0.101957	-0.103295	0.044114	23.7933	-0.103347	-2.164313	-0.020382	NaN
638	1.000000	1.032272	7.3713e+06	-45189.1	1005.82	-29773.3	0.000000	0.000000	7.033162	-0.102061	NaN	0.000000	0.001815	0.001651	28.0822	0.086598	0.001966	44.0526	173.227	10.9982	-0.061405	1.030897	-0.091943	-0.093318	-0.102061	44.0526	-0.090206	-1.093052	0.093373	NaN
638	1.000000	1.042260	7.3713e+06	-45189.1	1005.82	-29773.3	0.000000	0.000000	7.043151	-0.071700	NaN	0.000000	0.001757	0.001685	28.0817	0.038039	0.002165	17.5708	-83.2067	-168.928	-0.062709	1.040983	-0.081955	-0.083232	-0.071700	17.5708	-0.078895	-0.580693	0.123473	NaN
638	1.000000	1.052256	7.3713e+06	-45189.1	1005.82	-29773.3	0.000000	0.000000	7.053152	0.029944	NaN	0.000000	0.001728	0.001703	28.082	0.100043	0.002111	47.3935	-83.3212	12.443	0.073157	1.050938	-0.071959	-0.073277	0.029944	47.3935	-0.072433	-0.395827	-0.075650	NaN
638	1.000000	1.062272	7.3713e+06	-45189.1	1005.82	-29773.3	0.000000	0.000000	7.063164	-0.055225	NaN	0.000000	0.001704	0.001717	28.0832	0.077319	0.002022	38.2313	-3.769817	-164.871	-0.056686	1.060950	-0.061943	-0.063264	-0.055225	38.2313	-0.060860	-0.190589	0.289762	NaN
638	1.000000	1.072300	7.3713e+06	-45189.1	1005.82	-29773.3	0.000000	0.000000	7.073195	0.010072	NaN	0.000000	0.001709	0.001716	28.0833	0.095791	0.002081	46.0215	-91.6127	17.9592	0.048902	1.070934	-0.051915	-0.053281	0.010072	46.0215	-0.052079	-0.105404	-0.095557	NaN
638	1.000000	1.082273	7.3713e+06	-45189.1	1005.82	-29773.3	0.000000	0.000000	7.083167	-0.002036	NaN	0.000000	0.001699	0.001693	28.0834	0.001614	0.001965	0.821451	-176.754	-167.818	-0.018322	1.080961	-0.041942	-0.043254	-0.002036	0.821451	-0.040083	-0.045486	0.044761	NaN
638	1.000000	1.092298	7.3713e+06	-45189.1	1005.82	-29773.3	0.000000	0.000000	7.093191	-0.055742	NaN	0.000000	0.001698	0.001723	28.085	0.176591	0.002055	85.9137	-88.0354	16.2098	-0.077484	1.090955	-0.031916	-0.033260	-0.055742	85.9137	-0.031430	-0.025245	2.208011	NaN
638	1.000000	1.102302	7.3713e+06	-45189.1	1005.82	-29773.3	0.000000	0.000000	7.103197	0.006614	NaN	0.000000	0.001715	0.001692	28.0837	0.071978	0.001912	37.6427	-64.4943	-165.49	0.058239	1.100942	-0.021913	-0.023273	0.006614	37.6427	-0.022045	-0.014158	-0.467164	NaN
638	1.000000	1.112279	7.3713e+06	-45189.1	1005.82	-29773.3	0.000000	0.000000	7.113173	-0.013270	NaN	0.000000	0.001714	0.001686	28.084	0.099650	0.002033	49.025	-143.028	12.5301	0.003903	1.110931	-0.011936	-0.013284	-0.013270	49.025	-0.011733	-0.007376	1.799070	NaN
638	1.000000	1.122291	7.3713e+06	-45189.1	1005.82	-29773.3	0.000000	0.000000	7.123190	0.115209	NaN	0.000000	0.001728	0.001723	28.0832	0.253832	0.001962	129.343	8.128854	-165.505	-0.034504	1.120988	-0.001924	-0.003227	0.115209	129.343	-0.002592	-0.001846	-62.4192	NaN
638	2.000000	1.131392	7.3713e+06	-45189.1	1005.82	-29773.3	0.000000	0.000000	7.132624	8.193883	NaN	0.000000	0.001732	0.001691	28.0829	8.505619	0.001609	5285.09	7.592426	7.867954	7.767654	1.130758	0.007178	0.006543	8.193883	5285.09	0.006015	0.005079	1613.4	67756.7
638	2.000000	1.133917	7.3713e+06	-45189.1	1005.82	-29773.3	0.000000	0.000000	7.135293	11.7014	NaN	0.000000	0.001758	0.001678	28.0828	10.6407	0.001544	6893.56	6.568299	-173.049	11.8809	1.133594	0.009703	0.009379	11.7014	6893.56	0.008430	0.007488	1562.71	72784.3
638	2.000000	1.136436	7.3713e+06	-45189.1	1005.82	-29773.3	0.000000	0.000000	7.137923	14.4147	NaN	0.000000	0.001730	0.001660	28.0833	13.4829	0.001864	7232.85	7.088508	6.028432	14.7002	1.136049	0.012221	0.011834	14.4147	7232.85	0.010726	0.010000	1441.5	66082.8
638	2.000000	1.138914	7.3713e+06	-45189.1	1005.82	-29773.3	0.000000	0.000000	7.140616	19.6408	NaN	0.000000	0.001765	0.001651	28.083	16.63	0.001804	9217.32	4.221746	-174.427	19.0339	1.138614	0.014700	0.014399	19.6408	9217.32	0.013101	0.012836	1530.1	74329
638	2.000000	1.141412	7.3713e+06	-45189.1	1005.82	-29773.3	0.000000	0.000000	7.143397	26.5299	NaN	0.000000	0.001740	0.001663	28.0831	18.6559	0.001731	10779.3	5.550422	3.386571	25.2339	1.141030	0.017197	0.016815	26.5299	10779.3	0.015351	0.015757	1683.7	78456.4
638	2.000000	1.143865	7.3713e+06	-45189.1	1005.82	-29773.3	0.000000	0.000000	7.146048	31.3522	NaN	0.000000	0.001738	0.001646	28.0831	20.7764	0.001633	12720.4	2.334136	-175.207	30.4473	1.143556	0.019650	0.019341	31.3522	12720.4	0.017801	0.019205	1632.53	83863.2
638	2.000000	1.146277	7.3713e+06	-45189.1	1005.82	-29773.3	0.000000	0.000000	7.148692	36.9963	NaN	0.000000	0.001747	0.001675	28.0834	23.757	0.001672	14204.8	2.873336	2.712091	33.7086	1.145972	0.022062	0.021757	36.9963	14204.8	0.020109	0.022714	1628.82	86112.5
638	2.000000	1.148838	7.3713e+06	-45189.1	1005.82	-29773.3	0.000000	0.000000	7.151567	44.6122	NaN	0.000000	0.001814	0.001660	28.0818	26.8996	0.001820	14784	6.785399	179.736	44.2332	1.148530	0.024623	0.024315	44.6122	14784	0.022360	0.026387	1690.66	83151
638	2.000000	1.151327	7.3713e+06	-45189.1	1005.82	-29773.3	0.000000	0.000000	7.154260	49.5892	NaN	0.000000	0.001818	0.001674	28.082	28.4399	0.001827	15566.3	8.243888	-1.571378	47.3651	1.150964	0.027112	0.026749	49.5892	15566.3	0.024722	0.030513	1625.2	81417.4
638	2.000000	1.153791	7.3713e+06	-45189.1	1005.82	-29773.3	0.000000	0.000000	7.157025	56.9056	NaN	0.000000	0.001831	0.001659	28.0819	31.2281	0.001821	17148.5	5.151394	179.236	55.0675	1.153531	0.029577	0.029316	56.9056	17148.5	0.027088	0.034924	1629.43	83837.5
638	2.000000	1.156399	7.3713e+06	-45189.1	1005.82	-29773.3	0.000000	0.000000	7.159879	62.8936	NaN	0.000000	0.001793	0.001678	28.0822	34.4604	0.001966	17530.3	4.417693	1.374621	63.4	1.155975	0.032184	0.031760	62.8936	17530.3	0.029493	0.039700	1584.24	80383.8
638	2.000000	1.158865	7.3713e+06	-45189.1	1005.82	-29773.3	0.000000	0.000000	7.162686	71.1796	NaN	0.000000	0.001741	0.001663	28.082	35.9868	0.001751	20551.4	3.396697	178.983	70.4905	1.158525	0.034650	0.034310	71.1796	20551.4	0.032053	0.045106	1578.06	88409.7
638	2.000000	1.161290	7.3713e+06	-45189.1	1005.82	-29773.3	0.000000	0.000000	7.165732	86.2914	NaN	0.000000	0.001715	0.001671	28.082	37.9363	0.001692	22422.6	4.950361	-2.688960	83.069	1.160893	0.037075	0.036679	86.2914	22422.6	0.034189	0.049874	1730.17	91731.8
638	2.000000	1.163823	7.3713e+06	-45189.1	1005.82	-29773.3	0.000000	0.000000	7.168552	93.2801	NaN	0.000000	0.001707	0.001699	28.0818	39.6895	0.001700	23352.2	5.964698	175.848	92.4089	1.163440	0.039609	0.039225	93.2801	23352.2	0.036613	0.055568	1678.68	90508.7
638	2.000000	1.166242	7.3713e+06	-45189.1	1005.82	-29773.3	0.000000	0.000000	7.171324	101.857	NaN	0.000000	0.001697	0.001663	28.082	42.8667	0.001757	24402.7	8.572697	-6.900993	97.8399	1.165982	0.042028	0.041767	101.857	24402.7	0.038897	0.061209	1664.09	90116.6
638	2.000000	1.168812	7.3713e+06	-45189.1	1005.82	-29773.3	0.000000	0.000000	7.174334	112.573	NaN	0.000000	0.001728	0.001679	28.0817	45.8747	0.001847	24832.5	6.358870	175.077	111.707	1.168549	0.044597	0.044334	112.573	24832.5	0.041197	0.067159	1676.22	87547.1
638	2.000000	1.171278	7.3713e+06	-45189.1	1005.82	-29773.3	0.000000	0.000000	7.177357	126.128	NaN	0.000000	0.001717	0.001662	28.082	46.6431	0.001753	26601.4	3.654473	-1.799588	122.392	1.170970	0.047063	0.046755	126.128	26601.4	0.043507	0.073406	1718.23	89704.2
638	2.000000	1.173755	7.3713e+06	-45189.1	1005.82	-29773.3	0.000000	0.000000	7.180294	137.299	NaN	0.000000	0.001701	0.001643	28.0822	49.2912	0.001810	27227.2	4.188960	177.393	135.457	1.173377	0.049541	0.049162	137.299	27227.2	0.045759	0.079755	1721.5	88083.7
638	2.000000	1.176246	7.3713e+06	-45189.1	1005.82	-29773.3	0.000000	0.000000	7.183403	152.356	NaN	0.000000	0.001692	0.001670	28.0822	52.4162	0.001736	30192.7	4.298277	-4.241109	146.966	1.175881	0.052031	0.051666	152.356	30192.7	0.048246	0.087069	1749.82	93485.2
638	2.000000	1.178755	7.3713e+06	-45189.1	1005.82	-29773.3	0.000000	0.000000	7.186538	167.572	NaN	0.000000	0.001710	0.001646	28.082	54.6541	0.001765	30963.3	0.533864	179.709	165.513	1.178460	0.054540	0.054245	167.572	30963.3	0.050481	0.093907	1784.45	92314.9
638	2.000000	1.181303	7.3713e+06	-45189.1	1005.82	-29773.3	0.000000	0.000000	7.189571	179.37	NaN	0.000000	0.001746	0.001668	28.0834	58.3193	0.001929	30225.9	12.3564	-10.9298	177.389	1.180939	0.057088	0.056724	179.37	30225.9	0.052637	0.100739	1780.54	87007.1
638	2.000000	1.183767	7.3713e+06	-45189.1	1005.82	-29773.3	0.000000	0.000000	7.192575	192.51	NaN	0.000000	0.001724	0.001665	28.0835	59.5315	0.001739	34233.3	8.872731	170.549	190.923	1.183418	0.059552	0.059203	192.51	34233.3	0.055335	0.109613	1756.27	94469.5
638	2.000000	1.186357	7.3713e+06	-45189.1	1005.82	-29773.3	0.000000	0.000000	7.195486	200.329	NaN	0.000000	0.001756	0.001656	28.0837	63.9365	0.001943	32901.8	3.903323	-4.303569	201.513	1.186013	0.062142	0.061798	200.329	32901.8	0.057575	0.117258	1708.45	87785.4
638	2.000000	1.188860	7.3713e+06	-45189.1	1005.82	-29773.3	0.000000	0.000000	7.198735	218.468	NaN	0.000000	0.001774	0.001652	28.0837	67.0755	0.001826	36727.1	8.833530	169.255	222.742	1.188523	0.064645	0.064308	218.468	36727.1	0.060183	0.126467	1727.47	94356.5
638	2.000000	1.191324	7.3713e+06	-45189.1	1005.82	-29773.3	0.000000	0.000000	7.202064	239.499	NaN	0.000000	0.001789	0.001677	28.0837	67.3199	0.001699	39627.8	7.857155	-9.256527	236.675	1.190893	0.067109	0.066678	239.499	39627.8	0.062577	0.135209	1771.32	98462.2
638	2.000000	1.193673	7.3713e+06	-45189.1	1005.82	-29773.3	0.000000	0.000000	7.205001	253.79	NaN	0.000000	0.001779	0.001658	28.0838	69.4766	0.001748	39736.3	2.787622	174.842	248.802	1.193450	0.069459	0.069235	253.79	39736.3	0.064668	0.143079	1773.77	95978.2
638	2.000000	1.196254	7.3713e+06	-45189.1	1005.82	-29773.3	0.000000	0.000000	7.208368	272.915	NaN	0.000000	0.001793	0.001663	28.0835	72.5401	0.001800	40297.6	2.226228	-4.034443	271.139	1.195961	0.072040	0.071746	272.915	40297.6	0.066960	0.151943	1796.17	94452.4
638	2.000000	1.198722	7.3713e+06	-45189.1	1005.82	-29773.3	0.000000	0.000000	7.211681	293.501	NaN	0.000000	0.001799	0.001631	28.0839	75.4055	0.001848	40795.8	3.489254	174.347	289.007	1.198439	0.074507	0.074224	293.501	40795.8	0.069111	0.160492	1828.76	93038.5
638	2.000000	1.201244	7.3713e+06	-45189.1	1005.82	-29773.3	0.000000	0.000000	7.214876	309.849	NaN	0.000000	0.001763	0.001657	28.0838	76.8003	0.001723	44575.4	4.673358	-7.248291	306.095	1.200983	0.077029	0.076768	309.849	44575.4	0.071816	0.171553	1806.14	98326.3
638	2.000000	1.203668	7.3713e+06	-45189.1	1005.82	-29773.3	0.000000	0.000000	7.218255	333.077	NaN	0.000000	0.001768	0.001620	28.0839	77.9823	0.001911	40798.7	2.007202	176.74	327.681	1.203406	0.079453	0.079191	333.077	40798.7	0.073331	0.177899	1872.27	88375.6
638	2.000000	1.206214	7.3713e+06	-45189.1	1005.82	-29773.3	0.000000	0.000000	7.221489	349.848	NaN	0.000000	0.001829	0.001642	28.0837	82.4952	0.001961	42069	4.742700	-6.577077	345.094	1.205886	0.081999	0.081671	349.848	42069	0.075762	0.188313	1857.8	88571.8
638	2.000000	1.208737	7.3713e+06	-45189.1	1005.82	-29773.3	0.000000	0.000000	7.224765	368.146	NaN	0.000000	0.001792	0.001672	28.0839	84.8778	0.001844	46033.6	8.286750	169.29	366.568	1.208408	0.084522	0.084193	368.146	46033.6	0.078524	0.200481	1836.32	93931.6
638	2.000000	1.211207	7.3713e+06	-45189.1	1005.82	-29773.3	0.000000	0.000000	7.227921	384.824	NaN	0.000000	0.001777	0.001667	28.0837	86.0374	0.001768	48660.8	8.420257	-11.4427	379.052	1.210766	0.086993	0.086551	384.824	48660.8	0.081061	0.211972	1815.45	96563.5
638	2.000000	1.213717	7.3713e+06	-45189.1	1005.82	-29773.3	0.000000	0.000000	7.231232	404.327	NaN	0.000000	0.001806	0.001689	28.0841	87.2286	0.001809	48228.3	3.608101	173.152	401.184	1.213456	0.089502	0.089241	404.327	48228.3	0.083214	0.221957	1821.64	93527.8
638	2.000000	1.216269	7.3713e+06	-45189.1	1005.82	-29773.3	0.000000	0.000000	7.234476	421.148	NaN	0.000000	0.001755	0.001668	28.0821	90.647	0.001731	52362.9	3.561021	-7.453958	419.04	1.215996	0.092054	0.091781	421.148	52362.9	0.086022	0.235301	1789.83	98624.5
638	2.000000	1.218751	7.3713e+06	-45189.1	1005.82	-29773.3	0.000000	0.000000	7.237820	442.149	NaN	0.000000	0.001730	0.001626	28.0824	92.5674	0.001719	53841.5	0.071128	176.369	440.322	1.218439	0.094536	0.094224	442.149	53841.5	0.088377	0.246772	1791.73	99024.4
638	2.000000	1.221227	7.3713e+06	-45189.1	1005.82	-29773.3	0.000000	0.000000	7.241302	466.588	NaN	0.000000	0.001745	0.001660	28.0821	94.6093	0.001772	53403.7	2.429612	-5.868709	460.969	1.220908	0.097012	0.096693	466.588	53403.7	0.090460	0.257132	1814.58	96220.2
638	2.000000	1.223650	7.3713e+06	-45189.1	1005.82	-29773.3	0.000000	0.000000	7.244401	483.042	NaN	0.000000	0.001694	0.001643	28.0823	97.5773	0.001833	53220	1.886535	174.219	477.513	1.223451	0.099435	0.099236	483.042	53220	0.092628	0.268129	1801.53	93902.3
638	2.000000	1.226126	7.3713e+06	-45189.1	1005.82	-29773.3	0.000000	0.000000	7.247829	506.202	NaN	0.000000	0.001735	0.001657	28.0819	99.5651	0.001856	53656.3	-0.243949	-3.613874	497.094	1.225734	0.101912	0.101520	506.202	53656.3	0.094836	0.279547	1810.79	92718.6
638	2.000000	1.228814	7.3713e+06	-45189.1	1005.82	-29773.3	0.000000	0.000000	7.251802	537.459	NaN	0.000000	0.001693	0.001661	28.0822	103.617	0.001783	58122.6	9.627292	167.038	539.808	1.228327	0.104599	0.104112	537.459	58122.6	0.097664	0.294497	1825.01	97853.9
638	2.000000	1.229632	7.3713e+06	-45189.1	1005.82	-29773.3	0.000000	0.000000	7.252792	541.667	NaN	0.000000	0.001696	0.001632	28.082	101.787	0.001627	62567.5	1.274821	173.753	533.955	1.229368	0.105417	0.105153	541.667	62567.5	0.098924	0.301274	1797.92	104146