File: remote_trans/data/nanoindenter/0828-1/data/Data_2025-08-06,11h17m57s/2025-07-22_16-23-58_1_319.txt
2025-07-22, 16:23:58, 1
Index	Phase	Displacement	Time	Pos X	Pos Y	Pos Z	Rot A	Rot B	Piezo Z	Force A	Force B	Gripper	Voltage A	Voltage B	Temperature	Amplitude force	Amplitude pos	Stiffness	Phase shift	Phase excitation	Force A raw	Displacement raw	HMax	HMax raw	Real Force	Real Stiffness	Contact Depth	Area	Hardness	Reduced Mod.
[#]	[#]	[um]	[s]	[um]	[um]	[um]	[m°]	[m°]	[um]	[uN]	[uN]	[V]	[V]	[V]	[°C]	[uN]	[um]	[N/m]	[°]	[°]	[uN]	[um]	[um]	[um]	[uN]	[N/m]	[um]	[um^2]	[MPa]	[MPa]
319	1.000000	0.002360	7.36819e+06	-54589.1	955.818	-29743.4	0.000000	0.000000	6.002841	-0.035254	NaN	0.000000	0.001716	0.001714	28.0802	0.036029	0.000987	36.4933	122.493	-167.161	-0.041051	0.001073	-1.172580	-1.173867	-0.035254	36.4933	-1.171856	-4.610540E+15	7.646440E-18	NaN
319	1.000000	0.012383	7.36819e+06	-54589.1	955.818	-29743.4	0.000000	0.000000	6.012862	-0.053569	NaN	0.000000	0.001639	0.001716	28.0802	0.088751	0.001259	70.4918	-145.401	21.7927	0.003178	0.010943	-1.162558	-1.163997	-0.053569	70.4918	-1.161988	-3.400270E+15	1.575438E-17	NaN
319	1.000000	0.022283	7.36819e+06	-54589.1	955.82	-29743.4	0.000000	0.000000	6.022763	-0.059748	NaN	0.000000	0.001646	0.001750	28.0799	0.074450	0.001717	43.3509	-20.2493	-167.496	-0.102142	0.020942	-1.152657	-1.153999	-0.059748	43.3509	-1.151624	-2.469368E+15	2.419550E-17	NaN
319	1.000000	0.032243	7.36819e+06	-54589.1	955.818	-29743.4	0.000000	0.000000	6.032726	0.014188	NaN	0.000000	0.001614	0.001694	28.0801	0.099595	0.001817	54.8074	137.467	12.9917	0.020013	0.030897	-1.142697	-1.144043	0.014188	54.8074	-1.142892	-1.885874E+15	-7.523355E-18	NaN
319	1.000000	0.042254	7.36819e+06	-54589.1	955.819	-29743.4	0.000000	0.000000	6.042738	0.044595	NaN	0.000000	0.001633	0.001720	28.0786	0.057310	0.001935	29.6136	-73.4866	-165.499	0.084602	0.040976	-1.132686	-1.133965	0.044595	29.6136	-1.133816	-1.424957E+15	-3.129570E-17	NaN
319	1.000000	0.052295	7.36819e+06	-54589.1	955.818	-29743.4	0.000000	0.000000	6.052776	-0.045646	NaN	0.000000	0.001659	0.001712	28.0787	0.104356	0.002033	51.3244	-79.0286	16.4827	-9.849641E-5	0.050966	-1.122645	-1.123974	-0.045646	51.3244	-1.121978	-9.885760E+14	4.617372E-17	NaN
319	1.000000	0.062266	7.36819e+06	-54589.1	955.819	-29743.4	0.000000	0.000000	6.062747	-0.027335	NaN	0.000000	0.001634	0.001706	28.0785	0.017546	0.002003	8.761556	-168.655	-167.367	0.080167	0.060933	-1.112675	-1.114008	-0.027335	8.761556	-1.110335	-6.898925E+14	3.962262E-17	NaN
319	1.000000	0.072261	7.36819e+06	-54589.1	955.819	-29743.4	0.000000	0.000000	6.072740	-0.058812	NaN	0.000000	0.001630	0.001703	28.0784	0.028708	0.002130	13.4755	143.128	18.1812	-0.040738	0.070936	-1.102680	-1.104005	-0.058812	13.4755	-1.099406	-4.921524E+14	1.194989E-16	NaN
319	1.000000	0.082279	7.36819e+06	-54589.1	955.819	-29743.4	0.000000	0.000000	6.082763	0.037454	NaN	0.000000	0.001598	0.001688	28.0788	0.098513	0.001975	49.8723	-126.428	-164.865	-0.083799	0.080953	-1.092661	-1.093988	0.037454	49.8723	-1.093225	-4.065439E+14	-9.212741E-17	NaN
319	1.000000	0.092294	7.36819e+06	-54589.1	955.818	-29743.4	0.000000	0.000000	6.092778	0.035472	NaN	0.000000	0.001586	0.001691	28.0786	0.064622	0.001975	32.7191	162.496	11.5129	0.102108	0.090896	-1.082646	-1.084045	0.035472	32.7191	-1.083459	-3.005933E+14	-1.180063E-16	NaN
319	1.000000	0.102278	7.36819e+06	-54589.1	955.819	-29743.4	0.000000	0.000000	6.102762	0.057801	NaN	0.000000	0.001621	0.001701	28.0785	0.054303	0.001919	28.2989	-30.7127	-164.727	0.106857	0.100982	-1.072662	-1.073958	0.057801	28.2989	-1.074194	-2.257020E+14	-2.560961E-16	NaN
319	1.000000	0.112302	7.36819e+06	-54589.1	955.818	-29743.4	0.000000	0.000000	6.112783	-0.019827	NaN	0.000000	0.001590	0.001691	28.0784	0.094473	0.002097	45.0412	-33.1367	14.959	0.030868	0.110990	-1.062639	-1.063950	-0.019827	45.0412	-1.062309	-1.562598E+14	1.268833E-16	NaN
319	1.000000	0.122295	7.36819e+06	-54589.1	955.817	-29743.4	0.000000	0.000000	6.122777	-0.008056	NaN	0.000000	0.001627	0.001723	28.0789	0.079009	0.001925	41.0344	-22.4561	-165.566	-0.039041	0.120927	-1.052645	-1.054013	-0.008056	41.0344	-1.052498	-1.153442E+14	6.984728E-17	NaN
319	1.000000	0.132269	7.36819e+06	-54589.1	955.818	-29743.4	0.000000	0.000000	6.132748	-0.070990	NaN	0.000000	0.001615	0.001699	28.0786	0.220509	0.001924	114.601	-113.965	14.1913	-0.088600	0.130922	-1.042671	-1.044018	-0.070990	114.601	-1.042207	-8.387661E+13	8.463600E-16	NaN
319	1.000000	0.142285	7.36819e+06	-54589.1	955.819	-29743.4	0.000000	0.000000	6.142767	0.004220	NaN	0.000000	0.001601	0.001699	28.0788	0.043970	0.001927	22.8145	90.525	-166.229	-0.018899	0.140984	-1.032656	-1.033957	0.004220	22.8145	-1.032794	-6.267076E+13	-6.732864E-17	NaN
319	1.000000	0.152301	7.36819e+06	-54589.1	955.818	-29743.4	0.000000	0.000000	6.152779	-0.108956	NaN	0.000000	0.001607	0.001706	28.0792	0.064625	0.001973	32.7603	165.773	14.1093	-0.111158	0.150943	-1.022639	-1.023997	-0.108956	32.7603	-1.020145	-4.235487E+13	2.572460E-15	NaN
319	1.000000	0.162311	7.36819e+06	-54589.1	955.819	-29743.4	0.000000	0.000000	6.162793	0.014089	NaN	0.000000	0.001600	0.001712	28.0786	0.063313	0.002007	31.5426	-16.4769	-166.01	0.054793	0.160972	-1.012630	-1.013969	0.014089	31.5426	-1.012965	-3.390671E+13	-4.155191E-16	NaN
319	1.000000	0.172339	7.36819e+06	-54589.1	955.818	-29743.4	0.000000	0.000000	6.172820	-0.032007	NaN	0.000000	0.001620	0.001713	28.0787	0.054442	0.001987	27.3968	43.5683	14.1767	-0.052127	0.170909	-1.002601	-1.004032	-0.032007	27.3968	-1.001725	-2.393296E+13	1.337360E-15	NaN
319	1.000000	0.182327	7.36819e+06	-54589.1	955.819	-29743.4	0.000000	0.000000	6.182809	0.017544	NaN	0.000000	0.001596	0.001715	28.0798	0.043241	0.002037	21.2315	99.3316	-167.108	-0.030757	0.181003	-0.992614	-0.993937	0.017544	21.2315	-0.993233	-1.839320E+13	-9.538107E-16	NaN
319	1.000000	0.192335	7.36819e+06	-54589.1	955.819	-29743.4	0.000000	0.000000	6.192816	-0.028206	NaN	0.000000	0.001617	0.001719	28.0802	0.077006	0.001951	39.4638	4.312004	15.0883	-0.098959	0.190932	-0.982605	-0.984008	-0.028206	39.4638	-0.982069	-1.301025E+13	2.168012E-15	NaN
319	1.000000	0.202317	7.36819e+06	-54589.1	955.819	-29743.4	0.000000	0.000000	6.202798	-0.020947	NaN	0.000000	0.001593	0.001733	28.0796	0.064467	0.001858	34.6907	98.3255	-164.908	0.002196	0.201035	-0.972623	-0.973905	-0.020947	34.6907	-0.972171	-9.570045E+12	2.188825E-15	NaN
319	1.000000	0.212312	7.36819e+06	-54589.1	955.819	-29743.4	0.000000	0.000000	6.212795	0.014151	NaN	0.000000	0.001582	0.001752	28.0798	0.085390	0.002041	41.8422	-132.389	15.4469	0.071983	0.211019	-0.962628	-0.963921	0.014151	41.8422	-0.962882	-7.173373E+12	-1.972773E-15	NaN
319	1.000000	0.222360	7.36819e+06	-54589.1	955.818	-29743.4	0.000000	0.000000	6.222841	-0.011281	NaN	0.000000	0.001576	0.001728	28.0798	0.059771	0.002155	27.735	21.7164	-167.086	-0.009186	0.221041	-0.952581	-0.953899	-0.011281	27.735	-0.952276	-5.160808E+12	2.185974E-15	NaN
319	1.000000	0.232331	7.36819e+06	-54589.1	955.819	-29743.4	0.000000	0.000000	6.232811	-0.061160	NaN	0.000000	0.001571	0.001722	28.0801	0.086435	0.002014	42.9212	-83.8996	14.1821	0.047755	0.230957	-0.942609	-0.943983	-0.061160	42.9212	-0.941541	-3.697608E+12	1.654052E-14	NaN
319	1.000000	0.242369	7.36819e+06	-54589.1	955.819	-29743.4	0.000000	0.000000	6.242851	0.010590	NaN	0.000000	0.001595	0.001707	28.0798	0.079675	0.001952	40.8189	-98.1342	-167.688	0.136030	0.241053	-0.932572	-0.933888	0.010590	40.8189	-0.932766	-2.815324E+12	-3.761704E-15	NaN
319	1.000000	0.252359	7.36819e+06	-54589.1	955.819	-29743.4	0.000000	0.000000	6.252842	0.022042	NaN	0.000000	0.001582	0.001709	28.0798	0.053697	0.001976	27.1753	31.9757	11.5769	-0.002671	0.251024	-0.922582	-0.923917	0.022042	27.1753	-0.923190	-2.090618E+12	-1.054311E-14	NaN
319	1.000000	0.262352	7.36819e+06	-54589.1	955.818	-29743.4	0.000000	0.000000	6.262834	-0.007093	NaN	0.000000	0.001610	0.001744	28.0799	0.026157	0.002141	12.2161	-0.076272	-164.591	-0.085996	0.261096	-0.912588	-0.913845	-0.007093	12.2161	-0.912153	-1.483327E+12	4.781582E-15	NaN
319	1.000000	0.272383	7.36819e+06	-54589.1	955.819	-29743.4	0.000000	0.000000	6.272864	-0.043413	NaN	0.000000	0.001607	0.001739	28.0799	0.107054	0.001963	54.5246	14.4559	12.4031	-0.131920	0.270966	-0.902557	-0.903975	-0.043413	54.5246	-0.901960	-1.080312E+12	4.018583E-14	NaN
319	1.000000	0.282354	7.36819e+06	-54589.1	955.818	-29743.4	0.000000	0.000000	6.282836	-0.001089	NaN	0.000000	0.001589	0.001722	28.0798	0.086448	0.002053	42.1121	-175.168	-165.636	-0.012212	0.281075	-0.892586	-0.893865	-0.001089	42.1121	-0.892567	-8.065141E+11	1.350096E-15	NaN
319	1.000000	0.292346	7.36819e+06	-54589.1	955.818	-29743.4	0.000000	0.000000	6.292828	-0.012379	NaN	0.000000	0.001608	0.001647	28.0797	0.066542	0.002101	31.6688	152.244	11.3755	-0.009413	0.290947	-0.882594	-0.883993	-0.012379	31.6688	-0.882301	-5.859039E+11	2.112881E-14	NaN
319	1.000000	0.302383	7.36819e+06	-54589.1	955.818	-29743.4	0.000000	0.000000	6.302865	-0.001794	NaN	0.000000	0.001589	0.001711	28.08	0.088195	0.001971	44.738	36.4583	-166.05	0.005326	0.301038	-0.872558	-0.873902	-0.001794	44.738	-0.872528	-4.321549E+11	4.151605E-15	NaN
319	1.000000	0.312380	7.36819e+06	-54589.1	955.818	-29743.4	0.000000	0.000000	6.312860	-0.056544	NaN	0.000000	0.001587	0.001686	28.0787	0.098654	0.001926	51.2344	-108.265	11.0629	-0.040967	0.311067	-0.862560	-0.863874	-0.056544	51.2344	-0.861732	-3.087215E+11	1.831541E-13	NaN
319	1.000000	0.322385	7.36819e+06	-54589.1	955.819	-29743.4	0.000000	0.000000	6.322868	0.033147	NaN	0.000000	0.001610	0.001729	28.0785	0.105524	0.002148	49.1366	96.1804	-167.613	-0.022793	0.321074	-0.852556	-0.853866	0.033147	49.1366	-0.853062	-2.356107E+11	-1.406864E-13	NaN
319	1.000000	0.332348	7.36819e+06	-54589.1	955.817	-29743.4	0.000000	0.000000	6.332830	0.001676	NaN	0.000000	0.001610	0.001712	28.0783	0.056193	0.001959	28.684	37.2116	8.700312	-0.026390	0.331023	-0.842593	-0.843917	0.001676	28.684	-0.842637	-1.702197E+11	-9.847040E-15	NaN
319	1.000000	0.342412	7.36819e+06	-54589.1	955.819	-29743.4	0.000000	0.000000	6.342892	-0.049928	NaN	0.000000	0.001615	0.001708	28.0787	0.045750	0.001930	23.7036	34.7988	-166.912	-0.003023	0.341135	-0.832529	-0.833806	-0.049928	23.7036	-0.830949	-1.182074E+11	4.223783E-13	NaN
319	1.000000	0.352408	7.36819e+06	-54589.1	955.819	-29743.4	0.000000	0.000000	6.352890	0.004975	NaN	0.000000	0.001644	0.001717	28.0784	0.049569	0.002046	24.2303	59.6724	13.152	-0.006787	0.351039	-0.822533	-0.823901	0.004975	24.2303	-0.822687	-9.133581E+10	-5.447436E-14	NaN
319	1.000000	0.362388	7.36819e+06	-54589.1	955.817	-29743.4	0.000000	0.000000	6.362870	-0.010243	NaN	0.000000	0.001609	0.001691	28.0786	0.081635	0.002015	40.5171	-156.294	-166.342	-0.027036	0.361122	-0.812552	-0.813818	-0.010243	40.5171	-0.812363	-6.616426E+10	1.548182E-13	NaN
319	1.000000	0.372383	7.36819e+06	-54589.1	955.818	-29743.4	0.000000	0.000000	6.372861	-0.078392	NaN	0.000000	0.001624	0.001707	28.0787	0.029632	0.001871	15.8348	-36.892	12.6393	-0.072292	0.371026	-0.802558	-0.803915	-0.078392	15.8348	-0.798845	-4.336935E+10	1.807555E-12	NaN
319	1.000000	0.382440	7.36819e+06	-54589.1	955.819	-29743.4	0.000000	0.000000	6.382924	0.050071	NaN	0.000000	0.001656	0.001729	28.0789	0.021577	0.002124	10.1569	-91.4873	-163.346	0.049732	0.381130	-0.792500	-0.793811	0.050071	10.1569	-0.796198	-3.992502E+10	-1.254133E-12	NaN
319	1.000000	0.392414	7.36819e+06	-54589.1	955.819	-29743.4	0.000000	0.000000	6.392896	0.006296	NaN	0.000000	0.001623	0.001724	28.0786	0.089730	0.001892	47.434	52.921	11.4561	-0.028735	0.391048	-0.782526	-0.783893	0.006296	47.434	-0.782626	-2.611644E+10	-2.410804E-13	NaN
319	1.000000	0.402396	7.36819e+06	-54589.1	955.819	-29743.4	0.000000	0.000000	6.402877	-0.038611	NaN	0.000000	0.001646	0.001742	28.0787	0.138925	0.001955	71.0615	54.3479	-164.85	-0.050832	0.401103	-0.772544	-0.773838	-0.038611	71.0615	-0.772137	-1.880850E+10	2.052843E-12	NaN
319	1.000000	0.412434	7.36819e+06	-54589.1	955.818	-29743.4	0.000000	0.000000	6.412913	-0.073539	NaN	0.000000	0.001609	0.001733	28.0785	0.066300	0.002039	32.5139	-118.897	12.1429	-0.018299	0.411036	-0.762507	-0.763904	-0.073539	32.5139	-0.760810	-1.319246E+10	5.574335E-12	NaN
319	1.000000	0.422409	7.36819e+06	-54589.1	955.818	-29743.4	0.000000	0.000000	6.422891	0.009281	NaN	0.000000	0.001622	0.001701	28.0788	0.046504	0.002017	23.055	67.9803	-168.381	0.009542	0.421131	-0.752532	-0.753810	0.009281	23.055	-0.752834	-1.027515E+10	-9.032230E-13	NaN
319	1.000000	0.432424	7.36819e+06	-54589.1	955.82	-29743.4	0.000000	0.000000	6.432907	0.010200	NaN	0.000000	0.001604	0.001730	28.0785	0.104620	0.002012	51.9943	166.959	15.5435	0.034231	0.431072	-0.742516	-0.743869	0.010200	51.9943	-0.742663	-7.470111E+9	-1.365386E-12	NaN
319	1.000000	0.442424	7.36819e+06	-54589.1	955.819	-29743.4	0.000000	0.000000	6.442905	-0.042169	NaN	0.000000	0.001608	0.001700	28.0788	0.069356	0.002021	34.3261	113.603	-166.665	-0.062075	0.441108	-0.732516	-0.733832	-0.042169	34.3261	-0.731595	-5.278863E+9	7.988222E-12	NaN
319	1.000000	0.452448	7.36819e+06	-54589.1	955.819	-29743.4	0.000000	0.000000	6.452930	-0.016653	NaN	0.000000	0.001629	0.001706	28.0798	0.078954	0.002073	38.0925	-155.231	11.0774	-0.013699	0.451059	-0.722492	-0.723881	-0.016653	38.0925	-0.722164	-3.926337E+9	4.241268E-12	NaN
319	1.000000	0.462460	7.36819e+06	-54589.1	955.82	-29743.4	0.000000	0.000000	6.462940	-0.039421	NaN	0.000000	0.001594	0.001734	28.0798	0.056374	0.001950	28.9086	142.973	-167.489	-0.107336	0.461097	-0.712481	-0.713844	-0.039421	28.9086	-0.711458	-2.805057E+9	1.405361E-11	NaN
319	1.000000	0.472442	7.36819e+06	-54589.1	955.818	-29743.4	0.000000	0.000000	6.472924	0.010907	NaN	0.000000	0.001558	0.001717	28.0798	0.031898	0.002008	15.8831	144.011	11.241	-0.056394	0.471073	-0.702499	-0.703868	0.010907	15.8831	-0.703014	-2.151215E+9	-5.069973E-12	NaN
319	1.000000	0.482463	7.36819e+06	-54589.1	955.818	-29743.4	0.000000	0.000000	6.482946	0.029021	NaN	0.000000	0.001610	0.001716	28.0799	0.092421	0.002049	45.1091	34.1757	-165.976	-0.040384	0.481145	-0.692478	-0.693796	0.029021	45.1091	-0.692960	-1.568091E+9	-1.850702E-11	NaN
319	1.000000	0.492464	7.36819e+06	-54589.1	955.818	-29743.4	0.000000	0.000000	6.492943	-0.060535	NaN	0.000000	0.001618	0.001709	28.0802	0.104483	0.002003	52.1655	-11.6046	16.8602	-0.066551	0.491112	-0.682477	-0.683829	-0.060535	52.1655	-0.681606	-1.096909E+9	5.518725E-11	NaN
319	1.000000	0.502458	7.36819e+06	-54589.1	955.819	-29743.4	0.000000	0.000000	6.502938	-0.047849	NaN	0.000000	0.001604	0.001683	28.0799	0.065023	0.002050	31.7139	19.5984	-164.329	-0.052610	0.501092	-0.672482	-0.673849	-0.047849	31.7139	-0.671351	-7.941000E+8	6.025604E-11	NaN
319	1.000000	0.512483	7.36819e+06	-54589.1	955.819	-29743.4	0.000000	0.000000	6.512964	-0.011106	NaN	0.000000	0.001624	0.001720	28.0798	0.025078	0.001917	13.0786	175.521	13.6887	-0.035498	0.511077	-0.662458	-0.663863	-0.011106	13.0786	-0.661821	-5.880396E+8	1.888643E-11	NaN
319	1.000000	0.522475	7.36819e+06	-54589.1	955.819	-29743.4	0.000000	0.000000	6.522959	0.034815	NaN	0.000000	0.001572	0.001714	28.0801	0.123552	0.002005	61.6196	134.624	-165.351	-0.017597	0.521140	-0.652465	-0.653801	0.034815	61.6196	-0.652889	-4.436427E+8	-7.847507E-11	NaN
319	1.000000	0.532498	7.36819e+06	-54589.1	955.819	-29743.4	0.000000	0.000000	6.532981	0.021746	NaN	0.000000	0.001602	0.001680	28.0799	0.036229	0.002035	17.8013	31.2009	14.9179	-0.064493	0.531106	-0.642443	-0.643834	0.021746	17.8013	-0.643359	-3.283746E+8	-6.622350E-11	NaN
319	1.000000	0.542477	7.36819e+06	-54589.1	955.819	-29743.4	0.000000	0.000000	6.542959	-0.003141	NaN	0.000000	0.001649	0.001678	28.0798	0.074452	0.002200	33.8441	-146.16	-164.86	0.073035	0.541173	-0.632463	-0.633767	-0.003141	33.8441	-0.632393	-2.322143E+8	1.352475E-11	NaN
319	1.000000	0.552485	7.36819e+06	-54589.1	955.819	-29743.4	0.000000	0.000000	6.552966	-0.037814	NaN	0.000000	0.001644	0.001667	28.0797	0.165488	0.002097	78.9177	30.5973	13.4774	-0.027991	0.551132	-0.622455	-0.623808	-0.037814	78.9177	-0.622096	-1.676626E+8	2.255378E-10	NaN
319	1.000000	0.562484	7.36819e+06	-54589.1	955.819	-29743.4	0.000000	0.000000	6.562966	-0.016471	NaN	0.000000	0.001641	0.001678	28.08	0.105148	0.002021	52.0391	112.52	-167.096	-0.036866	0.561179	-0.612456	-0.613761	-0.016471	52.0391	-0.612219	-1.226413E+8	1.343028E-10	NaN
319	1.000000	0.572492	7.36819e+06	-54589.1	955.817	-29743.4	0.000000	0.000000	6.572971	-0.065408	NaN	0.000000	0.001600	0.001664	28.0799	0.024740	0.002023	12.2284	-29.9857	13.447	-0.009810	0.571142	-0.602449	-0.603799	-0.065408	12.2284	-0.598437	-7.923810E+7	8.254558E-10	NaN
319	1.000000	0.582513	7.36819e+06	-54589.1	955.819	-29743.4	0.000000	0.000000	6.582995	-0.001510	NaN	0.000000	0.001571	0.001688	28.0798	0.082571	0.001925	42.8905	161.59	-162.285	0.026095	0.581150	-0.592427	-0.593791	-0.001510	42.8905	-0.592401	-6.542798E+7	2.308155E-11	NaN
319	1.000000	0.592509	7.36819e+06	-54589.1	955.817	-29743.4	0.000000	0.000000	6.592989	-0.045296	NaN	0.000000	0.001577	0.001667	28.0787	0.055731	0.002016	27.6468	-69.423	17.7565	-0.004117	0.591115	-0.582431	-0.583826	-0.045296	27.6468	-0.581203	-4.584814E+7	9.879621E-10	NaN
319	1.000000	0.602487	7.36819e+06	-54589.1	955.818	-29743.4	0.000000	0.000000	6.602967	-0.036302	NaN	0.000000	0.001569	0.001655	28.0788	0.066391	0.001931	34.3885	155.102	-168.408	-0.047344	0.601216	-0.572454	-0.573724	-0.036302	34.3885	-0.571662	-3.385257E+7	1.072343E-9	NaN
319	1.000000	0.612525	7.36819e+06	-54589.1	955.819	-29743.4	0.000000	0.000000	6.613007	0.002997	NaN	0.000000	0.001567	0.001692	28.0787	0.103080	0.001956	52.7086	83.1291	12.2273	-0.016595	0.611127	-0.562415	-0.563813	0.002997	52.7086	-0.562458	-2.525665E+7	-1.186626E-10	NaN
319	1.000000	0.622525	7.36819e+06	-54589.1	955.818	-29743.4	0.000000	0.000000	6.623005	-0.043375	NaN	0.000000	0.001578	0.001694	28.0787	0.100014	0.001909	52.3774	-38.1876	-168.231	-0.008067	0.621248	-0.552416	-0.553693	-0.043375	52.3774	-0.551795	-1.798080E+7	2.412306E-9	NaN
319	1.000000	0.632515	7.36819e+06	-54589.1	955.819	-29743.4	0.000000	0.000000	6.632998	0.006133	NaN	0.000000	0.001572	0.001732	28.0786	0.074620	0.001773	42.0768	-121.3	13.7342	0.003545	0.631145	-0.542425	-0.543796	0.006133	42.0768	-0.542534	-1.338142E+7	-4.582979E-10	NaN
319	1.000000	0.642499	7.36819e+06	-54589.1	955.819	-29743.4	0.000000	0.000000	6.642979	-0.046148	NaN	0.000000	0.001595	0.001716	28.0787	0.118681	0.002118	56.0263	-162.473	-165.944	0.039094	0.641219	-0.532441	-0.533721	-0.046148	56.0263	-0.531824	-9.5038e+06	4.855754E-9	NaN
319	1.000000	0.652519	7.36819e+06	-54589.1	955.819	-29743.4	0.000000	0.000000	6.653001	-0.008285	NaN	0.000000	0.001593	0.001687	28.0788	0.048219	0.002138	22.5574	-38.5144	12.7751	-0.048290	0.651164	-0.522422	-0.523776	-0.008285	22.5574	-0.522146	-6.97332e+06	1.188082E-9	NaN
319	1.000000	0.662565	7.36819e+06	-54589.1	955.819	-29743.4	0.000000	0.000000	6.663045	-0.034300	NaN	0.000000	0.001567	0.001679	28.0785	0.075678	0.002024	37.3896	126.936	-167.618	-0.050616	0.661250	-0.512376	-0.513690	-0.034300	37.3896	-0.511688	-4.98794e+06	6.876584E-9	NaN
319	1.000000	0.672529	7.36819e+06	-54589.1	955.819	-29743.4	0.000000	0.000000	6.673011	-0.012214	NaN	0.000000	0.001588	0.001672	28.0791	0.079591	0.001966	40.4902	101.379	14.2948	0.007292	0.671176	-0.502411	-0.503764	-0.012214	40.4902	-0.502185	-3.67701e+06	3.321766E-9	NaN
319	1.000000	0.682550	7.36819e+06	-54589.1	955.818	-29743.4	0.000000	0.000000	6.683030	-0.035117	NaN	0.000000	0.001612	0.001692	28.0786	0.119979	0.001894	63.3384	41.2538	-167.169	-0.000409	0.681168	-0.492391	-0.493773	-0.035117	63.3384	-0.491975	-2.64841e+06	1.325963E-8	NaN
319	1.000000	0.692561	7.36819e+06	-54589.1	955.818	-29743.4	0.000000	0.000000	6.693042	-0.027596	NaN	0.000000	0.001631	0.001717	28.0794	0.036240	0.001889	19.1874	-36.066	12.1541	-0.025345	0.691205	-0.482379	-0.483736	-0.027596	19.1874	-0.481300	-1.87815e+06	1.469308E-8	NaN
319	1.000000	0.702531	7.36819e+06	-54589.1	955.819	-29743.4	0.000000	0.000000	6.703013	0.011295	NaN	0.000000	0.001593	0.001695	28.0788	0.080739	0.002030	39.7713	-62.8524	-164.56	0.036537	0.701272	-0.472410	-0.473668	0.011295	39.7713	-0.472623	-1.41966e+06	-7.956041E-9	NaN
319	1.000000	0.712514	7.36819e+06	-54589.1	955.819	-29743.4	0.000000	0.000000	6.712995	-0.026986	NaN	0.000000	0.001608	0.001665	28.0792	0.135564	0.001959	69.2076	-157.499	7.337250	0.007883	0.711217	-0.462427	-0.463723	-0.026986	69.2076	-0.462134	-1.01159e+06	2.667690E-8	NaN
319	1.000000	0.722551	7.36819e+06	-54589.1	955.819	-29743.4	0.000000	0.000000	6.723031	-0.032493	NaN	0.000000	0.001652	0.001665	28.0798	0.055062	0.001925	28.6053	-25.8586	-169.104	-0.007829	0.721183	-0.452390	-0.453758	-0.032493	28.6053	-0.451538	-717785	4.526885E-8	NaN
319	1.000000	0.732557	7.36819e+06	-54589.1	955.819	-29743.4	0.000000	0.000000	6.733041	0.040645	NaN	0.000000	0.001666	0.001673	28.0803	0.011315	0.001870	6.049377	141.016	12.2958	-0.051402	0.731244	-0.442383	-0.443697	0.040645	6.049377	-0.447422	-628107	-6.471067E-8	NaN
319	1.000000	0.742576	7.36819e+06	-54589.1	955.819	-29743.4	0.000000	0.000000	6.743056	-0.053401	NaN	0.000000	0.001666	0.001681	28.0802	0.137225	0.001966	69.8061	29.4981	-164.986	-0.130605	0.741351	-0.432364	-0.433589	-0.053401	69.8061	-0.431790	-377906	1.413073E-7	NaN
319	1.000000	0.752554	7.36819e+06	-54589.1	955.819	-29743.4	0.000000	0.000000	6.753033	-0.060764	NaN	0.000000	0.001674	0.001634	28.0803	0.047677	0.002124	22.4419	-49.3589	12.4913	-0.003074	0.751229	-0.422387	-0.423711	-0.060764	22.4419	-0.420356	-260292	2.334446E-7	NaN
319	1.000000	0.762564	7.36819e+06	-54589.1	955.819	-29743.4	0.000000	0.000000	6.763046	0.022183	NaN	0.000000	0.001679	0.001642	28.0801	0.011734	0.001961	5.984850	-35.9251	-164.937	0.062275	0.761289	-0.412377	-0.413652	0.022183	5.984850	-0.415157	-219625	-1.010041E-7	NaN
319	1.000000	0.772588	7.36819e+06	-54589.1	955.818	-29743.4	0.000000	0.000000	6.773071	0.009873	NaN	0.000000	0.001665	0.001641	28.0802	0.075862	0.002078	36.5057	12.2236	13.9295	0.030120	0.771209	-0.402352	-0.403732	0.009873	36.5057	-0.402555	-145351	-6.792867E-8	NaN
319	1.000000	0.782549	7.36819e+06	-54589.1	955.819	-29743.4	0.000000	0.000000	6.783031	-0.002261	NaN	0.000000	0.001647	0.001669	28.0801	0.055862	0.002032	27.486	25.315	-167.493	0.031208	0.781276	-0.392391	-0.393664	-0.002261	27.486	-0.392330	-103868	2.177147E-8	NaN
319	1.000000	0.792603	7.36819e+06	-54589.1	955.819	-29743.4	0.000000	0.000000	6.793085	0.002691	NaN	0.000000	0.001664	0.001644	28.0802	0.053600	0.002025	26.467	64.298	16.4705	-0.033977	0.791207	-0.382337	-0.383733	0.002691	26.467	-0.382414	-74905.6	-3.592723E-8	NaN
319	1.000000	0.802600	7.36819e+06	-54589.1	955.819	-29743.4	0.000000	0.000000	6.803083	0.029629	NaN	0.000000	0.001591	0.001632	28.08	0.045997	0.002017	22.8081	39.2399	-165.191	0.022582	0.801308	-0.372341	-0.373633	0.029629	22.8081	-0.373315	-55442	-5.344098E-7	NaN
319	1.000000	0.812580	7.36819e+06	-54589.1	955.819	-29743.4	0.000000	0.000000	6.813060	-0.045715	NaN	0.000000	0.001616	0.001663	28.0802	0.010957	0.001972	5.554923	97.0439	17.3051	-0.041509	0.811208	-0.362361	-0.363732	-0.045715	5.554923	-0.356189	-31384.2	1.456613E-6	NaN
319	1.000000	0.822612	7.36819e+06	-54589.1	955.818	-29743.4	0.000000	0.000000	6.823092	-0.037074	NaN	0.000000	0.001627	0.001643	28.0804	0.082797	0.001959	42.2579	-114.091	-164.149	-0.073590	0.821292	-0.352329	-0.353648	-0.037074	42.2579	-0.351671	-26992.6	1.373488E-6	NaN
319	1.000000	0.832615	7.36819e+06	-54589.1	955.819	-29743.4	0.000000	0.000000	6.833097	0.007731	NaN	0.000000	0.001571	0.001649	28.0802	0.077617	0.001958	39.6491	28.5965	12.632	0.009951	0.831230	-0.342325	-0.343711	0.007731	39.6491	-0.342472	-19840.9	-3.896532E-7	NaN
319	1.000000	0.842595	7.36819e+06	-54589.1	955.817	-29743.4	0.000000	0.000000	6.843078	0.022699	NaN	0.000000	0.001563	0.001686	28.0801	0.077799	0.001976	39.3757	23.9161	-171.273	0.009068	0.841282	-0.332345	-0.333659	0.022699	39.3757	-0.332778	-14325.2	-1.584563E-6	NaN
319	1.000000	0.852594	7.36819e+06	-54589.1	955.818	-29743.4	0.000000	0.000000	6.853075	-0.012821	NaN	0.000000	0.001589	0.001703	28.0804	0.076605	0.001961	39.0639	-155.165	13.8846	-0.000480	0.851243	-0.322347	-0.323697	-0.012821	39.0639	-0.322100	-9989.36	1.283459E-6	NaN
319	1.000000	0.862608	7.36819e+06	-54589.1	955.819	-29743.4	0.000000	0.000000	6.863088	-0.050061	NaN	0.000000	0.001568	0.001689	28.0789	0.121901	0.001971	61.8544	-131.923	-166.1	-0.079558	0.861369	-0.312332	-0.313572	-0.050061	61.8544	-0.311725	-7023.86	7.127248E-6	NaN
319	1.000000	0.872624	7.36819e+06	-54589.1	955.819	-29743.4	0.000000	0.000000	6.873104	-0.034805	NaN	0.000000	0.001611	0.001694	28.0788	0.090082	0.002066	43.5954	-142.101	15.3139	0.037712	0.871257	-0.302317	-0.303684	-0.034805	43.5954	-0.301718	-4991.09	6.973479E-6	NaN
319	1.000000	0.882648	7.36819e+06	-54589.1	955.819	-29743.4	0.000000	0.000000	6.883128	-0.035980	NaN	0.000000	0.001636	0.001696	28.0788	0.136380	0.002061	66.1681	58.5538	-162.811	-0.072206	0.881294	-0.292293	-0.293647	-0.035980	66.1681	-0.291885	-3560.58	1.010501E-5	NaN
319	1.000000	0.892644	7.36819e+06	-54589.1	955.819	-29743.4	0.000000	0.000000	6.893124	-0.033909	NaN	0.000000	0.001590	0.001691	28.0791	0.060888	0.001928	31.5749	-73.2164	15.0858	0.009281	0.891281	-0.282297	-0.283660	-0.033909	31.5749	-0.281492	-2485.76	1.364110E-5	NaN
319	1.000000	0.902629	7.36819e+06	-54589.1	955.818	-29743.4	0.000000	0.000000	6.903111	0.000639	NaN	0.000000	0.001607	0.001700	28.0788	0.033210	0.001985	16.7307	-23.472	-164.065	-0.119674	0.901282	-0.272311	-0.273658	0.000639	16.7307	-0.272340	-1807.5	-3.536224E-7	NaN
319	1.000000	0.912643	7.36819e+06	-54589.1	955.82	-29743.4	0.000000	0.000000	6.913124	-0.030118	NaN	0.000000	0.001603	0.001677	28.0789	0.136063	0.001983	68.6037	-143.442	14.0425	-0.071453	0.911314	-0.262297	-0.263626	-0.030118	68.6037	-0.261968	-1256.18	2.397592E-5	NaN
319	1.000000	0.922623	7.36819e+06	-54589.1	955.819	-29743.4	0.000000	0.000000	6.923104	-0.041238	NaN	0.000000	0.001619	0.001673	28.0787	0.033545	0.002085	16.085	99.1362	-169.755	0.007267	0.921398	-0.252317	-0.253543	-0.041238	16.085	-0.250394	-833.805	4.945707E-5	NaN
319	1.000000	0.932624	7.36819e+06	-54589.1	955.819	-29743.4	0.000000	0.000000	6.933105	-0.026480	NaN	0.000000	0.001623	0.001673	28.0789	0.090829	0.002091	43.4391	111.204	10.6637	-0.001109	0.931259	-0.242316	-0.243682	-0.026480	43.4391	-0.241859	-614.553	4.308825E-5	NaN
319	1.000000	0.942624	7.36819e+06	-54589.1	955.819	-29743.4	0.000000	0.000000	6.943107	0.012152	NaN	0.000000	0.001701	0.001674	28.0791	0.074719	0.001990	37.5483	-18.7312	-164.969	0.035980	0.941320	-0.232316	-0.233620	0.012152	37.5483	-0.232559	-439.408	-2.765442E-5	NaN
319	1.000000	0.952634	7.36819e+06	-54589.1	955.819	-29743.4	0.000000	0.000000	6.953114	-0.044967	NaN	0.000000	0.001655	0.001648	28.079	0.105781	0.002132	49.605	-167.372	13.5025	-0.053042	0.951293	-0.222306	-0.223648	-0.044967	49.605	-0.221626	-294.878	0.000152	NaN
319	1.000000	0.962628	7.36819e+06	-54589.1	955.82	-29743.4	0.000000	0.000000	6.963111	0.030154	NaN	0.000000	0.001660	0.001646	28.0792	0.102956	0.001909	53.9319	-80.7631	-162.849	0.070394	0.961363	-0.212313	-0.213577	0.030154	53.9319	-0.212732	-212.315	-0.000142	NaN
319	1.000000	0.972644	7.36819e+06	-54589.1	955.819	-29743.4	0.000000	0.000000	6.973125	-0.007636	NaN	0.000000	0.001673	0.001666	28.0789	0.022976	0.002089	10.9969	66.0058	15.5533	-0.033133	0.971277	-0.202297	-0.203663	-0.007636	10.9969	-0.201776	-140.88	5.420497E-5	NaN
319	1.000000	0.982647	7.36819e+06	-54589.1	955.819	-29743.4	0.000000	0.000000	6.983126	-0.062369	NaN	0.000000	0.001655	0.001646	28.079	0.215387	0.002002	107.611	-93.058	-165.119	-0.030547	0.981322	-0.192294	-0.193618	-0.062369	107.611	-0.191859	-96.6131	0.000646	NaN
319	1.000000	0.992644	7.36819e+06	-54589.1	955.819	-29743.4	0.000000	0.000000	6.993122	-0.089291	NaN	0.000000	0.001640	0.001684	28.0791	0.033434	0.001912	17.4835	-143.296	11.1316	0.009634	0.991333	-0.182297	-0.183608	-0.089291	17.4835	-0.178466	-57.4559	0.001554	NaN
319	1.000000	1.002645	7.36819e+06	-54589.1	955.819	-29743.4	0.000000	0.000000	7.003125	-0.045695	NaN	0.000000	0.001656	0.001654	28.0805	0.015050	0.002034	7.400642	2.166717	-168.274	-0.040937	1.001371	-0.172295	-0.173570	-0.045695	7.400642	-0.167665	-37.4071	0.001222	NaN
319	1.000000	1.012680	7.36819e+06	-54589.1	955.818	-29743.4	0.000000	0.000000	7.013160	-0.046551	NaN	0.000000	0.001605	0.001725	28.0804	0.051942	0.002041	25.451	-170.374	15.1929	-0.009131	1.011299	-0.162260	-0.163642	-0.046551	25.451	-0.160889	-28.4289	0.001637	NaN
319	1.000000	1.022665	7.36819e+06	-54589.1	955.82	-29743.4	0.000000	0.000000	7.023146	-0.034922	NaN	0.000000	0.001605	0.001726	28.0803	0.067065	0.002076	32.3101	130.073	-165.585	-0.074660	1.021350	-0.152275	-0.153590	-0.034922	32.3101	-0.151465	-19.2605	0.001813	NaN
319	1.000000	1.032691	7.36819e+06	-54589.1	955.819	-29743.4	0.000000	0.000000	7.033173	-0.003190	NaN	0.000000	0.001593	0.001709	28.0803	0.112649	0.001960	57.4721	0.081054	13.5454	-0.029977	1.031349	-0.142249	-0.143592	-0.003190	57.4721	-0.142207	-13.0104	0.000245	NaN
319	1.000000	1.042671	7.36819e+06	-54589.1	955.82	-29743.4	0.000000	0.000000	7.043151	-0.054826	NaN	0.000000	0.001651	0.001721	28.0806	0.010776	0.001898	5.677329	176.758	-166.534	-0.054888	1.041355	-0.132269	-0.133585	-0.054826	5.677329	-0.125026	-6.088556	0.009005	NaN
319	1.000000	1.052701	7.36819e+06	-54589.1	955.82	-29743.4	0.000000	0.000000	7.053182	-0.025070	NaN	0.000000	0.001665	0.001660	28.0804	0.091431	0.002024	45.1734	144.318	15.4845	-0.080128	1.051332	-0.122240	-0.123609	-0.025070	45.1734	-0.121824	-5.257174	0.004769	NaN
319	1.000000	1.062691	7.36819e+06	-54589.1	955.819	-29743.4	0.000000	0.000000	7.063172	-0.009122	NaN	0.000000	0.001686	0.001635	28.0803	0.059729	0.002117	28.2084	102.048	-165.186	0.005620	1.061374	-0.112250	-0.113567	-0.009122	28.2084	-0.112007	-3.311301	0.002755	NaN
319	1.000000	1.072715	7.36819e+06	-54589.1	955.819	-29743.4	0.000000	0.000000	7.073196	-0.012592	NaN	0.000000	0.001658	0.001704	28.0802	0.130043	0.001932	67.2941	128.387	14.0055	0.011784	1.071272	-0.102225	-0.103669	-0.012592	67.2941	-0.102085	-2.031139	0.006200	NaN
319	1.000000	1.082664	7.36819e+06	-54589.1	955.818	-29743.4	0.000000	0.000000	7.083146	-0.004043	NaN	0.000000	0.001688	0.001683	28.0803	0.058476	0.001944	30.081	64.1206	-168.543	0.042944	1.081414	-0.092277	-0.093527	-0.004043	30.081	-0.092176	-1.214886	0.003328	NaN
319	1.000000	1.092728	7.36819e+06	-54589.1	955.819	-29743.4	0.000000	0.000000	7.093208	-0.039409	NaN	0.000000	0.001716	0.001713	28.0802	0.027129	0.001885	14.3916	86.8156	17.1061	0.098858	1.091323	-0.082213	-0.083618	-0.039409	14.3916	-0.080159	-0.624688	0.063085	NaN
319	1.000000	1.102700	7.36819e+06	-54589.1	955.819	-29743.4	0.000000	0.000000	7.103182	0.003162	NaN	0.000000	0.001649	0.001655	28.0803	0.047695	0.001941	24.5768	115.234	-165.973	-0.022122	1.101363	-0.072241	-0.073577	0.003162	24.5768	-0.072337	-0.393540	-0.008035	NaN
319	1.000000	1.112715	7.36819e+06	-54589.1	955.82	-29743.4	0.000000	0.000000	7.113197	-0.009315	NaN	0.000000	0.001698	0.001667	28.0801	0.035905	0.002107	17.0393	-109.856	14.7863	-0.007686	1.111318	-0.062225	-0.063623	-0.009315	17.0393	-0.061815	-0.202892	0.045913	NaN
319	1.000000	1.122720	7.36819e+06	-54589.1	955.818	-29743.4	0.000000	0.000000	7.123203	0.009943	NaN	0.000000	0.001692	0.001637	28.0802	0.063393	0.001973	32.1278	-92.0982	-166.456	-0.084053	1.121403	-0.052220	-0.053537	0.009943	32.1278	-0.052452	-0.108153	-0.091938	NaN
319	1.000000	1.132722	7.36819e+06	-54589.1	955.819	-29743.4	0.000000	0.000000	7.133203	-0.019498	NaN	0.000000	0.001707	0.001631	28.0788	0.136869	0.001991	68.7382	-151.239	13.8123	0.026324	1.131389	-0.042218	-0.043551	-0.019498	68.7382	-0.042006	-0.052053	0.374581	NaN
319	1.000000	1.142721	7.36819e+06	-54589.1	955.819	-29743.4	0.000000	0.000000	7.143204	0.021718	NaN	0.000000	0.001621	0.001621	28.0795	0.068553	0.002011	34.0821	-28.3887	-162.698	-0.000371	1.141393	-0.032219	-0.033547	0.021718	34.0821	-0.032697	-0.027441	-0.791447	NaN
319	1.000000	1.152736	7.36819e+06	-54589.1	955.821	-29743.4	0.000000	0.000000	7.153219	0.017939	NaN	0.000000	0.001633	0.001659	28.079	0.023872	0.001904	12.5384	-113.351	16.5527	-0.019003	1.151351	-0.022205	-0.023590	0.017939	12.5384	-0.023278	-0.015224	-1.178333	NaN
319	1.000000	1.162710	7.36819e+06	-54589.1	955.821	-29743.4	0.000000	0.000000	7.163191	-0.038361	NaN	0.000000	0.001663	0.001650	28.0788	0.046349	0.001996	23.2259	1.707762	-167.214	0.068507	1.161445	-0.012230	-0.013496	-0.038361	23.2259	-0.010992	-0.006953	5.516899	NaN
319	1.000000	1.172730	7.36819e+06	-54589.1	955.821	-29743.4	0.000000	0.000000	7.173212	0.010326	NaN	0.000000	0.001634	0.001626	28.0786	0.153841	0.001816	84.7254	3.817828	13.0745	-0.050505	1.171395	-0.002211	-0.003546	0.010326	84.7254	-0.002302	-0.001648	-6.266975	NaN
319	2.000000	1.182139	7.36819e+06	-54589.1	955.82	-29743.4	0.000000	0.000000	7.182993	9.037244	NaN	0.000000	0.001612	0.001608	28.0786	8.184110	0.001717	4767.84	8.537151	-171.232	8.148332	1.181367	0.007199	0.006427	9.037244	4767.84	0.005777	0.004854	1861.83	62524.1
319	2.000000	1.184803	7.36819e+06	-54589.1	955.82	-29743.4	0.000000	0.000000	7.185724	10.666	NaN	0.000000	0.001628	0.001651	28.079	10.4552	0.001763	5931.4	9.184236	6.393200	10.1566	1.184534	0.009863	0.009593	10.666	5931.4	0.008514	0.007576	1407.79	62258.4
319	2.000000	1.187313	7.36819e+06	-54589.1	955.821	-29743.4	0.000000	0.000000	7.188382	14.2744	NaN	0.000000	0.001602	0.001639	28.0787	13.2374	0.001788	7403.27	12.2516	-177.917	15.2978	1.187012	0.012373	0.012071	14.2744	7403.27	0.010926	0.010229	1395.44	66876.5
319	2.000000	1.189822	7.36819e+06	-54589.1	955.82	-29743.4	0.000000	0.000000	7.191101	19.3554	NaN	0.000000	0.001654	0.001645	28.0787	14.8862	0.001814	8204.14	9.463018	4.069095	19.161	1.189474	0.014882	0.014534	19.3554	8204.14	0.013113	0.012850	1506.23	66122.8
319	2.000000	1.192298	7.36819e+06	-54589.1	955.82	-29743.4	0.000000	0.000000	7.193658	21.3417	NaN	0.000000	0.001612	0.001648	28.0788	17.1651	0.001839	9335.19	10.8897	-178.688	22.0998	1.192003	0.017357	0.017063	21.3417	9335.19	0.015643	0.016152	1321.3	67109.1
319	2.000000	1.194704	7.36819e+06	-54589.1	955.82	-29743.4	0.000000	0.000000	7.196314	27.426	NaN	0.000000	0.001635	0.001681	28.0797	19.8501	0.001796	11052.9	7.983806	1.981516	25.5593	1.194432	0.019763	0.019492	27.426	11052.9	0.017902	0.019353	1417.17	72590.7
319	2.000000	1.197253	7.36819e+06	-54589.1	955.82	-29743.4	0.000000	0.000000	7.198850	27.1009	NaN	0.000000	0.001603	0.001673	28.0787	22.3822	0.001676	13355.1	6.090270	-179.027	26.782	1.197017	0.022312	0.022077	27.1009	13355.1	0.020790	0.023800	1138.71	79092.4
319	2.000000	1.199744	7.36819e+06	-54589.1	955.82	-29743.4	0.000000	0.000000	7.201715	36.1951	NaN	0.000000	0.001654	0.001642	28.0791	24.6534	0.001889	13052	4.387560	4.110126	34.4522	1.199361	0.024803	0.024420	36.1951	13052	0.022723	0.027004	1340.37	72566.7
319	2.000000	1.202222	7.36819e+06	-54589.1	955.821	-29743.4	0.000000	0.000000	7.204388	40.9366	NaN	0.000000	0.001694	0.001695	28.0789	26.2845	0.001715	15327.4	0.514882	-174.212	40.5067	1.201940	0.027282	0.027000	40.9366	15327.4	0.025278	0.031524	1298.58	78871.5
319	2.000000	1.204659	7.36819e+06	-54589.1	955.82	-29743.4	0.000000	0.000000	7.207157	49.0203	NaN	0.000000	0.001651	0.001688	28.0814	28.8179	0.001708	16870.4	3.795106	1.940490	45.6454	1.204365	0.029718	0.029425	49.0203	16870.4	0.027539	0.035797	1369.38	81465.2
319	2.000000	1.207312	7.36819e+06	-54589.1	955.819	-29743.4	0.000000	0.000000	7.209786	48.4239	NaN	0.000000	0.001670	0.001651	28.08	32.0989	0.001927	16658.2	6.323582	-178.375	52.0741	1.207005	0.032371	0.032064	48.4239	16658.2	0.030191	0.041141	1177.04	75035.4
319	2.000000	1.209750	7.36819e+06	-54589.1	955.819	-29743.4	0.000000	0.000000	7.212677	59.4255	NaN	0.000000	0.001676	0.001652	28.0811	34.5365	0.001726	20006.8	6.790855	-2.898993	59.0489	1.209459	0.034810	0.034518	59.4255	20006.8	0.032582	0.046266	1284.43	84980.3
319	2.000000	1.212150	7.36819e+06	-54589.1	955.82	-29743.4	0.000000	0.000000	7.215681	74.1408	NaN	0.000000	0.001652	0.001657	28.0801	36.6301	0.001812	20212.9	6.730610	176.932	70.3367	1.211791	0.037209	0.036851	74.1408	20212.9	0.034458	0.050492	1468.36	82184.4
319	2.000000	1.214720	7.36819e+06	-54589.1	955.82	-29743.4	0.000000	0.000000	7.218443	78.784	NaN	0.000000	0.001655	0.001682	28.0808	39.5737	0.001787	22140.7	7.108494	-2.851088	77.5261	1.214348	0.039780	0.039407	78.784	22140.7	0.037111	0.056776	1387.64	84895.3
319	2.000000	1.217257	7.36819e+06	-54589.1	955.82	-29743.4	0.000000	0.000000	7.221247	85.29	NaN	0.000000	0.001644	0.001684	28.0801	41.5674	0.001883	22071.3	7.159384	177.987	87.2539	1.216925	0.042317	0.041984	85.29	22071.3	0.039418	0.062534	1363.9	80638.7
319	2.000000	1.219692	7.36819e+06	-54589.1	955.819	-29743.4	0.000000	0.000000	7.223903	90.6331	NaN	0.000000	0.001653	0.001692	28.0814	42.9327	0.001797	23886	4.342083	-1.834939	86.4436	1.219355	0.044752	0.044414	90.6331	23886	0.041906	0.069047	1312.62	83050.7
319	2.000000	1.222138	7.36819e+06	-54589.1	955.819	-29743.4	0.000000	0.000000	7.226911	104.321	NaN	0.000000	0.001631	0.001667	28.0805	45.7357	0.001851	24711.9	2.770302	179.436	102.195	1.221829	0.047197	0.046888	104.321	24711.9	0.044031	0.074861	1393.52	82518.4
319	2.000000	1.224729	7.36819e+06	-54589.1	955.821	-29743.4	0.000000	0.000000	7.229712	109.434	NaN	0.000000	0.001652	0.001680	28.0802	49.3537	0.001924	25646.9	8.282915	-5.339234	111.113	1.224227	0.049788	0.049287	109.434	25646.9	0.046588	0.082160	1331.97	81748.2
319	2.000000	1.227229	7.36819e+06	-54589.1	955.821	-29743.4	0.000000	0.000000	7.232928	126.832	NaN	0.000000	0.001662	0.001665	28.0799	50.7233	0.001936	26195.9	5.595668	177.351	130.103	1.226874	0.052288	0.051934	126.832	26195.9	0.048657	0.088308	1436.25	80539.3
319	2.000000	1.229667	7.36819e+06	-54589.1	955.82	-29743.4	0.000000	0.000000	7.235505	130.198	NaN	0.000000	0.001632	0.001648	28.0801	51.1701	0.001774	28840.2	0.606645	0.596853	126.877	1.229356	0.054727	0.054415	130.198	28840.2	0.051341	0.096603	1347.76	84776.6
319	2.000000	1.232171	7.36819e+06	-54589.1	955.82	-29743.4	0.000000	0.000000	7.238259	136.275	NaN	0.000000	0.001633	0.001669	28.0802	53.3508	0.001863	28640.3	2.135570	179.204	135.156	1.231875	0.057231	0.056935	136.275	28640.3	0.053662	0.104068	1309.49	81113.5
319	2.000000	1.234719	7.36819e+06	-54589.1	955.82	-29743.4	0.000000	0.000000	7.241420	151.198	NaN	0.000000	0.001611	0.001679	28.0803	55.6205	0.001852	30029.6	4.681446	-3.749405	150.789	1.234348	0.059778	0.059407	151.198	30029.6	0.056002	0.111864	1351.63	82030.9
319	2.000000	1.237313	7.36819e+06	-54589.1	955.82	-29743.4	0.000000	0.000000	7.244137	154.156	NaN	0.000000	0.001622	0.001635	28.0799	58.4425	0.001827	31981.4	3.164926	177.888	162.892	1.237000	0.062373	0.062060	154.156	31981.4	0.058758	0.121392	1269.91	83864.1
319	2.000000	1.239738	7.36819e+06	-54589.1	955.819	-29743.4	0.000000	0.000000	7.247375	173.931	NaN	0.000000	0.001600	0.001631	28.0789	59.9851	0.001820	32952.1	6.705063	-5.410548	175.255	1.239265	0.064798	0.064325	173.931	32952.1	0.060839	0.128834	1350.04	83876.7
319	2.000000	1.242119	7.36819e+06	-54589.1	955.82	-29743.4	0.000000	0.000000	7.250260	186.207	NaN	0.000000	0.001635	0.001642	28.0783	62.8002	0.001655	37944.8	4.934624	172.847	183.04	1.241865	0.067178	0.066925	186.207	37944.8	0.063498	0.138649	1343.02	93103.8
319	2.000000	1.244665	7.36819e+06	-54589.1	955.82	-29743.4	0.000000	0.000000	7.253588	205.201	NaN	0.000000	0.001615	0.001674	28.0787	65.9579	0.001769	37280.7	2.471489	-2.569877	203.339	1.244294	0.069725	0.069353	205.201	37280.7	0.065597	0.146639	1399.36	88947.2
319	2.000000	1.247116	7.36819e+06	-54589.1	955.82	-29743.4	0.000000	0.000000	7.256535	217.259	NaN	0.000000	0.001651	0.001628	28.0786	69.1043	0.001857	37209.8	3.937278	175.568	213.382	1.246767	0.072176	0.071827	217.259	37209.8	0.067797	0.155242	1399.49	86283.2
319	2.000000	1.249679	7.36819e+06	-54589.1	955.82	-29743.4	0.000000	0.000000	7.259758	233.323	NaN	0.000000	0.001680	0.001674	28.0789	70.2645	0.001690	41567.4	5.360726	-6.705622	231.393	1.249268	0.074738	0.074327	233.323	41567.4	0.070529	0.166245	1403.49	93143.6
319	2.000000	1.252138	7.36819e+06	-54589.1	955.82	-29743.4	0.000000	0.000000	7.262579	242.119	NaN	0.000000	0.001734	0.001665	28.0786	72.7863	0.001792	40627.9	3.551394	175.306	239.355	1.251879	0.077197	0.076939	242.119	40627.9	0.072728	0.175361	1380.69	88640.1
319	2.000000	1.254662	7.36819e+06	-54589.1	955.821	-29743.4	0.000000	0.000000	7.265967	263.098	NaN	0.000000	0.001708	0.001626	28.0788	75.7456	0.001767	42878.8	3.117244	-4.263770	260.984	1.254173	0.079722	0.079233	263.098	42878.8	0.075120	0.185537	1418.04	90949.5
319	2.000000	1.257162	7.36819e+06	-54589.1	955.821	-29743.4	0.000000	0.000000	7.268767	270.407	NaN	0.000000	0.001699	0.001615	28.0785	79.5598	0.001797	44277.7	5.204330	172.961	271.866	1.256845	0.082222	0.081904	270.407	44277.7	0.077641	0.196553	1375.75	91246.9
319	2.000000	1.259626	7.36819e+06	-54589.1	955.821	-29743.4	0.000000	0.000000	7.272187	293.646	NaN	0.000000	0.001675	0.001661	28.0789	80.3057	0.001817	44191.7	4.043002	-6.080257	290.16	1.259225	0.084685	0.084284	293.646	44191.7	0.079702	0.205777	1427.01	89005.1
319	2.000000	1.262127	7.36819e+06	-54589.1	955.82	-29743.4	0.000000	0.000000	7.275400	310.961	NaN	0.000000	0.001713	0.001629	28.0785	82.6903	0.001768	46758.6	10.826	166.467	310.034	1.261800	0.087186	0.086859	310.961	46758.6	0.082198	0.217218	1431.56	91661.4
319	2.000000	1.264783	7.36819e+06	-54589.1	955.821	-29743.4	0.000000	0.000000	7.278360	318.329	NaN	0.000000	0.001684	0.001671	28.0787	84.174	0.001653	50913.8	0.018493	-3.201417	321.546	1.264327	0.089843	0.089387	318.329	50913.8	0.085154	0.231134	1377.25	96755.7
319	2.000000	1.267181	7.36819e+06	-54589.1	955.82	-29743.4	0.000000	0.000000	7.281615	339.164	NaN	0.000000	0.001736	0.001660	28.0786	89.9307	0.001791	50222.5	4.219600	172.09	338.355	1.266925	0.092241	0.091984	339.164	50222.5	0.087176	0.240890	1407.97	93489.5
319	2.000000	1.269712	7.36819e+06	-54589.1	955.82	-29743.4	0.000000	0.000000	7.285089	362.109	NaN	0.000000	0.001742	0.001682	28.0789	91.0671	0.001804	50488.7	5.908130	-8.089728	364.074	1.269244	0.094771	0.094304	362.109	50488.7	0.089392	0.251799	1438.09	91926.5
319	2.000000	1.272156	7.36819e+06	-54589.1	955.82	-29743.4	0.000000	0.000000	7.288287	380.419	NaN	0.000000	0.001704	0.001660	28.0798	93.1392	0.001778	52394.2	3.937180	172.703	380.031	1.271883	0.097216	0.096942	380.419	52394.2	0.091770	0.263753	1442.33	93209
319	2.000000	1.274720	7.36819e+06	-54589.1	955.82	-29743.4	0.000000	0.000000	7.291552	397.459	NaN	0.000000	0.001692	0.001658	28.08	95.1512	0.001690	56305	3.834276	-7.077434	400.217	1.274308	0.099780	0.099368	397.459	56305	0.094485	0.277719	1431.16	97615.1
319	2.000000	1.277156	7.36819e+06	-54589.1	955.82	-29743.4	0.000000	0.000000	7.294824	417.793	NaN	0.000000	0.001677	0.001678	28.0801	99.2659	0.001789	55492.1	4.991752	170.92	416.469	1.276881	0.102216	0.101941	417.793	55492.1	0.096569	0.288666	1447.32	94364
319	2.000000	1.279565	7.36819e+06	-54589.1	955.82	-29743.4	0.000000	0.000000	7.298280	443.269	NaN	0.000000	0.001643	0.001668	28.08	100.883	0.001868	53997.6	5.323444	-7.688576	436.138	1.279202	0.104624	0.104262	443.269	53997.6	0.098467	0.298809	1483.45	90250.8
319	2.000000	1.280624	7.36819e+06	-54589.1	955.82	-29743.4	0.000000	0.000000	7.299162	438.938	NaN	0.000000	0.001686	0.001691	28.0802	102.194	0.001713	59644.7	2.928994	-7.235614	435.605	1.280414	0.105684	0.105473	438.938	59644.7	0.100164	0.308017	1425.05	98187.8