File: remote_trans/data/nanoindenter/0828-1/data/Data_2025-08-06,11h17m57s/2025-07-22_16-23-58_1_314.txt
2025-07-22, 16:23:58, 1
Index	Phase	Displacement	Time	Pos X	Pos Y	Pos Z	Rot A	Rot B	Piezo Z	Force A	Force B	Gripper	Voltage A	Voltage B	Temperature	Amplitude force	Amplitude pos	Stiffness	Phase shift	Phase excitation	Force A raw	Displacement raw	HMax	HMax raw	Real Force	Real Stiffness	Contact Depth	Area	Hardness	Reduced Mod.
[#]	[#]	[um]	[s]	[um]	[um]	[um]	[m°]	[m°]	[um]	[uN]	[uN]	[V]	[V]	[V]	[°C]	[uN]	[um]	[N/m]	[°]	[°]	[uN]	[um]	[um]	[um]	[uN]	[N/m]	[um]	[um^2]	[MPa]	[MPa]
314	1.000000	0.002501	7.36814e+06	-54339.1	955.82	-29744.2	0.000000	0.000000	6.002816	0.007441	NaN	0.000000	0.001626	0.001737	28.0797	0.063562	0.000896	70.9771	138.962	-171.68	0.115660	0.001266	-0.985606	-0.986841	0.007441	70.9771	-0.985685	-1.455436E+13	-5.112644E-16	NaN
314	1.000000	0.010460	7.36814e+06	-54339.1	955.818	-29744.2	0.000000	0.000000	6.010774	-0.026789	NaN	0.000000	0.001623	0.001742	28.0799	0.100831	0.000931	108.334	-36.5253	-163.635	0.019361	0.009116	-0.977647	-0.978991	-0.026789	108.334	-0.977461	-1.127736E+13	2.375454E-15	NaN
314	1.000000	0.018464	7.36814e+06	-54339.1	955.819	-29744.2	0.000000	0.000000	6.018776	-0.059702	NaN	0.000000	0.001642	0.001752	28.0799	0.020484	0.001726	11.8663	141.232	-168.229	-0.064049	0.017108	-0.969643	-0.970999	-0.059702	11.8663	-0.965870	-7.870355E+12	7.585687E-15	NaN
314	1.000000	0.026474	7.36814e+06	-54339.1	955.818	-29744.2	0.000000	0.000000	6.026788	-0.010256	NaN	0.000000	0.001662	0.001730	28.0797	0.152908	0.001867	81.8972	-172.585	-164.875	-0.038329	0.025167	-0.961633	-0.962940	-0.010256	81.8972	-0.961539	-6.880518E+12	1.490604E-15	NaN
314	1.000000	0.034450	7.36814e+06	-54339.1	955.819	-29744.2	0.000000	0.000000	6.034766	0.028049	NaN	0.000000	0.001617	0.001724	28.0793	0.095659	0.001946	49.1618	-81.5294	-165.894	-0.004565	0.033119	-0.953658	-0.954989	0.028049	49.1618	-0.954086	-5.459129E+12	-5.137988E-15	NaN
314	1.000000	0.042449	7.36814e+06	-54339.1	955.818	-29744.2	0.000000	0.000000	6.042765	0.042245	NaN	0.000000	0.001616	0.001734	28.0797	0.035605	0.001958	18.1808	-18.0857	-168.501	0.067232	0.041122	-0.945658	-0.946985	0.042245	18.1808	-0.947401	-4.435833E+12	-9.523559E-15	NaN
314	1.000000	0.050443	7.36814e+06	-54339.1	955.818	-29744.2	0.000000	0.000000	6.050756	-0.032836	NaN	0.000000	0.001645	0.001742	28.0797	0.038046	0.001966	19.3548	102.396	-169.471	-0.029695	0.049150	-0.937665	-0.938957	-0.032836	19.3548	-0.936392	-3.151090E+12	1.042043E-14	NaN
314	1.000000	0.058443	7.36814e+06	-54339.1	955.818	-29744.2	0.000000	0.000000	6.058756	-0.038826	NaN	0.000000	0.001630	0.001692	28.0794	0.037773	0.001950	19.3727	-142.247	-163.943	-0.052519	0.057135	-0.929664	-0.930972	-0.038826	19.3727	-0.928161	-2.439925E+12	1.591282E-14	NaN
314	1.000000	0.066462	7.36814e+06	-54339.1	955.819	-29744.2	0.000000	0.000000	6.066780	0.080615	NaN	0.000000	0.001609	0.001745	28.0806	0.031520	0.002018	15.623	91.3147	-168.861	0.001905	0.065201	-0.921645	-0.922906	0.080615	15.623	-0.925515	-2.247322E+12	-3.587168E-14	NaN
314	1.000000	0.074422	7.36814e+06	-54339.1	955.818	-29744.2	0.000000	0.000000	6.074738	0.026702	NaN	0.000000	0.001601	0.001734	28.0805	0.125538	0.001966	63.8445	170.285	-166.561	0.045755	0.073144	-0.913686	-0.914963	0.026702	63.8445	-0.913999	-1.571001E+12	-1.699706E-14	NaN
314	1.000000	0.082422	7.36814e+06	-54339.1	955.819	-29744.2	0.000000	0.000000	6.082736	-0.020594	NaN	0.000000	0.001603	0.001732	28.0806	0.086508	0.001931	44.8002	93.6352	-164.521	0.047829	0.081073	-0.905686	-0.907034	-0.020594	44.8002	-0.905341	-1.200124E+12	1.715963E-14	NaN
314	1.000000	0.090450	7.36814e+06	-54339.1	955.819	-29744.2	0.000000	0.000000	6.090765	-0.005785	NaN	0.000000	0.001596	0.001738	28.0805	0.049507	0.002010	24.6345	-101.123	-168.661	0.088168	0.089197	-0.897657	-0.898910	-0.005785	24.6345	-0.897481	-9.397851E+11	6.155484E-15	NaN
314	1.000000	0.098441	7.36814e+06	-54339.1	955.818	-29744.2	0.000000	0.000000	6.098753	-0.077376	NaN	0.000000	0.001601	0.001738	28.0808	0.056908	0.002063	27.5835	125.014	-165.284	-0.046801	0.097132	-0.889666	-0.890975	-0.077376	27.5835	-0.887562	-6.901798E+11	1.121105E-13	NaN
314	1.000000	0.106444	7.36814e+06	-54339.1	955.819	-29744.2	0.000000	0.000000	6.106757	-0.049255	NaN	0.000000	0.001608	0.001760	28.0807	0.157893	0.001948	81.0409	-88.074	-165.44	-0.062870	0.105143	-0.881663	-0.882965	-0.049255	81.0409	-0.881207	-5.662876E+11	8.697794E-14	NaN
314	1.000000	0.114460	7.36814e+06	-54339.1	955.818	-29744.2	0.000000	0.000000	6.114777	0.046890	NaN	0.000000	0.001631	0.001685	28.0805	0.078512	0.002107	37.2615	133.252	-164.063	0.040133	0.113156	-0.873647	-0.874951	0.046890	37.2615	-0.874591	-4.608420E+11	-1.017475E-13	NaN
314	1.000000	0.122502	7.36814e+06	-54339.1	955.819	-29744.2	0.000000	0.000000	6.122815	-0.036200	NaN	0.000000	0.001586	0.001719	28.0809	0.106938	0.001927	55.499	-107.822	-166.887	-0.035778	0.121133	-0.865606	-0.866974	-0.036200	55.499	-0.865116	-3.430567E+11	1.055230E-13	NaN
314	1.000000	0.130469	7.36814e+06	-54339.1	955.818	-29744.2	0.000000	0.000000	6.130782	-0.041132	NaN	0.000000	0.001563	0.001700	28.0803	0.070364	0.001941	36.2552	74.713	-168.363	0.021702	0.129183	-0.857638	-0.858925	-0.041132	36.2552	-0.856787	-2.646245E+11	1.554364E-13	NaN
314	1.000000	0.138477	7.36814e+06	-54339.1	955.818	-29744.2	0.000000	0.000000	6.138791	-0.015367	NaN	0.000000	0.001582	0.001709	28.0806	0.063791	0.001903	33.5285	30.1659	-163.535	0.057080	0.137139	-0.849630	-0.850969	-0.015367	33.5285	-0.849286	-2.094475E+11	7.336835E-14	NaN
314	1.000000	0.146509	7.36814e+06	-54339.1	955.817	-29744.2	0.000000	0.000000	6.146825	0.042943	NaN	0.000000	0.001618	0.001743	28.0806	0.076959	0.001858	41.4307	144.269	-164.289	0.054911	0.145132	-0.841598	-0.842975	0.042943	41.4307	-0.842376	-1.688412E+11	-2.543417E-13	NaN
314	1.000000	0.154459	7.36814e+06	-54339.1	955.818	-29744.2	0.000000	0.000000	6.154777	0.078609	NaN	0.000000	0.001595	0.001763	28.0808	0.065870	0.002139	30.8007	-71.8341	-168.608	0.130870	0.153124	-0.833648	-0.834983	0.078609	30.8007	-0.835563	-1.365114E+11	-5.758449E-13	NaN
314	1.000000	0.162456	7.36814e+06	-54339.1	955.818	-29744.2	0.000000	0.000000	6.162771	0.022214	NaN	0.000000	0.001621	0.001703	28.0808	0.108873	0.002016	53.9945	75.5961	-169.923	-0.039197	0.161173	-0.825652	-0.826935	0.022214	53.9945	-0.825960	-1.011634E+11	-2.195900E-13	NaN
314	1.000000	0.170461	7.36814e+06	-54339.1	955.819	-29744.2	0.000000	0.000000	6.170777	0.026429	NaN	0.000000	0.001628	0.001703	28.0805	0.090717	0.001939	46.7972	-152.387	-165.816	-0.007948	0.169179	-0.817647	-0.818928	0.026429	46.7972	-0.818070	-7.907499E+10	-3.342278E-13	NaN
314	1.000000	0.178475	7.36814e+06	-54339.1	955.818	-29744.2	0.000000	0.000000	6.178792	0.052048	NaN	0.000000	0.001630	0.001695	28.0807	0.106739	0.002044	52.2092	-173.066	-164.814	-0.052230	0.177160	-0.809632	-0.810947	0.052048	52.2092	-0.810380	-6.219055E+10	-8.369073E-13	NaN
314	1.000000	0.186478	7.36814e+06	-54339.1	955.818	-29744.2	0.000000	0.000000	6.186793	0.006212	NaN	0.000000	0.001613	0.001705	28.0807	0.009745	0.001956	4.981837	-176.188	-169.578	-0.004330	0.185153	-0.801629	-0.802954	0.006212	4.981837	-0.802564	-4.871565E+10	-1.275214E-13	NaN
314	1.000000	0.194474	7.36814e+06	-54339.1	955.819	-29744.2	0.000000	0.000000	6.194790	0.040764	NaN	0.000000	0.001647	0.001668	28.0806	0.058324	0.002056	28.3641	-167.866	-167.04	-0.040017	0.193179	-0.793633	-0.794928	0.040764	28.3641	-0.794711	-3.811176E+10	-1.069594E-12	NaN
314	1.000000	0.202485	7.36814e+06	-54339.1	955.818	-29744.2	0.000000	0.000000	6.202802	0.064924	NaN	0.000000	0.001617	0.001670	28.0794	0.082346	0.001994	41.2946	84.7952	-166.139	0.073152	0.201168	-0.785623	-0.786939	0.064924	41.2946	-0.786802	-2.976081E+10	-2.181521E-12	NaN
314	1.000000	0.210485	7.36814e+06	-54339.1	955.818	-29744.2	0.000000	0.000000	6.210798	-0.041310	NaN	0.000000	0.001620	0.001713	28.0794	0.019122	0.002051	9.321767	-149.34	-167.314	-0.020925	0.209177	-0.777622	-0.778930	-0.041310	9.321767	-0.774298	-2.012519E+10	2.052636E-12	NaN
314	1.000000	0.218529	7.36814e+06	-54339.1	955.819	-29744.2	0.000000	0.000000	6.218845	0.028407	NaN	0.000000	0.001648	0.001729	28.0795	0.132540	0.001878	70.5673	37.2885	-164.767	0.013949	0.217162	-0.769578	-0.770945	0.028407	70.5673	-0.769880	-1.752567E+10	-1.620882E-12	NaN
314	1.000000	0.226514	7.36814e+06	-54339.1	955.819	-29744.2	0.000000	0.000000	6.226827	-0.035539	NaN	0.000000	0.001640	0.001679	28.0796	0.024131	0.002045	11.8004	133.861	-164.793	0.006055	0.225194	-0.761593	-0.762913	-0.035539	11.8004	-0.759334	-1.259646E+10	2.821326E-12	NaN
314	1.000000	0.234500	7.36814e+06	-54339.1	955.818	-29744.2	0.000000	0.000000	6.234817	0.038743	NaN	0.000000	0.001585	0.001713	28.0799	0.076082	0.002166	35.127	123.409	-168.353	0.005402	0.233226	-0.753607	-0.754881	0.038743	35.127	-0.754434	-1.080370E+10	-3.586101E-12	NaN
314	1.000000	0.242530	7.36814e+06	-54339.1	955.819	-29744.2	0.000000	0.000000	6.242845	0.011147	NaN	0.000000	0.001627	0.001731	28.0795	0.083488	0.002102	39.7258	-127.869	-166.769	-0.039996	0.241238	-0.745577	-0.746870	0.011147	39.7258	-0.745788	-8.239040E+9	-1.352951E-12	NaN
314	1.000000	0.250534	7.36814e+06	-54339.1	955.819	-29744.2	0.000000	0.000000	6.250846	-0.049243	NaN	0.000000	0.001625	0.001718	28.0795	0.101909	0.001936	52.6378	117.836	-167.961	-0.057638	0.249194	-0.737574	-0.738913	-0.049243	52.6378	-0.736872	-6.229390E+9	7.904933E-12	NaN
314	1.000000	0.258524	7.36814e+06	-54339.1	955.817	-29744.2	0.000000	0.000000	6.258836	-0.077956	NaN	0.000000	0.001556	0.001716	28.0797	0.026832	0.002073	12.9455	-51.9951	-164.453	-0.073579	0.257219	-0.729583	-0.730888	-0.077956	12.9455	-0.725067	-4.300924E+9	1.812547E-11	NaN
314	1.000000	0.266511	7.36814e+06	-54339.1	955.818	-29744.2	0.000000	0.000000	6.266825	0.001228	NaN	0.000000	0.001572	0.001702	28.0795	0.129574	0.001895	68.3764	-20.2117	-169.319	-0.013497	0.265184	-0.721597	-0.722924	0.001228	68.3764	-0.721610	-3.858612E+9	-3.183724E-13	NaN
314	1.000000	0.274518	7.36814e+06	-54339.1	955.818	-29744.2	0.000000	0.000000	6.274831	-0.046138	NaN	0.000000	0.001565	0.001694	28.0797	0.063252	0.001990	31.7832	-77.6888	-167.35	-0.011075	0.273208	-0.713589	-0.714899	-0.046138	31.7832	-0.712501	-2.898497E+9	1.591801E-11	NaN
314	1.000000	0.282522	7.36814e+06	-54339.1	955.818	-29744.2	0.000000	0.000000	6.282836	-0.036096	NaN	0.000000	0.001598	0.001688	28.0794	0.120109	0.001806	66.5001	-174.691	-167.72	0.040731	0.281230	-0.705585	-0.706877	-0.036096	66.5001	-0.705178	-2.302657E+9	1.567573E-11	NaN
314	1.000000	0.290519	7.36814e+06	-54339.1	955.819	-29744.2	0.000000	0.000000	6.290835	0.013181	NaN	0.000000	0.001618	0.001698	28.0795	0.064678	0.001937	33.3984	-109.775	-162.792	-0.058850	0.289243	-0.697588	-0.698864	0.013181	33.3984	-0.697884	-1.830756E+9	-7.199949E-12	NaN
314	1.000000	0.298552	7.36814e+06	-54339.1	955.818	-29744.2	0.000000	0.000000	6.298867	0.009526	NaN	0.000000	0.001570	0.001681	28.0797	0.137658	0.002015	68.3248	28.3976	-167.109	0.013439	0.297226	-0.689555	-0.690882	0.009526	68.3248	-0.689660	-1.413399E+9	-6.739488E-12	NaN
314	1.000000	0.306558	7.36814e+06	-54339.1	955.82	-29744.2	0.000000	0.000000	6.306872	-0.021584	NaN	0.000000	0.001608	0.001667	28.0792	0.041122	0.002072	19.8467	88.1939	-165.336	-0.010093	0.305212	-0.681550	-0.682895	-0.021584	19.8467	-0.680734	-1.067193E+9	2.022501E-11	NaN
314	1.000000	0.314573	7.36814e+06	-54339.1	955.819	-29744.2	0.000000	0.000000	6.314889	0.025183	NaN	0.000000	0.001614	0.001680	28.0792	0.078302	0.002126	36.8267	-39.0259	-166.759	0.033489	0.313296	-0.673534	-0.674811	0.025183	36.8267	-0.674047	-8.645211E+8	-2.912948E-11	NaN
314	1.000000	0.322562	7.36814e+06	-54339.1	955.819	-29744.2	0.000000	0.000000	6.322877	0.011806	NaN	0.000000	0.001588	0.001695	28.0793	0.118282	0.002140	55.2801	-156.716	-168.982	-0.030266	0.321222	-0.665546	-0.666885	0.011806	55.2801	-0.665706	-6.646709E+8	-1.776147E-11	NaN
314	1.000000	0.330531	7.36814e+06	-54339.1	955.818	-29744.2	0.000000	0.000000	6.330848	0.038887	NaN	0.000000	0.001584	0.001703	28.0795	0.059315	0.001967	30.1571	-98.2357	-162.672	0.043425	0.329217	-0.657576	-0.658890	0.038887	30.1571	-0.658543	-5.302890E+8	-7.333232E-11	NaN
314	1.000000	0.338562	7.36814e+06	-54339.1	955.818	-29744.2	0.000000	0.000000	6.338877	0.013793	NaN	0.000000	0.001583	0.001694	28.0808	0.006949	0.001903	3.650999	13.644	-165.234	-0.008452	0.337256	-0.649546	-0.650851	0.013793	3.650999	-0.652379	-4.365612E+8	-3.159359E-11	NaN
314	1.000000	0.346580	7.36814e+06	-54339.1	955.817	-29744.2	0.000000	0.000000	6.346894	-0.009630	NaN	0.000000	0.001633	0.001668	28.0805	0.014242	0.001837	7.754102	-103.055	-166.564	-0.045908	0.345262	-0.641528	-0.642845	-0.009630	7.754102	-0.640596	-3.009321E+8	3.200001E-11	NaN
314	1.000000	0.354580	7.36814e+06	-54339.1	955.818	-29744.2	0.000000	0.000000	6.354890	-0.105365	NaN	0.000000	0.001618	0.001636	28.0805	0.047883	0.001982	24.1595	87.4784	-167.598	-0.123369	0.353201	-0.633527	-0.634907	-0.105365	24.1595	-0.630257	-2.170434E+8	4.854580E-10	NaN
314	1.000000	0.362555	7.36814e+06	-54339.1	955.819	-29744.2	0.000000	0.000000	6.362872	0.053520	NaN	0.000000	0.001588	0.001695	28.0804	0.062079	0.002120	29.2807	164.012	-164.136	0.024911	0.361262	-0.625552	-0.626845	0.053520	29.2807	-0.626923	-1.953271E+8	-2.739997E-10	NaN
314	1.000000	0.370574	7.36814e+06	-54339.1	955.818	-29744.2	0.000000	0.000000	6.370886	-0.052310	NaN	0.000000	0.001638	0.001733	28.0806	0.020350	0.001995	10.1989	4.992702	-167.644	0.015585	0.369303	-0.617534	-0.618804	-0.052310	10.1989	-0.613687	-1.284785E+8	4.071522E-10	NaN
314	1.000000	0.378551	7.36814e+06	-54339.1	955.818	-29744.2	0.000000	0.000000	6.378865	-0.000355	NaN	0.000000	0.001630	0.001721	28.0802	0.089701	0.001990	45.074	28.3047	-168.202	0.011861	0.377285	-0.609557	-0.610822	-0.000355	45.074	-0.609551	-1.127023E+8	3.151285E-12	NaN
314	1.000000	0.386575	7.36814e+06	-54339.1	955.819	-29744.2	0.000000	0.000000	6.386888	-0.028153	NaN	0.000000	0.001654	0.001720	28.0806	0.054866	0.002013	27.2606	78.5285	-163.874	-0.132118	0.385258	-0.601532	-0.602849	-0.028153	27.2606	-0.600758	-8.528965E+7	3.300927E-10	NaN
314	1.000000	0.394587	7.36814e+06	-54339.1	955.819	-29744.2	0.000000	0.000000	6.394901	-0.015316	NaN	0.000000	0.001627	0.001697	28.0809	0.014301	0.002042	7.003466	-93.3078	-167.374	-0.077566	0.393329	-0.593520	-0.594778	-0.015316	7.003466	-0.591880	-6.435555E+7	2.379947E-10	NaN
314	1.000000	0.402585	7.36814e+06	-54339.1	955.819	-29744.2	0.000000	0.000000	6.402899	-0.016306	NaN	0.000000	0.001652	0.001744	28.0805	0.102021	0.002054	49.6648	-88.4932	-166.757	-0.041809	0.401299	-0.585522	-0.586808	-0.016306	49.6648	-0.585276	-5.218198E+7	3.124917E-10	NaN
314	1.000000	0.410564	7.36814e+06	-54339.1	955.818	-29744.2	0.000000	0.000000	6.410876	-0.070341	NaN	0.000000	0.001654	0.001736	28.0804	0.103543	0.002030	51.0034	115.739	-166.224	-0.051850	0.409266	-0.577544	-0.578841	-0.070341	51.0034	-0.576509	-3.949458E+7	1.781019E-9	NaN
314	1.000000	0.418585	7.36814e+06	-54339.1	955.819	-29744.2	0.000000	0.000000	6.418899	-0.005597	NaN	0.000000	0.001653	0.001751	28.0805	0.050586	0.002113	23.9393	-74.9939	-165.776	-0.064920	0.417281	-0.569523	-0.570827	-0.005597	23.9393	-0.569347	-3.144942E+7	1.779594E-10	NaN
314	1.000000	0.426625	7.36814e+06	-54339.1	955.819	-29744.2	0.000000	0.000000	6.426940	0.007051	NaN	0.000000	0.001610	0.001745	28.0804	0.081388	0.001982	41.066	-136.202	-169.316	-0.016513	0.425266	-0.561482	-0.562842	0.007051	41.066	-0.561611	-2.458440E+7	-2.868141E-10	NaN
314	1.000000	0.434572	7.36814e+06	-54339.1	955.818	-29744.2	0.000000	0.000000	6.434887	0.007538	NaN	0.000000	0.001625	0.001743	28.0803	0.073548	0.001832	40.1502	3.406730	-170.044	0.046573	0.433285	-0.553535	-0.554822	0.007538	40.1502	-0.553676	-1.909225E+7	-3.948209E-10	NaN
314	1.000000	0.442607	7.36814e+06	-54339.1	955.819	-29744.2	0.000000	0.000000	6.442923	0.033527	NaN	0.000000	0.001655	0.001758	28.0804	0.085832	0.001995	43.0171	-133.489	-166.776	-0.003966	0.441274	-0.545500	-0.546833	0.033527	43.0171	-0.546084	-1.498679E+7	-2.237121E-9	NaN
314	1.000000	0.450586	7.36814e+06	-54339.1	955.819	-29744.2	0.000000	0.000000	6.450900	-0.020153	NaN	0.000000	0.001667	0.001741	28.0803	0.079667	0.001994	39.9456	-112.189	-166.558	-0.042763	0.449269	-0.537521	-0.538838	-0.020153	39.9456	-0.537143	-1.126489E+7	1.788998E-9	NaN
314	1.000000	0.458624	7.36814e+06	-54339.1	955.818	-29744.2	0.000000	0.000000	6.458940	0.033368	NaN	0.000000	0.001656	0.001708	28.0805	0.016993	0.001887	9.007370	108.098	-163.907	-0.038386	0.457277	-0.529484	-0.530830	0.033368	9.007370	-0.532262	-9.63798e+06	-3.462171E-9	NaN
314	1.000000	0.466636	7.36814e+06	-54339.1	955.818	-29744.2	0.000000	0.000000	6.466950	-0.015662	NaN	0.000000	0.001632	0.001736	28.0807	0.053785	0.002032	26.4701	52.9505	-166.529	-0.025232	0.465250	-0.521471	-0.522857	-0.015662	26.4701	-0.521027	-6.72799e+06	2.327849E-9	NaN
314	1.000000	0.474634	7.36814e+06	-54339.1	955.818	-29744.2	0.000000	0.000000	6.474948	-0.015066	NaN	0.000000	0.001697	0.001739	28.0794	0.031079	0.002170	14.3196	133.531	-168.58	-0.018849	0.473288	-0.513473	-0.514820	-0.015066	14.3196	-0.512684	-5.14988e+06	2.925581E-9	NaN
314	1.000000	0.482621	7.36814e+06	-54339.1	955.818	-29744.2	0.000000	0.000000	6.482935	-0.012864	NaN	0.000000	0.001629	0.001726	28.0796	0.102758	0.002034	50.5304	112.188	-165.585	0.022562	0.481305	-0.505487	-0.506802	-0.012864	50.5304	-0.505296	-4.06319e+06	3.165907E-9	NaN
314	1.000000	0.490661	7.36814e+06	-54339.1	955.818	-29744.2	0.000000	0.000000	6.490979	0.062351	NaN	0.000000	0.001659	0.001727	28.0794	0.081994	0.001914	42.8336	-1.776994	-166.272	0.024402	0.489339	-0.497446	-0.498768	0.062351	42.8336	-0.498538	-3.27049e+06	-1.906459E-8	NaN
314	1.000000	0.498605	7.36814e+06	-54339.1	955.818	-29744.2	0.000000	0.000000	6.498920	0.001591	NaN	0.000000	0.001646	0.001731	28.0792	0.091276	0.001980	46.0905	149.636	-168.439	-0.035640	0.497293	-0.489502	-0.490814	0.001591	46.0905	-0.489528	-2.44795e+06	-6.500541E-10	NaN
314	1.000000	0.506634	7.36814e+06	-54339.1	955.818	-29744.2	0.000000	0.000000	6.506948	-0.019976	NaN	0.000000	0.001660	0.001720	28.0794	0.061781	0.001886	32.7629	-26.3562	-169.794	-0.015230	0.505225	-0.481473	-0.482883	-0.019976	32.7629	-0.481016	-1.86102e+06	1.073378E-8	NaN
314	1.000000	0.514631	7.36814e+06	-54339.1	955.818	-29744.2	0.000000	0.000000	6.514945	-0.027671	NaN	0.000000	0.001678	0.001746	28.0791	0.075971	0.002075	36.6073	14.7211	-162.78	-0.025569	0.513307	-0.473476	-0.474801	-0.027671	36.6073	-0.472909	-1.43284e+06	1.931190E-8	NaN
314	1.000000	0.522647	7.36814e+06	-54339.1	955.818	-29744.2	0.000000	0.000000	6.522962	0.012648	NaN	0.000000	0.001660	0.001771	28.0796	0.136609	0.001939	70.4445	-80.0769	-163.808	0.025021	0.521322	-0.465461	-0.466785	0.012648	70.4445	-0.465595	-1.13137e+06	-1.117953E-8	NaN
314	1.000000	0.530646	7.36814e+06	-54339.1	955.818	-29744.2	0.000000	0.000000	6.530958	-0.079888	NaN	0.000000	0.001622	0.001703	28.0795	0.033276	0.001822	18.265	97.0851	-165.839	-0.089212	0.529383	-0.457461	-0.458724	-0.079888	18.265	-0.454181	-781969	1.021628E-7	NaN
314	1.000000	0.538667	7.36814e+06	-54339.1	955.817	-29744.2	0.000000	0.000000	6.538980	-0.042667	NaN	0.000000	0.001628	0.001728	28.0794	0.030218	0.002072	14.5823	-170.504	-163.888	-0.086329	0.537305	-0.449440	-0.450802	-0.042667	14.5823	-0.447246	-624514	6.832100E-8	NaN
314	1.000000	0.546623	7.36814e+06	-54339.1	955.818	-29744.2	0.000000	0.000000	6.546937	-0.003081	NaN	0.000000	0.001657	0.001750	28.0793	0.006706	0.002048	3.273852	81.1912	-165.572	-0.063397	0.545374	-0.441484	-0.442733	-0.003081	3.273852	-0.440778	-506232	6.087126E-9	NaN
314	1.000000	0.554639	7.36814e+06	-54339.1	955.818	-29744.2	0.000000	0.000000	6.554953	-0.022983	NaN	0.000000	0.001614	0.001784	28.0791	0.042598	0.001927	22.108	-62.5453	-170.674	0.082854	0.553353	-0.433468	-0.434754	-0.022983	22.108	-0.432689	-389120	5.906323E-8	NaN
314	1.000000	0.562653	7.36814e+06	-54339.1	955.818	-29744.2	0.000000	0.000000	6.562967	-0.011512	NaN	0.000000	0.001580	0.001779	28.0794	0.063991	0.001920	33.3293	176.738	-165.219	-0.079271	0.561349	-0.425454	-0.426759	-0.011512	33.3293	-0.425195	-304820	3.776810E-8	NaN
314	1.000000	0.570650	7.36814e+06	-54339.1	955.819	-29744.2	0.000000	0.000000	6.570965	-0.000963	NaN	0.000000	0.001624	0.001790	28.0793	0.063830	0.002183	29.2437	-155.49	-167.22	-0.003824	0.569382	-0.417457	-0.418726	-0.000963	29.2437	-0.417432	-236584	4.071163E-9	NaN
314	1.000000	0.578662	7.36814e+06	-54339.1	955.818	-29744.2	0.000000	0.000000	6.578977	0.004860	NaN	0.000000	0.001636	0.001732	28.0793	0.042078	0.001960	21.4684	145.125	-167.006	0.001905	0.577401	-0.409446	-0.410707	0.004860	21.4684	-0.409615	-183203	-2.652687E-8	NaN
314	1.000000	0.586646	7.36814e+06	-54339.1	955.818	-29744.2	0.000000	0.000000	6.586961	0.004908	NaN	0.000000	0.001682	0.001766	28.0793	0.032004	0.001870	17.1148	133.48	-170.448	-0.054793	0.585366	-0.401461	-0.402741	0.004908	17.1148	-0.401676	-141219	-3.475393E-8	NaN
314	1.000000	0.594638	7.36814e+06	-54339.1	955.817	-29744.2	0.000000	0.000000	6.594953	0.011270	NaN	0.000000	0.001727	0.001732	28.0792	0.080983	0.001950	41.5205	-178.08	-169.026	-0.029038	0.593382	-0.393470	-0.394725	0.011270	41.5205	-0.393673	-108563	-1.038091E-7	NaN
314	1.000000	0.602648	7.36814e+06	-54339.1	955.818	-29744.2	0.000000	0.000000	6.602961	-0.061597	NaN	0.000000	0.001675	0.001736	28.0795	0.124013	0.001925	64.4092	-108.692	-168.618	-0.078885	0.601434	-0.385459	-0.386673	-0.061597	64.4092	-0.384742	-80887.9	7.615152E-7	NaN
314	1.000000	0.610668	7.36814e+06	-54339.1	955.819	-29744.2	0.000000	0.000000	6.610982	-0.019906	NaN	0.000000	0.001691	0.001724	28.0806	0.010119	0.002084	4.855213	14.1334	-166.296	-0.010797	0.609371	-0.377439	-0.378736	-0.019906	4.855213	-0.374364	-57402.2	3.467750E-7	NaN
314	1.000000	0.618643	7.36814e+06	-54339.1	955.818	-29744.2	0.000000	0.000000	6.618954	-0.080971	NaN	0.000000	0.001683	0.001772	28.0808	0.040073	0.001941	20.6471	21.457	-165.834	-0.067564	0.617387	-0.369465	-0.370721	-0.080971	20.6471	-0.366523	-44261.7	1.829366E-6	NaN
314	1.000000	0.626674	7.36814e+06	-54339.1	955.818	-29744.2	0.000000	0.000000	6.626990	0.013923	NaN	0.000000	0.001678	0.001759	28.081	0.025881	0.002043	12.667	124.45	-168.651	-0.042170	0.625402	-0.361433	-0.362705	0.013923	12.667	-0.362257	-38411.4	-3.624754E-7	NaN
314	1.000000	0.634682	7.36814e+06	-54339.1	955.819	-29744.2	0.000000	0.000000	6.634996	-0.031753	NaN	0.000000	0.001696	0.001738	28.0806	0.123097	0.002042	60.2707	-156.425	-166.58	-0.084460	0.633382	-0.353425	-0.354725	-0.031753	60.2707	-0.353030	-28245.5	1.124184E-6	NaN
314	1.000000	0.642703	7.36814e+06	-54339.1	955.819	-29744.2	0.000000	0.000000	6.643018	-0.006863	NaN	0.000000	0.001660	0.001699	28.0807	0.037003	0.002001	18.4921	61.3804	-168.376	-0.042917	0.641350	-0.345404	-0.346758	-0.006863	18.4921	-0.345126	-21686.3	3.164644E-7	NaN
314	1.000000	0.650701	7.36814e+06	-54339.1	955.817	-29744.2	0.000000	0.000000	6.651014	-0.038348	NaN	0.000000	0.001729	0.001688	28.0807	0.115427	0.001946	59.3164	-94.0799	-167.246	-0.046303	0.649399	-0.337407	-0.338708	-0.038348	59.3164	-0.336922	-16468.4	2.328563E-6	NaN
314	1.000000	0.658713	7.36814e+06	-54339.1	955.818	-29744.2	0.000000	0.000000	6.659027	-0.018328	NaN	0.000000	0.001675	0.001714	28.0807	0.016223	0.001860	8.724037	-28.6784	-164.89	-0.062534	0.657375	-0.329394	-0.330733	-0.018328	8.724037	-0.327818	-12119.4	1.512254E-6	NaN
314	1.000000	0.666708	7.36814e+06	-54339.1	955.818	-29744.2	0.000000	0.000000	6.667022	0.000262	NaN	0.000000	0.001623	0.001712	28.0814	0.104662	0.002004	52.2366	-170.082	-162.885	-0.058845	0.665391	-0.321400	-0.322717	0.000262	52.2366	-0.321404	-9756.39	-2.689583E-8	NaN
314	1.000000	0.674736	7.36814e+06	-54339.1	955.818	-29744.2	0.000000	0.000000	6.675053	0.045250	NaN	0.000000	0.001627	0.001710	28.0808	0.051462	0.002016	25.5298	62.5637	-165.508	-0.000952	0.673407	-0.313371	-0.314700	0.045250	25.5298	-0.314701	-7771.94	-5.822265E-6	NaN
314	1.000000	0.682682	7.36814e+06	-54339.1	955.818	-29744.2	0.000000	0.000000	6.682997	0.001416	NaN	0.000000	0.001635	0.001702	28.0808	0.127610	0.002172	58.7401	-86.2826	-166.277	-0.026155	0.681390	-0.305425	-0.306718	0.001416	58.7401	-0.305443	-5669.38	-2.497630E-7	NaN
314	1.000000	0.690677	7.36814e+06	-54339.1	955.818	-29744.2	0.000000	0.000000	6.690993	0.030391	NaN	0.000000	0.001571	0.001677	28.0806	0.006800	0.002050	3.317209	118.302	-164.307	-0.030087	0.689400	-0.297430	-0.298707	0.030391	3.317209	-0.304302	-5452.38	-5.573917E-6	NaN
314	1.000000	0.698727	7.36814e+06	-54339.1	955.818	-29744.2	0.000000	0.000000	6.699041	-0.012086	NaN	0.000000	0.001601	0.001733	28.0805	0.137976	0.002069	66.6817	170.55	-163.621	-0.046724	0.697343	-0.289381	-0.290764	-0.012086	66.6817	-0.289245	-3250.76	3.717759E-6	NaN
314	1.000000	0.706722	7.36814e+06	-54339.1	955.819	-29744.2	0.000000	0.000000	6.707036	-0.021366	NaN	0.000000	0.001571	0.001711	28.0819	0.109540	0.002039	53.7213	-10.3818	-167.521	-0.028869	0.705396	-0.281385	-0.282711	-0.021366	53.7213	-0.281087	-2451.12	8.716622E-6	NaN
314	1.000000	0.714704	7.36814e+06	-54339.1	955.819	-29744.2	0.000000	0.000000	6.715016	-0.064382	NaN	0.000000	0.001653	0.001727	28.0808	0.055677	0.002064	26.976	-12.0161	-167.453	0.043547	0.713438	-0.273403	-0.274669	-0.064382	26.976	-0.271613	-1762.18	3.653518E-5	NaN
314	1.000000	0.722680	7.36814e+06	-54339.1	955.818	-29744.2	0.000000	0.000000	6.722996	0.042064	NaN	0.000000	0.001661	0.001725	28.0803	0.180180	0.001935	93.1197	153.764	-168.752	-0.011545	0.721436	-0.265428	-0.266672	0.042064	93.1197	-0.265766	-1435.76	-2.929760E-5	NaN
314	1.000000	0.730743	7.36814e+06	-54339.1	955.818	-29744.2	0.000000	0.000000	6.731057	-0.005101	NaN	0.000000	0.001644	0.001706	28.0805	0.016500	0.001952	8.451413	2.979428	-163.235	0.067606	0.729384	-0.257364	-0.258724	-0.005101	8.451413	-0.256912	-1050.8	4.854522E-6	NaN
314	1.000000	0.738700	7.36814e+06	-54339.1	955.819	-29744.2	0.000000	0.000000	6.739013	-0.035797	NaN	0.000000	0.001662	0.001724	28.0803	0.054655	0.002037	26.8249	113.073	-167.354	0.018811	0.737485	-0.249408	-0.250622	-0.035797	26.8249	-0.248407	-776.802	4.608195E-5	NaN
314	1.000000	0.746716	7.36814e+06	-54339.1	955.817	-29744.2	0.000000	0.000000	6.747030	-0.025891	NaN	0.000000	0.001640	0.001720	28.0794	0.178910	0.002051	87.2281	107.154	-165.963	0.000897	0.745448	-0.241391	-0.242659	-0.025891	87.2281	-0.241169	-599.506	4.318645E-5	NaN
314	1.000000	0.754748	7.36814e+06	-54339.1	955.818	-29744.2	0.000000	0.000000	6.755062	-0.015376	NaN	0.000000	0.001662	0.001719	28.0792	0.079077	0.001848	42.7802	117.268	-168.286	0.008199	0.753428	-0.233360	-0.234680	-0.015376	42.7802	-0.233090	-447.948	3.432543E-5	NaN
314	1.000000	0.762734	7.36814e+06	-54339.1	955.818	-29744.2	0.000000	0.000000	6.763049	0.013090	NaN	0.000000	0.001697	0.001740	28.0795	0.057968	0.001987	29.1717	32.7861	-165.129	0.030689	0.761419	-0.225374	-0.226688	0.013090	29.1717	-0.225710	-342.462	-3.822430E-5	NaN
314	1.000000	0.770743	7.36814e+06	-54339.1	955.818	-29744.2	0.000000	0.000000	6.771057	-0.014743	NaN	0.000000	0.001628	0.001745	28.0792	0.089781	0.001966	45.6618	-44.0276	-164.814	-0.078207	0.769463	-0.217364	-0.218644	-0.014743	45.6618	-0.217122	-249.805	5.901780E-5	NaN
314	1.000000	0.778759	7.36814e+06	-54339.1	955.819	-29744.2	0.000000	0.000000	6.779071	-0.073053	NaN	0.000000	0.001643	0.001724	28.0791	0.116960	0.002100	55.7077	55.8385	-166.527	-0.106891	0.777506	-0.209348	-0.210601	-0.073053	55.7077	-0.208364	-180.427	0.000405	NaN
314	1.000000	0.786722	7.36814e+06	-54339.1	955.818	-29744.2	0.000000	0.000000	6.787036	-0.019084	NaN	0.000000	0.001655	0.001740	28.0793	0.039914	0.001962	20.3405	-111.595	-164.631	-0.073772	0.785437	-0.201385	-0.202671	-0.019084	20.3405	-0.200682	-135.174	0.000141	NaN
314	1.000000	0.794755	7.36814e+06	-54339.1	955.819	-29744.2	0.000000	0.000000	6.795068	-0.048609	NaN	0.000000	0.001679	0.001732	28.0795	0.061264	0.001945	31.4979	14.3509	-169.539	0.048832	0.793461	-0.193352	-0.194646	-0.048609	31.4979	-0.192195	-97.8647	0.000497	NaN
314	1.000000	0.802770	7.36814e+06	-54339.1	955.818	-29744.2	0.000000	0.000000	6.803086	0.035483	NaN	0.000000	0.001608	0.001749	28.0794	0.035205	0.001967	17.8995	-7.737572	-167.248	-0.049597	0.801449	-0.185337	-0.186659	0.035483	17.8995	-0.186824	-79.5838	-0.000446	NaN
314	1.000000	0.810767	7.36814e+06	-54339.1	955.818	-29744.2	0.000000	0.000000	6.811083	0.029338	NaN	0.000000	0.001589	0.001716	28.0795	0.068942	0.002113	32.6208	-120.857	-165.758	-0.053338	0.809474	-0.177340	-0.178633	0.029338	32.6208	-0.178015	-56.4457	-0.000520	NaN
314	1.000000	0.818759	7.36814e+06	-54339.1	955.818	-29744.2	0.000000	0.000000	6.819072	-0.019620	NaN	0.000000	0.001577	0.001700	28.0792	0.077957	0.001941	40.1691	114.752	-167.769	0.062372	0.817388	-0.169349	-0.170720	-0.019620	40.1691	-0.168982	-39.4388	0.000497	NaN
314	1.000000	0.826794	7.36814e+06	-54339.1	955.818	-29744.2	0.000000	0.000000	6.827107	-0.043749	NaN	0.000000	0.001589	0.001709	28.0791	0.062707	0.001966	31.9021	-104.31	-162.404	-0.056520	0.825405	-0.161314	-0.162702	-0.043749	31.9021	-0.160285	-27.7365	0.001577	NaN
314	1.000000	0.834777	7.36814e+06	-54339.1	955.818	-29744.2	0.000000	0.000000	6.835090	-0.027470	NaN	0.000000	0.001624	0.001749	28.0792	0.055924	0.001935	28.9023	-152.811	-167.681	0.013168	0.833407	-0.153330	-0.154700	-0.027470	28.9023	-0.152618	-20.2104	0.001359	NaN
314	1.000000	0.842797	7.36814e+06	-54339.1	955.818	-29744.2	0.000000	0.000000	6.843108	-0.100032	NaN	0.000000	0.001615	0.001702	28.0793	0.101915	0.001981	51.4447	-113.585	-164.736	-0.014605	0.841465	-0.145310	-0.146642	-0.100032	51.4447	-0.143852	-13.9602	0.007165	NaN
314	1.000000	0.850763	7.36814e+06	-54339.1	955.818	-29744.2	0.000000	0.000000	6.851078	-0.006860	NaN	0.000000	0.001631	0.001689	28.0795	0.091893	0.002022	45.4569	145.109	-165.368	-0.014730	0.849476	-0.137344	-0.138631	-0.006860	45.4569	-0.137231	-10.4887	0.000654	NaN
314	1.000000	0.858749	7.36814e+06	-54339.1	955.819	-29744.2	0.000000	0.000000	6.859062	-0.033848	NaN	0.000000	0.001612	0.001706	28.0794	0.047645	0.001983	24.0278	-43.9323	-169.022	0.034914	0.857404	-0.129358	-0.130704	-0.033848	24.0278	-0.128302	-7.061967	0.004793	NaN
314	1.000000	0.866794	7.36814e+06	-54339.1	955.818	-29744.2	0.000000	0.000000	6.867109	-0.002386	NaN	0.000000	0.001620	0.001707	28.0794	0.118646	0.001985	59.7742	-179.477	-168.026	-0.034490	0.865491	-0.121313	-0.122616	-0.002386	59.7742	-0.121283	-5.127602	0.000465	NaN
314	1.000000	0.874766	7.36814e+06	-54339.1	955.819	-29744.2	0.000000	0.000000	6.875080	-0.019861	NaN	0.000000	0.001588	0.001711	28.0794	0.183385	0.002114	86.7482	-106.824	-168.436	-0.078292	0.873498	-0.113342	-0.114609	-0.019861	86.7482	-0.113170	-3.501273	0.005672	NaN
314	1.000000	0.882802	7.36814e+06	-54339.1	955.819	-29744.2	0.000000	0.000000	6.883118	0.026782	NaN	0.000000	0.001609	0.001691	28.0806	0.036405	0.002024	17.9894	-104.584	-169.097	0.088078	0.881489	-0.105305	-0.106618	0.026782	17.9894	-0.106422	-2.522206	-0.010618	NaN
314	1.000000	0.890806	7.36814e+06	-54339.1	955.819	-29744.2	0.000000	0.000000	6.891121	0.011445	NaN	0.000000	0.001617	0.001705	28.0805	0.077964	0.001972	39.5319	-91.673	-165.513	0.024836	0.889425	-0.097302	-0.098682	0.011445	39.5319	-0.097519	-1.608431	-0.007115	NaN
314	1.000000	0.898805	7.36814e+06	-54339.1	955.819	-29744.2	0.000000	0.000000	6.899122	0.036536	NaN	0.000000	0.001651	0.001711	28.0805	0.001671	0.001943	0.859706	15.6484	-169.392	0.041956	0.897489	-0.089302	-0.090618	0.036536	0.859706	-0.121176	-5.102189	-0.007161	NaN
314	1.000000	0.906774	7.36814e+06	-54339.1	955.818	-29744.2	0.000000	0.000000	6.907091	0.049113	NaN	0.000000	0.001666	0.001693	28.0806	0.057027	0.002055	27.7564	-117.528	-167.878	0.048538	0.905500	-0.081334	-0.082607	0.049113	27.7564	-0.082661	-0.720497	-0.068166	NaN
314	1.000000	0.914812	7.36814e+06	-54339.1	955.819	-29744.2	0.000000	0.000000	6.915125	-0.033511	NaN	0.000000	0.001633	0.001711	28.0807	0.025090	0.002043	12.2787	29.7541	-167.825	-0.010752	0.913519	-0.073295	-0.074588	-0.033511	12.2787	-0.071248	-0.368289	0.090990	NaN
314	1.000000	0.922794	7.36814e+06	-54339.1	955.817	-29744.2	0.000000	0.000000	6.923106	-0.060103	NaN	0.000000	0.001605	0.001665	28.0804	0.085757	0.001996	42.9725	50.886	-164.87	-0.065037	0.921464	-0.065314	-0.066644	-0.060103	42.9725	-0.064265	-0.237751	0.252799	NaN
314	1.000000	0.930808	7.36814e+06	-54339.1	955.819	-29744.2	0.000000	0.000000	6.931124	0.019747	NaN	0.000000	0.001609	0.001704	28.0803	0.070543	0.002078	33.9412	-175.228	-167.078	-0.010417	0.929520	-0.057299	-0.058588	0.019747	33.9412	-0.057735	-0.154906	-0.127474	NaN
314	1.000000	0.938797	7.36814e+06	-54339.1	955.818	-29744.2	0.000000	0.000000	6.939112	-0.004200	NaN	0.000000	0.001607	0.001742	28.0804	0.091851	0.002057	44.6586	21.4624	-167.333	0.050222	0.937479	-0.049310	-0.050628	-0.004200	44.6586	-0.049240	-0.086539	0.048529	NaN
314	1.000000	0.946787	7.36814e+06	-54339.1	955.818	-29744.2	0.000000	0.000000	6.947100	-0.038693	NaN	0.000000	0.001620	0.001754	28.0803	0.156307	0.001928	81.0643	73.5334	-163.468	-0.098882	0.945487	-0.041321	-0.042620	-0.038693	81.0643	-0.040963	-0.048377	0.799822	NaN
314	1.000000	0.954825	7.36814e+06	-54339.1	955.819	-29744.2	0.000000	0.000000	6.955140	0.014233	NaN	0.000000	0.001610	0.001722	28.0808	0.039674	0.002075	19.1169	158.904	-167.435	-0.021561	0.953513	-0.033283	-0.034595	0.014233	19.1169	-0.033841	-0.029616	-0.480592	NaN
314	1.000000	0.962824	7.36814e+06	-54339.1	955.818	-29744.2	0.000000	0.000000	6.963138	-0.023828	NaN	0.000000	0.001622	0.001685	28.0807	0.049237	0.001949	25.2688	21.6751	-167.647	-0.073392	0.961502	-0.025283	-0.026606	-0.023828	25.2688	-0.024576	-0.016446	1.448812	NaN
314	1.000000	0.970799	7.36814e+06	-54339.1	955.819	-29744.2	0.000000	0.000000	6.971112	-0.035545	NaN	0.000000	0.001616	0.001708	28.0804	0.056417	0.001963	28.7406	71.603	-168.254	-0.061683	0.969439	-0.017308	-0.018668	-0.035545	28.7406	-0.016381	-0.010119	3.512615	NaN
314	1.000000	0.978815	7.36814e+06	-54339.1	955.818	-29744.2	0.000000	0.000000	6.979132	0.043180	NaN	0.000000	0.001624	0.001752	28.0806	0.045509	0.002087	21.8066	79.956	-167.659	-0.041839	0.977497	-0.009292	-0.010611	0.043180	21.8066	-0.010777	-0.006831	-6.321266	NaN
314	1.000000	0.986812	7.36814e+06	-54339.1	955.819	-29744.2	0.000000	0.000000	6.987129	0.037855	NaN	0.000000	0.001624	0.001741	28.0805	0.035236	0.002127	16.5669	91.9173	-167.658	0.071703	0.985520	-0.001295	-0.002588	0.037855	16.5669	-0.003009	-0.002126	-17.8038	NaN
314	1.000000	0.994824	7.36814e+06	-54339.1	955.819	-29744.2	0.000000	0.000000	6.995340	4.895685	NaN	0.000000	0.001667	0.001742	28.0806	5.751781	0.001716	3350.9	14.8749	-172.107	3.776633	0.993549	0.006717	0.005441	4.895685	3350.9	0.005621	0.004707	1040.06	44622.9
314	2.000000	0.999460	7.36814e+06	-54339.1	955.818	-29744.2	0.000000	0.000000	7.000156	9.278646	NaN	0.000000	0.001657	0.001710	28.0806	10.2666	0.001671	6144.11	9.865142	-176.765	9.756545	0.999089	0.011352	0.010982	9.278646	6144.11	0.010220	0.009427	984.288	57816.4
314	2.000000	1.001380	7.36814e+06	-54339.1	955.819	-29744.2	0.000000	0.000000	7.002192	12.0942	NaN	0.000000	0.001661	0.001712	28.0805	12.0414	0.001699	7085.7	7.837281	-174.415	11.0455	1.001088	0.013272	0.012981	12.0942	7085.7	0.011992	0.011481	1053.43	60418.4
314	2.000000	1.003377	7.36814e+06	-54339.1	955.818	-29744.2	0.000000	0.000000	7.004380	16.7248	NaN	0.000000	0.001691	0.001735	28.0793	14.4697	0.001608	8996.9	2.245769	-171.954	16.6683	1.003038	0.015270	0.014931	16.7248	8996.9	0.013876	0.013815	1210.62	69934
314	2.000000	1.005408	7.36814e+06	-54339.1	955.819	-29744.2	0.000000	0.000000	7.006526	19.5506	NaN	0.000000	0.001686	0.001744	28.0788	17.5794	0.001681	10456.4	5.981651	-177.346	18.7858	1.005001	0.017300	0.016893	19.5506	10456.4	0.015898	0.016502	1184.77	74369.4
314	2.000000	1.007354	7.36814e+06	-54339.1	955.818	-29744.2	0.000000	0.000000	7.008573	22.0011	NaN	0.000000	0.001715	0.001739	28.0794	19.2564	0.001778	10831	8.514641	-179.825	21.9844	1.007011	0.019246	0.018904	22.0011	10831	0.017723	0.019090	1152.52	71621.5
314	2.000000	1.009353	7.36814e+06	-54339.1	955.817	-29744.2	0.000000	0.000000	7.010686	24.7461	NaN	0.000000	0.001699	0.001748	28.0794	21.5262	0.001795	11991.1	4.726100	-176.797	24.5112	1.009090	0.021246	0.020983	24.7461	11991.1	0.019698	0.022070	1121.23	73744
314	2.000000	1.011378	7.36814e+06	-54339.1	955.818	-29744.2	0.000000	0.000000	7.012863	28.4477	NaN	0.000000	0.001717	0.001732	28.0793	22.7876	0.001643	13866.8	5.298737	-179.384	29.5783	1.011082	0.023271	0.022974	28.4477	13866.8	0.021732	0.025338	1122.74	79591.3
314	2.000000	1.013359	7.36814e+06	-54339.1	955.819	-29744.2	0.000000	0.000000	7.015024	32.8387	NaN	0.000000	0.001688	0.001706	28.0796	26.4914	0.001871	14161.7	8.141605	177.432	32.853	1.013024	0.025251	0.024917	32.8387	14161.7	0.023512	0.028364	1157.74	76824.9
314	2.000000	1.015352	7.36814e+06	-54339.1	955.818	-29744.2	0.000000	0.000000	7.017196	37.1807	NaN	0.000000	0.001710	0.001727	28.0792	27.6888	0.001758	15753.6	7.679006	177.806	38.9579	1.015060	0.027245	0.026953	37.1807	15753.6	0.025475	0.031885	1166.08	80604.5
314	2.000000	1.017322	7.36814e+06	-54339.1	955.818	-29744.2	0.000000	0.000000	7.019345	41.5406	NaN	0.000000	0.001716	0.001726	28.0795	29.5345	0.001778	16611.7	9.262874	175.595	41.4115	1.017040	0.029215	0.028933	41.5406	16611.7	0.027339	0.035409	1173.16	80654.7
314	2.000000	1.019347	7.36814e+06	-54339.1	955.818	-29744.2	0.000000	0.000000	7.021659	48.5587	NaN	0.000000	0.001695	0.001767	28.0795	31.468	0.001802	17459.3	3.013015	-179.162	48.6445	1.019044	0.031240	0.030936	48.5587	17459.3	0.029154	0.039009	1244.82	80764.4
314	2.000000	1.021330	7.36814e+06	-54339.1	955.818	-29744.2	0.000000	0.000000	7.023979	56.741	NaN	0.000000	0.001697	0.001718	28.0793	33.0259	0.001672	19753.5	5.392016	175.688	54.9834	1.020980	0.033223	0.032873	56.741	19753.5	0.031069	0.042988	1319.93	87045.1
314	2.000000	1.023315	7.36814e+06	-54339.1	955.818	-29744.2	0.000000	0.000000	7.026211	62.7642	NaN	0.000000	0.001685	0.001723	28.0797	35.4268	0.001675	21152	4.845308	176.965	61.2447	1.022976	0.035207	0.034869	62.7642	21152	0.032982	0.047151	1331.13	88997.6
314	2.000000	1.025325	7.36814e+06	-54339.1	955.818	-29744.2	0.000000	0.000000	7.028532	70.3113	NaN	0.000000	0.001720	0.001715	28.079	38.717	0.001809	21403.5	6.415361	176.37	69.4639	1.025019	0.037218	0.036912	70.3113	21403.5	0.034754	0.051174	1373.96	86443.4
314	2.000000	1.027280	7.36814e+06	-54339.1	955.819	-29744.2	0.000000	0.000000	7.030819	78.3834	NaN	0.000000	0.001712	0.001748	28.0793	41.0646	0.001861	22061	8.877767	173.103	76.7498	1.026955	0.039172	0.038848	78.3834	22061	0.036508	0.055314	1417.05	85699.5
314	2.000000	1.029352	7.36814e+06	-54339.1	955.818	-29744.2	0.000000	0.000000	7.033018	81.4763	NaN	0.000000	0.001602	0.001728	28.0791	43.2223	0.001737	24882	5.112501	175.135	84.4075	1.029081	0.041244	0.040974	81.4763	24882	0.038789	0.060935	1337.1	92092.8
314	2.000000	1.031309	7.36814e+06	-54339.1	955.819	-29744.2	0.000000	0.000000	7.035405	91.9345	NaN	0.000000	0.001644	0.001692	28.0799	43.1159	0.001722	25040.2	3.344993	178.537	91.4462	1.030943	0.043201	0.042835	91.9345	25040.2	0.040448	0.065191	1410.24	89602.3
314	2.000000	1.033333	7.36814e+06	-54339.1	955.819	-29744.2	0.000000	0.000000	7.037689	98.2477	NaN	0.000000	0.001632	0.001698	28.0793	46.3518	0.001678	27615.2	4.730870	175.286	99.8593	1.032940	0.045225	0.044833	98.2477	27615.2	0.042557	0.070804	1387.61	94818.4
314	2.000000	1.035315	7.36814e+06	-54339.1	955.819	-29744.2	0.000000	0.000000	7.040100	108.682	NaN	0.000000	0.001638	0.001687	28.0791	48.1917	0.001790	26926.8	5.027825	176.143	107.063	1.034898	0.047208	0.046790	108.682	26926.8	0.044181	0.075278	1443.73	89665.1
314	2.000000	1.037246	7.36814e+06	-54339.1	955.818	-29744.2	0.000000	0.000000	7.042283	114.813	NaN	0.000000	0.001650	0.001695	28.0804	50.6982	0.001754	28900.2	6.240240	172.643	111.419	1.037019	0.049139	0.048911	114.813	28900.2	0.046159	0.080911	1419	92825.9
314	2.000000	1.039301	7.36814e+06	-54339.1	955.82	-29744.2	0.000000	0.000000	7.044799	126.031	NaN	0.000000	0.001645	0.001751	28.08	54.5539	0.001903	28666.4	5.502009	174.246	124.933	1.038986	0.051193	0.050878	126.031	28666.4	0.047896	0.086020	1465.12	89298.9
314	2.000000	1.041244	7.36814e+06	-54339.1	955.819	-29744.2	0.000000	0.000000	7.046935	130.716	NaN	0.000000	0.001673	0.001738	28.0807	54.5671	0.001786	30559.6	3.482469	175.414	129.439	1.041033	0.053137	0.052926	130.716	30559.6	0.049929	0.092192	1417.86	91954.5
314	2.000000	1.043266	7.36814e+06	-54339.1	955.82	-29744.2	0.000000	0.000000	7.049559	145.353	NaN	0.000000	0.001644	0.001720	28.0803	57.4057	0.001825	31449.3	7.650120	172.028	144.879	1.042933	0.055158	0.054826	145.353	31449.3	0.051692	0.097715	1487.52	91918.8
314	2.000000	1.045348	7.36814e+06	-54339.1	955.82	-29744.2	0.000000	0.000000	7.051759	148.217	NaN	0.000000	0.001610	0.001695	28.0804	59.0757	0.001772	33331.4	3.489109	174.954	148.86	1.044991	0.057240	0.056884	148.217	33331.4	0.053905	0.104865	1413.41	94039.8
314	2.000000	1.047304	7.36814e+06	-54339.1	955.82	-29744.2	0.000000	0.000000	7.054280	161.927	NaN	0.000000	0.001635	0.001694	28.0808	60.9126	0.001846	32996.8	9.433705	169.274	162.248	1.046932	0.059197	0.058824	161.927	32996.8	0.055516	0.110223	1469.08	90804.7
314	2.000000	1.049283	7.36814e+06	-54339.1	955.819	-29744.2	0.000000	0.000000	7.056712	172.964	NaN	0.000000	0.001625	0.001729	28.0805	63.148	0.001807	34938.9	5.761938	172.42	173.823	1.049025	0.061175	0.060917	172.964	34938.9	0.057463	0.116867	1480.01	93376.2
314	2.000000	1.051256	7.36814e+06	-54339.1	955.819	-29744.2	0.000000	0.000000	7.059184	185.085	NaN	0.000000	0.001637	0.001686	28.0806	63.3556	0.001756	36073.1	6.402380	172.173	182.936	1.050890	0.063148	0.062783	185.085	36073.1	0.059300	0.123311	1500.96	93854.7
314	2.000000	1.053261	7.36814e+06	-54339.1	955.819	-29744.2	0.000000	0.000000	7.061434	191.056	NaN	0.000000	0.001636	0.001659	28.0804	66.9363	0.001819	36796.5	5.197523	172.472	190.175	1.052978	0.065153	0.064870	191.056	36796.5	0.061259	0.130362	1465.58	93111.7
314	2.000000	1.055296	7.36814e+06	-54339.1	955.82	-29744.2	0.000000	0.000000	7.063983	203.549	NaN	0.000000	0.001613	0.001703	28.0803	68.5907	0.001784	38457	4.727479	173.312	203.01	1.054991	0.067189	0.066883	203.549	38457	0.063219	0.137604	1479.24	94718.3
314	2.000000	1.057210	7.36814e+06	-54339.1	955.821	-29744.2	0.000000	0.000000	7.066209	211.121	NaN	0.000000	0.001621	0.001680	28.0805	69.7484	0.001821	38307.3	2.156134	175.33	207.342	1.056912	0.069102	0.068804	211.121	38307.3	0.064969	0.144227	1463.81	92157.7
314	2.000000	1.059206	7.36814e+06	-54339.1	955.82	-29744.2	0.000000	0.000000	7.068745	224.237	NaN	0.000000	0.001581	0.001683	28.0806	73.7536	0.001754	42037.7	6.972343	169.85	221.46	1.058811	0.071099	0.070704	224.237	42037.7	0.067098	0.152485	1470.55	98355.4
314	2.000000	1.061331	7.36814e+06	-54339.1	955.819	-29744.2	0.000000	0.000000	7.071219	232.724	NaN	0.000000	0.001605	0.001682	28.0806	74.4991	0.001718	43355.6	6.004572	170.683	238.421	1.060941	0.073224	0.072834	232.724	43355.6	0.069198	0.160842	1446.91	98768.6
314	2.000000	1.063151	7.36814e+06	-54339.1	955.82	-29744.2	0.000000	0.000000	7.073657	247.741	NaN	0.000000	0.001616	0.001704	28.0803	77.2095	0.001796	43000.6	7.871507	169.529	242.207	1.062876	0.075044	0.074768	247.741	43000.6	0.070723	0.167042	1483.11	96124.6
314	2.000000	1.065289	7.36814e+06	-54339.1	955.82	-29744.2	0.000000	0.000000	7.076302	260.084	NaN	0.000000	0.001642	0.001681	28.0804	78.9898	0.001845	42819.1	4.341687	172.986	260.507	1.064935	0.077182	0.076828	260.084	42819.1	0.072626	0.174936	1486.74	93534.4
314	2.000000	1.067199	7.36814e+06	-54339.1	955.82	-29744.2	0.000000	0.000000	7.078824	274.945	NaN	0.000000	0.001612	0.001713	28.0805	81.0825	0.001772	45763.6	6.716470	169.461	271.316	1.066848	0.079092	0.078741	274.945	45763.6	0.074586	0.183243	1500.44	97674.3
314	2.000000	1.069270	7.36814e+06	-54339.1	955.819	-29744.2	0.000000	0.000000	7.081452	288.502	NaN	0.000000	0.001621	0.001695	28.0802	83.4355	0.001738	48007.3	3.239827	172.494	288.487	1.068926	0.081162	0.080818	288.502	48007.3	0.076655	0.192209	1500.98	100045
314	2.000000	1.071160	7.36814e+06	-54339.1	955.82	-29744.2	0.000000	0.000000	7.083797	299.567	NaN	0.000000	0.001653	0.001710	28.0793	84.464	0.001795	47062	4.635938	171.243	292.893	1.070847	0.083053	0.082739	299.567	47062	0.078279	0.199387	1502.44	96293.1
314	2.000000	1.073243	7.36814e+06	-54339.1	955.819	-29744.2	0.000000	0.000000	7.086314	310.116	NaN	0.000000	0.001620	0.001727	28.079	88.9288	0.001857	47894.2	5.726845	170.255	310.577	1.072935	0.085136	0.084828	310.116	47894.2	0.080280	0.208400	1488.08	95853.3
314	2.000000	1.075261	7.36814e+06	-54339.1	955.819	-29744.2	0.000000	0.000000	7.088955	325.264	NaN	0.000000	0.001651	0.001708	28.0795	90.4879	0.001782	50790.2	4.325547	171.555	325.498	1.074926	0.087154	0.086819	325.264	50790.2	0.082351	0.217926	1492.54	99402.8
314	2.000000	1.077134	7.36814e+06	-54339.1	955.819	-29744.2	0.000000	0.000000	7.091483	341.167	NaN	0.000000	0.001586	0.001712	28.0795	91.6238	0.001692	54145.8	5.575505	169.377	334.051	1.076885	0.089027	0.088777	341.167	54145.8	0.084301	0.227080	1502.41	103812
314	2.000000	1.079273	7.36814e+06	-54339.1	955.82	-29744.2	0.000000	0.000000	7.093847	346.656	NaN	0.000000	0.001624	0.001655	28.0792	95.7997	0.001878	51023.3	4.870131	170.487	348.918	1.079076	0.091166	0.090969	346.656	51023.3	0.086070	0.235533	1471.79	96054.2
314	2.000000	1.081133	7.36814e+06	-54339.1	955.82	-29744.2	0.000000	0.000000	7.096537	366.813	NaN	0.000000	0.001610	0.001692	28.0794	95.9157	0.001717	55868.2	3.521970	171.117	362.338	1.080984	0.093026	0.092877	366.813	55868.2	0.088102	0.245420	1494.63	103035
314	2.000000	1.083241	7.36814e+06	-54339.1	955.821	-29744.2	0.000000	0.000000	7.099313	383.074	NaN	0.000000	0.001632	0.001673	28.0791	98.6597	0.001706	57830.4	-0.405668	175	381.894	1.082956	0.095134	0.094849	383.074	57830.4	0.090166	0.255658	1498.38	104496
314	2.000000	1.085216	7.36814e+06	-54339.1	955.82	-29744.2	0.000000	0.000000	7.102206	405.386	NaN	0.000000	0.001593	0.001675	28.0795	102.226	0.001829	55896.9	3.579728	171.338	401.341	1.084935	0.097109	0.096827	405.386	55896.9	0.091670	0.263242	1539.98	99536.8
314	2.000000	1.087276	7.36814e+06	-54339.1	955.82	-29744.2	0.000000	0.000000	7.105153	426.969	NaN	0.000000	0.001606	0.001690	28.0792	105.026	0.001873	56067.1	8.213428	167.136	429.852	1.086871	0.099168	0.098764	426.969	56067.1	0.093457	0.272389	1567.5	98149.3
314	2.000000	1.089229	7.36814e+06	-54339.1	955.82	-29744.2	0.000000	0.000000	7.108060	450.152	NaN	0.000000	0.001597	0.001727	28.0789	106.802	0.001787	59777.4	6.263518	168.871	450.238	1.088778	0.101121	0.100671	450.152	59777.4	0.095474	0.282885	1591.29	102685
314	2.000000	1.091114	7.36814e+06	-54339.1	955.82	-29744.2	0.000000	0.000000	7.110460	462.666	NaN	0.000000	0.001619	0.001684	28.0794	107.179	0.001787	59976.1	4.777960	169.568	456.173	1.090828	0.103007	0.102721	462.666	59976.1	0.097221	0.292130	1583.77	101383
314	2.000000	1.093154	7.36814e+06	-54339.1	955.82	-29744.2	0.000000	0.000000	7.113294	481.964	NaN	0.000000	0.001648	0.001659	28.0791	110.78	0.001846	60017	5.348814	168.905	478.501	1.093010	0.105047	0.104902	481.964	60017	0.099024	0.301814	1596.89	99811
314	2.000000	1.095118	7.36814e+06	-54339.1	955.82	-29744.2	0.000000	0.000000	7.116241	505.852	NaN	0.000000	0.001639	0.001686	28.0794	111.867	0.001704	65646.9	3.782320	169.951	499.282	1.094871	0.107011	0.106764	505.852	65646.9	0.101232	0.313876	1611.63	107055
314	2.000000	1.096769	7.36814e+06	-54339.1	955.82	-29744.2	0.000000	0.000000	7.118754	526.839	NaN	0.000000	0.001632	0.001701	28.0791	112.777	0.001721	65542.5	4.770668	-10.7714	526.325	1.096341	0.108661	0.108234	526.839	65542.5	0.102633	0.321643	1637.97	105587