File: remote_trans/data/nanoindenter/0828-1/data/Data_2025-08-06,11h17m57s/2025-07-22_16-23-58_1_501.txt
2025-07-22, 16:23:58, 1
Index	Phase	Displacement	Time	Pos X	Pos Y	Pos Z	Rot A	Rot B	Piezo Z	Force A	Force B	Gripper	Voltage A	Voltage B	Temperature	Amplitude force	Amplitude pos	Stiffness	Phase shift	Phase excitation	Force A raw	Displacement raw	HMax	HMax raw	Real Force	Real Stiffness	Contact Depth	Area	Hardness	Reduced Mod.
[#]	[#]	[um]	[s]	[um]	[um]	[um]	[m°]	[m°]	[um]	[uN]	[uN]	[V]	[V]	[V]	[°C]	[uN]	[um]	[N/m]	[°]	[°]	[uN]	[um]	[um]	[um]	[uN]	[N/m]	[um]	[um^2]	[MPa]	[MPa]
501	1.000000	0.002746	7.36995e+06	-52039.1	1005.82	-29750.4	0.000000	0.000000	6.002826	0.006520	NaN	0.000000	0.001672	0.001716	28.081	0.057935	0.001035	55.9976	-107.717	-166.509	-0.072763	0.001468	-1.112061	-1.113339	0.006520	55.9976	-1.112149	-7.296659E+14	-8.935314E-18	NaN
501	1.000000	0.012764	7.36995e+06	-52039.1	1005.82	-29750.4	0.000000	0.000000	6.012845	0.004016	NaN	0.000000	0.001635	0.001661	28.0808	0.071165	0.001344	52.9355	-134.297	14.6915	0.092199	0.011322	-1.102043	-1.103485	0.004016	52.9355	-1.102099	-5.348724E+14	-7.507986E-18	NaN
501	1.000000	0.022688	7.36995e+06	-52039.1	1005.82	-29750.4	0.000000	0.000000	6.022771	0.048111	NaN	0.000000	0.001629	0.001721	28.0824	0.038722	0.001870	20.7023	-104.767	-166.663	0.063853	0.021361	-1.092119	-1.093446	0.048111	20.7023	-1.093862	-4.146303E+14	-1.160324E-16	NaN
501	1.000000	0.032665	7.36995e+06	-52039.1	1005.82	-29750.4	0.000000	0.000000	6.032748	0.063883	NaN	0.000000	0.001625	0.001692	28.0823	0.117285	0.001925	60.9402	95.0528	9.764926	0.041082	0.031353	-1.082142	-1.083454	0.063883	60.9402	-1.082929	-2.957012E+14	-2.160405E-16	NaN
501	1.000000	0.042652	7.36995e+06	-52039.1	1005.82	-29750.4	0.000000	0.000000	6.042735	0.052147	NaN	0.000000	0.001598	0.001702	28.082	0.051417	0.001945	26.4389	34.167	-165.15	0.074673	0.041343	-1.072155	-1.073464	0.052147	26.4389	-1.073634	-2.218266E+14	-2.350805E-16	NaN
501	1.000000	0.052676	7.36995e+06	-52039.1	1005.82	-29750.4	0.000000	0.000000	6.052760	0.086815	NaN	0.000000	0.001611	0.001683	28.082	0.029370	0.002036	14.4255	114.085	14.3411	0.114497	0.051309	-1.062131	-1.063498	0.086815	14.4255	-1.066644	-1.786909E+14	-4.858414E-16	NaN
501	1.000000	0.062687	7.36995e+06	-52039.1	1005.82	-29750.4	0.000000	0.000000	6.062773	0.124872	NaN	0.000000	0.001655	0.001738	28.0828	0.074670	0.002155	34.6536	-16.3196	-164.568	0.125528	0.061370	-1.052120	-1.053437	0.124872	34.6536	-1.054823	-1.239475E+14	-1.007456E-15	NaN
501	1.000000	0.072686	7.36995e+06	-52039.1	1005.82	-29750.4	0.000000	0.000000	6.072767	0.023789	NaN	0.000000	0.001644	0.001715	28.0818	0.061127	0.001890	32.3488	37.4268	12.6305	0.044379	0.071314	-1.042121	-1.043493	0.023789	32.3488	-1.042673	-8.509474E+13	-2.795537E-16	NaN
501	1.000000	0.082666	7.36995e+06	-52039.1	1005.82	-29750.4	0.000000	0.000000	6.082747	-0.001410	NaN	0.000000	0.001599	0.001672	28.082	0.057002	0.001997	28.5492	52.3004	-167.684	0.008558	0.081325	-1.032141	-1.033482	-0.001410	28.5492	-1.032104	-6.134445E+13	2.298060E-17	NaN
501	1.000000	0.092679	7.36995e+06	-52039.1	1005.82	-29750.4	0.000000	0.000000	6.092764	0.110665	NaN	0.000000	0.001626	0.001699	28.0817	0.107984	0.002000	53.9835	175.313	12.6661	-0.016450	0.091339	-1.022128	-1.023468	0.110665	53.9835	-1.023665	-4.723537E+13	-2.342832E-15	NaN
501	1.000000	0.102707	7.36995e+06	-52039.1	1005.82	-29750.4	0.000000	0.000000	6.102788	0.011047	NaN	0.000000	0.001652	0.001722	28.0824	0.055214	0.002041	27.0575	163.776	-164.176	0.017898	0.101354	-1.012100	-1.013453	0.011047	27.0575	-1.012406	-3.332452E+13	-3.314884E-16	NaN
501	1.000000	0.112677	7.36995e+06	-52039.1	1005.82	-29750.4	0.000000	0.000000	6.112759	0.045180	NaN	0.000000	0.001637	0.001727	28.082	0.033622	0.002062	16.3074	-162.921	15.6429	0.042000	0.111328	-1.002130	-1.003479	0.045180	16.3074	-1.004208	-2.584764E+13	-1.747928E-15	NaN
501	1.000000	0.122698	7.36995e+06	-52039.1	1005.82	-29750.4	0.000000	0.000000	6.122777	-0.034835	NaN	0.000000	0.001656	0.001706	28.0821	0.023576	0.001944	12.1248	35.9798	-166.161	0.012936	0.121404	-0.992109	-0.993403	-0.034835	12.1248	-0.989955	-1.661507E+13	2.096579E-15	NaN
501	1.000000	0.132727	7.36995e+06	-52039.1	1005.82	-29750.4	0.000000	0.000000	6.132807	-0.007598	NaN	0.000000	0.001608	0.001673	28.0823	0.078722	0.001919	41.0318	-48.5174	13.3491	0.007619	0.131394	-0.982080	-0.983413	-0.007598	41.0318	-0.981941	-1.295864E+13	5.863474E-16	NaN
501	1.000000	0.142698	7.36995e+06	-52039.1	1005.82	-29750.4	0.000000	0.000000	6.142780	0.039936	NaN	0.000000	0.001649	0.001676	28.0823	0.045138	0.002024	22.2984	37.211	-166.322	-0.028987	0.141357	-0.972109	-0.973450	0.039936	22.2984	-0.973452	-9.958283E+12	-4.010340E-15	NaN
501	1.000000	0.152686	7.36995e+06	-52039.1	1005.82	-29750.4	0.000000	0.000000	6.152769	0.051882	NaN	0.000000	0.001668	0.001740	28.0822	0.086502	0.001919	45.0861	-70.3912	13.8303	0.065530	0.151291	-0.962121	-0.963516	0.051882	45.0861	-0.962984	-7.196035E+12	-7.209774E-15	NaN
501	1.000000	0.162713	7.36995e+06	-52039.1	1005.82	-29750.4	0.000000	0.000000	6.162797	0.064147	NaN	0.000000	0.001642	0.001677	28.0807	0.122477	0.001931	63.4198	-12.2174	-169.394	0.023503	0.161387	-0.952094	-0.953420	0.064147	63.4198	-0.952852	-5.254016E+12	-1.220921E-14	NaN
501	1.000000	0.172696	7.36995e+06	-52039.1	1005.82	-29750.4	0.000000	0.000000	6.172777	0.004899	NaN	0.000000	0.001623	0.001691	28.0809	0.063025	0.001866	33.7726	114.724	14.7868	0.029011	0.171331	-0.942111	-0.943476	0.004899	33.7726	-0.942220	-3.776438E+12	-1.297127E-15	NaN
501	1.000000	0.182729	7.36995e+06	-52039.1	1005.82	-29750.4	0.000000	0.000000	6.182809	-0.026776	NaN	0.000000	0.001667	0.001730	28.0806	0.123983	0.002077	59.7056	29.4794	-165.794	-0.068310	0.181438	-0.932078	-0.933369	-0.026776	59.7056	-0.931741	-2.727078E+12	9.818641E-15	NaN
501	1.000000	0.192712	7.36995e+06	-52039.1	1005.82	-29750.4	0.000000	0.000000	6.192794	0.030834	NaN	0.000000	0.001630	0.001743	28.0805	0.028816	0.001937	14.8783	-19.8192	14.3609	0.093188	0.191355	-0.922095	-0.923452	0.030834	14.8783	-0.923649	-2.120655E+12	-1.453999E-14	NaN
501	1.000000	0.202737	7.36995e+06	-52039.1	1005.82	-29750.4	0.000000	0.000000	6.202816	-0.042047	NaN	0.000000	0.001629	0.001729	28.0808	0.153315	0.001969	77.8696	-117.092	-166.783	0.096860	0.201466	-0.912070	-0.913341	-0.042047	77.8696	-0.911665	-1.460998E+12	2.877963E-14	NaN
501	1.000000	0.212715	7.36995e+06	-52039.1	1005.82	-29750.4	0.000000	0.000000	6.212797	0.049737	NaN	0.000000	0.001656	0.001727	28.081	0.051805	0.001932	26.8167	127.913	11.9817	0.124023	0.211396	-0.902092	-0.903411	0.049737	26.8167	-0.903483	-1.132747E+12	-4.390794E-14	NaN
501	1.000000	0.222773	7.36995e+06	-52039.1	1005.82	-29750.4	0.000000	0.000000	6.222855	0.042226	NaN	0.000000	0.001597	0.001714	28.0808	0.084347	0.001920	43.9344	-86.9753	-165.682	0.065510	0.221449	-0.892034	-0.893358	0.042226	43.9344	-0.892755	-8.112459E+11	-5.205087E-14	NaN
501	1.000000	0.232750	7.36995e+06	-52039.1	1005.82	-29750.4	0.000000	0.000000	6.232831	0.013614	NaN	0.000000	0.001620	0.001701	28.0811	0.093908	0.002128	44.1203	138.98	15.3506	0.027806	0.231364	-0.882057	-0.883443	0.013614	44.1203	-0.882288	-5.856699E+11	-2.324468E-14	NaN
501	1.000000	0.242732	7.36995e+06	-52039.1	1005.82	-29750.4	0.000000	0.000000	6.242813	0.015595	NaN	0.000000	0.001604	0.001736	28.0811	0.067481	0.001943	34.7259	179.776	-166.643	0.017291	0.241401	-0.872075	-0.873406	0.015595	34.7259	-0.872412	-4.305944E+11	-3.621636E-14	NaN
501	1.000000	0.252746	7.36995e+06	-52039.1	1005.82	-29750.4	0.000000	0.000000	6.252826	-0.012640	NaN	0.000000	0.001648	0.001750	28.0811	0.022496	0.002007	11.2096	-26.184	13.0492	0.005737	0.251346	-0.862061	-0.863461	-0.012640	11.2096	-0.861215	-3.037841E+11	4.160959E-14	NaN
501	1.000000	0.262753	7.36995e+06	-52039.1	1005.82	-29750.4	0.000000	0.000000	6.262837	0.078100	NaN	0.000000	0.001632	0.001729	28.081	0.073424	0.001961	37.437	-155.671	-166.223	0.139321	0.261449	-0.852054	-0.853358	0.078100	37.437	-0.853619	-2.397367E+11	-3.257728E-13	NaN
501	1.000000	0.272738	7.36995e+06	-52039.1	1005.82	-29750.4	0.000000	0.000000	6.272820	0.052878	NaN	0.000000	0.001643	0.001728	28.0811	0.042863	0.001916	22.3744	-81.3587	12.3059	-0.004941	0.271396	-0.842069	-0.843411	0.052878	22.3744	-0.843842	-1.767406E+11	-2.991855E-13	NaN
501	1.000000	0.282719	7.36995e+06	-52039.1	1005.82	-29750.4	0.000000	0.000000	6.282801	0.032467	NaN	0.000000	0.001602	0.001712	28.0812	0.030476	0.002001	15.2273	46.4866	-167.263	0.000699	0.281488	-0.832088	-0.833319	0.032467	15.2273	-0.833687	-1.287517E+11	-2.521682E-13	NaN
501	1.000000	0.292774	7.36995e+06	-52039.1	1005.82	-29750.4	0.000000	0.000000	6.292854	-0.014668	NaN	0.000000	0.001596	0.001722	28.0812	0.063813	0.001974	32.3337	-69.7585	15.8156	0.033312	0.291431	-0.822033	-0.823376	-0.014668	32.3337	-0.821692	-8.854430E+10	1.656595E-13	NaN
501	1.000000	0.302779	7.36995e+06	-52039.1	1005.82	-29750.4	0.000000	0.000000	6.302862	0.075604	NaN	0.000000	0.001644	0.001728	28.0823	0.074527	0.001801	41.3919	127.433	-167.55	0.063145	0.301435	-0.812028	-0.813372	0.075604	41.3919	-0.813398	-6.833985E+10	-1.106300E-12	NaN
501	1.000000	0.312795	7.36995e+06	-52039.1	1005.82	-29750.4	0.000000	0.000000	6.312877	0.058825	NaN	0.000000	0.001636	0.001679	28.0826	0.035553	0.002053	17.3173	55.7492	11.0329	-0.004654	0.311408	-0.802012	-0.803399	0.058825	17.3173	-0.804560	-5.185084E+10	-1.134511E-12	NaN
501	1.000000	0.322802	7.36995e+06	-52039.1	1005.82	-29750.4	0.000000	0.000000	6.322885	0.043204	NaN	0.000000	0.001621	0.001729	28.0822	0.159711	0.002145	74.4417	-152.65	-162.118	0.082314	0.321476	-0.792005	-0.793331	0.043204	74.4417	-0.792440	-3.549934E+10	-1.217035E-12	NaN
501	1.000000	0.332772	7.36995e+06	-52039.1	1005.82	-29750.4	0.000000	0.000000	6.332853	0.011087	NaN	0.000000	0.001631	0.001682	28.0822	0.072284	0.002073	34.868	84.6728	15.2529	-0.013134	0.331444	-0.782035	-0.783363	0.011087	34.868	-0.782274	-2.583020E+10	-4.292301E-13	NaN
501	1.000000	0.342812	7.36995e+06	-52039.1	1005.82	-29750.4	0.000000	0.000000	6.342896	0.084218	NaN	0.000000	0.001621	0.001655	28.0821	0.093215	0.001937	48.1322	150.643	-168.58	0.044317	0.341471	-0.771995	-0.773336	0.084218	48.1322	-0.773307	-1.951030E+10	-4.316570E-12	NaN
501	1.000000	0.352770	7.36995e+06	-52039.1	1005.82	-29750.4	0.000000	0.000000	6.352854	0.084718	NaN	0.000000	0.001655	0.001707	28.0827	0.024724	0.001977	12.507	129.085	17.3375	0.092613	0.351422	-0.762037	-0.763385	0.084718	12.507	-0.767117	-1.607350E+10	-5.270689E-12	NaN
501	1.000000	0.362805	7.36995e+06	-52039.1	1005.82	-29750.4	0.000000	0.000000	6.362887	0.034337	NaN	0.000000	0.001630	0.001704	28.0822	0.017127	0.002129	8.045811	-148.011	-165.919	0.012241	0.361479	-0.752002	-0.753328	0.034337	8.045811	-0.755203	-1.106701E+10	-3.102663E-12	NaN
501	1.000000	0.372776	7.36995e+06	-52039.1	1005.82	-29750.4	0.000000	0.000000	6.372856	-0.014037	NaN	0.000000	0.001624	0.001718	28.0824	0.068240	0.001892	36.0603	-177.666	13.9706	0.084943	0.371457	-0.742031	-0.743350	-0.014037	36.0603	-0.741739	-7.256773E+9	1.934380E-12	NaN
501	1.000000	0.382798	7.36995e+06	-52039.1	1005.82	-29750.4	0.000000	0.000000	6.382880	0.038210	NaN	0.000000	0.001637	0.001716	28.0821	0.036159	0.001967	18.3816	42.5132	-167.578	0.054476	0.381533	-0.732009	-0.733274	0.038210	18.3816	-0.733568	-5.616126E+9	-6.803618E-12	NaN
501	1.000000	0.392803	7.36995e+06	-52039.1	1005.82	-29750.4	0.000000	0.000000	6.392883	-0.006253	NaN	0.000000	0.001627	0.001712	28.0826	0.061475	0.002097	29.3209	-31.8093	12.7544	-0.008662	0.391451	-0.722004	-0.723356	-0.006253	29.3209	-0.721844	-3.887061E+9	1.608719E-12	NaN
501	1.000000	0.402815	7.36995e+06	-52039.1	1005.82	-29750.4	0.000000	0.000000	6.402898	0.052939	NaN	0.000000	0.001708	0.001684	28.082	0.087665	0.001947	45.0371	33.5992	-168.123	0.030370	0.401479	-0.711992	-0.713328	0.052939	45.0371	-0.712874	-2.932649E+9	-1.805165E-11	NaN
501	1.000000	0.412824	7.36995e+06	-52039.1	1005.82	-29750.4	0.000000	0.000000	6.412908	0.085204	NaN	0.000000	0.001733	0.001681	28.0823	0.103469	0.001993	51.9104	-166.885	14.1813	0.056256	0.411468	-0.701983	-0.703339	0.085204	51.9104	-0.703214	-2.164796E+9	-3.935880E-11	NaN
501	1.000000	0.422847	7.36995e+06	-52039.1	1005.82	-29750.4	0.000000	0.000000	6.422932	0.100875	NaN	0.000000	0.001662	0.001698	28.082	0.044005	0.002019	21.7904	-50.484	-167.402	0.008240	0.421475	-0.691960	-0.693332	0.100875	21.7904	-0.695432	-1.694882E+9	-5.951728E-11	NaN
501	1.000000	0.432832	7.36995e+06	-52039.1	1005.82	-29750.4	0.000000	0.000000	6.432914	0.052728	NaN	0.000000	0.001639	0.001691	28.081	0.071381	0.002052	34.7865	55.1222	12.6184	0.033807	0.431451	-0.681975	-0.683356	0.052728	34.7865	-0.683112	-1.150176E+9	-4.584360E-11	NaN
501	1.000000	0.442829	7.36995e+06	-52039.1	1005.82	-29750.4	0.000000	0.000000	6.442911	0.034825	NaN	0.000000	0.001665	0.001683	28.0808	0.032776	0.001926	17.0215	114.117	-167.432	0.024840	0.441528	-0.671978	-0.673279	0.034825	17.0215	-0.673512	-8.500658E+8	-4.096785E-11	NaN
501	1.000000	0.452834	7.36995e+06	-52039.1	1005.82	-29750.4	0.000000	0.000000	6.452913	-0.055726	NaN	0.000000	0.001674	0.001637	28.0808	0.076142	0.001982	38.4242	169.964	9.995493	-0.077602	0.451473	-0.661973	-0.663334	-0.055726	38.4242	-0.660885	-5.709377E+8	9.760480E-11	NaN
501	1.000000	0.462879	7.36995e+06	-52039.1	1005.82	-29750.4	0.000000	0.000000	6.462960	0.025407	NaN	0.000000	0.001685	0.001664	28.0808	0.151466	0.001950	77.6816	158.472	-167.899	0.063122	0.461516	-0.651928	-0.653291	0.025407	77.6816	-0.652174	-4.337441E+8	-5.857567E-11	NaN
501	1.000000	0.472841	7.36995e+06	-52039.1	1005.82	-29750.4	0.000000	0.000000	6.472925	0.066073	NaN	0.000000	0.001655	0.001714	28.0809	0.109321	0.002077	52.6426	-33.8156	14.5266	-0.015080	0.471494	-0.641966	-0.643313	0.066073	52.6426	-0.642907	-3.237197E+8	-2.041049E-10	NaN
501	1.000000	0.482871	7.36995e+06	-52039.1	1005.82	-29750.4	0.000000	0.000000	6.482955	0.067690	NaN	0.000000	0.001653	0.001745	28.0812	0.098936	0.001873	52.8311	-144.062	-167.59	0.029619	0.481526	-0.631936	-0.633281	0.067690	52.8311	-0.632897	-2.359370E+8	-2.869007E-10	NaN
501	1.000000	0.492868	7.36995e+06	-52039.1	1005.82	-29750.4	0.000000	0.000000	6.492948	-0.027245	NaN	0.000000	0.001684	0.001718	28.0811	0.041766	0.001985	21.0368	-19.9768	13.2879	0.008388	0.491499	-0.621938	-0.623308	-0.027245	21.0368	-0.620967	-1.617807E+8	1.684076E-10	NaN
501	1.000000	0.502830	7.36996e+06	-52039.1	1005.82	-29750.4	0.000000	0.000000	6.502911	0.024829	NaN	0.000000	0.001644	0.001667	28.0813	0.033978	0.002068	16.4319	62.0274	-165.69	0.067637	0.501578	-0.611977	-0.613229	0.024829	16.4319	-0.613111	-1.261552E+8	-1.968116E-10	NaN
501	1.000000	0.512853	7.36996e+06	-52039.1	1005.82	-29750.4	0.000000	0.000000	6.512933	0.004600	NaN	0.000000	0.001649	0.001677	28.0809	0.061085	0.002016	30.2936	150.61	13.0696	0.059553	0.511491	-0.601954	-0.603316	0.004600	30.2936	-0.602068	-8.890832E+7	-5.174401E-11	NaN
501	1.000000	0.522873	7.36996e+06	-52039.1	1005.82	-29750.4	0.000000	0.000000	6.522955	0.037109	NaN	0.000000	0.001672	0.001706	28.0809	0.046487	0.001923	24.1779	-95.5548	-167.043	-0.008257	0.521548	-0.591934	-0.593259	0.037109	24.1779	-0.593085	-6.686438E+7	-5.549864E-10	NaN
501	1.000000	0.532891	7.36996e+06	-52039.1	1005.82	-29750.4	0.000000	0.000000	6.532972	0.003425	NaN	0.000000	0.001690	0.001693	28.0809	0.093613	0.002098	44.6251	-97.7488	15.0417	-0.018463	0.531507	-0.581916	-0.583300	0.003425	44.6251	-0.581974	-4.698513E+7	-7.289975E-11	NaN
501	1.000000	0.542866	7.36996e+06	-52039.1	1005.82	-29750.4	0.000000	0.000000	6.542947	0.019096	NaN	0.000000	0.001698	0.001691	28.081	0.144014	0.002057	70.0186	-112.677	-165.586	0.066736	0.541531	-0.571941	-0.573276	0.019096	70.0186	-0.572146	-3.437776E+7	-5.554733E-10	NaN
501	1.000000	0.552863	7.36996e+06	-52039.1	1005.82	-29750.4	0.000000	0.000000	6.552944	0.001550	NaN	0.000000	0.001719	0.001689	28.0809	0.101958	0.001812	56.2774	-21.7488	13.2321	0.009072	0.551495	-0.561944	-0.563312	0.001550	56.2774	-0.561965	-2.486289E+7	-6.233232E-11	NaN
501	1.000000	0.562877	7.36996e+06	-52039.1	1005.82	-29750.4	0.000000	0.000000	6.562960	0.054622	NaN	0.000000	0.001713	0.001664	28.0809	0.089548	0.002070	43.2692	50.5684	-163.596	-0.048919	0.561574	-0.551930	-0.553233	0.054622	43.2692	-0.552877	-1.861192E+7	-2.934801E-9	NaN
501	1.000000	0.572872	7.36996e+06	-52039.1	1005.82	-29750.4	0.000000	0.000000	6.572953	0.005764	NaN	0.000000	0.001696	0.001692	28.0823	0.124418	0.001981	62.8189	6.637797	12.6612	0.065956	0.571530	-0.541935	-0.543277	0.005764	62.8189	-0.542004	-1.315652E+7	-4.381190E-10	NaN
501	1.000000	0.582906	7.36996e+06	-52039.1	1005.82	-29750.4	0.000000	0.000000	6.582987	0.012434	NaN	0.000000	0.001725	0.001614	28.0821	0.093654	0.002078	45.0744	-9.267550	-167.796	-0.055727	0.581574	-0.531901	-0.533233	0.012434	45.0744	-0.532108	-9.59047e+06	-1.296484E-9	NaN
501	1.000000	0.592887	7.36996e+06	-52039.1	1005.82	-29750.4	0.000000	0.000000	6.592969	0.039448	NaN	0.000000	0.001730	0.001669	28.0818	0.028486	0.001839	15.4907	-77.9398	14.3525	-0.007946	0.591515	-0.521920	-0.523292	0.039448	15.4907	-0.523830	-7.3596e+06	-5.360087E-9	NaN
501	1.000000	0.602913	7.36996e+06	-52039.1	1005.82	-29750.4	0.000000	0.000000	6.602994	0.031573	NaN	0.000000	0.001698	0.001668	28.082	0.132373	0.002086	63.4485	-108.545	-168.365	0.046680	0.601548	-0.511894	-0.513259	0.031573	63.4485	-0.512268	-5.08153e+06	-6.213269E-9	NaN
501	1.000000	0.612923	7.36996e+06	-52039.1	1005.82	-29750.4	0.000000	0.000000	6.613003	-0.027673	NaN	0.000000	0.001704	0.001709	28.0818	0.072896	0.002115	34.464	-116.545	14.8487	-0.026984	0.611507	-0.501884	-0.503300	-0.027673	34.464	-0.501282	-3.57186e+06	7.747545E-9	NaN
501	1.000000	0.622906	7.36996e+06	-52039.1	1005.82	-29750.4	0.000000	0.000000	6.622987	0.019344	NaN	0.000000	0.001682	0.001707	28.0821	0.073296	0.002072	35.3781	90.7634	-167.524	0.080276	0.621609	-0.491901	-0.493198	0.019344	35.3781	-0.492311	-2.67722e+06	-7.225289E-9	NaN
501	1.000000	0.632942	7.36996e+06	-52039.1	1005.82	-29750.4	0.000000	0.000000	6.633023	0.009716	NaN	0.000000	0.001708	0.001665	28.0819	0.057333	0.001804	31.7802	-20.2549	12.5314	0.079853	0.631512	-0.481865	-0.483295	0.009716	31.7802	-0.482094	-1.9268e+06	-5.042716E-9	NaN
501	1.000000	0.642946	7.36996e+06	-52039.1	1005.82	-29750.4	0.000000	0.000000	6.643027	-0.003758	NaN	0.000000	0.001732	0.001676	28.0823	0.012164	0.002025	6.008067	-137.333	-166.14	-0.088211	0.641622	-0.471860	-0.473185	-0.003758	6.008067	-0.471391	-1.36433e+06	2.754108E-9	NaN
501	1.000000	0.652893	7.36996e+06	-52039.1	1005.82	-29750.4	0.000000	0.000000	6.652971	-0.047157	NaN	0.000000	0.001701	0.001660	28.0821	0.086663	0.001977	43.8333	-21.4304	16.3075	0.022013	0.651549	-0.461914	-0.463258	-0.047157	43.8333	-0.461107	-978538	4.819124E-8	NaN
501	1.000000	0.662916	7.36996e+06	-52039.1	1005.82	-29750.4	0.000000	0.000000	6.662997	0.011046	NaN	0.000000	0.001653	0.001653	28.082	0.097733	0.001979	49.3783	-68.2828	-163.012	0.017282	0.661643	-0.451891	-0.453164	0.011046	49.3783	-0.452059	-730011	-1.513154E-8	NaN
501	1.000000	0.672947	7.36996e+06	-52039.1	1005.82	-29750.4	0.000000	0.000000	6.673026	-0.036520	NaN	0.000000	0.001699	0.001650	28.082	0.061220	0.001948	31.4246	-100.075	12.0916	0.013429	0.671574	-0.441860	-0.443233	-0.036520	31.4246	-0.440988	-509694	7.165016E-8	NaN
501	1.000000	0.682929	7.36996e+06	-52039.1	1005.82	-29750.4	0.000000	0.000000	6.683013	0.076191	NaN	0.000000	0.001747	0.001626	28.0822	0.108834	0.001978	55.025	-132.106	-166.231	0.095449	0.681620	-0.431878	-0.433187	0.076191	55.025	-0.432916	-392016	-1.943564E-7	NaN
501	1.000000	0.692944	7.36996e+06	-52039.1	1005.82	-29750.4	0.000000	0.000000	6.693026	0.030794	NaN	0.000000	0.001661	0.001668	28.082	0.073422	0.001995	36.805	12.2961	16.1274	0.097926	0.691676	-0.421863	-0.423131	0.030794	36.805	-0.422490	-279078	-1.103405E-7	NaN
501	1.000000	0.702940	7.36996e+06	-52039.1	1005.82	-29750.4	0.000000	0.000000	6.703023	0.060446	NaN	0.000000	0.001607	0.001664	28.0818	0.115421	0.001976	58.4121	-5.469654	-165.467	0.051851	0.701599	-0.411867	-0.413208	0.060446	58.4121	-0.412643	-202287	-2.988136E-7	NaN
501	1.000000	0.712939	7.36996e+06	-52039.1	1005.82	-29750.4	0.000000	0.000000	6.713020	-0.006758	NaN	0.000000	0.001640	0.001675	28.0808	0.065310	0.002052	31.8325	-171.165	14.6912	-0.062222	0.711583	-0.401868	-0.403224	-0.006758	31.8325	-0.401708	-141368	4.780547E-8	NaN
501	1.000000	0.722976	7.36996e+06	-52039.1	1005.82	-29750.4	0.000000	0.000000	6.723061	0.112195	NaN	0.000000	0.001631	0.001640	28.0808	0.085514	0.002040	41.9155	-98.5773	-164.389	0.117629	0.721608	-0.391831	-0.393199	0.112195	41.9155	-0.393838	-109154	-1.027857E-6	NaN
501	1.000000	0.732968	7.36996e+06	-52039.1	1005.82	-29750.4	0.000000	0.000000	6.733048	-0.027344	NaN	0.000000	0.001633	0.001690	28.0804	0.112464	0.002013	55.8602	-47.086	15.1573	-0.031718	0.731606	-0.381839	-0.383201	-0.027344	55.8602	-0.381472	-72611.4	3.765844E-7	NaN
501	1.000000	0.742965	7.36996e+06	-52039.1	1005.82	-29750.4	0.000000	0.000000	6.743045	0.004649	NaN	0.000000	0.001635	0.001693	28.0806	0.135478	0.002083	65.0391	-104.096	-165.132	0.047169	0.741583	-0.371842	-0.373224	0.004649	65.0391	-0.371896	-52896.1	-8.789447E-8	NaN
501	1.000000	0.752956	7.36996e+06	-52039.1	1005.82	-29750.4	0.000000	0.000000	6.753037	-0.000950	NaN	0.000000	0.001683	0.001688	28.0809	0.040659	0.002102	19.3411	-114.282	15.0119	-0.043685	0.751652	-0.361851	-0.363155	-0.000950	19.3411	-0.361814	-37849.2	2.510757E-8	NaN
501	1.000000	0.762956	7.36996e+06	-52039.1	1005.82	-29750.4	0.000000	0.000000	6.763036	-0.015929	NaN	0.000000	0.001662	0.001649	28.0805	0.127382	0.001800	70.7671	-81.1015	-169.054	0.021799	0.761680	-0.351851	-0.353127	-0.015929	70.7671	-0.351682	-27002.5	5.899124E-7	NaN
501	1.000000	0.772990	7.36996e+06	-52039.1	1005.82	-29750.4	0.000000	0.000000	6.773072	0.046829	NaN	0.000000	0.001651	0.001706	28.0806	0.139148	0.001913	72.7299	8.812392	11.5265	0.061843	0.771607	-0.341817	-0.343200	0.046829	72.7299	-0.342300	-19727.3	-2.373822E-6	NaN
501	1.000000	0.782964	7.36996e+06	-52039.1	1005.82	-29750.4	0.000000	0.000000	6.783044	0.006025	NaN	0.000000	0.001636	0.001737	28.0803	0.107595	0.002006	53.6395	-130.548	-168.325	-0.066368	0.781670	-0.331843	-0.333137	0.006025	53.6395	-0.331927	-13920.8	-4.327977E-7	NaN
501	1.000000	0.792967	7.36996e+06	-52039.1	1005.82	-29750.4	0.000000	0.000000	6.793048	0.026976	NaN	0.000000	0.001614	0.001695	28.0808	0.084372	0.001916	44.0308	-144.094	11.8571	0.016451	0.791608	-0.321840	-0.323199	0.026976	44.0308	-0.322300	-10057	-2.682325E-6	NaN
501	1.000000	0.802983	7.36996e+06	-52039.1	1005.82	-29750.4	0.000000	0.000000	6.803067	0.075208	NaN	0.000000	0.001630	0.001694	28.0804	0.038119	0.001930	19.7512	-52.7642	-168.312	-0.013310	0.801645	-0.311824	-0.313162	0.075208	19.7512	-0.314679	-7766.33	-9.683819E-6	NaN
501	1.000000	0.812996	7.36996e+06	-52039.1	1005.82	-29750.4	0.000000	0.000000	6.813081	0.098836	NaN	0.000000	0.001600	0.001679	28.0805	0.075071	0.001963	38.2335	-133.559	16.902	0.011421	0.811639	-0.301811	-0.303168	0.098836	38.2335	-0.303750	-5350.49	-1.847224E-5	NaN
501	1.000000	0.823006	7.36996e+06	-52039.1	1005.82	-29750.4	0.000000	0.000000	6.823089	0.073986	NaN	0.000000	0.001600	0.001683	28.0805	0.037762	0.002009	18.7951	-72.9193	-164.535	0.081899	0.821729	-0.291801	-0.293078	0.073986	18.7951	-0.294754	-3930.16	-1.882522E-5	NaN
501	1.000000	0.833000	7.36996e+06	-52039.1	1005.82	-29750.4	0.000000	0.000000	6.833084	0.079581	NaN	0.000000	0.001644	0.001655	28.0804	0.106071	0.002032	52.1964	7.472892	13.1394	0.039643	0.831630	-0.281807	-0.283177	0.079581	52.1964	-0.282950	-2614.75	-3.043531E-5	NaN
501	1.000000	0.843028	7.36996e+06	-52039.1	1005.82	-29750.4	0.000000	0.000000	6.843112	0.085184	NaN	0.000000	0.001649	0.001670	28.0816	0.065441	0.002048	31.9493	131.212	-163.809	0.039550	0.841631	-0.271778	-0.273176	0.085184	31.9493	-0.273778	-1900.6	-4.481944E-5	NaN
501	1.000000	0.853002	7.36996e+06	-52039.1	1005.82	-29750.4	0.000000	0.000000	6.853082	-0.008743	NaN	0.000000	0.001671	0.001656	28.0816	0.038416	0.002091	18.3717	-18.0631	16.794	0.009900	0.851598	-0.261805	-0.263209	-0.008743	18.3717	-0.261448	-1233.39	7.088831E-6	NaN
501	1.000000	0.863006	7.36996e+06	-52039.1	1005.82	-29750.4	0.000000	0.000000	6.863088	0.028119	NaN	0.000000	0.001690	0.001675	28.0818	0.010786	0.001961	5.499136	45.538	-163.634	-0.004180	0.861680	-0.251801	-0.253127	0.028119	5.499136	-0.255636	-1004.39	-2.799647E-5	NaN
501	1.000000	0.872988	7.36996e+06	-52039.1	1005.82	-29750.4	0.000000	0.000000	6.873072	0.077576	NaN	0.000000	0.001659	0.001677	28.0826	0.068780	0.001998	34.4179	175.264	12.2493	0.068945	0.871642	-0.241819	-0.243165	0.077576	34.4179	-0.243509	-652.028	-0.000119	NaN
501	1.000000	0.883016	7.36996e+06	-52039.1	1005.82	-29750.4	0.000000	0.000000	6.883100	0.079037	NaN	0.000000	0.001624	0.001665	28.0817	0.046574	0.001886	24.6942	-92.2725	-167.409	0.093359	0.881744	-0.231791	-0.233063	0.079037	24.6942	-0.234191	-466.167	-0.000170	NaN
501	1.000000	0.893014	7.36996e+06	-52039.1	1005.82	-29750.4	0.000000	0.000000	6.893096	0.035726	NaN	0.000000	0.001654	0.001660	28.0816	0.070106	0.002025	34.6202	-73.7056	12.62	-0.024753	0.891618	-0.221793	-0.223189	0.035726	34.6202	-0.222567	-305.237	-0.000117	NaN
501	1.000000	0.903051	7.36996e+06	-52039.1	1005.82	-29750.4	0.000000	0.000000	6.903132	0.032857	NaN	0.000000	0.001603	0.001666	28.0818	0.063588	0.002073	30.6733	-177.754	-165.442	0.051558	0.901685	-0.211756	-0.213122	0.032857	30.6733	-0.212560	-210.96	-0.000156	NaN
501	1.000000	0.913054	7.36996e+06	-52039.1	1005.82	-29750.4	0.000000	0.000000	6.913136	0.039830	NaN	0.000000	0.001655	0.001645	28.0816	0.078518	0.001953	40.1976	35.7379	13.544	0.061833	0.911656	-0.201753	-0.203151	0.039830	40.1976	-0.202496	-144.759	-0.000275	NaN
501	1.000000	0.923048	7.36996e+06	-52039.1	1005.82	-29750.4	0.000000	0.000000	6.923126	-0.036568	NaN	0.000000	0.001603	0.001691	28.0816	0.108077	0.002059	52.4838	-143.595	-166.86	0.012832	0.921748	-0.191759	-0.193059	-0.036568	52.4838	-0.191237	-94.3342	0.000388	NaN
501	1.000000	0.933036	7.36996e+06	-52039.1	1005.82	-29750.4	0.000000	0.000000	6.933117	0.018625	NaN	0.000000	0.001691	0.001646	28.0819	0.102461	0.002013	50.9119	-168.732	10.7084	0.057574	0.931628	-0.181771	-0.183179	0.018625	50.9119	-0.182045	-66.0994	-0.000282	NaN
501	1.000000	0.943062	7.36996e+06	-52039.1	1005.82	-29750.4	0.000000	0.000000	6.943143	0.018254	NaN	0.000000	0.001673	0.001669	28.0816	0.085005	0.001997	42.559	58.9928	-168.553	0.069971	0.941736	-0.171745	-0.173071	0.018254	42.559	-0.172067	-44.609	-0.000409	NaN
501	1.000000	0.953047	7.36996e+06	-52039.1	1005.82	-29750.4	0.000000	0.000000	6.953128	0.024021	NaN	0.000000	0.001679	0.001623	28.0818	0.069003	0.002090	33.0238	175.826	15.0516	0.009447	0.951722	-0.161760	-0.163085	0.024021	33.0238	-0.162306	-30.1193	-0.000798	NaN
501	1.000000	0.963042	7.36996e+06	-52039.1	1005.82	-29750.4	0.000000	0.000000	6.963122	-0.014789	NaN	0.000000	0.001706	0.001667	28.0817	0.034995	0.002010	17.412	132.976	-168.337	-0.028844	0.961687	-0.151765	-0.153119	-0.014789	17.412	-0.151128	-18.9906	0.000779	NaN
501	1.000000	0.973085	7.36996e+06	-52039.1	1005.82	-29750.4	0.000000	0.000000	6.973165	-0.000191	NaN	0.000000	0.001671	0.001649	28.0819	0.039403	0.001985	19.847	60.5815	11.7217	0.023855	0.971719	-0.141722	-0.143088	-0.000191	19.847	-0.141715	-12.7378	1.503093E-5	NaN
501	1.000000	0.983056	7.36996e+06	-52039.1	1005.82	-29750.4	0.000000	0.000000	6.983136	-0.018410	NaN	0.000000	0.001709	0.001692	28.0804	0.095826	0.001862	51.4649	14.6245	-165.399	0.011189	0.981674	-0.131751	-0.133133	-0.018410	51.4649	-0.131482	-8.142012	0.002261	NaN
501	1.000000	0.993020	7.36996e+06	-52039.1	1005.82	-29750.4	0.000000	0.000000	6.993103	0.062998	NaN	0.000000	0.001687	0.001667	28.0805	0.186771	0.002000	93.3968	159.339	13.6923	0.080423	0.991707	-0.121787	-0.123100	0.062998	93.3968	-0.122293	-5.372092	-0.011727	NaN
501	1.000000	1.003042	7.36996e+06	-52039.1	1005.82	-29750.4	0.000000	0.000000	7.003124	0.042895	NaN	0.000000	0.001690	0.001640	28.0807	0.013053	0.002103	6.206135	92.437	-166.717	0.061109	1.001800	-0.111765	-0.113007	0.042895	6.206135	-0.116949	-4.189057	-0.010240	NaN
501	1.000000	1.013065	7.36996e+06	-52039.1	1005.82	-29750.4	0.000000	0.000000	7.013148	0.059279	NaN	0.000000	0.001672	0.001679	28.0808	0.083755	0.001879	44.5649	5.639464	15.6141	0.156763	1.011670	-0.101742	-0.103137	0.059279	44.5649	-0.102740	-2.099282	-0.028238	NaN
501	1.000000	1.023052	7.36996e+06	-52039.1	1005.82	-29750.4	0.000000	0.000000	7.023135	0.047324	NaN	0.000000	0.001678	0.001674	28.0807	0.015591	0.001993	7.823268	67.772	-166.968	0.080441	1.021741	-0.091755	-0.093066	0.047324	7.823268	-0.096292	-1.509180	-0.031358	NaN
501	1.000000	1.033071	7.36996e+06	-52039.1	1005.82	-29750.4	0.000000	0.000000	7.033153	0.031699	NaN	0.000000	0.001671	0.001647	28.0808	0.080306	0.001997	40.2129	-26.6834	14.179	0.006578	1.031678	-0.081736	-0.083129	0.031699	40.2129	-0.082327	-0.707021	-0.044834	NaN
501	1.000000	1.043074	7.36996e+06	-52039.1	1005.82	-29750.4	0.000000	0.000000	7.043157	0.056825	NaN	0.000000	0.001686	0.001679	28.081	0.076887	0.001946	39.5071	91.315	-165.24	-0.033541	1.041710	-0.071733	-0.073097	0.056825	39.5071	-0.072812	-0.405018	-0.140302	NaN
501	1.000000	1.053079	7.36996e+06	-52039.1	1005.82	-29750.4	0.000000	0.000000	7.053159	-0.019633	NaN	0.000000	0.001733	0.001624	28.0806	0.105010	0.002008	52.3082	-53.7998	14.9693	0.002066	1.051693	-0.061728	-0.063114	-0.019633	52.3082	-0.061446	-0.198054	0.099128	NaN
501	1.000000	1.063097	7.36996e+06	-52039.1	1005.82	-29750.4	0.000000	0.000000	7.063177	-0.016282	NaN	0.000000	0.001679	0.001688	28.0806	0.116747	0.001977	59.0479	117.775	-166.196	-0.078408	1.061824	-0.051710	-0.052983	-0.016282	59.0479	-0.051503	-0.101286	0.160755	NaN
501	1.000000	1.073092	7.36996e+06	-52039.1	1005.82	-29750.4	0.000000	0.000000	7.073173	0.020227	NaN	0.000000	0.001706	0.001707	28.0805	0.039286	0.002001	19.634	-42.6047	15.2271	0.128335	1.071722	-0.041715	-0.043085	0.020227	19.634	-0.042488	-0.053847	-0.375639	NaN
501	1.000000	1.083094	7.36996e+06	-52039.1	1005.82	-29750.4	0.000000	0.000000	7.083174	-0.012207	NaN	0.000000	0.001696	0.001669	28.0808	0.051855	0.002002	25.9042	173.624	-167.401	-0.034081	1.081783	-0.031713	-0.033024	-0.012207	25.9042	-0.031360	-0.025130	0.485758	NaN
501	1.000000	1.093084	7.36996e+06	-52039.1	1005.82	-29750.4	0.000000	0.000000	7.093165	0.010660	NaN	0.000000	0.001682	0.001701	28.0803	0.090653	0.002031	44.632	-98.1639	14.0757	-0.013673	1.091727	-0.021723	-0.023080	0.010660	44.632	-0.021902	-0.014040	-0.759241	NaN
501	1.000000	1.103111	7.36996e+06	-52039.1	1005.82	-29750.4	0.000000	0.000000	7.103191	-0.028447	NaN	0.000000	0.001642	0.001682	28.0806	0.076766	0.001971	38.9381	42.1662	-164.802	0.075567	1.101788	-0.011696	-0.013019	-0.028447	38.9381	-0.011148	-0.007042	4.039473	NaN
501	1.000000	1.113075	7.36996e+06	-52039.1	1005.82	-29750.4	0.000000	0.000000	7.113278	2.972108	NaN	0.000000	0.001674	0.001694	28.081	3.926956	0.002001	1962.48	10.8342	11.5794	1.751072	1.111778	-0.001732	-0.003029	2.972108	1962.48	-0.002867	-0.002032	-1462.99	NaN
501	2.000000	1.119690	7.36996e+06	-52039.1	1005.82	-29750.4	0.000000	0.000000	7.120094	7.874683	NaN	0.000000	0.001655	0.001688	28.0819	9.394799	0.001767	5316.82	5.298967	-170.049	7.441095	1.119408	0.004883	0.004601	7.874683	5316.82	0.003772	0.003040	2590.45	88104.1
501	2.000000	1.122191	7.36996e+06	-52039.1	1005.82	-29750.4	0.000000	0.000000	7.122815	13.2283	NaN	0.000000	0.001609	0.001713	28.0816	12.1345	0.001628	7453.94	4.590589	8.237807	11.9485	1.121839	0.007384	0.007032	13.2283	7453.94	0.006053	0.005115	2586.24	95223
501	2.000000	1.124664	7.36996e+06	-52039.1	1005.82	-29750.4	0.000000	0.000000	7.125369	15.1892	NaN	0.000000	0.001691	0.001728	28.0817	15.0085	0.001737	8640.24	6.373245	-175.32	14.6289	1.124319	0.009857	0.009512	15.1892	8640.24	0.008539	0.007602	1997.97	90537
501	2.000000	1.127125	7.36996e+06	-52039.1	1005.82	-29750.4	0.000000	0.000000	7.128026	19.9412	NaN	0.000000	0.001690	0.001692	28.0818	17.2229	0.001668	10327.2	-3.079746	11.407	17.7626	1.126734	0.012319	0.011927	19.9412	10327.2	0.010870	0.010165	1961.79	93584.6
501	2.000000	1.129648	7.36996e+06	-52039.1	1005.82	-29750.4	0.000000	0.000000	7.130529	19.4636	NaN	0.000000	0.001701	0.001679	28.0818	20.373	0.001812	11243.9	9.012772	-178.758	20.0298	1.129404	0.014841	0.014597	19.4636	11243.9	0.013543	0.013391	1453.45	88772.4
501	2.000000	1.132100	7.36996e+06	-52039.1	1005.82	-29750.4	0.000000	0.000000	7.133527	32.7382	NaN	0.000000	0.001672	0.001715	28.0814	23.052	0.001751	13163.1	4.757740	2.366105	30.3621	1.131674	0.017293	0.016867	32.7382	13163.1	0.015427	0.015859	2064.27	95496.2
501	2.000000	1.134577	7.36996e+06	-52039.1	1005.82	-29750.4	0.000000	0.000000	7.136006	32.7885	NaN	0.000000	0.001712	0.001703	28.0816	25.0493	0.001722	14547.9	5.225784	-179.739	30.5635	1.134342	0.019770	0.019535	32.7885	14547.9	0.018079	0.019613	1671.73	94906.5
501	2.000000	1.137131	7.36996e+06	-52039.1	1005.82	-29750.4	0.000000	0.000000	7.138728	36.8664	NaN	0.000000	0.001714	0.001682	28.0817	28.1385	0.001824	15427.9	8.224949	-2.868361	35.8453	1.136835	0.022324	0.022028	36.8664	15427.9	0.020532	0.023386	1576.46	92173.6
501	2.000000	1.139636	7.36996e+06	-52039.1	1005.82	-29750.4	0.000000	0.000000	7.141516	43.754	NaN	0.000000	0.001707	0.001715	28.0817	30.6519	0.001839	16671.9	7.061049	177.525	44.6517	1.139392	0.024829	0.024585	43.754	16671.9	0.022861	0.027238	1606.35	92293.3
501	2.000000	1.142075	7.36996e+06	-52039.1	1005.82	-29750.4	0.000000	0.000000	7.144294	51.9957	NaN	0.000000	0.001651	0.001709	28.0816	32.1256	0.001794	17902.4	6.039656	-0.844447	49.8579	1.141685	0.027268	0.026878	51.9957	17902.4	0.025090	0.031179	1667.65	92630.5
501	2.000000	1.144533	7.36996e+06	-52039.1	1005.82	-29750.4	0.000000	0.000000	7.146755	52.0643	NaN	0.000000	0.001652	0.001748	28.0818	34.2358	0.001837	18638.6	1.591405	-178.182	49.187	1.144268	0.029726	0.029461	52.0643	18638.6	0.027631	0.035976	1447.18	89779.6
501	2.000000	1.147076	7.36996e+06	-52039.1	1005.82	-29750.4	0.000000	0.000000	7.149583	59.0182	NaN	0.000000	0.001663	0.001707	28.0819	36.7065	0.001770	20732.8	1.838139	0.754075	57.2218	1.146735	0.032269	0.031928	59.0182	20732.8	0.030134	0.041021	1438.72	93524.9
501	2.000000	1.149573	7.36996e+06	-52039.1	1005.82	-29750.4	0.000000	0.000000	7.152490	68.9705	NaN	0.000000	0.001661	0.001706	28.0818	39.4258	0.001828	21564.4	-1.889199	-175.906	68.7606	1.149354	0.034766	0.034547	68.9705	21564.4	0.032367	0.045793	1506.13	92068.2
501	2.000000	1.152108	7.36996e+06	-52039.1	1005.82	-29750.4	0.000000	0.000000	7.155345	76.7579	NaN	0.000000	0.001643	0.001721	28.0803	41.5476	0.001893	21944.7	3.587858	0.036936	76.3045	1.151800	0.037301	0.036993	76.7579	21944.7	0.034677	0.050998	1505.13	88782.6
501	2.000000	1.154539	7.36996e+06	-52039.1	1005.82	-29750.4	0.000000	0.000000	7.158164	86.175	NaN	0.000000	0.001639	0.001712	28.0806	43.8242	0.001721	25465.8	2.751613	177.868	84.865	1.154276	0.039732	0.039469	86.175	25465.8	0.037194	0.056979	1512.4	97470.5
501	2.000000	1.157026	7.36996e+06	-52039.1	1005.82	-29750.4	0.000000	0.000000	7.160717	87.7999	NaN	0.000000	0.001653	0.001689	28.0802	46.3355	0.001757	26369.2	2.336616	-1.729624	83.8327	1.156799	0.042219	0.041992	87.7999	26369.2	0.039721	0.063311	1386.81	95748.5
501	2.000000	1.159544	7.36996e+06	-52039.1	1005.82	-29750.4	0.000000	0.000000	7.163962	105.449	NaN	0.000000	0.001650	0.001706	28.0806	49.1374	0.001667	29472.7	6.405214	172.891	105.183	1.159291	0.044738	0.044484	105.449	29472.7	0.042054	0.069445	1518.47	102182
501	2.000000	1.162060	7.36996e+06	-52039.1	1005.82	-29750.4	0.000000	0.000000	7.166786	112.939	NaN	0.000000	0.001641	0.001643	28.0805	50.8425	0.001889	26912.9	6.392887	-5.286614	109.443	1.161722	0.047253	0.046915	112.939	26912.9	0.044106	0.075069	1504.46	89743.4
501	2.000000	1.164433	7.36996e+06	-52039.1	1005.82	-29750.4	0.000000	0.000000	7.169709	126.32	NaN	0.000000	0.001642	0.001675	28.0806	53.5974	0.001877	28552.9	6.290671	174.136	120.302	1.164168	0.049626	0.049361	126.32	28552.9	0.046308	0.081345	1552.89	91465.5
501	2.000000	1.166971	7.36996e+06	-52039.1	1005.82	-29750.4	0.000000	0.000000	7.172783	139.362	NaN	0.000000	0.001652	0.001720	28.0806	55.3096	0.001757	31479.6	-0.212114	0.312443	132.289	1.166613	0.052164	0.051806	139.362	31479.6	0.048844	0.088872	1568.11	96476.1
501	2.000000	1.169552	7.36996e+06	-52039.1	1005.82	-29750.4	0.000000	0.000000	7.175670	146.804	NaN	0.000000	0.001638	0.001712	28.0807	60.1204	0.001856	32396	5.427716	173.57	145.833	1.169364	0.054745	0.054557	146.804	32396	0.051346	0.096620	1519.4	95220.6
501	2.000000	1.172117	7.36996e+06	-52039.1	1005.82	-29750.4	0.000000	0.000000	7.179177	169.69	NaN	0.000000	0.001654	0.001694	28.0805	61.3101	0.001769	34664.2	4.128387	-4.791689	168.758	1.171649	0.057310	0.056842	169.69	34664.2	0.053639	0.103992	1631.76	98209.7
501	2.000000	1.174524	7.36996e+06	-52039.1	1005.82	-29750.4	0.000000	0.000000	7.181911	177.663	NaN	0.000000	0.001650	0.001715	28.0809	64.0987	0.001847	34709.4	4.180813	174.522	178.177	1.174241	0.059717	0.059434	177.663	34709.4	0.055878	0.111442	1594.21	94993.9
501	2.000000	1.177050	7.36996e+06	-52039.1	1005.82	-29750.4	0.000000	0.000000	7.184862	187.987	NaN	0.000000	0.001630	0.001691	28.0807	67.1568	0.001801	37298.4	3.315460	-4.790299	187.472	1.176740	0.062243	0.061933	187.987	37298.4	0.058463	0.120355	1561.94	98227
501	2.000000	1.179555	7.36996e+06	-52039.1	1005.82	-29750.4	0.000000	0.000000	7.187984	202.992	NaN	0.000000	0.001635	0.001691	28.0808	70.8505	0.001846	38384.6	5.494667	172.726	204.955	1.179283	0.064748	0.064476	202.992	38384.6	0.060782	0.128626	1578.16	97783.5
501	2.000000	1.182103	7.36996e+06	-52039.1	1005.82	-29750.4	0.000000	0.000000	7.191204	219.35	NaN	0.000000	0.001621	0.001687	28.0806	72.2961	0.001827	39574.1	7.497765	-9.630151	219.974	1.181750	0.067296	0.066943	219.35	39574.1	0.063139	0.137304	1597.56	97576.1
501	2.000000	1.184472	7.36996e+06	-52039.1	1005.82	-29750.4	0.000000	0.000000	7.194324	237.602	NaN	0.000000	0.001657	0.001697	28.0811	73.6125	0.001699	43319.4	6.780980	170.617	236.807	1.184156	0.069665	0.069349	237.602	43319.4	0.065551	0.146464	1622.26	103417
501	2.000000	1.186927	7.36996e+06	-52039.1	1005.82	-29750.4	0.000000	0.000000	7.197406	252.847	NaN	0.000000	0.001660	0.001694	28.0819	76.2857	0.001859	41031.4	4.319007	-6.823534	244.464	1.186548	0.072120	0.071741	252.847	41031.4	0.067498	0.154060	1641.22	95508.9
501	2.000000	1.189454	7.36996e+06	-52039.1	1005.82	-29750.4	0.000000	0.000000	7.200654	270.378	NaN	0.000000	0.001640	0.001728	28.0819	78.4423	0.001718	45658.6	3.740281	172.878	264.731	1.189121	0.074647	0.074314	270.378	45658.6	0.070206	0.164927	1639.39	102719
501	2.000000	1.192014	7.36996e+06	-52039.1	1005.82	-29750.4	0.000000	0.000000	7.203940	288.039	NaN	0.000000	0.001640	0.001708	28.082	79.8754	0.001731	46144.8	1.891974	-4.803847	283.06	1.191734	0.077207	0.076927	288.039	46144.8	0.072525	0.174512	1650.54	100921
501	2.000000	1.194569	7.36996e+06	-52039.1	1005.82	-29750.4	0.000000	0.000000	7.206984	299.92	NaN	0.000000	0.001643	0.001680	28.0822	82.0759	0.001752	46845.7	2.796609	174.061	301.683	1.194206	0.079762	0.079399	299.92	46845.7	0.074960	0.184849	1622.52	99548.6
501	2.000000	1.197027	7.36996e+06	-52039.1	1005.82	-29750.4	0.000000	0.000000	7.210205	318.456	NaN	0.000000	0.001642	0.001694	28.0818	85.7281	0.001776	48281.6	3.958048	-7.898656	314.979	1.196694	0.082220	0.081887	318.456	48281.6	0.077274	0.194928	1633.71	99912.2
501	2.000000	1.199526	7.36996e+06	-52039.1	1005.82	-29750.4	0.000000	0.000000	7.213610	340.486	NaN	0.000000	0.001670	0.001662	28.082	89.1396	0.001850	48192.5	2.666376	174.012	339.782	1.199207	0.084719	0.084400	340.486	48192.5	0.079420	0.204505	1664.92	97364.4
501	2.000000	1.202041	7.36996e+06	-52039.1	1005.82	-29750.4	0.000000	0.000000	7.216840	357.869	NaN	0.000000	0.001664	0.001713	28.0819	90.5749	0.001852	48914.7	4.521164	-7.866615	357.802	1.201729	0.087234	0.086922	357.869	48914.7	0.081747	0.215128	1663.51	96352.6
501	2.000000	1.204529	7.36996e+06	-52039.1	1005.82	-29750.4	0.000000	0.000000	7.220112	376.962	NaN	0.000000	0.001650	0.001714	28.0817	91.5295	0.001797	50939.5	0.033825	176.202	377.361	1.204284	0.089722	0.089477	376.962	50939.5	0.084172	0.226466	1664.54	97797.2
501	2.000000	1.206969	7.36996e+06	-52039.1	1005.82	-29750.4	0.000000	0.000000	7.223419	398.028	NaN	0.000000	0.001663	0.001729	28.0818	94.5224	0.001779	53125.3	2.594275	-6.975947	394.418	1.206732	0.092162	0.091925	398.028	53125.3	0.086543	0.237815	1673.69	99530.2
501	2.000000	1.209495	7.36996e+06	-52039.1	1005.82	-29750.4	0.000000	0.000000	7.226329	407.363	NaN	0.000000	0.001645	0.001731	28.0816	97.8593	0.001780	54976	4.872008	170.106	405.194	1.209337	0.094689	0.094530	407.363	54976	0.089131	0.250502	1626.19	100355
501	2.000000	1.212093	7.36996e+06	-52039.1	1005.82	-29750.4	0.000000	0.000000	7.230160	437.355	NaN	0.000000	0.001685	0.001703	28.0822	99.1408	0.001734	57181.9	6.232990	-10.5467	438.887	1.211590	0.097286	0.096783	437.355	57181.9	0.091550	0.262633	1665.27	101943
501	2.000000	1.214517	7.36996e+06	-52039.1	1005.82	-29750.4	0.000000	0.000000	7.233746	465.615	NaN	0.000000	0.001621	0.001720	28.0815	101.494	0.001859	54599.3	6.691217	169.891	464.816	1.213992	0.099710	0.099185	465.615	54599.3	0.093314	0.271651	1714.02	95709.5
501	2.000000	1.216898	7.36996e+06	-52039.1	1005.82	-29750.4	0.000000	0.000000	7.236652	478.362	NaN	0.000000	0.001625	0.001754	28.0817	104.027	0.001739	59809.9	5.948619	-11.1261	470.36	1.216596	0.102091	0.101789	478.362	59809.9	0.096092	0.286143	1671.75	102154