File: remote_trans/data/nanoindenter/0828-1/data/Data_2025-08-06,11h17m57s/2025-07-22_16-23-58_1_492.txt
2025-07-22, 16:23:58, 1
Index	Phase	Displacement	Time	Pos X	Pos Y	Pos Z	Rot A	Rot B	Piezo Z	Force A	Force B	Gripper	Voltage A	Voltage B	Temperature	Amplitude force	Amplitude pos	Stiffness	Phase shift	Phase excitation	Force A raw	Displacement raw	HMax	HMax raw	Real Force	Real Stiffness	Contact Depth	Area	Hardness	Reduced Mod.
[#]	[#]	[um]	[s]	[um]	[um]	[um]	[m°]	[m°]	[um]	[uN]	[uN]	[V]	[V]	[V]	[°C]	[uN]	[um]	[N/m]	[°]	[°]	[uN]	[um]	[um]	[um]	[uN]	[N/m]	[um]	[um^2]	[MPa]	[MPa]
492	1.000000	0.002422	7.36987e+06	-52489.1	1005.82	-29749.1	0.000000	0.000000	6.002782	0.019071	NaN	0.000000	0.001712	0.001754	28.0814	0.100493	0.000903	111.227	148.085	-158.896	-0.006142	0.001196	-1.110379	-1.111604	0.019071	111.227	-1.110508	-6.935857E+14	-2.749627E-17	NaN
492	1.000000	0.012497	7.36987e+06	-52489.1	1005.82	-29749.1	0.000000	0.000000	6.012857	0.019622	NaN	0.000000	0.001690	0.001734	28.0811	0.070376	0.001191	59.088	119.302	17.946	0.045171	0.011065	-1.100304	-1.101736	0.019622	59.088	-1.100553	-5.099084E+14	-3.848121E-17	NaN
492	1.000000	0.022411	7.36987e+06	-52489.1	1005.82	-29749.1	0.000000	0.000000	6.022768	-0.061809	NaN	0.000000	0.001688	0.001784	28.0808	0.112545	0.001737	64.7778	-140.268	-164.558	-0.096837	0.021062	-1.090389	-1.091738	-0.061809	64.7778	-1.089674	-3.642770E+14	1.696748E-16	NaN
492	1.000000	0.032390	7.36987e+06	-52489.1	1005.82	-29749.1	0.000000	0.000000	6.032749	0.004445	NaN	0.000000	0.001658	0.001775	28.0809	0.051418	0.001958	26.2576	80.5133	14.8605	-0.014504	0.031047	-1.080411	-1.081753	0.004445	26.2576	-1.080538	-2.746257E+14	-1.618450E-17	NaN
492	1.000000	0.042400	7.36987e+06	-52489.1	1005.82	-29749.1	0.000000	0.000000	6.042762	0.079166	NaN	0.000000	0.001683	0.001748	28.0809	0.091763	0.002018	45.4783	41.5743	-164.038	0.052348	0.041055	-1.070401	-1.071746	0.079166	45.4783	-1.071706	-2.089848E+14	-3.788138E-16	NaN
492	1.000000	0.052400	7.36987e+06	-52489.1	1005.82	-29749.1	0.000000	0.000000	6.052762	0.045202	NaN	0.000000	0.001684	0.001769	28.081	0.037222	0.001884	19.7543	40.5317	13.1185	0.042821	0.051037	-1.060400	-1.061763	0.045202	19.7543	-1.062116	-1.553323E+14	-2.910036E-16	NaN
492	1.000000	0.062389	7.36987e+06	-52489.1	1005.82	-29749.1	0.000000	0.000000	6.062748	-0.019716	NaN	0.000000	0.001689	0.001778	28.0809	0.074326	0.002174	34.1851	-80.2924	-166.654	-0.030999	0.061082	-1.050411	-1.051718	-0.019716	34.1851	-1.049979	-1.066912E+14	1.847957E-16	NaN
492	1.000000	0.072392	7.36987e+06	-52489.1	1005.82	-29749.1	0.000000	0.000000	6.072754	0.049463	NaN	0.000000	0.001734	0.001781	28.0809	0.103819	0.001878	55.2801	-110.015	16.1864	-0.067245	0.071037	-1.040408	-1.041764	0.049463	55.2801	-1.041080	-8.099963E+13	-6.106582E-16	NaN
492	1.000000	0.082389	7.36987e+06	-52489.1	1005.82	-29749.1	0.000000	0.000000	6.082750	0.048646	NaN	0.000000	0.001693	0.001782	28.0808	0.115426	0.001973	58.5131	-141.837	-166.347	0.178548	0.081130	-1.030412	-1.031670	0.048646	58.5131	-1.031035	-5.934798E+13	-8.196807E-16	NaN
492	1.000000	0.092389	7.36987e+06	-52489.1	1005.82	-29749.1	0.000000	0.000000	6.092749	-0.004079	NaN	0.000000	0.001679	0.001745	28.0798	0.091774	0.001987	46.1894	-87.2427	14.5957	0.035293	0.091098	-1.020411	-1.021703	-0.004079	46.1894	-1.020345	-4.261803E+13	9.571374E-17	NaN
492	1.000000	0.102412	7.36987e+06	-52489.1	1005.82	-29749.1	0.000000	0.000000	6.102770	-0.031038	NaN	0.000000	0.001661	0.001767	28.0797	0.020869	0.001966	10.6166	174.768	-168.562	0.021717	0.101123	-1.010388	-1.011677	-0.031038	10.6166	-1.008196	-2.924796E+13	1.061217E-15	NaN
492	1.000000	0.112437	7.36987e+06	-52489.1	1005.82	-29749.1	0.000000	0.000000	6.112798	0.039812	NaN	0.000000	0.001677	0.001772	28.0798	0.081350	0.001980	41.0825	48.9048	20.0063	-0.046088	0.111034	-1.000364	-1.001767	0.039812	41.0825	-1.001090	-2.346660E+13	-1.696555E-15	NaN
492	1.000000	0.122407	7.36987e+06	-52489.1	1005.82	-29749.1	0.000000	0.000000	6.122766	-0.001574	NaN	0.000000	0.001662	0.001784	28.0797	0.122868	0.002024	60.7116	42.2632	-165.292	0.028757	0.121090	-0.990393	-0.991710	-0.001574	60.7116	-0.990374	-1.683251E+13	9.348918E-17	NaN
492	1.000000	0.132402	7.36987e+06	-52489.1	1005.82	-29749.1	0.000000	0.000000	6.132762	0.008361	NaN	0.000000	0.001702	0.001772	28.0797	0.020422	0.001969	10.3733	151.059	13.3241	0.003877	0.131054	-0.980398	-0.981746	0.008361	10.3733	-0.981003	-1.258688E+13	-6.642308E-16	NaN
492	1.000000	0.142445	7.36987e+06	-52489.1	1005.82	-29749.1	0.000000	0.000000	6.142804	-0.011117	NaN	0.000000	0.001683	0.001786	28.0801	0.022406	0.002106	10.6413	-119.31	-165.472	0.017485	0.141087	-0.970355	-0.971714	-0.011117	10.6413	-0.969572	-8.828629E+12	1.259179E-15	NaN
492	1.000000	0.152420	7.36987e+06	-52489.1	1005.82	-29749.1	0.000000	0.000000	6.152780	0.004801	NaN	0.000000	0.001681	0.001736	28.0796	0.129850	0.002023	64.1966	141.406	14.7486	-0.041025	0.151049	-0.960381	-0.961752	0.004801	64.1966	-0.960437	-6.649009E+12	-7.220731E-16	NaN
492	1.000000	0.162412	7.36987e+06	-52489.1	1005.82	-29749.1	0.000000	0.000000	6.162772	0.011644	NaN	0.000000	0.001680	0.001756	28.0802	0.018378	0.001829	10.0507	-162.119	-166.865	-0.089282	0.161153	-0.950388	-0.951647	0.011644	10.0507	-0.951257	-5.000153E+12	-2.328693E-15	NaN
492	1.000000	0.172442	7.36987e+06	-52489.1	1005.82	-29749.1	0.000000	0.000000	6.172798	-0.067657	NaN	0.000000	0.001687	0.001767	28.0796	0.018636	0.001926	9.673955	-51.7255	14.5748	-0.019205	0.171091	-0.940359	-0.941710	-0.067657	9.673955	-0.935113	-3.028336E+12	2.234136E-14	NaN
492	1.000000	0.182437	7.36987e+06	-52489.1	1005.82	-29749.1	0.000000	0.000000	6.182794	-0.052095	NaN	0.000000	0.001697	0.001783	28.08	0.091868	0.002015	45.5953	42.4079	-167.999	-0.060374	0.181101	-0.930364	-0.931700	-0.052095	45.5953	-0.929507	-2.544132E+12	2.047656E-14	NaN
492	1.000000	0.192446	7.36987e+06	-52489.1	1005.82	-29749.1	0.000000	0.000000	6.192806	0.024092	NaN	0.000000	0.001704	0.001845	28.0797	0.118900	0.002016	58.985	-172.186	13.2434	0.009013	0.191124	-0.920355	-0.921677	0.024092	58.985	-0.920661	-1.932567E+12	-1.246621E-14	NaN
492	1.000000	0.202459	7.36987e+06	-52489.1	1005.82	-29749.1	0.000000	0.000000	6.202820	0.044792	NaN	0.000000	0.001687	0.001760	28.08	0.060260	0.002011	29.9706	8.456342	-164.437	-0.050331	0.201139	-0.910342	-0.911662	0.044792	29.9706	-0.911463	-1.451850E+12	-3.085179E-14	NaN
492	1.000000	0.212473	7.36987e+06	-52489.1	1005.82	-29749.1	0.000000	0.000000	6.212831	-0.027547	NaN	0.000000	0.001704	0.001763	28.08	0.137668	0.001875	73.4199	-51.1748	10.1307	-0.017249	0.211069	-0.900328	-0.901732	-0.027547	73.4199	-0.900046	-1.017865E+12	2.706370E-14	NaN
492	1.000000	0.222473	7.36987e+06	-52489.1	1005.82	-29749.1	0.000000	0.000000	6.222829	-0.075980	NaN	0.000000	0.001667	0.001801	28.0801	0.100779	0.002010	50.1359	44.7801	-165.888	-0.015847	0.221144	-0.890327	-0.891657	-0.075980	50.1359	-0.889191	-7.260672E+11	1.046464E-13	NaN
492	1.000000	0.232461	7.36987e+06	-52489.1	1005.82	-29749.1	0.000000	0.000000	6.232823	0.059832	NaN	0.000000	0.001663	0.001750	28.0812	0.159319	0.002072	76.8921	-12.1992	15.0847	0.035686	0.231094	-0.880340	-0.881707	0.059832	76.8921	-0.880923	-5.612997E+11	-1.065946E-13	NaN
492	1.000000	0.242461	7.36987e+06	-52489.1	1005.82	-29749.1	0.000000	0.000000	6.242822	0.037992	NaN	0.000000	0.001700	0.001781	28.0816	0.036719	0.001975	18.5883	-5.940761	-166.742	0.047683	0.241135	-0.870340	-0.871665	0.037992	18.5883	-0.871872	-4.234242E+11	-8.972624E-14	NaN
492	1.000000	0.252466	7.36987e+06	-52489.1	1005.82	-29749.1	0.000000	0.000000	6.252823	-0.040724	NaN	0.000000	0.001674	0.001751	28.0816	0.123911	0.001909	64.8946	73.0997	10.7704	-0.064790	0.251106	-0.860335	-0.861695	-0.040724	64.8946	-0.859864	-2.912633E+11	1.398198E-13	NaN
492	1.000000	0.262476	7.36987e+06	-52489.1	1005.82	-29749.1	0.000000	0.000000	6.262833	-0.036160	NaN	0.000000	0.001599	0.001738	28.0812	0.051107	0.001849	27.6434	116.175	-166.5	0.050201	0.261133	-0.850325	-0.851667	-0.036160	27.6434	-0.849344	-2.098236E+11	1.723336E-13	NaN
492	1.000000	0.272500	7.36987e+06	-52489.1	1005.82	-29749.1	0.000000	0.000000	6.272857	-0.043122	NaN	0.000000	0.001637	0.001745	28.0811	0.166386	0.002002	83.1043	156.44	16.2547	0.058889	0.271141	-0.840301	-0.841659	-0.043122	83.1043	-0.839912	-1.563487E+11	2.758078E-13	NaN
492	1.000000	0.282475	7.36987e+06	-52489.1	1005.82	-29749.1	0.000000	0.000000	6.282832	-0.060967	NaN	0.000000	0.001631	0.001802	28.0812	0.063181	0.002002	31.5607	-46.7316	-171.266	-0.033123	0.281148	-0.830325	-0.831653	-0.060967	31.5607	-0.828877	-1.108048E+11	5.502181E-13	NaN
492	1.000000	0.292480	7.36987e+06	-52489.1	1005.82	-29749.1	0.000000	0.000000	6.292841	0.042714	NaN	0.000000	0.001614	0.001772	28.0812	0.024733	0.001939	12.756	-152.086	11.6251	-0.037437	0.291131	-0.820321	-0.821669	0.042714	12.756	-0.822832	-9.175160E+10	-4.655384E-13	NaN
492	1.000000	0.302493	7.36987e+06	-52489.1	1005.82	-29749.1	0.000000	0.000000	6.302851	-0.010529	NaN	0.000000	0.001611	0.001786	28.0812	0.048523	0.002095	23.156	-36.6529	-166.701	-0.060170	0.301139	-0.810308	-0.811661	-0.010529	23.156	-0.809967	-6.139378E+10	1.715024E-13	NaN
492	1.000000	0.312498	7.36987e+06	-52489.1	1005.82	-29749.1	0.000000	0.000000	6.312855	-0.055323	NaN	0.000000	0.001596	0.001787	28.0809	0.086654	0.002016	42.9774	114.955	18.2377	-0.032843	0.311165	-0.800303	-0.801635	-0.055323	42.9774	-0.799337	-4.404210E+10	1.256140E-12	NaN
492	1.000000	0.322523	7.36987e+06	-52489.1	1005.82	-29749.1	0.000000	0.000000	6.322881	-0.028711	NaN	0.000000	0.001615	0.001755	28.0813	0.037915	0.001926	19.6856	11.1832	-167.688	0.044661	0.321216	-0.790278	-0.791585	-0.028711	19.6856	-0.789184	-3.206301E+10	8.954644E-13	NaN
492	1.000000	0.332524	7.36987e+06	-52489.1	1005.82	-29749.1	0.000000	0.000000	6.332884	0.020387	NaN	0.000000	0.001616	0.001757	28.0811	0.072392	0.001991	36.3589	-168.08	14.586	0.034794	0.331099	-0.780276	-0.781701	0.020387	36.3589	-0.780697	-2.458686E+10	-8.291773E-13	NaN
492	1.000000	0.342502	7.36987e+06	-52489.1	1005.82	-29749.1	0.000000	0.000000	6.342860	-0.035944	NaN	0.000000	0.001605	0.001749	28.0813	0.011250	0.001987	5.661915	148.681	-164.827	-0.029322	0.341173	-0.770298	-0.771628	-0.035944	5.661915	-0.765537	-1.529728E+10	2.349727E-12	NaN
492	1.000000	0.352497	7.36987e+06	-52489.1	1005.82	-29749.1	0.000000	0.000000	6.352857	0.024145	NaN	0.000000	0.001604	0.001748	28.081	0.075687	0.001889	40.0653	133.224	14.4457	-0.012285	0.351180	-0.760304	-0.761621	0.024145	40.0653	-0.760756	-1.317000E+10	-1.833321E-12	NaN
492	1.000000	0.362500	7.36987e+06	-52489.1	1005.82	-29749.1	0.000000	0.000000	6.362859	-0.013607	NaN	0.000000	0.001611	0.001760	28.0806	0.077996	0.001995	39.1052	5.567291	-168.769	0.004435	0.361191	-0.750300	-0.751610	-0.013607	39.1052	-0.750040	-9.413646E+9	1.445457E-12	NaN
492	1.000000	0.372535	7.36987e+06	-52489.1	1005.82	-29749.1	0.000000	0.000000	6.372890	-0.086389	NaN	0.000000	0.001593	0.001758	28.0798	0.076061	0.001874	40.5933	30.0932	16.5848	0.047712	0.371156	-0.740266	-0.741645	-0.086389	40.5933	-0.738670	-6.590826E+9	1.310748E-11	NaN
492	1.000000	0.382482	7.36987e+06	-52489.1	1005.82	-29749.1	0.000000	0.000000	6.382841	-0.011416	NaN	0.000000	0.001597	0.001763	28.0798	0.108720	0.001923	56.5229	-77.5513	-165.809	0.038808	0.381258	-0.730318	-0.731542	-0.011416	56.5229	-0.730167	-5.047590E+9	2.261629E-12	NaN
492	1.000000	0.392540	7.36987e+06	-52489.1	1005.82	-29749.1	0.000000	0.000000	6.392900	0.016921	NaN	0.000000	0.001573	0.001781	28.08	0.087622	0.002039	42.9653	-91.1412	14.5221	0.032329	0.391157	-0.720261	-0.721643	0.016921	42.9653	-0.720556	-3.733033E+9	-4.532647E-12	NaN
492	1.000000	0.402553	7.36987e+06	-52489.1	1005.82	-29749.1	0.000000	0.000000	6.402912	0.011252	NaN	0.000000	0.001619	0.001794	28.0798	0.115087	0.001942	59.2612	65.7818	-166.646	-0.008572	0.401215	-0.710248	-0.711586	0.011252	59.2612	-0.710390	-2.712539E+9	-4.148061E-12	NaN
492	1.000000	0.412550	7.36987e+06	-52489.1	1005.82	-29749.1	0.000000	0.000000	6.412908	-0.038877	NaN	0.000000	0.001611	0.001807	28.0798	0.098133	0.002030	48.3444	6.748165	16.6037	-0.042311	0.411212	-0.700251	-0.701589	-0.038877	48.3444	-0.699648	-1.935169E+9	2.008970E-11	NaN
492	1.000000	0.422532	7.36987e+06	-52489.1	1005.82	-29749.1	0.000000	0.000000	6.422892	0.016300	NaN	0.000000	0.001581	0.001756	28.0799	0.030902	0.002080	14.8547	151.103	-167.738	-0.027994	0.421257	-0.690269	-0.691544	0.016300	14.8547	-0.691092	-1.478562E+9	-1.102446E-11	NaN
492	1.000000	0.432554	7.36987e+06	-52489.1	1005.82	-29749.1	0.000000	0.000000	6.432915	0.038054	NaN	0.000000	0.001583	0.001733	28.0804	0.084138	0.002051	41.0242	25.3572	15.865	0.086680	0.431237	-0.680247	-0.681563	0.038054	41.0242	-0.680942	-1.074218E+9	-3.542443E-11	NaN
492	1.000000	0.442522	7.36987e+06	-52489.1	1005.82	-29749.1	0.000000	0.000000	6.442885	0.081984	NaN	0.000000	0.001587	0.001791	28.0798	0.069000	0.001901	36.29	-53.6497	-166.844	0.042000	0.441232	-0.670279	-0.671569	0.081984	36.29	-0.671973	-8.098259E+8	-1.012370E-10	NaN
492	1.000000	0.452569	7.36987e+06	-52489.1	1005.82	-29749.1	0.000000	0.000000	6.452931	0.069851	NaN	0.000000	0.001595	0.001740	28.0799	0.055474	0.001959	28.3202	172.768	16.6702	0.039381	0.451214	-0.660232	-0.661587	0.069851	28.3202	-0.662082	-5.928961E+8	-1.178129E-10	NaN
492	1.000000	0.462554	7.36987e+06	-52489.1	1005.82	-29749.1	0.000000	0.000000	6.462913	-0.008182	NaN	0.000000	0.001600	0.001756	28.0799	0.038209	0.002062	18.529	20.6899	-165.121	0.021049	0.461284	-0.650247	-0.651517	-0.008182	18.529	-0.649916	-4.039066E+8	2.025595E-11	NaN
492	1.000000	0.472548	7.36987e+06	-52489.1	1005.82	-29749.1	0.000000	0.000000	6.472905	-0.055311	NaN	0.000000	0.001603	0.001752	28.0799	0.078914	0.002045	38.5856	102.882	12.189	-0.059448	0.471234	-0.640253	-0.641566	-0.055311	38.5856	-0.639178	-2.877472E+8	1.922224E-10	NaN
492	1.000000	0.482584	7.36987e+06	-52489.1	1005.82	-29749.1	0.000000	0.000000	6.482943	-0.009192	NaN	0.000000	0.001588	0.001737	28.0797	0.036850	0.001937	19.0194	170.895	-163.593	-0.058215	0.481228	-0.630217	-0.631572	-0.009192	19.0194	-0.629855	-2.143021E+8	4.289402E-11	NaN
492	1.000000	0.492573	7.36987e+06	-52489.1	1005.82	-29749.1	0.000000	0.000000	6.492932	-0.022132	NaN	0.000000	0.001587	0.001787	28.0801	0.075522	0.002052	36.8036	141.483	15.4205	-0.001637	0.491212	-0.620227	-0.621589	-0.022132	36.8036	-0.619776	-1.557966E+8	1.420547E-10	NaN
492	1.000000	0.502587	7.36987e+06	-52489.1	1005.82	-29749.1	0.000000	0.000000	6.502946	-0.015995	NaN	0.000000	0.001560	0.001813	28.0813	0.099818	0.001983	50.3487	-138.367	-165.641	-0.039559	0.501236	-0.610213	-0.611564	-0.015995	50.3487	-0.609975	-1.142279E+8	1.400312E-10	NaN
492	1.000000	0.512601	7.36987e+06	-52489.1	1005.82	-29749.1	0.000000	0.000000	6.512960	0.003011	NaN	0.000000	0.001665	0.001794	28.0811	0.084547	0.001971	42.9019	-117.347	16.2281	-0.026977	0.511232	-0.600200	-0.601569	0.003011	42.9019	-0.600252	-8.393374E+7	-3.587503E-11	NaN
492	1.000000	0.522604	7.36987e+06	-52489.1	1005.82	-29749.1	0.000000	0.000000	6.522961	-0.055323	NaN	0.000000	0.001652	0.001806	28.0811	0.065746	0.001927	34.1223	146.893	-163.627	-0.123705	0.521272	-0.590196	-0.591529	-0.055323	34.1223	-0.588980	-5.869584E+7	9.425318E-10	NaN
492	1.000000	0.532626	7.36987e+06	-52489.1	1005.82	-29749.1	0.000000	0.000000	6.532985	0.000149	NaN	0.000000	0.001670	0.001732	28.0813	0.019191	0.002142	8.960642	142.209	13.2189	-0.006463	0.531245	-0.580175	-0.581555	0.000149	8.960642	-0.580187	-4.439265E+7	-3.360653E-12	NaN
492	1.000000	0.542613	7.36987e+06	-52489.1	1005.82	-29749.1	0.000000	0.000000	6.542969	-0.073428	NaN	0.000000	0.001653	0.001765	28.0811	0.152370	0.002182	69.8302	15.4896	-165.089	-0.038295	0.541343	-0.570188	-0.571458	-0.073428	69.8302	-0.569399	-3.150160E+7	2.330944E-9	NaN
492	1.000000	0.552621	7.36987e+06	-52489.1	1005.82	-29749.1	0.000000	0.000000	6.552980	0.004211	NaN	0.000000	0.001637	0.001768	28.0812	0.021344	0.002052	10.3991	-69.2513	16.6807	-0.010319	0.551244	-0.560180	-0.561557	0.004211	10.3991	-0.560484	-2.371740E+7	-1.775409E-10	NaN
492	1.000000	0.562604	7.36987e+06	-52489.1	1005.82	-29749.1	0.000000	0.000000	6.562964	0.026023	NaN	0.000000	0.001597	0.001782	28.0814	0.049941	0.001935	25.8133	-17.4564	-165.298	0.013048	0.561287	-0.550197	-0.551514	0.026023	25.8133	-0.550953	-1.750452E+7	-1.486660E-9	NaN
492	1.000000	0.572603	7.36987e+06	-52489.1	1005.82	-29749.1	0.000000	0.000000	6.572964	0.037529	NaN	0.000000	0.001557	0.001741	28.0814	0.074900	0.002045	36.6268	-160.773	12.6374	0.046455	0.571248	-0.540197	-0.541553	0.037529	36.6268	-0.540966	-1.272768E+7	-2.948575E-9	NaN
492	1.000000	0.582628	7.36987e+06	-52489.1	1005.82	-29749.1	0.000000	0.000000	6.582985	-0.040303	NaN	0.000000	0.001606	0.001787	28.081	0.050982	0.001975	25.8132	5.874932	-164.155	-0.008626	0.581253	-0.530173	-0.531548	-0.040303	25.8132	-0.529002	-8.68388e+06	4.641171E-9	NaN
492	1.000000	0.592636	7.36987e+06	-52489.1	1005.82	-29749.1	0.000000	0.000000	6.592991	-0.108287	NaN	0.000000	0.001600	0.001744	28.081	0.106603	0.001846	57.7403	-151.523	12.9067	-0.155337	0.591268	-0.520164	-0.521533	-0.108287	57.7403	-0.518758	-6.2563e+06	1.730845E-8	NaN
492	1.000000	0.602634	7.36987e+06	-52489.1	1005.82	-29749.1	0.000000	0.000000	6.602994	0.018846	NaN	0.000000	0.001620	0.001741	28.081	0.039041	0.002086	18.7174	-161.886	-163.208	0.041210	0.601329	-0.510167	-0.511472	0.018846	18.7174	-0.510922	-4.86694e+06	-3.872236E-9	NaN
492	1.000000	0.612580	7.36987e+06	-52489.1	1005.82	-29749.1	0.000000	0.000000	6.612941	0.039395	NaN	0.000000	0.001612	0.001762	28.0811	0.023670	0.002049	11.5503	-87.679	13.02	-0.059707	0.611234	-0.500220	-0.501567	0.039395	11.5503	-0.502778	-3.74774e+06	-1.051165E-8	NaN
492	1.000000	0.622626	7.36987e+06	-52489.1	1005.82	-29749.1	0.000000	0.000000	6.622986	0.009463	NaN	0.000000	0.001603	0.001771	28.0811	0.024591	0.002084	11.7998	163.252	-168.642	0.031848	0.621320	-0.490174	-0.491480	0.009463	11.7998	-0.490776	-2.54819e+06	-3.713601E-9	NaN
492	1.000000	0.632657	7.36987e+06	-52489.1	1005.82	-29749.1	0.000000	0.000000	6.633019	0.065556	NaN	0.000000	0.001615	0.001738	28.0811	0.094770	0.001919	49.3747	42.1227	16.1812	0.065623	0.631331	-0.480144	-0.481470	0.065556	49.3747	-0.481139	-1.86843e+06	-3.508641E-8	NaN
492	1.000000	0.642646	7.36987e+06	-52489.1	1005.82	-29749.1	0.000000	0.000000	6.643008	0.065244	NaN	0.000000	0.001565	0.001753	28.0801	0.063911	0.001910	33.4667	177.122	-165.616	0.016252	0.641335	-0.470155	-0.471466	0.065244	33.4667	-0.471617	-1.37429e+06	-4.747482E-8	NaN
492	1.000000	0.652609	7.36987e+06	-52489.1	1005.82	-29749.1	0.000000	0.000000	6.652965	-0.058045	NaN	0.000000	0.001592	0.001746	28.0796	0.023077	0.001906	12.1078	-85.47	13.8961	-0.050170	0.651235	-0.460192	-0.461566	-0.058045	12.1078	-0.456597	-845617	6.864207E-8	NaN
492	1.000000	0.662642	7.36987e+06	-52489.1	1005.82	-29749.1	0.000000	0.000000	6.663001	0.014875	NaN	0.000000	0.001585	0.001776	28.0798	0.077194	0.001946	39.6678	35.5929	-164.271	-0.011978	0.661308	-0.450159	-0.451493	0.014875	39.6678	-0.450440	-692698	-2.147371E-8	NaN
492	1.000000	0.672628	7.36987e+06	-52489.1	1005.82	-29749.1	0.000000	0.000000	6.672985	-0.056992	NaN	0.000000	0.001576	0.001776	28.0799	0.046192	0.002007	23.0131	11.6488	12.0667	-0.024893	0.671260	-0.440173	-0.441541	-0.056992	23.0131	-0.438315	-467284	1.219639E-7	NaN
492	1.000000	0.682671	7.36987e+06	-52489.1	1005.82	-29749.1	0.000000	0.000000	6.683033	0.073305	NaN	0.000000	0.001598	0.001778	28.08	0.048555	0.002091	23.219	133.357	-165.933	0.085669	0.681390	-0.430130	-0.431411	0.073305	23.219	-0.432497	-386707	-1.895613E-7	NaN
492	1.000000	0.692687	7.36987e+06	-52489.1	1005.82	-29749.1	0.000000	0.000000	6.693042	-0.101643	NaN	0.000000	0.001596	0.001744	28.0799	0.048204	0.001968	24.4958	-36.7169	13.6217	-0.102503	0.691316	-0.420113	-0.421485	-0.101643	24.4958	-0.417001	-233276	4.357183E-7	NaN
492	1.000000	0.702649	7.36987e+06	-52489.1	1005.82	-29749.1	0.000000	0.000000	6.703004	-0.098212	NaN	0.000000	0.001605	0.001748	28.08	0.087820	0.001950	45.0389	-0.318356	-162.97	0.032493	0.701304	-0.410152	-0.411496	-0.098212	45.0389	-0.408516	-176726	5.557338E-7	NaN
492	1.000000	0.712686	7.36987e+06	-52489.1	1005.82	-29749.1	0.000000	0.000000	6.713045	0.009116	NaN	0.000000	0.001605	0.001728	28.0802	0.036089	0.002091	17.2624	-115.759	15.4606	0.030798	0.711342	-0.400115	-0.401459	0.009116	17.2624	-0.400511	-135919	-6.707136E-8	NaN
492	1.000000	0.722688	7.36987e+06	-52489.1	1005.82	-29749.1	0.000000	0.000000	6.723047	0.002120	NaN	0.000000	0.001594	0.001698	28.0799	0.092918	0.002040	45.5418	142.756	-163.16	0.034836	0.721340	-0.390113	-0.391461	0.002120	45.5418	-0.390148	-96668.4	-2.192956E-8	NaN
492	1.000000	0.732668	7.36987e+06	-52489.1	1005.82	-29749.1	0.000000	0.000000	6.733027	0.004859	NaN	0.000000	0.001607	0.001726	28.0799	0.044108	0.001913	23.0547	-149.915	12.1905	-0.016935	0.731315	-0.380133	-0.381486	0.004859	23.0547	-0.380291	-69833.4	-6.958031E-8	NaN
492	1.000000	0.742672	7.36987e+06	-52489.1	1005.82	-29749.1	0.000000	0.000000	6.743030	-0.037327	NaN	0.000000	0.001620	0.001763	28.0799	0.037285	0.001992	18.7157	110.535	-168.665	-0.023049	0.741381	-0.370129	-0.371419	-0.037327	18.7157	-0.368633	-47471.6	7.863020E-7	NaN
492	1.000000	0.752639	7.36987e+06	-52489.1	1005.82	-29749.1	0.000000	0.000000	6.752998	-0.024845	NaN	0.000000	0.001647	0.001755	28.0803	0.024260	0.002113	11.4834	-159.673	11.2259	-0.037443	0.751322	-0.360161	-0.361478	-0.024845	11.4834	-0.358538	-33940	7.320297E-7	NaN
492	1.000000	0.762694	7.36987e+06	-52489.1	1005.82	-29749.1	0.000000	0.000000	6.763052	-0.029118	NaN	0.000000	0.001622	0.001712	28.0801	0.048450	0.001955	24.785	84.03	-166.153	-0.055437	0.761402	-0.350107	-0.351398	-0.029118	24.785	-0.349226	-24875	1.170589E-6	NaN
492	1.000000	0.772726	7.36987e+06	-52489.1	1005.82	-29749.1	0.000000	0.000000	6.773084	-0.038039	NaN	0.000000	0.001642	0.001747	28.081	0.022426	0.001997	11.2296	127.086	14.1726	-0.093699	0.771348	-0.340075	-0.341453	-0.038039	11.2296	-0.337534	-16810.8	2.262789E-6	NaN
492	1.000000	0.782693	7.36987e+06	-52489.1	1005.82	-29749.1	0.000000	0.000000	6.783052	-0.005396	NaN	0.000000	0.001628	0.001750	28.0812	0.055517	0.002017	27.525	-127.526	-166.338	-0.014998	0.781379	-0.330108	-0.331422	-0.005396	27.525	-0.329961	-13027.8	4.141832E-7	NaN
492	1.000000	0.792695	7.36987e+06	-52489.1	1005.82	-29749.1	0.000000	0.000000	6.793053	-0.019717	NaN	0.000000	0.001627	0.001747	28.0816	0.033229	0.002088	15.9169	-38.1297	15.3876	-0.038596	0.791340	-0.320106	-0.321460	-0.019717	15.9169	-0.319177	-9047.25	2.179344E-6	NaN
492	1.000000	0.802714	7.36987e+06	-52489.1	1005.82	-29749.1	0.000000	0.000000	6.803073	-0.021216	NaN	0.000000	0.001636	0.001777	28.0811	0.111012	0.001952	56.8696	106.836	-168.436	-0.039176	0.801453	-0.310086	-0.311348	-0.021216	56.8696	-0.309807	-6579.5	3.224494E-6	NaN
492	1.000000	0.812727	7.36987e+06	-52489.1	1005.82	-29749.1	0.000000	0.000000	6.813085	-0.021979	NaN	0.000000	0.001649	0.001742	28.0811	0.091959	0.001964	46.8188	-66.197	16.4825	-0.057987	0.811339	-0.300074	-0.301461	-0.021979	46.8188	-0.299722	-4661.17	4.715354E-6	NaN
492	1.000000	0.822708	7.36987e+06	-52489.1	1005.82	-29749.1	0.000000	0.000000	6.823066	-0.024375	NaN	0.000000	0.001625	0.001798	28.0812	0.045822	0.002042	22.4448	168.112	-162.742	-0.005734	0.821422	-0.290093	-0.291379	-0.024375	22.4448	-0.289278	-3254.51	7.489744E-6	NaN
492	1.000000	0.832724	7.36987e+06	-52489.1	1005.82	-29749.1	0.000000	0.000000	6.833083	0.011226	NaN	0.000000	0.001640	0.001753	28.0813	0.078134	0.002022	38.6384	24.0281	14.802	0.004989	0.831373	-0.280077	-0.281428	0.011226	38.6384	-0.280295	-2384.63	-4.707659E-6	NaN
492	1.000000	0.842722	7.36987e+06	-52489.1	1005.82	-29749.1	0.000000	0.000000	6.843080	-0.023911	NaN	0.000000	0.001617	0.001792	28.0812	0.034949	0.002007	17.4096	28.7854	-167.111	-0.060824	0.841337	-0.270079	-0.271463	-0.023911	17.4096	-0.269049	-1610.94	1.484260E-5	NaN
492	1.000000	0.852731	7.36987e+06	-52489.1	1005.82	-29749.1	0.000000	0.000000	6.853090	-0.003966	NaN	0.000000	0.001651	0.001771	28.0812	0.130976	0.002160	60.6459	43.3092	16.3672	-0.018994	0.851387	-0.260070	-0.261414	-0.003966	60.6459	-0.260021	-1172.82	3.381310E-6	NaN
492	1.000000	0.862708	7.36987e+06	-52489.1	1005.82	-29749.1	0.000000	0.000000	6.863066	-0.022061	NaN	0.000000	0.001602	0.001735	28.0813	0.065371	0.002026	32.2694	140.389	-164.971	-0.077026	0.861464	-0.250093	-0.251337	-0.022061	32.2694	-0.249580	-809.972	2.723703E-5	NaN
492	1.000000	0.872716	7.36987e+06	-52489.1	1005.82	-29749.1	0.000000	0.000000	6.873072	-0.073826	NaN	0.000000	0.001611	0.001736	28.0811	0.052366	0.002042	25.6492	166.404	17.419	-0.052393	0.871364	-0.240085	-0.241437	-0.073826	25.6492	-0.237926	-533.492	0.000138	NaN
492	1.000000	0.882745	7.36987e+06	-52489.1	1005.82	-29749.1	0.000000	0.000000	6.883105	0.014616	NaN	0.000000	0.001648	0.001745	28.0812	0.058311	0.001970	29.5965	-156.464	-167.553	-0.010964	0.881433	-0.230056	-0.231368	0.014616	29.5965	-0.230426	-406.674	-3.594075E-5	NaN
492	1.000000	0.892760	7.36987e+06	-52489.1	1005.82	-29749.1	0.000000	0.000000	6.893118	-0.036297	NaN	0.000000	0.001640	0.001772	28.0812	0.049138	0.001951	25.1904	-161.472	13.343	-0.051621	0.891366	-0.220040	-0.221435	-0.036297	25.1904	-0.218960	-267.326	0.000136	NaN
492	1.000000	0.902751	7.36987e+06	-52489.1	1005.82	-29749.1	0.000000	0.000000	6.903108	-0.050984	NaN	0.000000	0.001629	0.001752	28.0814	0.079518	0.001922	41.3662	-52.3977	-166.452	0.061716	0.901357	-0.210050	-0.211443	-0.050984	41.3662	-0.209125	-185.628	0.000275	NaN
492	1.000000	0.912717	7.36987e+06	-52489.1	1005.82	-29749.1	0.000000	0.000000	6.913075	-0.024064	NaN	0.000000	0.001636	0.001752	28.0801	0.078237	0.002021	38.7121	-87.133	15.7011	0.017316	0.911377	-0.200084	-0.201423	-0.024064	38.7121	-0.199618	-129.843	0.000185	NaN
492	1.000000	0.922766	7.36987e+06	-52489.1	1005.82	-29749.1	0.000000	0.000000	6.923125	-0.001236	NaN	0.000000	0.001621	0.001717	28.08	0.037563	0.001942	19.3424	-177.632	-165.52	0.057687	0.921486	-0.190035	-0.191314	-0.001236	19.3424	-0.189987	-89.9099	1.374508E-5	NaN
492	1.000000	0.932759	7.36987e+06	-52489.1	1005.82	-29749.1	0.000000	0.000000	6.933118	-0.003963	NaN	0.000000	0.001640	0.001752	28.0802	0.039246	0.001934	20.2968	-23.2181	18.5188	-0.013667	0.931395	-0.180042	-0.181405	-0.003963	20.2968	-0.179895	-60.7694	6.521970E-5	NaN
492	1.000000	0.942770	7.36987e+06	-52489.1	1005.82	-29749.1	0.000000	0.000000	6.943127	-0.062680	NaN	0.000000	0.001661	0.001736	28.0801	0.044156	0.002118	20.8433	165.065	-164.467	-0.019636	0.941476	-0.170030	-0.171325	-0.062680	20.8433	-0.167775	-37.5737	0.001668	NaN
492	1.000000	0.952761	7.36987e+06	-52489.1	1005.82	-29749.1	0.000000	0.000000	6.953118	-0.061709	NaN	0.000000	0.001624	0.001762	28.0802	0.045592	0.001875	24.3195	-4.213970	11.6392	-0.018820	0.951393	-0.160039	-0.161408	-0.061709	24.3195	-0.158136	-25.3975	0.002430	NaN
492	1.000000	0.962763	7.36987e+06	-52489.1	1005.82	-29749.1	0.000000	0.000000	6.963121	-0.024725	NaN	0.000000	0.001606	0.001705	28.0804	0.081363	0.002060	39.4884	55.153	-167.741	0.008925	0.961434	-0.150038	-0.151367	-0.024725	39.4884	-0.149568	-17.7879	0.001390	NaN
492	1.000000	0.972762	7.36987e+06	-52489.1	1005.82	-29749.1	0.000000	0.000000	6.973120	-0.036997	NaN	0.000000	0.001659	0.001708	28.0805	0.067675	0.002036	33.2314	12.045	14.2039	0.026391	0.971402	-0.140039	-0.141398	-0.036997	33.2314	-0.139204	-11.4286	0.003237	NaN
492	1.000000	0.982772	7.36987e+06	-52489.1	1005.82	-29749.1	0.000000	0.000000	6.983130	-0.041993	NaN	0.000000	0.001637	0.001710	28.08	0.044141	0.001872	23.5789	97.3078	-164.296	-0.047598	0.981419	-0.130028	-0.131382	-0.041993	23.5789	-0.128693	-7.187159	0.005843	NaN
492	1.000000	0.992775	7.36987e+06	-52489.1	1005.82	-29749.1	0.000000	0.000000	6.993131	-0.081615	NaN	0.000000	0.001621	0.001758	28.0802	0.073994	0.001949	37.9598	6.511704	16.2392	-0.046728	0.991430	-0.120026	-0.121371	-0.081615	37.9598	-0.118413	-4.486913	0.018190	NaN
492	1.000000	1.002789	7.36987e+06	-52489.1	1005.82	-29749.1	0.000000	0.000000	7.003148	-0.000840	NaN	0.000000	0.001620	0.001699	28.0801	0.096123	0.001994	48.195	-168.373	-166.815	-0.018334	1.001466	-0.110012	-0.111335	-0.000840	48.195	-0.109999	-3.004991	0.000280	NaN
492	1.000000	1.012796	7.36987e+06	-52489.1	1005.82	-29749.1	0.000000	0.000000	7.013156	0.014963	NaN	0.000000	0.001652	0.001755	28.0801	0.104563	0.002036	51.3551	-5.440997	11.4715	0.040732	1.011437	-0.100005	-0.101364	0.014963	51.3551	-0.100223	-1.848095	-0.008096	NaN
492	1.000000	1.022796	7.36987e+06	-52489.1	1005.82	-29749.1	0.000000	0.000000	7.023156	0.027767	NaN	0.000000	0.001652	0.001737	28.0799	0.053613	0.001934	27.7151	-108.601	-164.035	0.027958	1.021482	-0.090005	-0.091318	0.027767	27.7151	-0.090757	-1.125971	-0.024661	NaN
492	1.000000	1.032806	7.36987e+06	-52489.1	1005.82	-29749.1	0.000000	0.000000	7.033165	-0.016586	NaN	0.000000	0.001646	0.001717	28.08	0.063503	0.001918	33.1009	-98.6941	15.6221	-0.104161	1.031400	-0.079995	-0.081401	-0.016586	33.1009	-0.079619	-0.605541	0.027391	NaN
492	1.000000	1.042793	7.36987e+06	-52489.1	1005.82	-29749.1	0.000000	0.000000	7.043151	-0.018299	NaN	0.000000	0.001649	0.001740	28.0801	0.039775	0.002007	19.8221	-137.825	-165.728	0.008588	1.041466	-0.070008	-0.071334	-0.018299	19.8221	-0.069315	-0.326972	0.055964	NaN
492	1.000000	1.052804	7.36987e+06	-52489.1	1005.82	-29749.1	0.000000	0.000000	7.053164	0.018637	NaN	0.000000	0.001657	0.001743	28.0812	0.075381	0.002045	36.8696	-75.5196	14.1974	-0.003232	1.051475	-0.059997	-0.061325	0.018637	36.8696	-0.060376	-0.184618	-0.100951	NaN
492	1.000000	1.062839	7.36987e+06	-52489.1	1005.82	-29749.1	0.000000	0.000000	7.063199	0.018229	NaN	0.000000	0.001654	0.001733	28.0811	0.087361	0.002001	43.6512	98.6298	-167.267	-0.011387	1.061531	-0.049962	-0.051270	0.018229	43.6512	-0.050275	-0.093012	-0.195990	NaN
492	1.000000	1.072806	7.36987e+06	-52489.1	1005.82	-29749.1	0.000000	0.000000	7.073167	0.054288	NaN	0.000000	0.001644	0.001759	28.0808	0.123310	0.002030	60.7314	-162.394	13.1958	0.065112	1.071486	-0.039995	-0.041315	0.054288	60.7314	-0.040665	-0.047378	-1.145846	NaN
492	1.000000	1.082798	7.36987e+06	-52489.1	1005.82	-29749.1	0.000000	0.000000	7.083157	-0.003697	NaN	0.000000	0.001632	0.001749	28.0811	0.049483	0.001993	24.8268	-129.103	-166.846	-0.005543	1.081552	-0.030003	-0.031248	-0.003697	24.8268	-0.029891	-0.022853	0.161770	NaN
492	1.000000	1.092809	7.36987e+06	-52489.1	1005.82	-29749.1	0.000000	0.000000	7.093167	-0.026761	NaN	0.000000	0.001642	0.001747	28.081	0.148345	0.001962	75.5897	-113.483	13.1846	-0.005912	1.091475	-0.019992	-0.021326	-0.026761	75.5897	-0.019726	-0.012361	2.164923	NaN
492	1.000000	1.102794	7.36987e+06	-52489.1	1005.82	-29749.1	0.000000	0.000000	7.103151	-0.052452	NaN	0.000000	0.001608	0.001733	28.081	0.020433	0.001994	10.2478	-14.8968	-165.211	-0.021329	1.101485	-0.010007	-0.011315	-0.052452	10.2478	-0.006168	-0.004139	12.6731	NaN
492	1.000000	1.112852	7.36987e+06	-52489.1	1005.82	-29749.1	0.000000	0.000000	7.113212	0.001110	NaN	0.000000	0.001649	0.001725	28.0813	0.115591	0.001905	60.6836	97.8416	15.9757	0.009781	1.111539	5.158215E-5	-0.001262	0.001110	60.6836	3.786706E-5	2.831916E-5	39.1858	10418.5
492	1.000000	1.122806	7.36987e+06	-52489.1	1005.82	-29749.1	0.000000	0.000000	7.123421	6.203496	NaN	0.000000	0.001675	0.001729	28.081	6.739847	0.001807	3730.74	14.2081	-172.941	5.366094	1.121488	0.010006	0.008687	6.203496	3730.74	0.008759	0.007834	791.85	38509.8
492	2.000000	1.126953	7.36987e+06	-52489.1	1005.82	-29749.1	0.000000	0.000000	7.127730	10.161	NaN	0.000000	0.001662	0.001680	28.0813	10.9739	0.001635	6710.03	6.318163	5.435021	8.917766	1.126617	0.014153	0.013816	10.161	6710.03	0.013017	0.012731	798.135	54333.5
492	2.000000	1.129347	7.36987e+06	-52489.1	1005.82	-29749.1	0.000000	0.000000	7.130250	13.2312	NaN	0.000000	0.001674	0.001687	28.0812	13.2127	0.001580	8364.82	5.094974	-174.128	12.0709	1.129046	0.016546	0.016246	13.2312	8364.82	0.015360	0.015769	839.09	60860.3
492	2.000000	1.131883	7.36987e+06	-52489.1	1005.82	-29749.1	0.000000	0.000000	7.132890	15.735	NaN	0.000000	0.001660	0.001715	28.0813	15.6905	0.001759	8919.75	4.231064	6.341533	14.4878	1.131570	0.019083	0.018769	15.735	8919.75	0.017760	0.019143	821.95	58900
492	2.000000	1.134389	7.36987e+06	-52489.1	1005.82	-29749.1	0.000000	0.000000	7.135535	19.1408	NaN	0.000000	0.001643	0.001730	28.0813	18.2148	0.001734	10503.7	3.124749	-173.336	18.8386	1.134047	0.021588	0.021246	19.1408	10503.7	0.020222	0.022892	836.152	63427.4
492	2.000000	1.136860	7.36987e+06	-52489.1	1005.82	-29749.1	0.000000	0.000000	7.138232	24.6208	NaN	0.000000	0.001656	0.001731	28.0812	20.7642	0.001799	11539.4	7.662721	2.968827	23.9124	1.136479	0.024060	0.023678	24.6208	11539.4	0.022459	0.026555	927.15	64696.7
492	2.000000	1.139310	7.36987e+06	-52489.1	1005.82	-29749.1	0.000000	0.000000	7.140891	29.694	NaN	0.000000	0.001645	0.001737	28.0799	22.174	0.001675	13236.8	1.383299	-174.059	27.3069	1.139012	0.026510	0.026211	29.694	13236.8	0.024827	0.030702	967.161	69019.4
492	2.000000	1.141824	7.36987e+06	-52489.1	1005.82	-29749.1	0.000000	0.000000	7.143578	33.9197	NaN	0.000000	0.001647	0.001730	28.0801	24.7994	0.001727	14361.7	5.339176	1.826843	32.1278	1.141507	0.029023	0.028706	33.9197	14361.7	0.027252	0.035241	962.517	69896.9
492	2.000000	1.144333	7.36987e+06	-52489.1	1005.82	-29749.1	0.000000	0.000000	7.146350	40.2972	NaN	0.000000	0.001610	0.001693	28.0798	28.7528	0.001911	15044	4.959688	-178.268	39.4443	1.144008	0.031533	0.031207	40.2972	15044	0.029524	0.039762	1013.46	68929
492	2.000000	1.146854	7.36987e+06	-52489.1	1005.82	-29749.1	0.000000	0.000000	7.149183	47.8773	NaN	0.000000	0.001575	0.001722	28.0801	30.5962	0.001880	16275	8.082250	-1.802551	46.4495	1.146478	0.034054	0.033677	47.8773	16275	0.031847	0.044659	1072.05	70361.9
492	2.000000	1.149297	7.36987e+06	-52489.1	1005.82	-29749.1	0.000000	0.000000	7.151933	55.3436	NaN	0.000000	0.001594	0.001743	28.0801	32.8612	0.001825	18001.8	1.257809	-176.963	53.5095	1.149033	0.036497	0.036232	55.3436	18001.8	0.034191	0.049879	1109.56	73642.8
492	2.000000	1.151796	7.36987e+06	-52489.1	1005.82	-29749.1	0.000000	0.000000	7.154807	64.4681	NaN	0.000000	0.001590	0.001763	28.0801	36.2464	0.001749	20721.3	5.295469	-2.760658	60.233	1.151351	0.038995	0.038551	64.4681	20721.3	0.036662	0.055687	1157.69	80226
492	2.000000	1.154323	7.36987e+06	-52489.1	1005.82	-29749.1	0.000000	0.000000	7.157642	71.9669	NaN	0.000000	0.001623	0.001717	28.0801	38.1619	0.001775	21493.7	3.336911	179.17	71.7605	1.154032	0.041522	0.041232	71.9669	21493.7	0.039011	0.061498	1170.24	79187.2
492	2.000000	1.156799	7.36987e+06	-52489.1	1005.82	-29749.1	0.000000	0.000000	7.160477	80.6959	NaN	0.000000	0.001609	0.001730	28.0801	40.7938	0.001809	22555.7	5.410356	-3.495987	78.1006	1.156398	0.043998	0.043598	80.6959	22555.7	0.041315	0.067472	1196	79335.6
492	2.000000	1.159281	7.36987e+06	-52489.1	1005.82	-29749.1	0.000000	0.000000	7.163725	99.3187	NaN	0.000000	0.001598	0.001728	28.0801	41.4096	0.001814	22825	3.692130	178.976	99.8768	1.158925	0.046481	0.046124	99.3187	22825	0.043217	0.072607	1367.9	77392
492	2.000000	1.161799	7.36987e+06	-52489.1	1005.82	-29749.1	0.000000	0.000000	7.166299	100.685	NaN	0.000000	0.001587	0.001712	28.0802	44.1628	0.001776	24859.6	3.984338	-2.843482	99.2428	1.161496	0.048998	0.048696	100.685	24859.6	0.045960	0.080337	1253.27	80132.5
492	2.000000	1.164220	7.36987e+06	-52489.1	1005.82	-29749.1	0.000000	0.000000	7.169172	111.666	NaN	0.000000	0.001609	0.001759	28.08	47.2331	0.001706	27684.9	3.971807	175.881	109.685	1.163981	0.051419	0.051180	111.666	27684.9	0.048394	0.087514	1275.98	85502.3
492	2.000000	1.166836	7.36987e+06	-52489.1	1005.82	-29749.1	0.000000	0.000000	7.172177	121.133	NaN	0.000000	0.001547	0.001783	28.0802	49.7251	0.001771	28081.5	7.037549	-6.440374	119.95	1.166467	0.054035	0.053666	121.133	28081.5	0.050800	0.094901	1276.41	83283.5
492	2.000000	1.169268	7.36987e+06	-52489.1	1005.82	-29749.1	0.000000	0.000000	7.175334	138.76	NaN	0.000000	0.001578	0.001721	28.0801	52.5105	0.001889	27795.5	3.323961	177.884	138.366	1.168954	0.056468	0.056153	138.76	27795.5	0.052723	0.101017	1373.64	79900.9
492	2.000000	1.171714	7.36987e+06	-52489.1	1005.82	-29749.1	0.000000	0.000000	7.178248	150.136	NaN	0.000000	0.001623	0.001729	28.0802	55.2157	0.001896	29118	3.012308	-2.665039	145.732	1.171378	0.058913	0.058578	150.136	29118	0.055046	0.108645	1381.89	80710.4
492	2.000000	1.174183	7.36987e+06	-52489.1	1005.82	-29749.1	0.000000	0.000000	7.181128	160.126	NaN	0.000000	0.001571	0.001721	28.0812	57.6468	0.001742	33097	5.832614	172.871	155.659	1.173972	0.061382	0.061171	160.126	33097	0.057754	0.117876	1358.43	88074.2
492	2.000000	1.176751	7.36987e+06	-52489.1	1005.82	-29749.1	0.000000	0.000000	7.184344	175.883	NaN	0.000000	0.001602	0.001719	28.0817	58.5682	0.001811	32332.6	1.954612	-1.107298	172.669	1.176470	0.063950	0.063670	175.883	32332.6	0.059870	0.125343	1403.21	83438
492	2.000000	1.179201	7.36987e+06	-52489.1	1005.82	-29749.1	0.000000	0.000000	7.187371	189.912	NaN	0.000000	0.001590	0.001732	28.0822	60.8582	0.001745	34869.1	4.733218	174.369	186.302	1.178987	0.066400	0.066186	189.912	34869.1	0.062316	0.134242	1414.7	86949.9
492	2.000000	1.181695	7.36987e+06	-52489.1	1005.82	-29749.1	0.000000	0.000000	7.190421	203.446	NaN	0.000000	0.001610	0.001735	28.0817	64.9171	0.001774	36602.5	6.395385	-7.558453	198.132	1.181279	0.068894	0.068478	203.446	36602.5	0.064725	0.143296	1419.76	88342.1
492	2.000000	1.184175	7.36987e+06	-52489.1	1005.82	-29749.1	0.000000	0.000000	7.193503	218.072	NaN	0.000000	0.001578	0.001703	28.0817	66.6377	0.001724	38641.8	1.143178	176.919	212.086	1.183905	0.071374	0.071104	218.072	38641.8	0.067141	0.152654	1428.54	90360
492	2.000000	1.186724	7.36987e+06	-52489.1	1005.82	-29749.1	0.000000	0.000000	7.196800	236.264	NaN	0.000000	0.001587	0.001743	28.0816	68.6572	0.001738	39494.5	4.907738	-6.340816	230.853	1.186274	0.073923	0.073473	236.264	39494.5	0.069436	0.161802	1460.2	89705.2
492	2.000000	1.189191	7.36987e+06	-52489.1	1005.82	-29749.1	0.000000	0.000000	7.199937	252.536	NaN	0.000000	0.001614	0.001687	28.0813	70.6994	0.001751	40375.4	3.927444	173.835	248.952	1.188909	0.076391	0.076108	252.536	40375.4	0.071699	0.171070	1476.22	89187.3
492	2.000000	1.191717	7.36987e+06	-52489.1	1005.82	-29749.1	0.000000	0.000000	7.203315	273.261	NaN	0.000000	0.001683	0.001684	28.0813	73.7069	0.001717	42925.9	5.875883	-8.274134	268.538	1.191271	0.078916	0.078470	273.261	42925.9	0.074142	0.181342	1506.88	92096.4
492	2.000000	1.194164	7.36987e+06	-52489.1	1005.82	-29749.1	0.000000	0.000000	7.206247	285.055	NaN	0.000000	0.001651	0.001699	28.0818	76.6754	0.001811	42339.3	4.814552	173.115	279.539	1.193860	0.081363	0.081060	285.055	42339.3	0.076314	0.190717	1494.65	88577.3
492	2.000000	1.196786	7.36987e+06	-52489.1	1005.82	-29749.1	0.000000	0.000000	7.209682	304.818	NaN	0.000000	0.001656	0.001735	28.0816	79.0743	0.001893	41775.2	4.602267	-6.254458	302.323	1.196430	0.083985	0.083629	304.818	41775.2	0.078513	0.200431	1520.82	85253
492	2.000000	1.199211	7.36987e+06	-52489.1	1005.82	-29749.1	0.000000	0.000000	7.212770	320.955	NaN	0.000000	0.001603	0.001702	28.0813	80.3401	0.001645	48839.6	2.966582	173.405	319.694	1.198867	0.086410	0.086067	320.955	48839.6	0.081481	0.213902	1500.47	96480.1
492	2.000000	1.201771	7.36987e+06	-52489.1	1005.82	-29749.1	0.000000	0.000000	7.215932	335.596	NaN	0.000000	0.001663	0.001743	28.0814	83.4636	0.001674	49848.6	5.747171	-9.135397	335.637	1.201464	0.088970	0.088663	335.596	49848.6	0.083921	0.225280	1489.69	95954.4
492	2.000000	1.204229	7.36987e+06	-52489.1	1005.82	-29749.1	0.000000	0.000000	7.218951	349.207	NaN	0.000000	0.001695	0.001726	28.0814	87.1294	0.001822	47831.8	3.221054	173.482	346.608	1.203999	0.091428	0.091198	349.207	47831.8	0.085953	0.234968	1486.19	90154
492	2.000000	1.206813	7.36987e+06	-52489.1	1005.82	-29749.1	0.000000	0.000000	7.222421	370.762	NaN	0.000000	0.001676	0.001723	28.0813	88.4938	0.001814	48779.6	3.706926	-6.410108	370.752	1.206439	0.094013	0.093638	370.762	48779.6	0.088312	0.246454	1504.38	89772.4
492	2.000000	1.209143	7.36987e+06	-52489.1	1005.82	-29749.1	0.000000	0.000000	7.225713	394.152	NaN	0.000000	0.001665	0.001722	28.0809	90.9254	0.001814	50131.3	4.368742	171.985	388.87	1.208889	0.096342	0.096089	394.152	50131.3	0.090446	0.257062	1533.3	90336.6
492	2.000000	1.211723	7.36987e+06	-52489.1	1005.82	-29749.1	0.000000	0.000000	7.229042	412.367	NaN	0.000000	0.001602	0.001679	28.0801	93.6928	0.001820	51489.2	6.911564	-10.8143	407.09	1.211314	0.098923	0.098513	412.367	51489.2	0.092916	0.269606	1529.52	90599.3
492	2.000000	1.214260	7.36987e+06	-52489.1	1005.82	-29749.1	0.000000	0.000000	7.232259	428.899	NaN	0.000000	0.001640	0.001741	28.0803	96.6955	0.001781	54306.9	8.685436	167.895	430.908	1.213859	0.101459	0.101058	428.899	54306.9	0.095536	0.283211	1514.41	93233.7
492	2.000000	1.216660	7.36987e+06	-52489.1	1005.82	-29749.1	0.000000	0.000000	7.235483	448.918	NaN	0.000000	0.001606	0.001739	28.0801	96.9589	0.001830	52980.3	3.576693	-6.892202	442.225	1.216266	0.103860	0.103465	448.918	52980.3	0.097505	0.293644	1528.78	89325.7
492	2.000000	1.219250	7.36987e+06	-52489.1	1005.82	-29749.1	0.000000	0.000000	7.238690	463.932	NaN	0.000000	0.001619	0.001695	28.0802	100.507	0.001880	53469.3	7.828963	168.735	466.939	1.218865	0.106449	0.106064	463.932	53469.3	0.099942	0.306803	1512.15	88195.8
492	2.000000	1.221657	7.36987e+06	-52489.1	1005.82	-29749.1	0.000000	0.000000	7.241914	483.79	NaN	0.000000	0.001593	0.001700	28.08	102.605	0.001844	55635	9.922532	-14.3244	476.767	1.221329	0.108857	0.108528	483.79	55635	0.102335	0.319984	1511.92	89858
492	2.000000	1.223166	7.36987e+06	-52489.1	1005.82	-29749.1	0.000000	0.000000	7.244077	499.702	NaN	0.000000	0.001628	0.001682	28.0802	102.604	0.001820	56370.4	8.082703	167.388	495.188	1.222853	0.110366	0.110053	499.702	56370.4	0.103717	0.327717	1524.8	89965.4