File: remote_trans/data/nanoindenter/0828-1/data/Data_2025-08-06,11h17m57s/2025-07-22_16-23-58_1_448.txt
2025-07-22, 16:23:58, 1
Index	Phase	Displacement	Time	Pos X	Pos Y	Pos Z	Rot A	Rot B	Piezo Z	Force A	Force B	Gripper	Voltage A	Voltage B	Temperature	Amplitude force	Amplitude pos	Stiffness	Phase shift	Phase excitation	Force A raw	Displacement raw	HMax	HMax raw	Real Force	Real Stiffness	Contact Depth	Area	Hardness	Reduced Mod.
[#]	[#]	[um]	[s]	[um]	[um]	[um]	[m°]	[m°]	[um]	[uN]	[uN]	[V]	[V]	[V]	[°C]	[uN]	[um]	[N/m]	[°]	[°]	[uN]	[um]	[um]	[um]	[uN]	[N/m]	[um]	[um^2]	[MPa]	[MPa]
448	1.000000	0.002600	7.36944e+06	-54689.1	1005.82	-29743.1	0.000000	0.000000	6.002790	-0.056050	NaN	0.000000	0.001608	0.001703	28.0804	0.224271	0.000952	235.639	-120.146	-162.732	-0.008352	0.001351	-1.137849	-1.139098	-0.056050	235.639	-1.137670	-1.605073E+15	3.492025E-17	NaN
448	1.000000	0.012680	7.36944e+06	-54689.1	1005.82	-29743.1	0.000000	0.000000	6.012872	-0.016087	NaN	0.000000	0.001599	0.001693	28.0802	0.053357	0.001269	42.0484	84.1988	15.5912	0.013529	0.011229	-1.127768	-1.129220	-0.016087	42.0484	-1.127481	-1.171762E+15	1.372874E-17	NaN
448	1.000000	0.022563	7.36944e+06	-54689.1	1005.82	-29743.1	0.000000	0.000000	6.022755	0.002098	NaN	0.000000	0.001606	0.001707	28.0801	0.093081	0.001700	54.7438	139.685	-165.952	0.003435	0.021246	-1.117886	-1.119203	0.002098	54.7438	-1.117914	-8.719419E+14	-2.405919E-18	NaN
448	1.000000	0.032544	7.36944e+06	-54689.1	1005.82	-29743.1	0.000000	0.000000	6.032737	0.033389	NaN	0.000000	0.001637	0.001646	28.0804	0.049535	0.002018	24.5442	104.093	11.8236	0.056582	0.031167	-1.107905	-1.109282	0.033389	24.5442	-1.108925	-6.604838E+14	-5.055305E-17	NaN
448	1.000000	0.042552	7.36944e+06	-54689.1	1005.82	-29743.1	0.000000	0.000000	6.042746	0.054802	NaN	0.000000	0.001634	0.001675	28.0802	0.058670	0.001970	29.7787	-110.599	-166.506	0.066332	0.041212	-1.097897	-1.099237	0.054802	29.7787	-1.099277	-4.901932E+14	-1.117959E-16	NaN
448	1.000000	0.052509	7.36944e+06	-54689.1	1005.82	-29743.1	0.000000	0.000000	6.052705	0.091343	NaN	0.000000	0.001614	0.001706	28.0803	0.098360	0.002135	46.0613	97.3955	13.7098	0.045140	0.051184	-1.087940	-1.089264	0.091343	46.0613	-1.089427	-3.615109E+14	-2.526691E-16	NaN
448	1.000000	0.062568	7.36944e+06	-54689.1	1005.82	-29743.1	0.000000	0.000000	6.062760	-0.002139	NaN	0.000000	0.001581	0.001742	28.0803	0.100026	0.002014	49.6697	-164.329	-166.836	0.065458	0.061240	-1.077881	-1.079209	-0.002139	49.6697	-1.077848	-2.527084E+14	8.463513E-18	NaN
448	1.000000	0.072574	7.36944e+06	-54689.1	1005.82	-29743.1	0.000000	0.000000	6.072768	0.046733	NaN	0.000000	0.001605	0.001709	28.0805	0.025403	0.002080	12.2134	74.454	14.2663	0.071267	0.071207	-1.067874	-1.069242	0.046733	12.2134	-1.070744	-2.028553E+14	-2.303752E-16	NaN
448	1.000000	0.082569	7.36944e+06	-54689.1	1005.82	-29743.1	0.000000	0.000000	6.082761	0.018683	NaN	0.000000	0.001588	0.001699	28.0804	0.100664	0.002017	49.8997	-2.921825	-163.631	-0.001440	0.081277	-1.057880	-1.059171	0.018683	49.8997	-1.058161	-1.374381E+14	-1.359394E-16	NaN
448	1.000000	0.092560	7.36944e+06	-54689.1	1005.82	-29743.1	0.000000	0.000000	6.092753	0.031320	NaN	0.000000	0.001596	0.001664	28.0796	0.100165	0.001917	52.262	174.042	11.3879	-0.016018	0.091236	-1.047889	-1.049212	0.031320	52.262	-1.048338	-1.014092E+14	-3.088466E-16	NaN
448	1.000000	0.102541	7.36944e+06	-54689.1	1005.82	-29743.1	0.000000	0.000000	6.102736	0.062831	NaN	0.000000	0.001579	0.001710	28.0794	0.023572	0.002006	11.7507	-139.771	-164.714	0.057416	0.101228	-1.037907	-1.039220	0.062831	11.7507	-1.041918	-8.312925E+13	-7.558188E-16	NaN
448	1.000000	0.112566	7.36944e+06	-54689.1	1005.82	-29743.1	0.000000	0.000000	6.112760	0.044391	NaN	0.000000	0.001582	0.001725	28.0793	0.101949	0.002021	50.4492	135.997	12.2897	0.043255	0.111219	-1.027882	-1.029229	0.044391	50.4492	-1.028542	-5.493820E+13	-8.080219E-16	NaN
448	1.000000	0.122580	7.36944e+06	-54689.1	1005.82	-29743.1	0.000000	0.000000	6.122773	0.025151	NaN	0.000000	0.001601	0.001677	28.0794	0.136467	0.001961	69.5948	-165.615	-165.124	0.025802	0.121288	-1.017869	-1.019161	0.025151	69.5948	-1.018140	-3.980369E+13	-6.318775E-16	NaN
448	1.000000	0.132576	7.36944e+06	-54689.1	1005.82	-29743.1	0.000000	0.000000	6.132771	0.074497	NaN	0.000000	0.001608	0.001688	28.0789	0.040030	0.001913	20.9218	-59.6134	12.1103	0.037696	0.131206	-1.007873	-1.009242	0.074497	20.9218	-1.010544	-3.145569E+13	-2.368303E-15	NaN
448	1.000000	0.142569	7.36944e+06	-54689.1	1005.82	-29743.1	0.000000	0.000000	6.142762	0.035736	NaN	0.000000	0.001539	0.001701	28.0793	0.069468	0.001918	36.2157	-140.601	-167.449	0.063004	0.141270	-0.997880	-0.999178	0.035736	36.2157	-0.998620	-2.173650E+13	-1.644037E-15	NaN
448	1.000000	0.152580	7.36944e+06	-54689.1	1005.82	-29743.1	0.000000	0.000000	6.152772	0.005076	NaN	0.000000	0.001590	0.001712	28.0793	0.098426	0.002093	47.0266	70.2431	12.7503	0.025583	0.151274	-0.987869	-0.989175	0.005076	47.0266	-0.987950	-1.561345E+13	-3.251352E-16	NaN
448	1.000000	0.162599	7.36944e+06	-54689.1	1005.82	-29743.1	0.000000	0.000000	6.162791	-0.019715	NaN	0.000000	0.001577	0.001701	28.0793	0.079272	0.002036	38.9437	129.872	-166.11	0.031710	0.161272	-0.977849	-0.979177	-0.019715	38.9437	-0.977470	-1.128031E+13	1.747752E-15	NaN
448	1.000000	0.172595	7.36944e+06	-54689.1	1005.82	-29743.1	0.000000	0.000000	6.172788	0.036396	NaN	0.000000	0.001573	0.001712	28.0794	0.133827	0.002057	65.0644	-93.9607	14.7702	0.043403	0.171288	-0.967854	-0.969161	0.036396	65.0644	-0.968274	-8.480006E+12	-4.291996E-15	NaN
448	1.000000	0.182600	7.36944e+06	-54689.1	1005.82	-29743.1	0.000000	0.000000	6.182794	0.048756	NaN	0.000000	0.001543	0.001708	28.0795	0.063113	0.001973	31.9808	118.752	-165.961	0.031720	0.181234	-0.957848	-0.959215	0.048756	31.9808	-0.958992	-6.357379E+12	-7.669275E-15	NaN
448	1.000000	0.192603	7.36944e+06	-54689.1	1005.82	-29743.1	0.000000	0.000000	6.192795	0.007110	NaN	0.000000	0.001564	0.001693	28.0791	0.017364	0.002080	8.347299	-73.2481	12.8818	0.080727	0.191237	-0.947846	-0.949212	0.007110	8.347299	-0.948485	-4.587674E+12	-1.549858E-15	NaN
448	1.000000	0.202596	7.36944e+06	-54689.1	1005.82	-29743.1	0.000000	0.000000	6.202786	-0.054679	NaN	0.000000	0.001560	0.001711	28.0794	0.083923	0.001885	44.5204	102.964	-162.124	-0.049968	0.201326	-0.937853	-0.939123	-0.054679	44.5204	-0.936932	-3.204360E+12	1.706388E-14	NaN
448	1.000000	0.212594	7.36944e+06	-54689.1	1005.82	-29743.1	0.000000	0.000000	6.212785	-0.023608	NaN	0.000000	0.001571	0.001710	28.0793	0.061249	0.001832	33.4407	98.4644	14.8338	-0.005047	0.211291	-0.927855	-0.929158	-0.023608	33.4407	-0.927325	-2.377358E+12	9.930508E-15	NaN
448	1.000000	0.222645	7.36944e+06	-54689.1	1005.82	-29743.1	0.000000	0.000000	6.222838	0.032054	NaN	0.000000	0.001565	0.001699	28.0796	0.050269	0.001835	27.3926	5.734362	-168.667	0.073394	0.221366	-0.917804	-0.919083	0.032054	27.3926	-0.918682	-1.817224E+12	-1.763891E-14	NaN
448	1.000000	0.232617	7.36944e+06	-54689.1	1005.82	-29743.1	0.000000	0.000000	6.232810	0.010578	NaN	0.000000	0.001552	0.001696	28.0805	0.085049	0.002010	42.3122	-105.954	15.916	0.026823	0.231262	-0.907832	-0.909187	0.010578	42.3122	-0.908019	-1.304382E+12	-8.109475E-15	NaN
448	1.000000	0.242619	7.36944e+06	-54689.1	1005.82	-29743.1	0.000000	0.000000	6.242812	0.038583	NaN	0.000000	0.001547	0.001701	28.0809	0.017540	0.001998	8.778160	7.086849	-164.988	0.005481	0.241325	-0.897830	-0.899124	0.038583	8.778160	-0.901127	-1.052660E+12	-3.665277E-14	NaN
448	1.000000	0.252632	7.36944e+06	-54689.1	1005.82	-29743.1	0.000000	0.000000	6.252825	0.019168	NaN	0.000000	0.001606	0.001698	28.0809	0.114707	0.001993	57.5434	80.8637	10.52	-0.020073	0.251317	-0.887817	-0.889132	0.019168	57.5434	-0.888067	-7.011034E+11	-2.733909E-14	NaN
448	1.000000	0.262660	7.36944e+06	-54689.1	1005.82	-29743.1	0.000000	0.000000	6.262854	0.050137	NaN	0.000000	0.001558	0.001711	28.0807	0.043788	0.001929	22.6944	1.282570	-166.871	0.097754	0.261315	-0.877789	-0.879134	0.050137	22.6944	-0.879446	-5.360675E+11	-9.352760E-14	NaN
448	1.000000	0.272639	7.36944e+06	-54689.1	1005.82	-29743.1	0.000000	0.000000	6.272831	-0.011459	NaN	0.000000	0.001585	0.001704	28.0804	0.095766	0.001946	49.2112	21.1331	14.7711	0.004749	0.271315	-0.867810	-0.869134	-0.011459	49.2112	-0.867635	-3.710614E+11	3.088190E-14	NaN
448	1.000000	0.282644	7.36944e+06	-54689.1	1005.82	-29743.1	0.000000	0.000000	6.282839	0.074355	NaN	0.000000	0.001579	0.001708	28.0806	0.057347	0.001953	29.3692	51.4852	-166.428	0.087115	0.281291	-0.857805	-0.859157	0.074355	29.3692	-0.859704	-2.898083E+11	-2.565676E-13	NaN
448	1.000000	0.292659	7.36944e+06	-54689.1	1005.82	-29743.1	0.000000	0.000000	6.292854	0.061275	NaN	0.000000	0.001567	0.001712	28.0807	0.163989	0.002030	80.8004	-165.449	11.5536	0.065109	0.291270	-0.847790	-0.849179	0.061275	80.8004	-0.848358	-2.034726E+11	-3.011481E-13	NaN
448	1.000000	0.302678	7.36944e+06	-54689.1	1005.82	-29743.1	0.000000	0.000000	6.302874	0.099778	NaN	0.000000	0.001587	0.001747	28.0806	0.095156	0.002040	46.6423	-90.3851	-166.415	-0.017693	0.301346	-0.837771	-0.839103	0.099778	46.6423	-0.839375	-1.537555E+11	-6.489415E-13	NaN
448	1.000000	0.312681	7.36944e+06	-54689.1	1005.82	-29743.1	0.000000	0.000000	6.312874	0.028133	NaN	0.000000	0.001548	0.001750	28.0806	0.053759	0.002097	25.6379	-13.8535	15.3454	0.006153	0.311343	-0.827768	-0.829105	0.028133	25.6379	-0.828591	-1.098197E+11	-2.561715E-13	NaN
448	1.000000	0.322636	7.36944e+06	-54689.1	1005.82	-29743.1	0.000000	0.000000	6.322831	0.074775	NaN	0.000000	0.001624	0.001747	28.0805	0.041416	0.001875	22.0911	43.5592	-164.41	0.043943	0.321341	-0.817813	-0.819108	0.074775	22.0911	-0.820352	-8.491448E+10	-8.805962E-13	NaN
448	1.000000	0.332691	7.36944e+06	-54689.1	1005.82	-29743.1	0.000000	0.000000	6.332884	0.012346	NaN	0.000000	0.001672	0.001719	28.0808	0.027438	0.001993	13.765	93.6208	13.5512	0.040735	0.331276	-0.807758	-0.809173	0.012346	13.765	-0.808430	-5.851585E+10	-2.109839E-13	NaN
448	1.000000	0.342690	7.36944e+06	-54689.1	1005.82	-29743.1	0.000000	0.000000	6.342883	0.041673	NaN	0.000000	0.001607	0.001715	28.0807	0.028270	0.002055	13.7549	64.4146	-164.496	0.052988	0.341345	-0.797759	-0.799104	0.041673	13.7549	-0.800032	-4.500819E+10	-9.259076E-13	NaN
448	1.000000	0.352690	7.36944e+06	-54689.1	1005.82	-29743.1	0.000000	0.000000	6.352884	0.041160	NaN	0.000000	0.001570	0.001734	28.0805	0.022722	0.002016	11.2693	-163.541	14.523	-0.005535	0.351329	-0.787759	-0.789120	0.041160	11.2693	-0.790498	-3.340758E+10	-1.232056E-12	NaN
448	1.000000	0.362646	7.36944e+06	-54689.1	1005.82	-29743.1	0.000000	0.000000	6.362838	0.005454	NaN	0.000000	0.001597	0.001660	28.0807	0.050563	0.002003	25.2416	-23.6533	-164.125	0.004124	0.361431	-0.777803	-0.779018	0.005454	25.2416	-0.777965	-2.257226E+10	-2.416264E-13	NaN
448	1.000000	0.372668	7.36944e+06	-54689.1	1005.82	-29743.1	0.000000	0.000000	6.372860	0.001686	NaN	0.000000	0.001594	0.001716	28.0793	0.043233	0.001981	21.8228	112.26	16.1495	0.029170	0.371392	-0.767781	-0.769057	0.001686	21.8228	-0.767839	-1.644080E+10	-1.025682E-13	NaN
448	1.000000	0.382712	7.36944e+06	-54689.1	1005.82	-29743.1	0.000000	0.000000	6.382903	-0.002092	NaN	0.000000	0.001583	0.001733	28.0792	0.072307	0.002002	36.1091	164.151	-163.491	-0.085668	0.381400	-0.757737	-0.759049	-0.002092	36.1091	-0.757694	-1.196538E+10	1.748670E-13	NaN
448	1.000000	0.392684	7.36944e+06	-54689.1	1005.82	-29743.1	0.000000	0.000000	6.392880	0.082430	NaN	0.000000	0.001576	0.001711	28.0792	0.217618	0.001959	111.082	154.715	13.2366	0.040697	0.391337	-0.747765	-0.749112	0.082430	111.082	-0.748321	-8.920042E+9	-9.241031E-12	NaN
448	1.000000	0.402720	7.36944e+06	-54689.1	1005.82	-29743.1	0.000000	0.000000	6.402915	0.082795	NaN	0.000000	0.001562	0.001686	28.0794	0.056641	0.001992	28.4337	-46.9527	-165.179	0.073164	0.401418	-0.737729	-0.739030	0.082795	28.4337	-0.739913	-6.852859E+9	-1.208182E-11	NaN
448	1.000000	0.412706	7.36944e+06	-54689.1	1005.82	-29743.1	0.000000	0.000000	6.412899	0.016795	NaN	0.000000	0.001556	0.001706	28.079	0.116937	0.001922	60.8426	-58.9606	17.0264	-0.063801	0.411339	-0.727742	-0.729110	0.016795	60.8426	-0.727950	-4.708257E+9	-3.567185E-12	NaN
448	1.000000	0.422704	7.36944e+06	-54689.1	1005.82	-29743.1	0.000000	0.000000	6.422898	0.056540	NaN	0.000000	0.001563	0.001700	28.0792	0.078832	0.001921	41.0411	83.1285	-166.025	-0.032056	0.421391	-0.717745	-0.719058	0.056540	41.0411	-0.718778	-3.530282E+9	-1.601579E-11	NaN
448	1.000000	0.432725	7.36944e+06	-54689.1	1005.82	-29743.1	0.000000	0.000000	6.432918	0.026319	NaN	0.000000	0.001577	0.001685	28.0793	0.086655	0.002038	42.5219	-157.62	15.3826	-0.000772	0.431320	-0.707724	-0.709129	0.026319	42.5219	-0.708188	-2.531191E+9	-1.039784E-11	NaN
448	1.000000	0.442704	7.36944e+06	-54689.1	1005.82	-29743.1	0.000000	0.000000	6.442897	0.039719	NaN	0.000000	0.001589	0.001698	28.0792	0.121504	0.002049	59.2893	-33.0764	-164.966	0.127476	0.441383	-0.697745	-0.699066	0.039719	59.2893	-0.698248	-1.851816E+9	-2.144860E-11	NaN
448	1.000000	0.452701	7.36944e+06	-54689.1	1005.82	-29743.1	0.000000	0.000000	6.452895	0.037842	NaN	0.000000	0.001617	0.001713	28.0791	0.053127	0.001945	27.3187	-108.495	13.7101	0.038993	0.451403	-0.687748	-0.689046	0.037842	27.3187	-0.688787	-1.375098E+9	-2.751961E-11	NaN
448	1.000000	0.462736	7.36944e+06	-54689.1	1005.82	-29743.1	0.000000	0.000000	6.462927	-0.014988	NaN	0.000000	0.001592	0.001687	28.0791	0.159117	0.002036	78.1559	49.1673	-163.41	-0.022257	0.461397	-0.677713	-0.679051	-0.014988	78.1559	-0.677569	-9.659561E+8	1.551602E-11	NaN
448	1.000000	0.472730	7.36944e+06	-54689.1	1005.82	-29743.1	0.000000	0.000000	6.472920	-0.061703	NaN	0.000000	0.001626	0.001710	28.0794	0.124911	0.002031	61.4915	60.0316	13.7331	-0.017106	0.471405	-0.667719	-0.669044	-0.061703	61.4915	-0.666966	-6.916066E+8	8.921747E-11	NaN
448	1.000000	0.482746	7.36944e+06	-54689.1	1005.82	-29743.1	0.000000	0.000000	6.482938	0.016943	NaN	0.000000	0.001588	0.001661	28.079	0.061985	0.002065	30.0102	105.272	-161.473	-0.036823	0.481449	-0.657703	-0.659000	0.016943	30.0102	-0.658127	-5.233661E+8	-3.237243E-11	NaN
448	1.000000	0.492735	7.36944e+06	-54689.1	1005.82	-29743.1	0.000000	0.000000	6.492930	0.074514	NaN	0.000000	0.001590	0.001695	28.0796	0.064192	0.001987	32.3018	16.3224	13.0647	-0.020568	0.491340	-0.647714	-0.649108	0.074514	32.3018	-0.649444	-3.979381E+8	-1.872492E-10	NaN
448	1.000000	0.502761	7.36944e+06	-54689.1	1005.82	-29743.1	0.000000	0.000000	6.502952	-0.022338	NaN	0.000000	0.001585	0.001697	28.0802	0.096673	0.001862	51.9281	-112.266	-171.345	0.048119	0.501475	-0.637687	-0.638974	-0.022338	51.9281	-0.637365	-2.717248E+8	8.220921E-11	NaN
448	1.000000	0.512749	7.36944e+06	-54689.1	1005.82	-29743.1	0.000000	0.000000	6.512942	0.011043	NaN	0.000000	0.001574	0.001686	28.0808	0.065812	0.001885	34.9077	23.2566	12.8406	0.068988	0.511358	-0.627699	-0.629091	0.011043	34.9077	-0.627937	-2.016904E+8	-5.475080E-11	NaN
448	1.000000	0.522777	7.36944e+06	-54689.1	1005.82	-29743.1	0.000000	0.000000	6.522968	-0.010365	NaN	0.000000	0.001617	0.001723	28.0804	0.148030	0.002057	71.9807	9.296951	-160.635	-0.091163	0.521517	-0.617672	-0.618932	-0.010365	71.9807	-0.617564	-1.452612E+8	7.135286E-11	NaN
448	1.000000	0.532767	7.36944e+06	-54689.1	1005.82	-29743.1	0.000000	0.000000	6.532964	0.115209	NaN	0.000000	0.001623	0.001695	28.0805	0.071376	0.001984	35.967	82.6344	12.1736	0.129294	0.531349	-0.607682	-0.609100	0.115209	35.967	-0.610084	-1.146240E+8	-1.005102E-9	NaN
448	1.000000	0.542770	7.36944e+06	-54689.1	1005.82	-29743.1	0.000000	0.000000	6.542964	0.053185	NaN	0.000000	0.001613	0.001685	28.0805	0.086031	0.001967	43.7478	-49.3203	-165.16	0.067618	0.541434	-0.597679	-0.599015	0.053185	43.7478	-0.598591	-7.962490E+7	-6.679466E-10	NaN
448	1.000000	0.552787	7.36944e+06	-54689.1	1005.82	-29743.1	0.000000	0.000000	6.552976	-0.052968	NaN	0.000000	0.001627	0.001691	28.0802	0.067977	0.002015	33.7342	-116.747	12.8865	-0.030172	0.551393	-0.587662	-0.589056	-0.052968	33.7342	-0.586485	-5.422424E+7	9.768269E-10	NaN
448	1.000000	0.562748	7.36944e+06	-54689.1	1005.82	-29743.1	0.000000	0.000000	6.562942	0.048971	NaN	0.000000	0.001604	0.001691	28.0804	0.085307	0.002021	42.209	-144.689	-163.727	0.078240	0.561421	-0.577701	-0.579027	0.048971	42.209	-0.578571	-4.216982E+7	-1.161285E-9	NaN
448	1.000000	0.572784	7.36944e+06	-54689.1	1005.82	-29743.1	0.000000	0.000000	6.572977	0.026471	NaN	0.000000	0.001622	0.001675	28.0801	0.012298	0.002044	6.017274	131.612	15.3868	0.050122	0.571474	-0.567665	-0.568975	0.026471	6.017274	-0.570964	-3.310989E+7	-7.994884E-10	NaN
448	1.000000	0.582790	7.36944e+06	-54689.1	1005.82	-29743.1	0.000000	0.000000	6.582982	0.000629	NaN	0.000000	0.001588	0.001696	28.0805	0.103147	0.001961	52.6062	-133.994	-165.484	0.032942	0.581432	-0.557658	-0.559017	0.000629	52.6062	-0.557667	-2.168232E+7	-2.902899E-11	NaN
448	1.000000	0.592778	7.36944e+06	-54689.1	1005.82	-29743.1	0.000000	0.000000	6.592972	0.033092	NaN	0.000000	0.001583	0.001722	28.0806	0.108317	0.002007	53.9757	-22.3071	12.1406	0.082288	0.591444	-0.547671	-0.549004	0.033092	53.9757	-0.548130	-1.599770E+7	-2.068562E-9	NaN
448	1.000000	0.602784	7.36944e+06	-54689.1	1005.82	-29743.1	0.000000	0.000000	6.602978	0.070775	NaN	0.000000	0.001592	0.001706	28.0803	0.019929	0.001968	10.1269	-66.8724	-165.664	0.083346	0.601440	-0.537665	-0.539009	0.070775	10.1269	-0.542907	-1.354148E+7	-5.226551E-9	NaN
448	1.000000	0.612796	7.36944e+06	-54689.1	1005.82	-29743.1	0.000000	0.000000	6.612990	0.039852	NaN	0.000000	0.001585	0.001687	28.0802	0.110667	0.001920	57.6436	-67.1515	14.2984	0.059060	0.611481	-0.527653	-0.528968	0.039852	57.6436	-0.528171	-8.45622e+06	-4.712765E-9	NaN
448	1.000000	0.622802	7.36944e+06	-54689.1	1005.82	-29743.1	0.000000	0.000000	6.622993	-0.024130	NaN	0.000000	0.001602	0.001738	28.0805	0.067454	0.002114	31.9046	33.9882	-165.412	-0.054313	0.621509	-0.517646	-0.518940	-0.024130	31.9046	-0.517079	-5.9288e+06	4.070042E-9	NaN
448	1.000000	0.632781	7.36944e+06	-54689.1	1005.82	-29743.1	0.000000	0.000000	6.632971	-0.052386	NaN	0.000000	0.001534	0.001710	28.0802	0.036551	0.001887	19.3744	-107.083	13.4654	-0.107260	0.631461	-0.507668	-0.508988	-0.052386	19.3744	-0.505640	-4.10829e+06	1.275121E-8	NaN
448	1.000000	0.642799	7.36944e+06	-54689.1	1005.82	-29743.1	0.000000	0.000000	6.642993	0.052040	NaN	0.000000	0.001546	0.001730	28.0789	0.015967	0.002003	7.972127	-124.542	-166.264	-0.028897	0.641516	-0.497650	-0.498933	0.052040	7.972127	-0.502546	-3.71985e+06	-1.398973E-8	NaN
448	1.000000	0.652800	7.36944e+06	-54689.1	1005.82	-29743.1	0.000000	0.000000	6.652992	-0.001230	NaN	0.000000	0.001568	0.001721	28.0791	0.100516	0.002021	49.7387	-101.858	11.8144	-0.043741	0.651429	-0.487649	-0.489020	-0.001230	49.7387	-0.487630	-2.30288e+06	5.340432E-10	NaN
448	1.000000	0.662807	7.36944e+06	-54689.1	1005.82	-29743.1	0.000000	0.000000	6.663000	0.021319	NaN	0.000000	0.001511	0.001713	28.079	0.022610	0.002042	11.0706	134.52	-167.683	-0.034589	0.661510	-0.477642	-0.478939	0.021319	11.0706	-0.479086	-1.74878e+06	-1.219103E-8	NaN
448	1.000000	0.672824	7.36944e+06	-54689.1	1005.82	-29743.1	0.000000	0.000000	6.673016	-0.000782	NaN	0.000000	0.001565	0.001752	28.079	0.090265	0.002041	44.2247	-11.0032	12.8418	-0.032096	0.671446	-0.467625	-0.469003	-0.000782	44.2247	-0.467612	-1.20755e+06	6.476761E-10	NaN
448	1.000000	0.682811	7.36944e+06	-54689.1	1005.82	-29743.1	0.000000	0.000000	6.683002	-0.028616	NaN	0.000000	0.001532	0.001740	28.079	0.064064	0.002055	31.1677	51.2165	-162.878	-0.083954	0.681494	-0.457638	-0.458955	-0.028616	31.1677	-0.456949	-855323	3.345603E-8	NaN
448	1.000000	0.692832	7.36944e+06	-54689.1	1005.82	-29743.1	0.000000	0.000000	6.693024	0.004285	NaN	0.000000	0.001528	0.001736	28.079	0.118809	0.001987	59.7856	-40.0911	13.8209	0.069170	0.691460	-0.447617	-0.448989	0.004285	59.7856	-0.447671	-633191	-6.767848E-9	NaN
448	1.000000	0.702838	7.36944e+06	-54689.1	1005.82	-29743.1	0.000000	0.000000	6.703031	0.016573	NaN	0.000000	0.001532	0.001742	28.0789	0.074918	0.001912	39.1744	-142.691	-165.453	0.014760	0.701498	-0.437610	-0.438951	0.016573	39.1744	-0.437928	-461433	-3.591680E-8	NaN
448	1.000000	0.712832	7.36944e+06	-54689.1	1005.82	-29743.1	0.000000	0.000000	6.713023	-0.024623	NaN	0.000000	0.001550	0.001738	28.079	0.040198	0.002036	19.7393	-17.2012	15.4139	0.006144	0.711448	-0.427617	-0.429001	-0.024623	19.7393	-0.426682	-319962	7.695660E-8	NaN
448	1.000000	0.722823	7.36944e+06	-54689.1	1005.82	-29743.1	0.000000	0.000000	6.723014	-0.023322	NaN	0.000000	0.001552	0.001734	28.0794	0.104442	0.002050	50.9445	-15.4973	-164.46	-0.003332	0.721547	-0.417626	-0.418901	-0.023322	50.9445	-0.417282	-235427	9.906054E-8	NaN
448	1.000000	0.732828	7.36944e+06	-54689.1	1005.82	-29743.1	0.000000	0.000000	6.733019	-0.023480	NaN	0.000000	0.001553	0.001755	28.0791	0.044057	0.001914	23.0168	-160.144	16.7018	-0.010550	0.731481	-0.407621	-0.408968	-0.023480	23.0168	-0.406856	-167367	1.402914E-7	NaN
448	1.000000	0.742820	7.36944e+06	-54689.1	1005.82	-29743.1	0.000000	0.000000	6.743014	0.033836	NaN	0.000000	0.001561	0.001750	28.0794	0.047419	0.002071	22.8928	-2.715487	-163.31	0.028137	0.741585	-0.397629	-0.398864	0.033836	22.8928	-0.398737	-128227	-2.638761E-7	NaN
448	1.000000	0.752853	7.36944e+06	-54689.1	1005.82	-29743.1	0.000000	0.000000	6.753047	0.036361	NaN	0.000000	0.001607	0.001737	28.0791	0.088497	0.001994	44.3856	88.2204	14.5362	0.026564	0.751466	-0.387596	-0.388983	0.036361	44.3856	-0.388210	-90689.3	-4.009368E-7	NaN
448	1.000000	0.762850	7.36944e+06	-54689.1	1005.82	-29743.1	0.000000	0.000000	6.763043	0.025304	NaN	0.000000	0.001560	0.001747	28.0795	0.011280	0.001870	6.030547	71.7781	-166.743	-0.060879	0.761540	-0.377599	-0.378909	0.025304	6.030547	-0.380746	-70892	-3.569357E-7	NaN
448	1.000000	0.772882	7.36944e+06	-54689.1	1005.82	-29743.1	0.000000	0.000000	6.773074	0.009408	NaN	0.000000	0.001571	0.001772	28.0791	0.036411	0.001881	19.3616	10.8662	12.0696	0.046556	0.771453	-0.367567	-0.368996	0.009408	19.3616	-0.367932	-46379.6	-2.028453E-7	NaN
448	1.000000	0.782874	7.36944e+06	-54689.1	1005.82	-29743.1	0.000000	0.000000	6.783068	0.027451	NaN	0.000000	0.001613	0.001730	28.0805	0.096045	0.001897	50.6322	133.996	-164.453	-0.057339	0.781567	-0.357574	-0.358882	0.027451	50.6322	-0.357981	-33315.7	-8.239776E-7	NaN
448	1.000000	0.792851	7.36944e+06	-54689.1	1005.82	-29743.1	0.000000	0.000000	6.793044	0.024778	NaN	0.000000	0.001596	0.001716	28.0804	0.049458	0.002110	23.4401	-153.742	12.0774	0.063746	0.791482	-0.347598	-0.348967	0.024778	23.4401	-0.348391	-24190	-1.024316E-6	NaN
448	1.000000	0.802898	7.36944e+06	-54689.1	1005.82	-29743.1	0.000000	0.000000	6.803092	0.065285	NaN	0.000000	0.001590	0.001719	28.0806	0.050742	0.001905	26.6395	-125.887	-167.5	0.009839	0.801605	-0.337551	-0.338843	0.065285	26.6395	-0.339389	-17891.6	-3.648950E-6	NaN
448	1.000000	0.812853	7.36944e+06	-54689.1	1005.82	-29743.1	0.000000	0.000000	6.813046	0.021999	NaN	0.000000	0.001589	0.001745	28.0802	0.081224	0.002039	39.8368	-162.422	16.5444	0.027641	0.811539	-0.327596	-0.328910	0.021999	39.8368	-0.328010	-12198.2	-1.803484E-6	NaN
448	1.000000	0.822877	7.36944e+06	-54689.1	1005.82	-29743.1	0.000000	0.000000	6.823067	-0.050177	NaN	0.000000	0.001603	0.001754	28.0804	0.035658	0.002022	17.6352	18.876	-165.214	-0.009178	0.821618	-0.317572	-0.318831	-0.050177	17.6352	-0.315438	-7969.01	6.296540E-6	NaN
448	1.000000	0.832879	7.36944e+06	-54689.1	1005.82	-29743.1	0.000000	0.000000	6.833072	0.023558	NaN	0.000000	0.001607	0.001742	28.0806	0.053649	0.001903	28.198	-2.499412	12.4781	-0.036280	0.831545	-0.307570	-0.308904	0.023558	28.198	-0.308196	-6228.02	-3.782643E-6	NaN
448	1.000000	0.842880	7.36944e+06	-54689.1	1005.82	-29743.1	0.000000	0.000000	6.843071	-0.030689	NaN	0.000000	0.001685	0.001714	28.0803	0.021515	0.001934	11.1245	99.0554	-165.783	-0.028291	0.841560	-0.297569	-0.298889	-0.030689	11.1245	-0.295500	-4032.26	7.610762E-6	NaN
448	1.000000	0.852889	7.36944e+06	-54689.1	1005.82	-29743.1	0.000000	0.000000	6.853084	0.069201	NaN	0.000000	0.001660	0.001753	28.0803	0.087470	0.002168	40.3475	49.4932	14.7204	0.100825	0.851518	-0.287559	-0.288931	0.069201	40.3475	-0.288846	-3206.29	-2.158280E-5	NaN
448	1.000000	0.862892	7.36944e+06	-54689.1	1005.82	-29743.1	0.000000	0.000000	6.863087	0.072517	NaN	0.000000	0.001657	0.001758	28.0803	0.034282	0.002101	16.3189	35.7629	-167.176	0.052534	0.861561	-0.277557	-0.278888	0.072517	16.3189	-0.280890	-2434.39	-2.978842E-5	NaN
448	1.000000	0.872890	7.36944e+06	-54689.1	1005.82	-29743.1	0.000000	0.000000	6.873081	-0.014561	NaN	0.000000	0.001641	0.001733	28.0807	0.030753	0.001883	16.3321	65.3551	15.002	-0.027609	0.871550	-0.267559	-0.268899	-0.014561	16.3321	-0.266890	-1493.53	9.749160E-6	NaN
448	1.000000	0.882886	7.36944e+06	-54689.1	1005.82	-29743.1	0.000000	0.000000	6.883081	0.074530	NaN	0.000000	0.001659	0.001753	28.0804	0.053120	0.002012	26.3962	8.196425	-166.674	0.073151	0.881533	-0.257563	-0.258916	0.074530	26.3962	-0.259680	-1158.82	-6.431506E-5	NaN
448	1.000000	0.892907	7.36944e+06	-54689.1	1005.82	-29743.1	0.000000	0.000000	6.893100	0.024586	NaN	0.000000	0.001689	0.001768	28.0805	0.165481	0.002083	79.4526	-142.254	14.1174	0.005770	0.891543	-0.247542	-0.248906	0.024586	79.4526	-0.247774	-759.462	-3.237245E-5	NaN
448	1.000000	0.902905	7.36944e+06	-54689.1	1005.82	-29743.1	0.000000	0.000000	6.903097	0.012887	NaN	0.000000	0.001682	0.001734	28.0805	0.026368	0.002100	12.5572	122.607	-166.953	-0.021018	0.901578	-0.237544	-0.238871	0.012887	12.5572	-0.238314	-540.991	-2.382148E-5	NaN
448	1.000000	0.912900	7.36944e+06	-54689.1	1005.82	-29743.1	0.000000	0.000000	6.913092	-0.008185	NaN	0.000000	0.001651	0.001712	28.0795	0.085800	0.001954	43.9158	-105.743	12.0434	0.091944	0.911545	-0.227549	-0.228904	-0.008185	43.9158	-0.227409	-364.37	2.246236E-5	NaN
448	1.000000	0.922922	7.36944e+06	-54689.1	1005.82	-29743.1	0.000000	0.000000	6.923115	0.019866	NaN	0.000000	0.001642	0.001756	28.0793	0.013444	0.002064	6.513101	38.5829	-164.375	-0.010603	0.921599	-0.217527	-0.218850	0.019866	6.513101	-0.219815	-275.876	-7.201164E-5	NaN
448	1.000000	0.932926	7.36944e+06	-54689.1	1005.82	-29743.1	0.000000	0.000000	6.933116	-0.056757	NaN	0.000000	0.001658	0.001736	28.0794	0.047406	0.001934	24.5153	-138.779	15.4436	-0.043751	0.931608	-0.207523	-0.208841	-0.056757	24.5153	-0.205786	-163.823	0.000346	NaN
448	1.000000	0.942935	7.36944e+06	-54689.1	1005.82	-29743.1	0.000000	0.000000	6.943128	0.013789	NaN	0.000000	0.001669	0.001730	28.0794	0.088116	0.001965	44.8436	-138.747	-164.746	0.050214	0.941644	-0.197513	-0.198805	0.013789	44.8436	-0.197744	-120.937	-0.000114	NaN
448	1.000000	0.952893	7.36944e+06	-54689.1	1005.82	-29743.1	0.000000	0.000000	6.953087	0.041423	NaN	0.000000	0.001637	0.001706	28.0791	0.070510	0.001882	37.4642	62.4366	15.9035	0.021967	0.951596	-0.187556	-0.188853	0.041423	37.4642	-0.188385	-84.5295	-0.000490	NaN
448	1.000000	0.962940	7.36944e+06	-54689.1	1005.82	-29743.1	0.000000	0.000000	6.963133	0.021529	NaN	0.000000	0.001676	0.001719	28.0792	0.095566	0.002138	44.6956	78.5689	-162.237	0.014842	0.961611	-0.177509	-0.178838	0.021529	44.6956	-0.177870	-56.1249	-0.000384	NaN
448	1.000000	0.972929	7.36944e+06	-54689.1	1005.82	-29743.1	0.000000	0.000000	6.973121	0.006336	NaN	0.000000	0.001650	0.001696	28.0794	0.068022	0.001931	35.2261	-111.253	15.3269	-0.034950	0.971605	-0.167520	-0.168844	0.006336	35.2261	-0.167655	-37.393	-0.000169	NaN
448	1.000000	0.982960	7.36944e+06	-54689.1	1005.82	-29743.1	0.000000	0.000000	6.983152	0.014871	NaN	0.000000	0.001665	0.001663	28.0793	0.043567	0.001945	22.4012	93.6215	-165.426	-0.008330	0.981615	-0.157489	-0.158834	0.014871	22.4012	-0.157987	-25.2422	-0.000589	NaN
448	1.000000	0.992961	7.36944e+06	-54689.1	1005.82	-29743.1	0.000000	0.000000	6.993156	0.069843	NaN	0.000000	0.001648	0.001739	28.0794	0.072609	0.001990	36.4817	157.943	16.4142	0.069234	0.991590	-0.147488	-0.148859	0.069843	36.4817	-0.148924	-17.3121	-0.004034	NaN
448	1.000000	1.002943	7.36944e+06	-54689.1	1005.82	-29743.1	0.000000	0.000000	7.003137	0.066898	NaN	0.000000	0.001661	0.001723	28.0792	0.016557	0.001985	8.339717	-37.1352	-164.426	-0.047474	1.001622	-0.137506	-0.138827	0.066898	8.339717	-0.143522	-13.7648	-0.004860	NaN
448	1.000000	1.012970	7.36944e+06	-54689.1	1005.82	-29743.1	0.000000	0.000000	7.013161	-0.028122	NaN	0.000000	0.001625	0.001749	28.0796	0.077876	0.001929	40.3739	-138.315	20.9664	0.003146	1.011639	-0.127479	-0.128809	-0.028122	40.3739	-0.126956	-6.645966	0.004231	NaN
448	1.000000	1.022957	7.36944e+06	-54689.1	1005.82	-29743.1	0.000000	0.000000	7.023151	0.050062	NaN	0.000000	0.001597	0.001743	28.0792	0.069095	0.001916	36.0595	-99.0592	-165.557	0.072120	1.021614	-0.117492	-0.118835	0.050062	36.0595	-0.118533	-4.512110	-0.011095	NaN
448	1.000000	1.032974	7.36944e+06	-54689.1	1005.82	-29743.1	0.000000	0.000000	7.033167	0.031894	NaN	0.000000	0.001595	0.001735	28.0794	0.058941	0.002125	27.7372	16.0407	14.079	0.035623	1.031625	-0.107475	-0.108824	0.031894	27.7372	-0.108337	-2.771246	-0.011509	NaN
448	1.000000	1.042953	7.36944e+06	-54689.1	1005.82	-29743.1	0.000000	0.000000	7.043142	-0.066050	NaN	0.000000	0.001627	0.001748	28.0793	0.036011	0.001987	18.1214	-91.8654	-166.363	-0.108396	1.041688	-0.097496	-0.098761	-0.066050	18.1214	-0.094762	-1.393150	0.047411	NaN
448	1.000000	1.052946	7.36944e+06	-54689.1	1005.82	-29743.1	0.000000	0.000000	7.053140	0.048113	NaN	0.000000	0.001600	0.001724	28.0808	0.055480	0.002009	27.6171	-115.332	11.8977	0.041885	1.051588	-0.087503	-0.088861	0.048113	27.6171	-0.088809	-1.013402	-0.047476	NaN
448	1.000000	1.062981	7.36944e+06	-54689.1	1005.82	-29743.1	0.000000	0.000000	7.063176	0.085305	NaN	0.000000	0.001618	0.001731	28.0803	0.057156	0.002109	27.1066	15.2772	-164.594	0.069046	1.061662	-0.077468	-0.078787	0.085305	27.1066	-0.079829	-0.612911	-0.139180	NaN
448	1.000000	1.072977	7.36944e+06	-54689.1	1005.82	-29743.1	0.000000	0.000000	7.073169	-0.009215	NaN	0.000000	0.001635	0.001739	28.0806	0.102834	0.002020	50.9064	-175.047	15.1798	0.008709	1.071613	-0.067472	-0.068835	-0.009215	50.9064	-0.067336	-0.288973	0.031890	NaN
448	1.000000	1.082980	7.36944e+06	-54689.1	1005.82	-29743.1	0.000000	0.000000	7.083175	0.077453	NaN	0.000000	0.001618	0.001779	28.0804	0.037901	0.001923	19.7113	27.3027	-166.201	0.054275	1.081666	-0.057469	-0.058782	0.077453	19.7113	-0.060416	-0.185105	-0.418426	NaN
448	1.000000	1.092994	7.36944e+06	-54689.1	1005.82	-29743.1	0.000000	0.000000	7.093184	-0.058529	NaN	0.000000	0.001623	0.001761	28.0808	0.133031	0.001960	67.8838	-42.0843	16.4119	-0.025112	1.091588	-0.047454	-0.048861	-0.058529	67.8838	-0.046808	-0.072984	0.801943	NaN
448	1.000000	1.102983	7.36944e+06	-54689.1	1005.82	-29743.1	0.000000	0.000000	7.103171	-0.081885	NaN	0.000000	0.001623	0.001762	28.0805	0.036337	0.002013	18.0532	129.166	-163.597	0.023519	1.101566	-0.037466	-0.038883	-0.081885	18.0532	-0.034065	-0.030064	2.723690	NaN
448	1.000000	1.112986	7.36945e+06	-54689.1	1005.82	-29743.1	0.000000	0.000000	7.113180	0.043797	NaN	0.000000	0.001586	0.001779	28.0806	0.036219	0.002187	16.5587	-119.129	15.3554	0.041944	1.111664	-0.027462	-0.028785	0.043797	16.5587	-0.029446	-0.022212	-1.971747	NaN
448	1.000000	1.122997	7.36945e+06	-54689.1	1005.82	-29743.1	0.000000	0.000000	7.123190	0.028731	NaN	0.000000	0.001581	0.001800	28.0805	0.098983	0.002047	48.3495	-94.7853	-163.64	0.081679	1.121670	-0.017452	-0.018779	0.028731	48.3495	-0.017897	-0.011094	-2.589672	NaN
448	1.000000	1.133017	7.36945e+06	-54689.1	1005.82	-29743.1	0.000000	0.000000	7.133212	0.058731	NaN	0.000000	0.001606	0.001741	28.0806	0.101889	0.001905	53.4763	-90.3328	14.8047	0.024472	1.131671	-0.007432	-0.008778	0.058731	53.4763	-0.008255	-0.005381	-10.9145	NaN
448	1.000000	1.143018	7.36945e+06	-54689.1	1005.82	-29743.1	0.000000	0.000000	7.143215	0.134660	NaN	0.000000	0.001554	0.001785	28.0805	0.252255	0.001949	129.402	4.377321	-168.161	0.047332	1.141699	0.002569	0.001250	0.134660	129.402	0.001789	0.001385	97.2582	3177.29
448	1.000000	1.152979	7.36945e+06	-54689.1	1005.82	-29743.1	0.000000	0.000000	7.153428	6.254248	NaN	0.000000	0.001608	0.001797	28.0806	6.890312	0.001685	4088.92	15.5636	7.209013	5.178163	1.151652	0.012530	0.011203	6.254248	4088.92	0.011383	0.010760	581.274	36015.1
448	2.000000	1.157612	7.36945e+06	-54689.1	1005.82	-29743.1	0.000000	0.000000	7.158197	9.541178	NaN	0.000000	0.001593	0.001731	28.0806	10.8592	0.001795	6048.31	11.1512	-174.096	9.734972	1.157348	0.017163	0.016899	9.541178	6048.31	0.015980	0.016615	574.256	42870.6
448	2.000000	1.160121	7.36945e+06	-54689.1	1005.82	-29743.1	0.000000	0.000000	7.160883	13.864	NaN	0.000000	0.001564	0.001754	28.0807	13.865	0.001671	8298.95	10.7113	1.571570	13.7045	1.159745	0.019672	0.019296	13.864	8298.95	0.018419	0.020118	689.119	53456.4
448	2.000000	1.162537	7.36945e+06	-54689.1	1005.82	-29743.1	0.000000	0.000000	7.163414	16.6532	NaN	0.000000	0.001550	0.001756	28.0804	15.9751	0.001697	9415.48	5.398518	-175.192	16.0001	1.162244	0.022088	0.021796	16.6532	9415.48	0.020761	0.023753	701.1	55815.8
448	2.000000	1.165006	7.36945e+06	-54689.1	1005.82	-29743.1	0.000000	0.000000	7.165991	19.2778	NaN	0.000000	0.001580	0.001775	28.0798	18.6435	0.001712	10892	7.880492	2.906102	18.2309	1.164706	0.024557	0.024257	19.2778	10892	0.023230	0.027874	691.604	59604.6
448	2.000000	1.167515	7.36945e+06	-54689.1	1005.82	-29743.1	0.000000	0.000000	7.168769	25.8183	NaN	0.000000	0.001550	0.001766	28.0793	21.9861	0.001862	11810.4	7.659403	-179.463	24.6631	1.167201	0.027066	0.026752	25.8183	11810.4	0.025426	0.031796	812.006	60513.5
448	2.000000	1.170011	7.36945e+06	-54689.1	1005.82	-29743.1	0.000000	0.000000	7.171480	31.0343	NaN	0.000000	0.001558	0.001772	28.0795	23.544	0.001729	13616.8	4.429857	3.892017	29.2929	1.169696	0.029563	0.029247	31.0343	13616.8	0.027853	0.036412	852.315	65196.9
448	2.000000	1.172519	7.36945e+06	-54689.1	1005.82	-29743.1	0.000000	0.000000	7.174138	34.7068	NaN	0.000000	0.001601	0.001772	28.0792	25.9786	0.001757	14785	5.008409	-178.594	33.3931	1.172236	0.032070	0.031788	34.7068	14785	0.030309	0.041387	838.591	66399.1
448	2.000000	1.174961	7.36945e+06	-54689.1	1005.82	-29743.1	0.000000	0.000000	7.176881	42.0046	NaN	0.000000	0.001564	0.001765	28.0795	28.8688	0.001818	15882.8	2.292278	4.895830	40.2971	1.174674	0.034513	0.034226	42.0046	15882.8	0.032529	0.046149	910.195	67548.8
448	2.000000	1.177451	7.36945e+06	-54689.1	1005.82	-29743.1	0.000000	0.000000	7.179662	49.0757	NaN	0.000000	0.001605	0.001729	28.0792	31.4964	0.001752	17975.1	2.815895	-178.039	46.8507	1.177177	0.037002	0.036728	49.0757	17975.1	0.034954	0.051640	950.349	72269.3
448	2.000000	1.180060	7.36945e+06	-54689.1	1005.82	-29743.1	0.000000	0.000000	7.182656	58.4566	NaN	0.000000	0.001576	0.001699	28.0794	32.984	0.001618	20389	1.304000	2.546463	58.018	1.179641	0.039611	0.039192	58.4566	20389	0.037460	0.057630	1014.34	77597.1
448	2.000000	1.182502	7.36945e+06	-54689.1	1005.82	-29743.1	0.000000	0.000000	7.185187	60.6044	NaN	0.000000	0.001579	0.001687	28.0793	35.6299	0.001771	20116.1	4.081644	179.859	60.1118	1.182185	0.042053	0.041736	60.6044	20116.1	0.039794	0.063496	954.458	72936.1
448	2.000000	1.184964	7.36945e+06	-54689.1	1005.82	-29743.1	0.000000	0.000000	7.187958	68.1324	NaN	0.000000	0.001557	0.001688	28.0796	37.6962	0.001677	22477	4.906031	-2.126518	66.2754	1.184712	0.044515	0.044263	68.1324	22477	0.042241	0.069949	974.025	77646.1
448	2.000000	1.187469	7.36945e+06	-54689.1	1005.82	-29743.1	0.000000	0.000000	7.190792	76.1077	NaN	0.000000	0.001558	0.001672	28.0792	41.1287	0.001728	23795.9	3.846091	177.907	74.5548	1.187200	0.047020	0.046752	76.1077	23795.9	0.044622	0.076516	994.658	78595.5
448	2.000000	1.189937	7.36945e+06	-54689.1	1005.82	-29743.1	0.000000	0.000000	7.193675	86.224	NaN	0.000000	0.001585	0.001696	28.0793	43.116	0.001835	23496.4	6.930844	-3.277489	83.6972	1.189574	0.049488	0.049125	86.224	23496.4	0.046735	0.082590	1043.99	74698
448	2.000000	1.192475	7.36945e+06	-54689.1	1005.82	-29743.1	0.000000	0.000000	7.196477	92.6282	NaN	0.000000	0.001539	0.001698	28.0791	45.1393	0.001765	25569.7	4.149533	178.468	92.6409	1.192183	0.052026	0.051735	92.6282	25569.7	0.049309	0.090291	1025.89	77746
448	2.000000	1.194923	7.36945e+06	-54689.1	1005.82	-29743.1	0.000000	0.000000	7.199325	102.331	NaN	0.000000	0.001630	0.001692	28.0795	48.4143	0.001985	24387.4	5.153443	-2.505873	99.677	1.194650	0.054475	0.054201	102.331	24387.4	0.051328	0.096561	1059.76	71703.3
448	2.000000	1.197454	7.36945e+06	-54689.1	1005.82	-29743.1	0.000000	0.000000	7.202244	111.782	NaN	0.000000	0.001575	0.001702	28.0804	50.2482	0.001765	28470.6	3.604826	177.634	110.185	1.197166	0.057005	0.056718	111.782	28470.6	0.054060	0.105375	1060.8	80130.9
448	2.000000	1.200010	7.36945e+06	-54689.1	1005.82	-29743.1	0.000000	0.000000	7.205207	121.671	NaN	0.000000	0.001598	0.001661	28.0805	52.1315	0.001901	27422	9.540824	-7.329289	122.73	1.199591	0.059561	0.059143	121.671	27422	0.056233	0.112649	1080.09	74646.2
448	2.000000	1.202442	7.36945e+06	-54689.1	1005.82	-29743.1	0.000000	0.000000	7.207993	130.266	NaN	0.000000	0.001607	0.001705	28.0805	53.4614	0.001744	30646.6	5.461219	174.976	128.468	1.202088	0.061993	0.061639	130.266	30646.6	0.058805	0.121559	1071.63	80308.6
448	2.000000	1.204982	7.36945e+06	-54689.1	1005.82	-29743.1	0.000000	0.000000	7.210865	138.348	NaN	0.000000	0.001630	0.001729	28.0807	57.5148	0.001773	32434.4	6.126999	-5.791834	137.345	1.204562	0.064533	0.064113	138.348	32434.4	0.061334	0.130636	1059.03	81987.5
448	2.000000	1.207496	7.36945e+06	-54689.1	1005.82	-29743.1	0.000000	0.000000	7.213945	152.105	NaN	0.000000	0.001608	0.001705	28.0804	60.298	0.001864	32348.7	8.191352	171.772	153.558	1.207135	0.067048	0.066686	152.105	32348.7	0.063521	0.138737	1096.36	79347.7
448	2.000000	1.209900	7.36945e+06	-54689.1	1005.82	-29743.1	0.000000	0.000000	7.217036	168.796	NaN	0.000000	0.001585	0.001683	28.0805	60.9268	0.001752	34772.9	4.073254	-5.008231	163.59	1.209544	0.069451	0.069095	168.796	34772.9	0.065811	0.147465	1144.65	82731.3
448	2.000000	1.212490	7.36945e+06	-54689.1	1005.82	-29743.1	0.000000	0.000000	7.219959	176.905	NaN	0.000000	0.001619	0.001709	28.0807	63.3113	0.001870	33855.1	7.879769	171.475	177.493	1.212134	0.072041	0.071685	176.905	33855.1	0.068122	0.156532	1130.15	78179.9
448	2.000000	1.214896	7.36945e+06	-54689.1	1005.82	-29743.1	0.000000	0.000000	7.223272	198.948	NaN	0.000000	0.001592	0.001695	28.0811	65.6468	0.001884	34842.1	5.263866	-5.278271	195.282	1.214480	0.074448	0.074031	198.948	34842.1	0.070165	0.164760	1207.5	78424.4
448	2.000000	1.217416	7.36945e+06	-54689.1	1005.82	-29743.1	0.000000	0.000000	7.225962	203.069	NaN	0.000000	0.001568	0.001672	28.0806	68.4072	0.001918	35667.5	2.906518	176.54	200.535	1.217141	0.076968	0.076692	203.069	35667.5	0.072698	0.175234	1158.84	77845.9
448	2.000000	1.219961	7.36945e+06	-54689.1	1005.82	-29743.1	0.000000	0.000000	7.229087	217.192	NaN	0.000000	0.001605	0.001678	28.0805	69.7787	0.001881	37095.1	2.293374	-3.039826	215.19	1.219587	0.079512	0.079138	217.192	37095.1	0.075121	0.185540	1170.59	78681.3
448	2.000000	1.222443	7.36945e+06	-54689.1	1005.82	-29743.1	0.000000	0.000000	7.232090	229.85	NaN	0.000000	0.001584	0.001655	28.0807	72.0335	0.001770	40688.2	3.598429	174.284	228.778	1.222235	0.081994	0.081786	229.85	40688.2	0.077758	0.197069	1166.35	83740
448	2.000000	1.224977	7.36945e+06	-54689.1	1005.82	-29743.1	0.000000	0.000000	7.235107	241.592	NaN	0.000000	0.001627	0.001706	28.0806	76.4514	0.001781	42917	7.949134	-10.1589	243.061	1.224497	0.084529	0.084048	241.592	42917	0.080307	0.208522	1158.59	85867.1
448	2.000000	1.227421	7.36945e+06	-54689.1	1005.82	-29743.1	0.000000	0.000000	7.238222	257.893	NaN	0.000000	0.001681	0.001668	28.0806	78.5812	0.001825	43055.2	4.789551	172.789	256.379	1.227160	0.086972	0.086711	257.893	43055.2	0.082480	0.218528	1180.14	84148.4
448	2.000000	1.229909	7.36945e+06	-54689.1	1005.82	-29743.1	0.000000	0.000000	7.241416	275.077	NaN	0.000000	0.001618	0.001716	28.0805	80.1873	0.001875	42777.5	3.509178	-4.973833	271.747	1.229442	0.089460	0.088993	275.077	42777.5	0.084637	0.228674	1202.92	81729.8
448	2.000000	1.232518	7.36945e+06	-54689.1	1005.82	-29743.1	0.000000	0.000000	7.244503	286.699	NaN	0.000000	0.001632	0.001679	28.0793	82.8473	0.001776	46649.3	8.430610	169.404	291.449	1.232017	0.092069	0.091568	286.699	46649.3	0.087460	0.242274	1183.36	86589.5
448	2.000000	1.234917	7.36945e+06	-54689.1	1005.82	-29743.1	0.000000	0.000000	7.247599	303.623	NaN	0.000000	0.001625	0.001692	28.0793	84.967	0.001821	46668.4	5.676655	-8.167699	302.446	1.234599	0.094468	0.094150	303.623	46668.4	0.089589	0.252777	1201.15	84806.1
448	2.000000	1.237441	7.36945e+06	-54689.1	1005.82	-29743.1	0.000000	0.000000	7.250660	316.689	NaN	0.000000	0.001587	0.001674	28.0793	87.3819	0.001833	47671.6	3.277943	173.853	319.278	1.237146	0.096992	0.096697	316.689	47671.6	0.092010	0.264973	1195.17	84612
448	2.000000	1.239888	7.36945e+06	-54689.1	1005.82	-29743.1	0.000000	0.000000	7.253896	335.87	NaN	0.000000	0.001591	0.001666	28.0793	88.9018	0.001824	48732.4	5.997024	-8.441248	330.289	1.239427	0.099439	0.098978	335.87	48732.4	0.094270	0.276600	1214.28	84657.5
448	2.000000	1.242462	7.36945e+06	-54689.1	1005.82	-29743.1	0.000000	0.000000	7.257099	351.165	NaN	0.000000	0.001590	0.001696	28.0796	91.2322	0.001834	49734.6	3.977933	172.901	352.848	1.242178	0.102013	0.101729	351.165	49734.6	0.096717	0.289452	1213.21	84458.6
448	2.000000	1.244873	7.36945e+06	-54689.1	1005.82	-29743.1	0.000000	0.000000	7.260342	371.373	NaN	0.000000	0.001573	0.001681	28.0792	94.0442	0.001814	51837.9	5.561286	-9.206480	366.97	1.244578	0.104424	0.104129	371.373	51837.9	0.099051	0.301962	1229.87	86187.5
448	2.000000	1.247412	7.36945e+06	-54689.1	1005.82	-29743.1	0.000000	0.000000	7.263655	390.193	NaN	0.000000	0.001580	0.001681	28.0795	95.7874	0.001727	55480.7	4.413034	171.554	389.39	1.247240	0.106963	0.106791	390.193	55480.7	0.101689	0.316398	1233.23	90115.1
448	2.000000	1.249894	7.36945e+06	-54689.1	1005.82	-29743.1	0.000000	0.000000	7.267022	411.708	NaN	0.000000	0.001582	0.001637	28.0792	97.762	0.001774	55107.2	4.571124	-7.831182	409.145	1.249489	0.109445	0.109040	411.708	55107.2	0.103842	0.328420	1253.6	87855.1
448	2.000000	1.252394	7.36945e+06	-54689.1	1005.82	-29743.1	0.000000	0.000000	7.270335	431.49	NaN	0.000000	0.001597	0.001667	28.0796	99.6324	0.001759	56654.5	3.676162	172.719	430.878	1.252010	0.111945	0.111561	431.49	56654.5	0.106233	0.342012	1261.62	88508.8
448	2.000000	1.254363	7.36945e+06	-54689.1	1005.82	-29743.1	0.000000	0.000000	7.272590	438.438	NaN	0.000000	0.001589	0.001703	28.0792	102.954	0.001759	58525.1	3.842274	171.827	435.288	1.254028	0.113914	0.113580	438.438	58525.1	0.108295	0.353947	1238.71	89876.6