File: remote_trans/data/nanoindenter/0828-1/data/Data_2025-08-06,11h17m57s/2025-07-22_16-23-58_1_56.txt
2025-07-22, 16:23:58, 1
Index	Phase	Displacement	Time	Pos X	Pos Y	Pos Z	Rot A	Rot B	Piezo Z	Force A	Force B	Gripper	Voltage A	Voltage B	Temperature	Amplitude force	Amplitude pos	Stiffness	Phase shift	Phase excitation	Force A raw	Displacement raw	HMax	HMax raw	Real Force	Real Stiffness	Contact Depth	Area	Hardness	Reduced Mod.
[#]	[#]	[um]	[s]	[um]	[um]	[um]	[m°]	[m°]	[um]	[uN]	[uN]	[V]	[V]	[V]	[°C]	[uN]	[um]	[N/m]	[°]	[°]	[uN]	[um]	[um]	[um]	[uN]	[N/m]	[um]	[um^2]	[MPa]	[MPa]
56	1.000000	0.002610	7.36559e+06	-41439.1	955.819	-29786.8	0.000000	0.000000	6.002816	0.059342	NaN	0.000000	0.001520	0.001753	28.1045	0.071120	0.000928	76.6266	-136.374	-161.926	0.045776	0.001379	-1.121117	-1.122348	0.059342	76.6266	-1.121698	-9.800501E+14	-6.055041E-17	NaN
56	1.000000	0.012646	7.36559e+06	-41439.1	955.819	-29786.8	0.000000	0.000000	6.012851	0.037182	NaN	0.000000	0.001559	0.001745	28.1307	0.035480	0.001135	31.2591	-113.247	20.092	0.023842	0.011239	-1.111081	-1.112488	0.037182	31.2591	-1.111973	-7.257197E+14	-5.123444E-17	NaN
56	1.000000	0.022539	7.36559e+06	-41439.1	955.817	-29786.8	0.000000	0.000000	6.022743	0.023221	NaN	0.000000	0.001552	0.001772	28.093	0.086446	0.001806	47.8644	115.088	-160.127	0.078910	0.021265	-1.101188	-1.102462	0.023221	47.8644	-1.101552	-5.258972E+14	-4.415585E-17	NaN
56	1.000000	0.032546	7.36559e+06	-41439.1	955.818	-29786.8	0.000000	0.000000	6.032748	-0.006044	NaN	0.000000	0.001565	0.001762	28.0825	0.114578	0.001989	57.6087	98.0466	16.4816	0.007693	0.031195	-1.091182	-1.092532	-0.006044	57.6087	-1.091103	-3.807332E+14	1.587554E-17	NaN
56	1.000000	0.042523	7.36559e+06	-41439.1	955.82	-29786.8	0.000000	0.000000	6.042728	0.034870	NaN	0.000000	0.001568	0.001738	28.1055	0.057876	0.001923	30.0895	138.694	-168.136	-0.056192	0.041252	-1.081204	-1.082475	0.034870	30.0895	-1.082073	-2.879812E+14	-1.210855E-16	NaN
56	1.000000	0.052578	7.36559e+06	-41439.1	955.819	-29786.8	0.000000	0.000000	6.052778	-0.063113	NaN	0.000000	0.001581	0.001739	28.1317	0.095167	0.002050	46.414	94.5315	17.9998	-0.034731	0.051173	-1.071149	-1.072554	-0.063113	46.414	-1.070129	-1.990346E+14	3.170943E-16	NaN
56	1.000000	0.062554	7.36559e+06	-41439.1	955.819	-29786.8	0.000000	0.000000	6.062760	0.069332	NaN	0.000000	0.001605	0.001737	28.0933	0.055583	0.001935	28.7268	-124.445	-163.922	0.051944	0.061252	-1.061173	-1.062475	0.069332	28.7268	-1.062983	-1.595558E+14	-4.345299E-16	NaN
56	1.000000	0.072572	7.36559e+06	-41439.1	955.818	-29786.8	0.000000	0.000000	6.072778	0.080913	NaN	0.000000	0.001590	0.001787	28.0825	0.098781	0.001871	52.8005	176.309	12.6995	0.105731	0.071204	-1.051155	-1.052523	0.080913	52.8005	-1.052305	-1.146548E+14	-7.057124E-16	NaN
56	1.000000	0.082578	7.36559e+06	-41439.1	955.818	-29786.8	0.000000	0.000000	6.082783	0.039788	NaN	0.000000	0.001595	0.001743	28.1033	0.058516	0.001960	29.8581	-68.4941	-163.796	-0.000891	0.081241	-1.041149	-1.042486	0.039788	29.8581	-1.042148	-8.372426E+13	-4.752212E-16	NaN
56	1.000000	0.092560	7.36559e+06	-41439.1	955.818	-29786.8	0.000000	0.000000	6.092765	0.043375	NaN	0.000000	0.001595	0.001789	28.1296	0.080494	0.002053	39.2156	-108.563	18.913	0.083693	0.091241	-1.031167	-1.032486	0.043375	39.2156	-1.031996	-6.114092E+13	-7.094272E-16	NaN
56	1.000000	0.102565	7.36559e+06	-41439.1	955.819	-29786.8	0.000000	0.000000	6.102768	0.003319	NaN	0.000000	0.001581	0.001793	28.0914	0.107714	0.002056	52.389	91.1011	-162.764	-0.015112	0.101288	-1.021162	-1.022439	0.003319	52.389	-1.021210	-4.377545E+13	-7.582897E-17	NaN
56	1.000000	0.112546	7.36559e+06	-41439.1	955.817	-29786.8	0.000000	0.000000	6.112751	0.051007	NaN	0.000000	0.001593	0.001745	28.0799	0.025258	0.002001	12.6235	-26.5537	15.2751	0.102785	0.111237	-1.011181	-1.012490	0.051007	12.6235	-1.014212	-3.524255E+13	-1.447320E-15	NaN
56	1.000000	0.122579	7.36559e+06	-41439.1	955.819	-29786.8	0.000000	0.000000	6.122782	0.010981	NaN	0.000000	0.001574	0.001762	28.1037	0.056659	0.002031	27.9003	-22.0207	-163.696	-0.047423	0.121301	-1.001148	-1.002426	0.010981	27.9003	-1.001444	-2.372485E+13	-4.628509E-16	NaN
56	1.000000	0.132576	7.36559e+06	-41439.1	955.818	-29786.8	0.000000	0.000000	6.132783	0.085924	NaN	0.000000	0.001587	0.001770	28.1313	0.076914	0.001957	39.2979	21.1938	16.7584	0.120648	0.131304	-0.991151	-0.992423	0.085924	39.2979	-0.992791	-1.814264E+13	-4.736036E-15	NaN
56	1.000000	0.142577	7.36559e+06	-41439.1	955.819	-29786.8	0.000000	0.000000	6.142781	0.008424	NaN	0.000000	0.001555	0.001750	28.0931	0.082389	0.002125	38.7668	171.25	-165.75	0.002484	0.141286	-0.981150	-0.982441	0.008424	38.7668	-0.981313	-1.270868E+13	-6.628237E-16	NaN
56	1.000000	0.152574	7.36559e+06	-41439.1	955.819	-29786.8	0.000000	0.000000	6.152777	-0.014426	NaN	0.000000	0.001562	0.001754	28.0807	0.082297	0.002000	41.1507	-136.458	13.9745	-0.044147	0.151205	-0.971153	-0.972522	-0.014426	41.1507	-0.970890	-9.197273E+12	1.568550E-15	NaN
56	1.000000	0.162611	7.36559e+06	-41439.1	955.819	-29786.8	0.000000	0.000000	6.162814	-0.022237	NaN	0.000000	0.001577	0.001740	28.103	0.115428	0.001921	60.0893	76.9671	-162.833	-0.061103	0.161278	-0.961116	-0.962449	-0.022237	60.0893	-0.960838	-6.732386E+12	3.303038E-15	NaN
56	1.000000	0.172598	7.36559e+06	-41439.1	955.819	-29786.8	0.000000	0.000000	6.172803	0.056001	NaN	0.000000	0.001532	0.001747	28.1298	0.046963	0.001876	25.0383	114.188	15.1048	0.055155	0.171200	-0.951130	-0.952527	0.056001	25.0383	-0.952807	-5.246654E+12	-1.067362E-14	NaN
56	1.000000	0.182577	7.36559e+06	-41439.1	955.818	-29786.8	0.000000	0.000000	6.182783	0.048324	NaN	0.000000	0.001566	0.001741	28.0921	0.020025	0.002036	9.834574	146.305	-166.05	0.038433	0.181306	-0.941150	-0.942421	0.048324	9.834574	-0.944835	-4.096022E+12	-1.179783E-14	NaN
56	1.000000	0.192620	7.36559e+06	-41439.1	955.817	-29786.8	0.000000	0.000000	6.192825	0.050618	NaN	0.000000	0.001550	0.001745	28.0814	0.094028	0.001969	47.748	15.5497	15.8366	-0.013539	0.191261	-0.931107	-0.932466	0.050618	47.748	-0.931903	-2.740781E+12	-1.846832E-14	NaN
56	1.000000	0.202607	7.36559e+06	-41439.1	955.819	-29786.8	0.000000	0.000000	6.202811	0.023125	NaN	0.000000	0.001558	0.001765	28.1035	0.106149	0.002182	48.654	147.499	-167.044	0.036355	0.201283	-0.921120	-0.922444	0.023125	48.654	-0.921477	-1.982181E+12	-1.166650E-14	NaN
56	1.000000	0.212587	7.36559e+06	-41439.1	955.818	-29786.8	0.000000	0.000000	6.212793	0.066248	NaN	0.000000	0.001584	0.001750	28.1308	0.069280	0.001928	35.9322	137.934	16.1805	0.024263	0.211283	-0.911140	-0.912444	0.066248	35.9322	-0.912523	-1.500521E+12	-4.414976E-14	NaN
56	1.000000	0.222601	7.36559e+06	-41439.1	955.818	-29786.8	0.000000	0.000000	6.222803	-0.012934	NaN	0.000000	0.001576	0.001746	28.0943	0.089751	0.001936	46.3482	143.165	-168.51	-0.049576	0.221342	-0.901127	-0.902385	-0.012934	46.3482	-0.900917	-1.045830E+12	1.236700E-14	NaN
56	1.000000	0.232604	7.36559e+06	-41439.1	955.819	-29786.8	0.000000	0.000000	6.232807	0.001535	NaN	0.000000	0.001581	0.001744	28.0812	0.020702	0.002017	10.2638	-65.7242	16.0939	0.033215	0.231241	-0.891124	-0.892486	0.001535	10.2638	-0.891236	-7.737822E+11	-1.983295E-15	NaN
56	1.000000	0.242623	7.36559e+06	-41439.1	955.818	-29786.8	0.000000	0.000000	6.242827	0.006803	NaN	0.000000	0.001538	0.001753	28.1038	0.075125	0.001971	38.1106	-38.1672	-163.307	0.003272	0.241344	-0.881104	-0.882383	0.006803	38.1106	-0.881238	-5.668185E+11	-1.200258E-14	NaN
56	1.000000	0.252690	7.36559e+06	-41439.1	955.818	-29786.8	0.000000	0.000000	6.252892	-0.023509	NaN	0.000000	0.001580	0.001740	28.1309	0.196588	0.002073	94.839	-118.667	15.4092	0.024364	0.251240	-0.871037	-0.872487	-0.023509	94.839	-0.870851	-4.101643E+11	5.731711E-14	NaN
56	1.000000	0.262657	7.36559e+06	-41439.1	955.818	-29786.8	0.000000	0.000000	6.262862	0.027689	NaN	0.000000	0.001597	0.001765	28.094	0.105567	0.002048	51.548	1.183748	-167.089	-0.057108	0.261353	-0.861070	-0.862374	0.027689	51.548	-0.861473	-3.062339E+11	-9.041689E-14	NaN
56	1.000000	0.272645	7.36559e+06	-41439.1	955.818	-29786.8	0.000000	0.000000	6.272849	0.013840	NaN	0.000000	0.001615	0.001713	28.0828	0.107764	0.002043	52.756	-130.049	15.4498	-0.020776	0.271306	-0.851082	-0.852421	0.013840	52.756	-0.851279	-2.228729E+11	-6.209743E-14	NaN
56	1.000000	0.282632	7.36559e+06	-41439.1	955.819	-29786.8	0.000000	0.000000	6.282837	0.047899	NaN	0.000000	0.001571	0.001750	28.1046	0.157355	0.002042	77.0697	-48.2232	-165.555	0.099796	0.281338	-0.841095	-0.842389	0.047899	77.0697	-0.841561	-1.646048E+11	-2.909919E-13	NaN
56	1.000000	0.292630	7.36559e+06	-41439.1	955.818	-29786.8	0.000000	0.000000	6.292835	0.038564	NaN	0.000000	0.001594	0.001734	28.1318	0.135631	0.002102	64.5145	54.037	11.3228	0.005004	0.291275	-0.831097	-0.832452	0.038564	64.5145	-0.831545	-1.204272E+11	-3.202255E-13	NaN
56	1.000000	0.302652	7.36559e+06	-41439.1	955.819	-29786.8	0.000000	0.000000	6.302856	0.021458	NaN	0.000000	0.001571	0.001738	28.0944	0.091544	0.001943	47.1141	-113.742	-164.876	-0.034117	0.301329	-0.821075	-0.822398	0.021458	47.1141	-0.821417	-8.778610E+10	-2.444404E-13	NaN
56	1.000000	0.312664	7.36559e+06	-41439.1	955.819	-29786.8	0.000000	0.000000	6.312869	0.043368	NaN	0.000000	0.001595	0.001724	28.0805	0.124108	0.002023	61.3593	67.7434	16.0879	0.104356	0.311328	-0.811063	-0.812399	0.043368	61.3593	-0.811593	-6.459259E+10	-6.714143E-13	NaN
56	1.000000	0.322666	7.36559e+06	-41439.1	955.818	-29786.8	0.000000	0.000000	6.322871	0.034435	NaN	0.000000	0.001545	0.001732	28.104	0.106454	0.002085	51.0661	18.1263	-165.338	-0.007340	0.321328	-0.801061	-0.802399	0.034435	51.0661	-0.801567	-4.722062E+10	-7.292409E-13	NaN
56	1.000000	0.332648	7.36559e+06	-41439.1	955.819	-29786.8	0.000000	0.000000	6.332851	0.005296	NaN	0.000000	0.001555	0.001724	28.1309	0.055034	0.002042	26.9555	-36.1149	17.0309	0.161760	0.331278	-0.791079	-0.792450	0.005296	26.9555	-0.791227	-3.417763E+10	-1.549516E-13	NaN
56	1.000000	0.342661	7.36559e+06	-41439.1	955.818	-29786.8	0.000000	0.000000	6.342864	0.005856	NaN	0.000000	0.001587	0.001698	28.0946	0.151581	0.001998	75.868	171.411	-164.938	0.000781	0.341454	-0.781066	-0.782273	0.005856	75.868	-0.781124	-2.491758E+10	-2.350059E-13	NaN
56	1.000000	0.352688	7.36559e+06	-41439.1	955.819	-29786.8	0.000000	0.000000	6.352890	-0.007011	NaN	0.000000	0.001599	0.001701	28.0818	0.032583	0.001970	16.5433	57.81	17.7015	-0.075219	0.351337	-0.771040	-0.772390	-0.007011	16.5433	-0.770722	-1.799362E+10	3.896452E-13	NaN
56	1.000000	0.362697	7.36559e+06	-41439.1	955.819	-29786.8	0.000000	0.000000	6.362903	0.073269	NaN	0.000000	0.001578	0.001697	28.1032	0.089397	0.002019	44.2798	165.005	-163.12	0.025709	0.361335	-0.761030	-0.762392	0.073269	44.2798	-0.762271	-1.381017E+10	-5.305471E-12	NaN
56	1.000000	0.372693	7.36559e+06	-41439.1	955.818	-29786.8	0.000000	0.000000	6.372896	-0.012542	NaN	0.000000	0.001563	0.001725	28.1309	0.090329	0.002062	43.8074	-112.276	15.2615	0.047575	0.371322	-0.751034	-0.752405	-0.012542	43.8074	-0.750819	-9.646457E+9	1.300122E-12	NaN
56	1.000000	0.382683	7.36559e+06	-41439.1	955.819	-29786.8	0.000000	0.000000	6.382888	0.028022	NaN	0.000000	0.001583	0.001692	28.0939	0.056866	0.002039	27.8834	-92.5947	-168.199	0.008921	0.381378	-0.741044	-0.742349	0.028022	27.8834	-0.741797	-7.270036E+9	-3.854394E-12	NaN
56	1.000000	0.392691	7.36559e+06	-41439.1	955.818	-29786.8	0.000000	0.000000	6.392898	0.085614	NaN	0.000000	0.001558	0.001734	28.0802	0.047725	0.002093	22.8007	-178.701	14.6052	0.058849	0.391317	-0.731036	-0.732410	0.085614	22.8007	-0.733852	-5.666311E+9	-1.510928E-11	NaN
56	1.000000	0.402698	7.36559e+06	-41439.1	955.819	-29786.8	0.000000	0.000000	6.402901	0.011300	NaN	0.000000	0.001604	0.001739	28.1022	0.143284	0.001968	72.8192	-60.5633	-163.556	-0.031294	0.401425	-0.721029	-0.722302	0.011300	72.8192	-0.721146	-3.802758E+9	-2.971521E-12	NaN
56	1.000000	0.412678	7.36559e+06	-41439.1	955.818	-29786.8	0.000000	0.000000	6.412880	-0.026539	NaN	0.000000	0.001570	0.001726	28.1304	0.090002	0.002081	43.2427	-81.1557	12.5517	-0.080354	0.411377	-0.711049	-0.712350	-0.026539	43.2427	-0.710589	-2.729494E+9	9.723194E-12	NaN
56	1.000000	0.422705	7.36559e+06	-41439.1	955.818	-29786.8	0.000000	0.000000	6.422912	0.086963	NaN	0.000000	0.001591	0.001751	28.0934	0.066650	0.002043	32.6267	145.313	-162.854	0.031440	0.421391	-0.701022	-0.702337	0.086963	32.6267	-0.703021	-2.151687E+9	-4.041621E-11	NaN
56	1.000000	0.432719	7.36559e+06	-41439.1	955.818	-29786.8	0.000000	0.000000	6.432922	-0.013189	NaN	0.000000	0.001604	0.001754	28.0809	0.042658	0.002072	20.5906	-78.9104	14.1831	-0.040147	0.431305	-0.691008	-0.692422	-0.013189	20.5906	-0.690528	-1.452537E+9	9.079722E-12	NaN
56	1.000000	0.442692	7.36559e+06	-41439.1	955.818	-29786.8	0.000000	0.000000	6.442898	0.065331	NaN	0.000000	0.001611	0.001755	28.1019	0.050920	0.001884	27.0305	-175.086	-164.243	0.013915	0.441385	-0.681035	-0.682343	0.065331	27.0305	-0.682848	-1.140643E+9	-5.727589E-11	NaN
56	1.000000	0.452725	7.36559e+06	-41439.1	955.819	-29786.8	0.000000	0.000000	6.452930	0.031276	NaN	0.000000	0.001601	0.001765	28.1309	0.060836	0.002073	29.3428	-158.61	11.4625	0.065858	0.451346	-0.671002	-0.672381	0.031276	29.3428	-0.671801	-8.054600E+8	-3.883046E-11	NaN
56	1.000000	0.462730	7.36559e+06	-41439.1	955.818	-29786.8	0.000000	0.000000	6.462938	0.117380	NaN	0.000000	0.001596	0.001751	28.0936	0.066689	0.001981	33.6562	-109.548	-166.366	-0.014397	0.461427	-0.660997	-0.662300	0.117380	33.6562	-0.663613	-6.222294E+8	-1.886440E-10	NaN
56	1.000000	0.472759	7.36559e+06	-41439.1	955.817	-29786.8	0.000000	0.000000	6.472963	0.018536	NaN	0.000000	0.001614	0.001769	28.0789	0.042087	0.002110	19.9443	128.041	15.9342	0.063533	0.471414	-0.650968	-0.652313	0.018536	19.9443	-0.651665	-4.268359E+8	-4.342575E-11	NaN
56	1.000000	0.482727	7.36559e+06	-41439.1	955.819	-29786.8	0.000000	0.000000	6.482933	0.050167	NaN	0.000000	0.001636	0.001721	28.1005	0.051531	0.001933	26.6564	-142.477	-159.076	0.090733	0.481448	-0.641000	-0.642280	0.050167	26.6564	-0.642411	-3.186919E+8	-1.574154E-10	NaN
56	1.000000	0.492740	7.36559e+06	-41439.1	955.819	-29786.8	0.000000	0.000000	6.492944	0.028186	NaN	0.000000	0.001629	0.001767	28.131	0.033688	0.001962	17.1716	127.084	14.7405	-0.014052	0.491368	-0.630987	-0.632360	0.028186	17.1716	-0.632218	-2.309324E+8	-1.220518E-10	NaN
56	1.000000	0.502723	7.36559e+06	-41439.1	955.818	-29786.8	0.000000	0.000000	6.502925	-0.029432	NaN	0.000000	0.001662	0.001772	28.0949	0.086225	0.001981	43.5251	-31.6941	-164.538	-0.075330	0.501422	-0.621004	-0.622305	-0.029432	43.5251	-0.620497	-1.593897E+8	1.846529E-10	NaN
56	1.000000	0.512746	7.36559e+06	-41439.1	955.819	-29786.8	0.000000	0.000000	6.512949	-0.010737	NaN	0.000000	0.001627	0.001767	28.0826	0.091314	0.001940	47.0786	-83.4429	16.1983	-0.027340	0.511404	-0.610981	-0.612324	-0.010737	47.0786	-0.610810	-1.172883E+8	9.154029E-11	NaN
56	1.000000	0.522731	7.36559e+06	-41439.1	955.819	-29786.8	0.000000	0.000000	6.522935	0.023919	NaN	0.000000	0.001617	0.001758	28.1032	0.144239	0.001936	74.512	99.3735	-163.006	0.006912	0.521449	-0.600996	-0.602278	0.023919	74.512	-0.601237	-8.659477E+7	-2.762200E-10	NaN
56	1.000000	0.532758	7.36559e+06	-41439.1	955.818	-29786.8	0.000000	0.000000	6.532963	0.038709	NaN	0.000000	0.001713	0.001764	28.132	0.097664	0.002027	48.1792	177.162	16.5329	0.087523	0.531423	-0.590969	-0.592304	0.038709	48.1792	-0.591572	-6.372830E+7	-6.074017E-10	NaN
56	1.000000	0.542757	7.36559e+06	-41439.1	955.818	-29786.8	0.000000	0.000000	6.542961	0.011311	NaN	0.000000	0.001662	0.001757	28.0936	0.105668	0.002007	52.6629	179.945	-163.148	-0.019880	0.541436	-0.580970	-0.582291	0.011311	52.6629	-0.581131	-4.574385E+7	-2.472783E-10	NaN
56	1.000000	0.552771	7.36559e+06	-41439.1	955.819	-29786.8	0.000000	0.000000	6.552974	0.004063	NaN	0.000000	0.001626	0.001734	28.0805	0.083197	0.001990	41.8016	25.3107	17.8927	0.071686	0.551416	-0.570957	-0.572312	0.004063	41.8016	-0.571029	-3.317844E+7	-1.224512E-10	NaN
56	1.000000	0.562790	7.36559e+06	-41439.1	955.819	-29786.8	0.000000	0.000000	6.562994	0.030823	NaN	0.000000	0.001649	0.001722	28.102	0.047965	0.002016	23.7872	120.62	-168.149	0.026273	0.561455	-0.560937	-0.562272	0.030823	23.7872	-0.561909	-2.481888E+7	-1.241919E-9	NaN
56	1.000000	0.572764	7.36559e+06	-41439.1	955.818	-29786.8	0.000000	0.000000	6.572970	0.065543	NaN	0.000000	0.001599	0.001718	28.1312	0.039751	0.002136	18.6107	-134.831	16.2017	0.023442	0.571429	-0.550963	-0.552298	0.065543	18.6107	-0.553604	-1.904884E+7	-3.440797E-9	NaN
56	1.000000	0.582797	7.36559e+06	-41439.1	955.819	-29786.8	0.000000	0.000000	6.583000	-0.002686	NaN	0.000000	0.001626	0.001739	28.0958	0.021142	0.001948	10.8549	-62.781	-165.823	-0.020578	0.581434	-0.540930	-0.542293	-0.002686	10.8549	-0.540744	-1.263810E+7	2.125663E-10	NaN
56	1.000000	0.592782	7.36559e+06	-41439.1	955.819	-29786.8	0.000000	0.000000	6.592988	0.058791	NaN	0.000000	0.001605	0.001735	28.0814	0.068684	0.002001	34.3245	-147.809	13.6768	0.031439	0.591432	-0.530945	-0.532295	0.058791	34.3245	-0.532229	-9.62791e+06	-6.106325E-9	NaN
56	1.000000	0.602784	7.36559e+06	-41439.1	955.819	-29786.8	0.000000	0.000000	6.602990	0.067118	NaN	0.000000	0.001594	0.001771	28.1027	0.023481	0.002053	11.4375	38.0428	-162.139	0.082222	0.601484	-0.520943	-0.522243	0.067118	11.4375	-0.525345	-7.72502e+06	-8.688384E-9	NaN
56	1.000000	0.612760	7.36559e+06	-41439.1	955.818	-29786.8	0.000000	0.000000	6.612964	0.024215	NaN	0.000000	0.001595	0.001732	28.1324	0.025377	0.002043	12.4233	49.4371	16.2756	0.059660	0.611436	-0.510968	-0.512291	0.024215	12.4233	-0.512429	-5.10796e+06	-4.740627E-9	NaN
56	1.000000	0.622811	7.36559e+06	-41439.1	955.819	-29786.8	0.000000	0.000000	6.623019	0.119818	NaN	0.000000	0.001567	0.001741	28.0948	0.042716	0.001855	23.0305	143.606	-165.315	0.137070	0.621509	-0.500916	-0.502218	0.119818	23.0305	-0.504818	-4.00134e+06	-2.994455E-8	NaN
56	1.000000	0.632794	7.36559e+06	-41439.1	955.819	-29786.8	0.000000	0.000000	6.632998	0.026265	NaN	0.000000	0.001638	0.001749	28.0798	0.062543	0.001925	32.4896	-31.704	17.3743	-0.029933	0.631422	-0.490933	-0.492305	0.026265	32.4896	-0.491539	-2.61156e+06	-1.005701E-8	NaN
56	1.000000	0.642808	7.36559e+06	-41439.1	955.819	-29786.8	0.000000	0.000000	6.643015	0.107971	NaN	0.000000	0.001578	0.001754	28.1004	0.022686	0.002099	10.8095	-111.464	-166.022	0.105180	0.641488	-0.480919	-0.482239	0.107971	10.8095	-0.488411	-2.36146e+06	-4.572199E-8	NaN
56	1.000000	0.652803	7.36559e+06	-41439.1	955.818	-29786.8	0.000000	0.000000	6.653008	0.043810	NaN	0.000000	0.001630	0.001767	28.13	0.089442	0.002007	44.5556	-139.712	14.9742	0.109244	0.651443	-0.470924	-0.472284	0.043810	44.5556	-0.471661	-1.37628e+06	-3.183207E-8	NaN
56	1.000000	0.662800	7.36559e+06	-41439.1	955.819	-29786.8	0.000000	0.000000	6.663003	-0.021302	NaN	0.000000	0.001615	0.001692	28.0942	0.066990	0.001997	33.5533	153.972	-163.347	-0.104080	0.661483	-0.460927	-0.462244	-0.021302	33.5533	-0.460451	-957967	2.223645E-8	NaN
56	1.000000	0.672795	7.36559e+06	-41439.1	955.819	-29786.8	0.000000	0.000000	6.672997	-0.023900	NaN	0.000000	0.001609	0.001716	28.0808	0.019396	0.002004	9.679036	54.4713	14.8997	-0.042951	0.671438	-0.450933	-0.452289	-0.023900	9.679036	-0.449081	-662820	3.605764E-8	NaN
56	1.000000	0.682802	7.36559e+06	-41439.1	955.818	-29786.8	0.000000	0.000000	6.683008	0.052540	NaN	0.000000	0.001677	0.001722	28.1014	0.034486	0.002047	16.8441	-150.945	-165.312	0.077864	0.681491	-0.440925	-0.442236	0.052540	16.8441	-0.443264	-548802	-9.573636E-8	NaN
56	1.000000	0.692818	7.36559e+06	-41439.1	955.818	-29786.8	0.000000	0.000000	6.693020	-0.020875	NaN	0.000000	0.001647	0.001755	28.131	0.093935	0.002032	46.2204	-2.248948	15.8861	-0.011585	0.691436	-0.430910	-0.432291	-0.020875	46.2204	-0.430571	-363192	5.747593E-8	NaN
56	1.000000	0.702847	7.36559e+06	-41439.1	955.818	-29786.8	0.000000	0.000000	6.703048	-0.049668	NaN	0.000000	0.001628	0.001769	28.0939	0.016537	0.001948	8.487200	-37.8584	-162.874	-0.083764	0.701516	-0.420880	-0.422211	-0.049668	8.487200	-0.416491	-229415	2.164988E-7	NaN
56	1.000000	0.712838	7.36559e+06	-41439.1	955.818	-29786.8	0.000000	0.000000	6.713041	0.014166	NaN	0.000000	0.001622	0.001754	28.0793	0.075335	0.001860	40.4945	-98.7282	12.7427	0.004465	0.711450	-0.410890	-0.412277	0.014166	40.4945	-0.411152	-192655	-7.353084E-8	NaN
56	1.000000	0.722831	7.36559e+06	-41439.1	955.818	-29786.8	0.000000	0.000000	6.723038	0.084765	NaN	0.000000	0.001638	0.001784	28.0996	0.117082	0.001987	58.9214	72.2037	-166.946	-0.041729	0.721521	-0.400896	-0.402206	0.084765	58.9214	-0.401975	-142611	-5.943774E-7	NaN
56	1.000000	0.732851	7.36559e+06	-41439.1	955.818	-29786.8	0.000000	0.000000	6.733057	0.065599	NaN	0.000000	0.001591	0.001732	28.1301	0.009769	0.001842	5.303267	-108.717	15.7181	0.091174	0.731490	-0.390876	-0.392237	0.065599	5.303267	-0.400153	-134333	-4.883354E-7	NaN
56	1.000000	0.742858	7.36559e+06	-41439.1	955.818	-29786.8	0.000000	0.000000	6.743061	0.002316	NaN	0.000000	0.001623	0.001719	28.0951	0.093072	0.001987	46.8452	67.1239	-165.807	0.002419	0.741553	-0.380870	-0.382174	0.002316	46.8452	-0.380907	-71268.8	-3.250251E-8	NaN
56	1.000000	0.752833	7.36559e+06	-41439.1	955.82	-29786.8	0.000000	0.000000	6.753037	0.012859	NaN	0.000000	0.001574	0.001728	28.0802	0.078418	0.002166	36.2102	40.0911	13.2283	0.043041	0.751445	-0.370894	-0.372282	0.012859	36.2102	-0.371161	-51622.4	-2.490962E-7	NaN
56	1.000000	0.762878	7.36559e+06	-41439.1	955.818	-29786.8	0.000000	0.000000	6.763082	0.030849	NaN	0.000000	0.001572	0.001710	28.1007	0.085983	0.002028	42.408	3.200591	-166.738	0.078533	0.761539	-0.360849	-0.362189	0.030849	42.408	-0.361395	-37325.6	-8.264832E-7	NaN
56	1.000000	0.772825	7.36559e+06	-41439.1	955.819	-29786.8	0.000000	0.000000	6.773030	0.044552	NaN	0.000000	0.001600	0.001736	28.1324	0.136475	0.001869	73.0179	13.9242	13.723	0.072565	0.771514	-0.350902	-0.352213	0.044552	73.0179	-0.351360	-26713.8	-1.667764E-6	NaN
56	1.000000	0.782857	7.36559e+06	-41439.1	955.818	-29786.8	0.000000	0.000000	6.783061	0.016156	NaN	0.000000	0.001592	0.001762	28.0952	0.076351	0.001857	41.1114	-20.0576	-163.128	0.061450	0.781546	-0.340870	-0.342181	0.016156	41.1114	-0.341165	-18990.1	-8.507841E-7	NaN
56	1.000000	0.792871	7.36559e+06	-41439.1	955.819	-29786.8	0.000000	0.000000	6.793073	-0.022989	NaN	0.000000	0.001561	0.001722	28.0806	0.084033	0.002015	41.6943	-9.252492	18.1266	0.037858	0.791586	-0.330857	-0.332141	-0.022989	41.6943	-0.330443	-13241.5	1.736111E-6	NaN
56	1.000000	0.802857	7.36559e+06	-41439.1	955.818	-29786.8	0.000000	0.000000	6.803062	0.041609	NaN	0.000000	0.001573	0.001760	28.1005	0.066754	0.001947	34.2888	170.867	-160.473	0.046320	0.801532	-0.320870	-0.322195	0.041609	34.2888	-0.321780	-9881.71	-4.210742E-6	NaN
56	1.000000	0.812861	7.36559e+06	-41439.1	955.818	-29786.8	0.000000	0.000000	6.813063	-0.017793	NaN	0.000000	0.001559	0.001747	28.1311	0.053435	0.001964	27.203	27.2883	14.7344	0.035477	0.811494	-0.310866	-0.312233	-0.017793	27.203	-0.310376	-6708.32	2.652361E-6	NaN
56	1.000000	0.822856	7.36559e+06	-41439.1	955.817	-29786.8	0.000000	0.000000	6.823061	0.053684	NaN	0.000000	0.001561	0.001727	28.0954	0.136462	0.002036	67.0317	38.4889	-164.142	0.068761	0.821557	-0.300871	-0.302170	0.053684	67.0317	-0.301472	-4949.22	-1.084693E-5	NaN
56	1.000000	0.832873	7.36559e+06	-41439.1	955.818	-29786.8	0.000000	0.000000	6.833075	-0.029355	NaN	0.000000	0.001549	0.001716	28.0808	0.093276	0.002006	46.4983	-144.816	13.1974	0.041574	0.831480	-0.290854	-0.292248	-0.029355	46.4983	-0.290381	-3380.72	8.683063E-6	NaN
56	1.000000	0.842882	7.36559e+06	-41439.1	955.819	-29786.8	0.000000	0.000000	6.843088	0.060273	NaN	0.000000	0.001552	0.001790	28.1011	0.024326	0.001871	13.0001	150.837	-169.384	0.018061	0.841520	-0.280845	-0.282207	0.060273	13.0001	-0.284322	-2742.04	-2.198097E-5	NaN
56	1.000000	0.852903	7.36559e+06	-41439.1	955.819	-29786.8	0.000000	0.000000	6.853108	0.051063	NaN	0.000000	0.001565	0.001747	28.1319	0.088576	0.002020	43.8499	164.952	18.9575	0.008157	0.851515	-0.270824	-0.272212	0.051063	43.8499	-0.271698	-1767.39	-2.889170E-5	NaN
56	1.000000	0.862883	7.36559e+06	-41439.1	955.818	-29786.8	0.000000	0.000000	6.863087	0.029699	NaN	0.000000	0.001586	0.001754	28.0958	0.144504	0.001948	74.1727	-143.958	-164.95	-0.041885	0.861607	-0.260844	-0.262121	0.029699	74.1727	-0.261144	-1220.25	-2.433844E-5	NaN
56	1.000000	0.872867	7.36559e+06	-41439.1	955.818	-29786.8	0.000000	0.000000	6.873072	0.049670	NaN	0.000000	0.001582	0.001763	28.0811	0.043595	0.002167	20.1129	-40.0645	15.609	-0.018098	0.871539	-0.250861	-0.252188	0.049670	20.1129	-0.252713	-905.458	-5.485665E-5	NaN
56	1.000000	0.882916	7.3656e+06	-41439.1	955.819	-29786.8	0.000000	0.000000	6.883120	0.016264	NaN	0.000000	0.001623	0.001754	28.0995	0.017086	0.001875	9.113003	-108.84	-164.731	0.012508	0.881494	-0.240811	-0.242234	0.016264	9.113003	-0.242150	-620.999	-2.618963E-5	NaN
56	1.000000	0.892907	7.3656e+06	-41439.1	955.818	-29786.8	0.000000	0.000000	6.893111	0.039558	NaN	0.000000	0.001618	0.001774	28.1307	0.106876	0.002028	52.6961	151.496	13.6776	0.129620	0.891567	-0.230820	-0.232161	0.039558	52.6961	-0.231383	-421.061	-9.394782E-5	NaN
56	1.000000	0.902921	7.3656e+06	-41439.1	955.818	-29786.8	0.000000	0.000000	6.903125	0.012664	NaN	0.000000	0.001593	0.001745	28.0956	0.029977	0.001989	15.0701	177.435	-166.205	0.034011	0.901599	-0.220806	-0.222128	0.012664	15.0701	-0.221436	-292.826	-4.324594E-5	NaN
56	1.000000	0.912904	7.3656e+06	-41439.1	955.818	-29786.8	0.000000	0.000000	6.913108	0.024127	NaN	0.000000	0.001597	0.001755	28.0796	0.159656	0.002080	76.7431	-176.284	13.5447	0.059419	0.911492	-0.210823	-0.212235	0.024127	76.7431	-0.211059	-199.504	-0.000121	NaN
56	1.000000	0.922938	7.3656e+06	-41439.1	955.819	-29786.8	0.000000	0.000000	6.923143	0.037257	NaN	0.000000	0.001582	0.001742	28.0989	0.053395	0.001924	27.7509	113.068	-165.715	0.017158	0.921588	-0.200789	-0.202139	0.037257	27.7509	-0.201796	-140.987	-0.000264	NaN
56	1.000000	0.932918	7.3656e+06	-41439.1	955.818	-29786.8	0.000000	0.000000	6.933122	0.025074	NaN	0.000000	0.001568	0.001747	28.1306	0.020996	0.002025	10.3672	27.1535	12.3731	0.016256	0.931557	-0.190809	-0.192171	0.025074	10.3672	-0.192623	-99.4821	-0.000252	NaN
56	1.000000	0.942935	7.3656e+06	-41439.1	955.818	-29786.8	0.000000	0.000000	6.943141	0.082653	NaN	0.000000	0.001586	0.001752	28.0958	0.105662	0.002048	51.6037	-140.248	-166.336	0.158103	0.941598	-0.180792	-0.182129	0.082653	51.6037	-0.181993	-65.9658	-0.001253	NaN
56	1.000000	0.952944	7.3656e+06	-41439.1	955.818	-29786.8	0.000000	0.000000	6.953150	0.052449	NaN	0.000000	0.001587	0.001777	28.0799	0.072554	0.002030	35.7471	-17.9864	14.5809	0.065211	0.951557	-0.170783	-0.172170	0.052449	35.7471	-0.171883	-44.2842	-0.001184	NaN
56	1.000000	0.962960	7.3656e+06	-41439.1	955.818	-29786.8	0.000000	0.000000	6.963162	-0.040835	NaN	0.000000	0.001583	0.001777	28.0976	0.033899	0.002062	16.4376	173.489	-161.679	-0.024240	0.961563	-0.160767	-0.162164	-0.040835	16.4376	-0.158904	-26.2109	0.001558	NaN
56	1.000000	0.972967	7.3656e+06	-41439.1	955.818	-29786.8	0.000000	0.000000	6.973169	-0.026457	NaN	0.000000	0.001573	0.001759	28.1298	0.005952	0.002100	2.834458	80.1365	18.3664	-0.065974	0.971589	-0.150760	-0.152139	-0.026457	2.834458	-0.143759	-13.9049	0.001903	NaN
56	1.000000	0.982968	7.3656e+06	-41439.1	955.817	-29786.8	0.000000	0.000000	6.983173	0.044651	NaN	0.000000	0.001595	0.001753	28.0955	0.090899	0.002045	44.4553	61.847	-162.17	0.162847	0.981672	-0.140759	-0.142056	0.044651	44.4553	-0.141512	-12.6271	-0.003536	NaN
56	1.000000	0.992927	7.3656e+06	-41439.1	955.818	-29786.8	0.000000	0.000000	6.993130	-0.011956	NaN	0.000000	0.001531	0.001759	28.0799	0.127600	0.001944	65.6264	-125.807	15.1405	-0.030222	0.991582	-0.130800	-0.132145	-0.011956	65.6264	-0.130663	-7.850179	0.001523	NaN
56	1.000000	1.002954	7.3656e+06	-41439.1	955.817	-29786.8	0.000000	0.000000	7.003152	-0.133038	NaN	0.000000	0.001581	0.001727	28.0988	0.062775	0.001978	31.7316	134.815	-163.466	-0.130155	1.001634	-0.120773	-0.122093	-0.133038	31.7316	-0.117628	-4.324954	0.030761	NaN
56	1.000000	1.012951	7.3656e+06	-41439.1	955.818	-29786.8	0.000000	0.000000	7.013153	-0.039059	NaN	0.000000	0.001556	0.001721	28.1312	0.093304	0.001945	47.968	67.9495	14.4623	-0.090338	1.011587	-0.110776	-0.112140	-0.039059	47.968	-0.110165	-3.029395	0.012893	NaN
56	1.000000	1.022940	7.3656e+06	-41439.1	955.816	-29786.8	0.000000	0.000000	7.023141	-0.035998	NaN	0.000000	0.001609	0.001736	28.0969	0.054856	0.002045	26.8179	-178.17	-164.863	-0.005323	1.021691	-0.100787	-0.102037	-0.035998	26.8179	-0.099781	-1.806793	0.019924	NaN
56	1.000000	1.032961	7.3656e+06	-41439.1	955.818	-29786.8	0.000000	0.000000	7.033169	0.110344	NaN	0.000000	0.001631	0.001730	28.0796	0.049268	0.002021	24.3735	58.4629	13.3189	0.024989	1.031621	-0.090766	-0.092107	0.110344	24.3735	-0.094162	-1.349796	-0.081749	NaN
56	1.000000	1.042942	7.3656e+06	-41439.1	955.818	-29786.8	0.000000	0.000000	7.043146	0.002817	NaN	0.000000	0.001573	0.001745	28.0984	0.079342	0.002080	38.1534	131.27	-166.701	0.021763	1.041628	-0.080785	-0.082099	0.002817	38.1534	-0.080840	-0.649587	-0.004337	NaN
56	1.000000	1.052971	7.3656e+06	-41439.1	955.818	-29786.8	0.000000	0.000000	7.053175	0.027408	NaN	0.000000	0.001651	0.001710	28.1308	0.042206	0.001969	21.4378	94.4967	10.5852	0.064167	1.051607	-0.070756	-0.072120	0.027408	21.4378	-0.071715	-0.378931	-0.072329	NaN
56	1.000000	1.062993	7.3656e+06	-41439.1	955.819	-29786.8	0.000000	0.000000	7.063193	-0.085543	NaN	0.000000	0.001639	0.001716	28.0972	0.048786	0.001948	25.0478	-131.439	-163.351	-0.129632	1.061634	-0.060734	-0.062093	-0.085543	25.0478	-0.058173	-0.159506	0.536300	NaN
56	1.000000	1.072992	7.3656e+06	-41439.1	955.818	-29786.8	0.000000	0.000000	7.073197	0.049066	NaN	0.000000	0.001699	0.001771	28.0816	0.073105	0.001949	37.5055	49.0953	17.4575	0.086870	1.071644	-0.050736	-0.052084	0.049066	37.5055	-0.051717	-0.102798	-0.477310	NaN
56	1.000000	1.082951	7.3656e+06	-41439.1	955.819	-29786.8	0.000000	0.000000	7.083152	-0.034458	NaN	0.000000	0.001688	0.001726	28.0996	0.034408	0.001999	17.2125	10.4736	-163.215	-0.046143	1.081673	-0.040777	-0.042054	-0.034458	17.2125	-0.039275	-0.042990	0.801550	NaN
56	1.000000	1.092965	7.3656e+06	-41439.1	955.82	-29786.8	0.000000	0.000000	7.093169	0.013997	NaN	0.000000	0.001698	0.001705	28.1322	0.085020	0.001990	42.7328	64.8002	14.228	-0.020742	1.091652	-0.030762	-0.032076	0.013997	42.7328	-0.031008	-0.024560	-0.569932	NaN
56	1.000000	1.103001	7.3656e+06	-41439.1	955.819	-29786.8	0.000000	0.000000	7.103204	-0.004778	NaN	0.000000	0.001699	0.001730	28.097	0.070186	0.001882	37.2949	-16.2145	-166.402	0.031823	1.101675	-0.020726	-0.022052	-0.004778	37.2949	-0.020630	-0.013033	0.366578	NaN
56	1.000000	1.113005	7.3656e+06	-41439.1	955.82	-29786.8	0.000000	0.000000	7.113208	-0.006548	NaN	0.000000	0.001702	0.001735	28.0821	0.040052	0.002082	19.2354	-69.9172	17.2551	0.046062	1.111661	-0.010722	-0.012066	-0.006548	19.2354	-0.010467	-0.006654	0.984039	NaN
56	1.000000	1.123013	7.3656e+06	-41439.1	955.819	-29786.8	0.000000	0.000000	7.123220	0.088738	NaN	0.000000	0.001699	0.001755	28.099	0.129030	0.001890	68.2645	-15.8874	-166.297	0.018963	1.121703	-0.000714	-0.002024	0.088738	68.2645	-0.001689	-0.001222	-72.592	NaN
56	2.000000	1.131944	7.3656e+06	-41439.1	955.818	-29786.8	0.000000	0.000000	7.132594	10.8816	NaN	0.000000	0.001634	0.001728	28.1312	8.106606	0.001641	4940.12	9.408906	7.724842	10.4927	1.131410	0.008217	0.007682	10.8816	4940.12	0.006565	0.005607	1940.68	60275.7
56	2.000000	1.134475	7.3656e+06	-41439.1	955.818	-29786.8	0.000000	0.000000	7.135237	13.5929	NaN	0.000000	0.001687	0.001714	28.0969	10.1276	0.001607	6300.88	6.754843	-172.571	13.7121	1.134170	0.010748	0.010442	13.5929	6300.88	0.009130	0.008231	1651.45	63453
56	2.000000	1.136914	7.3656e+06	-41439.1	955.818	-29786.8	0.000000	0.000000	7.137827	17.2883	NaN	0.000000	0.001642	0.001694	28.0815	13.141	0.001836	7157.56	6.534949	7.002141	16.5469	1.136634	0.013187	0.012907	17.2883	7157.56	0.011375	0.010750	1608.21	63071.6
56	2.000000	1.139406	7.3656e+06	-41439.1	955.818	-29786.8	0.000000	0.000000	7.140449	20.4312	NaN	0.000000	0.001712	0.001734	28.0994	15.9702	0.001881	8491.11	5.024014	-172.34	19.4524	1.139146	0.015679	0.015419	20.4312	8491.11	0.013874	0.013813	1479.11	66007.1
56	2.000000	1.141937	7.3656e+06	-41439.1	955.818	-29786.8	0.000000	0.000000	7.143271	27.5151	NaN	0.000000	0.001710	0.001757	28.1321	18.0811	0.001790	10101.2	5.081640	6.570254	26.8527	1.141561	0.018210	0.017834	27.5151	10101.2	0.016167	0.016873	1630.69	71047.4
56	2.000000	1.144367	7.3656e+06	-41439.1	955.818	-29786.8	0.000000	0.000000	7.146028	35.4911	NaN	0.000000	0.001705	0.001724	28.0971	20.7267	0.001740	11912.1	3.832377	-175.868	33.36	1.144131	0.020640	0.020404	35.4911	11912.1	0.018405	0.020098	1765.93	76769.5
56	2.000000	1.146870	7.3656e+06	-41439.1	955.82	-29786.8	0.000000	0.000000	7.148768	41.2376	NaN	0.000000	0.001669	0.001713	28.0802	23.1509	0.001743	13280.1	4.510184	2.961885	39.0952	1.146565	0.023143	0.022838	41.2376	13280.1	0.020814	0.023838	1729.91	78585.3
56	2.000000	1.149432	7.3656e+06	-41439.1	955.82	-29786.8	0.000000	0.000000	7.151690	49.981	NaN	0.000000	0.001704	0.001724	28.097	26.5851	0.001795	14806.7	7.779846	178.911	48.975	1.149092	0.025705	0.025365	49.981	14806.7	0.023174	0.027776	1799.4	81169.8
56	2.000000	1.151916	7.3656e+06	-41439.1	955.82	-29786.8	0.000000	0.000000	7.154475	57.3232	NaN	0.000000	0.001668	0.001753	28.13	28.4038	0.001864	15234.3	3.454856	3.421060	55.049	1.151545	0.028189	0.027818	57.3232	15234.3	0.025367	0.031687	1809.04	78190.8
56	2.000000	1.154380	7.3656e+06	-41439.1	955.818	-29786.8	0.000000	0.000000	7.157300	66.1128	NaN	0.000000	0.001682	0.001724	28.0975	30.7647	0.001721	17875.7	8.688028	176.52	64.663	1.154020	0.030653	0.030293	66.1128	17875.7	0.027879	0.036462	1813.18	85529.3
56	2.000000	1.156857	7.3656e+06	-41439.1	955.819	-29786.8	0.000000	0.000000	7.160111	74.2384	NaN	0.000000	0.001678	0.001717	28.0811	33.8789	0.001827	18544	8.849898	-4.230527	71.5862	1.156472	0.033130	0.032745	74.2384	18544	0.030127	0.041008	1810.35	83665
56	2.000000	1.159372	7.3656e+06	-41439.1	955.819	-29786.8	0.000000	0.000000	7.162914	81.2427	NaN	0.000000	0.001663	0.001741	28.0971	35.5043	0.001790	19839.3	5.178830	178.614	79.3144	1.159073	0.035645	0.035346	81.2427	19839.3	0.032574	0.046248	1756.68	84285.5
56	2.000000	1.161890	7.3656e+06	-41439.1	955.819	-29786.8	0.000000	0.000000	7.165713	88.0766	NaN	0.000000	0.001648	0.001741	28.1309	37.5929	0.001824	20614.5	7.636151	-3.683254	86.7163	1.161454	0.038163	0.037727	88.0766	20614.5	0.034959	0.051650	1705.25	82872.3
56	2.000000	1.164343	7.3656e+06	-41439.1	955.819	-29786.8	0.000000	0.000000	7.168864	105.068	NaN	0.000000	0.001677	0.001723	28.0968	39.2714	0.001788	21959.7	5.055756	178.545	103.577	1.164012	0.040616	0.040285	105.068	21959.7	0.037028	0.056573	1857.22	84352.2
56	2.000000	1.166914	7.3656e+06	-41439.1	955.819	-29786.8	0.000000	0.000000	7.171597	109.017	NaN	0.000000	0.001614	0.001756	28.0793	42.7688	0.001932	22141.6	7.082908	-2.985540	109.654	1.166468	0.043187	0.042741	109.017	22141.6	0.039494	0.062727	1737.95	80770.9
56	2.000000	1.169434	7.3656e+06	-41439.1	955.82	-29786.8	0.000000	0.000000	7.174442	116.92	NaN	0.000000	0.001562	0.001734	28.0964	44.4159	0.001897	23417.9	4.366119	179.351	121.822	1.169101	0.045707	0.045374	116.92	23417.9	0.041962	0.069198	1689.64	81334.2
56	2.000000	1.171907	7.3656e+06	-41439.1	955.818	-29786.8	0.000000	0.000000	7.177472	130.466	NaN	0.000000	0.001655	0.001739	28.1299	46.1214	0.001738	26536.9	3.547672	-1.539153	130.54	1.171556	0.048180	0.047829	130.466	26536.9	0.044493	0.076154	1713.2	87857.4
56	2.000000	1.174340	7.3656e+06	-41439.1	955.82	-29786.8	0.000000	0.000000	7.180592	147.177	NaN	0.000000	0.001668	0.001704	28.0973	47.6493	0.001723	27661.4	3.807116	177.609	145.735	1.174009	0.050613	0.050282	147.177	27661.4	0.046622	0.082260	1789.18	88115.9
56	2.000000	1.176816	7.3656e+06	-41439.1	955.819	-29786.8	0.000000	0.000000	7.183632	160.914	NaN	0.000000	0.001647	0.001765	28.0827	50.9467	0.001755	29036.5	5.446291	-4.343638	158.171	1.176486	0.053089	0.052758	160.914	29036.5	0.048932	0.089142	1805.15	88854.1
56	2.000000	1.179353	7.3656e+06	-41439.1	955.819	-29786.8	0.000000	0.000000	7.186405	166.647	NaN	0.000000	0.001643	0.001716	28.0991	54.3444	0.001764	30802.6	5.619440	174.567	164.736	1.179066	0.055626	0.055339	166.647	30802.6	0.051569	0.097324	1712.3	90209.3
56	2.000000	1.181877	7.3656e+06	-41439.1	955.82	-29786.8	0.000000	0.000000	7.189913	190.581	NaN	0.000000	0.001654	0.001718	28.1321	54.6483	0.001812	30152.3	3.112716	-0.885716	189.166	1.181488	0.058150	0.057761	190.581	30152.3	0.053409	0.103242	1845.96	85736.4
56	2.000000	1.184311	7.3656e+06	-41439.1	955.819	-29786.8	0.000000	0.000000	7.192818	202.069	NaN	0.000000	0.001665	0.001728	28.0985	58.4531	0.001869	31272	6.315992	174.407	199.706	1.183970	0.060584	0.060243	202.069	31272	0.055737	0.110968	1820.96	85768.8
56	2.000000	1.186861	7.3656e+06	-41439.1	955.82	-29786.8	0.000000	0.000000	7.195617	208.112	NaN	0.000000	0.001650	0.001708	28.0809	61.1608	0.001868	32736.8	8.761097	-8.120039	208.532	1.186527	0.063134	0.062800	208.112	32736.8	0.058366	0.120014	1734.06	86336.2
56	2.000000	1.189294	7.3656e+06	-41439.1	955.82	-29786.8	0.000000	0.000000	7.198899	228.769	NaN	0.000000	0.001652	0.001712	28.0978	61.7992	0.001745	35415.4	2.262811	177.553	226.492	1.188968	0.065567	0.065240	228.769	35415.4	0.060722	0.128411	1781.53	90295
56	2.000000	1.191888	7.3656e+06	-41439.1	955.82	-29786.8	0.000000	0.000000	7.202153	244.835	NaN	0.000000	0.001652	0.001678	28.1312	63.6702	0.001713	37178.8	5.069871	-5.201340	245.048	1.191441	0.068160	0.067714	244.835	37178.8	0.063221	0.137613	1779.16	91567.2
56	2.000000	1.194336	7.3656e+06	-41439.1	955.82	-29786.8	0.000000	0.000000	7.205145	258.059	NaN	0.000000	0.001611	0.001718	28.0984	66.321	0.001822	36398.7	1.883018	177.787	257.55	1.193965	0.070609	0.070238	258.059	36398.7	0.065292	0.145465	1774.02	87192.6
56	2.000000	1.196896	7.3656e+06	-41439.1	955.82	-29786.8	0.000000	0.000000	7.208106	267.838	NaN	0.000000	0.001632	0.001744	28.0819	69.0803	0.001768	39064.8	1.599327	-2.061763	269.887	1.196520	0.073169	0.072793	267.838	39064.8	0.068026	0.156152	1715.24	90320.3
56	2.000000	1.199243	7.3656e+06	-41439.1	955.82	-29786.8	0.000000	0.000000	7.211167	285.208	NaN	0.000000	0.001621	0.001731	28.0989	72.632	0.001780	40802.3	3.557913	174.724	281.711	1.199066	0.075515	0.075339	285.208	40802.3	0.070273	0.165200	1726.45	91717.7
56	2.000000	1.201794	7.3656e+06	-41439.1	955.82	-29786.8	0.000000	0.000000	7.214409	302.007	NaN	0.000000	0.001605	0.001717	28.1322	74.1929	0.001834	40448.9	2.949418	-3.523035	297.481	1.201448	0.078067	0.077721	302.007	40448.9	0.072467	0.174270	1732.98	88525.5
56	2.000000	1.204310	7.3656e+06	-41439.1	955.82	-29786.8	0.000000	0.000000	7.217469	315.227	NaN	0.000000	0.001614	0.001735	28.0996	76.2443	0.001678	45439.1	5.056617	172.608	314.411	1.203981	0.080583	0.080254	315.227	45439.1	0.075380	0.186660	1688.77	96089.7
56	2.000000	1.206749	7.3656e+06	-41439.1	955.82	-29786.8	0.000000	0.000000	7.220420	327.709	NaN	0.000000	0.001634	0.001727	28.0809	78.8118	0.001791	44004.6	3.044667	-5.423521	321.994	1.206437	0.083022	0.082710	327.709	44004.6	0.077437	0.195648	1675	90893.7
56	2.000000	1.209218	7.3656e+06	-41439.1	955.819	-29786.8	0.000000	0.000000	7.223862	351.361	NaN	0.000000	0.001650	0.001734	28.098	80.7226	0.001763	45785.3	3.235567	174.284	347.04	1.208911	0.085491	0.085184	351.361	45785.3	0.079736	0.205931	1706.21	92180.4
56	2.000000	1.211797	7.3656e+06	-41439.1	955.819	-29786.8	0.000000	0.000000	7.227189	369.568	NaN	0.000000	0.001635	0.001733	28.13	83.1083	0.001842	45127.3	5.410903	-7.268351	366.094	1.211388	0.088070	0.087660	369.568	45127.3	0.081928	0.215965	1711.24	88719.8
56	2.000000	1.214284	7.3656e+06	-41439.1	955.82	-29786.8	0.000000	0.000000	7.230465	388.772	NaN	0.000000	0.001593	0.001766	28.0982	85.8829	0.001940	44264.2	4.807980	173.516	388.398	1.213922	0.090557	0.090194	388.772	44264.2	0.083970	0.225511	1723.96	85161.3
56	2.000000	1.216813	7.3656e+06	-41439.1	955.819	-29786.8	0.000000	0.000000	7.233584	403.156	NaN	0.000000	0.001613	0.001778	28.0808	88.3329	0.001849	47761.5	6.730406	-9.399565	401.831	1.216498	0.093085	0.092770	403.156	47761.5	0.086755	0.238843	1687.95	89288.3
56	2.000000	1.219293	7.3656e+06	-41439.1	955.82	-29786.8	0.000000	0.000000	7.237093	428.182	NaN	0.000000	0.001614	0.001741	28.097	90.7105	0.001837	49366.9	4.140192	173.041	427.697	1.219000	0.095566	0.095273	428.182	49366.9	0.089060	0.250152	1711.69	90179.4
56	2.000000	1.221745	7.3656e+06	-41439.1	955.82	-29786.8	0.000000	0.000000	7.240552	452.685	NaN	0.000000	0.001663	0.001789	28.1315	92.4526	0.001935	47781.9	6.033314	-8.190158	446.4	1.221342	0.098018	0.097615	452.685	47781.9	0.090912	0.259410	1745.06	85712.2
56	2.000000	1.224192	7.3656e+06	-41439.1	955.82	-29786.8	0.000000	0.000000	7.243772	471.475	NaN	0.000000	0.001606	0.001772	28.0983	93.4083	0.001825	51185	2.916829	174.025	465.189	1.223891	0.100465	0.100164	471.475	51185	0.093557	0.272903	1727.63	89518.3
56	2.000000	1.226744	7.3656e+06	-41439.1	955.819	-29786.8	0.000000	0.000000	7.247245	493.895	NaN	0.000000	0.001647	0.001779	28.0793	96.1227	0.001785	53863.9	4.766947	-7.940866	489.446	1.226396	0.103017	0.102669	493.895	53863.9	0.096140	0.286394	1724.53	91957.9
56	2.000000	1.229261	7.3656e+06	-41439.1	955.82	-29786.8	0.000000	0.000000	7.250936	522.463	NaN	0.000000	0.001623	0.001774	28.0955	98.217	0.001767	55583.8	3.652111	173.277	520.898	1.228889	0.105534	0.105162	522.463	55583.8	0.098484	0.298900	1747.95	92887.7
56	2.000000	1.230455	7.3656e+06	-41439.1	955.82	-29786.8	0.000000	0.000000	7.252052	520.558	NaN	0.000000	0.001601	0.001764	28.0981	98.5151	0.001673	58901.4	3.341729	173.178	528.206	1.229974	0.106728	0.106246	520.558	58901.4	0.100100	0.307663	1691.98	97020.1