File: remote_trans/data/nanoindenter/0828-1/data/Data_2025-08-06,11h17m57s/2025-07-22_16-23-58_1_1018.txt
2025-07-22, 16:23:58, 1
Index	Phase	Displacement	Time	Pos X	Pos Y	Pos Z	Rot A	Rot B	Piezo Z	Force A	Force B	Gripper	Voltage A	Voltage B	Temperature	Amplitude force	Amplitude pos	Stiffness	Phase shift	Phase excitation	Force A raw	Displacement raw	HMax	HMax raw	Real Force	Real Stiffness	Contact Depth	Area	Hardness	Reduced Mod.
[#]	[#]	[um]	[s]	[um]	[um]	[um]	[m°]	[m°]	[um]	[uN]	[uN]	[V]	[V]	[V]	[°C]	[uN]	[um]	[N/m]	[°]	[°]	[uN]	[um]	[um]	[um]	[uN]	[N/m]	[um]	[um^2]	[MPa]	[MPa]
1018	1.000000	0.002673	7.375e+06	-51039.1	1055.82	-29753.4	0.000000	0.000000	6.002799	0.020538	NaN	0.000000	0.001595	0.001641	28.085	0.077475	0.000920	84.2403	154.501	-174.485	0.061912	0.001452	-1.228024	-1.229245	0.020538	84.2403	-1.228206	-2.620215E+16	-7.838406E-19	NaN
1018	1.000000	0.012729	7.375e+06	-51039.1	1055.82	-29753.4	0.000000	0.000000	6.012851	-0.066392	NaN	0.000000	0.001547	0.001683	28.085	0.001384	0.001360	1.018296	-96.3192	15.3316	0.028011	0.011326	-1.217968	-1.219371	-0.066392	1.018296	-1.169069	-4.230664E+15	1.569300E-17	NaN
1018	1.000000	0.022617	7.375e+06	-51039.1	1055.82	-29753.4	0.000000	0.000000	6.022741	-0.036720	NaN	0.000000	0.001587	0.001637	28.0847	0.067093	0.001660	40.4256	-69.2947	-162.184	-0.044341	0.021307	-1.208080	-1.209390	-0.036720	40.4256	-1.207399	-1.379796E+16	2.661257E-18	NaN
1018	1.000000	0.032638	7.375e+06	-51039.1	1055.82	-29753.4	0.000000	0.000000	6.032761	-0.062812	NaN	0.000000	0.001599	0.001656	28.0846	0.052979	0.002027	26.1343	10.169	13.1153	-0.077126	0.031316	-1.198059	-1.199381	-0.062812	26.1343	-1.196256	-9.786175E+15	6.418443E-18	NaN
1018	1.000000	0.042632	7.375e+06	-51039.1	1055.82	-29753.4	0.000000	0.000000	6.042752	-0.115043	NaN	0.000000	0.001570	0.001641	28.0849	0.062632	0.002008	31.1959	-59.6669	-163.66	-0.091131	0.041338	-1.188065	-1.189359	-0.115043	31.1959	-1.185300	-6.980174E+15	1.648133E-17	NaN
1018	1.000000	0.052648	7.37501e+06	-51039.1	1055.82	-29753.4	0.000000	0.000000	6.052771	-0.056207	NaN	0.000000	0.001579	0.001631	28.0836	0.049775	0.001915	25.9861	-121.03	14.7476	-0.018015	0.051281	-1.178049	-1.179416	-0.056207	25.9861	-1.176427	-5.308850E+15	1.058745E-17	NaN
1018	1.000000	0.062640	7.37501e+06	-51039.1	1055.82	-29753.4	0.000000	0.000000	6.062763	-0.031720	NaN	0.000000	0.001616	0.001655	28.0833	0.088163	0.002122	41.5566	9.653811	-162.335	-0.080856	0.061347	-1.168057	-1.169350	-0.031720	41.5566	-1.167485	-4.028878E+15	7.873222E-18	NaN
1018	1.000000	0.072612	7.37501e+06	-51039.1	1055.82	-29753.4	0.000000	0.000000	6.072735	-0.058308	NaN	0.000000	0.001536	0.001680	28.0834	0.076520	0.002057	37.2004	-118.874	16.5381	-0.091003	0.071267	-1.158085	-1.159430	-0.058308	37.2004	-1.156909	-2.906984E+15	2.005789E-17	NaN
1018	1.000000	0.082627	7.37501e+06	-51039.1	1055.82	-29753.4	0.000000	0.000000	6.082752	-0.003629	NaN	0.000000	0.001547	0.001655	28.0832	0.084009	0.001853	45.3355	-99.7062	-165.586	-0.002885	0.081349	-1.148070	-1.149348	-0.003629	45.3355	-1.148010	-2.208733E+15	1.643246E-18	NaN
1018	1.000000	0.092648	7.37501e+06	-51039.1	1055.82	-29753.4	0.000000	0.000000	6.092770	-0.073624	NaN	0.000000	0.001569	0.001669	28.0832	0.064790	0.001988	32.5968	-107.822	13.8703	0.020998	0.091269	-1.138049	-1.139428	-0.073624	32.5968	-1.136355	-1.541210E+15	4.777059E-17	NaN
1018	1.000000	0.102663	7.37501e+06	-51039.1	1055.82	-29753.4	0.000000	0.000000	6.102788	0.001055	NaN	0.000000	0.001559	0.001711	28.0834	0.117307	0.001815	64.641	121.242	-165.539	-0.008442	0.101340	-1.128034	-1.129357	0.001055	64.641	-1.128046	-1.192386E+15	-8.849073E-19	NaN
1018	1.000000	0.112689	7.37501e+06	-51039.1	1055.82	-29753.4	0.000000	0.000000	6.112815	0.030724	NaN	0.000000	0.001533	0.001713	28.0836	0.091200	0.002024	45.0614	106.512	12.9498	0.075742	0.111204	-1.118008	-1.119493	0.030724	45.0614	-1.118519	-8.883952E+14	-3.458321E-17	NaN
1018	1.000000	0.122645	7.37501e+06	-51039.1	1055.82	-29753.5	0.000000	0.000000	6.122770	-0.000437	NaN	0.000000	0.001560	0.001710	28.0835	0.087598	0.002081	42.0858	150.054	-162.953	-0.013551	0.121322	-1.108052	-1.109375	-0.000437	42.0858	-1.108044	-6.427428E+14	6.792864E-19	NaN
1018	1.000000	0.132628	7.37501e+06	-51039.1	1055.82	-29753.5	0.000000	0.000000	6.132752	-0.018552	NaN	0.000000	0.001589	0.001730	28.0834	0.041601	0.002157	19.2863	28.5025	18.6383	-0.134316	0.131330	-1.098070	-1.099367	-0.018552	19.2863	-1.097348	-4.618147E+14	4.017179E-17	NaN
1018	1.000000	0.142625	7.37501e+06	-51039.1	1055.82	-29753.5	0.000000	0.000000	6.142749	-0.031790	NaN	0.000000	0.001596	0.001656	28.0838	0.059914	0.002030	29.5184	-35.705	-160.935	-0.102540	0.141406	-1.088072	-1.089291	-0.031790	29.5184	-1.087265	-3.381285E+14	9.401711E-17	NaN
1018	1.000000	0.152664	7.37501e+06	-51039.1	1055.82	-29753.5	0.000000	0.000000	6.152787	-0.047112	NaN	0.000000	0.001549	0.001706	28.0835	0.017517	0.001776	9.861814	-103.171	10.3467	0.024940	0.151309	-1.078033	-1.079388	-0.047112	9.861814	-1.074450	-2.274955E+14	2.070891E-16	NaN
1018	1.000000	0.162642	7.37501e+06	-51039.1	1055.82	-29753.5	0.000000	0.000000	6.162765	-0.052389	NaN	0.000000	0.001572	0.001695	28.0835	0.127945	0.002038	62.769	-54.9117	-166.383	-0.014606	0.161355	-1.068055	-1.069342	-0.052389	62.769	-1.067429	-1.830832E+14	2.861468E-16	NaN
1018	1.000000	0.172666	7.37501e+06	-51039.1	1055.82	-29753.5	0.000000	0.000000	6.172789	-0.053078	NaN	0.000000	0.001557	0.001655	28.0836	0.035912	0.002053	17.4915	-10.4274	13.6744	-0.013320	0.171318	-1.058031	-1.059379	-0.053078	17.4915	-1.055755	-1.275782E+14	4.160413E-16	NaN
1018	1.000000	0.182691	7.37501e+06	-51039.1	1055.82	-29753.5	0.000000	0.000000	6.182813	-0.076640	NaN	0.000000	0.001568	0.001653	28.0835	0.079344	0.001998	39.7197	113.008	-165.227	-0.123047	0.181376	-1.048006	-1.049321	-0.076640	39.7197	-1.046559	-9.597472E+13	7.985405E-16	NaN
1018	1.000000	0.192699	7.37501e+06	-51039.1	1055.82	-29753.5	0.000000	0.000000	6.192825	0.022685	NaN	0.000000	0.001591	0.001642	28.0844	0.013637	0.001894	7.201706	122.917	11.1077	0.131375	0.191306	-1.037998	-1.039391	0.022685	7.201706	-1.040361	-7.921734E+13	-2.863667E-16	NaN
1018	1.000000	0.202719	7.37501e+06	-51039.1	1055.82	-29753.5	0.000000	0.000000	6.202842	-0.047577	NaN	0.000000	0.001594	0.001659	28.0845	0.160385	0.001948	82.3304	-59.7535	-164.852	-0.051821	0.201397	-1.027978	-1.029300	-0.047577	82.3304	-1.027544	-5.326580E+13	8.932031E-16	NaN
1018	1.000000	0.212670	7.37501e+06	-51039.1	1055.82	-29753.5	0.000000	0.000000	6.212798	0.090150	NaN	0.000000	0.001591	0.001644	28.0843	0.107381	0.002015	53.2886	-106.801	14.5574	0.052417	0.211351	-1.018027	-1.019346	0.090150	53.2886	-1.019296	-4.125558E+13	-2.185158E-15	NaN
1018	1.000000	0.222690	7.37501e+06	-51039.1	1055.82	-29753.5	0.000000	0.000000	6.222816	0.003284	NaN	0.000000	0.001645	0.001660	28.0847	0.099809	0.002157	46.262	-132.378	-166.252	-0.077239	0.221374	-1.008007	-1.009323	0.003284	46.262	-1.008060	-2.912526E+13	-1.127434E-16	NaN
1018	1.000000	0.232697	7.37501e+06	-51039.1	1055.82	-29753.5	0.000000	0.000000	6.232819	-0.079476	NaN	0.000000	0.001576	0.001692	28.0842	0.010659	0.001805	5.904331	-111.195	14.8053	-0.076184	0.231320	-0.998000	-0.999377	-0.079476	5.904331	-0.987904	-1.559145E+13	5.097422E-15	NaN
1018	1.000000	0.242702	7.37501e+06	-51039.1	1055.82	-29753.5	0.000000	0.000000	6.242823	-0.097955	NaN	0.000000	0.001595	0.001643	28.0843	0.063884	0.002059	31.0213	-127.486	-164.591	-0.122889	0.241419	-0.987995	-0.989278	-0.097955	31.0213	-0.985627	-1.452833E+13	6.742380E-15	NaN
1018	1.000000	0.252715	7.37501e+06	-51039.1	1055.82	-29753.5	0.000000	0.000000	6.252840	0.001254	NaN	0.000000	0.001599	0.001646	28.0842	0.047505	0.002126	22.3479	112.163	18.6226	-0.085851	0.251326	-0.977982	-0.979371	0.001254	22.3479	-0.978024	-1.147592E+13	-1.092543E-16	NaN
1018	1.000000	0.262694	7.37501e+06	-51039.1	1055.82	-29753.5	0.000000	0.000000	6.262821	0.036042	NaN	0.000000	0.001561	0.001639	28.0847	0.066734	0.001968	33.9092	18.0995	-160.918	-0.009478	0.261433	-0.968003	-0.969264	0.036042	33.9092	-0.968800	-8.619690E+12	-4.181338E-15	NaN
1018	1.000000	0.272724	7.37501e+06	-51039.1	1055.82	-29753.5	0.000000	0.000000	6.272846	-0.062378	NaN	0.000000	0.001604	0.001675	28.0843	0.083760	0.002009	41.6934	160.429	13.941	-0.027705	0.271299	-0.957973	-0.959398	-0.062378	41.6934	-0.956851	-5.948639E+12	1.048616E-14	NaN
1018	1.000000	0.282704	7.37501e+06	-51039.1	1055.82	-29753.5	0.000000	0.000000	6.282830	0.015382	NaN	0.000000	0.001632	0.001699	28.0845	0.126797	0.002041	62.1176	113.974	-162.507	-0.027971	0.281360	-0.947993	-0.949337	0.015382	62.1176	-0.948178	-4.544229E+12	-3.384891E-15	NaN
1018	1.000000	0.292732	7.37501e+06	-51039.1	1055.82	-29753.5	0.000000	0.000000	6.292854	-0.060451	NaN	0.000000	0.001631	0.001708	28.0847	0.186861	0.001909	97.9067	-105.348	13.6654	-0.106724	0.291325	-0.937965	-0.939372	-0.060451	97.9067	-0.937502	-3.261642E+12	1.853391E-14	NaN
1018	1.000000	0.302726	7.37501e+06	-51039.1	1055.82	-29753.5	0.000000	0.000000	6.302851	0.000980	NaN	0.000000	0.001636	0.001684	28.0847	0.053174	0.001936	27.4624	60.7206	-162.587	-0.107505	0.301451	-0.927971	-0.929246	0.000980	27.4624	-0.927998	-2.427607E+12	-4.037958E-16	NaN
1018	1.000000	0.312753	7.37501e+06	-51039.1	1055.82	-29753.5	0.000000	0.000000	6.312871	-0.171692	NaN	0.000000	0.001629	0.001653	28.0845	0.081132	0.002041	39.7424	104.588	15.3543	-0.067518	0.311338	-0.917944	-0.919359	-0.171692	39.7424	-0.914704	-1.605820E+12	1.069187E-13	NaN
1018	1.000000	0.322740	7.37501e+06	-51039.1	1055.82	-29753.5	0.000000	0.000000	6.322863	-0.031560	NaN	0.000000	0.001614	0.001639	28.0844	0.103087	0.001859	55.4639	-167.69	-169.131	-0.036297	0.321437	-0.907957	-0.909260	-0.031560	55.4639	-0.907531	-1.284721E+12	2.456579E-14	NaN
1018	1.000000	0.332733	7.37501e+06	-51039.1	1055.82	-29753.5	0.000000	0.000000	6.332856	-0.069916	NaN	0.000000	0.001617	0.001635	28.083	0.022406	0.001981	11.3112	91.5972	13.4763	-0.025256	0.331375	-0.897964	-0.899322	-0.069916	11.3112	-0.893328	-8.258438E+11	8.466031E-14	NaN
1018	1.000000	0.342749	7.37501e+06	-51039.1	1055.82	-29753.5	0.000000	0.000000	6.342872	-0.066830	NaN	0.000000	0.001620	0.001643	28.0832	0.041736	0.002071	20.1498	-134.699	-163.026	-0.076365	0.341393	-0.887948	-0.889304	-0.066830	20.1498	-0.885460	-6.464620E+11	1.033783E-13	NaN
1018	1.000000	0.352732	7.37501e+06	-51039.1	1055.82	-29753.5	0.000000	0.000000	6.352855	-0.044670	NaN	0.000000	0.001607	0.001651	28.0832	0.023136	0.002032	11.3839	-167.716	16.422	-0.117670	0.351427	-0.877965	-0.879270	-0.044670	11.3839	-0.875022	-4.670703E+11	9.563895E-14	NaN
1018	1.000000	0.362749	7.37501e+06	-51039.1	1055.82	-29753.5	0.000000	0.000000	6.362873	-0.035147	NaN	0.000000	0.001610	0.001679	28.0834	0.092782	0.002098	44.2275	124.898	-163.092	0.002905	0.361450	-0.867948	-0.869247	-0.035147	44.2275	-0.867352	-3.678047E+11	9.555793E-14	NaN
1018	1.000000	0.372747	7.37501e+06	-51039.1	1055.82	-29753.5	0.000000	0.000000	6.372872	0.004455	NaN	0.000000	0.001595	0.001665	28.0833	0.027045	0.001959	13.8066	-150.733	10.9875	0.012112	0.371398	-0.857951	-0.859299	0.004455	13.8066	-0.858193	-2.764749E+11	-1.611405E-14	NaN
1018	1.000000	0.382760	7.37501e+06	-51039.1	1055.82	-29753.5	0.000000	0.000000	6.382885	-0.004661	NaN	0.000000	0.001559	0.001649	28.0831	0.071841	0.001956	36.731	22.1688	-165.974	-0.092083	0.381473	-0.847937	-0.849224	-0.004661	36.731	-0.847842	-2.002221E+11	2.327989E-14	NaN
1018	1.000000	0.392783	7.37501e+06	-51039.1	1055.82	-29753.5	0.000000	0.000000	6.392910	0.056333	NaN	0.000000	0.001555	0.001650	28.0833	0.110181	0.002010	54.8121	-162.697	18.1736	0.096306	0.391397	-0.837914	-0.839300	0.056333	54.8121	-0.838685	-1.504792E+11	-3.743569E-13	NaN
1018	1.000000	0.402769	7.37501e+06	-51039.1	1055.82	-29753.5	0.000000	0.000000	6.402893	-0.013782	NaN	0.000000	0.001522	0.001663	28.0835	0.113232	0.002116	53.517	131.415	-167.479	-0.074343	0.401485	-0.827928	-0.829212	-0.013782	53.517	-0.827735	-1.069263E+11	1.288888E-13	NaN
1018	1.000000	0.412796	7.37501e+06	-51039.1	1055.82	-29753.5	0.000000	0.000000	6.412918	-0.071447	NaN	0.000000	0.001575	0.001674	28.0832	0.041887	0.002082	20.1231	-18.1963	16.0571	-0.067580	0.411420	-0.817901	-0.819277	-0.071447	20.1231	-0.815238	-7.238253E+10	9.870744E-13	NaN
1018	1.000000	0.422788	7.37501e+06	-51039.1	1055.82	-29753.5	0.000000	0.000000	6.422910	-0.075972	NaN	0.000000	0.001568	0.001644	28.0831	0.166300	0.002102	79.1039	-98.7951	-163.318	-0.085845	0.421533	-0.807909	-0.809164	-0.075972	79.1039	-0.807188	-5.628866E+10	1.349684E-12	NaN
1018	1.000000	0.432764	7.37501e+06	-51039.1	1055.82	-29753.5	0.000000	0.000000	6.432887	-0.049866	NaN	0.000000	0.001561	0.001628	28.0835	0.063788	0.001891	33.7396	129.284	14.0625	0.009693	0.431463	-0.797933	-0.799234	-0.049866	33.7396	-0.796824	-4.071450E+10	1.224778E-12	NaN
1018	1.000000	0.442764	7.37501e+06	-51039.1	1055.82	-29753.5	0.000000	0.000000	6.442887	-0.053819	NaN	0.000000	0.001501	0.001660	28.0831	0.028124	0.002209	12.7334	139.826	-166.201	-0.025780	0.441507	-0.787933	-0.789190	-0.053819	12.7334	-0.784764	-2.792248E+10	1.927441E-12	NaN
1018	1.000000	0.452817	7.37501e+06	-51039.1	1055.82	-29753.5	0.000000	0.000000	6.452938	-0.103868	NaN	0.000000	0.001576	0.001642	28.0834	0.057674	0.002102	27.432	-18.5262	14.6982	-0.070163	0.451490	-0.777880	-0.779207	-0.103868	27.432	-0.775040	-2.059815E+10	5.042611E-12	NaN
1018	1.000000	0.462804	7.37501e+06	-51039.1	1055.82	-29753.5	0.000000	0.000000	6.462928	-0.030448	NaN	0.000000	0.001561	0.001633	28.0844	0.118267	0.001950	60.6587	85.4998	-165.747	-0.010870	0.461522	-0.767893	-0.769175	-0.030448	60.6587	-0.767517	-1.627559E+10	1.870805E-12	NaN
1018	1.000000	0.472791	7.37501e+06	-51039.1	1055.82	-29753.5	0.000000	0.000000	6.472914	-0.066040	NaN	0.000000	0.001561	0.001597	28.0847	0.083344	0.002055	40.5548	-17.1062	16.0911	0.008816	0.471447	-0.757906	-0.759250	-0.066040	40.5548	-0.756684	-1.159292E+10	5.696576E-12	NaN
1018	1.000000	0.482797	7.37501e+06	-51039.1	1055.82	-29753.5	0.000000	0.000000	6.482921	-0.024845	NaN	0.000000	0.001598	0.001631	28.0844	0.144057	0.001945	74.0776	172.786	-167.445	-0.023202	0.481472	-0.747901	-0.749225	-0.024845	74.0776	-0.747649	-8.734047E+9	2.844647E-12	NaN
1018	1.000000	0.492819	7.37501e+06	-51039.1	1055.82	-29753.5	0.000000	0.000000	6.492942	-0.032505	NaN	0.000000	0.001589	0.001634	28.0848	0.047004	0.002023	23.2333	-56.823	18.5133	-0.031602	0.491415	-0.737879	-0.739282	-0.032505	23.2333	-0.736829	-6.221059E+9	5.225017E-12	NaN
1018	1.000000	0.502852	7.37501e+06	-51039.1	1055.82	-29753.5	0.000000	0.000000	6.502976	-0.011558	NaN	0.000000	0.001607	0.001652	28.0847	0.110649	0.002044	54.1249	-166.461	-165.231	-0.024357	0.501512	-0.727845	-0.729185	-0.011558	54.1249	-0.727685	-4.669337E+9	2.475192E-12	NaN
1018	1.000000	0.512815	7.37501e+06	-51039.1	1055.82	-29753.5	0.000000	0.000000	6.512938	-0.057013	NaN	0.000000	0.001573	0.001663	28.0846	0.076158	0.001934	39.3757	-128.521	14.6751	-0.020201	0.511420	-0.717882	-0.719277	-0.057013	39.3757	-0.716796	-3.317217E+9	1.718691E-11	NaN
1018	1.000000	0.522789	7.37501e+06	-51039.1	1055.82	-29753.5	0.000000	0.000000	6.522915	0.016113	NaN	0.000000	0.001564	0.001696	28.0844	0.061088	0.002037	29.9954	142.433	-165.605	0.021891	0.521508	-0.707908	-0.709189	0.016113	29.9954	-0.708311	-2.540925E+9	-6.341471E-12	NaN
1018	1.000000	0.532803	7.37501e+06	-51039.1	1055.82	-29753.5	0.000000	0.000000	6.532929	0.011762	NaN	0.000000	0.001580	0.001650	28.0844	0.067534	0.001862	36.2606	-55.26	13.8632	-0.063794	0.531441	-0.697894	-0.699257	0.011762	36.2606	-0.698137	-1.845381E+9	-6.373835E-12	NaN
1018	1.000000	0.542861	7.37501e+06	-51039.1	1055.82	-29753.5	0.000000	0.000000	6.542983	-0.086015	NaN	0.000000	0.001575	0.001630	28.0845	0.070186	0.002033	34.5252	-128.759	-165.068	-0.047085	0.541468	-0.687836	-0.689229	-0.086015	34.5252	-0.685967	-1.258346E+9	6.835590E-11	NaN
1018	1.000000	0.552837	7.37501e+06	-51039.1	1055.82	-29753.5	0.000000	0.000000	6.552960	-0.060040	NaN	0.000000	0.001573	0.001653	28.0845	0.099264	0.001877	52.8809	91.7657	10.6834	-0.059109	0.551430	-0.677860	-0.679267	-0.060040	52.8809	-0.677008	-9.490409E+8	6.326377E-11	NaN
1018	1.000000	0.562854	7.37501e+06	-51039.1	1055.82	-29753.5	0.000000	0.000000	6.562977	-0.037136	NaN	0.000000	0.001597	0.001652	28.0845	0.078131	0.002052	38.0768	95.024	-164.965	-0.012366	0.561540	-0.667843	-0.669157	-0.037136	38.0768	-0.667112	-6.947921E+8	5.344932E-11	NaN
1018	1.000000	0.572836	7.37501e+06	-51039.1	1055.82	-29753.5	0.000000	0.000000	6.572956	-0.106930	NaN	0.000000	0.001604	0.001640	28.0847	0.149519	0.002019	74.0615	141.143	11.509	-0.096544	0.571481	-0.657861	-0.659216	-0.106930	74.0615	-0.656778	-5.015752E+8	2.131892E-10	NaN
1018	1.000000	0.582824	7.37501e+06	-51039.1	1055.82	-29753.5	0.000000	0.000000	6.582947	-0.048463	NaN	0.000000	0.001621	0.001668	28.0843	0.015052	0.001908	7.890010	-23.7194	-166.918	-0.037449	0.581507	-0.647873	-0.649190	-0.048463	7.890010	-0.643267	-3.274187E+8	1.480153E-10	NaN
1018	1.000000	0.592834	7.37501e+06	-51039.1	1055.82	-29753.5	0.000000	0.000000	6.592959	-0.011932	NaN	0.000000	0.001629	0.001645	28.0848	0.106440	0.002066	51.5219	-35.6766	13.601	-0.053269	0.591455	-0.637863	-0.639242	-0.011932	51.5219	-0.637689	-2.745262E+8	4.346286E-11	NaN
1018	1.000000	0.602873	7.37501e+06	-51039.1	1055.82	-29753.5	0.000000	0.000000	6.602996	-0.038088	NaN	0.000000	0.001694	0.001694	28.0831	0.083041	0.001982	41.9016	-160.74	-168.216	-0.070236	0.601558	-0.627824	-0.629139	-0.038088	41.9016	-0.627143	-1.966880E+8	1.936476E-10	NaN
1018	1.000000	0.612880	7.37501e+06	-51039.1	1055.82	-29753.5	0.000000	0.000000	6.613005	-0.015284	NaN	0.000000	0.001685	0.001663	28.0834	0.033919	0.002036	16.6627	-46.9197	13.3549	-0.011145	0.611503	-0.617817	-0.619194	-0.015284	16.6627	-0.617129	-1.432721E+8	1.066773E-10	NaN
1018	1.000000	0.622843	7.37501e+06	-51039.1	1055.82	-29753.5	0.000000	0.000000	6.622968	-0.010689	NaN	0.000000	0.001685	0.001649	28.0834	0.148849	0.002176	68.4064	-69.6044	-165.776	0.043198	0.621566	-0.607854	-0.609131	-0.010689	68.4064	-0.607737	-1.064081E+8	1.004554E-10	NaN
1018	1.000000	0.632887	7.37501e+06	-51039.1	1055.82	-29753.5	0.000000	0.000000	6.633012	0.004970	NaN	0.000000	0.001717	0.001578	28.0833	0.075335	0.001981	38.0231	76.4722	9.690853	0.029962	0.631489	-0.597810	-0.599208	0.004970	38.0231	-0.597908	-7.791957E+7	-6.378213E-11	NaN
1018	1.000000	0.642884	7.37501e+06	-51039.1	1055.82	-29753.5	0.000000	0.000000	6.643007	-0.036850	NaN	0.000000	0.001593	0.001659	28.0833	0.147273	0.001975	74.5602	-113.157	-165.809	-0.067985	0.641560	-0.587813	-0.589137	-0.036850	74.5602	-0.587443	-5.589886E+7	6.592184E-10	NaN
1018	1.000000	0.652883	7.37501e+06	-51039.1	1055.82	-29753.5	0.000000	0.000000	6.653007	-0.017542	NaN	0.000000	0.001557	0.001643	28.0831	0.030947	0.002025	15.2837	-79.5853	14.7793	0.046011	0.651536	-0.577814	-0.579161	-0.017542	15.2837	-0.576953	-4.005639E+7	4.379225E-10	NaN
1018	1.000000	0.662882	7.37501e+06	-51039.1	1055.82	-29753.5	0.000000	0.000000	6.663005	-0.045360	NaN	0.000000	0.001576	0.001634	28.0832	0.092855	0.002085	44.532	172.387	-165.74	-0.049872	0.661590	-0.567815	-0.569107	-0.045360	44.532	-0.567051	-2.923374E+7	1.551645E-9	NaN
1018	1.000000	0.672895	7.37501e+06	-51039.1	1055.82	-29753.5	0.000000	0.000000	6.673017	-0.068173	NaN	0.000000	0.001547	0.001619	28.0831	0.075524	0.001845	40.9398	137.414	10.2027	-0.054153	0.671503	-0.557802	-0.559194	-0.068173	40.9398	-0.556553	-2.092615E+7	3.257768E-9	NaN
1018	1.000000	0.682902	7.37501e+06	-51039.1	1055.82	-29753.5	0.000000	0.000000	6.683024	-0.069140	NaN	0.000000	0.001547	0.001657	28.0835	0.030031	0.002009	14.9474	-51.0136	-165.533	-0.038068	0.681576	-0.547795	-0.549121	-0.069140	14.9474	-0.544326	-1.416896E+7	4.879676E-9	NaN
1018	1.000000	0.692891	7.37501e+06	-51039.1	1055.82	-29753.5	0.000000	0.000000	6.693015	-0.016803	NaN	0.000000	0.001551	0.001654	28.0833	0.076612	0.002147	35.6858	153.946	10.1777	-0.010092	0.691537	-0.537806	-0.539160	-0.016803	35.6858	-0.537453	-1.137713E+7	1.476940E-9	NaN
1018	1.000000	0.702899	7.37501e+06	-51039.1	1055.82	-29753.5	0.000000	0.000000	6.703023	-0.025159	NaN	0.000000	0.001547	0.001647	28.0836	0.034928	0.002033	17.1806	-108.164	-166.099	0.009845	0.701626	-0.527799	-0.529071	-0.025159	17.1806	-0.526700	-8.06748e+06	3.118559E-9	NaN
1018	1.000000	0.712924	7.37501e+06	-51039.1	1055.82	-29753.5	0.000000	0.000000	6.713050	0.005625	NaN	0.000000	0.001530	0.001633	28.0835	0.041620	0.002047	20.3366	169.099	12.9256	-0.060088	0.711503	-0.517773	-0.519194	0.005625	20.3366	-0.517980	-6.10244e+06	-9.217940E-10	NaN
1018	1.000000	0.722910	7.37501e+06	-51039.1	1055.82	-29753.5	0.000000	0.000000	6.723036	0.020122	NaN	0.000000	0.001550	0.001650	28.0837	0.067709	0.002075	32.628	-48.783	-166.585	-0.065751	0.721628	-0.507787	-0.509069	0.020122	32.628	-0.508249	-4.46709e+06	-4.504428E-9	NaN
1018	1.000000	0.732888	7.37501e+06	-51039.1	1055.82	-29753.5	0.000000	0.000000	6.733010	-0.066120	NaN	0.000000	0.001581	0.001662	28.0835	0.072627	0.002041	35.5767	-145.534	18.1749	-0.035082	0.731499	-0.497809	-0.499198	-0.066120	35.5767	-0.496415	-3.05486e+06	2.164433E-8	NaN
1018	1.000000	0.742927	7.37501e+06	-51039.1	1055.82	-29753.5	0.000000	0.000000	6.743049	-0.062437	NaN	0.000000	0.001673	0.001639	28.0849	0.055108	0.002004	27.4944	-78.6247	-167.936	-0.046682	0.741609	-0.487771	-0.489088	-0.062437	27.4944	-0.486067	-2.18987e+06	2.851165E-8	NaN
1018	1.000000	0.752910	7.37501e+06	-51039.1	1055.82	-29753.5	0.000000	0.000000	6.753031	-0.095045	NaN	0.000000	0.001667	0.001609	28.085	0.030743	0.002101	14.6328	-174.748	13.3765	-0.114689	0.751558	-0.477787	-0.479139	-0.095045	14.6328	-0.472916	-1.43315e+06	6.631911E-8	NaN
1018	1.000000	0.762900	7.37501e+06	-51039.1	1055.82	-29753.5	0.000000	0.000000	6.763025	0.014519	NaN	0.000000	0.001651	0.001626	28.0847	0.080607	0.002027	39.7725	38.1912	-166.779	-0.037060	0.761617	-0.467797	-0.469080	0.014519	39.7725	-0.468071	-1.22561e+06	-1.184660E-8	NaN
1018	1.000000	0.772895	7.37501e+06	-51039.1	1055.82	-29753.5	0.000000	0.000000	6.773018	-0.059556	NaN	0.000000	0.001571	0.001621	28.0847	0.062746	0.001942	32.3176	-100.674	13.9871	-0.108840	0.771521	-0.457802	-0.459176	-0.059556	32.3176	-0.456419	-840781	7.083446E-8	NaN
1018	1.000000	0.782942	7.37501e+06	-51039.1	1055.82	-29753.5	0.000000	0.000000	6.783065	-0.046377	NaN	0.000000	0.001569	0.001617	28.0846	0.054832	0.002088	26.2619	110.724	-162.813	-0.049447	0.781609	-0.447755	-0.449088	-0.046377	26.2619	-0.446431	-608223	7.625076E-8	NaN
1018	1.000000	0.792912	7.37501e+06	-51039.1	1055.82	-29753.5	0.000000	0.000000	6.793037	-0.006095	NaN	0.000000	0.001620	0.001649	28.0848	0.124630	0.001949	63.9518	-0.985999	10.8172	0.022269	0.791552	-0.437785	-0.439145	-0.006095	63.9518	-0.437714	-458237	1.330154E-8	NaN
1018	1.000000	0.802919	7.37501e+06	-51039.1	1055.82	-29753.5	0.000000	0.000000	6.803042	-0.038962	NaN	0.000000	0.001585	0.001659	28.0844	0.069849	0.002083	33.5328	-159.613	-165.21	-0.035901	0.801589	-0.427779	-0.429108	-0.038962	33.5328	-0.426907	-322322	1.208796E-7	NaN
1018	1.000000	0.812947	7.37501e+06	-51039.1	1055.82	-29753.5	0.000000	0.000000	6.813070	-0.062672	NaN	0.000000	0.001583	0.001655	28.0845	0.056159	0.002050	27.3976	-54.2371	14.1991	0.006867	0.811597	-0.417750	-0.419100	-0.062672	27.3976	-0.416034	-226017	2.772874E-7	NaN
1018	1.000000	0.822961	7.37501e+06	-51039.1	1055.82	-29753.5	0.000000	0.000000	6.823085	-0.023004	NaN	0.000000	0.001611	0.001637	28.0846	0.064526	0.001955	33.0075	-92.9567	-168.846	-0.052179	0.821646	-0.407736	-0.409051	-0.023004	33.0075	-0.407213	-169338	1.358435E-7	NaN
1018	1.000000	0.832958	7.37501e+06	-51039.1	1055.82	-29753.5	0.000000	0.000000	6.833079	-0.105731	NaN	0.000000	0.001569	0.001710	28.0845	0.110323	0.002001	55.1341	109.443	12.7431	-0.065128	0.831598	-0.397739	-0.399099	-0.105731	55.1341	-0.396301	-118362	8.932854E-7	NaN
1018	1.000000	0.842947	7.37501e+06	-51039.1	1055.82	-29753.5	0.000000	0.000000	6.843071	-0.039799	NaN	0.000000	0.001571	0.001701	28.0845	0.077126	0.001958	39.3829	61.4772	-167.889	-0.024555	0.841677	-0.387750	-0.389020	-0.039799	39.3829	-0.386992	-87119.1	4.568398E-7	NaN
1018	1.000000	0.852971	7.37501e+06	-51039.1	1055.82	-29753.5	0.000000	0.000000	6.853092	-0.095386	NaN	0.000000	0.001585	0.001658	28.0845	0.018959	0.001975	9.600616	-16.0973	10.5024	-0.080823	0.851641	-0.377726	-0.379056	-0.095386	9.600616	-0.370274	-50127.8	1.902856E-6	NaN
1018	1.000000	0.862959	7.37501e+06	-51039.1	1055.82	-29753.5	0.000000	0.000000	6.863081	-0.056916	NaN	0.000000	0.001612	0.001664	28.0845	0.038265	0.001945	19.6704	-84.002	-168.108	-0.050685	0.861604	-0.367738	-0.369093	-0.056916	19.6704	-0.365568	-42879.8	1.327337E-6	NaN
1018	1.000000	0.872993	7.37501e+06	-51039.1	1055.82	-29753.5	0.000000	0.000000	6.873119	0.017433	NaN	0.000000	0.001593	0.001639	28.0832	0.055427	0.001932	28.6945	-152.577	16.1867	-0.051857	0.871607	-0.357704	-0.359090	0.017433	28.6945	-0.358160	-33514.4	-5.201762E-7	NaN
1018	1.000000	0.882960	7.37501e+06	-51039.1	1055.82	-29753.5	0.000000	0.000000	6.883083	-0.056920	NaN	0.000000	0.001565	0.001651	28.083	0.054861	0.001973	27.8091	-157.144	-167.552	-0.014857	0.881694	-0.347737	-0.349004	-0.056920	27.8091	-0.346202	-22481.8	2.531825E-6	NaN
1018	1.000000	0.892975	7.37501e+06	-51039.1	1055.82	-29753.5	0.000000	0.000000	6.893096	-0.110558	NaN	0.000000	0.001566	0.001684	28.0832	0.060090	0.002032	29.5647	159.607	13.3071	-0.125694	0.891648	-0.337722	-0.339049	-0.110558	29.5647	-0.334917	-15394.9	7.181420E-6	NaN
1018	1.000000	0.903001	7.37501e+06	-51039.1	1055.82	-29753.5	0.000000	0.000000	6.903125	-0.039934	NaN	0.000000	0.001567	0.001693	28.0833	0.108977	0.002037	53.4958	-148.883	-168.44	-0.027516	0.901657	-0.327696	-0.329041	-0.039934	53.4958	-0.327136	-11843.5	3.371799E-6	NaN
1018	1.000000	0.912972	7.37501e+06	-51039.1	1055.82	-29753.5	0.000000	0.000000	6.913097	0.013247	NaN	0.000000	0.001652	0.001630	28.0832	0.061701	0.001988	31.0424	-152.754	10.8552	-0.001330	0.911604	-0.317725	-0.319093	0.013247	31.0424	-0.318045	-8706.7	-1.521439E-6	NaN
1018	1.000000	0.922972	7.37501e+06	-51039.1	1055.82	-29753.5	0.000000	0.000000	6.923098	0.016122	NaN	0.000000	0.001600	0.001642	28.0832	0.055932	0.002063	27.1102	24.9238	-165.878	-0.001343	0.921705	-0.307725	-0.308992	0.016122	27.1102	-0.308171	-6222.68	-2.590801E-6	NaN
1018	1.000000	0.932980	7.37501e+06	-51039.1	1055.82	-29753.5	0.000000	0.000000	6.933102	-0.079659	NaN	0.000000	0.001680	0.001662	28.0835	0.090380	0.002061	43.8471	0.004894	13.4976	-0.132327	0.931652	-0.297717	-0.299045	-0.079659	43.8471	-0.296355	-4152.48	1.918353E-5	NaN
1018	1.000000	0.943003	7.37501e+06	-51039.1	1055.82	-29753.5	0.000000	0.000000	6.943127	-0.029452	NaN	0.000000	0.001687	0.001667	28.0832	0.102365	0.001993	51.3523	99.4598	-167.979	-0.033444	0.941684	-0.287694	-0.289013	-0.029452	51.3523	-0.287264	-3035.81	9.701529E-6	NaN
1018	1.000000	0.952994	7.37501e+06	-51039.1	1055.82	-29753.5	0.000000	0.000000	6.953122	0.060789	NaN	0.000000	0.001670	0.001641	28.0834	0.012997	0.001877	6.923880	-164.121	15.4655	-0.010968	0.951633	-0.277703	-0.279064	0.060789	6.923880	-0.284288	-2738.76	-2.219595E-5	NaN
1018	1.000000	0.962988	7.37501e+06	-51039.1	1055.82	-29753.5	0.000000	0.000000	6.963111	-0.041849	NaN	0.000000	0.001576	0.001668	28.0831	0.079440	0.002135	37.2092	139.354	-164.407	-0.026903	0.961703	-0.267709	-0.268994	-0.041849	37.2092	-0.266866	-1492.24	2.804426E-5	NaN
1018	1.000000	0.972985	7.37501e+06	-51039.1	1055.82	-29753.5	0.000000	0.000000	6.973108	-0.038154	NaN	0.000000	0.001588	0.001626	28.0834	0.065993	0.002216	29.7784	-72.3456	13.5879	-0.043778	0.971675	-0.257712	-0.259022	-0.038154	29.7784	-0.256751	-1044.86	3.651640E-5	NaN
1018	1.000000	0.983021	7.37501e+06	-51039.1	1055.82	-29753.5	0.000000	0.000000	6.983141	-0.114391	NaN	0.000000	0.001607	0.001631	28.0833	0.076457	0.001936	39.4831	-177.885	-164.907	-0.169824	0.981705	-0.247676	-0.248992	-0.114391	39.4831	-0.245503	-700.276	0.000163	NaN
1018	1.000000	0.993013	7.37501e+06	-51039.1	1055.82	-29753.5	0.000000	0.000000	6.993138	-0.002312	NaN	0.000000	0.001586	0.001651	28.0835	0.045554	0.001989	22.9005	49.5179	12.0175	0.080963	0.991683	-0.237684	-0.239014	-0.002312	22.9005	-0.237609	-527.419	4.383433E-6	NaN
1018	1.000000	1.003039	7.37501e+06	-51039.1	1055.82	-29753.5	0.000000	0.000000	7.003164	0.002740	NaN	0.000000	0.001582	0.001659	28.0835	0.066123	0.001922	34.4035	15.8375	-167.027	0.017896	1.001702	-0.227658	-0.228995	0.002740	34.4035	-0.227718	-368.494	-7.435629E-6	NaN
1018	1.000000	1.013022	7.37501e+06	-51039.1	1055.82	-29753.5	0.000000	0.000000	7.013146	-0.035310	NaN	0.000000	0.001561	0.001650	28.0847	0.041161	0.001966	20.9394	-56.7012	12.257	-0.005049	1.011667	-0.217675	-0.219030	-0.035310	20.9394	-0.216410	-243.319	0.000145	NaN
1018	1.000000	1.023038	7.37501e+06	-51039.1	1055.82	-29753.5	0.000000	0.000000	7.023160	-0.066064	NaN	0.000000	0.001585	0.001644	28.0845	0.121358	0.002028	59.8406	152.061	-165.614	-0.049899	1.021723	-0.207659	-0.208974	-0.066064	59.8406	-0.206831	-170.369	0.000388	NaN
1018	1.000000	1.033030	7.37501e+06	-51039.1	1055.82	-29753.5	0.000000	0.000000	7.033152	-0.074484	NaN	0.000000	0.001623	0.001628	28.0847	0.020637	0.002048	10.0782	-166.696	14.0969	-0.075749	1.031630	-0.197667	-0.199067	-0.074484	10.0782	-0.192124	-97.5989	0.000763	NaN
1018	1.000000	1.043058	7.37501e+06	-51039.1	1055.82	-29753.5	0.000000	0.000000	7.043181	-0.033233	NaN	0.000000	0.001604	0.001639	28.0845	0.090858	0.002005	45.3054	54.3974	-164.915	-0.082744	1.041764	-0.187639	-0.188934	-0.033233	45.3054	-0.187089	-80.4043	0.000413	NaN
1018	1.000000	1.053033	7.37501e+06	-51039.1	1055.82	-29753.5	0.000000	0.000000	7.053158	0.008083	NaN	0.000000	0.001570	0.001631	28.0846	0.114125	0.002172	52.5424	137.572	12.4143	-0.065626	1.051651	-0.177664	-0.179046	0.008083	52.5424	-0.177780	-55.9252	-0.000145	NaN
1018	1.000000	1.063046	7.37501e+06	-51039.1	1055.82	-29753.5	0.000000	0.000000	7.063169	-0.059865	NaN	0.000000	0.001567	0.001619	28.0845	0.045914	0.001995	23.0169	-132.988	-167.429	-0.091712	1.061723	-0.167651	-0.168974	-0.059865	23.0169	-0.165700	-34.5613	0.001732	NaN
1018	1.000000	1.073018	7.37501e+06	-51039.1	1055.82	-29753.5	0.000000	0.000000	7.073142	-0.045103	NaN	0.000000	0.001545	0.001645	28.0846	0.062969	0.001956	32.1972	-80.7125	13.643	-0.088396	1.071694	-0.157679	-0.159003	-0.045103	32.1972	-0.156628	-23.8681	0.001890	NaN
1018	1.000000	1.083074	7.37501e+06	-51039.1	1055.82	-29753.5	0.000000	0.000000	7.083195	-0.103173	NaN	0.000000	0.001542	0.001657	28.0847	0.088966	0.002059	43.2142	149.29	-164.281	-0.074801	1.081759	-0.147623	-0.148938	-0.103173	43.2142	-0.145833	-15.1899	0.006792	NaN
1018	1.000000	1.093057	7.37501e+06	-51039.1	1055.82	-29753.5	0.000000	0.000000	7.093179	-0.070332	NaN	0.000000	0.001564	0.001652	28.0847	0.068414	0.001994	34.3145	172.204	17.0722	-0.007716	1.091698	-0.137641	-0.138999	-0.070332	34.3145	-0.136103	-9.984241	0.007044	NaN
1018	1.000000	1.103058	7.37501e+06	-51039.1	1055.82	-29753.5	0.000000	0.000000	7.103182	-0.034990	NaN	0.000000	0.001519	0.001661	28.0846	0.065924	0.001975	33.3735	-83.1294	-167.242	-0.050183	1.101734	-0.127639	-0.128963	-0.034990	33.3735	-0.126852	-6.614833	0.005290	NaN
1018	1.000000	1.113058	7.37501e+06	-51039.1	1055.82	-29753.5	0.000000	0.000000	7.113182	-0.024173	NaN	0.000000	0.001542	0.001630	28.0847	0.080471	0.001918	41.9515	-133.219	16.293	-0.002431	1.111713	-0.117639	-0.118984	-0.024173	41.9515	-0.117207	-4.240171	0.005701	NaN
1018	1.000000	1.123058	7.37501e+06	-51039.1	1055.82	-29753.5	0.000000	0.000000	7.123184	0.010418	NaN	0.000000	0.001553	0.001643	28.0844	0.043467	0.001985	21.8934	160.875	-163.799	-0.057497	1.121760	-0.107639	-0.108937	0.010418	21.8934	-0.107996	-2.725305	-0.003823	NaN
1018	1.000000	1.133053	7.37501e+06	-51039.1	1055.82	-29753.5	0.000000	0.000000	7.133176	-0.063973	NaN	0.000000	0.001537	0.001631	28.0844	0.045644	0.002015	22.6577	64.1906	13.9648	-0.088721	1.131704	-0.097644	-0.098993	-0.063973	22.6577	-0.095526	-1.450078	0.044117	NaN
1018	1.000000	1.143076	7.37501e+06	-51039.1	1055.82	-29753.5	0.000000	0.000000	7.143202	0.020837	NaN	0.000000	0.001524	0.001655	28.0844	0.075163	0.001855	40.5295	59.1697	-164.934	-0.109446	1.141724	-0.087621	-0.088973	0.020837	40.5295	-0.088006	-0.969965	-0.021483	NaN
1018	1.000000	1.153065	7.37501e+06	-51039.1	1055.82	-29753.5	0.000000	0.000000	7.153188	-0.039340	NaN	0.000000	0.001529	0.001619	28.0833	0.057520	0.002109	27.2741	160.097	11.9209	-0.022888	1.151742	-0.077632	-0.078955	-0.039340	27.2741	-0.076551	-0.506316	0.077699	NaN
1018	1.000000	1.163069	7.37501e+06	-51039.1	1055.82	-29753.5	0.000000	0.000000	7.163190	-0.103603	NaN	0.000000	0.001533	0.001639	28.0833	0.079638	0.001978	40.2638	104.809	-168.155	-0.122630	1.161808	-0.067628	-0.068890	-0.103603	40.2638	-0.065698	-0.260557	0.397623	NaN
1018	1.000000	1.173082	7.37501e+06	-51039.1	1055.82	-29753.5	0.000000	0.000000	7.173207	0.004599	NaN	0.000000	0.001539	0.001604	28.0834	0.047242	0.002006	23.5458	142.796	10.6623	-0.036508	1.171777	-0.057615	-0.058920	0.004599	23.5458	-0.057762	-0.155180	-0.029634	NaN
1018	1.000000	1.183090	7.37501e+06	-51039.1	1055.82	-29753.5	0.000000	0.000000	7.183216	0.010528	NaN	0.000000	0.001560	0.001636	28.0834	0.021166	0.002080	10.1736	12.8395	-167.583	0.042033	1.181771	-0.047607	-0.048926	0.010528	10.1736	-0.048383	-0.081508	-0.129167	NaN
1018	1.000000	1.193067	7.37501e+06	-51039.1	1055.82	-29753.5	0.000000	0.000000	7.193191	-0.027298	NaN	0.000000	0.001550	0.001659	28.0833	0.029817	0.001978	15.0744	-106.251	15.4416	-0.015000	1.191745	-0.037630	-0.038952	-0.027298	15.0744	-0.036272	-0.034926	0.781583	NaN
1018	1.000000	1.203124	7.37501e+06	-51039.1	1055.82	-29753.5	0.000000	0.000000	7.203244	-0.137702	NaN	0.000000	0.001546	0.001669	28.0833	0.103850	0.002061	50.3877	-60.8333	-165.852	-0.105043	1.201792	-0.027573	-0.028905	-0.137702	50.3877	-0.025523	-0.017411	7.908708	NaN
1018	1.000000	1.213106	7.37501e+06	-51039.1	1055.82	-29753.5	0.000000	0.000000	7.213227	-0.102729	NaN	0.000000	0.001576	0.001678	28.0833	0.144676	0.001942	74.5034	-100.711	15.6	-0.080910	1.211781	-0.017591	-0.018916	-0.102729	74.5034	-0.016557	-0.010230	10.0421	NaN
1018	1.000000	1.223127	7.37501e+06	-51039.1	1055.82	-29753.5	0.000000	0.000000	7.223254	0.035563	NaN	0.000000	0.001583	0.001689	28.0837	0.107027	0.001941	55.1351	20.3941	-164.962	-0.013067	1.221757	-0.007570	-0.008940	0.035563	55.1351	-0.008054	-0.005263	-6.757106	NaN
1018	1.000000	1.233058	7.37501e+06	-51039.1	1055.82	-29753.5	0.000000	0.000000	7.233462	6.782870	NaN	0.000000	0.001560	0.001677	28.0835	6.983142	0.001703	4100.88	11.5224	8.145136	4.921255	1.231690	0.002361	0.000993	6.782870	4100.88	0.001121	0.000856	7924.1	128061
1018	2.000000	1.236693	7.37501e+06	-51039.1	1055.82	-29753.5	0.000000	0.000000	7.237239	10.2414	NaN	0.000000	0.001588	0.001666	28.0835	10.2516	0.001604	6391.9	4.046699	-173.729	9.171632	1.236387	0.005996	0.005690	10.2414	6391.9	0.004794	0.003946	2595.09	92960.7
1018	2.000000	1.239240	7.37501e+06	-51039.1	1055.82	-29753.5	0.000000	0.000000	7.239939	13.9637	NaN	0.000000	0.001558	0.001690	28.0834	13.0323	0.001754	7429.87	15.838	-1.118828	15.0096	1.238863	0.008543	0.008166	13.9637	7429.87	0.007133	0.006166	2264.72	86449.4
1018	2.000000	1.241626	7.37501e+06	-51039.1	1055.82	-29753.5	0.000000	0.000000	7.242515	18.5547	NaN	0.000000	0.001570	0.001674	28.0833	15.6602	0.001752	8935.94	7.659404	-177.692	17.2627	1.241319	0.010929	0.010622	18.5547	8935.94	0.009372	0.008492	2184.99	88595.2
1018	2.000000	1.244162	7.37501e+06	-51039.1	1055.82	-29753.5	0.000000	0.000000	7.245235	23.0587	NaN	0.000000	0.001575	0.001690	28.0832	18.5515	0.001678	11058.8	8.091280	1.148501	23.6423	1.243732	0.013465	0.013035	23.0587	11058.8	0.011901	0.011372	2027.75	94748.1
1018	2.000000	1.246618	7.37501e+06	-51039.1	1055.82	-29753.5	0.000000	0.000000	7.247872	27.4469	NaN	0.000000	0.001596	0.001703	28.0844	22.5004	0.001838	12244.8	7.246454	-179.736	26.2049	1.246329	0.015921	0.015632	27.4469	12244.8	0.014240	0.014286	1921.3	93600.2
1018	2.000000	1.249139	7.37501e+06	-51039.1	1055.82	-29753.5	0.000000	0.000000	7.250788	37.0694	NaN	0.000000	0.001546	0.001708	28.0849	24.2053	0.001859	13020.6	7.310038	1.673513	35.3948	1.248723	0.018442	0.018026	37.0694	13020.6	0.016306	0.017067	2171.98	91059.2
1018	2.000000	1.251589	7.37501e+06	-51039.1	1055.82	-29753.5	0.000000	0.000000	7.253338	39.4786	NaN	0.000000	0.001571	0.001698	28.0842	26.7682	0.001660	16127.7	8.131909	177.049	38.9994	1.251303	0.020892	0.020606	39.4786	16127.7	0.019056	0.021081	1872.69	101484
1018	2.000000	1.254151	7.37501e+06	-51039.1	1055.82	-29753.5	0.000000	0.000000	7.256234	47.6057	NaN	0.000000	0.001536	0.001651	28.0846	28.9884	0.001857	15613.1	6.122879	0.486731	48.7713	1.253719	0.023454	0.023022	47.6057	15613.1	0.021168	0.024410	1950.24	91301
1018	2.000000	1.256556	7.37501e+06	-51039.1	1055.82	-29753.5	0.000000	0.000000	7.258824	52.102	NaN	0.000000	0.001556	0.001689	28.0843	31.721	0.001870	16961.5	3.535610	-179.84	49.9306	1.256356	0.025859	0.025659	52.102	16961.5	0.023555	0.028440	1832.02	91891.3
1018	2.000000	1.259100	7.37501e+06	-51039.1	1055.82	-29753.5	0.000000	0.000000	7.261706	60.3281	NaN	0.000000	0.001573	0.001671	28.0847	33.8016	0.001719	19666.9	7.549671	-4.450183	58.2768	1.258844	0.028403	0.028147	60.3281	19666.9	0.026103	0.033052	1825.23	98834.3
1018	2.000000	1.261620	7.37501e+06	-51039.1	1055.82	-29753.5	0.000000	0.000000	7.264696	71.7354	NaN	0.000000	0.001582	0.001674	28.0846	35.6028	0.001693	21033.5	1.489855	-178.506	72.6991	1.261265	0.030923	0.030568	71.7354	21033.5	0.028365	0.037424	1916.83	99336.6
1018	2.000000	1.264104	7.37501e+06	-51039.1	1055.82	-29753.5	0.000000	0.000000	7.267441	78.1048	NaN	0.000000	0.001571	0.001632	28.0844	39.9456	0.001927	20726.2	8.261711	-5.315953	77.3142	1.263727	0.033407	0.033030	78.1048	20726.2	0.030581	0.041957	1861.56	92447
1018	2.000000	1.266530	7.37501e+06	-51039.1	1055.82	-29753.5	0.000000	0.000000	7.270227	86.866	NaN	0.000000	0.001596	0.001640	28.0847	41.2124	0.001848	22298.7	3.802644	178.016	84.3846	1.266305	0.035833	0.035608	86.866	22298.7	0.032911	0.046994	1848.43	93979
1018	2.000000	1.269136	7.37501e+06	-51039.1	1055.82	-29753.5	0.000000	0.000000	7.273379	100.13	NaN	0.000000	0.001583	0.001674	28.0846	43.0995	0.001818	23711.8	5.920200	-3.462912	101.81	1.268653	0.038439	0.037956	100.13	23711.8	0.035272	0.052380	1911.59	94657
1018	2.000000	1.271539	7.37501e+06	-51039.1	1055.82	-29753.5	0.000000	0.000000	7.276138	108.809	NaN	0.000000	0.001619	0.001703	28.0844	44.6216	0.001717	25981	3.733394	177.339	105.983	1.271253	0.040842	0.040556	108.809	25981	0.037701	0.058221	1868.89	98375.8
1018	2.000000	1.274048	7.37501e+06	-51039.1	1055.82	-29753.5	0.000000	0.000000	7.279014	117.703	NaN	0.000000	0.001604	0.001675	28.0844	47.9204	0.001869	25635.5	0.935252	0.032918	114.3	1.273834	0.043351	0.043137	117.703	25635.5	0.039908	0.063790	1845.18	92734.4
1018	2.000000	1.276597	7.37501e+06	-51039.1	1055.82	-29753.5	0.000000	0.000000	7.281915	126.286	NaN	0.000000	0.001571	0.001656	28.0846	51.005	0.001920	26570.4	4.765185	175.812	125.928	1.276342	0.045900	0.045645	126.286	26570.4	0.042335	0.070202	1798.89	91621.3
1018	2.000000	1.279066	7.37501e+06	-51039.1	1055.82	-29753.5	0.000000	0.000000	7.285054	142.587	NaN	0.000000	0.001571	0.001642	28.0845	52.4097	0.001784	29374.7	4.967391	-4.824181	139.31	1.278767	0.048369	0.048069	142.587	29374.7	0.044728	0.076817	1856.19	96831.9
1018	2.000000	1.281501	7.37501e+06	-51039.1	1055.82	-29753.5	0.000000	0.000000	7.288038	155.918	NaN	0.000000	0.001605	0.001666	28.0833	54.7936	0.001815	30188.8	5.257803	174.98	152.921	1.281214	0.050804	0.050517	155.918	30188.8	0.046930	0.083161	1874.89	95644.5
1018	2.000000	1.283994	7.37501e+06	-51039.1	1055.82	-29753.5	0.000000	0.000000	7.291090	169.496	NaN	0.000000	0.001555	0.001646	28.0831	56.9515	0.001736	32806.2	3.859045	-4.857487	164.231	1.283632	0.053297	0.052935	169.496	32806.2	0.049422	0.090636	1870.08	99558.6
1018	2.000000	1.286570	7.37501e+06	-51039.1	1055.82	-29753.5	0.000000	0.000000	7.294002	177.695	NaN	0.000000	0.001593	0.001663	28.0836	60.1116	0.001693	35511	3.614690	174.463	179.741	1.286389	0.055873	0.055692	177.695	35511	0.052120	0.099078	1793.49	103074
1018	2.000000	1.289031	7.37501e+06	-51039.1	1055.82	-29753.5	0.000000	0.000000	7.297337	198.942	NaN	0.000000	0.001593	0.001668	28.0833	61.4606	0.001780	34523	3.505051	-4.091925	193.065	1.288616	0.058334	0.057919	198.942	34523	0.054012	0.105216	1890.8	97239.3
1018	2.000000	1.291517	7.37501e+06	-51039.1	1055.82	-29753.5	0.000000	0.000000	7.300379	212.461	NaN	0.000000	0.001622	0.001714	28.0832	65.076	0.001700	38286.6	10.4278	167.196	209.528	1.291184	0.060820	0.060487	212.461	38286.6	0.056658	0.114097	1862.1	103558
1018	2.000000	1.294034	7.37501e+06	-51039.1	1055.82	-29753.5	0.000000	0.000000	7.303415	225.089	NaN	0.000000	0.001597	0.001639	28.0834	68.2707	0.001794	38044.8	6.455386	-8.452912	220.794	1.293643	0.063337	0.062946	225.089	38044.8	0.058899	0.121891	1846.64	99559.4
1018	2.000000	1.296487	7.37501e+06	-51039.1	1055.82	-29753.5	0.000000	0.000000	7.306608	243.092	NaN	0.000000	0.001562	0.001675	28.0834	71.2609	0.001828	38990.2	6.944491	171.561	239.886	1.296212	0.065789	0.065515	243.092	38990.2	0.061113	0.129831	1872.37	98864.2
1018	2.000000	1.298954	7.37501e+06	-51039.1	1055.82	-29753.5	0.000000	0.000000	7.309880	262.629	NaN	0.000000	0.001569	0.001704	28.0833	72.7446	0.001847	39382.5	3.559911	-5.051159	255.581	1.298628	0.068257	0.067931	262.629	39382.5	0.063256	0.137742	1906.68	96949.1
1018	2.000000	1.301436	7.37501e+06	-51039.1	1055.82	-29753.5	0.000000	0.000000	7.313028	278.853	NaN	0.000000	0.001586	0.001664	28.0835	74.9499	0.001689	44364.9	3.315844	173.153	272.339	1.301209	0.070739	0.070512	278.853	44364.9	0.066024	0.148293	1880.42	105257
1018	2.000000	1.304018	7.37501e+06	-51039.1	1055.82	-29753.5	0.000000	0.000000	7.316233	293.976	NaN	0.000000	0.001577	0.001678	28.0838	77.9244	0.001824	42719.2	3.411707	-6.278426	291.693	1.303737	0.073321	0.073040	293.976	42719.2	0.068160	0.156684	1876.24	98601.8
1018	2.000000	1.306501	7.37501e+06	-51039.1	1055.82	-29753.5	0.000000	0.000000	7.319196	305.677	NaN	0.000000	0.001593	0.001683	28.0835	80.521	0.001686	47755.1	3.103088	172.272	303.079	1.306333	0.075804	0.075636	305.677	47755.1	0.071003	0.168192	1817.43	106387
1018	2.000000	1.309054	7.37501e+06	-51039.1	1055.82	-29753.5	0.000000	0.000000	7.322715	329.165	NaN	0.000000	0.001561	0.001700	28.0832	82.9811	0.001791	46342.8	6.661670	-10.3996	326.805	1.308612	0.078356	0.077915	329.165	46342.8	0.073029	0.176629	1863.59	100745
1018	2.000000	1.311461	7.37501e+06	-51039.1	1055.82	-29753.5	0.000000	0.000000	7.325952	349.332	NaN	0.000000	0.001573	0.001666	28.0837	84.0112	0.001794	46835.5	4.440043	172.025	345.3	1.311142	0.080764	0.080445	349.332	46835.5	0.075170	0.185752	1880.63	99284.3
1018	2.000000	1.313988	7.37501e+06	-51039.1	1055.82	-29753.5	0.000000	0.000000	7.329278	368.769	NaN	0.000000	0.001561	0.001700	28.0837	87.0311	0.001760	49451.8	3.751453	-7.447545	363.545	1.313594	0.083291	0.082897	368.769	49451.8	0.077698	0.196805	1873.79	101845
1018	2.000000	1.316568	7.37501e+06	-51039.1	1055.82	-29753.5	0.000000	0.000000	7.332473	383.72	NaN	0.000000	0.001564	0.001709	28.0848	91.2825	0.001811	50394.1	4.902757	171.152	388.675	1.316254	0.085871	0.085557	383.72	50394.1	0.080160	0.207854	1846.1	100989
1018	2.000000	1.318937	7.37501e+06	-51039.1	1055.82	-29753.5	0.000000	0.000000	7.335935	410.296	NaN	0.000000	0.001561	0.001668	28.0846	91.3462	0.001808	50531.9	4.872315	-7.840145	402.286	1.318644	0.088240	0.087947	410.296	50531.9	0.082150	0.216996	1890.8	99108.9
1018	2.000000	1.321462	7.37501e+06	-51039.1	1055.82	-29753.5	0.000000	0.000000	7.339298	430.676	NaN	0.000000	0.001596	0.001695	28.085	93.391	0.001708	54690.6	3.593773	171.916	426.989	1.321237	0.090765	0.090540	430.676	54690.6	0.084859	0.229730	1874.71	104250
1018	2.000000	1.323900	7.37501e+06	-51039.1	1055.82	-29753.5	0.000000	0.000000	7.342600	451.686	NaN	0.000000	0.001572	0.001669	28.0849	96.7555	0.001841	52568.3	2.027378	-6.261126	442.641	1.323573	0.093203	0.092876	451.686	52568.3	0.086759	0.238864	1890.97	98270.2
1018	2.000000	1.326455	7.37501e+06	-51039.1	1055.82	-29753.5	0.000000	0.000000	7.345724	465.52	NaN	0.000000	0.001561	0.001671	28.0846	98.9978	0.001677	59036.5	1.301111	173.237	460.323	1.326219	0.095758	0.095522	465.52	59036.5	0.089844	0.254048	1832.41	107013
1018	2.000000	1.328975	7.37501e+06	-51039.1	1055.82	-29753.5	0.000000	0.000000	7.349278	490.655	NaN	0.000000	0.001558	0.001657	28.0843	101.206	0.001820	55601.3	5.999569	-9.036766	483.034	1.328491	0.098278	0.097794	490.655	55601.3	0.091660	0.263192	1864.24	99019.7
1018	2.000000	1.331329	7.37501e+06	-51039.1	1055.82	-29753.5	0.000000	0.000000	7.352628	514.901	NaN	0.000000	0.001555	0.001652	28.0847	104.157	0.001820	57242.5	4.206307	171.229	505.094	1.331025	0.100632	0.100327	514.901	57242.5	0.093885	0.274604	1875.07	99801.9
1018	2.000000	1.332971	7.37501e+06	-51039.1	1055.82	-29753.5	0.000000	0.000000	7.354377	517.481	NaN	0.000000	0.001520	0.001638	28.0846	105.833	0.001738	60887.7	4.959946	-10.6028	511.649	1.332717	0.102274	0.102020	517.481	60887.7	0.095900	0.285128	1814.91	104180