File: remote_trans/data/nanoindenter/0828-1/data/Data_2025-08-06,11h17m57s/2025-07-22_16-23-58_1_599.txt
2025-07-22, 16:23:58, 1
Index	Phase	Displacement	Time	Pos X	Pos Y	Pos Z	Rot A	Rot B	Piezo Z	Force A	Force B	Gripper	Voltage A	Voltage B	Temperature	Amplitude force	Amplitude pos	Stiffness	Phase shift	Phase excitation	Force A raw	Displacement raw	HMax	HMax raw	Real Force	Real Stiffness	Contact Depth	Area	Hardness	Reduced Mod.
[#]	[#]	[um]	[s]	[um]	[um]	[um]	[m°]	[m°]	[um]	[uN]	[uN]	[V]	[V]	[V]	[°C]	[uN]	[um]	[N/m]	[°]	[°]	[uN]	[um]	[um]	[um]	[uN]	[N/m]	[um]	[um^2]	[MPa]	[MPa]
599	1.000000	0.002941	7.37091e+06	-47139.1	1005.82	-29767	0.000000	0.000000	6.002765	-0.000988	NaN	0.000000	0.001509	0.001774	28.0796	0.121158	0.001088	111.331	166.444	-167.637	0.028492	0.001714	-1.029977	-1.031205	-0.000988	111.331	-1.029971	-5.742288E+13	1.721066E-17	NaN
599	1.000000	0.010955	7.37091e+06	-47139.1	1005.82	-29767	0.000000	0.000000	6.010776	-0.077871	NaN	0.000000	0.001501	0.001772	28.0796	0.043302	0.000963	44.9699	38.7976	-162.324	-0.124624	0.009628	-1.021964	-1.023290	-0.077871	44.9699	-1.020665	-4.304246E+13	1.809161E-15	NaN
599	1.000000	0.018926	7.37091e+06	-47139.1	1005.82	-29767	0.000000	0.000000	6.018749	-0.042531	NaN	0.000000	0.001531	0.001766	28.0795	0.126061	0.001798	70.1305	141.502	-163.354	0.006943	0.017605	-1.013992	-1.015314	-0.042531	70.1305	-1.013537	-3.451362E+13	1.232300E-15	NaN
599	1.000000	0.026959	7.37091e+06	-47139.1	1005.82	-29767	0.000000	0.000000	6.026781	-0.044231	NaN	0.000000	0.001504	0.001814	28.0792	0.060800	0.001807	33.642	63.3363	-165.123	-0.038544	0.025634	-1.005960	-1.007284	-0.044231	33.642	-1.004974	-2.646821E+13	1.671095E-15	NaN
599	1.000000	0.034911	7.37091e+06	-47139.1	1005.82	-29767	0.000000	0.000000	6.034734	-0.026806	NaN	0.000000	0.001486	0.001767	28.0796	0.055376	0.002007	27.5976	26.3173	-167.703	-0.064618	0.033580	-0.998008	-0.999339	-0.026806	27.5976	-0.997279	-2.085137E+13	1.285559E-15	NaN
599	1.000000	0.042906	7.37091e+06	-47139.1	1005.82	-29767	0.000000	0.000000	6.042729	-0.043762	NaN	0.000000	0.001524	0.001755	28.0794	0.046981	0.001857	25.3002	123.272	-166.667	-0.080566	0.041682	-0.990012	-0.991237	-0.043762	25.3002	-0.988715	-1.598838E+13	2.737136E-15	NaN
599	1.000000	0.050928	7.37091e+06	-47139.1	1005.82	-29767	0.000000	0.000000	6.050752	0.014379	NaN	0.000000	0.001479	0.001756	28.0795	0.049825	0.001965	25.3509	94.4818	-169.781	-0.002897	0.049646	-0.981991	-0.983272	0.014379	25.3509	-0.982416	-1.315112E+13	-1.093339E-15	NaN
599	1.000000	0.058954	7.37091e+06	-47139.1	1005.82	-29767	0.000000	0.000000	6.058776	-0.048712	NaN	0.000000	0.001494	0.001738	28.0807	0.068290	0.001989	34.3373	86.6919	-169.69	6.555504E-5	0.057633	-0.973965	-0.975286	-0.048712	34.3373	-0.972901	-9.789416E+12	4.975965E-15	NaN
599	1.000000	0.066925	7.37091e+06	-47139.1	1005.82	-29767	0.000000	0.000000	6.066750	0.037850	NaN	0.000000	0.001495	0.001731	28.0807	0.036434	0.001940	18.7827	-44.0719	-166.549	0.098442	0.065617	-0.965994	-0.967301	0.037850	18.7827	-0.967505	-8.280137E+12	-4.571178E-15	NaN
599	1.000000	0.074947	7.37091e+06	-47139.1	1005.82	-29767	0.000000	0.000000	6.074768	-0.076001	NaN	0.000000	0.001510	0.001736	28.0814	0.055162	0.002117	26.0535	119.204	-167.317	0.006687	0.073612	-0.957971	-0.959306	-0.076001	26.0535	-0.955783	-5.754629E+12	1.320691E-14	NaN
599	1.000000	0.082925	7.37091e+06	-47139.1	1005.82	-29767	0.000000	0.000000	6.082749	-0.007670	NaN	0.000000	0.001490	0.001749	28.0806	0.093069	0.001993	46.7069	-116.393	-163.408	-0.074829	0.081654	-0.949993	-0.951264	-0.007670	46.7069	-0.949870	-4.789326E+12	1.601483E-15	NaN
599	1.000000	0.090934	7.37091e+06	-47139.1	1005.82	-29767	0.000000	0.000000	6.090758	-0.000695	NaN	0.000000	0.001510	0.001742	28.0805	0.099844	0.001947	51.2771	175.712	-167.041	0.001205	0.089632	-0.941985	-0.943287	-0.000695	51.2771	-0.941974	-3.747782E+12	1.853418E-16	NaN
599	1.000000	0.098939	7.37091e+06	-47139.1	1005.82	-29767	0.000000	0.000000	6.098759	-0.094764	NaN	0.000000	0.001566	0.001739	28.0806	0.055439	0.002097	26.4419	149.96	-165.452	-0.110008	0.097633	-0.933980	-0.935286	-0.094764	26.4419	-0.931292	-2.689252E+12	3.523808E-14	NaN
599	1.000000	0.106955	7.37091e+06	-47139.1	1005.82	-29767	0.000000	0.000000	6.106778	-0.029926	NaN	0.000000	0.001561	0.001769	28.0805	0.084670	0.001935	43.7591	-2.399140	-165.677	0.083538	0.105623	-0.925963	-0.927296	-0.029926	43.7591	-0.925450	-2.242772E+12	1.334311E-14	NaN
599	1.000000	0.114966	7.37091e+06	-47139.1	1005.82	-29767	0.000000	0.000000	6.114789	-0.026046	NaN	0.000000	0.001499	0.001756	28.0811	0.008618	0.002037	4.230566	-91.7954	-165.999	0.016646	0.113612	-0.917953	-0.919307	-0.026046	4.230566	-0.913335	-1.538891E+12	1.692537E-14	NaN
599	1.000000	0.122955	7.37091e+06	-47139.1	1005.82	-29767	0.000000	0.000000	6.122782	0.074369	NaN	0.000000	0.001495	0.001774	28.0807	0.012228	0.001953	6.262109	-26.6957	-164.783	0.055939	0.121612	-0.909964	-0.911306	0.074369	6.262109	-0.918871	-1.827936E+12	-4.068496E-14	NaN
599	1.000000	0.130946	7.37091e+06	-47139.1	1005.82	-29767	0.000000	0.000000	6.130772	0.037473	NaN	0.000000	0.001491	0.001773	28.0807	0.066933	0.001970	33.9762	-54.7206	-164.241	0.018639	0.129625	-0.901972	-0.903293	0.037473	33.9762	-0.902800	-1.108900E+12	-3.379263E-14	NaN
599	1.000000	0.138948	7.37091e+06	-47139.1	1005.82	-29767	0.000000	0.000000	6.138774	0.046997	NaN	0.000000	0.001476	0.001754	28.0808	0.116118	0.002010	57.7787	111.366	-164.661	0.020177	0.137697	-0.893971	-0.895222	0.046997	57.7787	-0.894581	-8.586810E+11	-5.473191E-14	NaN
599	1.000000	0.146969	7.37091e+06	-47139.1	1005.82	-29767	0.000000	0.000000	6.146792	-0.021479	NaN	0.000000	0.001459	0.001758	28.0806	0.007680	0.002132	3.601398	24.8472	-166.901	-0.010900	0.145643	-0.885950	-0.887276	-0.021479	3.601398	-0.881477	-5.710582E+11	3.761344E-14	NaN
599	1.000000	0.154957	7.37091e+06	-47139.1	1005.82	-29767	0.000000	0.000000	6.154782	0.034831	NaN	0.000000	0.001548	0.001761	28.081	0.069029	0.002137	32.2966	-162.875	-167.833	0.002072	0.153649	-0.877962	-0.879269	0.034831	32.2966	-0.878771	-5.249117E+11	-6.635642E-14	NaN
599	1.000000	0.162977	7.37091e+06	-47139.1	1005.82	-29767	0.000000	0.000000	6.162801	-0.015192	NaN	0.000000	0.001483	0.001757	28.0806	0.086689	0.002039	42.5226	-157.932	-166.186	-0.014987	0.161633	-0.869941	-0.871286	-0.015192	42.5226	-0.869673	-3.953874E+11	3.842229E-14	NaN
599	1.000000	0.170965	7.37091e+06	-47139.1	1005.82	-29767	0.000000	0.000000	6.170791	0.035364	NaN	0.000000	0.001533	0.001768	28.0807	0.055677	0.001897	29.3549	92.1656	-166.762	-0.015007	0.169624	-0.861953	-0.863294	0.035364	29.3549	-0.862857	-3.197318E+11	-1.106062E-13	NaN
599	1.000000	0.178971	7.37091e+06	-47139.1	1005.82	-29767	0.000000	0.000000	6.178795	0.003528	NaN	0.000000	0.001577	0.001830	28.0806	0.094470	0.001979	47.7259	-51.0344	-168.244	-0.037759	0.177743	-0.853948	-0.855176	0.003528	47.7259	-0.854003	-2.426305E+11	-1.454175E-14	NaN
599	1.000000	0.186986	7.37091e+06	-47139.1	1005.82	-29767	0.000000	0.000000	6.186810	0.000211	NaN	0.000000	0.001611	0.001747	28.0804	0.125513	0.002027	61.9174	-21.4297	-164.277	0.071102	0.185655	-0.845933	-0.847263	0.000211	61.9174	-0.845935	-1.886645E+11	-1.116034E-15	NaN
599	1.000000	0.194993	7.37091e+06	-47139.1	1005.82	-29767	0.000000	0.000000	6.194819	0.032651	NaN	0.000000	0.001591	0.001755	28.0794	0.053864	0.002048	26.303	60.2442	-165.752	-0.012964	0.193665	-0.837925	-0.839254	0.032651	26.303	-0.838856	-1.512849E+11	-2.158250E-13	NaN
599	1.000000	0.202972	7.37091e+06	-47139.1	1005.82	-29767	0.000000	0.000000	6.202795	-0.014130	NaN	0.000000	0.001588	0.001775	28.0796	0.040481	0.002057	19.6809	-12.1527	-164.057	-0.069628	0.201723	-0.829947	-0.831195	-0.014130	19.6809	-0.829408	-1.126586E+11	1.254274E-13	NaN
599	1.000000	0.210978	7.37091e+06	-47139.1	1005.82	-29767	0.000000	0.000000	6.210802	-0.007573	NaN	0.000000	0.001597	0.001767	28.0796	0.128145	0.001893	67.6937	-27.9171	-164.286	-0.049740	0.209668	-0.821941	-0.823251	-0.007573	67.6937	-0.821857	-8.899992E+10	8.508649E-14	NaN
599	1.000000	0.218987	7.37091e+06	-47139.1	1005.82	-29767	0.000000	0.000000	6.218811	0.010622	NaN	0.000000	0.001614	0.001779	28.0795	0.074391	0.002075	35.8495	-45.2448	-165.161	-0.003889	0.217694	-0.813932	-0.815224	0.010622	35.8495	-0.814154	-6.997211E+10	-1.518063E-13	NaN
599	1.000000	0.227017	7.37091e+06	-47139.1	1005.82	-29767	0.000000	0.000000	6.226843	0.034263	NaN	0.000000	0.001583	0.001793	28.0795	0.058647	0.002046	28.6691	126.524	-164.843	0.113795	0.225632	-0.805901	-0.807287	0.034263	28.6691	-0.806798	-5.560591E+10	-6.161722E-13	NaN
599	1.000000	0.235000	7.37091e+06	-47139.1	1005.82	-29767	0.000000	0.000000	6.234825	0.018440	NaN	0.000000	0.001599	0.001707	28.0796	0.129029	0.001976	65.2991	-23.507	-165.411	0.013009	0.233672	-0.797919	-0.799247	0.018440	65.2991	-0.798130	-4.241136E+10	-4.348006E-13	NaN
599	1.000000	0.242982	7.37091e+06	-47139.1	1005.82	-29767	0.000000	0.000000	6.242806	-0.020125	NaN	0.000000	0.001578	0.001749	28.0795	0.026467	0.002084	12.6973	-51.7154	-166.165	-0.048482	0.241703	-0.789936	-0.791216	-0.020125	12.6973	-0.788747	-3.162799E+10	6.363182E-13	NaN
599	1.000000	0.251022	7.37091e+06	-47139.1	1005.82	-29767	0.000000	0.000000	6.250845	-0.025085	NaN	0.000000	0.001598	0.001744	28.0795	0.130955	0.002059	63.5901	80.3148	-168.159	-0.097269	0.249631	-0.781896	-0.783288	-0.025085	63.5901	-0.781600	-2.529165E+10	9.918341E-13	NaN
599	1.000000	0.259031	7.37091e+06	-47139.1	1005.82	-29767	0.000000	0.000000	6.258857	0.060556	NaN	0.000000	0.001585	0.001744	28.0795	0.026365	0.002026	13.0154	116.95	-163.915	-0.002088	0.257642	-0.773888	-0.775277	0.060556	13.0154	-0.777377	-2.216095E+10	-2.732561E-12	NaN
599	1.000000	0.267029	7.37091e+06	-47139.1	1005.82	-29767	0.000000	0.000000	6.266853	-0.002580	NaN	0.000000	0.001572	0.001723	28.0796	0.044874	0.001985	22.6084	166.482	-165.033	-0.024891	0.265682	-0.765889	-0.767237	-0.002580	22.6084	-0.765804	-1.542567E+10	1.672717E-13	NaN
599	1.000000	0.275002	7.37091e+06	-47139.1	1005.82	-29767	0.000000	0.000000	6.274825	-0.020907	NaN	0.000000	0.001571	0.001745	28.0794	0.112260	0.001920	58.4802	-140.402	-167.113	0.023124	0.273722	-0.757917	-0.759197	-0.020907	58.4802	-0.757649	-1.194852E+10	1.749777E-12	NaN
599	1.000000	0.283027	7.37091e+06	-47139.1	1005.82	-29767	0.000000	0.000000	6.282849	-0.037731	NaN	0.000000	0.001600	0.001793	28.0794	0.032748	0.002187	14.9737	142.322	-163.9	0.024996	0.281720	-0.749892	-0.751198	-0.037731	14.9737	-0.748002	-8.831244E+9	4.272449E-12	NaN
599	1.000000	0.291042	7.37091e+06	-47139.1	1005.82	-29767	0.000000	0.000000	6.290864	-0.044422	NaN	0.000000	0.001621	0.001760	28.0794	0.091620	0.001919	47.7378	144.199	-166.674	-0.066534	0.289739	-0.741876	-0.743180	-0.044422	47.7378	-0.741178	-7.130276E+9	6.230050E-12	NaN
599	1.000000	0.299057	7.37091e+06	-47139.1	1005.82	-29767	0.000000	0.000000	6.298878	-0.068736	NaN	0.000000	0.001582	0.001709	28.0794	0.029588	0.002054	14.4086	-65.9519	-168.317	0.006218	0.297702	-0.733862	-0.735217	-0.068736	14.4086	-0.730284	-5.066116E+9	1.356781E-11	NaN
599	1.000000	0.307021	7.37091e+06	-47139.1	1005.82	-29767	0.000000	0.000000	6.306845	0.003420	NaN	0.000000	0.001589	0.001769	28.0796	0.069510	0.001986	34.996	-86.0617	-166.24	0.066857	0.305733	-0.725898	-0.727185	0.003420	34.996	-0.725971	-4.424749E+9	-7.729884E-13	NaN
599	1.000000	0.315019	7.37091e+06	-47139.1	1005.82	-29767	0.000000	0.000000	6.314844	0.018416	NaN	0.000000	0.001611	0.001791	28.0793	0.049178	0.001967	24.9983	-97.4564	-164.256	-0.027471	0.313694	-0.717899	-0.719225	0.018416	24.9983	-0.718452	-3.494277E+9	-5.270473E-12	NaN
599	1.000000	0.323039	7.37091e+06	-47139.1	1005.82	-29767	0.000000	0.000000	6.322863	-0.009346	NaN	0.000000	0.001629	0.001766	28.0798	0.056847	0.001987	28.6085	24.6184	-163.58	-0.018176	0.321781	-0.709879	-0.711137	-0.009346	28.6085	-0.709634	-2.648845E+9	3.528204E-12	NaN
599	1.000000	0.331043	7.37091e+06	-47139.1	1005.82	-29767	0.000000	0.000000	6.330866	-0.025605	NaN	0.000000	0.001591	0.001729	28.0804	0.043921	0.001879	23.371	-26.7111	-164.413	-0.057251	0.329754	-0.701876	-0.703164	-0.025605	23.371	-0.701054	-2.022666E+9	1.265922E-11	NaN
599	1.000000	0.339011	7.37091e+06	-47139.1	1005.82	-29767	0.000000	0.000000	6.338835	0.017334	NaN	0.000000	0.001595	0.001728	28.0808	0.060731	0.002000	30.369	-117.073	-168.571	0.015170	0.337763	-0.693908	-0.695156	0.017334	30.369	-0.694336	-1.637444E+9	-1.058586E-11	NaN
599	1.000000	0.347062	7.37091e+06	-47139.1	1005.82	-29767	0.000000	0.000000	6.346888	0.056440	NaN	0.000000	0.001559	0.001731	28.0806	0.056885	0.001940	29.3267	-168.224	-166.42	-0.020604	0.345702	-0.685857	-0.687216	0.056440	29.3267	-0.687300	-1.312260E+9	-4.300976E-11	NaN
599	1.000000	0.355062	7.37091e+06	-47139.1	1005.82	-29767	0.000000	0.000000	6.354888	0.044490	NaN	0.000000	0.001511	0.001758	28.081	0.100642	0.002124	47.3722	-97.4557	-164.591	0.042793	0.353691	-0.677857	-0.679228	0.044490	47.3722	-0.678561	-9.966113E+8	-4.464158E-11	NaN
599	1.000000	0.363060	7.37091e+06	-47139.1	1005.82	-29767	0.000000	0.000000	6.362885	0.023048	NaN	0.000000	0.001526	0.001779	28.0813	0.126825	0.001918	66.1338	-146.594	-170.862	0.030353	0.361712	-0.669858	-0.671207	0.023048	66.1338	-0.670120	-7.638885E+8	-3.017151E-11	NaN
599	1.000000	0.371063	7.37091e+06	-47139.1	1005.82	-29767	0.000000	0.000000	6.370887	-0.002435	NaN	0.000000	0.001518	0.001764	28.0807	0.070699	0.002089	33.8387	144.954	-165.846	0.012267	0.369805	-0.661856	-0.663114	-0.002435	33.8387	-0.661802	-5.876871E+8	4.142651E-12	NaN
599	1.000000	0.379073	7.37091e+06	-47139.1	1005.82	-29767	0.000000	0.000000	6.378899	0.043318	NaN	0.000000	0.001510	0.001735	28.0809	0.114251	0.001972	57.9302	36.1161	-171.424	-0.047017	0.377749	-0.653845	-0.655169	0.043318	57.9302	-0.654406	-4.654001E+8	-9.307733E-11	NaN
599	1.000000	0.387050	7.37091e+06	-47139.1	1005.82	-29767	0.000000	0.000000	6.386875	0.025345	NaN	0.000000	0.001555	0.001762	28.0807	0.061375	0.001884	32.5851	-99.9117	-169.373	-0.028728	0.385702	-0.645868	-0.647216	0.025345	32.5851	-0.646452	-3.620638E+8	-7.000017E-11	NaN
599	1.000000	0.395076	7.37091e+06	-47139.1	1005.82	-29767	0.000000	0.000000	6.394899	-0.016408	NaN	0.000000	0.001506	0.001766	28.0808	0.027398	0.002055	13.3328	93.8791	-166.557	-0.080050	0.393782	-0.637843	-0.639137	-0.016408	13.3328	-0.636920	-2.679299E+8	6.124089E-11	NaN
599	1.000000	0.403047	7.37091e+06	-47139.1	1005.82	-29767	0.000000	0.000000	6.402869	-0.058148	NaN	0.000000	0.001531	0.001740	28.0809	0.084232	0.001952	43.1559	31.9242	-162.744	-0.076735	0.401789	-0.629871	-0.631130	-0.058148	43.1559	-0.628861	-2.076717E+8	2.799976E-10	NaN
599	1.000000	0.411043	7.37091e+06	-47139.1	1005.82	-29767	0.000000	0.000000	6.410870	0.066629	NaN	0.000000	0.001548	0.001770	28.0808	0.112035	0.001987	56.3982	90.4772	-167.865	0.043098	0.409742	-0.621876	-0.623177	0.066629	56.3982	-0.622762	-1.712332E+8	-3.891142E-10	NaN
599	1.000000	0.419067	7.37091e+06	-47139.1	1005.82	-29767	0.000000	0.000000	6.418891	0.021598	NaN	0.000000	0.001585	0.001773	28.0808	0.059859	0.001956	30.5966	32.4825	-163.568	-0.022964	0.417780	-0.613852	-0.615139	0.021598	30.5966	-0.614381	-1.313360E+8	-1.644459E-10	NaN
599	1.000000	0.427082	7.37091e+06	-47139.1	1005.82	-29767	0.000000	0.000000	6.426907	0.017151	NaN	0.000000	0.001587	0.001778	28.0809	0.094575	0.002018	46.859	174.707	-168.693	-0.029630	0.425775	-0.605836	-0.607144	0.017151	46.859	-0.606111	-1.010640E+8	-1.697084E-10	NaN
599	1.000000	0.435091	7.37091e+06	-47139.1	1005.82	-29767	0.000000	0.000000	6.434913	-0.045177	NaN	0.000000	0.001563	0.001809	28.0808	0.101932	0.002066	49.34	34.1828	-166.396	-0.170146	0.433884	-0.597827	-0.599035	-0.045177	49.34	-0.597141	-7.604597E+7	5.940689E-10	NaN
599	1.000000	0.443086	7.37091e+06	-47139.1	1005.82	-29767	0.000000	0.000000	6.442910	-0.000652	NaN	0.000000	0.001552	0.001792	28.0804	0.030197	0.001910	15.8142	-58.7726	-166.729	0.037191	0.441835	-0.589832	-0.591084	-0.000652	15.8142	-0.589801	-6.024570E+7	1.082485E-11	NaN
599	1.000000	0.451084	7.37091e+06	-47139.1	1005.82	-29767	0.000000	0.000000	6.450908	-0.005214	NaN	0.000000	0.001520	0.001777	28.0805	0.057900	0.001982	29.2203	-122.523	-166.618	-0.108762	0.449813	-0.581835	-0.583106	-0.005214	29.2203	-0.581701	-4.657991E+7	1.119424E-10	NaN
599	1.000000	0.459065	7.37091e+06	-47139.1	1005.82	-29767	0.000000	0.000000	6.458890	0.039003	NaN	0.000000	0.001549	0.001789	28.0807	0.077891	0.002164	35.9957	-103.86	-169.141	0.020740	0.457756	-0.573854	-0.575162	0.039003	35.9957	-0.574666	-3.724701E+7	-1.047141E-9	NaN
599	1.000000	0.467077	7.37091e+06	-47139.1	1005.82	-29767	0.000000	0.000000	6.466897	-0.098301	NaN	0.000000	0.001574	0.001754	28.0798	0.037753	0.002003	18.8439	-61.4712	-167.065	-0.030206	0.465768	-0.565841	-0.567151	-0.098301	18.8439	-0.561929	-2.483461E+7	3.958213E-9	NaN
599	1.000000	0.475102	7.37091e+06	-47139.1	1005.82	-29767	0.000000	0.000000	6.474927	0.030616	NaN	0.000000	0.001564	0.001742	28.0797	0.118127	0.001790	65.9951	65.9473	-168.673	0.051655	0.473793	-0.557817	-0.559126	0.030616	65.9951	-0.558165	-2.202877E+7	-1.389800E-9	NaN
599	1.000000	0.483076	7.37091e+06	-47139.1	1005.82	-29767	0.000000	0.000000	6.482901	0.008184	NaN	0.000000	0.001564	0.001759	28.0795	0.084331	0.002040	41.3483	-168.664	-168.555	-0.072385	0.481755	-0.549842	-0.551164	0.008184	41.3483	-0.549991	-1.697575E+7	-4.820811E-10	NaN
599	1.000000	0.491078	7.37091e+06	-47139.1	1005.82	-29767	0.000000	0.000000	6.490902	0.005765	NaN	0.000000	0.001552	0.001797	28.0796	0.091627	0.001942	47.1821	-99.2617	-167.497	0.074017	0.489789	-0.541841	-0.543130	0.005765	47.1821	-0.541933	-1.312677E+7	-4.391665E-10	NaN
599	1.000000	0.499123	7.37091e+06	-47139.1	1005.82	-29767	0.000000	0.000000	6.498949	0.060348	NaN	0.000000	0.001578	0.001747	28.0795	0.009377	0.002131	4.401221	-30.6036	-169.495	0.062369	0.497828	-0.533796	-0.535091	0.060348	4.401221	-0.544080	-1.405799E+7	-4.292798E-9	NaN
599	1.000000	0.507114	7.37091e+06	-47139.1	1005.82	-29767	0.000000	0.000000	6.506939	0.022738	NaN	0.000000	0.001547	0.001792	28.0796	0.034674	0.001968	17.6227	-30.6023	-167.726	0.095827	0.505799	-0.525804	-0.527120	0.022738	17.6227	-0.526772	-8.08603e+06	-2.811987E-9	NaN
599	1.000000	0.515122	7.37091e+06	-47139.1	1005.82	-29767	0.000000	0.000000	6.514945	-0.010089	NaN	0.000000	0.001565	0.001834	28.0796	0.035701	0.001992	17.9194	-156.895	-166.53	0.015205	0.513816	-0.517797	-0.519103	-0.010089	17.9194	-0.517375	-5.98521e+06	1.685591E-9	NaN
599	1.000000	0.523145	7.37091e+06	-47139.1	1005.82	-29767	0.000000	0.000000	6.522971	0.043070	NaN	0.000000	0.001559	0.001837	28.0794	0.039738	0.002036	19.5131	81.0294	-165.768	0.132633	0.521810	-0.509773	-0.511108	0.043070	19.5131	-0.511429	-4.94667e+06	-8.706779E-9	NaN
599	1.000000	0.531126	7.37091e+06	-47139.1	1005.82	-29767	0.000000	0.000000	6.530951	0.023684	NaN	0.000000	0.001544	0.001796	28.0797	0.044124	0.002104	20.9741	-173.016	-166.412	0.010015	0.529859	-0.501792	-0.503059	0.023684	20.9741	-0.502639	-3.73103e+06	-6.347975E-9	NaN
599	1.000000	0.539130	7.37091e+06	-47139.1	1005.82	-29767	0.000000	0.000000	6.538952	-0.049319	NaN	0.000000	0.001550	0.001781	28.0797	0.080208	0.001950	41.1404	18.3692	-166.59	-0.002856	0.537773	-0.493788	-0.495145	-0.049319	41.1404	-0.492889	-2.72744e+06	1.808259E-8	NaN
599	1.000000	0.547133	7.37091e+06	-47139.1	1005.82	-29767	0.000000	0.000000	6.546957	0.006231	NaN	0.000000	0.001532	0.001767	28.0794	0.051089	0.001958	26.0879	-67.4787	-166.099	-0.051167	0.545818	-0.485785	-0.487100	0.006231	26.0879	-0.485965	-2.18263e+06	-2.854870E-9	NaN
599	1.000000	0.555145	7.37091e+06	-47139.1	1005.82	-29767	0.000000	0.000000	6.554969	-0.011106	NaN	0.000000	0.001538	0.001782	28.0795	0.033669	0.002018	16.6849	159.248	-165.901	0.052127	0.553843	-0.477773	-0.479075	-0.011106	16.6849	-0.477274	-1.64953e+06	6.733125E-9	NaN
599	1.000000	0.563143	7.37091e+06	-47139.1	1005.82	-29767	0.000000	0.000000	6.562965	-0.039958	NaN	0.000000	0.001533	0.001775	28.0793	0.050482	0.002030	24.8629	-123.99	-164.274	-0.070356	0.561851	-0.469776	-0.471067	-0.039958	24.8629	-0.468570	-1.24553e+06	3.208136E-8	NaN
599	1.000000	0.571144	7.37091e+06	-47139.1	1005.82	-29767	0.000000	0.000000	6.570968	0.020275	NaN	0.000000	0.001547	0.001784	28.0796	0.109438	0.001923	56.9125	49.7833	-168.899	0.037724	0.569847	-0.461775	-0.463071	0.020275	56.9125	-0.462042	-1.00858e+06	-2.010218E-8	NaN
599	1.000000	0.579129	7.37091e+06	-47139.1	1005.82	-29767	0.000000	0.000000	6.578953	-0.019210	NaN	0.000000	0.001555	0.001770	28.0793	0.043595	0.001993	21.8781	-16.8681	-170.801	0.032505	0.577824	-0.453789	-0.455095	-0.019210	21.8781	-0.453131	-755816	2.541578E-8	NaN
599	1.000000	0.587158	7.37091e+06	-47139.1	1005.82	-29767	0.000000	0.000000	6.586982	0.003160	NaN	0.000000	0.001549	0.001769	28.0794	0.083479	0.002048	40.7632	-135.484	-168.543	0.021629	0.585832	-0.445761	-0.447086	0.003160	40.7632	-0.445819	-596264	-5.299183E-9	NaN
599	1.000000	0.595135	7.37091e+06	-47139.1	1005.82	-29767	0.000000	0.000000	6.594959	-0.013535	NaN	0.000000	0.001541	0.001773	28.0792	0.098186	0.001973	49.7646	-140.198	-165.24	0.036214	0.593821	-0.437783	-0.439098	-0.013535	49.7646	-0.437579	-456235	2.966585E-8	NaN
599	1.000000	0.603185	7.37091e+06	-47139.1	1005.82	-29767	0.000000	0.000000	6.603009	-0.005929	NaN	0.000000	0.001572	0.001752	28.08	0.073819	0.001929	38.27	-3.194834	-165.562	0.024682	0.601834	-0.429734	-0.431085	-0.005929	38.27	-0.429617	-352085	1.684026E-8	NaN
599	1.000000	0.611169	7.37091e+06	-47139.1	1005.82	-29767	0.000000	0.000000	6.610995	0.046521	NaN	0.000000	0.001548	0.001787	28.0806	0.094165	0.001968	47.8533	-19.0428	-163.872	-0.028491	0.609836	-0.421749	-0.423083	0.046521	47.8533	-0.422479	-278969	-1.667585E-7	NaN
599	1.000000	0.619154	7.37091e+06	-47139.1	1005.82	-29767	0.000000	0.000000	6.618978	0.010060	NaN	0.000000	0.001543	0.001747	28.0804	0.026243	0.002033	12.9104	175.715	-167.498	-0.120308	0.617843	-0.413765	-0.415076	0.010060	12.9104	-0.414349	-213902	-4.703261E-8	NaN
599	1.000000	0.627148	7.37091e+06	-47139.1	1005.82	-29767	0.000000	0.000000	6.626970	-0.051189	NaN	0.000000	0.001567	0.001802	28.0807	0.055139	0.001989	27.7242	-38.4147	-168.464	-0.009578	0.625888	-0.405770	-0.407031	-0.051189	27.7242	-0.404385	-154346	3.316530E-7	NaN
599	1.000000	0.635178	7.37091e+06	-47139.1	1005.82	-29767	0.000000	0.000000	6.635000	-0.044471	NaN	0.000000	0.001506	0.001765	28.081	0.135767	0.001993	68.1386	176.024	-164.555	0.074079	0.633875	-0.397741	-0.399044	-0.044471	68.1386	-0.397251	-122118	3.641649E-7	NaN
599	1.000000	0.643185	7.37091e+06	-47139.1	1005.82	-29767	0.000000	0.000000	6.643008	-0.011692	NaN	0.000000	0.001537	0.001776	28.0805	0.045892	0.001908	24.0481	-115.738	-167.417	-0.029197	0.641843	-0.389734	-0.391076	-0.011692	24.0481	-0.389369	-94219.7	1.240913E-7	NaN
599	1.000000	0.651168	7.37091e+06	-47139.1	1005.82	-29767	0.000000	0.000000	6.650989	-0.062523	NaN	0.000000	0.001549	0.001759	28.0804	0.090158	0.002052	43.9457	-71.1859	-166.262	-0.027523	0.649892	-0.381751	-0.383026	-0.062523	43.9457	-0.380684	-70745.4	8.837708E-7	NaN
599	1.000000	0.659209	7.37091e+06	-47139.1	1005.82	-29767	0.000000	0.000000	6.659033	-0.002579	NaN	0.000000	0.001525	0.001798	28.0803	0.034162	0.001970	17.3419	69.1853	-167.557	0.033424	0.657900	-0.373709	-0.375019	-0.002579	17.3419	-0.373598	-55963.9	4.607711E-8	NaN
599	1.000000	0.667166	7.37091e+06	-47139.1	1005.82	-29767	0.000000	0.000000	6.666990	0.004895	NaN	0.000000	0.001586	0.001762	28.0804	0.075230	0.002006	37.5077	-166.361	-167.437	0.000768	0.665842	-0.365753	-0.367076	0.004895	37.5077	-0.365851	-43284.1	-1.130852E-7	NaN
599	1.000000	0.675159	7.37091e+06	-47139.1	1005.82	-29767	0.000000	0.000000	6.674982	-0.025447	NaN	0.000000	0.001554	0.001808	28.0806	0.074366	0.002065	36.0065	0.295181	-163.051	0.031238	0.673898	-0.357759	-0.359020	-0.025447	36.0065	-0.357229	-32491.7	7.831976E-7	NaN
599	1.000000	0.683173	7.37091e+06	-47139.1	1005.82	-29767	0.000000	0.000000	6.682997	-0.002410	NaN	0.000000	0.001559	0.001778	28.0805	0.121193	0.001887	64.2375	-143.498	-166.009	-0.015251	0.681898	-0.349745	-0.351020	-0.002410	64.2375	-0.349717	-25286.8	9.532185E-8	NaN
599	1.000000	0.691165	7.37091e+06	-47139.1	1005.82	-29767	0.000000	0.000000	6.690985	-0.079341	NaN	0.000000	0.001543	0.001796	28.0807	0.045431	0.002019	22.5065	77.3244	-166.434	-0.097066	0.689873	-0.341754	-0.343046	-0.079341	22.5065	-0.339110	-17724.6	4.476283E-6	NaN
599	1.000000	0.699191	7.37091e+06	-47139.1	1005.82	-29767	0.000000	0.000000	6.699016	0.014365	NaN	0.000000	0.001552	0.001767	28.0805	0.020472	0.002164	9.459611	80.9882	-166.087	-0.025230	0.697867	-0.333727	-0.335051	0.014365	9.459611	-0.334866	-15368.6	-9.347237E-7	NaN
599	1.000000	0.707197	7.37091e+06	-47139.1	1005.82	-29767	0.000000	0.000000	6.707019	-0.049560	NaN	0.000000	0.001549	0.001765	28.0804	0.057755	0.002074	27.8522	44.1826	-169.878	0.009880	0.705914	-0.325722	-0.327005	-0.049560	27.8522	-0.324387	-10792.9	4.591906E-6	NaN
599	1.000000	0.715214	7.37091e+06	-47139.1	1005.82	-29767	0.000000	0.000000	6.715038	-0.001273	NaN	0.000000	0.001574	0.001789	28.0805	0.088764	0.001920	46.2334	-104.249	-165.741	-0.013462	0.713876	-0.317705	-0.319043	-0.001273	46.2334	-0.317684	-8600.67	1.480214E-7	NaN
599	1.000000	0.723194	7.37091e+06	-47139.1	1005.82	-29767	0.000000	0.000000	6.723015	-0.050394	NaN	0.000000	0.001575	0.001769	28.0805	0.029784	0.002016	14.773	-42.1924	-165.228	-0.007867	0.721860	-0.309725	-0.311058	-0.050394	14.773	-0.307167	-6013.01	8.380792E-6	NaN
599	1.000000	0.731210	7.37091e+06	-47139.1	1005.82	-29767	0.000000	0.000000	6.731034	-0.001264	NaN	0.000000	0.001501	0.001751	28.0804	0.143091	0.002015	71.0173	81.9869	-166.101	-0.012904	0.729869	-0.301709	-0.303050	-0.001264	71.0173	-0.301696	-4987.29	2.534491E-7	NaN
599	1.000000	0.739177	7.37091e+06	-47139.1	1005.82	-29767	0.000000	0.000000	6.739001	-0.003077	NaN	0.000000	0.001526	0.001776	28.08	0.061187	0.001957	31.2735	26.5709	-167.635	-0.016029	0.737911	-0.293741	-0.295007	-0.003077	31.2735	-0.293668	-3786.02	8.127476E-7	NaN
599	1.000000	0.747223	7.37091e+06	-47139.1	1005.82	-29767	0.000000	0.000000	6.747047	-0.005337	NaN	0.000000	0.001512	0.001775	28.079	0.045913	0.001969	23.3128	150.577	-166.179	0.009852	0.745895	-0.285695	-0.287023	-0.005337	23.3128	-0.285523	-2858.47	1.867126E-6	NaN
599	1.000000	0.755245	7.37091e+06	-47139.1	1005.82	-29767	0.000000	0.000000	6.755068	-0.012162	NaN	0.000000	0.001534	0.001807	28.0792	0.051977	0.001991	26.0992	-2.150641	-164.208	-0.010317	0.753916	-0.277674	-0.279002	-0.012162	26.0992	-0.277324	-2150.64	5.655220E-6	NaN
599	1.000000	0.763236	7.37091e+06	-47139.1	1005.82	-29767	0.000000	0.000000	6.763059	-0.019137	NaN	0.000000	0.001511	0.001781	28.0792	0.023839	0.002057	11.5877	-117.362	-168.338	0.001619	0.761915	-0.269682	-0.271004	-0.019137	11.5877	-0.268444	-1577.16	1.213379E-5	NaN
599	1.000000	0.771194	7.37091e+06	-47139.1	1005.82	-29767	0.000000	0.000000	6.771018	-0.017498	NaN	0.000000	0.001524	0.001778	28.0792	0.084594	0.002016	41.9535	172.123	-164.957	0.046484	0.769908	-0.261724	-0.263011	-0.017498	41.9535	-0.261412	-1231.79	1.420564E-5	NaN
599	1.000000	0.779229	7.37091e+06	-47139.1	1005.82	-29767	0.000000	0.000000	6.779051	-0.048522	NaN	0.000000	0.001541	0.001760	28.0793	0.052480	0.001915	27.4014	-72.178	-163.872	-0.082674	0.777910	-0.253690	-0.255009	-0.048522	27.4014	-0.252362	-894.238	5.426114E-5	NaN
599	1.000000	0.787220	7.37091e+06	-47139.1	1005.82	-29767	0.000000	0.000000	6.787043	-0.028330	NaN	0.000000	0.001530	0.001820	28.0791	0.070995	0.002059	34.4771	-18.2817	-164.757	-0.010001	0.785917	-0.245698	-0.247002	-0.028330	34.4771	-0.245082	-689.81	4.106871E-5	NaN
599	1.000000	0.795222	7.37091e+06	-47139.1	1005.82	-29767	0.000000	0.000000	6.795045	-0.003490	NaN	0.000000	0.001523	0.001802	28.08	0.043799	0.001919	22.8282	124.819	-164.969	0.037638	0.793899	-0.237697	-0.239020	-0.003490	22.8282	-0.237582	-526.917	6.624152E-6	NaN
599	1.000000	0.803244	7.37091e+06	-47139.1	1005.82	-29767	0.000000	0.000000	6.803069	0.023310	NaN	0.000000	0.001551	0.001797	28.0791	0.009003	0.001825	4.932059	-96.5563	-168.487	0.012079	0.801938	-0.229675	-0.230981	0.023310	4.932059	-0.233219	-450.051	-5.179325E-5	NaN
599	1.000000	0.811230	7.37091e+06	-47139.1	1005.82	-29767	0.000000	0.000000	6.811058	0.080984	NaN	0.000000	0.001512	0.001805	28.079	0.071815	0.002024	35.4872	47.9216	-168.184	0.047143	0.809901	-0.221688	-0.223017	0.080984	35.4872	-0.223400	-314.697	-0.000257	NaN
599	1.000000	0.819230	7.37091e+06	-47139.1	1005.82	-29767	0.000000	0.000000	6.819055	0.038543	NaN	0.000000	0.001520	0.001795	28.0794	0.133762	0.002033	65.7984	78.3166	-166.909	0.069611	0.817969	-0.213689	-0.214950	0.038543	65.7984	-0.214128	-223.606	-0.000172	NaN
599	1.000000	0.827259	7.37091e+06	-47139.1	1005.82	-29767	0.000000	0.000000	6.827081	-0.047101	NaN	0.000000	0.001509	0.001780	28.0793	0.093989	0.002062	45.578	-42.4027	-168.087	-0.089071	0.825950	-0.205660	-0.206968	-0.047101	45.578	-0.204885	-158.371	0.000297	NaN
599	1.000000	0.835231	7.37091e+06	-47139.1	1005.82	-29767	0.000000	0.000000	6.835056	0.016519	NaN	0.000000	0.001522	0.001809	28.0793	0.060412	0.002053	29.4283	172.919	-164.69	-0.008780	0.833943	-0.197687	-0.198975	0.016519	29.4283	-0.198108	-122.621	-0.000135	NaN
599	1.000000	0.843227	7.37091e+06	-47139.1	1005.82	-29767	0.000000	0.000000	6.843052	0.025057	NaN	0.000000	0.001532	0.001773	28.0793	0.014122	0.002045	6.906014	-68.4013	-164.513	0.011947	0.841966	-0.189692	-0.190952	0.025057	6.906014	-0.192413	-98.6851	-0.000254	NaN
599	1.000000	0.851254	7.37091e+06	-47139.1	1005.82	-29767	0.000000	0.000000	6.851078	0.010987	NaN	0.000000	0.001558	0.001782	28.0793	0.067916	0.001971	34.465	50.3434	-166.09	0.048551	0.849973	-0.181665	-0.182945	0.010987	34.465	-0.181904	-65.736	-0.000167	NaN
599	1.000000	0.859279	7.37091e+06	-47139.1	1005.82	-29767	0.000000	0.000000	6.859104	0.014923	NaN	0.000000	0.001559	0.001785	28.0794	0.116903	0.002090	55.9252	138.074	-169.128	-0.039831	0.857970	-0.173639	-0.174949	0.014923	55.9252	-0.173839	-47.8644	-0.000312	NaN
599	1.000000	0.867250	7.37091e+06	-47139.1	1005.82	-29767	0.000000	0.000000	6.867074	-0.003522	NaN	0.000000	0.001543	0.001737	28.0795	0.100129	0.001898	52.7593	-153.668	-164.832	0.014106	0.866020	-0.165668	-0.166899	-0.003522	52.7593	-0.165618	-34.4471	0.000102	NaN
599	1.000000	0.875256	7.37091e+06	-47139.1	1005.82	-29767	0.000000	0.000000	6.875076	-0.091099	NaN	0.000000	0.001531	0.001794	28.0797	0.074437	0.001881	39.5666	-24.1417	-165.75	-0.046944	0.873955	-0.157663	-0.158964	-0.091099	39.5666	-0.155936	-23.1955	0.003927	NaN
599	1.000000	0.883276	7.37091e+06	-47139.1	1005.82	-29767	0.000000	0.000000	6.883099	-0.018394	NaN	0.000000	0.001556	0.001765	28.0806	0.032456	0.002019	16.0756	-121.614	-168.254	-0.001241	0.881918	-0.149643	-0.151000	-0.018394	16.0756	-0.148785	-17.211	0.001069	NaN
599	1.000000	0.891286	7.37091e+06	-47139.1	1005.82	-29767	0.000000	0.000000	6.891108	-0.026334	NaN	0.000000	0.001579	0.001797	28.0806	0.073727	0.002090	35.2815	139.293	-164.775	-0.020482	0.889914	-0.141633	-0.143004	-0.026334	35.2815	-0.141073	-12.3906	0.002125	NaN
599	1.000000	0.899268	7.37091e+06	-47139.1	1005.82	-29767	0.000000	0.000000	6.899092	0.008945	NaN	0.000000	0.001565	0.001781	28.0805	0.139219	0.002099	66.3121	13.6262	-166.418	-0.020800	0.897981	-0.133651	-0.134937	0.008945	66.3121	-0.133752	-9.003615	-0.000993	NaN
599	1.000000	0.907301	7.37091e+06	-47139.1	1005.82	-29767	0.000000	0.000000	6.907126	0.014241	NaN	0.000000	0.001572	0.001783	28.0806	0.060116	0.001947	30.8698	-165.313	-167.226	-0.004467	0.905979	-0.125618	-0.126940	0.014241	30.8698	-0.125964	-6.353693	-0.002241	NaN
599	1.000000	0.915283	7.37091e+06	-47139.1	1005.82	-29767	0.000000	0.000000	6.915107	-0.011238	NaN	0.000000	0.001528	0.001787	28.0805	0.073653	0.001990	37.0072	108.094	-167.345	-0.029478	0.914003	-0.117635	-0.118916	-0.011238	37.0072	-0.117408	-4.280351	0.002626	NaN
599	1.000000	0.923295	7.37091e+06	-47139.1	1005.82	-29767	0.000000	0.000000	6.923117	-0.062588	NaN	0.000000	0.001548	0.001805	28.0806	0.106905	0.001912	55.8984	90.1497	-163.691	-0.062604	0.921964	-0.109623	-0.110954	-0.062588	55.8984	-0.108784	-2.832393	0.022097	NaN
599	1.000000	0.931277	7.37091e+06	-47139.1	1005.82	-29767	0.000000	0.000000	6.931103	0.031727	NaN	0.000000	0.001570	0.001866	28.0807	0.099202	0.001924	51.5487	-79.975	-166.467	0.072321	0.929989	-0.101641	-0.102930	0.031727	51.5487	-0.102103	-2.032971	-0.015606	NaN
599	1.000000	0.939281	7.37091e+06	-47139.1	1005.82	-29767	0.000000	0.000000	6.939105	0.009577	NaN	0.000000	0.001553	0.001832	28.0803	0.074527	0.001904	39.1442	24.6258	-166.51	-0.058731	0.938001	-0.093638	-0.094917	0.009577	39.1442	-0.093821	-1.325754	-0.007224	NaN
599	1.000000	0.947284	7.37091e+06	-47139.1	1005.82	-29767	0.000000	0.000000	6.947109	0.028813	NaN	0.000000	0.001580	0.001791	28.0806	0.055754	0.001894	29.4447	-31.5593	-163.743	0.062695	0.945963	-0.085634	-0.086956	0.028813	29.4447	-0.086368	-0.886441	-0.032505	NaN
599	1.000000	0.955288	7.37091e+06	-47139.1	1005.82	-29767	0.000000	0.000000	6.955112	-0.019476	NaN	0.000000	0.001533	0.001825	28.0804	0.023597	0.001984	11.8941	88.323	-170.08	0.058901	0.953986	-0.077630	-0.078933	-0.019476	11.8941	-0.076402	-0.501901	0.038804	NaN
599	1.000000	0.963308	7.37091e+06	-47139.1	1005.82	-29767	0.000000	0.000000	6.963132	-0.017962	NaN	0.000000	0.001564	0.001792	28.0807	0.074851	0.001960	38.1858	-164.015	-163.607	-0.021595	0.961970	-0.069610	-0.070949	-0.017962	38.1858	-0.069257	-0.325797	0.055132	NaN
599	1.000000	0.971286	7.37091e+06	-47139.1	1005.82	-29767	0.000000	0.000000	6.971112	0.045424	NaN	0.000000	0.001565	0.001786	28.0806	0.145818	0.001913	76.2221	18.0761	-167.925	-0.005253	0.969995	-0.061633	-0.062923	0.045424	76.2221	-0.062080	-0.206420	-0.220058	NaN
599	1.000000	0.979315	7.37091e+06	-47139.1	1005.82	-29767	0.000000	0.000000	6.979137	-0.028762	NaN	0.000000	0.001569	0.001806	28.0804	0.087241	0.002017	43.2598	-84.3919	-166.823	-0.047262	0.978046	-0.053604	-0.054873	-0.028762	43.2598	-0.053105	-0.113126	0.254246	NaN
599	1.000000	0.987295	7.37091e+06	-47139.1	1005.82	-29767	0.000000	0.000000	6.987116	-0.072960	NaN	0.000000	0.001563	0.001800	28.0806	0.105566	0.002122	49.7377	122.855	-168.414	0.001930	0.986036	-0.045624	-0.046882	-0.072960	49.7377	-0.044523	-0.062147	1.173993	NaN
599	1.000000	0.995318	7.37091e+06	-47139.1	1005.82	-29767	0.000000	0.000000	6.995143	0.029236	NaN	0.000000	0.001568	0.001799	28.0804	0.072921	0.001893	38.5224	-45.8712	-167.526	0.061361	0.994034	-0.037601	-0.038885	0.029236	38.5224	-0.038170	-0.039809	-0.734417	NaN
599	1.000000	1.003316	7.37091e+06	-47139.1	1005.82	-29767	0.000000	0.000000	7.003140	0.005752	NaN	0.000000	0.001531	0.001796	28.0806	0.078402	0.001938	40.4472	90.0934	-166.331	-0.008588	1.001983	-0.029603	-0.030936	0.005752	40.4472	-0.029709	-0.022588	-0.254652	NaN
599	1.000000	1.011306	7.37091e+06	-47139.1	1005.82	-29767	0.000000	0.000000	7.011129	-0.022586	NaN	0.000000	0.001564	0.001796	28.0806	0.068035	0.002015	33.7562	50.6359	-167.89	0.076767	1.009949	-0.021613	-0.022970	-0.022586	33.7562	-0.021111	-0.013404	1.684988	NaN
599	1.000000	1.019310	7.37091e+06	-47139.1	1005.82	-29767	0.000000	0.000000	7.019137	0.090176	NaN	0.000000	0.001594	0.001782	28.0793	0.099161	0.001940	51.1163	-107.853	-164.053	0.015662	1.017987	-0.013609	-0.014932	0.090176	51.1163	-0.014932	-0.009235	-9.764754	NaN
599	1.000000	1.027339	7.37091e+06	-47139.1	1005.82	-29767	0.000000	0.000000	7.027161	-0.038609	NaN	0.000000	0.001568	0.001802	28.0796	0.071828	0.002071	34.6824	-69.2694	-167.785	-0.104690	1.025998	-0.005580	-0.006920	-0.038609	34.6824	-0.004745	-0.003256	11.8587	NaN
599	1.000000	1.035282	7.37091e+06	-47139.1	1005.82	-29767	0.000000	0.000000	7.035182	1.860239	NaN	0.000000	0.001584	0.001761	28.0793	2.512341	0.001844	1362.44	8.329460	-169.917	0.823715	1.034029	0.002363	0.001111	1.860239	1362.44	0.001339	0.001027	1810.85	38837.3
599	2.000000	1.042743	7.37091e+06	-47139.1	1005.82	-29767	0.000000	0.000000	7.042920	8.589013	NaN	0.000000	0.001551	0.001797	28.0791	8.456940	0.001491	5670.88	14.7636	-178.764	8.160541	1.041958	0.009825	0.009039	8.589013	5670.88	0.008689	0.007760	1106.79	58814.6
599	2.000000	1.044925	7.37091e+06	-47139.1	1005.82	-29767	0.000000	0.000000	7.045207	11.1635	NaN	0.000000	0.001567	0.001770	28.0792	10.8021	0.001603	6737.54	11.3368	-177.878	11.6238	1.044543	0.012006	0.011624	11.1635	6737.54	0.010763	0.010042	1111.67	61427.4
599	2.000000	1.046912	7.37091e+06	-47139.1	1005.82	-29767	0.000000	0.000000	7.047279	13.2154	NaN	0.000000	0.001588	0.001789	28.0795	13.3045	0.001850	7191.74	4.556181	-172.713	13.6544	1.046616	0.013993	0.013698	13.2154	7191.74	0.012615	0.012235	1080.13	59402.3
599	2.000000	1.048896	7.37091e+06	-47139.1	1005.82	-29767	0.000000	0.000000	7.049369	15.7798	NaN	0.000000	0.001544	0.001786	28.0796	15.2035	0.001742	8726.01	7.293554	-176.733	15.6745	1.048598	0.015977	0.015679	15.7798	8726.01	0.014621	0.014783	1067.41	65569.6
599	2.000000	1.050866	7.37091e+06	-47139.1	1005.82	-29767	0.000000	0.000000	7.051458	18.6746	NaN	0.000000	0.001542	0.001775	28.0792	17.4653	0.001931	9044.15	7.638483	-177.85	18.6087	1.050563	0.017948	0.017644	18.6746	9044.15	0.016399	0.017197	1085.94	63011.3
599	2.000000	1.052857	7.37091e+06	-47139.1	1005.82	-29767	0.000000	0.000000	7.053633	23.1488	NaN	0.000000	0.001566	0.001755	28.0793	18.5193	0.001663	11137.5	7.969944	179.837	22.9112	1.052512	0.019939	0.019594	23.1488	11137.5	0.018380	0.020060	1153.97	71844.4
599	2.000000	1.054851	7.37091e+06	-47139.1	1005.82	-29767	0.000000	0.000000	7.055793	27.2082	NaN	0.000000	0.001554	0.001801	28.0792	20.4835	0.001642	12477.1	7.100967	179.173	26.7822	1.054517	0.021932	0.021598	27.2082	12477.1	0.020297	0.023011	1182.43	75149.2
599	2.000000	1.056832	7.37091e+06	-47139.1	1005.82	-29767	0.000000	0.000000	7.057949	31.4575	NaN	0.000000	0.001603	0.001755	28.0794	23.1031	0.001708	13530.1	7.042493	178.102	29.3384	1.056544	0.023914	0.023625	31.4575	13530.1	0.022170	0.026067	1206.78	76564.6
599	2.000000	1.058870	7.37091e+06	-47139.1	1005.82	-29767	0.000000	0.000000	7.060139	35.1367	NaN	0.000000	0.001555	0.001789	28.0796	25.2025	0.001819	13852.4	6.362129	-179.637	34.802	1.058522	0.025952	0.025604	35.1367	13852.4	0.024049	0.029309	1198.85	73926.3
599	2.000000	1.060833	7.37091e+06	-47139.1	1005.82	-29767	0.000000	0.000000	7.062321	40.4697	NaN	0.000000	0.001572	0.001778	28.0791	26.5822	0.001775	14974.4	3.729363	-178.149	39.7737	1.060508	0.027914	0.027590	40.4697	14974.4	0.025887	0.032650	1239.51	75714.9
599	2.000000	1.062855	7.37092e+06	-47139.1	1005.82	-29767	0.000000	0.000000	7.064565	45.8797	NaN	0.000000	0.001544	0.001771	28.0801	30.1451	0.001881	16023	6.512816	178.947	46.6162	1.062508	0.029936	0.029589	45.8797	16023	0.027789	0.036285	1264.43	76852.1
599	2.000000	1.064798	7.37092e+06	-47139.1	1005.82	-29767	0.000000	0.000000	7.066767	52.1704	NaN	0.000000	0.001593	0.001764	28.0792	31.5453	0.001805	17478.3	11.304	172.18	52.5626	1.064597	0.031880	0.031679	52.1704	17478.3	0.029641	0.040003	1304.15	79840.4
599	2.000000	1.066808	7.37092e+06	-47139.1	1005.82	-29767	0.000000	0.000000	7.068913	55.4874	NaN	0.000000	0.001567	0.001787	28.0793	32.9051	0.001796	18318.6	8.929090	175.344	55.312	1.066482	0.033889	0.033563	55.4874	18318.6	0.031618	0.044163	1256.42	79640.8
599	2.000000	1.068823	7.37092e+06	-47139.1	1005.82	-29767	0.000000	0.000000	7.071289	64.2808	NaN	0.000000	0.001585	0.001765	28.0795	34.6014	0.001995	17346.2	7.016439	179.597	63.0053	1.068388	0.035904	0.035469	64.2808	17346.2	0.033125	0.047470	1354.14	72739.1
599	2.000000	1.070833	7.37092e+06	-47139.1	1005.82	-29767	0.000000	0.000000	7.073471	68.4603	NaN	0.000000	0.001558	0.001819	28.0806	35.8997	0.001733	20717.1	3.311778	178.548	69.7773	1.070532	0.037914	0.037613	68.4603	20717.1	0.035436	0.052766	1297.44	82399.7
599	2.000000	1.072799	7.37092e+06	-47139.1	1005.82	-29767	0.000000	0.000000	7.075644	73.4713	NaN	0.000000	0.001594	0.001781	28.0809	39.076	0.001825	21411.3	5.226468	177.314	72.1641	1.072501	0.039881	0.039583	73.4713	21411.3	0.037307	0.057255	1283.23	81754.2
599	2.000000	1.074853	7.37092e+06	-47139.1	1005.82	-29767	0.000000	0.000000	7.078009	81.0604	NaN	0.000000	0.001585	0.001765	28.0805	40.114	0.001787	22442.8	2.732415	178.2	81.8883	1.074510	0.041934	0.041592	81.0604	22442.8	0.039225	0.062042	1306.55	82320.8
599	2.000000	1.076743	7.37092e+06	-47139.1	1005.82	-29767	0.000000	0.000000	7.080390	92.9881	NaN	0.000000	0.001594	0.001773	28.0805	41.6802	0.001804	23109.7	4.694711	177.058	91.0787	1.076513	0.043825	0.043594	92.9881	23109.7	0.040807	0.066130	1406.14	82104.9
599	2.000000	1.078828	7.37092e+06	-47139.1	1005.82	-29767	0.000000	0.000000	7.082746	99.5891	NaN	0.000000	0.001547	0.001775	28.0806	43.5209	0.001866	23323.2	5.821616	176.936	100.071	1.078477	0.045909	0.045558	99.5891	23323.2	0.042706	0.071210	1398.53	79852.9
599	2.000000	1.080744	7.37092e+06	-47139.1	1005.82	-29767	0.000000	0.000000	7.084838	103.857	NaN	0.000000	0.001523	0.001792	28.0805	45.065	0.001814	24841.2	4.629374	175.718	101.234	1.080518	0.047825	0.047599	103.857	24841.2	0.044690	0.076709	1353.91	81944.8
599	2.000000	1.082817	7.37092e+06	-47139.1	1005.82	-29767	0.000000	0.000000	7.087429	116.467	NaN	0.000000	0.001542	0.001787	28.0808	46.7971	0.001777	26340.6	5.896468	175.799	117.295	1.082406	0.049898	0.049487	116.467	26340.6	0.046582	0.082142	1417.88	83968.6
599	2.000000	1.084762	7.37092e+06	-47139.1	1005.82	-29767	0.000000	0.000000	7.089697	124.322	NaN	0.000000	0.001531	0.001750	28.0805	48.0302	0.001643	29229.3	6.700046	171.908	122.864	1.084533	0.051843	0.051614	124.322	29229.3	0.048653	0.088295	1408.02	89871.6
599	2.000000	1.086761	7.37092e+06	-47139.1	1005.82	-29767	0.000000	0.000000	7.092078	133.606	NaN	0.000000	0.001534	0.001767	28.0805	51.8113	0.001901	27254.9	6.960725	174.462	130.744	1.086338	0.053842	0.053420	133.606	27254.9	0.050166	0.092926	1437.76	81686.3
599	2.000000	1.088806	7.37092e+06	-47139.1	1005.82	-29767	0.000000	0.000000	7.094441	141.348	NaN	0.000000	0.001562	0.001828	28.0803	53.4573	0.001821	29354.1	7.479309	172.435	139.316	1.088416	0.055888	0.055497	141.348	29354.1	0.052276	0.099578	1419.47	84988.4
599	2.000000	1.090719	7.37092e+06	-47139.1	1005.82	-29767	0.000000	0.000000	7.096547	146.041	NaN	0.000000	0.001538	0.001799	28.0803	54.2299	0.001734	31268.6	1.400178	176.79	142.128	1.090445	0.057800	0.057527	146.041	31268.6	0.054297	0.106157	1375.71	87681.4
599	2.000000	1.092811	7.37092e+06	-47139.1	1005.82	-29767	0.000000	0.000000	7.099087	156.928	NaN	0.000000	0.001561	0.001805	28.0804	57.6349	0.001924	29954.9	5.507642	174.391	158.624	1.092469	0.059893	0.059551	156.928	29954.9	0.055964	0.111733	1404.48	81874.7
599	2.000000	1.094770	7.37092e+06	-47139.1	1005.82	-29767	0.000000	0.000000	7.101461	167.031	NaN	0.000000	0.001574	0.001816	28.0804	57.9729	0.001712	33859.3	3.660274	174.659	168.044	1.094449	0.061851	0.061530	167.031	33859.3	0.058152	0.119264	1400.52	89577.2
599	2.000000	1.096837	7.37092e+06	-47139.1	1005.82	-29767	0.000000	0.000000	7.103725	171.807	NaN	0.000000	0.001616	0.001828	28.0805	60.4897	0.001841	32862.8	2.715692	176.453	174.549	1.096520	0.063919	0.063601	171.807	32862.8	0.059998	0.125800	1365.71	84652.1
599	2.000000	1.098741	7.37092e+06	-47139.1	1005.82	-29767	0.000000	0.000000	7.106186	185.383	NaN	0.000000	0.001631	0.001810	28.0804	62.7818	0.001778	35301.4	7.193777	170.866	181.356	1.098346	0.065822	0.065428	185.383	35301.4	0.061883	0.132648	1397.55	88555.1
599	2.000000	1.100770	7.37092e+06	-47139.1	1005.82	-29767	0.000000	0.000000	7.108752	198.422	NaN	0.000000	0.001632	0.001810	28.0803	63.5087	0.001919	33097.1	6.159077	173.224	197.148	1.100347	0.067852	0.067428	198.422	33097.1	0.063355	0.138114	1436.65	81366.2
599	2.000000	1.102743	7.37092e+06	-47139.1	1005.82	-29767	0.000000	0.000000	7.111143	208.616	NaN	0.000000	0.001627	0.001804	28.0804	65.2584	0.001868	34932	1.103642	176.836	206.959	1.102526	0.069824	0.069607	208.616	34932	0.065345	0.145669	1432.12	83620.5
599	2.000000	1.104755	7.37092e+06	-47139.1	1005.82	-29767	0.000000	0.000000	7.113584	219.022	NaN	0.000000	0.001575	0.001735	28.0793	65.7797	0.001659	39660.7	1.980959	174.561	216.357	1.104456	0.071837	0.071538	219.022	39660.7	0.067695	0.154837	1414.53	92086.5
599	2.000000	1.106738	7.37092e+06	-47139.1	1005.82	-29767	0.000000	0.000000	7.115919	227.591	NaN	0.000000	0.001557	0.001757	28.0797	68.9159	0.001723	40007	5.039288	171.965	225.422	1.106398	0.073820	0.073479	227.591	40007	0.069553	0.162275	1402.5	90736.7
599	2.000000	1.108750	7.37092e+06	-47139.1	1005.82	-29767	0.000000	0.000000	7.118641	244.858	NaN	0.000000	0.001576	0.001706	28.0794	71.8777	0.001901	37804.8	9.957772	168.529	242.535	1.108330	0.075832	0.075412	244.858	37804.8	0.070974	0.168073	1456.86	84250.4
599	2.000000	1.110725	7.37092e+06	-47139.1	1005.82	-29767	0.000000	0.000000	7.121185	258.714	NaN	0.000000	0.001574	0.001763	28.0795	72.2104	0.001758	41085	4.576393	172.405	256.756	1.110392	0.077806	0.077473	258.714	41085	0.073083	0.176856	1462.85	89257.8
599	2.000000	1.112678	7.37092e+06	-47139.1	1005.82	-29767	0.000000	0.000000	7.123556	268.862	NaN	0.000000	0.001548	0.001777	28.0791	74.8133	0.001854	40358.6	2.070075	175.164	264.905	1.112400	0.079760	0.079482	268.862	40358.6	0.074763	0.184002	1461.19	85960.3
599	2.000000	1.114764	7.37092e+06	-47139.1	1005.82	-29767	0.000000	0.000000	7.126057	278.972	NaN	0.000000	0.001583	0.001776	28.0815	75.4557	0.001711	44109.4	2.760360	173.732	280.046	1.114452	0.081846	0.081534	278.972	44109.4	0.077102	0.194173	1436.71	91455.4
599	2.000000	1.116749	7.37092e+06	-47139.1	1005.82	-29767	0.000000	0.000000	7.128635	293.385	NaN	0.000000	0.001549	0.001763	28.0831	77.9078	0.001811	43012.6	6.030727	171.238	293.243	1.116328	0.083831	0.083409	293.385	43012.6	0.078715	0.201335	1457.2	87580.9
599	2.000000	1.118739	7.37092e+06	-47139.1	1005.82	-29767	0.000000	0.000000	7.131408	312.439	NaN	0.000000	0.001534	0.001764	28.0803	79.0969	0.001788	44248.4	4.212288	174.111	310.951	1.118291	0.085820	0.085373	312.439	44248.4	0.080525	0.209516	1491.25	88320.8
599	2.000000	1.120807	7.37092e+06	-47139.1	1005.82	-29767	0.000000	0.000000	7.133431	311.347	NaN	0.000000	0.001582	0.001769	28.0799	81.8643	0.001847	44313.2	5.167867	171.4	313.661	1.120421	0.087888	0.087502	311.347	44313.2	0.082619	0.219174	1420.54	86479.3
599	2.000000	1.122666	7.37092e+06	-47139.1	1005.82	-29767	0.000000	0.000000	7.136187	333.183	NaN	0.000000	0.001577	0.001805	28.0793	83.023	0.001817	45686.6	3.028251	173.344	329.973	1.122475	0.089747	0.089556	333.183	45686.6	0.084277	0.226967	1467.98	87615.4
599	2.000000	1.124722	7.37092e+06	-47139.1	1005.82	-29767	0.000000	0.000000	7.138565	340.985	NaN	0.000000	0.001572	0.001790	28.0792	84.1993	0.001764	47733.7	2.939447	173.259	340.485	1.124381	0.091804	0.091462	340.985	47733.7	0.086446	0.237348	1436.65	89517
599	2.000000	1.126715	7.37092e+06	-47139.1	1005.82	-29767	0.000000	0.000000	7.141220	357.103	NaN	0.000000	0.001575	0.001786	28.0794	86.7696	0.001848	46942.8	5.358182	170.717	355.237	1.126378	0.093797	0.093459	357.103	46942.8	0.088091	0.245368	1455.37	86583
599	2.000000	1.128741	7.37092e+06	-47139.1	1005.82	-29767	0.000000	0.000000	7.143994	375.29	NaN	0.000000	0.001584	0.001792	28.079	88.2061	0.001703	51787	5.750440	169.836	374.333	1.128448	0.095823	0.095529	375.29	51787	0.090388	0.256771	1461.58	93373.1
599	2.000000	1.130767	7.37092e+06	-47139.1	1005.82	-29767	0.000000	0.000000	7.146600	389.397	NaN	0.000000	0.001552	0.001782	28.0797	89.5847	0.001842	48644.8	4.412913	171.599	392.015	1.130437	0.097849	0.097518	389.397	48644.8	0.091845	0.264134	1474.24	86476.4
599	2.000000	1.132717	7.37092e+06	-47139.1	1005.82	-29767	0.000000	0.000000	7.149146	403.903	NaN	0.000000	0.001556	0.001786	28.0793	92.2561	0.001779	51860.2	5.761895	169.919	401.976	1.132363	0.099798	0.099444	403.903	51860.2	0.093957	0.274974	1468.88	90357
599	2.000000	1.134676	7.37092e+06	-47139.1	1005.82	-29767	0.000000	0.000000	7.151824	421.401	NaN	0.000000	0.001548	0.001783	28.0791	92.0464	0.001763	52217.5	4.003363	171.216	416.401	1.134338	0.101757	0.101419	421.401	52217.5	0.095705	0.284100	1483.28	89506.2
599	2.000000	1.136611	7.37092e+06	-47139.1	1005.82	-29767	0.000000	0.000000	7.154203	432.202	NaN	0.000000	0.001545	0.001806	28.0793	95.6423	0.001787	53511.1	4.711280	170.328	425.355	1.136371	0.103692	0.103452	432.202	53511.1	0.097634	0.294337	1468.39	90114.5
599	2.000000	1.138895	7.37092e+06	-47139.1	1005.82	-29767	0.000000	0.000000	7.157304	452.063	NaN	0.000000	0.001574	0.001789	28.0804	97.6367	0.001874	52096.7	12.665	164.678	457.326	1.138229	0.105976	0.105310	452.063	52096.7	0.099468	0.304224	1485.95	86295.2
599	2.000000	1.140632	7.37092e+06	-47139.1	1005.82	-29767	0.000000	0.000000	7.159456	462.16	NaN	0.000000	0.001555	0.001786	28.0806	99.127	0.001826	54278.2	7.132031	167.888	456.729	1.140186	0.107713	0.107267	462.16	54278.2	0.101327	0.314400	1469.98	88441.8
599	2.000000	1.141124	7.37092e+06	-47139.1	1005.82	-29767	0.000000	0.000000	7.160208	468.477	NaN	0.000000	0.001528	0.001800	28.0803	96.5952	0.001678	57567.2	-1.883123	-3.203682	462.967	1.140900	0.108205	0.107982	468.477	57567.2	0.102102	0.318688	1470.02	93167.7