File: remote_trans/data/nanoindenter/0828-1/data/Data_2025-08-06,11h17m57s/2025-07-22_16-23-58_1_1033.txt
2025-07-22, 16:23:58, 1
Index	Phase	Displacement	Time	Pos X	Pos Y	Pos Z	Rot A	Rot B	Piezo Z	Force A	Force B	Gripper	Voltage A	Voltage B	Temperature	Amplitude force	Amplitude pos	Stiffness	Phase shift	Phase excitation	Force A raw	Displacement raw	HMax	HMax raw	Real Force	Real Stiffness	Contact Depth	Area	Hardness	Reduced Mod.
[#]	[#]	[um]	[s]	[um]	[um]	[um]	[m°]	[m°]	[um]	[uN]	[uN]	[V]	[V]	[V]	[°C]	[uN]	[um]	[N/m]	[°]	[°]	[uN]	[um]	[um]	[um]	[uN]	[N/m]	[um]	[um^2]	[MPa]	[MPa]
1033	1.000000	0.002316	7.37515e+06	-51789.1	1055.82	-29751	0.000000	0.000000	6.002785	-0.025390	NaN	0.000000	0.001577	0.001625	28.0846	0.090016	0.000952	94.5433	-155.538	-157.292	0.015996	0.001084	-1.104043	-1.105274	-0.025390	94.5433	-1.103841	-5.644547E+14	4.498119E-17	NaN
1033	1.000000	0.012408	7.37515e+06	-51789.1	1055.82	-29751	0.000000	0.000000	6.012881	0.063991	NaN	0.000000	0.001587	0.001642	28.084	0.136971	0.001199	114.209	178.993	13.2509	-0.024624	0.010882	-1.093951	-1.095476	0.063991	114.209	-1.094371	-4.212117E+14	-1.519215E-16	NaN
1033	1.000000	0.022268	7.37515e+06	-51789.1	1055.82	-29751	0.000000	0.000000	6.022739	0.020888	NaN	0.000000	0.001627	0.001628	28.084	0.028104	0.001845	15.2285	-27.6287	-167.795	-0.039630	0.020967	-1.084091	-1.085392	0.020888	15.2285	-1.085119	-3.164278E+14	-6.601239E-17	NaN
1033	1.000000	0.032252	7.37515e+06	-51789.1	1055.82	-29751	0.000000	0.000000	6.032722	-0.012500	NaN	0.000000	0.001607	0.001620	28.0841	0.050856	0.001854	27.4353	-177.79	12.7617	0.000500	0.030894	-1.074106	-1.075465	-0.012500	27.4353	-1.073765	-2.227222E+14	5.612260E-17	NaN
1033	1.000000	0.042286	7.37515e+06	-51789.1	1055.82	-29751	0.000000	0.000000	6.042759	0.048333	NaN	0.000000	0.001565	0.001685	28.0844	0.040882	0.001984	20.6104	10.9109	-164.397	-0.000397	0.040960	-1.064072	-1.065398	0.048333	20.6104	-1.065831	-1.742518E+14	-2.773769E-16	NaN
1033	1.000000	0.052324	7.37515e+06	-51789.1	1055.82	-29751	0.000000	0.000000	6.052796	0.011764	NaN	0.000000	0.001584	0.001658	28.084	0.139444	0.002034	68.5552	112.891	14.061	0.061861	0.050910	-1.054034	-1.055449	0.011764	68.5552	-1.054163	-1.214417E+14	-9.686549E-17	NaN
1033	1.000000	0.062267	7.37515e+06	-51789.1	1055.82	-29751	0.000000	0.000000	6.062737	-0.028242	NaN	0.000000	0.001558	0.001666	28.084	0.135217	0.002113	63.9931	-140.745	-161.855	-0.047733	0.060928	-1.044091	-1.045430	-0.028242	63.9931	-1.043760	-8.800912E+13	3.208959E-16	NaN
1033	1.000000	0.072293	7.37515e+06	-51789.1	1055.82	-29751	0.000000	0.000000	6.072766	0.060464	NaN	0.000000	0.001538	0.001664	28.0842	0.028480	0.002056	13.8502	124.434	14.7384	-0.060034	0.070916	-1.034066	-1.035442	0.060464	13.8502	-1.037340	-7.214324E+13	-8.381135E-16	NaN
1033	1.000000	0.082262	7.37515e+06	-51789.1	1055.82	-29751	0.000000	0.000000	6.082733	0.005883	NaN	0.000000	0.001574	0.001613	28.0842	0.051262	0.002003	25.5899	156.723	-164.985	-0.093572	0.080983	-1.024097	-1.025375	0.005883	25.5899	-1.024269	-4.812695E+13	-1.222454E-16	NaN
1033	1.000000	0.092303	7.37515e+06	-51789.1	1055.82	-29751	0.000000	0.000000	6.092774	0.014508	NaN	0.000000	0.001582	0.001642	28.0839	0.074416	0.001987	37.4473	143.682	14.3267	0.006663	0.090984	-1.014056	-1.015374	0.014508	37.4473	-1.014346	-3.538968E+13	-4.099478E-16	NaN
1033	1.000000	0.102288	7.37515e+06	-51789.1	1055.82	-29751	0.000000	0.000000	6.102758	-0.023404	NaN	0.000000	0.001629	0.001613	28.0843	0.054759	0.001943	28.1891	-144.9	-164.754	-0.052341	0.100965	-1.004070	-1.005393	-0.023404	28.1891	-1.003448	-2.524538E+13	9.270802E-16	NaN
1033	1.000000	0.112314	7.37515e+06	-51789.1	1055.82	-29751	0.000000	0.000000	6.112785	0.013705	NaN	0.000000	0.001608	0.001651	28.0845	0.110373	0.001959	56.3531	-129.01	13.2922	-0.007828	0.110966	-0.994045	-0.995392	0.013705	56.3531	-0.994227	-1.896875E+13	-7.224868E-16	NaN
1033	1.000000	0.122323	7.37515e+06	-51789.1	1055.82	-29751	0.000000	0.000000	6.122795	0.010776	NaN	0.000000	0.001591	0.001642	28.0832	0.018817	0.002067	9.104590	107.601	-164.099	-0.020405	0.120931	-0.984035	-0.985427	0.010776	9.104590	-0.984923	-1.421428E+13	-7.581228E-16	NaN
1033	1.000000	0.132265	7.37515e+06	-51789.1	1055.82	-29751	0.000000	0.000000	6.132737	0.043050	NaN	0.000000	0.001589	0.001639	28.0829	0.136197	0.001984	68.6563	-139.731	13.6595	0.038125	0.130920	-0.974094	-0.975438	0.043050	68.6563	-0.974564	-1.030782E+13	-4.176433E-15	NaN
1033	1.000000	0.142318	7.37515e+06	-51789.1	1055.82	-29751	0.000000	0.000000	6.142789	-0.012281	NaN	0.000000	0.001611	0.001614	28.0834	0.061347	0.002004	30.6114	141.688	-166.997	-0.060495	0.140989	-0.964040	-0.965370	-0.012281	30.6114	-0.963739	-7.366709E+12	1.667049E-15	NaN
1033	1.000000	0.152320	7.37515e+06	-51789.1	1055.82	-29751	0.000000	0.000000	6.152791	0.003641	NaN	0.000000	0.001584	0.001624	28.0834	0.049623	0.001987	24.9695	172.996	12.2338	0.060965	0.150965	-0.954038	-0.955393	0.003641	24.9695	-0.954148	-5.469668E+12	-6.656194E-16	NaN
1033	1.000000	0.162316	7.37515e+06	-51789.1	1055.82	-29751	0.000000	0.000000	6.162785	-0.048033	NaN	0.000000	0.001596	0.001588	28.0831	0.024113	0.002055	11.7313	-63.4947	-165.911	7.270501E-5	0.160999	-0.944042	-0.945360	-0.048033	11.7313	-0.940971	-3.632800E+12	1.322210E-14	NaN
1033	1.000000	0.172331	7.37515e+06	-51789.1	1055.82	-29751	0.000000	0.000000	6.172801	-0.005720	NaN	0.000000	0.001607	0.001621	28.0832	0.011331	0.002096	5.406073	4.553189	16.8782	0.000863	0.171004	-0.934027	-0.935354	-0.005720	5.406073	-0.933234	-2.856547E+12	2.002414E-15	NaN
1033	1.000000	0.182324	7.37515e+06	-51789.1	1055.82	-29751	0.000000	0.000000	6.182795	0.002981	NaN	0.000000	0.001589	0.001557	28.0834	0.093211	0.002043	45.634	-144.997	-165.056	-0.006479	0.181006	-0.924034	-0.925353	0.002981	45.634	-0.924083	-2.149482E+12	-1.386980E-15	NaN
1033	1.000000	0.192347	7.37515e+06	-51789.1	1055.82	-29751	0.000000	0.000000	6.192816	-0.045352	NaN	0.000000	0.001539	0.001596	28.0831	0.066269	0.002003	33.0857	147.553	15.9129	0.003169	0.190962	-0.914011	-0.915396	-0.045352	33.0857	-0.912983	-1.522139E+12	2.979492E-14	NaN
1033	1.000000	0.202350	7.37515e+06	-51789.1	1055.82	-29751	0.000000	0.000000	6.202822	0.025292	NaN	0.000000	0.001586	0.001587	28.0834	0.075877	0.002050	37.0128	-99.0242	-168.42	0.105900	0.201046	-0.904008	-0.905312	0.025292	37.0128	-0.904521	-1.169890E+12	-2.161905E-14	NaN
1033	1.000000	0.212357	7.37515e+06	-51789.1	1055.82	-29751	0.000000	0.000000	6.212827	-0.033018	NaN	0.000000	0.001536	0.001614	28.0833	0.086345	0.001992	43.3455	-113.233	15.4525	0.008192	0.211011	-0.894001	-0.895348	-0.033018	43.3455	-0.893430	-8.284689E+11	3.985439E-14	NaN
1033	1.000000	0.222355	7.37515e+06	-51789.1	1055.82	-29751	0.000000	0.000000	6.222825	-0.027029	NaN	0.000000	0.001560	0.001585	28.0834	0.045514	0.001989	22.8808	25.6164	-167.235	-0.060674	0.221021	-0.884003	-0.885337	-0.027029	22.8808	-0.883117	-6.009767E+11	4.497558E-14	NaN
1033	1.000000	0.232360	7.37515e+06	-51789.1	1055.82	-29751	0.000000	0.000000	6.232828	-0.054785	NaN	0.000000	0.001548	0.001589	28.0833	0.099295	0.002019	49.1681	-100.746	11.9994	-0.085282	0.231036	-0.873999	-0.875322	-0.054785	49.1681	-0.873163	-4.407942E+11	1.242869E-13	NaN
1033	1.000000	0.242339	7.37515e+06	-51789.1	1055.82	-29751	0.000000	0.000000	6.242811	0.030929	NaN	0.000000	0.001539	0.001616	28.0832	0.046665	0.001971	23.6775	-38.0678	-162.578	-0.021629	0.241056	-0.864019	-0.865303	0.030929	23.6775	-0.864999	-3.418016E+11	-9.048866E-14	NaN
1033	1.000000	0.252366	7.37515e+06	-51789.1	1055.82	-29751	0.000000	0.000000	6.252835	-0.022460	NaN	0.000000	0.001568	0.001601	28.0841	0.164678	0.001921	85.7196	-4.366351	14.0562	0.002872	0.250975	-0.853993	-0.855383	-0.022460	85.7196	-0.853796	-2.410680E+11	9.316808E-14	NaN
1033	1.000000	0.262387	7.37515e+06	-51789.1	1055.82	-29751	0.000000	0.000000	6.262857	-0.011424	NaN	0.000000	0.001549	0.001701	28.0844	0.095914	0.001991	48.1745	178.756	-164.996	0.026395	0.261067	-0.843972	-0.845291	-0.011424	48.1745	-0.843794	-1.764756E+11	6.473441E-14	NaN
1033	1.000000	0.272368	7.37515e+06	-51789.1	1055.82	-29751	0.000000	0.000000	6.272838	-0.031330	NaN	0.000000	0.001541	0.001600	28.0844	0.056008	0.001978	28.3093	63.9991	16.8442	-0.078822	0.270967	-0.833990	-0.835391	-0.031330	28.3093	-0.833160	-1.266525E+11	2.473666E-13	NaN
1033	1.000000	0.282373	7.37515e+06	-51789.1	1055.82	-29751	0.000000	0.000000	6.282845	0.041038	NaN	0.000000	0.001550	0.001622	28.085	0.090771	0.002088	43.4685	76.4859	-170.597	-0.024022	0.281055	-0.823985	-0.825303	0.041038	43.4685	-0.824694	-9.724134E+10	-4.220226E-13	NaN
1033	1.000000	0.292337	7.37515e+06	-51789.1	1055.82	-29751	0.000000	0.000000	6.292809	0.046831	NaN	0.000000	0.001577	0.001610	28.0843	0.059275	0.002071	28.617	-54.598	10.8658	0.055584	0.291014	-0.814022	-0.815345	0.046831	28.617	-0.815249	-7.240654E+10	-6.467787E-13	NaN
1033	1.000000	0.302365	7.37515e+06	-51789.1	1055.82	-29751	0.000000	0.000000	6.302836	0.015715	NaN	0.000000	0.001567	0.001595	28.0845	0.115300	0.001957	58.9169	89.3575	-169.824	-0.076507	0.301052	-0.803993	-0.805306	0.015715	58.9169	-0.804193	-5.126018E+10	-3.065820E-13	NaN
1033	1.000000	0.312380	7.37515e+06	-51789.1	1055.82	-29751	0.000000	0.000000	6.312851	0.018975	NaN	0.000000	0.001591	0.001575	28.0843	0.051363	0.001974	26.0196	-124.266	12.0395	0.000425	0.311039	-0.793979	-0.795320	0.018975	26.0196	-0.794526	-3.789145E+10	-5.007687E-13	NaN
1033	1.000000	0.322384	7.37515e+06	-51789.1	1055.82	-29751	0.000000	0.000000	6.322856	0.032063	NaN	0.000000	0.001678	0.001556	28.0845	0.133473	0.001937	68.9136	-87.7866	-163.971	0.065879	0.321049	-0.783975	-0.785310	0.032063	68.9136	-0.784324	-2.754103E+10	-1.164201E-12	NaN
1033	1.000000	0.332415	7.37515e+06	-51789.1	1055.82	-29751	0.000000	0.000000	6.332885	-0.020865	NaN	0.000000	0.001663	0.001559	28.0845	0.067362	0.001985	33.9373	30.9152	14.4692	-0.032240	0.331030	-0.773943	-0.775328	-0.020865	33.9373	-0.773482	-1.961747E+10	1.063582E-12	NaN
1033	1.000000	0.342403	7.37515e+06	-51789.1	1055.82	-29751	0.000000	0.000000	6.342873	-0.012599	NaN	0.000000	0.001688	0.001571	28.0844	0.053831	0.002053	26.2158	-133.259	-163.062	-0.052892	0.341091	-0.763955	-0.765267	-0.012599	26.2158	-0.763595	-1.439470E+10	8.752406E-13	NaN
1033	1.000000	0.352411	7.37515e+06	-51789.1	1055.82	-29751	0.000000	0.000000	6.352883	0.011540	NaN	0.000000	0.001663	0.001557	28.0844	0.037819	0.002071	18.2654	17.8427	16.0079	0.022464	0.351074	-0.753947	-0.755284	0.011540	18.2654	-0.754421	-1.079918E+10	-1.068610E-12	NaN
1033	1.000000	0.362396	7.37515e+06	-51789.1	1055.82	-29751	0.000000	0.000000	6.362864	-0.074041	NaN	0.000000	0.001669	0.001587	28.0845	0.069076	0.001950	35.4162	48.7743	-165.862	-0.080417	0.361105	-0.743962	-0.745253	-0.074041	35.4162	-0.742394	-7.407393E+9	9.995572E-12	NaN
1033	1.000000	0.372427	7.37515e+06	-51789.1	1055.82	-29751	0.000000	0.000000	6.372898	0.002295	NaN	0.000000	0.001609	0.001547	28.0847	0.037179	0.002011	18.4838	140.181	14.0121	-0.082425	0.370994	-0.733932	-0.735365	0.002295	18.4838	-0.734025	-5.697097E+9	-4.027832E-13	NaN
1033	1.000000	0.382424	7.37515e+06	-51789.1	1055.82	-29751	0.000000	0.000000	6.382896	0.048464	NaN	0.000000	0.001558	0.001569	28.0844	0.030878	0.002029	15.218	179.933	-166.901	0.046183	0.381147	-0.723935	-0.725211	0.048464	15.218	-0.726323	-4.473945E+9	-1.083256E-11	NaN
1033	1.000000	0.392423	7.37515e+06	-51789.1	1055.82	-29751	0.000000	0.000000	6.392895	0.032227	NaN	0.000000	0.001579	0.001605	28.0833	0.057355	0.002094	27.3952	162.769	11.9572	0.060232	0.391091	-0.713935	-0.715267	0.032227	27.3952	-0.714818	-3.117347E+9	-1.033783E-11	NaN
1033	1.000000	0.402431	7.37515e+06	-51789.1	1055.82	-29751	0.000000	0.000000	6.402901	-0.008603	NaN	0.000000	0.001542	0.001603	28.0831	0.084661	0.002052	41.2487	-9.393347	-165.477	0.039244	0.401132	-0.703928	-0.705227	-0.008603	41.2487	-0.703771	-2.203063E+9	3.905162E-12	NaN
1033	1.000000	0.412432	7.37515e+06	-51789.1	1055.82	-29751	0.000000	0.000000	6.412901	-0.046907	NaN	0.000000	0.001558	0.001586	28.0831	0.125273	0.002024	61.9031	-27.4338	11.3049	-0.022759	0.411041	-0.693926	-0.695317	-0.046907	61.9031	-0.693358	-1.587827E+9	2.954173E-11	NaN
1033	1.000000	0.422433	7.37515e+06	-51789.1	1055.82	-29751	0.000000	0.000000	6.422903	-0.029355	NaN	0.000000	0.001554	0.001526	28.0832	0.023956	0.001976	12.1204	85.8984	-165.267	0.026554	0.421156	-0.683925	-0.685202	-0.029355	12.1204	-0.682109	-1.114403E+9	2.634191E-11	NaN
1033	1.000000	0.432447	7.37515e+06	-51789.1	1055.82	-29751	0.000000	0.000000	6.432919	0.030469	NaN	0.000000	0.001573	0.001570	28.0833	0.036863	0.002030	18.1625	-161.423	16.5947	0.052899	0.431092	-0.673911	-0.675267	0.030469	18.1625	-0.675169	-8.956305E+8	-3.401941E-11	NaN
1033	1.000000	0.442445	7.37515e+06	-51789.1	1055.82	-29751	0.000000	0.000000	6.442914	-0.053606	NaN	0.000000	0.001549	0.001571	28.083	0.066219	0.002015	32.871	150.422	-166.843	-0.013701	0.441165	-0.663913	-0.665193	-0.053606	32.871	-0.662690	-6.043804E+8	8.869620E-11	NaN
1033	1.000000	0.452450	7.37515e+06	-51789.1	1055.82	-29751	0.000000	0.000000	6.452918	-0.061879	NaN	0.000000	0.001533	0.001549	28.083	0.077384	0.001946	39.7761	-110.021	15.2664	-0.037952	0.451045	-0.653908	-0.655313	-0.061879	39.7761	-0.652742	-4.415892E+8	1.401278E-10	NaN
1033	1.000000	0.462462	7.37515e+06	-51789.1	1055.82	-29751	0.000000	0.000000	6.462930	-0.080958	NaN	0.000000	0.001585	0.001581	28.0826	0.058150	0.001961	29.6522	143.465	-165.302	-0.060927	0.461119	-0.643896	-0.645240	-0.080958	29.6522	-0.641848	-3.130729E+8	2.585907E-10	NaN
1033	1.000000	0.472437	7.37515e+06	-51789.1	1055.82	-29751	0.000000	0.000000	6.472905	-0.049526	NaN	0.000000	0.001606	0.001589	28.0831	0.053972	0.001988	27.1471	-155.803	16.0388	-0.056785	0.471118	-0.633922	-0.635240	-0.049526	27.1471	-0.632553	-2.333918E+8	2.122022E-10	NaN
1033	1.000000	0.482433	7.37515e+06	-51789.1	1055.82	-29751	0.000000	0.000000	6.482905	0.028499	NaN	0.000000	0.001553	0.001596	28.0828	0.033480	0.002079	16.1017	-85.4921	-164.844	0.057662	0.481144	-0.623926	-0.625214	0.028499	16.1017	-0.625253	-1.852776E+8	-1.538164E-10	NaN
1033	1.000000	0.492475	7.37515e+06	-51789.1	1055.82	-29751	0.000000	0.000000	6.492944	-0.030154	NaN	0.000000	0.001557	0.001590	28.083	0.015057	0.002140	7.036197	-72.1752	13.3338	-0.006235	0.491171	-0.613884	-0.615187	-0.030154	7.036197	-0.610670	-1.167688E+8	2.582405E-10	NaN
1033	1.000000	0.502473	7.37515e+06	-51789.1	1055.82	-29751	0.000000	0.000000	6.502941	-0.054334	NaN	0.000000	0.001575	0.001582	28.083	0.080715	0.002053	39.3117	1.921330	-167.813	-0.045627	0.501140	-0.603885	-0.605218	-0.054334	39.3117	-0.602849	-9.113607E+7	5.961831E-10	NaN
1033	1.000000	0.512487	7.37515e+06	-51789.1	1055.82	-29751	0.000000	0.000000	6.512957	-0.014743	NaN	0.000000	0.001594	0.001566	28.0829	0.085041	0.002097	40.5609	-35.0311	11.6965	-0.053594	0.511108	-0.593871	-0.595251	-0.014743	40.5609	-0.593599	-6.796263E+7	2.169261E-10	NaN
1033	1.000000	0.522444	7.37515e+06	-51789.1	1055.82	-29751	0.000000	0.000000	6.522917	0.045533	NaN	0.000000	0.001577	0.001600	28.0829	0.041537	0.001915	21.6874	179.074	-169.162	0.036087	0.521202	-0.583914	-0.585157	0.045533	21.6874	-0.585489	-5.253587E+7	-8.667087E-10	NaN
1033	1.000000	0.532493	7.37515e+06	-51789.1	1055.82	-29751	0.000000	0.000000	6.532962	-0.038294	NaN	0.000000	0.001644	0.001593	28.0841	0.015568	0.001940	8.026150	-85.1796	14.7048	-0.078547	0.531095	-0.573866	-0.575263	-0.038294	8.026150	-0.570287	-3.240406E+7	1.181777E-9	NaN
1033	1.000000	0.542494	7.37515e+06	-51789.1	1055.82	-29751	0.000000	0.000000	6.542963	-0.035853	NaN	0.000000	0.001634	0.001614	28.0844	0.094294	0.001953	48.2844	161.832	-164.109	-0.004655	0.541179	-0.563865	-0.565180	-0.035853	48.2844	-0.563308	-2.594952E+7	1.381641E-9	NaN
1033	1.000000	0.552462	7.37515e+06	-51789.1	1055.82	-29751	0.000000	0.000000	6.552932	-0.016156	NaN	0.000000	0.001634	0.001618	28.0841	0.106276	0.002012	52.8334	143.39	13.7313	0.000269	0.551132	-0.553897	-0.555226	-0.016156	52.8334	-0.553667	-1.908712E+7	8.464537E-10	NaN
1033	1.000000	0.562481	7.37515e+06	-51789.1	1055.82	-29751	0.000000	0.000000	6.562951	-0.032645	NaN	0.000000	0.001631	0.001611	28.0843	0.042509	0.002063	20.607	-17.8578	-168.021	-0.043719	0.561217	-0.543877	-0.545141	-0.032645	20.607	-0.542689	-1.344757E+7	2.427586E-9	NaN
1033	1.000000	0.572484	7.37515e+06	-51789.1	1055.82	-29751	0.000000	0.000000	6.572955	-0.008340	NaN	0.000000	0.001668	0.001616	28.0846	0.094639	0.002014	46.995	-78.088	14.6221	-0.077208	0.571111	-0.533874	-0.535247	-0.008340	46.995	-0.533741	-1.010445E+7	8.253421E-10	NaN
1033	1.000000	0.582506	7.37515e+06	-51789.1	1055.82	-29751	0.000000	0.000000	6.582977	0.012028	NaN	0.000000	0.001638	0.001566	28.0845	0.090012	0.001972	45.6389	156.784	-165.847	-0.008903	0.581209	-0.523852	-0.525149	0.012028	45.6389	-0.524050	-7.41149e+06	-1.622821E-9	NaN
1033	1.000000	0.592520	7.37515e+06	-51789.1	1055.82	-29751	0.000000	0.000000	6.592989	-0.046371	NaN	0.000000	0.001674	0.001577	28.0842	0.093526	0.002107	44.3816	-34.6871	14.3888	-0.067454	0.591086	-0.513838	-0.515272	-0.046371	44.3816	-0.513055	-5.2114e+06	8.897919E-9	NaN
1033	1.000000	0.602536	7.37515e+06	-51789.1	1055.82	-29751	0.000000	0.000000	6.603007	0.005924	NaN	0.000000	0.001579	0.001606	28.084	0.124673	0.002070	60.2199	59.5936	-166.088	-0.000801	0.601228	-0.503822	-0.505130	0.005924	60.2199	-0.503896	-3.88463e+06	-1.524928E-9	NaN
1033	1.000000	0.612540	7.37515e+06	-51789.1	1055.82	-29751	0.000000	0.000000	6.613007	-0.106002	NaN	0.000000	0.001588	0.001636	28.0845	0.051196	0.002073	24.7019	-139.24	9.113031	0.000395	0.611120	-0.493818	-0.495238	-0.106002	24.7019	-0.490599	-2.53379e+06	4.183554E-8	NaN
1033	1.000000	0.622529	7.37516e+06	-51789.1	1055.82	-29751	0.000000	0.000000	6.623001	0.017584	NaN	0.000000	0.001553	0.001637	28.0844	0.123193	0.002100	58.6574	-21.9028	-169.314	0.039242	0.621161	-0.483829	-0.485197	0.017584	58.6574	-0.484054	-2.05236e+06	-8.567833E-9	NaN
1033	1.000000	0.632519	7.37516e+06	-51789.1	1055.82	-29751	0.000000	0.000000	6.632993	0.063643	NaN	0.000000	0.001591	0.001608	28.0843	0.079586	0.001975	40.2908	-29.065	14.6711	0.066401	0.631096	-0.473839	-0.475262	0.063643	40.2908	-0.475024	-1.53402e+06	-4.148771E-8	NaN
1033	1.000000	0.642539	7.37516e+06	-51789.1	1055.82	-29751	0.000000	0.000000	6.643012	0.033443	NaN	0.000000	0.001583	0.001605	28.0844	0.058834	0.002057	28.5955	7.880563	-166.576	-0.082107	0.641217	-0.463819	-0.465141	0.033443	28.5955	-0.464696	-1.09896e+06	-3.043180E-8	NaN
1033	1.000000	0.652555	7.37516e+06	-51789.1	1055.82	-29751	0.000000	0.000000	6.653027	0.009557	NaN	0.000000	0.001579	0.001636	28.0845	0.108220	0.002114	51.1854	101.307	14.8271	0.014422	0.651161	-0.453803	-0.455197	0.009557	51.1854	-0.453943	-775973	-1.231667E-8	NaN
1033	1.000000	0.662545	7.37516e+06	-51789.1	1055.82	-29751	0.000000	0.000000	6.663018	0.052646	NaN	0.000000	0.001562	0.001623	28.0831	0.069588	0.002048	33.9861	113.09	-166.712	0.017122	0.661244	-0.443814	-0.445114	0.052646	33.9861	-0.444975	-580158	-9.074468E-8	NaN
1033	1.000000	0.672547	7.37516e+06	-51789.1	1055.82	-29751	0.000000	0.000000	6.673017	-0.014727	NaN	0.000000	0.001604	0.001625	28.0829	0.104990	0.001888	55.6005	37.4591	11.231	0.000775	0.671162	-0.433811	-0.435196	-0.014727	55.6005	-0.433612	-401000	3.672483E-8	NaN
1033	1.000000	0.682549	7.37516e+06	-51789.1	1055.82	-29751	0.000000	0.000000	6.683019	-0.008926	NaN	0.000000	0.001558	0.001588	28.083	0.040484	0.002019	20.051	155.711	-166.629	-0.005468	0.681182	-0.423809	-0.425176	-0.008926	20.051	-0.423475	-288193	3.097383E-8	NaN
1033	1.000000	0.692555	7.37516e+06	-51789.1	1055.82	-29751	0.000000	0.000000	6.693028	0.059551	NaN	0.000000	0.001596	0.001609	28.0828	0.032988	0.002038	16.1854	-12.3783	11.7129	0.060803	0.691244	-0.413803	-0.415114	0.059551	16.1854	-0.416563	-229957	-2.589658E-7	NaN
1033	1.000000	0.702542	7.37516e+06	-51789.1	1055.82	-29751	0.000000	0.000000	6.703013	0.020992	NaN	0.000000	0.001582	0.001602	28.0829	0.045627	0.002078	21.9605	110.708	-164.397	0.104066	0.701294	-0.403817	-0.405064	0.020992	21.9605	-0.404534	-155098	-1.353492E-7	NaN
1033	1.000000	0.712560	7.37516e+06	-51789.1	1055.82	-29751	0.000000	0.000000	6.713029	-0.050906	NaN	0.000000	0.001574	0.001572	28.0827	0.037802	0.001954	19.3463	-147.889	14.5238	-0.032436	0.711132	-0.393798	-0.395227	-0.050906	19.3463	-0.391824	-102155	4.983190E-7	NaN
1033	1.000000	0.722534	7.37516e+06	-51789.1	1055.82	-29751	0.000000	0.000000	6.723004	-0.009004	NaN	0.000000	0.001580	0.001646	28.0833	0.074249	0.002111	35.1707	120.383	-165.931	0.006456	0.721269	-0.383824	-0.385089	-0.009004	35.1707	-0.383632	-77981	1.154685E-7	NaN
1033	1.000000	0.732544	7.37516e+06	-51789.1	1055.82	-29751	0.000000	0.000000	6.733014	-0.017974	NaN	0.000000	0.001538	0.001641	28.0829	0.126627	0.002086	60.7056	93.096	15.7995	-0.061384	0.731250	-0.373815	-0.375108	-0.017974	60.7056	-0.373593	-55954.1	3.212219E-7	NaN
1033	1.000000	0.742571	7.37516e+06	-51789.1	1055.82	-29751	0.000000	0.000000	6.743040	-0.040340	NaN	0.000000	0.001605	0.001611	28.083	0.055740	0.001940	28.7254	32.7718	-166.963	-0.056493	0.741232	-0.363787	-0.365126	-0.040340	28.7254	-0.362734	-39025.4	1.033676E-6	NaN
1033	1.000000	0.752558	7.37516e+06	-51789.1	1055.82	-29751	0.000000	0.000000	6.753030	0.038936	NaN	0.000000	0.001590	0.001615	28.0827	0.117421	0.001950	60.2004	-85.4952	17.9645	0.004998	0.751225	-0.353800	-0.355133	0.038936	60.2004	-0.354286	-29454.1	-1.321922E-6	NaN
1033	1.000000	0.762586	7.37516e+06	-51789.1	1055.82	-29751	0.000000	0.000000	6.763054	-0.048872	NaN	0.000000	0.001619	0.001621	28.083	0.103247	0.002034	50.7487	98.5204	-165.011	0.030590	0.761290	-0.343773	-0.345068	-0.048872	50.7487	-0.343051	-20229.8	2.415829E-6	NaN
1033	1.000000	0.772571	7.37516e+06	-51789.1	1055.82	-29751	0.000000	0.000000	6.773044	0.046705	NaN	0.000000	0.001613	0.001657	28.0832	0.196807	0.002066	95.2737	-100.19	11.8701	-0.022066	0.771231	-0.333787	-0.335128	0.046705	95.2737	-0.334155	-15004.9	-3.112677E-6	NaN
1033	1.000000	0.782555	7.37516e+06	-51789.1	1055.82	-29751	0.000000	0.000000	6.783025	-0.011281	NaN	0.000000	0.001617	0.001629	28.0829	0.038755	0.002067	18.748	-72.3038	-165.545	0.045993	0.781229	-0.323804	-0.325129	-0.011281	18.748	-0.323352	-10421.7	1.082477E-6	NaN
1033	1.000000	0.792583	7.37516e+06	-51789.1	1055.82	-29751	0.000000	0.000000	6.793054	0.019577	NaN	0.000000	0.001605	0.001642	28.083	0.067225	0.002058	32.6709	-103.736	12.3788	-0.022332	0.791260	-0.313776	-0.315098	0.019577	32.6709	-0.314225	-7647.28	-2.559952E-6	NaN
1033	1.000000	0.802547	7.37516e+06	-51789.1	1055.82	-29751	0.000000	0.000000	6.803019	0.027181	NaN	0.000000	0.001557	0.001655	28.0843	0.152150	0.002022	75.2626	-46.0841	-166.58	-0.014566	0.801296	-0.303811	-0.305063	0.027181	75.2626	-0.304082	-5411.62	-5.022623E-6	NaN
1033	1.000000	0.812590	7.37516e+06	-51789.1	1055.82	-29751	0.000000	0.000000	6.813059	-0.066081	NaN	0.000000	0.001592	0.001604	28.084	0.005269	0.002045	2.577123	-54.9115	11.4665	0.017927	0.811171	-0.293768	-0.295187	-0.066081	2.577123	-0.274537	-1951.58	3.386030E-5	NaN
1033	1.000000	0.822609	7.37516e+06	-51789.1	1055.82	-29751	0.000000	0.000000	6.823078	-0.040983	NaN	0.000000	0.001595	0.001594	28.0841	0.088913	0.002088	42.5765	156.037	-164.366	-0.003296	0.821281	-0.283749	-0.285078	-0.040983	42.5765	-0.283027	-2621.75	1.563174E-5	NaN
1033	1.000000	0.832598	7.37516e+06	-51789.1	1055.82	-29751	0.000000	0.000000	6.833070	0.009365	NaN	0.000000	0.001594	0.001597	28.0843	0.060200	0.002021	29.7818	132.3	10.6472	0.059737	0.831274	-0.273760	-0.275085	0.009365	29.7818	-0.273996	-1915.09	-4.889938E-6	NaN
1033	1.000000	0.842600	7.37516e+06	-51789.1	1055.82	-29751	0.000000	0.000000	6.843070	-0.018180	NaN	0.000000	0.001629	0.001602	28.0841	0.034938	0.001988	17.5743	-142.343	-165.856	-0.009195	0.841358	-0.263758	-0.265000	-0.018180	17.5743	-0.262982	-1301.87	1.396416E-5	NaN
1033	1.000000	0.852639	7.37516e+06	-51789.1	1055.82	-29751	0.000000	0.000000	6.853108	-0.052161	NaN	0.000000	0.001684	0.001594	28.0841	0.085212	0.001962	43.4305	15.4392	14.4135	-0.003409	0.851235	-0.253719	-0.255123	-0.052161	43.4305	-0.252818	-908.859	5.739205E-5	NaN
1033	1.000000	0.862611	7.37516e+06	-51789.1	1055.82	-29751	0.000000	0.000000	6.863081	-0.003156	NaN	0.000000	0.001640	0.001602	28.0844	0.075684	0.001942	38.975	0.361071	-168.232	0.017501	0.861300	-0.243748	-0.245058	-0.003156	38.975	-0.243687	-656.193	4.808890E-6	NaN
1033	1.000000	0.872613	7.37516e+06	-51789.1	1055.82	-29751	0.000000	0.000000	6.873086	0.062787	NaN	0.000000	0.001658	0.001568	28.0842	0.060476	0.002013	30.0384	-109.181	14.1344	0.024795	0.871268	-0.233745	-0.235090	0.062787	30.0384	-0.235313	-485.473	-0.000129	NaN
1033	1.000000	0.882631	7.37516e+06	-51789.1	1055.82	-29751	0.000000	0.000000	6.883102	-0.005919	NaN	0.000000	0.001654	0.001605	28.0844	0.041466	0.002065	20.0782	-119.741	-163.052	0.012262	0.881264	-0.223727	-0.225095	-0.005919	20.0782	-0.223506	-315.926	1.873690E-5	NaN
1033	1.000000	0.892642	7.37516e+06	-51789.1	1055.82	-29751	0.000000	0.000000	6.893113	0.007226	NaN	0.000000	0.001620	0.001637	28.0842	0.048599	0.002085	23.3142	-38.1275	14.2607	-0.050909	0.891245	-0.213717	-0.215113	0.007226	23.3142	-0.213949	-222.126	-3.253296E-5	NaN
1033	1.000000	0.902632	7.37516e+06	-51789.1	1055.82	-29751	0.000000	0.000000	6.903102	-0.004291	NaN	0.000000	0.001636	0.001615	28.0847	0.074595	0.002076	35.9332	-146.128	-164.303	0.034361	0.901249	-0.203727	-0.205109	-0.004291	35.9332	-0.203637	-151.114	2.839813E-5	NaN
1033	1.000000	0.912631	7.37516e+06	-51789.1	1055.82	-29751	0.000000	0.000000	6.913106	0.105032	NaN	0.000000	0.001630	0.001617	28.0845	0.060480	0.002082	29.0508	42.9551	16.9712	0.099475	0.911274	-0.193727	-0.195084	0.105032	29.0508	-0.196439	-115.082	-0.000913	NaN
1033	1.000000	0.922658	7.37516e+06	-51789.1	1055.82	-29751	0.000000	0.000000	6.923131	0.048974	NaN	0.000000	0.001650	0.001612	28.0845	0.105968	0.002000	52.9923	-164.617	-168.252	0.046235	0.921341	-0.183700	-0.185017	0.048974	52.9923	-0.184393	-72.4267	-0.000676	NaN
1033	1.000000	0.932663	7.37516e+06	-51789.1	1055.82	-29751	0.000000	0.000000	6.933135	0.020212	NaN	0.000000	0.001654	0.001596	28.0844	0.014534	0.002024	7.180687	-26.5686	15.8348	0.084924	0.931265	-0.173695	-0.175094	0.020212	7.180687	-0.175807	-51.7401	-0.000391	NaN
1033	1.000000	0.942638	7.37516e+06	-51789.1	1055.82	-29751	0.000000	0.000000	6.943109	0.007332	NaN	0.000000	0.001589	0.001601	28.0832	0.041207	0.001918	21.4858	-36.3605	-170.116	0.041745	0.941306	-0.163721	-0.165052	0.007332	21.4858	-0.163977	-32.2341	-0.000227	NaN
1033	1.000000	0.952648	7.37516e+06	-51789.1	1055.82	-29751	0.000000	0.000000	6.953117	-0.042243	NaN	0.000000	0.001624	0.001623	28.0833	0.195344	0.002004	97.4891	135.885	13.144	-0.058887	0.951299	-0.153711	-0.155059	-0.042243	97.4891	-0.153386	-20.8673	0.002024	NaN
1033	1.000000	0.962662	7.37516e+06	-51789.1	1055.82	-29751	0.000000	0.000000	6.963134	0.033855	NaN	0.000000	0.001611	0.001623	28.0832	0.022243	0.002012	11.0546	-134.034	-169.549	-0.016320	0.961341	-0.143696	-0.145017	0.033855	11.0546	-0.145993	-15.2937	-0.002214	NaN
1033	1.000000	0.972677	7.37516e+06	-51789.1	1055.82	-29751	0.000000	0.000000	6.973146	-0.053766	NaN	0.000000	0.001620	0.001624	28.0836	0.079750	0.002008	39.7206	-115.87	16.6837	-0.090954	0.971333	-0.133681	-0.135025	-0.053766	39.7206	-0.132666	-8.581192	0.006266	NaN
1033	1.000000	0.982669	7.37516e+06	-51789.1	1055.82	-29751	0.000000	0.000000	6.983139	-0.022381	NaN	0.000000	0.001610	0.001651	28.0832	0.055398	0.002012	27.5374	-105.607	-164.466	-0.113985	0.981343	-0.123690	-0.125016	-0.022381	27.5374	-0.123080	-5.570091	0.004018	NaN
1033	1.000000	0.992673	7.37516e+06	-51789.1	1055.82	-29751	0.000000	0.000000	6.993146	0.049329	NaN	0.000000	0.001623	0.001644	28.083	0.119147	0.002088	57.0669	-93.4054	15.8588	0.028075	0.991264	-0.113686	-0.115094	0.049329	57.0669	-0.114334	-3.701308	-0.013327	NaN
1033	1.000000	1.002658	7.37516e+06	-51789.1	1055.82	-29751	0.000000	0.000000	7.003129	0.004240	NaN	0.000000	0.001633	0.001630	28.083	0.117345	0.001929	60.8388	143.347	-161.517	0.004771	1.001388	-0.103700	-0.104970	0.004240	60.8388	-0.103752	-2.208702	-0.001920	NaN
1033	1.000000	1.012661	7.37516e+06	-51789.1	1055.82	-29751	0.000000	0.000000	7.013133	0.036498	NaN	0.000000	0.001621	0.001646	28.0828	0.122025	0.001911	63.8537	46.9403	13.6804	0.063711	1.011322	-0.093697	-0.095037	0.036498	63.8537	-0.094126	-1.347247	-0.027091	NaN
1033	1.000000	1.022668	7.37516e+06	-51789.1	1055.82	-29751	0.000000	0.000000	7.023138	-0.026245	NaN	0.000000	0.001635	0.001659	28.0828	0.080293	0.001972	40.7064	-84.5064	-165.662	0.098857	1.021303	-0.083690	-0.085055	-0.026245	40.7064	-0.083207	-0.743065	0.035319	NaN
1033	1.000000	1.032672	7.37516e+06	-51789.1	1055.82	-29751	0.000000	0.000000	7.033146	0.073755	NaN	0.000000	0.001600	0.001595	28.0829	0.071598	0.002019	35.4584	-150.507	15.1914	0.057678	1.031315	-0.073686	-0.075043	0.073755	35.4584	-0.075247	-0.468697	-0.157363	NaN
1033	1.000000	1.042678	7.37516e+06	-51789.1	1055.82	-29751	0.000000	0.000000	7.043149	0.004147	NaN	0.000000	0.001612	0.001598	28.0828	0.041327	0.001977	20.9	-161.118	-166.239	0.003477	1.041388	-0.063681	-0.064970	0.004147	20.9	-0.063830	-0.231195	-0.017939	NaN
1033	1.000000	1.052696	7.37516e+06	-51789.1	1055.82	-29751	0.000000	0.000000	7.053170	0.063128	NaN	0.000000	0.001627	0.001619	28.0826	0.093907	0.002009	46.7528	-22.9538	12.8332	0.081158	1.051340	-0.053662	-0.055018	0.063128	46.7528	-0.054675	-0.125956	-0.501197	NaN
1033	1.000000	1.062698	7.37516e+06	-51789.1	1055.82	-29751	0.000000	0.000000	7.063171	0.043366	NaN	0.000000	0.001620	0.001597	28.0826	0.063602	0.002018	31.5129	-67.6396	-165.094	0.115819	1.061420	-0.043660	-0.044939	0.043366	31.5129	-0.044692	-0.062891	-0.689551	NaN
1033	1.000000	1.072723	7.37516e+06	-51789.1	1055.82	-29751	0.000000	0.000000	7.073194	0.003920	NaN	0.000000	0.001631	0.001577	28.0839	0.016234	0.001981	8.193918	126.486	10.8132	0.070590	1.071353	-0.033635	-0.035006	0.003920	8.193918	-0.033994	-0.029922	-0.131018	NaN
1033	1.000000	1.082711	7.37516e+06	-51789.1	1055.82	-29751	0.000000	0.000000	7.083183	0.013637	NaN	0.000000	0.001607	0.001626	28.0843	0.021719	0.002062	10.5328	35.8266	-168.938	0.026916	1.081378	-0.023647	-0.024980	0.013637	10.5328	-0.024618	-0.016488	-0.827082	NaN
1033	1.000000	1.092708	7.37516e+06	-51789.1	1055.82	-29751	0.000000	0.000000	7.093180	0.029914	NaN	0.000000	0.001638	0.001636	28.0839	0.029715	0.001981	14.9985	176.781	16.6783	0.023969	1.091375	-0.013650	-0.014983	0.029914	14.9985	-0.015146	-0.009363	-3.194968	NaN
1033	1.000000	1.102677	7.37516e+06	-51789.1	1055.82	-29751	0.000000	0.000000	7.103163	0.359922	NaN	0.000000	0.001613	0.001626	28.0839	0.615559	0.002015	305.453	13.5037	-165.233	-0.018110	1.101418	-0.003681	-0.004940	0.359922	305.453	-0.004565	-0.003142	-114.567	NaN
1033	2.000000	1.111742	7.37516e+06	-51789.1	1055.82	-29751	0.000000	0.000000	7.112583	8.986994	NaN	0.000000	0.001716	0.001632	28.084	9.282093	0.001698	5466.78	12.4443	4.036072	8.225754	1.111154	0.005384	0.004796	8.986994	5466.78	0.004151	0.003372	2665.53	86018
1033	2.000000	1.114286	7.37516e+06	-51789.1	1055.82	-29751	0.000000	0.000000	7.115249	11.9669	NaN	0.000000	0.001726	0.001615	28.0842	12.0488	0.001729	6968.72	5.331685	-171.808	11.3974	1.113971	0.007928	0.007613	11.9669	6968.72	0.006640	0.005680	2106.77	84478.3
1033	2.000000	1.116804	7.37516e+06	-51789.1	1055.82	-29751	0.000000	0.000000	7.117939	16.1521	NaN	0.000000	0.001703	0.001615	28.0842	14.366	0.001826	7868.31	7.589885	5.730511	15.265	1.116383	0.010445	0.010025	16.1521	7868.31	0.008906	0.007991	2021.35	80419.5
1033	2.000000	1.119237	7.37516e+06	-51789.1	1055.82	-29751	0.000000	0.000000	7.120553	20.5461	NaN	0.000000	0.001680	0.001635	28.0842	16.5695	0.001756	9433.29	6.936717	-175.941	19.7983	1.118924	0.012879	0.012566	20.5461	9433.29	0.011245	0.010599	1938.59	83717.1
1033	2.000000	1.121735	7.37516e+06	-51789.1	1055.82	-29751	0.000000	0.000000	7.123317	27.0304	NaN	0.000000	0.001717	0.001617	28.0843	19.5832	0.001748	11204.5	7.069194	2.599918	26.0312	1.121361	0.015377	0.015002	27.0304	11204.5	0.013567	0.013422	2013.89	88360.3
1033	2.000000	1.124232	7.37516e+06	-51789.1	1055.82	-29751	0.000000	0.000000	7.125967	30.7231	NaN	0.000000	0.001713	0.001599	28.0842	22.5119	0.001775	12679.9	5.348578	-177.412	30.251	1.123939	0.017874	0.017580	30.7231	12679.9	0.016057	0.016721	1837.43	89590.5
1033	2.000000	1.126726	7.37516e+06	-51789.1	1055.82	-29751	0.000000	0.000000	7.128835	39.8361	NaN	0.000000	0.001721	0.001630	28.0846	24.32	0.001631	14907.2	3.073802	3.733345	38.3394	1.126376	0.020368	0.020018	39.8361	14907.2	0.018364	0.020036	1988.22	96219.3
1033	2.000000	1.129187	7.37516e+06	-51789.1	1055.82	-29751	0.000000	0.000000	7.131504	44.8877	NaN	0.000000	0.001711	0.001640	28.0842	27.522	0.001791	15366.3	7.172558	179.188	43.5012	1.128869	0.022829	0.022510	44.8877	15366.3	0.020638	0.023555	1905.67	91475.1
1033	2.000000	1.131678	7.37516e+06	-51789.1	1055.82	-29751	0.000000	0.000000	7.134297	52.2389	NaN	0.000000	0.001718	0.001596	28.0849	28.5214	0.001692	16858.4	5.318861	-0.004890	50.057	1.131276	0.025319	0.024918	52.2389	16858.4	0.022995	0.027470	1901.7	92931.7
1033	2.000000	1.134239	7.37516e+06	-51789.1	1055.82	-29751	0.000000	0.000000	7.136981	55.2118	NaN	0.000000	0.001710	0.001587	28.0842	32.4325	0.001829	17736.3	5.531181	179.284	56.743	1.133927	0.027881	0.027569	55.2118	17736.3	0.025546	0.032017	1724.46	90562.2
1033	2.000000	1.136702	7.37516e+06	-51789.1	1055.82	-29751	0.000000	0.000000	7.139972	68.076	NaN	0.000000	0.001646	0.001570	28.0834	34.4648	0.001766	19520.6	10.067	-5.959591	67.5631	1.136293	0.030343	0.029935	68.076	19520.6	0.027728	0.036165	1882.35	93782
1033	2.000000	1.139205	7.37516e+06	-51789.1	1055.82	-29751	0.000000	0.000000	7.142589	70.8172	NaN	0.000000	0.001696	0.001599	28.0831	36.6336	0.001728	21206	7.036345	175.45	70.2932	1.138936	0.032847	0.032578	70.8172	21206	0.030342	0.041457	1708.23	95155.8
1033	2.000000	1.141715	7.37516e+06	-51789.1	1055.82	-29751	0.000000	0.000000	7.145530	81.3149	NaN	0.000000	0.001658	0.001594	28.0833	39.7438	0.001804	22027.3	5.537375	-2.830145	80.9209	1.141339	0.035357	0.034981	81.3149	22027.3	0.032588	0.046279	1757.07	93550
1033	2.000000	1.144159	7.37516e+06	-51789.1	1055.82	-29751	0.000000	0.000000	7.148311	89.5197	NaN	0.000000	0.001655	0.001593	28.0828	42.4766	0.001856	22881.8	5.401444	176.712	88.1591	1.143910	0.037801	0.037552	89.5197	22881.8	0.034866	0.051435	1740.43	92179.3
1033	2.000000	1.146698	7.37516e+06	-51789.1	1055.82	-29751	0.000000	0.000000	7.151268	99.6886	NaN	0.000000	0.001647	0.001634	28.0831	44.3012	0.001839	24095.2	3.961718	-1.459446	98.4022	1.146294	0.040340	0.039936	99.6886	24095.2	0.037237	0.057082	1746.41	92141.4
1033	2.000000	1.149192	7.37516e+06	-51789.1	1055.82	-29751	0.000000	0.000000	7.154443	116.232	NaN	0.000000	0.001634	0.001572	28.0829	45.6163	0.001842	24760.4	4.431417	178.525	115.865	1.148814	0.042834	0.042456	116.232	24760.4	0.039313	0.062265	1866.75	90659
1033	2.000000	1.151641	7.37516e+06	-51789.1	1055.82	-29751	0.000000	0.000000	7.157301	126.198	NaN	0.000000	0.001629	0.001577	28.0833	47.4836	0.001634	29052.2	5.413000	-4.832190	123.028	1.151274	0.045282	0.044916	126.198	29052.2	0.042024	0.069365	1819.34	100782
1033	2.000000	1.154197	7.37516e+06	-51789.1	1055.82	-29751	0.000000	0.000000	7.160212	134.816	NaN	0.000000	0.001647	0.001596	28.0829	53.0247	0.001861	28485	6.863593	173.884	135.604	1.153858	0.047838	0.047500	134.816	28485	0.044289	0.075581	1783.73	94663.7
1033	2.000000	1.156676	7.37516e+06	-51789.1	1055.82	-29751	0.000000	0.000000	7.163246	148.288	NaN	0.000000	0.001628	0.001578	28.0829	54.0318	0.001907	28334.3	5.722252	-3.250963	147.512	1.156215	0.050318	0.049857	148.288	28334.3	0.046393	0.081591	1817.46	90628.6
1033	2.000000	1.159142	7.37516e+06	-51789.1	1055.82	-29751	0.000000	0.000000	7.166193	160.009	NaN	0.000000	0.001649	0.001577	28.0832	55.6709	0.001866	29828.3	7.765694	173.364	157.945	1.158884	0.052784	0.052526	160.009	29828.3	0.048760	0.088620	1805.55	91545
1033	2.000000	1.161645	7.37516e+06	-51789.1	1055.82	-29751	0.000000	0.000000	7.169290	174.431	NaN	0.000000	0.001670	0.001575	28.0831	58.2854	0.001826	31923.5	7.457768	-6.828784	171.866	1.161231	0.055287	0.054873	174.431	31923.5	0.051189	0.096124	1814.65	94073.8
1033	2.000000	1.164137	7.37516e+06	-51789.1	1055.82	-29751	0.000000	0.000000	7.172252	185.885	NaN	0.000000	0.001654	0.001594	28.0829	60.0427	0.001792	33502.4	4.501307	175.515	185.413	1.163853	0.057779	0.057494	185.885	33502.4	0.053617	0.103921	1788.71	94950.6
1033	2.000000	1.166729	7.37516e+06	-51789.1	1055.82	-29751	0.000000	0.000000	7.175252	195.793	NaN	0.000000	0.001678	0.001580	28.083	61.6091	0.001776	34680.8	4.735037	-4.863938	197.312	1.166357	0.060370	0.059999	195.793	34680.8	0.056136	0.112319	1743.18	94544.2
1033	2.000000	1.169104	7.37516e+06	-51789.1	1055.82	-29751	0.000000	0.000000	7.178258	211.134	NaN	0.000000	0.001664	0.001576	28.083	63.7341	0.001756	36299.7	4.342172	175.061	208.106	1.168821	0.062746	0.062463	211.134	36299.7	0.058383	0.120076	1758.35	95708.1
1033	2.000000	1.171661	7.37516e+06	-51789.1	1055.82	-29751	0.000000	0.000000	7.181456	226.732	NaN	0.000000	0.001635	0.001581	28.0842	65.9949	0.001791	36848.7	3.606540	-4.012608	225.03	1.171266	0.065302	0.064907	226.732	36848.7	0.060687	0.128285	1767.41	93995.7
1033	2.000000	1.174097	7.37516e+06	-51789.1	1055.82	-29751	0.000000	0.000000	7.184313	236.96	NaN	0.000000	0.001646	0.001588	28.0842	70.0268	0.001803	38829.7	4.569838	173.545	235.374	1.173799	0.067739	0.067441	236.96	38829.7	0.063162	0.137391	1724.7	95710.1
1033	2.000000	1.176742	7.37516e+06	-51789.1	1055.82	-29751	0.000000	0.000000	7.187465	249.272	NaN	0.000000	0.001618	0.001604	28.0848	71.6573	0.001779	40282	6.286187	-7.954135	251.33	1.176430	0.070384	0.070072	249.272	40282	0.065743	0.147204	1693.38	95923.5
1033	2.000000	1.179131	7.37516e+06	-51789.1	1055.82	-29751	0.000000	0.000000	7.190740	270.828	NaN	0.000000	0.001664	0.001582	28.0842	72.946	0.001761	41433.1	5.203640	173.266	270.12	1.178815	0.072773	0.072457	270.828	41433.1	0.067870	0.155532	1741.3	95986.5
1033	2.000000	1.181634	7.37516e+06	-51789.1	1055.82	-29751	0.000000	0.000000	7.193683	281.521	NaN	0.000000	0.001627	0.001596	28.0844	76.3885	0.001739	43935.6	6.062786	-8.826266	279.233	1.181311	0.075276	0.074953	281.521	43935.6	0.070470	0.166005	1695.85	98520.9
1033	2.000000	1.184216	7.37516e+06	-51789.1	1055.82	-29751	0.000000	0.000000	7.196324	282.95	NaN	0.000000	0.001619	0.001603	28.0842	79.2698	0.001802	43988.3	4.350526	172.923	284.363	1.184033	0.077858	0.077675	282.95	43988.3	0.073034	0.176647	1601.78	95621.9
1033	2.000000	1.186720	7.37516e+06	-51789.1	1055.82	-29751	0.000000	0.000000	7.200100	313.9	NaN	0.000000	0.001667	0.001624	28.0845	81.7134	0.001815	45015.9	7.179322	-9.257436	315.405	1.186166	0.080362	0.079807	313.9	45015.9	0.075132	0.185588	1691.38	95469.4
1033	2.000000	1.189080	7.37516e+06	-51789.1	1055.82	-29751	0.000000	0.000000	7.202978	326.481	NaN	0.000000	0.001632	0.001633	28.0841	82.8205	0.001865	44416	-0.706158	178.348	322.235	1.188855	0.082722	0.082497	326.481	44416	0.077209	0.194643	1677.33	91979.8
1033	2.000000	1.191607	7.37516e+06	-51789.1	1055.82	-29751	0.000000	0.000000	7.206321	346.331	NaN	0.000000	0.001594	0.001622	28.0841	85.6925	0.001773	48344.5	5.464221	-8.457867	343.021	1.191275	0.085249	0.084916	346.331	48344.5	0.079876	0.206566	1676.62	97183.2
1033	2.000000	1.194149	7.37516e+06	-51789.1	1055.82	-29751	0.000000	0.000000	7.209374	358.755	NaN	0.000000	0.001627	0.001628	28.0841	88.0247	0.001807	48720	3.698814	172.444	357.751	1.193947	0.087791	0.087589	358.755	48720	0.082268	0.217543	1649.12	95434.9
1033	2.000000	1.196610	7.37516e+06	-51789.1	1055.82	-29751	0.000000	0.000000	7.212902	384.706	NaN	0.000000	0.001623	0.001611	28.084	89.7914	0.001887	47586.8	5.042432	-7.168561	382.319	1.196193	0.090252	0.089835	384.706	47586.8	0.084189	0.226546	1698.14	91344.4
1033	2.000000	1.199032	7.37516e+06	-51789.1	1055.82	-29751	0.000000	0.000000	7.215816	396.659	NaN	0.000000	0.001655	0.001633	28.084	91.0765	0.001756	51857.2	5.708377	170.422	390.802	1.198711	0.092674	0.092353	396.659	51857.2	0.086937	0.239730	1654.61	96765.7
1033	2.000000	1.201564	7.37516e+06	-51789.1	1055.82	-29751	0.000000	0.000000	7.219284	419.439	NaN	0.000000	0.001643	0.001620	28.0839	93.6682	0.001752	53474.4	3.948612	-7.776162	415.709	1.201271	0.095206	0.094913	419.439	53474.4	0.089323	0.251454	1668.06	97429.4
1033	2.000000	1.204102	7.37516e+06	-51789.1	1055.82	-29751	0.000000	0.000000	7.222482	435.48	NaN	0.000000	0.001622	0.001594	28.0831	97.8	0.001864	52475.6	5.442164	170.839	433.723	1.203929	0.097743	0.097571	435.48	52475.6	0.091519	0.262480	1659.1	93579.8
1033	2.000000	1.206633	7.37516e+06	-51789.1	1055.82	-29751	0.000000	0.000000	7.225949	458.226	NaN	0.000000	0.001636	0.001601	28.0829	98.1225	0.001695	57893.1	5.647442	-9.008804	455.008	1.206074	0.100275	0.099715	458.226	57893.1	0.094338	0.276954	1654.52	100507
1033	2.000000	1.209001	7.37516e+06	-51789.1	1055.82	-29751	0.000000	0.000000	7.229234	480.529	NaN	0.000000	0.001629	0.001612	28.0831	99.6508	0.001706	58424	4.411996	171.857	475.008	1.208701	0.102643	0.102343	480.529	58424	0.096474	0.288161	1667.57	99436.6
1033	2.000000	1.210126	7.37516e+06	-51789.1	1055.82	-29751	0.000000	0.000000	7.230653	487.68	NaN	0.000000	0.001641	0.001616	28.0835	101.737	0.001768	57537.4	2.520743	173.713	486.739	1.209862	0.103768	0.103503	487.68	57537.4	0.097411	0.293144	1663.62	97091.9