File: remote_trans/data/nanoindenter/0828-1/data/Data_2025-08-06,11h17m57s/2025-07-22_16-23-58_1_33.txt
2025-07-22, 16:23:58, 1
Index	Phase	Displacement	Time	Pos X	Pos Y	Pos Z	Rot A	Rot B	Piezo Z	Force A	Force B	Gripper	Voltage A	Voltage B	Temperature	Amplitude force	Amplitude pos	Stiffness	Phase shift	Phase excitation	Force A raw	Displacement raw	HMax	HMax raw	Real Force	Real Stiffness	Contact Depth	Area	Hardness	Reduced Mod.
[#]	[#]	[um]	[s]	[um]	[um]	[um]	[m°]	[m°]	[um]	[uN]	[uN]	[V]	[V]	[V]	[°C]	[uN]	[um]	[N/m]	[°]	[°]	[uN]	[um]	[um]	[um]	[uN]	[N/m]	[um]	[um^2]	[MPa]	[MPa]
33	1.000000	0.002135	7.36536e+06	-40289.1	955.819	-29790.7	0.000000	0.000000	6.002816	-0.039770	NaN	0.000000	0.001611	0.001707	28.1155	0.046300	0.001045	44.321	-104.821	-162.48	0.002847	0.000897	-1.641133	-1.642370	-0.039770	44.321	-1.640460	-8.226510E+21	4.834351E-24	NaN
33	1.000000	0.014159	7.36536e+06	-40289.1	955.819	-29790.6	0.000000	0.000000	6.014841	-0.020467	NaN	0.000000	0.001594	0.001741	28.0831	0.045778	0.001710	26.7696	-111.34	-170.189	0.009567	0.012979	-1.629109	-1.630289	-0.020467	26.7696	-1.628535	-5.710661E+21	3.583915E-24	NaN
33	1.000000	0.026128	7.36536e+06	-40289.1	955.819	-29790.6	0.000000	0.000000	6.026811	-0.008780	NaN	0.000000	0.001593	0.001733	28.1171	0.042904	0.001983	21.6409	-126.903	-162.586	0.010717	0.024808	-1.617139	-1.618459	-0.008780	21.6409	-1.616835	-3.991292E+21	2.199903E-24	NaN
33	1.000000	0.038080	7.36536e+06	-40289.1	955.819	-29790.6	0.000000	0.000000	6.038764	0.020377	NaN	0.000000	0.001554	0.001708	28.0839	0.088179	0.001998	44.1417	71.795	-165.745	-0.024711	0.036796	-1.605187	-1.606471	0.020377	44.1417	-1.605533	-2.823702E+21	-7.216333E-24	NaN
33	1.000000	0.050084	7.36536e+06	-40289.1	955.819	-29790.6	0.000000	0.000000	6.050766	-0.007718	NaN	0.000000	0.001584	0.001662	28.1171	0.037661	0.002050	18.3698	-140.927	-162.346	-0.074073	0.048846	-1.593184	-1.594421	-0.007718	18.3698	-1.592869	-1.915898E+21	4.028444E-24	NaN
33	1.000000	0.062068	7.36536e+06	-40289.1	955.82	-29790.6	0.000000	0.000000	6.062750	-0.019493	NaN	0.000000	0.001565	0.001665	28.0843	0.116238	0.001993	58.3271	-119.771	-166.108	-0.045383	0.060795	-1.581200	-1.582473	-0.019493	58.3271	-1.580949	-1.329876E+21	1.465799E-23	NaN
33	1.000000	0.074073	7.36536e+06	-40289.1	955.818	-29790.6	0.000000	0.000000	6.074756	0.025414	NaN	0.000000	0.001581	0.001688	28.1162	0.092335	0.002117	43.6182	90.8855	-165.523	0.089249	0.072779	-1.569195	-1.570488	0.025414	43.6182	-1.569632	-9.402479E+20	-2.702908E-23	NaN
33	1.000000	0.086061	7.36536e+06	-40289.1	955.818	-29790.6	0.000000	0.000000	6.086744	0.021462	NaN	0.000000	0.001573	0.001682	28.0833	0.139471	0.001984	70.293	175.625	-163.475	0.024646	0.084749	-1.557207	-1.558518	0.021462	70.293	-1.557436	-6.470723E+20	-3.316818E-23	NaN
33	1.000000	0.098116	7.36536e+06	-40289.1	955.818	-29790.6	0.000000	0.000000	6.098797	-0.029535	NaN	0.000000	0.001610	0.001691	28.1151	0.047488	0.001916	24.7784	160.136	-164.967	0.000326	0.096759	-1.545152	-1.546508	-0.029535	24.7784	-1.544258	-4.320851E+20	6.835450E-23	NaN
33	1.000000	0.110104	7.36536e+06	-40289.1	955.819	-29790.6	0.000000	0.000000	6.110783	-0.086921	NaN	0.000000	0.001574	0.001659	28.083	0.025676	0.002139	12.0062	102.689	-163.047	-0.044844	0.108799	-1.533163	-1.534469	-0.086921	12.0062	-1.527734	-2.603791E+20	3.338244E-22	NaN
33	1.000000	0.122108	7.36536e+06	-40289.1	955.818	-29790.6	0.000000	0.000000	6.122789	-0.041325	NaN	0.000000	0.001580	0.001683	28.1162	0.064328	0.001930	33.3379	-161.139	-158.224	-0.069428	0.120774	-1.521160	-1.522494	-0.041325	33.3379	-1.520230	-2.068730E+20	1.997581E-22	NaN
33	1.000000	0.134115	7.36536e+06	-40289.1	955.818	-29790.6	0.000000	0.000000	6.134798	-0.005573	NaN	0.000000	0.001602	0.001665	28.0827	0.045011	0.001968	22.8732	-57.4654	-165.73	-0.010595	0.132793	-1.509152	-1.510475	-0.005573	22.8732	-1.508969	-1.464749E+20	3.804593E-23	NaN
33	1.000000	0.146108	7.36536e+06	-40289.1	955.818	-29790.6	0.000000	0.000000	6.146789	-0.028349	NaN	0.000000	0.001616	0.001656	28.1151	0.068925	0.001920	35.9025	133.575	-163.461	-0.007916	0.144809	-1.497160	-1.498459	-0.028349	35.9025	-1.496568	-1.001387E+20	2.830975E-22	NaN
33	1.000000	0.158125	7.36536e+06	-40289.1	955.818	-29790.6	0.000000	0.000000	6.158809	0.034930	NaN	0.000000	0.001606	0.001690	28.0824	0.058155	0.002054	28.3111	38.9653	-165.63	0.052190	0.156777	-1.485143	-1.486490	0.034930	28.3111	-1.486068	-7.256734E+19	-4.813486E-22	NaN
33	1.000000	0.170161	7.36536e+06	-40289.1	955.819	-29790.6	0.000000	0.000000	6.170842	-0.021496	NaN	0.000000	0.001601	0.001736	28.1155	0.035756	0.001948	18.3529	-102.242	-161.104	0.021131	0.168788	-1.473107	-1.474479	-0.021496	18.3529	-1.472229	-4.746439E+19	4.528856E-22	NaN
33	1.000000	0.182125	7.36536e+06	-40289.1	955.819	-29790.6	0.000000	0.000000	6.182808	0.016036	NaN	0.000000	0.001602	0.001700	28.0832	0.055741	0.002053	27.1497	-119.901	-163.786	0.012599	0.180808	-1.461143	-1.462460	0.016036	27.1497	-1.461586	-3.424182E+19	-4.683067E-22	NaN
33	1.000000	0.194154	7.36536e+06	-40289.1	955.818	-29790.6	0.000000	0.000000	6.194837	-0.009464	NaN	0.000000	0.001581	0.001703	28.1169	0.081767	0.001955	41.8231	-149.363	-163.758	-0.034189	0.192849	-1.449113	-1.450418	-0.009464	41.8231	-1.448944	-2.323094E+19	4.073969E-22	NaN
33	1.000000	0.206135	7.36536e+06	-40289.1	955.819	-29790.6	0.000000	0.000000	6.206817	-0.016834	NaN	0.000000	0.001573	0.001690	28.0822	0.029193	0.002106	13.8613	142.683	-165.073	0.057335	0.204826	-1.437133	-1.438442	-0.016834	13.8613	-1.436222	-1.572121E+19	1.070792E-21	NaN
33	1.000000	0.218142	7.36536e+06	-40289.1	955.818	-29790.6	0.000000	0.000000	6.218823	-0.042238	NaN	0.000000	0.001570	0.001707	28.1174	0.045411	0.001939	23.4194	-57.6612	-163.411	-0.008059	0.216890	-1.425126	-1.426378	-0.042238	23.4194	-1.423773	-1.072786E+19	3.937260E-21	NaN
33	1.000000	0.230140	7.36536e+06	-40289.1	955.818	-29790.6	0.000000	0.000000	6.230822	-0.014332	NaN	0.000000	0.001611	0.001683	28.0826	0.117766	0.002020	58.3032	-55.843	-164.13	-0.044047	0.228816	-1.413127	-1.414451	-0.014332	58.3032	-1.412943	-7.692969E+18	1.863015E-21	NaN
33	1.000000	0.242127	7.36536e+06	-40289.1	955.818	-29790.6	0.000000	0.000000	6.242806	-0.081797	NaN	0.000000	0.001586	0.001714	28.1177	0.038727	0.001874	20.6701	10.0832	-163.47	-0.037466	0.240896	-1.401141	-1.402372	-0.081797	20.6701	-1.398173	-4.887613E+18	1.673567E-20	NaN
33	1.000000	0.254156	7.36536e+06	-40289.1	955.818	-29790.6	0.000000	0.000000	6.254837	-0.022530	NaN	0.000000	0.001589	0.001708	28.0831	0.031958	0.002099	15.2222	-5.669565	-163.482	-0.003424	0.252852	-1.389112	-1.390416	-0.022530	15.2222	-1.388002	-3.576091E+18	6.300172E-21	NaN
33	1.000000	0.266157	7.36536e+06	-40289.1	955.819	-29790.6	0.000000	0.000000	6.266838	-0.038162	NaN	0.000000	0.001582	0.001733	28.1186	0.092226	0.002064	44.681	-136.908	-164.598	-0.073659	0.264898	-1.377111	-1.378370	-0.038162	44.681	-1.376470	-2.509200E+18	1.520901E-20	NaN
33	1.000000	0.278179	7.36536e+06	-40289.1	955.819	-29790.6	0.000000	0.000000	6.278861	-0.015586	NaN	0.000000	0.001574	0.001687	28.084	0.037049	0.001880	19.7107	1.837636	-161.181	-0.053176	0.276815	-1.365089	-1.366453	-0.015586	19.7107	-1.364496	-1.736715E+18	8.974496E-21	NaN
33	1.000000	0.290180	7.36536e+06	-40289.1	955.819	-29790.6	0.000000	0.000000	6.290860	-0.074945	NaN	0.000000	0.001542	0.001644	28.1186	0.074386	0.001964	37.8825	-154.829	-164.754	0.023662	0.288870	-1.353087	-1.354398	-0.074945	37.8825	-1.351603	-1.168519E+18	6.413636E-20	NaN
33	1.000000	0.302191	7.36536e+06	-40289.1	955.819	-29790.6	0.000000	0.000000	6.302873	-0.018389	NaN	0.000000	0.001540	0.001720	28.0839	0.046939	0.002032	23.1013	-67.6366	-164.089	-0.039606	0.300837	-1.341076	-1.342431	-0.018389	23.1013	-1.340479	-8.300629E+17	2.215429E-20	NaN
33	1.000000	0.314148	7.36536e+06	-40289.1	955.819	-29790.6	0.000000	0.000000	6.314833	0.044932	NaN	0.000000	0.001567	0.001707	28.1174	0.048434	0.002017	24.0104	-70.7614	-165.726	0.049126	0.312826	-1.329119	-1.330442	0.044932	24.0104	-1.330523	-6.111578E+17	-7.351922E-20	NaN
33	1.000000	0.326195	7.36536e+06	-40289.1	955.819	-29790.6	0.000000	0.000000	6.326878	0.005398	NaN	0.000000	0.001560	0.001681	28.0823	0.037831	0.001982	19.089	-4.322752	-162.078	-0.004771	0.324864	-1.317072	-1.318403	0.005398	19.089	-1.317285	-4.067527E+17	-1.327146E-20	NaN
33	1.000000	0.338179	7.36536e+06	-40289.1	955.818	-29790.6	0.000000	0.000000	6.338862	0.002837	NaN	0.000000	0.001546	0.001696	28.1181	0.023617	0.002089	11.3038	-47.6704	-164.273	0.025305	0.336906	-1.305089	-1.306362	0.002837	11.3038	-1.305277	-2.811324E+17	-1.008988E-20	NaN
33	1.000000	0.350209	7.36536e+06	-40289.1	955.818	-29790.6	0.000000	0.000000	6.350889	-0.069963	NaN	0.000000	0.001561	0.001707	28.0845	0.152857	0.001976	77.357	151.951	-161.157	-0.140644	0.348908	-1.293058	-1.294360	-0.069963	77.357	-1.292380	-1.890433E+17	3.700888E-19	NaN
33	1.000000	0.362186	7.36536e+06	-40289.1	955.819	-29790.6	0.000000	0.000000	6.362867	-0.041165	NaN	0.000000	0.001547	0.001743	28.1191	0.057146	0.002008	28.4578	-152.735	-164.804	-0.059949	0.360918	-1.281082	-1.282349	-0.041165	28.4578	-1.279997	-1.291357E+17	3.187727E-19	NaN
33	1.000000	0.374207	7.36536e+06	-40289.1	955.819	-29790.6	0.000000	0.000000	6.374886	-0.096643	NaN	0.000000	0.001557	0.001689	28.0836	0.066461	0.002086	31.8546	-171.901	-165.858	-0.050948	0.372879	-1.269061	-1.270389	-0.096643	31.8546	-1.266785	-8.598149E+16	1.123995E-18	NaN
33	1.000000	0.386214	7.36536e+06	-40289.1	955.818	-29790.6	0.000000	0.000000	6.386895	-0.047697	NaN	0.000000	0.001549	0.001676	28.1169	0.048587	0.002090	23.2438	-32.8784	-166.155	-0.015067	0.384883	-1.257053	-1.258385	-0.047697	23.2438	-1.255514	-6.076815E+16	7.849088E-19	NaN
33	1.000000	0.398198	7.36536e+06	-40289.1	955.819	-29790.6	0.000000	0.000000	6.398879	-0.052513	NaN	0.000000	0.001574	0.001674	28.0818	0.026245	0.002049	12.8099	4.671918	-164.178	-0.031528	0.396897	-1.245069	-1.246371	-0.052513	12.8099	-1.241995	-4.007107E+16	1.310502E-18	NaN
33	1.000000	0.410221	7.36536e+06	-40289.1	955.819	-29790.6	0.000000	0.000000	6.410902	-0.040998	NaN	0.000000	0.001564	0.001696	28.1167	0.063747	0.002003	31.8206	20.213	-166.004	-0.045950	0.408908	-1.233047	-1.234359	-0.040998	31.8206	-1.232081	-2.952447E+16	1.388618E-18	NaN
33	1.000000	0.422235	7.36536e+06	-40289.1	955.819	-29790.6	0.000000	0.000000	6.422916	-0.049282	NaN	0.000000	0.001603	0.001687	28.0819	0.062894	0.002014	31.2351	46.5444	-163.776	-0.057794	0.420892	-1.221032	-1.222376	-0.049282	31.2351	-1.219849	-2.025271E+16	2.433365E-18	NaN
33	1.000000	0.434214	7.36536e+06	-40289.1	955.818	-29790.6	0.000000	0.000000	6.434897	0.000980	NaN	0.000000	0.001638	0.001690	28.1181	0.078024	0.002020	38.631	9.458024	-164.825	0.042250	0.432903	-1.209054	-1.210365	0.000980	38.631	-1.209073	-1.452872E+16	-6.744888E-20	NaN
33	1.000000	0.446288	7.36536e+06	-40289.1	955.818	-29790.6	0.000000	0.000000	6.446974	0.077682	NaN	0.000000	0.001657	0.001672	28.0822	0.161969	0.002013	80.4728	54.7453	-164.507	0.038474	0.444930	-1.196979	-1.198338	0.077682	80.4728	-1.197703	-1.023276E+16	-7.591497E-18	NaN
33	1.000000	0.458256	7.36536e+06	-40289.1	955.818	-29790.6	0.000000	0.000000	6.458937	-0.039835	NaN	0.000000	0.001679	0.001668	28.1183	0.037343	0.002026	18.4322	-67.178	-160.495	0.052727	0.456948	-1.185011	-1.186320	-0.039835	18.4322	-1.183390	-6.580985E+15	6.052983E-18	NaN
33	1.000000	0.470230	7.36536e+06	-40289.1	955.819	-29790.6	0.000000	0.000000	6.470909	-0.083199	NaN	0.000000	0.001655	0.001667	28.0816	0.033270	0.001884	17.6618	-18.0114	-162.661	-0.089599	0.468913	-1.173038	-1.174354	-0.083199	17.6618	-1.169505	-4.287924E+15	1.940313E-17	NaN
33	1.000000	0.482254	7.36536e+06	-40289.1	955.818	-29790.6	0.000000	0.000000	6.482938	0.027929	NaN	0.000000	0.001679	0.001671	28.1173	0.057386	0.002060	27.8636	-89.5818	-163.353	-0.065304	0.480927	-1.161013	-1.162341	0.027929	27.8636	-1.161765	-3.376960E+15	-8.270390E-18	NaN
33	1.000000	0.494240	7.36536e+06	-40289.1	955.818	-29790.6	0.000000	0.000000	6.494920	-0.058857	NaN	0.000000	0.001643	0.001675	28.0821	0.056704	0.001916	29.5915	-171.099	-166.517	-0.032027	0.492890	-1.149028	-1.150378	-0.058857	29.5915	-1.147536	-2.176651E+15	2.704002E-17	NaN
33	1.000000	0.506259	7.36536e+06	-40289.1	955.819	-29790.6	0.000000	0.000000	6.506940	-0.035042	NaN	0.000000	0.001639	0.001655	28.12	0.079130	0.002077	38.099	81.0891	-163.36	-0.016338	0.504947	-1.137009	-1.138321	-0.035042	38.099	-1.136319	-1.539472E+15	2.276263E-17	NaN
33	1.000000	0.518274	7.36536e+06	-40289.1	955.819	-29790.6	0.000000	0.000000	6.518955	-0.022627	NaN	0.000000	0.001663	0.001697	28.0842	0.048777	0.001992	24.484	-106.742	-163.564	-0.023967	0.516992	-1.124994	-1.126275	-0.022627	24.484	-1.124301	-1.062117E+15	2.130413E-17	NaN
33	1.000000	0.530279	7.36536e+06	-40289.1	955.818	-29790.6	0.000000	0.000000	6.530957	-0.101817	NaN	0.000000	0.001670	0.001644	28.1199	0.018008	0.002082	8.651183	-131.349	-165.651	-0.066476	0.528937	-1.112989	-1.114331	-0.101817	8.651183	-1.104162	-5.700805E+14	1.786006E-16	NaN
33	1.000000	0.542271	7.36536e+06	-40289.1	955.819	-29790.6	0.000000	0.000000	6.542952	-0.033753	NaN	0.000000	0.001688	0.001645	28.083	0.040529	0.002093	19.3659	119.143	-165.296	-0.035955	0.540926	-1.100997	-1.102342	-0.033753	19.3659	-1.099690	-4.964786E+14	6.798552E-17	NaN
33	1.000000	0.554310	7.36536e+06	-40289.1	955.818	-29790.6	0.000000	0.000000	6.554991	-0.037952	NaN	0.000000	0.001628	0.001682	28.119	0.045774	0.002060	22.2242	-150.529	-160.902	-0.033664	0.552976	-1.088957	-1.090291	-0.037952	22.2242	-1.087677	-3.424635E+14	1.108201E-16	NaN
33	1.000000	0.566272	7.36536e+06	-40289.1	955.818	-29790.6	0.000000	0.000000	6.566953	-0.057435	NaN	0.000000	0.001594	0.001672	28.0828	0.058942	0.001970	29.9169	-12.0031	-166.113	-0.030960	0.564941	-1.076995	-1.078326	-0.057435	29.9169	-1.075556	-2.354082E+14	2.439791E-16	NaN
33	1.000000	0.578293	7.36536e+06	-40289.1	955.818	-29790.6	0.000000	0.000000	6.578976	-0.006658	NaN	0.000000	0.001611	0.001633	28.1191	0.048233	0.002028	23.7868	-5.631330	-165.301	0.018545	0.576957	-1.064974	-1.066311	-0.006658	23.7868	-1.064764	-1.685942E+14	3.949215E-17	NaN
33	1.000000	0.590329	7.36536e+06	-40289.1	955.818	-29790.6	0.000000	0.000000	6.591011	-0.018107	NaN	0.000000	0.001569	0.001669	28.0837	0.086409	0.002059	41.9681	-44.7397	-165.326	-0.004732	0.588970	-1.052939	-1.054297	-0.018107	41.9681	-1.052615	-1.157619E+14	1.564164E-16	NaN
33	1.000000	0.602279	7.36536e+06	-40289.1	955.819	-29790.6	0.000000	0.000000	6.602960	-0.033004	NaN	0.000000	0.001602	0.001644	28.1203	0.043520	0.001933	22.5134	6.140931	-166.344	-0.041541	0.600998	-1.040989	-1.042270	-0.033004	22.5134	-1.039890	-7.806984E+13	4.227476E-16	NaN
33	1.000000	0.614321	7.36536e+06	-40289.1	955.818	-29790.6	0.000000	0.000000	6.615003	-0.013137	NaN	0.000000	0.001581	0.001679	28.0836	0.062791	0.002105	29.8234	-133.913	-164.135	-0.022664	0.612999	-1.028946	-1.030269	-0.013137	29.8234	-1.028616	-5.506358E+13	2.385780E-16	NaN
33	1.000000	0.626329	7.36536e+06	-40289.1	955.818	-29790.6	0.000000	0.000000	6.627010	-0.058426	NaN	0.000000	0.001614	0.001679	28.1196	0.045225	0.002032	22.2601	-126.41	-163.582	-0.025274	0.624987	-1.016938	-1.018281	-0.058426	22.2601	-1.014970	-3.607994E+13	1.619354E-15	NaN
33	1.000000	0.638319	7.36536e+06	-40289.1	955.819	-29790.6	0.000000	0.000000	6.639000	-0.042373	NaN	0.000000	0.001610	0.001668	28.0818	0.035844	0.001995	17.9698	62.1941	-164.5	-0.138767	0.636993	-1.004948	-1.006275	-0.042373	17.9698	-1.003180	-2.503691E+13	1.692402E-15	NaN
33	1.000000	0.650323	7.36536e+06	-40289.1	955.819	-29790.6	0.000000	0.000000	6.651007	0.023728	NaN	0.000000	0.001577	0.001679	28.1188	0.019562	0.001984	9.858149	100.936	-167.029	0.062143	0.649003	-0.992944	-0.994265	0.023728	9.858149	-0.994750	-1.927856E+13	-1.230810E-15	NaN
33	1.000000	0.662318	7.36536e+06	-40289.1	955.82	-29790.6	0.000000	0.000000	6.662997	-0.089661	NaN	0.000000	0.001623	0.001680	28.0829	0.063470	0.002085	30.4407	-2.233924	-166.384	-0.038190	0.661082	-0.980949	-0.982186	-0.089661	30.4407	-0.978740	-1.173384E+13	7.641243E-15	NaN
33	1.000000	0.674357	7.36536e+06	-40289.1	955.818	-29790.6	0.000000	0.000000	6.675037	-0.062137	NaN	0.000000	0.001622	0.001643	28.1196	0.098278	0.002087	47.0836	70.8146	-164.851	-0.068205	0.673010	-0.968911	-0.970257	-0.062137	47.0836	-0.967921	-8.387764E+12	7.408033E-15	NaN
33	1.000000	0.686353	7.36536e+06	-40289.1	955.819	-29790.6	0.000000	0.000000	6.687034	-0.042639	NaN	0.000000	0.001542	0.001699	28.0815	0.172205	0.001999	86.1497	-33.4008	-164.853	-0.056171	0.685044	-0.956915	-0.958224	-0.042639	86.1497	-0.956544	-5.892105E+12	7.236639E-15	NaN
33	1.000000	0.698358	7.36536e+06	-40289.1	955.819	-29790.6	0.000000	0.000000	6.699036	-0.098077	NaN	0.000000	0.001585	0.001668	28.1196	0.050138	0.001982	25.2932	-84.733	-165.153	-0.129385	0.697068	-0.944910	-0.946199	-0.098077	25.2932	-0.942002	-3.750955E+12	2.614732E-14	NaN
33	1.000000	0.710324	7.36536e+06	-40289.1	955.819	-29790.6	0.000000	0.000000	6.711007	-0.002278	NaN	0.000000	0.001561	0.001681	28.0816	0.124060	0.002015	61.5596	162.226	-162.644	-0.049154	0.709039	-0.932943	-0.934228	-0.002278	61.5596	-0.932916	-2.828431E+12	8.052667E-16	NaN
33	1.000000	0.722355	7.36536e+06	-40289.1	955.818	-29790.6	0.000000	0.000000	6.723036	-0.046896	NaN	0.000000	0.001559	0.001651	28.1183	0.099089	0.002019	49.0676	-104.615	-168.175	0.035156	0.721051	-0.920913	-0.922217	-0.046896	49.0676	-0.920196	-1.904806E+12	2.461983E-14	NaN
33	1.000000	0.734373	7.36536e+06	-40289.1	955.818	-29790.6	0.000000	0.000000	6.735055	-0.013921	NaN	0.000000	0.001574	0.001682	28.0811	0.088073	0.002142	41.122	11.8592	-164.158	0.007394	0.733062	-0.908895	-0.910206	-0.013921	41.122	-0.908641	-1.329866E+12	1.046780E-14	NaN
33	1.000000	0.746369	7.36536e+06	-40289.1	955.818	-29790.6	0.000000	0.000000	6.747048	-0.097110	NaN	0.000000	0.001600	0.001659	28.1197	0.043033	0.001984	21.6859	142.82	-164.232	-0.114806	0.745092	-0.896898	-0.898176	-0.097110	21.6859	-0.893540	-8.313112E+11	1.168150E-13	NaN
33	1.000000	0.758381	7.36536e+06	-40289.1	955.818	-29790.6	0.000000	0.000000	6.759062	-0.049692	NaN	0.000000	0.001545	0.001679	28.0817	0.040696	0.002117	19.2228	-8.749017	-166.692	-0.043639	0.757136	-0.884887	-0.886131	-0.049692	19.2228	-0.882948	-5.978221E+11	8.312160E-14	NaN
33	1.000000	0.770359	7.36536e+06	-40289.1	955.819	-29790.6	0.000000	0.000000	6.771038	-0.108986	NaN	0.000000	0.001580	0.001658	28.1198	0.083357	0.001977	42.1603	-83.0356	-165.632	-0.027530	0.769014	-0.872908	-0.874254	-0.108986	42.1603	-0.870970	-4.116809E+11	2.647336E-13	NaN
33	1.000000	0.782358	7.36536e+06	-40289.1	955.819	-29790.6	0.000000	0.000000	6.783040	-0.012124	NaN	0.000000	0.001593	0.001680	28.0827	0.039829	0.001917	20.7789	-159.49	-164.908	-0.025007	0.781049	-0.860910	-0.862219	-0.012124	20.7789	-0.860472	-2.968351E+11	4.084472E-14	NaN
33	1.000000	0.794413	7.36536e+06	-40289.1	955.818	-29790.6	0.000000	0.000000	6.795095	-0.008695	NaN	0.000000	0.001576	0.001649	28.1198	0.044610	0.001952	22.8512	126.467	-162.761	0.008399	0.793086	-0.848854	-0.850182	-0.008695	22.8512	-0.848569	-2.048146E+11	4.245079E-14	NaN
33	1.000000	0.806398	7.36536e+06	-40289.1	955.819	-29790.6	0.000000	0.000000	6.807079	-0.048731	NaN	0.000000	0.001589	0.001655	28.0817	0.040842	0.001919	21.2876	-172.473	-163.779	-0.073743	0.805066	-0.836869	-0.838202	-0.048731	21.2876	-0.835153	-1.347763E+11	3.615694E-13	NaN
33	1.000000	0.818378	7.36536e+06	-40289.1	955.818	-29790.6	0.000000	0.000000	6.819060	-0.035668	NaN	0.000000	0.001601	0.001658	28.1204	0.083559	0.001939	43.0964	47.5959	-167.584	-0.060557	0.817116	-0.824889	-0.826151	-0.035668	43.0964	-0.824269	-9.596003E+10	3.716989E-13	NaN
33	1.000000	0.830382	7.36536e+06	-40289.1	955.819	-29790.6	0.000000	0.000000	6.831063	-0.046409	NaN	0.000000	0.001595	0.001660	28.0831	0.059456	0.002015	29.5061	-126.923	-163.738	-0.073236	0.829053	-0.812885	-0.814214	-0.046409	29.5061	-0.811706	-6.482030E+10	7.159691E-13	NaN
33	1.000000	0.842390	7.36536e+06	-40289.1	955.818	-29790.6	0.000000	0.000000	6.843071	-0.051917	NaN	0.000000	0.001598	0.001672	28.1212	0.045947	0.002096	21.9218	24.5143	-165.985	-0.014811	0.841126	-0.800877	-0.802142	-0.051917	21.9218	-0.799101	-4.371824E+10	1.187545E-12	NaN
33	1.000000	0.854398	7.36536e+06	-40289.1	955.819	-29790.6	0.000000	0.000000	6.855079	-0.061484	NaN	0.000000	0.001563	0.001664	28.0823	0.099656	0.002021	49.301	168.094	-165.651	0.009733	0.853111	-0.788869	-0.790157	-0.061484	49.301	-0.787934	-3.083338E+10	1.994069E-12	NaN
33	1.000000	0.866430	7.36536e+06	-40289.1	955.819	-29790.6	0.000000	0.000000	6.867112	-0.007454	NaN	0.000000	0.001523	0.001676	28.1199	0.111142	0.002085	53.2974	-43.0784	-165.186	0.017374	0.865101	-0.776838	-0.778167	-0.007454	53.2974	-0.776733	-2.171858E+10	3.432084E-13	NaN
33	1.000000	0.878405	7.36536e+06	-40289.1	955.818	-29790.6	0.000000	0.000000	6.879090	0.056560	NaN	0.000000	0.001502	0.001660	28.0809	0.090637	0.002000	45.3272	63.7848	-165.997	0.004948	0.877111	-0.764863	-0.766156	0.056560	45.3272	-0.765799	-1.542321E+10	-3.667183E-12	NaN
33	1.000000	0.890421	7.36536e+06	-40289.1	955.819	-29790.6	0.000000	0.000000	6.891103	-0.021107	NaN	0.000000	0.001549	0.001659	28.1203	0.152914	0.002016	75.8583	-147.564	-165.085	-0.021033	0.889119	-0.752847	-0.754148	-0.021107	75.8583	-0.752638	-1.021233E+10	2.066850E-12	NaN
33	1.000000	0.902433	7.36536e+06	-40289.1	955.819	-29790.6	0.000000	0.000000	6.903112	-0.077985	NaN	0.000000	0.001516	0.001699	28.0834	0.076242	0.001977	38.558	-61.089	-162.561	-0.018800	0.901140	-0.740835	-0.742128	-0.077985	38.558	-0.739318	-6.726169E+9	1.159420E-11	NaN
33	1.000000	0.914402	7.36536e+06	-40289.1	955.818	-29790.6	0.000000	0.000000	6.915083	-0.028840	NaN	0.000000	0.001562	0.001654	28.1205	0.045635	0.002029	22.4953	129.376	-161.921	-0.010057	0.913132	-0.728866	-0.730135	-0.028840	22.4953	-0.727904	-4.701578E+9	6.134057E-12	NaN
33	1.000000	0.926432	7.36536e+06	-40289.1	955.819	-29790.6	0.000000	0.000000	6.927114	-0.006181	NaN	0.000000	0.001546	0.001681	28.0819	0.082807	0.002022	40.9556	-169.076	-167.132	0.034446	0.925128	-0.716836	-0.718139	-0.006181	40.9556	-0.716723	-3.309583E+9	1.867536E-12	NaN
33	1.000000	0.938435	7.36536e+06	-40289.1	955.819	-29790.6	0.000000	0.000000	6.939119	0.025020	NaN	0.000000	0.001535	0.001669	28.1206	0.050297	0.002104	23.9036	-163.224	-162.851	-0.027988	0.937107	-0.704832	-0.706161	0.025020	23.9036	-0.705617	-2.334698E+9	-1.071658E-11	NaN
33	1.000000	0.950445	7.36536e+06	-40289.1	955.818	-29790.6	0.000000	0.000000	6.951124	-0.077283	NaN	0.000000	0.001580	0.001679	28.081	0.025265	0.001917	13.1797	-15.8366	-162.164	-0.073427	0.949147	-0.692823	-0.694120	-0.077283	13.1797	-0.688425	-1.359535E+9	5.684484E-11	NaN
33	1.000000	0.962453	7.36536e+06	-40289.1	955.818	-29790.6	0.000000	0.000000	6.963133	-0.049975	NaN	0.000000	0.001562	0.001654	28.1205	0.073524	0.001910	38.4924	-66.0847	-159.955	-0.100770	0.961188	-0.680815	-0.682080	-0.049975	38.4924	-0.679841	-1.037605E+9	4.816356E-11	NaN
33	1.000000	0.974466	7.36536e+06	-40289.1	955.816	-29790.6	0.000000	0.000000	6.975146	-0.067963	NaN	0.000000	0.001594	0.001700	28.0805	0.114085	0.001977	57.7125	123.865	-161.91	-0.112318	0.973113	-0.668802	-0.670155	-0.067963	57.7125	-0.667918	-7.126845E+8	9.536180E-11	NaN
33	1.000000	0.986461	7.36536e+06	-40289.1	955.817	-29790.6	0.000000	0.000000	6.987143	-0.005675	NaN	0.000000	0.001569	0.001693	28.1206	0.003131	0.002024	1.546818	-124.127	-164.077	-0.062724	0.985080	-0.656807	-0.658188	-0.005675	1.546818	-0.654055	-4.602755E+8	1.232993E-11	NaN
33	1.000000	0.998469	7.36536e+06	-40289.1	955.817	-29790.6	0.000000	0.000000	6.999151	-0.019467	NaN	0.000000	0.001613	0.001671	28.0811	0.061057	0.002053	29.7331	-88.2453	-169.396	-0.029430	0.997181	-0.644798	-0.646087	-0.019467	29.7331	-0.644307	-3.383592E+8	5.753470E-11	NaN
33	1.000000	1.010459	7.36536e+06	-40289.1	955.816	-29790.6	0.000000	0.000000	7.011141	-0.010843	NaN	0.000000	0.001608	0.001652	28.121	0.018114	0.001970	9.196967	-104.148	-164.844	0.015028	1.009160	-0.632809	-0.634108	-0.010843	9.196967	-0.631925	-2.287995E+8	4.738914E-11	NaN
33	1.000000	1.022454	7.36536e+06	-40289.1	955.816	-29790.6	0.000000	0.000000	7.023135	-0.024013	NaN	0.000000	0.001607	0.001664	28.0811	0.078326	0.002094	37.4007	165.991	-168.136	-0.003152	1.021111	-0.620814	-0.622156	-0.024013	37.4007	-0.620332	-1.585630E+8	1.514412E-10	NaN
33	1.000000	1.034466	7.36537e+06	-40289.1	955.817	-29790.6	0.000000	0.000000	7.035148	-0.019833	NaN	0.000000	0.001583	0.001683	28.1202	0.109246	0.002036	53.6607	-57.5185	-161.574	-0.004459	1.033192	-0.608801	-0.610075	-0.019833	53.6607	-0.608524	-1.090958E+8	1.817941E-10	NaN
33	1.000000	1.046464	7.36537e+06	-40289.1	955.818	-29790.6	0.000000	0.000000	7.047147	-0.000903	NaN	0.000000	0.001604	0.001668	28.081	0.066465	0.001897	35.0362	-109.394	-165.36	0.091235	1.045153	-0.596803	-0.598115	-0.000903	35.0362	-0.596784	-7.519002E+7	1.200384E-11	NaN
33	1.000000	1.058488	7.36537e+06	-40289.1	955.817	-29790.6	0.000000	0.000000	7.059169	-0.041833	NaN	0.000000	0.001568	0.001641	28.1212	0.077172	0.002139	36.0711	7.809556	-160.784	0.005248	1.057208	-0.584779	-0.586060	-0.041833	36.0711	-0.583910	-4.996567E+7	8.372427E-10	NaN
33	1.000000	1.070495	7.36537e+06	-40289.1	955.818	-29790.6	0.000000	0.000000	7.071176	-0.042614	NaN	0.000000	0.001566	0.001676	28.0826	0.108244	0.001884	57.4603	144.277	-162.534	-0.097599	1.069197	-0.572772	-0.574071	-0.042614	57.4603	-0.572216	-3.445475E+7	1.236806E-9	NaN
33	1.000000	1.082510	7.36537e+06	-40289.1	955.817	-29790.6	0.000000	0.000000	7.083191	-0.041918	NaN	0.000000	0.001600	0.001700	28.1226	0.145143	0.002012	72.1363	-22.0057	-168.503	-0.072661	1.081222	-0.560758	-0.562045	-0.041918	72.1363	-0.560322	-2.359553E+7	1.776541E-9	NaN
33	1.000000	1.094489	7.36537e+06	-40289.1	955.818	-29790.6	0.000000	0.000000	7.095172	-0.012971	NaN	0.000000	0.001588	0.001749	28.0839	0.045325	0.001974	22.9612	-124.609	-162.622	-0.012327	1.093158	-0.548778	-0.550110	-0.012971	22.9612	-0.548354	-1.611245E+7	8.050572E-10	NaN
33	1.000000	1.106522	7.36537e+06	-40289.1	955.817	-29790.6	0.000000	0.000000	7.107204	-0.012194	NaN	0.000000	0.001581	0.001715	28.1227	0.118859	0.001975	60.1949	130.006	-163.918	-0.080562	1.105185	-0.536746	-0.538082	-0.012194	60.1949	-0.536594	-1.106894E+7	1.101665E-9	NaN
33	1.000000	1.118490	7.36537e+06	-40289.1	955.817	-29790.6	0.000000	0.000000	7.119171	-0.055359	NaN	0.000000	0.001566	0.001695	28.0815	0.023584	0.002008	11.7477	39.9579	-164.531	-0.029764	1.117231	-0.524777	-0.526036	-0.055359	11.7477	-0.521243	-6.77463e+06	8.171590E-9	NaN
33	1.000000	1.130497	7.36537e+06	-40289.1	955.817	-29790.6	0.000000	0.000000	7.131175	-0.118359	NaN	0.000000	0.001574	0.001693	28.1216	0.037980	0.002093	18.1473	-16.0829	-167.136	-0.080994	1.129200	-0.512770	-0.514067	-0.118359	18.1473	-0.507879	-4.41432e+06	2.681258E-8	NaN
33	1.000000	1.142517	7.36537e+06	-40289.1	955.818	-29790.6	0.000000	0.000000	7.143201	0.030848	NaN	0.000000	0.001659	0.001696	28.0821	0.022185	0.001941	11.4325	-55.7537	-167.122	-0.039698	1.141183	-0.500751	-0.502085	0.030848	11.4325	-0.502774	-3.74728e+06	-8.232089E-9	NaN
33	1.000000	1.154530	7.36537e+06	-40289.1	955.817	-29790.6	0.000000	0.000000	7.155211	-0.039262	NaN	0.000000	0.001585	0.001692	28.1227	0.071350	0.001983	35.9841	-170.013	-165.554	-0.080420	1.153216	-0.488737	-0.490052	-0.039262	35.9841	-0.487919	-2.32439e+06	1.689139E-8	NaN
33	1.000000	1.166547	7.36537e+06	-40289.1	955.818	-29790.6	0.000000	0.000000	7.167230	0.004913	NaN	0.000000	0.001584	0.001689	28.0819	0.048467	0.002090	23.1934	123.46	-165.522	-0.029654	1.165152	-0.476721	-0.478115	0.004913	23.1934	-0.476880	-1.62868e+06	-3.016629E-9	NaN
33	1.000000	1.178535	7.36537e+06	-40289.1	955.818	-29790.6	0.000000	0.000000	7.179217	-0.014687	NaN	0.000000	0.001611	0.001685	28.1225	0.019484	0.001986	9.810654	104.415	-166.879	-0.005622	1.177237	-0.464732	-0.466030	-0.014687	9.810654	-0.463610	-1.06102e+06	1.384275E-8	NaN
33	1.000000	1.190556	7.36537e+06	-40289.1	955.818	-29790.6	0.000000	0.000000	7.191239	0.015928	NaN	0.000000	0.001573	0.001700	28.0802	0.060679	0.002146	28.2776	-67.6961	-167.176	-0.053385	1.189244	-0.452712	-0.454023	0.015928	28.2776	-0.453134	-755904	-2.107094E-8	NaN
33	1.000000	1.202550	7.36537e+06	-40289.1	955.819	-29790.6	0.000000	0.000000	7.203232	-0.020786	NaN	0.000000	0.001606	0.001671	28.1205	0.035115	0.002068	16.9781	-52.1536	-165.139	0.005412	1.201221	-0.440717	-0.442047	-0.020786	16.9781	-0.439799	-490373	4.238815E-8	NaN
33	1.000000	1.214548	7.36537e+06	-40289.1	955.818	-29790.6	0.000000	0.000000	7.215228	-0.070426	NaN	0.000000	0.001587	0.001681	28.0802	0.056249	0.002055	27.3739	-124.747	-165.769	-0.105030	1.213238	-0.428719	-0.430029	-0.070426	27.3739	-0.426790	-321092	2.193337E-7	NaN
33	1.000000	1.226568	7.36537e+06	-40289.1	955.819	-29790.6	0.000000	0.000000	7.227251	0.005551	NaN	0.000000	0.001637	0.001668	28.1216	0.027433	0.001968	13.9381	63.0446	-167.341	0.003939	1.225263	-0.416699	-0.418005	0.005551	13.9381	-0.416998	-233252	-2.380039E-8	NaN
33	1.000000	1.238580	7.36537e+06	-40289.1	955.819	-29790.6	0.000000	0.000000	7.239264	0.032267	NaN	0.000000	0.001603	0.001692	28.0817	0.039449	0.002036	19.375	-145.455	-161.001	-0.019103	1.237245	-0.404688	-0.406022	0.032267	19.375	-0.405937	-162402	-1.986868E-7	NaN
33	1.000000	1.250562	7.36537e+06	-40289.1	955.819	-29790.6	0.000000	0.000000	7.251242	-0.084613	NaN	0.000000	0.001582	0.001693	28.1219	0.088768	0.002055	43.2016	145.894	-166.479	-0.117453	1.249246	-0.392705	-0.394022	-0.084613	43.2016	-0.391236	-100195	8.444795E-7	NaN
33	1.000000	1.262571	7.36537e+06	-40289.1	955.819	-29790.6	0.000000	0.000000	7.263252	-0.048027	NaN	0.000000	0.001576	0.001698	28.0799	0.140167	0.001960	71.5032	105.549	-165.182	-0.067735	1.261258	-0.380696	-0.382009	-0.048027	71.5032	-0.380193	-69607.1	6.899779E-7	NaN
33	1.000000	1.274588	7.36537e+06	-40289.1	955.818	-29790.6	0.000000	0.000000	7.275270	-0.011427	NaN	0.000000	0.001561	0.001679	28.121	0.011355	0.001957	5.801457	83.4824	-165.227	0.076327	1.273231	-0.368680	-0.370037	-0.011427	5.801457	-0.367202	-45270.5	2.524173E-7	NaN
33	1.000000	1.286557	7.36537e+06	-40289.1	955.818	-29790.6	0.000000	0.000000	7.287238	-0.039579	NaN	0.000000	0.001555	0.001692	28.08	0.050679	0.002089	24.2621	24.8429	-165.554	-0.050117	1.285288	-0.356711	-0.357979	-0.039579	24.2621	-0.355487	-30658.5	1.290948E-6	NaN
33	1.000000	1.298602	7.36537e+06	-40289.1	955.818	-29790.6	0.000000	0.000000	7.299285	-0.006930	NaN	0.000000	0.001568	0.001704	28.1208	0.073000	0.001983	36.8218	-19.0545	-164.922	-0.016050	1.297270	-0.344665	-0.345998	-0.006930	36.8218	-0.344524	-21253.6	3.260699E-7	NaN
33	1.000000	1.310561	7.36537e+06	-40289.1	955.819	-29790.6	0.000000	0.000000	7.311243	-0.002260	NaN	0.000000	0.001560	0.001701	28.0817	0.091158	0.002080	43.8326	84.6027	-162.395	-0.000153	1.309266	-0.332707	-0.334002	-0.002260	43.8326	-0.332668	-14272.6	1.583109E-7	NaN
33	1.000000	1.322626	7.36537e+06	-40289.1	955.818	-29790.6	0.000000	0.000000	7.323310	0.025775	NaN	0.000000	0.001603	0.001683	28.1229	0.166113	0.002011	82.5878	-112.465	-164.955	0.003554	1.321370	-0.320641	-0.321897	0.025775	82.5878	-0.320876	-9583.45	-2.689525E-6	NaN
33	1.000000	1.334578	7.36537e+06	-40289.1	955.818	-29790.6	0.000000	0.000000	7.335258	-0.056318	NaN	0.000000	0.001634	0.001714	28.0823	0.009883	0.001964	5.031532	-164.489	-164.939	-0.026842	1.333279	-0.308690	-0.309989	-0.056318	5.031532	-0.300295	-4753.67	1.184720E-5	NaN
33	1.000000	1.346620	7.36537e+06	-40289.1	955.818	-29790.6	0.000000	0.000000	7.347301	-0.044967	NaN	0.000000	0.001577	0.001703	28.1228	0.099366	0.002059	48.2492	-165.594	-164.945	-0.055496	1.345317	-0.296648	-0.297951	-0.044967	48.2492	-0.295949	-4094.99	1.098108E-5	NaN
33	1.000000	1.358610	7.36537e+06	-40289.1	955.819	-29790.6	0.000000	0.000000	7.359291	-0.041761	NaN	0.000000	0.001530	0.001715	28.0817	0.020508	0.002020	10.152	123.44	-165.119	-0.001281	1.357315	-0.284658	-0.285952	-0.041761	10.152	-0.281573	-2492.78	1.675294E-5	NaN
33	1.000000	1.370609	7.36537e+06	-40289.1	955.818	-29790.6	0.000000	0.000000	7.371290	-0.045719	NaN	0.000000	0.001574	0.001672	28.1228	0.022804	0.002012	11.3329	72.4616	-167.01	-0.063935	1.369315	-0.272659	-0.273952	-0.045719	11.3329	-0.269633	-1644.24	2.780560E-5	NaN
33	1.000000	1.382629	7.36537e+06	-40289.1	955.818	-29790.6	0.000000	0.000000	7.383310	-0.036730	NaN	0.000000	0.001549	0.001669	28.0818	0.071768	0.002061	34.8139	-76.112	-164.48	-0.004681	1.381331	-0.260638	-0.261937	-0.036730	34.8139	-0.259847	-1165.66	3.151027E-5	NaN
33	1.000000	1.394643	7.36537e+06	-40289.1	955.818	-29790.6	0.000000	0.000000	7.395326	0.027168	NaN	0.000000	0.001553	0.001722	28.1237	0.050009	0.002027	24.6752	164.837	-165.146	-0.030244	1.393304	-0.248625	-0.249964	0.027168	24.6752	-0.249451	-806.251	-3.369702E-5	NaN
33	1.000000	1.406629	7.36537e+06	-40289.1	955.818	-29790.6	0.000000	0.000000	7.407311	-0.014651	NaN	0.000000	0.001529	0.001695	28.0825	0.067253	0.001923	34.9743	23.2391	-166.346	0.048771	1.405361	-0.236639	-0.237906	-0.014651	34.9743	-0.236325	-503.544	2.909488E-5	NaN
33	1.000000	1.418615	7.36537e+06	-40289.1	955.817	-29790.6	0.000000	0.000000	7.419298	0.012421	NaN	0.000000	0.001555	0.001703	28.1239	0.081585	0.002045	39.8884	144.065	-165.262	0.101740	1.417311	-0.224652	-0.225957	0.012421	39.8884	-0.224886	-332.294	-3.738080E-5	NaN
33	1.000000	1.430647	7.36537e+06	-40289.1	955.817	-29790.6	0.000000	0.000000	7.431329	-0.024657	NaN	0.000000	0.001532	0.001703	28.0805	0.089299	0.002091	42.6963	-28.3345	-166.907	-0.014078	1.429308	-0.212620	-0.213959	-0.024657	42.6963	-0.212187	-208.06	0.000119	NaN
33	1.000000	1.442669	7.36537e+06	-40289.1	955.818	-29790.6	0.000000	0.000000	7.443354	0.059133	NaN	0.000000	0.001504	0.001708	28.1228	0.047917	0.002058	23.286	-99.3829	-162.259	-0.016048	1.441324	-0.200599	-0.201943	0.059133	23.286	-0.202504	-144.799	-0.000408	NaN
33	1.000000	1.454645	7.36537e+06	-40289.1	955.818	-29790.6	0.000000	0.000000	7.455325	-0.077576	NaN	0.000000	0.001479	0.001702	28.0808	0.063161	0.002010	31.4249	-159.259	-163.569	0.025484	1.453414	-0.188623	-0.189854	-0.077576	31.4249	-0.186771	-79.4211	0.000977	NaN
33	1.000000	1.466651	7.36537e+06	-40289.1	955.818	-29790.6	0.000000	0.000000	7.467333	-0.002161	NaN	0.000000	0.001550	0.001710	28.123	0.051424	0.001862	27.6227	-143.628	-165.417	-0.076079	1.465308	-0.176617	-0.177959	-0.002161	27.6227	-0.176558	-53.2981	4.054890E-5	NaN
33	1.000000	1.478672	7.36537e+06	-40289.1	955.818	-29790.6	0.000000	0.000000	7.479354	-0.019631	NaN	0.000000	0.001548	0.001691	28.081	0.046445	0.001950	23.8117	-53.0117	-165.78	0.000192	1.477358	-0.164596	-0.165910	-0.019631	23.8117	-0.163977	-32.2347	0.000609	NaN
33	1.000000	1.490707	7.36537e+06	-40289.1	955.817	-29790.6	0.000000	0.000000	7.491388	-0.021950	NaN	0.000000	0.001528	0.001697	28.1228	0.040372	0.002084	19.3759	-154.406	-165.491	-0.051821	1.489381	-0.152561	-0.153886	-0.021950	19.3759	-0.151711	-19.46	0.001128	NaN
33	1.000000	1.502674	7.36537e+06	-40289.1	955.819	-29790.6	0.000000	0.000000	7.503357	0.008509	NaN	0.000000	0.001578	0.001688	28.0798	0.073483	0.001916	38.3509	-159.637	-162.581	0.024572	1.501334	-0.140593	-0.141934	0.008509	38.3509	-0.140760	-12.2241	-0.000696	NaN
33	1.000000	1.514692	7.36537e+06	-40289.1	955.819	-29790.6	0.000000	0.000000	7.515373	-0.049187	NaN	0.000000	0.001570	0.001698	28.1218	0.035475	0.001918	18.4917	163.306	-165.178	-0.022515	1.513356	-0.128575	-0.129912	-0.049187	18.4917	-0.126580	-6.533857	0.007528	NaN
33	1.000000	1.526700	7.36537e+06	-40289.1	955.819	-29790.6	0.000000	0.000000	7.527382	-0.006341	NaN	0.000000	0.001550	0.001678	28.0788	0.143480	0.001866	76.9052	-159.713	-168.841	-0.015210	1.525309	-0.116568	-0.117959	-0.006341	76.9052	-0.116506	-4.102527	0.001546	NaN
33	1.000000	1.538652	7.36537e+06	-40289.1	955.819	-29790.6	0.000000	0.000000	7.539334	-0.025719	NaN	0.000000	0.001560	0.001693	28.1218	0.165710	0.001951	84.9298	-6.299382	-162.202	-0.013304	1.537391	-0.104615	-0.105877	-0.025719	84.9298	-0.104388	-2.279994	0.011280	NaN
33	1.000000	1.550738	7.36537e+06	-40289.1	955.819	-29790.6	0.000000	0.000000	7.551422	0.028173	NaN	0.000000	0.001622	0.001677	28.0807	0.098256	0.002089	47.0277	168.271	-165.637	0.018645	1.549385	-0.092530	-0.093883	0.028173	47.0277	-0.092979	-1.267938	-0.022219	NaN
33	1.000000	1.562698	7.36537e+06	-40289.1	955.818	-29790.6	0.000000	0.000000	7.563378	-0.065193	NaN	0.000000	0.001592	0.001710	28.1232	0.099119	0.002065	47.9946	-172.353	-164.779	-0.070142	1.561422	-0.080570	-0.081845	-0.065193	47.9946	-0.079551	-0.603168	0.108084	NaN
33	1.000000	1.574716	7.36537e+06	-40289.1	955.818	-29790.6	0.000000	0.000000	7.575396	-0.056504	NaN	0.000000	0.001596	0.001719	28.08	0.098619	0.002063	47.8067	-140.437	-163.732	-0.014224	1.573431	-0.068552	-0.069837	-0.056504	47.8067	-0.067666	-0.295012	0.191533	NaN
33	1.000000	1.586753	7.36537e+06	-40289.1	955.818	-29790.6	0.000000	0.000000	7.587435	-0.018874	NaN	0.000000	0.001540	0.001710	28.1225	0.107582	0.001973	54.5278	-147.051	-167.45	0.036054	1.585423	-0.056515	-0.057844	-0.018874	54.5278	-0.056255	-0.140222	0.134601	NaN
33	1.000000	1.598702	7.36537e+06	-40289.1	955.819	-29790.6	0.000000	0.000000	7.599384	-0.004209	NaN	0.000000	0.001583	0.001678	28.0793	0.057757	0.001904	30.3368	-43.564	-165.01	0.001558	1.597414	-0.044566	-0.045854	-0.004209	30.3368	-0.044462	-0.061877	0.068028	NaN
33	1.000000	1.610742	7.36537e+06	-40289.1	955.818	-29790.6	0.000000	0.000000	7.611424	-0.013871	NaN	0.000000	0.001597	0.001715	28.1235	0.026392	0.001894	13.935	-55.8887	-161.475	-0.115713	1.609449	-0.032526	-0.033819	-0.013871	13.935	-0.031779	-0.025829	0.537010	NaN
33	1.000000	1.622771	7.36537e+06	-40289.1	955.818	-29790.6	0.000000	0.000000	7.623454	0.001826	NaN	0.000000	0.001589	0.001692	28.081	0.135097	0.002043	66.1336	-134.569	-163.744	-0.074582	1.621471	-0.020496	-0.021796	0.001826	66.1336	-0.020517	-0.012947	-0.141034	NaN
33	1.000000	1.634729	7.36537e+06	-40289.1	955.818	-29790.6	0.000000	0.000000	7.635409	-0.067578	NaN	0.000000	0.001588	0.001701	28.1246	0.062774	0.001938	32.3866	-61.4893	-166.621	-0.068876	1.633420	-0.008539	-0.009848	-0.067578	32.3866	-0.006974	-0.004625	14.6123	NaN
33	1.000000	1.646770	7.36537e+06	-40289.1	955.818	-29790.6	0.000000	0.000000	7.647451	-0.028951	NaN	0.000000	0.001603	0.001695	28.0826	0.080685	0.001945	41.4734	23.1175	-168.621	-0.023918	1.645438	0.003502	0.002170	-0.028951	41.4734	0.004026	0.003262	-8.876307	663.479
33	1.000000	1.658752	7.36537e+06	-40289.1	955.818	-29790.6	0.000000	0.000000	7.659434	-0.007499	NaN	0.000000	0.001618	0.001663	28.1249	0.077104	0.001953	39.4864	103.783	-166.205	-0.001820	1.657429	0.015484	0.014162	-0.007499	39.4864	0.015627	0.016130	-0.464929	284.052
33	1.000000	1.670750	7.36537e+06	-40289.1	955.818	-29790.6	0.000000	0.000000	7.671451	0.451242	NaN	0.000000	0.001601	0.001713	28.0812	0.603619	0.001995	302.632	6.658780	-167.663	0.257039	1.669436	0.027483	0.026168	0.451242	302.632	0.026364	0.033544	13.4521	1509.66
33	1.000000	1.682739	7.36537e+06	-40289.1	955.818	-29790.6	0.000000	0.000000	7.683610	4.573546	NaN	0.000000	0.001601	0.001665	28.1235	1.847399	0.001840	1004.1	5.170689	-166.88	4.023532	1.681424	0.039472	0.038156	4.573546	1004.1	0.036055	0.054232	84.333	3939.31
33	2.000000	1.693337	7.36537e+06	-40289.1	955.819	-29790.6	0.000000	0.000000	7.694399	9.216533	NaN	0.000000	0.001571	0.001667	28.0804	3.476920	0.001930	1801.81	6.399505	-165.427	9.519524	1.692999	0.050070	0.049731	9.216533	1801.81	0.046233	0.081128	113.605	5779.62
33	2.000000	1.696330	7.36537e+06	-40289.1	955.818	-29790.6	0.000000	0.000000	7.697393	9.261360	NaN	0.000000	0.001607	0.001697	28.1264	4.032729	0.001906	2115.66	7.432800	-167.996	9.395906	1.695980	0.053062	0.052713	9.261360	2115.66	0.049779	0.091732	100.961	6382.04
33	2.000000	1.699259	7.36537e+06	-40289.1	955.818	-29790.6	0.000000	0.000000	7.700385	10.7748	NaN	0.000000	0.001569	0.001678	28.0825	4.615590	0.002012	2293.72	7.144808	-167.036	10.5615	1.698944	0.055992	0.055676	10.7748	2293.72	0.052469	0.100196	107.538	6620.46
33	2.000000	1.702241	7.36537e+06	-40289.1	955.818	-29790.6	0.000000	0.000000	7.703429	12.3142	NaN	0.000000	0.001577	0.001687	28.1247	5.189485	0.001913	2713.36	0.357880	-162.536	12.1979	1.701912	0.058973	0.058644	12.3142	2713.36	0.055569	0.110401	111.541	7460.94
33	2.000000	1.705245	7.36537e+06	-40289.1	955.817	-29790.6	0.000000	0.000000	7.706506	14.0853	NaN	0.000000	0.001602	0.001654	28.0797	6.236851	0.001979	3152.19	6.126201	-168.972	13.9959	1.704967	0.061977	0.061699	14.0853	3152.19	0.058626	0.120927	116.477	8281.77
33	2.000000	1.708228	7.36537e+06	-40289.1	955.817	-29790.6	0.000000	0.000000	7.709577	16.2159	NaN	0.000000	0.001591	0.001651	28.1228	7.054891	0.001936	3644.68	4.464293	-169.253	16.2049	1.707908	0.064960	0.064641	16.2159	3644.68	0.061623	0.131693	123.135	9175.97
33	2.000000	1.711205	7.36537e+06	-40289.1	955.818	-29790.6	0.000000	0.000000	7.712645	18.4316	NaN	0.000000	0.001591	0.001685	28.0799	8.124123	0.002075	3914.93	6.847547	-170.691	18.4364	1.710961	0.067937	0.067694	18.4316	3914.93	0.064406	0.142082	129.726	9489.17
33	2.000000	1.714193	7.36537e+06	-40289.1	955.817	-29790.6	0.000000	0.000000	7.715737	20.9634	NaN	0.000000	0.001583	0.001663	28.1227	8.924332	0.001937	4606.41	4.151158	-169.624	20.595	1.713929	0.070925	0.070661	20.9634	4606.41	0.067512	0.154115	136.024	10720.5
33	2.000000	1.717205	7.36537e+06	-40289.1	955.817	-29790.6	0.000000	0.000000	7.718895	24.5326	NaN	0.000000	0.001569	0.001683	28.0802	9.999675	0.001917	5217.32	6.298800	-171.29	24.3101	1.716874	0.073937	0.073606	24.5326	5217.32	0.070410	0.165761	148	11707.9
33	2.000000	1.720222	7.36537e+06	-40289.1	955.817	-29790.6	0.000000	0.000000	7.722048	27.8285	NaN	0.000000	0.001542	0.001714	28.1243	11.5888	0.001941	5971.41	5.587001	-172.348	27.9257	1.719879	0.076954	0.076611	27.8285	5971.41	0.073459	0.178442	155.953	12915.2
33	2.000000	1.723197	7.36537e+06	-40289.1	955.817	-29790.6	0.000000	0.000000	7.725209	32.3362	NaN	0.000000	0.001567	0.001685	28.079	13.1759	0.001932	6819.99	4.039816	-171.49	32.476	1.722928	0.079929	0.079661	32.3362	6819.99	0.076373	0.190976	169.321	14258.3
33	2.000000	1.726176	7.36537e+06	-40289.1	955.817	-29790.6	0.000000	0.000000	7.728473	39.2965	NaN	0.000000	0.001592	0.001701	28.123	15.1969	0.001989	7640.12	5.564639	-173.311	38.4201	1.725918	0.082908	0.082651	39.2965	7640.12	0.079051	0.202841	193.73	15498.7
33	2.000000	1.729175	7.36537e+06	-40289.1	955.819	-29790.6	0.000000	0.000000	7.731824	47.8457	NaN	0.000000	0.001591	0.001661	28.0805	16.8889	0.001854	9109.46	4.601631	-174.226	46.5477	1.728831	0.085908	0.085563	47.8457	9109.46	0.081969	0.216153	221.351	17901.3
33	2.000000	1.732163	7.36537e+06	-40289.1	955.817	-29790.6	0.000000	0.000000	7.735244	58.366	NaN	0.000000	0.001584	0.001673	28.1232	18.9362	0.001758	10770.7	2.752601	-174.477	57.0667	1.731831	0.088896	0.088563	58.366	10770.7	0.084831	0.229598	254.21	20536.8
33	2.000000	1.735175	7.36537e+06	-40289.1	955.817	-29790.6	0.000000	0.000000	7.738765	70.7485	NaN	0.000000	0.001593	0.001668	28.0801	21.0368	0.001832	11482.3	2.914471	-174.189	69.8539	1.734790	0.091908	0.091523	70.7485	11482.3	0.087286	0.241429	293.04	21350.5
33	2.000000	1.738204	7.36537e+06	-40289.1	955.817	-29790.6	0.000000	0.000000	7.742368	84.7109	NaN	0.000000	0.001601	0.001675	28.1251	23.5724	0.001792	13152.6	6.765626	179.712	83.8633	1.737890	0.094937	0.094622	84.7109	13152.6	0.090106	0.255361	331.73	23779.7
33	2.000000	1.741154	7.36537e+06	-40289.1	955.818	-29790.6	0.000000	0.000000	7.745953	100.171	NaN	0.000000	0.001608	0.001685	28.0805	25.7934	0.001832	14077.6	3.068799	-176.982	99.4576	1.740843	0.097886	0.097575	100.171	14077.6	0.092549	0.267726	374.154	24857.4
33	2.000000	1.744173	7.36537e+06	-40289.1	955.817	-29790.6	0.000000	0.000000	7.749629	116.146	NaN	0.000000	0.001578	0.001693	28.1254	27.5996	0.001817	15191.7	0.749328	-175.531	115.282	1.743835	0.100905	0.100567	116.146	15191.7	0.095171	0.281301	412.889	26169.4
33	2.000000	1.747150	7.36537e+06	-40289.1	955.818	-29790.6	0.000000	0.000000	7.753181	130.146	NaN	0.000000	0.001613	0.001673	28.0804	30.1914	0.001835	16456.8	2.592356	-176.422	130.039	1.746839	0.103882	0.103572	130.146	16456.8	0.097951	0.296032	439.633	27634.4
33	2.000000	1.750119	7.36537e+06	-40289.1	955.818	-29790.6	0.000000	0.000000	7.756646	142.21	NaN	0.000000	0.001594	0.001669	28.1251	32.1781	0.001837	17514.2	1.784011	-177.39	139.096	1.749791	0.106851	0.106524	142.21	17514.2	0.100761	0.311286	456.847	28680.2
33	2.000000	1.753078	7.36537e+06	-40289.1	955.818	-29790.6	0.000000	0.000000	7.760315	159.509	NaN	0.000000	0.001580	0.001666	28.0801	34.1003	0.001754	19436.7	3.706631	179.547	155.62	1.752796	0.109810	0.109529	159.509	19436.7	0.103655	0.327368	487.247	31036.9
33	2.000000	1.756177	7.36537e+06	-40289.1	955.818	-29790.6	0.000000	0.000000	7.764506	186.058	NaN	0.000000	0.001611	0.001674	28.1257	36.8158	0.001841	19998	4.540376	179.649	184.405	1.755752	0.112909	0.112485	186.058	19998	0.105932	0.340285	546.77	31321.1
33	2.000000	1.759130	7.36537e+06	-40289.1	955.817	-29790.6	0.000000	0.000000	7.768272	205.841	NaN	0.000000	0.001602	0.001646	28.0806	38.4743	0.001825	21078.6	1.089200	-177.383	203.134	1.758764	0.115863	0.115496	205.841	21078.6	0.108539	0.355368	579.234	32305.4
33	2.000000	1.762121	7.36537e+06	-40289.1	955.818	-29790.6	0.000000	0.000000	7.772199	228.622	NaN	0.000000	0.001591	0.001634	28.1256	40.1325	0.001645	24399.6	1.504151	-179.309	225.88	1.761747	0.118853	0.118480	228.622	24399.6	0.111826	0.374825	609.944	36411.7
33	2.000000	1.765272	7.36537e+06	-40289.1	955.818	-29790.6	0.000000	0.000000	7.775790	239.33	NaN	0.000000	0.001634	0.001674	28.0803	44.9283	0.001810	24828.8	9.914579	174.413	244.322	1.764786	0.122004	0.121518	239.33	24828.8	0.114775	0.392696	609.453	36199.4
33	2.000000	1.768102	7.36537e+06	-40289.1	955.818	-29790.6	0.000000	0.000000	7.779453	259.596	NaN	0.000000	0.001626	0.001725	28.1251	46.0408	0.001835	25085.3	2.783953	179.088	257.4	1.767806	0.124834	0.124539	259.596	25085.3	0.117073	0.406895	637.992	35929.5
33	2.000000	1.771024	7.36537e+06	-40289.1	955.818	-29790.6	0.000000	0.000000	7.782963	273.905	NaN	0.000000	0.001627	0.001735	28.0794	49.1653	0.001953	25175.3	5.610752	176.74	269.535	1.770679	0.127757	0.127412	273.905	25175.3	0.119597	0.422766	647.888	35375.1
33	2.000000	1.774074	7.36537e+06	-40289.1	955.817	-29790.6	0.000000	0.000000	7.786873	294.824	NaN	0.000000	0.001616	0.001743	28.1239	50.0894	0.001785	28056.8	1.205589	179.828	290.275	1.773720	0.130807	0.130452	294.824	28056.8	0.122926	0.444144	663.803	38463.6
33	2.000000	1.777077	7.36537e+06	-40289.1	955.818	-29790.6	0.000000	0.000000	7.790596	312.362	NaN	0.000000	0.001619	0.001696	28.0805	53.2893	0.001798	29631.2	7.217462	173.671	310.056	1.776675	0.133810	0.133407	312.362	29631.2	0.125903	0.463690	673.644	39756.5
33	2.000000	1.780261	7.36537e+06	-40289.1	955.818	-29790.6	0.000000	0.000000	7.794280	324.521	NaN	0.000000	0.001622	0.001679	28.125	55.7216	0.001874	29732.2	3.133706	178.271	332.734	1.779871	0.136993	0.136604	324.521	29732.2	0.128807	0.483145	671.685	39080.6
33	2.000000	1.783188	7.36537e+06	-40289.1	955.819	-29790.6	0.000000	0.000000	7.798252	349.969	NaN	0.000000	0.001605	0.001655	28.08	58.1802	0.001719	33852.4	2.317733	177.578	353.802	1.782875	0.139920	0.139608	349.969	33852.4	0.132166	0.506127	691.464	43474.3
33	2.000000	1.786322	7.36537e+06	-40289.1	955.818	-29790.6	0.000000	0.000000	7.802142	368.352	NaN	0.000000	0.001623	0.001650	28.1244	62.582	0.001829	34217.7	13.257	170.511	377.622	1.785738	0.143054	0.142470	368.352	34217.7	0.134981	0.525779	700.584	43114.4
33	2.000000	1.789007	7.36537e+06	-40289.1	955.82	-29790.6	0.000000	0.000000	7.805333	380.679	NaN	0.000000	0.001595	0.001668	28.0792	62.4437	0.001732	36057.3	3.457161	175.663	374.627	1.788718	0.145739	0.145450	380.679	36057.3	0.137821	0.545981	697.238	44583.9
33	2.000000	1.791597	7.36537e+06	-40289.1	955.818	-29790.6	0.000000	0.000000	7.808786	401.672	NaN	0.000000	0.001574	0.001685	28.1102	65.4062	0.001884	34715.2	4.906334	-4.823885	399.286	1.791258	0.148329	0.147990	401.672	34715.2	0.139651	0.559196	718.303	42414.2