File: remote_trans/data/nanoindenter/0828-1/data/Data_2025-08-06,11h17m57s/2025-07-22_16-23-58_1_1110.txt
2025-07-22, 16:23:58, 1
Index	Phase	Displacement	Time	Pos X	Pos Y	Pos Z	Rot A	Rot B	Piezo Z	Force A	Force B	Gripper	Voltage A	Voltage B	Temperature	Amplitude force	Amplitude pos	Stiffness	Phase shift	Phase excitation	Force A raw	Displacement raw	HMax	HMax raw	Real Force	Real Stiffness	Contact Depth	Area	Hardness	Reduced Mod.
[#]	[#]	[um]	[s]	[um]	[um]	[um]	[m°]	[m°]	[um]	[uN]	[uN]	[V]	[V]	[V]	[°C]	[uN]	[um]	[N/m]	[°]	[°]	[uN]	[um]	[um]	[um]	[uN]	[N/m]	[um]	[um^2]	[MPa]	[MPa]
1110	1.000000	0.002880	7.3759e+06	-55639.1	1055.82	-29741	0.000000	0.000000	6.002791	-0.052098	NaN	0.000000	0.001537	0.001719	28.083	0.033530	0.001062	31.579	169.716	-175.382	0.012883	0.001659	-1.099882	-1.101103	-0.052098	31.579	-1.098645	-4.807045E+14	1.083780E-16	NaN
1110	1.000000	0.012942	7.3759e+06	-55639.1	1055.82	-29741	0.000000	0.000000	6.012854	-0.018630	NaN	0.000000	0.001548	0.001695	28.083	0.082813	0.001135	72.9418	-29.1082	14.2634	0.015057	0.011512	-1.089821	-1.091251	-0.018630	72.9418	-1.089629	-3.637762E+14	5.121287E-17	NaN
1110	1.000000	0.022839	7.3759e+06	-55639.1	1055.82	-29741	0.000000	0.000000	6.022752	0.004359	NaN	0.000000	0.001549	0.001671	28.0823	0.021573	0.001636	13.1865	73.1747	-160.189	-0.010337	0.021445	-1.079924	-1.081317	0.004359	13.1865	-1.080172	-2.715353E+14	-1.605390E-17	NaN
1110	1.000000	0.032830	7.3759e+06	-55639.1	1055.82	-29741	0.000000	0.000000	6.032742	-0.027272	NaN	0.000000	0.001524	0.001639	28.082	0.106517	0.001809	58.8869	125.351	11.6706	-0.079207	0.031416	-1.069933	-1.071346	-0.027272	58.8869	-1.069586	-1.957136E+14	1.393460E-16	NaN
1110	1.000000	0.042842	7.3759e+06	-55639.1	1055.82	-29741	0.000000	0.000000	6.042756	0.020820	NaN	0.000000	0.001548	0.001645	28.0821	0.101556	0.002109	48.1429	122.461	-164.214	0.023929	0.041512	-1.059921	-1.061251	0.020820	48.1429	-1.060245	-1.465924E+14	-1.420243E-16	NaN
1110	1.000000	0.052828	7.3759e+06	-55639.1	1055.82	-29741	0.000000	0.000000	6.052741	-0.013587	NaN	0.000000	0.001494	0.001684	28.082	0.095456	0.002021	47.2422	120.183	12.9232	-0.010889	0.051468	-1.049935	-1.051295	-0.013587	47.2422	-1.049719	-1.058368E+14	1.283755E-16	NaN
1110	1.000000	0.062828	7.37591e+06	-55639.1	1055.82	-29741	0.000000	0.000000	6.062738	-0.061356	NaN	0.000000	0.001570	0.001717	28.0821	0.102791	0.002175	47.2568	27.5956	-164.411	-0.114496	0.061576	-1.039935	-1.041187	-0.061356	47.2568	-1.038961	-7.585769E+13	8.088311E-16	NaN
1110	1.000000	0.072849	7.37591e+06	-55639.1	1055.82	-29741	0.000000	0.000000	6.072758	-0.111581	NaN	0.000000	0.001551	0.001702	28.0818	0.045095	0.001992	22.639	39.4187	15.4552	-0.068534	0.071476	-1.029913	-1.031287	-0.111581	22.639	-1.026217	-5.111972E+13	2.182739E-15	NaN
1110	1.000000	0.082848	7.37591e+06	-55639.1	1055.82	-29741	0.000000	0.000000	6.082759	-0.049691	NaN	0.000000	0.001546	0.001666	28.082	0.030828	0.002018	15.2756	-124.518	-161.35	0.024143	0.081528	-1.019915	-1.021235	-0.049691	15.2756	-1.017475	-3.899241E+13	1.274385E-15	NaN
1110	1.000000	0.092859	7.37591e+06	-55639.1	1055.82	-29741	0.000000	0.000000	6.092772	-0.014702	NaN	0.000000	0.001495	0.001689	28.0819	0.102661	0.002116	48.5116	-43.9031	14.2193	-0.030972	0.091437	-1.009903	-1.011325	-0.014702	48.5116	-1.009676	-3.062117E+13	4.801125E-16	NaN
1110	1.000000	0.102859	7.37591e+06	-55639.1	1055.82	-29741	0.000000	0.000000	6.102774	0.023289	NaN	0.000000	0.001535	0.001702	28.0821	0.035669	0.001992	17.9088	38.6346	-164.946	0.046005	0.101500	-0.999903	-1.001263	0.023289	17.9088	-1.000879	-2.331297E+13	-9.989727E-16	NaN
1110	1.000000	0.112858	7.37591e+06	-55639.1	1055.82	-29741	0.000000	0.000000	6.112769	-0.062434	NaN	0.000000	0.001560	0.001734	28.0818	0.121488	0.001850	65.6822	33.1512	12.8277	-0.005684	0.111476	-0.989905	-0.991287	-0.062434	65.6822	-0.989192	-1.622658E+13	3.847667E-15	NaN
1110	1.000000	0.122864	7.37591e+06	-55639.1	1055.82	-29741	0.000000	0.000000	6.122778	0.018194	NaN	0.000000	0.001534	0.001739	28.082	0.095099	0.002156	44.103	-128.747	-164.11	0.002693	0.121569	-0.979899	-0.981194	0.018194	44.103	-0.980208	-1.228043E+13	-1.481512E-15	NaN
1110	1.000000	0.132864	7.37591e+06	-55639.1	1055.82	-29741	0.000000	0.000000	6.132778	0.011488	NaN	0.000000	0.001519	0.001682	28.0818	0.056842	0.001997	28.4686	-129.274	14.4712	0.019054	0.131510	-0.969899	-0.971252	0.011488	28.4686	-0.970201	-9.002786E+12	-1.276041E-15	NaN
1110	1.000000	0.142884	7.37591e+06	-55639.1	1055.82	-29741	0.000000	0.000000	6.142800	0.081024	NaN	0.000000	0.001539	0.001695	28.082	0.086054	0.002137	40.2652	111.105	-167.842	-0.011288	0.141567	-0.959879	-0.961196	0.081024	40.2652	-0.961388	-6.848291E+12	-1.183122E-14	NaN
1110	1.000000	0.152892	7.37591e+06	-55639.1	1055.82	-29741	0.000000	0.000000	6.152804	-0.007273	NaN	0.000000	0.001575	0.001707	28.0829	0.065600	0.002000	32.797	-70.4229	16.2682	0.014585	0.151498	-0.949871	-0.951264	-0.007273	32.797	-0.949705	-4.764809E+12	1.526443E-15	NaN
1110	1.000000	0.162888	7.37591e+06	-55639.1	1055.82	-29741	0.000000	0.000000	6.162798	-0.071256	NaN	0.000000	0.001562	0.001661	28.0834	0.004423	0.002070	2.136480	69.7299	-170.413	-0.154130	0.161564	-0.939875	-0.941199	-0.071256	2.136480	-0.914861	-1.613653E+12	4.415805E-14	NaN
1110	1.000000	0.172886	7.37591e+06	-55639.1	1055.82	-29741	0.000000	0.000000	6.172797	-0.040255	NaN	0.000000	0.001571	0.001675	28.0831	0.073611	0.002057	35.7924	-14.0731	13.3411	-0.060011	0.171572	-0.929877	-0.931191	-0.040255	35.7924	-0.929033	-2.506962E+12	1.605730E-14	NaN
1110	1.000000	0.182926	7.37591e+06	-55639.1	1055.82	-29741	0.000000	0.000000	6.182836	-0.067605	NaN	0.000000	0.001555	0.001663	28.0832	0.015571	0.002029	7.675400	-127.379	-160.283	-0.075166	0.181558	-0.919837	-0.921205	-0.067605	7.675400	-0.913231	-1.533904E+12	4.407363E-14	NaN
1110	1.000000	0.192890	7.37591e+06	-55639.1	1055.82	-29741	0.000000	0.000000	6.192802	-0.041815	NaN	0.000000	0.001523	0.001670	28.083	0.071369	0.001956	36.4811	-93.9418	15.0116	-0.073796	0.191526	-0.909873	-0.911237	-0.041815	36.4811	-0.909013	-1.345332E+12	3.108173E-14	NaN
1110	1.000000	0.202880	7.37591e+06	-55639.1	1055.82	-29741	0.000000	0.000000	6.202791	-0.036000	NaN	0.000000	0.001524	0.001642	28.0836	0.097314	0.001909	50.9654	64.8053	-165.779	-0.023603	0.201632	-0.899883	-0.901131	-0.036000	50.9654	-0.899353	-9.961496E+11	3.613900E-14	NaN
1110	1.000000	0.212882	7.37591e+06	-55639.1	1055.82	-29741	0.000000	0.000000	6.212795	-0.009084	NaN	0.000000	0.001543	0.001681	28.0831	0.099241	0.001968	50.4191	-45.7011	11.43	-0.048168	0.211487	-0.889881	-0.891276	-0.009084	50.4191	-0.889746	-7.387165E+11	1.229748E-14	NaN
1110	1.000000	0.222906	7.37591e+06	-55639.1	1055.82	-29741	0.000000	0.000000	6.222817	-0.061049	NaN	0.000000	0.001554	0.001682	28.0831	0.026813	0.001920	13.9621	-150.52	-164.83	-0.045426	0.221576	-0.879857	-0.881186	-0.061049	13.9621	-0.876577	-4.902486E+11	1.245257E-13	NaN
1110	1.000000	0.232924	7.37591e+06	-55639.1	1055.82	-29741	0.000000	0.000000	6.232836	-0.043003	NaN	0.000000	0.001547	0.001680	28.083	0.046574	0.001898	24.5354	112.158	13.505	-0.044977	0.231568	-0.869838	-0.871195	-0.043003	24.5354	-0.868524	-3.814802E+11	1.127267E-13	NaN
1110	1.000000	0.242918	7.37591e+06	-55639.1	1055.82	-29741	0.000000	0.000000	6.242832	0.017427	NaN	0.000000	0.001555	0.001687	28.0833	0.130244	0.002067	63.006	-58.5609	-166.07	0.045405	0.241610	-0.859844	-0.861152	0.017427	63.006	-0.860052	-2.929683E+11	-5.948285E-14	NaN
1110	1.000000	0.252912	7.37591e+06	-55639.1	1055.82	-29741	0.000000	0.000000	6.252824	-0.012247	NaN	0.000000	0.001571	0.001699	28.0828	0.054356	0.002182	24.909	76.3171	15.9936	0.023686	0.251552	-0.849851	-0.851211	-0.012247	24.909	-0.849482	-2.107298E+11	5.811558E-14	NaN
1110	1.000000	0.262933	7.37591e+06	-55639.1	1055.82	-29741	0.000000	0.000000	6.262845	-0.039389	NaN	0.000000	0.001561	0.001653	28.083	0.083353	0.002020	41.273	107.001	-163.09	0.006561	0.261584	-0.839829	-0.841179	-0.039389	41.273	-0.839114	-1.525054E+11	2.582800E-13	NaN
1110	1.000000	0.272956	7.37591e+06	-55639.1	1055.82	-29741	0.000000	0.000000	6.272869	0.000823	NaN	0.000000	0.001576	0.001673	28.0827	0.043204	0.002029	21.2918	-177.662	14.1426	-0.028044	0.271560	-0.829806	-0.831203	0.000823	21.2918	-0.829835	-1.141706E+11	-7.204350E-15	NaN
1110	1.000000	0.282929	7.37591e+06	-55639.1	1055.82	-29741	0.000000	0.000000	6.282840	-0.055621	NaN	0.000000	0.001592	0.001649	28.0831	0.027253	0.001937	14.0693	-88.9257	-163.16	-0.060314	0.281681	-0.819833	-0.821082	-0.055621	14.0693	-0.816868	-7.616225E+10	7.303024E-13	NaN
1110	1.000000	0.292950	7.37591e+06	-55639.1	1055.82	-29741	0.000000	0.000000	6.292862	-0.030271	NaN	0.000000	0.001603	0.001702	28.0816	0.133723	0.001977	67.656	16.6679	17.4444	0.049215	0.291570	-0.809813	-0.811193	-0.030271	67.656	-0.809477	-6.046164E+10	5.006617E-13	NaN
1110	1.000000	0.302957	7.37591e+06	-55639.1	1055.82	-29741	0.000000	0.000000	6.302869	-0.028420	NaN	0.000000	0.001536	0.001682	28.0817	0.089556	0.001943	46.0952	-80.4137	-162.543	-0.075071	0.301638	-0.799806	-0.801125	-0.028420	46.0952	-0.799343	-4.405040E+10	6.451812E-13	NaN
1110	1.000000	0.312955	7.37591e+06	-55639.1	1055.82	-29741	0.000000	0.000000	6.312867	-0.032997	NaN	0.000000	0.001553	0.001688	28.0818	0.093975	0.002171	43.2766	-13.9981	11.5892	-0.064349	0.311635	-0.789807	-0.791128	-0.032997	43.2766	-0.789236	-3.211447E+10	1.027480E-12	NaN
1110	1.000000	0.322932	7.37591e+06	-55639.1	1055.82	-29741	0.000000	0.000000	6.322846	0.026014	NaN	0.000000	0.001495	0.001683	28.0819	0.087839	0.001884	46.6357	-63.2741	-164.662	-0.029948	0.321614	-0.779831	-0.781149	0.026014	46.6357	-0.780249	-2.424478E+10	-1.072961E-12	NaN
1110	1.000000	0.332933	7.37591e+06	-55639.1	1055.82	-29741	0.000000	0.000000	6.332844	-0.058948	NaN	0.000000	0.001574	0.001710	28.0817	0.087448	0.001959	44.641	-97.4682	13.6772	-0.072721	0.331629	-0.769829	-0.771133	-0.058948	44.641	-0.768839	-1.696352E+10	3.474963E-12	NaN
1110	1.000000	0.342947	7.37591e+06	-55639.1	1055.82	-29741	0.000000	0.000000	6.342861	0.028865	NaN	0.000000	0.001544	0.001679	28.0818	0.049103	0.001962	25.0329	-162.403	-161.626	-0.026692	0.341644	-0.759816	-0.761119	0.028865	25.0329	-0.760680	-1.313890E+10	-2.196916E-12	NaN
1110	1.000000	0.352950	7.37591e+06	-55639.1	1055.82	-29741	0.000000	0.000000	6.352862	-0.026900	NaN	0.000000	0.001549	0.001660	28.0817	0.093874	0.002037	46.0863	153.647	13.0506	-0.053880	0.351598	-0.749813	-0.751164	-0.026900	46.0863	-0.749375	-9.219672E+9	2.917655E-12	NaN
1110	1.000000	0.362953	7.37591e+06	-55639.1	1055.82	-29741	0.000000	0.000000	6.362867	0.020107	NaN	0.000000	0.001550	0.001655	28.0818	0.093021	0.002077	44.7823	24.833	-165.154	-0.041436	0.361625	-0.739810	-0.741138	0.020107	44.7823	-0.740147	-6.903236E+9	-2.912680E-12	NaN
1110	1.000000	0.372975	7.37591e+06	-55639.1	1055.82	-29741	0.000000	0.000000	6.372885	-0.087633	NaN	0.000000	0.001542	0.001697	28.0817	0.047153	0.001960	24.0543	124.754	14.2883	-0.127653	0.371640	-0.729788	-0.731123	-0.087633	24.0543	-0.727055	-4.577926E+9	1.914249E-11	NaN
1110	1.000000	0.383002	7.37591e+06	-55639.1	1055.82	-29741	0.000000	0.000000	6.382915	0.011285	NaN	0.000000	0.001573	0.001674	28.0817	0.034910	0.001901	18.3614	-102.018	-167.134	0.018841	0.381704	-0.719761	-0.721059	0.011285	18.3614	-0.720222	-3.694021E+9	-3.055013E-12	NaN
1110	1.000000	0.392970	7.37591e+06	-55639.1	1055.82	-29741	0.000000	0.000000	6.392882	-0.025779	NaN	0.000000	0.001550	0.001693	28.0819	0.032027	0.001963	16.3141	75.9743	12.711	-0.047386	0.391615	-0.709793	-0.711147	-0.025779	16.3141	-0.708607	-2.564739E+9	1.005113E-11	NaN
1110	1.000000	0.402985	7.37591e+06	-55639.1	1055.82	-29741	0.000000	0.000000	6.402899	0.020456	NaN	0.000000	0.001538	0.001693	28.0818	0.027244	0.002027	13.4412	-4.714638	-165.891	0.039554	0.401678	-0.699777	-0.701085	0.020456	13.4412	-0.700919	-2.014089E+9	-1.015658E-11	NaN
1110	1.000000	0.412966	7.37591e+06	-55639.1	1055.82	-29741	0.000000	0.000000	6.412880	0.011838	NaN	0.000000	0.001530	0.001701	28.0819	0.078744	0.002061	38.2121	-114.778	14.3582	-0.013152	0.411607	-0.689797	-0.691156	0.011838	38.2121	-0.690029	-1.429926E+9	-8.278937E-12	NaN
1110	1.000000	0.422988	7.37591e+06	-55639.1	1055.82	-29741	0.000000	0.000000	6.422901	-0.023723	NaN	0.000000	0.001532	0.001707	28.0819	0.075329	0.001956	38.5204	-36.1936	-164.997	-0.016840	0.421688	-0.679774	-0.681074	-0.023723	38.5204	-0.679312	-1.020467E+9	2.324737E-11	NaN
1110	1.000000	0.432990	7.37591e+06	-55639.1	1055.82	-29741	0.000000	0.000000	6.432904	0.012486	NaN	0.000000	0.001538	0.001717	28.0833	0.046722	0.001917	24.3726	-14.6069	15.0472	0.086440	0.431645	-0.669772	-0.671118	0.012486	24.3726	-0.670157	-7.647777E+8	-1.632626E-11	NaN
1110	1.000000	0.442980	7.37591e+06	-55639.1	1055.82	-29741	0.000000	0.000000	6.442890	-0.092980	NaN	0.000000	0.001519	0.001688	28.0831	0.110337	0.002002	55.1109	87.4331	-167.073	-0.040311	0.441702	-0.659782	-0.661061	-0.092980	55.1109	-0.658517	-5.298529E+8	1.754828E-10	NaN
1110	1.000000	0.452999	7.37591e+06	-55639.1	1055.82	-29741	0.000000	0.000000	6.452913	0.007065	NaN	0.000000	0.001528	0.001720	28.083	0.037700	0.002048	18.4077	143.026	13.4418	-0.054308	0.451635	-0.649764	-0.651128	0.007065	18.4077	-0.650051	-4.056409E+8	-1.741786E-11	NaN
1110	1.000000	0.463017	7.37591e+06	-55639.1	1055.82	-29741	0.000000	0.000000	6.462931	0.020453	NaN	0.000000	0.001552	0.001708	28.0832	0.058707	0.001980	29.6469	-144.31	-165.459	0.042966	0.461715	-0.639746	-0.641047	0.020453	29.6469	-0.640263	-2.977841E+8	-6.868406E-11	NaN
1110	1.000000	0.473010	7.37591e+06	-55639.1	1055.82	-29741	0.000000	0.000000	6.472922	-0.035393	NaN	0.000000	0.001569	0.001721	28.083	0.036662	0.002004	18.2929	152.467	14.4486	-0.064130	0.471674	-0.629753	-0.631089	-0.035393	18.2929	-0.628302	-2.040327E+8	1.734686E-10	NaN
1110	1.000000	0.483031	7.37591e+06	-55639.1	1055.82	-29741	0.000000	0.000000	6.482944	0.006052	NaN	0.000000	0.001557	0.001748	28.083	0.068574	0.001754	39.1069	69.7671	-165.375	0.045263	0.481721	-0.619732	-0.621041	0.006052	39.1069	-0.619848	-1.561500E+8	-3.875877E-11	NaN
1110	1.000000	0.493048	7.37591e+06	-55639.1	1055.82	-29741	0.000000	0.000000	6.492960	-0.029392	NaN	0.000000	0.001545	0.001729	28.0831	0.089499	0.001943	46.0567	-166.718	14.5574	-0.080982	0.491627	-0.609715	-0.611136	-0.029392	46.0567	-0.609236	-1.115857E+8	2.634022E-10	NaN
1110	1.000000	0.502994	7.37591e+06	-55639.1	1055.82	-29741	0.000000	0.000000	6.502906	-0.025477	NaN	0.000000	0.001550	0.001703	28.083	0.099976	0.002083	48.0064	-177.02	-166.932	-0.018122	0.501714	-0.599768	-0.601049	-0.025477	48.0064	-0.599370	-8.161827E+7	3.121544E-10	NaN
1110	1.000000	0.513056	7.37591e+06	-55639.1	1055.82	-29741	0.000000	0.000000	6.512969	0.002433	NaN	0.000000	0.001504	0.001712	28.0829	0.061722	0.001902	32.4496	76.1018	10.3888	-0.054019	0.511700	-0.589707	-0.591063	0.002433	32.4496	-0.589763	-6.017228E+7	-4.043864E-11	NaN
1110	1.000000	0.523057	7.37591e+06	-55639.1	1055.82	-29741	0.000000	0.000000	6.522967	-0.081606	NaN	0.000000	0.001554	0.001723	28.0828	0.058382	0.001965	29.705	-70.6099	-164.882	-0.066267	0.521739	-0.579706	-0.581023	-0.081606	29.705	-0.577645	-4.094728E+7	1.992962E-9	NaN
1110	1.000000	0.533045	7.37591e+06	-55639.1	1055.82	-29741	0.000000	0.000000	6.532956	-0.058726	NaN	0.000000	0.001557	0.001739	28.083	0.056093	0.002071	27.0853	-178.788	14.1516	0.007467	0.531735	-0.569717	-0.571028	-0.058726	27.0853	-0.568091	-3.021734E+7	1.943460E-9	NaN
1110	1.000000	0.543053	7.37591e+06	-55639.1	1055.82	-29741	0.000000	0.000000	6.542966	-0.012774	NaN	0.000000	0.001524	0.001740	28.0828	0.069155	0.002033	34.0236	153.46	-169.161	-0.048411	0.541740	-0.559710	-0.561023	-0.012774	34.0236	-0.559428	-2.293315E+7	5.570252E-10	NaN
1110	1.000000	0.553047	7.37591e+06	-55639.1	1055.82	-29741	0.000000	0.000000	6.552959	-0.019586	NaN	0.000000	0.001555	0.001714	28.083	0.044798	0.002086	21.4731	-166.109	14.4184	-0.069527	0.551744	-0.549716	-0.551018	-0.019586	21.4731	-0.549032	-1.646422E+7	1.189606E-9	NaN
1110	1.000000	0.563067	7.37591e+06	-55639.1	1055.82	-29741	0.000000	0.000000	6.562980	-0.012712	NaN	0.000000	0.001580	0.001734	28.0818	0.093156	0.001954	47.6664	-116.101	-166.217	-0.048134	0.561730	-0.539695	-0.541033	-0.012712	47.6664	-0.539495	-1.214394E+7	1.046747E-9	NaN
1110	1.000000	0.573030	7.37591e+06	-55639.1	1055.82	-29741	0.000000	0.000000	6.572942	-0.032010	NaN	0.000000	0.001574	0.001719	28.0819	0.093336	0.002083	44.8137	11.6263	14.5202	-0.030289	0.571679	-0.529732	-0.531084	-0.032010	44.8137	-0.529197	-8.73809e+06	3.663330E-9	NaN
1110	1.000000	0.583066	7.37591e+06	-55639.1	1055.82	-29741	0.000000	0.000000	6.582978	-0.020682	NaN	0.000000	0.001580	0.001737	28.0815	0.112362	0.001936	58.0415	67.8056	-165.88	0.029801	0.581753	-0.519697	-0.521009	-0.020682	58.0415	-0.519430	-6.39243e+06	3.235383E-9	NaN
1110	1.000000	0.593059	7.37591e+06	-55639.1	1055.82	-29741	0.000000	0.000000	6.592972	-0.012749	NaN	0.000000	0.001577	0.001736	28.0817	0.023342	0.001917	12.1789	-69.154	14.2702	-0.091104	0.591692	-0.509704	-0.511071	-0.012749	12.1789	-0.508918	-4.56404e+06	2.793400E-9	NaN
1110	1.000000	0.603078	7.37591e+06	-55639.1	1055.82	-29741	0.000000	0.000000	6.602992	0.021534	NaN	0.000000	0.001568	0.001803	28.0818	0.026270	0.002052	12.8033	-88.5139	-162.198	0.085181	0.601785	-0.499684	-0.500978	0.021534	12.8033	-0.500946	-3.53354e+06	-6.094141E-9	NaN
1110	1.000000	0.613084	7.37591e+06	-55639.1	1055.82	-29741	0.000000	0.000000	6.612996	-0.014926	NaN	0.000000	0.001611	0.001702	28.0818	0.097695	0.001938	50.4011	10.2281	12.8133	-0.031457	0.611767	-0.489679	-0.490996	-0.014926	50.4011	-0.489457	-2.44232e+06	6.111206E-9	NaN
1110	1.000000	0.623080	7.37591e+06	-55639.1	1055.82	-29741	0.000000	0.000000	6.622992	-0.027687	NaN	0.000000	0.001582	0.001716	28.0818	0.031332	0.001936	16.1837	3.912740	-169.626	0.006227	0.621719	-0.479682	-0.481044	-0.027687	16.1837	-0.478399	-1.71046e+06	1.618690E-8	NaN
1110	1.000000	0.633068	7.37591e+06	-55639.1	1055.82	-29741	0.000000	0.000000	6.632981	-0.011672	NaN	0.000000	0.001589	0.001719	28.0818	0.076577	0.002095	36.5591	-69.7748	17.1005	-0.003885	0.631756	-0.469695	-0.471006	-0.011672	36.5591	-0.469455	-1.28164e+06	9.107350E-9	NaN
1110	1.000000	0.643077	7.37591e+06	-55639.1	1055.82	-29741	0.000000	0.000000	6.642990	-0.018534	NaN	0.000000	0.001570	0.001694	28.0818	0.116493	0.002003	58.1503	-7.823850	-167.836	-0.073211	0.641824	-0.459685	-0.460938	-0.018534	58.1503	-0.459446	-927330	1.998648E-8	NaN
1110	1.000000	0.653091	7.37591e+06	-55639.1	1055.82	-29741	0.000000	0.000000	6.653003	-0.031633	NaN	0.000000	0.001539	0.001726	28.0816	0.056262	0.002079	27.0606	20.4116	14.1197	-0.015474	0.651714	-0.449671	-0.451049	-0.031633	27.0606	-0.448795	-656702	4.816919E-8	NaN
1110	1.000000	0.663088	7.37591e+06	-55639.1	1055.82	-29741	0.000000	0.000000	6.662999	-0.066828	NaN	0.000000	0.001542	0.001751	28.0818	0.070308	0.002114	33.2519	-21.5005	-164.984	0.004143	0.661770	-0.439674	-0.440993	-0.066828	33.2519	-0.438167	-465035	1.437055E-7	NaN
1110	1.000000	0.673111	7.37591e+06	-55639.1	1055.82	-29741	0.000000	0.000000	6.673021	-0.077854	NaN	0.000000	0.001549	0.001768	28.0817	0.076999	0.002054	37.4856	40.8628	16.2855	-0.106013	0.671748	-0.429651	-0.431014	-0.077854	37.4856	-0.428094	-335031	2.323780E-7	NaN
1110	1.000000	0.683100	7.37591e+06	-55639.1	1055.82	-29741	0.000000	0.000000	6.683008	-0.122923	NaN	0.000000	0.001538	0.001715	28.0818	0.029463	0.001922	15.3261	-45.3198	-170.581	-0.101104	0.681755	-0.419662	-0.421008	-0.122923	15.3261	-0.413647	-209044	5.880254E-7	NaN
1110	1.000000	0.693138	7.37591e+06	-55639.1	1055.82	-29741	0.000000	0.000000	6.693048	-0.085745	NaN	0.000000	0.001569	0.001734	28.0818	0.039178	0.002052	19.0926	91.8593	11.0583	-0.091170	0.691771	-0.409624	-0.410991	-0.085745	19.0926	-0.406256	-164109	5.224874E-7	NaN
1110	1.000000	0.703105	7.37591e+06	-55639.1	1055.82	-29741	0.000000	0.000000	6.703019	0.019367	NaN	0.000000	0.001628	0.001718	28.083	0.023509	0.001995	11.7813	64.2754	-167.579	-0.069298	0.701827	-0.399658	-0.400936	0.019367	11.7813	-0.400890	-137623	-1.407255E-7	NaN
1110	1.000000	0.713119	7.37591e+06	-55639.1	1055.82	-29741	0.000000	0.000000	6.713031	-0.012360	NaN	0.000000	0.001642	0.001706	28.0833	0.039040	0.002001	19.5129	-43.5404	11.8106	-0.041738	0.711738	-0.389644	-0.391025	-0.012360	19.5129	-0.389169	-93600	1.320492E-7	NaN
1110	1.000000	0.723118	7.37591e+06	-55639.1	1055.82	-29741	0.000000	0.000000	6.723033	0.022378	NaN	0.000000	0.001643	0.001701	28.0829	0.064539	0.001997	32.3173	153.127	-167.476	-0.052788	0.721831	-0.379644	-0.380932	0.022378	32.3173	-0.380163	-69540.1	-3.217996E-7	NaN
1110	1.000000	0.733113	7.37591e+06	-55639.1	1055.82	-29741	0.000000	0.000000	6.733024	-0.075419	NaN	0.000000	0.001657	0.001707	28.0829	0.010326	0.002001	5.161274	62.8911	14.8853	-0.054371	0.731764	-0.369649	-0.370999	-0.075419	5.161274	-0.358690	-34111.4	2.210969E-6	NaN
1110	1.000000	0.743101	7.37591e+06	-55639.1	1055.82	-29741	0.000000	0.000000	6.743016	0.044777	NaN	0.000000	0.001640	0.001734	28.083	0.082659	0.002085	39.6353	-134.938	-165.423	0.003090	0.741813	-0.359662	-0.360950	0.044777	39.6353	-0.360509	-36241.1	-1.235536E-6	NaN
1110	1.000000	0.753120	7.37591e+06	-55639.1	1055.82	-29741	0.000000	0.000000	6.753031	-0.051734	NaN	0.000000	0.001650	0.001711	28.083	0.075813	0.001999	37.9247	86.2218	13.7806	-0.055474	0.751701	-0.349643	-0.351061	-0.051734	37.9247	-0.348620	-24376.1	2.122310E-6	NaN
1110	1.000000	0.763129	7.37591e+06	-55639.1	1055.82	-29741	0.000000	0.000000	6.763042	-0.012641	NaN	0.000000	0.001636	0.001711	28.0829	0.094352	0.002141	44.0793	66.0505	-161.136	-0.054882	0.761827	-0.339634	-0.340936	-0.012641	44.0793	-0.339419	-17909.3	7.058234E-7	NaN
1110	1.000000	0.773139	7.37591e+06	-55639.1	1055.82	-29741	0.000000	0.000000	6.773053	0.029194	NaN	0.000000	0.001574	0.001707	28.0829	0.169878	0.001913	88.7912	-109.005	16.2817	0.017868	0.771786	-0.329624	-0.330976	0.029194	88.7912	-0.329870	-12988.3	-2.247692E-6	NaN
1110	1.000000	0.783136	7.37591e+06	-55639.1	1055.82	-29741	0.000000	0.000000	6.783047	-0.072367	NaN	0.000000	0.001584	0.001700	28.0829	0.134469	0.002108	63.7928	64.0016	-164.783	-0.041589	0.781885	-0.319626	-0.320877	-0.072367	63.7928	-0.318775	-8925.02	8.108302E-6	NaN
1110	1.000000	0.793132	7.37591e+06	-55639.1	1055.82	-29741	0.000000	0.000000	6.793043	-0.059528	NaN	0.000000	0.001617	0.001722	28.0829	0.074154	0.002060	35.9896	25.3027	15.5798	-0.070631	0.791828	-0.309631	-0.310935	-0.059528	35.9896	-0.308390	-6269.35	9.495083E-6	NaN
1110	1.000000	0.803128	7.37591e+06	-55639.1	1055.82	-29741	0.000000	0.000000	6.803045	0.098367	NaN	0.000000	0.001573	0.001725	28.0828	0.020212	0.001953	10.3475	11.9019	-166.821	0.088817	0.801863	-0.299635	-0.300900	0.098367	10.3475	-0.306764	-5930.99	-1.658531E-5	NaN
1110	1.000000	0.813126	7.37591e+06	-55639.1	1055.82	-29741	0.000000	0.000000	6.813039	-0.017556	NaN	0.000000	0.001573	0.001720	28.0829	0.134145	0.001882	71.2646	-149.127	15.445	-0.005986	0.811818	-0.289636	-0.290944	-0.017556	71.2646	-0.289452	-3274.05	5.362069E-6	NaN
1110	1.000000	0.823154	7.37591e+06	-55639.1	1055.82	-29741	0.000000	0.000000	6.823065	-0.050138	NaN	0.000000	0.001535	0.001744	28.0841	0.087884	0.001946	45.1637	136.663	-163.06	0.068882	0.821831	-0.279608	-0.280931	-0.050138	45.1637	-0.278776	-2262	2.216525E-5	NaN
1110	1.000000	0.833151	7.37591e+06	-55639.1	1055.82	-29741	0.000000	0.000000	6.833065	0.021026	NaN	0.000000	0.001555	0.001690	28.0826	0.096901	0.001960	49.4389	97.1297	11.4131	-0.043569	0.831791	-0.269612	-0.270972	0.021026	49.4389	-0.269931	-1661.47	-1.265504E-5	NaN
1110	1.000000	0.843173	7.37591e+06	-55639.1	1055.82	-29741	0.000000	0.000000	6.843086	-0.010014	NaN	0.000000	0.001580	0.001702	28.0817	0.018173	0.001991	9.129091	-21.9975	-171.481	0.032905	0.841801	-0.259590	-0.260961	-0.010014	9.129091	-0.258767	-1122.05	8.924515E-6	NaN
1110	1.000000	0.853165	7.37591e+06	-55639.1	1055.82	-29741	0.000000	0.000000	6.853080	0.033013	NaN	0.000000	0.001572	0.001736	28.0816	0.039919	0.002015	19.8125	-158.416	15.0267	-0.005565	0.851836	-0.249597	-0.250927	0.033013	19.8125	-0.250847	-847.343	-3.896006E-5	NaN
1110	1.000000	0.863204	7.37591e+06	-55639.1	1055.82	-29741	0.000000	0.000000	6.863118	0.016796	NaN	0.000000	0.001568	0.001741	28.0818	0.087901	0.001948	45.1346	-18.5351	-166.454	-0.007397	0.861895	-0.239559	-0.240867	0.016796	45.1346	-0.239838	-571.502	-2.938962E-5	NaN
1110	1.000000	0.873200	7.37591e+06	-55639.1	1055.82	-29741	0.000000	0.000000	6.873113	-0.003470	NaN	0.000000	0.001555	0.001698	28.0817	0.081375	0.001922	42.3346	-135.075	12.8671	0.014611	0.871816	-0.229563	-0.230947	-0.003470	42.3346	-0.229502	-393.228	8.825635E-6	NaN
1110	1.000000	0.883175	7.37591e+06	-55639.1	1055.82	-29741	0.000000	0.000000	6.883086	-0.042917	NaN	0.000000	0.001553	0.001697	28.0817	0.049521	0.001975	25.0801	125.763	-171.869	-0.134407	0.881912	-0.219588	-0.220851	-0.042917	25.0801	-0.218305	-260.948	0.000164	NaN
1110	1.000000	0.893215	7.37591e+06	-55639.1	1055.82	-29741	0.000000	0.000000	6.893125	-0.063873	NaN	0.000000	0.001576	0.001787	28.0818	0.096105	0.001983	48.4755	-6.417521	13.6818	-0.090250	0.891789	-0.209548	-0.210974	-0.063873	48.4755	-0.208560	-181.749	0.000351	NaN
1110	1.000000	0.903197	7.37591e+06	-55639.1	1055.82	-29741	0.000000	0.000000	6.903109	-0.034956	NaN	0.000000	0.001568	0.001770	28.0818	0.123050	0.002092	58.833	-163.481	-166.438	-0.059778	0.901920	-0.199565	-0.200843	-0.034956	58.833	-0.199120	-127.416	0.000274	NaN
1110	1.000000	0.913182	7.37591e+06	-55639.1	1055.82	-29741	0.000000	0.000000	6.913093	-0.040469	NaN	0.000000	0.001548	0.001789	28.0819	0.058721	0.001952	30.0824	174.204	10.6922	0.002211	0.911813	-0.189581	-0.190949	-0.040469	30.0824	-0.188572	-85.1409	0.000475	NaN
1110	1.000000	0.923183	7.37591e+06	-55639.1	1055.82	-29741	0.000000	0.000000	6.923094	-0.048200	NaN	0.000000	0.001574	0.001729	28.0816	0.024057	0.001840	13.073	96.2633	-170.217	-0.121397	0.921825	-0.179580	-0.180937	-0.048200	13.073	-0.176815	-53.8398	0.000895	NaN
1110	1.000000	0.933229	7.37591e+06	-55639.1	1055.82	-29741	0.000000	0.000000	6.933140	-0.064532	NaN	0.000000	0.001572	0.001678	28.082	0.070074	0.002075	33.771	126.976	14.3959	-0.065337	0.931805	-0.169533	-0.170957	-0.064532	33.771	-0.168100	-38.0673	0.001695	NaN
1110	1.000000	0.943187	7.37591e+06	-55639.1	1055.82	-29741	0.000000	0.000000	6.943101	0.021924	NaN	0.000000	0.001532	0.001752	28.0817	0.062179	0.002107	29.5078	76.0402	-167.244	-0.017577	0.941888	-0.159575	-0.160874	0.021924	29.5078	-0.160133	-27.5641	-0.000795	NaN
1110	1.000000	0.953211	7.37591e+06	-55639.1	1055.82	-29741	0.000000	0.000000	6.953124	-0.000876	NaN	0.000000	0.001548	0.001684	28.082	0.028579	0.002225	12.8419	148.03	10.7714	-0.010998	0.951855	-0.149551	-0.150908	-0.000876	12.8419	-0.149500	-17.7371	4.939837E-5	NaN
1110	1.000000	0.963219	7.37591e+06	-55639.1	1055.82	-29741	0.000000	0.000000	6.963130	-0.064895	NaN	0.000000	0.001507	0.001706	28.0818	0.043919	0.001964	22.3649	138.602	-167.657	-0.132739	0.961860	-0.139543	-0.140903	-0.064895	22.3649	-0.137367	-10.5512	0.006150	NaN
1110	1.000000	0.973220	7.37591e+06	-55639.1	1055.82	-29741	0.000000	0.000000	6.973133	0.014162	NaN	0.000000	0.001561	0.001686	28.0837	0.058897	0.001875	31.4197	109.441	12.1545	-0.023727	0.971819	-0.129543	-0.130944	0.014162	31.4197	-0.129881	-7.580545	-0.001868	NaN
1110	1.000000	0.983249	7.37591e+06	-55639.1	1055.82	-29741	0.000000	0.000000	6.983163	0.039694	NaN	0.000000	0.001553	0.001691	28.0832	0.066404	0.001933	34.3566	27.5525	-165.282	0.011793	0.981939	-0.119514	-0.120824	0.039694	34.3566	-0.120381	-4.917650	-0.008072	NaN
1110	1.000000	0.993209	7.37591e+06	-55639.1	1055.82	-29741	0.000000	0.000000	6.993120	-0.045802	NaN	0.000000	0.001573	0.001654	28.0832	0.107346	0.001972	54.4466	24.9656	13.8583	-0.001243	0.991860	-0.109554	-0.110903	-0.045802	54.4466	-0.108923	-2.851725	0.016061	NaN
1110	1.000000	1.003211	7.37591e+06	-55639.1	1055.82	-29741	0.000000	0.000000	7.003121	-0.076761	NaN	0.000000	0.001557	0.001681	28.0833	0.015142	0.002028	7.465881	157.391	-165.686	-0.085087	1.001938	-0.099552	-0.100825	-0.076761	7.465881	-0.091841	-1.193363	0.064323	NaN
1110	1.000000	1.013210	7.37591e+06	-55639.1	1055.82	-29741	0.000000	0.000000	7.013119	-0.084158	NaN	0.000000	0.001545	0.001690	28.0833	0.086270	0.001946	44.3311	149.874	14.5579	-0.043692	1.011835	-0.089553	-0.090927	-0.084158	44.3311	-0.088129	-0.976501	0.086183	NaN
1110	1.000000	1.023254	7.37591e+06	-55639.1	1055.82	-29741	0.000000	0.000000	7.023167	0.013932	NaN	0.000000	0.001535	0.001694	28.0833	0.065260	0.001914	34.097	-46.7697	-164.853	-0.056953	1.021960	-0.079509	-0.080803	0.013932	34.097	-0.079815	-0.612443	-0.022748	NaN
1110	1.000000	1.033223	7.37591e+06	-55639.1	1055.82	-29741	0.000000	0.000000	7.033135	-0.037533	NaN	0.000000	0.001571	0.001788	28.0834	0.089843	0.002096	42.8634	89.6355	9.097705	-0.087173	1.031860	-0.069539	-0.070902	-0.037533	42.8634	-0.068883	-0.318302	0.117916	NaN
1110	1.000000	1.043295	7.37591e+06	-55639.1	1055.82	-29741	0.000000	0.000000	7.043208	-0.001372	NaN	0.000000	0.001603	0.001692	28.0836	0.065100	0.001901	34.2526	138.012	-166.001	0.087117	1.041931	-0.059467	-0.060832	-0.001372	34.2526	-0.059437	-0.173512	0.007909	NaN
1110	1.000000	1.053232	7.37591e+06	-55639.1	1055.82	-29741	0.000000	0.000000	7.053146	0.003316	NaN	0.000000	0.001605	0.001710	28.0828	0.047490	0.002078	22.8544	-69.7641	14.0455	0.016696	1.051879	-0.049530	-0.050884	0.003316	22.8544	-0.049639	-0.088984	-0.037263	NaN
1110	1.000000	1.063275	7.37591e+06	-55639.1	1055.82	-29741	0.000000	0.000000	7.063186	-0.040996	NaN	0.000000	0.001527	0.001703	28.0833	0.036194	0.002060	17.5703	-178.672	-162.923	0.025909	1.061908	-0.039488	-0.040855	-0.040996	17.5703	-0.037738	-0.038635	1.061104	NaN
1110	1.000000	1.073244	7.37591e+06	-55639.1	1055.82	-29741	0.000000	0.000000	7.073158	0.020338	NaN	0.000000	0.001580	0.001694	28.0831	0.059718	0.001975	30.233	12.9564	15.512	0.021337	1.071897	-0.029519	-0.030866	0.020338	30.233	-0.030023	-0.023047	-0.882445	NaN
1110	1.000000	1.083251	7.37591e+06	-55639.1	1055.82	-29741	0.000000	0.000000	7.083165	0.015491	NaN	0.000000	0.001592	0.001736	28.0833	0.067666	0.002051	32.9904	52.5661	-165.811	-0.149812	1.082005	-0.019512	-0.020758	0.015491	32.9904	-0.019864	-0.012461	-1.243159	NaN
1110	1.000000	1.093264	7.37591e+06	-55639.1	1055.82	-29741	0.000000	0.000000	7.093175	-0.043839	NaN	0.000000	0.001598	0.001773	28.0831	0.134627	0.001908	70.5639	161.463	15.6083	-0.017661	1.091929	-0.009499	-0.010833	-0.043839	70.5639	-0.009033	-0.005832	7.516962	NaN
1110	1.000000	1.103251	7.37591e+06	-55639.1	1055.82	-29741	0.000000	0.000000	7.103192	0.675560	NaN	0.000000	0.001640	0.001706	28.0832	1.195904	0.001834	651.971	4.230694	-165.801	0.136784	1.101883	0.000488	-0.000880	0.675560	651.971	-0.000289	-0.000215	-3146.48	NaN
1110	2.000000	1.111444	7.37591e+06	-55639.1	1055.82	-29741	0.000000	0.000000	7.111687	8.026532	NaN	0.000000	0.001595	0.001757	28.0822	8.966310	0.001629	5503.48	11.2171	3.154670	8.453924	1.111015	0.008681	0.008252	8.026532	5503.48	0.007587	0.006621	1212.26	61793.8
1110	2.000000	1.113946	7.37591e+06	-55639.1	1055.82	-29741	0.000000	0.000000	7.114333	11.5194	NaN	0.000000	0.001625	0.001767	28.082	12.3009	0.001856	6627.91	6.911345	-174.12	12.1241	1.113523	0.011184	0.010761	11.5194	6627.91	0.009880	0.009049	1273.04	63658.4
1110	2.000000	1.116415	7.37591e+06	-55639.1	1055.82	-29741	0.000000	0.000000	7.116951	15.1417	NaN	0.000000	0.001601	0.001732	28.0818	14.223	0.001709	8322.56	0.356501	9.412385	14.4782	1.116067	0.013653	0.013305	15.1417	8322.56	0.012288	0.011837	1279.19	69889.2
1110	2.000000	1.118840	7.37591e+06	-55639.1	1055.82	-29741	0.000000	0.000000	7.119594	20.4334	NaN	0.000000	0.001587	0.001722	28.0818	17.0437	0.001810	9414.25	6.743303	-177.192	20.2872	1.118530	0.016078	0.015767	20.4334	9414.25	0.014450	0.014559	1403.5	71284.4
1110	2.000000	1.121325	7.37591e+06	-55639.1	1055.82	-29741	0.000000	0.000000	7.122186	23.0253	NaN	0.000000	0.001609	0.001755	28.0821	19.4758	0.001899	10257.4	5.607013	3.452434	21.7241	1.121014	0.018563	0.018252	23.0253	10257.4	0.016879	0.017873	1288.25	70098.1
1110	2.000000	1.123828	7.37591e+06	-55639.1	1055.82	-29741	0.000000	0.000000	7.124922	28.7077	NaN	0.000000	0.001596	0.001733	28.0819	21.8087	0.001907	11435.3	5.523916	-176.602	28.2245	1.123563	0.021065	0.020801	28.7077	11435.3	0.019182	0.021274	1349.44	71630.4
1110	2.000000	1.126350	7.37591e+06	-55639.1	1055.82	-29741	0.000000	0.000000	7.127620	32.9675	NaN	0.000000	0.001638	0.001736	28.0817	23.4642	0.001747	13434.6	5.939848	0.706505	31.6275	1.126009	0.023587	0.023246	32.9675	13434.6	0.021747	0.025362	1299.86	77073.4
1110	2.000000	1.128797	7.37591e+06	-55639.1	1055.82	-29741	0.000000	0.000000	7.130436	41.9563	NaN	0.000000	0.001594	0.001748	28.0819	26.1302	0.001780	14681.1	3.500838	-178.885	40.8929	1.128514	0.026034	0.025751	41.9563	14681.1	0.023891	0.029028	1445.35	78726.2
1110	2.000000	1.131308	7.37591e+06	-55639.1	1055.82	-29741	0.000000	0.000000	7.133272	49.839	NaN	0.000000	0.001641	0.001689	28.0819	28.8519	0.001735	16628.8	3.493664	0.475980	47.2988	1.130943	0.028546	0.028181	49.839	16628.8	0.026298	0.033419	1491.32	83106.6
1110	2.000000	1.133790	7.37591e+06	-55639.1	1055.82	-29741	0.000000	0.000000	7.136046	56.9397	NaN	0.000000	0.001624	0.001743	28.0819	31.4723	0.001761	17872.7	5.155511	178.669	55.729	1.133557	0.031028	0.030795	56.9397	17872.7	0.028638	0.037969	1499.64	83801.2
1110	2.000000	1.136389	7.37591e+06	-55639.1	1055.82	-29741	0.000000	0.000000	7.138860	62.1626	NaN	0.000000	0.001578	0.001661	28.0819	34.1525	0.001884	18129.8	8.634119	-4.471955	63.5915	1.135939	0.033626	0.033177	62.1626	18129.8	0.031055	0.042959	1447.04	79917.5
1110	2.000000	1.138792	7.37591e+06	-55639.1	1055.82	-29741	0.000000	0.000000	7.141478	67.4189	NaN	0.000000	0.001573	0.001706	28.082	35.6309	0.001768	20149	3.962857	178.757	66.1692	1.138474	0.036029	0.035712	67.4189	20149	0.033519	0.048355	1394.26	83715.9
1110	2.000000	1.141279	7.37591e+06	-55639.1	1055.82	-29741	0.000000	0.000000	7.144385	77.6173	NaN	0.000000	0.001613	0.001709	28.082	38.5071	0.001813	21240.1	6.620514	-4.449774	74.9301	1.140928	0.038516	0.038165	77.6173	21240.1	0.035776	0.053568	1448.96	83845.3
1110	2.000000	1.143766	7.37591e+06	-55639.1	1055.82	-29741	0.000000	0.000000	7.147213	85.8969	NaN	0.000000	0.001625	0.001744	28.0821	40.8271	0.001836	22236.8	4.761751	177.295	85.3647	1.143537	0.041003	0.040774	85.8969	22236.8	0.038106	0.059225	1450.34	83481.8
1110	2.000000	1.146297	7.37591e+06	-55639.1	1055.82	-29741	0.000000	0.000000	7.150325	100.026	NaN	0.000000	0.001612	0.001770	28.0832	41.4848	0.001727	24019.9	7.084216	-4.975586	97.9741	1.145857	0.043534	0.043095	100.026	24019.9	0.040411	0.065094	1536.64	86014.7
1110	2.000000	1.148798	7.37591e+06	-55639.1	1055.82	-29741	0.000000	0.000000	7.152997	104.175	NaN	0.000000	0.001612	0.001760	28.0831	43.8115	0.001739	25197.7	7.945621	172.531	104.305	1.148518	0.046035	0.045755	104.175	25197.7	0.042935	0.071832	1450.25	85896.1
1110	2.000000	1.151323	7.37591e+06	-55639.1	1055.82	-29741	0.000000	0.000000	7.155950	114.591	NaN	0.000000	0.001602	0.001737	28.083	46.8646	0.001690	27730.3	2.003695	-1.998836	115.062	1.150914	0.048560	0.048151	114.591	27730.3	0.045461	0.078901	1452.33	90195.5
1110	2.000000	1.153714	7.37591e+06	-55639.1	1055.82	-29741	0.000000	0.000000	7.158700	123.333	NaN	0.000000	0.001588	0.001742	28.0828	51.3003	0.001856	27637.5	4.104100	175.466	118.791	1.153492	0.050951	0.050730	123.333	27637.5	0.047604	0.085151	1448.39	86532
1110	2.000000	1.156303	7.37591e+06	-55639.1	1055.82	-29741	0.000000	0.000000	7.161697	133.24	NaN	0.000000	0.001601	0.001709	28.0832	52.7053	0.001836	28706.5	4.727087	-5.434792	130.16	1.155967	0.053540	0.053204	133.24	28706.5	0.050059	0.092596	1438.94	86190.1
1110	2.000000	1.158870	7.37591e+06	-55639.1	1055.82	-29741	0.000000	0.000000	7.164648	142.559	NaN	0.000000	0.001612	0.001706	28.0832	54.463	0.001740	31299.3	8.983631	170.269	146.597	1.158397	0.056107	0.055635	142.559	31299.3	0.052691	0.100912	1412.7	90019.3
1110	2.000000	1.161269	7.37591e+06	-55639.1	1055.82	-29741	0.000000	0.000000	7.167444	152.224	NaN	0.000000	0.001612	0.001737	28.0832	57.0643	0.001796	31768.8	3.337091	-4.663264	151.23	1.160933	0.058506	0.058171	152.224	31768.8	0.054912	0.108199	1406.89	88239.1
1110	2.000000	1.163728	7.37591e+06	-55639.1	1055.82	-29741	0.000000	0.000000	7.170422	164.819	NaN	0.000000	0.001592	0.001749	28.0831	60.0819	0.001962	30624.2	5.318013	174.419	163.071	1.163390	0.060966	0.060628	164.819	30624.2	0.056929	0.115028	1432.86	82496.8
1110	2.000000	1.166297	7.37591e+06	-55639.1	1055.82	-29741	0.000000	0.000000	7.173480	176.714	NaN	0.000000	0.001591	0.001749	28.0832	61.983	0.001895	32710.5	8.511700	-9.192169	175.151	1.165958	0.063534	0.063196	176.714	32710.5	0.059483	0.123959	1425.58	84883
1110	2.000000	1.168724	7.37591e+06	-55639.1	1055.82	-29741	0.000000	0.000000	7.176312	186.57	NaN	0.000000	0.001572	0.001737	28.0834	62.1421	0.001792	34669.3	-0.599933	178.699	184.196	1.168544	0.065961	0.065781	186.57	34669.3	0.061925	0.132801	1404.88	86919.7
1110	2.000000	1.171220	7.37591e+06	-55639.1	1055.82	-29741	0.000000	0.000000	7.179375	200.345	NaN	0.000000	0.001605	0.001726	28.083	65.8498	0.001833	35919	6.316438	-8.552161	197.136	1.170876	0.068458	0.068114	200.345	35919	0.064274	0.141581	1415.06	87215.8
1110	2.000000	1.173759	7.37591e+06	-55639.1	1055.82	-29741	0.000000	0.000000	7.182713	219.77	NaN	0.000000	0.001579	0.001735	28.083	67.468	0.001755	38437.3	-0.201086	177.763	219.155	1.173452	0.070996	0.070689	219.77	38437.3	0.066708	0.150955	1455.87	90386.3
1110	2.000000	1.176232	7.37591e+06	-55639.1	1055.82	-29741	0.000000	0.000000	7.185747	233.382	NaN	0.000000	0.001565	0.001742	28.0831	69.3714	0.001909	36336.7	2.727653	-3.678817	230.632	1.175934	0.073470	0.073172	233.382	36336.7	0.068653	0.158651	1471.04	83348.5
1110	2.000000	1.178721	7.37591e+06	-55639.1	1055.82	-29741	0.000000	0.000000	7.188624	242.826	NaN	0.000000	0.001543	0.001744	28.0821	72.2401	0.001792	40318.7	3.447250	173.549	241.607	1.178476	0.075959	0.075714	242.826	40318.7	0.071442	0.170002	1428.37	89341.5
1110	2.000000	1.181284	7.37591e+06	-55639.1	1055.82	-29741	0.000000	0.000000	7.191982	262.177	NaN	0.000000	0.001555	0.001766	28.0819	74.6252	0.001707	43713	4.578873	-7.717429	262.284	1.180800	0.078521	0.078037	262.177	43713	0.074023	0.180836	1449.81	93916.5
1110	2.000000	1.183782	7.37591e+06	-55639.1	1055.82	-29741	0.000000	0.000000	7.195157	278.628	NaN	0.000000	0.001533	0.001773	28.082	78.5289	0.001764	44522.1	6.827965	169.995	279.604	1.183375	0.081019	0.080613	278.628	44522.1	0.076326	0.190768	1460.56	93131.3
1110	2.000000	1.186171	7.37591e+06	-55639.1	1055.82	-29741	0.000000	0.000000	7.198487	301.494	NaN	0.000000	0.001506	0.001756	28.0822	79.6298	0.001694	46995.5	5.741412	-9.437190	293.427	1.185811	0.083408	0.083049	301.494	46995.5	0.078597	0.200806	1501.42	95816.6
1110	2.000000	1.188740	7.37591e+06	-55639.1	1055.82	-29741	0.000000	0.000000	7.201812	319.875	NaN	0.000000	0.001527	0.001751	28.082	81.7135	0.001723	47429.3	4.981189	171.516	318.616	1.188332	0.085977	0.085569	319.875	47429.3	0.080919	0.211318	1513.71	94265.3
1110	2.000000	1.191194	7.37591e+06	-55639.1	1055.82	-29741	0.000000	0.000000	7.205209	342.774	NaN	0.000000	0.001519	0.001757	28.0824	83.6343	0.001801	46439.3	2.389491	-6.041765	337.485	1.190854	0.088432	0.088092	342.774	46439.3	0.082896	0.220467	1554.76	90362.2
1110	2.000000	1.193726	7.37591e+06	-55639.1	1055.82	-29741	0.000000	0.000000	7.208382	358.362	NaN	0.000000	0.001527	0.001748	28.0824	87.9929	0.001812	48554.5	10.0243	165.809	357.92	1.193341	0.090963	0.090579	358.362	48554.5	0.085428	0.232447	1541.69	92011.2
1110	2.000000	1.196260	7.37591e+06	-55639.1	1055.82	-29741	0.000000	0.000000	7.211680	376.939	NaN	0.000000	0.001504	0.001766	28.0824	89.0541	0.001885	47254.6	4.527121	-8.029142	374.463	1.195913	0.093498	0.093151	376.939	47254.6	0.087515	0.242545	1554.1	87664.1
1110	2.000000	1.198706	7.37591e+06	-55639.1	1055.82	-29741	0.000000	0.000000	7.215121	401.133	NaN	0.000000	0.001525	0.001751	28.0821	90.8839	0.001722	52777.9	3.013807	172.173	399.225	1.198334	0.095944	0.095572	401.133	52777.9	0.090243	0.256047	1566.64	95293.9
1110	2.000000	1.201077	7.37591e+06	-55639.1	1055.82	-29741	0.000000	0.000000	7.218149	417.105	NaN	0.000000	0.001514	0.001731	28.0819	94.408	0.001811	52133.2	3.437672	-8.064406	407.847	1.200764	0.098314	0.098002	417.105	52133.2	0.092314	0.266521	1565	92261.7
1110	2.000000	1.203679	7.37591e+06	-55639.1	1055.82	-29741	0.000000	0.000000	7.221480	434.838	NaN	0.000000	0.001544	0.001777	28.082	96.857	0.001732	55927.8	3.961043	171.033	430.537	1.203353	0.100916	0.100591	434.838	55927.8	0.095085	0.280847	1548.31	96419.8
1110	2.000000	1.206263	7.37591e+06	-55639.1	1055.82	-29741	0.000000	0.000000	7.225337	465.772	NaN	0.000000	0.001536	0.001753	28.082	98.7396	0.001785	55321.2	6.513403	-10.4532	463.852	1.205812	0.103500	0.103050	465.772	55321.2	0.097186	0.291941	1595.43	93544.3
1110	2.000000	1.208751	7.37591e+06	-55639.1	1055.82	-29741	0.000000	0.000000	7.228688	486.736	NaN	0.000000	0.001539	0.001752	28.0821	101.252	0.001675	60446.7	6.354457	168.168	487.931	1.208326	0.105989	0.105563	486.736	60446.7	0.099950	0.306844	1586.26	99698
1110	2.000000	1.209257	7.37591e+06	-55639.1	1055.82	-29741	0.000000	0.000000	7.229176	486.309	NaN	0.000000	0.001553	0.001725	28.0824	102.232	0.001828	55934.6	6.608496	-11.8551	485.403	1.208963	0.106495	0.106200	486.309	55934.6	0.099974	0.306977	1584.19	92236