File: remote_trans/data/nanoindenter/0828-1/data/Data_2025-08-06,11h17m57s/2025-07-22_16-23-58_1_343.txt
2025-07-22, 16:23:58, 1
Index	Phase	Displacement	Time	Pos X	Pos Y	Pos Z	Rot A	Rot B	Piezo Z	Force A	Force B	Gripper	Voltage A	Voltage B	Temperature	Amplitude force	Amplitude pos	Stiffness	Phase shift	Phase excitation	Force A raw	Displacement raw	HMax	HMax raw	Real Force	Real Stiffness	Contact Depth	Area	Hardness	Reduced Mod.
[#]	[#]	[um]	[s]	[um]	[um]	[um]	[m°]	[m°]	[um]	[uN]	[uN]	[V]	[V]	[V]	[°C]	[uN]	[um]	[N/m]	[°]	[°]	[uN]	[um]	[um]	[um]	[uN]	[N/m]	[um]	[um^2]	[MPa]	[MPa]
343	1.000000	0.002539	7.36842e+06	-55789.1	955.818	-29741	0.000000	0.000000	6.002805	-0.087149	NaN	0.000000	0.001627	0.001705	28.0806	0.087786	0.000850	103.326	143.23	-165.986	-0.151973	0.001261	-1.114740	-1.116018	-0.087149	103.326	-1.114107	-7.751869E+14	1.124234E-16	NaN
343	1.000000	0.012577	7.36842e+06	-55789.1	955.819	-29741	0.000000	0.000000	6.012845	-0.044334	NaN	0.000000	0.001598	0.001713	28.0805	0.035932	0.001361	26.4085	-14.2763	13.3171	-0.039403	0.011139	-1.104701	-1.106139	-0.044334	26.4085	-1.103442	-5.575358E+14	7.951725E-17	NaN
343	1.000000	0.022459	7.36842e+06	-55789.1	955.817	-29741	0.000000	0.000000	6.022731	0.031341	NaN	0.000000	0.001616	0.001689	28.0804	0.133611	0.001686	79.2508	45.7798	-168.094	-0.009152	0.021167	-1.094819	-1.096111	0.031341	79.2508	-1.095116	-4.310191E+14	-7.271461E-17	NaN
343	1.000000	0.032460	7.36842e+06	-55789.1	955.819	-29741	0.000000	0.000000	6.032730	-0.010088	NaN	0.000000	0.001618	0.001736	28.0807	0.059721	0.001894	31.5394	-4.835349	16.8848	0.078587	0.031138	-1.084819	-1.086140	-0.010088	31.5394	-1.084579	-3.111810E+14	3.241851E-17	NaN
343	1.000000	0.042480	7.36842e+06	-55789.1	955.818	-29741	0.000000	0.000000	6.042748	-0.042647	NaN	0.000000	0.001574	0.001653	28.0808	0.044699	0.001864	23.9799	2.389894	-166.685	-0.140530	0.041146	-1.074799	-1.076133	-0.042647	23.9799	-1.073465	-2.206666E+14	1.932654E-16	NaN
343	1.000000	0.052499	7.36842e+06	-55789.1	955.819	-29741	0.000000	0.000000	6.052769	0.005342	NaN	0.000000	0.001578	0.001696	28.0805	0.064690	0.002044	31.645	-58.1168	12.0397	-0.033883	0.051035	-1.064780	-1.066244	0.005342	31.645	-1.064907	-1.693379E+14	-3.154671E-17	NaN
343	1.000000	0.062510	7.36842e+06	-55789.1	955.817	-29741	0.000000	0.000000	6.062781	0.016926	NaN	0.000000	0.001570	0.001703	28.0803	0.026320	0.002004	13.1346	100.496	-165.509	0.018806	0.061201	-1.054768	-1.056078	0.016926	13.1346	-1.055735	-1.274969E+14	-1.327549E-16	NaN
343	1.000000	0.072508	7.36842e+06	-55789.1	955.818	-29741	0.000000	0.000000	6.072777	-0.029009	NaN	0.000000	0.001587	0.001694	28.0803	0.080089	0.002065	38.7818	-72.9297	13.5463	0.044653	0.071135	-1.044770	-1.046143	-0.029009	38.7818	-1.044209	-8.924039E+13	3.250678E-16	NaN
343	1.000000	0.082466	7.36842e+06	-55789.1	955.818	-29741	0.000000	0.000000	6.082734	-0.053098	NaN	0.000000	0.001576	0.001683	28.0804	0.052911	0.002023	26.1575	-24.4155	-165.27	-0.048438	0.081198	-1.034813	-1.036081	-0.053098	26.1575	-1.033290	-6.364092E+13	8.343315E-16	NaN
343	1.000000	0.092510	7.36842e+06	-55789.1	955.818	-29741	0.000000	0.000000	6.092779	-0.008665	NaN	0.000000	0.001556	0.001712	28.0804	0.138830	0.002047	67.8371	100.422	14.9384	0.110026	0.091159	-1.024769	-1.026119	-0.008665	67.8371	-1.024673	-4.873314E+13	1.778021E-16	NaN
343	1.000000	0.102511	7.36842e+06	-55789.1	955.817	-29741	0.000000	0.000000	6.102781	-0.008150	NaN	0.000000	0.001565	0.001702	28.0815	0.086136	0.002133	40.386	117.929	-165.637	-0.013129	0.101178	-1.014767	-1.016100	-0.008150	40.386	-1.014616	-3.568664E+13	2.283663E-16	NaN
343	1.000000	0.112518	7.36842e+06	-55789.1	955.819	-29741	0.000000	0.000000	6.112789	0.031238	NaN	0.000000	0.001503	0.001705	28.0819	0.033468	0.002050	16.323	56.343	15.7948	0.004813	0.111187	-1.004761	-1.006092	0.031238	16.323	-1.006196	-2.749048E+13	-1.136307E-15	NaN
343	1.000000	0.122511	7.36842e+06	-55789.1	955.818	-29741	0.000000	0.000000	6.122782	0.035967	NaN	0.000000	0.001508	0.001676	28.0813	0.017799	0.002057	8.651694	155.963	-167.194	-0.005339	0.121199	-0.994768	-0.996080	0.035967	8.651694	-0.997886	-2.124722E+13	-1.692787E-15	NaN
343	1.000000	0.132469	7.36842e+06	-55789.1	955.818	-29741	0.000000	0.000000	6.132736	-0.064551	NaN	0.000000	0.001482	0.001652	28.0816	0.024499	0.001950	12.5614	-105.233	16.2748	-0.057326	0.131120	-0.984810	-0.986159	-0.064551	12.5614	-0.980956	-1.256859E+13	5.135870E-15	NaN
343	1.000000	0.142515	7.36842e+06	-55789.1	955.818	-29741	0.000000	0.000000	6.142783	-0.053070	NaN	0.000000	0.001480	0.001682	28.0814	0.106924	0.001893	56.4784	149.822	-163.944	-0.043833	0.141210	-0.974763	-0.976068	-0.053070	56.4784	-0.974059	-1.014747E+13	5.229835E-15	NaN
343	1.000000	0.152519	7.36842e+06	-55789.1	955.818	-29741	0.000000	0.000000	6.152785	-0.092763	NaN	0.000000	0.001470	0.001698	28.0818	0.066550	0.001985	33.531	128.696	14.4377	0.002363	0.151143	-0.964760	-0.966136	-0.092763	33.531	-0.962685	-7.129604E+12	1.301098E-14	NaN
343	1.000000	0.162545	7.36842e+06	-55789.1	955.819	-29741	0.000000	0.000000	6.162813	-0.040224	NaN	0.000000	0.001515	0.001678	28.0815	0.113685	0.001882	60.4014	-125.182	-165.77	0.066426	0.161214	-0.954734	-0.956064	-0.040224	60.4014	-0.954234	-5.484389E+12	7.334218E-15	NaN
343	1.000000	0.172523	7.36842e+06	-55789.1	955.818	-29741	0.000000	0.000000	6.172791	-0.057680	NaN	0.000000	0.001523	0.001682	28.0817	0.092287	0.002024	45.5993	110.106	14.5248	0.010716	0.171190	-0.944755	-0.946089	-0.057680	45.5993	-0.943807	-3.967260E+12	1.453890E-14	NaN
343	1.000000	0.182547	7.36842e+06	-55789.1	955.819	-29741	0.000000	0.000000	6.182818	0.029569	NaN	0.000000	0.001515	0.001694	28.0816	0.024709	0.001949	12.6799	-174.72	-167.361	-0.084845	0.181199	-0.934732	-0.936080	0.029569	12.6799	-0.936481	-3.159753E+12	-9.358024E-15	NaN
343	1.000000	0.192525	7.36842e+06	-55789.1	955.819	-29741	0.000000	0.000000	6.192795	-0.014013	NaN	0.000000	0.001537	0.001703	28.0816	0.051328	0.002046	25.0809	-26.2618	12.0221	0.080873	0.191096	-0.924753	-0.926182	-0.014013	25.0809	-0.924334	-2.166307E+12	6.468496E-15	NaN
343	1.000000	0.202545	7.36842e+06	-55789.1	955.819	-29741	0.000000	0.000000	6.202815	-0.004239	NaN	0.000000	0.001628	0.001678	28.0814	0.140743	0.002114	66.5724	77.1924	-167.749	0.102460	0.201242	-0.914733	-0.916037	-0.004239	66.5724	-0.914686	-1.604892E+12	2.641017E-15	NaN
343	1.000000	0.212579	7.36842e+06	-55789.1	955.817	-29741	0.000000	0.000000	6.212847	-0.047589	NaN	0.000000	0.001570	0.001703	28.0814	0.047035	0.002001	23.509	-95.1062	13.8026	-0.012096	0.211209	-0.904699	-0.906069	-0.047589	23.509	-0.903181	-1.122139E+12	4.240945E-14	NaN
343	1.000000	0.222520	7.36842e+06	-55789.1	955.818	-29741	0.000000	0.000000	6.222787	-0.057006	NaN	0.000000	0.001552	0.001690	28.0815	0.090416	0.002068	43.7138	2.589058	-164.456	-0.067175	0.221233	-0.894759	-0.896045	-0.057006	43.7138	-0.893781	-8.375683E+11	6.806127E-14	NaN
343	1.000000	0.232559	7.36842e+06	-55789.1	955.818	-29741	0.000000	0.000000	6.232827	-0.059765	NaN	0.000000	0.001591	0.001660	28.0804	0.051056	0.001834	27.8394	-3.852359	16.6709	-0.044579	0.231142	-0.884720	-0.886136	-0.059765	27.8394	-0.883109	-6.008364E+11	9.947017E-14	NaN
343	1.000000	0.242544	7.36842e+06	-55789.1	955.819	-29741	0.000000	0.000000	6.242812	-0.067029	NaN	0.000000	0.001598	0.001702	28.0803	0.090180	0.002002	45.0539	6.006832	-165.721	-0.077674	0.241257	-0.874734	-0.876022	-0.067029	45.0539	-0.873618	-4.470878E+11	1.499244E-13	NaN
343	1.000000	0.252579	7.36842e+06	-55789.1	955.818	-29741	0.000000	0.000000	6.252847	-0.040793	NaN	0.000000	0.001631	0.001715	28.0801	0.016974	0.001945	8.725932	-158.453	10.1756	-0.005314	0.251238	-0.864700	-0.866040	-0.040793	8.725932	-0.861194	-3.035831E+11	1.343705E-13	NaN
343	1.000000	0.262558	7.36842e+06	-55789.1	955.819	-29741	0.000000	0.000000	6.262828	-0.004817	NaN	0.000000	0.001669	0.001740	28.0805	0.087146	0.002149	40.5501	-73.1602	-168.035	-0.004265	0.261274	-0.854720	-0.856005	-0.004817	40.5501	-0.854631	-2.474238E+11	1.946679E-14	NaN
343	1.000000	0.272568	7.36842e+06	-55789.1	955.819	-29741	0.000000	0.000000	6.272837	-0.038440	NaN	0.000000	0.001621	0.001738	28.0801	0.054071	0.002089	25.8843	-162.632	14.8183	-0.015890	0.271191	-0.844710	-0.846087	-0.038440	25.8843	-0.843596	-1.753914E+11	2.191697E-13	NaN
343	1.000000	0.282595	7.36842e+06	-55789.1	955.817	-29741	0.000000	0.000000	6.282863	-0.041471	NaN	0.000000	0.001653	0.001712	28.0804	0.107891	0.001910	56.4873	90.3992	-167.935	-0.034277	0.281277	-0.834684	-0.836001	-0.041471	56.4873	-0.834133	-1.305570E+11	3.176466E-13	NaN
343	1.000000	0.292582	7.36842e+06	-55789.1	955.818	-29741	0.000000	0.000000	6.292850	-0.065787	NaN	0.000000	0.001630	0.001692	28.08	0.106834	0.001923	55.5432	-73.1697	14.209	-0.034261	0.291203	-0.824696	-0.826075	-0.065787	55.5432	-0.823808	-9.458932E+10	6.955058E-13	NaN
343	1.000000	0.302576	7.36842e+06	-55789.1	955.819	-29741	0.000000	0.000000	6.302844	-0.059183	NaN	0.000000	0.001670	0.001693	28.0804	0.115517	0.002062	56.0351	171.07	-165.595	-0.071511	0.301274	-0.814702	-0.816004	-0.059183	56.0351	-0.813910	-6.944095E+10	8.522847E-13	NaN
343	1.000000	0.312569	7.36842e+06	-55789.1	955.818	-29741	0.000000	0.000000	6.312837	-0.070266	NaN	0.000000	0.001648	0.001693	28.0802	0.077772	0.002105	36.9522	62.4128	11.3953	-0.036430	0.311270	-0.804709	-0.806009	-0.070266	36.9522	-0.803283	-4.982225E+10	1.410330E-12	NaN
343	1.000000	0.322605	7.36842e+06	-55789.1	955.818	-29741	0.000000	0.000000	6.322876	0.033572	NaN	0.000000	0.001700	0.001682	28.0804	0.102820	0.001878	54.7457	21.0548	-165.01	-0.018635	0.321258	-0.794674	-0.796020	0.033572	54.7457	-0.795134	-3.861890E+10	-8.693213E-13	NaN
343	1.000000	0.332598	7.36842e+06	-55789.1	955.818	-29741	0.000000	0.000000	6.332865	-0.065241	NaN	0.000000	0.001733	0.001713	28.0803	0.072096	0.002027	35.5745	60.8397	17.2366	-0.075951	0.331192	-0.784681	-0.786086	-0.065241	35.5745	-0.783305	-2.667736E+10	2.445559E-12	NaN
343	1.000000	0.342598	7.36842e+06	-55789.1	955.818	-29741	0.000000	0.000000	6.342868	-0.005384	NaN	0.000000	0.001693	0.001696	28.0805	0.062190	0.002051	30.3145	70.2461	-166.929	-0.008533	0.341349	-0.774680	-0.775930	-0.005384	30.3145	-0.774547	-2.028259E+10	2.654309E-13	NaN
343	1.000000	0.352625	7.36842e+06	-55789.1	955.818	-29741	0.000000	0.000000	6.352897	0.049784	NaN	0.000000	0.001703	0.001683	28.0803	0.028716	0.002035	14.11	-164.828	13.309	-0.027559	0.351243	-0.764653	-0.766036	0.049784	14.11	-0.767299	-1.616530E+10	-3.079667E-12	NaN
343	1.000000	0.362624	7.36842e+06	-55789.1	955.818	-29741	0.000000	0.000000	6.362895	0.012935	NaN	0.000000	0.001721	0.001699	28.0803	0.121360	0.001942	62.4881	-157.609	-165.484	-0.036932	0.361303	-0.754654	-0.755975	0.012935	62.4881	-0.754809	-1.093147E+10	-1.183246E-12	NaN
343	1.000000	0.372618	7.36842e+06	-55789.1	955.818	-29741	0.000000	0.000000	6.372889	0.023628	NaN	0.000000	0.001722	0.001653	28.0815	0.060587	0.002009	30.1622	-33.3299	16.58	-0.003532	0.371256	-0.744661	-0.746022	0.023628	30.1622	-0.745248	-8.100836E+9	-2.916688E-12	NaN
343	1.000000	0.382592	7.36842e+06	-55789.1	955.819	-29741	0.000000	0.000000	6.382862	-0.007347	NaN	0.000000	0.001696	0.001699	28.0814	0.074991	0.001966	38.1526	117.621	-166.545	-0.022327	0.381293	-0.734687	-0.735985	-0.007347	38.1526	-0.734542	-5.790362E+9	1.268751E-12	NaN
343	1.000000	0.392634	7.36842e+06	-55789.1	955.818	-29741	0.000000	0.000000	6.392905	0.010379	NaN	0.000000	0.001709	0.001689	28.0813	0.045050	0.002026	22.2373	-45.5512	15.8066	-0.104147	0.391291	-0.724644	-0.725987	0.010379	22.2373	-0.724994	-4.291134E+9	-2.418732E-12	NaN
343	1.000000	0.402647	7.36842e+06	-55789.1	955.818	-29741	0.000000	0.000000	6.402918	0.013883	NaN	0.000000	0.001717	0.001717	28.0815	0.088030	0.002045	43.0487	9.539029	-167.428	0.029750	0.401269	-0.714631	-0.716009	0.013883	43.0487	-0.714873	-3.122755E+9	-4.445890E-12	NaN
343	1.000000	0.412625	7.36842e+06	-55789.1	955.818	-29741	0.000000	0.000000	6.412895	-0.005676	NaN	0.000000	0.001703	0.001668	28.0816	0.083449	0.001968	42.4053	27.4104	12.0209	-0.003079	0.411243	-0.704653	-0.706036	-0.005676	42.4053	-0.704553	-2.257844E+9	2.513764E-12	NaN
343	1.000000	0.422608	7.36842e+06	-55789.1	955.818	-29741	0.000000	0.000000	6.422878	0.001990	NaN	0.000000	0.001707	0.001661	28.0813	0.015888	0.002065	7.693769	41.652	-165.285	-0.006794	0.421355	-0.694670	-0.695924	0.001990	7.693769	-0.694864	-1.664887E+9	-1.195155E-12	NaN
343	1.000000	0.432660	7.36842e+06	-55789.1	955.818	-29741	0.000000	0.000000	6.432931	0.025966	NaN	0.000000	0.001684	0.001727	28.0812	0.152706	0.001952	78.241	-149.916	13.6174	-0.056107	0.431269	-0.684618	-0.686010	0.025966	78.241	-0.684867	-1.215515E+9	-2.136199E-11	NaN
343	1.000000	0.442655	7.36842e+06	-55789.1	955.819	-29741	0.000000	0.000000	6.442922	-0.084010	NaN	0.000000	0.001726	0.001697	28.0814	0.078088	0.002042	38.2446	46.7497	-164.255	-0.025021	0.441320	-0.674623	-0.675959	-0.084010	38.2446	-0.672976	-8.358169E+8	1.005119E-10	NaN
343	1.000000	0.452650	7.36842e+06	-55789.1	955.819	-29741	0.000000	0.000000	6.452919	-0.027168	NaN	0.000000	0.001687	0.001705	28.0811	0.044334	0.002010	22.06	-125.714	14.6147	0.027279	0.451264	-0.664628	-0.666015	-0.027168	22.06	-0.663704	-6.240269E+8	4.353652E-11	NaN
343	1.000000	0.462660	7.36842e+06	-55789.1	955.819	-29741	0.000000	0.000000	6.462931	0.021433	NaN	0.000000	0.001617	0.001698	28.0813	0.058486	0.002252	25.9762	-44.5213	-164.591	-0.000247	0.461354	-0.654618	-0.655924	0.021433	25.9762	-0.655237	-4.777630E+8	-4.486042E-11	NaN
343	1.000000	0.472643	7.36842e+06	-55789.1	955.818	-29741	0.000000	0.000000	6.472912	-0.028055	NaN	0.000000	0.001653	0.001679	28.0814	0.041146	0.002094	19.6515	-110.657	11.9329	-0.131035	0.471286	-0.644635	-0.645992	-0.028055	19.6515	-0.643565	-3.305147E+8	8.488233E-11	NaN
343	1.000000	0.482677	7.36842e+06	-55789.1	955.819	-29741	0.000000	0.000000	6.482947	0.002378	NaN	0.000000	0.001637	0.001644	28.0818	0.115155	0.001893	60.8459	-115.48	-170.448	-0.003257	0.481381	-0.634602	-0.635897	0.002378	60.8459	-0.634631	-2.492331E+8	-9.539404E-12	NaN
343	1.000000	0.492688	7.36842e+06	-55789.1	955.817	-29741	0.000000	0.000000	6.492956	-0.036817	NaN	0.000000	0.001591	0.001693	28.0815	0.047886	0.001963	24.3972	5.672717	16.2131	-0.050328	0.491331	-0.624591	-0.625948	-0.036817	24.3972	-0.623459	-1.750541E+8	2.103185E-10	NaN
343	1.000000	0.502629	7.36842e+06	-55789.1	955.818	-29741	0.000000	0.000000	6.502900	0.023185	NaN	0.000000	0.001619	0.001724	28.0815	0.075170	0.002071	36.2978	17.477	-165.356	0.015805	0.501378	-0.614649	-0.615901	0.023185	36.2978	-0.615128	-1.344792E+8	-1.724067E-10	NaN
343	1.000000	0.512663	7.36842e+06	-55789.1	955.818	-29741	0.000000	0.000000	6.512931	-0.028659	NaN	0.000000	0.001625	0.001683	28.0803	0.082372	0.002041	40.3609	13.5882	14.3339	-0.031685	0.511339	-0.604616	-0.605939	-0.028659	40.3609	-0.604083	-9.477330E+7	3.023933E-10	NaN
343	1.000000	0.522658	7.36842e+06	-55789.1	955.818	-29741	0.000000	0.000000	6.522929	0.027621	NaN	0.000000	0.001588	0.001727	28.0805	0.052926	0.002008	26.3528	-66.04	-165.185	0.071628	0.521370	-0.594621	-0.595908	0.027621	26.3528	-0.595407	-7.197568E+7	-3.837580E-10	NaN
343	1.000000	0.532677	7.36842e+06	-55789.1	955.817	-29741	0.000000	0.000000	6.532946	-0.017803	NaN	0.000000	0.001646	0.001677	28.0804	0.023750	0.001993	11.9144	71.3205	15.7957	-0.028928	0.531388	-0.584601	-0.585890	-0.017803	11.9144	-0.583481	-4.928974E+7	3.611938E-10	NaN
343	1.000000	0.542717	7.36842e+06	-55789.1	955.819	-29741	0.000000	0.000000	6.542987	-0.008377	NaN	0.000000	0.001702	0.001675	28.0804	0.074903	0.001987	37.7052	-161.831	-163.372	0.025223	0.541400	-0.574562	-0.575879	-0.008377	37.7052	-0.574395	-3.692702E+7	2.268458E-10	NaN
343	1.000000	0.552704	7.36842e+06	-55789.1	955.818	-29741	0.000000	0.000000	6.552973	-0.028828	NaN	0.000000	0.001697	0.001725	28.0806	0.053888	0.001978	27.2466	7.088528	13.0796	-0.041307	0.551318	-0.564574	-0.565961	-0.028828	27.2466	-0.563781	-2.634297E+7	1.094333E-9	NaN
343	1.000000	0.562675	7.36842e+06	-55789.1	955.818	-29741	0.000000	0.000000	6.562941	-0.090782	NaN	0.000000	0.001648	0.001722	28.0805	0.050680	0.001938	26.1565	-154.412	-166.219	-0.113261	0.561407	-0.554604	-0.555871	-0.090782	26.1565	-0.552001	-1.809929E+7	5.015749E-9	NaN
343	1.000000	0.572697	7.36842e+06	-55789.1	955.819	-29741	0.000000	0.000000	6.572965	-0.052940	NaN	0.000000	0.001681	0.001652	28.0803	0.033599	0.001959	17.1509	86.9252	13.1271	-0.135908	0.571354	-0.544582	-0.545924	-0.052940	17.1509	-0.542267	-1.326748E+7	3.990179E-9	NaN
343	1.000000	0.582704	7.36842e+06	-55789.1	955.818	-29741	0.000000	0.000000	6.582975	0.031427	NaN	0.000000	0.001665	0.001704	28.0804	0.066674	0.001989	33.5236	96.9069	-166.61	0.066121	0.581378	-0.534575	-0.535900	0.031427	33.5236	-0.535278	-1.061327E+7	-2.961130E-9	NaN
343	1.000000	0.592686	7.36842e+06	-55789.1	955.818	-29741	0.000000	0.000000	6.592955	-0.020077	NaN	0.000000	0.001665	0.001746	28.0804	0.050276	0.002049	24.5318	-146.759	14.3991	0.021116	0.591329	-0.524593	-0.525949	-0.020077	24.5318	-0.523979	-7.39465e+06	2.715007E-9	NaN
343	1.000000	0.602737	7.36842e+06	-55789.1	955.818	-29741	0.000000	0.000000	6.603006	-0.028612	NaN	0.000000	0.001672	0.001761	28.0804	0.051083	0.001978	25.8321	5.435594	-164.31	-0.102439	0.601363	-0.514541	-0.515915	-0.028612	25.8321	-0.513711	-5.32215e+06	5.375951E-9	NaN
343	1.000000	0.612710	7.36842e+06	-55789.1	955.818	-29741	0.000000	0.000000	6.612980	0.014261	NaN	0.000000	0.001655	0.001737	28.0801	0.053719	0.001859	28.8931	121.701	15.7003	0.024693	0.611371	-0.504569	-0.505907	0.014261	28.8931	-0.504939	-4.01694e+06	-3.550224E-9	NaN
343	1.000000	0.622734	7.36842e+06	-55789.1	955.818	-29741	0.000000	0.000000	6.623003	-0.017795	NaN	0.000000	0.001676	0.001670	28.0804	0.062950	0.001963	32.0604	17.6313	-163.448	-0.023088	0.621429	-0.494545	-0.495850	-0.017795	32.0604	-0.494128	-2.83833e+06	6.269631E-9	NaN
343	1.000000	0.632728	7.36842e+06	-55789.1	955.819	-29741	0.000000	0.000000	6.632994	-0.080539	NaN	0.000000	0.001691	0.001679	28.0803	0.059992	0.001963	30.5558	-16.5133	15.6076	-0.046094	0.631371	-0.484551	-0.485908	-0.080539	30.5558	-0.482574	-1.95683e+06	4.115790E-8	NaN
343	1.000000	0.642706	7.36842e+06	-55789.1	955.819	-29741	0.000000	0.000000	6.642973	-0.060040	NaN	0.000000	0.001674	0.001674	28.0813	0.041914	0.002079	20.159	-113.052	-166.633	-0.098751	0.641397	-0.474573	-0.475881	-0.060040	20.159	-0.472339	-1.40672e+06	4.268062E-8	NaN
343	1.000000	0.652727	7.36842e+06	-55789.1	955.819	-29741	0.000000	0.000000	6.652996	-0.039075	NaN	0.000000	0.001719	0.001656	28.0816	0.113488	0.002025	56.0321	146.874	11.7946	-0.050334	0.651379	-0.464551	-0.465900	-0.039075	56.0321	-0.464028	-1.07548e+06	3.633268E-8	NaN
343	1.000000	0.662758	7.36842e+06	-55789.1	955.816	-29741	0.000000	0.000000	6.663031	0.059860	NaN	0.000000	0.001710	0.001733	28.0816	0.055713	0.002048	27.2034	-133.553	-165.949	0.056669	0.661428	-0.454520	-0.455850	0.059860	27.2034	-0.456171	-834038	-7.177093E-8	NaN
343	1.000000	0.672743	7.36842e+06	-55789.1	955.818	-29741	0.000000	0.000000	6.673011	-0.031443	NaN	0.000000	0.001667	0.001690	28.0813	0.007120	0.001972	3.611311	-56.6962	12.4101	0.000588	0.671374	-0.444536	-0.445905	-0.031443	3.611311	-0.438006	-462606	6.796842E-8	NaN
343	1.000000	0.682775	7.36842e+06	-55789.1	955.818	-29741	0.000000	0.000000	6.683047	0.035865	NaN	0.000000	0.001672	0.001705	28.0813	0.064675	0.001958	33.0236	-52.9644	-166.127	0.003625	0.681410	-0.434503	-0.435868	0.035865	33.0236	-0.435318	-423884	-8.461004E-8	NaN
343	1.000000	0.692735	7.36842e+06	-55789.1	955.818	-29741	0.000000	0.000000	6.693007	0.047343	NaN	0.000000	0.001685	0.001695	28.0814	0.110843	0.001970	56.2577	142.309	12.5844	-0.099170	0.691347	-0.424544	-0.425932	0.047343	56.2577	-0.425175	-304622	-1.554155E-7	NaN
343	1.000000	0.702773	7.36842e+06	-55789.1	955.819	-29741	0.000000	0.000000	6.703048	0.108430	NaN	0.000000	0.001710	0.001699	28.0815	0.032880	0.001874	17.547	-87.8518	-163.972	0.031049	0.701413	-0.414505	-0.415865	0.108430	17.547	-0.419140	-250159	-4.334432E-7	NaN
343	1.000000	0.712785	7.36842e+06	-55789.1	955.818	-29741	0.000000	0.000000	6.713053	-0.045748	NaN	0.000000	0.001715	0.001687	28.0812	0.040174	0.001964	20.4593	-173.474	13.8357	0.000803	0.711401	-0.404494	-0.405877	-0.045748	20.4593	-0.402817	-146604	3.120548E-7	NaN
343	1.000000	0.722756	7.36842e+06	-55789.1	955.818	-29741	0.000000	0.000000	6.723025	-0.016960	NaN	0.000000	0.001675	0.001687	28.0816	0.110485	0.001968	56.1408	-179.7	-164.347	0.033311	0.721513	-0.394523	-0.395765	-0.016960	56.1408	-0.394296	-110810	1.530568E-7	NaN
343	1.000000	0.732762	7.36842e+06	-55789.1	955.818	-29741	0.000000	0.000000	6.733033	0.007902	NaN	0.000000	0.001725	0.001692	28.0815	0.093053	0.001952	47.6739	91.6602	13.0388	0.037294	0.731389	-0.384516	-0.385889	0.007902	47.6739	-0.384641	-80619.2	-9.801543E-8	NaN
343	1.000000	0.742789	7.36842e+06	-55789.1	955.819	-29741	0.000000	0.000000	6.743060	0.009206	NaN	0.000000	0.001699	0.001704	28.0817	0.019996	0.002125	9.411874	60.825	-165.573	-0.087805	0.741436	-0.374489	-0.375843	0.009206	9.411874	-0.375223	-59057.6	-1.558783E-7	NaN
343	1.000000	0.752784	7.36842e+06	-55789.1	955.818	-29741	0.000000	0.000000	6.753051	-0.081352	NaN	0.000000	0.001707	0.001750	28.081	0.055175	0.002032	27.1572	-93.23	12.4661	-0.055801	0.751419	-0.364495	-0.365860	-0.081352	27.1572	-0.362248	-38399.6	2.118562E-6	NaN
343	1.000000	0.762782	7.36842e+06	-55789.1	955.818	-29741	0.000000	0.000000	6.763053	0.017276	NaN	0.000000	0.001658	0.001707	28.0816	0.018355	0.002071	8.861340	-127.371	-164.689	0.021770	0.761508	-0.354497	-0.355770	0.017276	8.861340	-0.355959	-31144.4	-5.547049E-7	NaN
343	1.000000	0.772772	7.36842e+06	-55789.1	955.819	-29741	0.000000	0.000000	6.773038	-0.104675	NaN	0.000000	0.001598	0.001732	28.0816	0.030009	0.001927	15.5741	-79.9354	13.7782	-0.027680	0.771453	-0.344507	-0.345826	-0.104675	15.5741	-0.339466	-17937.7	5.835510E-6	NaN
343	1.000000	0.782785	7.36842e+06	-55789.1	955.819	-29741	0.000000	0.000000	6.783056	0.013209	NaN	0.000000	0.001610	0.001714	28.0804	0.097899	0.001938	50.5161	131.206	-163.983	-0.045660	0.781465	-0.334493	-0.335813	0.013209	50.5161	-0.334690	-15277.5	-8.646153E-7	NaN
343	1.000000	0.792783	7.36842e+06	-55789.1	955.819	-29741	0.000000	0.000000	6.793051	-0.043064	NaN	0.000000	0.001597	0.001711	28.08	0.155581	0.002027	76.7453	36.3669	16.6024	0.013414	0.791457	-0.324495	-0.325822	-0.043064	76.7453	-0.324074	-10679.4	4.032416E-6	NaN
343	1.000000	0.802791	7.36842e+06	-55789.1	955.818	-29741	0.000000	0.000000	6.803060	-0.021546	NaN	0.000000	0.001604	0.001711	28.0802	0.027193	0.001872	14.5298	85.4783	-167.859	-0.027972	0.801469	-0.314487	-0.315810	-0.021546	14.5298	-0.313375	-7429.47	2.900050E-6	NaN
343	1.000000	0.812811	7.36842e+06	-55789.1	955.819	-29741	0.000000	0.000000	6.813080	-0.030082	NaN	0.000000	0.001645	0.001725	28.0804	0.023569	0.001984	11.8774	122.989	13.1358	-0.038980	0.811449	-0.304467	-0.305830	-0.030082	11.8774	-0.302567	-5138.38	5.854355E-6	NaN
343	1.000000	0.822799	7.36842e+06	-55789.1	955.819	-29741	0.000000	0.000000	6.823067	-0.046094	NaN	0.000000	0.001633	0.001723	28.0803	0.171738	0.002003	85.7451	-100.197	-165.394	-0.017024	0.821475	-0.294480	-0.295804	-0.046094	85.7451	-0.294077	-3839.67	1.200468E-5	NaN
343	1.000000	0.832821	7.36842e+06	-55789.1	955.818	-29741	0.000000	0.000000	6.833089	-0.037895	NaN	0.000000	0.001600	0.001712	28.08	0.218516	0.002009	108.777	-46.8878	14.6996	-0.080153	0.831461	-0.284458	-0.285818	-0.037895	108.777	-0.284196	-2730.12	1.388047E-5	NaN
343	1.000000	0.842824	7.36842e+06	-55789.1	955.818	-29741	0.000000	0.000000	6.843093	-0.024474	NaN	0.000000	0.001616	0.001721	28.0802	0.074421	0.002032	36.6324	128.986	-167.724	-0.013763	0.841434	-0.274455	-0.275844	-0.024474	36.6324	-0.273954	-1912.28	1.279808E-5	NaN
343	1.000000	0.852833	7.36842e+06	-55789.1	955.819	-29741	0.000000	0.000000	6.853101	-0.049494	NaN	0.000000	0.001616	0.001707	28.0803	0.082516	0.002086	39.561	169.694	12.0556	-0.042757	0.851424	-0.264446	-0.265854	-0.049494	39.561	-0.263508	-1326.16	3.732109E-5	NaN
343	1.000000	0.862828	7.36842e+06	-55789.1	955.818	-29741	0.000000	0.000000	6.863095	-0.094730	NaN	0.000000	0.001612	0.001708	28.0802	0.105252	0.002040	51.5972	152.545	-168.599	-0.023691	0.861534	-0.254450	-0.255745	-0.094730	51.5972	-0.253073	-917.121	0.000103	NaN
343	1.000000	0.872827	7.36842e+06	-55789.1	955.818	-29741	0.000000	0.000000	6.873097	-0.007341	NaN	0.000000	0.001633	0.001712	28.0802	0.028204	0.002013	14.0076	-3.086571	15.8247	-0.030445	0.871510	-0.244452	-0.245768	-0.007341	14.0076	-0.244059	-664.989	1.103967E-5	NaN
343	1.000000	0.882827	7.36842e+06	-55789.1	955.818	-29741	0.000000	0.000000	6.883097	0.014616	NaN	0.000000	0.001614	0.001704	28.0803	0.041430	0.002026	20.4458	174.59	-167.167	-0.071519	0.881497	-0.234452	-0.235782	0.014616	20.4458	-0.234988	-479.797	-3.046286E-5	NaN
343	1.000000	0.892818	7.36842e+06	-55789.1	955.817	-29741	0.000000	0.000000	6.893085	-0.067374	NaN	0.000000	0.001610	0.001704	28.0802	0.057803	0.001992	29.0134	1.560312	11.3926	-0.071317	0.891484	-0.224461	-0.225794	-0.067374	29.0134	-0.222719	-306.94	0.000220	NaN
343	1.000000	0.902871	7.36842e+06	-55789.1	955.819	-29741	0.000000	0.000000	6.903140	-0.034423	NaN	0.000000	0.001653	0.001690	28.08	0.028676	0.002021	14.1898	71.8925	-164.291	-0.031386	0.901466	-0.214408	-0.215812	-0.034423	14.1898	-0.212588	-211.183	0.000163	NaN
343	1.000000	0.912847	7.36842e+06	-55789.1	955.819	-29741	0.000000	0.000000	6.913116	-0.014125	NaN	0.000000	0.001629	0.001644	28.0802	0.115993	0.001940	59.7979	-167.914	13.4042	0.034755	0.911475	-0.204432	-0.205803	-0.014125	59.7979	-0.204255	-154.666	9.132342E-5	NaN
343	1.000000	0.922851	7.36842e+06	-55789.1	955.818	-29741	0.000000	0.000000	6.923122	0.020714	NaN	0.000000	0.001607	0.001640	28.0814	0.134451	0.002041	65.8785	69.3024	-170.22	0.005605	0.921519	-0.194427	-0.195759	0.020714	65.8785	-0.194663	-107.552	-0.000193	NaN
343	1.000000	0.932872	7.36842e+06	-55789.1	955.819	-29741	0.000000	0.000000	6.933141	-0.025808	NaN	0.000000	0.001602	0.001649	28.0811	0.037749	0.002005	18.8294	8.430220	13.8905	-0.189597	0.931500	-0.184406	-0.185779	-0.025808	18.8294	-0.183378	-69.6238	0.000371	NaN
343	1.000000	0.942833	7.36842e+06	-55789.1	955.818	-29741	0.000000	0.000000	6.943105	0.030196	NaN	0.000000	0.001604	0.001684	28.0812	0.086688	0.002122	40.8552	-84.755	-166.154	0.039550	0.941547	-0.174445	-0.175732	0.030196	40.8552	-0.174999	-50.1151	-0.000603	NaN
343	1.000000	0.952891	7.36842e+06	-55789.1	955.819	-29741	0.000000	0.000000	6.953161	-0.003721	NaN	0.000000	0.001589	0.001700	28.0811	0.039211	0.002013	19.474	65.545	13.4883	-0.021071	0.951497	-0.164387	-0.165781	-0.003721	19.474	-0.164244	-32.5852	0.000114	NaN
343	1.000000	0.962882	7.36842e+06	-55789.1	955.82	-29741	0.000000	0.000000	6.963151	-0.025979	NaN	0.000000	0.001591	0.001683	28.0813	0.033190	0.001859	17.8495	-131.779	-169.253	-0.091254	0.961540	-0.154396	-0.155738	-0.025979	17.8495	-0.153304	-20.797	0.001249	NaN
343	1.000000	0.972849	7.36842e+06	-55789.1	955.819	-29741	0.000000	0.000000	6.973118	-0.030081	NaN	0.000000	0.001633	0.001710	28.0811	0.040132	0.001966	20.4104	-114.192	13.233	0.023105	0.971495	-0.144430	-0.145784	-0.030081	20.4104	-0.143324	-13.6486	0.002204	NaN
343	1.000000	0.982881	7.36842e+06	-55789.1	955.818	-29741	0.000000	0.000000	6.983150	-0.015173	NaN	0.000000	0.001607	0.001715	28.0812	0.025773	0.002076	12.4172	-83.5294	-166.819	0.054436	0.981644	-0.134397	-0.135635	-0.015173	12.4172	-0.133481	-8.896453	0.001705	NaN
343	1.000000	0.992848	7.36842e+06	-55789.1	955.818	-29741	0.000000	0.000000	6.993117	-0.010400	NaN	0.000000	0.001614	0.001687	28.0813	0.033422	0.001964	17.0131	-95.1437	17.6924	-0.164568	0.991532	-0.124431	-0.125747	-0.010400	17.0131	-0.123972	-5.802541	0.001792	NaN
343	1.000000	1.002875	7.36842e+06	-55789.1	955.818	-29741	0.000000	0.000000	7.003144	-0.034491	NaN	0.000000	0.001613	0.001672	28.0813	0.071369	0.002003	35.6369	32.6302	-164.345	-0.079687	1.001580	-0.114403	-0.115699	-0.034491	35.6369	-0.113677	-3.587205	0.009615	NaN
343	1.000000	1.012879	7.36842e+06	-55789.1	955.819	-29741	0.000000	0.000000	7.013148	-0.016040	NaN	0.000000	0.001583	0.001670	28.0814	0.105409	0.002034	51.8238	76.9357	13.5611	-0.002196	1.011489	-0.104400	-0.105790	-0.016040	51.8238	-0.104167	-2.255023	0.007113	NaN
343	1.000000	1.022878	7.36842e+06	-55789.1	955.819	-29741	0.000000	0.000000	7.023146	-0.047118	NaN	0.000000	0.001589	0.001718	28.0814	0.032620	0.001970	16.5587	24.04	-169.312	-0.021057	1.021617	-0.094401	-0.095661	-0.047118	16.5587	-0.092267	-1.220792	0.038596	NaN
343	1.000000	1.032909	7.36842e+06	-55789.1	955.818	-29741	0.000000	0.000000	7.033179	-0.000344	NaN	0.000000	0.001614	0.001713	28.0825	0.103517	0.002066	50.1171	-146.475	16.872	0.004731	1.031570	-0.084369	-0.085709	-0.000344	50.1171	-0.084364	-0.792972	0.000434	NaN
343	1.000000	1.042893	7.36842e+06	-55789.1	955.818	-29741	0.000000	0.000000	7.043162	-0.036053	NaN	0.000000	0.001629	0.001718	28.0814	0.086662	0.001967	44.055	-141.608	-166.645	-0.060098	1.041610	-0.074385	-0.075668	-0.036053	44.055	-0.073771	-0.429141	0.084013	NaN
343	1.000000	1.052914	7.36842e+06	-55789.1	955.818	-29741	0.000000	0.000000	7.053184	-0.012071	NaN	0.000000	0.001611	0.001722	28.0803	0.018691	0.001968	9.499466	-8.826162	12.2828	-0.039556	1.051504	-0.064364	-0.065774	-0.012071	9.499466	-0.063411	-0.225039	0.053640	NaN
343	1.000000	1.062901	7.36842e+06	-55789.1	955.819	-29741	0.000000	0.000000	7.063172	0.014206	NaN	0.000000	0.001609	0.001703	28.0801	0.063288	0.001979	31.9831	102.65	-167.591	-0.041814	1.061580	-0.054378	-0.055698	0.014206	31.9831	-0.054711	-0.126265	-0.112506	NaN
343	1.000000	1.072886	7.36842e+06	-55789.1	955.818	-29741	0.000000	0.000000	7.073153	-0.058952	NaN	0.000000	0.001585	0.001698	28.0802	0.008857	0.001969	4.498457	151.963	13.578	-0.048266	1.071552	-0.044393	-0.045726	-0.058952	4.498457	-0.034564	-0.031093	1.895980	NaN
343	1.000000	1.082911	7.36842e+06	-55789.1	955.818	-29741	0.000000	0.000000	7.083180	-0.007430	NaN	0.000000	0.001586	0.001691	28.0799	0.097410	0.002056	47.3716	-62.7503	-166.74	0.010970	1.081628	-0.034368	-0.035650	-0.007430	47.3716	-0.034250	-0.030442	0.244066	NaN
343	1.000000	1.092931	7.36842e+06	-55789.1	955.818	-29741	0.000000	0.000000	7.093201	-0.015109	NaN	0.000000	0.001626	0.001704	28.0802	0.071866	0.001944	36.9687	99.4467	14.5892	-0.041333	1.091566	-0.024347	-0.025713	-0.015109	36.9687	-0.024041	-0.015929	0.948524	NaN
343	1.000000	1.102915	7.36842e+06	-55789.1	955.818	-29741	0.000000	0.000000	7.103182	-0.065056	NaN	0.000000	0.001586	0.001721	28.0803	0.078774	0.002074	37.9742	145.025	-166.437	-0.034117	1.101596	-0.014364	-0.015682	-0.065056	37.9742	-0.013079	-0.008148	7.984518	NaN
343	1.000000	1.112928	7.36842e+06	-55789.1	955.818	-29741	0.000000	0.000000	7.113197	-0.016875	NaN	0.000000	0.001623	0.001732	28.0806	0.144374	0.001965	73.4908	-136.015	12.9118	0.031523	1.111541	-0.004350	-0.005738	-0.016875	73.4908	-0.004178	-0.002894	5.831028	NaN
343	1.000000	1.122889	7.36842e+06	-55789.1	955.817	-29741	0.000000	0.000000	7.123373	5.196885	NaN	0.000000	0.001588	0.001728	28.0803	5.439476	0.001799	3023.88	9.311557	-168.04	3.791621	1.121570	0.005610	0.004291	5.196885	3023.88	0.004321	0.003522	1475.37	46549.6
343	2.000000	1.128028	7.36842e+06	-55789.1	955.818	-29741	0.000000	0.000000	7.128757	11.1635	NaN	0.000000	0.001575	0.001708	28.0804	10.113	0.001648	6137.19	5.356683	9.448219	10.2679	1.127630	0.010749	0.010351	11.1635	6137.19	0.009385	0.008506	1312.46	60797.4
343	2.000000	1.130472	7.36842e+06	-55789.1	955.817	-29741	0.000000	0.000000	7.131283	13.1601	NaN	0.000000	0.001602	0.001697	28.0802	12.9492	0.001777	7289.01	6.190616	-173.219	13.5479	1.130147	0.013193	0.012869	13.1601	7289.01	0.011839	0.011298	1164.85	62653.8
343	2.000000	1.132903	7.36842e+06	-55789.1	955.817	-29741	0.000000	0.000000	7.133846	16.3456	NaN	0.000000	0.001623	0.001699	28.0804	15.2263	0.001781	8549.54	10.2188	2.298237	16.2495	1.132569	0.015625	0.015291	16.3456	8549.54	0.014191	0.014221	1149.38	65500.9
343	2.000000	1.135386	7.36842e+06	-55789.1	955.818	-29741	0.000000	0.000000	7.136531	21.2606	NaN	0.000000	0.001672	0.001695	28.0801	18.8101	0.001887	9968.08	8.468032	-178.583	20.9302	1.135091	0.018108	0.017812	21.2606	9968.08	0.016508	0.017350	1225.42	69141.6
343	2.000000	1.137903	7.36842e+06	-55789.1	955.817	-29741	0.000000	0.000000	7.139326	28.0228	NaN	0.000000	0.001696	0.001695	28.0802	20.7768	0.001793	11584.7	6.468190	3.016536	26.4071	1.137492	0.020625	0.020214	28.0228	11584.7	0.018811	0.020708	1353.26	73551.5
343	2.000000	1.140334	7.36842e+06	-55789.1	955.816	-29741	0.000000	0.000000	7.141936	32.3629	NaN	0.000000	0.001658	0.001741	28.0805	22.9941	0.001693	13583.3	6.531383	-179.905	30.1596	1.140053	0.023056	0.022774	32.3629	13583.3	0.021269	0.024576	1316.87	79163.7
343	2.000000	1.142824	7.36842e+06	-55789.1	955.817	-29741	0.000000	0.000000	7.144559	35.6272	NaN	0.000000	0.001684	0.001694	28.0816	25.4675	0.001653	15405.8	3.017639	2.234924	32.5278	1.142573	0.025545	0.025294	35.6272	15405.8	0.023811	0.028888	1233.3	82813.7
343	2.000000	1.145357	7.36842e+06	-55789.1	955.817	-29741	0.000000	0.000000	7.147372	42.429	NaN	0.000000	0.001641	0.001694	28.0815	28.9759	0.001839	15754.9	5.798676	179.712	41.9957	1.145081	0.028078	0.027802	42.429	15754.9	0.026058	0.032969	1286.92	79274.2
343	2.000000	1.147876	7.36842e+06	-55789.1	955.817	-29741	0.000000	0.000000	7.150069	46.7249	NaN	0.000000	0.001639	0.001714	28.0815	30.6661	0.001815	16894.2	6.098833	-0.251178	46.2217	1.147515	0.030598	0.030236	46.7249	16894.2	0.028524	0.037739	1238.09	79453.4
343	2.000000	1.150346	7.36842e+06	-55789.1	955.817	-29741	0.000000	0.000000	7.152763	52.1774	NaN	0.000000	0.001642	0.001722	28.0815	32.9083	0.001794	18341	7.690284	177.096	51.6112	1.149968	0.033068	0.032689	52.1774	18341	0.030934	0.042702	1221.91	81091.4
343	2.000000	1.152840	7.36842e+06	-55789.1	955.818	-29741	0.000000	0.000000	7.155589	60.247	NaN	0.000000	0.001614	0.001699	28.0815	35.0927	0.001765	19885.6	6.461164	-3.708014	57.6151	1.152551	0.035562	0.035272	60.247	19885.6	0.033290	0.047838	1259.39	83066.3
343	2.000000	1.155360	7.36842e+06	-55789.1	955.818	-29741	0.000000	0.000000	7.158409	67.5493	NaN	0.000000	0.001616	0.001730	28.0814	38.2202	0.001794	21300.6	6.888278	175.424	67.5066	1.155024	0.038082	0.037746	67.5493	21300.6	0.035703	0.053397	1265.05	84218.5
343	2.000000	1.157818	7.36842e+06	-55789.1	955.818	-29741	0.000000	0.000000	7.161211	75.9023	NaN	0.000000	0.001598	0.001691	28.0813	40.0097	0.001870	21395.7	6.914607	-3.622151	72.0926	1.157459	0.040539	0.040180	75.9023	21395.7	0.037879	0.058661	1293.91	80709.3
343	2.000000	1.160358	7.36842e+06	-55789.1	955.818	-29741	0.000000	0.000000	7.163979	81.4565	NaN	0.000000	0.001605	0.001668	28.0817	41.5677	0.001792	23193	4.878388	177.764	82.3513	1.160016	0.043079	0.042737	81.4565	23193	0.040445	0.065184	1249.64	82996.6
343	2.000000	1.162831	7.36842e+06	-55789.1	955.816	-29741	0.000000	0.000000	7.166698	87.4308	NaN	0.000000	0.001598	0.001699	28.0815	43.7495	0.001684	25984.6	3.075356	-1.595656	85.7175	1.162552	0.045553	0.045274	87.4308	25984.6	0.043029	0.072091	1212.78	88419.5
343	2.000000	1.165420	7.36842e+06	-55789.1	955.817	-29741	0.000000	0.000000	7.169555	93.9576	NaN	0.000000	0.001626	0.001692	28.0816	48.3185	0.001765	27380.9	4.930178	176.046	99.9345	1.165068	0.048141	0.047790	93.9576	27380.9	0.045568	0.079208	1186.22	88886.9
343	2.000000	1.167874	7.36842e+06	-55789.1	955.818	-29741	0.000000	0.000000	7.172660	109.756	NaN	0.000000	0.001617	0.001650	28.0814	49.7558	0.001731	28748.1	7.304613	-5.746348	110.497	1.167402	0.050596	0.050124	109.756	28748.1	0.047733	0.085534	1283.19	89807.8
343	2.000000	1.170350	7.36842e+06	-55789.1	955.817	-29741	0.000000	0.000000	7.175556	119.985	NaN	0.000000	0.001615	0.001672	28.0817	52.4834	0.001887	27816.3	7.634402	173.811	120.854	1.169915	0.053072	0.052636	119.985	27816.3	0.049837	0.091909	1305.48	83829.1
343	2.000000	1.172774	7.36842e+06	-55789.1	955.818	-29741	0.000000	0.000000	7.178394	130.039	NaN	0.000000	0.001620	0.001701	28.0813	55.0784	0.001822	30237.2	5.495794	-5.344261	126.71	1.172458	0.055495	0.055179	130.039	30237.2	0.052270	0.099558	1306.16	87554.1
343	2.000000	1.175340	7.36842e+06	-55789.1	955.817	-29741	0.000000	0.000000	7.181241	136.891	NaN	0.000000	0.001598	0.001683	28.0812	57.701	0.001811	31859.9	5.589296	173.776	138.489	1.175115	0.058061	0.057837	136.891	31859.9	0.054839	0.107954	1268.05	88592.7
343	2.000000	1.177803	7.36842e+06	-55789.1	955.817	-29741	0.000000	0.000000	7.184307	151.515	NaN	0.000000	0.001616	0.001627	28.08	59.747	0.001880	31781	5.500533	-5.190219	149.235	1.177374	0.060525	0.060095	151.515	31781	0.056949	0.115096	1316.42	85587.4
343	2.000000	1.180290	7.36842e+06	-55789.1	955.817	-29741	0.000000	0.000000	7.187083	158.575	NaN	0.000000	0.001595	0.001661	28.0806	61.3022	0.001705	35948.8	5.817541	172.165	157.382	1.180074	0.063011	0.062796	158.575	35948.8	0.059703	0.124744	1271.2	92992.2
343	2.000000	1.182859	7.36842e+06	-55789.1	955.817	-29741	0.000000	0.000000	7.190187	171.577	NaN	0.000000	0.001597	0.001689	28.0799	64.5154	0.001740	37081.2	6.383359	-7.386542	173.443	1.182411	0.065580	0.065132	171.577	37081.2	0.062110	0.133482	1285.39	92728.9
343	2.000000	1.185344	7.36842e+06	-55789.1	955.816	-29741	0.000000	0.000000	7.192905	177.226	NaN	0.000000	0.001596	0.001688	28.0802	67.3113	0.001843	36514.1	2.645187	174.992	176.473	1.185177	0.068065	0.067898	177.226	36514.1	0.064425	0.142152	1246.74	88482.7
343	2.000000	1.187782	7.36842e+06	-55789.1	955.818	-29741	0.000000	0.000000	7.196274	199.856	NaN	0.000000	0.001607	0.001667	28.08	69.0895	0.001732	39879	5.449565	-7.566201	197.488	1.187518	0.070504	0.070239	199.856	39879	0.066745	0.151100	1322.67	93731.2
343	2.000000	1.190351	7.36842e+06	-55789.1	955.818	-29741	0.000000	0.000000	7.199533	216.631	NaN	0.000000	0.001626	0.001674	28.0803	71.448	0.001920	37221.5	5.649031	173.92	218.514	1.189805	0.073073	0.072526	216.631	37221.5	0.068708	0.158871	1363.57	85318.8
343	2.000000	1.192773	7.36842e+06	-55789.1	955.816	-29741	0.000000	0.000000	7.202477	229.331	NaN	0.000000	0.001635	0.001646	28.0799	74.2307	0.001720	43163	3.678859	-6.416322	225.627	1.192360	0.075494	0.075081	229.331	43163	0.071509	0.170282	1346.77	95565.2
343	2.000000	1.195312	7.36842e+06	-55789.1	955.817	-29741	0.000000	0.000000	7.205024	229.504	NaN	0.000000	0.001646	0.001705	28.0802	78.4146	0.001779	44087.1	6.189250	170.444	230.967	1.195063	0.078034	0.077785	229.504	44087.1	0.074130	0.181292	1265.94	94601
343	2.000000	1.197775	7.36842e+06	-55789.1	955.817	-29741	0.000000	0.000000	7.208501	254.153	NaN	0.000000	0.001612	0.001710	28.0803	80.0325	0.001764	45365.6	6.352643	-9.658558	250.699	1.197425	0.080497	0.080147	254.153	45365.6	0.076295	0.190635	1333.19	94929
343	2.000000	1.200297	7.36842e+06	-55789.1	955.817	-29741	0.000000	0.000000	7.211350	262.111	NaN	0.000000	0.001609	0.001796	28.0805	82.1753	0.001754	46860.2	6.940950	169.542	262.966	1.199971	0.083018	0.082693	262.111	46860.2	0.078823	0.201819	1298.74	95300.7
343	2.000000	1.202655	7.36842e+06	-55789.1	955.818	-29741	0.000000	0.000000	7.214675	285.613	NaN	0.000000	0.001569	0.001745	28.0802	84.8175	0.001841	46059.6	5.143024	-8.489289	276.495	1.202297	0.085377	0.085019	285.613	46059.6	0.080726	0.210436	1357.25	91734.6
343	2.000000	1.205171	7.36842e+06	-55789.1	955.817	-29741	0.000000	0.000000	7.217744	299.058	NaN	0.000000	0.001576	0.001733	28.0805	87.4942	0.001910	45815.2	3.331675	173.169	291.667	1.204968	0.087893	0.087689	299.058	45815.2	0.082997	0.220941	1353.56	89052.3
343	2.000000	1.207872	7.36842e+06	-55789.1	955.818	-29741	0.000000	0.000000	7.221281	319.373	NaN	0.000000	0.001552	0.001745	28.0802	88.4922	0.001841	48080.5	2.118878	-4.487828	318.096	1.207354	0.090594	0.090075	319.373	48080.5	0.085612	0.233330	1368.76	90940.4
343	2.000000	1.210294	7.36842e+06	-55789.1	955.818	-29741	0.000000	0.000000	7.224019	327.064	NaN	0.000000	0.001526	0.001724	28.0816	90.5316	0.001708	53004.2	3.319100	171.947	325.348	1.210078	0.093015	0.092800	327.064	53004.2	0.088387	0.246825	1325.08	97474.2
343	2.000000	1.212705	7.36842e+06	-55789.1	955.817	-29741	0.000000	0.000000	7.227549	354.267	NaN	0.000000	0.001595	0.001704	28.0813	93.6898	0.001845	50779.6	-0.183299	-3.350330	347.753	1.212375	0.095426	0.095097	354.267	50779.6	0.090194	0.255799	1384.94	91730.4
343	2.000000	1.215217	7.36842e+06	-55789.1	955.817	-29741	0.000000	0.000000	7.230770	371.501	NaN	0.000000	0.001582	0.001682	28.0819	96.3579	0.001802	53481.4	4.224467	171.489	368.216	1.214981	0.097939	0.097703	371.501	53481.4	0.092729	0.268646	1382.86	94272.7
343	2.000000	1.217717	7.36842e+06	-55789.1	955.818	-29741	0.000000	0.000000	7.233992	389.028	NaN	0.000000	0.001572	0.001701	28.0815	98.1583	0.001836	53454.6	3.910986	-8.373231	383	1.217418	0.100439	0.100140	389.028	53454.6	0.094980	0.280302	1387.89	92245.5
343	2.000000	1.220228	7.36842e+06	-55789.1	955.817	-29741	0.000000	0.000000	7.237080	403.081	NaN	0.000000	0.001566	0.001673	28.0816	99.4929	0.001707	58276.7	2.301826	172.323	399.32	1.219929	0.102949	0.102651	403.081	58276.7	0.097762	0.295020	1366.28	98026.3
343	2.000000	1.222639	7.36842e+06	-55789.1	955.818	-29741	0.000000	0.000000	7.240537	428.483	NaN	0.000000	0.001559	0.001715	28.0814	103.553	0.001791	57832.7	8.174633	-13.5326	418.21	1.222321	0.105361	0.105042	428.483	57832.7	0.099804	0.306052	1400.04	95510
343	2.000000	1.224861	7.36842e+06	-55789.1	955.817	-29741	0.000000	0.000000	7.243113	437.103	NaN	0.000000	0.001574	0.001753	28.0817	105.6	0.001740	60684.6	7.037586	-12.5044	439.398	1.224544	0.107583	0.107265	437.103	60684.6	0.102180	0.319126	1369.69	98145.6