File: remote_trans/data/nanoindenter/0828-1/data/Data_2025-08-06,11h17m57s/2025-07-22_16-23-58_1_116.txt
2025-07-22, 16:23:58, 1
Index	Phase	Displacement	Time	Pos X	Pos Y	Pos Z	Rot A	Rot B	Piezo Z	Force A	Force B	Gripper	Voltage A	Voltage B	Temperature	Amplitude force	Amplitude pos	Stiffness	Phase shift	Phase excitation	Force A raw	Displacement raw	HMax	HMax raw	Real Force	Real Stiffness	Contact Depth	Area	Hardness	Reduced Mod.
[#]	[#]	[um]	[s]	[um]	[um]	[um]	[m°]	[m°]	[um]	[uN]	[uN]	[V]	[V]	[V]	[°C]	[uN]	[um]	[N/m]	[°]	[°]	[uN]	[um]	[um]	[um]	[uN]	[N/m]	[um]	[um^2]	[MPa]	[MPa]
116	1.000000	0.001910	7.36617e+06	-44439.1	955.819	-29776.3	0.000000	0.000000	6.002790	-0.093980	NaN	0.000000	0.001630	0.001761	28.0845	0.135041	0.000946	142.706	-54.3321	-163.776	-0.054417	0.000690	-1.091556	-1.092776	-0.093980	142.706	-1.091062	-3.802538E+14	2.471501E-16	NaN
116	1.000000	0.011951	7.36617e+06	-44439.1	955.819	-29776.3	0.000000	0.000000	6.012836	0.020220	NaN	0.000000	0.001647	0.001737	28.0833	0.053074	0.001235	42.9821	24.3476	21.6115	-0.020497	0.010524	-1.081515	-1.082943	0.020220	42.9821	-1.081868	-2.861597E+14	-7.065960E-17	NaN
116	1.000000	0.021858	7.36617e+06	-44439.1	955.819	-29776.3	0.000000	0.000000	6.022738	-0.071129	NaN	0.000000	0.001672	0.001753	28.118	0.068181	0.001790	38.0895	156.335	-165.917	-0.038092	0.020558	-1.071609	-1.072908	-0.071129	38.0895	-1.070208	-1.995202E+14	3.564978E-16	NaN
116	1.000000	0.031898	7.36617e+06	-44439.1	955.819	-29776.3	0.000000	0.000000	6.032780	-0.045564	NaN	0.000000	0.001654	0.001749	28.123	0.015425	0.001999	7.716847	73.5471	14.0565	-0.099734	0.030490	-1.061568	-1.062977	-0.045564	7.716847	-1.057140	-1.331624E+14	3.421686E-16	NaN
116	1.000000	0.041907	7.36617e+06	-44439.1	955.819	-29776.3	0.000000	0.000000	6.042793	0.058522	NaN	0.000000	0.001663	0.001777	28.0862	0.093552	0.001827	51.2029	126.942	-163.128	0.059282	0.040560	-1.051559	-1.052906	0.058522	51.2029	-1.052416	-1.150522E+14	-5.086530E-16	NaN
116	1.000000	0.051887	7.36617e+06	-44439.1	955.819	-29776.3	0.000000	0.000000	6.052771	-0.008133	NaN	0.000000	0.001669	0.001766	28.0846	0.060953	0.001928	31.6158	168.76	17.9069	0.057003	0.050570	-1.041579	-1.042897	-0.008133	31.6158	-1.041386	-8.177233E+13	9.945574E-17	NaN
116	1.000000	0.061849	7.36617e+06	-44439.1	955.819	-29776.3	0.000000	0.000000	6.062730	-0.064824	NaN	0.000000	0.001666	0.001770	28.1204	0.052726	0.001910	27.6119	-20.2252	-166.74	0.009197	0.060525	-1.031618	-1.032941	-0.064824	27.6119	-1.029857	-5.722113E+13	1.132872E-15	NaN
116	1.000000	0.071865	7.36617e+06	-44439.1	955.819	-29776.3	0.000000	0.000000	6.072749	0.017969	NaN	0.000000	0.001677	0.001777	28.1253	0.034865	0.002035	17.1328	-162.568	17.5596	-0.076735	0.070533	-1.021601	-1.022934	0.017969	17.1328	-1.022388	-4.540283E+13	-3.957781E-16	NaN
116	1.000000	0.081889	7.36617e+06	-44439.1	955.818	-29776.3	0.000000	0.000000	6.082771	-0.041475	NaN	0.000000	0.001661	0.001759	28.0859	0.068748	0.002045	33.6242	110.045	-164.055	-0.012608	0.080632	-1.011577	-1.012835	-0.041475	33.6242	-1.010652	-3.156154E+13	1.314086E-15	NaN
116	1.000000	0.091896	7.36617e+06	-44439.1	955.819	-29776.3	0.000000	0.000000	6.092776	-0.074399	NaN	0.000000	0.001650	0.001724	28.0849	0.071942	0.001997	36.0183	-120.435	14.8511	-0.020490	0.090506	-1.001571	-1.002961	-0.074399	36.0183	-1.000022	-2.270178E+13	3.277252E-15	NaN
116	1.000000	0.101883	7.36617e+06	-44439.1	955.818	-29776.3	0.000000	0.000000	6.102764	-0.052558	NaN	0.000000	0.001647	0.001706	28.118	0.097079	0.001934	50.1855	-73.6096	-167.351	-0.021532	0.100625	-0.991584	-0.992842	-0.052558	50.1855	-0.990798	-1.705540E+13	3.081614E-15	NaN
116	1.000000	0.111901	7.36617e+06	-44439.1	955.818	-29776.3	0.000000	0.000000	6.112784	-0.009044	NaN	0.000000	0.001674	0.001724	28.1243	0.075681	0.001977	38.282	11.2471	13.9546	-0.075069	0.110541	-0.981565	-0.982925	-0.009044	38.282	-0.981388	-1.273836E+13	7.099901E-16	NaN
116	1.000000	0.121890	7.36617e+06	-44439.1	955.818	-29776.3	0.000000	0.000000	6.122772	-0.034067	NaN	0.000000	0.001631	0.001747	28.0861	0.060107	0.001929	31.1526	-126.498	-162.53	-0.077905	0.120548	-0.971577	-0.972918	-0.034067	31.1526	-0.970757	-9.159236E+12	3.719454E-15	NaN
116	1.000000	0.131904	7.36617e+06	-44439.1	955.818	-29776.3	0.000000	0.000000	6.132786	-0.050871	NaN	0.000000	0.001626	0.001730	28.0837	0.022334	0.002084	10.7153	-112.658	13.1172	-0.051902	0.130506	-0.961562	-0.962960	-0.050871	10.7153	-0.958002	-6.164894E+12	8.251802E-15	NaN
116	1.000000	0.141913	7.36617e+06	-44439.1	955.818	-29776.3	0.000000	0.000000	6.142800	0.064468	NaN	0.000000	0.001677	0.001757	28.1192	0.051965	0.002160	24.0575	-78.1387	-163.181	0.018638	0.140598	-0.951553	-0.952868	0.064468	24.0575	-0.953563	-5.371259E+12	-1.200243E-14	NaN
116	1.000000	0.151895	7.36617e+06	-44439.1	955.818	-29776.3	0.000000	0.000000	6.152778	0.004862	NaN	0.000000	0.001726	0.001722	28.1255	0.060002	0.002088	28.7309	5.075712	17.4442	-0.028187	0.150587	-0.941572	-0.942880	0.004862	28.7309	-0.941699	-3.715834E+12	-1.308570E-15	NaN
116	1.000000	0.161912	7.36617e+06	-44439.1	955.818	-29776.3	0.000000	0.000000	6.162794	-0.034398	NaN	0.000000	0.001639	0.001770	28.0853	0.069797	0.001999	34.9217	-128.883	-167.382	-0.036804	0.160649	-0.931555	-0.932817	-0.034398	34.9217	-0.930816	-2.649803E+12	1.298133E-14	NaN
116	1.000000	0.171939	7.36617e+06	-44439.1	955.819	-29776.3	0.000000	0.000000	6.172821	-0.026914	NaN	0.000000	0.001643	0.001738	28.0832	0.085910	0.001982	43.3447	44.4368	15.5653	-0.018411	0.170563	-0.921528	-0.922904	-0.026914	43.3447	-0.921062	-1.956808E+12	1.375398E-14	NaN
116	1.000000	0.181932	7.36617e+06	-44439.1	955.818	-29776.3	0.000000	0.000000	6.182818	0.069897	NaN	0.000000	0.001666	0.001757	28.1177	0.062289	0.001988	31.3365	-97.5875	-168.335	0.103505	0.180535	-0.911535	-0.912932	0.069897	31.3365	-0.913208	-1.532810E+12	-4.560038E-14	NaN
116	1.000000	0.191916	7.36617e+06	-44439.1	955.818	-29776.3	0.000000	0.000000	6.192798	-0.032311	NaN	0.000000	0.001651	0.001751	28.1231	0.178560	0.002002	89.1792	-137.01	15.4059	-0.076571	0.190553	-0.901550	-0.902913	-0.032311	89.1792	-0.901279	-1.057651E+12	3.054952E-14	NaN
116	1.000000	0.201942	7.36617e+06	-44439.1	955.818	-29776.3	0.000000	0.000000	6.202825	-0.013730	NaN	0.000000	0.001648	0.001758	28.0845	0.124665	0.002019	61.7579	103.622	-167.767	-0.076921	0.200657	-0.891525	-0.892809	-0.013730	61.7579	-0.891358	-7.767309E+11	1.767624E-14	NaN
116	1.000000	0.211956	7.36617e+06	-44439.1	955.818	-29776.3	0.000000	0.000000	6.212838	-0.035357	NaN	0.000000	0.001638	0.001735	28.0828	0.142552	0.002027	70.3303	-161.765	14.4069	-0.011699	0.210579	-0.881511	-0.882887	-0.035357	70.3303	-0.881134	-5.649925E+11	6.257963E-14	NaN
116	1.000000	0.221946	7.36617e+06	-44439.1	955.819	-29776.3	0.000000	0.000000	6.222831	0.037535	NaN	0.000000	0.001666	0.001755	28.1177	0.073209	0.001853	39.5182	49.4049	-163.877	-0.036094	0.220607	-0.871521	-0.872859	0.037535	39.5182	-0.872233	-4.282101E+11	-8.765515E-14	NaN
116	1.000000	0.231952	7.36617e+06	-44439.1	955.818	-29776.3	0.000000	0.000000	6.232832	-0.098566	NaN	0.000000	0.001648	0.001773	28.1243	0.079499	0.001949	40.7996	100.933	16.1866	-0.141563	0.230597	-0.861514	-0.862869	-0.098566	40.7996	-0.859702	-2.897960E+11	3.401235E-13	NaN
116	1.000000	0.241950	7.36617e+06	-44439.1	955.818	-29776.3	0.000000	0.000000	6.242830	-0.080633	NaN	0.000000	0.001595	0.001764	28.0837	0.139982	0.001995	70.1609	114.149	-166.597	-0.090889	0.240641	-0.851517	-0.852826	-0.080633	70.1609	-0.850655	-2.185779E+11	3.688964E-13	NaN
116	1.000000	0.251938	7.36617e+06	-44439.1	955.818	-29776.3	0.000000	0.000000	6.252819	-0.050146	NaN	0.000000	0.001644	0.001754	28.0813	0.098960	0.002063	47.9769	-175.534	12.4936	-0.096133	0.250596	-0.841528	-0.842870	-0.050146	47.9769	-0.840745	-1.604647E+11	3.125038E-13	NaN
116	1.000000	0.261965	7.36617e+06	-44439.1	955.818	-29776.3	0.000000	0.000000	6.262849	0.010094	NaN	0.000000	0.001636	0.001735	28.1158	0.098469	0.002050	48.0236	-61.2433	-166.407	0.010686	0.260672	-0.831502	-0.832794	0.010094	48.0236	-0.831659	-1.208581E+11	-8.352038E-14	NaN
116	1.000000	0.271976	7.36617e+06	-44439.1	955.818	-29776.3	0.000000	0.000000	6.272860	0.012461	NaN	0.000000	0.001626	0.001777	28.1229	0.121824	0.002067	58.931	-173.952	18.6535	0.024993	0.270614	-0.821490	-0.822853	0.012461	58.931	-0.821649	-8.842430E+10	-1.409188E-13	NaN
116	1.000000	0.281971	7.36617e+06	-44439.1	955.818	-29776.3	0.000000	0.000000	6.282854	-0.023617	NaN	0.000000	0.001632	0.001767	28.0853	0.035284	0.001918	18.3972	-170.721	-166.877	-0.039717	0.280691	-0.811495	-0.812776	-0.023617	18.3972	-0.810533	-6.248792E+10	3.779457E-13	NaN
116	1.000000	0.291968	7.36617e+06	-44439.1	955.819	-29776.3	0.000000	0.000000	6.292849	-0.079513	NaN	0.000000	0.001614	0.001764	28.0825	0.005979	0.002053	2.912076	-117.988	16.7878	-0.111940	0.290610	-0.801498	-0.802857	-0.079513	2.912076	-0.781020	-2.483642E+10	3.201449E-12	NaN
116	1.000000	0.301961	7.36617e+06	-44439.1	955.819	-29776.3	0.000000	0.000000	6.302846	0.031932	NaN	0.000000	0.001595	0.001810	28.1167	0.063744	0.002079	30.6677	10.6303	-161.828	-0.021334	0.300674	-0.791505	-0.792792	0.031932	30.6677	-0.792286	-3.532906E+10	-9.038392E-13	NaN
116	1.000000	0.311972	7.36617e+06	-44439.1	955.819	-29776.3	0.000000	0.000000	6.312854	-0.021974	NaN	0.000000	0.001612	0.001823	28.1239	0.140886	0.002059	68.4085	85.474	14.843	-0.083201	0.310586	-0.781495	-0.782881	-0.021974	68.4085	-0.781254	-2.501912E+10	8.782735E-13	NaN
116	1.000000	0.321974	7.36617e+06	-44439.1	955.819	-29776.3	0.000000	0.000000	6.322859	0.029101	NaN	0.000000	0.001597	0.001824	28.0855	0.051184	0.001981	25.8386	-73.1757	-163.388	-0.033180	0.320688	-0.771492	-0.772778	0.029101	25.8386	-0.772337	-1.892683E+10	-1.537531E-12	NaN
116	1.000000	0.331985	7.36617e+06	-44439.1	955.818	-29776.3	0.000000	0.000000	6.332868	-0.022080	NaN	0.000000	0.001606	0.001810	28.0824	0.077129	0.002055	37.5342	85.4193	18.8972	-0.022600	0.330659	-0.761481	-0.762808	-0.022080	37.5342	-0.761040	-1.328782E+10	1.661695E-12	NaN
116	1.000000	0.341977	7.36617e+06	-44439.1	955.817	-29776.3	0.000000	0.000000	6.342859	-0.034889	NaN	0.000000	0.001608	0.001803	28.1158	0.067113	0.002036	32.9639	-77.6903	-167.365	0.005501	0.340643	-0.751490	-0.752824	-0.034889	32.9639	-0.750696	-9.609350E+9	3.630722E-12	NaN
116	1.000000	0.352004	7.36617e+06	-44439.1	955.817	-29776.3	0.000000	0.000000	6.352885	-0.043955	NaN	0.000000	0.001613	0.001809	28.1242	0.057370	0.001912	30.0028	-80.9735	12.9679	0.045806	0.350660	-0.741463	-0.742807	-0.043955	30.0028	-0.740364	-6.950488E+9	6.324088E-12	NaN
116	1.000000	0.361957	7.36617e+06	-44439.1	955.818	-29776.3	0.000000	0.000000	6.362839	-0.034860	NaN	0.000000	0.001590	0.001782	28.0872	0.042542	0.002144	19.8434	15.3714	-166.579	-0.078011	0.360698	-0.731509	-0.732768	-0.034860	19.8434	-0.730192	-5.051502E+9	6.900994E-12	NaN
116	1.000000	0.371998	7.36617e+06	-44439.1	955.818	-29776.3	0.000000	0.000000	6.372880	-0.023910	NaN	0.000000	0.001612	0.001769	28.083	0.069323	0.002082	33.2973	-109.793	17.375	-0.017915	0.370726	-0.721469	-0.722741	-0.023910	33.2973	-0.720930	-3.777121E+9	6.330290E-12	NaN
116	1.000000	0.382005	7.36617e+06	-44439.1	955.818	-29776.3	0.000000	0.000000	6.382889	0.024521	NaN	0.000000	0.001580	0.001805	28.1173	0.005568	0.001935	2.876878	-60.8232	-165.246	-0.018691	0.380746	-0.711462	-0.712721	0.024521	2.876878	-0.717854	-3.429313E+9	-7.150318E-12	NaN
116	1.000000	0.392015	7.36617e+06	-44439.1	955.819	-29776.3	0.000000	0.000000	6.392896	-0.075594	NaN	0.000000	0.001581	0.001777	28.1255	0.192125	0.002002	95.9837	151.07	15.9081	-0.103257	0.390695	-0.701451	-0.702771	-0.075594	95.9837	-0.700860	-2.010398E+9	3.760140E-11	NaN
116	1.000000	0.402015	7.36617e+06	-44439.1	955.818	-29776.3	0.000000	0.000000	6.402897	-0.038360	NaN	0.000000	0.001647	0.001788	28.0852	0.040613	0.001913	21.233	4.304317	-165.761	0.050560	0.400711	-0.691452	-0.692755	-0.038360	21.233	-0.690097	-1.432988E+9	2.676911E-11	NaN
116	1.000000	0.412012	7.36617e+06	-44439.1	955.818	-29776.3	0.000000	0.000000	6.412892	-0.097481	NaN	0.000000	0.001647	0.001782	28.0824	0.057515	0.002028	28.364	-141.891	12.012	-0.122213	0.410683	-0.681454	-0.682784	-0.097481	28.364	-0.678877	-1.006570E+9	9.684484E-11	NaN
116	1.000000	0.422031	7.36617e+06	-44439.1	955.818	-29776.3	0.000000	0.000000	6.422909	-0.132598	NaN	0.000000	0.001617	0.001796	28.1161	0.017135	0.002009	8.529733	84.1045	-163.106	-0.071190	0.420684	-0.671436	-0.672783	-0.132598	8.529733	-0.659777	-5.513288E+8	2.405064E-10	NaN
116	1.000000	0.432028	7.36617e+06	-44439.1	955.818	-29776.3	0.000000	0.000000	6.432912	-0.000149	NaN	0.000000	0.001613	0.001783	28.1247	0.108264	0.001983	54.5887	-82.3693	13.0381	-0.121766	0.430617	-0.661438	-0.662849	-0.000149	54.5887	-0.661436	-5.809487E+8	2.568900E-13	NaN
116	1.000000	0.442055	7.36617e+06	-44439.1	955.818	-29776.3	0.000000	0.000000	6.442939	0.027427	NaN	0.000000	0.001577	0.001780	28.086	0.016216	0.002007	8.078403	172.717	-166.94	-0.056221	0.440721	-0.651412	-0.652746	0.027427	8.078403	-0.653958	-4.588674E+8	-5.977181E-11	NaN
116	1.000000	0.452043	7.36617e+06	-44439.1	955.818	-29776.3	0.000000	0.000000	6.452926	0.008399	NaN	0.000000	0.001577	0.001759	28.0836	0.127093	0.002088	60.8775	143.092	12.3296	0.094857	0.450691	-0.641424	-0.642776	0.008399	60.8775	-0.641527	-3.099170E+8	-2.710081E-11	NaN
116	1.000000	0.462043	7.36617e+06	-44439.1	955.818	-29776.3	0.000000	0.000000	6.462926	-0.010865	NaN	0.000000	0.001601	0.001775	28.115	0.060911	0.002055	29.6407	104.26	-167.438	-0.009816	0.460738	-0.631423	-0.632729	-0.010865	29.6407	-0.631148	-2.232492E+8	4.866736E-11	NaN
116	1.000000	0.472062	7.36617e+06	-44439.1	955.818	-29776.3	0.000000	0.000000	6.472945	-0.010026	NaN	0.000000	0.001662	0.001803	28.1243	0.107851	0.002097	51.4211	-104.597	15.6836	-0.041160	0.470682	-0.621404	-0.622785	-0.010026	51.4211	-0.621258	-1.632757E+8	6.140537E-11	NaN
116	1.000000	0.482083	7.36617e+06	-44439.1	955.818	-29776.3	0.000000	0.000000	6.482966	-0.012805	NaN	0.000000	0.001617	0.001799	28.0845	0.132459	0.002044	64.7926	-97.895	-164.204	0.017847	0.480683	-0.611383	-0.612784	-0.012805	64.7926	-0.611235	-1.188799E+8	1.077095E-10	NaN
116	1.000000	0.492059	7.36617e+06	-44439.1	955.818	-29776.3	0.000000	0.000000	6.492943	0.012846	NaN	0.000000	0.001639	0.001762	28.0812	0.171890	0.001940	88.5881	-114.892	13.4002	-0.047854	0.490673	-0.601407	-0.602794	0.012846	88.5881	-0.601516	-8.736449E+7	-1.470436E-10	NaN
116	1.000000	0.502041	7.36617e+06	-44439.1	955.819	-29776.3	0.000000	0.000000	6.502927	0.063415	NaN	0.000000	0.001617	0.001774	28.1151	0.046515	0.002047	22.725	130.587	-164.461	0.053811	0.500772	-0.591426	-0.592695	0.063415	22.725	-0.593519	-6.779044E+7	-9.354588E-10	NaN
116	1.000000	0.512083	7.36617e+06	-44439.1	955.818	-29776.3	0.000000	0.000000	6.512964	-0.052092	NaN	0.000000	0.001622	0.001752	28.1238	0.061098	0.001975	30.9343	-83.0733	13.9751	-0.061965	0.510679	-0.581383	-0.582787	-0.052092	30.9343	-0.580120	-4.429833E+7	1.175926E-9	NaN
116	1.000000	0.522080	7.36617e+06	-44439.1	955.818	-29776.3	0.000000	0.000000	6.522963	-0.008267	NaN	0.000000	0.001608	0.001798	28.0863	0.130950	0.001987	65.8936	97.8937	-164.862	0.000220	0.520786	-0.571386	-0.572680	-0.008267	65.8936	-0.571292	-3.345688E+7	2.471008E-10	NaN
116	1.000000	0.532053	7.36617e+06	-44439.1	955.818	-29776.3	0.000000	0.000000	6.532936	0.009760	NaN	0.000000	0.001628	0.001728	28.0826	0.158228	0.002023	78.2272	53.0096	16.2478	0.029187	0.530759	-0.561414	-0.562707	0.009760	78.2272	-0.561508	-2.450365E+7	-3.983208E-10	NaN
116	1.000000	0.542092	7.36617e+06	-44439.1	955.818	-29776.3	0.000000	0.000000	6.542973	-0.058187	NaN	0.000000	0.001567	0.001767	28.1148	0.108873	0.001998	54.4837	39.1535	-166.878	0.001076	0.540734	-0.551375	-0.552732	-0.058187	54.4837	-0.550574	-1.729443E+7	3.364490E-9	NaN
116	1.000000	0.552101	7.36617e+06	-44439.1	955.818	-29776.3	0.000000	0.000000	6.552981	-0.090342	NaN	0.000000	0.001604	0.001752	28.1252	0.036438	0.002079	17.5289	134.664	12.4183	0.004144	0.550757	-0.541365	-0.542709	-0.090342	17.5289	-0.537500	-1.139410E+7	7.928879E-9	NaN
116	1.000000	0.562105	7.36617e+06	-44439.1	955.818	-29776.3	0.000000	0.000000	6.562986	-0.042945	NaN	0.000000	0.001578	0.001751	28.0839	0.106891	0.002065	51.7559	43.864	-164.584	-0.040851	0.560772	-0.531362	-0.532694	-0.042945	51.7559	-0.530739	-9.18003e+06	4.678078E-9	NaN
116	1.000000	0.572120	7.36617e+06	-44439.1	955.818	-29776.3	0.000000	0.000000	6.573002	-0.035749	NaN	0.000000	0.001610	0.001773	28.0813	0.099597	0.002008	49.5991	-144.026	15.3179	-0.061185	0.570777	-0.521346	-0.522690	-0.035749	49.5991	-0.520806	-6.68039e+06	5.351372E-9	NaN
116	1.000000	0.582102	7.36617e+06	-44439.1	955.817	-29776.3	0.000000	0.000000	6.582982	-0.098122	NaN	0.000000	0.001570	0.001750	28.1142	0.176878	0.001990	88.8925	-88.2176	-164.47	-0.049461	0.580847	-0.511364	-0.512619	-0.098122	88.8925	-0.510536	-4.80712e+06	2.041170E-8	NaN
116	1.000000	0.592105	7.36617e+06	-44439.1	955.818	-29776.3	0.000000	0.000000	6.592988	-0.013458	NaN	0.000000	0.001559	0.001766	28.1249	0.082401	0.001898	43.4177	-121.609	14.9356	-0.034639	0.590724	-0.501362	-0.502743	-0.013458	43.4177	-0.501129	-3.55443e+06	3.786387E-9	NaN
116	1.000000	0.602104	7.36617e+06	-44439.1	955.819	-29776.3	0.000000	0.000000	6.602987	-0.011588	NaN	0.000000	0.001642	0.001755	28.0878	0.094723	0.001974	47.9866	94.6894	-167.51	0.020395	0.600819	-0.491363	-0.492647	-0.011588	47.9866	-0.491182	-2.58171e+06	4.488450E-9	NaN
116	1.000000	0.612100	7.36617e+06	-44439.1	955.819	-29776.3	0.000000	0.000000	6.612984	0.008293	NaN	0.000000	0.001600	0.001732	28.0851	0.027685	0.002038	13.5849	80.0182	15.7689	-0.014132	0.610711	-0.481366	-0.482755	0.008293	13.5849	-0.481824	-1.91012e+06	-4.341390E-9	NaN
116	1.000000	0.622137	7.36617e+06	-44439.1	955.818	-29776.3	0.000000	0.000000	6.623020	-0.014768	NaN	0.000000	0.001641	0.001767	28.1164	0.136611	0.001941	70.384	150.712	-165.733	0.001054	0.620789	-0.471329	-0.472677	-0.014768	70.384	-0.471172	-1.3547e+06	1.090123E-8	NaN
116	1.000000	0.632136	7.36617e+06	-44439.1	955.818	-29776.3	0.000000	0.000000	6.633019	-0.013692	NaN	0.000000	0.001590	0.001774	28.1265	0.068762	0.002016	34.1112	-119.184	13.4065	0.016015	0.630761	-0.461330	-0.462705	-0.013692	34.1112	-0.461029	-976071	1.402792E-8	NaN
116	1.000000	0.642147	7.36617e+06	-44439.1	955.818	-29776.3	0.000000	0.000000	6.643030	-0.014478	NaN	0.000000	0.001580	0.001745	28.0865	0.061322	0.002118	28.9575	-178.81	-165.64	-0.026408	0.640784	-0.451320	-0.452682	-0.014478	28.9575	-0.450945	-704114	2.056215E-8	NaN
116	1.000000	0.652120	7.36618e+06	-44439.1	955.818	-29776.3	0.000000	0.000000	6.653000	-0.071096	NaN	0.000000	0.001617	0.001752	28.0826	0.099235	0.001984	50.0096	-128.821	13.1194	-0.036831	0.650776	-0.441347	-0.442691	-0.071096	50.0096	-0.440280	-498105	1.427338E-7	NaN
116	1.000000	0.662129	7.36618e+06	-44439.1	955.818	-29776.3	0.000000	0.000000	6.663014	0.024650	NaN	0.000000	0.001689	0.001752	28.1153	0.080451	0.001965	40.9491	98.1878	-167.651	0.051801	0.660794	-0.431337	-0.432673	0.024650	40.9491	-0.431789	-377884	-6.523040E-8	NaN
116	1.000000	0.672140	7.36618e+06	-44439.1	955.817	-29776.3	0.000000	0.000000	6.673024	-0.001190	NaN	0.000000	0.001695	0.001768	28.1258	0.067653	0.001922	35.1938	155.835	19.1544	-0.005785	0.670817	-0.421326	-0.422650	-0.001190	35.1938	-0.421301	-268450	4.432050E-9	NaN
116	1.000000	0.682150	7.36618e+06	-44439.1	955.818	-29776.3	0.000000	0.000000	6.683031	-0.069751	NaN	0.000000	0.001713	0.001749	28.0871	0.051085	0.001988	25.7015	-128.731	-165.783	-0.029897	0.680869	-0.411317	-0.412598	-0.069751	25.7015	-0.409281	-181208	3.849255E-7	NaN
116	1.000000	0.692150	7.36618e+06	-44439.1	955.818	-29776.3	0.000000	0.000000	6.693032	-0.037166	NaN	0.000000	0.001681	0.001770	28.0829	0.113804	0.002296	49.5618	170.311	14.172	-0.033110	0.690800	-0.401317	-0.402667	-0.037166	49.5618	-0.400754	-137010	2.712656E-7	NaN
116	1.000000	0.702126	7.36618e+06	-44439.1	955.818	-29776.3	0.000000	0.000000	6.703009	-0.009786	NaN	0.000000	0.001645	0.001751	28.1157	0.054592	0.002083	26.2028	157.562	-166.161	-0.033457	0.700848	-0.391341	-0.392618	-0.009786	26.2028	-0.391061	-99618.5	9.823445E-8	NaN
116	1.000000	0.712141	7.36618e+06	-44439.1	955.819	-29776.3	0.000000	0.000000	6.713025	0.008426	NaN	0.000000	0.001659	0.001766	28.1272	0.091285	0.001983	46.0304	84.5744	14.8461	0.060576	0.710810	-0.381326	-0.382656	0.008426	46.0304	-0.381463	-72590.1	-1.160770E-7	NaN
116	1.000000	0.722158	7.36618e+06	-44439.1	955.818	-29776.3	0.000000	0.000000	6.723043	0.036325	NaN	0.000000	0.001641	0.001742	28.0864	0.055910	0.002039	27.4169	106.557	-167.142	0.000606	0.720825	-0.371308	-0.372642	0.036325	27.4169	-0.372302	-53612.3	-6.775438E-7	NaN
116	1.000000	0.732146	7.36618e+06	-44439.1	955.818	-29776.3	0.000000	0.000000	6.733027	-0.065562	NaN	0.000000	0.001612	0.001772	28.0816	0.079963	0.001962	40.7513	-127.023	13.107	-0.019549	0.730759	-0.361320	-0.362708	-0.065562	40.7513	-0.360114	-35767.7	1.832990E-6	NaN
116	1.000000	0.742172	7.36618e+06	-44439.1	955.818	-29776.3	0.000000	0.000000	6.743055	-0.003730	NaN	0.000000	0.001589	0.001720	28.1137	0.032550	0.001925	16.9093	82.8082	-165.919	-0.013684	0.740874	-0.351295	-0.352592	-0.003730	16.9093	-0.351129	-26508.8	1.407033E-7	NaN
116	1.000000	0.752169	7.36618e+06	-44439.1	955.818	-29776.3	0.000000	0.000000	6.753054	0.031003	NaN	0.000000	0.001614	0.001759	28.1254	0.035060	0.001999	17.5374	-22.511	13.2625	0.055723	0.750814	-0.341298	-0.342652	0.031003	17.5374	-0.342623	-19942.2	-1.554652E-6	NaN
116	1.000000	0.762168	7.36618e+06	-44439.1	955.819	-29776.3	0.000000	0.000000	6.763051	-0.009167	NaN	0.000000	0.001631	0.001758	28.0863	0.140765	0.001879	74.8966	-148.778	-163.055	-0.074443	0.760858	-0.331299	-0.332609	-0.009167	74.8966	-0.331207	-13587	6.746621E-7	NaN
116	1.000000	0.772158	7.36618e+06	-44439.1	955.819	-29776.3	0.000000	0.000000	6.773041	-0.009237	NaN	0.000000	0.001589	0.001750	28.0822	0.037210	0.001848	20.1382	-31.9159	18.2309	0.033046	0.770860	-0.321309	-0.322606	-0.009237	20.1382	-0.320965	-9612.4	9.609595E-7	NaN
116	1.000000	0.782183	7.36618e+06	-44439.1	955.819	-29776.3	0.000000	0.000000	6.783065	-0.032586	NaN	0.000000	0.001571	0.001768	28.1146	0.057961	0.002024	28.641	91.0413	-165.042	-0.047904	0.780829	-0.311284	-0.312638	-0.032586	28.641	-0.310430	-6720.84	4.848552E-6	NaN
116	1.000000	0.792172	7.36618e+06	-44439.1	955.818	-29776.3	0.000000	0.000000	6.793052	-0.083600	NaN	0.000000	0.001563	0.001769	28.1263	0.144851	0.002189	66.1801	-9.615668	15.1225	-0.063957	0.790826	-0.301295	-0.302640	-0.083600	66.1801	-0.300347	-4762.16	1.755508E-5	NaN
116	1.000000	0.802187	7.36618e+06	-44439.1	955.818	-29776.3	0.000000	0.000000	6.803069	-0.030298	NaN	0.000000	0.001560	0.001762	28.0863	0.073488	0.001970	37.2992	-133.524	-164.464	-0.039738	0.800861	-0.291280	-0.292606	-0.030298	37.2992	-0.290670	-3414.62	8.872992E-6	NaN
116	1.000000	0.812216	7.36618e+06	-44439.1	955.819	-29776.3	0.000000	0.000000	6.813098	-0.043055	NaN	0.000000	0.001623	0.001755	28.0803	0.062674	0.001944	32.2398	-94.488	15.2215	-0.062548	0.810787	-0.281250	-0.282679	-0.043055	32.2398	-0.280249	-2380.8	1.808444E-5	NaN
116	1.000000	0.822192	7.36618e+06	-44439.1	955.818	-29776.3	0.000000	0.000000	6.823076	0.013655	NaN	0.000000	0.001607	0.001751	28.1133	0.072933	0.001895	38.4836	-68.8558	-162.256	0.093721	0.820895	-0.271275	-0.272572	0.013655	38.4836	-0.271541	-1757.72	-7.768816E-6	NaN
116	1.000000	0.832184	7.36618e+06	-44439.1	955.818	-29776.3	0.000000	0.000000	6.833068	0.022448	NaN	0.000000	0.001639	0.001752	28.1253	0.010253	0.001976	5.187847	155.499	11.9119	-0.041910	0.830811	-0.261283	-0.262655	0.022448	5.187847	-0.264528	-1374.64	-1.633025E-5	NaN
116	1.000000	0.842165	7.36618e+06	-44439.1	955.818	-29776.3	0.000000	0.000000	6.843047	-0.033899	NaN	0.000000	0.001620	0.001741	28.0866	0.060941	0.001955	31.1695	88.2175	-164.988	-0.011265	0.840874	-0.251302	-0.252593	-0.033899	31.1695	-0.250486	-836.528	4.052339E-5	NaN
116	1.000000	0.852209	7.36618e+06	-44439.1	955.818	-29776.3	0.000000	0.000000	6.853093	0.003051	NaN	0.000000	0.001614	0.001744	28.0817	0.133273	0.002030	65.6662	-114.842	13.8962	0.027889	0.850835	-0.241257	-0.242632	0.003051	65.6662	-0.241292	-602.174	-5.066806E-6	NaN
116	1.000000	0.862189	7.36618e+06	-44439.1	955.818	-29776.3	0.000000	0.000000	6.863073	-0.000841	NaN	0.000000	0.001602	0.001696	28.1143	0.039538	0.002014	19.6329	-56.8632	-163.97	-0.028930	0.860930	-0.231277	-0.232536	-0.000841	19.6329	-0.231245	-418.952	2.006727E-6	NaN
116	1.000000	0.872235	7.36618e+06	-44439.1	955.817	-29776.3	0.000000	0.000000	6.873115	-0.072416	NaN	0.000000	0.001554	0.001771	28.1284	0.054793	0.002018	27.1565	-168.28	14.7039	-0.021265	0.870867	-0.221232	-0.222600	-0.072416	27.1565	-0.219232	-270.019	0.000268	NaN
116	1.000000	0.882207	7.36618e+06	-44439.1	955.818	-29776.3	0.000000	0.000000	6.883090	-0.017560	NaN	0.000000	0.001611	0.001743	28.0865	0.069162	0.001930	35.841	-27.658	-166.661	0.000253	0.880901	-0.211259	-0.212565	-0.017560	35.841	-0.210892	-198.268	8.856459E-5	NaN
116	1.000000	0.892211	7.36618e+06	-44439.1	955.818	-29776.3	0.000000	0.000000	6.893093	-0.033588	NaN	0.000000	0.001606	0.001733	28.083	0.094008	0.001954	48.1103	104.166	15.4115	-0.039224	0.890880	-0.201255	-0.202587	-0.033588	48.1103	-0.200732	-135.43	0.000248	NaN
116	1.000000	0.902218	7.36618e+06	-44439.1	955.818	-29776.3	0.000000	0.000000	6.903097	-0.096305	NaN	0.000000	0.001608	0.001690	28.1137	0.089678	0.001843	48.6621	81.6611	-166.666	-0.211157	0.900897	-0.191249	-0.192570	-0.096305	48.6621	-0.189764	-89.1441	0.001080	NaN
116	1.000000	0.912215	7.36618e+06	-44439.1	955.818	-29776.3	0.000000	0.000000	6.913095	-0.073820	NaN	0.000000	0.001561	0.001736	28.1269	0.049446	0.001874	26.3816	28.8317	14.003	0.062954	0.910890	-0.181252	-0.182576	-0.073820	26.3816	-0.179153	-59.0268	0.001251	NaN
116	1.000000	0.922237	7.36618e+06	-44439.1	955.819	-29776.3	0.000000	0.000000	6.923121	-0.002270	NaN	0.000000	0.001621	0.001750	28.0876	0.072157	0.002130	33.8772	-159.375	-165.226	-0.071111	0.920966	-0.171229	-0.172501	-0.002270	33.8772	-0.171179	-43.0588	5.272735E-5	NaN
116	1.000000	0.932214	7.36618e+06	-44439.1	955.819	-29776.3	0.000000	0.000000	6.933095	-0.042093	NaN	0.000000	0.001701	0.001699	28.083	0.041119	0.002095	19.6285	-154.784	11.2726	-0.043773	0.930865	-0.161253	-0.162601	-0.042093	19.6285	-0.159645	-27.0189	0.001558	NaN
116	1.000000	0.942252	7.36618e+06	-44439.1	955.818	-29776.3	0.000000	0.000000	6.943136	0.011360	NaN	0.000000	0.001676	0.001763	28.1145	0.102426	0.002010	50.9518	61.743	-166.458	-0.052198	0.940896	-0.151215	-0.152570	0.011360	50.9518	-0.151382	-19.1937	-0.000592	NaN
116	1.000000	0.952245	7.36618e+06	-44439.1	955.819	-29776.3	0.000000	0.000000	6.953131	0.050244	NaN	0.000000	0.001672	0.001731	28.1279	0.024510	0.001947	12.5878	71.2923	13.5238	-0.006126	0.950874	-0.141221	-0.142592	0.050244	12.5878	-0.144215	-14.1783	-0.003544	NaN
116	1.000000	0.962239	7.36618e+06	-44439.1	955.818	-29776.3	0.000000	0.000000	6.963119	-0.083529	NaN	0.000000	0.001651	0.001733	28.0875	0.038352	0.001950	19.665	-90.3823	-168.121	-0.082694	0.960916	-0.131228	-0.132550	-0.083529	19.665	-0.128042	-6.979756	0.011967	NaN
116	1.000000	0.972260	7.36618e+06	-44439.1	955.819	-29776.3	0.000000	0.000000	6.973141	-0.071191	NaN	0.000000	0.001680	0.001702	28.0829	0.053107	0.002016	26.3405	-110.046	13.9925	0.004728	0.970849	-0.121206	-0.122617	-0.071191	26.3405	-0.119179	-4.650332	0.015309	NaN
116	1.000000	0.982237	7.36618e+06	-44439.1	955.819	-29776.3	0.000000	0.000000	6.983120	-0.020103	NaN	0.000000	0.001700	0.001691	28.1136	0.108726	0.002139	50.8187	162.148	-165.661	-0.022442	0.980945	-0.111229	-0.112521	-0.020103	50.8187	-0.110933	-3.144095	0.006394	NaN
116	1.000000	0.992259	7.36618e+06	-44439.1	955.819	-29776.3	0.000000	0.000000	6.993145	0.053373	NaN	0.000000	0.001630	0.001719	28.127	0.081840	0.002138	38.2825	-110.17	16.205	0.039766	0.990869	-0.101208	-0.102598	0.053373	38.2825	-0.102253	-2.048441	-0.026055	NaN
116	1.000000	1.002278	7.36618e+06	-44439.1	955.819	-29776.3	0.000000	0.000000	7.003161	-0.017556	NaN	0.000000	0.001713	0.001722	28.0883	0.063272	0.001972	32.09	-13.4163	-166.032	-0.002358	1.000984	-0.091189	-0.092483	-0.017556	32.09	-0.090778	-1.127287	0.015574	NaN
116	1.000000	1.012262	7.36618e+06	-44439.1	955.819	-29776.3	0.000000	0.000000	7.013144	-0.047576	NaN	0.000000	0.001699	0.001736	28.0814	0.070525	0.001984	35.5523	86.185	16.9356	-0.017788	1.010921	-0.081204	-0.082546	-0.047576	35.5523	-0.080201	-0.626181	0.075978	NaN
116	1.000000	1.022277	7.36618e+06	-44439.1	955.818	-29776.3	0.000000	0.000000	7.023160	-0.000884	NaN	0.000000	0.001738	0.001730	28.1136	0.039866	0.001958	20.3651	117.399	-161.661	0.057144	1.020953	-0.071190	-0.072513	-0.000884	20.3651	-0.071157	-0.366239	0.002413	NaN
116	1.000000	1.032284	7.36618e+06	-44439.1	955.819	-29776.3	0.000000	0.000000	7.033165	-0.065445	NaN	0.000000	0.001702	0.001720	28.1271	0.041197	0.002033	20.2624	-78.8713	16.6972	-0.013085	1.030913	-0.061182	-0.062554	-0.065445	20.2624	-0.058760	-0.165876	0.394542	NaN
116	1.000000	1.042309	7.36618e+06	-44439.1	955.818	-29776.3	0.000000	0.000000	7.043192	0.012970	NaN	0.000000	0.001687	0.001742	28.0859	0.035239	0.001980	17.7945	-162.705	-168.266	0.023421	1.041020	-0.051158	-0.052446	0.012970	17.7945	-0.051705	-0.102712	-0.126271	NaN
116	1.000000	1.052305	7.36618e+06	-44439.1	955.818	-29776.3	0.000000	0.000000	7.053186	-0.072813	NaN	0.000000	0.001697	0.001734	28.0814	0.097679	0.001979	49.3582	-148.187	12.1814	-0.038888	1.050917	-0.041161	-0.042549	-0.072813	49.3582	-0.040055	-0.045396	1.603963	NaN
116	1.000000	1.062292	7.36618e+06	-44439.1	955.819	-29776.3	0.000000	0.000000	7.063177	0.033091	NaN	0.000000	0.001680	0.001745	28.1116	0.051934	0.001987	26.1333	-173.651	-162.683	-0.042526	1.060963	-0.031175	-0.032503	0.033091	26.1333	-0.032124	-0.026422	-1.252421	NaN
116	1.000000	1.072288	7.36618e+06	-44439.1	955.819	-29776.3	0.000000	0.000000	7.073168	-0.076804	NaN	0.000000	0.001647	0.001732	28.1255	0.063600	0.002016	31.546	147.068	16.7642	-0.013658	1.070949	-0.021179	-0.022518	-0.076804	31.546	-0.019353	-0.012093	6.351090	NaN
116	1.000000	1.082292	7.36618e+06	-44439.1	955.819	-29776.3	0.000000	0.000000	7.083174	-0.024007	NaN	0.000000	0.001613	0.001748	28.0876	0.127778	0.001938	65.9494	-135.366	-162.605	-0.119923	1.080971	-0.011175	-0.012496	-0.024007	65.9494	-0.010902	-0.006902	3.478239	NaN
116	1.000000	1.092312	7.36618e+06	-44439.1	955.818	-29776.3	0.000000	0.000000	7.093199	0.102431	NaN	0.000000	0.001622	0.001765	28.0826	0.324779	0.001889	171.937	7.389451	16.0603	0.006202	1.090946	-0.001155	-0.002521	0.102431	171.937	-0.001602	-0.001161	-88.2194	NaN
116	2.000000	1.101724	7.36618e+06	-44439.1	955.818	-29776.3	0.000000	0.000000	7.102970	8.836555	NaN	0.000000	0.001629	0.001742	28.1124	8.137351	0.001687	4823.6	11.5855	-173.448	7.698658	1.100933	0.008257	0.007467	8.836555	4823.6	0.006883	0.005919	1493.01	57284
116	2.000000	1.104451	7.36618e+06	-44439.1	955.819	-29776.3	0.000000	0.000000	7.105914	14.1065	NaN	0.000000	0.001611	0.001776	28.1271	11.2322	0.001801	6235.78	6.259281	6.765293	13.043	1.104059	0.010985	0.010593	14.1065	6235.78	0.009288	0.008401	1679.17	62158.8
116	2.000000	1.106926	7.36618e+06	-44439.1	955.819	-29776.3	0.000000	0.000000	7.108559	18.2159	NaN	0.000000	0.001671	0.001709	28.086	13.4511	0.001883	7142.09	8.640242	-173.981	18.1374	1.106555	0.013460	0.013089	18.2159	7142.09	0.011547	0.010952	1663.25	62352.3
116	2.000000	1.109384	7.36618e+06	-44439.1	955.818	-29776.3	0.000000	0.000000	7.111271	24.4167	NaN	0.000000	0.001660	0.001705	28.0805	15.1644	0.001653	9172.22	9.080231	1.694219	22.5897	1.108988	0.015917	0.015522	24.4167	9172.22	0.013921	0.013873	1759.99	71147.4
116	2.000000	1.111840	7.36618e+06	-44439.1	955.818	-29776.3	0.000000	0.000000	7.113960	30.1	NaN	0.000000	0.001630	0.001696	28.1122	17.2793	0.001723	10030.3	4.526925	-173.346	28.8417	1.111518	0.018373	0.018052	30.1	10030.3	0.016123	0.016812	1790.43	70677.9
116	2.000000	1.114397	7.36618e+06	-44439.1	955.818	-29776.3	0.000000	0.000000	7.116748	35.7168	NaN	0.000000	0.001627	0.001694	28.1271	20.6493	0.001861	11094.7	10.3151	-0.097540	36.1212	1.113975	0.020930	0.020508	35.7168	11094.7	0.018516	0.020264	1762.61	71208.4
116	2.000000	1.116871	7.36618e+06	-44439.1	955.818	-29776.3	0.000000	0.000000	7.119435	40.8968	NaN	0.000000	0.001608	0.001740	28.0877	23.4669	0.001886	12444.1	8.984529	-179.268	42.7579	1.116569	0.023404	0.023102	40.8968	12444.1	0.020939	0.024040	1701.23	73328.3
116	2.000000	1.119352	7.36618e+06	-44439.1	955.819	-29776.3	0.000000	0.000000	7.122407	52.817	NaN	0.000000	0.001590	0.001681	28.083	26.0013	0.001826	14239.6	6.584314	1.597317	50.9456	1.118897	0.025886	0.025430	52.817	14239.6	0.023104	0.027656	1909.77	78230.5
116	2.000000	1.121879	7.36618e+06	-44439.1	955.819	-29776.3	0.000000	0.000000	7.125167	58.5	NaN	0.000000	0.001621	0.001708	28.1135	27.8192	0.001682	16537.3	5.975367	-179.738	60.4004	1.121571	0.028413	0.028105	58.5	16537.3	0.025760	0.032412	1804.88	83923.5
116	2.000000	1.124368	7.36618e+06	-44439.1	955.819	-29776.3	0.000000	0.000000	7.128110	69.5334	NaN	0.000000	0.001602	0.001701	28.1284	30.4558	0.001730	17604.8	4.225800	0.635882	68.4737	1.124032	0.030902	0.030566	69.5334	17604.8	0.027939	0.036581	1900.82	84096.6
116	2.000000	1.126893	7.36618e+06	-44439.1	955.82	-29776.3	0.000000	0.000000	7.131193	83.1186	NaN	0.000000	0.001617	0.001683	28.0872	34.1565	0.001850	18465.2	6.924513	177.877	83.2155	1.126478	0.033427	0.033011	83.1186	18465.2	0.030051	0.040849	2034.79	83471.5
116	2.000000	1.129327	7.36618e+06	-44439.1	955.82	-29776.3	0.000000	0.000000	7.134222	97.5962	NaN	0.000000	0.001624	0.001697	28.0825	35.5983	0.001587	22435.2	4.283562	-1.257058	94.5941	1.128926	0.035861	0.035460	97.5962	22435.2	0.032598	0.046301	2107.86	95259.3
116	2.000000	1.131771	7.36618e+06	-44439.1	955.819	-29776.3	0.000000	0.000000	7.137192	110.392	NaN	0.000000	0.001629	0.001682	28.1116	38.3563	0.001801	21296.8	3.021250	-179.707	108.018	1.131450	0.038304	0.037984	110.392	21296.8	0.034417	0.050396	2190.48	86674.1
116	2.000000	1.134298	7.36618e+06	-44439.1	955.819	-29776.3	0.000000	0.000000	7.140449	128.16	NaN	0.000000	0.001605	0.001715	28.1279	41.0073	0.001789	22919.8	3.748844	-0.921536	124.625	1.133955	0.040831	0.040488	128.16	22919.8	0.036638	0.055628	2303.87	88784.7
116	2.000000	1.136908	7.36618e+06	-44439.1	955.819	-29776.3	0.000000	0.000000	7.143532	139.641	NaN	0.000000	0.001554	0.001697	28.0895	43.6151	0.001674	26046.9	3.479309	178.167	140.132	1.136525	0.043442	0.043058	139.641	26046.9	0.039421	0.062540	2232.82	95158.8
116	2.000000	1.139272	7.36618e+06	-44439.1	955.819	-29776.3	0.000000	0.000000	7.146681	158.761	NaN	0.000000	0.001572	0.001722	28.0832	46.1847	0.001723	26812.2	8.971550	-7.560761	153.208	1.138909	0.045806	0.045443	158.761	26812.2	0.041365	0.067603	2348.43	94215.8
116	2.000000	1.141728	7.36618e+06	-44439.1	955.818	-29776.3	0.000000	0.000000	7.149690	172.188	NaN	0.000000	0.001600	0.001692	28.1136	47.3806	0.001768	26805.4	0.450651	-178.394	168.602	1.141447	0.048262	0.047980	172.188	26805.4	0.043444	0.073232	2351.26	90499.2
116	2.000000	1.144253	7.36618e+06	-44439.1	955.818	-29776.3	0.000000	0.000000	7.153144	194.821	NaN	0.000000	0.001637	0.001705	28.1288	51.6181	0.001755	29406.5	5.768695	-4.618366	189.218	1.143875	0.050786	0.050409	194.821	29406.5	0.045817	0.079925	2437.56	95033.4
116	2.000000	1.146790	7.36618e+06	-44439.1	955.819	-29776.3	0.000000	0.000000	7.156501	214.779	NaN	0.000000	0.001656	0.001699	28.0859	55.0341	0.001881	29258.8	4.739345	176.487	212.616	1.146440	0.053323	0.052973	214.779	29258.8	0.047818	0.085787	2503.63	91268.1
116	2.000000	1.149198	7.36618e+06	-44439.1	955.82	-29776.3	0.000000	0.000000	7.159829	237.135	NaN	0.000000	0.001651	0.001711	28.0807	56.5026	0.001661	34021.9	7.755693	-8.219960	230.887	1.148930	0.055732	0.055463	237.135	34021.9	0.050504	0.093978	2523.29	101395
116	2.000000	1.151703	7.36618e+06	-44439.1	955.82	-29776.3	0.000000	0.000000	7.163187	257.903	NaN	0.000000	0.001656	0.001724	28.111	59.4973	0.001848	32201.6	6.876418	173.349	252.026	1.151314	0.058236	0.057848	257.903	32201.6	0.052230	0.099429	2593.83	93302.4
116	2.000000	1.154299	7.36618e+06	-44439.1	955.819	-29776.3	0.000000	0.000000	7.166693	280.039	NaN	0.000000	0.001698	0.001743	28.127	60.6157	0.001782	34012.7	3.911662	-4.163776	277.136	1.153835	0.060832	0.060369	280.039	34012.7	0.054657	0.107350	2608.65	94844.7
116	2.000000	1.156805	7.36618e+06	-44439.1	955.82	-29776.3	0.000000	0.000000	7.169954	298.392	NaN	0.000000	0.001740	0.001735	28.0874	64.0338	0.001733	36950.1	7.160199	171.372	297.15	1.156515	0.063338	0.063048	298.392	36950.1	0.057282	0.116241	2567	99016.8
116	2.000000	1.159331	7.36618e+06	-44439.1	955.819	-29776.3	0.000000	0.000000	7.173510	323.442	NaN	0.000000	0.001708	0.001692	28.0813	64.792	0.001764	36723.3	2.499848	-3.614491	321.674	1.158959	0.065865	0.065492	323.442	36723.3	0.059259	0.123165	2626.08	95602.8
116	2.000000	1.161875	7.36618e+06	-44439.1	955.819	-29776.3	0.000000	0.000000	7.176963	345.589	NaN	0.000000	0.001698	0.001727	28.1121	66.6301	0.001747	38139.5	2.164698	176.284	348.909	1.161577	0.068408	0.068111	345.589	38139.5	0.061612	0.131653	2625	96035.7
116	2.000000	1.164219	7.36618e+06	-44439.1	955.82	-29776.3	0.000000	0.000000	7.180457	373.563	NaN	0.000000	0.001712	0.001728	28.1282	69.3171	0.001780	38932.3	3.075372	-5.000147	369.437	1.163941	0.070752	0.070474	373.563	38932.3	0.063556	0.138867	2690.07	95451.8
116	2.000000	1.166787	7.36618e+06	-44439.1	955.819	-29776.3	0.000000	0.000000	7.184135	400.53	NaN	0.000000	0.001672	0.001755	28.0867	71.854	0.001778	40409	0.897001	177.582	400.218	1.166437	0.073321	0.072970	400.53	40409	0.065887	0.147760	2710.68	96044.5
116	2.000000	1.169251	7.36618e+06	-44439.1	955.82	-29776.3	0.000000	0.000000	7.187599	424.886	NaN	0.000000	0.001679	0.001727	28.0807	74.4589	0.001791	41582.5	3.589398	-5.580452	419.965	1.168870	0.075785	0.075404	424.886	41582.5	0.068121	0.156529	2714.42	96025.3
116	2.000000	1.171733	7.36618e+06	-44439.1	955.819	-29776.3	0.000000	0.000000	7.191225	452.713	NaN	0.000000	0.001688	0.001719	28.1108	76.6219	0.001882	40710	3.445987	175.184	450.577	1.171492	0.078266	0.078025	452.713	40710	0.069926	0.163787	2764.03	91904
116	2.000000	1.174256	7.36618e+06	-44439.1	955.82	-29776.3	0.000000	0.000000	7.194802	478.35	NaN	0.000000	0.001715	0.001722	28.1272	80.2266	0.001917	41850.8	5.810545	-7.885406	473.902	1.173814	0.080790	0.080347	478.35	41850.8	0.072217	0.173225	2761.44	91869.5
116	2.000000	1.176741	7.36618e+06	-44439.1	955.821	-29776.3	0.000000	0.000000	7.198588	510.026	NaN	0.000000	0.001685	0.001769	28.0882	80.4314	0.001832	43895	2.757070	175.478	509.375	1.176462	0.083274	0.082996	510.026	43895	0.074560	0.183129	2785.06	93715.2
116	2.000000	1.179273	7.36618e+06	-44439.1	955.821	-29776.3	0.000000	0.000000	7.202309	538.925	NaN	0.000000	0.001690	0.001773	28.0834	82.863	0.001806	45888	8.601451	-11.0354	534.249	1.178833	0.085807	0.085367	538.925	45888	0.076999	0.193717	2782.02	95255.1
116	2.000000	1.181636	7.36618e+06	-44439.1	955.82	-29776.3	0.000000	0.000000	7.204046	523.699	NaN	0.000000	0.001700	0.001781	28.1127	84.4913	0.001808	46723.6	1.144896	175.947	515.521	1.181387	0.088170	0.087920	523.699	46723.6	0.079763	0.206056	2541.54	94041
116	2.000000	1.184212	7.36618e+06	-44439.1	955.82	-29776.3	0.000000	0.000000	7.208417	567.377	NaN	0.000000	0.001667	0.001759	28.1296	87.0973	0.001884	46237.4	2.529335	-4.410726	562.26	1.183843	0.090745	0.090377	567.377	46237.4	0.081542	0.214183	2649.03	91279.8
116	2.000000	1.186951	7.36618e+06	-44439.1	955.819	-29776.3	0.000000	0.000000	7.211665	579.744	NaN	0.000000	0.001705	0.001729	28.0891	89.7699	0.001716	52304	5.062989	171.808	592.066	1.186488	0.093484	0.093022	579.744	52304	0.085171	0.231219	2507.33	99379.4
116	2.000000	1.189253	7.36618e+06	-44439.1	955.819	-29776.3	0.000000	0.000000	7.215361	613.646	NaN	0.000000	0.001689	0.001731	28.082	90.2064	0.001885	47854.2	1.455321	-3.372867	610.689	1.188776	0.095787	0.095309	613.646	47854.2	0.086169	0.236012	2600.06	89996.6
116	2.000000	1.191682	7.36618e+06	-44439.1	955.82	-29776.3	0.000000	0.000000	7.218973	642.454	NaN	0.000000	0.001671	0.001765	28.1107	92.3642	0.001729	53426.4	5.376763	171.304	639.969	1.191401	0.098215	0.097934	642.454	53426.4	0.089196	0.250826	2561.35	97463.6
116	2.000000	1.194210	7.36618e+06	-44439.1	955.819	-29776.3	0.000000	0.000000	7.222299	661.871	NaN	0.000000	0.001657	0.001741	28.1286	95.1196	0.001737	54751.3	4.477632	-8.066723	655.684	1.193873	0.100743	0.100406	661.871	54751.3	0.091677	0.263278	2513.97	97490.2
116	2.000000	1.196748	7.36618e+06	-44439.1	955.82	-29776.3	0.000000	0.000000	7.225905	687.842	NaN	0.000000	0.001678	0.001735	28.0905	97.9826	0.001846	53080.2	3.480599	173.269	685.681	1.196501	0.103281	0.103035	687.842	53080.2	0.093562	0.272933	2520.19	92827.9
116	2.000000	1.199215	7.36618e+06	-44439.1	955.819	-29776.3	0.000000	0.000000	7.229594	717.554	NaN	0.000000	0.001677	0.001777	28.0816	100.105	0.001941	51585.6	3.577271	-6.493009	712.68	1.198866	0.105749	0.105400	717.554	51585.6	0.095316	0.282060	2543.98	88742.4
116	2.000000	1.200229	7.36618e+06	-44439.1	955.82	-29776.3	0.000000	0.000000	7.230878	724.135	NaN	0.000000	0.001661	0.001777	28.1294	101.865	0.001793	56820.3	3.682066	-7.390744	721.178	1.199953	0.106762	0.106487	724.135	56820.3	0.097204	0.292040	2479.57	96062.9