File: remote_trans/data/nanoindenter/0828-1/data/Data_2025-08-06,11h17m57s/2025-07-22_16-23-58_1_1120.txt
2025-07-22, 16:23:58, 1
Index	Phase	Displacement	Time	Pos X	Pos Y	Pos Z	Rot A	Rot B	Piezo Z	Force A	Force B	Gripper	Voltage A	Voltage B	Temperature	Amplitude force	Amplitude pos	Stiffness	Phase shift	Phase excitation	Force A raw	Displacement raw	HMax	HMax raw	Real Force	Real Stiffness	Contact Depth	Area	Hardness	Reduced Mod.
[#]	[#]	[um]	[s]	[um]	[um]	[um]	[m°]	[m°]	[um]	[uN]	[uN]	[V]	[V]	[V]	[°C]	[uN]	[um]	[N/m]	[°]	[°]	[uN]	[um]	[um]	[um]	[uN]	[N/m]	[um]	[um^2]	[MPa]	[MPa]
1120	1.000000	0.002098	7.37601e+06	-56139.1	1055.82	-29739.7	0.000000	0.000000	6.002795	0.056879	NaN	0.000000	0.001580	0.001712	28.0831	0.062531	0.001034	60.4795	67.4131	-159.401	-0.006716	0.000861	-1.080111	-1.081348	0.056879	60.4795	-1.080816	-2.770005E+14	-2.053398E-16	NaN
1120	1.000000	0.010057	7.37601e+06	-56139.1	1055.82	-29739.7	0.000000	0.000000	6.010750	-0.008975	NaN	0.000000	0.001617	0.001702	28.0828	0.054743	0.000991	55.2529	152.948	-157.919	-0.037761	0.008729	-1.072152	-1.073480	-0.008975	55.2529	-1.072031	-2.110910E+14	4.251721E-17	NaN
1120	1.000000	0.018039	7.37601e+06	-56139.1	1055.82	-29739.7	0.000000	0.000000	6.018733	-0.007552	NaN	0.000000	0.001565	0.001702	28.083	0.080378	0.001706	47.1247	151.537	-164.9	-0.075888	0.016740	-1.064170	-1.065470	-0.007552	47.1247	-1.064050	-1.649078E+14	4.579690E-17	NaN
1120	1.000000	0.026071	7.37601e+06	-56139.1	1055.82	-29739.7	0.000000	0.000000	6.026763	-0.046043	NaN	0.000000	0.001602	0.001705	28.0831	0.136124	0.001857	73.3121	-88.2273	-166.32	-0.035901	0.024755	-1.056138	-1.057454	-0.046043	73.3121	-1.055667	-1.272297E+14	3.618896E-16	NaN
1120	1.000000	0.034061	7.37601e+06	-56139.1	1055.82	-29739.7	0.000000	0.000000	6.034754	-7.774406E-5	NaN	0.000000	0.001555	0.001666	28.0829	0.041646	0.001867	22.3038	-133.037	-166.286	-0.022352	0.032760	-1.048148	-1.049449	-7.774406E-5	22.3038	-1.048146	-1.008065E+14	7.712207E-19	NaN
1120	1.000000	0.042037	7.37601e+06	-56139.1	1055.82	-29739.7	0.000000	0.000000	6.042730	-0.012843	NaN	0.000000	0.001552	0.001675	28.0828	0.074223	0.001942	38.2276	-157.105	-165.482	0.049354	0.040745	-1.040172	-1.041464	-0.012843	38.2276	-1.039920	-7.814422E+13	1.643481E-16	NaN
1120	1.000000	0.050076	7.37601e+06	-56139.1	1055.82	-29739.7	0.000000	0.000000	6.050772	0.053814	NaN	0.000000	0.001585	0.001691	28.0829	0.057052	0.002090	27.2949	-48.0944	-164.459	0.011881	0.048736	-1.032134	-1.033473	0.053814	27.2949	-1.033612	-6.427839E+13	-8.371985E-16	NaN
1120	1.000000	0.058060	7.37601e+06	-56139.1	1055.82	-29739.7	0.000000	0.000000	6.058754	0.015947	NaN	0.000000	0.001585	0.001710	28.0832	0.115913	0.002052	56.482	32.2187	-164.755	0.053090	0.056704	-1.024150	-1.025505	0.015947	56.482	-1.024361	-4.826462E+13	-3.304032E-16	NaN
1120	1.000000	0.066058	7.37601e+06	-56139.1	1055.82	-29739.7	0.000000	0.000000	6.066753	0.011009	NaN	0.000000	0.001592	0.001733	28.0829	0.053459	0.002137	25.0118	39.3194	-162.07	0.005803	0.064721	-1.016151	-1.017488	0.011009	25.0118	-1.016481	-3.780926E+13	-2.911707E-16	NaN
1120	1.000000	0.074059	7.37601e+06	-56139.1	1055.82	-29739.7	0.000000	0.000000	6.074755	0.042618	NaN	0.000000	0.001570	0.001715	28.0827	0.076598	0.002024	37.8385	84.5198	-165.26	0.010001	0.072792	-1.008150	-1.009417	0.042618	37.8385	-1.008994	-2.998106E+13	-1.421512E-15	NaN
1120	1.000000	0.082094	7.37601e+06	-56139.1	1055.82	-29739.7	0.000000	0.000000	6.082788	0.003989	NaN	0.000000	0.001543	0.001711	28.0826	0.102901	0.002058	49.9969	-61.627	-166.418	0.043144	0.080790	-1.000115	-1.001419	0.003989	49.9969	-1.000175	-2.281015E+13	-1.749001E-16	NaN
1120	1.000000	0.090084	7.37601e+06	-56139.1	1055.82	-29739.7	0.000000	0.000000	6.090774	-0.086098	NaN	0.000000	0.001569	0.001704	28.0825	0.196944	0.001937	101.678	93.4568	-167.161	-0.035722	0.088754	-0.992125	-0.993455	-0.086098	101.678	-0.991490	-1.742533E+13	4.940987E-15	NaN
1120	1.000000	0.098036	7.37601e+06	-56139.1	1055.82	-29739.7	0.000000	0.000000	6.098731	0.029592	NaN	0.000000	0.001569	0.001701	28.0839	0.136671	0.001977	69.1147	175.29	-166.811	-0.033257	0.096766	-0.984173	-0.985443	0.029592	69.1147	-0.984494	-1.402648E+13	-2.109697E-15	NaN
1120	1.000000	0.106061	7.37601e+06	-56139.1	1055.82	-29739.7	0.000000	0.000000	6.106757	0.041834	NaN	0.000000	0.001567	0.001693	28.0838	0.061653	0.001865	33.0606	-77.8309	-165.705	0.136922	0.104735	-0.976148	-0.977474	0.041834	33.0606	-0.977097	-1.115047E+13	-3.751812E-15	NaN
1120	1.000000	0.114080	7.37601e+06	-56139.1	1055.82	-29739.7	0.000000	0.000000	6.114776	0.053333	NaN	0.000000	0.001549	0.001714	28.0837	0.102845	0.002019	50.926	55.146	-163.062	0.124976	0.112771	-0.968129	-0.969438	0.053333	50.926	-0.968914	-8.650331E+12	-6.165447E-15	NaN
1120	1.000000	0.122078	7.37601e+06	-56139.1	1055.82	-29739.7	0.000000	0.000000	6.122774	0.068618	NaN	0.000000	0.001569	0.001707	28.0841	0.096367	0.002120	45.4502	76.0618	-163.969	0.016029	0.120779	-0.960131	-0.961430	0.068618	45.4502	-0.961264	-6.821907E+12	-1.005845E-14	NaN
1120	1.000000	0.130073	7.37601e+06	-56139.1	1055.82	-29739.7	0.000000	0.000000	6.130767	0.011054	NaN	0.000000	0.001580	0.001715	28.0838	0.084845	0.002085	40.6858	146.83	-161.073	0.030643	0.128732	-0.952136	-0.953477	0.011054	40.6858	-0.952340	-5.171161E+12	-2.137596E-15	NaN
1120	1.000000	0.138071	7.37601e+06	-56139.1	1055.82	-29739.7	0.000000	0.000000	6.138765	-0.008807	NaN	0.000000	0.001604	0.001662	28.0838	0.096661	0.001965	49.1835	-60.1808	-164.011	-0.006086	0.136752	-0.944138	-0.945457	-0.008807	49.1835	-0.944003	-3.991578E+12	2.206504E-15	NaN
1120	1.000000	0.146064	7.37601e+06	-56139.1	1055.82	-29739.7	0.000000	0.000000	6.146763	0.124508	NaN	0.000000	0.001573	0.001698	28.0838	0.091889	0.001765	52.0732	76.5852	-164.178	0.027069	0.144757	-0.936145	-0.937452	0.124508	52.0732	-0.937939	-3.306175E+12	-3.765919E-14	NaN
1120	1.000000	0.154084	7.37601e+06	-56139.1	1055.82	-29739.7	0.000000	0.000000	6.154778	0.005042	NaN	0.000000	0.001569	0.001723	28.0842	0.131922	0.001928	68.4076	-68.4036	-165.031	0.041266	0.152770	-0.928125	-0.929439	0.005042	68.4076	-0.928180	-2.441367E+12	-2.065253E-15	NaN
1120	1.000000	0.162085	7.37601e+06	-56139.1	1055.82	-29739.7	0.000000	0.000000	6.162777	-0.037126	NaN	0.000000	0.001554	0.001722	28.0842	0.048284	0.002097	23.0281	148.493	-165.239	0.066448	0.160811	-0.920125	-0.921398	-0.037126	23.0281	-0.918915	-1.830465E+12	2.028236E-14	NaN
1120	1.000000	0.170080	7.37601e+06	-56139.1	1055.82	-29739.7	0.000000	0.000000	6.170774	0.015899	NaN	0.000000	0.001562	0.001694	28.0841	0.068457	0.002059	33.2479	178.682	-162.151	0.055337	0.168811	-0.912129	-0.913398	0.015899	33.2479	-0.912488	-1.498885E+12	-1.060748E-14	NaN
1120	1.000000	0.178115	7.37601e+06	-56139.1	1055.82	-29739.7	0.000000	0.000000	6.178809	0.002658	NaN	0.000000	0.001556	0.001735	28.0842	0.020189	0.002164	9.328771	-161.059	-164.075	0.022695	0.176824	-0.904094	-0.905385	0.002658	9.328771	-0.904308	-1.162161E+12	-2.287035E-15	NaN
1120	1.000000	0.186115	7.37601e+06	-56139.1	1055.82	-29739.7	0.000000	0.000000	6.186806	-0.054010	NaN	0.000000	0.001557	0.001720	28.0839	0.088745	0.001945	45.6372	144.675	-166.58	-0.044678	0.184818	-0.896094	-0.897391	-0.054010	45.6372	-0.895207	-8.755691E+11	6.168558E-14	NaN
1120	1.000000	0.194100	7.37601e+06	-56139.1	1055.82	-29739.7	0.000000	0.000000	6.194792	-0.045693	NaN	0.000000	0.001547	0.001691	28.0842	0.018325	0.001796	10.2039	-164.885	-168.354	-0.100985	0.192865	-0.888109	-0.889344	-0.045693	10.2039	-0.884751	-6.323412E+11	7.225983E-14	NaN
1120	1.000000	0.202105	7.37601e+06	-56139.1	1055.82	-29739.7	0.000000	0.000000	6.202798	-0.037601	NaN	0.000000	0.001574	0.001662	28.0841	0.018097	0.001994	9.076705	-84.6383	-164.413	-0.027692	0.200780	-0.880104	-0.881429	-0.037601	9.076705	-0.876997	-4.966988E+11	7.570171E-14	NaN
1120	1.000000	0.210096	7.37601e+06	-56139.1	1055.82	-29739.7	0.000000	0.000000	6.210789	-0.038143	NaN	0.000000	0.001538	0.001691	28.0842	0.057900	0.002106	27.4911	-177.093	-165.671	0.027079	0.208813	-0.872113	-0.873396	-0.038143	27.4911	-0.871072	-4.129990E+11	9.235580E-14	NaN
1120	1.000000	0.218124	7.37601e+06	-56139.1	1055.82	-29739.7	0.000000	0.000000	6.218819	0.043384	NaN	0.000000	0.001551	0.001684	28.0843	0.032980	0.002098	15.7213	-130.745	-166.468	-0.042124	0.216839	-0.864085	-0.865370	0.043384	15.7213	-0.866155	-3.543402E+11	-1.224348E-13	NaN
1120	1.000000	0.226141	7.37601e+06	-56139.1	1055.82	-29739.7	0.000000	0.000000	6.226832	-0.071879	NaN	0.000000	0.001563	0.001663	28.0839	0.005421	0.001907	2.842515	27.8445	-165.802	-0.094224	0.224863	-0.856068	-0.857346	-0.071879	2.842515	-0.837103	-1.432331E+11	5.018289E-13	NaN
1120	1.000000	0.234117	7.37601e+06	-56139.1	1055.82	-29739.7	0.000000	0.000000	6.234811	0.005613	NaN	0.000000	0.001533	0.001722	28.0827	0.005301	0.001906	2.781952	146.302	-165.593	-0.037280	0.232895	-0.848092	-0.849314	0.005613	2.781952	-0.849606	-2.115432E+11	-2.653432E-14	NaN
1120	1.000000	0.242130	7.37601e+06	-56139.1	1055.82	-29739.7	0.000000	0.000000	6.242829	0.121468	NaN	0.000000	0.001550	0.001683	28.0827	0.046839	0.001987	23.5674	53.8998	-162.107	0.080264	0.240822	-0.840079	-0.841387	0.121468	23.5674	-0.843945	-1.773086E+11	-6.850645E-13	NaN
1120	1.000000	0.250130	7.37601e+06	-56139.1	1055.82	-29739.7	0.000000	0.000000	6.250824	0.004900	NaN	0.000000	0.001578	0.001688	28.083	0.055000	0.001956	28.1215	91.1233	-165.769	0.060431	0.248833	-0.832079	-0.833376	0.004900	28.1215	-0.832210	-1.229518E+11	-3.984964E-14	NaN
1120	1.000000	0.258122	7.37601e+06	-56139.1	1055.82	-29739.7	0.000000	0.000000	6.258817	0.017966	NaN	0.000000	0.001582	0.001678	28.0827	0.081101	0.002018	40.1838	72.6612	-162.305	-0.009782	0.256827	-0.824087	-0.825382	0.017966	40.1838	-0.824422	-9.642035E+10	-1.863298E-13	NaN
1120	1.000000	0.266155	7.37601e+06	-56139.1	1055.82	-29739.7	0.000000	0.000000	6.266849	-0.006519	NaN	0.000000	0.001601	0.001691	28.0826	0.020918	0.001933	10.8189	-162.341	-166.225	0.019433	0.264858	-0.816054	-0.817351	-0.006519	10.8189	-0.815602	-7.320933E+10	8.904990E-14	NaN
1120	1.000000	0.274129	7.37601e+06	-56139.1	1055.82	-29739.7	0.000000	0.000000	6.274821	-0.025310	NaN	0.000000	0.001609	0.001672	28.0827	0.044897	0.002030	22.1129	130.56	-165.757	-0.041579	0.272853	-0.808080	-0.809357	-0.025310	22.1129	-0.807222	-5.634798E+10	4.491649E-13	NaN
1120	1.000000	0.282146	7.37601e+06	-56139.1	1055.82	-29739.7	0.000000	0.000000	6.282843	0.056612	NaN	0.000000	0.001606	0.001685	28.0827	0.084207	0.002032	41.4383	-38.6159	-160.042	0.080043	0.280873	-0.800063	-0.801336	0.056612	41.4383	-0.801087	-4.651809E+10	-1.216986E-12	NaN
1120	1.000000	0.290143	7.37601e+06	-56139.1	1055.82	-29739.7	0.000000	0.000000	6.290838	0.042017	NaN	0.000000	0.001584	0.001673	28.0828	0.065347	0.001901	34.3666	-95.3144	-164.004	-0.037748	0.288809	-0.792066	-0.793400	0.042017	34.3666	-0.792983	-3.610737E+10	-1.163659E-12	NaN
1120	1.000000	0.298158	7.37601e+06	-56139.1	1055.82	-29739.7	0.000000	0.000000	6.298853	0.020427	NaN	0.000000	0.001590	0.001688	28.0827	0.051114	0.002064	24.7608	34.6889	-168.929	0.088430	0.296900	-0.784051	-0.785310	0.020427	24.7608	-0.784670	-2.784068E+10	-7.337109E-13	NaN
1120	1.000000	0.306137	7.37601e+06	-56139.1	1055.82	-29739.7	0.000000	0.000000	6.306831	-0.005025	NaN	0.000000	0.001590	0.001679	28.0823	0.128123	0.001891	67.7572	66.3658	-165.749	0.053104	0.304854	-0.776072	-0.777355	-0.005025	67.7572	-0.776016	-2.123682E+10	2.366013E-13	NaN
1120	1.000000	0.314164	7.37601e+06	-56139.1	1055.82	-29739.7	0.000000	0.000000	6.314856	-0.053999	NaN	0.000000	0.001591	0.001692	28.0827	0.068032	0.002001	33.9938	92.0377	-163.529	0.013031	0.312827	-0.768045	-0.769382	-0.053999	33.9938	-0.766853	-1.594105E+10	3.387402E-12	NaN
1120	1.000000	0.322165	7.37601e+06	-56139.1	1055.82	-29739.7	0.000000	0.000000	6.322857	-0.028906	NaN	0.000000	0.001569	0.001688	28.0823	0.024589	0.001978	12.4312	-131.034	-161.588	0.012229	0.320893	-0.760044	-0.761316	-0.028906	12.4312	-0.758300	-1.219491E+10	2.370307E-12	NaN
1120	1.000000	0.330156	7.37601e+06	-56139.1	1055.82	-29739.7	0.000000	0.000000	6.330851	0.032469	NaN	0.000000	0.001591	0.001688	28.0826	0.108319	0.001989	54.4633	-117.494	-166.52	-0.018892	0.328851	-0.752053	-0.753359	0.032469	54.4633	-0.752500	-1.016844E+10	-3.193118E-12	NaN
1120	1.000000	0.338183	7.37601e+06	-56139.1	1055.82	-29739.7	0.000000	0.000000	6.338876	-0.026868	NaN	0.000000	0.001563	0.001693	28.0825	0.088561	0.002043	43.343	57.4936	-163.391	-0.005986	0.336819	-0.744026	-0.745390	-0.026868	43.343	-0.743561	-7.683502E+9	3.496868E-12	NaN
1120	1.000000	0.346178	7.37601e+06	-56139.1	1055.82	-29739.7	0.000000	0.000000	6.346872	-0.005891	NaN	0.000000	0.001575	0.001660	28.0827	0.044948	0.001917	23.4505	83.9481	-164.11	0.015222	0.344863	-0.736031	-0.737346	-0.005891	23.4505	-0.735843	-6.031461E+9	9.766303E-13	NaN
1120	1.000000	0.354174	7.37601e+06	-56139.1	1055.82	-29739.7	0.000000	0.000000	6.354870	0.036636	NaN	0.000000	0.001587	0.001668	28.0829	0.059025	0.002075	28.4411	-44.2055	-165.98	0.039886	0.352885	-0.728035	-0.729324	0.036636	28.4411	-0.729001	-4.866193E+9	-7.528763E-12	NaN
1120	1.000000	0.362217	7.37601e+06	-56139.1	1055.82	-29739.7	0.000000	0.000000	6.362910	-0.015290	NaN	0.000000	0.001615	0.001681	28.0826	0.133577	0.001967	67.912	-81.9193	-164.958	-0.096117	0.360886	-0.719992	-0.721323	-0.015290	67.912	-0.719824	-3.648104E+9	4.191181E-12	NaN
1120	1.000000	0.370168	7.37601e+06	-56139.1	1055.82	-29739.7	0.000000	0.000000	6.370865	0.070838	NaN	0.000000	0.001588	0.001638	28.0839	0.075412	0.002034	37.0823	-166.781	-162.413	0.097585	0.368804	-0.712041	-0.713405	0.070838	37.0823	-0.713473	-2.988439E+9	-2.370410E-11	NaN
1120	1.000000	0.378197	7.37601e+06	-56139.1	1055.82	-29739.7	0.000000	0.000000	6.378892	0.014839	NaN	0.000000	0.001571	0.001681	28.0839	0.074179	0.002062	35.9682	-137.582	-165.066	0.019064	0.376885	-0.704012	-0.705324	0.014839	35.9682	-0.704321	-2.241478E+9	-6.620158E-12	NaN
1120	1.000000	0.386199	7.37601e+06	-56139.1	1055.82	-29739.7	0.000000	0.000000	6.386892	-0.018294	NaN	0.000000	0.001594	0.001677	28.084	0.031400	0.002005	15.6574	-29.7199	-164.843	0.003552	0.384915	-0.696010	-0.697294	-0.018294	15.6574	-0.695134	-1.679043E+9	1.089554E-11	NaN
1120	1.000000	0.394172	7.37601e+06	-56139.1	1055.82	-29739.7	0.000000	0.000000	6.394868	0.042962	NaN	0.000000	0.001585	0.001668	28.0841	0.093976	0.001958	48.0052	-41.2735	-160.849	0.012635	0.392908	-0.688037	-0.689301	0.042962	48.0052	-0.688708	-1.371707E+9	-3.132042E-11	NaN
1120	1.000000	0.402201	7.37601e+06	-56139.1	1055.82	-29739.7	0.000000	0.000000	6.402894	-0.010947	NaN	0.000000	0.001576	0.001653	28.084	0.065431	0.002019	32.4043	67.5731	-164.997	0.081938	0.400884	-0.680008	-0.681325	-0.010947	32.4043	-0.679755	-1.034796E+9	1.057843E-11	NaN
1120	1.000000	0.410223	7.37601e+06	-56139.1	1055.82	-29739.7	0.000000	0.000000	6.410918	0.029466	NaN	0.000000	0.001628	0.001675	28.0842	0.077538	0.001856	41.773	-34.7689	-167.143	-0.021135	0.408871	-0.671986	-0.673338	0.029466	41.773	-0.672515	-8.237773E+8	-3.576910E-11	NaN
1120	1.000000	0.418219	7.37601e+06	-56139.1	1055.82	-29739.7	0.000000	0.000000	6.418912	0.002161	NaN	0.000000	0.001562	0.001684	28.0841	0.036377	0.001994	18.2443	92.7532	-164.664	0.043232	0.416852	-0.663991	-0.665357	0.002161	18.2443	-0.664079	-6.314478E+8	-3.421592E-12	NaN
1120	1.000000	0.426230	7.37601e+06	-56139.1	1055.82	-29739.7	0.000000	0.000000	6.426925	0.015899	NaN	0.000000	0.001595	0.001728	28.0841	0.175260	0.001960	89.4354	36.1043	-164.628	0.060352	0.424927	-0.655979	-0.657282	0.015899	89.4354	-0.656112	-4.911389E+8	-3.237185E-11	NaN
1120	1.000000	0.434233	7.37601e+06	-56139.1	1055.82	-29739.7	0.000000	0.000000	6.434925	-0.037992	NaN	0.000000	0.001562	0.001705	28.084	0.112796	0.002097	53.7986	-121.762	-165.343	0.017622	0.432891	-0.647977	-0.649318	-0.037992	53.7986	-0.647447	-3.736225E+8	1.016842E-10	NaN
1120	1.000000	0.442234	7.37601e+06	-56139.1	1055.82	-29739.7	0.000000	0.000000	6.442930	0.056250	NaN	0.000000	0.001605	0.001737	28.0843	0.129390	0.002059	62.8295	-77.2646	-167.277	0.073191	0.440873	-0.639975	-0.641336	0.056250	62.8295	-0.640646	-3.014105E+8	-1.866241E-10	NaN
1120	1.000000	0.450234	7.37601e+06	-56139.1	1055.82	-29739.7	0.000000	0.000000	6.450928	0.005769	NaN	0.000000	0.001638	0.001696	28.0843	0.054137	0.001951	27.7508	105.3	-165.948	-0.033028	0.448934	-0.631975	-0.633275	0.005769	27.7508	-0.632131	-2.302958E+8	-2.505024E-11	NaN
1120	1.000000	0.458229	7.37601e+06	-56139.1	1055.82	-29739.7	0.000000	0.000000	6.458924	0.026996	NaN	0.000000	0.001595	0.001721	28.0838	0.093864	0.001864	50.3475	-9.122752	-167.15	-0.057811	0.456902	-0.623980	-0.625307	0.026996	50.3475	-0.624382	-1.802422E+8	-1.497751E-10	NaN
1120	1.000000	0.466237	7.37601e+06	-56139.1	1055.82	-29739.7	0.000000	0.000000	6.466927	-0.085203	NaN	0.000000	0.001591	0.001706	28.0843	0.083924	0.001967	42.668	-57.7316	-167.306	-0.053876	0.464910	-0.615972	-0.617299	-0.085203	42.668	-0.614475	-1.317245E+8	6.468312E-10	NaN
1120	1.000000	0.474231	7.37601e+06	-56139.1	1055.82	-29739.7	0.000000	0.000000	6.474925	0.012791	NaN	0.000000	0.001602	0.001746	28.0841	0.105454	0.002186	48.2448	-20.6736	-163.751	0.096385	0.472973	-0.607978	-0.609236	0.012791	48.2448	-0.608177	-1.079024E+8	-1.185440E-10	NaN
1120	1.000000	0.482226	7.37601e+06	-56139.1	1055.82	-29739.7	0.000000	0.000000	6.482922	0.049875	NaN	0.000000	0.001605	0.001730	28.0843	0.081023	0.001900	42.6523	126.43	-165.54	0.027201	0.480955	-0.599983	-0.601254	0.049875	42.6523	-0.600860	-8.556566E+7	-5.828813E-10	NaN
1120	1.000000	0.490231	7.37601e+06	-56139.1	1055.82	-29739.7	0.000000	0.000000	6.490928	0.075398	NaN	0.000000	0.001592	0.001752	28.0842	0.099302	0.001941	51.1515	-45.1589	-164.952	0.094528	0.488915	-0.591978	-0.593294	0.075398	51.1515	-0.593083	-6.686059E+7	-1.127691E-9	NaN
1120	1.000000	0.498241	7.37601e+06	-56139.1	1055.82	-29739.7	0.000000	0.000000	6.498935	-0.007249	NaN	0.000000	0.001587	0.001731	28.0842	0.092867	0.001935	47.9818	75.2648	-165.358	0.025294	0.496955	-0.583968	-0.585255	-0.007249	47.9818	-0.583854	-4.987823E+7	1.453298E-10	NaN
1120	1.000000	0.506238	7.37601e+06	-56139.1	1055.82	-29739.7	0.000000	0.000000	6.506932	0.014471	NaN	0.000000	0.001569	0.001722	28.0832	0.029492	0.002030	14.5269	8.489367	-165.332	0.089111	0.504900	-0.575971	-0.577309	0.014471	14.5269	-0.576718	-3.975812E+7	-3.639827E-10	NaN
1120	1.000000	0.514240	7.37601e+06	-56139.1	1055.82	-29739.7	0.000000	0.000000	6.514935	0.027577	NaN	0.000000	0.001569	0.001729	28.0828	0.027294	0.001954	13.9686	-171.936	-164.984	0.094490	0.512968	-0.567969	-0.569241	0.027577	13.9686	-0.569449	-3.155166E+7	-8.740345E-10	NaN
1120	1.000000	0.522280	7.37601e+06	-56139.1	1055.82	-29739.7	0.000000	0.000000	6.522973	-0.001543	NaN	0.000000	0.001577	0.001726	28.0827	0.027590	0.002009	13.7363	-7.139622	-165.644	0.075047	0.520957	-0.559929	-0.561252	-0.001543	13.7363	-0.559845	-2.323999E+7	6.639522E-11	NaN
1120	1.000000	0.530259	7.37601e+06	-56139.1	1055.82	-29739.7	0.000000	0.000000	6.530952	-0.014980	NaN	0.000000	0.001566	0.001715	28.0826	0.070060	0.002082	33.6548	-68.9259	-161.184	0.017816	0.528963	-0.551950	-0.553247	-0.014980	33.6548	-0.551617	-1.787910E+7	8.378398E-10	NaN
1120	1.000000	0.538249	7.37601e+06	-56139.1	1055.82	-29739.7	0.000000	0.000000	6.538943	-0.004033	NaN	0.000000	0.001566	0.001690	28.0829	0.079547	0.001956	40.676	-74.5555	-163.537	0.072783	0.536956	-0.543960	-0.545253	-0.004033	40.676	-0.543886	-1.397121E+7	2.886474E-10	NaN
1120	1.000000	0.546258	7.37601e+06	-56139.1	1055.82	-29739.7	0.000000	0.000000	6.546950	-0.041232	NaN	0.000000	0.001567	0.001688	28.0831	0.069104	0.002039	33.8917	169.412	-165.437	-0.082981	0.544906	-0.535951	-0.537303	-0.041232	33.8917	-0.535039	-1.053244E+7	3.914723E-9	NaN
1120	1.000000	0.554266	7.37601e+06	-56139.1	1055.82	-29739.7	0.000000	0.000000	6.554959	-0.011633	NaN	0.000000	0.001578	0.001685	28.0828	0.084172	0.002045	41.1502	53.1123	-165.922	0.007214	0.552925	-0.527943	-0.529284	-0.011633	41.1502	-0.527731	-8.33806e+06	1.395183E-9	NaN
1120	1.000000	0.562275	7.37601e+06	-56139.1	1055.82	-29739.7	0.000000	0.000000	6.562970	0.042587	NaN	0.000000	0.001570	0.001748	28.0829	0.033643	0.002015	16.6965	32.0686	-165.275	0.077667	0.560923	-0.519934	-0.521286	0.042587	16.6965	-0.521847	-6.90695e+06	-6.165880E-9	NaN
1120	1.000000	0.570303	7.37601e+06	-56139.1	1055.82	-29739.7	0.000000	0.000000	6.571000	0.081734	NaN	0.000000	0.001614	0.001753	28.0828	0.052009	0.002145	24.2428	-20.3123	-164.644	0.067060	0.568922	-0.511906	-0.513287	0.081734	24.2428	-0.514435	-5.44707e+06	-1.500509E-8	NaN
1120	1.000000	0.578282	7.37601e+06	-56139.1	1055.82	-29739.7	0.000000	0.000000	6.578976	-0.003789	NaN	0.000000	0.001575	0.001719	28.0826	0.141211	0.001991	70.9387	111.822	-160.963	0.012980	0.576950	-0.503927	-0.505259	-0.003789	70.9387	-0.503887	-3.88355e+06	9.757342E-10	NaN
1120	1.000000	0.586258	7.37601e+06	-56139.1	1055.82	-29739.7	0.000000	0.000000	6.586951	-0.043395	NaN	0.000000	0.001578	0.001726	28.0827	0.099977	0.001986	50.3359	90.9096	-164.214	-0.058887	0.585009	-0.495951	-0.497200	-0.043395	50.3359	-0.495304	-2.94768e+06	1.472177E-8	NaN
1120	1.000000	0.594257	7.37601e+06	-56139.1	1055.82	-29739.7	0.000000	0.000000	6.594952	0.035321	NaN	0.000000	0.001607	0.001698	28.0827	0.030425	0.001930	15.7632	155.836	-167.771	0.014323	0.592986	-0.487952	-0.489223	0.035321	15.7632	-0.489633	-2.45617e+06	-1.438056E-8	NaN
1120	1.000000	0.602296	7.37601e+06	-56139.1	1055.82	-29739.7	0.000000	0.000000	6.602989	-0.007168	NaN	0.000000	0.001550	0.001738	28.0828	0.034698	0.002004	17.311	13.943	-162.336	-0.040658	0.600991	-0.479913	-0.481218	-0.007168	17.311	-0.479603	-1.77815e+06	4.030884E-9	NaN
1120	1.000000	0.610295	7.37601e+06	-56139.1	1055.82	-29739.7	0.000000	0.000000	6.610988	-0.031334	NaN	0.000000	0.001573	0.001730	28.0823	0.044079	0.001962	22.465	-20.9937	-168.256	0.058204	0.609029	-0.471914	-0.473180	-0.031334	22.465	-0.470868	-1.34146e+06	2.335783E-8	NaN
1120	1.000000	0.618300	7.37601e+06	-56139.1	1055.82	-29739.7	0.000000	0.000000	6.618992	-0.023779	NaN	0.000000	0.001582	0.001685	28.0827	0.061781	0.002181	28.3276	-78.0352	-165.987	-0.013737	0.617006	-0.463910	-0.465203	-0.023779	28.3276	-0.463280	-1.04977e+06	2.265172E-8	NaN
1120	1.000000	0.626270	7.37601e+06	-56139.1	1055.82	-29739.7	0.000000	0.000000	6.626963	-0.001881	NaN	0.000000	0.001618	0.001708	28.0826	0.099179	0.002005	49.474	-77.8481	-163.46	-0.028720	0.625024	-0.455940	-0.457185	-0.001881	49.474	-0.455911	-827050	2.274557E-9	NaN
1120	1.000000	0.634294	7.37601e+06	-56139.1	1055.82	-29739.7	0.000000	0.000000	6.634990	0.037669	NaN	0.000000	0.001581	0.001765	28.0828	0.107670	0.001998	53.8994	-10.9657	-162.818	0.051366	0.633017	-0.447915	-0.449192	0.037669	53.8994	-0.448439	-649166	-5.802679E-8	NaN
1120	1.000000	0.642337	7.37601e+06	-56139.1	1055.82	-29739.7	0.000000	0.000000	6.643032	0.026046	NaN	0.000000	0.001613	0.001688	28.0834	0.038504	0.001902	20.2413	80.9711	-166.079	-0.064749	0.640977	-0.439872	-0.441232	0.026046	20.2413	-0.440837	-507201	-5.135198E-8	NaN
1120	1.000000	0.650311	7.37601e+06	-56139.1	1055.82	-29739.7	0.000000	0.000000	6.651007	0.052681	NaN	0.000000	0.001592	0.001706	28.0834	0.072396	0.002057	35.1911	-95.2663	-165.943	0.075778	0.649040	-0.431899	-0.433169	0.052681	35.1911	-0.433021	-393358	-1.339253E-7	NaN
1120	1.000000	0.658312	7.37601e+06	-56139.1	1055.82	-29739.7	0.000000	0.000000	6.659007	0.044939	NaN	0.000000	0.001564	0.001710	28.0838	0.116556	0.001875	62.1514	28.9256	-164.543	-0.010184	0.656968	-0.423898	-0.425241	0.044939	62.1514	-0.424440	-297405	-1.511032E-7	NaN
1120	1.000000	0.666311	7.37601e+06	-56139.1	1055.82	-29739.7	0.000000	0.000000	6.667005	0.019392	NaN	0.000000	0.001562	0.001677	28.0837	0.061336	0.002000	30.669	105.502	-167.08	0.027975	0.665059	-0.415898	-0.417150	0.019392	30.669	-0.416372	-228530	-8.485374E-8	NaN
1120	1.000000	0.674304	7.37601e+06	-56139.1	1055.82	-29739.7	0.000000	0.000000	6.674996	-0.035317	NaN	0.000000	0.001584	0.001684	28.0837	0.115485	0.002083	55.4412	65.7673	-165.392	-0.002217	0.673057	-0.407905	-0.409152	-0.035317	55.4412	-0.407428	-170532	2.070991E-7	NaN
1120	1.000000	0.682271	7.37601e+06	-56139.1	1055.82	-29739.7	0.000000	0.000000	6.682962	-0.057910	NaN	0.000000	0.001612	0.001736	28.0834	0.093621	0.002030	46.1253	41.7084	-166.205	-0.084679	0.681003	-0.399938	-0.401206	-0.057910	46.1253	-0.398997	-129325	4.477875E-7	NaN
1120	1.000000	0.690303	7.37601e+06	-56139.1	1055.82	-29739.7	0.000000	0.000000	6.691000	0.075142	NaN	0.000000	0.001609	0.001732	28.0843	0.030838	0.001975	15.612	78.5881	-166.465	0.028223	0.689013	-0.391906	-0.393196	0.075142	15.612	-0.395516	-115347	-6.514396E-7	NaN
1120	1.000000	0.698338	7.37601e+06	-56139.1	1055.82	-29739.7	0.000000	0.000000	6.699033	0.005733	NaN	0.000000	0.001599	0.001708	28.0837	0.057083	0.001996	28.6021	154.058	-163.963	-0.018544	0.697052	-0.383871	-0.385157	0.005733	28.6021	-0.384021	-78987.1	-7.257619E-8	NaN
1120	1.000000	0.706343	7.37601e+06	-56139.1	1055.82	-29739.7	0.000000	0.000000	6.707038	0.021765	NaN	0.000000	0.001608	0.001739	28.0832	0.025704	0.002023	12.7079	112.297	-161.945	-0.007813	0.705000	-0.375866	-0.377209	0.021765	12.7079	-0.377151	-62947.3	-3.457628E-7	NaN
1120	1.000000	0.714321	7.37601e+06	-56139.1	1055.82	-29739.7	0.000000	0.000000	6.715015	-0.007286	NaN	0.000000	0.001589	0.001700	28.0837	0.071561	0.002050	34.914	145.757	-168.871	-0.008370	0.712986	-0.367888	-0.369223	-0.007286	34.914	-0.367731	-46072.4	1.581465E-7	NaN
1120	1.000000	0.722347	7.37601e+06	-56139.1	1055.82	-29739.7	0.000000	0.000000	6.723041	0.011177	NaN	0.000000	0.001560	0.001681	28.0836	0.028864	0.002017	14.3117	130.229	-160.512	0.025509	0.720966	-0.359862	-0.361243	0.011177	14.3117	-0.360448	-36167.6	-3.090453E-7	NaN
1120	1.000000	0.730339	7.37601e+06	-56139.1	1055.82	-29739.7	0.000000	0.000000	6.731033	-0.012858	NaN	0.000000	0.001564	0.001688	28.0836	0.052900	0.002031	26.0436	136.802	-166.867	-0.052365	0.729030	-0.351870	-0.353179	-0.012858	26.0436	-0.351499	-26838.4	4.791064E-7	NaN
1120	1.000000	0.738336	7.37601e+06	-56139.1	1055.82	-29739.7	0.000000	0.000000	6.739031	0.027624	NaN	0.000000	0.001590	0.001711	28.0836	0.184154	0.001930	95.4201	-152.47	-164.866	0.085410	0.737050	-0.343873	-0.345159	0.027624	95.4201	-0.344090	-20946.7	-1.318780E-6	NaN
1120	1.000000	0.746379	7.37601e+06	-56139.1	1055.82	-29739.7	0.000000	0.000000	6.747072	-0.025157	NaN	0.000000	0.001623	0.001683	28.0837	0.057785	0.002091	27.64	176.697	-165.847	-0.010845	0.745069	-0.335830	-0.337140	-0.025157	27.64	-0.335147	-15514.4	1.621521E-6	NaN
1120	1.000000	0.754332	7.37601e+06	-56139.1	1055.82	-29739.7	0.000000	0.000000	6.755025	-0.020411	NaN	0.000000	0.001642	0.001692	28.0841	0.074114	0.001996	37.1306	138.233	-164.333	-0.089938	0.753023	-0.327877	-0.329186	-0.020411	37.1306	-0.327465	-11975.7	1.704388E-6	NaN
1120	1.000000	0.762364	7.37601e+06	-56139.1	1055.82	-29739.7	0.000000	0.000000	6.763057	-0.022067	NaN	0.000000	0.001639	0.001715	28.0837	0.108204	0.001949	55.5066	-156.469	-167.331	-0.011487	0.761030	-0.319845	-0.321180	-0.022067	55.5066	-0.319547	-9161.65	2.408579E-6	NaN
1120	1.000000	0.770372	7.37601e+06	-56139.1	1055.82	-29739.7	0.000000	0.000000	6.771067	0.004316	NaN	0.000000	0.001634	0.001757	28.084	0.078858	0.002004	39.3594	-12.3358	-165.129	-0.062175	0.769020	-0.311837	-0.313189	0.004316	39.3594	-0.311919	-7070.3	-6.104980E-7	NaN
1120	1.000000	0.778324	7.37601e+06	-56139.1	1055.82	-29739.7	0.000000	0.000000	6.779020	0.040005	NaN	0.000000	0.001685	0.001763	28.0831	0.122684	0.001900	64.5708	-145.465	-165.168	0.035338	0.777078	-0.303885	-0.305131	0.040005	64.5708	-0.304350	-5461.37	-7.325063E-6	NaN
1120	1.000000	0.786337	7.37601e+06	-56139.1	1055.82	-29739.7	0.000000	0.000000	6.787030	-0.028852	NaN	0.000000	0.001679	0.001729	28.0826	0.115684	0.001965	58.8619	-53.6984	-164.747	0.071959	0.785099	-0.295872	-0.297110	-0.028852	58.8619	-0.295504	-4032.92	7.154236E-6	NaN
1120	1.000000	0.794354	7.37601e+06	-56139.1	1055.82	-29739.7	0.000000	0.000000	6.795046	-0.044299	NaN	0.000000	0.001628	0.001720	28.0823	0.073029	0.001995	36.605	154.947	-167.521	-0.053759	0.793032	-0.287855	-0.289177	-0.044299	36.605	-0.286947	-3002.76	1.475271E-5	NaN
1120	1.000000	0.802351	7.37601e+06	-56139.1	1055.82	-29739.7	0.000000	0.000000	6.803045	0.002392	NaN	0.000000	0.001644	0.001725	28.0824	0.023910	0.002001	11.9486	-103.224	-162.601	-0.018533	0.801063	-0.279858	-0.281146	0.002392	11.9486	-0.280008	-2360.99	-1.013296E-6	NaN
1120	1.000000	0.810347	7.37601e+06	-56139.1	1055.82	-29739.7	0.000000	0.000000	6.811042	0.024145	NaN	0.000000	0.001623	0.001756	28.0826	0.168189	0.001956	85.9792	-102.683	-165.839	0.073573	0.809095	-0.271862	-0.273114	0.024145	85.9792	-0.272073	-1790.72	-1.348317E-5	NaN
1120	1.000000	0.818383	7.37601e+06	-56139.1	1055.82	-29739.7	0.000000	0.000000	6.819075	-0.028960	NaN	0.000000	0.001628	0.001751	28.0823	0.069869	0.002059	33.9254	-21.3492	-165.17	-0.060754	0.817060	-0.263826	-0.265149	-0.028960	33.9254	-0.263186	-1311.25	2.208585E-5	NaN
1120	1.000000	0.826378	7.37601e+06	-56139.1	1055.82	-29739.7	0.000000	0.000000	6.827071	-0.013249	NaN	0.000000	0.001583	0.001741	28.0825	0.060014	0.001942	30.9069	72.9886	-165.847	0.032883	0.825065	-0.255831	-0.257144	-0.013249	30.9069	-0.255510	-999.906	1.325031E-5	NaN
1120	1.000000	0.834366	7.37601e+06	-56139.1	1055.82	-29739.7	0.000000	0.000000	6.835059	-0.004479	NaN	0.000000	0.001607	0.001763	28.0822	0.006040	0.002008	3.007498	-32.0007	-164.476	-0.095332	0.833050	-0.247844	-0.249159	-0.004479	3.007498	-0.246727	-731.578	6.122890E-6	NaN
1120	1.000000	0.842384	7.37601e+06	-56139.1	1055.82	-29739.7	0.000000	0.000000	6.843081	0.063263	NaN	0.000000	0.001608	0.001758	28.0822	0.130451	0.001954	66.7694	178.868	-164.065	0.092775	0.841072	-0.239825	-0.241137	0.063263	66.7694	-0.240535	-586.02	-0.000108	NaN
1120	1.000000	0.850398	7.37601e+06	-56139.1	1055.82	-29739.7	0.000000	0.000000	6.851090	-0.029037	NaN	0.000000	0.001576	0.001753	28.0824	0.104594	0.001995	52.4158	-28.9455	-166.973	0.054089	0.849105	-0.231811	-0.233104	-0.029037	52.4158	-0.231396	-421.251	6.893003E-5	NaN
1120	1.000000	0.858377	7.37601e+06	-56139.1	1055.82	-29739.7	0.000000	0.000000	6.859073	0.056757	NaN	0.000000	0.001606	0.001744	28.0824	0.040732	0.002109	19.3147	-60.0134	-166.694	0.050219	0.857086	-0.223832	-0.225123	0.056757	19.3147	-0.226036	-346.562	-0.000164	NaN
1120	1.000000	0.866392	7.37601e+06	-56139.1	1055.82	-29739.7	0.000000	0.000000	6.867087	0.021369	NaN	0.000000	0.001646	0.001764	28.0827	0.054022	0.001925	28.0618	140.385	-163.727	-0.005564	0.865069	-0.215817	-0.217140	0.021369	28.0618	-0.216388	-243.119	-8.789479E-5	NaN
1120	1.000000	0.874390	7.37601e+06	-56139.1	1055.82	-29739.7	0.000000	0.000000	6.875084	-0.012901	NaN	0.000000	0.001616	0.001741	28.0824	0.005264	0.001987	2.649067	-151.195	-165.486	-0.033896	0.873099	-0.207819	-0.209110	-0.012901	2.649067	-0.204167	-154.154	8.368567E-5	NaN
1120	1.000000	0.882410	7.37601e+06	-56139.1	1055.82	-29739.7	0.000000	0.000000	6.883102	-0.037147	NaN	0.000000	0.001592	0.001766	28.0826	0.033820	0.002043	16.5556	109.187	-166.136	-0.013605	0.881132	-0.199799	-0.201078	-0.037147	16.5556	-0.198117	-122.66	0.000303	NaN
1120	1.000000	0.890417	7.37601e+06	-56139.1	1055.82	-29739.7	0.000000	0.000000	6.891112	0.019754	NaN	0.000000	0.001594	0.001758	28.0822	0.014681	0.002051	7.157862	124.872	-164.147	0.017204	0.889174	-0.191792	-0.193035	0.019754	7.157862	-0.193862	-104.311	-0.000189	NaN
1120	1.000000	0.898428	7.37601e+06	-56139.1	1055.82	-29739.7	0.000000	0.000000	6.899122	0.023927	NaN	0.000000	0.001593	0.001752	28.0821	0.093128	0.002062	45.1687	-82.6941	-165.963	-0.032518	0.897093	-0.183782	-0.185116	0.023927	45.1687	-0.184179	-71.8261	-0.000333	NaN
1120	1.000000	0.906379	7.37601e+06	-56139.1	1055.82	-29739.7	0.000000	0.000000	6.907073	0.010332	NaN	0.000000	0.001599	0.001754	28.0823	0.154318	0.001939	79.5816	-26.5511	-166.406	-0.049483	0.905082	-0.175831	-0.177127	0.010332	79.5816	-0.175928	-51.9888	-0.000199	NaN
1120	1.000000	0.914434	7.37601e+06	-56139.1	1055.82	-29739.7	0.000000	0.000000	6.915131	0.074841	NaN	0.000000	0.001604	0.001790	28.0826	0.126704	0.001921	65.9606	27.2783	-167.329	0.052537	0.913119	-0.167775	-0.169090	0.074841	65.9606	-0.168626	-38.8791	-0.001925	NaN
1120	1.000000	0.922399	7.37601e+06	-56139.1	1055.82	-29739.7	0.000000	0.000000	6.923092	-0.011148	NaN	0.000000	0.001627	0.001772	28.084	0.069921	0.002034	34.3824	30.3054	-166.529	-0.009453	0.921100	-0.159811	-0.161110	-0.011148	34.3824	-0.159567	-26.9336	0.000414	NaN
1120	1.000000	0.930424	7.37601e+06	-56139.1	1055.82	-29739.7	0.000000	0.000000	6.931117	-0.037818	NaN	0.000000	0.001615	0.001770	28.0834	0.023822	0.001907	12.4894	-52.616	-166.473	0.054860	0.929108	-0.151785	-0.153101	-0.037818	12.4894	-0.149514	-17.7472	0.002131	NaN
1120	1.000000	0.938420	7.37601e+06	-56139.1	1055.82	-29739.7	0.000000	0.000000	6.939113	0.001396	NaN	0.000000	0.001638	0.001748	28.0835	0.015409	0.001928	7.991770	73.4405	-165.692	0.073126	0.937085	-0.143790	-0.145124	0.001396	7.991770	-0.143921	-14.0012	-9.969696E-5	NaN
1120	1.000000	0.946405	7.37601e+06	-56139.1	1055.82	-29739.7	0.000000	0.000000	6.947098	-0.019419	NaN	0.000000	0.001602	0.001789	28.0835	0.129825	0.002017	64.3624	161.946	-169.012	-0.065615	0.945123	-0.135804	-0.137086	-0.019419	64.3624	-0.135578	-9.756750	0.001990	NaN
1120	1.000000	0.954458	7.37601e+06	-56139.1	1055.82	-29739.7	0.000000	0.000000	6.955152	0.008040	NaN	0.000000	0.001579	0.001762	28.0834	0.069120	0.002092	33.0347	-32.8673	-166.411	0.057108	0.953148	-0.127751	-0.129061	0.008040	33.0347	-0.127934	-6.945854	-0.001158	NaN
1120	1.000000	0.962437	7.37601e+06	-56139.1	1055.82	-29739.7	0.000000	0.000000	6.963133	0.043035	NaN	0.000000	0.001602	0.001736	28.0835	0.098204	0.001972	49.79	124.835	-171.546	-0.009645	0.961107	-0.119772	-0.121102	0.043035	49.79	-0.120420	-4.926727	-0.008735	NaN
1120	1.000000	0.970430	7.37601e+06	-56139.1	1055.82	-29739.7	0.000000	0.000000	6.971123	-0.021825	NaN	0.000000	0.001564	0.001716	28.0836	0.024701	0.001900	12.999	160.543	-167.513	-0.002601	0.969128	-0.111779	-0.113081	-0.021825	12.999	-0.110520	-3.081966	0.007082	NaN
1120	1.000000	0.978440	7.37601e+06	-56139.1	1055.82	-29739.7	0.000000	0.000000	6.979133	-0.021130	NaN	0.000000	0.001608	0.001723	28.0839	0.090328	0.002007	45.0087	79.3067	-164.948	0.003336	0.977139	-0.103769	-0.105070	-0.021130	45.0087	-0.103417	-2.171862	0.009729	NaN
1120	1.000000	0.986421	7.37601e+06	-56139.1	1055.82	-29739.7	0.000000	0.000000	6.987114	-0.010555	NaN	0.000000	0.001610	0.001738	28.0837	0.012114	0.002118	5.719423	89.8825	-170.144	-0.027945	0.985195	-0.095788	-0.097014	-0.010555	5.719423	-0.094404	-1.367147	0.007720	NaN
1120	1.000000	0.994452	7.37601e+06	-56139.1	1055.82	-29739.7	0.000000	0.000000	6.995145	-0.023861	NaN	0.000000	0.001631	0.001732	28.0837	0.061665	0.001924	32.0581	-172.496	-165.537	0.007661	0.993109	-0.087757	-0.089100	-0.023861	32.0581	-0.087198	-0.927941	0.025714	NaN
1120	1.000000	1.002432	7.37601e+06	-56139.1	1055.82	-29739.7	0.000000	0.000000	7.003124	-0.048598	NaN	0.000000	0.001600	0.001724	28.0837	0.072477	0.001945	37.2595	40.613	-164.867	-0.002728	1.001156	-0.079777	-0.081053	-0.048598	37.2595	-0.078799	-0.577471	0.084157	NaN
1120	1.000000	1.010477	7.37601e+06	-56139.1	1055.82	-29739.7	0.000000	0.000000	7.011173	0.043143	NaN	0.000000	0.001604	0.001726	28.0838	0.055483	0.001973	28.1161	118.949	-167.994	0.128476	1.009219	-0.071732	-0.072990	0.043143	28.1161	-0.072883	-0.406769	-0.106062	NaN
1120	1.000000	1.018435	7.37601e+06	-56139.1	1055.82	-29739.7	0.000000	0.000000	7.019129	-0.006235	NaN	0.000000	0.001587	0.001727	28.0841	0.100325	0.002040	49.1811	174.482	-165.315	-0.051890	1.017086	-0.063774	-0.065123	-0.006235	49.1811	-0.063679	-0.228957	0.027232	NaN
1120	1.000000	1.026480	7.37601e+06	-56139.1	1055.82	-29739.7	0.000000	0.000000	7.027175	0.033594	NaN	0.000000	0.001591	0.001777	28.0839	0.053976	0.001955	27.6104	172.56	-165.431	-0.052091	1.025130	-0.055729	-0.057079	0.033594	27.6104	-0.056642	-0.143926	-0.233411	NaN
1120	1.000000	1.034458	7.37601e+06	-56139.1	1055.82	-29739.7	0.000000	0.000000	7.035150	-0.052051	NaN	0.000000	0.001596	0.001779	28.084	0.100787	0.001998	50.4395	1.147472	-166.894	-0.090190	1.033160	-0.047751	-0.049049	-0.052051	50.4395	-0.046977	-0.073856	0.704758	NaN
1120	1.000000	1.042467	7.37601e+06	-56139.1	1055.82	-29739.7	0.000000	0.000000	7.043162	0.026421	NaN	0.000000	0.001593	0.001746	28.0839	0.085112	0.001865	45.6347	-37.3209	-165.488	-0.022777	1.041184	-0.039742	-0.041025	0.026421	45.6347	-0.040177	-0.045784	-0.577069	NaN
1120	1.000000	1.050460	7.37601e+06	-56139.1	1055.82	-29739.7	0.000000	0.000000	7.051155	0.014288	NaN	0.000000	0.001600	0.001731	28.0839	0.165656	0.001904	87.0258	114.337	-167.909	-0.020185	1.049197	-0.031749	-0.033013	0.014288	87.0258	-0.031872	-0.025987	-0.549800	NaN
1120	1.000000	1.058466	7.37601e+06	-56139.1	1055.82	-29739.7	0.000000	0.000000	7.059160	0.014569	NaN	0.000000	0.001637	0.001759	28.0827	0.011133	0.001900	5.858779	-143.506	-166.567	0.005556	1.057133	-0.023743	-0.025076	0.014569	5.858779	-0.025608	-0.017501	-0.832453	NaN
1120	1.000000	1.066462	7.37601e+06	-56139.1	1055.82	-29739.7	0.000000	0.000000	7.067153	-0.054230	NaN	0.000000	0.001602	0.001823	28.0824	0.104205	0.002013	51.7747	90.5515	-166.792	-0.056831	1.065185	-0.015747	-0.017024	-0.054230	51.7747	-0.014962	-0.009253	5.861082	NaN
1120	1.000000	1.074467	7.37601e+06	-56139.1	1055.82	-29739.7	0.000000	0.000000	7.075161	-0.008411	NaN	0.000000	0.001580	0.001780	28.0828	0.040579	0.002078	19.5288	-50.6839	-167.931	-0.059075	1.073183	-0.007742	-0.009026	-0.008411	19.5288	-0.007419	-0.004889	1.720253	NaN
1120	1.000000	1.082462	7.37601e+06	-56139.1	1055.82	-29739.7	0.000000	0.000000	7.083343	4.558137	NaN	0.000000	0.001579	0.001776	28.0824	5.255000	0.001769	2970.12	8.109149	-166.279	3.308333	1.081098	0.000253	-0.001111	4.558137	2970.12	-0.000898	-0.000660	-6909.74	NaN
1120	2.000000	1.087071	7.37601e+06	-56139.1	1055.82	-29739.7	0.000000	0.000000	7.088152	9.413119	NaN	0.000000	0.001583	0.001768	28.0826	9.667367	0.001587	6091.57	11.4294	-177.603	9.089232	1.086793	0.004862	0.004584	9.413119	6091.57	0.003703	0.002980	3158.26	101944
1120	2.000000	1.089034	7.37601e+06	-56139.1	1055.82	-29739.7	0.000000	0.000000	7.090211	11.7629	NaN	0.000000	0.001562	0.001781	28.0824	12.0929	0.001686	7172.2	7.812066	-172.995	11.4096	1.088714	0.006824	0.006505	11.7629	7172.2	0.005594	0.004682	2512.15	95761.8
1120	2.000000	1.091071	7.37601e+06	-56139.1	1055.82	-29739.7	0.000000	0.000000	7.092404	15.5421	NaN	0.000000	0.001602	0.001763	28.0825	14.5388	0.001673	8691.97	7.456355	-175.227	15.2867	1.090730	0.008862	0.008521	15.5421	8691.97	0.007521	0.006554	2371.36	98092.3
1120	2.000000	1.093006	7.37601e+06	-56139.1	1055.82	-29739.7	0.000000	0.000000	7.094466	18.6262	NaN	0.000000	0.001591	0.001785	28.0833	16.3581	0.001723	9496.24	5.362181	-175.979	18.2239	1.092763	0.010797	0.010554	18.6262	9496.24	0.009326	0.008442	2206.45	94429.9
1120	2.000000	1.095053	7.37601e+06	-56139.1	1055.82	-29739.7	0.000000	0.000000	7.096706	23.3168	NaN	0.000000	0.001588	0.001772	28.0824	19.2877	0.001787	10792	7.007554	-178.002	23.7434	1.094738	0.012844	0.012529	23.3168	10792	0.011223	0.010573	2205.29	95890.3
1120	2.000000	1.096972	7.37601e+06	-56139.1	1055.82	-29739.7	0.000000	0.000000	7.098779	27.0435	NaN	0.000000	0.001613	0.001754	28.0825	20.3436	0.001600	12713.1	5.654541	-179.711	26.6576	1.096690	0.014763	0.014481	27.0435	12713.1	0.013168	0.012919	2093.29	102190
1120	2.000000	1.098946	7.37601e+06	-56139.1	1055.82	-29739.7	0.000000	0.000000	7.100978	32.5436	NaN	0.000000	0.001615	0.001770	28.0825	23.5202	0.001743	13494.5	8.317303	177.782	30.6975	1.098714	0.016737	0.016505	32.5436	13494.5	0.014928	0.015189	2142.54	100037
1120	2.000000	1.100972	7.37601e+06	-56139.1	1055.82	-29739.7	0.000000	0.000000	7.103177	36.7356	NaN	0.000000	0.001590	0.001730	28.0824	25.0167	0.001856	13481	4.565763	-177.154	34.4904	1.100676	0.018763	0.018467	36.7356	13481	0.016719	0.017647	2081.69	92717
1120	2.000000	1.102981	7.37601e+06	-56139.1	1055.82	-29739.7	0.000000	0.000000	7.105304	39.5923	NaN	0.000000	0.001533	0.001743	28.0826	26.4237	0.001777	14866.7	4.206624	-178.312	38.7953	1.102631	0.020772	0.020422	39.5923	14866.7	0.018775	0.020654	1916.95	94511.9
1120	2.000000	1.104941	7.37601e+06	-56139.1	1055.82	-29739.7	0.000000	0.000000	7.107468	44.5586	NaN	0.000000	0.001587	0.001725	28.0822	28.296	0.001742	16239.6	0.211915	-176.364	42.5681	1.104678	0.022732	0.022469	44.5586	16239.6	0.020674	0.023613	1887.06	96555.5
1120	2.000000	1.107023	7.37601e+06	-56139.1	1055.82	-29739.7	0.000000	0.000000	7.109801	50.6742	NaN	0.000000	0.001600	0.001742	28.0827	30.4933	0.001801	16934.5	6.194963	177.841	51.7095	1.106729	0.024813	0.024520	50.6742	16934.5	0.022569	0.026741	1894.97	94613.6
1120	2.000000	1.108957	7.37601e+06	-56139.1	1055.82	-29739.7	0.000000	0.000000	7.112053	58.3841	NaN	0.000000	0.001588	0.001727	28.0826	32.9464	0.001905	17296.9	6.317856	178.724	58.125	1.108633	0.026748	0.026424	58.3841	17296.9	0.024217	0.029606	1972.06	91844.6
1120	2.000000	1.110955	7.37601e+06	-56139.1	1055.82	-29739.7	0.000000	0.000000	7.114290	64.1983	NaN	0.000000	0.001605	0.001690	28.0825	34.2126	0.001744	19611.8	9.055044	174.462	62.2951	1.110591	0.028746	0.028382	64.1983	19611.8	0.026291	0.033406	1921.74	98034
1120	2.000000	1.112970	7.37601e+06	-56139.1	1055.82	-29739.7	0.000000	0.000000	7.116517	69.3529	NaN	0.000000	0.001569	0.001718	28.0843	35.7695	0.001774	20162.5	4.369897	177.822	68.6153	1.112663	0.030761	0.030454	69.3529	20162.5	0.028181	0.037058	1871.49	95692.5
1120	2.000000	1.115014	7.37601e+06	-56139.1	1055.82	-29739.7	0.000000	0.000000	7.118711	72.9874	NaN	0.000000	0.001600	0.001693	28.0838	38.1015	0.001848	20617.4	7.163071	176.013	75.3493	1.114672	0.032805	0.032463	72.9874	20617.4	0.030150	0.041055	1777.79	92965.8
1120	2.000000	1.116999	7.37601e+06	-56139.1	1055.82	-29739.7	0.000000	0.000000	7.120914	78.3026	NaN	0.000000	0.001600	0.001701	28.084	38.5654	0.001776	21714.9	2.342142	179.405	80.4627	1.116694	0.034790	0.034485	78.3026	21714.9	0.032086	0.045177	1733.23	93340.5
1120	2.000000	1.118957	7.37601e+06	-56139.1	1055.82	-29739.7	0.000000	0.000000	7.123302	88.762	NaN	0.000000	0.001573	0.001703	28.0836	42.9042	0.001867	22977.6	7.068052	174.529	88.8348	1.118647	0.036748	0.036438	88.762	22977.6	0.033850	0.049103	1807.68	94738.2
1120	2.000000	1.120962	7.37601e+06	-56139.1	1055.82	-29739.7	0.000000	0.000000	7.125658	97.2872	NaN	0.000000	0.001586	0.001725	28.0835	43.4856	0.001594	27286.3	8.651899	172.226	96.757	1.120600	0.038753	0.038391	97.2872	27286.3	0.036079	0.054287	1792.08	106996
1120	2.000000	1.122960	7.37601e+06	-56139.1	1055.82	-29739.7	0.000000	0.000000	7.128013	105.97	NaN	0.000000	0.001633	0.001748	28.0845	45.0507	0.001617	27860.2	4.104353	176.396	105.925	1.122561	0.040751	0.040351	105.97	27860.2	0.037898	0.058709	1804.99	105052
1120	2.000000	1.124966	7.37601e+06	-56139.1	1055.82	-29739.7	0.000000	0.000000	7.130261	111.853	NaN	0.000000	0.001603	0.001721	28.0833	48.6608	0.001828	26616.7	8.693179	171.008	111.16	1.124653	0.042757	0.042444	111.853	26616.7	0.039605	0.063011	1775.13	96876.6
1120	2.000000	1.126992	7.37601e+06	-56139.1	1055.82	-29739.7	0.000000	0.000000	7.132738	122.818	NaN	0.000000	0.001603	0.001686	28.0839	49.3089	0.001696	29070.9	7.004803	173.32	124.833	1.126606	0.044783	0.044397	122.818	29070.9	0.041614	0.068266	1799.1	101655
1120	2.000000	1.128956	7.37601e+06	-56139.1	1055.82	-29739.7	0.000000	0.000000	7.135031	130.802	NaN	0.000000	0.001628	0.001717	28.0834	51.9439	0.001885	27551.8	2.717281	177.348	131.025	1.128535	0.046747	0.046326	130.802	27551.8	0.043186	0.072522	1803.62	93473.5
1120	2.000000	1.131007	7.37601e+06	-56139.1	1055.82	-29739.7	0.000000	0.000000	7.137455	139.859	NaN	0.000000	0.001600	0.001737	28.0835	53.9269	0.001695	31812.6	6.754936	172.184	142.346	1.130661	0.048798	0.048452	139.859	31812.6	0.045501	0.079015	1770.03	103399
1120	2.000000	1.132925	7.37601e+06	-56139.1	1055.82	-29739.7	0.000000	0.000000	7.139891	152.459	NaN	0.000000	0.001610	0.001721	28.0841	55.2232	0.001852	29816.1	4.502625	175.381	153.016	1.132589	0.050716	0.050380	152.459	29816.1	0.046881	0.083016	1836.5	94545.7
1120	2.000000	1.134920	7.37601e+06	-56139.1	1055.82	-29739.7	0.000000	0.000000	7.142162	159.182	NaN	0.000000	0.001563	0.001696	28.0837	58.0574	0.001889	30737.4	8.507911	170.796	156.943	1.134631	0.052710	0.052421	159.182	30737.4	0.048826	0.088820	1792.18	94229
1120	2.000000	1.136928	7.37601e+06	-56139.1	1055.82	-29739.7	0.000000	0.000000	7.144861	175.962	NaN	0.000000	0.001583	0.001675	28.0839	58.5036	0.001766	33122.9	7.903023	171.21	176.07	1.136546	0.054719	0.054337	175.962	33122.9	0.050734	0.094696	1858.17	98341
1120	2.000000	1.138829	7.37601e+06	-56139.1	1055.82	-29739.7	0.000000	0.000000	7.146775	176.273	NaN	0.000000	0.001621	0.001740	28.0838	59.5991	0.001738	34283	-1.078731	179.457	171.937	1.138590	0.056620	0.056380	176.273	34283	0.052764	0.101147	1742.73	98486.1
1120	2.000000	1.140960	7.37601e+06	-56139.1	1055.82	-29739.7	0.000000	0.000000	7.149505	190.852	NaN	0.000000	0.001599	0.001770	28.0839	61.9421	0.001809	34248.8	2.167923	176.333	190.089	1.140671	0.058751	0.058462	190.852	34248.8	0.054571	0.107065	1782.58	95630
1120	2.000000	1.142986	7.37601e+06	-56139.1	1055.82	-29739.7	0.000000	0.000000	7.151842	198.415	NaN	0.000000	0.001606	0.001770	28.0842	63.8795	0.001835	34808.4	2.942191	175.355	202.668	1.142641	0.060776	0.060432	198.415	34808.4	0.056501	0.113562	1747.19	94371.4
1120	2.000000	1.144896	7.37601e+06	-56139.1	1055.82	-29739.7	0.000000	0.000000	7.154397	214.097	NaN	0.000000	0.001628	0.001743	28.0837	66.5785	0.001844	36098.6	6.188853	171.648	212.656	1.144603	0.062686	0.062394	214.097	36098.6	0.058238	0.119567	1790.6	95380.2
1120	2.000000	1.146904	7.37601e+06	-56139.1	1055.82	-29739.7	0.000000	0.000000	7.156772	222.995	NaN	0.000000	0.001645	0.001806	28.0829	66.9689	0.001711	39149.5	3.447122	174.069	222.635	1.146548	0.064695	0.064339	222.995	39149.5	0.060423	0.127329	1751.33	100239
1120	2.000000	1.148913	7.37601e+06	-56139.1	1055.82	-29739.7	0.000000	0.000000	7.159378	237.531	NaN	0.000000	0.001628	0.001789	28.0828	70.0224	0.001761	39760.5	7.564175	169.722	238.728	1.148562	0.066703	0.066353	237.531	39760.5	0.062223	0.133900	1773.95	99273.9
1120	2.000000	1.151033	7.37601e+06	-56139.1	1055.82	-29739.7	0.000000	0.000000	7.161925	247.898	NaN	0.000000	0.001585	0.001779	28.0829	72.314	0.001774	40773.5	5.515062	173.352	252.285	1.150554	0.068824	0.068345	247.898	40773.5	0.064264	0.141541	1751.42	99017.1
1120	2.000000	1.152906	7.37601e+06	-56139.1	1055.82	-29739.7	0.000000	0.000000	7.164348	261.261	NaN	0.000000	0.001564	0.001742	28.0827	74.4787	0.001850	40255	6.275172	170.864	261.898	1.152573	0.070696	0.070364	261.261	40255	0.065829	0.147535	1770.84	95751.4
1120	2.000000	1.154837	7.37601e+06	-56139.1	1055.82	-29739.7	0.000000	0.000000	7.166762	272.988	NaN	0.000000	0.001595	0.001729	28.0825	75.6393	0.001780	42499	1.523022	175.195	268.054	1.154582	0.072628	0.072373	272.988	42499	0.067811	0.155297	1757.85	98530.6
1120	2.000000	1.156848	7.37601e+06	-56139.1	1055.82	-29739.7	0.000000	0.000000	7.169211	283.638	NaN	0.000000	0.001604	0.001757	28.0829	76.4875	0.001849	41375.8	3.810724	173.265	279.809	1.156621	0.074639	0.074412	283.638	41375.8	0.069498	0.162050	1750.31	93906.5
1120	2.000000	1.158840	7.37601e+06	-56139.1	1055.82	-29739.7	0.000000	0.000000	7.171863	299.703	NaN	0.000000	0.001553	0.001747	28.0824	78.804	0.001652	47709.5	0.334583	176.14	295.155	1.158501	0.076631	0.076292	299.703	47709.5	0.071919	0.171983	1742.63	105108
1120	2.000000	1.160902	7.37601e+06	-56139.1	1055.82	-29739.7	0.000000	0.000000	7.174405	311.348	NaN	0.000000	0.001588	0.001733	28.0825	82.3989	0.001869	44081.6	4.771631	171.69	309.053	1.160645	0.078693	0.078436	311.348	44081.6	0.073396	0.178176	1747.42	95412.7
1120	2.000000	1.162893	7.37601e+06	-56139.1	1055.82	-29739.7	0.000000	0.000000	7.176977	325.481	NaN	0.000000	0.001613	0.001749	28.0826	83.7466	0.001722	48647.4	4.875053	171.505	323.985	1.162512	0.080684	0.080303	325.481	48647.4	0.075666	0.187896	1732.24	102535
1120	2.000000	1.164858	7.37601e+06	-56139.1	1055.82	-29739.7	0.000000	0.000000	7.179116	329.713	NaN	0.000000	0.001586	0.001748	28.0828	87.1745	0.001834	47527.3	4.366354	171.306	327.543	1.164683	0.082649	0.082474	329.713	47527.3	0.077446	0.195688	1684.89	98159.8
1120	2.000000	1.166816	7.37601e+06	-56139.1	1055.82	-29739.7	0.000000	0.000000	7.181918	350.228	NaN	0.000000	0.001650	0.001760	28.0829	87.7539	0.001829	47977.7	4.462607	171.283	346.53	1.166645	0.084607	0.084436	350.228	47977.7	0.079132	0.203206	1723.51	97239.9
1120	2.000000	1.169004	7.37601e+06	-56139.1	1055.82	-29739.7	0.000000	0.000000	7.184430	358.085	NaN	0.000000	0.001612	0.001708	28.0826	91.7996	0.001732	52988.3	7.544533	167.463	364.686	1.168647	0.086795	0.086438	358.085	52988.3	0.081727	0.215035	1665.24	104400
1120	2.000000	1.170892	7.37601e+06	-56139.1	1055.82	-29739.7	0.000000	0.000000	7.187260	380.993	NaN	0.000000	0.001624	0.001738	28.0825	93.5575	0.001948	48018.7	6.469261	170.325	378.194	1.170500	0.088683	0.088291	380.993	48018.7	0.082732	0.219702	1734.14	93597.9
1120	2.000000	1.172814	7.37601e+06	-56139.1	1055.82	-29739.7	0.000000	0.000000	7.189872	397.785	NaN	0.000000	0.001608	0.001766	28.0827	95.7873	0.001848	51844.3	8.719975	166.492	394.044	1.172492	0.090604	0.090282	397.785	51844.3	0.084850	0.229686	1731.86	98834
1120	2.000000	1.174834	7.37601e+06	-56139.1	1055.82	-29739.7	0.000000	0.000000	7.192436	410.99	NaN	0.000000	0.001640	0.001773	28.0827	96.836	0.001911	50659.7	2.414725	172.872	407.85	1.174592	0.092625	0.092383	410.99	50659.7	0.086540	0.237803	1728.28	94913.4
1120	2.000000	1.176863	7.37601e+06	-56139.1	1055.82	-29739.7	0.000000	0.000000	7.195142	427.444	NaN	0.000000	0.001636	0.001768	28.0828	97.1807	0.001872	51912.7	2.499026	172.946	424.816	1.176503	0.094654	0.094293	427.444	51912.7	0.088478	0.247274	1728.63	95380.1
1120	2.000000	1.178793	7.37601e+06	-56139.1	1055.82	-29739.7	0.000000	0.000000	7.197735	443.576	NaN	0.000000	0.001556	0.001769	28.0828	98.8661	0.001861	53128.7	0.967941	174.303	438.406	1.178566	0.096583	0.096357	443.576	53128.7	0.090322	0.256440	1729.74	95853.8
1120	2.000000	1.180803	7.37601e+06	-56139.1	1055.82	-29739.7	0.000000	0.000000	7.200596	464.242	NaN	0.000000	0.001554	0.001749	28.0836	101.048	0.001827	55306.2	5.847759	169.265	457.115	1.180466	0.098594	0.098257	464.242	55306.2	0.092298	0.266443	1742.37	97891.4
1120	2.000000	1.182862	7.37601e+06	-56139.1	1055.82	-29739.7	0.000000	0.000000	7.203059	474.051	NaN	0.000000	0.001547	0.001708	28.0842	101.909	0.001822	55921.1	1.822664	173.054	472.95	1.182542	0.100653	0.100333	474.051	55921.1	0.094295	0.276731	1713.04	97122.6
1120	2.000000	1.184377	7.37601e+06	-56139.1	1055.82	-29739.7	0.000000	0.000000	7.205085	486.487	NaN	0.000000	0.001592	0.001794	28.0838	104.004	0.001862	55860.9	4.986236	-10.0986	483.336	1.184068	0.102168	0.101859	486.487	55860.9	0.095636	0.283738	1714.56	95812.6