File: remote_trans/data/nanoindenter/0828-1/data/Data_2025-08-06,11h17m57s/2025-07-22_16-23-58_1_512.txt
2025-07-22, 16:23:58, 1
Index	Phase	Displacement	Time	Pos X	Pos Y	Pos Z	Rot A	Rot B	Piezo Z	Force A	Force B	Gripper	Voltage A	Voltage B	Temperature	Amplitude force	Amplitude pos	Stiffness	Phase shift	Phase excitation	Force A raw	Displacement raw	HMax	HMax raw	Real Force	Real Stiffness	Contact Depth	Area	Hardness	Reduced Mod.
[#]	[#]	[um]	[s]	[um]	[um]	[um]	[m°]	[m°]	[um]	[uN]	[uN]	[V]	[V]	[V]	[°C]	[uN]	[um]	[N/m]	[°]	[°]	[uN]	[um]	[um]	[um]	[uN]	[N/m]	[um]	[um^2]	[MPa]	[MPa]
512	1.000000	0.002640	7.37006e+06	-51489.1	1005.82	-29752.2	0.000000	0.000000	6.002810	0.012563	NaN	0.000000	0.001581	0.001727	28.0818	0.118474	0.001030	115.015	-47.1482	-164.712	0.008059	0.001394	-1.100429	-1.101674	0.012563	115.015	-1.100511	-5.092432E+14	-2.466902E-17	NaN
512	1.000000	0.012660	7.37006e+06	-51489.1	1005.82	-29752.2	0.000000	0.000000	6.012830	0.007356	NaN	0.000000	0.001610	0.001727	28.0819	0.017536	0.001228	14.2775	135.494	19.3047	0.001300	0.011303	-1.090408	-1.091766	0.007356	14.2775	-1.090795	-3.771250E+14	-1.950605E-17	NaN
512	1.000000	0.022581	7.37006e+06	-51489.1	1005.82	-29752.2	0.000000	0.000000	6.022750	-0.011746	NaN	0.000000	0.001582	0.001739	28.0817	0.102593	0.001554	66.0281	-3.039470	-164.356	-0.030129	0.021249	-1.080487	-1.081820	-0.011746	66.0281	-1.080354	-2.730699E+14	4.301545E-17	NaN
512	1.000000	0.032595	7.37006e+06	-51489.1	1005.82	-29752.2	0.000000	0.000000	6.032764	-0.014993	NaN	0.000000	0.001547	0.001717	28.0817	0.034105	0.001957	17.4315	16.3452	10.019	0.016745	0.031242	-1.070473	-1.071826	-0.014993	17.4315	-1.069828	-1.971894E+14	7.603282E-17	NaN
512	1.000000	0.042603	7.37006e+06	-51489.1	1005.82	-29752.2	0.000000	0.000000	6.042775	0.057990	NaN	0.000000	0.001567	0.001723	28.0819	0.113998	0.002021	56.4121	82.5485	-167.036	0.020898	0.041263	-1.060465	-1.061806	0.057990	56.4121	-1.061236	-1.511602E+14	-3.836323E-16	NaN
512	1.000000	0.052585	7.37006e+06	-51489.1	1005.82	-29752.2	0.000000	0.000000	6.052753	-0.029838	NaN	0.000000	0.001602	0.001746	28.0818	0.076769	0.002054	37.3704	53.7831	13.4498	0.071685	0.051221	-1.050484	-1.051847	-0.029838	37.3704	-1.049885	-1.063825E+14	2.804760E-16	NaN
512	1.000000	0.062578	7.37006e+06	-51489.1	1005.82	-29752.2	0.000000	0.000000	6.062748	0.010383	NaN	0.000000	0.001575	0.001803	28.0819	0.104040	0.001978	52.6117	-162.885	-165.718	-0.059472	0.061245	-1.040491	-1.041824	0.010383	52.6117	-1.040639	-7.990220E+13	-1.299414E-16	NaN
512	1.000000	0.072579	7.37006e+06	-51489.1	1005.82	-29752.2	0.000000	0.000000	6.072745	-0.078895	NaN	0.000000	0.001569	0.001711	28.0818	0.120281	0.001985	60.5925	-174.985	11.8155	-0.077404	0.071226	-1.030490	-1.031843	-0.078895	60.5925	-1.029513	-5.661540E+13	1.393532E-15	NaN
512	1.000000	0.082601	7.37006e+06	-51489.1	1005.82	-29752.2	0.000000	0.000000	6.082771	0.003822	NaN	0.000000	0.001572	0.001751	28.0808	0.024960	0.002027	12.315	30.3618	-167.409	0.058230	0.081269	-1.020467	-1.021800	0.003822	12.315	-1.020700	-4.308971E+13	-8.870268E-17	NaN
512	1.000000	0.092603	7.37006e+06	-51489.1	1005.82	-29752.2	0.000000	0.000000	6.092774	0.030282	NaN	0.000000	0.001561	0.001777	28.0806	0.025442	0.002046	12.4339	150.188	14.1171	0.026811	0.091193	-1.010466	-1.011875	0.030282	12.4339	-1.012292	-3.320730E+13	-9.119066E-16	NaN
512	1.000000	0.102597	7.37006e+06	-51489.1	1005.82	-29752.2	0.000000	0.000000	6.102768	0.027941	NaN	0.000000	0.001554	0.001720	28.0807	0.073168	0.002051	35.6705	-121.442	-165.596	0.005051	0.101294	-1.000472	-1.001774	0.027941	35.6705	-1.001059	-2.344407E+13	-1.191826E-15	NaN
512	1.000000	0.112590	7.37006e+06	-51489.1	1005.82	-29752.2	0.000000	0.000000	6.112761	0.032368	NaN	0.000000	0.001616	0.001720	28.0805	0.097868	0.002006	48.7953	-85.8602	11.5125	-0.012762	0.111234	-0.990479	-0.991835	0.032368	48.7953	-0.990976	-1.714980E+13	-1.887396E-15	NaN
512	1.000000	0.122614	7.37006e+06	-51489.1	1005.82	-29752.2	0.000000	0.000000	6.122780	-0.097458	NaN	0.000000	0.001547	0.001747	28.0804	0.001934	0.001915	1.010118	90.8762	-166.001	-0.100606	0.121270	-0.980454	-0.981799	-0.097458	1.010118	-0.908093	-1.307397E+12	7.454347E-14	NaN
512	1.000000	0.132584	7.37006e+06	-51489.1	1005.82	-29752.2	0.000000	0.000000	6.132758	0.091974	NaN	0.000000	0.001549	0.001765	28.0803	0.109817	0.001927	56.9764	-55.9059	12.8946	-0.030138	0.131258	-0.970485	-0.971810	0.091974	56.9764	-0.971695	-9.429961E+12	-9.753423E-15	NaN
512	1.000000	0.142619	7.37006e+06	-51489.1	1005.82	-29752.2	0.000000	0.000000	6.142788	-0.019788	NaN	0.000000	0.001554	0.001734	28.0809	0.126394	0.001907	66.2781	-128.258	-164.071	-0.022490	0.141290	-0.960450	-0.961778	-0.019788	66.2781	-0.960226	-6.605672E+12	2.995650E-15	NaN
512	1.000000	0.152608	7.37006e+06	-51489.1	1005.82	-29752.2	0.000000	0.000000	6.152780	0.033260	NaN	0.000000	0.001549	0.001739	28.0806	0.096177	0.002114	45.5007	-156.42	13.2088	-0.003356	0.151264	-0.950460	-0.951805	0.033260	45.5007	-0.951008	-4.961671E+12	-6.703375E-15	NaN
512	1.000000	0.162619	7.37006e+06	-51489.1	1005.82	-29752.2	0.000000	0.000000	6.162790	0.043281	NaN	0.000000	0.001547	0.001748	28.0806	0.115932	0.001999	57.9876	-43.4172	-167.017	-0.003321	0.161320	-0.940450	-0.941749	0.043281	57.9876	-0.941010	-3.637123E+12	-1.189980E-14	NaN
512	1.000000	0.172641	7.37006e+06	-51489.1	1005.82	-29752.2	0.000000	0.000000	6.172809	-0.020960	NaN	0.000000	0.001615	0.001770	28.0807	0.127957	0.001895	67.5407	-104.774	14.858	-0.024495	0.171296	-0.930428	-0.931772	-0.020960	67.5407	-0.930195	-2.599160E+12	8.064034E-15	NaN
512	1.000000	0.182630	7.37006e+06	-51489.1	1005.82	-29752.2	0.000000	0.000000	6.182800	0.016942	NaN	0.000000	0.001661	0.001793	28.0806	0.130125	0.001897	68.6061	25.2695	-167.647	-0.005000	0.181339	-0.920439	-0.921730	0.016942	68.6061	-0.920624	-1.930324E+12	-8.776549E-15	NaN
512	1.000000	0.192646	7.37006e+06	-51489.1	1005.82	-29752.2	0.000000	0.000000	6.192815	-0.014130	NaN	0.000000	0.001668	0.001760	28.0805	0.032026	0.002002	15.9982	-105.982	10.5981	0.016384	0.191249	-0.910423	-0.911819	-0.014130	15.9982	-0.909760	-1.376975E+12	1.026136E-14	NaN
512	1.000000	0.202643	7.37006e+06	-51489.1	1005.82	-29752.2	0.000000	0.000000	6.202813	0.005337	NaN	0.000000	0.001603	0.001752	28.0805	0.066907	0.002005	33.368	17.6506	-166.668	0.017932	0.201336	-0.900426	-0.901732	0.005337	33.368	-0.900546	-1.033808E+12	-5.162801E-15	NaN
512	1.000000	0.212632	7.37006e+06	-51489.1	1005.82	-29752.2	0.000000	0.000000	6.212803	0.043104	NaN	0.000000	0.001616	0.001764	28.0812	0.053698	0.001871	28.6971	85.1421	15.9122	0.054750	0.211304	-0.890437	-0.891765	0.043104	28.6971	-0.891563	-7.817140E+11	-5.514038E-14	NaN
512	1.000000	0.222638	7.37006e+06	-51489.1	1005.82	-29752.2	0.000000	0.000000	6.222807	-0.028577	NaN	0.000000	0.001647	0.001798	28.0819	0.081054	0.001863	43.5131	-99.4388	-163.817	-0.005001	0.221290	-0.880431	-0.881779	-0.028577	43.5131	-0.879938	-5.443403E+11	5.249852E-14	NaN
512	1.000000	0.232623	7.37006e+06	-51489.1	1005.82	-29752.2	0.000000	0.000000	6.232791	-0.057065	NaN	0.000000	0.001646	0.001811	28.0818	0.040649	0.001906	21.3238	106.536	13.5526	0.025161	0.231353	-0.870445	-0.871715	-0.057065	21.3238	-0.868438	-3.804646E+11	1.499867E-13	NaN
512	1.000000	0.242678	7.37006e+06	-51489.1	1005.82	-29752.2	0.000000	0.000000	6.242845	-0.047723	NaN	0.000000	0.001566	0.001756	28.0819	0.032742	0.001816	18.0286	-55.6825	-167.119	-0.018992	0.241333	-0.860391	-0.861735	-0.047723	18.0286	-0.858406	-2.783178E+11	1.714688E-13	NaN
512	1.000000	0.252642	7.37006e+06	-51489.1	1005.82	-29752.2	0.000000	0.000000	6.252813	0.037236	NaN	0.000000	0.001601	0.001759	28.0819	0.108305	0.001965	55.1293	103.042	15.2879	0.069226	0.251321	-0.850427	-0.851748	0.037236	55.1293	-0.850933	-2.204823E+11	-1.688834E-13	NaN
512	1.000000	0.262658	7.37006e+06	-51489.1	1005.82	-29752.2	0.000000	0.000000	6.262827	-0.021184	NaN	0.000000	0.001586	0.001756	28.082	0.053154	0.001937	27.4454	168.456	-163.399	-0.040064	0.261267	-0.840410	-0.841801	-0.021184	27.4454	-0.839832	-1.559593E+11	1.358279E-13	NaN
512	1.000000	0.272693	7.37006e+06	-51489.1	1005.82	-29752.2	0.000000	0.000000	6.272864	0.047715	NaN	0.000000	0.001588	0.001759	28.0816	0.053012	0.001911	27.7439	19.3307	13.8217	0.083072	0.271351	-0.830376	-0.831717	0.047715	27.7439	-0.831666	-1.208824E+11	-3.947215E-13	NaN
512	1.000000	0.282706	7.37006e+06	-51489.1	1005.82	-29752.2	0.000000	0.000000	6.282877	0.044354	NaN	0.000000	0.001555	0.001768	28.0817	0.028423	0.001996	14.2379	155.181	-167.048	0.006618	0.281416	-0.820363	-0.821653	0.044354	14.2379	-0.822699	-9.137243E+10	-4.854225E-13	NaN
512	1.000000	0.292674	7.37006e+06	-51489.1	1005.82	-29752.2	0.000000	0.000000	6.292844	0.012244	NaN	0.000000	0.001559	0.001782	28.0819	0.083898	0.002076	40.4137	149.933	10.8418	0.034964	0.291293	-0.810395	-0.811776	0.012244	40.4137	-0.810622	-6.266280E+10	-1.954030E-13	NaN
512	1.000000	0.302689	7.37006e+06	-51489.1	1005.82	-29752.2	0.000000	0.000000	6.302858	-0.014377	NaN	0.000000	0.001597	0.001764	28.0815	0.014738	0.001923	7.662734	-26.3111	-166.519	-0.037067	0.301375	-0.800380	-0.801694	-0.014377	7.662734	-0.798973	-4.354329E+10	3.301724E-13	NaN
512	1.000000	0.312687	7.37006e+06	-51489.1	1005.82	-29752.2	0.000000	0.000000	6.312857	0.001025	NaN	0.000000	0.001639	0.001728	28.0815	0.046594	0.002073	22.4808	146.795	15.3373	-0.000449	0.311306	-0.790381	-0.791762	0.001025	22.4808	-0.790416	-3.332172E+10	-3.077499E-14	NaN
512	1.000000	0.322683	7.37006e+06	-51489.1	1005.82	-29752.2	0.000000	0.000000	6.322854	0.035042	NaN	0.000000	0.001616	0.001766	28.0816	0.046895	0.001997	23.4872	-45.2557	-163.909	0.062219	0.321360	-0.780386	-0.781709	0.035042	23.4872	-0.781505	-2.521606E+10	-1.389660E-12	NaN
512	1.000000	0.332694	7.37006e+06	-51489.1	1005.82	-29752.2	0.000000	0.000000	6.332862	-0.065029	NaN	0.000000	0.001630	0.001805	28.0819	0.062340	0.002058	30.2889	-87.6127	16.6938	-0.054662	0.331358	-0.770374	-0.771711	-0.065029	30.2889	-0.768764	-1.692385E+10	3.842465E-12	NaN
512	1.000000	0.342683	7.37006e+06	-51489.1	1005.82	-29752.2	0.000000	0.000000	6.342852	-0.031613	NaN	0.000000	0.001585	0.001711	28.0816	0.037116	0.002012	18.4489	-52.027	-164.707	-0.102475	0.341387	-0.760385	-0.761682	-0.031613	18.4489	-0.759100	-1.250435E+10	2.528196E-12	NaN
512	1.000000	0.352723	7.37006e+06	-51489.1	1005.82	-29752.2	0.000000	0.000000	6.352892	-0.019860	NaN	0.000000	0.001612	0.001722	28.0805	0.075901	0.001884	40.2892	-117.394	12.1238	-0.031649	0.351339	-0.750346	-0.751730	-0.019860	40.2892	-0.749976	-9.394951E+9	2.113948E-12	NaN
512	1.000000	0.362723	7.37006e+06	-51489.1	1005.82	-29752.2	0.000000	0.000000	6.362891	-0.024499	NaN	0.000000	0.001608	0.001746	28.0808	0.007325	0.001968	3.722305	33.9166	-164.678	-0.034710	0.361436	-0.740346	-0.741633	-0.024499	3.722305	-0.735410	-5.950111E+9	4.117326E-12	NaN
512	1.000000	0.372701	7.37006e+06	-51489.1	1005.82	-29752.2	0.000000	0.000000	6.372871	0.012027	NaN	0.000000	0.001620	0.001727	28.0805	0.129674	0.002092	61.9765	75.747	11.2567	0.059072	0.371387	-0.730367	-0.731682	0.012027	61.9765	-0.730513	-5.102692E+9	-2.356917E-12	NaN
512	1.000000	0.382709	7.37006e+06	-51489.1	1005.82	-29752.2	0.000000	0.000000	6.382878	-0.020892	NaN	0.000000	0.001589	0.001743	28.0805	0.055525	0.002032	27.3247	161.601	-167.671	-0.018835	0.381388	-0.720360	-0.721680	-0.020892	27.3247	-0.719786	-3.643839E+9	5.733454E-12	NaN
512	1.000000	0.392715	7.37006e+06	-51489.1	1005.82	-29752.2	0.000000	0.000000	6.392887	0.055903	NaN	0.000000	0.001636	0.001779	28.0806	0.079383	0.002076	38.2384	41.9556	10.7579	0.001647	0.391281	-0.710354	-0.711788	0.055903	38.2384	-0.711451	-2.804422E+9	-1.993379E-11	NaN
512	1.000000	0.402716	7.37006e+06	-51489.1	1005.82	-29752.2	0.000000	0.000000	6.402885	-0.022488	NaN	0.000000	0.001655	0.001781	28.081	0.038294	0.001952	19.6188	-128.673	-166.337	0.000259	0.401410	-0.700353	-0.701658	-0.022488	19.6188	-0.699493	-1.925777E+9	1.167737E-11	NaN
512	1.000000	0.412730	7.37006e+06	-51489.1	1005.82	-29752.2	0.000000	0.000000	6.412898	-0.022249	NaN	0.000000	0.001560	0.001782	28.0805	0.014844	0.001929	7.695184	-39.5907	15.1729	-0.120419	0.411373	-0.690339	-0.691696	-0.022249	7.695184	-0.688171	-1.348697E+9	1.649654E-11	NaN
512	1.000000	0.422735	7.37006e+06	-51489.1	1005.82	-29752.2	0.000000	0.000000	6.422907	0.074688	NaN	0.000000	0.001570	0.001724	28.0807	0.032895	0.001934	17.0046	21.0311	-163.273	0.068521	0.421394	-0.680334	-0.681674	0.074688	17.0046	-0.683628	-1.169017E+9	-6.388939E-11	NaN
512	1.000000	0.432747	7.37006e+06	-51489.1	1005.82	-29752.2	0.000000	0.000000	6.432915	-0.054375	NaN	0.000000	0.001603	0.001774	28.0806	0.023682	0.002003	11.8215	-109.965	15.0558	0.034972	0.431414	-0.670321	-0.671654	-0.054375	11.8215	-0.666872	-6.895524E+8	7.885601E-11	NaN
512	1.000000	0.442743	7.37006e+06	-51489.1	1005.82	-29752.2	0.000000	0.000000	6.442913	0.007302	NaN	0.000000	0.001562	0.001750	28.081	0.113868	0.002007	56.7279	136.633	-165.404	0.011595	0.441438	-0.660325	-0.661631	0.007302	56.7279	-0.660422	-5.626602E+8	-1.297798E-11	NaN
512	1.000000	0.452741	7.37006e+06	-51489.1	1005.82	-29752.2	0.000000	0.000000	6.452912	0.024543	NaN	0.000000	0.001534	0.001764	28.0805	0.060815	0.001910	31.8434	-179.327	11.885	-0.034409	0.451376	-0.650328	-0.651693	0.024543	31.8434	-0.650906	-4.167281E+8	-5.889502E-11	NaN
512	1.000000	0.462774	7.37006e+06	-51489.1	1005.82	-29752.2	0.000000	0.000000	6.462940	-0.089882	NaN	0.000000	0.001546	0.001784	28.0806	0.063550	0.001961	32.4077	-139.436	-169.386	-0.066772	0.461386	-0.640295	-0.641682	-0.089882	32.4077	-0.638215	-2.791203E+8	3.220174E-10	NaN
512	1.000000	0.472761	7.37006e+06	-51489.1	1005.82	-29752.2	0.000000	0.000000	6.472932	0.024109	NaN	0.000000	0.001570	0.001743	28.0806	0.062056	0.001957	31.7056	-125.772	11.6455	-0.028461	0.471425	-0.630307	-0.631644	0.024109	31.7056	-0.630878	-2.213483E+8	-1.089189E-10	NaN
512	1.000000	0.482772	7.37006e+06	-51489.1	1005.82	-29752.2	0.000000	0.000000	6.482942	0.008375	NaN	0.000000	0.001540	0.001740	28.0806	0.161352	0.001981	81.4626	178.15	-165.962	-0.022066	0.481431	-0.620297	-0.621637	0.008375	81.4626	-0.620374	-1.587704E+8	-5.274624E-11	NaN
512	1.000000	0.492766	7.37006e+06	-51489.1	1005.82	-29752.2	0.000000	0.000000	6.492935	-0.040962	NaN	0.000000	0.001555	0.001739	28.0816	0.058733	0.002121	27.6882	-85.2341	13.7261	-0.029793	0.491429	-0.610302	-0.611640	-0.040962	27.6882	-0.609193	-1.114309E+8	3.675981E-10	NaN
512	1.000000	0.502755	7.37006e+06	-51489.1	1005.82	-29752.2	0.000000	0.000000	6.502926	0.024109	NaN	0.000000	0.001554	0.001762	28.0818	0.080907	0.002122	38.1211	-119.105	-164.358	0.029292	0.501464	-0.600314	-0.601605	0.024109	38.1211	-0.600788	-8.537121E+7	-2.824005E-10	NaN
512	1.000000	0.512745	7.37006e+06	-51489.1	1005.82	-29752.2	0.000000	0.000000	6.512916	0.034199	NaN	0.000000	0.001560	0.001709	28.082	0.029085	0.001995	14.581	-164.382	14.8126	0.085318	0.511414	-0.590324	-0.591655	0.034199	14.581	-0.592083	-6.477151E+7	-5.279979E-10	NaN
512	1.000000	0.522763	7.37006e+06	-51489.1	1005.82	-29752.2	0.000000	0.000000	6.522937	0.085805	NaN	0.000000	0.001545	0.001751	28.0819	0.019640	0.001977	9.933425	111.305	-163.205	0.005156	0.521493	-0.580305	-0.581575	0.085805	9.933425	-0.586784	-5.474167E+7	-1.567462E-9	NaN
512	1.000000	0.532800	7.37006e+06	-51489.1	1005.82	-29752.2	0.000000	0.000000	6.532968	-0.041593	NaN	0.000000	0.001487	0.001744	28.0818	0.111222	0.002013	55.2494	151.563	17.3366	-0.097680	0.531435	-0.570269	-0.571633	-0.041593	55.2494	-0.569704	-3.180852E+7	1.307617E-9	NaN
512	1.000000	0.542761	7.37006e+06	-51489.1	1005.82	-29752.2	0.000000	0.000000	6.542931	0.005129	NaN	0.000000	0.001509	0.001732	28.0819	0.070509	0.001921	36.7	15.7687	-164.529	-0.010568	0.541490	-0.560308	-0.561578	0.005129	36.7	-0.560413	-2.366408E+7	-2.167222E-10	NaN
512	1.000000	0.552756	7.37006e+06	-51489.1	1005.82	-29752.2	0.000000	0.000000	6.552923	-0.051871	NaN	0.000000	0.001554	0.001752	28.0819	0.049695	0.002060	24.1262	174.978	14.5778	0.003412	0.551362	-0.550313	-0.551707	-0.051871	24.1262	-0.548700	-1.629128E+7	3.183972E-9	NaN
512	1.000000	0.562782	7.37006e+06	-51489.1	1005.82	-29752.2	0.000000	0.000000	6.562954	0.054643	NaN	0.000000	0.001546	0.001752	28.0817	0.066581	0.001994	33.3991	43.5698	-168.108	0.087344	0.561517	-0.540287	-0.541551	0.054643	33.3991	-0.541514	-1.295245E+7	-4.218764E-9	NaN
512	1.000000	0.572800	7.37006e+06	-51489.1	1005.82	-29752.2	0.000000	0.000000	6.572970	-0.012667	NaN	0.000000	0.001553	0.001723	28.0819	0.034452	0.002010	17.1393	101.243	12.1175	-0.030688	0.571388	-0.530268	-0.531680	-0.012667	17.1393	-0.529714	-8.88387e+06	1.425847E-9	NaN
512	1.000000	0.582817	7.37006e+06	-51489.1	1005.82	-29752.2	0.000000	0.000000	6.582988	0.017808	NaN	0.000000	0.001552	0.001744	28.0823	0.181529	0.002003	90.6228	-155.706	-167.31	0.006662	0.581471	-0.520252	-0.521597	0.017808	90.6228	-0.520399	-6.59396e+06	-2.700640E-9	NaN
512	1.000000	0.592813	7.37006e+06	-51489.1	1005.82	-29752.2	0.000000	0.000000	6.592984	0.037429	NaN	0.000000	0.001556	0.001724	28.0817	0.045800	0.002000	22.8999	115.392	14.8577	-0.019083	0.591396	-0.510256	-0.511673	0.037429	22.8999	-0.511481	-4.95504e+06	-7.553688E-9	NaN
512	1.000000	0.602784	7.37006e+06	-51489.1	1005.82	-29752.2	0.000000	0.000000	6.602955	0.016966	NaN	0.000000	0.001568	0.001756	28.0815	0.042430	0.002010	21.1044	-46.1066	-165.08	-0.007063	0.601531	-0.500284	-0.501538	0.016966	21.1044	-0.500887	-3.52694e+06	-4.810367E-9	NaN
512	1.000000	0.612808	7.37006e+06	-51489.1	1005.82	-29752.2	0.000000	0.000000	6.612979	0.007846	NaN	0.000000	0.001566	0.001717	28.0817	0.062190	0.001937	32.1022	158.671	14.4904	-0.061594	0.611465	-0.490260	-0.491603	0.007846	32.1022	-0.490443	-2.5211e+06	-3.112191E-9	NaN
512	1.000000	0.622810	7.37006e+06	-51489.1	1005.82	-29752.2	0.000000	0.000000	6.622978	-0.042628	NaN	0.000000	0.001564	0.001730	28.0812	0.063671	0.001989	32.009	-154.572	-165.465	-0.017375	0.621493	-0.480259	-0.481576	-0.042628	32.009	-0.479260	-1.75859e+06	2.424010E-8	NaN
512	1.000000	0.632807	7.37006e+06	-51489.1	1005.82	-29752.2	0.000000	0.000000	6.632978	0.031322	NaN	0.000000	0.001531	0.001677	28.0803	0.094510	0.001976	47.8293	82.4611	16.7794	0.036578	0.631488	-0.470262	-0.471581	0.031322	47.8293	-0.470753	-1.3365e+06	-2.343586E-8	NaN
512	1.000000	0.642829	7.37006e+06	-51489.1	1005.82	-29752.2	0.000000	0.000000	6.643000	0.036246	NaN	0.000000	0.001548	0.001758	28.0805	0.094611	0.001930	49.0218	-122.652	-165.307	0.036119	0.641517	-0.460240	-0.461552	0.036246	49.0218	-0.460794	-968674	-3.741808E-8	NaN
512	1.000000	0.652829	7.37006e+06	-51489.1	1005.82	-29752.2	0.000000	0.000000	6.652999	0.008263	NaN	0.000000	0.001554	0.001708	28.0805	0.086718	0.001972	43.9648	-61.306	15.2701	0.006399	0.651548	-0.450240	-0.451520	0.008263	43.9648	-0.450381	-691356	-1.195135E-8	NaN
512	1.000000	0.662837	7.37006e+06	-51489.1	1005.82	-29752.2	0.000000	0.000000	6.663008	0.015596	NaN	0.000000	0.001509	0.001758	28.0805	0.076206	0.001996	38.1811	-39.1861	-167.782	0.049852	0.661585	-0.440231	-0.441484	0.015596	38.1811	-0.440538	-502289	-3.105052E-8	NaN
512	1.000000	0.672851	7.37006e+06	-51489.1	1005.82	-29752.2	0.000000	0.000000	6.673019	-0.033175	NaN	0.000000	0.001546	0.001717	28.0805	0.076274	0.001881	40.543	133.029	14.8168	-0.060253	0.671523	-0.430218	-0.431546	-0.033175	40.543	-0.429604	-351932	9.426672E-8	NaN
512	1.000000	0.682846	7.37006e+06	-51489.1	1005.82	-29752.2	0.000000	0.000000	6.683016	0.002225	NaN	0.000000	0.001555	0.001744	28.0803	0.061692	0.002012	30.6586	126.695	-169.844	-0.002517	0.681543	-0.420223	-0.421526	0.002225	30.6586	-0.420277	-259626	-8.569493E-9	NaN
512	1.000000	0.692837	7.37006e+06	-51489.1	1005.82	-29752.2	0.000000	0.000000	6.693004	-0.062670	NaN	0.000000	0.001517	0.001769	28.0809	0.060367	0.002037	29.6352	-102.735	14.5088	-0.044914	0.691493	-0.410232	-0.411576	-0.062670	29.6352	-0.408646	-177477	3.531169E-7	NaN
512	1.000000	0.702832	7.37006e+06	-51489.1	1005.82	-29752.2	0.000000	0.000000	6.703001	-0.007920	NaN	0.000000	0.001524	0.001767	28.0806	0.165426	0.002042	81.0183	53.9803	-168.072	0.057818	0.701543	-0.400237	-0.401526	-0.007920	81.0183	-0.400164	-134378	5.894070E-8	NaN
512	1.000000	0.712867	7.37006e+06	-51489.1	1005.82	-29752.2	0.000000	0.000000	6.713038	0.031275	NaN	0.000000	0.001580	0.001739	28.0805	0.086776	0.001945	44.6228	60.757	14.4717	0.072638	0.711508	-0.390202	-0.391561	0.031275	44.6228	-0.390727	-98530.3	-3.174150E-7	NaN
512	1.000000	0.722849	7.37006e+06	-51489.1	1005.82	-29752.2	0.000000	0.000000	6.723021	0.056887	NaN	0.000000	0.001541	0.001803	28.0803	0.092133	0.002126	43.3438	84.6137	-163.627	0.001595	0.721578	-0.380220	-0.381491	0.056887	43.3438	-0.381204	-71973.2	-7.903885E-7	NaN
512	1.000000	0.732875	7.37006e+06	-51489.1	1005.82	-29752.2	0.000000	0.000000	6.733043	-0.033300	NaN	0.000000	0.001533	0.001766	28.0807	0.080294	0.002020	39.7544	57.1912	10.6451	0.025554	0.731506	-0.370194	-0.371563	-0.033300	39.7544	-0.369566	-48963.5	6.800919E-7	NaN
512	1.000000	0.742845	7.37006e+06	-51489.1	1005.82	-29752.2	0.000000	0.000000	6.743015	0.012574	NaN	0.000000	0.001531	0.001770	28.0805	0.137524	0.001984	69.3166	-10.5259	-167.386	0.036347	0.741537	-0.360224	-0.361531	0.012574	69.3166	-0.360360	-36061.8	-3.486824E-7	NaN
512	1.000000	0.752885	7.37006e+06	-51489.1	1005.82	-29752.2	0.000000	0.000000	6.753053	-0.034210	NaN	0.000000	0.001582	0.001704	28.0806	0.013479	0.002004	6.727510	93.6972	14.5076	-0.074618	0.751494	-0.350184	-0.351575	-0.034210	6.727510	-0.346370	-22609	1.513129E-6	NaN
512	1.000000	0.762878	7.37006e+06	-51489.1	1005.82	-29752.2	0.000000	0.000000	6.763050	0.049139	NaN	0.000000	0.001559	0.001708	28.0819	0.063680	0.002040	31.2206	-174.156	-167.797	0.046929	0.761514	-0.340190	-0.341554	0.049139	31.2206	-0.341371	-19121.8	-2.569804E-6	NaN
512	1.000000	0.772901	7.37006e+06	-51489.1	1005.82	-29752.2	0.000000	0.000000	6.773071	0.014571	NaN	0.000000	0.001558	0.001693	28.0822	0.073567	0.001989	36.9827	13.8607	13.7277	-0.021968	0.771516	-0.330168	-0.331553	0.014571	36.9827	-0.330463	-13250.6	-1.099669E-6	NaN
512	1.000000	0.782897	7.37006e+06	-51489.1	1005.82	-29752.2	0.000000	0.000000	6.783066	-0.010442	NaN	0.000000	0.001535	0.001749	28.0817	0.099680	0.002021	49.3245	-173.621	-163.941	-0.104099	0.781606	-0.320172	-0.321463	-0.010442	49.3245	-0.320013	-9307.41	1.121943E-6	NaN
512	1.000000	0.792885	7.37006e+06	-51489.1	1005.82	-29752.2	0.000000	0.000000	6.793057	0.040224	NaN	0.000000	0.001529	0.001714	28.0818	0.081153	0.001974	41.108	-68.8999	12.8539	0.085509	0.791499	-0.310184	-0.311569	0.040224	41.108	-0.310917	-6833.27	-5.886460E-6	NaN
512	1.000000	0.802910	7.37006e+06	-51489.1	1005.82	-29752.2	0.000000	0.000000	6.803079	-0.009792	NaN	0.000000	0.001521	0.001709	28.082	0.053957	0.002064	26.1469	-67.4772	-168.543	-0.056291	0.801585	-0.300159	-0.301484	-0.009792	26.1469	-0.299878	-4686.18	2.089470E-6	NaN
512	1.000000	0.812921	7.37006e+06	-51489.1	1005.82	-29752.2	0.000000	0.000000	6.813090	-0.023990	NaN	0.000000	0.001610	0.001744	28.0818	0.083671	0.001950	42.8987	8.696668	12.9009	-0.038529	0.811583	-0.290147	-0.291485	-0.023990	42.8987	-0.289728	-3305.4	7.257952E-6	NaN
512	1.000000	0.822907	7.37006e+06	-51489.1	1005.82	-29752.2	0.000000	0.000000	6.823076	-0.014337	NaN	0.000000	0.001660	0.001699	28.0818	0.172390	0.001952	88.3213	-165.784	-165.531	0.012173	0.821558	-0.280162	-0.281511	-0.014337	88.3213	-0.280040	-2363.61	6.065571E-6	NaN
512	1.000000	0.832912	7.37006e+06	-51489.1	1005.82	-29752.2	0.000000	0.000000	6.833081	-0.010143	NaN	0.000000	0.001602	0.001734	28.0818	0.131228	0.002104	62.3609	81.2589	15.3023	-0.015196	0.831567	-0.270157	-0.271501	-0.010143	62.3609	-0.270035	-1667.53	6.082636E-6	NaN
512	1.000000	0.842915	7.37006e+06	-51489.1	1005.82	-29752.2	0.000000	0.000000	6.843084	-0.019786	NaN	0.000000	0.001586	0.001739	28.0818	0.137269	0.001888	72.7115	144.642	-165.66	-0.046714	0.841573	-0.260154	-0.261495	-0.019786	72.7115	-0.259950	-1169.89	1.691283E-5	NaN
512	1.000000	0.852920	7.37006e+06	-51489.1	1005.82	-29752.2	0.000000	0.000000	6.853090	-0.000640	NaN	0.000000	0.001549	0.001710	28.0818	0.156616	0.002125	73.7113	95.2865	12.433	-0.021894	0.851584	-0.250149	-0.251485	-0.000640	73.7113	-0.250142	-826.349	7.740093E-7	NaN
512	1.000000	0.862907	7.37006e+06	-51489.1	1005.82	-29752.2	0.000000	0.000000	6.863076	-0.032143	NaN	0.000000	0.001517	0.001733	28.0817	0.015885	0.001963	8.091976	151.3	-166.495	-0.073941	0.861603	-0.240161	-0.241466	-0.032143	8.091976	-0.237182	-519.367	6.188898E-5	NaN
512	1.000000	0.872925	7.37006e+06	-51489.1	1005.82	-29752.2	0.000000	0.000000	6.873097	0.058603	NaN	0.000000	0.001528	0.001697	28.0819	0.059765	0.001893	31.566	-161.357	10.8524	0.029302	0.871605	-0.230143	-0.231464	0.058603	31.566	-0.231536	-423.396	-0.000138	NaN
512	1.000000	0.882862	7.37006e+06	-51489.1	1005.82	-29752.2	0.000000	0.000000	6.883033	0.024987	NaN	0.000000	0.001534	0.001718	28.0819	0.155597	0.002020	77.0259	-102.423	-167.365	0.059370	0.881690	-0.220207	-0.221379	0.024987	77.0259	-0.220450	-282.399	-8.847973E-5	NaN
512	1.000000	0.892943	7.37006e+06	-51489.1	1005.82	-29752.2	0.000000	0.000000	6.893113	-0.006422	NaN	0.000000	0.001524	0.001729	28.0818	0.031432	0.002205	14.252	-39.1799	13.1052	-0.013166	0.891558	-0.210125	-0.211511	-0.006422	14.252	-0.209788	-190.273	3.375117E-5	NaN
512	1.000000	0.902948	7.37006e+06	-51489.1	1005.82	-29752.2	0.000000	0.000000	6.903118	0.005771	NaN	0.000000	0.001539	0.001683	28.0805	0.030051	0.001978	15.1948	108.755	-166.16	0.068688	0.901622	-0.200121	-0.201447	0.005771	15.1948	-0.200406	-133.772	-4.314015E-5	NaN
512	1.000000	0.912934	7.37006e+06	-51489.1	1005.82	-29752.2	0.000000	0.000000	6.913105	0.024037	NaN	0.000000	0.001558	0.001694	28.0806	0.118726	0.001915	61.9877	-16.2088	15.7233	-0.071752	0.911514	-0.190134	-0.191555	0.024037	61.9877	-0.190425	-91.4383	-0.000263	NaN
512	1.000000	0.922923	7.37006e+06	-51489.1	1005.82	-29752.2	0.000000	0.000000	6.923092	-0.017130	NaN	0.000000	0.001556	0.001719	28.0803	0.032286	0.002062	15.6575	132.663	-166.533	-0.034203	0.921639	-0.180145	-0.181429	-0.017130	15.6575	-0.179325	-59.4258	0.000288	NaN
512	1.000000	0.932940	7.37006e+06	-51489.1	1005.82	-29752.2	0.000000	0.000000	6.933108	-0.023955	NaN	0.000000	0.001574	0.001736	28.0803	0.176474	0.002038	86.5929	31.9803	12.8427	-0.028936	0.931590	-0.170129	-0.171479	-0.023955	86.5929	-0.169922	-40.9498	0.000585	NaN
512	1.000000	0.942924	7.37006e+06	-51489.1	1005.82	-29752.2	0.000000	0.000000	6.943098	0.097908	NaN	0.000000	0.001562	0.001694	28.0807	0.044348	0.002075	21.3774	161.372	-168.358	0.132268	0.941659	-0.160145	-0.161410	0.097908	21.3774	-0.163580	-31.7194	-0.003087	NaN
512	1.000000	0.952975	7.37006e+06	-51489.1	1005.82	-29752.2	0.000000	0.000000	6.953144	-0.033966	NaN	0.000000	0.001550	0.001732	28.0802	0.050947	0.001879	27.1109	-69.5201	12.85	0.039519	0.951608	-0.150093	-0.151461	-0.033966	27.1109	-0.149154	-17.4805	0.001943	NaN
512	1.000000	0.962938	7.37006e+06	-51489.1	1005.82	-29752.2	0.000000	0.000000	6.963109	0.049517	NaN	0.000000	0.001575	0.001712	28.0805	0.045838	0.002122	21.6051	-141.968	-166.226	-0.018325	0.961667	-0.140131	-0.141402	0.049517	21.6051	-0.141850	-12.812	-0.003865	NaN
512	1.000000	0.972953	7.37006e+06	-51489.1	1005.82	-29752.2	0.000000	0.000000	6.973121	-0.043257	NaN	0.000000	0.001521	0.001721	28.0804	0.083397	0.001961	42.534	17.8572	11.9828	0.011851	0.971588	-0.130116	-0.131481	-0.043257	42.534	-0.129353	-7.403332	0.005843	NaN
512	1.000000	0.982971	7.37006e+06	-51489.1	1005.82	-29752.2	0.000000	0.000000	6.983138	-0.061471	NaN	0.000000	0.001548	0.001705	28.0806	0.079269	0.001993	39.7713	47.3758	-167.816	-0.055921	0.981672	-0.120098	-0.121397	-0.061471	39.7713	-0.118938	-4.598442	0.013368	NaN
512	1.000000	0.992969	7.37006e+06	-51489.1	1005.82	-29752.2	0.000000	0.000000	6.993137	-0.051715	NaN	0.000000	0.001534	0.001708	28.0803	0.029690	0.002014	14.7408	-33.6499	12.7466	-0.092130	0.991610	-0.110100	-0.111459	-0.051715	14.7408	-0.107468	-2.655663	0.019474	NaN
512	1.000000	1.003003	7.37006e+06	-51489.1	1005.82	-29752.2	0.000000	0.000000	7.003170	-0.079330	NaN	0.000000	0.001550	0.001716	28.0803	0.087660	0.001994	43.9552	-92.3818	-165.444	-0.059557	1.001642	-0.100065	-0.101427	-0.079330	43.9552	-0.098712	-1.710468	0.046379	NaN
512	1.000000	1.012982	7.37006e+06	-51489.1	1005.82	-29752.2	0.000000	0.000000	7.013151	-0.030129	NaN	0.000000	0.001553	0.001736	28.0804	0.107874	0.001979	54.5102	-134.806	15.9391	-0.097951	1.011681	-0.090087	-0.091387	-0.030129	54.5102	-0.089672	-1.061977	0.028370	NaN
512	1.000000	1.022967	7.37006e+06	-51489.1	1005.82	-29752.2	0.000000	0.000000	7.023136	-0.011798	NaN	0.000000	0.001544	0.001703	28.0804	0.052204	0.001982	26.3445	-8.756278	-166.508	-0.038468	1.021633	-0.080102	-0.081436	-0.011798	26.3445	-0.079766	-0.610711	0.019319	NaN
512	1.000000	1.033018	7.37006e+06	-51489.1	1005.82	-29752.2	0.000000	0.000000	7.033187	-0.001183	NaN	0.000000	0.001562	0.001710	28.0812	0.073162	0.001926	37.9953	-170.317	11.3102	-0.017224	1.031603	-0.070051	-0.071466	-0.001183	37.9953	-0.070028	-0.341690	0.003461	NaN
512	1.000000	1.042968	7.37006e+06	-51489.1	1005.82	-29752.2	0.000000	0.000000	7.043139	0.028412	NaN	0.000000	0.001491	0.001722	28.0818	0.032347	0.002013	16.0696	101.822	-168.144	0.020900	1.041675	-0.060100	-0.061394	0.028412	16.0696	-0.061426	-0.197800	-0.143640	NaN
512	1.000000	1.052981	7.37006e+06	-51489.1	1005.82	-29752.2	0.000000	0.000000	7.053152	0.027256	NaN	0.000000	0.001508	0.001716	28.082	0.042845	0.001941	22.0726	176.882	11.9245	0.019145	1.051694	-0.050088	-0.051375	0.027256	22.0726	-0.051014	-0.097913	-0.278366	NaN
512	1.000000	1.062986	7.37006e+06	-51489.1	1005.82	-29752.2	0.000000	0.000000	7.063155	-0.032868	NaN	0.000000	0.001527	0.001707	28.0816	0.105963	0.001923	55.1028	-170.193	-164.767	-0.022513	1.061704	-0.040082	-0.041365	-0.032868	55.1028	-0.039635	-0.044083	0.745578	NaN
512	1.000000	1.073019	7.37006e+06	-51489.1	1005.82	-29752.2	0.000000	0.000000	7.073186	-0.061821	NaN	0.000000	0.001570	0.001750	28.0814	0.007667	0.001954	3.923307	-54.1474	13.7386	0.015424	1.071670	-0.030049	-0.031398	-0.061821	3.923307	-0.018231	-0.011318	5.462356	NaN
512	1.000000	1.082972	7.37006e+06	-51489.1	1005.82	-29752.2	0.000000	0.000000	7.083140	-0.046386	NaN	0.000000	0.001574	0.001739	28.0817	0.025042	0.001969	12.7193	109.832	-167.065	-0.119240	1.081717	-0.020097	-0.021352	-0.046386	12.7193	-0.017361	-0.010743	4.317690	NaN
512	1.000000	1.093045	7.37006e+06	-51489.1	1005.82	-29752.2	0.000000	0.000000	7.093215	0.010886	NaN	0.000000	0.001552	0.001713	28.0817	0.052629	0.002078	25.3237	76.3823	13.6931	0.030838	1.091639	-0.010024	-0.011429	0.010886	25.3237	-0.010346	-0.006585	-1.653121	NaN
512	1.000000	1.102969	7.37006e+06	-51489.1	1005.82	-29752.2	0.000000	0.000000	7.103315	4.279009	NaN	0.000000	0.001603	0.001709	28.0817	5.246589	0.001807	2902.94	17.5109	-173.339	3.301127	1.101686	-9.965719E-5	-0.001383	4.279009	2902.94	-0.001205	-0.000880	-4861.45	NaN
512	2.000000	1.108134	7.37006e+06	-51489.1	1005.82	-29752.2	0.000000	0.000000	7.108696	9.526544	NaN	0.000000	0.001584	0.001730	28.0815	9.985930	0.001653	6039.62	8.033265	5.308309	8.772552	1.107782	0.005066	0.004713	9.526544	6039.62	0.003883	0.003136	3037.36	98528.8
512	2.000000	1.110642	7.37007e+06	-51489.1	1005.82	-29752.2	0.000000	0.000000	7.111363	13.4273	NaN	0.000000	0.001599	0.001737	28.0823	13.7279	0.001731	7930.41	9.391293	-178.112	12.5755	1.110325	0.007573	0.007256	13.4273	7930.41	0.006303	0.005354	2507.77	99019.1
512	2.000000	1.113112	7.37007e+06	-51489.1	1005.82	-29752.2	0.000000	0.000000	7.114058	18.8884	NaN	0.000000	0.001619	0.001705	28.0815	15.3956	0.001769	8703.96	3.693552	8.963665	17.7622	1.112744	0.010043	0.009675	18.8884	8703.96	0.008416	0.007473	2527.47	91988.9
512	2.000000	1.115583	7.37007e+06	-51489.1	1005.82	-29752.2	0.000000	0.000000	7.116696	22.9406	NaN	0.000000	0.001625	0.001702	28.0821	18.4766	0.001722	10732.7	8.269822	-179.684	22.315	1.115292	0.012514	0.012223	22.9406	10732.7	0.010911	0.010211	2246.55	97037.2
512	2.000000	1.118064	7.37007e+06	-51489.1	1005.82	-29752.2	0.000000	0.000000	7.119363	27.4661	NaN	0.000000	0.001584	0.001757	28.0815	21.6606	0.001849	11716.6	8.209545	-0.054356	26.4764	1.117764	0.014995	0.014696	27.4661	11716.6	0.013237	0.013006	2111.87	93866
512	2.000000	1.120513	7.37007e+06	-51489.1	1005.82	-29752.2	0.000000	0.000000	7.121973	31.3541	NaN	0.000000	0.001547	0.001735	28.0826	23.7291	0.001858	12773.6	6.302672	-179.19	29.6447	1.120292	0.017445	0.017223	31.3541	12773.6	0.015604	0.016099	1947.59	91978.6
512	2.000000	1.123061	7.37007e+06	-51489.1	1005.82	-29752.2	0.000000	0.000000	7.124866	39.787	NaN	0.000000	0.001555	0.001730	28.0805	25.434	0.001818	13989.8	2.255659	5.280742	37.4775	1.122699	0.019992	0.019630	39.787	13989.8	0.017859	0.019289	2062.7	92030.4
512	2.000000	1.125530	7.37007e+06	-51489.1	1005.82	-29752.2	0.000000	0.000000	7.127553	45.0817	NaN	0.000000	0.001545	0.001731	28.0813	27.7322	0.001858	14923.9	9.749899	178.27	44.9524	1.125219	0.022461	0.022151	45.0817	14923.9	0.020195	0.022850	1972.94	90201
512	2.000000	1.128025	7.37007e+06	-51489.1	1005.82	-29752.2	0.000000	0.000000	7.130296	51.1108	NaN	0.000000	0.001551	0.001713	28.0801	30.8224	0.001867	16508	8.688407	-3.010627	50.1153	1.127659	0.024956	0.024590	51.1108	16508	0.022634	0.026851	1903.49	92041.8
512	2.000000	1.130567	7.37007e+06	-51489.1	1005.82	-29752.2	0.000000	0.000000	7.133116	57.8712	NaN	0.000000	0.001556	0.001717	28.0808	32.9676	0.001798	18338.9	6.451695	178.426	58.2599	1.130194	0.027498	0.027125	57.8712	18338.9	0.025131	0.031255	1851.6	94773.7
512	2.000000	1.133052	7.37007e+06	-51489.1	1005.82	-29752.2	0.000000	0.000000	7.136102	70.0343	NaN	0.000000	0.001568	0.001701	28.0804	34.3507	0.001786	19231.9	7.119409	-2.258114	67.9191	1.132577	0.029983	0.029509	70.0343	19231.9	0.027252	0.035240	1987.33	93600
512	2.000000	1.135530	7.37007e+06	-51489.1	1005.82	-29752.2	0.000000	0.000000	7.138794	75.2397	NaN	0.000000	0.001566	0.001705	28.0805	36.7832	0.001843	19958.8	3.410140	-179.567	75.4107	1.135206	0.032462	0.032137	75.2397	19958.8	0.029634	0.039989	1881.5	91187.8
512	2.000000	1.138004	7.37007e+06	-51489.1	1005.82	-29752.2	0.000000	0.000000	7.141724	86.3346	NaN	0.000000	0.001533	0.001733	28.0807	39.6078	0.001853	21377.7	5.966455	-2.245357	85.0912	1.137637	0.034936	0.034569	86.3346	21377.7	0.031907	0.044788	1927.62	92289.3
512	2.000000	1.140516	7.37007e+06	-51489.1	1005.82	-29752.2	0.000000	0.000000	7.144554	94.0825	NaN	0.000000	0.001553	0.001738	28.0806	41.753	0.001756	23780.3	8.118325	173.534	92.9433	1.140166	0.037447	0.037097	94.0825	23780.3	0.034480	0.050541	1861.49	96642.4
512	2.000000	1.143038	7.37007e+06	-51489.1	1005.82	-29752.2	0.000000	0.000000	7.147549	105.583	NaN	0.000000	0.001557	0.001758	28.0805	43.1221	0.001690	25510.3	5.338488	-3.847141	103.952	1.142605	0.039969	0.039537	105.583	25510.3	0.036865	0.056177	1879.46	98335.5
512	2.000000	1.145555	7.37007e+06	-51489.1	1005.82	-29752.2	0.000000	0.000000	7.150515	116.49	NaN	0.000000	0.001522	0.001737	28.0807	45.7085	0.001721	26564.8	8.538541	172.313	116.659	1.145258	0.042486	0.042189	116.49	26564.8	0.039197	0.061970	1879.78	97496.1
512	2.000000	1.148020	7.37007e+06	-51489.1	1005.82	-29752.2	0.000000	0.000000	7.153241	122.839	NaN	0.000000	0.001501	0.001731	28.0807	48.4487	0.001743	27800.1	4.255315	-3.951602	119.854	1.147635	0.044951	0.044567	122.839	27800.1	0.041637	0.068328	1797.78	97167.4
512	2.000000	1.150500	7.37007e+06	-51489.1	1005.82	-29752.2	0.000000	0.000000	7.156025	130.229	NaN	0.000000	0.001536	0.001748	28.0806	51.4173	0.001852	27760.1	1.551892	178.631	128.06	1.150273	0.047431	0.047204	130.229	27760.1	0.043912	0.074530	1747.34	92902.7
512	2.000000	1.152994	7.37007e+06	-51489.1	1005.82	-29752.2	0.000000	0.000000	7.159081	143.889	NaN	0.000000	0.001523	0.001765	28.0804	52.968	0.001800	29428.6	3.212506	-2.496542	140.583	1.152690	0.049925	0.049621	143.889	29428.6	0.046258	0.081198	1772.07	94355.9
512	2.000000	1.155433	7.37007e+06	-51489.1	1005.82	-29752.2	0.000000	0.000000	7.162045	156.649	NaN	0.000000	0.001535	0.001750	28.0806	55.3947	0.001786	31015.4	5.084273	174.236	152.786	1.155163	0.052365	0.052094	156.649	31015.4	0.048577	0.088064	1778.8	95488.5
512	2.000000	1.157967	7.37007e+06	-51489.1	1005.82	-29752.2	0.000000	0.000000	7.164991	166.673	NaN	0.000000	0.001534	0.001779	28.082	56.075	0.001670	33583.6	-1.985998	0.889186	163.248	1.157733	0.054898	0.054664	166.673	33583.6	0.051176	0.096084	1734.67	98986.6
512	2.000000	1.160494	7.37007e+06	-51489.1	1005.82	-29752.2	0.000000	0.000000	7.168049	179.6	NaN	0.000000	0.001560	0.001669	28.0819	61.0546	0.001851	32979.1	4.783582	174.353	177.456	1.160235	0.057425	0.057166	179.6	32979.1	0.053340	0.103017	1743.39	93876.4
512	2.000000	1.162959	7.37007e+06	-51489.1	1005.82	-29752.2	0.000000	0.000000	7.171208	196.463	NaN	0.000000	0.001510	0.001659	28.0817	62.9823	0.001883	33442.9	5.752045	-6.045291	190.42	1.162569	0.059890	0.059500	196.463	33442.9	0.055484	0.110115	1784.16	92077.6
512	2.000000	1.165494	7.37007e+06	-51489.1	1005.82	-29752.2	0.000000	0.000000	7.174265	209.144	NaN	0.000000	0.001498	0.001648	28.0819	65.0986	0.001700	38295.9	3.144868	174.919	207.369	1.165104	0.062426	0.062035	209.144	38295.9	0.058330	0.119887	1744.5	101051
512	2.000000	1.167964	7.37007e+06	-51489.1	1005.82	-29752.2	0.000000	0.000000	7.177363	224.406	NaN	0.000000	0.001526	0.001666	28.0819	68.3314	0.001744	39186.3	6.737724	-8.906475	221.001	1.167607	0.064895	0.064538	224.406	39186.3	0.060601	0.127970	1753.58	100081
512	2.000000	1.170565	7.37007e+06	-51489.1	1005.82	-29752.2	0.000000	0.000000	7.180480	236.982	NaN	0.000000	0.001535	0.001653	28.0821	72.7354	0.002035	35736.8	10.2473	169.324	240.233	1.170091	0.067496	0.067023	236.982	35736.8	0.062523	0.135010	1755.3	88860
512	2.000000	1.172914	7.37007e+06	-51489.1	1005.82	-29752.2	0.000000	0.000000	7.183641	256.712	NaN	0.000000	0.001520	0.001658	28.0819	72.4458	0.001775	40817.9	6.462626	-8.179340	250.47	1.172465	0.069845	0.069396	256.712	40817.9	0.065128	0.144837	1772.41	97990.3
512	2.000000	1.175461	7.37007e+06	-51489.1	1005.82	-29752.2	0.000000	0.000000	7.186662	268.243	NaN	0.000000	0.001549	0.001670	28.0824	74.2636	0.001910	38882.8	5.168067	172.703	264.837	1.175172	0.072392	0.072103	268.243	38882.8	0.067218	0.152957	1753.72	90833.7
512	2.000000	1.177939	7.37007e+06	-51489.1	1005.82	-29752.2	0.000000	0.000000	7.189896	286.619	NaN	0.000000	0.001573	0.001674	28.0817	76.2601	0.001778	42881.3	3.243307	-6.442938	283.186	1.177683	0.074870	0.074614	286.619	42881.3	0.069857	0.163509	1752.93	96888.2
512	2.000000	1.180544	7.37007e+06	-51489.1	1005.82	-29752.2	0.000000	0.000000	7.193019	299.212	NaN	0.000000	0.001584	0.001694	28.082	80.3348	0.001829	43932.8	5.734868	171.304	303.967	1.180200	0.077476	0.077132	299.212	43932.8	0.072368	0.173852	1721.07	96265.8
512	2.000000	1.183019	7.37007e+06	-51489.1	1005.82	-29752.2	0.000000	0.000000	7.196460	322.716	NaN	0.000000	0.001565	0.001641	28.0818	81.1144	0.001845	43957.7	6.342304	-8.888351	322.164	1.182587	0.079950	0.079518	322.716	43957.7	0.074444	0.182633	1767.02	93976.4
512	2.000000	1.185461	7.37007e+06	-51489.1	1005.82	-29752.2	0.000000	0.000000	7.199648	340.868	NaN	0.000000	0.001587	0.001654	28.0825	83.1972	0.001740	47800.9	3.702348	172.356	339.841	1.185236	0.082392	0.082167	340.868	47800.9	0.077044	0.193915	1757.82	99175.3
512	2.000000	1.187931	7.37007e+06	-51489.1	1005.82	-29752.2	0.000000	0.000000	7.203120	365.217	NaN	0.000000	0.001589	0.001684	28.0818	85.8754	0.001789	47989.5	3.840872	-7.321408	359.479	1.187541	0.084862	0.084473	365.217	47989.5	0.079155	0.203308	1796.37	97239.3
512	2.000000	1.190379	7.37007e+06	-51489.1	1005.82	-29752.2	0.000000	0.000000	7.206516	388.285	NaN	0.000000	0.001575	0.001710	28.081	89.3482	0.001855	48158.3	4.863115	171.845	385.754	1.190053	0.087310	0.086984	388.285	48158.3	0.081263	0.212897	1823.81	95358.5
512	2.000000	1.192880	7.37007e+06	-51489.1	1005.82	-29752.2	0.000000	0.000000	7.210154	415.919	NaN	0.000000	0.001609	0.001682	28.0806	89.2303	0.001741	51265.4	1.064847	-4.706766	407.996	1.192562	0.089811	0.089493	415.919	51265.4	0.083726	0.224362	1853.78	98883.1
512	2.000000	1.195329	7.37007e+06	-51489.1	1005.82	-29752.2	0.000000	0.000000	7.213366	434.453	NaN	0.000000	0.001622	0.001716	28.081	91.7037	0.001760	52096.2	3.820191	171.906	427.349	1.195187	0.092261	0.092119	434.453	52096.2	0.086006	0.235224	1846.98	98138.3
512	2.000000	1.197903	7.37007e+06	-51489.1	1005.82	-29752.2	0.000000	0.000000	7.216938	458.744	NaN	0.000000	0.001613	0.001681	28.0807	96.3427	0.001795	53668.1	6.082820	-10.7272	452.057	1.197559	0.094834	0.094490	458.744	53668.1	0.088423	0.247002	1857.25	98659.7
512	2.000000	1.200415	7.37007e+06	-51489.1	1005.82	-29752.2	0.000000	0.000000	7.220348	480.564	NaN	0.000000	0.001624	0.001716	28.0808	98.7949	0.001843	53591.2	3.712902	172.045	478.79	1.200133	0.097347	0.097065	480.564	53591.2	0.090621	0.257944	1863.05	96406
512	2.000000	1.203019	7.37007e+06	-51489.1	1005.82	-29752.2	0.000000	0.000000	7.223766	500.362	NaN	0.000000	0.001617	0.001645	28.0808	100.065	0.001824	54851.2	4.263776	-8.192695	499.069	1.202533	0.099950	0.099465	500.362	54851.2	0.093108	0.270594	1849.13	96338.7
512	2.000000	1.204861	7.37007e+06	-51489.1	1005.82	-29752.2	0.000000	0.000000	7.226653	525.762	NaN	0.000000	0.001618	0.001645	28.0809	102.629	0.001846	55593.8	4.948978	-9.566436	518.615	1.204505	0.101792	0.101437	525.762	55593.8	0.094699	0.278834	1885.57	96189.2