File: remote_trans/data/nanoindenter/0828-1/data/Data_2025-08-06,11h17m57s/2025-07-22_16-23-58_1_464.txt
2025-07-22, 16:23:58, 1
Index	Phase	Displacement	Time	Pos X	Pos Y	Pos Z	Rot A	Rot B	Piezo Z	Force A	Force B	Gripper	Voltage A	Voltage B	Temperature	Amplitude force	Amplitude pos	Stiffness	Phase shift	Phase excitation	Force A raw	Displacement raw	HMax	HMax raw	Real Force	Real Stiffness	Contact Depth	Area	Hardness	Reduced Mod.
[#]	[#]	[um]	[s]	[um]	[um]	[um]	[m°]	[m°]	[um]	[uN]	[uN]	[V]	[V]	[V]	[°C]	[uN]	[um]	[N/m]	[°]	[°]	[uN]	[um]	[um]	[um]	[uN]	[N/m]	[um]	[um^2]	[MPa]	[MPa]
464	1.000000	0.003024	7.3696e+06	-53889.1	1005.82	-29745.1	0.000000	0.000000	6.002801	-0.053410	NaN	0.000000	0.001653	0.001816	28.0803	0.085819	0.001006	85.3464	134.093	-161.857	-0.055843	0.001768	-1.075273	-1.076530	-0.053410	85.3464	-1.074804	-2.299995E+14	2.322165E-16	NaN
464	1.000000	0.011021	7.3696e+06	-53889.1	1005.82	-29745.1	0.000000	0.000000	6.010799	-0.033214	NaN	0.000000	0.001638	0.001810	28.0803	0.114332	0.000924	123.741	-0.536646	-172.47	-0.069953	0.009632	-1.067276	-1.068666	-0.033214	123.741	-1.067075	-1.810877E+14	1.834148E-16	NaN
464	1.000000	0.018965	7.3696e+06	-53889.1	1005.82	-29745.1	0.000000	0.000000	6.018743	-0.031310	NaN	0.000000	0.001657	0.001786	28.0802	0.067400	0.001646	40.9575	114.482	-165.095	-0.107280	0.017664	-1.059332	-1.060634	-0.031310	40.9575	-1.058759	-1.400047E+14	2.236327E-16	NaN
464	1.000000	0.027038	7.3696e+06	-53889.1	1005.82	-29745.1	0.000000	0.000000	6.026813	-0.104818	NaN	0.000000	0.001667	0.001783	28.0803	0.180296	0.001816	99.3089	-104.59	-164.397	-0.096385	0.025687	-1.051260	-1.052610	-0.104818	99.3089	-1.050468	-1.083203E+14	9.676629E-16	NaN
464	1.000000	0.034969	7.3696e+06	-53889.1	1005.82	-29745.1	0.000000	0.000000	6.034745	-0.084128	NaN	0.000000	0.001670	0.001774	28.0802	0.065633	0.002002	32.7846	-117.693	-166.678	-0.001108	0.033651	-1.043329	-1.044647	-0.084128	32.7846	-1.041404	-8.181826E+13	1.028226E-15	NaN
464	1.000000	0.042973	7.3696e+06	-53889.1	1005.82	-29745.1	0.000000	0.000000	6.042753	-0.002280	NaN	0.000000	0.001659	0.001822	28.0804	0.118727	0.001947	60.9798	96.0973	-165.219	-0.027928	0.041661	-1.035324	-1.036636	-0.002280	60.9798	-1.035296	-6.771900E+13	3.367003E-17	NaN
464	1.000000	0.050978	7.3696e+06	-53889.1	1005.82	-29745.1	0.000000	0.000000	6.050756	-0.044576	NaN	0.000000	0.001642	0.001827	28.0815	0.037112	0.001886	19.6783	-40.8399	-166.013	-0.000669	0.049673	-1.027319	-1.028624	-0.044576	19.6783	-1.025621	-5.018456E+13	8.882323E-16	NaN
464	1.000000	0.058974	7.3696e+06	-53889.1	1005.82	-29745.1	0.000000	0.000000	6.058751	-0.045622	NaN	0.000000	0.001651	0.001821	28.0804	0.171012	0.002106	81.2217	-76.8217	-164.907	-0.002819	0.057689	-1.019324	-1.020608	-0.045622	81.2217	-1.018903	-4.075542E+13	1.119413E-15	NaN
464	1.000000	0.066950	7.3696e+06	-53889.1	1005.82	-29745.1	0.000000	0.000000	6.066729	-0.005376	NaN	0.000000	0.001659	0.001808	28.0806	0.083574	0.002055	40.6596	116.793	-166.559	0.001433	0.065631	-1.011348	-1.012667	-0.005376	40.6596	-1.011249	-3.215036E+13	1.672264E-16	NaN
464	1.000000	0.074966	7.3696e+06	-53889.1	1005.82	-29745.1	0.000000	0.000000	6.074744	-0.041026	NaN	0.000000	0.001658	0.001842	28.0806	0.126500	0.001923	65.7918	119.134	-165.744	-0.067599	0.073660	-1.003331	-1.004638	-0.041026	65.7918	-1.002864	-2.479268E+13	1.654761E-15	NaN
464	1.000000	0.082996	7.3696e+06	-53889.1	1005.82	-29745.1	0.000000	0.000000	6.082770	-0.120093	NaN	0.000000	0.001645	0.001840	28.0804	0.121698	0.002147	56.6773	-67.0438	-164.837	-0.055062	0.081684	-0.995302	-0.996613	-0.120093	56.6773	-0.993713	-1.866859E+13	6.432907E-15	NaN
464	1.000000	0.090981	7.3696e+06	-53889.1	1005.82	-29745.1	0.000000	0.000000	6.090757	-0.075819	NaN	0.000000	0.001629	0.001814	28.0805	0.075115	0.001949	38.5407	89.2744	-167.583	-0.132196	0.089725	-0.987317	-0.988572	-0.075819	38.5407	-0.985841	-1.462510E+13	5.184186E-15	NaN
464	1.000000	0.098990	7.3696e+06	-53889.1	1005.82	-29745.1	0.000000	0.000000	6.098768	-0.036652	NaN	0.000000	0.001615	0.001830	28.0806	0.078103	0.001972	39.6083	82.1727	-167.119	-0.052462	0.097660	-0.979308	-0.980638	-0.036652	39.6083	-0.978613	-1.168774E+13	3.135917E-15	NaN
464	1.000000	0.107019	7.3696e+06	-53889.1	1005.82	-29745.1	0.000000	0.000000	6.106795	-0.081351	NaN	0.000000	0.001633	0.001807	28.0792	0.081544	0.001981	41.1732	80.3388	-165.263	-0.123354	0.105713	-0.971279	-0.972584	-0.081351	41.1732	-0.969797	-8.890502E+12	9.150274E-15	NaN
464	1.000000	0.114978	7.3696e+06	-53889.1	1005.82	-29745.1	0.000000	0.000000	6.114758	0.014767	NaN	0.000000	0.001650	0.001831	28.0794	0.037460	0.001963	19.0876	-21.9377	-166.066	-0.057124	0.113710	-0.963319	-0.964588	0.014767	19.0876	-0.963900	-7.403557E+12	-1.994595E-15	NaN
464	1.000000	0.122991	7.3696e+06	-53889.1	1005.82	-29745.1	0.000000	0.000000	6.122769	-0.031634	NaN	0.000000	0.001627	0.001840	28.0795	0.063210	0.002139	29.5505	-111.039	-166.957	-0.071588	0.121637	-0.955307	-0.956661	-0.031634	29.5505	-0.954504	-5.530485E+12	5.719986E-15	NaN
464	1.000000	0.130988	7.3696e+06	-53889.1	1005.82	-29745.1	0.000000	0.000000	6.130764	-0.058395	NaN	0.000000	0.001612	0.001833	28.0797	0.033941	0.002097	16.1821	-67.6364	-164.87	-0.098870	0.129732	-0.947310	-0.948566	-0.058395	16.1821	-0.944604	-4.066687E+12	1.435927E-14	NaN
464	1.000000	0.139011	7.3696e+06	-53889.1	1005.82	-29745.1	0.000000	0.000000	6.138788	-0.061616	NaN	0.000000	0.001651	0.001808	28.0791	0.073881	0.001965	37.6079	174.248	-164.672	-0.156460	0.137677	-0.939286	-0.940621	-0.061616	37.6079	-0.938058	-3.318425E+12	1.856779E-14	NaN
464	1.000000	0.146981	7.3696e+06	-53889.1	1005.82	-29745.1	0.000000	0.000000	6.146759	-0.038823	NaN	0.000000	0.001687	0.001810	28.0791	0.040883	0.001999	20.4503	107.115	-167.234	-0.051260	0.145711	-0.931316	-0.932586	-0.038823	20.4503	-0.929893	-2.574817E+12	1.507811E-14	NaN
464	1.000000	0.154998	7.3696e+06	-53889.1	1005.82	-29745.1	0.000000	0.000000	6.154777	-0.017172	NaN	0.000000	0.001614	0.001867	28.0794	0.029720	0.002079	14.2942	-60.2016	-165.179	-0.051633	0.153717	-0.923299	-0.924581	-0.017172	14.2942	-0.922398	-2.039793E+12	8.418367E-15	NaN
464	1.000000	0.163007	7.3696e+06	-53889.1	1005.82	-29745.1	0.000000	0.000000	6.162784	-0.057275	NaN	0.000000	0.001615	0.001835	28.0791	0.111628	0.001970	56.654	-147.861	-166.495	-0.051391	0.161699	-0.915291	-0.916599	-0.057275	56.654	-0.914533	-1.597271E+12	3.585779E-14	NaN
464	1.000000	0.170994	7.3696e+06	-53889.1	1005.82	-29745.1	0.000000	0.000000	6.170773	-0.015352	NaN	0.000000	0.001623	0.001805	28.0797	0.070169	0.001784	39.3401	78.9055	-165.586	-0.006090	0.169689	-0.907303	-0.908609	-0.015352	39.3401	-0.907011	-1.264107E+12	1.214488E-14	NaN
464	1.000000	0.178997	7.3696e+06	-53889.1	1005.82	-29745.1	0.000000	0.000000	6.178774	-0.057039	NaN	0.000000	0.001624	0.001826	28.0792	0.071557	0.002050	34.8995	168.88	-164.374	-0.117774	0.177694	-0.899301	-0.900604	-0.057039	34.8995	-0.898075	-9.573077E+11	5.958310E-14	NaN
464	1.000000	0.187031	7.3696e+06	-53889.1	1005.82	-29745.1	0.000000	0.000000	6.186806	-0.111995	NaN	0.000000	0.001607	0.001762	28.0793	0.039636	0.002043	19.3978	11.7313	-165.427	-0.115386	0.185759	-0.891266	-0.892538	-0.111995	19.3978	-0.886936	-6.768581E+11	1.654629E-13	NaN
464	1.000000	0.195032	7.3696e+06	-53889.1	1005.82	-29745.1	0.000000	0.000000	6.194809	-0.034577	NaN	0.000000	0.001643	0.001779	28.0794	0.056446	0.002159	26.1421	99.2372	-166.401	-0.102827	0.193737	-0.883266	-0.884560	-0.034577	26.1421	-0.882274	-5.854088E+11	5.906460E-14	NaN
464	1.000000	0.203023	7.3696e+06	-53889.1	1005.82	-29745.1	0.000000	0.000000	6.202800	-0.054801	NaN	0.000000	0.001670	0.001762	28.0792	0.033188	0.001960	16.9306	-34.5111	-163.786	-0.079771	0.201767	-0.875275	-0.876531	-0.054801	16.9306	-0.872847	-4.364756E+11	1.255534E-13	NaN
464	1.000000	0.211059	7.3696e+06	-53889.1	1005.82	-29745.1	0.000000	0.000000	6.210839	0.008067	NaN	0.000000	0.001623	0.001798	28.0795	0.042337	0.001888	22.4206	100.586	-165.961	0.009066	0.209718	-0.867238	-0.868579	0.008067	22.4206	-0.867508	-3.695954E+11	-2.182657E-14	NaN
464	1.000000	0.219044	7.3696e+06	-53889.1	1005.82	-29745.1	0.000000	0.000000	6.218818	-0.124740	NaN	0.000000	0.001612	0.001785	28.0791	0.036912	0.001982	18.6284	-119.452	-168.377	-0.120741	0.217739	-0.859254	-0.860559	-0.124740	18.6284	-0.854232	-2.443626E+11	5.104716E-13	NaN
464	1.000000	0.227053	7.3696e+06	-53889.1	1005.82	-29745.1	0.000000	0.000000	6.226829	-0.073247	NaN	0.000000	0.001629	0.001783	28.0795	0.014402	0.001993	7.225957	40.3582	-167.984	-0.068181	0.225749	-0.851245	-0.852548	-0.073247	7.225957	-0.843642	-1.756435E+11	4.170221E-13	NaN
464	1.000000	0.235065	7.3696e+06	-53889.1	1005.82	-29745.1	0.000000	0.000000	6.234840	-0.118384	NaN	0.000000	0.001718	0.001798	28.0793	0.064645	0.001944	33.2511	-155.284	-167.004	-0.095243	0.233725	-0.843233	-0.844573	-0.118384	33.2511	-0.840562	-1.595549E+11	7.419654E-13	NaN
464	1.000000	0.243039	7.3696e+06	-53889.1	1005.82	-29745.1	0.000000	0.000000	6.242816	-0.065047	NaN	0.000000	0.001711	0.001779	28.0803	0.057496	0.001995	28.8141	-146.349	-166.521	0.010126	0.241724	-0.835258	-0.836574	-0.065047	28.8141	-0.833565	-1.282633E+11	5.071334E-13	NaN
464	1.000000	0.251058	7.3696e+06	-53889.1	1005.82	-29745.1	0.000000	0.000000	6.250835	-0.057850	NaN	0.000000	0.001670	0.001797	28.0804	0.081015	0.001951	41.5178	-111.49	-169.755	-0.019948	0.249716	-0.827240	-0.828582	-0.057850	41.5178	-0.826195	-1.019063E+11	5.676766E-13	NaN
464	1.000000	0.259034	7.3696e+06	-53889.1	1005.82	-29745.1	0.000000	0.000000	6.258813	-0.012332	NaN	0.000000	0.001703	0.001740	28.0803	0.117455	0.001977	59.4089	-39.0235	-164.679	-0.045866	0.257756	-0.819264	-0.820541	-0.012332	59.4089	-0.819108	-8.168031E+10	1.509810E-13	NaN
464	1.000000	0.267057	7.3696e+06	-53889.1	1005.82	-29745.1	0.000000	0.000000	6.266837	-0.000732	NaN	0.000000	0.001707	0.001769	28.0807	0.092726	0.002000	46.3599	-136.803	-168.276	0.011572	0.265744	-0.811240	-0.812554	-0.000732	46.3599	-0.811229	-6.386140E+10	1.146075E-14	NaN
464	1.000000	0.275058	7.3696e+06	-53889.1	1005.82	-29745.1	0.000000	0.000000	6.274837	-0.005343	NaN	0.000000	0.001713	0.001724	28.0807	0.087573	0.001927	45.4441	-57.5539	-166.578	0.010782	0.273747	-0.803240	-0.804551	-0.005343	45.4441	-0.803151	-4.961782E+10	1.076908E-13	NaN
464	1.000000	0.283064	7.3696e+06	-53889.1	1005.82	-29745.1	0.000000	0.000000	6.282841	-0.071996	NaN	0.000000	0.001736	0.001703	28.0804	0.022729	0.002095	10.8491	25.7584	-166.917	-0.113415	0.281826	-0.795233	-0.796472	-0.071996	10.8491	-0.790256	-3.315608E+10	2.171425E-12	NaN
464	1.000000	0.291066	7.3696e+06	-53889.1	1005.82	-29745.1	0.000000	0.000000	6.290841	-0.098299	NaN	0.000000	0.001669	0.001744	28.0804	0.093906	0.002054	45.7208	-100.032	-169.605	-0.061151	0.289831	-0.787232	-0.788467	-0.098299	45.7208	-0.785619	-2.868021E+10	3.427411E-12	NaN
464	1.000000	0.299069	7.3696e+06	-53889.1	1005.82	-29745.1	0.000000	0.000000	6.298845	-0.091360	NaN	0.000000	0.001715	0.001738	28.0804	0.118352	0.002054	57.6266	133.045	-165.928	-0.067547	0.297776	-0.779228	-0.780521	-0.091360	57.6266	-0.778039	-2.262499E+10	4.037999E-12	NaN
464	1.000000	0.307096	7.3696e+06	-53889.1	1005.82	-29745.1	0.000000	0.000000	6.306871	-0.116854	NaN	0.000000	0.001708	0.001794	28.0806	0.087132	0.002044	42.6226	173.277	-165.585	-0.019637	0.305783	-0.771201	-0.772515	-0.116854	42.6226	-0.769145	-1.712699E+10	6.822822E-12	NaN
464	1.000000	0.315069	7.3696e+06	-53889.1	1005.82	-29745.1	0.000000	0.000000	6.314845	-0.084843	NaN	0.000000	0.001717	0.001809	28.0804	0.036400	0.002069	17.5955	56.2094	-166.264	-0.214912	0.313810	-0.763229	-0.764487	-0.084843	17.5955	-0.759612	-1.270649E+10	6.677175E-12	NaN
464	1.000000	0.323103	7.3696e+06	-53889.1	1005.82	-29745.1	0.000000	0.000000	6.322881	-0.033720	NaN	0.000000	0.001621	0.001775	28.081	0.089842	0.001975	45.4907	-176.557	-165.548	-0.053557	0.321752	-0.755195	-0.756546	-0.033720	45.4907	-0.754639	-1.087310E+10	3.101236E-12	NaN
464	1.000000	0.331105	7.3696e+06	-53889.1	1005.82	-29745.1	0.000000	0.000000	6.330882	-0.057035	NaN	0.000000	0.001634	0.001799	28.0805	0.061795	0.002040	30.2952	-107.68	-167.166	-0.171879	0.329856	-0.747192	-0.748442	-0.057035	30.2952	-0.745780	-8.237052E+9	6.924150E-12	NaN
464	1.000000	0.339109	7.3696e+06	-53889.1	1005.82	-29745.1	0.000000	0.000000	6.338886	-0.046897	NaN	0.000000	0.001623	0.001795	28.0806	0.109044	0.001956	55.7458	-129.417	-164.32	-0.051750	0.337751	-0.739189	-0.740547	-0.046897	55.7458	-0.738558	-6.567704E+9	7.140553E-12	NaN
464	1.000000	0.347089	7.3696e+06	-53889.1	1005.82	-29745.1	0.000000	0.000000	6.346868	-0.005561	NaN	0.000000	0.001634	0.001778	28.0805	0.077751	0.001903	40.8679	93.1017	-164.531	-0.039226	0.345729	-0.731208	-0.732569	-0.005561	40.8679	-0.731106	-5.198592E+9	1.069706E-12	NaN
464	1.000000	0.355082	7.3696e+06	-53889.1	1005.82	-29745.1	0.000000	0.000000	6.354860	-0.043126	NaN	0.000000	0.001657	0.001781	28.0804	0.109195	0.001870	58.4009	130.171	-169.45	0.014215	0.353777	-0.723216	-0.724521	-0.043126	58.4009	-0.722662	-3.988133E+9	1.081349E-11	NaN
464	1.000000	0.363063	7.3696e+06	-53889.1	1005.82	-29745.1	0.000000	0.000000	6.362839	-0.078855	NaN	0.000000	0.001680	0.001809	28.0808	0.057384	0.002051	27.9844	29.3288	-167.754	-0.023696	0.361842	-0.715235	-0.716455	-0.078855	27.9844	-0.713121	-2.955556E+9	2.668033E-11	NaN
464	1.000000	0.371122	7.3696e+06	-53889.1	1005.82	-29745.1	0.000000	0.000000	6.370901	-0.014091	NaN	0.000000	0.001724	0.001762	28.0806	0.105666	0.002035	51.9233	93.2043	-169.106	-0.067533	0.369818	-0.707176	-0.708479	-0.014091	51.9233	-0.706972	-2.436260E+9	5.784012E-12	NaN
464	1.000000	0.379092	7.3696e+06	-53889.1	1005.82	-29745.1	0.000000	0.000000	6.378868	-0.101991	NaN	0.000000	0.001685	0.001799	28.0796	0.022291	0.001865	11.9503	-6.353531	-164.652	-0.125965	0.377755	-0.699205	-0.700543	-0.101991	11.9503	-0.692804	-1.560397E+9	6.536236E-11	NaN
464	1.000000	0.387108	7.3696e+06	-53889.1	1005.82	-29745.1	0.000000	0.000000	6.386887	0.000818	NaN	0.000000	0.001713	0.001786	28.0793	0.032124	0.002040	15.7482	25.9745	-166.795	-0.070406	0.385767	-0.691190	-0.692530	0.000818	15.7482	-0.691229	-1.484952E+9	-5.506866E-13	NaN
464	1.000000	0.395117	7.3696e+06	-53889.1	1005.82	-29745.1	0.000000	0.000000	6.394897	0.009570	NaN	0.000000	0.001722	0.001740	28.0793	0.052960	0.002019	26.234	45.4114	-168.305	0.062316	0.393842	-0.683181	-0.684455	0.009570	26.234	-0.683454	-1.162630E+9	-8.231241E-12	NaN
464	1.000000	0.403138	7.3696e+06	-53889.1	1005.82	-29745.1	0.000000	0.000000	6.402918	0.004777	NaN	0.000000	0.001640	0.001739	28.0793	0.103593	0.001988	52.1033	-101.502	-166.117	-0.022741	0.401834	-0.675159	-0.676464	0.004777	52.1033	-0.675228	-8.972846E+8	-5.324067E-12	NaN
464	1.000000	0.411141	7.3696e+06	-53889.1	1005.82	-29745.1	0.000000	0.000000	6.410920	-0.011008	NaN	0.000000	0.001656	0.001740	28.0793	0.089425	0.001954	45.7653	161.839	-165.84	-0.148054	0.409788	-0.667157	-0.668509	-0.011008	45.7653	-0.666976	-6.918283E+8	1.591212E-11	NaN
464	1.000000	0.419143	7.3696e+06	-53889.1	1005.82	-29745.1	0.000000	0.000000	6.418917	-0.120413	NaN	0.000000	0.001647	0.001745	28.0796	0.163396	0.002158	75.729	75.612	-167.228	-0.009202	0.417776	-0.659155	-0.660521	-0.120413	75.729	-0.657962	-5.206562E+8	2.312724E-10	NaN
464	1.000000	0.427093	7.3696e+06	-53889.1	1005.82	-29745.1	0.000000	0.000000	6.426869	-0.088811	NaN	0.000000	0.001642	0.001727	28.0792	0.076853	0.001888	40.7025	37.9775	-160.737	-0.116421	0.425827	-0.651205	-0.652471	-0.088811	40.7025	-0.649568	-3.994983E+8	2.223070E-10	NaN
464	1.000000	0.435147	7.3696e+06	-53889.1	1005.82	-29745.1	0.000000	0.000000	6.434923	-0.080869	NaN	0.000000	0.001639	0.001763	28.0793	0.089799	0.001986	45.2265	-154.714	-166.686	-0.026081	0.433807	-0.643151	-0.644490	-0.080869	45.2265	-0.641810	-3.126941E+8	2.586202E-10	NaN
464	1.000000	0.443119	7.3696e+06	-53889.1	1005.82	-29745.1	0.000000	0.000000	6.442896	-0.059067	NaN	0.000000	0.001675	0.001740	28.0794	0.071487	0.002011	35.5483	-143.564	-167.44	-0.157725	0.441854	-0.635179	-0.636443	-0.059067	35.5483	-0.633933	-2.437926E+8	2.422834E-10	NaN
464	1.000000	0.451107	7.3696e+06	-53889.1	1005.82	-29745.1	0.000000	0.000000	6.450886	-0.013520	NaN	0.000000	0.001654	0.001705	28.0792	0.087018	0.002042	42.6166	-95.5244	-166.899	-0.038019	0.449816	-0.627191	-0.628482	-0.013520	42.6166	-0.626953	-1.955096E+8	6.915506E-11	NaN
464	1.000000	0.459143	7.3696e+06	-53889.1	1005.82	-29745.1	0.000000	0.000000	6.458922	-0.017667	NaN	0.000000	0.001654	0.001698	28.0795	0.099503	0.001979	50.291	-127.681	-164.37	-0.014140	0.457875	-0.619154	-0.620422	-0.017667	50.291	-0.618891	-1.514896E+8	1.166239E-10	NaN
464	1.000000	0.467153	7.3696e+06	-53889.1	1005.82	-29745.1	0.000000	0.000000	6.466929	-0.078376	NaN	0.000000	0.001672	0.001714	28.0793	0.033735	0.001955	17.2566	178.557	-167.231	-0.073515	0.465819	-0.611145	-0.612479	-0.078376	17.2566	-0.607738	-1.064122E+8	7.365285E-10	NaN
464	1.000000	0.475149	7.3696e+06	-53889.1	1005.82	-29745.1	0.000000	0.000000	6.474927	-0.047722	NaN	0.000000	0.001658	0.001707	28.0795	0.059874	0.001962	30.5165	23.5043	-163.504	-0.007303	0.473845	-0.603148	-0.604453	-0.047722	30.5165	-0.601975	-8.864711E+7	5.383355E-10	NaN
464	1.000000	0.483158	7.3696e+06	-53889.1	1005.82	-29745.1	0.000000	0.000000	6.482935	-0.056727	NaN	0.000000	0.001660	0.001709	28.0794	0.049985	0.002091	23.9056	149.224	-170.769	-0.022154	0.481813	-0.595139	-0.596485	-0.056727	23.9056	-0.593359	-6.744879E+7	8.410399E-10	NaN
464	1.000000	0.491169	7.3696e+06	-53889.1	1005.82	-29745.1	0.000000	0.000000	6.490943	-0.129041	NaN	0.000000	0.001666	0.001673	28.0793	0.027543	0.001912	14.4029	159.287	-166.907	-0.108743	0.489858	-0.587128	-0.588439	-0.129041	14.4029	-0.580409	-4.470606E+7	2.886435E-9	NaN
464	1.000000	0.499169	7.3696e+06	-53889.1	1005.82	-29745.1	0.000000	0.000000	6.498943	-0.135186	NaN	0.000000	0.001614	0.001730	28.0793	0.013531	0.001952	6.933429	-55.1514	-166.604	-0.059516	0.497868	-0.579128	-0.580430	-0.135186	6.933429	-0.564505	-2.695744E+7	5.014784E-9	NaN
464	1.000000	0.507160	7.3696e+06	-53889.1	1005.82	-29745.1	0.000000	0.000000	6.506937	-0.052917	NaN	0.000000	0.001605	0.001715	28.0792	0.087662	0.002051	42.7385	121.382	-166.037	-0.020222	0.505832	-0.571138	-0.572465	-0.052917	42.7385	-0.570209	-3.232359E+7	1.637115E-9	NaN
464	1.000000	0.515152	7.3696e+06	-53889.1	1005.82	-29745.1	0.000000	0.000000	6.514931	-0.007124	NaN	0.000000	0.001631	0.001724	28.0807	0.114092	0.001953	58.4252	94.7749	-167.804	0.065707	0.513862	-0.563146	-0.564435	-0.007124	58.4252	-0.563054	-2.574094E+7	2.767467E-10	NaN
464	1.000000	0.523174	7.3696e+06	-53889.1	1005.82	-29745.1	0.000000	0.000000	6.522949	-0.104921	NaN	0.000000	0.001651	0.001721	28.0807	0.048874	0.001781	27.4367	149.512	-170.1	-0.101916	0.521802	-0.555123	-0.556495	-0.104921	27.4367	-0.552255	-1.824691E+7	5.750085E-9	NaN
464	1.000000	0.531171	7.3696e+06	-53889.1	1005.82	-29745.1	0.000000	0.000000	6.530948	-0.056951	NaN	0.000000	0.001651	0.001754	28.0805	0.086344	0.001982	43.5575	-118.089	-168.223	-0.091485	0.529903	-0.547127	-0.548395	-0.056951	43.5575	-0.546146	-1.501621E+7	3.792640E-9	NaN
464	1.000000	0.539173	7.3696e+06	-53889.1	1005.82	-29745.1	0.000000	0.000000	6.538950	-0.045761	NaN	0.000000	0.001650	0.001687	28.0805	0.066597	0.002039	32.6671	150.994	-163.712	-0.109056	0.537858	-0.539125	-0.540439	-0.045761	32.6671	-0.538074	-1.160501E+7	3.943223E-9	NaN
464	1.000000	0.547174	7.3696e+06	-53889.1	1005.82	-29745.1	0.000000	0.000000	6.546950	-0.066900	NaN	0.000000	0.001658	0.001715	28.0805	0.071850	0.002071	34.6879	-178.857	-168.232	-0.103414	0.545871	-0.531124	-0.532426	-0.066900	34.6879	-0.529678	-8.87352e+06	7.539251E-9	NaN
464	1.000000	0.555191	7.3696e+06	-53889.1	1005.82	-29745.1	0.000000	0.000000	6.554967	-0.073514	NaN	0.000000	0.001667	0.001707	28.0807	0.097899	0.001921	50.9497	-96.2735	-163.827	-0.099034	0.553873	-0.523107	-0.524424	-0.073514	50.9497	-0.522025	-6.94627e+06	1.058329E-8	NaN
464	1.000000	0.563187	7.3696e+06	-53889.1	1005.82	-29745.1	0.000000	0.000000	6.562962	-0.110070	NaN	0.000000	0.001659	0.001716	28.0806	0.091141	0.001992	45.7639	-106.288	-167.357	-0.102506	0.561896	-0.515111	-0.516402	-0.110070	45.7639	-0.513307	-5.25369e+06	2.095094E-8	NaN
464	1.000000	0.571181	7.3696e+06	-53889.1	1005.82	-29745.1	0.000000	0.000000	6.570957	-0.073644	NaN	0.000000	0.001677	0.001702	28.0807	0.020061	0.002033	9.868117	-56.9782	-165.002	-0.016459	0.569864	-0.507117	-0.508433	-0.073644	9.868117	-0.501520	-3.59927e+06	2.046086E-8	NaN
464	1.000000	0.579179	7.3696e+06	-53889.1	1005.82	-29745.1	0.000000	0.000000	6.578954	-0.099915	NaN	0.000000	0.001674	0.001689	28.0805	0.064035	0.001927	33.2339	-163.254	-166.379	-0.086084	0.577915	-0.499119	-0.500383	-0.099915	33.2339	-0.496864	-3.09927e+06	3.223835E-8	NaN
464	1.000000	0.587222	7.3696e+06	-53889.1	1005.82	-29745.1	0.000000	0.000000	6.586997	-0.117574	NaN	0.000000	0.001658	0.001686	28.0806	0.138908	0.001860	74.7012	-127.726	-164.482	-0.115740	0.585855	-0.491076	-0.492442	-0.117574	74.7012	-0.489895	-2.477e+06	4.746637E-8	NaN
464	1.000000	0.595207	7.3696e+06	-53889.1	1005.82	-29745.1	0.000000	0.000000	6.594983	-0.088815	NaN	0.000000	0.001675	0.001721	28.0803	0.112287	0.002025	55.4621	130.615	-170.663	-0.066161	0.593915	-0.483090	-0.484383	-0.088815	55.4621	-0.481889	-1.91412e+06	4.640011E-8	NaN
464	1.000000	0.603225	7.3696e+06	-53889.1	1005.82	-29745.1	0.000000	0.000000	6.603001	-0.072060	NaN	0.000000	0.001678	0.001672	28.0807	0.025570	0.002048	12.4848	153.574	-165.667	-0.146428	0.601881	-0.475073	-0.476417	-0.072060	12.4848	-0.470744	-1.33611e+06	5.393268E-8	NaN
464	1.000000	0.611183	7.3696e+06	-53889.1	1005.82	-29745.1	0.000000	0.000000	6.610960	-0.056833	NaN	0.000000	0.001669	0.001728	28.0807	0.081587	0.001936	42.1477	-111.949	-163.023	-0.020819	0.609910	-0.467115	-0.468387	-0.056833	42.1477	-0.466103	-1.1501e+06	4.941577E-8	NaN
464	1.000000	0.619212	7.3696e+06	-53889.1	1005.82	-29745.1	0.000000	0.000000	6.618989	-0.060240	NaN	0.000000	0.001632	0.001729	28.0806	0.142919	0.001906	74.981	71.5852	-166.012	-0.049185	0.617882	-0.459086	-0.460416	-0.060240	74.981	-0.458483	-898871	6.701734E-8	NaN
464	1.000000	0.627207	7.3696e+06	-53889.1	1005.82	-29745.1	0.000000	0.000000	6.626984	-0.039380	NaN	0.000000	0.001664	0.001706	28.0809	0.152682	0.002010	75.9494	130.326	-164.712	0.030202	0.625937	-0.451091	-0.452361	-0.039380	75.9494	-0.450702	-698598	5.637037E-8	NaN
464	1.000000	0.635246	7.3696e+06	-53889.1	1005.82	-29745.1	0.000000	0.000000	6.635022	-0.071815	NaN	0.000000	0.001669	0.001724	28.0807	0.128895	0.002079	61.9898	-178.379	-167.983	-0.012438	0.633879	-0.443052	-0.444418	-0.071815	61.9898	-0.442183	-529864	1.355355E-7	NaN
464	1.000000	0.643196	7.3696e+06	-53889.1	1005.82	-29745.1	0.000000	0.000000	6.642974	-0.021982	NaN	0.000000	0.001678	0.001713	28.0806	0.047560	0.001927	24.681	24.4161	-164.818	-0.047903	0.641935	-0.435102	-0.436362	-0.021982	24.681	-0.434434	-411863	5.337237E-8	NaN
464	1.000000	0.651238	7.3696e+06	-53889.1	1005.82	-29745.1	0.000000	0.000000	6.651014	-0.096605	NaN	0.000000	0.001664	0.001712	28.0797	0.038528	0.001905	20.2246	158.775	-165.377	-0.056786	0.649883	-0.427059	-0.428415	-0.096605	20.2246	-0.423477	-288206	3.351938E-7	NaN
464	1.000000	0.659247	7.3696e+06	-53889.1	1005.82	-29745.1	0.000000	0.000000	6.659021	-0.117721	NaN	0.000000	0.001685	0.001687	28.0794	0.045957	0.002039	22.5367	84.8501	-165.237	-0.037226	0.657975	-0.419051	-0.420323	-0.117721	22.5367	-0.415133	-219455	5.364248E-7	NaN
464	1.000000	0.667236	7.3696e+06	-53889.1	1005.82	-29745.1	0.000000	0.000000	6.667013	-0.068594	NaN	0.000000	0.001691	0.001749	28.0796	0.097510	0.002027	48.1048	-28.1773	-166.361	-0.051647	0.665902	-0.411061	-0.412395	-0.068594	48.1048	-0.409992	-185475	3.698289E-7	NaN
464	1.000000	0.675232	7.3696e+06	-53889.1	1005.82	-29745.1	0.000000	0.000000	6.675007	-0.109638	NaN	0.000000	0.001680	0.001756	28.0796	0.061174	0.001879	32.5588	64.1082	-168.828	-0.117366	0.673920	-0.403066	-0.404377	-0.109638	32.5588	-0.400540	-136049	8.058717E-7	NaN
464	1.000000	0.683246	7.3696e+06	-53889.1	1005.82	-29745.1	0.000000	0.000000	6.683022	-0.070960	NaN	0.000000	0.001688	0.001704	28.0797	0.185437	0.001933	95.9243	110.159	-166.187	-0.057147	0.681926	-0.395052	-0.396371	-0.070960	95.9243	-0.394497	-111546	6.361491E-7	NaN
464	1.000000	0.691227	7.3696e+06	-53889.1	1005.82	-29745.1	0.000000	0.000000	6.691005	-0.038103	NaN	0.000000	0.001653	0.001724	28.0796	0.066920	0.002110	31.722	37.139	-167.112	-0.076825	0.689964	-0.387071	-0.388334	-0.038103	31.722	-0.386170	-84790.1	4.493774E-7	NaN
464	1.000000	0.699235	7.3696e+06	-53889.1	1005.82	-29745.1	0.000000	0.000000	6.699013	-0.031002	NaN	0.000000	0.001633	0.001748	28.0794	0.047652	0.002017	23.6252	-43.8249	-167.933	-0.079523	0.697918	-0.379063	-0.380379	-0.031002	23.6252	-0.378079	-64909	4.776184E-7	NaN
464	1.000000	0.707260	7.3696e+06	-53889.1	1005.82	-29745.1	0.000000	0.000000	6.707037	-0.072800	NaN	0.000000	0.001619	0.001720	28.0795	0.027993	0.001983	14.1138	48.0755	-165.646	-0.086366	0.705983	-0.371037	-0.372315	-0.072800	14.1138	-0.367169	-45219.9	1.609916E-6	NaN
464	1.000000	0.715256	7.3696e+06	-53889.1	1005.82	-29745.1	0.000000	0.000000	6.715033	-0.055369	NaN	0.000000	0.001632	0.001681	28.0794	0.062858	0.001940	32.3971	-35.9648	-166.609	-0.103424	0.713937	-0.363041	-0.364360	-0.055369	32.3971	-0.361760	-37781	1.465533E-6	NaN
464	1.000000	0.723245	7.3696e+06	-53889.1	1005.82	-29745.1	0.000000	0.000000	6.723022	-0.051028	NaN	0.000000	0.001720	0.001696	28.0795	0.073056	0.001825	40.0267	-122.529	-165.152	-0.114833	0.721933	-0.355052	-0.356364	-0.051028	40.0267	-0.354096	-29268.7	1.743443E-6	NaN
464	1.000000	0.731282	7.3696e+06	-53889.1	1005.82	-29745.1	0.000000	0.000000	6.731058	-0.076224	NaN	0.000000	0.001688	0.001697	28.0796	0.066998	0.002017	33.2237	-101.643	-167.859	-0.062957	0.729908	-0.347016	-0.348389	-0.076224	33.2237	-0.345295	-21809.4	3.495023E-6	NaN
464	1.000000	0.739275	7.3696e+06	-53889.1	1005.82	-29745.1	0.000000	0.000000	6.739050	-0.125640	NaN	0.000000	0.001610	0.001741	28.0795	0.052351	0.002052	25.5176	-108.446	-165.821	-0.132988	0.737918	-0.339022	-0.340380	-0.125640	25.5176	-0.335329	-15609.9	8.048698E-6	NaN
464	1.000000	0.747262	7.3696e+06	-53889.1	1005.82	-29745.1	0.000000	0.000000	6.747040	-0.018529	NaN	0.000000	0.001614	0.001731	28.0797	0.063695	0.001945	32.7411	126.825	-163.827	0.055514	0.745924	-0.331036	-0.332374	-0.018529	32.7411	-0.330612	-13317	1.391355E-6	NaN
464	1.000000	0.755272	7.3696e+06	-53889.1	1005.82	-29745.1	0.000000	0.000000	6.755046	-0.126244	NaN	0.000000	0.001651	0.001748	28.0795	0.033993	0.002036	16.6923	146.028	-166.687	-0.171244	0.753940	-0.323026	-0.324357	-0.126244	16.6923	-0.317354	-8504.73	1.484397E-5	NaN
464	1.000000	0.763282	7.3696e+06	-53889.1	1005.82	-29745.1	0.000000	0.000000	6.763058	-0.095208	NaN	0.000000	0.001680	0.001743	28.0794	0.030663	0.002095	14.6352	-116.507	-165.751	-0.043994	0.761914	-0.315015	-0.316384	-0.095208	14.6352	-0.310136	-6653.81	1.430874E-5	NaN
464	1.000000	0.771272	7.3696e+06	-53889.1	1005.82	-29745.1	0.000000	0.000000	6.771050	-0.038214	NaN	0.000000	0.001635	0.001728	28.0794	0.078159	0.002037	38.3648	149.587	-164.707	-0.093735	0.769974	-0.307025	-0.308324	-0.038214	38.3648	-0.306278	-5833.32	6.551021E-6	NaN
464	1.000000	0.779272	7.3696e+06	-53889.1	1005.82	-29745.1	0.000000	0.000000	6.779049	-0.055080	NaN	0.000000	0.001603	0.001702	28.0794	0.014319	0.002092	6.845433	-102.38	-162.927	-0.013448	0.777945	-0.299026	-0.300352	-0.055080	6.845433	-0.292991	-3698.85	1.489113E-5	NaN
464	1.000000	0.787268	7.3696e+06	-53889.1	1005.82	-29745.1	0.000000	0.000000	6.787046	-0.035418	NaN	0.000000	0.001625	0.001728	28.0808	0.046597	0.002056	22.6667	108.548	-166.901	-0.062804	0.786041	-0.291029	-0.292257	-0.035418	22.6667	-0.289857	-3320.19	1.066732E-5	NaN
464	1.000000	0.795268	7.3696e+06	-53889.1	1005.82	-29745.1	0.000000	0.000000	6.795045	-0.066034	NaN	0.000000	0.001650	0.001737	28.0807	0.097978	0.002040	48.0352	-139.456	-169.005	-0.018982	0.793964	-0.283029	-0.284334	-0.066034	48.0352	-0.281998	-2529.87	2.610170E-5	NaN
464	1.000000	0.803280	7.3696e+06	-53889.1	1005.82	-29745.1	0.000000	0.000000	6.803057	-0.062869	NaN	0.000000	0.001645	0.001733	28.0805	0.074864	0.001911	39.1745	179.795	-163.709	-0.063145	0.801980	-0.275017	-0.276318	-0.062869	39.1745	-0.273813	-1902.94	3.303800E-5	NaN
464	1.000000	0.811307	7.3696e+06	-53889.1	1005.82	-29745.1	0.000000	0.000000	6.811083	-0.083417	NaN	0.000000	0.001622	0.001766	28.0807	0.062235	0.002072	30.0429	-156.429	-166.319	-0.143908	0.810030	-0.266990	-0.268267	-0.083417	30.0429	-0.264908	-1393.1	5.987821E-5	NaN
464	1.000000	0.819291	7.3696e+06	-53889.1	1005.82	-29745.1	0.000000	0.000000	6.819069	-0.025980	NaN	0.000000	0.001636	0.001737	28.0806	0.115716	0.002018	57.342	-114.444	-167.132	-0.126277	0.817984	-0.259006	-0.260313	-0.025980	57.342	-0.258667	-1118.07	2.323649E-5	NaN
464	1.000000	0.827325	7.3696e+06	-53889.1	1005.82	-29745.1	0.000000	0.000000	6.827099	-0.127038	NaN	0.000000	0.001647	0.001725	28.0806	0.091617	0.001973	46.4382	25.0567	-166.155	-0.174220	0.825987	-0.250972	-0.252311	-0.127038	46.4382	-0.248921	-791.161	0.000161	NaN
464	1.000000	0.835305	7.3696e+06	-53889.1	1005.82	-29745.1	0.000000	0.000000	6.835084	-0.022134	NaN	0.000000	0.001675	0.001701	28.081	0.071349	0.001959	36.4257	35.215	-167.731	-0.043291	0.834036	-0.242992	-0.244261	-0.022134	36.4257	-0.242537	-629.685	3.515070E-5	NaN
464	1.000000	0.843293	7.3696e+06	-53889.1	1005.82	-29745.1	0.000000	0.000000	6.843069	-0.074861	NaN	0.000000	0.001670	0.001754	28.0808	0.051912	0.001955	26.5571	-104.493	-164.936	-0.023772	0.841954	-0.235004	-0.236344	-0.074861	26.5571	-0.232890	-444.713	0.000168	NaN
464	1.000000	0.851285	7.3696e+06	-53889.1	1005.82	-29745.1	0.000000	0.000000	6.851063	-0.047859	NaN	0.000000	0.001713	0.001729	28.0806	0.102882	0.001998	51.5023	175.547	-169.693	-0.016192	0.849997	-0.227012	-0.228300	-0.047859	51.5023	-0.226315	-350.113	0.000137	NaN
464	1.000000	0.859301	7.3696e+06	-53889.1	1005.82	-29745.1	0.000000	0.000000	6.859077	-0.079568	NaN	0.000000	0.001731	0.001711	28.0805	0.076717	0.001980	38.7376	174.313	-164.094	-0.073656	0.858041	-0.218997	-0.220257	-0.079568	38.7376	-0.217456	-252.906	0.000315	NaN
464	1.000000	0.867306	7.3696e+06	-53889.1	1005.82	-29745.1	0.000000	0.000000	6.867080	-0.124824	NaN	0.000000	0.001730	0.001726	28.0803	0.113861	0.001918	59.3524	-67.3634	-168.261	-0.150215	0.865944	-0.210991	-0.212354	-0.124824	59.3524	-0.209414	-187.64	0.000665	NaN
464	1.000000	0.875323	7.3696e+06	-53889.1	1005.82	-29745.1	0.000000	0.000000	6.875100	-0.057232	NaN	0.000000	0.001722	0.001739	28.0806	0.094773	0.002055	46.1251	157.239	-164.734	-0.118382	0.873989	-0.202974	-0.204308	-0.057232	46.1251	-0.202044	-142.31	0.000402	NaN
464	1.000000	0.883293	7.3696e+06	-53889.1	1005.82	-29745.1	0.000000	0.000000	6.883070	-0.050297	NaN	0.000000	0.001746	0.001721	28.0805	0.041831	0.002071	20.1938	-161.566	-168.412	-0.026271	0.881997	-0.195005	-0.196300	-0.050297	20.1938	-0.193137	-101.459	0.000496	NaN
464	1.000000	0.891312	7.3696e+06	-53889.1	1005.82	-29745.1	0.000000	0.000000	6.891092	0.015724	NaN	0.000000	0.001768	0.001716	28.0806	0.121337	0.001976	61.3998	91.261	-168.661	0.031621	0.890034	-0.186985	-0.188263	0.015724	61.3998	-0.187177	-80.6781	-0.000195	NaN
464	1.000000	0.899322	7.3696e+06	-53889.1	1005.82	-29745.1	0.000000	0.000000	6.899098	-0.098286	NaN	0.000000	0.001743	0.001747	28.0803	0.097300	0.002094	46.4666	-171.297	-169.517	-0.105086	0.898011	-0.178975	-0.180287	-0.098286	46.4666	-0.177389	-55.0719	0.001785	NaN
464	1.000000	0.907326	7.3696e+06	-53889.1	1005.82	-29745.1	0.000000	0.000000	6.907102	-0.079420	NaN	0.000000	0.001706	0.001740	28.0804	0.147985	0.001949	75.9226	40.6378	-167.256	-0.059930	0.906072	-0.170971	-0.172226	-0.079420	75.9226	-0.170187	-41.3863	0.001919	NaN
464	1.000000	0.915333	7.3696e+06	-53889.1	1005.82	-29745.1	0.000000	0.000000	6.915108	-0.117113	NaN	0.000000	0.001700	0.001746	28.0803	0.068372	0.001942	35.204	-101.081	-167.968	-0.127899	0.914013	-0.162964	-0.164285	-0.117113	35.204	-0.160469	-27.9459	0.004191	NaN
464	1.000000	0.923329	7.3696e+06	-53889.1	1005.82	-29745.1	0.000000	0.000000	6.923106	-0.075807	NaN	0.000000	0.001680	0.001725	28.0792	0.042039	0.001804	23.3022	-151.178	-163.087	-0.107216	0.922041	-0.154968	-0.156257	-0.075807	23.3022	-0.152528	-20.1351	0.003765	NaN
464	1.000000	0.931333	7.3696e+06	-53889.1	1005.82	-29745.1	0.000000	0.000000	6.931110	-0.064465	NaN	0.000000	0.001702	0.001703	28.0795	0.093051	0.001813	51.3322	-62.1049	-165.047	-0.052939	0.930033	-0.146964	-0.148265	-0.064465	51.3322	-0.146023	-15.3129	0.004210	NaN
464	1.000000	0.939330	7.3696e+06	-53889.1	1005.82	-29745.1	0.000000	0.000000	6.939107	-0.050135	NaN	0.000000	0.001665	0.001682	28.0792	0.070460	0.002077	33.9278	-138.651	-166.166	-0.023329	0.938052	-0.138968	-0.140246	-0.050135	33.9278	-0.137860	-10.7802	0.004651	NaN
464	1.000000	0.947356	7.3696e+06	-53889.1	1005.82	-29745.1	0.000000	0.000000	6.947135	-0.009016	NaN	0.000000	0.001658	0.001754	28.0793	0.125032	0.001979	63.1667	161.256	-171.447	-0.108922	0.946048	-0.130942	-0.132250	-0.009016	63.1667	-0.130835	-7.910509	0.001140	NaN
464	1.000000	0.955377	7.3696e+06	-53889.1	1005.82	-29745.1	0.000000	0.000000	6.955152	-0.101192	NaN	0.000000	0.001667	0.001743	28.0791	0.052102	0.002019	25.8063	45.162	-164.64	-0.076813	0.954072	-0.122921	-0.124225	-0.101192	25.8063	-0.119980	-4.826950	0.020964	NaN
464	1.000000	0.963367	7.3696e+06	-53889.1	1005.82	-29745.1	0.000000	0.000000	6.963142	-0.097851	NaN	0.000000	0.001644	0.001755	28.0793	0.099309	0.002115	46.9616	-124.729	-168.927	-0.015313	0.962037	-0.114931	-0.116261	-0.097851	46.9616	-0.113368	-3.534643	0.027684	NaN
464	1.000000	0.971366	7.3696e+06	-53889.1	1005.82	-29745.1	0.000000	0.000000	6.971140	-0.126938	NaN	0.000000	0.001658	0.001751	28.0793	0.078288	0.002014	38.8656	64.6495	-166.845	-0.074318	0.970053	-0.106932	-0.108244	-0.126938	38.8656	-0.104482	-2.290743	0.055413	NaN
464	1.000000	0.979367	7.3696e+06	-53889.1	1005.82	-29745.1	0.000000	0.000000	6.979143	-0.080049	NaN	0.000000	0.001656	0.001744	28.0795	0.054055	0.001973	27.3917	-179.474	-165.582	-0.086877	0.978066	-0.098930	-0.100232	-0.080049	27.3917	-0.096739	-1.544678	0.051822	NaN
464	1.000000	0.987366	7.3696e+06	-53889.1	1005.82	-29745.1	0.000000	0.000000	6.987141	-0.091722	NaN	0.000000	0.001677	0.001723	28.0794	0.055046	0.001999	27.5369	-109.207	-167.46	-0.125545	0.986017	-0.090932	-0.092280	-0.091722	27.5369	-0.088434	-0.992876	0.092380	NaN
464	1.000000	0.995364	7.3696e+06	-53889.1	1005.82	-29745.1	0.000000	0.000000	6.995140	-0.084936	NaN	0.000000	0.001702	0.001720	28.0792	0.039130	0.001900	20.5919	-63.8015	-166.037	-0.088230	0.994056	-0.082933	-0.084241	-0.084936	20.5919	-0.079839	-0.613295	0.138492	NaN
464	1.000000	1.003369	7.3696e+06	-53889.1	1005.82	-29745.1	0.000000	0.000000	7.003146	-0.066474	NaN	0.000000	0.001698	0.001748	28.0792	0.048636	0.001974	24.6359	-90.5777	-162.953	-0.083742	1.002056	-0.074929	-0.076241	-0.066474	24.6359	-0.072905	-0.407308	0.163203	NaN
464	1.000000	1.011366	7.3696e+06	-53889.1	1005.82	-29745.1	0.000000	0.000000	7.011143	-0.037241	NaN	0.000000	0.001711	0.001679	28.0792	0.074680	0.002026	36.8601	32.0237	-166.966	-0.081542	1.010064	-0.066932	-0.068233	-0.037241	36.8601	-0.066174	-0.268545	0.138675	NaN
464	1.000000	1.019389	7.3696e+06	-53889.1	1005.82	-29745.1	0.000000	0.000000	7.019164	-0.108429	NaN	0.000000	0.001676	0.001750	28.0794	0.126430	0.002060	61.3639	-125.979	-166.031	-0.148742	1.018064	-0.058909	-0.060233	-0.108429	61.3639	-0.057583	-0.153336	0.707131	NaN
464	1.000000	1.027370	7.3696e+06	-53889.1	1005.82	-29745.1	0.000000	0.000000	7.027149	-0.009588	NaN	0.000000	0.001752	0.001743	28.0795	0.089052	0.002078	42.8642	-83.5621	-168.449	-0.047610	1.026130	-0.050928	-0.052167	-0.009588	42.8642	-0.050760	-0.096204	0.099669	NaN
464	1.000000	1.035370	7.3696e+06	-53889.1	1005.82	-29745.1	0.000000	0.000000	7.035145	-0.121379	NaN	0.000000	0.001696	0.001742	28.0795	0.061246	0.002053	29.8286	-11.8394	-164.296	-0.125347	1.034026	-0.042927	-0.044272	-0.121379	29.8286	-0.039875	-0.044829	2.707593	NaN
464	1.000000	1.043381	7.3696e+06	-53889.1	1005.82	-29745.1	0.000000	0.000000	7.043156	-0.094775	NaN	0.000000	0.001657	0.001689	28.0794	0.042334	0.002022	20.939	-146.544	-169.228	-0.164230	1.042099	-0.034917	-0.036199	-0.094775	20.939	-0.031522	-0.025398	3.731641	NaN
464	1.000000	1.051374	7.3696e+06	-53889.1	1005.82	-29745.1	0.000000	0.000000	7.051147	-0.158936	NaN	0.000000	0.001634	0.001737	28.0794	0.028302	0.002003	14.1274	99.3387	-163.539	-0.019543	1.050047	-0.026924	-0.028251	-0.158936	14.1274	-0.018486	-0.011490	13.8327	NaN
464	1.000000	1.059385	7.3696e+06	-53889.1	1005.82	-29745.1	0.000000	0.000000	7.059156	-0.192476	NaN	0.000000	0.001641	0.001701	28.0809	0.042440	0.002106	20.1471	48.4001	-167.92	-0.110303	1.058141	-0.018913	-0.020157	-0.192476	20.1471	-0.011748	-0.007384	26.0649	NaN
464	1.000000	1.067359	7.3696e+06	-53889.1	1005.82	-29745.1	0.000000	0.000000	7.067135	-0.083912	NaN	0.000000	0.001617	0.001710	28.0806	0.057201	0.002013	28.4177	-19.3755	-163.701	-0.033532	1.066093	-0.010938	-0.012205	-0.083912	28.4177	-0.008723	-0.005653	14.8437	NaN
464	1.000000	1.075376	7.3696e+06	-53889.1	1005.82	-29745.1	0.000000	0.000000	7.075176	0.496577	NaN	0.000000	0.001633	0.001711	28.0806	0.975201	0.001879	518.922	12.141	-167.946	-0.007376	1.074037	-0.002921	-0.004261	0.496577	518.922	-0.003639	-0.002544	-195.225	NaN
464	1.000000	1.083272	7.3696e+06	-53889.1	1005.82	-29745.1	0.000000	0.000000	7.083415	8.839081	NaN	0.000000	0.001650	0.001704	28.0809	8.268136	0.001665	4965.9	9.615804	-173.934	6.843336	1.082052	0.004975	0.003755	8.839081	4965.9	0.003640	0.002926	3021.16	83879.3
464	2.000000	1.085927	7.3696e+06	-53889.1	1005.82	-29745.1	0.000000	0.000000	7.086190	11.7606	NaN	0.000000	0.001623	0.001712	28.0806	10.7767	0.001566	6882.84	9.437727	-178.213	11.4299	1.085614	0.007629	0.007316	11.7606	6882.84	0.006348	0.005397	2179.08	85598
464	2.000000	1.087915	7.3696e+06	-53889.1	1005.82	-29745.1	0.000000	0.000000	7.088278	14.2006	NaN	0.000000	0.001664	0.001688	28.0812	13.5593	0.001728	7847.35	9.910758	-177.655	14.012	1.087617	0.009617	0.009319	14.2006	7847.35	0.008260	0.007311	1942.33	83850.3
464	2.000000	1.089902	7.3696e+06	-53889.1	1005.82	-29745.1	0.000000	0.000000	7.090460	18.9185	NaN	0.000000	0.001660	0.001706	28.0806	15.9639	0.001767	9036.32	7.271471	-175.69	18.402	1.089589	0.011605	0.011292	18.9185	9036.32	0.010035	0.009220	2051.88	85980.1
464	2.000000	1.091895	7.3696e+06	-53889.1	1005.82	-29745.1	0.000000	0.000000	7.092603	22.5646	NaN	0.000000	0.001638	0.001709	28.0807	17.6959	0.001693	10450.5	5.661905	-176.626	23.1778	1.091565	0.013598	0.013267	22.5646	10450.5	0.011978	0.011464	1968.28	89174.3
464	2.000000	1.093865	7.3696e+06	-53889.1	1005.82	-29745.1	0.000000	0.000000	7.094743	26.7012	NaN	0.000000	0.001611	0.001689	28.0808	20.3933	0.001785	11425.9	5.751848	-177.811	25.887	1.093577	0.015568	0.015279	26.7012	11425.9	0.013815	0.013738	1943.64	89064.5
464	2.000000	1.095791	7.3696e+06	-53889.1	1005.82	-29745.1	0.000000	0.000000	7.096888	32.0191	NaN	0.000000	0.001606	0.001688	28.0807	21.3623	0.001695	12603.8	5.558261	-178.059	29.3955	1.095506	0.017494	0.017208	32.0191	12603.8	0.015589	0.016078	1991.44	90814.3
464	2.000000	1.097861	7.3696e+06	-53889.1	1005.82	-29745.1	0.000000	0.000000	7.099138	36.3977	NaN	0.000000	0.001604	0.001704	28.0816	23.7469	0.001752	13557.7	5.502037	179.819	35.3542	1.097499	0.019564	0.019201	36.3977	13557.7	0.017550	0.018838	1932.11	90248.3
464	2.000000	1.099917	7.3696e+06	-53889.1	1005.82	-29745.1	0.000000	0.000000	7.101397	41.3638	NaN	0.000000	0.001634	0.001713	28.0806	26.0206	0.001853	14040.5	7.531801	179.908	42.4163	1.099559	0.021619	0.021261	41.3638	14040.5	0.019410	0.021623	1912.95	87236.4
464	2.000000	1.101887	7.3696e+06	-53889.1	1005.82	-29745.1	0.000000	0.000000	7.103614	47.3407	NaN	0.000000	0.001628	0.001726	28.0806	27.0691	0.001697	15955.3	5.390008	179.76	47.6939	1.101499	0.023590	0.023202	47.3407	15955.3	0.021365	0.024732	1914.13	92693.3
464	2.000000	1.103830	7.3696e+06	-53889.1	1005.82	-29745.1	0.000000	0.000000	7.105699	50.8045	NaN	0.000000	0.001620	0.001715	28.0805	31.309	0.001893	16537.1	12.3419	172.066	51.2424	1.103545	0.025532	0.025247	50.8045	16537.1	0.023228	0.027871	1822.85	90501.8
464	2.000000	1.105851	7.3696e+06	-53889.1	1005.82	-29745.1	0.000000	0.000000	7.108079	59.5368	NaN	0.000000	0.001627	0.001683	28.0805	30.9881	0.001793	17278.1	3.732053	-179.092	59.4985	1.105548	0.027554	0.027251	59.5368	17278.1	0.024969	0.030960	1923.03	89716
464	2.000000	1.107833	7.3696e+06	-53889.1	1005.82	-29745.1	0.000000	0.000000	7.110406	67.918	NaN	0.000000	0.001671	0.001715	28.0823	33.6128	0.001722	19521.2	5.772828	178.266	67.5114	1.107500	0.029536	0.029202	67.918	19521.2	0.026926	0.034614	1962.17	95863.8
464	2.000000	1.109836	7.3696e+06	-53889.1	1005.82	-29745.1	0.000000	0.000000	7.112444	68.7905	NaN	0.000000	0.001615	0.001661	28.0807	35.906	0.001856	19345.4	2.723049	-179.221	68.7483	1.109531	0.031538	0.031234	68.7905	19345.4	0.028871	0.038437	1789.72	90152.8
464	2.000000	1.111766	7.3696e+06	-53889.1	1005.82	-29745.1	0.000000	0.000000	7.114762	78.2073	NaN	0.000000	0.001627	0.001727	28.0796	37.7059	0.001803	20907.8	6.828491	174.945	75.037	1.111550	0.033469	0.033252	78.2073	20907.8	0.030663	0.042129	1856.36	93065.7
464	2.000000	1.113784	7.3696e+06	-53889.1	1005.82	-29745.1	0.000000	0.000000	7.117029	84.2584	NaN	0.000000	0.001622	0.001714	28.0796	39.4906	0.001785	22123.2	0.487882	-179.05	82.1228	1.113497	0.035486	0.035200	84.2584	22123.2	0.032630	0.046371	1817.03	93863.4
464	2.000000	1.115767	7.3696e+06	-53889.1	1005.82	-29745.1	0.000000	0.000000	7.119432	94.4552	NaN	0.000000	0.001626	0.001718	28.0795	41.5028	0.001941	21385.5	4.419229	178.621	91.3114	1.115431	0.037470	0.037134	94.4552	21385.5	0.034157	0.049802	1896.62	87552.8
464	2.000000	1.117810	7.3696e+06	-53889.1	1005.82	-29745.1	0.000000	0.000000	7.121731	100.691	NaN	0.000000	0.001621	0.001715	28.0801	44.3038	0.001816	24396.5	5.411915	175.732	100.719	1.117451	0.039512	0.039154	100.691	24396.5	0.036417	0.055096	1827.55	94959.8
464	2.000000	1.119815	7.3696e+06	-53889.1	1005.82	-29745.1	0.000000	0.000000	7.124048	108.299	NaN	0.000000	0.001620	0.001726	28.0794	46.1007	0.001924	23959.8	5.289562	176.334	106.214	1.119517	0.041517	0.041220	108.299	23959.8	0.038127	0.059277	1826.98	89910.7
464	2.000000	1.121793	7.3696e+06	-53889.1	1005.82	-29745.1	0.000000	0.000000	7.126351	116.192	NaN	0.000000	0.001629	0.001705	28.0794	46.7173	0.001790	26096.5	2.420559	177.934	115.149	1.121532	0.043495	0.043235	116.192	26096.5	0.040156	0.064431	1803.34	93930.4
464	2.000000	1.123789	7.3696e+06	-53889.1	1005.82	-29745.1	0.000000	0.000000	7.128650	123.546	NaN	0.000000	0.001663	0.001723	28.0794	50.126	0.001866	26864.7	3.428303	176.971	121.304	1.123512	0.045491	0.045214	123.546	26864.7	0.042042	0.069413	1779.87	93161.2
464	2.000000	1.125758	7.3696e+06	-53889.1	1005.82	-29745.1	0.000000	0.000000	7.131142	136.262	NaN	0.000000	0.001625	0.001726	28.0795	50.816	0.001874	27122	4.150259	175.996	132.881	1.125374	0.047461	0.047077	136.262	27122	0.043692	0.073919	1843.41	91141.8
464	2.000000	1.127790	7.3696e+06	-53889.1	1005.82	-29745.1	0.000000	0.000000	7.133513	144.514	NaN	0.000000	0.001640	0.001732	28.0805	53.4846	0.001784	29988.2	5.123811	174.659	144.298	1.127376	0.049492	0.049079	144.514	29988.2	0.045878	0.080099	1804.18	96807.7
464	2.000000	1.129834	7.3696e+06	-53889.1	1005.82	-29745.1	0.000000	0.000000	7.135825	151.011	NaN	0.000000	0.001634	0.001683	28.0791	55.1892	0.001816	30397.7	4.384082	175.629	149.668	1.129518	0.051537	0.051221	151.011	30397.7	0.047811	0.085766	1760.72	94831.9
464	2.000000	1.131798	7.3696e+06	-53889.1	1005.82	-29745.1	0.000000	0.000000	7.138233	161.805	NaN	0.000000	0.001626	0.001693	28.0797	57.6445	0.001893	30447	5.981553	173.402	162.344	1.131479	0.053501	0.053181	161.805	30447	0.049515	0.090919	1779.66	92254.9
464	2.000000	1.133810	7.3696e+06	-53889.1	1005.82	-29745.1	0.000000	0.000000	7.140379	165.06	NaN	0.000000	0.001638	0.001732	28.0795	58.9341	0.001819	32400.4	5.434347	173.145	167.501	1.133481	0.055512	0.055184	165.06	32400.4	0.051692	0.097714	1689.22	94699.2
464	2.000000	1.135790	7.3696e+06	-53889.1	1005.82	-29745.1	0.000000	0.000000	7.143012	180.94	NaN	0.000000	0.001596	0.001701	28.0796	59.7669	0.001806	33096.1	5.399398	173.663	180.188	1.135414	0.057493	0.057116	180.94	33096.1	0.053392	0.103186	1753.54	94132.6
464	2.000000	1.137790	7.3696e+06	-53889.1	1005.82	-29745.1	0.000000	0.000000	7.145368	189.596	NaN	0.000000	0.001622	0.001721	28.0796	62.4128	0.001840	33921.6	6.838184	171.831	188.711	1.137418	0.059492	0.059120	189.596	33921.6	0.055300	0.109498	1731.5	93658.5
464	2.000000	1.139848	7.3696e+06	-53889.1	1005.82	-29745.1	0.000000	0.000000	7.147918	201.554	NaN	0.000000	0.001667	0.001739	28.0795	64.0324	0.001870	34243	5.561282	173.424	202.978	1.139440	0.061551	0.061143	201.554	34243	0.057136	0.115740	1741.44	91961
464	2.000000	1.141798	7.3696e+06	-53889.1	1005.82	-29745.1	0.000000	0.000000	7.150207	209.801	NaN	0.000000	0.001646	0.001723	28.0797	64.7942	0.001718	37707.4	2.457962	175.186	212.396	1.141491	0.063500	0.063193	209.801	37707.4	0.059327	0.123406	1700.08	98068.8
464	2.000000	1.143889	7.3696e+06	-53889.1	1005.82	-29745.1	0.000000	0.000000	7.152550	215.93	NaN	0.000000	0.001662	0.001704	28.0796	69.1908	0.001838	37636.1	6.927873	170.463	220.077	1.143548	0.065591	0.065251	215.93	37636.1	0.061288	0.130468	1655.04	95197.7
464	2.000000	1.145766	7.3696e+06	-53889.1	1005.82	-29745.1	0.000000	0.000000	7.155440	240.577	NaN	0.000000	0.001670	0.001720	28.0803	68.8963	0.001886	36533.6	4.860299	173.744	239.166	1.145330	0.067468	0.067033	240.577	36533.6	0.062529	0.135034	1781.61	90833.2
464	2.000000	1.147736	7.3696e+06	-53889.1	1005.82	-29745.1	0.000000	0.000000	7.157626	245.812	NaN	0.000000	0.001667	0.001702	28.0808	71.612	0.001701	42100.5	5.153881	171.505	242.342	1.147391	0.069439	0.069093	245.812	42100.5	0.065060	0.144574	1700.25	101161
464	2.000000	1.149772	7.3696e+06	-53889.1	1005.82	-29745.1	0.000000	0.000000	7.160078	255.925	NaN	0.000000	0.001663	0.001710	28.0807	74.7205	0.001790	41743.5	7.450851	169.693	254.422	1.149459	0.071475	0.071162	255.925	41743.5	0.066876	0.151614	1688	97947.2
464	2.000000	1.151808	7.3696e+06	-53889.1	1005.82	-29745.1	0.000000	0.000000	7.162720	270.634	NaN	0.000000	0.001652	0.001738	28.0808	76.499	0.001739	43991.8	4.834054	171.46	273.906	1.151546	0.073511	0.073248	270.634	43991.8	0.068897	0.159630	1695.39	100598
464	2.000000	1.153830	7.3696e+06	-53889.1	1005.82	-29745.1	0.000000	0.000000	7.165160	280.821	NaN	0.000000	0.001674	0.001701	28.0808	79.6756	0.001849	43081.8	8.658572	168.329	283.047	1.153499	0.075532	0.075201	280.821	43081.8	0.070643	0.166715	1684.44	96400.5
464	2.000000	1.155799	7.3696e+06	-53889.1	1005.82	-29745.1	0.000000	0.000000	7.167973	301.334	NaN	0.000000	0.001686	0.001729	28.081	78.9621	0.001795	43996.5	4.763514	171.845	301.832	1.155431	0.077502	0.077133	301.334	43996.5	0.072365	0.173841	1733.39	96408.4
464	2.000000	1.157722	7.3696e+06	-53889.1	1005.82	-29745.1	0.000000	0.000000	7.170124	306.877	NaN	0.000000	0.001658	0.001737	28.0807	80.9538	0.001771	45717.9	4.003860	171.9	304.252	1.157453	0.079425	0.079155	306.877	45717.9	0.074391	0.182406	1682.38	97800.1
464	2.000000	1.159802	7.3696e+06	-53889.1	1005.82	-29745.1	0.000000	0.000000	7.172883	323.395	NaN	0.000000	0.001653	0.001732	28.0807	83.3251	0.001773	46998.2	7.449004	168.378	326.44	1.159447	0.081504	0.081150	323.395	46998.2	0.076344	0.190846	1694.53	98290.8
464	2.000000	1.161756	7.3696e+06	-53889.1	1005.82	-29745.1	0.000000	0.000000	7.175538	340.428	NaN	0.000000	0.001634	0.001726	28.0808	84.6295	0.001806	46859.8	7.188972	168.942	339.36	1.161379	0.083459	0.083081	340.428	46859.8	0.078010	0.198190	1717.68	96168.5
464	2.000000	1.163747	7.3696e+06	-53889.1	1005.82	-29745.1	0.000000	0.000000	7.178106	354.435	NaN	0.000000	0.001654	0.001682	28.0808	85.4663	0.001774	48184.2	1.648006	174.286	353.412	1.163378	0.085450	0.085080	354.435	48184.2	0.079933	0.206825	1713.7	96800.2
464	2.000000	1.165698	7.3696e+06	-53889.1	1005.82	-29745.1	0.000000	0.000000	7.180715	370.44	NaN	0.000000	0.001634	0.001695	28.0807	87.8178	0.001922	45695.2	3.894492	172.421	366.018	1.165368	0.087401	0.087071	370.44	45695.2	0.081321	0.213163	1737.83	90424.9
464	2.000000	1.167654	7.3696e+06	-53889.1	1005.82	-29745.1	0.000000	0.000000	7.183124	381.464	NaN	0.000000	0.001611	0.001748	28.0806	89.6403	0.001690	53049.7	5.341844	169.875	374.493	1.167238	0.089357	0.088941	381.464	53049.7	0.083964	0.225484	1691.75	102070
464	2.000000	1.169769	7.3696e+06	-53889.1	1005.82	-29745.1	0.000000	0.000000	7.185976	399.39	NaN	0.000000	0.001661	0.001724	28.0806	91.3712	0.001800	50751.9	1.999976	174.23	397.202	1.169424	0.091472	0.091127	399.39	50751.9	0.085569	0.233125	1713.2	96035.2
464	2.000000	1.171714	7.3696e+06	-53889.1	1005.82	-29745.1	0.000000	0.000000	7.188315	408.956	NaN	0.000000	0.001662	0.001680	28.0809	92.6715	0.001679	55179.4	0.916022	173.858	405.612	1.171458	0.093417	0.093161	408.956	55179.4	0.087858	0.244225	1674.5	102013
464	2.000000	1.173675	7.3696e+06	-53889.1	1005.82	-29745.1	0.000000	0.000000	7.190927	424.81	NaN	0.000000	0.001660	0.001713	28.0826	96.6774	0.001788	54062.4	4.005091	171.297	418.896	1.173397	0.095377	0.095099	424.81	54062.4	0.089484	0.252254	1684.05	98344.4
464	2.000000	1.175676	7.3696e+06	-53889.1	1005.82	-29745.1	0.000000	0.000000	7.193503	438.76	NaN	0.000000	0.001687	0.001702	28.0844	96.8853	0.001756	55164.8	2.273408	172.347	434.94	1.175391	0.097378	0.097094	438.76	55164.8	0.091413	0.261942	1675.03	98476.6
464	2.000000	1.177703	7.3696e+06	-53889.1	1005.82	-29745.1	0.000000	0.000000	7.195907	447.926	NaN	0.000000	0.001665	0.001678	28.0811	100.799	0.001722	58549.5	5.684634	168.518	444.954	1.177467	0.099406	0.099170	447.926	58549.5	0.093668	0.273480	1637.87	102290
464	2.000000	1.179731	7.3696e+06	-53889.1	1005.82	-29745.1	0.000000	0.000000	7.198762	468.047	NaN	0.000000	0.001658	0.001736	28.0806	102.937	0.001752	58757	5.327658	169.413	466.304	1.179432	0.101434	0.101135	468.047	58757	0.095459	0.282810	1654.99	100945
464	2.000000	1.181729	7.3696e+06	-53889.1	1005.82	-29745.1	0.000000	0.000000	7.201039	474.839	NaN	0.000000	0.001612	0.001703	28.0798	104.017	0.001592	65332.5	3.367689	170.067	472.002	1.181566	0.103431	0.103269	474.839	65332.5	0.097980	0.296190	1603.16	109677
464	2.000000	1.182597	7.3696e+06	-53889.1	1005.82	-29745.1	0.000000	0.000000	7.202842	497.548	NaN	0.000000	0.001640	0.001696	28.0799	106.013	0.001867	56784.2	7.168767	167.686	491.34	1.182282	0.104300	0.103985	497.548	56784.2	0.097728	0.294839	1687.53	95545