File: remote_trans/data/nanoindenter/0828-1/data/Data_2025-08-06,11h17m57s/2025-07-22_16-23-58_1_1186.txt
2025-07-22, 16:23:58, 1
Index	Phase	Displacement	Time	Pos X	Pos Y	Pos Z	Rot A	Rot B	Piezo Z	Force A	Force B	Gripper	Voltage A	Voltage B	Temperature	Amplitude force	Amplitude pos	Stiffness	Phase shift	Phase excitation	Force A raw	Displacement raw	HMax	HMax raw	Real Force	Real Stiffness	Contact Depth	Area	Hardness	Reduced Mod.
[#]	[#]	[um]	[s]	[um]	[um]	[um]	[m°]	[m°]	[um]	[uN]	[uN]	[V]	[V]	[V]	[°C]	[uN]	[um]	[N/m]	[°]	[°]	[uN]	[um]	[um]	[um]	[uN]	[N/m]	[um]	[um^2]	[MPa]	[MPa]
1186	1.000000	0.002560	7.37664e+06	-56289.1	1105.82	-29739.1	0.000000	0.000000	6.002841	-0.001032	NaN	0.000000	0.001622	0.001636	28.0842	0.053723	0.000947	56.7562	8.539695	-160.507	0.015298	0.001278	-1.172790	-1.174071	-0.001032	56.7562	-1.172776	-4.743312E+15	2.176740E-19	NaN
1186	1.000000	0.012589	7.37664e+06	-56289.1	1105.82	-29739.1	0.000000	0.000000	6.012869	-0.013204	NaN	0.000000	0.001593	0.001602	28.0841	0.094355	0.001184	79.6871	86.263	16.934	0.026635	0.011206	-1.162761	-1.164143	-0.013204	79.6871	-1.162637	-3.469015E+15	3.806144E-18	NaN
1186	1.000000	0.022494	7.37664e+06	-56289.1	1105.82	-29739.1	0.000000	0.000000	6.022772	-0.084314	NaN	0.000000	0.001604	0.001675	28.0836	0.030366	0.001669	18.1946	-27.4923	-166.615	-0.003746	0.021137	-1.152855	-1.154212	-0.084314	18.1946	-1.149380	-2.304115E+15	3.659289E-17	NaN
1186	1.000000	0.032490	7.37664e+06	-56289.1	1105.82	-29739.1	0.000000	0.000000	6.032770	-0.029415	NaN	0.000000	0.001608	0.001633	28.0839	0.057121	0.001909	29.9215	137.035	13.5612	-0.055683	0.031079	-1.142859	-1.144270	-0.029415	29.9215	-1.142122	-1.841593E+15	1.597269E-17	NaN
1186	1.000000	0.042468	7.37664e+06	-56289.1	1105.82	-29739.1	0.000000	0.000000	6.042750	0.014857	NaN	0.000000	0.001611	0.001659	28.0843	0.084177	0.001862	45.2131	-33.9158	-163.729	-0.048354	0.041155	-1.132881	-1.134194	0.014857	45.2131	-1.133128	-1.394997E+15	-1.064989E-17	NaN
1186	1.000000	0.052465	7.37664e+06	-56289.1	1105.82	-29739.1	0.000000	0.000000	6.052747	0.009806	NaN	0.000000	0.001603	0.001587	28.0837	0.065252	0.001937	33.6888	-40.0786	15.5364	0.023264	0.051097	-1.122884	-1.124253	0.009806	33.6888	-1.123102	-1.023519E+15	-9.580494E-18	NaN
1186	1.000000	0.062486	7.37664e+06	-56289.1	1105.82	-29739.1	0.000000	0.000000	6.062767	-0.019839	NaN	0.000000	0.001577	0.001626	28.083	0.095577	0.001941	49.2484	106.293	-164.81	-0.025428	0.061117	-1.112863	-1.114232	-0.019839	49.2484	-1.112561	-7.390158E+14	2.684524E-17	NaN
1186	1.000000	0.072486	7.37664e+06	-56289.1	1105.82	-29739.1	0.000000	0.000000	6.072769	0.046679	NaN	0.000000	0.001523	0.001570	28.0827	0.004215	0.002110	1.997361	-4.743257	16.6969	0.052719	0.071102	-1.102863	-1.104247	0.046679	1.997361	-1.120391	-9.412726E+14	-4.959095E-17	NaN
1186	1.000000	0.082505	7.37664e+06	-56289.1	1105.82	-29739.1	0.000000	0.000000	6.082785	-0.034538	NaN	0.000000	0.001484	0.001591	28.0829	0.150694	0.002010	74.9603	-112.66	-165.642	0.034633	0.081194	-1.092844	-1.094156	-0.034538	74.9603	-1.092498	-3.975199E+14	8.688357E-17	NaN
1186	1.000000	0.092473	7.37664e+06	-56289.1	1105.82	-29739.1	0.000000	0.000000	6.092754	-0.011202	NaN	0.000000	0.001497	0.001607	28.0825	0.043509	0.001972	22.0598	-27.6178	15.3556	-0.025392	0.091133	-1.082876	-1.084216	-0.011202	22.0598	-1.082495	-2.917631E+14	3.839508E-17	NaN
1186	1.000000	0.102485	7.37665e+06	-56289.1	1105.82	-29739.1	0.000000	0.000000	6.102765	-0.033544	NaN	0.000000	0.001528	0.001585	28.0829	0.073727	0.001978	37.2658	49.3468	-164.636	-0.076430	0.101190	-1.072864	-1.074160	-0.033544	37.2658	-1.072189	-2.121291E+14	1.581292E-16	NaN
1186	1.000000	0.112504	7.37665e+06	-56289.1	1105.82	-29739.1	0.000000	0.000000	6.112783	-0.071758	NaN	0.000000	0.001541	0.001601	28.0829	0.062249	0.001841	33.8216	134.326	15.411	-0.071399	0.111135	-1.062845	-1.064214	-0.071758	33.8216	-1.061254	-1.512414E+14	4.744587E-16	NaN
1186	1.000000	0.122487	7.37665e+06	-56289.1	1105.82	-29739.1	0.000000	0.000000	6.122765	-0.079163	NaN	0.000000	0.001548	0.001619	28.0827	0.070386	0.002025	34.7575	-151.622	-163.981	-0.069203	0.121198	-1.052862	-1.054151	-0.079163	34.7575	-1.051154	-1.106434E+14	7.154776E-16	NaN
1186	1.000000	0.132505	7.37665e+06	-56289.1	1105.82	-29739.1	0.000000	0.000000	6.132784	-0.058183	NaN	0.000000	0.001541	0.001576	28.0826	0.102712	0.001827	56.2245	44.4335	17.0641	-0.018142	0.131154	-1.042844	-1.044196	-0.058183	56.2245	-1.042068	-8.351725E+13	6.966543E-16	NaN
1186	1.000000	0.142543	7.37665e+06	-56289.1	1105.82	-29739.1	0.000000	0.000000	6.142822	-0.048231	NaN	0.000000	0.001540	0.001610	28.083	0.059989	0.001973	30.4064	-120.073	-165.22	-0.001835	0.141164	-1.032806	-1.034185	-0.048231	30.4064	-1.031616	-6.042588E+13	7.981831E-16	NaN
1186	1.000000	0.152514	7.37665e+06	-56289.1	1105.82	-29739.1	0.000000	0.000000	6.152798	0.050338	NaN	0.000000	0.001591	0.001585	28.083	0.065785	0.002010	32.7277	179.205	14.4015	0.050536	0.151097	-1.022835	-1.024253	0.050338	32.7277	-1.023988	-4.771048E+13	-1.055069E-15	NaN
1186	1.000000	0.162554	7.37665e+06	-56289.1	1105.82	-29739.1	0.000000	0.000000	6.162832	-0.060476	NaN	0.000000	0.001592	0.001585	28.083	0.073480	0.001931	38.0589	-122.61	-169.76	-0.108013	0.161207	-1.012796	-1.014142	-0.060476	38.0589	-1.011604	-3.250638E+13	1.860439E-15	NaN
1186	1.000000	0.172530	7.37665e+06	-56289.1	1105.82	-29739.1	0.000000	0.000000	6.172810	-0.024595	NaN	0.000000	0.001551	0.001658	28.0827	0.025612	0.002000	12.8078	75.5067	16.7285	0.019930	0.171125	-1.002819	-1.004224	-0.024595	12.8078	-1.001379	-2.367744E+13	1.038738E-15	NaN
1186	1.000000	0.182505	7.37665e+06	-56289.1	1105.82	-29739.1	0.000000	0.000000	6.182783	-0.061089	NaN	0.000000	0.001558	0.001591	28.0831	0.067068	0.001985	33.7922	77.3081	-166.83	-0.006117	0.181256	-0.992845	-0.994093	-0.061089	33.7922	-0.991489	-1.742467E+13	3.505896E-15	NaN
1186	1.000000	0.192521	7.37665e+06	-56289.1	1105.82	-29739.1	0.000000	0.000000	6.192800	-0.041818	NaN	0.000000	0.001573	0.001601	28.0841	0.044258	0.001930	22.9347	145.83	19.6752	-0.044366	0.191161	-0.982829	-0.984188	-0.041818	22.9347	-0.981461	-1.276713E+13	3.275422E-15	NaN
1186	1.000000	0.202530	7.37665e+06	-56289.1	1105.82	-29739.1	0.000000	0.000000	6.202809	-0.048124	NaN	0.000000	0.001551	0.001620	28.0843	0.089756	0.002054	43.698	-17.8342	-163.732	-0.032036	0.201236	-0.972820	-0.974114	-0.048124	43.698	-0.971994	-9.517705E+12	5.056227E-15	NaN
1186	1.000000	0.212525	7.37665e+06	-56289.1	1105.82	-29739.1	0.000000	0.000000	6.212802	-0.090176	NaN	0.000000	0.001598	0.001626	28.0839	0.044958	0.001997	22.5106	-123.772	18.9143	-0.068467	0.211233	-0.962825	-0.964117	-0.090176	22.5106	-0.959820	-6.522975E+12	1.382439E-14	NaN
1186	1.000000	0.222530	7.37665e+06	-56289.1	1105.82	-29739.1	0.000000	0.000000	6.222809	-0.049523	NaN	0.000000	0.001593	0.001634	28.0841	0.101100	0.002043	49.4898	120.521	-164.394	-0.096308	0.221226	-0.952820	-0.954123	-0.049523	49.4898	-0.952069	-5.127800E+12	9.657789E-15	NaN
1186	1.000000	0.232552	7.37665e+06	-56289.1	1105.82	-29739.1	0.000000	0.000000	6.232831	-0.034209	NaN	0.000000	0.001585	0.001602	28.0842	0.028264	0.001912	14.7832	-108.411	14.2885	-0.034057	0.231159	-0.942798	-0.944191	-0.034209	14.7832	-0.941062	-3.643065E+12	9.390187E-15	NaN
1186	1.000000	0.242525	7.37665e+06	-56289.1	1105.82	-29739.1	0.000000	0.000000	6.242805	-0.012065	NaN	0.000000	0.001591	0.001627	28.0843	0.076698	0.002137	35.8871	-123.093	-163.316	0.028217	0.241250	-0.932825	-0.934099	-0.012065	35.8871	-0.932573	-2.798437E+12	4.311464E-15	NaN
1186	1.000000	0.252560	7.37665e+06	-56289.1	1105.82	-29739.1	0.000000	0.000000	6.252840	-0.029902	NaN	0.000000	0.001564	0.001616	28.0841	0.076906	0.002079	36.9924	-22.5668	15.2036	-0.134865	0.251156	-0.922789	-0.924194	-0.029902	36.9924	-0.922183	-2.026197E+12	1.475784E-14	NaN
1186	1.000000	0.262551	7.37665e+06	-56289.1	1105.82	-29739.1	0.000000	0.000000	6.262830	-0.049676	NaN	0.000000	0.001601	0.001636	28.0844	0.115734	0.002026	57.1303	-106.551	-165.766	-0.070855	0.261198	-0.912799	-0.914151	-0.049676	57.1303	-0.912147	-1.483046E+12	3.349573E-14	NaN
1186	1.000000	0.272561	7.37665e+06	-56289.1	1105.82	-29739.1	0.000000	0.000000	6.272840	-0.053434	NaN	0.000000	0.001568	0.001653	28.0843	0.026258	0.001901	13.8143	130.625	19.2471	-0.020209	0.271211	-0.902788	-0.904138	-0.053434	13.8143	-0.899887	-1.012838E+12	5.275655E-14	NaN
1186	1.000000	0.282558	7.37665e+06	-56289.1	1105.82	-29739.1	0.000000	0.000000	6.282836	-0.078934	NaN	0.000000	0.001612	0.001642	28.0843	0.066002	0.002018	32.7052	97.0469	-166.009	-0.063647	0.281256	-0.892791	-0.894093	-0.078934	32.7052	-0.890981	-7.676814E+11	1.028212E-13	NaN
1186	1.000000	0.292532	7.37665e+06	-56289.1	1105.82	-29739.1	0.000000	0.000000	6.292812	-0.010491	NaN	0.000000	0.001550	0.001617	28.0841	0.074042	0.001956	37.8547	160.858	13.1316	-0.033960	0.291215	-0.882818	-0.884134	-0.010491	37.8547	-0.882610	-5.915644E+11	1.773452E-14	NaN
1186	1.000000	0.302576	7.37665e+06	-56289.1	1105.82	-29739.1	0.000000	0.000000	6.302856	-0.018916	NaN	0.000000	0.001569	0.001566	28.0844	0.025104	0.002001	12.5456	91.3117	-167.594	-0.052548	0.301301	-0.872774	-0.874049	-0.018916	12.5456	-0.871643	-4.204046E+11	4.499448E-14	NaN
1186	1.000000	0.312579	7.37665e+06	-56289.1	1105.82	-29739.1	0.000000	0.000000	6.312857	-0.086411	NaN	0.000000	0.001594	0.001624	28.084	0.048887	0.001978	24.715	140.049	13.5631	-0.046737	0.311256	-0.862770	-0.864093	-0.086411	24.715	-0.860148	-2.938506E+11	2.940658E-13	NaN
1186	1.000000	0.322553	7.37665e+06	-56289.1	1105.82	-29739.1	0.000000	0.000000	6.322834	-0.009918	NaN	0.000000	0.001557	0.001624	28.0842	0.088994	0.002076	42.8614	85.9158	-165.106	-0.102973	0.321239	-0.852796	-0.854110	-0.009918	42.8614	-0.852623	-2.324075E+11	4.267679E-14	NaN
1186	1.000000	0.332570	7.37665e+06	-56289.1	1105.82	-29739.1	0.000000	0.000000	6.332849	-0.051489	NaN	0.000000	0.001563	0.001596	28.0831	0.018177	0.001896	9.589239	-37.1292	12.4161	-0.052782	0.331172	-0.842779	-0.844177	-0.051489	9.589239	-0.838752	-1.507953E+11	3.414464E-13	NaN
1186	1.000000	0.342578	7.37665e+06	-56289.1	1105.82	-29739.1	0.000000	0.000000	6.342859	-0.017353	NaN	0.000000	0.001561	0.001624	28.0831	0.052321	0.001967	26.5955	-114.311	-167.527	-0.056985	0.341266	-0.832771	-0.834084	-0.017353	26.5955	-0.832282	-1.232275E+11	1.408212E-13	NaN
1186	1.000000	0.352602	7.37665e+06	-56289.1	1105.82	-29739.1	0.000000	0.000000	6.352884	0.020582	NaN	0.000000	0.001537	0.001612	28.0831	0.054996	0.002028	27.122	-172.658	13.2835	-0.055586	0.351226	-0.822748	-0.824123	0.020582	27.122	-0.823317	-9.315037E+10	-2.209529E-13	NaN
1186	1.000000	0.362634	7.37665e+06	-56289.1	1105.82	-29739.1	0.000000	0.000000	6.362914	-0.039088	NaN	0.000000	0.001560	0.001597	28.0828	0.032177	0.001934	16.6403	13.4222	-164.511	0.004632	0.361324	-0.812715	-0.814025	-0.039088	16.6403	-0.810953	-6.331500E+10	6.173572E-13	NaN
1186	1.000000	0.372617	7.37665e+06	-56289.1	1105.82	-29739.1	0.000000	0.000000	6.372895	-0.084446	NaN	0.000000	0.001501	0.001614	28.083	0.029763	0.001938	15.3563	40.1853	16.3513	-0.050106	0.371260	-0.802732	-0.804089	-0.084446	15.3563	-0.798608	-4.304897E+10	1.961637E-12	NaN
1186	1.000000	0.382594	7.37665e+06	-56289.1	1105.82	-29739.1	0.000000	0.000000	6.382875	0.002870	NaN	0.000000	0.001521	0.001597	28.0828	0.073674	0.001919	38.3957	-37.2909	-166.53	-0.009679	0.381344	-0.792755	-0.794006	0.002870	38.3957	-0.792811	-3.591400E+10	-7.990476E-14	NaN
1186	1.000000	0.392606	7.37665e+06	-56289.1	1105.82	-29739.1	0.000000	0.000000	6.392886	-0.028638	NaN	0.000000	0.001516	0.001586	28.0829	0.048075	0.001986	24.2094	173.325	18.1626	-0.068614	0.391251	-0.782743	-0.784099	-0.028638	24.2094	-0.781856	-2.549503E+10	1.123262E-12	NaN
1186	1.000000	0.402584	7.37665e+06	-56289.1	1105.82	-29739.1	0.000000	0.000000	6.402860	-0.126128	NaN	0.000000	0.001503	0.001603	28.0826	0.081251	0.002006	40.5099	77.2304	-166.821	-0.080971	0.401330	-0.772765	-0.774019	-0.126128	40.5099	-0.770430	-1.782988E+10	7.073988E-12	NaN
1186	1.000000	0.412555	7.37665e+06	-56289.1	1105.82	-29739.1	0.000000	0.000000	6.412833	-0.085030	NaN	0.000000	0.001499	0.001566	28.0832	0.087608	0.001956	44.7786	104.803	16.4612	-0.077811	0.411281	-0.762794	-0.764068	-0.085030	44.7786	-0.761370	-1.342572E+10	6.333371E-12	NaN
1186	1.000000	0.422617	7.37665e+06	-56289.1	1105.82	-29739.1	0.000000	0.000000	6.422897	-0.036536	NaN	0.000000	0.001497	0.001581	28.0828	0.075619	0.001851	40.8627	81.8368	-164.465	-0.149819	0.421300	-0.752732	-0.754049	-0.036536	40.8627	-0.752062	-1.002960E+10	3.642843E-12	NaN
1186	1.000000	0.432608	7.37665e+06	-56289.1	1105.82	-29739.1	0.000000	0.000000	6.432890	0.014072	NaN	0.000000	0.001504	0.001581	28.0828	0.070018	0.001997	35.0678	89.2197	14.9996	-0.061408	0.431301	-0.742741	-0.744048	0.014072	35.0678	-0.743042	-7.559333E+9	-1.861524E-12	NaN
1186	1.000000	0.442631	7.37665e+06	-56289.1	1105.82	-29739.1	0.000000	0.000000	6.442910	-0.060592	NaN	0.000000	0.001569	0.001620	28.0827	0.069329	0.001951	35.5344	-133.467	-164.927	-0.011883	0.441297	-0.732718	-0.734052	-0.060592	35.5344	-0.731439	-5.253155E+9	1.153439E-11	NaN
1186	1.000000	0.452637	7.37665e+06	-56289.1	1105.82	-29739.1	0.000000	0.000000	6.452914	-0.122004	NaN	0.000000	0.001528	0.001617	28.0828	0.103088	0.001872	55.0746	-48.276	14.1828	-0.136597	0.451290	-0.722712	-0.724059	-0.122004	55.0746	-0.721051	-3.791398E+9	3.217911E-11	NaN
1186	1.000000	0.462660	7.37665e+06	-56289.1	1105.82	-29739.1	0.000000	0.000000	6.462937	-0.099609	NaN	0.000000	0.001499	0.001615	28.0827	0.049579	0.001963	25.2531	-80.6669	-164.634	-0.006981	0.461332	-0.712689	-0.714017	-0.099609	25.2531	-0.709731	-2.656888E+9	3.749098E-11	NaN
1186	1.000000	0.472639	7.37665e+06	-56289.1	1105.82	-29739.1	0.000000	0.000000	6.472915	-0.123301	NaN	0.000000	0.001587	0.001591	28.0838	0.137060	0.001887	72.6378	-173.13	13.6388	-0.046880	0.471266	-0.702710	-0.704083	-0.123301	72.6378	-0.701437	-2.047181E+9	6.022963E-11	NaN
1186	1.000000	0.482639	7.37665e+06	-56289.1	1105.82	-29739.1	0.000000	0.000000	6.482919	-0.036327	NaN	0.000000	0.001612	0.001632	28.0841	0.036189	0.002087	17.3406	-109.41	-163.909	-0.055790	0.481317	-0.692710	-0.694032	-0.036327	17.3406	-0.691139	-1.480761E+9	2.453243E-11	NaN
1186	1.000000	0.492668	7.37665e+06	-56289.1	1105.82	-29739.1	0.000000	0.000000	6.492945	-0.089096	NaN	0.000000	0.001588	0.001642	28.0842	0.048466	0.002111	22.9563	-2.711320	14.1433	-0.193148	0.491249	-0.682682	-0.684100	-0.089096	22.9563	-0.679771	-1.035311E+9	8.605761E-11	NaN
1186	1.000000	0.502643	7.37665e+06	-56289.1	1105.82	-29739.1	0.000000	0.000000	6.502925	0.031133	NaN	0.000000	0.001513	0.001641	28.084	0.105125	0.002087	50.3753	51.6546	-163.468	0.012001	0.501417	-0.672707	-0.673932	0.031133	50.3753	-0.673170	-8.409581E+8	-3.702127E-11	NaN
1186	1.000000	0.512675	7.37665e+06	-56289.1	1105.82	-29739.1	0.000000	0.000000	6.512955	-0.022992	NaN	0.000000	0.001548	0.001621	28.084	0.092731	0.002074	44.7193	143.402	15.3577	-0.059504	0.511297	-0.662674	-0.664052	-0.022992	44.7193	-0.662289	-5.967807E+8	3.852674E-11	NaN
1186	1.000000	0.522671	7.37665e+06	-56289.1	1105.82	-29739.1	0.000000	0.000000	6.522951	-0.018808	NaN	0.000000	0.001545	0.001610	28.084	0.080011	0.001886	42.4125	89.0325	-161.823	0.113369	0.521327	-0.652679	-0.654022	-0.018808	42.4125	-0.652346	-4.361110E+8	4.312576E-11	NaN
1186	1.000000	0.532690	7.37665e+06	-56289.1	1105.82	-29739.1	0.000000	0.000000	6.532968	-0.067774	NaN	0.000000	0.001531	0.001595	28.0841	0.012151	0.001797	6.762537	-160.013	19.399	-0.013778	0.531309	-0.642659	-0.644041	-0.067774	6.762537	-0.635143	-2.532993E+8	2.675630E-10	NaN
1186	1.000000	0.542717	7.37665e+06	-56289.1	1105.82	-29739.1	0.000000	0.000000	6.542996	-0.060990	NaN	0.000000	0.001586	0.001589	28.0839	0.119625	0.001938	61.7268	-148.721	-165.167	-0.085734	0.541358	-0.632632	-0.633991	-0.060990	61.7268	-0.631891	-2.285551E+8	2.668504E-10	NaN
1186	1.000000	0.552658	7.37665e+06	-56289.1	1105.82	-29739.1	0.000000	0.000000	6.552939	-0.018057	NaN	0.000000	0.001544	0.001581	28.0843	0.083829	0.001972	42.5136	-108.306	15.0807	-0.009620	0.551349	-0.622691	-0.624001	-0.018057	42.5136	-0.622373	-1.691383E+8	1.067589E-10	NaN
1186	1.000000	0.562665	7.37665e+06	-56289.1	1105.82	-29739.1	0.000000	0.000000	6.562942	-0.092279	NaN	0.000000	0.001523	0.001609	28.0842	0.086301	0.002009	42.9609	-11.8068	-166.433	-0.052445	0.561361	-0.612685	-0.613988	-0.092279	42.9609	-0.611074	-1.182726E+8	7.802250E-10	NaN
1186	1.000000	0.572680	7.37665e+06	-56289.1	1105.82	-29739.1	0.000000	0.000000	6.572959	-0.039212	NaN	0.000000	0.001593	0.001631	28.0842	0.039885	0.001964	20.3046	-25.5347	17.1731	-0.037449	0.571257	-0.602670	-0.604092	-0.039212	20.3046	-0.601221	-8.655269E+7	4.530460E-10	NaN
1186	1.000000	0.582712	7.37665e+06	-56289.1	1105.82	-29739.1	0.000000	0.000000	6.582993	-0.007661	NaN	0.000000	0.001611	0.001590	28.0841	0.054312	0.002144	25.3302	-28.7125	-159.725	-0.009959	0.581417	-0.592638	-0.593932	-0.007661	25.3302	-0.592411	-6.544848E+7	1.170571E-10	NaN
1186	1.000000	0.592676	7.37665e+06	-56289.1	1105.82	-29739.1	0.000000	0.000000	6.592954	-0.078205	NaN	0.000000	0.001623	0.001633	28.0844	0.069771	0.001917	36.3936	35.0474	11.3443	-0.105520	0.591335	-0.582674	-0.584015	-0.078205	36.3936	-0.581062	-4.564406E+7	1.713356E-9	NaN
1186	1.000000	0.602700	7.37665e+06	-56289.1	1105.82	-29739.1	0.000000	0.000000	6.602979	-0.066298	NaN	0.000000	0.001651	0.001625	28.0828	0.041857	0.002040	20.5195	-57.5312	-161.022	-0.099778	0.601393	-0.572649	-0.573957	-0.066298	20.5195	-0.570226	-3.234085E+7	2.049965E-9	NaN
1186	1.000000	0.612706	7.37665e+06	-56289.1	1105.82	-29739.1	0.000000	0.000000	6.612986	-0.031993	NaN	0.000000	0.001667	0.001632	28.083	0.011962	0.002187	5.469328	166.119	16.3068	-0.082393	0.611368	-0.562644	-0.563981	-0.031993	5.469328	-0.558256	-2.209306E+7	1.448086E-9	NaN
1186	1.000000	0.622719	7.37665e+06	-56289.1	1105.82	-29739.1	0.000000	0.000000	6.623000	-0.003861	NaN	0.000000	0.001566	0.001627	28.0827	0.071806	0.001977	36.3179	160.018	-168.01	-0.064451	0.621448	-0.552630	-0.553901	-0.003861	36.3179	-0.552550	-1.841937E+7	2.095927E-10	NaN
1186	1.000000	0.632699	7.37665e+06	-56289.1	1105.82	-29739.1	0.000000	0.000000	6.632979	-0.032170	NaN	0.000000	0.001606	0.001589	28.0832	0.017405	0.002014	8.643805	164.143	10.6569	-0.044596	0.631356	-0.542650	-0.543993	-0.032170	8.643805	-0.539859	-1.228561E+7	2.618543E-9	NaN
1186	1.000000	0.642699	7.37665e+06	-56289.1	1105.82	-29739.1	0.000000	0.000000	6.642978	-0.062612	NaN	0.000000	0.001613	0.001608	28.083	0.066759	0.002014	33.1402	-143.884	-166.798	-0.066533	0.641438	-0.532650	-0.533911	-0.062612	33.1402	-0.531233	-9.32606e+06	6.713615E-9	NaN
1186	1.000000	0.652715	7.37665e+06	-56289.1	1105.82	-29739.1	0.000000	0.000000	6.652995	-0.030533	NaN	0.000000	0.001629	0.001617	28.0827	0.035635	0.002062	17.2853	-171.93	12.5431	-0.072314	0.651399	-0.522635	-0.523951	-0.030533	17.2853	-0.521310	-6.7891e+06	4.497342E-9	NaN
1186	1.000000	0.662728	7.37665e+06	-56289.1	1105.82	-29739.1	0.000000	0.000000	6.663005	-0.118242	NaN	0.000000	0.001585	0.001607	28.083	0.111459	0.001860	59.922	-63.6416	-166.493	-0.041050	0.661392	-0.512621	-0.513957	-0.118242	59.922	-0.511141	-4.90124e+06	2.412500E-8	NaN
1186	1.000000	0.672720	7.37665e+06	-56289.1	1105.82	-29739.1	0.000000	0.000000	6.672998	-0.082171	NaN	0.000000	0.001589	0.001609	28.0829	0.078955	0.002173	36.3385	-92.9144	13.6143	-0.165132	0.671383	-0.502630	-0.503966	-0.082171	36.3385	-0.500934	-3.53218e+06	2.326350E-8	NaN
1186	1.000000	0.682734	7.37665e+06	-56289.1	1105.82	-29739.1	0.000000	0.000000	6.683012	-0.073005	NaN	0.000000	0.001595	0.001637	28.0829	0.027301	0.002005	13.6192	114.263	-164.983	-0.044347	0.681409	-0.492616	-0.493940	-0.073005	13.6192	-0.488595	-2.37554e+06	3.073184E-8	NaN
1186	1.000000	0.692741	7.37665e+06	-56289.1	1105.82	-29739.1	0.000000	0.000000	6.693019	-0.092425	NaN	0.000000	0.001592	0.001607	28.0828	0.107748	0.001996	53.9856	-99.2224	14.5603	0.000437	0.691368	-0.482608	-0.483981	-0.092425	53.9856	-0.481324	-1.87958e+06	4.917327E-8	NaN
1186	1.000000	0.702756	7.37665e+06	-56289.1	1105.82	-29739.1	0.000000	0.000000	6.703035	-0.062959	NaN	0.000000	0.001602	0.001660	28.0832	0.077171	0.001978	39.0225	-97.6198	-165.341	-0.128603	0.701430	-0.472593	-0.473920	-0.062959	39.0225	-0.471383	-1.36396e+06	4.615891E-8	NaN
1186	1.000000	0.712753	7.37665e+06	-56289.1	1105.82	-29739.1	0.000000	0.000000	6.713031	-0.093941	NaN	0.000000	0.001642	0.001586	28.0829	0.073315	0.001948	37.6456	58.0606	15.2557	-0.053982	0.711379	-0.462596	-0.463970	-0.093941	37.6456	-0.460724	-966492	9.719824E-8	NaN
1186	1.000000	0.722757	7.37665e+06	-56289.1	1105.82	-29739.1	0.000000	0.000000	6.723039	0.016549	NaN	0.000000	0.001632	0.001623	28.0827	0.060222	0.002080	28.9551	-107.288	-164.303	-0.082564	0.721495	-0.452593	-0.453855	0.016549	28.9551	-0.453021	-753138	-2.197372E-8	NaN
1186	1.000000	0.732729	7.37665e+06	-56289.1	1105.82	-29739.1	0.000000	0.000000	6.733009	-0.028675	NaN	0.000000	0.001619	0.001601	28.0827	0.053845	0.002124	25.3536	-25.8426	14.2377	-0.035707	0.731434	-0.442620	-0.443915	-0.028675	25.3536	-0.441772	-522840	5.484411E-8	NaN
1186	1.000000	0.742769	7.37665e+06	-56289.1	1105.82	-29739.1	0.000000	0.000000	6.743046	-0.121466	NaN	0.000000	0.001614	0.001636	28.0842	0.027231	0.002032	13.4024	-78.2379	-164.253	-0.181660	0.741417	-0.432580	-0.433932	-0.121466	13.4024	-0.425783	-310719	3.909199E-7	NaN
1186	1.000000	0.752755	7.37665e+06	-56289.1	1105.82	-29739.1	0.000000	0.000000	6.753034	-0.047560	NaN	0.000000	0.001582	0.001630	28.0839	0.022993	0.002013	11.4246	-9.811473	13.564	-0.005976	0.751413	-0.422594	-0.423937	-0.047560	11.4246	-0.419472	-252888	1.880690E-7	NaN
1186	1.000000	0.762762	7.37665e+06	-56289.1	1105.82	-29739.1	0.000000	0.000000	6.763040	-0.078028	NaN	0.000000	0.001558	0.001618	28.0839	0.080872	0.002134	37.8908	-44.1017	-165.492	-0.062001	0.761454	-0.412587	-0.413895	-0.078028	37.8908	-0.411043	-191968	4.064622E-7	NaN
1186	1.000000	0.772744	7.37665e+06	-56289.1	1105.82	-29739.1	0.000000	0.000000	6.773023	-0.049543	NaN	0.000000	0.001604	0.001589	28.0842	0.046719	0.002011	23.2368	-24.0473	18.5612	-0.040036	0.771426	-0.402606	-0.403923	-0.049543	23.2368	-0.401007	-138149	3.586180E-7	NaN
1186	1.000000	0.782784	7.37665e+06	-56289.1	1105.82	-29739.1	0.000000	0.000000	6.783060	-0.127602	NaN	0.000000	0.001531	0.001624	28.084	0.099833	0.001970	50.6826	99.9606	-165.95	-0.097842	0.781492	-0.392566	-0.393857	-0.127602	50.6826	-0.390677	-98368.1	1.297186E-6	NaN
1186	1.000000	0.792778	7.37665e+06	-56289.1	1105.82	-29739.1	0.000000	0.000000	6.793055	-0.122143	NaN	0.000000	0.001518	0.001643	28.0839	0.089985	0.002058	43.7222	-7.954964	11.831	-0.163167	0.791403	-0.382571	-0.383946	-0.122143	43.7222	-0.380476	-70261.2	1.738411E-6	NaN
1186	1.000000	0.802805	7.37665e+06	-56289.1	1105.82	-29739.1	0.000000	0.000000	6.803086	-0.010352	NaN	0.000000	0.001539	0.001596	28.084	0.072777	0.001987	36.6246	-65.4783	-165.265	-0.052268	0.801527	-0.372544	-0.373822	-0.010352	36.6246	-0.372332	-53666.6	1.928925E-7	NaN
1186	1.000000	0.812799	7.37665e+06	-56289.1	1105.82	-29739.1	0.000000	0.000000	6.813078	-0.057718	NaN	0.000000	0.001506	0.001618	28.0839	0.013891	0.002060	6.742336	-9.368070	14.3583	-0.020778	0.811428	-0.362551	-0.363921	-0.057718	6.742336	-0.356130	-31323	1.842677E-6	NaN
1186	1.000000	0.822806	7.37665e+06	-56289.1	1105.82	-29739.1	0.000000	0.000000	6.823085	-0.052913	NaN	0.000000	0.001518	0.001630	28.0839	0.103392	0.001975	52.3482	92.8348	-164.877	-0.101257	0.821435	-0.352544	-0.353915	-0.052913	52.3482	-0.351786	-27096.3	1.952786E-6	NaN
1186	1.000000	0.832795	7.37665e+06	-56289.1	1105.82	-29739.1	0.000000	0.000000	6.833074	-0.062703	NaN	0.000000	0.001494	0.001637	28.0839	0.095505	0.002139	44.6432	169.025	15.9115	-0.082137	0.831388	-0.342554	-0.343961	-0.062703	44.6432	-0.341501	-19205.5	3.264861E-6	NaN
1186	1.000000	0.842798	7.37665e+06	-56289.1	1105.82	-29739.1	0.000000	0.000000	6.843080	0.019417	NaN	0.000000	0.001554	0.001636	28.084	0.006700	0.002116	3.166759	-60.8627	-166.703	-0.038470	0.841519	-0.332552	-0.333830	0.019417	3.166759	-0.337150	-16595.5	-1.170023E-6	NaN
1186	1.000000	0.852820	7.37665e+06	-56289.1	1105.82	-29739.1	0.000000	0.000000	6.853099	-0.066982	NaN	0.000000	0.001534	0.001651	28.0843	0.109080	0.001813	60.1561	-64.2471	11.1825	-0.063633	0.851431	-0.322529	-0.323918	-0.066982	60.1561	-0.321694	-9852.85	6.798184E-6	NaN
1186	1.000000	0.862784	7.37665e+06	-56289.1	1105.82	-29739.1	0.000000	0.000000	6.863060	-0.124501	NaN	0.000000	0.001537	0.001644	28.0837	0.126990	0.002057	61.7322	51.464	-167.122	-0.171344	0.861496	-0.312566	-0.313853	-0.124501	61.7322	-0.311053	-6864.9	1.813588E-5	NaN
1186	1.000000	0.872805	7.37665e+06	-56289.1	1105.82	-29739.1	0.000000	0.000000	6.873086	-0.010221	NaN	0.000000	0.001531	0.001677	28.0845	0.030752	0.001988	15.4718	-14.7751	16.7859	-0.059009	0.871439	-0.302544	-0.303910	-0.010221	15.4718	-0.302049	-5047.91	2.024699E-6	NaN
1186	1.000000	0.882795	7.37665e+06	-56289.1	1105.82	-29739.1	0.000000	0.000000	6.883073	-0.075690	NaN	0.000000	0.001559	0.001642	28.0828	0.046880	0.002124	22.0728	-114.905	-166.676	-0.130450	0.881515	-0.292554	-0.293834	-0.075690	22.0728	-0.289982	-3334.57	2.269862E-5	NaN
1186	1.000000	0.892850	7.37665e+06	-56289.1	1105.82	-29739.1	0.000000	0.000000	6.893128	-0.087305	NaN	0.000000	0.001593	0.001622	28.083	0.027299	0.002010	13.5823	162.559	15.5997	-0.095111	0.891446	-0.282499	-0.283904	-0.087305	13.5823	-0.277678	-2177.26	4.009863E-5	NaN
1186	1.000000	0.902811	7.37665e+06	-56289.1	1105.82	-29739.1	0.000000	0.000000	6.903089	-0.082977	NaN	0.000000	0.001559	0.001627	28.0828	0.045605	0.002174	20.981	-3.548788	-165.267	-0.045128	0.901550	-0.272538	-0.273799	-0.082977	20.981	-0.269572	-1640.73	5.057331E-5	NaN
1186	1.000000	0.912886	7.37665e+06	-56289.1	1105.82	-29739.1	0.000000	0.000000	6.913163	-0.097008	NaN	0.000000	0.001553	0.001652	28.0828	0.071270	0.001832	38.9076	74.6498	16.1932	-0.084454	0.911484	-0.262463	-0.263865	-0.097008	38.9076	-0.260593	-1196.77	8.105814E-5	NaN
1186	1.000000	0.922823	7.37665e+06	-56289.1	1105.82	-29739.1	0.000000	0.000000	6.923101	-0.080208	NaN	0.000000	0.001678	0.001670	28.0829	0.088102	0.001988	44.3193	-61.7634	-165.136	-0.001218	0.921501	-0.252526	-0.253848	-0.080208	44.3193	-0.251169	-857.099	9.358042E-5	NaN
1186	1.000000	0.932840	7.37665e+06	-56289.1	1105.82	-29739.1	0.000000	0.000000	6.933121	-0.010897	NaN	0.000000	0.001600	0.001639	28.0829	0.080722	0.001868	43.2157	-176.27	15.1287	-0.069821	0.931470	-0.242509	-0.243879	-0.010897	43.2157	-0.242320	-624.817	1.744070E-5	NaN
1186	1.000000	0.942837	7.37665e+06	-56289.1	1105.82	-29739.1	0.000000	0.000000	6.943114	-0.116921	NaN	0.000000	0.001615	0.001658	28.0829	0.049104	0.002030	24.1919	-28.5087	-167.446	-0.063189	0.941532	-0.232512	-0.233818	-0.116921	24.1919	-0.228887	-384.537	0.000304	NaN
1186	1.000000	0.952864	7.37665e+06	-56289.1	1105.82	-29739.1	0.000000	0.000000	6.953145	-0.011950	NaN	0.000000	0.001590	0.001662	28.0828	0.023135	0.001955	11.8344	-29.471	15.5032	-0.005133	0.951450	-0.222485	-0.223899	-0.011950	11.8344	-0.221728	-295.977	4.037633E-5	NaN
1186	1.000000	0.962843	7.37665e+06	-56289.1	1105.82	-29739.1	0.000000	0.000000	6.963125	0.008389	NaN	0.000000	0.001598	0.001652	28.083	0.080312	0.001943	41.3372	23.024	-164.428	0.030552	0.961572	-0.212506	-0.213777	0.008389	41.3372	-0.212658	-211.732	-3.961860E-5	NaN
1186	1.000000	0.972859	7.37665e+06	-56289.1	1105.82	-29739.1	0.000000	0.000000	6.973138	-0.050248	NaN	0.000000	0.001614	0.001676	28.0829	0.073665	0.001923	38.3095	147.402	12.0213	-0.022493	0.971505	-0.202490	-0.203844	-0.050248	38.3095	-0.201506	-139.453	0.000360	NaN
1186	1.000000	0.982858	7.37665e+06	-56289.1	1105.82	-29739.1	0.000000	0.000000	6.983136	-0.075259	NaN	0.000000	0.001616	0.001669	28.0829	0.088621	0.001975	44.8682	-98.6683	-163.557	-0.114466	0.981521	-0.192492	-0.193829	-0.075259	44.8682	-0.191234	-94.323	0.000798	NaN
1186	1.000000	0.992890	7.37665e+06	-56289.1	1105.82	-29739.1	0.000000	0.000000	6.993171	-0.016710	NaN	0.000000	0.001610	0.001710	28.0826	0.083665	0.001967	42.5435	-87.3777	18.5676	0.039389	0.991512	-0.182459	-0.183837	-0.016710	42.5435	-0.182165	-66.4081	0.000252	NaN
1186	1.000000	1.002870	7.37665e+06	-56289.1	1105.82	-29739.1	0.000000	0.000000	7.003150	-0.037859	NaN	0.000000	0.001570	0.001705	28.0832	0.020552	0.002160	9.516533	-142.274	-163.2	-0.049597	1.001521	-0.172479	-0.173828	-0.037859	9.516533	-0.169496	-40.2578	0.000940	NaN
1186	1.000000	1.012861	7.37665e+06	-56289.1	1105.82	-29739.1	0.000000	0.000000	7.013137	-0.123842	NaN	0.000000	0.001619	0.001705	28.0842	0.055838	0.001939	28.7927	-50.8716	14.6039	-0.099429	1.011535	-0.162488	-0.163814	-0.123842	28.7927	-0.159262	-26.599	0.004656	NaN
1186	1.000000	1.022869	7.37665e+06	-56289.1	1105.82	-29739.1	0.000000	0.000000	7.023146	-0.100278	NaN	0.000000	0.001576	0.001661	28.0841	0.056191	0.001973	28.4783	166.951	-167.572	-0.026545	1.021556	-0.152480	-0.153794	-0.100278	28.4783	-0.149840	-17.9919	0.005573	NaN
1186	1.000000	1.032889	7.37665e+06	-56289.1	1105.82	-29739.1	0.000000	0.000000	7.033170	-0.018548	NaN	0.000000	0.001572	0.001667	28.0839	0.039741	0.002104	18.8898	-50.8262	16.361	-0.070327	1.031582	-0.142460	-0.143768	-0.018548	18.8898	-0.141723	-12.7425	0.001456	NaN
1186	1.000000	1.042874	7.37665e+06	-56289.1	1105.82	-29739.1	0.000000	0.000000	7.043151	-0.109447	NaN	0.000000	0.001589	0.001617	28.084	0.040181	0.002049	19.6123	41.1172	-164.33	-0.040111	1.041612	-0.132476	-0.133738	-0.109447	19.6123	-0.128290	-7.058228	0.015506	NaN
1186	1.000000	1.052859	7.37665e+06	-56289.1	1105.82	-29739.1	0.000000	0.000000	7.053139	-0.042400	NaN	0.000000	0.001603	0.001660	28.0839	0.025743	0.002062	12.4858	-6.932010	13.6442	-0.024486	1.051498	-0.122490	-0.123851	-0.042400	12.4858	-0.119943	-4.818780	0.008799	NaN
1186	1.000000	1.062875	7.37665e+06	-56289.1	1105.82	-29739.1	0.000000	0.000000	7.063154	-0.062178	NaN	0.000000	0.001590	0.001652	28.0839	0.022515	0.002073	10.8611	40.4428	-164.885	-0.052692	1.061563	-0.112474	-0.113786	-0.062178	10.8611	-0.108180	-2.750050	0.022610	NaN
1186	1.000000	1.072904	7.37665e+06	-56289.1	1105.82	-29739.1	0.000000	0.000000	7.073186	0.028468	NaN	0.000000	0.001578	0.001647	28.0842	0.041750	0.002048	20.3877	-97.1661	12.9391	-0.027626	1.071523	-0.102445	-0.103826	0.028468	20.3877	-0.103493	-2.180170	-0.013058	NaN
1186	1.000000	1.082858	7.37665e+06	-56289.1	1105.82	-29739.1	0.000000	0.000000	7.083137	-0.032350	NaN	0.000000	0.001568	0.001645	28.0839	0.124925	0.002070	60.3541	-96.6922	-164.074	-0.068074	1.081572	-0.092492	-0.093777	-0.032350	60.3541	-0.092090	-1.209332	0.026750	NaN
1186	1.000000	1.092911	7.37665e+06	-56289.1	1105.82	-29739.1	0.000000	0.000000	7.093189	-0.063555	NaN	0.000000	0.001553	0.001677	28.0839	0.104196	0.001924	54.1698	-33.3261	16.1513	-0.138050	1.091507	-0.082439	-0.083843	-0.063555	54.1698	-0.081559	-0.676795	0.093907	NaN
1186	1.000000	1.102892	7.37665e+06	-56289.1	1105.82	-29739.1	0.000000	0.000000	7.103168	-0.105204	NaN	0.000000	0.001645	0.001655	28.084	0.112013	0.001890	59.2677	-165.784	-165.546	-0.061937	1.101623	-0.072458	-0.073726	-0.105204	59.2677	-0.071127	-0.365553	0.287793	NaN
1186	1.000000	1.112898	7.37665e+06	-56289.1	1105.82	-29739.1	0.000000	0.000000	7.113176	-0.087059	NaN	0.000000	0.001631	0.001633	28.0841	0.044137	0.002068	21.3439	-81.7533	15.0717	-0.054210	1.111562	-0.062451	-0.063787	-0.087059	21.3439	-0.059392	-0.172989	0.503263	NaN
1186	1.000000	1.122912	7.37665e+06	-56289.1	1105.82	-29739.1	0.000000	0.000000	7.123191	-0.055143	NaN	0.000000	0.001645	0.001661	28.0841	0.047315	0.001941	24.3748	39.4165	-161.719	-0.023137	1.121657	-0.052437	-0.053692	-0.055143	24.3748	-0.050740	-0.096070	0.573991	NaN
1186	1.000000	1.132929	7.37665e+06	-56289.1	1105.82	-29739.1	0.000000	0.000000	7.133209	-0.023811	NaN	0.000000	0.001624	0.001659	28.0841	0.044809	0.001926	23.2638	101.735	15.9705	-0.021977	1.131595	-0.042421	-0.043754	-0.023811	23.2638	-0.041653	-0.050778	0.468912	NaN
1186	1.000000	1.142936	7.37665e+06	-56289.1	1105.82	-29739.1	0.000000	0.000000	7.143212	-0.109000	NaN	0.000000	0.001623	0.001626	28.0843	0.118063	0.002064	57.213	169.047	-164.507	-0.137213	1.141664	-0.032414	-0.033685	-0.109000	57.213	-0.030985	-0.024524	4.444714	NaN
1186	1.000000	1.152920	7.37665e+06	-56289.1	1105.82	-29739.1	0.000000	0.000000	7.153198	-0.088119	NaN	0.000000	0.001549	0.001614	28.083	0.019528	0.001970	9.910673	-61.7786	14.3739	-0.146238	1.151616	-0.022429	-0.023733	-0.088119	9.910673	-0.015761	-0.009736	9.050860	NaN
1186	1.000000	1.162897	7.37665e+06	-56289.1	1105.82	-29739.1	0.000000	0.000000	7.163177	-0.020768	NaN	0.000000	0.001531	0.001628	28.083	0.029627	0.002070	14.3131	-42.0944	-166.436	-0.033380	1.161592	-0.012453	-0.013757	-0.020768	14.3131	-0.011364	-0.007166	2.898244	NaN
1186	1.000000	1.172918	7.37665e+06	-56289.1	1105.82	-29739.1	0.000000	0.000000	7.173239	0.975616	NaN	0.000000	0.001554	0.001614	28.0828	1.511441	0.002030	744.714	11.1528	14.0266	0.223973	1.171548	-0.002431	-0.003802	0.975616	744.714	-0.003414	-0.002396	-407.254	NaN
1186	2.000000	1.182342	7.37665e+06	-56289.1	1105.82	-29739.1	0.000000	0.000000	7.183027	9.802804	NaN	0.000000	0.001580	0.001638	28.0832	9.706878	0.001633	5943.25	8.167370	-170.145	8.441092	1.181520	0.006993	0.006171	9.802804	5943.25	0.005756	0.004834	2028	78100.9
1186	2.000000	1.184998	7.37665e+06	-56289.1	1105.82	-29739.1	0.000000	0.000000	7.185746	11.348	NaN	0.000000	0.001552	0.001610	28.0831	12.2372	0.001630	7506.27	7.858346	5.424723	9.186909	1.184704	0.009649	0.009354	11.348	7506.27	0.008515	0.007577	1497.61	78783.9
1186	2.000000	1.187492	7.37665e+06	-56289.1	1105.82	-29739.1	0.000000	0.000000	7.188382	14.8049	NaN	0.000000	0.001607	0.001634	28.0837	15.3564	0.001677	9158.04	7.064054	-174.64	14.5683	1.187239	0.012143	0.011890	14.8049	9158.04	0.010930	0.010234	1446.7	82710.8
1186	2.000000	1.189994	7.37665e+06	-56289.1	1105.82	-29739.1	0.000000	0.000000	7.191166	21.6621	NaN	0.000000	0.001618	0.001633	28.083	18.3578	0.001618	11344.7	6.591590	2.812434	20.4756	1.189645	0.014644	0.014296	21.6621	11344.7	0.013212	0.012975	1669.55	90994.4
1186	2.000000	1.192455	7.37665e+06	-56289.1	1105.82	-29739.1	0.000000	0.000000	7.193852	27.1338	NaN	0.000000	0.001585	0.001686	28.0843	20.3689	0.001566	13010.4	5.201533	-176.808	26.7443	1.192088	0.017105	0.016739	27.1338	13010.4	0.015541	0.016014	1694.4	93933
1186	2.000000	1.194971	7.37665e+06	-56289.1	1105.82	-29739.1	0.000000	0.000000	7.196518	30.7668	NaN	0.000000	0.001637	0.001642	28.0829	23.7962	0.001707	13941.3	5.898076	1.620965	29.8417	1.194574	0.019622	0.019224	30.7668	13941.3	0.017967	0.019447	1582.06	91337.3
1186	2.000000	1.197480	7.37665e+06	-56289.1	1105.82	-29739.1	0.000000	0.000000	7.199199	34.9362	NaN	0.000000	0.001630	0.001639	28.0831	27.6091	0.001907	14477.8	7.462541	-179.917	33.9103	1.197220	0.022131	0.021871	34.9362	14477.8	0.020321	0.023049	1515.73	87126.6
1186	2.000000	1.199937	7.37665e+06	-56289.1	1105.82	-29739.1	0.000000	0.000000	7.202031	44.0752	NaN	0.000000	0.001579	0.001656	28.0829	28.6684	0.001838	15599.3	5.104402	2.359743	42.1084	1.199556	0.024588	0.024206	44.0752	15599.3	0.022468	0.026571	1658.8	87433.8
1186	2.000000	1.202388	7.37665e+06	-56289.1	1105.82	-29739.1	0.000000	0.000000	7.204823	52.3438	NaN	0.000000	0.001611	0.001628	28.0849	31.9402	0.001829	17466.8	8.966260	175.876	50.9132	1.202136	0.027039	0.026786	52.3438	17466.8	0.024791	0.030636	1708.55	91173
1186	2.000000	1.204932	7.37665e+06	-56289.1	1105.82	-29739.1	0.000000	0.000000	7.207821	63.3888	NaN	0.000000	0.001572	0.001609	28.0828	33.8355	0.001820	18592.8	8.613708	-2.423926	61.4734	1.204441	0.029582	0.029092	63.3888	18592.8	0.027025	0.034804	1821.32	91055.5
1186	2.000000	1.207396	7.37665e+06	-56289.1	1105.82	-29739.1	0.000000	0.000000	7.210600	71.0279	NaN	0.000000	0.001566	0.001653	28.0843	36.4855	0.001821	20036.6	7.014346	177.764	70.065	1.207170	0.032047	0.031821	71.0279	20036.6	0.029388	0.039486	1798.83	92125.3
1186	2.000000	1.209848	7.37665e+06	-56289.1	1105.82	-29739.1	0.000000	0.000000	7.213610	84.6124	NaN	0.000000	0.001589	0.001668	28.0841	37.367	0.001794	20823.6	1.641849	3.722543	80.9219	1.209508	0.034499	0.034159	84.6124	20823.6	0.031451	0.043805	1931.55	90900.1
1186	2.000000	1.212378	7.37665e+06	-56289.1	1105.82	-29739.1	0.000000	0.000000	7.216753	99.5111	NaN	0.000000	0.001586	0.001634	28.0853	39.9858	0.001786	22387.9	3.671030	179.869	97.2879	1.212066	0.037028	0.036717	99.5111	22387.9	0.033695	0.048750	2041.24	92639.8
1186	2.000000	1.214845	7.37665e+06	-56289.1	1105.82	-29739.1	0.000000	0.000000	7.219617	109.17	NaN	0.000000	0.001613	0.001699	28.084	42.064	0.001742	24149.1	1.041538	1.482680	103.328	1.214501	0.039496	0.039151	109.17	24149.1	0.036105	0.054350	2008.65	94639.7
1186	2.000000	1.217348	7.37665e+06	-56289.1	1105.82	-29739.1	0.000000	0.000000	7.222709	123.481	NaN	0.000000	0.001628	0.001697	28.0844	45.7448	0.001883	24297	3.346129	179.594	119.31	1.217085	0.041999	0.041736	123.481	24297	0.038187	0.059427	2077.86	91061.3
1186	2.000000	1.219901	7.37665e+06	-56289.1	1105.82	-29739.1	0.000000	0.000000	7.225928	139.681	NaN	0.000000	0.001617	0.001663	28.0842	47.1046	0.001844	25539	5.362573	-2.052447	137.757	1.219582	0.044551	0.044232	139.681	25539	0.040449	0.065194	2142.53	91384.4
1186	2.000000	1.222403	7.37665e+06	-56289.1	1105.82	-29739.1	0.000000	0.000000	7.228926	151.707	NaN	0.000000	0.001650	0.001658	28.085	49.8714	0.001848	26993.2	7.012169	175.022	151.237	1.222043	0.047054	0.046693	151.707	26993.2	0.042839	0.071570	2119.69	92185.4
1186	2.000000	1.224894	7.37665e+06	-56289.1	1105.82	-29739.1	0.000000	0.000000	7.232165	169.918	NaN	0.000000	0.001611	0.001632	28.0841	52.2112	0.001765	29583.1	6.145013	-5.443665	167.06	1.224560	0.049544	0.049211	169.918	29583.1	0.045237	0.078260	2171.19	96615.2
1186	2.000000	1.227356	7.37665e+06	-56289.1	1105.82	-29739.1	0.000000	0.000000	7.235366	187.875	NaN	0.000000	0.001639	0.001667	28.0843	54.7588	0.001815	30176.7	2.520412	178.319	185.864	1.227133	0.052006	0.051783	187.875	30176.7	0.047337	0.084360	2227.07	94924.3
1186	2.000000	1.229961	7.37665e+06	-56289.1	1105.82	-29739.1	0.000000	0.000000	7.238665	204.728	NaN	0.000000	0.001601	0.001642	28.0842	56.5741	0.001795	31513.4	2.396544	-1.245205	204.895	1.229506	0.054612	0.054157	204.728	31513.4	0.049740	0.091610	2234.76	95125.4
1186	2.000000	1.232330	7.37665e+06	-56289.1	1105.82	-29739.1	0.000000	0.000000	7.241515	216.423	NaN	0.000000	0.001631	0.001653	28.0844	58.6202	0.001842	31827.7	2.132899	179.074	212.774	1.231981	0.056981	0.056632	216.423	31827.7	0.051881	0.098315	2201.33	92740.5
1186	2.000000	1.234870	7.37665e+06	-56289.1	1105.82	-29739.1	0.000000	0.000000	7.244678	231.558	NaN	0.000000	0.001645	0.001644	28.0841	61.1724	0.001756	34835	0.855096	-1.107231	226.48	1.234572	0.059521	0.059223	231.558	34835	0.054535	0.106946	2165.19	97321
1186	2.000000	1.237330	7.37665e+06	-56289.1	1105.82	-29739.1	0.000000	0.000000	7.248325	260.423	NaN	0.000000	0.001616	0.001641	28.0842	65.2422	0.001739	37508.1	4.498116	174.641	257.222	1.237043	0.061981	0.061693	260.423	37508.1	0.056773	0.114492	2274.59	101277
1186	2.000000	1.239765	7.37665e+06	-56289.1	1105.82	-29739.1	0.000000	0.000000	7.251693	283.105	NaN	0.000000	0.001643	0.001673	28.0841	66.7693	0.001793	37233.9	5.316902	-5.617983	274.658	1.239401	0.064415	0.064052	283.105	37233.9	0.058713	0.121233	2335.21	97701.4
1186	2.000000	1.242279	7.37665e+06	-56289.1	1105.82	-29739.1	0.000000	0.000000	7.255111	305.069	NaN	0.000000	0.001600	0.001660	28.0832	68.2394	0.001735	39330.3	2.572381	176.187	301.425	1.242079	0.066930	0.066730	305.069	39330.3	0.061112	0.129828	2349.8	99728
1186	2.000000	1.244866	7.37665e+06	-56289.1	1105.82	-29739.1	0.000000	0.000000	7.258399	322.114	NaN	0.000000	0.001638	0.001644	28.0826	71.5754	0.001731	41355.9	6.926373	-8.730512	318.82	1.244480	0.069516	0.069130	322.114	41355.9	0.063675	0.139315	2312.13	101231
1186	2.000000	1.247287	7.37665e+06	-56289.1	1105.82	-29739.1	0.000000	0.000000	7.261981	350.323	NaN	0.000000	0.001643	0.001656	28.0828	74.2416	0.001780	41720	7.288996	171.98	346.853	1.247035	0.071938	0.071685	350.323	41720	0.065640	0.146805	2386.32	99482.7
1186	2.000000	1.249862	7.37665e+06	-56289.1	1105.82	-29739.1	0.000000	0.000000	7.265304	368.507	NaN	0.000000	0.001597	0.001653	28.0827	74.8598	0.001835	40800	3.926178	-3.799684	363.86	1.249419	0.074512	0.074069	368.507	40800	0.067738	0.155010	2377.31	94678.9
1186	2.000000	1.252316	7.37665e+06	-56289.1	1105.82	-29739.1	0.000000	0.000000	7.268545	387.628	NaN	0.000000	0.001617	0.001656	28.0829	79.8183	0.001883	42383.7	8.234224	170.432	386.551	1.252069	0.076967	0.076720	387.628	42383.7	0.070108	0.164526	2356.03	95467.4
1186	2.000000	1.254772	7.37665e+06	-56289.1	1105.82	-29739.1	0.000000	0.000000	7.271060	389.086	NaN	0.000000	0.001650	0.001661	28.0826	82.0533	0.001918	42773.2	5.147046	-6.861371	381.263	1.254484	0.079422	0.079135	389.086	42773.2	0.072600	0.174825	2225.58	93463.8
1186	2.000000	1.257296	7.37665e+06	-56289.1	1105.82	-29739.1	0.000000	0.000000	7.275384	432.836	NaN	0.000000	0.001626	0.001668	28.083	82.9783	0.001791	46318.9	3.598837	174.559	429.731	1.256989	0.081946	0.081640	432.836	46318.9	0.074938	0.184752	2342.8	98454.9
1186	2.000000	1.259914	7.37665e+06	-56289.1	1105.82	-29739.1	0.000000	0.000000	7.278608	447.562	NaN	0.000000	0.001614	0.001654	28.0827	84.1823	0.001795	46905.1	1.262216	-2.687303	448.862	1.259698	0.084565	0.084349	447.562	46905.1	0.077408	0.195523	2289.05	96915.8
1186	2.000000	1.262368	7.37665e+06	-56289.1	1105.82	-29739.1	0.000000	0.000000	7.281839	466.442	NaN	0.000000	0.001660	0.001649	28.0827	85.9546	0.001820	47233.6	1.120897	176.546	466.221	1.262213	0.087019	0.086864	466.442	47233.6	0.079613	0.205374	2271.18	95225.1
1186	2.000000	1.264858	7.37665e+06	-56289.1	1105.82	-29739.1	0.000000	0.000000	7.285414	492.826	NaN	0.000000	0.001672	0.001644	28.0827	88.3016	0.001863	47398.8	0.222921	-2.569504	489.156	1.264488	0.089508	0.089139	492.826	47398.8	0.081710	0.214958	2292.66	93403.7
1186	2.000000	1.267280	7.37665e+06	-56289.1	1105.82	-29739.1	0.000000	0.000000	7.289169	525.222	NaN	0.000000	0.001633	0.001676	28.0832	91.4311	0.001749	52289.4	5.427496	172	522.387	1.266960	0.091930	0.091610	525.222	52289.4	0.084397	0.227534	2308.33	100153
1186	2.000000	1.269831	7.37665e+06	-56289.1	1105.82	-29739.1	0.000000	0.000000	7.292888	553.599	NaN	0.000000	0.001624	0.001676	28.0827	92.0479	0.001706	53957.5	4.220805	-7.220303	550.68	1.269507	0.094482	0.094158	553.599	53957.5	0.086787	0.239000	2316.32	100838
1186	2.000000	1.272282	7.37665e+06	-56289.1	1105.82	-29739.1	0.000000	0.000000	7.295951	568.476	NaN	0.000000	0.001642	0.001644	28.0827	94.1436	0.001787	52693.2	4.174903	172.666	564.634	1.272127	0.096933	0.096778	568.476	52693.2	0.088842	0.249067	2282.42	96464.9
1186	2.000000	1.274806	7.37665e+06	-56289.1	1105.82	-29739.1	0.000000	0.000000	7.300111	608.249	NaN	0.000000	0.001646	0.001651	28.0826	96.1598	0.001765	54495.6	1.988965	-5.121150	602.657	1.274453	0.099456	0.099104	608.249	54495.6	0.091085	0.260283	2336.88	97591.5
1186	2.000000	1.277346	7.37665e+06	-56289.1	1105.82	-29739.1	0.000000	0.000000	7.303586	630.98	NaN	0.000000	0.001644	0.001661	28.0843	98.8727	0.001779	55584.3	1.813393	174.728	629.912	1.277075	0.101997	0.101725	630.98	55584.3	0.093483	0.272524	2315.32	97279.9
1186	2.000000	1.279891	7.37665e+06	-56289.1	1105.82	-29739.1	0.000000	0.000000	7.306994	651.936	NaN	0.000000	0.001640	0.001647	28.084	101.755	0.001866	54520.7	4.636645	-7.992969	649.538	1.279654	0.104542	0.104305	651.936	54520.7	0.095574	0.283412	2300.31	93567.6
1186	2.000000	1.280684	7.37665e+06	-56289.1	1105.82	-29739.1	0.000000	0.000000	7.308685	673.776	NaN	0.000000	0.001617	0.001656	28.0843	102.576	0.001782	57572	3.367569	-6.729346	662.289	1.280346	0.105335	0.104996	673.776	57572	0.096557	0.288602	2334.62	97911.8