File: remote_trans/data/nanoindenter/0828-1/data/Data_2025-08-06,11h17m57s/2025-07-22_16-23-58_1_210.txt
2025-07-22, 16:23:58, 1
Index	Phase	Displacement	Time	Pos X	Pos Y	Pos Z	Rot A	Rot B	Piezo Z	Force A	Force B	Gripper	Voltage A	Voltage B	Temperature	Amplitude force	Amplitude pos	Stiffness	Phase shift	Phase excitation	Force A raw	Displacement raw	HMax	HMax raw	Real Force	Real Stiffness	Contact Depth	Area	Hardness	Reduced Mod.
[#]	[#]	[um]	[s]	[um]	[um]	[um]	[m°]	[m°]	[um]	[uN]	[uN]	[V]	[V]	[V]	[°C]	[uN]	[um]	[N/m]	[°]	[°]	[uN]	[um]	[um]	[um]	[uN]	[N/m]	[um]	[um^2]	[MPa]	[MPa]
210	1.000000	0.002148	7.3671e+06	-49139.1	955.818	-29760.4	0.000000	0.000000	6.002829	-0.044529	NaN	0.000000	0.001684	0.001726	28.0785	0.043850	0.000869	50.4543	132.321	-164.192	-0.038682	0.000838	-1.080695	-1.082005	-0.044529	50.4543	-1.080033	-2.703750E+14	1.646938E-16	NaN
210	1.000000	0.010070	7.3671e+06	-49139.1	955.819	-29760.4	0.000000	0.000000	6.010751	-0.033318	NaN	0.000000	0.001663	0.001684	28.0787	0.037345	0.000960	38.8865	-155.279	-160.434	0.014146	0.008760	-1.072774	-1.074084	-0.033318	38.8865	-1.072131	-2.117469E+14	1.573468E-16	NaN
210	1.000000	0.018067	7.3671e+06	-49139.1	955.819	-29760.4	0.000000	0.000000	6.018750	-0.006275	NaN	0.000000	0.001637	0.001728	28.0787	0.073182	0.001854	39.4646	-103.227	-164.65	-0.054458	0.016742	-1.064776	-1.066101	-0.006275	39.4646	-1.064657	-1.680357E+14	3.734223E-17	NaN
210	1.000000	0.026077	7.3671e+06	-49139.1	955.819	-29760.4	0.000000	0.000000	6.026762	0.063328	NaN	0.000000	0.001639	0.001694	28.0784	0.053644	0.001772	30.2671	-46.2928	-166.584	0.095533	0.024762	-1.056767	-1.058081	0.063328	30.2671	-1.058336	-1.381840E+14	-4.582904E-16	NaN
210	1.000000	0.034092	7.3671e+06	-49139.1	955.819	-29760.4	0.000000	0.000000	6.034775	0.009851	NaN	0.000000	0.001642	0.001688	28.0787	0.082230	0.001872	43.915	159.737	-164.474	0.032665	0.032723	-1.048752	-1.050121	0.009851	43.915	-1.048920	-1.032511E+14	-9.540433E-17	NaN
210	1.000000	0.042089	7.3671e+06	-49139.1	955.819	-29760.4	0.000000	0.000000	6.042770	-0.031225	NaN	0.000000	0.001660	0.001731	28.0785	0.094623	0.002099	45.0699	42.2183	-165.818	-0.055306	0.040811	-1.040754	-1.042032	-0.031225	45.0699	-1.040235	-7.890840E+13	3.957163E-16	NaN
210	1.000000	0.050058	7.3671e+06	-49139.1	955.818	-29760.4	0.000000	0.000000	6.050742	0.042675	NaN	0.000000	0.001657	0.001684	28.0788	0.086510	0.002068	41.8415	-128.332	-169.626	0.032488	0.048761	-1.032786	-1.034082	0.042675	41.8415	-1.033551	-6.415620E+13	-6.651726E-16	NaN
210	1.000000	0.058091	7.3671e+06	-49139.1	955.819	-29760.4	0.000000	0.000000	6.058773	0.004411	NaN	0.000000	0.001676	0.001686	28.0787	0.080519	0.001797	44.8138	-118.106	-165.658	-0.050478	0.056765	-1.024753	-1.026078	0.004411	44.8138	-1.024827	-4.896542E+13	-9.008783E-17	NaN
210	1.000000	0.066085	7.3671e+06	-49139.1	955.818	-29760.4	0.000000	0.000000	6.066766	-0.037374	NaN	0.000000	0.001703	0.001713	28.0797	0.139145	0.002092	66.508	-174.361	-164.676	-0.079499	0.064781	-1.016759	-1.018063	-0.037374	66.508	-1.016337	-3.764135E+13	9.928931E-16	NaN
210	1.000000	0.074076	7.3671e+06	-49139.1	955.818	-29760.4	0.000000	0.000000	6.074758	-0.010754	NaN	0.000000	0.001717	0.001716	28.08	0.011858	0.002170	5.465136	-133.388	-163.856	0.014619	0.072726	-1.008767	-1.010117	-0.010754	5.465136	-1.007292	-2.843990E+13	3.781448E-16	NaN
210	1.000000	0.082097	7.3671e+06	-49139.1	955.818	-29760.4	0.000000	0.000000	6.082782	0.054745	NaN	0.000000	0.001718	0.001664	28.0798	0.065423	0.002000	32.7089	-144.244	-161.639	-0.024363	0.080779	-1.000747	-1.002065	0.054745	32.7089	-1.002002	-2.413910E+13	-2.267910E-15	NaN
210	1.000000	0.090088	7.3671e+06	-49139.1	955.818	-29760.4	0.000000	0.000000	6.090771	0.014475	NaN	0.000000	0.001730	0.001711	28.0802	0.114166	0.001971	57.9368	136.054	-168.69	0.015040	0.088744	-0.992756	-0.994099	0.014475	57.9368	-0.992943	-1.822831E+13	-7.941116E-16	NaN
210	1.000000	0.098070	7.3671e+06	-49139.1	955.819	-29760.4	0.000000	0.000000	6.098753	0.002437	NaN	0.000000	0.001705	0.001723	28.0798	0.119572	0.001986	60.1948	-90.7662	-165.735	0.059958	0.096793	-0.984773	-0.986050	0.002437	60.1948	-0.984804	-1.416193E+13	-1.721153E-16	NaN
210	1.000000	0.106077	7.3671e+06	-49139.1	955.818	-29760.4	0.000000	0.000000	6.106763	0.087210	NaN	0.000000	0.001725	0.001684	28.0799	0.018693	0.002032	9.199877	-155.714	-165.552	0.061802	0.104797	-0.976767	-0.978046	0.087210	9.199877	-0.983876	-1.376036E+13	-6.337740E-15	NaN
210	1.000000	0.114114	7.3671e+06	-49139.1	955.819	-29760.4	0.000000	0.000000	6.114796	-0.022431	NaN	0.000000	0.001732	0.001681	28.08	0.087845	0.002012	43.6638	134.571	-160.205	0.022224	0.112773	-0.968730	-0.970071	-0.022431	43.6638	-0.968344	-8.498621E+12	2.639328E-15	NaN
210	1.000000	0.122059	7.3671e+06	-49139.1	955.818	-29760.4	0.000000	0.000000	6.122744	0.054669	NaN	0.000000	0.001727	0.001673	28.0799	0.059442	0.002022	29.3931	168.241	-162.182	0.137015	0.120750	-0.960784	-0.962093	0.054669	29.3931	-0.962179	-7.018552E+12	-7.789252E-15	NaN
210	1.000000	0.130092	7.3671e+06	-49139.1	955.818	-29760.4	0.000000	0.000000	6.130774	-0.026830	NaN	0.000000	0.001710	0.001662	28.0802	0.041876	0.001926	21.742	-170.968	-164.183	-0.007343	0.128784	-0.952751	-0.954060	-0.026830	21.742	-0.951826	-5.089226E+12	5.271843E-15	NaN
210	1.000000	0.138117	7.3671e+06	-49139.1	955.818	-29760.4	0.000000	0.000000	6.138802	0.057964	NaN	0.000000	0.001700	0.001652	28.08	0.033035	0.002049	16.1225	16.1728	-165.284	0.049287	0.136746	-0.944726	-0.946098	0.057964	16.1225	-0.947423	-4.438834E+12	-1.305845E-14	NaN
210	1.000000	0.146067	7.3671e+06	-49139.1	955.819	-29760.4	0.000000	0.000000	6.146749	-0.009995	NaN	0.000000	0.001693	0.001664	28.0802	0.086281	0.001898	45.4525	-107.168	-168.458	0.049100	0.144810	-0.936777	-0.938033	-0.009995	45.4525	-0.936612	-3.172649E+12	3.150387E-15	NaN
210	1.000000	0.154111	7.3671e+06	-49139.1	955.818	-29760.4	0.000000	0.000000	6.154794	0.008439	NaN	0.000000	0.001727	0.001670	28.08	0.057355	0.001946	29.4747	-172.365	-164.07	0.068304	0.152832	-0.928732	-0.930011	0.008439	29.4747	-0.928947	-2.500246E+12	-3.375159E-15	NaN
210	1.000000	0.162108	7.3671e+06	-49139.1	955.819	-29760.4	0.000000	0.000000	6.162794	0.078017	NaN	0.000000	0.001725	0.001671	28.0799	0.061461	0.002095	29.3397	12.7796	-165.936	-0.016216	0.160822	-0.920735	-0.922021	0.078017	29.3397	-0.922730	-2.060901E+12	-3.785599E-14	NaN
210	1.000000	0.170119	7.3671e+06	-49139.1	955.818	-29760.4	0.000000	0.000000	6.170803	0.026066	NaN	0.000000	0.001765	0.001657	28.0801	0.133287	0.001969	67.7096	119.31	-164.529	-0.076804	0.168817	-0.912724	-0.914026	0.026066	67.7096	-0.913013	-1.523538E+12	-1.710915E-14	NaN
210	1.000000	0.178102	7.3671e+06	-49139.1	955.819	-29760.4	0.000000	0.000000	6.178784	-0.014320	NaN	0.000000	0.001738	0.001642	28.0798	0.052778	0.001974	26.7301	106.951	-161.42	-0.007144	0.176796	-0.904742	-0.906047	-0.014320	26.7301	-0.904340	-1.163335E+12	1.230950E-14	NaN
210	1.000000	0.186104	7.3671e+06	-49139.1	955.818	-29760.4	0.000000	0.000000	6.186787	0.019033	NaN	0.000000	0.001714	0.001686	28.0802	0.068967	0.002001	34.4684	-160.594	-162.429	0.038578	0.184875	-0.896740	-0.897969	0.019033	34.4684	-0.897154	-9.302596E+11	-2.046031E-14	NaN
210	1.000000	0.194121	7.3671e+06	-49139.1	955.817	-29760.4	0.000000	0.000000	6.194800	-0.077978	NaN	0.000000	0.001751	0.001684	28.08	0.027721	0.002065	13.423	35.0814	-164.176	-0.011212	0.192800	-0.888722	-0.890044	-0.077978	13.423	-0.884365	-6.247955E+11	1.248064E-13	NaN
210	1.000000	0.202138	7.3671e+06	-49139.1	955.819	-29760.4	0.000000	0.000000	6.202820	-0.023919	NaN	0.000000	0.001718	0.001684	28.0789	0.097663	0.002022	48.299	129.474	-165.074	-0.027226	0.200835	-0.880705	-0.882008	-0.023919	48.299	-0.880333	-5.510835E+11	4.340403E-14	NaN
210	1.000000	0.210093	7.3671e+06	-49139.1	955.818	-29760.4	0.000000	0.000000	6.210775	-0.013257	NaN	0.000000	0.001748	0.001648	28.0791	0.057576	0.002033	28.3251	93.7078	-164.893	-0.024096	0.208866	-0.872751	-0.873978	-0.013257	28.3251	-0.872400	-4.304374E+11	3.079850E-14	NaN
210	1.000000	0.218143	7.3671e+06	-49139.1	955.819	-29760.4	0.000000	0.000000	6.218826	0.003491	NaN	0.000000	0.001723	0.001718	28.0789	0.006987	0.001919	3.641889	-98.976	-164.936	-0.002469	0.216819	-0.864700	-0.866025	0.003491	3.641889	-0.865419	-3.463058E+11	-1.007978E-14	NaN
210	1.000000	0.226141	7.3671e+06	-49139.1	955.819	-29760.4	0.000000	0.000000	6.226824	0.011674	NaN	0.000000	0.001712	0.001709	28.0791	0.048182	0.002049	23.5103	172.089	-163.595	-0.046366	0.224846	-0.856702	-0.857998	0.011674	23.5103	-0.857075	-2.670089E+11	-4.372004E-14	NaN
210	1.000000	0.234108	7.3671e+06	-49139.1	955.818	-29760.4	0.000000	0.000000	6.234792	0.039016	NaN	0.000000	0.001661	0.001651	28.0787	0.032930	0.001977	16.6586	89.7181	-167.644	-0.021744	0.232840	-0.848736	-0.850004	0.039016	16.6586	-0.850492	-2.174712E+11	-1.794094E-13	NaN
210	1.000000	0.242161	7.3671e+06	-49139.1	955.819	-29760.4	0.000000	0.000000	6.242844	0.015980	NaN	0.000000	0.001643	0.001684	28.0791	0.029267	0.001953	14.9829	176.576	-165.015	0.105132	0.240830	-0.840682	-0.842013	0.015980	14.9829	-0.841482	-1.641997E+11	-9.732052E-14	NaN
210	1.000000	0.250129	7.3671e+06	-49139.1	955.818	-29760.4	0.000000	0.000000	6.250810	-0.043223	NaN	0.000000	0.001675	0.001663	28.0789	0.020607	0.001961	10.5105	103.809	-166.548	-0.043449	0.248862	-0.832714	-0.833982	-0.043223	10.5105	-0.829630	-1.134401E+11	3.810242E-13	NaN
210	1.000000	0.258142	7.3671e+06	-49139.1	955.818	-29760.4	0.000000	0.000000	6.258826	0.013420	NaN	0.000000	0.001641	0.001665	28.0786	0.083107	0.001951	42.5874	132.901	-163.884	-0.012679	0.256871	-0.824701	-0.825972	0.013420	42.5874	-0.824937	-9.798393E+10	-1.369582E-13	NaN
210	1.000000	0.266188	7.3671e+06	-49139.1	955.818	-29760.4	0.000000	0.000000	6.266869	-0.034584	NaN	0.000000	0.001608	0.001648	28.0795	0.059271	0.002187	27.107	56.3837	-163.145	0.068430	0.264847	-0.816656	-0.817996	-0.034584	27.107	-0.815699	-7.343055E+10	4.709742E-13	NaN
210	1.000000	0.274166	7.3671e+06	-49139.1	955.818	-29760.4	0.000000	0.000000	6.274848	-0.017665	NaN	0.000000	0.001652	0.001686	28.0787	0.081335	0.002042	39.8257	76.4739	-169.673	-0.020364	0.272830	-0.808677	-0.810014	-0.017665	39.8257	-0.808344	-5.835882E+10	3.027003E-13	NaN
210	1.000000	0.282177	7.3671e+06	-49139.1	955.817	-29760.4	0.000000	0.000000	6.282861	0.012545	NaN	0.000000	0.001636	0.001685	28.0789	0.129804	0.001947	66.6735	24.9039	-165.23	0.004235	0.280849	-0.800666	-0.801994	0.012545	66.6735	-0.800807	-4.611227E+10	-2.720449E-13	NaN
210	1.000000	0.290175	7.3671e+06	-49139.1	955.818	-29760.4	0.000000	0.000000	6.290857	-0.004188	NaN	0.000000	0.001626	0.001677	28.0788	0.056997	0.002130	26.7543	-53.9922	-164.899	0.060496	0.288822	-0.792669	-0.794022	-0.004188	26.7543	-0.792551	-3.562303E+10	1.175729E-13	NaN
210	1.000000	0.298192	7.3671e+06	-49139.1	955.818	-29760.4	0.000000	0.000000	6.298878	0.066046	NaN	0.000000	0.001642	0.001674	28.0788	0.064524	0.002039	31.6455	-109.844	-165.751	0.040760	0.296859	-0.784651	-0.785984	0.066046	31.6455	-0.786216	-2.922072E+10	-2.260243E-12	NaN
210	1.000000	0.306166	7.3671e+06	-49139.1	955.819	-29760.4	0.000000	0.000000	6.306851	0.063999	NaN	0.000000	0.001657	0.001656	28.0791	0.067200	0.002129	31.5693	14.0498	-167.149	0.075435	0.304874	-0.776677	-0.777969	0.063999	31.5693	-0.778198	-2.273741E+10	-2.814684E-12	NaN
210	1.000000	0.314189	7.3671e+06	-49139.1	955.818	-29760.4	0.000000	0.000000	6.314873	0.043395	NaN	0.000000	0.001628	0.001621	28.0788	0.042935	0.001990	21.5748	-62.3447	-162.549	0.013837	0.312919	-0.768655	-0.769925	0.043395	21.5748	-0.770163	-1.768174E+10	-2.454214E-12	NaN
210	1.000000	0.322173	7.3671e+06	-49139.1	955.818	-29760.4	0.000000	0.000000	6.322853	-0.069012	NaN	0.000000	0.001662	0.001652	28.079	0.113954	0.001989	57.2831	-85.6765	-161.193	-0.066830	0.320828	-0.760670	-0.762015	-0.069012	57.2831	-0.759766	-1.276808E+10	5.405017E-12	NaN
210	1.000000	0.330181	7.3671e+06	-49139.1	955.818	-29760.4	0.000000	0.000000	6.330861	-0.061891	NaN	0.000000	0.001697	0.001659	28.0788	0.148277	0.002018	73.4837	-168.869	-168.75	-0.049112	0.328836	-0.752663	-0.754008	-0.061891	73.4837	-0.752031	-1.001989E+10	6.176777E-12	NaN
210	1.000000	0.338182	7.3671e+06	-49139.1	955.819	-29760.4	0.000000	0.000000	6.338867	0.035510	NaN	0.000000	0.001688	0.001666	28.08	0.124121	0.002051	60.5265	-64.9901	-165.246	0.125475	0.336872	-0.744661	-0.745971	0.035510	60.5265	-0.745101	-8.063486E+9	-4.403841E-12	NaN
210	1.000000	0.346205	7.3671e+06	-49139.1	955.818	-29760.4	0.000000	0.000000	6.346888	0.007859	NaN	0.000000	0.001719	0.001675	28.0802	0.014853	0.002024	7.339304	119.229	-168.423	-0.116261	0.344909	-0.736638	-0.737934	0.007859	7.339304	-0.737441	-6.341689E+9	-1.239268E-12	NaN
210	1.000000	0.354196	7.3671e+06	-49139.1	955.818	-29760.4	0.000000	0.000000	6.354879	-0.007342	NaN	0.000000	0.001702	0.001676	28.0801	0.022155	0.001936	11.4407	-91.5368	-168.127	-0.069140	0.352873	-0.728647	-0.729970	-0.007342	11.4407	-0.728166	-4.740329E+9	1.548875E-12	NaN
210	1.000000	0.362206	7.3671e+06	-49139.1	955.818	-29760.4	0.000000	0.000000	6.362888	-0.010371	NaN	0.000000	0.001705	0.001665	28.0804	0.104154	0.002031	51.2874	-33.5693	-163.866	-0.052570	0.360873	-0.720637	-0.721970	-0.010371	51.2874	-0.720485	-3.724724E+9	2.784328E-12	NaN
210	1.000000	0.370208	7.3671e+06	-49139.1	955.819	-29760.4	0.000000	0.000000	6.370893	0.040936	NaN	0.000000	0.001698	0.001655	28.0803	0.063881	0.002026	31.5305	-62.0999	-163.209	-0.021951	0.368881	-0.712635	-0.713962	0.040936	31.5305	-0.713609	-3.001185E+9	-1.363985E-11	NaN
210	1.000000	0.378199	7.3671e+06	-49139.1	955.818	-29760.4	0.000000	0.000000	6.378883	0.028849	NaN	0.000000	0.001722	0.001652	28.0805	0.085014	0.001955	43.4846	56.1158	-165.162	-0.026074	0.376910	-0.704645	-0.705933	0.028849	43.4846	-0.705142	-2.300077E+9	-1.254260E-11	NaN
210	1.000000	0.386215	7.3671e+06	-49139.1	955.818	-29760.4	0.000000	0.000000	6.386897	-0.025503	NaN	0.000000	0.001709	0.001656	28.0802	0.057010	0.001959	29.0988	113.014	-159.598	-0.060645	0.384897	-0.696628	-0.697947	-0.025503	29.0988	-0.695971	-1.723846E+9	1.479446E-11	NaN
210	1.000000	0.394221	7.3671e+06	-49139.1	955.818	-29760.4	0.000000	0.000000	6.394907	0.079341	NaN	0.000000	0.001705	0.001646	28.0801	0.014500	0.002055	7.056268	-85.5023	-165.026	0.031733	0.392934	-0.688622	-0.689910	0.079341	7.056268	-0.697055	-1.783650E+9	-4.448231E-11	NaN
210	1.000000	0.402198	7.3671e+06	-49139.1	955.818	-29760.4	0.000000	0.000000	6.402886	0.123656	NaN	0.000000	0.001711	0.001659	28.0803	0.069130	0.001901	36.3738	-81.6175	-164.256	0.032819	0.400883	-0.680645	-0.681961	0.123656	36.3738	-0.683195	-1.153164E+9	-1.072315E-10	NaN
210	1.000000	0.410222	7.3671e+06	-49139.1	955.819	-29760.4	0.000000	0.000000	6.410908	0.075710	NaN	0.000000	0.001684	0.001641	28.0802	0.089326	0.001904	46.9251	147.465	-164.969	0.094985	0.408852	-0.672621	-0.673991	0.075710	46.9251	-0.673831	-8.586516E+8	-8.817297E-11	NaN
210	1.000000	0.418222	7.3671e+06	-49139.1	955.818	-29760.4	0.000000	0.000000	6.418906	0.046193	NaN	0.000000	0.001695	0.001682	28.0803	0.080219	0.001917	41.8381	9.158677	-162.078	0.074790	0.416914	-0.664622	-0.665930	0.046193	41.8381	-0.665450	-6.593243E+8	-7.006039E-11	NaN
210	1.000000	0.426224	7.3671e+06	-49139.1	955.818	-29760.4	0.000000	0.000000	6.426905	-0.038836	NaN	0.000000	0.001711	0.001635	28.0801	0.052810	0.002063	25.5939	-37.5684	-163.195	-0.136334	0.424911	-0.656619	-0.657932	-0.038836	25.5939	-0.655481	-4.814627E+8	8.066290E-11	NaN
210	1.000000	0.434245	7.3671e+06	-49139.1	955.819	-29760.4	0.000000	0.000000	6.434930	0.035834	NaN	0.000000	0.001735	0.001663	28.0802	0.089390	0.001996	44.7751	172.411	-168.581	0.029898	0.432903	-0.648598	-0.649941	0.035834	44.7751	-0.649198	-3.948599E+8	-9.075175E-11	NaN
210	1.000000	0.442215	7.3671e+06	-49139.1	955.818	-29760.4	0.000000	0.000000	6.442896	-0.035496	NaN	0.000000	0.001717	0.001652	28.0797	0.102281	0.001891	54.0801	-79.235	-163.761	0.035975	0.440905	-0.640628	-0.641939	-0.035496	54.0801	-0.640136	-2.965904E+8	1.196811E-10	NaN
210	1.000000	0.450242	7.3671e+06	-49139.1	955.819	-29760.4	0.000000	0.000000	6.450927	0.056471	NaN	0.000000	0.001688	0.001685	28.0798	0.037342	0.001861	20.0632	-159.268	-166.311	-0.010406	0.448950	-0.632601	-0.633893	0.056471	20.0632	-0.634712	-2.498762E+8	-2.259977E-10	NaN
210	1.000000	0.458248	7.3671e+06	-49139.1	955.818	-29760.4	0.000000	0.000000	6.458930	-0.005133	NaN	0.000000	0.001736	0.001662	28.0799	0.076884	0.002120	36.2577	38.7841	-165.371	-0.030408	0.456951	-0.624596	-0.625893	-0.005133	36.2577	-0.624490	-1.808551E+8	2.838382E-11	NaN
210	1.000000	0.466190	7.3671e+06	-49139.1	955.819	-29760.4	0.000000	0.000000	6.466871	-0.036312	NaN	0.000000	0.001714	0.001682	28.0798	0.030025	0.002011	14.933	-170.833	-164.003	0.016207	0.464869	-0.616653	-0.617974	-0.036312	14.933	-0.614829	-1.332125E+8	2.725860E-10	NaN
210	1.000000	0.474230	7.3671e+06	-49139.1	955.819	-29760.4	0.000000	0.000000	6.474915	0.050496	NaN	0.000000	0.001754	0.001665	28.079	0.144494	0.002004	72.0887	-176.385	-160.818	-0.029022	0.472944	-0.608613	-0.609899	0.050496	72.0887	-0.609138	-1.112395E+8	-4.539412E-10	NaN
210	1.000000	0.482254	7.3671e+06	-49139.1	955.819	-29760.4	0.000000	0.000000	6.482936	-0.011796	NaN	0.000000	0.001739	0.001680	28.0786	0.075167	0.001981	37.9406	-148.329	-167.209	0.009960	0.480946	-0.600589	-0.601898	-0.011796	37.9406	-0.600356	-8.421079E+7	1.400722E-10	NaN
210	1.000000	0.490249	7.3671e+06	-49139.1	955.819	-29760.4	0.000000	0.000000	6.490933	0.023208	NaN	0.000000	0.001738	0.001672	28.0786	0.043974	0.002070	21.241	-116.823	-165.627	-0.000146	0.488934	-0.592594	-0.593909	0.023208	21.241	-0.593413	-6.756411E+7	-3.434910E-10	NaN
210	1.000000	0.498232	7.3671e+06	-49139.1	955.819	-29760.4	0.000000	0.000000	6.498912	-0.044373	NaN	0.000000	0.001735	0.001666	28.0786	0.155666	0.001989	78.2766	-65.4456	-163.842	0.000640	0.496887	-0.584612	-0.585956	-0.044373	78.2766	-0.584187	-5.040741E+7	8.802883E-10	NaN
210	1.000000	0.506288	7.3671e+06	-49139.1	955.818	-29760.4	0.000000	0.000000	6.506968	-0.070995	NaN	0.000000	0.001719	0.001700	28.0785	0.058628	0.002082	28.1551	-83.9384	-163.975	-0.052070	0.504951	-0.576555	-0.577892	-0.070995	28.1551	-0.574664	-3.724448E+7	1.906189E-9	NaN
210	1.000000	0.514286	7.3671e+06	-49139.1	955.819	-29760.4	0.000000	0.000000	6.514970	0.043706	NaN	0.000000	0.001725	0.001727	28.079	0.060534	0.001959	30.9074	-133.299	-163.484	0.038702	0.512970	-0.568558	-0.569873	0.043706	30.9074	-0.569618	-3.172161E+7	-1.377801E-9	NaN
210	1.000000	0.522250	7.3671e+06	-49139.1	955.818	-29760.4	0.000000	0.000000	6.522934	0.035762	NaN	0.000000	0.001743	0.001682	28.0784	0.082058	0.001983	41.375	-15.2205	-165.881	-0.056654	0.520942	-0.560593	-0.561902	0.035762	41.375	-0.561242	-2.429709E+7	-1.471847E-9	NaN
210	1.000000	0.530287	7.3671e+06	-49139.1	955.819	-29760.4	0.000000	0.000000	6.530969	-0.010706	NaN	0.000000	0.001700	0.001694	28.0785	0.125261	0.002006	62.4525	-140.3	-165.44	-0.055694	0.528973	-0.552556	-0.553870	-0.010706	62.4525	-0.552428	-1.834750E+7	5.835292E-10	NaN
210	1.000000	0.538288	7.3671e+06	-49139.1	955.818	-29760.4	0.000000	0.000000	6.538972	0.032565	NaN	0.000000	0.001712	0.001724	28.0785	0.050909	0.001924	26.4612	-26.7215	-165.658	0.074844	0.536958	-0.544556	-0.545886	0.032565	26.4612	-0.545479	-1.469985E+7	-2.215343E-9	NaN
210	1.000000	0.546289	7.3671e+06	-49139.1	955.819	-29760.4	0.000000	0.000000	6.546974	0.052235	NaN	0.000000	0.001695	0.001708	28.0785	0.022509	0.001993	11.2923	-142.374	-161.562	0.109208	0.544905	-0.536554	-0.537939	0.052235	11.2923	-0.540023	-1.235043E+7	-4.229376E-9	NaN
210	1.000000	0.554284	7.3671e+06	-49139.1	955.818	-29760.4	0.000000	0.000000	6.554968	0.025657	NaN	0.000000	0.001751	0.001731	28.0788	0.057940	0.001971	29.3928	101.9	-169.886	0.040767	0.553015	-0.528559	-0.529828	0.025657	29.3928	-0.529214	-8.7429e+06	-2.934636E-9	NaN
210	1.000000	0.562277	7.3671e+06	-49139.1	955.819	-29760.4	0.000000	0.000000	6.562961	0.024479	NaN	0.000000	0.001737	0.001730	28.0784	0.092192	0.002048	45.0148	-133.495	-165.066	0.044947	0.560981	-0.520566	-0.521862	0.024479	45.0148	-0.520974	-6.71649e+06	-3.644585E-9	NaN
210	1.000000	0.570302	7.3671e+06	-49139.1	955.818	-29760.4	0.000000	0.000000	6.570985	0.001908	NaN	0.000000	0.001672	0.001713	28.0787	0.055429	0.002213	25.051	-10.2815	-162.332	-0.014375	0.568963	-0.512541	-0.513880	0.001908	25.051	-0.512598	-5.13573e+06	-3.715201E-10	NaN
210	1.000000	0.578317	7.3671e+06	-49139.1	955.818	-29760.4	0.000000	0.000000	6.579001	0.038705	NaN	0.000000	0.001635	0.001708	28.0784	0.096354	0.001965	49.0463	-91.8359	-164.03	0.014155	0.576958	-0.504526	-0.505885	0.038705	49.0463	-0.505118	-4.04011e+06	-9.580278E-9	NaN
210	1.000000	0.586297	7.3671e+06	-49139.1	955.819	-29760.4	0.000000	0.000000	6.586979	-0.009514	NaN	0.000000	0.001639	0.001669	28.0783	0.106432	0.001976	53.8533	23.3194	-163.413	0.052946	0.584967	-0.496547	-0.497876	-0.009514	53.8533	-0.496414	-3.05476e+06	3.114522E-9	NaN
210	1.000000	0.594280	7.3671e+06	-49139.1	955.818	-29760.4	0.000000	0.000000	6.594961	-0.052142	NaN	0.000000	0.001646	0.001703	28.0784	0.057587	0.002029	28.3833	-159.922	-164.53	0.027388	0.592999	-0.488563	-0.489844	-0.052142	28.3833	-0.487185	-2.27013e+06	2.296875E-8	NaN
210	1.000000	0.602320	7.3671e+06	-49139.1	955.818	-29760.4	0.000000	0.000000	6.603003	-0.007436	NaN	0.000000	0.001667	0.001664	28.0783	0.027154	0.001911	14.2089	-45.7393	-167.246	-0.057088	0.600980	-0.480523	-0.481863	-0.007436	14.2089	-0.480130	-1.80865e+06	4.111119E-9	NaN
210	1.000000	0.610304	7.3671e+06	-49139.1	955.819	-29760.4	0.000000	0.000000	6.610989	0.055685	NaN	0.000000	0.001636	0.001672	28.0799	0.161407	0.001996	80.846	130.98	-164.662	0.063802	0.609074	-0.472540	-0.473769	0.055685	80.846	-0.473056	-1.43966e+06	-3.867931E-8	NaN
210	1.000000	0.618286	7.3671e+06	-49139.1	955.818	-29760.4	0.000000	0.000000	6.618968	-0.019475	NaN	0.000000	0.001668	0.001671	28.0797	0.114911	0.002100	54.7243	150.351	-161.594	-0.006763	0.616967	-0.464558	-0.465876	-0.019475	54.7243	-0.464291	-1.08465e+06	1.795544E-8	NaN
210	1.000000	0.626328	7.3671e+06	-49139.1	955.819	-29760.4	0.000000	0.000000	6.627010	-0.016334	NaN	0.000000	0.001662	0.001678	28.0797	0.043049	0.001967	21.8874	-166.474	-168.544	0.005160	0.625000	-0.456516	-0.457844	-0.016334	21.8874	-0.455956	-828258	1.972091E-8	NaN
210	1.000000	0.634290	7.3671e+06	-49139.1	955.819	-29760.4	0.000000	0.000000	6.634970	-0.068818	NaN	0.000000	0.001696	0.001691	28.0796	0.055864	0.001951	28.6365	114.326	-165.391	-0.017506	0.633000	-0.448554	-0.449844	-0.068818	28.6365	-0.446751	-614579	1.119766E-7	NaN
210	1.000000	0.642318	7.3671e+06	-49139.1	955.818	-29760.4	0.000000	0.000000	6.643002	0.047761	NaN	0.000000	0.001694	0.001641	28.0797	0.038890	0.002029	19.1692	-55.7776	-161.812	0.034822	0.641010	-0.440526	-0.441834	0.047761	19.1692	-0.442395	-533519	-8.952062E-8	NaN
210	1.000000	0.650323	7.3671e+06	-49139.1	955.818	-29760.4	0.000000	0.000000	6.651004	-0.039787	NaN	0.000000	0.001689	0.001669	28.0795	0.092185	0.002003	46.0329	83.494	-167.78	-0.111623	0.649000	-0.432520	-0.433844	-0.039787	46.0329	-0.431872	-378914	1.050029E-7	NaN
210	1.000000	0.658323	7.3671e+06	-49139.1	955.818	-29760.4	0.000000	0.000000	6.659006	0.016803	NaN	0.000000	0.001652	0.001676	28.0797	0.093448	0.002021	46.2478	-129.35	-165.003	-0.012933	0.657045	-0.424520	-0.425798	0.016803	46.2478	-0.424793	-300850	-5.585229E-8	NaN
210	1.000000	0.666338	7.3671e+06	-49139.1	955.819	-29760.4	0.000000	0.000000	6.667019	-0.049636	NaN	0.000000	0.001668	0.001683	28.0799	0.010752	0.002040	5.269747	24.8104	-164.705	-0.022803	0.665031	-0.416505	-0.417812	-0.049636	5.269747	-0.409441	-182159	2.724850E-7	NaN
210	1.000000	0.674317	7.3671e+06	-49139.1	955.819	-29760.4	0.000000	0.000000	6.675001	0.032588	NaN	0.000000	0.001671	0.001674	28.0795	0.029079	0.002003	14.5182	-118.88	-165.138	0.058796	0.673038	-0.408526	-0.409805	0.032588	14.5182	-0.410210	-186802	-1.744534E-7	NaN
210	1.000000	0.682322	7.3671e+06	-49139.1	955.818	-29760.4	0.000000	0.000000	6.683005	0.004716	NaN	0.000000	0.001666	0.001715	28.08	0.104028	0.002201	47.2557	-155.81	-163.536	0.010658	0.681040	-0.400521	-0.401803	0.004716	47.2557	-0.400596	-136299	-3.460073E-8	NaN
210	1.000000	0.690343	7.3671e+06	-49139.1	955.818	-29760.4	0.000000	0.000000	6.691027	0.037223	NaN	0.000000	0.001673	0.001684	28.0799	0.011389	0.002194	5.190851	20.8945	-166.985	-0.067166	0.689019	-0.392500	-0.393825	0.037223	5.190851	-0.397878	-124660	-2.985943E-7	NaN
210	1.000000	0.698333	7.3671e+06	-49139.1	955.818	-29760.4	0.000000	0.000000	6.699014	-0.033457	NaN	0.000000	0.001695	0.001677	28.0797	0.129002	0.002117	60.943	-161.677	-164.066	-0.037591	0.697107	-0.384510	-0.385736	-0.033457	60.943	-0.384098	-79189.6	4.224975E-7	NaN
210	1.000000	0.706352	7.3671e+06	-49139.1	955.819	-29760.4	0.000000	0.000000	6.707035	0.002584	NaN	0.000000	0.001659	0.001664	28.0799	0.051245	0.001992	25.7307	24.5282	-165.934	0.029895	0.705056	-0.376491	-0.377787	0.002584	25.7307	-0.376566	-61742.2	-4.184528E-8	NaN
210	1.000000	0.714364	7.3671e+06	-49139.1	955.818	-29760.4	0.000000	0.000000	6.715047	0.005228	NaN	0.000000	0.001640	0.001673	28.0797	0.161862	0.002064	78.4194	61.9254	-159.22	0.068442	0.713025	-0.368480	-0.369818	0.005228	78.4194	-0.368530	-47309.1	-1.104979E-7	NaN
210	1.000000	0.722332	7.3671e+06	-49139.1	955.819	-29760.4	0.000000	0.000000	6.723014	-0.029886	NaN	0.000000	0.001633	0.001677	28.08	0.048697	0.002007	24.2639	-35.7478	-164.606	-0.079150	0.721062	-0.360511	-0.361782	-0.029886	24.2639	-0.359587	-35146	8.503490E-7	NaN
210	1.000000	0.730352	7.3671e+06	-49139.1	955.818	-29760.4	0.000000	0.000000	6.731034	-0.030964	NaN	0.000000	0.001644	0.001684	28.0797	0.006684	0.002041	3.275268	-105.072	-165.778	-0.006680	0.729052	-0.352491	-0.353791	-0.030964	3.275268	-0.345401	-21886.9	1.414744E-6	NaN
210	1.000000	0.738361	7.3671e+06	-49139.1	955.818	-29760.4	0.000000	0.000000	6.739043	-0.007842	NaN	0.000000	0.001650	0.001622	28.0798	0.075051	0.002051	36.6	-157.487	-165.964	0.027867	0.737037	-0.344483	-0.345807	-0.007842	36.6	-0.344322	-21110.2	3.714612E-7	NaN
210	1.000000	0.746365	7.3671e+06	-49139.1	955.819	-29760.4	0.000000	0.000000	6.747049	0.038025	NaN	0.000000	0.001626	0.001667	28.0786	0.030528	0.001940	15.7369	56.5534	-161.955	0.056784	0.745053	-0.336479	-0.337790	0.038025	15.7369	-0.338291	-17243.7	-2.205149E-6	NaN
210	1.000000	0.754359	7.3671e+06	-49139.1	955.819	-29760.4	0.000000	0.000000	6.755041	-0.036381	NaN	0.000000	0.001644	0.001672	28.0787	0.077892	0.002000	38.9456	-88.0087	-164.218	0.039851	0.753066	-0.328484	-0.329778	-0.036381	38.9456	-0.327783	-12105.1	3.005445E-6	NaN
210	1.000000	0.762378	7.3671e+06	-49139.1	955.819	-29760.4	0.000000	0.000000	6.763060	-0.003270	NaN	0.000000	0.001665	0.001653	28.0788	0.047983	0.001913	25.079	112.298	-166.156	0.029142	0.761015	-0.320465	-0.321828	-0.003270	25.079	-0.320368	-9419.96	3.471472E-7	NaN
210	1.000000	0.770362	7.3671e+06	-49139.1	955.819	-29760.4	0.000000	0.000000	6.771046	0.016442	NaN	0.000000	0.001662	0.001659	28.0784	0.073017	0.002033	35.9237	-76.5878	-164.74	0.015729	0.769063	-0.312481	-0.313780	0.016442	35.9237	-0.312824	-7291.57	-2.254966E-6	NaN
210	1.000000	0.778380	7.3671e+06	-49139.1	955.819	-29760.4	0.000000	0.000000	6.779064	0.017078	NaN	0.000000	0.001659	0.001676	28.0784	0.087480	0.001978	44.2312	-174.488	-167.511	-0.037394	0.777056	-0.304463	-0.305787	0.017078	44.2312	-0.304753	-5537.1	-3.084349E-6	NaN
210	1.000000	0.786371	7.3671e+06	-49139.1	955.818	-29760.4	0.000000	0.000000	6.787055	0.046460	NaN	0.000000	0.001653	0.001665	28.0785	0.068973	0.002070	33.3231	-146.021	-164.168	0.016556	0.785051	-0.296472	-0.297792	0.046460	33.3231	-0.297518	-4321.77	-1.075014E-5	NaN
210	1.000000	0.794395	7.3671e+06	-49139.1	955.818	-29760.4	0.000000	0.000000	6.795077	-0.018532	NaN	0.000000	0.001599	0.001645	28.0783	0.083893	0.002189	38.3191	-96.0953	-166.529	0.025141	0.793104	-0.288448	-0.289739	-0.018532	38.3191	-0.288085	-3123.21	5.933503E-6	NaN
210	1.000000	0.802377	7.3671e+06	-49139.1	955.818	-29760.4	0.000000	0.000000	6.803060	0.016696	NaN	0.000000	0.001629	0.001677	28.0788	0.092388	0.001972	46.856	143.879	-162.393	-0.028934	0.801099	-0.280467	-0.281745	0.016696	46.856	-0.280734	-2421.24	-6.895747E-6	NaN
210	1.000000	0.810416	7.3671e+06	-49139.1	955.819	-29760.4	0.000000	0.000000	6.811097	-0.048948	NaN	0.000000	0.001633	0.001698	28.0783	0.068132	0.001928	35.3416	156.745	-164.892	-0.074728	0.809112	-0.272427	-0.273731	-0.048948	35.3416	-0.271389	-1748.4	2.799599E-5	NaN
210	1.000000	0.818387	7.3671e+06	-49139.1	955.819	-29760.4	0.000000	0.000000	6.819069	-0.024655	NaN	0.000000	0.001632	0.001669	28.0785	0.036798	0.002033	18.102	25.5073	-166.169	-0.012381	0.817092	-0.264456	-0.265751	-0.024655	18.102	-0.263435	-1322.77	1.863914E-5	NaN
210	1.000000	0.826377	7.3671e+06	-49139.1	955.817	-29760.4	0.000000	0.000000	6.827059	-0.018103	NaN	0.000000	0.001653	0.001681	28.0786	0.072976	0.002081	35.068	110.969	-161.136	-0.027285	0.825107	-0.256467	-0.257736	-0.018103	35.068	-0.256079	-1020.3	1.774322E-5	NaN
210	1.000000	0.834400	7.3671e+06	-49139.1	955.819	-29760.4	0.000000	0.000000	6.835085	0.053068	NaN	0.000000	0.001660	0.001682	28.0784	0.021521	0.002040	10.55	84.9291	-164.435	0.040611	0.833055	-0.248443	-0.249788	0.053068	10.55	-0.252216	-889.603	-5.965372E-5	NaN
210	1.000000	0.842364	7.3671e+06	-49139.1	955.819	-29760.4	0.000000	0.000000	6.843048	0.030137	NaN	0.000000	0.001624	0.001655	28.0786	0.027313	0.002036	13.4146	22.0667	-167.167	0.068800	0.841087	-0.240479	-0.241756	0.030137	13.4146	-0.242164	-621.325	-4.850493E-5	NaN
210	1.000000	0.850383	7.3671e+06	-49139.1	955.818	-29760.4	0.000000	0.000000	6.851065	-0.014806	NaN	0.000000	0.001627	0.001711	28.0785	0.025195	0.002116	11.9066	128.051	-164.014	-0.044856	0.849056	-0.232461	-0.233787	-0.014806	11.9066	-0.231528	-423.278	3.497823E-5	NaN
210	1.000000	0.858390	7.3671e+06	-49139.1	955.818	-29760.4	0.000000	0.000000	6.859074	0.033424	NaN	0.000000	0.001709	0.001691	28.0787	0.070343	0.001955	35.9827	137.509	-164.236	0.031624	0.857096	-0.224453	-0.225747	0.033424	35.9827	-0.225150	-335.519	-9.961723E-5	NaN
210	1.000000	0.866426	7.3671e+06	-49139.1	955.818	-29760.4	0.000000	0.000000	6.867111	0.040902	NaN	0.000000	0.001713	0.001717	28.0786	0.097141	0.001995	48.6859	69.7918	-165.838	-0.049269	0.865117	-0.216417	-0.217726	0.040902	48.6859	-0.217047	-249.112	-0.000164	NaN
210	1.000000	0.874405	7.3671e+06	-49139.1	955.819	-29760.4	0.000000	0.000000	6.875088	0.004988	NaN	0.000000	0.001690	0.001708	28.0785	0.031905	0.001935	16.488	42.2954	-165.819	-0.030736	0.873063	-0.208439	-0.209780	0.004988	16.488	-0.208665	-182.468	-2.733480E-5	NaN
210	1.000000	0.882477	7.3671e+06	-49139.1	955.818	-29760.4	0.000000	0.000000	6.883158	-0.043731	NaN	0.000000	0.001726	0.001709	28.0798	0.069975	0.001939	36.0838	-174.074	-165.276	0.025587	0.881118	-0.200366	-0.201725	-0.043731	36.0838	-0.199457	-129.056	0.000339	NaN
210	1.000000	0.890423	7.3671e+06	-49139.1	955.819	-29760.4	0.000000	0.000000	6.891106	0.010959	NaN	0.000000	0.001721	0.001711	28.0802	0.096281	0.002045	47.0858	119.513	-163.1	-0.069322	0.889137	-0.192420	-0.193707	0.010959	47.0858	-0.192595	-99.3765	-0.000110	NaN
210	1.000000	0.898428	7.3671e+06	-49139.1	955.818	-29760.4	0.000000	0.000000	6.899110	-0.014029	NaN	0.000000	0.001678	0.001728	28.0799	0.055845	0.002061	27.0944	-145.334	-161.27	0.010214	0.897151	-0.184415	-0.185692	-0.014029	27.0944	-0.184027	-71.4024	0.000196	NaN
210	1.000000	0.906422	7.3671e+06	-49139.1	955.819	-29760.4	0.000000	0.000000	6.907105	0.014963	NaN	0.000000	0.001716	0.001723	28.0799	0.027320	0.001901	14.3748	-38.9071	-167.009	-0.004585	0.905120	-0.176421	-0.177723	0.014963	14.3748	-0.177202	-54.6681	-0.000274	NaN
210	1.000000	0.914446	7.3671e+06	-49139.1	955.818	-29760.4	0.000000	0.000000	6.915129	-0.009554	NaN	0.000000	0.001683	0.001687	28.08	0.010413	0.001989	5.236395	118.32	-163.588	-0.005879	0.913043	-0.168397	-0.169801	-0.009554	5.236395	-0.167029	-36.4626	0.000262	NaN
210	1.000000	0.922414	7.3671e+06	-49139.1	955.82	-29760.4	0.000000	0.000000	6.923097	0.017458	NaN	0.000000	0.001705	0.001683	28.0798	0.059657	0.002109	28.2831	127.121	-162.833	0.020567	0.921066	-0.160429	-0.161778	0.017458	28.2831	-0.160892	-28.4333	-0.000614	NaN
210	1.000000	0.930424	7.3671e+06	-49139.1	955.818	-29760.4	0.000000	0.000000	6.931107	0.002331	NaN	0.000000	0.001685	0.001684	28.0799	0.130748	0.001972	66.3174	-111.965	-165.202	0.057173	0.929135	-0.152419	-0.153708	0.002331	66.3174	-0.152446	-20.0661	-0.000116	NaN
210	1.000000	0.938415	7.3671e+06	-49139.1	955.818	-29760.4	0.000000	0.000000	6.939096	-0.025403	NaN	0.000000	0.001723	0.001673	28.0799	0.030931	0.001950	15.8649	79.0904	-162.753	0.010901	0.937134	-0.144429	-0.145709	-0.025403	15.8649	-0.143228	-13.5923	0.001869	NaN
210	1.000000	0.946444	7.3671e+06	-49139.1	955.818	-29760.4	0.000000	0.000000	6.947125	-0.050064	NaN	0.000000	0.001725	0.001672	28.0799	0.032718	0.001930	16.9552	102.306	-165.333	0.000935	0.945163	-0.136399	-0.137681	-0.050064	16.9552	-0.134185	-9.176995	0.005455	NaN
210	1.000000	0.954416	7.3671e+06	-49139.1	955.819	-29760.4	0.000000	0.000000	6.955097	-0.045222	NaN	0.000000	0.001631	0.001682	28.08	0.070789	0.002005	35.3036	-75.5324	-163.181	-0.038448	0.953172	-0.128428	-0.129672	-0.045222	35.3036	-0.127467	-6.801088	0.006649	NaN
210	1.000000	0.962412	7.3671e+06	-49139.1	955.819	-29760.4	0.000000	0.000000	6.963096	0.019786	NaN	0.000000	0.001607	0.001699	28.0799	0.080191	0.002065	38.8352	154.071	-166.549	-0.015374	0.961173	-0.120431	-0.121670	0.019786	38.8352	-0.120813	-5.017311	-0.003944	NaN
210	1.000000	0.970460	7.3671e+06	-49139.1	955.819	-29760.4	0.000000	0.000000	6.971139	-0.080392	NaN	0.000000	0.001614	0.001699	28.0799	0.061060	0.001930	31.6343	-159.455	-162.291	-0.110667	0.969086	-0.112383	-0.113757	-0.080392	31.6343	-0.110477	-3.075579	0.026139	NaN
210	1.000000	0.978450	7.3671e+06	-49139.1	955.817	-29760.4	0.000000	0.000000	6.979133	0.005246	NaN	0.000000	0.001620	0.001692	28.0798	0.069533	0.001915	36.3193	106.159	-165.874	-0.071300	0.977146	-0.104393	-0.105697	0.005246	36.3193	-0.104502	-2.292969	-0.002288	NaN
210	1.000000	0.986468	7.3671e+06	-49139.1	955.818	-29760.4	0.000000	0.000000	6.987150	-0.015782	NaN	0.000000	0.001635	0.001702	28.08	0.019471	0.002129	9.146983	167.622	-163.015	0.006016	0.985207	-0.096376	-0.097636	-0.015782	9.146983	-0.095082	-1.416699	0.011140	NaN
210	1.000000	0.994455	7.3671e+06	-49139.1	955.818	-29760.4	0.000000	0.000000	6.995138	0.001607	NaN	0.000000	0.001607	0.001702	28.08	0.200687	0.002149	93.3727	-89.3354	-162.126	0.078373	0.993151	-0.088389	-0.089692	0.001607	93.3727	-0.088401	-0.991125	-0.001621	NaN
210	1.000000	1.002478	7.3671e+06	-49139.1	955.818	-29760.4	0.000000	0.000000	7.003163	0.055474	NaN	0.000000	0.001661	0.001703	28.0801	0.081996	0.002007	40.8484	109.268	-162.887	-0.008187	1.001199	-0.080365	-0.081644	0.055474	40.8484	-0.081384	-0.670088	-0.082787	NaN
210	1.000000	1.010476	7.3671e+06	-49139.1	955.818	-29760.4	0.000000	0.000000	7.011159	0.007745	NaN	0.000000	0.001643	0.001707	28.0799	0.021609	0.002074	10.4164	153.781	-161.943	0.036561	1.009094	-0.072368	-0.073749	0.007745	10.4164	-0.072925	-0.407813	-0.018992	NaN
210	1.000000	1.018464	7.3671e+06	-49139.1	955.817	-29760.4	0.000000	0.000000	7.019146	-0.007551	NaN	0.000000	0.001629	0.001716	28.0785	0.082024	0.001910	42.9461	-87.5017	-162.738	-0.000701	1.017122	-0.064379	-0.065721	-0.007551	42.9461	-0.064248	-0.237493	0.031793	NaN
210	1.000000	1.026467	7.3671e+06	-49139.1	955.818	-29760.4	0.000000	0.000000	7.027152	0.061904	NaN	0.000000	0.001602	0.001697	28.0782	0.079420	0.002041	38.919	138.406	-166.849	0.013220	1.025145	-0.056377	-0.057699	0.061904	38.919	-0.057570	-0.153195	-0.404086	NaN
210	1.000000	1.034458	7.3671e+06	-49139.1	955.818	-29760.4	0.000000	0.000000	7.035143	0.037701	NaN	0.000000	0.001611	0.001688	28.0786	0.085933	0.002056	41.8051	-178.074	-162.948	0.018513	1.033181	-0.048385	-0.049662	0.037701	41.8051	-0.049061	-0.085467	-0.441118	NaN
210	1.000000	1.042502	7.3671e+06	-49139.1	955.819	-29760.4	0.000000	0.000000	7.043184	-0.016862	NaN	0.000000	0.001596	0.001685	28.0783	0.071892	0.001941	37.0425	153.131	-161.805	-0.017912	1.041177	-0.040341	-0.041666	-0.016862	37.0425	-0.040000	-0.045221	0.372875	NaN
210	1.000000	1.050484	7.3671e+06	-49139.1	955.818	-29760.4	0.000000	0.000000	7.051168	0.030976	NaN	0.000000	0.001633	0.001708	28.0785	0.085148	0.001993	42.7319	-32.7637	-164.716	0.050359	1.049141	-0.032359	-0.033702	0.030976	42.7319	-0.032903	-0.027818	-1.113496	NaN
210	1.000000	1.058512	7.3671e+06	-49139.1	955.819	-29760.4	0.000000	0.000000	7.059194	-0.007190	NaN	0.000000	0.001646	0.001668	28.0784	0.042720	0.001969	21.6923	154.928	-166.264	0.019589	1.057187	-0.024331	-0.025656	-0.007190	21.6923	-0.024083	-0.015969	0.450250	NaN
210	1.000000	1.066468	7.3671e+06	-49139.1	955.819	-29760.4	0.000000	0.000000	7.067151	-0.005700	NaN	0.000000	0.001586	0.001680	28.0786	0.100512	0.001965	51.1518	154.214	-163.096	0.006833	1.065163	-0.016375	-0.017680	-0.005700	51.1518	-0.016292	-0.010064	0.566354	NaN
210	1.000000	1.074468	7.3671e+06	-49139.1	955.819	-29760.4	0.000000	0.000000	7.075151	0.015154	NaN	0.000000	0.001624	0.001664	28.079	0.013981	0.001866	7.493422	-106.967	-162.935	-0.009725	1.073193	-0.008376	-0.009650	0.015154	7.493422	-0.009892	-0.006326	-2.395620	NaN
210	1.000000	1.082488	7.3671e+06	-49139.1	955.819	-29760.4	0.000000	0.000000	7.083177	0.149150	NaN	0.000000	0.001624	0.001645	28.0783	0.238052	0.002067	115.174	9.178159	-167.887	-0.032454	1.081183	-0.000355	-0.001660	0.149150	115.174	-0.001327	-0.000967	-154.288	NaN
210	1.000000	1.090459	7.3671e+06	-49139.1	955.818	-29760.4	0.000000	0.000000	7.091433	7.062561	NaN	0.000000	0.001597	0.001667	28.0783	6.969232	0.001711	4072.61	12.2866	-170.175	5.786885	1.089147	0.007616	0.006304	7.062561	4072.61	0.006315	0.005366	1316.13	50794.1
210	2.000000	1.094080	7.3671e+06	-49139.1	955.818	-29760.4	0.000000	0.000000	7.095182	10.2065	NaN	0.000000	0.001653	0.001687	28.0783	10.8755	0.001867	5824.69	10.1541	-174.136	9.667642	1.093764	0.011236	0.010920	10.2065	5824.69	0.009922	0.009095	1122.22	55801.6
210	2.000000	1.096059	7.3671e+06	-49139.1	955.818	-29760.4	0.000000	0.000000	7.097322	14.114	NaN	0.000000	0.001638	0.001689	28.0782	12.8689	0.001742	7388.31	8.549071	-173.943	14.1794	1.095637	0.013216	0.012794	14.114	7388.31	0.011783	0.011231	1256.7	63695.5
210	2.000000	1.097991	7.3671e+06	-49139.1	955.819	-29760.4	0.000000	0.000000	7.099391	17.4225	NaN	0.000000	0.001644	0.001672	28.0789	14.5409	0.001733	8389.74	2.396709	-171.098	16.4491	1.097706	0.015148	0.014863	17.4225	8389.74	0.013591	0.013452	1295.19	66089.7
210	2.000000	1.099955	7.3671e+06	-49139.1	955.819	-29760.4	0.000000	0.000000	7.101482	20.5501	NaN	0.000000	0.001657	0.001666	28.0784	16.2879	0.001828	8909.85	2.506106	-169.543	19.6409	1.099694	0.017111	0.016850	20.5501	8909.85	0.015381	0.015797	1300.87	64766.9
210	2.000000	1.101954	7.3671e+06	-49139.1	955.818	-29760.4	0.000000	0.000000	7.103641	24.4356	NaN	0.000000	0.001646	0.001700	28.0783	18.1296	0.001698	10679.4	3.869364	-173.539	23.0572	1.101701	0.019111	0.018858	24.4356	10679.4	0.017394	0.018612	1312.88	71519.1
210	2.000000	1.103952	7.3671e+06	-49139.1	955.818	-29760.4	0.000000	0.000000	7.105700	25.9227	NaN	0.000000	0.001666	0.001687	28.0784	20.6948	0.001798	11512.8	6.866946	-176.443	24.4941	1.103695	0.021108	0.020851	25.9227	11512.8	0.019420	0.021638	1198	71506.2
210	2.000000	1.105978	7.3671e+06	-49139.1	955.819	-29760.4	0.000000	0.000000	7.107907	30.3109	NaN	0.000000	0.001652	0.001668	28.0786	22.9017	0.001766	12970.3	5.979085	-177.02	29.6012	1.105680	0.023135	0.022836	30.3109	12970.3	0.021382	0.024761	1224.13	75307.3
210	2.000000	1.107956	7.3671e+06	-49139.1	955.819	-29760.4	0.000000	0.000000	7.110102	35.5967	NaN	0.000000	0.001632	0.001708	28.0802	24.7473	0.001662	14889.4	7.478192	-179.734	35.0041	1.107607	0.025113	0.024763	35.5967	14889.4	0.023320	0.028030	1269.97	81253.3
210	2.000000	1.109895	7.3671e+06	-49139.1	955.818	-29760.4	0.000000	0.000000	7.112298	41.8349	NaN	0.000000	0.001642	0.001714	28.0799	27.4823	0.001880	14619.2	5.856655	-177.725	39.9872	1.109653	0.027051	0.026809	41.8349	14619.2	0.024905	0.030843	1356.37	76053.1
210	2.000000	1.111956	7.3671e+06	-49139.1	955.818	-29760.4	0.000000	0.000000	7.114337	41.2997	NaN	0.000000	0.001621	0.001691	28.0796	28.9579	0.001787	16206.6	3.824402	-177.143	39.5977	1.111646	0.029113	0.028803	41.2997	16206.6	0.027202	0.035143	1175.17	78984.5
210	2.000000	1.113910	7.3671e+06	-49139.1	955.818	-29760.4	0.000000	0.000000	7.116592	48.633	NaN	0.000000	0.001644	0.001711	28.0798	30.311	0.001743	17391.6	4.323861	-178.356	46.1539	1.113614	0.031066	0.030771	48.633	17391.6	0.028969	0.038634	1258.81	80840.4
210	2.000000	1.115940	7.3671e+06	-49139.1	955.819	-29760.4	0.000000	0.000000	7.118909	55.595	NaN	0.000000	0.001662	0.001706	28.0798	32.7149	0.001814	18031.6	6.986974	179.488	56.132	1.115693	0.033097	0.032849	55.595	18031.6	0.030785	0.042385	1311.65	80020
210	2.000000	1.117922	7.3671e+06	-49139.1	955.818	-29760.4	0.000000	0.000000	7.121143	61.7443	NaN	0.000000	0.001646	0.001713	28.0812	33.6982	0.001831	18402.3	2.332730	-176.358	60.1428	1.117573	0.035078	0.034730	61.7443	18402.3	0.032562	0.046221	1335.84	78202.9
210	2.000000	1.119863	7.3671e+06	-49139.1	955.818	-29760.4	0.000000	0.000000	7.123260	65.9944	NaN	0.000000	0.001658	0.001685	28.0798	36.2849	0.001774	20458.9	4.009003	-179.326	65.9859	1.119673	0.037020	0.036830	65.9944	20458.9	0.034601	0.050820	1298.58	82915.6
210	2.000000	1.121930	7.3671e+06	-49139.1	955.819	-29760.4	0.000000	0.000000	7.125713	75.4115	NaN	0.000000	0.001647	0.001704	28.0797	36.4643	0.001717	21235.9	4.113319	-178.897	76.8828	1.121627	0.039087	0.038784	75.4115	21235.9	0.036423	0.055112	1368.34	82645.8
210	2.000000	1.123923	7.3671e+06	-49139.1	955.819	-29760.4	0.000000	0.000000	7.128016	82.9475	NaN	0.000000	0.001624	0.001716	28.0798	40.6401	0.001952	20815.2	6.863683	178.853	81.8676	1.123520	0.041079	0.040676	82.9475	20815.2	0.038091	0.059187	1401.45	78170.2
210	2.000000	1.125943	7.3671e+06	-49139.1	955.819	-29760.4	0.000000	0.000000	7.130414	92.122	NaN	0.000000	0.001640	0.001678	28.0798	41.5437	0.001859	22352.3	3.218175	-178.508	93.1526	1.125623	0.043100	0.042780	92.122	22352.3	0.040009	0.064051	1438.26	80692.5
210	2.000000	1.127890	7.3671e+06	-49139.1	955.818	-29760.4	0.000000	0.000000	7.132651	99.1895	NaN	0.000000	0.001638	0.001685	28.0811	43.2115	0.001840	23487.9	5.408284	178.778	98.1587	1.127595	0.045047	0.044752	99.1895	23487.9	0.041879	0.068975	1438.05	81709.1
210	2.000000	1.129951	7.3671e+06	-49139.1	955.818	-29760.4	0.000000	0.000000	7.134757	100.271	NaN	0.000000	0.001690	0.001695	28.0799	44.875	0.001790	25071.5	0.443515	-178.156	99.9308	1.129743	0.047108	0.046900	100.271	25071.5	0.044108	0.075077	1335.59	83599.1
210	2.000000	1.131848	7.3671e+06	-49139.1	955.819	-29760.4	0.000000	0.000000	7.137451	119.663	NaN	0.000000	0.001650	0.001709	28.0797	45.9931	0.001744	26368.9	3.503534	179.264	115.337	1.131583	0.049005	0.048739	119.663	26368.9	0.045601	0.079303	1508.94	85550.2
210	2.000000	1.133911	7.36711e+06	-49139.1	955.819	-29760.4	0.000000	0.000000	7.139814	126.957	NaN	0.000000	0.001641	0.001699	28.0798	50.3486	0.001808	27849.6	5.670205	177.526	126.834	1.133513	0.051068	0.050669	126.957	27849.6	0.047649	0.085284	1488.65	87128.2
210	2.000000	1.135923	7.36711e+06	-49139.1	955.819	-29760.4	0.000000	0.000000	7.142312	138.783	NaN	0.000000	0.001591	0.001711	28.0798	52.1335	0.001776	29358.1	8.062991	174.753	137.306	1.135447	0.053079	0.052604	138.783	29358.1	0.049534	0.090978	1525.46	88927
210	2.000000	1.137836	7.36711e+06	-49139.1	955.819	-29760.4	0.000000	0.000000	7.144635	148.733	NaN	0.000000	0.001658	0.001693	28.0806	54.2571	0.001716	31626.5	8.007869	173.421	145.539	1.137469	0.054993	0.054625	148.733	31626.5	0.051466	0.096998	1533.36	92777.5
210	2.000000	1.139926	7.36711e+06	-49139.1	955.819	-29760.4	0.000000	0.000000	7.147123	158.434	NaN	0.000000	0.001648	0.001688	28.0801	57.7249	0.001781	32410.5	4.847530	175.907	157.354	1.139546	0.057082	0.056703	158.434	32410.5	0.053416	0.103264	1534.26	92147.8
210	2.000000	1.141919	7.36711e+06	-49139.1	955.819	-29760.4	0.000000	0.000000	7.149514	168.107	NaN	0.000000	0.001601	0.001694	28.0791	58.2734	0.001788	32583.6	6.554971	174.722	168.236	1.141537	0.059076	0.058694	168.107	32583.6	0.055207	0.109183	1539.68	90093.8
210	2.000000	1.143870	7.36711e+06	-49139.1	955.819	-29760.4	0.000000	0.000000	7.151953	179.988	NaN	0.000000	0.001626	0.001748	28.0787	59.8909	0.001656	36167.9	-1.884526	-177.823	177.064	1.143501	0.061027	0.060658	179.988	36167.9	0.057294	0.116285	1547.82	96902.3
210	2.000000	1.145959	7.36711e+06	-49139.1	955.819	-29760.4	0.000000	0.000000	7.154599	193.518	NaN	0.000000	0.001658	0.001749	28.0787	64.0443	0.001837	34859.2	5.101417	175.909	194.938	1.145577	0.063116	0.062733	193.518	34859.2	0.058952	0.122079	1585.2	91153
210	2.000000	1.147815	7.36711e+06	-49139.1	955.819	-29760.4	0.000000	0.000000	7.156940	205.321	NaN	0.000000	0.001622	0.001711	28.0787	65.2617	0.001795	36361.2	1.883740	177.74	201.537	1.147589	0.064971	0.064745	205.321	36361.2	0.060736	0.128461	1598.31	92688.3
210	2.000000	1.149888	7.36711e+06	-49139.1	955.819	-29760.4	0.000000	0.000000	7.159523	217.714	NaN	0.000000	0.001623	0.001764	28.0787	67.5087	0.001739	38827.4	2.190897	177.231	216.379	1.149475	0.067045	0.066632	217.714	38827.4	0.062840	0.136187	1598.63	96126.6
210	2.000000	1.151870	7.36711e+06	-49139.1	955.819	-29760.4	0.000000	0.000000	7.162061	231.25	NaN	0.000000	0.001647	0.001749	28.0786	68.2522	0.001753	38936.7	2.564839	176.96	230.907	1.151485	0.069026	0.068641	231.25	38936.7	0.064572	0.142711	1620.41	94168
210	2.000000	1.153882	7.36711e+06	-49139.1	955.82	-29760.4	0.000000	0.000000	7.164523	242.192	NaN	0.000000	0.001608	0.001745	28.0788	71.2321	0.001769	40266	3.002579	176.048	241.205	1.153519	0.071038	0.070676	242.192	40266	0.066527	0.150249	1611.94	94908.8
210	2.000000	1.155948	7.36711e+06	-49139.1	955.819	-29760.4	0.000000	0.000000	7.166979	251.679	NaN	0.000000	0.001646	0.001728	28.0785	73.1176	0.001805	40513.4	0.351115	179.2	253.17	1.155656	0.073105	0.072813	251.679	40513.4	0.068446	0.157822	1594.7	93172.5
210	2.000000	1.157880	7.36711e+06	-49139.1	955.819	-29760.4	0.000000	0.000000	7.169422	264.096	NaN	0.000000	0.001642	0.001767	28.0787	75.1426	0.001834	40966.3	4.177046	174.77	264.53	1.157663	0.075037	0.074820	264.096	40966.3	0.070202	0.164910	1601.46	92167.3
210	2.000000	1.159819	7.36711e+06	-49139.1	955.82	-29760.4	0.000000	0.000000	7.172070	281.352	NaN	0.000000	0.001604	0.001777	28.0784	76.9836	0.001798	42814.9	4.470331	173.974	278.449	1.159604	0.076976	0.076761	281.352	42814.9	0.072047	0.172516	1630.88	94178.9
210	2.000000	1.161895	7.36711e+06	-49139.1	955.819	-29760.4	0.000000	0.000000	7.174586	292.029	NaN	0.000000	0.001603	0.001744	28.0786	78.3865	0.001868	41964.8	5.287420	173.576	293.848	1.161595	0.079052	0.078752	292.029	41964.8	0.073833	0.180028	1622.13	90362.4
210	2.000000	1.163774	7.36711e+06	-49139.1	955.82	-29760.4	0.000000	0.000000	7.177363	313.896	NaN	0.000000	0.001643	0.001741	28.079	80.948	0.001878	43110.6	7.203887	171.585	308.865	1.163450	0.080931	0.080607	313.896	43110.6	0.075470	0.187048	1678.16	91071.3
210	2.000000	1.165799	7.36711e+06	-49139.1	955.82	-29760.4	0.000000	0.000000	7.180001	328.805	NaN	0.000000	0.001637	0.001770	28.0787	82.0252	0.001759	46620.9	5.532093	173.095	324.584	1.165395	0.082955	0.082551	328.805	46620.9	0.077666	0.196662	1671.93	96049.1
210	2.000000	1.167800	7.36711e+06	-49139.1	955.82	-29760.4	0.000000	0.000000	7.182480	340.41	NaN	0.000000	0.001591	0.001788	28.0789	82.7736	0.001718	48190.2	3.051463	174.45	335.749	1.167564	0.084957	0.084721	340.41	48190.2	0.079659	0.205583	1655.83	97104.3
210	2.000000	1.169847	7.36711e+06	-49139.1	955.82	-29760.4	0.000000	0.000000	7.185168	356.019	NaN	0.000000	0.001645	0.001783	28.0786	86.648	0.001857	46650.5	1.073036	177.099	353.766	1.169647	0.087004	0.086804	356.019	46650.5	0.081280	0.212976	1671.64	92356
210	2.000000	1.171867	7.36711e+06	-49139.1	955.82	-29760.4	0.000000	0.000000	7.187792	370.703	NaN	0.000000	0.001629	0.001761	28.0787	87.8752	0.001823	48210	4.466347	173.407	371.589	1.171509	0.089023	0.088666	370.703	48210	0.083256	0.222154	1668.67	93450.8
210	2.000000	1.173846	7.36711e+06	-49139.1	955.82	-29760.4	0.000000	0.000000	7.190399	385.971	NaN	0.000000	0.001624	0.001733	28.0789	90.919	0.001754	51833.8	5.725668	171.653	384.876	1.173471	0.091003	0.090628	385.971	51833.8	0.085418	0.232399	1660.82	98235.7
210	2.000000	1.175986	7.36711e+06	-49139.1	955.82	-29760.4	0.000000	0.000000	7.193018	397.609	NaN	0.000000	0.001645	0.001733	28.0792	93.2666	0.001958	47631.2	3.976705	174.121	401.736	1.175573	0.093143	0.092730	397.609	47631.2	0.086882	0.239463	1660.42	88929.4
210	2.000000	1.177826	7.36711e+06	-49139.1	955.819	-29760.4	0.000000	0.000000	7.195881	422.499	NaN	0.000000	0.001635	0.001770	28.0799	94.3782	0.001823	51763.9	6.345044	171.268	420.107	1.177450	0.094982	0.094607	422.499	51763.9	0.088861	0.249163	1695.67	94745.4
210	2.000000	1.179796	7.36711e+06	-49139.1	955.819	-29760.4	0.000000	0.000000	7.198495	438.173	NaN	0.000000	0.001607	0.001747	28.0798	95.9286	0.001737	55217.2	3.419105	173.704	434.5	1.179367	0.096952	0.096524	438.173	55217.2	0.091001	0.259856	1686.22	98965
210	2.000000	1.181753	7.36711e+06	-49139.1	955.82	-29760.4	0.000000	0.000000	7.201195	456.229	NaN	0.000000	0.001629	0.001762	28.0801	96.8511	0.001820	53209.2	1.392178	175.558	450.969	1.181556	0.098910	0.098712	456.229	53209.2	0.092479	0.267367	1706.38	94016.9
210	2.000000	1.183792	7.36711e+06	-49139.1	955.819	-29760.4	0.000000	0.000000	7.203845	471.084	NaN	0.000000	0.001611	0.001808	28.0798	99.6338	0.001815	54886.6	2.169327	174.435	467.64	1.183567	0.100949	0.100724	471.084	54886.6	0.094512	0.277857	1695.42	95132.4
210	2.000000	1.185806	7.36711e+06	-49139.1	955.82	-29760.4	0.000000	0.000000	7.206734	492.392	NaN	0.000000	0.001609	0.001775	28.0798	101.365	0.001775	57121.4	3.011190	173.624	488.804	1.185596	0.102962	0.102753	492.392	57121.4	0.096497	0.288284	1708.01	97199.1
210	2.000000	1.187687	7.36711e+06	-49139.1	955.819	-29760.4	0.000000	0.000000	7.209322	509.57	NaN	0.000000	0.001636	0.001776	28.0798	101.43	0.001722	58911.2	1.824307	174.656	501.269	1.187462	0.104843	0.104619	509.57	58911.2	0.098356	0.298209	1708.77	98562.2
210	2.000000	1.189958	7.36711e+06	-49139.1	955.82	-29760.4	0.000000	0.000000	7.211871	516.33	NaN	0.000000	0.001630	0.001782	28.08	106.126	0.001755	60478.1	3.277136	173.274	525.145	1.189566	0.107115	0.106723	516.33	60478.1	0.100712	0.311014	1660.15	99078.8
210	2.000000	1.190727	7.36711e+06	-49139.1	955.82	-29760.4	0.000000	0.000000	7.213310	532.64	NaN	0.000000	0.001624	0.001822	28.0797	106.602	0.001836	58059.5	5.918516	170.593	525.651	1.190430	0.107883	0.107587	532.64	58059.5	0.101003	0.312613	1703.83	94873