File: remote_trans/data/nanoindenter/0828-1/data/Data_2025-08-06,11h17m57s/2025-07-22_16-23-58_1_187.txt
2025-07-22, 16:23:58, 1
Index	Phase	Displacement	Time	Pos X	Pos Y	Pos Z	Rot A	Rot B	Piezo Z	Force A	Force B	Gripper	Voltage A	Voltage B	Temperature	Amplitude force	Amplitude pos	Stiffness	Phase shift	Phase excitation	Force A raw	Displacement raw	HMax	HMax raw	Real Force	Real Stiffness	Contact Depth	Area	Hardness	Reduced Mod.
[#]	[#]	[um]	[s]	[um]	[um]	[um]	[m°]	[m°]	[um]	[uN]	[uN]	[V]	[V]	[V]	[°C]	[uN]	[um]	[N/m]	[°]	[°]	[uN]	[um]	[um]	[um]	[uN]	[N/m]	[um]	[um^2]	[MPa]	[MPa]
187	1.000000	0.002153	7.36687e+06	-47989.1	955.818	-29764.5	0.000000	0.000000	6.002779	-0.031312	NaN	0.000000	0.001605	0.001628	28.0787	0.087327	0.000991	88.1013	32.4285	-166.918	-0.038391	0.000948	-1.067623	-1.068828	-0.031312	88.1013	-1.067357	-1.826724E+14	1.714119E-16	NaN
187	1.000000	0.010133	7.36687e+06	-47989.1	955.819	-29764.5	0.000000	0.000000	6.010761	0.010711	NaN	0.000000	0.001576	0.001650	28.0785	0.028287	0.001011	27.9922	146.801	-169.577	-0.021995	0.008814	-1.059643	-1.060962	0.010711	27.9922	-1.059930	-1.451700E+14	-7.378406E-17	NaN
187	1.000000	0.018136	7.36687e+06	-47989.1	955.819	-29764.5	0.000000	0.000000	6.018761	-0.044068	NaN	0.000000	0.001594	0.001628	28.0785	0.133396	0.001716	77.7301	111.164	-162.977	-0.027615	0.016857	-1.051640	-1.052919	-0.044068	77.7301	-1.051215	-1.108527E+14	3.975335E-16	NaN
187	1.000000	0.026177	7.36687e+06	-47989.1	955.818	-29764.5	0.000000	0.000000	6.026802	-0.031534	NaN	0.000000	0.001616	0.001595	28.0785	0.046527	0.001811	25.6945	70.3102	-163.82	0.018938	0.024780	-1.043599	-1.044996	-0.031534	25.6945	-1.042679	-8.511138E+13	3.705048E-16	NaN
187	1.000000	0.034106	7.36687e+06	-47989.1	955.817	-29764.5	0.000000	0.000000	6.034732	-0.014240	NaN	0.000000	0.001609	0.001640	28.0787	0.045972	0.001921	23.9324	135.716	-164.238	-0.068715	0.032796	-1.035670	-1.036980	-0.014240	23.9324	-1.035224	-6.756762E+13	2.107484E-16	NaN
187	1.000000	0.042133	7.36687e+06	-47989.1	955.819	-29764.5	0.000000	0.000000	6.042762	0.059073	NaN	0.000000	0.001605	0.001599	28.0786	0.071427	0.002118	33.7234	162.798	-167.545	0.064724	0.040797	-1.027643	-1.028979	0.059073	33.7234	-1.028957	-5.564792E+13	-1.061557E-15	NaN
187	1.000000	0.050129	7.36687e+06	-47989.1	955.818	-29764.5	0.000000	0.000000	6.050754	-0.045135	NaN	0.000000	0.001634	0.001634	28.0797	0.037405	0.002068	18.0857	111.168	-161.584	-0.026283	0.048859	-1.019647	-1.020917	-0.045135	18.0857	-1.017776	-3.935700E+13	1.146812E-15	NaN
187	1.000000	0.058132	7.36687e+06	-47989.1	955.819	-29764.5	0.000000	0.000000	6.058758	-0.024444	NaN	0.000000	0.001680	0.001639	28.0797	0.043728	0.001922	22.7469	-4.246159	-164.516	0.029878	0.056818	-1.011644	-1.012958	-0.024444	22.7469	-1.010838	-3.174399E+13	7.700380E-16	NaN
187	1.000000	0.066122	7.36687e+06	-47989.1	955.818	-29764.5	0.000000	0.000000	6.066750	0.040500	NaN	0.000000	0.001642	0.001663	28.0796	0.054350	0.001917	28.3582	17.0462	-163.09	0.071188	0.064872	-1.003654	-1.004904	0.040500	28.3582	-1.004725	-2.626524E+13	-1.541955E-15	NaN
187	1.000000	0.074144	7.36687e+06	-47989.1	955.82	-29764.5	0.000000	0.000000	6.074769	-0.034637	NaN	0.000000	0.001698	0.001633	28.0798	0.057548	0.002074	27.7472	-57.3958	-163.021	-0.027703	0.072872	-0.995632	-0.996904	-0.034637	27.7472	-0.994696	-1.924651E+13	1.799667E-15	NaN
187	1.000000	0.082156	7.36687e+06	-47989.1	955.818	-29764.5	0.000000	0.000000	6.082784	0.021452	NaN	0.000000	0.001658	0.001608	28.0798	0.062734	0.001990	31.5302	89.406	-167.604	0.050594	0.080876	-0.987620	-0.988900	0.021452	31.5302	-0.988130	-1.570112E+13	-1.366273E-15	NaN
187	1.000000	0.090162	7.36687e+06	-47989.1	955.817	-29764.5	0.000000	0.000000	6.090790	0.009247	NaN	0.000000	0.001691	0.001636	28.08	0.096347	0.002093	46.0426	5.329566	-166.257	-0.008653	0.088852	-0.979614	-0.980924	0.009247	46.0426	-0.979764	-1.211254E+13	-7.634529E-16	NaN
187	1.000000	0.098137	7.36687e+06	-47989.1	955.819	-29764.5	0.000000	0.000000	6.098765	0.014030	NaN	0.000000	0.001681	0.001643	28.0799	0.026421	0.002107	12.537	-73.1611	-164.438	-0.028271	0.096831	-0.971638	-0.972945	0.014030	12.537	-0.972478	-9.661721E+12	-1.452110E-15	NaN
187	1.000000	0.106125	7.36687e+06	-47989.1	955.819	-29764.5	0.000000	0.000000	6.106751	-0.034531	NaN	0.000000	0.001683	0.001644	28.0799	0.143081	0.002006	71.3308	121.078	-163.676	-0.069226	0.104829	-0.963651	-0.964947	-0.034531	71.3308	-0.963288	-7.264246E+12	4.753548E-15	NaN
187	1.000000	0.114146	7.36687e+06	-47989.1	955.818	-29764.5	0.000000	0.000000	6.114773	-0.003485	NaN	0.000000	0.001665	0.001637	28.08	0.064300	0.002098	30.6462	34.8722	-165.958	-0.081235	0.112826	-0.955630	-0.956950	-0.003485	30.6462	-0.955545	-5.712173E+12	6.100381E-16	NaN
187	1.000000	0.122151	7.36687e+06	-47989.1	955.818	-29764.5	0.000000	0.000000	6.122779	0.034667	NaN	0.000000	0.001656	0.001626	28.0799	0.082127	0.002075	39.5763	-132.801	-164.972	0.056008	0.120852	-0.947625	-0.948924	0.034667	39.5763	-0.948282	-4.558886E+12	-7.604277E-15	NaN
187	1.000000	0.130191	7.36687e+06	-47989.1	955.819	-29764.5	0.000000	0.000000	6.130819	0.008963	NaN	0.000000	0.001694	0.001615	28.0799	0.053122	0.001929	27.5388	88.6175	-166.099	0.027182	0.128841	-0.939585	-0.940935	0.008963	27.5388	-0.939829	-3.506119E+12	-2.556255E-15	NaN
187	1.000000	0.138158	7.36687e+06	-47989.1	955.818	-29764.5	0.000000	0.000000	6.138785	-0.002767	NaN	0.000000	0.001674	0.001665	28.0801	0.045158	0.001984	22.7624	-61.5184	-162.961	-0.014762	0.136850	-0.931618	-0.932926	-0.002767	22.7624	-0.931527	-2.708975E+12	1.021494E-15	NaN
187	1.000000	0.146172	7.36687e+06	-47989.1	955.819	-29764.5	0.000000	0.000000	6.146801	0.037359	NaN	0.000000	0.001678	0.001623	28.0797	0.058559	0.002041	28.689	58.0992	-164.277	0.040933	0.144810	-0.923603	-0.924965	0.037359	28.689	-0.924580	-2.182933E+12	-1.711418E-14	NaN
187	1.000000	0.154180	7.36687e+06	-47989.1	955.818	-29764.5	0.000000	0.000000	6.154809	0.049770	NaN	0.000000	0.001686	0.001670	28.0811	0.070671	0.001998	35.3665	-45.8677	-165.239	0.075577	0.152872	-0.915596	-0.916904	0.049770	35.3665	-0.916652	-1.706072E+12	-2.917242E-14	NaN
187	1.000000	0.162145	7.36687e+06	-47989.1	955.817	-29764.5	0.000000	0.000000	6.162772	0.000478	NaN	0.000000	0.001640	0.001639	28.0797	0.097523	0.001979	49.2741	-125.141	-166.012	0.030540	0.160873	-0.907631	-0.908903	0.000478	49.2741	-0.907638	-1.289019E+12	-3.705834E-16	NaN
187	1.000000	0.170175	7.36687e+06	-47989.1	955.819	-29764.5	0.000000	0.000000	6.170803	0.021320	NaN	0.000000	0.001675	0.001633	28.0793	0.023771	0.001991	11.937	152.816	-166.042	0.038984	0.168918	-0.899601	-0.900858	0.021320	11.937	-0.900940	-1.046584E+12	-2.037138E-14	NaN
187	1.000000	0.178171	7.36687e+06	-47989.1	955.819	-29764.5	0.000000	0.000000	6.178796	-0.036209	NaN	0.000000	0.001674	0.001639	28.0798	0.044685	0.001878	23.7982	-0.689537	-161.372	-0.009551	0.176901	-0.891605	-0.892875	-0.036209	23.7982	-0.890464	-7.554247E+11	4.793230E-14	NaN
187	1.000000	0.186166	7.36687e+06	-47989.1	955.818	-29764.5	0.000000	0.000000	6.186794	0.022063	NaN	0.000000	0.001675	0.001611	28.0785	0.068713	0.002094	32.8068	-84.1064	-161.079	0.024133	0.184845	-0.883610	-0.884931	0.022063	32.8068	-0.884114	-6.199266E+11	-3.559048E-14	NaN
187	1.000000	0.194197	7.36687e+06	-47989.1	955.818	-29764.5	0.000000	0.000000	6.194822	-0.053079	NaN	0.000000	0.001683	0.001639	28.079	0.009096	0.002058	4.420409	-0.460859	-164.554	-0.053939	0.192874	-0.875579	-0.876902	-0.053079	4.420409	-0.866573	-3.589877E+11	1.478566E-13	NaN
187	1.000000	0.202191	7.36687e+06	-47989.1	955.819	-29764.5	0.000000	0.000000	6.202818	-0.004615	NaN	0.000000	0.001672	0.001602	28.0791	0.022268	0.001815	12.2661	-133.004	-162.802	0.096726	0.200861	-0.867585	-0.868915	-0.004615	12.2661	-0.867303	-3.672384E+11	1.256589E-14	NaN
187	1.000000	0.210183	7.36687e+06	-47989.1	955.818	-29764.5	0.000000	0.000000	6.210810	0.005122	NaN	0.000000	0.001656	0.001627	28.0785	0.018137	0.001864	9.732738	-121.488	-162.734	-0.001789	0.208892	-0.859593	-0.860884	0.005122	9.732738	-0.859988	-2.923868E+11	-1.751830E-14	NaN
187	1.000000	0.218214	7.36687e+06	-47989.1	955.818	-29764.5	0.000000	0.000000	6.218841	0.010158	NaN	0.000000	0.001635	0.001643	28.0783	0.012539	0.002143	5.852053	165.825	-163.191	-0.035431	0.216890	-0.851562	-0.852886	0.010158	5.852053	-0.852864	-2.341647E+11	-4.337990E-14	NaN
187	1.000000	0.226175	7.36687e+06	-47989.1	955.817	-29764.5	0.000000	0.000000	6.226801	-0.031805	NaN	0.000000	0.001678	0.001618	28.0784	0.056770	0.001990	28.5238	119.989	-164.178	-0.099244	0.224867	-0.843601	-0.844909	-0.031805	28.5238	-0.842764	-1.708994E+11	1.861032E-13	NaN
187	1.000000	0.234186	7.36687e+06	-47989.1	955.818	-29764.5	0.000000	0.000000	6.234815	0.054486	NaN	0.000000	0.001687	0.001630	28.0788	0.062063	0.001973	31.4606	90.932	-165.019	0.026469	0.232925	-0.835590	-0.836851	0.054486	31.4606	-0.836889	-1.422793E+11	-3.829524E-13	NaN
187	1.000000	0.242214	7.36687e+06	-47989.1	955.819	-29764.5	0.000000	0.000000	6.242839	-0.046284	NaN	0.000000	0.001607	0.001627	28.0784	0.068820	0.002001	34.3968	167.56	-165.269	-0.086219	0.240939	-0.827562	-0.828837	-0.046284	34.3968	-0.826553	-1.030524E+11	4.491342E-13	NaN
187	1.000000	0.250187	7.36687e+06	-47989.1	955.818	-29764.5	0.000000	0.000000	6.250813	-0.015425	NaN	0.000000	0.001590	0.001624	28.0785	0.055883	0.002040	27.3927	101.612	-163.468	0.035937	0.248869	-0.819589	-0.820907	-0.015425	27.3927	-0.819167	-8.182923E+10	1.885002E-13	NaN
187	1.000000	0.258218	7.36687e+06	-47989.1	955.819	-29764.5	0.000000	0.000000	6.258845	-0.011328	NaN	0.000000	0.001607	0.001619	28.0783	0.052279	0.002031	25.7403	171.542	-163.827	0.020513	0.256883	-0.811558	-0.812893	-0.011328	25.7403	-0.811228	-6.385941E+10	1.773945E-13	NaN
187	1.000000	0.266230	7.36687e+06	-47989.1	955.819	-29764.5	0.000000	0.000000	6.266855	-0.030978	NaN	0.000000	0.001601	0.001639	28.0782	0.091974	0.001953	47.1043	160.195	-163.817	-0.142256	0.264954	-0.803546	-0.804822	-0.030978	47.1043	-0.803053	-4.946571E+10	6.262588E-13	NaN
187	1.000000	0.274230	7.36687e+06	-47989.1	955.818	-29764.5	0.000000	0.000000	6.274855	-0.041556	NaN	0.000000	0.001585	0.001620	28.0784	0.055128	0.002010	27.4251	175.244	-164.768	-0.017492	0.272921	-0.795546	-0.796855	-0.041556	27.4251	-0.794409	-3.775404E+10	1.100710E-12	NaN
187	1.000000	0.282236	7.36687e+06	-47989.1	955.82	-29764.5	0.000000	0.000000	6.282860	-0.061559	NaN	0.000000	0.001615	0.001620	28.0784	0.050124	0.001946	25.7629	-174.046	-161.622	-0.057479	0.280869	-0.787540	-0.788907	-0.061559	25.7629	-0.785748	-2.879600E+10	2.137769E-12	NaN
187	1.000000	0.290213	7.36687e+06	-47989.1	955.818	-29764.5	0.000000	0.000000	6.290839	-0.014208	NaN	0.000000	0.001581	0.001625	28.0784	0.082766	0.001923	43.0413	-178.219	-164.79	0.075671	0.288905	-0.779563	-0.780871	-0.014208	43.0413	-0.779316	-2.354693E+10	6.034033E-13	NaN
187	1.000000	0.298223	7.36687e+06	-47989.1	955.817	-29764.5	0.000000	0.000000	6.298850	0.002350	NaN	0.000000	0.001587	0.001613	28.0783	0.098253	0.002003	49.0444	153.436	-166.649	0.013943	0.296925	-0.771553	-0.772851	0.002350	49.0444	-0.771589	-1.848873E+10	-1.270986E-13	NaN
187	1.000000	0.306230	7.36687e+06	-47989.1	955.819	-29764.5	0.000000	0.000000	6.306857	0.004245	NaN	0.000000	0.001587	0.001613	28.0787	0.037313	0.001897	19.6677	143.671	-166.266	-0.013400	0.304920	-0.763546	-0.764856	0.004245	19.6677	-0.763708	-1.444583E+10	-2.938903E-13	NaN
187	1.000000	0.314219	7.36687e+06	-47989.1	955.819	-29764.5	0.000000	0.000000	6.314844	-0.036633	NaN	0.000000	0.001600	0.001639	28.0785	0.055932	0.001843	30.3504	19.5405	-164.247	0.042627	0.312946	-0.755557	-0.756830	-0.036633	30.3504	-0.754652	-1.087755E+10	3.367787E-12	NaN
187	1.000000	0.322228	7.36687e+06	-47989.1	955.818	-29764.5	0.000000	0.000000	6.322857	0.047354	NaN	0.000000	0.001604	0.001693	28.0797	0.062000	0.001891	32.7865	-168.827	-167.592	0.028348	0.320934	-0.747548	-0.748842	0.047354	32.7865	-0.748631	-9.007220E+9	-5.257364E-12	NaN
187	1.000000	0.330248	7.36687e+06	-47989.1	955.817	-29764.5	0.000000	0.000000	6.330877	0.071662	NaN	0.000000	0.001592	0.001624	28.0797	0.085603	0.001923	44.5201	-12.7095	-166.702	-0.001021	0.328956	-0.739528	-0.740820	0.071662	44.5201	-0.740736	-7.031955E+9	-1.019088E-11	NaN
187	1.000000	0.338224	7.36687e+06	-47989.1	955.818	-29764.5	0.000000	0.000000	6.338852	0.024571	NaN	0.000000	0.001618	0.001587	28.0797	0.070582	0.001974	35.7621	72.4748	-164.499	0.072399	0.336924	-0.731552	-0.732852	0.024571	35.7621	-0.732067	-5.357739E+9	-4.585986E-12	NaN
187	1.000000	0.346250	7.36687e+06	-47989.1	955.818	-29764.5	0.000000	0.000000	6.346879	0.051877	NaN	0.000000	0.001613	0.001625	28.0798	0.068967	0.002015	34.2295	-36.6799	-168.091	0.008029	0.344968	-0.723526	-0.724808	0.051877	34.2295	-0.724662	-4.246646E+9	-1.221592E-11	NaN
187	1.000000	0.354263	7.36687e+06	-47989.1	955.819	-29764.5	0.000000	0.000000	6.354890	-0.006766	NaN	0.000000	0.001592	0.001623	28.0794	0.039170	0.001943	20.156	-55.5826	-163.45	0.055047	0.352943	-0.715513	-0.716833	-0.006766	20.156	-0.715261	-3.161077E+9	2.140444E-12	NaN
187	1.000000	0.362281	7.36687e+06	-47989.1	955.819	-29764.5	0.000000	0.000000	6.362909	0.019531	NaN	0.000000	0.001598	0.001628	28.0795	0.048400	0.001853	26.1246	-33.6109	-167.034	0.004929	0.360999	-0.707495	-0.708777	0.019531	26.1246	-0.708056	-2.520637E+9	-7.748242E-12	NaN
187	1.000000	0.370246	7.36687e+06	-47989.1	955.819	-29764.5	0.000000	0.000000	6.370873	-0.007949	NaN	0.000000	0.001615	0.001581	28.0796	0.090836	0.002043	44.4722	-142.751	-165.63	0.016496	0.368972	-0.699530	-0.700804	-0.007949	44.4722	-0.699396	-1.919900E+9	4.140167E-12	NaN
187	1.000000	0.378257	7.36687e+06	-47989.1	955.818	-29764.5	0.000000	0.000000	6.378886	0.052653	NaN	0.000000	0.001599	0.001651	28.0799	0.022465	0.001924	11.6761	-38.6474	-161.222	0.024869	0.376973	-0.691519	-0.692803	0.052653	11.6761	-0.694901	-1.666799E+9	-3.158907E-11	NaN
187	1.000000	0.386241	7.36687e+06	-47989.1	955.819	-29764.5	0.000000	0.000000	6.386867	-0.023674	NaN	0.000000	0.001598	0.001629	28.0797	0.077247	0.001938	39.8629	130.849	-161.205	-0.060274	0.384965	-0.683535	-0.684811	-0.023674	39.8629	-0.683090	-1.149355E+9	2.059778E-11	NaN
187	1.000000	0.394301	7.36687e+06	-47989.1	955.818	-29764.5	0.000000	0.000000	6.394929	0.030783	NaN	0.000000	0.001629	0.001661	28.0794	0.056528	0.002016	28.0392	73.6728	-163.206	-0.002818	0.392941	-0.675475	-0.676835	0.030783	28.0392	-0.676299	-9.280663E+8	-3.316879E-11	NaN
187	1.000000	0.402273	7.36687e+06	-47989.1	955.818	-29764.5	0.000000	0.000000	6.402898	-0.034154	NaN	0.000000	0.001637	0.001634	28.0797	0.068377	0.001956	34.9488	-135.29	-169.744	0.007202	0.400975	-0.667503	-0.668801	-0.034154	34.9488	-0.666770	-6.873517E+8	4.968861E-11	NaN
187	1.000000	0.410277	7.36687e+06	-47989.1	955.819	-29764.5	0.000000	0.000000	6.410906	0.028110	NaN	0.000000	0.001622	0.001669	28.0794	0.069415	0.001883	36.8551	-140.356	-163.56	0.026587	0.408964	-0.659498	-0.660812	0.028110	36.8551	-0.660071	-5.564608E+8	-5.051582E-11	NaN
187	1.000000	0.418270	7.36687e+06	-47989.1	955.818	-29764.5	0.000000	0.000000	6.418900	0.060492	NaN	0.000000	0.001638	0.001624	28.0795	0.032725	0.001937	16.8946	-26.3967	-163.654	0.046330	0.416924	-0.651505	-0.652852	0.060492	16.8946	-0.654191	-4.622514E+8	-1.308629E-10	NaN
187	1.000000	0.426311	7.36687e+06	-47989.1	955.818	-29764.5	0.000000	0.000000	6.426935	-0.048135	NaN	0.000000	0.001645	0.001640	28.0795	0.067300	0.001929	34.8926	-131.656	-166.346	-0.001916	0.424957	-0.643465	-0.644819	-0.048135	34.8926	-0.642431	-3.188876E+8	1.509480E-10	NaN
187	1.000000	0.434285	7.36687e+06	-47989.1	955.819	-29764.5	0.000000	0.000000	6.434909	-0.066994	NaN	0.000000	0.001626	0.001632	28.0794	0.112430	0.001947	57.7305	74.1467	-167.354	0.039533	0.432936	-0.635491	-0.636840	-0.066994	57.7305	-0.634620	-2.491503E+8	2.688890E-10	NaN
187	1.000000	0.442295	7.36687e+06	-47989.1	955.818	-29764.5	0.000000	0.000000	6.442924	0.043576	NaN	0.000000	0.001648	0.001641	28.0801	0.038646	0.002104	18.3707	34.2109	-167.162	-0.011120	0.441001	-0.627481	-0.628775	0.043576	18.3707	-0.629260	-2.103111E+8	-2.072002E-10	NaN
187	1.000000	0.450299	7.36687e+06	-47989.1	955.817	-29764.5	0.000000	0.000000	6.450926	0.010752	NaN	0.000000	0.001596	0.001614	28.0796	0.056432	0.002003	28.1699	66.372	-167.496	0.020515	0.448997	-0.619477	-0.620779	0.010752	28.1699	-0.619764	-1.557343E+8	-6.903924E-11	NaN
187	1.000000	0.458315	7.36687e+06	-47989.1	955.818	-29764.5	0.000000	0.000000	6.458943	0.026682	NaN	0.000000	0.001627	0.001659	28.0783	0.074538	0.001998	37.3062	-61.6642	-164.383	0.030436	0.456955	-0.611461	-0.612821	0.026682	37.3062	-0.611997	-1.217843E+8	-2.190964E-10	NaN
187	1.000000	0.466310	7.36687e+06	-47989.1	955.819	-29764.5	0.000000	0.000000	6.466937	-0.010994	NaN	0.000000	0.001591	0.001637	28.0782	0.044655	0.002046	21.8298	3.052130	-162.665	-0.062631	0.464958	-0.603466	-0.604818	-0.010994	21.8298	-0.603088	-9.182924E+7	1.197249E-10	NaN
187	1.000000	0.474318	7.36687e+06	-47989.1	955.819	-29764.5	0.000000	0.000000	6.474944	-0.016748	NaN	0.000000	0.001601	0.001625	28.0784	0.078843	0.001959	40.2503	179.571	-163.305	-0.030302	0.473019	-0.595458	-0.596757	-0.016748	40.2503	-0.595146	-7.138344E+7	2.346215E-10	NaN
187	1.000000	0.482320	7.36687e+06	-47989.1	955.819	-29764.5	0.000000	0.000000	6.482947	0.014188	NaN	0.000000	0.001673	0.001652	28.0784	0.032756	0.002095	15.6389	43.2738	-166.82	0.050568	0.481027	-0.587456	-0.588749	0.014188	15.6389	-0.588137	-5.714427E+7	-2.482810E-10	NaN
187	1.000000	0.490290	7.36687e+06	-47989.1	955.818	-29764.5	0.000000	0.000000	6.490913	-0.078644	NaN	0.000000	0.001674	0.001627	28.0781	0.057745	0.002047	28.2126	-155.54	-166.106	-0.055737	0.488947	-0.579486	-0.580829	-0.078644	28.2126	-0.577396	-4.062328E+7	1.935925E-9	NaN
187	1.000000	0.498288	7.36687e+06	-47989.1	955.818	-29764.5	0.000000	0.000000	6.498918	0.071817	NaN	0.000000	0.001676	0.001599	28.0784	0.006499	0.002042	3.182395	-57.0883	-168.336	0.116904	0.497023	-0.571488	-0.572752	0.071817	3.182395	-0.588413	-5.764806E+7	-1.245784E-9	NaN
187	1.000000	0.506340	7.36687e+06	-47989.1	955.818	-29764.5	0.000000	0.000000	6.506967	0.016004	NaN	0.000000	0.001688	0.001670	28.0781	0.053004	0.002079	25.4908	-124.132	-165.341	0.056504	0.504981	-0.563436	-0.564795	0.016004	25.4908	-0.563907	-2.644924E+7	-6.050729E-10	NaN
187	1.000000	0.514348	7.36687e+06	-47989.1	955.817	-29764.5	0.000000	0.000000	6.514977	0.032126	NaN	0.000000	0.001676	0.001630	28.078	0.047338	0.001980	23.9031	138.651	-165.741	0.017720	0.512974	-0.555428	-0.556801	0.032126	23.9031	-0.556436	-2.084771E+7	-1.541004E-9	NaN
187	1.000000	0.522365	7.36687e+06	-47989.1	955.818	-29764.5	0.000000	0.000000	6.522995	0.063059	NaN	0.000000	0.001655	0.001629	28.0783	0.077603	0.001933	40.1562	27.2329	-162.723	0.065958	0.521048	-0.547411	-0.548728	0.063059	40.1562	-0.548588	-1.623307E+7	-3.884607E-9	NaN
187	1.000000	0.530354	7.36687e+06	-47989.1	955.817	-29764.5	0.000000	0.000000	6.530979	-0.046582	NaN	0.000000	0.001679	0.001713	28.078	0.117937	0.002030	58.0885	-37.4131	-161.52	0.015506	0.529044	-0.539422	-0.540732	-0.046582	58.0885	-0.538820	-1.188495E+7	3.919387E-9	NaN
187	1.000000	0.538313	7.36687e+06	-47989.1	955.819	-29764.5	0.000000	0.000000	6.538939	-0.011506	NaN	0.000000	0.001642	0.001688	28.0783	0.104887	0.001911	54.8723	116.664	-167.196	-0.049187	0.536996	-0.531463	-0.532780	-0.011506	54.8723	-0.531306	-9.34772e+06	1.230927E-9	NaN
187	1.000000	0.546312	7.36687e+06	-47989.1	955.819	-29764.5	0.000000	0.000000	6.546940	0.011276	NaN	0.000000	0.001706	0.001675	28.0781	0.119112	0.002033	58.5826	130.785	-164.084	0.034540	0.545034	-0.523463	-0.524742	0.011276	58.5826	-0.523608	-7.30737e+06	-1.543102E-9	NaN
187	1.000000	0.554367	7.36687e+06	-47989.1	955.819	-29764.5	0.000000	0.000000	6.554993	-0.010714	NaN	0.000000	0.001705	0.001689	28.0781	0.121037	0.001957	61.8403	-21.8814	-165.201	-0.079703	0.553024	-0.515409	-0.516752	-0.010714	61.8403	-0.515279	-5.59657e+06	1.914385E-9	NaN
187	1.000000	0.562358	7.36687e+06	-47989.1	955.817	-29764.5	0.000000	0.000000	6.562985	-0.009498	NaN	0.000000	0.001688	0.001707	28.0782	0.055749	0.002111	26.408	-178.745	-164.111	-0.053676	0.561029	-0.507417	-0.508747	-0.009498	26.408	-0.507148	-4.312e+06	2.202612E-9	NaN
187	1.000000	0.570337	7.36687e+06	-47989.1	955.818	-29764.5	0.000000	0.000000	6.570962	-0.032132	NaN	0.000000	0.001675	0.001682	28.078	0.071143	0.001927	36.9124	-169.07	-162.54	0.067663	0.569035	-0.499439	-0.500741	-0.032132	36.9124	-0.498787	-3.29676e+06	9.746625E-9	NaN
187	1.000000	0.578335	7.36687e+06	-47989.1	955.818	-29764.5	0.000000	0.000000	6.578962	0.003077	NaN	0.000000	0.001705	0.001679	28.0782	0.101905	0.001975	51.604	125.082	-164.914	0.016535	0.577046	-0.491441	-0.492730	0.003077	51.604	-0.491486	-2.60706e+06	-1.180335E-9	NaN
187	1.000000	0.586343	7.36687e+06	-47989.1	955.818	-29764.5	0.000000	0.000000	6.586972	0.047281	NaN	0.000000	0.001665	0.001660	28.0782	0.017167	0.002029	8.460233	145.144	-165.002	0.039071	0.584970	-0.483433	-0.484806	0.047281	8.460233	-0.487624	-2.30243e+06	-2.053515E-8	NaN
187	1.000000	0.594365	7.36687e+06	-47989.1	955.818	-29764.5	0.000000	0.000000	6.594990	-0.049980	NaN	0.000000	0.001646	0.001664	28.0798	0.049808	0.001997	24.9379	149.507	-166.141	-0.044649	0.593101	-0.475411	-0.476674	-0.049980	24.9379	-0.473908	-1.47977e+06	3.377536E-8	NaN
187	1.000000	0.602363	7.36687e+06	-47989.1	955.819	-29764.5	0.000000	0.000000	6.602988	-0.049196	NaN	0.000000	0.001656	0.001757	28.0796	0.096617	0.001959	49.3302	-74.9131	-166.167	-0.035277	0.601065	-0.467413	-0.468710	-0.049196	49.3302	-0.466665	-1.17116e+06	4.200638E-8	NaN
187	1.000000	0.610372	7.36687e+06	-47989.1	955.818	-29764.5	0.000000	0.000000	6.610998	-0.024366	NaN	0.000000	0.001639	0.001770	28.079	0.082118	0.002038	40.2994	-178.852	-163.831	-0.020316	0.609073	-0.459404	-0.460702	-0.024366	40.2994	-0.458950	-912568	2.670030E-8	NaN
187	1.000000	0.618352	7.36687e+06	-47989.1	955.819	-29764.5	0.000000	0.000000	6.618978	-0.041391	NaN	0.000000	0.001678	0.001754	28.0791	0.073028	0.002153	33.9228	-155.802	-166.859	-0.120566	0.617099	-0.451423	-0.452677	-0.041391	33.9228	-0.450508	-694226	5.962140E-8	NaN
187	1.000000	0.626342	7.36687e+06	-47989.1	955.818	-29764.5	0.000000	0.000000	6.626968	-0.028964	NaN	0.000000	0.001699	0.001761	28.079	0.090325	0.002003	45.0882	160.492	-162.588	-0.006690	0.625040	-0.443434	-0.444736	-0.028964	45.0882	-0.442952	-543266	5.331481E-8	NaN
187	1.000000	0.634347	7.36687e+06	-47989.1	955.818	-29764.5	0.000000	0.000000	6.634975	0.023255	NaN	0.000000	0.001673	0.001730	28.0796	0.062961	0.001995	31.5667	74.7203	-162.75	-0.013626	0.633084	-0.435429	-0.436692	0.023255	31.5667	-0.435981	-433130	-5.369008E-8	NaN
187	1.000000	0.642374	7.36687e+06	-47989.1	955.818	-29764.5	0.000000	0.000000	6.643001	0.009349	NaN	0.000000	0.001630	0.001746	28.0794	0.107318	0.001824	58.8237	-59.3962	-165.28	0.027121	0.641005	-0.427402	-0.428771	0.009349	58.8237	-0.427522	-328843	-2.843039E-8	NaN
187	1.000000	0.650357	7.36687e+06	-47989.1	955.818	-29764.5	0.000000	0.000000	6.650983	-0.030266	NaN	0.000000	0.001639	0.001740	28.0792	0.126120	0.001951	64.6534	18.8747	-163.358	0.011651	0.649109	-0.419418	-0.420667	-0.030266	64.6534	-0.419067	-249566	1.212757E-7	NaN
187	1.000000	0.658369	7.36687e+06	-47989.1	955.818	-29764.5	0.000000	0.000000	6.658997	0.026579	NaN	0.000000	0.001638	0.001719	28.0792	0.013363	0.001995	6.697871	-106.048	-165.772	0.087157	0.657050	-0.411407	-0.412725	0.026579	6.697871	-0.414383	-214138	-1.241219E-7	NaN
187	1.000000	0.666383	7.36687e+06	-47989.1	955.819	-29764.5	0.000000	0.000000	6.667011	0.013445	NaN	0.000000	0.001617	0.001744	28.0793	0.069493	0.002015	34.4942	-63.6365	-164.013	0.024257	0.665047	-0.403393	-0.404729	0.013445	34.4942	-0.403685	-150840	-8.913752E-8	NaN
187	1.000000	0.674380	7.36687e+06	-47989.1	955.819	-29764.5	0.000000	0.000000	6.675004	-0.080197	NaN	0.000000	0.001656	0.001717	28.0794	0.046013	0.001935	23.7731	-167.912	-163.653	-0.051516	0.673094	-0.395396	-0.396682	-0.080197	23.7731	-0.392866	-105717	7.586031E-7	NaN
187	1.000000	0.682387	7.36687e+06	-47989.1	955.819	-29764.5	0.000000	0.000000	6.683011	-0.068744	NaN	0.000000	0.001652	0.001703	28.0793	0.065356	0.002005	32.6042	-142.204	-165.659	-0.096687	0.681070	-0.387389	-0.388705	-0.068744	32.6042	-0.385808	-83784.2	8.204848E-7	NaN
187	1.000000	0.690397	7.36687e+06	-47989.1	955.818	-29764.5	0.000000	0.000000	6.691023	-0.023251	NaN	0.000000	0.001644	0.001726	28.0797	0.070595	0.002029	34.7929	95.536	-165.268	0.012427	0.689070	-0.379378	-0.380705	-0.023251	34.7929	-0.378877	-66645.9	3.488751E-7	NaN
187	1.000000	0.698411	7.36687e+06	-47989.1	955.818	-29764.5	0.000000	0.000000	6.699037	-0.005743	NaN	0.000000	0.001635	0.001710	28.0793	0.078982	0.001994	39.6159	138.244	-162.526	-0.005108	0.697032	-0.371365	-0.372744	-0.005743	39.6159	-0.371257	-51787.1	1.108950E-7	NaN
187	1.000000	0.706416	7.36687e+06	-47989.1	955.819	-29764.5	0.000000	0.000000	6.707044	0.037297	NaN	0.000000	0.001653	0.001739	28.0795	0.119361	0.002140	55.7788	-114.605	-166.897	0.148493	0.705131	-0.363360	-0.364645	0.037297	55.7788	-0.363862	-40516	-9.205428E-7	NaN
187	1.000000	0.714390	7.36687e+06	-47989.1	955.818	-29764.5	0.000000	0.000000	6.715014	-0.067066	NaN	0.000000	0.001663	0.001738	28.0794	0.028686	0.002106	13.6242	-44.916	-165.176	-0.112846	0.713071	-0.355386	-0.356705	-0.067066	13.6242	-0.351694	-27013.2	2.482705E-6	NaN
187	1.000000	0.722405	7.36687e+06	-47989.1	955.817	-29764.5	0.000000	0.000000	6.723031	-0.039022	NaN	0.000000	0.001645	0.001728	28.0794	0.073855	0.002112	34.9722	129.519	-167.054	0.035392	0.721075	-0.347371	-0.348701	-0.039022	34.9722	-0.346534	-22733	1.716517E-6	NaN
187	1.000000	0.730397	7.36687e+06	-47989.1	955.818	-29764.5	0.000000	0.000000	6.731023	-0.005593	NaN	0.000000	0.001650	0.001718	28.0784	0.086379	0.001956	44.1611	61.8511	-164.642	-0.006700	0.729052	-0.339379	-0.340724	-0.005593	44.1611	-0.339284	-17828.7	3.137092E-7	NaN
187	1.000000	0.738407	7.36687e+06	-47989.1	955.818	-29764.5	0.000000	0.000000	6.739034	0.001738	NaN	0.000000	0.001654	0.001726	28.078	0.060594	0.002040	29.709	-47.6613	-161.774	-0.082117	0.737090	-0.331369	-0.332686	0.001738	29.709	-0.331413	-13681.4	-1.270585E-7	NaN
187	1.000000	0.746388	7.36687e+06	-47989.1	955.819	-29764.5	0.000000	0.000000	6.747015	0.003403	NaN	0.000000	0.001646	0.001739	28.0784	0.010091	0.002011	5.017399	-144.086	-165.111	-0.004366	0.745110	-0.323388	-0.324666	0.003403	5.017399	-0.323896	-10615.3	-3.205511E-7	NaN
187	1.000000	0.754426	7.36687e+06	-47989.1	955.818	-29764.5	0.000000	0.000000	6.755052	-0.018020	NaN	0.000000	0.001737	0.001745	28.078	0.080781	0.001886	42.8301	-114.94	-168.447	-0.010192	0.753152	-0.315350	-0.316623	-0.018020	42.8301	-0.315034	-7860.6	2.292483E-6	NaN
187	1.000000	0.762434	7.36687e+06	-47989.1	955.818	-29764.5	0.000000	0.000000	6.763059	-0.030245	NaN	0.000000	0.001752	0.001728	28.0778	0.153412	0.002048	74.9105	30.2866	-163.254	0.025800	0.761087	-0.307342	-0.308689	-0.030245	74.9105	-0.307039	-5986.94	5.051903E-6	NaN
187	1.000000	0.770412	7.36687e+06	-47989.1	955.819	-29764.5	0.000000	0.000000	6.771036	-0.058353	NaN	0.000000	0.001777	0.001736	28.0778	0.056721	0.001978	28.6725	34.2727	-164.948	0.040109	0.769094	-0.299364	-0.300682	-0.058353	28.6725	-0.297838	-4369.43	1.335487E-5	NaN
187	1.000000	0.778448	7.36687e+06	-47989.1	955.818	-29764.5	0.000000	0.000000	6.779071	-0.085138	NaN	0.000000	0.001770	0.001701	28.0777	0.092473	0.002042	45.2822	-44.226	-165.646	-0.123264	0.777143	-0.291328	-0.292633	-0.085138	45.2822	-0.289918	-3327.14	2.558883E-5	NaN
187	1.000000	0.786416	7.36687e+06	-47989.1	955.817	-29764.5	0.000000	0.000000	6.787045	0.053892	NaN	0.000000	0.001763	0.001716	28.0783	0.063664	0.001920	33.1569	33.3251	-163.916	0.033227	0.785142	-0.283360	-0.284634	0.053892	33.1569	-0.284579	-2766.54	-1.948005E-5	NaN
187	1.000000	0.794435	7.36687e+06	-47989.1	955.817	-29764.5	0.000000	0.000000	6.795065	0.054963	NaN	0.000000	0.001689	0.001714	28.0779	0.081282	0.001914	42.4568	-153.1	-163.478	0.064162	0.793115	-0.275341	-0.276661	0.054963	42.4568	-0.276311	-2076.11	-2.647411E-5	NaN
187	1.000000	0.802457	7.36687e+06	-47989.1	955.819	-29764.5	0.000000	0.000000	6.803086	0.041012	NaN	0.000000	0.001693	0.001718	28.0779	0.026325	0.001981	13.29	54.0968	-165.568	0.042805	0.801105	-0.267319	-0.268671	0.041012	13.29	-0.269633	-1644.25	-2.494269E-5	NaN
187	1.000000	0.810463	7.36687e+06	-47989.1	955.818	-29764.5	0.000000	0.000000	6.811089	-0.023137	NaN	0.000000	0.001706	0.001731	28.0779	0.136613	0.001977	69.1077	-55.6203	-163.025	-0.031994	0.809154	-0.259313	-0.260622	-0.023137	69.1077	-0.259062	-1133.79	2.040711E-5	NaN
187	1.000000	0.818437	7.36687e+06	-47989.1	955.818	-29764.5	0.000000	0.000000	6.819064	0.004521	NaN	0.000000	0.001679	0.001755	28.0779	0.024109	0.002121	11.3662	40.446	-163.972	-0.008975	0.817167	-0.251339	-0.252609	0.004521	11.3662	-0.251637	-871.497	-5.187789E-6	NaN
187	1.000000	0.826441	7.36687e+06	-47989.1	955.819	-29764.5	0.000000	0.000000	6.827066	-0.060250	NaN	0.000000	0.001703	0.001764	28.0781	0.091843	0.001884	48.7429	-30.1456	-166.902	-0.068505	0.825185	-0.243335	-0.244591	-0.060250	48.7429	-0.242407	-626.773	9.612797E-5	NaN
187	1.000000	0.834447	7.36687e+06	-47989.1	955.818	-29764.5	0.000000	0.000000	6.835073	-0.033838	NaN	0.000000	0.001652	0.001774	28.0777	0.025868	0.001959	13.2042	132.319	-166.187	-0.067919	0.833174	-0.235329	-0.236602	-0.033838	13.2042	-0.233407	-453.114	7.467815E-5	NaN
187	1.000000	0.842464	7.36687e+06	-47989.1	955.818	-29764.5	0.000000	0.000000	6.843092	0.030401	NaN	0.000000	0.001717	0.001725	28.0777	0.093432	0.001860	50.2207	-12.8059	-165.322	0.006816	0.841171	-0.227312	-0.228605	0.030401	50.2207	-0.227766	-369.145	-8.235437E-5	NaN
187	1.000000	0.850481	7.36687e+06	-47989.1	955.819	-29764.5	0.000000	0.000000	6.851106	-0.037580	NaN	0.000000	0.001730	0.001698	28.0777	0.062878	0.002026	31.0397	-132.94	-164.385	-0.062180	0.849167	-0.219295	-0.220609	-0.037580	31.0397	-0.218387	-261.745	0.000144	NaN
187	1.000000	0.858449	7.36687e+06	-47989.1	955.818	-29764.5	0.000000	0.000000	6.859077	0.035502	NaN	0.000000	0.001718	0.001724	28.0778	0.068430	0.001929	35.4751	-82.6653	-167.635	0.099580	0.857130	-0.211327	-0.212646	0.035502	35.4751	-0.212078	-207.213	-0.000171	NaN
187	1.000000	0.866480	7.36687e+06	-47989.1	955.818	-29764.5	0.000000	0.000000	6.867107	0.009158	NaN	0.000000	0.001682	0.001703	28.0791	0.033271	0.002029	16.3944	-77.7755	-163.824	-0.066666	0.865147	-0.203296	-0.204629	0.009158	16.3944	-0.203715	-151.558	-6.042506E-5	NaN
187	1.000000	0.874497	7.36687e+06	-47989.1	955.818	-29764.5	0.000000	0.000000	6.875123	-0.025088	NaN	0.000000	0.001677	0.001701	28.0791	0.067940	0.002006	33.8607	-148.488	-164.16	0.006560	0.873138	-0.195279	-0.196638	-0.025088	33.8607	-0.194724	-107.801	0.000233	NaN
187	1.000000	0.882495	7.36687e+06	-47989.1	955.817	-29764.5	0.000000	0.000000	6.883123	0.014964	NaN	0.000000	0.001669	0.001719	28.0795	0.105058	0.001952	53.8168	174.596	-163.028	0.067544	0.881180	-0.187281	-0.188596	0.014964	53.8168	-0.187489	-81.657	-0.000183	NaN
187	1.000000	0.890481	7.36687e+06	-47989.1	955.818	-29764.5	0.000000	0.000000	6.891108	-0.010101	NaN	0.000000	0.001636	0.001732	28.0792	0.052965	0.002038	25.9944	-83.7437	-162.788	0.020740	0.889175	-0.179294	-0.180600	-0.010101	25.9944	-0.179003	-58.6799	0.000172	NaN
187	1.000000	0.898453	7.36687e+06	-47989.1	955.818	-29764.5	0.000000	0.000000	6.899077	-0.082804	NaN	0.000000	0.001662	0.001718	28.0791	0.093349	0.002098	44.4875	-102.303	-163.772	-0.036762	0.897178	-0.171323	-0.172598	-0.082804	44.4875	-0.169927	-40.9585	0.002022	NaN
187	1.000000	0.906476	7.36687e+06	-47989.1	955.819	-29764.5	0.000000	0.000000	6.907106	0.064761	NaN	0.000000	0.001663	0.001731	28.0791	0.116115	0.002119	54.7897	-132.906	-164.762	0.015449	0.905145	-0.163300	-0.164631	0.064761	54.7897	-0.164186	-32.5087	-0.001992	NaN
187	1.000000	0.914502	7.36687e+06	-47989.1	955.819	-29764.5	0.000000	0.000000	6.915129	-0.009280	NaN	0.000000	0.001679	0.001718	28.0791	0.055970	0.001998	28.0141	10.4958	-165.351	0.100343	0.913228	-0.155274	-0.156548	-0.009280	28.0141	-0.155025	-22.3376	0.000415	NaN
187	1.000000	0.922500	7.36687e+06	-47989.1	955.817	-29764.5	0.000000	0.000000	6.923127	0.000329	NaN	0.000000	0.001654	0.001730	28.0794	0.046663	0.002067	22.5789	111.103	-162.675	-0.022541	0.921177	-0.147276	-0.148599	0.000329	22.5789	-0.147287	-16.1558	-2.036182E-5	NaN
187	1.000000	0.930507	7.36687e+06	-47989.1	955.818	-29764.5	0.000000	0.000000	6.931137	0.075499	NaN	0.000000	0.001660	0.001725	28.079	0.064982	0.001886	34.4494	-137.75	-164.135	0.025160	0.929182	-0.139269	-0.140593	0.075499	34.4494	-0.140912	-12.305	-0.006136	NaN
187	1.000000	0.938503	7.36687e+06	-47989.1	955.818	-29764.5	0.000000	0.000000	6.939131	0.024535	NaN	0.000000	0.001661	0.001718	28.0791	0.092548	0.001917	48.2773	68.3023	-165.833	0.017483	0.937216	-0.131273	-0.132559	0.024535	48.2773	-0.131654	-8.204524	-0.002990	NaN
187	1.000000	0.946481	7.36687e+06	-47989.1	955.818	-29764.5	0.000000	0.000000	6.947107	-0.016015	NaN	0.000000	0.001667	0.001705	28.079	0.004250	0.001862	2.282426	150.297	-160.67	-0.047039	0.945177	-0.123295	-0.124599	-0.016015	2.282426	-0.118033	-4.407731	0.003633	NaN
187	1.000000	0.954469	7.36687e+06	-47989.1	955.819	-29764.5	0.000000	0.000000	6.955094	-0.032076	NaN	0.000000	0.001676	0.001736	28.0792	0.065351	0.001937	33.7385	154.693	-162.301	-0.029425	0.953189	-0.115307	-0.116587	-0.032076	33.7385	-0.114594	-3.747414	0.008559	NaN
187	1.000000	0.962503	7.36687e+06	-47989.1	955.818	-29764.5	0.000000	0.000000	6.963131	0.033943	NaN	0.000000	0.001690	0.001717	28.0803	0.051912	0.002005	25.8863	-23.2171	-163.307	0.037616	0.961213	-0.107273	-0.108563	0.033943	25.8863	-0.108257	-2.760317	-0.012297	NaN
187	1.000000	0.970488	7.36687e+06	-47989.1	955.818	-29764.5	0.000000	0.000000	6.971118	0.071748	NaN	0.000000	0.001655	0.001710	28.0791	0.079474	0.001996	39.825	80.082	-163.978	0.061875	0.969186	-0.099288	-0.100590	0.071748	39.825	-0.100639	-1.887589	-0.038010	NaN
187	1.000000	0.978511	7.36687e+06	-47989.1	955.816	-29764.5	0.000000	0.000000	6.979137	-0.012680	NaN	0.000000	0.001681	0.001704	28.0795	0.021811	0.001930	11.2989	164.881	-161.898	0.032952	0.977186	-0.091265	-0.092590	-0.012680	11.2989	-0.090423	-1.105949	0.011465	NaN
187	1.000000	0.986497	7.36687e+06	-47989.1	955.818	-29764.5	0.000000	0.000000	6.987122	-0.044598	NaN	0.000000	0.001687	0.001719	28.079	0.114992	0.001984	57.9616	-110.605	-168.224	-0.086115	0.985231	-0.083279	-0.084545	-0.044598	57.9616	-0.082702	-0.722171	0.061756	NaN
187	1.000000	0.994513	7.36687e+06	-47989.1	955.817	-29764.5	0.000000	0.000000	6.995140	-0.018508	NaN	0.000000	0.001680	0.001669	28.0791	0.087177	0.002124	41.0407	166.072	-164.795	-0.005124	0.993181	-0.075263	-0.076595	-0.018508	41.0407	-0.074924	-0.459791	0.040254	NaN
187	1.000000	1.002479	7.36687e+06	-47989.1	955.817	-29764.5	0.000000	0.000000	7.003105	-0.027044	NaN	0.000000	0.001681	0.001724	28.0782	0.049870	0.001917	26.0171	-120.516	-162.001	-0.051380	1.001225	-0.067297	-0.068551	-0.027044	26.0171	-0.066517	-0.274434	0.098543	NaN
187	1.000000	1.010522	7.36687e+06	-47989.1	955.818	-29764.5	0.000000	0.000000	7.011148	-0.029376	NaN	0.000000	0.001692	0.001731	28.0778	0.061429	0.002039	30.1256	12.0668	-164.137	0.036525	1.009213	-0.059254	-0.060563	-0.029376	30.1256	-0.058523	-0.163276	0.179916	NaN
187	1.000000	1.018537	7.36687e+06	-47989.1	955.817	-29764.5	0.000000	0.000000	7.019164	0.005049	NaN	0.000000	0.001664	0.001732	28.0787	0.163194	0.001854	88.008	-49.0606	-161.417	0.025506	1.017208	-0.051239	-0.052568	0.005049	88.008	-0.051282	-0.099751	-0.050617	NaN
187	1.000000	1.026550	7.36687e+06	-47989.1	955.817	-29764.5	0.000000	0.000000	7.027179	0.051008	NaN	0.000000	0.001684	0.001732	28.0779	0.077655	0.001952	39.7838	-64.1797	-165.198	0.003308	1.025215	-0.043226	-0.044561	0.051008	39.7838	-0.044187	-0.060693	-0.840421	NaN
187	1.000000	1.034515	7.36687e+06	-47989.1	955.818	-29764.5	0.000000	0.000000	7.035140	-0.062073	NaN	0.000000	0.001711	0.001707	28.0779	0.065284	0.002080	31.3922	-82.684	-163.361	-0.020202	1.033205	-0.035261	-0.036571	-0.062073	31.3922	-0.033778	-0.029491	2.104824	NaN
187	1.000000	1.042537	7.36687e+06	-47989.1	955.818	-29764.5	0.000000	0.000000	7.043165	0.014422	NaN	0.000000	0.001676	0.001725	28.0779	0.134186	0.002090	64.2077	148.099	-165.488	0.018853	1.041254	-0.027239	-0.028522	0.014422	64.2077	-0.027407	-0.019541	-0.738057	NaN
187	1.000000	1.050544	7.36687e+06	-47989.1	955.818	-29764.5	0.000000	0.000000	7.051173	0.046932	NaN	0.000000	0.001674	0.001701	28.0777	0.050363	0.002052	24.5445	143.927	-161.863	-0.010017	1.049162	-0.019232	-0.020614	0.046932	24.5445	-0.020666	-0.013060	-3.593551	NaN
187	1.000000	1.058566	7.36687e+06	-47989.1	955.817	-29764.5	0.000000	0.000000	7.059194	0.018819	NaN	0.000000	0.001682	0.001703	28.0785	0.030289	0.001949	15.542	36.7313	-164.525	0.061426	1.057227	-0.011210	-0.012549	0.018819	15.542	-0.012118	-0.007596	-2.477423	NaN
187	1.000000	1.066575	7.36687e+06	-47989.1	955.817	-29764.5	0.000000	0.000000	7.067201	-0.019760	NaN	0.000000	0.001621	0.001736	28.0778	0.091031	0.001943	46.8442	29.0938	-166.03	0.028396	1.065251	-0.003201	-0.004525	-0.019760	46.8442	-0.002885	-0.002043	9.670901	NaN
187	1.000000	1.074543	7.36687e+06	-47989.1	955.817	-29764.5	0.000000	0.000000	7.075344	4.252304	NaN	0.000000	0.001678	0.001720	28.078	4.755327	0.001809	2628.81	8.626065	-165.387	3.119062	1.073197	0.004767	0.003421	4.252304	2628.81	0.003554	0.002851	1491.44	44980.2
187	2.000000	1.080117	7.36687e+06	-47989.1	955.818	-29764.5	0.000000	0.000000	7.081135	9.520483	NaN	0.000000	0.001625	0.001741	28.0778	9.324479	0.001618	5761.54	6.567519	-173.091	9.297741	1.079757	0.010341	0.009981	9.520483	5761.54	0.009102	0.008200	1161.01	58130.1
187	2.000000	1.082045	7.36687e+06	-47989.1	955.817	-29764.5	0.000000	0.000000	7.083162	11.9245	NaN	0.000000	0.001647	0.001719	28.0777	10.7059	0.001670	6409.44	5.723216	-170.576	11.3957	1.081791	0.012269	0.012015	11.9245	6409.44	0.010874	0.010169	1172.65	58070.7
187	2.000000	1.084048	7.36687e+06	-47989.1	955.817	-29764.5	0.000000	0.000000	7.085283	14.7772	NaN	0.000000	0.001629	0.001771	28.0782	13.4592	0.001899	7089.09	7.743635	-173.611	14.3104	1.083761	0.014272	0.013985	14.7772	7089.09	0.012709	0.012351	1196.48	58280.2
187	2.000000	1.086086	7.36687e+06	-47989.1	955.819	-29764.5	0.000000	0.000000	7.087513	19.4745	NaN	0.000000	0.001667	0.001763	28.0778	15.2784	0.001791	8531.94	7.384693	-175.472	19.7536	1.085739	0.016310	0.015964	19.4745	8531.94	0.014598	0.014753	1320.07	64177.9
187	2.000000	1.088008	7.36688e+06	-47989.1	955.818	-29764.5	0.000000	0.000000	7.089471	20.3408	NaN	0.000000	0.001716	0.001765	28.0781	16.1873	0.001751	9244.93	8.562529	-176.788	19.7112	1.087744	0.018232	0.017968	20.3408	9244.93	0.016582	0.017453	1165.45	63935.1
187	2.000000	1.090031	7.36688e+06	-47989.1	955.818	-29764.5	0.000000	0.000000	7.091590	22.6719	NaN	0.000000	0.001684	0.001773	28.078	18.1755	0.001821	9980.32	7.670815	-176.317	22.5511	1.089714	0.020255	0.019938	22.6719	9980.32	0.018551	0.020317	1115.93	63972.5
187	2.000000	1.092003	7.36688e+06	-47989.1	955.819	-29764.5	0.000000	0.000000	7.093781	27.9787	NaN	0.000000	0.001732	0.001749	28.0778	19.2711	0.001714	11240.1	7.894624	-177.406	28.1363	1.091683	0.022227	0.021907	27.9787	11240.1	0.020360	0.023112	1210.58	67550.3
187	2.000000	1.094050	7.36688e+06	-47989.1	955.819	-29764.5	0.000000	0.000000	7.095902	29.7964	NaN	0.000000	0.001714	0.001725	28.0792	21.6847	0.001711	12675.5	7.876889	-178.88	30.4821	1.093689	0.024274	0.023913	29.7964	12675.5	0.022511	0.026642	1118.38	70949.6
187	2.000000	1.096015	7.36688e+06	-47989.1	955.819	-29764.5	0.000000	0.000000	7.098112	35.7468	NaN	0.000000	0.001724	0.001701	28.079	22.7959	0.001816	12554.5	6.083630	-175.261	35.5083	1.095680	0.026239	0.025904	35.7468	12554.5	0.024104	0.029405	1215.66	66889.8
187	2.000000	1.097947	7.36688e+06	-47989.1	955.819	-29764.5	0.000000	0.000000	7.100165	38.6854	NaN	0.000000	0.001775	0.001700	28.0795	24.7028	0.001720	14359.7	5.289948	-177.792	36.5943	1.097713	0.028171	0.027937	38.6854	14359.7	0.026151	0.033143	1167.24	72065.2
187	2.000000	1.099978	7.36688e+06	-47989.1	955.818	-29764.5	0.000000	0.000000	7.102447	44.7966	NaN	0.000000	0.001752	0.001675	28.0792	27.8105	0.001783	15601.8	6.868882	179.879	44.0453	1.099736	0.030202	0.029960	44.7966	15601.8	0.028049	0.036796	1217.43	74310.1
187	2.000000	1.101991	7.36688e+06	-47989.1	955.818	-29764.5	0.000000	0.000000	7.104814	53.4181	NaN	0.000000	0.001779	0.001645	28.079	29.2722	0.001819	16088.6	0.767920	-173.61	52.3974	1.101696	0.032215	0.031920	53.4181	16088.6	0.029725	0.040176	1329.61	73334.6
187	2.000000	1.103991	7.36688e+06	-47989.1	955.818	-29764.5	0.000000	0.000000	7.107010	58.1756	NaN	0.000000	0.001732	0.001689	28.0791	32.3009	0.001848	17475.1	3.426376	-177.86	56.5567	1.103619	0.034215	0.033843	58.1756	17475.1	0.031718	0.044381	1310.83	75787.2
187	2.000000	1.105945	7.36688e+06	-47989.1	955.819	-29764.5	0.000000	0.000000	7.109366	67.9488	NaN	0.000000	0.001736	0.001656	28.0789	33.7048	0.001735	19425.9	4.281738	-178.954	65.8417	1.105642	0.036170	0.035866	67.9488	19425.9	0.033546	0.048415	1403.47	80661.2
187	2.000000	1.107958	7.36688e+06	-47989.1	955.818	-29764.5	0.000000	0.000000	7.111756	77.1172	NaN	0.000000	0.001677	0.001664	28.0793	35.4383	0.001669	21231.5	6.263413	178.455	75.6945	1.107645	0.038182	0.037869	77.1172	21231.5	0.035458	0.052819	1460.04	84403.7
187	2.000000	1.109958	7.36688e+06	-47989.1	955.818	-29764.5	0.000000	0.000000	7.114010	83.2975	NaN	0.000000	0.001667	0.001697	28.0791	38.757	0.001814	21362.7	4.616922	179.918	81.5901	1.109618	0.040182	0.039842	83.2975	21362.7	0.037258	0.057134	1457.92	81654.6
187	2.000000	1.111965	7.36688e+06	-47989.1	955.819	-29764.5	0.000000	0.000000	7.116344	91.252	NaN	0.000000	0.001675	0.001656	28.0791	39.6733	0.001817	21833.6	5.094379	179.074	90.2017	1.111613	0.042189	0.041837	91.252	21833.6	0.039055	0.061608	1481.16	80367.3
187	2.000000	1.113907	7.36688e+06	-47989.1	955.818	-29764.5	0.000000	0.000000	7.118600	98.8875	NaN	0.000000	0.001646	0.001651	28.079	42.2515	0.001812	23314.9	4.411399	179.005	96.0025	1.113632	0.044131	0.043856	98.8875	23314.9	0.040950	0.066508	1486.86	82598.5
187	2.000000	1.116016	7.36688e+06	-47989.1	955.819	-29764.5	0.000000	0.000000	7.121120	108.891	NaN	0.000000	0.001663	0.001680	28.079	43.8501	0.001662	26387.7	5.011638	176.998	110.079	1.115684	0.046240	0.045908	108.891	26387.7	0.043145	0.072408	1503.85	89594.4
187	2.000000	1.117945	7.36688e+06	-47989.1	955.819	-29764.5	0.000000	0.000000	7.123483	119.456	NaN	0.000000	0.001658	0.001673	28.0795	44.7212	0.001633	27383.9	-0.227812	-178.421	117.823	1.117696	0.048169	0.047920	119.456	27383.9	0.044897	0.077295	1545.45	89989.6
187	2.000000	1.119963	7.36688e+06	-47989.1	955.819	-29764.5	0.000000	0.000000	7.125800	126.71	NaN	0.000000	0.001644	0.001683	28.079	49.5449	0.001912	25919.3	9.057325	173.051	126.954	1.119614	0.050187	0.049838	126.71	25919.3	0.046521	0.081963	1545.94	82715.5
187	2.000000	1.121928	7.36688e+06	-47989.1	955.818	-29764.5	0.000000	0.000000	7.128235	138.164	NaN	0.000000	0.001713	0.001668	28.0792	48.0399	0.001678	28621.2	0.028029	-178.329	136.462	1.121616	0.052152	0.051840	138.164	28621.2	0.048531	0.087928	1571.34	88185.8
187	2.000000	1.123950	7.36688e+06	-47989.1	955.819	-29764.5	0.000000	0.000000	7.130634	147.324	NaN	0.000000	0.001684	0.001718	28.0789	51.0142	0.001722	29619.7	3.466420	177.868	145.626	1.123590	0.054174	0.053814	147.324	29619.7	0.050444	0.093790	1570.8	88364.2
187	2.000000	1.125968	7.36688e+06	-47989.1	955.818	-29764.5	0.000000	0.000000	7.133010	156.037	NaN	0.000000	0.001693	0.001703	28.079	53.6544	0.001841	29139.8	5.301071	177.06	154.268	1.125585	0.056192	0.055809	156.037	29139.8	0.052176	0.099257	1572.05	84504.2
187	2.000000	1.127922	7.36688e+06	-47989.1	955.819	-29764.5	0.000000	0.000000	7.135402	166.683	NaN	0.000000	0.001732	0.001688	28.0779	55.7149	0.001853	30075	7.536929	173.646	166.265	1.127629	0.058146	0.057853	166.683	30075	0.053989	0.105142	1585.32	84740.5
187	2.000000	1.129916	7.36688e+06	-47989.1	955.818	-29764.5	0.000000	0.000000	7.137648	172.833	NaN	0.000000	0.001679	0.001679	28.0778	57.3381	0.001751	32744.3	0.755379	179.17	170.571	1.129713	0.060140	0.059937	172.833	32744.3	0.056181	0.112471	1536.69	89204.9
187	2.000000	1.131930	7.36688e+06	-47989.1	955.818	-29764.5	0.000000	0.000000	7.140268	187.548	NaN	0.000000	0.001725	0.001718	28.078	59.0406	0.001751	33716.6	8.936850	172.115	186.363	1.131555	0.062154	0.061779	187.548	33716.6	0.057982	0.118672	1580.39	89421.8
187	2.000000	1.133985	7.36688e+06	-47989.1	955.819	-29764.5	0.000000	0.000000	7.142532	192.64	NaN	0.000000	0.001671	0.001732	28.0776	61.4543	0.001740	35327.2	2.875760	177.3	195.582	1.133666	0.064209	0.063890	192.64	35327.2	0.060119	0.126235	1526.04	90843
187	2.000000	1.135989	7.36688e+06	-47989.1	955.819	-29764.5	0.000000	0.000000	7.145165	207.937	NaN	0.000000	0.001703	0.001686	28.078	63.9221	0.001915	33380.3	3.561399	177.334	208.948	1.135697	0.066213	0.065921	207.937	33380.3	0.061541	0.131391	1582.59	84135.9
187	2.000000	1.137930	7.36688e+06	-47989.1	955.819	-29764.5	0.000000	0.000000	7.147673	221.715	NaN	0.000000	0.001695	0.001694	28.078	65.6719	0.001859	35327.5	6.768224	172.576	219.637	1.137549	0.068154	0.067773	221.715	35327.5	0.063447	0.138460	1601.3	86741
187	2.000000	1.139857	7.36688e+06	-47989.1	955.818	-29764.5	0.000000	0.000000	7.149975	230.847	NaN	0.000000	0.001687	0.001669	28.0778	67.7788	0.001859	36460.9	6.670819	172.592	227.243	1.139652	0.070081	0.069876	230.847	36460.9	0.065333	0.145623	1585.24	87294.3
187	2.000000	1.141954	7.36688e+06	-47989.1	955.82	-29764.5	0.000000	0.000000	7.152675	245.511	NaN	0.000000	0.001687	0.001685	28.0778	67.4094	0.001759	38320.3	2.095141	177.136	243.801	1.141539	0.072178	0.071763	245.511	38320.3	0.067373	0.153566	1598.73	89341.8
187	2.000000	1.143910	7.36688e+06	-47989.1	955.819	-29764.5	0.000000	0.000000	7.155242	260.389	NaN	0.000000	0.001694	0.001652	28.0776	70.3712	0.001816	38748.6	5.825203	173.554	259.268	1.143540	0.074134	0.073764	260.389	38748.6	0.069094	0.160420	1623.17	88389.1
187	2.000000	1.145978	7.36688e+06	-47989.1	955.819	-29764.5	0.000000	0.000000	7.157764	271.429	NaN	0.000000	0.001726	0.001723	28.0777	71.8488	0.001806	39792.7	3.744104	175.774	271.502	1.145580	0.076202	0.075804	271.429	39792.7	0.071086	0.168534	1610.53	88558.9
187	2.000000	1.147957	7.36688e+06	-47989.1	955.82	-29764.5	0.000000	0.000000	7.160214	282.862	NaN	0.000000	0.001680	0.001728	28.0777	73.5954	0.001841	39981.1	3.605769	175.564	282.988	1.147688	0.078181	0.077912	282.862	39981.1	0.072875	0.175980	1607.36	87075.7
187	2.000000	1.149884	7.36688e+06	-47989.1	955.818	-29764.5	0.000000	0.000000	7.162597	293.945	NaN	0.000000	0.001705	0.001717	28.0778	75.5271	0.001870	40379.5	0.956365	177.604	291.603	1.149724	0.080108	0.079948	293.945	40379.5	0.074649	0.183511	1601.79	86119.8
187	2.000000	1.151857	7.36688e+06	-47989.1	955.817	-29764.5	0.000000	0.000000	7.165349	312.907	NaN	0.000000	0.001707	0.001716	28.0781	76.4712	0.001805	42363.9	4.778697	174.316	309.248	1.151590	0.082081	0.081814	312.907	42363.9	0.076542	0.191711	1632.18	88398.6
187	2.000000	1.153854	7.36688e+06	-47989.1	955.819	-29764.5	0.000000	0.000000	7.168122	331.805	NaN	0.000000	0.001698	0.001706	28.0777	79.7081	0.001881	42384	2.793611	176.373	326.982	1.153496	0.084078	0.083720	331.805	42384	0.078206	0.199063	1666.84	86792.1
187	2.000000	1.155892	7.36688e+06	-47989.1	955.819	-29764.5	0.000000	0.000000	7.170712	345.195	NaN	0.000000	0.001679	0.001677	28.078	81.6383	0.001784	45755.5	5.975014	173.043	343.703	1.155508	0.086116	0.085732	345.195	45755.5	0.080458	0.209213	1649.97	91394.9
187	2.000000	1.157932	7.36688e+06	-47989.1	955.818	-29764.5	0.000000	0.000000	7.173095	353.554	NaN	0.000000	0.001693	0.001700	28.0779	82.4417	0.001797	45888.7	3.681577	173.94	353.253	1.157652	0.088156	0.087876	353.554	45888.7	0.082378	0.218051	1621.42	89784
187	2.000000	1.159900	7.36688e+06	-47989.1	955.818	-29764.5	0.000000	0.000000	7.175803	371.573	NaN	0.000000	0.001683	0.001693	28.0777	84.9487	0.001747	48614.2	2.004907	175.586	369.26	1.159623	0.090124	0.089847	371.573	48614.2	0.084391	0.227506	1633.24	93119.5
187	2.000000	1.161928	7.36688e+06	-47989.1	955.817	-29764.5	0.000000	0.000000	7.178298	382.909	NaN	0.000000	0.001684	0.001707	28.0795	85.843	0.001850	46405.6	2.713368	175.022	381.587	1.161619	0.092152	0.091843	382.909	46405.6	0.085964	0.235020	1629.26	87456.3
187	2.000000	1.163851	7.36688e+06	-47989.1	955.817	-29764.5	0.000000	0.000000	7.181046	402.966	NaN	0.000000	0.001687	0.001735	28.0791	88.8974	0.001803	49311.9	4.706823	172.839	399.035	1.163504	0.094075	0.093728	402.966	49311.9	0.087946	0.244657	1647.07	91084.9
187	2.000000	1.165932	7.36688e+06	-47989.1	955.819	-29764.5	0.000000	0.000000	7.183760	418.368	NaN	0.000000	0.001662	0.001642	28.0792	90.9258	0.001875	48503.2	5.271464	172.714	417.186	1.165466	0.096156	0.095690	418.368	48503.2	0.089687	0.253264	1651.9	88055.5
187	2.000000	1.167876	7.36688e+06	-47989.1	955.819	-29764.5	0.000000	0.000000	7.186513	438.06	NaN	0.000000	0.001686	0.001701	28.079	91.7255	0.001820	50388.9	4.469899	173.503	437.37	1.167556	0.098100	0.097780	438.06	50388.9	0.091580	0.262787	1666.98	89806.1
187	2.000000	1.169835	7.36688e+06	-47989.1	955.819	-29764.5	0.000000	0.000000	7.189021	451.401	NaN	0.000000	0.001663	0.001712	28.079	94.0794	0.001842	51069	3.890523	173.585	447.089	1.169584	0.100059	0.099808	451.401	51069	0.093429	0.272247	1658.05	89422.9
187	2.000000	1.171862	7.36688e+06	-47989.1	955.818	-29764.5	0.000000	0.000000	7.191631	465.58	NaN	0.000000	0.001648	0.001726	28.0793	95.4773	0.001783	53559.8	6.819885	169.966	464.367	1.171614	0.102087	0.101838	465.58	53559.8	0.095567	0.283376	1642.98	91924.3
187	2.000000	1.173838	7.36688e+06	-47989.1	955.819	-29764.5	0.000000	0.000000	7.194576	489.145	NaN	0.000000	0.001654	0.001717	28.079	96.7271	0.001661	58217.4	3.707813	172.316	486.094	1.173547	0.104062	0.103771	489.145	58217.4	0.097761	0.295015	1658.04	97927.3
187	2.000000	1.175880	7.36688e+06	-47989.1	955.819	-29764.5	0.000000	0.000000	7.197157	502.265	NaN	0.000000	0.001667	0.001676	28.0791	99.817	0.001754	56914	5.271234	171.017	496.987	1.175557	0.106104	0.105781	502.265	56914	0.099485	0.304317	1650.47	94260.4
187	2.000000	1.177878	7.36688e+06	-47989.1	955.818	-29764.5	0.000000	0.000000	7.199660	514.538	NaN	0.000000	0.001664	0.001725	28.0791	100.833	0.001754	57494.8	3.166975	173.135	511.167	1.177698	0.108102	0.107922	514.538	57494.8	0.101390	0.314748	1634.76	93631.2