File: remote_trans/data/nanoindenter/0828-1/data/Data_2025-08-06,11h17m57s/2025-07-22_16-23-58_1_234.txt
2025-07-22, 16:23:58, 1
Index	Phase	Displacement	Time	Pos X	Pos Y	Pos Z	Rot A	Rot B	Piezo Z	Force A	Force B	Gripper	Voltage A	Voltage B	Temperature	Amplitude force	Amplitude pos	Stiffness	Phase shift	Phase excitation	Force A raw	Displacement raw	HMax	HMax raw	Real Force	Real Stiffness	Contact Depth	Area	Hardness	Reduced Mod.
[#]	[#]	[um]	[s]	[um]	[um]	[um]	[m°]	[m°]	[um]	[uN]	[uN]	[V]	[V]	[V]	[°C]	[uN]	[um]	[N/m]	[°]	[°]	[uN]	[um]	[um]	[um]	[uN]	[N/m]	[um]	[um^2]	[MPa]	[MPa]
234	1.000000	0.002400	7.36733e+06	-50339.1	955.82	-29756.3	0.000000	0.000000	6.002727	0.037870	NaN	0.000000	0.001602	0.001591	28.0785	0.057276	0.001014	56.5098	116.931	174.963	0.093495	0.001149	-1.089760	-1.091010	0.037870	56.5098	-1.090262	-3.709638E+14	-1.020853E-16	NaN
234	1.000000	0.012481	7.36733e+06	-50339.1	955.819	-29756.3	0.000000	0.000000	6.012808	0.025487	NaN	0.000000	0.001616	0.001565	28.0787	0.067739	0.001268	53.4206	-134.19	-3.486676	0.098587	0.011052	-1.079678	-1.081107	0.025487	53.4206	-1.080036	-2.703935E+14	-9.425827E-17	NaN
234	1.000000	0.022386	7.36733e+06	-50339.1	955.819	-29756.3	0.000000	0.000000	6.022713	0.034870	NaN	0.000000	0.001645	0.001563	28.0787	0.014699	0.001698	8.655636	-71.8341	176.228	0.002910	0.021040	-1.069773	-1.071119	0.034870	8.655636	-1.072795	-2.161391E+14	-1.613314E-16	NaN
234	1.000000	0.032363	7.36733e+06	-50339.1	955.819	-29756.3	0.000000	0.000000	6.032689	-0.005317	NaN	0.000000	0.001629	0.001589	28.0787	0.115237	0.001955	58.9497	-102.685	-2.348556	-0.058222	0.030989	-1.059796	-1.061170	-0.005317	58.9497	-1.059728	-1.442680E+14	3.685415E-17	NaN
234	1.000000	0.042384	7.36733e+06	-50339.1	955.819	-29756.3	0.000000	0.000000	6.042710	0.001050	NaN	0.000000	0.001627	0.001587	28.0786	0.052326	0.002055	25.4688	106.174	173.771	0.103894	0.041069	-1.049775	-1.051090	0.001050	25.4688	-1.049806	-1.061221E+14	-9.892772E-18	NaN
234	1.000000	0.052382	7.36733e+06	-50339.1	955.819	-29756.3	0.000000	0.000000	6.052708	-0.009697	NaN	0.000000	0.001634	0.001564	28.0787	0.059925	0.001985	30.1949	179.075	-6.795636	0.038419	0.051026	-1.039777	-1.041133	-0.009697	30.1949	-1.039536	-7.721965E+13	1.255734E-16	NaN
234	1.000000	0.062358	7.36733e+06	-50339.1	955.819	-29756.3	0.000000	0.000000	6.062684	0.007992	NaN	0.000000	0.001716	0.001575	28.0799	0.034529	0.001978	17.4528	3.679135	177.006	0.014197	0.061044	-1.029801	-1.031115	0.007992	17.4528	-1.030144	-5.773290E+13	-1.384271E-16	NaN
234	1.000000	0.072364	7.36733e+06	-50339.1	955.819	-29756.3	0.000000	0.000000	6.072690	0.017062	NaN	0.000000	0.001572	0.001599	28.0798	0.054778	0.001980	27.6716	147.83	-5.656721	-0.022464	0.071069	-1.019795	-1.021090	0.017062	27.6716	-1.020258	-4.250300E+13	-4.014241E-16	NaN
234	1.000000	0.082376	7.36733e+06	-50339.1	955.819	-29756.3	0.000000	0.000000	6.082703	0.037916	NaN	0.000000	0.001580	0.001530	28.0806	0.096432	0.001960	49.1951	116.229	177.461	-0.018765	0.081073	-1.009783	-1.011086	0.037916	49.1951	-1.010361	-3.127832E+13	-1.212220E-15	NaN
234	1.000000	0.092387	7.36733e+06	-50339.1	955.82	-29756.3	0.000000	0.000000	6.092713	0.002189	NaN	0.000000	0.001617	0.001593	28.0798	0.080596	0.001914	42.1193	-111.319	-5.347356	0.008192	0.090992	-0.999772	-1.001167	0.002189	42.1193	-0.999811	-2.255396E+13	-9.706169E-17	NaN
234	1.000000	0.102369	7.36733e+06	-50339.1	955.819	-29756.3	0.000000	0.000000	6.102694	-0.002367	NaN	0.000000	0.001683	0.001604	28.0802	0.069945	0.001945	35.9691	25.4303	177.864	0.009302	0.101101	-0.989790	-0.991058	-0.002367	35.9691	-0.989741	-1.650531E+13	1.433812E-16	NaN
234	1.000000	0.112375	7.36733e+06	-50339.1	955.819	-29756.3	0.000000	0.000000	6.112701	0.022973	NaN	0.000000	0.001673	0.001572	28.0801	0.071751	0.001969	36.4412	147.321	-0.969704	0.083369	0.111064	-0.979784	-0.981095	0.022973	36.4412	-0.980257	-1.229916E+13	-1.867846E-15	NaN
234	1.000000	0.122385	7.36733e+06	-50339.1	955.818	-29756.3	0.000000	0.000000	6.122713	0.050058	NaN	0.000000	0.001663	0.001589	28.0804	0.027924	0.002017	13.8427	-26.0417	176.033	0.031150	0.121055	-0.969774	-0.971104	0.050058	13.8427	-0.972486	-9.664169E+12	-5.179733E-15	NaN
234	1.000000	0.132410	7.36733e+06	-50339.1	955.819	-29756.3	0.000000	0.000000	6.132735	-0.037902	NaN	0.000000	0.001690	0.001600	28.0801	0.048263	0.001980	24.375	176.201	-1.682397	0.001723	0.131075	-0.959749	-0.961084	-0.037902	24.375	-0.958583	-6.277117E+12	6.038125E-15	NaN
234	1.000000	0.142401	7.36733e+06	-50339.1	955.819	-29756.3	0.000000	0.000000	6.142730	0.060928	NaN	0.000000	0.001683	0.001633	28.0803	0.095506	0.001983	48.1664	-115.08	177.893	0.027675	0.141106	-0.949758	-0.951053	0.060928	48.1664	-0.950706	-4.915361E+12	-1.239550E-14	NaN
234	1.000000	0.152394	7.36733e+06	-50339.1	955.819	-29756.3	0.000000	0.000000	6.152719	-0.029856	NaN	0.000000	0.001666	0.001612	28.0801	0.122582	0.002024	60.5507	114.438	-6.557628	0.006820	0.151017	-0.939765	-0.941142	-0.029856	60.5507	-0.939395	-3.459182E+12	8.630808E-15	NaN
234	1.000000	0.162380	7.36733e+06	-50339.1	955.818	-29756.3	0.000000	0.000000	6.162707	0.037911	NaN	0.000000	0.001693	0.001574	28.08	0.107010	0.002003	53.4129	46.1321	176.214	0.072715	0.161089	-0.929779	-0.931070	0.037911	53.4129	-0.930311	-2.608561E+12	-1.453333E-14	NaN
234	1.000000	0.172393	7.36733e+06	-50339.1	955.819	-29756.3	0.000000	0.000000	6.172720	0.035035	NaN	0.000000	0.001670	0.001608	28.0796	0.073817	0.001870	39.4749	172.066	-1.544726	0.058596	0.171100	-0.919767	-0.921059	0.035035	39.4749	-0.920432	-1.918851E+12	-1.825854E-14	NaN
234	1.000000	0.182396	7.36733e+06	-50339.1	955.819	-29756.3	0.000000	0.000000	6.182723	0.023901	NaN	0.000000	0.001617	0.001598	28.0797	0.037016	0.002021	18.3171	155.098	174.592	-0.086462	0.181144	-0.909763	-0.911015	0.023901	18.3171	-0.910742	-1.419648E+12	-1.683577E-14	NaN
234	1.000000	0.192388	7.36733e+06	-50339.1	955.819	-29756.3	0.000000	0.000000	6.192714	0.000986	NaN	0.000000	0.001643	0.001587	28.0788	0.095777	0.002072	46.2135	108.948	-6.271831	0.042928	0.191042	-0.899771	-0.901117	0.000986	46.2135	-0.899787	-1.009694E+12	-9.769500E-16	NaN
234	1.000000	0.202413	7.36733e+06	-50339.1	955.819	-29756.3	0.000000	0.000000	6.202735	-0.077301	NaN	0.000000	0.001624	0.001611	28.0784	0.108755	0.001962	55.4383	-29.6098	176.994	-0.065397	0.201124	-0.889747	-0.891035	-0.077301	55.4383	-0.888701	-7.150752E+11	1.081020E-13	NaN
234	1.000000	0.212426	7.36733e+06	-50339.1	955.818	-29756.3	0.000000	0.000000	6.212755	0.060437	NaN	0.000000	0.001659	0.001616	28.0787	0.053023	0.002105	25.1875	14.808	-3.486251	0.099546	0.211086	-0.879733	-0.881073	0.060437	25.1875	-0.881532	-5.720478E+11	-1.056505E-13	NaN
234	1.000000	0.222442	7.36733e+06	-50339.1	955.819	-29756.3	0.000000	0.000000	6.222767	-0.011103	NaN	0.000000	0.001636	0.001581	28.0783	0.104288	0.001998	52.1947	130.161	175.227	0.070124	0.221163	-0.869717	-0.870996	-0.011103	52.1947	-0.869558	-3.939694E+11	2.818355E-14	NaN
234	1.000000	0.232448	7.36733e+06	-50339.1	955.818	-29756.3	0.000000	0.000000	6.232773	-0.030294	NaN	0.000000	0.001669	0.001617	28.0787	0.069421	0.001989	34.8974	-24.0613	-5.390072	-0.014587	0.231072	-0.859711	-0.861087	-0.030294	34.8974	-0.859060	-2.840481E+11	1.066505E-13	NaN
234	1.000000	0.242423	7.36733e+06	-50339.1	955.818	-29756.4	0.000000	0.000000	6.242749	0.004338	NaN	0.000000	0.001655	0.001615	28.0784	0.099810	0.001918	52.0249	-144.884	176.373	0.037611	0.241132	-0.849736	-0.851027	0.004338	52.0249	-0.849799	-2.128219E+11	-2.038508E-14	NaN
234	1.000000	0.252470	7.36733e+06	-50339.1	955.819	-29756.4	0.000000	0.000000	6.252793	-0.072256	NaN	0.000000	0.001632	0.001614	28.0787	0.101023	0.001958	51.6046	21.8763	-4.909502	-0.025160	0.251104	-0.839689	-0.841055	-0.072256	51.6046	-0.838639	-1.502632E+11	4.808608E-13	NaN
234	1.000000	0.262458	7.36733e+06	-50339.1	955.819	-29756.4	0.000000	0.000000	6.262785	0.035484	NaN	0.000000	0.001647	0.001584	28.0785	0.076512	0.001942	39.405	60.7775	174.193	-0.018382	0.261159	-0.829701	-0.831000	0.035484	39.405	-0.830376	-1.161143E+11	-3.055966E-13	NaN
234	1.000000	0.272478	7.36733e+06	-50339.1	955.818	-29756.4	0.000000	0.000000	6.272807	0.090827	NaN	0.000000	0.001649	0.001598	28.0787	0.072859	0.001883	38.6942	-153.052	-2.588689	0.106803	0.271119	-0.819682	-0.821040	0.090827	38.6942	-0.821442	-8.785487E+10	-1.033828E-12	NaN
234	1.000000	0.282440	7.36734e+06	-50339.1	955.818	-29756.4	0.000000	0.000000	6.282768	0.055653	NaN	0.000000	0.001713	0.001552	28.0785	0.086024	0.002082	41.3098	133.405	177.025	-0.010377	0.281196	-0.809719	-0.810964	0.055653	41.3098	-0.810729	-6.287342E+10	-8.851605E-13	NaN
234	1.000000	0.292483	7.36734e+06	-50339.1	955.819	-29756.4	0.000000	0.000000	6.292807	-0.049642	NaN	0.000000	0.001731	0.001555	28.0784	0.142127	0.002023	70.2436	148.676	-5.194140	-0.001798	0.291107	-0.799676	-0.801052	-0.049642	70.2436	-0.799146	-4.377986E+10	1.133898E-12	NaN
234	1.000000	0.302446	7.36734e+06	-50339.1	955.819	-29756.4	0.000000	0.000000	6.302772	-0.012609	NaN	0.000000	0.001753	0.001620	28.0783	0.099586	0.001853	53.7434	-87.1494	175.215	-0.060629	0.301188	-0.789713	-0.790971	-0.012609	53.7434	-0.789537	-3.241853E+10	3.889574E-13	NaN
234	1.000000	0.312471	7.36734e+06	-50339.1	955.82	-29756.4	0.000000	0.000000	6.312795	-0.067155	NaN	0.000000	0.001773	0.001632	28.0784	0.026071	0.002020	12.9054	-73.1605	-7.804553	-0.080596	0.311134	-0.779688	-0.781025	-0.067155	12.9054	-0.775785	-2.108368E+10	3.185168E-12	NaN
234	1.000000	0.322483	7.36734e+06	-50339.1	955.819	-29756.4	0.000000	0.000000	6.322809	-0.002200	NaN	0.000000	0.001703	0.001547	28.0783	0.118215	0.001882	62.8214	-47.3406	177.295	0.014777	0.321137	-0.769676	-0.771022	-0.002200	62.8214	-0.769650	-1.739968E+10	1.264442E-13	NaN
234	1.000000	0.332476	7.36734e+06	-50339.1	955.819	-29756.4	0.000000	0.000000	6.332800	-0.050348	NaN	0.000000	0.001636	0.001543	28.0798	0.017745	0.001909	9.294842	-153.456	-2.661693	-0.048301	0.331121	-0.759683	-0.761038	-0.050348	9.294842	-0.755620	-1.121265E+10	4.490308E-12	NaN
234	1.000000	0.342480	7.36734e+06	-50339.1	955.82	-29756.4	0.000000	0.000000	6.342804	-0.052746	NaN	0.000000	0.001703	0.001545	28.0798	0.137100	0.002034	67.3981	-129.652	174.962	-0.022998	0.341148	-0.749679	-0.751011	-0.052746	67.3981	-0.749092	-9.138117E+9	5.772033E-12	NaN
234	1.000000	0.352498	7.36734e+06	-50339.1	955.818	-29756.4	0.000000	0.000000	6.352824	0.014554	NaN	0.000000	0.001703	0.001555	28.0798	0.041874	0.001966	21.3016	-134.596	-3.282543	0.060624	0.351105	-0.739661	-0.741054	0.014554	21.3016	-0.740174	-6.909087E+9	-2.106522E-12	NaN
234	1.000000	0.362500	7.36734e+06	-50339.1	955.819	-29756.4	0.000000	0.000000	6.362821	-0.105100	NaN	0.000000	0.001719	0.001582	28.0796	0.016976	0.002019	8.409750	87.7801	174.705	-0.016475	0.361190	-0.729659	-0.730969	-0.105100	8.409750	-0.720286	-3.701510E+9	2.839394E-11	NaN
234	1.000000	0.372514	7.36734e+06	-50339.1	955.818	-29756.4	0.000000	0.000000	6.372840	0.012148	NaN	0.000000	0.001735	0.001605	28.0798	0.103556	0.002013	51.4474	-175.713	-3.124425	0.069864	0.371173	-0.719645	-0.720986	0.012148	51.4474	-0.719822	-3.647958E+9	-3.330195E-12	NaN
234	1.000000	0.382489	7.36734e+06	-50339.1	955.819	-29756.4	0.000000	0.000000	6.382816	0.021050	NaN	0.000000	0.001738	0.001592	28.0798	0.087311	0.002098	41.6066	163.9	177.641	0.017151	0.381156	-0.709670	-0.711003	0.021050	41.6066	-0.710049	-2.683605E+9	-7.843971E-12	NaN
234	1.000000	0.392501	7.36734e+06	-50339.1	955.819	-29756.4	0.000000	0.000000	6.392827	0.002113	NaN	0.000000	0.001724	0.001605	28.0799	0.023334	0.001919	12.1596	-38.372	-7.729590	0.054577	0.391133	-0.699658	-0.701026	0.002113	12.1596	-0.699788	-1.943739E+9	-1.086981E-12	NaN
234	1.000000	0.402514	7.36734e+06	-50339.1	955.819	-29756.4	0.000000	0.000000	6.402839	-0.019760	NaN	0.000000	0.001672	0.001620	28.0797	0.073542	0.002060	35.6937	161.145	175.789	0.007326	0.401209	-0.689645	-0.690950	-0.019760	35.6937	-0.689230	-1.394420E+9	1.417054E-11	NaN
234	1.000000	0.412503	7.36734e+06	-50339.1	955.818	-29756.4	0.000000	0.000000	6.412829	0.013256	NaN	0.000000	0.001677	0.001645	28.0797	0.014912	0.002062	7.230946	-46.89	-4.791399	-0.040277	0.411150	-0.679656	-0.681009	0.013256	7.230946	-0.681031	-1.077232E+9	-1.230588E-11	NaN
234	1.000000	0.422519	7.36734e+06	-50339.1	955.818	-29756.4	0.000000	0.000000	6.422846	0.011586	NaN	0.000000	0.001663	0.001625	28.0798	0.145906	0.002015	72.4269	58.7387	173.415	-0.022707	0.421186	-0.669640	-0.670973	0.011586	72.4269	-0.669760	-7.552700E+8	-1.534002E-11	NaN
234	1.000000	0.432514	7.36734e+06	-50339.1	955.818	-29756.4	0.000000	0.000000	6.432840	0.015910	NaN	0.000000	0.001653	0.001611	28.0798	0.044016	0.002003	21.9727	119.82	-3.912830	-0.017333	0.431164	-0.659645	-0.660995	0.015910	21.9727	-0.660188	-5.585296E+8	-2.848552E-11	NaN
234	1.000000	0.442526	7.36734e+06	-50339.1	955.818	-29756.4	0.000000	0.000000	6.442851	-0.026354	NaN	0.000000	0.001638	0.001627	28.0796	0.104741	0.001953	53.6415	-11.3012	179.252	0.025290	0.441161	-0.649633	-0.650998	-0.026354	53.6415	-0.649264	-3.956878E+8	6.660394E-11	NaN
234	1.000000	0.452537	7.36734e+06	-50339.1	955.819	-29756.4	0.000000	0.000000	6.452862	-0.015590	NaN	0.000000	0.001661	0.001590	28.0801	0.056002	0.001948	28.7483	10.2861	-5.128974	-0.033403	0.451186	-0.639622	-0.640973	-0.015590	28.7483	-0.639216	-2.880891E+8	5.411433E-11	NaN
234	1.000000	0.462554	7.36734e+06	-50339.1	955.819	-29756.4	0.000000	0.000000	6.462880	0.007716	NaN	0.000000	0.001718	0.001585	28.0797	0.104971	0.002014	52.1259	-43.1946	177.831	-0.070076	0.461193	-0.629605	-0.630966	0.007716	52.1259	-0.629716	-2.133679E+8	-3.616314E-11	NaN
234	1.000000	0.472528	7.36734e+06	-50339.1	955.819	-29756.4	0.000000	0.000000	6.472854	0.013433	NaN	0.000000	0.001719	0.001609	28.0786	0.030002	0.002012	14.9145	-11.2984	-2.745821	-0.021432	0.471177	-0.619632	-0.620982	0.013433	14.9145	-0.620307	-1.584360E+8	-8.478288E-11	NaN
234	1.000000	0.482561	7.36734e+06	-50339.1	955.818	-29756.4	0.000000	0.000000	6.482885	-0.031569	NaN	0.000000	0.001709	0.001632	28.0784	0.038997	0.001986	19.6366	-78.6125	176.574	-0.026439	0.481250	-0.609598	-0.610909	-0.031569	19.6366	-0.608393	-1.086418E+8	2.905776E-10	NaN
234	1.000000	0.492550	7.36734e+06	-50339.1	955.819	-29756.4	0.000000	0.000000	6.492879	0.069248	NaN	0.000000	0.001738	0.001628	28.0786	0.021897	0.001935	11.3171	-146.317	-6.261380	0.035456	0.491159	-0.599609	-0.601000	0.069248	11.3171	-0.604198	-9.511943E+7	-7.280072E-10	NaN
234	1.000000	0.502529	7.36734e+06	-50339.1	955.819	-29756.4	0.000000	0.000000	6.502856	0.010388	NaN	0.000000	0.001721	0.001621	28.0784	0.099732	0.001955	51.0026	99.8272	176.442	0.105112	0.501231	-0.589630	-0.590928	0.010388	51.0026	-0.589783	-6.021005E+7	-1.725334E-10	NaN
234	1.000000	0.512518	7.36734e+06	-50339.1	955.819	-29756.4	0.000000	0.000000	6.512845	0.035881	NaN	0.000000	0.001744	0.001614	28.0784	0.142668	0.001961	72.7378	73.252	-7.486633	0.099505	0.511170	-0.579641	-0.580989	0.035881	72.7378	-0.580011	-4.414475E+7	-8.128007E-10	NaN
234	1.000000	0.522558	7.36734e+06	-50339.1	955.818	-29756.4	0.000000	0.000000	6.522883	-0.024511	NaN	0.000000	0.001771	0.001596	28.0785	0.065381	0.002055	31.8227	-117.396	176.09	0.033232	0.521261	-0.569601	-0.570898	-0.024511	31.8227	-0.569024	-3.112732E+7	7.874304E-10	NaN
234	1.000000	0.532550	7.36734e+06	-50339.1	955.819	-29756.4	0.000000	0.000000	6.532875	-0.027194	NaN	0.000000	0.001732	0.001588	28.0783	0.014052	0.001985	7.078593	11.9589	-8.654651	0.030249	0.531213	-0.559609	-0.560946	-0.027194	7.078593	-0.556728	-2.104284E+7	1.292314E-9	NaN
234	1.000000	0.542559	7.36734e+06	-50339.1	955.819	-29756.4	0.000000	0.000000	6.542886	0.027436	NaN	0.000000	0.001744	0.001606	28.0783	0.023729	0.001949	12.1755	177.527	174.754	0.037242	0.541268	-0.549600	-0.550891	0.027436	12.1755	-0.551290	-1.769394E+7	-1.550560E-9	NaN
234	1.000000	0.552607	7.36734e+06	-50339.1	955.818	-29756.4	0.000000	0.000000	6.552933	0.009981	NaN	0.000000	0.001722	0.001617	28.0784	0.073873	0.001899	38.9081	118.704	-4.166003	0.021629	0.551161	-0.539553	-0.540998	0.009981	38.9081	-0.539745	-1.224110E+7	-8.153572E-10	NaN
234	1.000000	0.562589	7.36734e+06	-50339.1	955.819	-29756.4	0.000000	0.000000	6.562915	0.014024	NaN	0.000000	0.001693	0.001624	28.0798	0.027191	0.002030	13.3928	46.6332	176.754	0.052881	0.561282	-0.529570	-0.530877	0.014024	13.3928	-0.530355	-9.068e+06	-1.546523E-9	NaN
234	1.000000	0.572567	7.36734e+06	-50339.1	955.819	-29756.4	0.000000	0.000000	6.572895	0.044321	NaN	0.000000	0.001731	0.001605	28.0783	0.126657	0.001906	66.435	-86.2859	-1.572479	-0.003931	0.571184	-0.519592	-0.520975	0.044321	66.435	-0.520093	-6.52958e+06	-6.787789E-9	NaN
234	1.000000	0.582554	7.36734e+06	-50339.1	955.818	-29756.4	0.000000	0.000000	6.582881	0.031887	NaN	0.000000	0.001690	0.001628	28.0783	0.106419	0.002051	51.8821	-178.384	175.03	-0.023513	0.581319	-0.509605	-0.510840	0.031887	51.8821	-0.510066	-4.73522e+06	-6.733944E-9	NaN
234	1.000000	0.592606	7.36734e+06	-50339.1	955.819	-29756.4	0.000000	0.000000	6.592933	0.028051	NaN	0.000000	0.001712	0.001641	28.0781	0.064876	0.002014	32.2165	139.971	-4.945949	-0.015304	0.591237	-0.499553	-0.500922	0.028051	32.2165	-0.500206	-3.45061e+06	-8.129362E-9	NaN
234	1.000000	0.602592	7.36734e+06	-50339.1	955.82	-29756.4	0.000000	0.000000	6.602918	0.021813	NaN	0.000000	0.001743	0.001584	28.0797	0.057187	0.002068	27.6531	124.456	172.307	0.059984	0.601288	-0.489567	-0.490871	0.021813	27.6531	-0.490159	-2.49813e+06	-8.731839E-9	NaN
234	1.000000	0.612609	7.36734e+06	-50339.1	955.818	-29756.4	0.000000	0.000000	6.612936	0.036167	NaN	0.000000	0.001701	0.001586	28.0797	0.071900	0.002035	35.3367	174.213	-1.745698	0.037586	0.611225	-0.479551	-0.480934	0.036167	35.3367	-0.480318	-1.81962e+06	-1.987598E-8	NaN
234	1.000000	0.622602	7.36734e+06	-50339.1	955.819	-29756.4	0.000000	0.000000	6.622928	2.634462E-5	NaN	0.000000	0.001678	0.001589	28.0796	0.112642	0.001854	60.7584	-74.3583	179.576	0.024428	0.621283	-0.469557	-0.470876	2.634462E-5	60.7584	-0.469558	-1.28588e+06	-2.048755E-11	NaN
234	1.000000	0.632619	7.36734e+06	-50339.1	955.82	-29756.4	0.000000	0.000000	6.632942	-0.067626	NaN	0.000000	0.001734	0.001586	28.0796	0.060587	0.001946	31.1355	87.6797	-7.331609	-0.142240	0.631208	-0.459540	-0.460951	-0.067626	31.1355	-0.457911	-882385	7.663989E-8	NaN
234	1.000000	0.642618	7.36734e+06	-50339.1	955.819	-29756.4	0.000000	0.000000	6.642943	-0.029031	NaN	0.000000	0.001770	0.001562	28.0796	0.039917	0.001895	21.0642	-76.4121	179.095	-0.042326	0.641295	-0.449541	-0.450864	-0.029031	21.0642	-0.448507	-650603	4.462098E-8	NaN
234	1.000000	0.652621	7.36734e+06	-50339.1	955.819	-29756.4	0.000000	0.000000	6.652950	0.080813	NaN	0.000000	0.001730	0.001560	28.0797	0.041342	0.002106	19.632	-167.48	-6.308282	0.045637	0.651260	-0.439538	-0.440899	0.080813	19.632	-0.442626	-537540	-1.503383E-7	NaN
234	1.000000	0.662641	7.36734e+06	-50339.1	955.818	-29756.4	0.000000	0.000000	6.662967	-0.010579	NaN	0.000000	0.001711	0.001562	28.0797	0.056796	0.001886	30.1174	142.5	175.562	-0.056183	0.661318	-0.429518	-0.430842	-0.010579	30.1174	-0.429254	-347946	3.040377E-8	NaN
234	1.000000	0.672618	7.36734e+06	-50339.1	955.82	-29756.4	0.000000	0.000000	6.672945	0.016328	NaN	0.000000	0.001734	0.001503	28.0799	0.099129	0.001941	51.0773	170.861	-4.499265	0.038720	0.671256	-0.419541	-0.420903	0.016328	51.0773	-0.419781	-255450	-6.391757E-8	NaN
234	1.000000	0.682633	7.36734e+06	-50339.1	955.819	-29756.4	0.000000	0.000000	6.682957	-0.031740	NaN	0.000000	0.001740	0.001553	28.0797	0.080857	0.001999	40.4441	-131.436	175.714	0.087926	0.681266	-0.409526	-0.410893	-0.031740	40.4441	-0.408938	-179180	1.771386E-7	NaN
234	1.000000	0.692619	7.36734e+06	-50339.1	955.818	-29756.4	0.000000	0.000000	6.692946	0.024144	NaN	0.000000	0.001725	0.001531	28.0799	0.100438	0.002043	49.1738	-114.01	-8.281403	0.045532	0.691273	-0.399540	-0.400887	0.024144	49.1738	-0.399909	-133257	-1.811800E-7	NaN
234	1.000000	0.702636	7.36734e+06	-50339.1	955.818	-29756.4	0.000000	0.000000	6.702959	-0.046702	NaN	0.000000	0.001721	0.001551	28.08	0.049264	0.002033	24.2311	167.526	175.696	-0.054106	0.701339	-0.389524	-0.390820	-0.046702	24.2311	-0.388078	-90295.4	5.172158E-7	NaN
234	1.000000	0.712631	7.36734e+06	-50339.1	955.818	-29756.4	0.000000	0.000000	6.712958	0.030411	NaN	0.000000	0.001702	0.001546	28.0802	0.120992	0.002109	57.372	124.267	-6.126415	-0.061216	0.711253	-0.379528	-0.380906	0.030411	57.372	-0.379925	-68994.8	-4.407694E-7	NaN
234	1.000000	0.722636	7.36734e+06	-50339.1	955.819	-29756.4	0.000000	0.000000	6.722961	-0.008729	NaN	0.000000	0.001703	0.001597	28.0799	0.041743	0.001963	21.2683	-169.768	175.04	0.095413	0.721338	-0.369523	-0.370822	-0.008729	21.2683	-0.369215	-48397.9	1.803694E-7	NaN
234	1.000000	0.732649	7.36734e+06	-50339.1	955.819	-29756.4	0.000000	0.000000	6.732976	0.022437	NaN	0.000000	0.001726	0.001614	28.0799	0.068788	0.002062	33.3538	-168.303	-4.155203	0.011759	0.731241	-0.359510	-0.360918	0.022437	33.3538	-0.360014	-35649.4	-6.293800E-7	NaN
234	1.000000	0.742658	7.36734e+06	-50339.1	955.819	-29756.4	0.000000	0.000000	6.742980	-0.089621	NaN	0.000000	0.001744	0.001518	28.0789	0.088954	0.001991	44.6837	-171.51	176.356	-0.050477	0.741309	-0.349501	-0.350850	-0.089621	44.6837	-0.347997	-23873.4	3.754023E-6	NaN
234	1.000000	0.752640	7.36734e+06	-50339.1	955.819	-29756.4	0.000000	0.000000	6.752966	0.015567	NaN	0.000000	0.001723	0.001577	28.0787	0.060087	0.001895	31.7153	45.7902	-6.050216	-0.027040	0.751328	-0.339519	-0.340831	0.015567	31.7153	-0.339887	-18193.3	-8.556507E-7	NaN
234	1.000000	0.762675	7.36734e+06	-50339.1	955.819	-29756.4	0.000000	0.000000	6.763002	0.027482	NaN	0.000000	0.001725	0.001607	28.0787	0.044807	0.002082	21.5235	3.318687	173.354	-0.006793	0.761342	-0.329484	-0.330817	0.027482	21.5235	-0.330442	-13241.1	-2.075509E-6	NaN
234	1.000000	0.772690	7.36734e+06	-50339.1	955.819	-29756.4	0.000000	0.000000	6.773018	0.061984	NaN	0.000000	0.001679	0.001587	28.0786	0.089837	0.002075	43.2935	166.327	-5.822524	0.064516	0.771362	-0.319469	-0.320797	0.061984	43.2935	-0.320543	-9476.17	-6.541053E-6	NaN
234	1.000000	0.782640	7.36734e+06	-50339.1	955.819	-29756.4	0.000000	0.000000	6.782967	0.046483	NaN	0.000000	0.001681	0.001611	28.0788	0.164151	0.002031	80.8178	-102.043	174.083	0.077358	0.781340	-0.309520	-0.310819	0.046483	80.8178	-0.309951	-6611.96	-7.030216E-6	NaN
234	1.000000	0.792667	7.36734e+06	-50339.1	955.819	-29756.4	0.000000	0.000000	6.792994	0.022830	NaN	0.000000	0.001613	0.001579	28.0784	0.044703	0.001999	22.3606	4.623936	-4.135227	0.024483	0.791294	-0.299492	-0.300865	0.022830	22.3606	-0.300257	-4747.52	-4.808918E-6	NaN
234	1.000000	0.802696	7.36734e+06	-50339.1	955.819	-29756.4	0.000000	0.000000	6.803022	0.016739	NaN	0.000000	0.001644	0.001579	28.0786	0.043056	0.002054	20.9572	5.067153	172.569	0.059839	0.801411	-0.289463	-0.290749	0.016739	20.9572	-0.290063	-3343.79	-5.006141E-6	NaN
234	1.000000	0.812681	7.36734e+06	-50339.1	955.819	-29756.4	0.000000	0.000000	6.813009	0.056681	NaN	0.000000	0.001681	0.001607	28.0787	0.065876	0.001990	33.1041	156.896	-3.468785	0.089808	0.811339	-0.279478	-0.280820	0.056681	33.1041	-0.280763	-2423.66	-2.338643E-5	NaN
234	1.000000	0.822677	7.36734e+06	-50339.1	955.819	-29756.4	0.000000	0.000000	6.823005	0.039813	NaN	0.000000	0.001648	0.001584	28.0789	0.056161	0.001993	28.1822	-175.232	175.932	-0.040111	0.821364	-0.269482	-0.270795	0.039813	28.1822	-0.270541	-1697.34	-2.345601E-5	NaN
234	1.000000	0.832676	7.36734e+06	-50339.1	955.819	-29756.4	0.000000	0.000000	6.833002	0.016096	NaN	0.000000	0.001634	0.001552	28.0786	0.050214	0.002012	24.9576	12.6474	-0.719037	0.031785	0.831379	-0.259483	-0.260780	0.016096	24.9576	-0.259967	-1170.6	-1.374992E-5	NaN
234	1.000000	0.842707	7.36734e+06	-50339.1	955.819	-29756.4	0.000000	0.000000	6.843034	0.025555	NaN	0.000000	0.001667	0.001587	28.0785	0.050530	0.001978	25.5496	36.1739	175.095	0.071030	0.841352	-0.249452	-0.250807	0.025555	25.5496	-0.250202	-828.123	-3.085880E-5	NaN
234	1.000000	0.852715	7.36734e+06	-50339.1	955.819	-29756.4	0.000000	0.000000	6.853040	-0.010860	NaN	0.000000	0.001624	0.001592	28.0787	0.058083	0.001991	29.1757	170.378	-5.894384	-0.021243	0.851375	-0.239444	-0.240784	-0.010860	29.1757	-0.239165	-557.832	1.946769E-5	NaN
234	1.000000	0.862695	7.36734e+06	-50339.1	955.819	-29756.4	0.000000	0.000000	6.863019	-0.044025	NaN	0.000000	0.001660	0.001615	28.0784	0.027036	0.001991	13.5779	107.232	177.052	-0.042173	0.861388	-0.229464	-0.230771	-0.044025	13.5779	-0.227033	-359.403	0.000122	NaN
234	1.000000	0.872705	7.36734e+06	-50339.1	955.819	-29756.4	0.000000	0.000000	6.873028	-0.070687	NaN	0.000000	0.001641	0.001587	28.0786	0.044262	0.002006	22.0595	38.1086	-2.182770	0.005156	0.871350	-0.219454	-0.220809	-0.070687	22.0595	-0.217051	-249.151	0.000284	NaN
234	1.000000	0.882721	7.36734e+06	-50339.1	955.819	-29756.4	0.000000	0.000000	6.883045	-0.032195	NaN	0.000000	0.001634	0.001579	28.0798	0.020664	0.001909	10.826	68.2942	173.688	-0.064236	0.881419	-0.209438	-0.210740	-0.032195	10.826	-0.207208	-172.789	0.000186	NaN
234	1.000000	0.892720	7.36734e+06	-50339.1	955.819	-29756.4	0.000000	0.000000	6.893046	0.006050	NaN	0.000000	0.001663	0.001543	28.0797	0.029282	0.001945	15.0527	178.213	-4.429541	0.054599	0.891358	-0.199440	-0.200801	0.006050	15.0527	-0.199741	-130.449	-4.637693E-5	NaN
234	1.000000	0.902736	7.36734e+06	-50339.1	955.818	-29756.4	0.000000	0.000000	6.903062	0.020643	NaN	0.000000	0.001638	0.001573	28.0797	0.045626	0.002040	22.3647	1.909591	177.334	0.000546	0.901370	-0.189423	-0.190789	0.020643	22.3647	-0.190116	-90.3564	-0.000228	NaN
234	1.000000	0.912725	7.36734e+06	-50339.1	955.818	-29756.4	0.000000	0.000000	6.913053	0.052786	NaN	0.000000	0.001660	0.001559	28.0797	0.096496	0.002024	47.6765	178.698	-5.979949	0.028196	0.911372	-0.179434	-0.180787	0.052786	47.6765	-0.180265	-61.6556	-0.000856	NaN
234	1.000000	0.922734	7.36734e+06	-50339.1	955.818	-29756.4	0.000000	0.000000	6.923061	0.016349	NaN	0.000000	0.001633	0.001539	28.0798	0.092879	0.002003	46.3742	103.209	173.414	0.104252	0.921358	-0.169425	-0.170801	0.016349	46.3742	-0.169689	-40.5708	-0.000403	NaN
234	1.000000	0.932741	7.36734e+06	-50339.1	955.82	-29756.4	0.000000	0.000000	6.933071	0.102585	NaN	0.000000	0.001649	0.001568	28.0798	0.022536	0.001994	11.3001	27.3112	-3.072414	0.046341	0.931420	-0.159418	-0.160740	0.102585	11.3001	-0.166227	-35.304	-0.002906	NaN
234	1.000000	0.942756	7.36734e+06	-50339.1	955.818	-29756.4	0.000000	0.000000	6.943084	0.057715	NaN	0.000000	0.001681	0.001578	28.0798	0.108492	0.001876	57.8248	-134.181	176.908	0.013994	0.941426	-0.149403	-0.150733	0.057715	57.8248	-0.150151	-18.2291	-0.003166	NaN
234	1.000000	0.952751	7.36734e+06	-50339.1	955.819	-29756.4	0.000000	0.000000	6.953078	0.033654	NaN	0.000000	0.001648	0.001563	28.0795	0.033990	0.001960	17.3416	41.5457	-5.720832	-0.001632	0.951376	-0.139408	-0.140783	0.033654	17.3416	-0.140864	-12.2792	-0.002741	NaN
234	1.000000	0.962745	7.36734e+06	-50339.1	955.818	-29756.4	0.000000	0.000000	6.963073	0.056553	NaN	0.000000	0.001655	0.001581	28.0799	0.074719	0.002075	36.0114	-47.2778	176.544	0.051305	0.961410	-0.129414	-0.130749	0.056553	36.0114	-0.130592	-7.825176	-0.007227	NaN
234	1.000000	0.972750	7.36734e+06	-50339.1	955.819	-29756.4	0.000000	0.000000	6.973076	0.007138	NaN	0.000000	0.001660	0.001611	28.0801	0.031648	0.001957	16.1753	165.087	-7.223489	0.010698	0.971410	-0.119410	-0.120749	0.007138	16.1753	-0.119740	-4.773549	-0.001495	NaN
234	1.000000	0.982750	7.36734e+06	-50339.1	955.818	-29756.4	0.000000	0.000000	6.983077	0.027728	NaN	0.000000	0.001673	0.001604	28.0797	0.095304	0.001968	48.4311	-8.030135	174.151	0.046541	0.981432	-0.109409	-0.110728	0.027728	48.4311	-0.109838	-2.981683	-0.009299	NaN
234	1.000000	0.992736	7.36734e+06	-50339.1	955.82	-29756.4	0.000000	0.000000	6.993061	-0.010510	NaN	0.000000	0.001623	0.001576	28.0799	0.020017	0.002025	9.886467	-2.207515	-4.660732	0.047492	0.991358	-0.099423	-0.100801	-0.010510	9.886467	-0.098626	-1.702957	0.006172	NaN
234	1.000000	1.002741	7.36734e+06	-50339.1	955.819	-29756.4	0.000000	0.000000	7.003067	0.000723	NaN	0.000000	0.001660	0.001579	28.0797	0.131434	0.002038	64.4814	3.977636	176.194	0.031556	1.001410	-0.089418	-0.090749	0.000723	64.4814	-0.089427	-1.047955	-0.000690	NaN
234	1.000000	1.012760	7.36734e+06	-50339.1	955.819	-29756.4	0.000000	0.000000	7.013088	0.044668	NaN	0.000000	0.001661	0.001575	28.0785	0.003435	0.001917	1.792203	-141.126	-9.200064	0.093550	1.011411	-0.079399	-0.080748	0.044668	1.792203	-0.098092	-1.656725	-0.026962	NaN
234	1.000000	1.022761	7.36734e+06	-50339.1	955.818	-29756.4	0.000000	0.000000	7.023087	0.011550	NaN	0.000000	0.001694	0.001574	28.0785	0.058004	0.001913	30.3141	67.5502	171.73	0.038335	1.021470	-0.069398	-0.070689	0.011550	30.3141	-0.069684	-0.334515	-0.034527	NaN
234	1.000000	1.032777	7.36734e+06	-50339.1	955.817	-29756.4	0.000000	0.000000	7.033103	0.006993	NaN	0.000000	0.001648	0.001581	28.0784	0.058974	0.002040	28.9043	-172.416	-3.623369	-0.084568	1.031431	-0.059383	-0.060728	0.006993	28.9043	-0.059564	-0.174974	-0.039967	NaN
234	1.000000	1.042768	7.36734e+06	-50339.1	955.818	-29756.4	0.000000	0.000000	7.043092	-0.037147	NaN	0.000000	0.001676	0.001599	28.0786	0.062586	0.001983	31.5543	140.402	175.158	0.087690	1.041433	-0.049392	-0.050726	-0.037147	31.5543	-0.048509	-0.082228	0.451757	NaN
234	1.000000	1.052773	7.36734e+06	-50339.1	955.819	-29756.4	0.000000	0.000000	7.053098	-0.004768	NaN	0.000000	0.001689	0.001603	28.0785	0.049719	0.001878	26.4681	-126.441	-5.350115	0.066233	1.051433	-0.039386	-0.040726	-0.004768	26.4681	-0.039251	-0.042918	0.111095	NaN
234	1.000000	1.062798	7.36734e+06	-50339.1	955.818	-29756.4	0.000000	0.000000	7.063126	0.049293	NaN	0.000000	0.001648	0.001618	28.0786	0.028851	0.001841	15.672	21.6038	177.414	0.168652	1.061460	-0.029361	-0.030699	0.049293	15.672	-0.031720	-0.025729	-1.915820	NaN
234	1.000000	1.072791	7.36734e+06	-50339.1	955.818	-29756.4	0.000000	0.000000	7.073114	-0.054080	NaN	0.000000	0.001672	0.001588	28.0785	0.106521	0.002032	52.4133	-159.65	-5.566059	0.004239	1.071442	-0.019368	-0.020718	-0.054080	52.4133	-0.018594	-0.011564	4.676595	NaN
234	1.000000	1.082818	7.36734e+06	-50339.1	955.819	-29756.4	0.000000	0.000000	7.083145	0.025310	NaN	0.000000	0.001658	0.001614	28.0787	0.072604	0.001908	38.0492	-98.0085	171.615	-0.007669	1.081430	-0.009341	-0.010729	0.025310	38.0492	-0.009840	-0.006296	-4.020093	NaN
234	1.000000	1.092780	7.36734e+06	-50339.1	955.819	-29756.4	0.000000	0.000000	7.093106	0.005359	NaN	0.000000	0.001693	0.001646	28.0785	0.022243	0.002026	10.9813	-35.3131	-5.399279	0.102031	1.091386	0.000621	-0.000773	0.005359	10.9813	0.000255	0.000191	28.0295	725.56
234	1.000000	1.102765	7.36734e+06	-50339.1	955.82	-29756.4	0.000000	0.000000	7.103306	5.236498	NaN	0.000000	0.001667	0.001587	28.0784	6.306903	0.001857	3395.9	14.1243	171.194	3.955239	1.101474	0.010606	0.009315	5.236498	3395.9	0.009450	0.008576	610.577	33502.5
234	2.000000	1.107943	7.36734e+06	-50339.1	955.82	-29756.4	0.000000	0.000000	7.108685	10.1216	NaN	0.000000	0.001769	0.001588	28.0785	10.9838	0.001785	6154.6	7.897527	-12.0763	9.270285	1.107593	0.015784	0.015434	10.1216	6154.6	0.014550	0.014690	689.005	46393.7
234	2.000000	1.110388	7.36734e+06	-50339.1	955.82	-29756.4	0.000000	0.000000	7.111339	15.1951	NaN	0.000000	0.001732	0.001609	28.0796	14.3902	0.001737	8282.93	6.872607	167.013	14.5942	1.110063	0.018229	0.017904	15.1951	8282.93	0.016853	0.017836	851.928	56664
234	2.000000	1.112878	7.36734e+06	-50339.1	955.82	-29756.4	0.000000	0.000000	7.114050	20.5829	NaN	0.000000	0.001732	0.001610	28.0784	16.8689	0.001750	9637.51	5.417486	-13.3157	19.0282	1.112571	0.020719	0.020412	20.5829	9637.51	0.019117	0.021174	972.074	60511.1
234	2.000000	1.115430	7.36734e+06	-50339.1	955.819	-29756.4	0.000000	0.000000	7.116843	26.4169	NaN	0.000000	0.001702	0.001615	28.079	19.7544	0.001583	12479.9	10.2485	159.257	28.0012	1.115023	0.023271	0.022864	26.4169	12479.9	0.021684	0.025257	1045.9	71744.7
234	2.000000	1.117891	7.36734e+06	-50339.1	955.819	-29756.4	0.000000	0.000000	7.119451	29.9944	NaN	0.000000	0.001733	0.001593	28.0797	23.0645	0.001726	13363.2	6.172884	-17.0448	29.4611	1.117592	0.025732	0.025433	29.9944	13363.2	0.024049	0.029308	1023.42	71316.9
234	2.000000	1.120343	7.36734e+06	-50339.1	955.819	-29756.4	0.000000	0.000000	7.122122	35.3349	NaN	0.000000	0.001733	0.001586	28.0805	26.0437	0.001901	13702.5	7.154138	160.904	33.7381	1.120071	0.028184	0.027912	35.3349	13702.5	0.026250	0.033329	1060.18	68574.4
234	2.000000	1.122902	7.36734e+06	-50339.1	955.819	-29756.4	0.000000	0.000000	7.124957	42.0427	NaN	0.000000	0.001731	0.001603	28.0797	27.6182	0.001833	15064.6	1.724073	-13.9073	42.0111	1.122536	0.030743	0.030377	42.0427	15064.6	0.028650	0.037991	1106.63	70613.6
234	2.000000	1.125321	7.36734e+06	-50339.1	955.819	-29756.4	0.000000	0.000000	7.127566	46.6658	NaN	0.000000	0.001735	0.001602	28.0805	29.742	0.001801	16512.9	3.824614	163.005	44.96	1.125088	0.033162	0.032929	46.6658	16512.9	0.031042	0.042932	1086.97	72812.5
234	2.000000	1.127853	7.36734e+06	-50339.1	955.82	-29756.4	0.000000	0.000000	7.130417	54.4169	NaN	0.000000	0.001715	0.001611	28.0797	33.2215	0.001987	16723.1	6.871648	-19.4868	54.0714	1.127514	0.035694	0.035355	54.4169	16723.1	0.033254	0.047758	1139.43	69914.3
234	2.000000	1.130308	7.36734e+06	-50339.1	955.819	-29756.4	0.000000	0.000000	7.133170	61.6922	NaN	0.000000	0.001690	0.001616	28.0812	34.7298	0.001959	17725.3	1.725336	165.959	59.6307	1.130075	0.038148	0.037916	61.6922	17725.3	0.035538	0.053006	1163.86	70339.9
234	2.000000	1.132851	7.36734e+06	-50339.1	955.819	-29756.4	0.000000	0.000000	7.136102	71.1187	NaN	0.000000	0.001694	0.001602	28.0798	36.7279	0.001719	21364.1	6.301928	-22.1264	69.6386	1.132492	0.040692	0.040333	71.1187	21364.1	0.038196	0.059448	1196.32	80055
234	2.000000	1.135266	7.36734e+06	-50339.1	955.82	-29756.4	0.000000	0.000000	7.138837	78.9211	NaN	0.000000	0.001619	0.001635	28.0799	38.3622	0.001855	20683.6	5.203300	160.891	77.409	1.134919	0.043107	0.042760	78.9211	20683.6	0.040245	0.064663	1220.5	74314.1
234	2.000000	1.137735	7.36734e+06	-50339.1	955.82	-29756.4	0.000000	0.000000	7.141717	88.9125	NaN	0.000000	0.001643	0.001599	28.0799	41.4484	0.001675	24751.6	5.870157	-22.6604	85.2025	1.137499	0.045576	0.045340	88.9125	24751.6	0.042882	0.071687	1240.29	84460.8
234	2.000000	1.140310	7.36734e+06	-50339.1	955.819	-29756.4	0.000000	0.000000	7.144785	100.889	NaN	0.000000	0.001669	0.001610	28.0807	44.3931	0.001834	24204.2	3.270373	160.372	98.9666	1.139963	0.048151	0.047804	100.889	24204.2	0.045025	0.077658	1299.13	79354.2
234	2.000000	1.142804	7.36734e+06	-50339.1	955.819	-29756.4	0.000000	0.000000	7.147715	111.505	NaN	0.000000	0.001623	0.001584	28.0799	45.8256	0.001802	25424	2.465340	-18.4895	108.589	1.142398	0.050645	0.050239	111.505	25424	0.047356	0.084416	1320.89	79947.5
234	2.000000	1.145271	7.36734e+06	-50339.1	955.819	-29756.4	0.000000	0.000000	7.150596	121.58	NaN	0.000000	0.001618	0.001608	28.0799	48.8455	0.001852	26373.1	5.447704	158.033	119.936	1.144950	0.053111	0.052791	121.58	26373.1	0.049654	0.091347	1330.97	79723.9
234	2.000000	1.147772	7.36734e+06	-50339.1	955.819	-29756.4	0.000000	0.000000	7.153493	131.213	NaN	0.000000	0.001631	0.001607	28.08	51.2058	0.001908	26835	3.272055	-20.0498	128.541	1.147442	0.055612	0.055283	131.213	26835	0.051945	0.098521	1331.83	78110.7
234	2.000000	1.150278	7.36734e+06	-50339.1	955.819	-29756.4	0.000000	0.000000	7.156401	140.976	NaN	0.000000	0.001611	0.001628	28.0802	53.6637	0.001797	29865.4	2.599197	159.425	138.575	1.149954	0.058119	0.057795	140.976	29865.4	0.054579	0.107089	1316.44	83381.5
234	2.000000	1.152803	7.36734e+06	-50339.1	955.819	-29756.4	0.000000	0.000000	7.159669	159.053	NaN	0.000000	0.001615	0.001615	28.0786	54.6361	0.001718	31810.7	5.218875	-22.292	157.836	1.152376	0.060644	0.060217	159.053	31810.7	0.056894	0.114907	1384.19	85738.1
234	2.000000	1.155312	7.36734e+06	-50339.1	955.82	-29756.4	0.000000	0.000000	7.162626	169.954	NaN	0.000000	0.001623	0.001557	28.0787	57.4781	0.001732	33193.1	3.486429	157.535	170.167	1.155014	0.063153	0.062854	169.954	33193.1	0.059313	0.123355	1377.76	86346.1
234	2.000000	1.157788	7.36734e+06	-50339.1	955.819	-29756.4	0.000000	0.000000	7.165600	182.043	NaN	0.000000	0.001595	0.001593	28.0784	60.2013	0.001667	36104.9	3.501350	-22.9898	180.787	1.157519	0.065629	0.065360	182.043	36104.9	0.061847	0.132516	1373.74	90616.2
234	2.000000	1.160273	7.36734e+06	-50339.1	955.819	-29756.4	0.000000	0.000000	7.168494	192.002	NaN	0.000000	0.001647	0.001565	28.0788	63.7206	0.001807	35272	3.826980	156.638	190.265	1.160060	0.068114	0.067901	192.002	35272	0.064031	0.140659	1365.02	85925.2
234	2.000000	1.162764	7.36734e+06	-50339.1	955.819	-29756.4	0.000000	0.000000	7.172053	217.951	NaN	0.000000	0.001645	0.001581	28.0784	64.7773	0.001749	37040.7	3.423127	-22.525	213.341	1.162350	0.070605	0.070191	217.951	37040.7	0.066192	0.148944	1463.3	87688.1
234	2.000000	1.165212	7.36734e+06	-50339.1	955.818	-29756.4	0.000000	0.000000	7.174832	226.022	NaN	0.000000	0.001667	0.001591	28.0785	67.6453	0.001697	39864.7	5.037461	154.277	222.291	1.165039	0.073053	0.072880	226.022	39864.7	0.068800	0.159243	1419.36	91270.9
234	2.000000	1.167703	7.36734e+06	-50339.1	955.819	-29756.4	0.000000	0.000000	7.178127	245.558	NaN	0.000000	0.001669	0.001580	28.0783	68.874	0.001797	38336.9	1.364898	-21.2242	239.068	1.167341	0.075544	0.075182	245.558	38336.9	0.070740	0.167112	1469.42	85681.5
234	2.000000	1.170268	7.36734e+06	-50339.1	955.819	-29756.4	0.000000	0.000000	7.181022	253.593	NaN	0.000000	0.001707	0.001553	28.0795	72.1293	0.001766	40845	2.069631	156.909	250.718	1.170080	0.078109	0.077921	253.593	40845	0.073453	0.178416	1421.36	88347.7
234	2.000000	1.172808	7.36734e+06	-50339.1	955.818	-29756.4	0.000000	0.000000	7.184436	274.861	NaN	0.000000	0.001685	0.001585	28.0783	73.9187	0.001791	41278.1	4.225953	-24.194	274.132	1.172428	0.080649	0.080269	274.861	41278.1	0.075655	0.187849	1463.2	87014
234	2.000000	1.175254	7.36734e+06	-50339.1	955.819	-29756.4	0.000000	0.000000	7.187705	294.876	NaN	0.000000	0.001697	0.001606	28.0786	76.2337	0.001811	42093.7	6.783832	152.634	293.717	1.174891	0.083095	0.082732	294.876	42093.7	0.077841	0.197438	1493.52	86551.7
234	2.000000	1.177707	7.36734e+06	-50339.1	955.819	-29756.4	0.000000	0.000000	7.190647	306.768	NaN	0.000000	0.001706	0.001539	28.0785	78.8714	0.001789	44075.1	3.546655	-24.2659	302.261	1.177369	0.085548	0.085210	306.768	44075.1	0.080327	0.208617	1470.48	88164.1
234	2.000000	1.180249	7.36734e+06	-50339.1	955.819	-29756.4	0.000000	0.000000	7.194048	327.63	NaN	0.000000	0.001669	0.001581	28.0785	81.7135	0.001779	45936.3	3.183474	155.714	325.925	1.179944	0.088090	0.087785	327.63	45936.3	0.082741	0.219743	1490.97	89530.6
234	2.000000	1.182768	7.36734e+06	-50339.1	955.818	-29756.4	0.000000	0.000000	7.197505	350.472	NaN	0.000000	0.001685	0.001594	28.0786	83.2557	0.001747	47668.9	5.252467	-26.2181	349.13	1.182402	0.090608	0.090243	350.472	47668.9	0.085094	0.230852	1518.17	90644.5
234	2.000000	1.185280	7.36734e+06	-50339.1	955.818	-29756.4	0.000000	0.000000	7.200583	364.221	NaN	0.000000	0.001781	0.001595	28.0798	85.6285	0.001729	49518.5	3.730312	154.502	364.404	1.184951	0.093121	0.092792	364.221	49518.5	0.087604	0.242982	1498.97	91781.2
234	2.000000	1.187616	7.36734e+06	-50339.1	955.818	-29756.4	0.000000	0.000000	7.203519	378.809	NaN	0.000000	0.001781	0.001551	28.0797	89.501	0.001804	49621.8	8.655776	-30.997	370.873	1.187297	0.095457	0.095138	378.809	49621.8	0.089732	0.253490	1494.38	90046.2
234	2.000000	1.190230	7.36734e+06	-50339.1	955.819	-29756.4	0.000000	0.000000	7.207083	401.922	NaN	0.000000	0.001680	0.001572	28.0796	91.8679	0.001816	50578.9	6.422458	151.148	399.796	1.189889	0.098071	0.097730	401.922	50578.9	0.092111	0.265487	1513.9	89685.1
234	2.000000	1.192835	7.36734e+06	-50339.1	955.817	-29756.4	0.000000	0.000000	7.210476	421.073	NaN	0.000000	0.001720	0.001587	28.0794	92.3631	0.001740	53097.5	2.215039	-23.9107	421.82	1.192366	0.100676	0.100207	421.073	53097.5	0.094729	0.278986	1509.3	91845
234	2.000000	1.195249	7.36734e+06	-50339.1	955.818	-29756.4	0.000000	0.000000	7.213580	437.87	NaN	0.000000	0.001748	0.001597	28.0797	95.2094	0.001900	50122.4	-0.596276	159.109	438.54	1.194861	0.103090	0.102702	437.87	50122.4	0.096538	0.288499	1517.75	85257.5
234	2.000000	1.197708	7.36734e+06	-50339.1	955.818	-29756.4	0.000000	0.000000	7.216830	457.1	NaN	0.000000	0.001718	0.001585	28.0797	99.2314	0.001896	52324.9	3.609329	-25.4016	455.272	1.197358	0.105549	0.105199	457.1	52324.9	0.098997	0.301669	1515.24	87039.5
234	2.000000	1.200273	7.36734e+06	-50339.1	955.818	-29756.4	0.000000	0.000000	7.219958	470.788	NaN	0.000000	0.001706	0.001578	28.0797	101.37	0.001772	57213.7	4.979962	152.38	471.921	1.199930	0.108113	0.107771	470.788	57213.7	0.101942	0.317802	1481.39	92724.6
234	2.000000	1.202745	7.36734e+06	-50339.1	955.819	-29756.4	0.000000	0.000000	7.223496	496.708	NaN	0.000000	0.001738	0.001557	28.0798	101.939	0.001857	54880.8	3.792568	-25.6029	494.043	1.202489	0.110585	0.110330	496.708	54880.8	0.103797	0.328169	1513.57	87527.6
234	2.000000	1.204804	7.36734e+06	-50339.1	955.818	-29756.4	0.000000	0.000000	7.225864	504.217	NaN	0.000000	0.001734	0.001560	28.08	105.282	0.001884	55893.9	5.469361	-27.7962	504.996	1.204430	0.112645	0.112271	504.217	55893.9	0.105879	0.339984	1483.06	87580.6