File: remote_trans/data/nanoindenter/0828-1/data/Data_2025-08-06,11h17m57s/2025-07-22_16-23-58_1_1074.txt
2025-07-22, 16:23:58, 1
Index	Phase	Displacement	Time	Pos X	Pos Y	Pos Z	Rot A	Rot B	Piezo Z	Force A	Force B	Gripper	Voltage A	Voltage B	Temperature	Amplitude force	Amplitude pos	Stiffness	Phase shift	Phase excitation	Force A raw	Displacement raw	HMax	HMax raw	Real Force	Real Stiffness	Contact Depth	Area	Hardness	Reduced Mod.
[#]	[#]	[um]	[s]	[um]	[um]	[um]	[m°]	[m°]	[um]	[uN]	[uN]	[V]	[V]	[V]	[°C]	[uN]	[um]	[N/m]	[°]	[°]	[uN]	[um]	[um]	[um]	[uN]	[N/m]	[um]	[um^2]	[MPa]	[MPa]
1074	1.000000	0.002437	7.37555e+06	-53839.1	1055.82	-29745.1	0.000000	0.000000	6.002784	-0.027809	NaN	0.000000	0.001603	0.001656	28.0835	0.058636	0.000917	63.9614	134.262	-168.111	0.032006	0.001196	-1.107695	-1.108937	-0.027809	63.9614	-1.107369	-6.294750E+14	4.417736E-17	NaN
1074	1.000000	0.012492	7.37555e+06	-53839.1	1055.82	-29745.1	0.000000	0.000000	6.012838	-0.067065	NaN	0.000000	0.001602	0.001648	28.0832	0.053961	0.001322	40.8209	-104.671	18.6285	-0.020454	0.011091	-1.097640	-1.099041	-0.067065	40.8209	-1.096408	-4.485834E+14	1.495050E-16	NaN
1074	1.000000	0.022419	7.37555e+06	-53839.1	1055.82	-29745.1	0.000000	0.000000	6.022767	-0.013265	NaN	0.000000	0.001628	0.001656	28.0832	0.059579	0.001807	32.9689	142.144	-165.361	-0.085272	0.021046	-1.087713	-1.089087	-0.013265	32.9689	-1.087411	-3.396669E+14	3.905310E-17	NaN
1074	1.000000	0.032374	7.37555e+06	-53839.1	1055.82	-29745.1	0.000000	0.000000	6.032722	0.001347	NaN	0.000000	0.001606	0.001670	28.0831	0.048809	0.001906	25.603	-114.682	16.9647	-0.033274	0.031047	-1.077758	-1.079085	0.001347	25.603	-1.077798	-2.523139E+14	-5.337464E-18	NaN
1074	1.000000	0.042426	7.37555e+06	-53839.1	1055.82	-29745.1	0.000000	0.000000	6.042773	-0.005472	NaN	0.000000	0.001570	0.001614	28.0832	0.112223	0.002008	55.8749	-114.101	-165.04	-0.028608	0.041153	-1.067707	-1.068979	-0.005472	55.8749	-1.067633	-1.842436E+14	2.970145E-17	NaN
1074	1.000000	0.052392	7.37555e+06	-53839.1	1055.82	-29745.1	0.000000	0.000000	6.052741	0.001364	NaN	0.000000	0.001556	0.001616	28.083	0.056826	0.001911	29.7333	167.776	15.2445	-0.061300	0.051097	-1.057740	-1.059035	0.001364	29.7333	-1.057774	-1.358030E+14	-1.004088E-17	NaN
1074	1.000000	0.062418	7.37555e+06	-53839.1	1055.82	-29745.1	0.000000	0.000000	6.062768	0.053439	NaN	0.000000	0.001560	0.001619	28.0833	0.063044	0.001930	32.6584	-137.493	-166.523	0.038431	0.061069	-1.047714	-1.049063	0.053439	32.6584	-1.048942	-1.033201E+14	-5.172200E-16	NaN
1074	1.000000	0.072397	7.37555e+06	-53839.1	1055.82	-29745.1	0.000000	0.000000	6.072747	0.042644	NaN	0.000000	0.001591	0.001631	28.0833	0.126590	0.002066	61.2665	-129.16	14.016	0.028115	0.071061	-1.037735	-1.039071	0.042644	61.2665	-1.038257	-7.422124E+13	-5.745466E-16	NaN
1074	1.000000	0.082449	7.37556e+06	-53839.1	1055.82	-29745.1	0.000000	0.000000	6.082796	-0.034947	NaN	0.000000	0.001615	0.001625	28.0834	0.045596	0.001995	22.8507	-151.733	-163.798	-0.011406	0.081089	-1.027683	-1.029044	-0.034947	22.8507	-1.026536	-5.162817E+13	6.768981E-16	NaN
1074	1.000000	0.092412	7.37556e+06	-53839.1	1055.82	-29745.1	0.000000	0.000000	6.092756	-0.088997	NaN	0.000000	0.001651	0.001641	28.0832	0.024661	0.002021	12.2001	-153.842	17.3688	-0.146917	0.091109	-1.017720	-1.019024	-0.088997	12.2001	-1.012249	-3.316308E+13	2.683609E-15	NaN
1074	1.000000	0.102393	7.37556e+06	-53839.1	1055.82	-29745.1	0.000000	0.000000	6.102741	-0.010639	NaN	0.000000	0.001630	0.001634	28.0833	0.046046	0.002132	21.5944	143.996	-164.548	-0.052639	0.101187	-1.007739	-1.008945	-0.010639	21.5944	-1.007370	-2.850874E+13	3.731804E-16	NaN
1074	1.000000	0.112426	7.37556e+06	-53839.1	1055.82	-29745.1	0.000000	0.000000	6.112774	0.006272	NaN	0.000000	0.001649	0.001644	28.0833	0.067036	0.001973	33.9705	141.283	16.1378	0.072741	0.111007	-0.997707	-0.999126	0.006272	33.9705	-0.997845	-2.122061E+13	-2.955478E-16	NaN
1074	1.000000	0.122417	7.37556e+06	-53839.1	1055.82	-29745.1	0.000000	0.000000	6.122765	0.006136	NaN	0.000000	0.001634	0.001649	28.0835	0.019246	0.002013	9.559679	8.328210	-163.995	-0.034528	0.121099	-0.987716	-0.989034	0.006136	9.559679	-0.988197	-1.573367E+13	-3.900020E-16	NaN
1074	1.000000	0.132443	7.37556e+06	-53839.1	1055.82	-29745.1	0.000000	0.000000	6.132792	0.027299	NaN	0.000000	0.001625	0.001611	28.0818	0.084400	0.002003	42.1347	63.5027	11.807	0.034982	0.131089	-0.977690	-0.979043	0.027299	42.1347	-0.978176	-1.153002E+13	-2.367638E-15	NaN
1074	1.000000	0.142432	7.37556e+06	-53839.1	1055.82	-29745.1	0.000000	0.000000	6.142781	0.024557	NaN	0.000000	0.001561	0.001626	28.082	0.061986	0.002096	29.5796	-152.593	-162.265	0.027201	0.141175	-0.967700	-0.968957	0.024557	29.5796	-0.968323	-8.492994E+12	-2.891432E-15	NaN
1074	1.000000	0.152405	7.37556e+06	-53839.1	1055.82	-29745.1	0.000000	0.000000	6.152753	-0.008133	NaN	0.000000	0.001560	0.001619	28.082	0.029973	0.002007	14.9327	88.4945	14.7243	-0.028334	0.151118	-0.957727	-0.959014	-0.008133	14.9327	-0.957319	-6.035592E+12	1.347556E-15	NaN
1074	1.000000	0.162459	7.37556e+06	-53839.1	1055.82	-29745.1	0.000000	0.000000	6.162806	-0.034700	NaN	0.000000	0.001595	0.001619	28.0825	0.099582	0.001983	50.2107	176.141	-162.24	-0.151403	0.161183	-0.947673	-0.948949	-0.034700	50.2107	-0.947155	-4.402016E+12	7.882729E-15	NaN
1074	1.000000	0.172440	7.37556e+06	-53839.1	1055.82	-29745.1	0.000000	0.000000	6.172786	-0.058412	NaN	0.000000	0.001597	0.001598	28.0818	0.080897	0.001885	42.9059	-4.785482	15.4467	0.008471	0.171122	-0.937692	-0.939011	-0.058412	42.9059	-0.936671	-3.178491E+12	1.837718E-14	NaN
1074	1.000000	0.182447	7.37556e+06	-53839.1	1055.82	-29745.1	0.000000	0.000000	6.182795	-0.017963	NaN	0.000000	0.001610	0.001592	28.0821	0.063803	0.002028	31.4685	-41.9352	-163.063	0.004703	0.181211	-0.927685	-0.928921	-0.017963	31.4685	-0.927257	-2.372328E+12	7.572016E-15	NaN
1074	1.000000	0.192477	7.37556e+06	-53839.1	1055.82	-29745.1	0.000000	0.000000	6.192826	0.022088	NaN	0.000000	0.001591	0.001636	28.0821	0.046505	0.002003	23.2179	44.666	17.6547	0.012294	0.191105	-0.917655	-0.919027	0.022088	23.2179	-0.918369	-1.799625E+12	-1.227384E-14	NaN
1074	1.000000	0.202477	7.37556e+06	-53839.1	1055.82	-29745.1	0.000000	0.000000	6.202827	0.026307	NaN	0.000000	0.001618	0.001600	28.0821	0.075917	0.002019	37.6008	-31.2002	-167.839	-0.012857	0.201154	-0.907655	-0.908978	0.026307	37.6008	-0.908180	-1.310921E+12	-2.006794E-14	NaN
1074	1.000000	0.212478	7.37556e+06	-53839.1	1055.82	-29745.1	0.000000	0.000000	6.212827	0.017315	NaN	0.000000	0.001566	0.001639	28.0819	0.132003	0.001860	70.9529	-80.1127	14.3446	0.022847	0.211080	-0.897654	-0.899052	0.017315	70.9529	-0.897837	-9.502487E+11	-1.822185E-14	NaN
1074	1.000000	0.222478	7.37556e+06	-53839.1	1055.82	-29745.1	0.000000	0.000000	6.222825	-0.038473	NaN	0.000000	0.001556	0.001654	28.0825	0.021549	0.001904	11.319	143.625	-167.932	-0.094528	0.221135	-0.887654	-0.888998	-0.038473	11.319	-0.885105	-6.393522E+11	6.017511E-14	NaN
1074	1.000000	0.232498	7.37556e+06	-53839.1	1055.82	-29745.1	0.000000	0.000000	6.232846	-0.002380	NaN	0.000000	0.001612	0.001626	28.0822	0.049276	0.002067	23.8432	127.339	16.5935	0.009354	0.231122	-0.877635	-0.879010	-0.002380	23.8432	-0.877560	-5.054810E+11	4.707736E-15	NaN
1074	1.000000	0.242493	7.37556e+06	-53839.1	1055.82	-29745.1	0.000000	0.000000	6.242838	-0.074884	NaN	0.000000	0.001583	0.001644	28.0821	0.019241	0.001897	10.1424	137.067	-163.786	-0.158613	0.241195	-0.867639	-0.868938	-0.074884	10.1424	-0.862102	-3.122984E+11	2.397845E-13	NaN
1074	1.000000	0.252473	7.37556e+06	-53839.1	1055.82	-29745.1	0.000000	0.000000	6.252821	0.000951	NaN	0.000000	0.001552	0.001597	28.082	0.065753	0.001981	33.1841	-32.6525	15.233	0.007463	0.251087	-0.857660	-0.859046	0.000951	33.1841	-0.857681	-2.721039E+11	-3.494897E-15	NaN
1074	1.000000	0.262493	7.37556e+06	-53839.1	1055.82	-29745.1	0.000000	0.000000	6.262838	-0.081750	NaN	0.000000	0.001599	0.001608	28.0831	0.123592	0.002035	60.742	-162.906	-166.148	-0.008121	0.261162	-0.847639	-0.848971	-0.081750	60.742	-0.846630	-1.927974E+11	4.240180E-13	NaN
1074	1.000000	0.272487	7.37556e+06	-53839.1	1055.82	-29745.1	0.000000	0.000000	6.272835	-0.008941	NaN	0.000000	0.001597	0.001632	28.0832	0.050135	0.002036	24.622	117.923	15.8023	-0.002921	0.271115	-0.837645	-0.839017	-0.008941	24.622	-0.837373	-1.444448E+11	6.189678E-14	NaN
1074	1.000000	0.282491	7.37556e+06	-53839.1	1055.82	-29745.1	0.000000	0.000000	6.282838	-0.022035	NaN	0.000000	0.001565	0.001644	28.0833	0.087908	0.002112	41.6262	20.9658	-164.938	-0.003887	0.281247	-0.827642	-0.828886	-0.022035	41.6262	-0.827245	-1.053023E+11	2.092556E-13	NaN
1074	1.000000	0.292520	7.37556e+06	-53839.1	1055.82	-29745.1	0.000000	0.000000	6.292866	-0.058540	NaN	0.000000	0.001573	0.001644	28.0833	0.097482	0.002024	48.1535	-96.6439	13.4315	-0.067880	0.291151	-0.817613	-0.818981	-0.058540	48.1535	-0.816701	-7.576496E+10	7.726473E-13	NaN
1074	1.000000	0.302519	7.37556e+06	-53839.1	1055.82	-29745.1	0.000000	0.000000	6.302866	-0.045599	NaN	0.000000	0.001631	0.001616	28.0839	0.103104	0.002045	50.4179	130.995	-166.484	-0.051413	0.301231	-0.807613	-0.808901	-0.045599	50.4179	-0.806935	-5.584434E+10	8.165391E-13	NaN
1074	1.000000	0.312506	7.37556e+06	-53839.1	1055.82	-29745.1	0.000000	0.000000	6.312856	0.042384	NaN	0.000000	0.001649	0.001606	28.0834	0.057307	0.002006	28.5732	164.023	13.6073	-0.056724	0.311141	-0.797626	-0.798992	0.042384	28.5732	-0.798739	-4.322557E+10	-9.805349E-13	NaN
1074	1.000000	0.322538	7.37556e+06	-53839.1	1055.82	-29745.1	0.000000	0.000000	6.322884	-0.049017	NaN	0.000000	0.001636	0.001594	28.0837	0.018971	0.001967	9.644468	-30.1206	-165.125	-0.094119	0.321216	-0.787594	-0.788916	-0.049017	9.644468	-0.783783	-2.707875E+10	1.810177E-12	NaN
1074	1.000000	0.332523	7.37556e+06	-53839.1	1055.82	-29745.1	0.000000	0.000000	6.332867	-0.110605	NaN	0.000000	0.001600	0.001654	28.0835	0.057186	0.002007	28.4907	64.8667	13.7136	-0.006682	0.331139	-0.777609	-0.778994	-0.110605	28.4907	-0.774698	-2.037831E+10	5.427568E-12	NaN
1074	1.000000	0.342513	7.37556e+06	-53839.1	1055.82	-29745.1	0.000000	0.000000	6.342858	-0.058038	NaN	0.000000	0.001622	0.001605	28.0838	0.040591	0.001946	20.8617	-83.2063	-162.486	-0.043636	0.341243	-0.767620	-0.768890	-0.058038	20.8617	-0.765533	-1.529552E+10	3.794469E-12	NaN
1074	1.000000	0.352552	7.37556e+06	-53839.1	1055.82	-29745.1	0.000000	0.000000	6.352899	-0.047154	NaN	0.000000	0.001603	0.001631	28.0835	0.051702	0.002034	25.4184	-91.3472	13.6803	-0.033266	0.351164	-0.757580	-0.758968	-0.047154	25.4184	-0.756189	-1.141424E+10	4.131132E-12	NaN
1074	1.000000	0.362511	7.37556e+06	-53839.1	1055.82	-29745.1	0.000000	0.000000	6.362863	0.078017	NaN	0.000000	0.001610	0.001637	28.0835	0.101537	0.001915	53.0273	-111.533	-162.033	0.056654	0.361211	-0.747621	-0.748921	0.078017	53.0273	-0.748725	-9.033547E+9	-8.636310E-12	NaN
1074	1.000000	0.372522	7.37556e+06	-53839.1	1055.82	-29745.1	0.000000	0.000000	6.372870	-0.013199	NaN	0.000000	0.001645	0.001601	28.0836	0.068784	0.002050	33.5495	-131.118	13.7278	-0.053875	0.371163	-0.737610	-0.738969	-0.013199	33.5495	-0.737315	-6.316603E+9	2.089505E-12	NaN
1074	1.000000	0.382534	7.37556e+06	-53839.1	1055.82	-29745.1	0.000000	0.000000	6.382881	-0.023269	NaN	0.000000	0.001611	0.001643	28.0835	0.090852	0.001896	47.906	-119.228	-163.805	0.039586	0.381283	-0.727598	-0.728850	-0.023269	47.906	-0.727234	-4.603676E+9	5.054482E-12	NaN
1074	1.000000	0.392558	7.37556e+06	-53839.1	1055.82	-29745.1	0.000000	0.000000	6.392907	0.024338	NaN	0.000000	0.001635	0.001595	28.0835	0.046272	0.001944	23.8008	-18.3459	12.8319	0.051125	0.391182	-0.717575	-0.718950	0.024338	23.8008	-0.718341	-3.482197E+9	-6.989289E-12	NaN
1074	1.000000	0.402539	7.37556e+06	-53839.1	1055.82	-29745.1	0.000000	0.000000	6.402889	0.049789	NaN	0.000000	0.001676	0.001606	28.0821	0.037509	0.002005	18.7095	123.215	-164.218	-0.020209	0.401229	-0.707594	-0.708904	0.049789	18.7095	-0.709590	-2.645134E+9	-1.882304E-11	NaN
1074	1.000000	0.412566	7.37556e+06	-53839.1	1055.82	-29745.1	0.000000	0.000000	6.412914	-0.002376	NaN	0.000000	0.001647	0.001699	28.0823	0.042703	0.002026	21.0799	-116.14	17.5755	-0.002247	0.411146	-0.697566	-0.698986	-0.002376	21.0799	-0.697482	-1.807740E+9	1.314377E-12	NaN
1074	1.000000	0.422548	7.37556e+06	-53839.1	1055.82	-29745.1	0.000000	0.000000	6.422894	-0.044138	NaN	0.000000	0.001615	0.001661	28.0821	0.040095	0.002069	19.3743	58.9353	-162.539	-0.002244	0.421214	-0.687584	-0.688919	-0.044138	19.3743	-0.685876	-1.254711E+9	3.517810E-11	NaN
1074	1.000000	0.432583	7.37556e+06	-53839.1	1055.82	-29745.1	0.000000	0.000000	6.432933	0.048788	NaN	0.000000	0.001618	0.001645	28.0822	0.034133	0.001944	17.5617	-154.674	15.5205	0.020383	0.431186	-0.677549	-0.678947	0.048788	17.5617	-0.679633	-1.030825E+9	-4.732871E-11	NaN
1074	1.000000	0.442582	7.37556e+06	-53839.1	1055.82	-29745.1	0.000000	0.000000	6.442929	-0.040852	NaN	0.000000	0.001605	0.001659	28.0821	0.081660	0.002054	39.7536	-84.7145	-161.442	-0.013017	0.441294	-0.667550	-0.668838	-0.040852	39.7536	-0.666779	-6.875532E+8	5.941656E-11	NaN
1074	1.000000	0.452580	7.37556e+06	-53839.1	1055.82	-29745.1	0.000000	0.000000	6.452926	-0.038055	NaN	0.000000	0.001625	0.001690	28.0824	0.078087	0.002109	37.0237	126.062	15.1865	0.028772	0.451214	-0.657553	-0.658918	-0.038055	37.0237	-0.656782	-5.016271E+8	7.586274E-11	NaN
1074	1.000000	0.462567	7.37556e+06	-53839.1	1055.82	-29745.1	0.000000	0.000000	6.462915	0.007948	NaN	0.000000	0.001625	0.001686	28.082	0.084702	0.001966	43.0741	111.914	-166.189	0.090937	0.461298	-0.647566	-0.648835	0.007948	43.0741	-0.647704	-3.766668E+8	-2.109968E-11	NaN
1074	1.000000	0.472602	7.37556e+06	-53839.1	1055.82	-29745.1	0.000000	0.000000	6.472951	0.033147	NaN	0.000000	0.001636	0.001620	28.0821	0.025893	0.001869	13.8567	-53.5668	15.9454	-0.064566	0.471271	-0.637530	-0.638862	0.033147	13.8567	-0.639325	-2.890824E+8	-1.146613E-10	NaN
1074	1.000000	0.482584	7.37556e+06	-53839.1	1055.82	-29745.1	0.000000	0.000000	6.482932	-0.007246	NaN	0.000000	0.001618	0.001642	28.0821	0.038264	0.002023	18.9182	161.533	-164.938	0.015937	0.481248	-0.627548	-0.628885	-0.007246	18.9182	-0.627261	-1.974243E+8	3.670220E-11	NaN
1074	1.000000	0.492618	7.37556e+06	-53839.1	1055.82	-29745.1	0.000000	0.000000	6.492969	0.088745	NaN	0.000000	0.001630	0.001643	28.0824	0.022923	0.002087	10.9822	-26.6576	16.2373	0.032418	0.491223	-0.617515	-0.618909	0.088745	10.9822	-0.623575	-1.756995E+8	-5.050941E-10	NaN
1074	1.000000	0.502613	7.37556e+06	-53839.1	1055.82	-29745.1	0.000000	0.000000	6.502962	0.026633	NaN	0.000000	0.001626	0.001663	28.0823	0.115886	0.002051	56.5096	-32.8484	-165.976	0.043149	0.501248	-0.607520	-0.608885	0.026633	56.5096	-0.607873	-1.068682E+8	-2.492097E-10	NaN
1074	1.000000	0.512583	7.37556e+06	-53839.1	1055.82	-29745.1	0.000000	0.000000	6.512930	-0.040442	NaN	0.000000	0.001631	0.001653	28.0822	0.120395	0.002077	57.9634	-29.0787	16.3382	-0.108308	0.511239	-0.597549	-0.598894	-0.040442	57.9634	-0.597026	-7.576933E+7	5.337572E-10	NaN
1074	1.000000	0.522610	7.37556e+06	-53839.1	1055.82	-29745.1	0.000000	0.000000	6.522961	0.056013	NaN	0.000000	0.001639	0.001682	28.0825	0.090750	0.001947	46.6059	-26.9533	-161.468	0.031230	0.521304	-0.587522	-0.588829	0.056013	46.6059	-0.588423	-5.766728E+7	-9.713123E-10	NaN
1074	1.000000	0.532596	7.37556e+06	-53839.1	1055.82	-29745.1	0.000000	0.000000	6.532942	-0.055457	NaN	0.000000	0.001591	0.001696	28.0825	0.057457	0.001956	29.3798	163.548	18.674	-0.041178	0.531242	-0.577536	-0.578891	-0.055457	29.3798	-0.576121	-3.900958E+7	1.421621E-9	NaN
1074	1.000000	0.542619	7.37556e+06	-53839.1	1055.82	-29745.1	0.000000	0.000000	6.542969	0.060066	NaN	0.000000	0.001576	0.001676	28.0834	0.033068	0.002019	16.3804	-19.2077	-166.19	-0.038670	0.541303	-0.567514	-0.568829	0.060066	16.3804	-0.570264	-3.237999E+7	-1.855033E-9	NaN
1074	1.000000	0.552596	7.37556e+06	-53839.1	1055.82	-29745.1	0.000000	0.000000	6.552944	0.005591	NaN	0.000000	0.001587	0.001675	28.0836	0.076286	0.001932	39.4812	-102.351	17.5001	-0.019861	0.551256	-0.557536	-0.558877	0.005591	39.4812	-0.557643	-2.166517E+7	-2.580684E-10	NaN
1074	1.000000	0.562613	7.37556e+06	-53839.1	1055.82	-29745.1	0.000000	0.000000	6.562959	-0.052064	NaN	0.000000	0.001599	0.001693	28.0836	0.108569	0.001892	57.3903	45.0553	-166.512	-0.069917	0.561361	-0.547519	-0.548772	-0.052064	57.3903	-0.546839	-1.535182E+7	3.391415E-9	NaN
1074	1.000000	0.572611	7.37556e+06	-53839.1	1055.82	-29745.1	0.000000	0.000000	6.572958	-0.010052	NaN	0.000000	0.001595	0.001624	28.0836	0.077613	0.001938	40.0403	-132.401	14.6392	-0.008011	0.571272	-0.537522	-0.538861	-0.010052	40.0403	-0.537334	-1.133368E+7	8.869147E-10	NaN
1074	1.000000	0.582646	7.37556e+06	-53839.1	1055.82	-29745.1	0.000000	0.000000	6.582994	-0.000985	NaN	0.000000	0.001595	0.001658	28.0835	0.106256	0.002117	50.1918	169.783	-165.3	-0.061561	0.581292	-0.527486	-0.528840	-0.000985	50.1918	-0.527472	-8.26905e+06	1.190949E-10	NaN
1074	1.000000	0.592640	7.37556e+06	-53839.1	1055.82	-29745.1	0.000000	0.000000	6.592985	-0.077993	NaN	0.000000	0.001575	0.001690	28.0838	0.011329	0.002063	5.492408	16.7885	15.5176	-0.070889	0.591253	-0.517493	-0.518879	-0.077993	5.492408	-0.506843	-4.26998e+06	1.826550E-8	NaN
1074	1.000000	0.602607	7.37556e+06	-53839.1	1055.82	-29745.1	0.000000	0.000000	6.602954	-0.040723	NaN	0.000000	0.001586	0.001699	28.0836	0.142665	0.001970	72.4342	119.681	-162.856	-0.043029	0.601319	-0.507525	-0.508814	-0.040723	72.4342	-0.507103	-4.30585e+06	9.457549E-9	NaN
1074	1.000000	0.612661	7.37556e+06	-53839.1	1055.82	-29745.1	0.000000	0.000000	6.613007	-0.064461	NaN	0.000000	0.001586	0.001666	28.0838	0.084549	0.001911	44.2445	-22.8849	14.223	-0.052029	0.611229	-0.497471	-0.498903	-0.064461	44.2445	-0.496379	-3.05126e+06	2.112584E-8	NaN
1074	1.000000	0.622647	7.37556e+06	-53839.1	1055.82	-29745.1	0.000000	0.000000	6.622993	-0.060842	NaN	0.000000	0.001577	0.001671	28.0836	0.111520	0.002041	54.6352	-117.373	-162.937	-0.052913	0.621344	-0.487485	-0.488788	-0.060842	54.6352	-0.486650	-2.23133e+06	2.726730E-8	NaN
1074	1.000000	0.632641	7.37556e+06	-53839.1	1055.82	-29745.1	0.000000	0.000000	6.632991	0.040373	NaN	0.000000	0.001572	0.001686	28.0839	0.070741	0.002050	34.51	18.5295	14.8407	0.128086	0.631280	-0.477491	-0.478852	0.040373	34.51	-0.478368	-1.70877e+06	-2.362681E-8	NaN
1074	1.000000	0.642644	7.37556e+06	-53839.1	1055.82	-29745.1	0.000000	0.000000	6.642992	0.002147	NaN	0.000000	0.001594	0.001710	28.0836	0.078009	0.002058	37.9077	-21.3663	-161.421	-0.011579	0.641318	-0.467488	-0.468815	0.002147	37.9077	-0.467531	-1.2044e+06	-1.782734E-9	NaN
1074	1.000000	0.652637	7.37556e+06	-53839.1	1055.82	-29745.1	0.000000	0.000000	6.652983	-0.057140	NaN	0.000000	0.001621	0.001675	28.0836	0.071056	0.001956	36.3305	124.184	15.1833	0.014023	0.651297	-0.457495	-0.458836	-0.057140	36.3305	-0.456316	-837959	6.818937E-8	NaN
1074	1.000000	0.662647	7.37556e+06	-53839.1	1055.82	-29745.1	0.000000	0.000000	6.662993	-0.046952	NaN	0.000000	0.001599	0.001666	28.0837	0.092266	0.001942	47.5115	148.27	-168.923	-0.056747	0.661376	-0.447485	-0.448756	-0.046952	47.5115	-0.446744	-614432	7.641538E-8	NaN
1074	1.000000	0.672649	7.37556e+06	-53839.1	1055.82	-29745.1	0.000000	0.000000	6.672995	-0.060533	NaN	0.000000	0.001536	0.001670	28.0826	0.007420	0.002058	3.605879	-62.9265	15.0675	-0.068043	0.671274	-0.437483	-0.438859	-0.060533	3.605879	-0.424893	-301830	2.005523E-7	NaN
1074	1.000000	0.682677	7.37556e+06	-53839.1	1055.82	-29745.1	0.000000	0.000000	6.683026	0.017282	NaN	0.000000	0.001563	0.001664	28.0825	0.090164	0.002014	44.7769	-37.2708	-167.974	0.039587	0.681328	-0.427455	-0.428805	0.017282	44.7769	-0.427745	-331241	-5.217361E-8	NaN
1074	1.000000	0.692697	7.37556e+06	-53839.1	1055.82	-29745.1	0.000000	0.000000	6.693046	0.007792	NaN	0.000000	0.001547	0.001665	28.0821	0.023943	0.001966	12.1806	-177.779	14.0644	0.028111	0.691326	-0.417435	-0.418806	0.007792	12.1806	-0.417915	-240343	-3.241842E-8	NaN
1074	1.000000	0.702667	7.37556e+06	-53839.1	1055.82	-29745.1	0.000000	0.000000	6.703016	0.006546	NaN	0.000000	0.001558	0.001664	28.0825	0.018406	0.002008	9.166734	-47.0494	-163.401	0.028926	0.701365	-0.407465	-0.408767	0.006546	9.166734	-0.408001	-173764	-3.767264E-8	NaN
1074	1.000000	0.712672	7.37556e+06	-53839.1	1055.82	-29745.1	0.000000	0.000000	6.713020	-0.020466	NaN	0.000000	0.001568	0.001665	28.082	0.085379	0.002019	42.2897	94.2285	13.8843	0.005884	0.711288	-0.397460	-0.398845	-0.020466	42.2897	-0.397097	-121500	1.684449E-7	NaN
1074	1.000000	0.722686	7.37556e+06	-53839.1	1055.82	-29745.1	0.000000	0.000000	6.723031	-0.055798	NaN	0.000000	0.001593	0.001663	28.0822	0.075995	0.002071	36.6907	56.7636	-165.263	-0.040597	0.721372	-0.387447	-0.388760	-0.055798	36.6907	-0.386306	-85172.2	6.551236E-7	NaN
1074	1.000000	0.732694	7.37556e+06	-53839.1	1055.82	-29745.1	0.000000	0.000000	6.733040	-0.048240	NaN	0.000000	0.001558	0.001686	28.0822	0.026698	0.001899	14.0623	-147.883	16.1117	0.070585	0.731367	-0.377438	-0.378765	-0.048240	14.0623	-0.374866	-58363.2	8.265470E-7	NaN
1074	1.000000	0.742683	7.37556e+06	-53839.1	1055.82	-29745.1	0.000000	0.000000	6.743029	-0.058939	NaN	0.000000	0.001536	0.001674	28.0822	0.020672	0.001974	10.4707	92.0479	-163.727	-0.050406	0.741328	-0.367449	-0.368805	-0.058939	10.4707	-0.363227	-39670.6	1.485701E-6	NaN
1074	1.000000	0.752718	7.37556e+06	-53839.1	1055.82	-29745.1	0.000000	0.000000	6.753065	-0.040396	NaN	0.000000	0.001577	0.001697	28.0822	0.028725	0.001977	14.5313	122.608	14.2451	-0.018115	0.751330	-0.357414	-0.358803	-0.040396	14.5313	-0.355329	-30497.3	1.324564E-6	NaN
1074	1.000000	0.762689	7.37556e+06	-53839.1	1055.82	-29745.1	0.000000	0.000000	6.763036	-0.037858	NaN	0.000000	0.001562	0.001682	28.0824	0.079408	0.001899	41.8155	-15.8865	-165.642	-0.038853	0.761403	-0.347443	-0.348730	-0.037858	41.8155	-0.346764	-22908.8	1.652573E-6	NaN
1074	1.000000	0.772711	7.37556e+06	-53839.1	1055.82	-29745.1	0.000000	0.000000	6.773057	-0.039182	NaN	0.000000	0.001562	0.001695	28.0824	0.088022	0.001973	44.6192	133.102	15.2338	-0.052326	0.771346	-0.337422	-0.338787	-0.039182	44.6192	-0.336763	-16380.8	2.391938E-6	NaN
1074	1.000000	0.782731	7.37556e+06	-53839.1	1055.82	-29745.1	0.000000	0.000000	6.783076	-0.079451	NaN	0.000000	0.001579	0.001694	28.0821	0.053914	0.001948	27.6729	-150.239	-166.277	0.017258	0.781418	-0.327402	-0.328715	-0.079451	27.6729	-0.325248	-11111.7	7.150210E-6	NaN
1074	1.000000	0.792718	7.37556e+06	-53839.1	1055.82	-29745.1	0.000000	0.000000	6.793064	-0.051006	NaN	0.000000	0.001562	0.001661	28.0821	0.099072	0.001967	50.3734	-104.822	17.3614	-0.013514	0.791330	-0.317415	-0.318802	-0.051006	50.3734	-0.316655	-8305.49	6.141259E-6	NaN
1074	1.000000	0.802725	7.37556e+06	-53839.1	1055.82	-29745.1	0.000000	0.000000	6.803070	-0.062629	NaN	0.000000	0.001575	0.001681	28.0821	0.009854	0.001998	4.931121	-12.5236	-170.066	-0.139721	0.801394	-0.307408	-0.308738	-0.062629	4.931121	-0.297882	-4376.13	1.431147E-5	NaN
1074	1.000000	0.812723	7.37556e+06	-53839.1	1055.82	-29745.1	0.000000	0.000000	6.813071	0.010258	NaN	0.000000	0.001553	0.001657	28.0837	0.016825	0.002035	8.266807	-177.505	13.4252	-0.027530	0.811341	-0.297410	-0.298792	0.010258	8.266807	-0.298340	-4445.47	-2.307531E-6	NaN
1074	1.000000	0.822737	7.37556e+06	-53839.1	1055.82	-29745.1	0.000000	0.000000	6.823082	-0.077938	NaN	0.000000	0.001548	0.001683	28.0836	0.019217	0.001999	9.614956	-48.7304	-164.518	-0.038315	0.821420	-0.287396	-0.288712	-0.077938	9.614956	-0.281316	-2470.67	3.154529E-5	NaN
1074	1.000000	0.832737	7.37556e+06	-53839.1	1055.82	-29745.1	0.000000	0.000000	6.833087	0.044792	NaN	0.000000	0.001585	0.001663	28.0836	0.026226	0.002010	13.0457	-122.317	15.3755	0.099529	0.831379	-0.277395	-0.278754	0.044792	13.0457	-0.279970	-2357.87	-1.899686E-5	NaN
1074	1.000000	0.842741	7.37556e+06	-53839.1	1055.82	-29745.1	0.000000	0.000000	6.843085	-0.098028	NaN	0.000000	0.001573	0.001651	28.0837	0.081824	0.002012	40.6758	166.478	-163.973	0.001507	0.841470	-0.267391	-0.268663	-0.098028	40.6758	-0.265584	-1426.59	6.871528E-5	NaN
1074	1.000000	0.852728	7.37556e+06	-53839.1	1055.82	-29745.1	0.000000	0.000000	6.853075	-0.024374	NaN	0.000000	0.001537	0.001684	28.0834	0.065226	0.002015	32.3651	-16.301	15.1459	-0.037229	0.851363	-0.257405	-0.258770	-0.024374	32.3651	-0.256840	-1048.13	2.325496E-5	NaN
1074	1.000000	0.862733	7.37556e+06	-53839.1	1055.82	-29745.1	0.000000	0.000000	6.863081	0.017962	NaN	0.000000	0.001583	0.001690	28.0836	0.073333	0.001946	37.68	123.482	-162.28	0.015507	0.861366	-0.247400	-0.248766	0.017962	37.68	-0.247757	-759.005	-2.366470E-5	NaN
1074	1.000000	0.872752	7.37556e+06	-53839.1	1055.82	-29745.1	0.000000	0.000000	6.873098	-0.069303	NaN	0.000000	0.001583	0.001657	28.0835	0.078258	0.001954	40.0588	170.458	16.2876	-0.095526	0.871394	-0.237380	-0.238738	-0.069303	40.0588	-0.236083	-499.157	0.000139	NaN
1074	1.000000	0.882747	7.37556e+06	-53839.1	1055.82	-29745.1	0.000000	0.000000	6.883093	-0.055712	NaN	0.000000	0.001542	0.001691	28.0838	0.137824	0.001956	70.4495	-86.7238	-165.461	-0.004292	0.881450	-0.227385	-0.228683	-0.055712	70.4495	-0.226792	-356.264	0.000156	NaN
1074	1.000000	0.892763	7.37556e+06	-53839.1	1055.82	-29745.1	0.000000	0.000000	6.893110	-0.030190	NaN	0.000000	0.001594	0.001736	28.0835	0.061234	0.002001	30.5982	-12.484	14.7716	0.024755	0.891383	-0.217369	-0.218749	-0.030190	30.5982	-0.216629	-245.299	0.000123	NaN
1074	1.000000	0.902779	7.37556e+06	-53839.1	1055.82	-29745.1	0.000000	0.000000	6.903123	-0.106355	NaN	0.000000	0.001582	0.001677	28.0835	0.087319	0.001969	44.3457	-170.136	-163.788	-0.120900	0.901419	-0.207353	-0.208713	-0.106355	44.3457	-0.205555	-162.406	0.000655	NaN
1074	1.000000	0.912739	7.37556e+06	-53839.1	1055.82	-29745.1	0.000000	0.000000	6.913086	-0.040446	NaN	0.000000	0.001574	0.001699	28.0836	0.086053	0.001896	45.3814	11.2231	12.7443	0.048591	0.911409	-0.197393	-0.198723	-0.040446	45.3814	-0.196725	-116.341	0.000348	NaN
1074	1.000000	0.922765	7.37556e+06	-53839.1	1055.82	-29745.1	0.000000	0.000000	6.923115	0.040848	NaN	0.000000	0.001602	0.001706	28.0838	0.040485	0.002153	18.804	8.412264	-163.949	0.053239	0.921412	-0.187367	-0.188720	0.040848	18.804	-0.188996	-86.5455	-0.000472	NaN
1074	1.000000	0.932722	7.37556e+06	-53839.1	1055.82	-29745.1	0.000000	0.000000	6.933071	0.018870	NaN	0.000000	0.001622	0.001709	28.0836	0.018623	0.001964	9.482981	-131.714	16.9712	0.105215	0.931398	-0.177410	-0.178734	0.018870	9.482981	-0.178903	-58.4493	-0.000323	NaN
1074	1.000000	0.942789	7.37556e+06	-53839.1	1055.82	-29745.1	0.000000	0.000000	6.943138	0.029204	NaN	0.000000	0.001613	0.001694	28.0833	0.118791	0.002079	57.138	162.335	-164.476	0.015411	0.941439	-0.167344	-0.168693	0.029204	57.138	-0.167727	-37.501	-0.000779	NaN
1074	1.000000	0.952767	7.37556e+06	-53839.1	1055.82	-29745.1	0.000000	0.000000	6.953115	-0.012070	NaN	0.000000	0.001553	0.001724	28.0825	0.090580	0.001898	47.7206	176.227	14.4568	0.054830	0.951385	-0.157365	-0.158747	-0.012070	47.7206	-0.157176	-24.4132	0.000494	NaN
1074	1.000000	0.962764	7.37556e+06	-53839.1	1055.82	-29745.1	0.000000	0.000000	6.963114	0.061004	NaN	0.000000	0.001540	0.001648	28.0823	0.055210	0.002086	26.4621	135.738	-164.582	-0.003080	0.961458	-0.147369	-0.148674	0.061004	26.4621	-0.149098	-17.4394	-0.003498	NaN
1074	1.000000	0.972774	7.37556e+06	-53839.1	1055.82	-29745.1	0.000000	0.000000	6.973123	0.008975	NaN	0.000000	0.001549	0.001732	28.0824	0.086548	0.002115	40.9188	158.243	12.2618	-0.022254	0.971464	-0.137358	-0.138668	0.008975	40.9188	-0.137523	-10.623	-0.000845	NaN
1074	1.000000	0.982782	7.37556e+06	-53839.1	1055.82	-29745.1	0.000000	0.000000	6.983131	0.007039	NaN	0.000000	0.001532	0.001702	28.0824	0.010216	0.002001	5.106115	115.544	-165.621	-0.004542	0.981495	-0.127350	-0.128638	0.007039	5.106115	-0.128384	-7.088154	-0.000993	NaN
1074	1.000000	0.992779	7.37556e+06	-53839.1	1055.82	-29745.1	0.000000	0.000000	6.993126	-0.018618	NaN	0.000000	0.001510	0.001706	28.0824	0.075204	0.002071	36.3073	142.311	13.7876	-0.014997	0.991432	-0.117354	-0.118701	-0.018618	36.3073	-0.116969	-4.192992	0.004440	NaN
1074	1.000000	1.002787	7.37556e+06	-53839.1	1055.82	-29745.1	0.000000	0.000000	7.003134	-0.038968	NaN	0.000000	0.001518	0.001689	28.0822	0.055037	0.002106	26.1349	-40.5495	-166.491	-0.008047	1.001485	-0.107345	-0.108648	-0.038968	26.1349	-0.106227	-2.498000	0.015600	NaN
1074	1.000000	1.012806	7.37556e+06	-53839.1	1055.82	-29745.1	0.000000	0.000000	7.013152	-0.049203	NaN	0.000000	0.001562	0.001682	28.0822	0.099856	0.001886	52.936	-86.879	17.7504	-0.033123	1.011424	-0.097327	-0.098709	-0.049203	52.936	-0.096630	-1.535944	0.032035	NaN
1074	1.000000	1.022796	7.37556e+06	-53839.1	1055.82	-29745.1	0.000000	0.000000	7.023145	0.009897	NaN	0.000000	0.001569	0.001732	28.0821	0.078915	0.001976	39.9445	100.782	-165.508	-0.011048	1.021466	-0.087336	-0.088666	0.009897	39.9445	-0.087522	-0.944564	-0.010477	NaN
1074	1.000000	1.032792	7.37556e+06	-53839.1	1055.82	-29745.1	0.000000	0.000000	7.033135	-0.131684	NaN	0.000000	0.001574	0.001731	28.0822	0.144384	0.001929	74.8501	-100.526	15.38	-0.041278	1.031479	-0.077340	-0.078653	-0.131684	74.8501	-0.076020	-0.490711	0.268354	NaN
1074	1.000000	1.042807	7.37556e+06	-53839.1	1055.82	-29745.1	0.000000	0.000000	7.043153	-0.048022	NaN	0.000000	0.001552	0.001720	28.0821	0.066688	0.002034	32.7938	137.898	-167.394	0.048729	1.041496	-0.067326	-0.068636	-0.048022	32.7938	-0.066227	-0.269452	0.178222	NaN
1074	1.000000	1.052816	7.37556e+06	-53839.1	1055.82	-29745.1	0.000000	0.000000	7.053160	-0.097847	NaN	0.000000	0.001516	0.001717	28.0822	0.060972	0.001954	31.2055	123.371	13.2518	-0.040345	1.051455	-0.057317	-0.058677	-0.097847	31.2055	-0.054965	-0.128470	0.761632	NaN
1074	1.000000	1.062804	7.37556e+06	-53839.1	1055.82	-29745.1	0.000000	0.000000	7.063153	0.020114	NaN	0.000000	0.001558	0.001702	28.0823	0.097018	0.001853	52.348	93.6751	-167.209	-0.009471	1.061472	-0.047328	-0.048660	0.020114	52.348	-0.047616	-0.077245	-0.260399	NaN
1074	1.000000	1.072809	7.37556e+06	-53839.1	1055.82	-29745.1	0.000000	0.000000	7.073152	-0.116609	NaN	0.000000	0.001583	0.001706	28.0821	0.044984	0.001972	22.8163	61.8985	15.7181	-0.054252	1.071447	-0.037324	-0.038686	-0.116609	22.8163	-0.033491	-0.028930	4.030774	NaN
1074	1.000000	1.082856	7.37556e+06	-53839.1	1055.82	-29745.1	0.000000	0.000000	7.083204	-0.003578	NaN	0.000000	0.001596	0.001695	28.0833	0.111608	0.002049	54.468	-157.849	-166.222	-0.073757	1.081555	-0.027276	-0.028578	-0.003578	54.468	-0.027227	-0.019324	0.185176	NaN
1074	1.000000	1.092814	7.37556e+06	-53839.1	1055.82	-29745.1	0.000000	0.000000	7.093161	-0.035931	NaN	0.000000	0.001566	0.001672	28.0834	0.088217	0.002079	42.431	-66.4551	13.6143	-0.024979	1.091501	-0.017318	-0.018631	-0.035931	42.431	-0.016683	-0.010309	3.485338	NaN
1074	1.000000	1.102864	7.37556e+06	-53839.1	1055.82	-29745.1	0.000000	0.000000	7.103211	-0.011531	NaN	0.000000	0.001556	0.001685	28.0834	0.099091	0.002096	47.2674	-168.776	-167.371	-0.047479	1.101496	-0.007269	-0.008636	-0.011531	47.2674	-0.007086	-0.004692	2.457759	NaN
1074	1.000000	1.112824	7.37556e+06	-53839.1	1055.82	-29745.1	0.000000	0.000000	7.113295	2.993458	NaN	0.000000	0.001550	0.001693	28.0835	3.755675	0.001917	1958.76	10.9895	10.6868	1.757656	1.111440	0.002692	0.001308	2.993458	1958.76	0.001546	0.001191	2514.17	51863.7
1074	2.000000	1.119507	7.37556e+06	-53839.1	1055.82	-29745.1	0.000000	0.000000	7.120212	8.670076	NaN	0.000000	0.001532	0.001686	28.0833	9.357248	0.001729	5410.63	10.9513	-175.175	9.911626	1.119160	0.009375	0.009028	8.670076	5410.63	0.008173	0.007221	1200.74	58174.6
1074	2.000000	1.121910	7.37556e+06	-53839.1	1055.82	-29745.1	0.000000	0.000000	7.122757	12.1338	NaN	0.000000	0.001548	0.001662	28.0837	11.1995	0.001586	7059.86	4.005683	8.528746	10.8573	1.121563	0.011778	0.011431	12.1338	7059.86	0.010489	0.009730	1247.11	65391.6
1074	2.000000	1.124426	7.37556e+06	-53839.1	1055.82	-29745.1	0.000000	0.000000	7.125398	15.1576	NaN	0.000000	0.001577	0.001704	28.0836	13.4006	0.001702	7874.22	6.867657	-175.428	15.0636	1.124082	0.014294	0.013949	15.1576	7874.22	0.012850	0.012524	1210.26	64284.2
1074	2.000000	1.126880	7.37556e+06	-53839.1	1055.82	-29745.1	0.000000	0.000000	7.127963	17.8448	NaN	0.000000	0.001536	0.001709	28.0835	16.2122	0.001723	9406.73	6.845186	4.055076	17.547	1.126563	0.016748	0.016431	17.8448	9406.73	0.015325	0.015722	1135.05	68543
1074	2.000000	1.129378	7.37556e+06	-53839.1	1055.82	-29745.1	0.000000	0.000000	7.130547	19.9512	NaN	0.000000	0.001555	0.001718	28.0836	18.3366	0.001860	9855.83	8.294775	-177.408	20.0212	1.129110	0.019246	0.018977	19.9512	9855.83	0.017728	0.019097	1044.75	65161.2
1074	2.000000	1.131834	7.37556e+06	-53839.1	1055.82	-29745.1	0.000000	0.000000	7.133210	25.0094	NaN	0.000000	0.001567	0.001712	28.0839	20.7141	0.001817	11401.8	6.128961	2.057117	22.4388	1.131465	0.021701	0.021333	25.0094	11401.8	0.020056	0.022631	1105.11	69246.6
1074	2.000000	1.134325	7.37556e+06	-53839.1	1055.82	-29745.1	0.000000	0.000000	7.135884	29.4298	NaN	0.000000	0.001551	0.001710	28.0836	22.7035	0.001851	12266.7	8.923835	178.946	28.3696	1.134060	0.024193	0.023928	29.4298	12266.7	0.022393	0.026444	1112.92	68918.8
1074	2.000000	1.136842	7.37556e+06	-53839.1	1055.82	-29745.1	0.000000	0.000000	7.138724	37.306	NaN	0.000000	0.001526	0.001737	28.0838	24.2348	0.001811	13379.5	8.288971	-1.348788	36.5437	1.136535	0.026709	0.026403	37.306	13379.5	0.024618	0.030324	1230.23	70196.7
1074	2.000000	1.139372	7.37556e+06	-53839.1	1055.82	-29745.1	0.000000	0.000000	7.141261	37.4586	NaN	0.000000	0.001575	0.001727	28.0835	27.3341	0.001766	15479.4	8.939091	175.768	38.427	1.139051	0.029239	0.028919	37.4586	15479.4	0.027424	0.035574	1052.97	74982.5
1074	2.000000	1.141913	7.37556e+06	-53839.1	1055.82	-29745.1	0.000000	0.000000	7.144157	46.0814	NaN	0.000000	0.001565	0.001709	28.0839	28.8619	0.001864	15482.9	3.317529	3.264518	47.1447	1.141520	0.031781	0.031388	46.0814	15482.9	0.029549	0.039814	1157.42	70893.7
1074	2.000000	1.144318	7.37556e+06	-53839.1	1055.82	-29745.1	0.000000	0.000000	7.146814	52.2335	NaN	0.000000	0.001561	0.001759	28.0823	31.7895	0.001742	18247.7	5.965451	177.569	51.6143	1.143953	0.034185	0.033821	52.2335	18247.7	0.032039	0.045075	1158.81	78525.8
1074	2.000000	1.146822	7.37556e+06	-53839.1	1055.82	-29745.1	0.000000	0.000000	7.149445	55.3017	NaN	0.000000	0.001526	0.001728	28.0826	35.4207	0.001866	18983.7	10.3186	-6.599539	55.1918	1.146419	0.036689	0.036286	55.3017	18983.7	0.034504	0.050599	1092.95	77105.6
1074	2.000000	1.149320	7.37556e+06	-53839.1	1055.82	-29745.1	0.000000	0.000000	7.152284	63.5947	NaN	0.000000	0.001579	0.001712	28.0824	36.7304	0.001820	20186.6	4.235165	178.568	62.6273	1.149024	0.039188	0.038891	63.5947	20186.6	0.036825	0.056081	1133.98	77880.4
1074	2.000000	1.151774	7.37556e+06	-53839.1	1055.82	-29745.1	0.000000	0.000000	7.155085	72.0211	NaN	0.000000	0.001582	0.001699	28.0826	38.4752	0.001765	21798.8	6.252894	-3.713037	68.3672	1.151423	0.041642	0.041290	72.0211	21798.8	0.039164	0.061885	1163.78	80059.2
1074	2.000000	1.154241	7.37556e+06	-53839.1	1055.82	-29745.1	0.000000	0.000000	7.157807	78.2356	NaN	0.000000	0.001552	0.001699	28.0822	40.963	0.001926	21263.6	4.355359	178.413	75.3381	1.154043	0.044109	0.043910	78.2356	21263.6	0.041349	0.067562	1157.99	74741.1
1074	2.000000	1.156827	7.37556e+06	-53839.1	1055.82	-29745.1	0.000000	0.000000	7.160807	88.2948	NaN	0.000000	0.001574	0.001710	28.0823	42.9279	0.001777	24153.6	5.592768	-3.525344	89.8061	1.156403	0.046695	0.046271	88.2948	24153.6	0.043953	0.074643	1182.89	80771.7
1074	2.000000	1.159257	7.37556e+06	-53839.1	1055.82	-29745.1	0.000000	0.000000	7.163557	96.0575	NaN	0.000000	0.001578	0.001690	28.082	46.1069	0.001869	24669.2	4.207298	176.043	93.7881	1.159067	0.049125	0.048935	96.0575	24669.2	0.046205	0.081044	1185.25	79171.1
1074	2.000000	1.161815	7.37556e+06	-53839.1	1055.82	-29745.1	0.000000	0.000000	7.166674	109.667	NaN	0.000000	0.001546	0.001701	28.0822	47.7934	0.001826	26180.8	3.975363	-3.047021	108.594	1.161462	0.051683	0.051329	109.667	26180.8	0.048541	0.087958	1246.81	80652.7
1074	2.000000	1.164183	7.37556e+06	-53839.1	1055.82	-29745.1	0.000000	0.000000	7.169419	118.823	NaN	0.000000	0.001570	0.001656	28.082	49.8693	0.001772	28137.2	4.452115	175.037	113.224	1.163877	0.054051	0.053745	118.823	28137.2	0.050884	0.095164	1248.61	83333
1074	2.000000	1.166770	7.37556e+06	-53839.1	1055.82	-29745.1	0.000000	0.000000	7.172431	129.146	NaN	0.000000	0.001578	0.001686	28.0822	52.6726	0.001812	29073.9	5.540598	-5.738879	126.681	1.166404	0.056638	0.056272	129.146	29073.9	0.053307	0.102907	1254.97	82804.4
1074	2.000000	1.169286	7.37556e+06	-53839.1	1055.82	-29745.1	0.000000	0.000000	7.175306	137.893	NaN	0.000000	0.001622	0.001691	28.0824	55.1354	0.001850	29797	4.064919	175.41	136.56	1.169023	0.059153	0.058890	137.893	29797	0.055682	0.110783	1244.72	81791.7
1074	2.000000	1.171742	7.37556e+06	-53839.1	1055.82	-29745.1	0.000000	0.000000	7.178074	145.488	NaN	0.000000	0.001560	0.001698	28.0824	56.5017	0.001805	31308	1.380593	-2.553096	139.699	1.171454	0.061609	0.061322	145.488	31308	0.058124	0.119168	1220.87	82860.8
1074	2.000000	1.174194	7.37556e+06	-53839.1	1055.82	-29745.1	0.000000	0.000000	7.181327	164.959	NaN	0.000000	0.001577	0.001694	28.0823	59.0121	0.001868	31586.1	2.552634	176.766	160.986	1.173883	0.064061	0.063751	164.959	31586.1	0.060144	0.126327	1305.81	81193.7
1074	2.000000	1.176810	7.37556e+06	-53839.1	1055.82	-29745.1	0.000000	0.000000	7.184163	170.295	NaN	0.000000	0.001564	0.001708	28.0823	60.7066	0.001821	33335.1	1.332458	-2.081413	169.986	1.176412	0.066677	0.066280	170.295	33335.1	0.062846	0.136211	1250.23	82521.8
1074	2.000000	1.179237	7.37556e+06	-53839.1	1055.82	-29745.1	0.000000	0.000000	7.186976	179.691	NaN	0.000000	0.001563	0.001683	28.0837	64.2931	0.001819	35350.8	2.923456	175.078	178.554	1.178904	0.069105	0.068771	179.691	35350.8	0.065292	0.145467	1235.27	84682
1074	2.000000	1.181769	7.37556e+06	-53839.1	1055.82	-29745.1	0.000000	0.000000	7.190529	204.514	NaN	0.000000	0.001529	0.001693	28.0835	65.5763	0.001852	35413.4	4.105292	-5.362635	201.058	1.181392	0.071637	0.071259	204.514	35413.4	0.067305	0.153300	1334.08	82636.2
1074	2.000000	1.184235	7.37556e+06	-53839.1	1055.82	-29745.1	0.000000	0.000000	7.193501	216.798	NaN	0.000000	0.001550	0.001711	28.0834	68.3885	0.001739	39337.4	8.918182	169.101	215.383	1.183853	0.074103	0.073720	216.798	39337.4	0.069969	0.163964	1322.23	88757.5
1074	2.000000	1.186695	7.37556e+06	-53839.1	1055.82	-29745.1	0.000000	0.000000	7.196325	225.657	NaN	0.000000	0.001532	0.001692	28.0835	70.3091	0.001727	40720.3	3.343076	-6.793320	217.226	1.186347	0.076563	0.076214	225.657	40720.3	0.072406	0.174014	1296.78	89185
1074	2.000000	1.189231	7.37556e+06	-53839.1	1055.82	-29745.1	0.000000	0.000000	7.199117	231.871	NaN	0.000000	0.001564	0.001672	28.0834	74.2092	0.001817	40848	4.858114	171.58	229.219	1.189121	0.079099	0.078989	231.871	40848	0.074842	0.184339	1257.85	86923.1
1074	2.000000	1.191672	7.37556e+06	-53839.1	1055.82	-29745.1	0.000000	0.000000	7.202607	257.381	NaN	0.000000	0.001583	0.001708	28.0833	75.1199	0.001814	41412.6	4.467084	-7.582706	250.911	1.191335	0.081540	0.081202	257.381	41412.6	0.076878	0.193188	1332.29	86082.7
1074	2.000000	1.194201	7.37556e+06	-53839.1	1055.82	-29745.1	0.000000	0.000000	7.205736	271.979	NaN	0.000000	0.001582	0.001701	28.0834	77.5127	0.001755	44177.6	5.427139	170.505	267.749	1.193879	0.084069	0.083746	271.979	44177.6	0.079451	0.204646	1329.02	89222.5
1074	2.000000	1.196774	7.37556e+06	-53839.1	1055.82	-29745.1	0.000000	0.000000	7.208889	286.054	NaN	0.000000	0.001561	0.001689	28.0834	80.5173	0.001788	45043.2	1.790586	-5.618410	283.983	1.196445	0.086642	0.086313	286.054	45043.2	0.081879	0.215739	1325.93	88601
1074	2.000000	1.199291	7.37556e+06	-53839.1	1055.82	-29745.1	0.000000	0.000000	7.212095	302.843	NaN	0.000000	0.001534	0.001672	28.0833	84.4708	0.001864	45319.1	6.730145	169.555	305.489	1.198896	0.089158	0.088763	302.843	45319.1	0.084147	0.226347	1337.96	87029.6
1074	2.000000	1.201743	7.37556e+06	-53839.1	1055.82	-29745.1	0.000000	0.000000	7.215420	324.048	NaN	0.000000	0.001576	0.001711	28.0832	85.2375	0.001799	47387.1	2.687175	-6.702109	319.242	1.201407	0.091611	0.091275	324.048	47387.1	0.086482	0.237521	1364.29	88834.7
1074	2.000000	1.204238	7.37556e+06	-53839.1	1055.82	-29745.1	0.000000	0.000000	7.218691	342.92	NaN	0.000000	0.001562	0.001718	28.0833	87.2092	0.001734	50302	2.333593	173.383	342.251	1.203870	0.094106	0.093737	342.92	50302	0.088993	0.249817	1372.68	91949.2
1074	2.000000	1.206732	7.37556e+06	-53839.1	1055.82	-29745.1	0.000000	0.000000	7.221779	357.362	NaN	0.000000	0.001575	0.001744	28.0835	90.3977	0.001812	49901	0.512553	-5.232701	352.848	1.206407	0.096600	0.096275	357.362	49901	0.091229	0.261007	1369.17	89239.3
1074	2.000000	1.209180	7.37556e+06	-53839.1	1055.82	-29745.1	0.000000	0.000000	7.225297	383.38	NaN	0.000000	0.001594	0.001726	28.0833	93.9468	0.001759	53409.9	5.551389	169.478	378.803	1.208787	0.099047	0.098655	383.38	53409.9	0.093664	0.273457	1401.97	93314.8
1074	2.000000	1.211743	7.37556e+06	-53839.1	1055.82	-29745.1	0.000000	0.000000	7.228197	391.557	NaN	0.000000	0.001590	0.001708	28.082	94.495	0.001811	52172.2	1.115021	-5.532934	386.047	1.211406	0.101610	0.101274	391.557	52172.2	0.095982	0.285559	1371.19	89200
1074	2.000000	1.214192	7.37556e+06	-53839.1	1055.82	-29745.1	0.000000	0.000000	7.231510	412.549	NaN	0.000000	0.001531	0.001736	28.082	97.4022	0.001784	54600.6	3.195434	171.437	409.611	1.213932	0.104060	0.103800	412.549	54600.6	0.098393	0.298410	1382.49	91319.5
1074	2.000000	1.216628	7.37556e+06	-53839.1	1055.82	-29745.1	0.000000	0.000000	7.235103	440.704	NaN	0.000000	0.001517	0.001705	28.0818	100.853	0.001845	54657.4	6.730853	-11.635	434.173	1.216338	0.106495	0.106205	440.704	54657.4	0.100448	0.309569	1423.61	89751.9