File: remote_trans/data/nanoindenter/0828-1/data/Data_2025-08-06,11h17m57s/2025-07-22_16-23-58_1_537.txt
2025-07-22, 16:23:58, 1
Index	Phase	Displacement	Time	Pos X	Pos Y	Pos Z	Rot A	Rot B	Piezo Z	Force A	Force B	Gripper	Voltage A	Voltage B	Temperature	Amplitude force	Amplitude pos	Stiffness	Phase shift	Phase excitation	Force A raw	Displacement raw	HMax	HMax raw	Real Force	Real Stiffness	Contact Depth	Area	Hardness	Reduced Mod.
[#]	[#]	[um]	[s]	[um]	[um]	[um]	[m°]	[m°]	[um]	[uN]	[uN]	[V]	[V]	[V]	[°C]	[uN]	[um]	[N/m]	[°]	[°]	[uN]	[um]	[um]	[um]	[uN]	[N/m]	[um]	[um^2]	[MPa]	[MPa]
537	1.000000	0.002515	7.3703e+06	-50239.1	1005.82	-29756.5	0.000000	0.000000	6.002807	0.004193	NaN	0.000000	0.001610	0.001755	28.0805	0.068175	0.001007	67.683	55.0651	-166.314	0.051177	0.001252	-0.949000	-0.950263	0.004193	67.683	-0.949047	-4.668415E+12	-8.981757E-16	NaN
537	1.000000	0.010472	7.3703e+06	-50239.1	1005.82	-29756.5	0.000000	0.000000	6.010766	0.021452	NaN	0.000000	0.001597	0.001762	28.0806	0.044585	0.001039	42.905	58.8448	-163.354	0.045742	0.009113	-0.941042	-0.942402	0.021452	42.905	-0.941417	-3.683486E+12	-5.823839E-15	NaN
537	1.000000	0.018460	7.3703e+06	-50239.1	1005.82	-29756.5	0.000000	0.000000	6.018753	0.019769	NaN	0.000000	0.001598	0.001752	28.0806	0.054501	0.001661	32.8048	58.6329	-164.147	0.061164	0.017149	-0.933055	-0.934366	0.019769	32.8048	-0.933507	-2.880876E+12	-6.862121E-15	NaN
537	1.000000	0.026505	7.3703e+06	-50239.1	1005.82	-29756.5	0.000000	0.000000	6.026796	-0.012800	NaN	0.000000	0.001604	0.001728	28.0807	0.085120	0.001978	43.0295	-72.2481	-161.807	0.024285	0.025155	-0.925010	-0.926360	-0.012800	43.0295	-0.924787	-2.197019E+12	5.826204E-15	NaN
537	1.000000	0.034474	7.3703e+06	-50239.1	1005.82	-29756.5	0.000000	0.000000	6.034763	-0.077172	NaN	0.000000	0.001587	0.001770	28.0809	0.059515	0.001922	30.9583	-9.326129	-167.49	0.005355	0.033176	-0.917041	-0.918339	-0.077172	30.9583	-0.915172	-1.629331E+12	4.736397E-14	NaN
537	1.000000	0.042464	7.3703e+06	-50239.1	1005.82	-29756.5	0.000000	0.000000	6.042755	-0.040945	NaN	0.000000	0.001559	0.001754	28.0807	0.046744	0.002087	22.3984	123.674	-164.383	-0.030224	0.041158	-0.909051	-0.910356	-0.040945	22.3984	-0.907680	-1.290686E+12	3.172348E-14	NaN
537	1.000000	0.050440	7.3703e+06	-50239.1	1005.82	-29756.5	0.000000	0.000000	6.050734	0.021574	NaN	0.000000	0.001581	0.001757	28.081	0.096998	0.001963	49.4093	-176.276	-162.302	0.049027	0.049166	-0.901074	-0.902349	0.021574	49.4093	-0.901402	-1.061718E+12	-2.032033E-14	NaN
537	1.000000	0.058471	7.3703e+06	-50239.1	1005.82	-29756.5	0.000000	0.000000	6.058765	0.016617	NaN	0.000000	0.001612	0.001759	28.0806	0.027125	0.002067	13.1214	147.882	-165.729	-0.064793	0.057170	-0.893043	-0.894345	0.016617	13.1214	-0.893993	-8.431217E+11	-1.970890E-14	NaN
537	1.000000	0.066464	7.3703e+06	-50239.1	1005.82	-29756.5	0.000000	0.000000	6.066758	0.021715	NaN	0.000000	0.001564	0.001720	28.081	0.054694	0.002246	24.3555	170.075	-164.794	-0.095130	0.065155	-0.885050	-0.886360	0.021715	24.3555	-0.885719	-6.516891E+11	-3.332134E-14	NaN
537	1.000000	0.074475	7.3703e+06	-50239.1	1005.82	-29756.5	0.000000	0.000000	6.074767	-0.028786	NaN	0.000000	0.001552	0.001712	28.0819	0.057880	0.002134	27.1286	-80.9087	-165.21	-0.024610	0.073162	-0.877039	-0.878353	-0.028786	27.1286	-0.876244	-4.851818E+11	5.932973E-14	NaN
537	1.000000	0.082489	7.3703e+06	-50239.1	1005.82	-29756.5	0.000000	0.000000	6.082781	-0.010867	NaN	0.000000	0.001551	0.001731	28.0816	0.113118	0.001982	57.0624	-52.5031	-165.348	-0.053522	0.081235	-0.869026	-0.870280	-0.010867	57.0624	-0.868883	-3.857744E+11	2.816953E-14	NaN
537	1.000000	0.090480	7.3703e+06	-50239.1	1005.82	-29756.5	0.000000	0.000000	6.090771	-0.027586	NaN	0.000000	0.001592	0.001735	28.082	0.055214	0.001972	27.9986	-154.926	-164.515	-0.010274	0.089171	-0.861035	-0.862344	-0.027586	27.9986	-0.860296	-2.952106E+11	9.344684E-14	NaN
537	1.000000	0.098471	7.3703e+06	-50239.1	1005.82	-29756.5	0.000000	0.000000	6.098762	-0.021268	NaN	0.000000	0.001551	0.001768	28.0818	0.015745	0.001981	7.947628	55.6186	-166.662	-0.003430	0.097199	-0.853044	-0.854316	-0.021268	7.947628	-0.851037	-2.211968E+11	9.614757E-14	NaN
537	1.000000	0.106447	7.3703e+06	-50239.1	1005.82	-29756.5	0.000000	0.000000	6.106740	0.019344	NaN	0.000000	0.001577	0.001762	28.0816	0.046931	0.001975	23.7675	-2.298710	-164.251	-0.042252	0.105157	-0.845068	-0.846357	0.019344	23.7675	-0.845679	-1.871611E+11	-1.033561E-13	NaN
537	1.000000	0.114486	7.3703e+06	-50239.1	1005.82	-29756.5	0.000000	0.000000	6.114778	0.006720	NaN	0.000000	0.001569	0.001738	28.0815	0.020453	0.002116	9.666508	-71.2259	-164.52	-0.062342	0.113156	-0.837029	-0.838359	0.006720	9.666508	-0.837551	-1.452470E+11	-4.626799E-14	NaN
537	1.000000	0.122506	7.3703e+06	-50239.1	1005.82	-29756.5	0.000000	0.000000	6.122798	-0.015946	NaN	0.000000	0.001581	0.001774	28.0818	0.168775	0.001931	87.4079	-160.69	-162.995	-0.102124	0.121177	-0.829009	-0.830338	-0.015946	87.4079	-0.828872	-1.107880E+11	1.439326E-13	NaN
537	1.000000	0.130456	7.3703e+06	-50239.1	1005.82	-29756.5	0.000000	0.000000	6.130750	0.034746	NaN	0.000000	0.001577	0.001744	28.0823	0.133882	0.001930	69.3783	136.62	-164.95	0.005278	0.129181	-0.821058	-0.822334	0.034746	69.3783	-0.821434	-8.783292E+10	-3.955943E-13	NaN
537	1.000000	0.138484	7.3703e+06	-50239.1	1005.82	-29756.5	0.000000	0.000000	6.138777	0.001883	NaN	0.000000	0.001585	0.001754	28.0816	0.008989	0.001897	4.739436	128.055	-166.854	-0.055839	0.137179	-0.813030	-0.814336	0.001883	4.739436	-0.813328	-6.819067E+10	-2.761147E-14	NaN
537	1.000000	0.146498	7.3703e+06	-50239.1	1005.82	-29756.5	0.000000	0.000000	6.146790	-0.000242	NaN	0.000000	0.001569	0.001748	28.0818	0.095868	0.002001	47.9147	88.2174	-162.967	0.013782	0.145148	-0.805017	-0.806367	-0.000242	47.9147	-0.805014	-5.259071E+10	4.605470E-15	NaN
537	1.000000	0.154510	7.3703e+06	-50239.1	1005.82	-29756.5	0.000000	0.000000	6.154803	-0.001922	NaN	0.000000	0.001576	0.001732	28.0817	0.083507	0.001980	42.1838	-20.2076	-166.025	-0.063243	0.153190	-0.797005	-0.798324	-0.001922	42.1838	-0.796970	-4.090097E+10	4.700164E-14	NaN
537	1.000000	0.162502	7.3703e+06	-50239.1	1005.82	-29756.5	0.000000	0.000000	6.162798	0.083154	NaN	0.000000	0.001579	0.001747	28.0819	0.040329	0.001943	20.7596	35.8938	-165.579	0.058286	0.161213	-0.789013	-0.790302	0.083154	20.7596	-0.792017	-3.503292E+10	-2.373610E-12	NaN
537	1.000000	0.170494	7.3703e+06	-50239.1	1005.82	-29756.5	0.000000	0.000000	6.170784	-0.053580	NaN	0.000000	0.001591	0.001750	28.0817	0.133324	0.002000	66.6588	91.8473	-164.469	-0.046237	0.169269	-0.781021	-0.782246	-0.053580	66.6588	-0.780418	-2.437327E+10	2.198319E-12	NaN
537	1.000000	0.178546	7.3703e+06	-50239.1	1005.82	-29756.5	0.000000	0.000000	6.178840	0.034353	NaN	0.000000	0.001580	0.001750	28.0815	0.048956	0.002166	22.5986	121.979	-163.897	0.006724	0.177171	-0.772969	-0.774344	0.034353	22.5986	-0.774109	-2.000644E+10	-1.717096E-12	NaN
537	1.000000	0.186492	7.3703e+06	-50239.1	1005.82	-29756.5	0.000000	0.000000	6.186787	0.045381	NaN	0.000000	0.001610	0.001706	28.0817	0.097400	0.001966	49.5374	-160.031	-167.108	0.006104	0.185199	-0.765023	-0.766316	0.045381	49.5374	-0.765710	-1.538029E+10	-2.950604E-12	NaN
537	1.000000	0.194534	7.3703e+06	-50239.1	1005.82	-29756.5	0.000000	0.000000	6.194827	0.015620	NaN	0.000000	0.001561	0.001746	28.0817	0.033788	0.001955	17.2818	-159.95	-166.477	-0.028443	0.193208	-0.756981	-0.758306	0.015620	17.2818	-0.757659	-1.195224E+10	-1.306855E-12	NaN
537	1.000000	0.202523	7.3703e+06	-50239.1	1005.82	-29756.5	0.000000	0.000000	6.202816	0.034210	NaN	0.000000	0.001583	0.001740	28.0816	0.030036	0.001964	15.2899	20.2826	-167.489	0.084061	0.201162	-0.748992	-0.750352	0.034210	15.2899	-0.750670	-9.601636E+9	-3.562905E-12	NaN
537	1.000000	0.210531	7.3703e+06	-50239.1	1005.82	-29756.5	0.000000	0.000000	6.210822	-0.040144	NaN	0.000000	0.001564	0.001758	28.0804	0.101606	0.001960	51.8322	163.303	-164.757	-0.034862	0.209228	-0.740984	-0.742286	-0.040144	51.8322	-0.740403	-6.958902E+9	5.768657E-12	NaN
537	1.000000	0.218518	7.3703e+06	-50239.1	1005.82	-29756.5	0.000000	0.000000	6.218810	0.014007	NaN	0.000000	0.001552	0.001766	28.0804	0.060973	0.001990	30.638	175.472	-163.861	0.035427	0.217297	-0.732997	-0.734218	0.014007	30.638	-0.733340	-5.576050E+9	-2.511955E-12	NaN
537	1.000000	0.226532	7.3703e+06	-50239.1	1005.82	-29756.5	0.000000	0.000000	6.226824	-0.013765	NaN	0.000000	0.001575	0.001741	28.0805	0.114291	0.002035	56.1582	54.4586	-164.365	-0.075114	0.225235	-0.724982	-0.726280	-0.013765	56.1582	-0.724799	-4.264870E+9	3.227494E-12	NaN
537	1.000000	0.234527	7.3703e+06	-50239.1	1005.82	-29756.5	0.000000	0.000000	6.234820	0.024946	NaN	0.000000	0.001610	0.001768	28.0805	0.008557	0.002073	4.128113	177.124	-166.947	-0.018149	0.233173	-0.716988	-0.718342	0.024946	4.128113	-0.721520	-3.847754E+9	-6.483302E-12	NaN
537	1.000000	0.242523	7.3703e+06	-50239.1	1005.82	-29756.5	0.000000	0.000000	6.242818	0.050989	NaN	0.000000	0.001593	0.001747	28.0805	0.057885	0.001969	29.4022	-90.645	-167.04	-0.062184	0.241251	-0.708992	-0.710264	0.050989	29.4022	-0.710292	-2.704180E+9	-1.885576E-11	NaN
537	1.000000	0.250551	7.3703e+06	-50239.1	1005.82	-29756.5	0.000000	0.000000	6.250842	-0.021711	NaN	0.000000	0.001605	0.001737	28.0804	0.068678	0.001972	34.8284	-63.9411	-160.442	0.039286	0.249255	-0.700964	-0.702260	-0.021711	34.8284	-0.700496	-1.987509E+9	1.092378E-11	NaN
537	1.000000	0.258520	7.3703e+06	-50239.1	1005.82	-29756.5	0.000000	0.000000	6.258813	0.002285	NaN	0.000000	0.001585	0.001749	28.0806	0.111608	0.001943	57.4368	-144.473	-164.208	0.066555	0.257255	-0.692994	-0.694259	0.002285	57.4368	-0.693024	-1.571246E+9	-1.454192E-12	NaN
537	1.000000	0.266559	7.3703e+06	-50239.1	1005.82	-29756.5	0.000000	0.000000	6.266853	0.058030	NaN	0.000000	0.001607	0.001748	28.0802	0.051901	0.002036	25.495	31.5771	-166.101	-0.008066	0.265255	-0.684956	-0.686260	0.058030	25.495	-0.686663	-1.286212E+9	-4.511725E-11	NaN
537	1.000000	0.274557	7.3703e+06	-50239.1	1005.82	-29756.5	0.000000	0.000000	6.274851	0.034742	NaN	0.000000	0.001581	0.001750	28.0803	0.113877	0.002158	52.7582	164.555	-164.077	0.018436	0.273233	-0.676957	-0.678282	0.034742	52.7582	-0.677451	-9.623772E+8	-3.609981E-11	NaN
537	1.000000	0.282561	7.3703e+06	-50239.1	1005.82	-29756.5	0.000000	0.000000	6.282852	-0.017249	NaN	0.000000	0.001598	0.001730	28.0806	0.034025	0.002055	16.5582	-151.007	-164.254	-0.013437	0.281267	-0.668954	-0.670248	-0.017249	16.5582	-0.668173	-7.184242E+8	2.400984E-11	NaN
537	1.000000	0.290548	7.3703e+06	-50239.1	1005.82	-29756.5	0.000000	0.000000	6.290842	0.028691	NaN	0.000000	0.001596	0.001722	28.0803	0.070449	0.001962	35.9043	-130.444	-166.71	-0.068461	0.289286	-0.660967	-0.662229	0.028691	35.9043	-0.661566	-5.833326E+8	-4.918474E-11	NaN
537	1.000000	0.298537	7.3703e+06	-50239.1	1005.82	-29756.5	0.000000	0.000000	6.298827	-0.058228	NaN	0.000000	0.001592	0.001746	28.081	0.060923	0.002090	29.1566	4.530314	-166.429	-0.051885	0.297314	-0.652978	-0.654201	-0.058228	29.1566	-0.651480	-4.243465E+8	1.372181E-10	NaN
537	1.000000	0.306576	7.3703e+06	-50239.1	1005.82	-29756.5	0.000000	0.000000	6.306870	0.037462	NaN	0.000000	0.001568	0.001751	28.0805	0.024404	0.002140	11.4048	134.446	-168.202	-0.024888	0.305242	-0.644938	-0.646273	0.037462	11.4048	-0.647402	-3.730932E+8	-1.004103E-10	NaN
537	1.000000	0.314559	7.3703e+06	-50239.1	1005.82	-29756.5	0.000000	0.000000	6.314855	0.081469	NaN	0.000000	0.001585	0.001743	28.0804	0.076491	0.001845	41.4481	-154.754	-162.074	0.020473	0.313245	-0.636956	-0.638270	0.081469	41.4481	-0.638430	-2.810238E+8	-2.898992E-10	NaN
537	1.000000	0.322574	7.3703e+06	-50239.1	1005.82	-29756.5	0.000000	0.000000	6.322866	-0.015797	NaN	0.000000	0.001621	0.001760	28.0807	0.045742	0.002137	21.4038	93.0299	-162.808	0.003019	0.321262	-0.628941	-0.630252	-0.015797	21.4038	-0.628387	-2.045851E+8	7.721382E-11	NaN
537	1.000000	0.330546	7.3703e+06	-50239.1	1005.82	-29756.5	0.000000	0.000000	6.330837	-0.030342	NaN	0.000000	0.001608	0.001764	28.0804	0.050756	0.001846	27.4952	47.2354	-166.217	0.009160	0.329251	-0.620969	-0.622264	-0.030342	27.4952	-0.620141	-1.576067E+8	1.925157E-10	NaN
537	1.000000	0.338543	7.3703e+06	-50239.1	1005.82	-29756.5	0.000000	0.000000	6.338835	-0.015023	NaN	0.000000	0.001607	0.001757	28.081	0.079641	0.002021	39.4131	169.785	-167.479	-0.054906	0.337276	-0.612972	-0.614239	-0.015023	39.4131	-0.612686	-1.244692E+8	1.206982E-10	NaN
537	1.000000	0.346604	7.3703e+06	-50239.1	1005.82	-29756.5	0.000000	0.000000	6.346896	-0.011913	NaN	0.000000	0.001615	0.001718	28.0817	0.085672	0.001960	43.7207	54.945	-166.152	-0.062944	0.345295	-0.604911	-0.606220	-0.011913	43.7207	-0.604706	-9.666318E+7	1.232375E-10	NaN
537	1.000000	0.354628	7.3703e+06	-50239.1	1005.82	-29756.5	0.000000	0.000000	6.354920	-0.006722	NaN	0.000000	0.001612	0.001713	28.0819	0.053442	0.002013	26.5485	119.498	-168.24	-0.077521	0.353276	-0.596887	-0.598239	-0.006722	26.5485	-0.596697	-7.498217E+7	8.964713E-11	NaN
537	1.000000	0.362599	7.3703e+06	-50239.1	1005.82	-29756.5	0.000000	0.000000	6.362891	-0.000813	NaN	0.000000	0.001612	0.001722	28.0819	0.086027	0.002089	41.1727	-163.167	-162.971	-0.001501	0.361281	-0.588916	-0.590233	-0.000813	41.1727	-0.588901	-5.854850E+7	1.389267E-11	NaN
537	1.000000	0.370591	7.3703e+06	-50239.1	1005.82	-29756.5	0.000000	0.000000	6.370885	0.044494	NaN	0.000000	0.001568	0.001720	28.0818	0.064019	0.001999	32.0294	-30.1502	-165.171	-0.040164	0.369290	-0.580924	-0.582225	0.044494	32.0294	-0.581966	-4.697329E+7	-9.472173E-10	NaN
537	1.000000	0.378605	7.3703e+06	-50239.1	1005.82	-29756.5	0.000000	0.000000	6.378895	-0.063456	NaN	0.000000	0.001579	0.001738	28.0822	0.057198	0.002067	27.6656	156.233	-166.778	-0.053398	0.377291	-0.572909	-0.574223	-0.063456	27.6656	-0.571189	-3.334732E+7	1.902874E-9	NaN
537	1.000000	0.386576	7.3703e+06	-50239.1	1005.82	-29756.5	0.000000	0.000000	6.386869	0.015883	NaN	0.000000	0.001571	0.001791	28.0818	0.096847	0.001779	54.4467	176.803	-169.047	0.054636	0.385323	-0.564939	-0.566192	0.015883	54.4467	-0.565158	-2.752358E+7	-5.770594E-10	NaN
537	1.000000	0.394627	7.3703e+06	-50239.1	1005.82	-29756.5	0.000000	0.000000	6.394920	0.004248	NaN	0.000000	0.001531	0.001769	28.0821	0.101879	0.001947	52.3372	36.4847	-165.992	0.021618	0.393296	-0.556888	-0.558219	0.004248	52.3372	-0.556948	-2.119120E+7	-2.004788E-10	NaN
537	1.000000	0.402620	7.3703e+06	-50239.1	1005.82	-29756.5	0.000000	0.000000	6.402910	-0.036113	NaN	0.000000	0.001552	0.001777	28.0818	0.075266	0.001931	38.9736	-17.6457	-168.053	-0.027035	0.401304	-0.548895	-0.550211	-0.036113	38.9736	-0.548200	-1.603340E+7	2.252336E-9	NaN
537	1.000000	0.410615	7.3703e+06	-50239.1	1005.82	-29756.5	0.000000	0.000000	6.410909	0.046228	NaN	0.000000	0.001575	0.001755	28.0818	0.082153	0.001976	41.5686	174.199	-170.879	0.100705	0.409289	-0.540900	-0.542226	0.046228	41.5686	-0.541734	-1.304376E+7	-3.544099E-9	NaN
537	1.000000	0.418606	7.3703e+06	-50239.1	1005.82	-29756.5	0.000000	0.000000	6.418899	0.022360	NaN	0.000000	0.001558	0.001770	28.0819	0.023338	0.001964	11.8847	-152.995	-167.002	0.047127	0.417357	-0.532909	-0.534158	0.022360	11.8847	-0.534320	-1.029328E+7	-2.172258E-9	NaN
537	1.000000	0.426606	7.3703e+06	-50239.1	1005.82	-29756.5	0.000000	0.000000	6.426897	-0.018759	NaN	0.000000	0.001571	0.001759	28.0819	0.060741	0.002010	30.2141	55.9352	-166.623	0.004309	0.425311	-0.524909	-0.526204	-0.018759	30.2141	-0.524444	-7.50548e+06	2.499366E-9	NaN
537	1.000000	0.434612	7.3703e+06	-50239.1	1005.82	-29756.5	0.000000	0.000000	6.434905	0.021599	NaN	0.000000	0.001578	0.001734	28.082	0.015402	0.001924	8.003263	-47.355	-164.804	0.011829	0.433296	-0.516903	-0.518219	0.021599	8.003263	-0.518927	-6.29036e+06	-3.433609E-9	NaN
537	1.000000	0.442650	7.3703e+06	-50239.1	1005.82	-29756.5	0.000000	0.000000	6.442942	0.007299	NaN	0.000000	0.001605	0.001758	28.0818	0.077067	0.002026	38.034	160.721	-163.545	-0.075612	0.441313	-0.508865	-0.510202	0.007299	38.034	-0.509009	-4.57733e+06	-1.594515E-9	NaN
537	1.000000	0.450618	7.3703e+06	-50239.1	1005.82	-29756.5	0.000000	0.000000	6.450910	-0.022694	NaN	0.000000	0.001538	0.001757	28.0821	0.074173	0.002085	35.5824	-138.269	-165.8	-0.023322	0.449274	-0.500897	-0.502241	-0.022694	35.5824	-0.500418	-3.47419e+06	6.532108E-9	NaN
537	1.000000	0.458616	7.3703e+06	-50239.1	1005.82	-29756.5	0.000000	0.000000	6.458906	-0.065275	NaN	0.000000	0.001534	0.001752	28.0818	0.043238	0.002097	20.6227	-135.282	-167.294	-0.068507	0.457294	-0.492899	-0.494221	-0.065275	20.6227	-0.490525	-2.52771e+06	2.582382E-8	NaN
537	1.000000	0.466655	7.3703e+06	-50239.1	1005.82	-29756.5	0.000000	0.000000	6.466946	-0.038646	NaN	0.000000	0.001567	0.001746	28.0819	0.045123	0.001802	25.0408	-78.933	-165.705	-0.040882	0.465244	-0.484860	-0.486271	-0.038646	25.0408	-0.483702	-2.02927e+06	1.904447E-8	NaN
537	1.000000	0.474671	7.3703e+06	-50239.1	1005.82	-29756.5	0.000000	0.000000	6.474962	-0.022445	NaN	0.000000	0.001579	0.001743	28.0819	0.124954	0.001999	62.5007	166.925	-165.851	-0.023589	0.473337	-0.476844	-0.478177	-0.022445	62.5007	-0.476575	-1.61273e+06	1.391721E-8	NaN
537	1.000000	0.482640	7.3703e+06	-50239.1	1005.82	-29756.5	0.000000	0.000000	6.482935	0.064684	NaN	0.000000	0.001560	0.001745	28.0806	0.062578	0.001848	33.8708	140.057	-170.202	0.090366	0.481332	-0.468875	-0.470183	0.064684	33.8708	-0.470307	-1.31739e+06	-4.910027E-8	NaN
537	1.000000	0.490648	7.3703e+06	-50239.1	1005.82	-29756.5	0.000000	0.000000	6.490940	0.005283	NaN	0.000000	0.001585	0.001761	28.0808	0.025302	0.001932	13.0943	-127.559	-167.475	0.060803	0.489397	-0.460867	-0.462118	0.005283	13.0943	-0.461170	-980509	-5.387772E-9	NaN
537	1.000000	0.498643	7.3703e+06	-50239.1	1005.82	-29756.5	0.000000	0.000000	6.498938	0.066110	NaN	0.000000	0.001548	0.001740	28.081	0.027974	0.002054	13.6211	178.753	-167.151	-0.014616	0.497374	-0.452872	-0.454141	0.066110	13.6211	-0.456512	-843301	-7.839427E-8	NaN
537	1.000000	0.506619	7.3703e+06	-50239.1	1005.82	-29756.5	0.000000	0.000000	6.506909	-0.039414	NaN	0.000000	0.001542	0.001771	28.0807	0.119884	0.001935	61.9576	129.561	-168.619	-0.037531	0.505330	-0.444896	-0.446185	-0.039414	61.9576	-0.444419	-569774	6.917394E-8	NaN
537	1.000000	0.514627	7.3703e+06	-50239.1	1005.82	-29756.5	0.000000	0.000000	6.514922	0.078067	NaN	0.000000	0.001584	0.001792	28.0806	0.084905	0.001886	45.0298	169.606	-166.876	0.053992	0.513293	-0.436888	-0.438222	0.078067	45.0298	-0.438188	-465360	-1.677567E-7	NaN
537	1.000000	0.522662	7.3703e+06	-50239.1	1005.82	-29756.5	0.000000	0.000000	6.522954	-0.010011	NaN	0.000000	0.001569	0.001760	28.081	0.085059	0.001953	43.5488	-69.8289	-165.396	0.017810	0.521342	-0.428853	-0.430173	-0.010011	43.5488	-0.428680	-341499	2.931579E-8	NaN
537	1.000000	0.530672	7.3703e+06	-50239.1	1005.82	-29756.5	0.000000	0.000000	6.530964	-0.023886	NaN	0.000000	0.001578	0.001731	28.0808	0.031026	0.001919	16.1711	-118.982	-164.597	-0.025768	0.529366	-0.420842	-0.422149	-0.023886	16.1711	-0.419735	-255064	9.364783E-8	NaN
537	1.000000	0.538663	7.3703e+06	-50239.1	1005.82	-29756.5	0.000000	0.000000	6.538957	0.033540	NaN	0.000000	0.001547	0.001729	28.0805	0.030076	0.002107	14.2776	-59.3105	-166.766	0.054722	0.537375	-0.412852	-0.414140	0.033540	14.2776	-0.414613	-215757	-1.554544E-7	NaN
537	1.000000	0.546669	7.3703e+06	-50239.1	1005.82	-29756.5	0.000000	0.000000	6.546960	-0.028111	NaN	0.000000	0.001561	0.001773	28.0806	0.076220	0.001942	39.2478	-3.591785	-166.503	-0.031877	0.545434	-0.404846	-0.406081	-0.028111	39.2478	-0.404309	-153959	1.825846E-7	NaN
537	1.000000	0.554666	7.3703e+06	-50239.1	1005.82	-29756.5	0.000000	0.000000	6.554956	-0.057047	NaN	0.000000	0.001607	0.001765	28.0804	0.043865	0.001945	22.5569	-12.1785	-165.047	-0.063307	0.553366	-0.396849	-0.398149	-0.057047	22.5569	-0.394952	-113226	5.038348E-7	NaN
537	1.000000	0.562670	7.3703e+06	-50239.1	1005.82	-29756.5	0.000000	0.000000	6.562964	0.045599	NaN	0.000000	0.001559	0.001769	28.0807	0.183399	0.001976	92.823	-24.4054	-164.46	-0.001576	0.561315	-0.388845	-0.390200	0.045599	92.823	-0.389213	-93736.8	-4.864629E-7	NaN
537	1.000000	0.570687	7.3703e+06	-50239.1	1005.82	-29756.5	0.000000	0.000000	6.570980	0.000304	NaN	0.000000	0.001586	0.001764	28.0805	0.091728	0.002024	45.3224	-5.034647	-166.276	-0.056897	0.569367	-0.380827	-0.382148	0.000304	45.3224	-0.380832	-71094.3	-4.269117E-9	NaN
537	1.000000	0.578683	7.3703e+06	-50239.1	1005.82	-29756.5	0.000000	0.000000	6.578977	0.036981	NaN	0.000000	0.001577	0.001743	28.0804	0.050861	0.002122	23.9647	75.7905	-168.058	0.055523	0.577350	-0.372832	-0.374165	0.036981	23.9647	-0.373990	-56694.7	-6.522920E-7	NaN
537	1.000000	0.586686	7.3703e+06	-50239.1	1005.82	-29756.5	0.000000	0.000000	6.586977	-0.036049	NaN	0.000000	0.001566	0.001735	28.0808	0.115714	0.001879	61.5788	-64.3996	-166.434	0.017390	0.585345	-0.364829	-0.366170	-0.036049	61.5788	-0.364390	-41233.7	8.742721E-7	NaN
537	1.000000	0.594685	7.3703e+06	-50239.1	1005.82	-29756.5	0.000000	0.000000	6.594978	0.004075	NaN	0.000000	0.001609	0.001720	28.0805	0.019161	0.001968	9.734758	20.3525	-167.954	0.011205	0.593377	-0.356829	-0.358138	0.004075	9.734758	-0.357143	-32398.7	-1.257914E-7	NaN
537	1.000000	0.602713	7.3703e+06	-50239.1	1005.82	-29756.5	0.000000	0.000000	6.603004	-0.051825	NaN	0.000000	0.001609	0.001701	28.0807	0.070540	0.002060	34.2468	-7.754240	-168.823	-0.053367	0.601328	-0.348801	-0.350186	-0.051825	34.2468	-0.347666	-23611.2	2.194952E-6	NaN
537	1.000000	0.610683	7.3703e+06	-50239.1	1005.82	-29756.5	0.000000	0.000000	6.610975	-0.013349	NaN	0.000000	0.001605	0.001730	28.0806	0.042517	0.002012	21.1367	82.0312	-167.93	-0.064962	0.609337	-0.340832	-0.342178	-0.013349	21.1367	-0.340358	-18482.9	7.222446E-7	NaN
537	1.000000	0.618709	7.3703e+06	-50239.1	1005.82	-29756.5	0.000000	0.000000	6.619000	-0.023830	NaN	0.000000	0.001603	0.001735	28.0817	0.095621	0.002121	45.0889	-130.078	-165.288	-0.015638	0.617421	-0.332806	-0.334094	-0.023830	45.0889	-0.332410	-14148.8	1.684227E-6	NaN
537	1.000000	0.626701	7.3703e+06	-50239.1	1005.82	-29756.5	0.000000	0.000000	6.626995	0.044419	NaN	0.000000	0.001548	0.001744	28.082	0.056352	0.002071	27.21	-139.22	-163.967	0.037465	0.625382	-0.324814	-0.326133	0.044419	27.21	-0.326038	-11412.5	-3.892143E-6	NaN
537	1.000000	0.634672	7.3703e+06	-50239.1	1005.82	-29756.5	0.000000	0.000000	6.634960	-0.103293	NaN	0.000000	0.001562	0.001705	28.0816	0.065875	0.002016	32.6773	-133.128	-171.848	0.005781	0.633412	-0.316843	-0.318103	-0.103293	32.6773	-0.314472	-7711.72	1.339424E-5	NaN
537	1.000000	0.642733	7.3703e+06	-50239.1	1005.82	-29756.5	0.000000	0.000000	6.643023	-0.061353	NaN	0.000000	0.001565	0.001687	28.0821	0.062297	0.002011	30.971	14.6889	-166.574	-0.129612	0.641383	-0.308782	-0.310132	-0.061353	30.971	-0.307296	-6039.57	1.015848E-5	NaN
537	1.000000	0.650743	7.37031e+06	-50239.1	1005.82	-29756.5	0.000000	0.000000	6.651035	-0.016161	NaN	0.000000	0.001569	0.001737	28.0818	0.071545	0.002009	35.6154	-17.5875	-163.955	0.030554	0.649369	-0.300772	-0.302146	-0.016161	35.6154	-0.300431	-4775.88	3.383872E-6	NaN
537	1.000000	0.658705	7.37031e+06	-50239.1	1005.82	-29756.5	0.000000	0.000000	6.658996	-0.039794	NaN	0.000000	0.001557	0.001726	28.0818	0.073111	0.001950	37.4955	153.711	-167.124	-0.018911	0.657375	-0.292809	-0.294140	-0.039794	37.4955	-0.292013	-3576.4	1.112687E-5	NaN
537	1.000000	0.666730	7.37031e+06	-50239.1	1005.82	-29756.5	0.000000	0.000000	6.667020	-0.064072	NaN	0.000000	0.001553	0.001777	28.0821	0.060160	0.001982	30.3561	-72.7444	-167.659	-0.091537	0.665405	-0.284785	-0.286110	-0.064072	30.3561	-0.283202	-2637.66	2.429113E-5	NaN
537	1.000000	0.674721	7.37031e+06	-50239.1	1005.82	-29756.5	0.000000	0.000000	6.675014	0.007520	NaN	0.000000	0.001564	0.001765	28.0818	0.037987	0.002006	18.9326	84.2971	-166.152	0.070981	0.673416	-0.276794	-0.278099	0.007520	18.9326	-0.277092	-2133.28	-3.525298E-6	NaN
537	1.000000	0.682700	7.37031e+06	-50239.1	1005.82	-29756.5	0.000000	0.000000	6.682991	-0.027344	NaN	0.000000	0.001610	0.001734	28.0821	0.052772	0.001968	26.8178	-142.362	-164.745	-0.100881	0.681435	-0.268815	-0.270080	-0.027344	26.8178	-0.268051	-1555.56	1.757829E-5	NaN
537	1.000000	0.690718	7.37031e+06	-50239.1	1005.82	-29756.5	0.000000	0.000000	6.691013	0.064550	NaN	0.000000	0.001603	0.001756	28.0818	0.061217	0.002043	29.9617	164.259	-170.353	0.060302	0.689458	-0.260797	-0.262057	0.064550	29.9617	-0.262413	-1276.04	-5.058603E-5	NaN
537	1.000000	0.698724	7.37031e+06	-50239.1	1005.82	-29756.5	0.000000	0.000000	6.699016	-0.029993	NaN	0.000000	0.001506	0.001760	28.0822	0.071653	0.001952	36.6986	155.751	-167.31	0.013779	0.697394	-0.252790	-0.254121	-0.029993	36.6986	-0.252177	-888.399	3.376063E-5	NaN
537	1.000000	0.706688	7.37031e+06	-50239.1	1005.82	-29756.5	0.000000	0.000000	6.706982	0.028525	NaN	0.000000	0.001554	0.001763	28.0819	0.062462	0.001982	31.5126	115.325	-167.199	0.076827	0.705459	-0.244826	-0.246055	0.028525	31.5126	-0.245505	-700.329	-4.073050E-5	NaN
537	1.000000	0.714742	7.37031e+06	-50239.1	1005.82	-29756.5	0.000000	0.000000	6.715035	0.030424	NaN	0.000000	0.001577	0.001776	28.0817	0.074698	0.001967	37.9671	-167.784	-166.411	0.037931	0.713410	-0.236773	-0.238105	0.030424	37.9671	-0.237374	-522.976	-5.817454E-5	NaN
537	1.000000	0.722748	7.37031e+06	-50239.1	1005.82	-29756.5	0.000000	0.000000	6.723039	-0.013046	NaN	0.000000	0.001595	0.001778	28.082	0.083618	0.002055	40.6857	30.4779	-169.564	0.018364	0.721427	-0.228767	-0.230088	-0.013046	40.6857	-0.228527	-379.52	3.437466E-5	NaN
537	1.000000	0.730738	7.37031e+06	-50239.1	1005.82	-29756.5	0.000000	0.000000	6.731032	0.036547	NaN	0.000000	0.001601	0.001795	28.0818	0.078981	0.002025	38.9978	144.246	-166.865	0.018398	0.729447	-0.220777	-0.222068	0.036547	38.9978	-0.221480	-293.295	-0.000125	NaN
537	1.000000	0.738751	7.37031e+06	-50239.1	1005.82	-29756.5	0.000000	0.000000	6.739044	0.003327	NaN	0.000000	0.001618	0.001791	28.0822	0.076045	0.001928	39.4373	-142.687	-169.027	0.059328	0.737413	-0.212764	-0.214102	0.003327	39.4373	-0.212827	-213.064	-1.561633E-5	NaN
537	1.000000	0.746784	7.37031e+06	-50239.1	1005.82	-29756.5	0.000000	0.000000	6.747074	-0.070528	NaN	0.000000	0.001559	0.001798	28.0819	0.038185	0.002072	18.4287	83.3091	-166.353	-0.069147	0.745411	-0.204730	-0.206104	-0.070528	18.4287	-0.201860	-141.327	0.000499	NaN
537	1.000000	0.754756	7.37031e+06	-50239.1	1005.82	-29756.5	0.000000	0.000000	6.755047	-0.044470	NaN	0.000000	0.001607	0.001774	28.0808	0.094642	0.002103	45.01	177.428	-164.894	0.054229	0.753400	-0.196758	-0.198115	-0.044470	45.01	-0.196017	-113.251	0.000393	NaN
537	1.000000	0.762764	7.37031e+06	-50239.1	1005.82	-29756.5	0.000000	0.000000	6.763054	-0.056873	NaN	0.000000	0.001603	0.001807	28.0806	0.101935	0.001895	53.7793	-54.7573	-165.697	-0.079272	0.761437	-0.188751	-0.190078	-0.056873	53.7793	-0.187957	-83.1469	0.000684	NaN
537	1.000000	0.770756	7.37031e+06	-50239.1	1005.82	-29756.5	0.000000	0.000000	6.771048	-0.021216	NaN	0.000000	0.001569	0.001801	28.0807	0.036924	0.002024	18.2412	-150.853	-167.377	0.022930	0.769458	-0.180758	-0.182057	-0.021216	18.2412	-0.179886	-60.7478	0.000349	NaN
537	1.000000	0.778795	7.37031e+06	-50239.1	1005.82	-29756.5	0.000000	0.000000	6.779088	0.001654	NaN	0.000000	0.001605	0.001767	28.0807	0.110842	0.002041	54.2958	-105.539	-168.661	-0.010143	0.777469	-0.172720	-0.174046	0.001654	54.2958	-0.172743	-45.8246	-3.610174E-5	NaN
537	1.000000	0.786757	7.37031e+06	-50239.1	1005.82	-29756.5	0.000000	0.000000	6.787049	-0.008963	NaN	0.000000	0.001588	0.001781	28.0805	0.145644	0.002069	70.3902	-99.6751	-170.452	-0.103402	0.785455	-0.164758	-0.166060	-0.008963	70.3902	-0.164662	-33.1417	0.000270	NaN
537	1.000000	0.794743	7.37031e+06	-50239.1	1005.82	-29756.5	0.000000	0.000000	6.795036	0.015237	NaN	0.000000	0.001576	0.001761	28.0809	0.092989	0.001847	50.3553	74.2036	-167.162	-0.047454	0.793492	-0.156772	-0.158023	0.015237	50.3553	-0.156999	-24.2355	-0.000629	NaN
537	1.000000	0.802768	7.37031e+06	-50239.1	1005.82	-29756.5	0.000000	0.000000	6.803061	0.035668	NaN	0.000000	0.001584	0.001774	28.0805	0.008118	0.002136	3.800906	-53.2033	-164.946	-0.071089	0.801469	-0.148747	-0.150046	0.035668	3.800906	-0.155785	-23.0514	-0.001547	NaN
537	1.000000	0.810767	7.37031e+06	-50239.1	1005.82	-29756.5	0.000000	0.000000	6.811060	0.012235	NaN	0.000000	0.001592	0.001739	28.081	0.061484	0.002074	29.645	-169.141	-167.695	-0.029325	0.809415	-0.140748	-0.142099	0.012235	29.645	-0.141057	-12.3822	-0.000988	NaN
537	1.000000	0.818765	7.37031e+06	-50239.1	1005.82	-29756.5	0.000000	0.000000	6.819059	0.027781	NaN	0.000000	0.001564	0.001743	28.0811	0.047769	0.001999	23.9018	89.6114	-170.483	0.043020	0.817498	-0.132750	-0.134017	0.027781	23.9018	-0.133621	-8.951727	-0.003103	NaN
537	1.000000	0.826774	7.37031e+06	-50239.1	1005.82	-29756.5	0.000000	0.000000	6.827069	0.067191	NaN	0.000000	0.001564	0.001756	28.0806	0.063137	0.002083	30.3032	153.026	-168.567	0.102014	0.825444	-0.124741	-0.126071	0.067191	30.3032	-0.126404	-6.481899	-0.010366	NaN
537	1.000000	0.834776	7.37031e+06	-50239.1	1005.82	-29756.5	0.000000	0.000000	6.835069	0.018856	NaN	0.000000	0.001561	0.001760	28.0806	0.031992	0.001949	16.4161	158.493	-167.074	0.028161	0.833426	-0.116739	-0.118089	0.018856	16.4161	-0.117600	-4.319292	-0.004365	NaN
537	1.000000	0.842773	7.37031e+06	-50239.1	1005.82	-29756.5	0.000000	0.000000	6.843066	0.023599	NaN	0.000000	0.001546	0.001762	28.0805	0.028970	0.002065	14.0303	67.2983	-163.434	0.020469	0.841483	-0.108742	-0.110032	0.023599	14.0303	-0.110004	-3.005754	-0.007851	NaN
537	1.000000	0.850818	7.37031e+06	-50239.1	1005.82	-29756.5	0.000000	0.000000	6.851110	-0.008903	NaN	0.000000	0.001530	0.001739	28.0806	0.106344	0.002051	51.8559	-77.8936	-167.123	0.022124	0.849462	-0.100697	-0.102053	-0.008903	51.8559	-0.100568	-1.880838	0.004733	NaN
537	1.000000	0.858761	7.37031e+06	-50239.1	1005.82	-29756.5	0.000000	0.000000	6.859053	-0.012822	NaN	0.000000	0.001526	0.001782	28.0805	0.069463	0.002124	32.7109	48.7457	-168.456	-0.028775	0.857463	-0.092753	-0.094052	-0.012822	32.7109	-0.092459	-1.233389	0.010396	NaN
537	1.000000	0.866817	7.37031e+06	-50239.1	1005.82	-29756.5	0.000000	0.000000	6.867110	0.000383	NaN	0.000000	0.001525	0.001734	28.0805	0.074124	0.002000	37.0657	-113.775	-162.382	-0.004532	0.865532	-0.084697	-0.085983	0.000383	37.0657	-0.084705	-0.808236	-0.000474	NaN
537	1.000000	0.874792	7.37031e+06	-50239.1	1005.82	-29756.5	0.000000	0.000000	6.875087	0.042455	NaN	0.000000	0.001520	0.001750	28.0808	0.111731	0.001847	60.5018	-84.3596	-166.98	0.015135	0.873543	-0.076722	-0.077972	0.042455	60.5018	-0.077249	-0.527531	-0.080479	NaN
537	1.000000	0.882806	7.37031e+06	-50239.1	1005.82	-29756.5	0.000000	0.000000	6.883098	-0.007721	NaN	0.000000	0.001557	0.001739	28.0805	0.045536	0.002016	22.5872	163.095	-167.758	-0.087507	0.881468	-0.068709	-0.070047	-0.007721	22.5872	-0.068452	-0.309888	0.024914	NaN
537	1.000000	0.890806	7.37031e+06	-50239.1	1005.82	-29756.5	0.000000	0.000000	6.891100	0.043861	NaN	0.000000	0.001580	0.001762	28.082	0.104686	0.001848	56.6338	177.152	-167.033	-0.051548	0.889511	-0.060709	-0.062004	0.043861	56.6338	-0.061290	-0.196039	-0.223738	NaN
537	1.000000	0.898795	7.37031e+06	-50239.1	1005.82	-29756.5	0.000000	0.000000	6.899089	0.027588	NaN	0.000000	0.001572	0.001785	28.0823	0.036183	0.002006	18.0406	80.7428	-164.666	0.021060	0.897503	-0.052719	-0.054012	0.027588	18.0406	-0.053866	-0.119187	-0.231466	NaN
537	1.000000	0.906823	7.37031e+06	-50239.1	1005.82	-29756.5	0.000000	0.000000	6.907116	0.016329	NaN	0.000000	0.001544	0.001785	28.0819	0.122741	0.001935	63.4399	140.603	-166.206	0.069926	0.905539	-0.044692	-0.045976	0.016329	63.4399	-0.044885	-0.063749	-0.256144	NaN
537	1.000000	0.914827	7.37031e+06	-50239.1	1005.82	-29756.5	0.000000	0.000000	6.915120	0.014012	NaN	0.000000	0.001538	0.001749	28.0823	0.085540	0.001872	45.6946	-25.3261	-166.714	-0.006014	0.913528	-0.036688	-0.037986	0.014012	45.6946	-0.036918	-0.036509	-0.383803	NaN
537	1.000000	0.922800	7.37031e+06	-50239.1	1005.82	-29756.5	0.000000	0.000000	6.923093	0.004196	NaN	0.000000	0.001569	0.001758	28.082	0.063597	0.001957	32.4898	160.914	-163.357	-0.047525	0.921458	-0.028714	-0.030057	0.004196	32.4898	-0.028811	-0.021335	-0.196662	NaN
537	1.000000	0.930817	7.37031e+06	-50239.1	1005.82	-29756.5	0.000000	0.000000	6.931110	0.012215	NaN	0.000000	0.001564	0.001737	28.0819	0.039123	0.002052	19.0666	119.503	-164.648	-0.050484	0.929520	-0.020697	-0.021995	0.012215	19.0666	-0.021178	-0.013457	-0.907707	NaN
537	1.000000	0.938817	7.37031e+06	-50239.1	1005.82	-29756.5	0.000000	0.000000	6.939110	0.010946	NaN	0.000000	0.001573	0.001775	28.0824	0.128972	0.001986	64.9393	-13.1498	-165.793	-0.101454	0.937517	-0.012697	-0.013998	0.010946	64.9393	-0.012824	-0.008001	-1.368134	NaN
537	1.000000	0.946863	7.37031e+06	-50239.1	1005.82	-29756.5	0.000000	0.000000	6.947154	-0.039637	NaN	0.000000	0.001563	0.001767	28.082	0.119226	0.001916	62.223	-17.5117	-167.439	0.022261	0.945513	-0.004652	-0.006002	-0.039637	62.223	-0.004174	-0.002891	13.7085	NaN
537	1.000000	0.954790	7.37031e+06	-50239.1	1005.82	-29756.5	0.000000	0.000000	6.955304	5.376981	NaN	0.000000	0.001566	0.001766	28.0822	5.743080	0.001736	3308.37	13.0705	-172.229	4.172321	0.953467	0.003276	0.001953	5.376981	3308.37	0.002057	0.001601	3359.06	75548.7
537	2.000000	0.959368	7.37031e+06	-50239.1	1005.82	-29756.5	0.000000	0.000000	6.960052	9.538310	NaN	0.000000	0.001541	0.001716	28.0819	10.0598	0.001648	6104.98	3.956442	-172.544	9.246260	0.959093	0.007853	0.007578	9.538310	6104.98	0.006681	0.005721	1667.38	73746.2
537	2.000000	0.961327	7.37031e+06	-50239.1	1005.82	-29756.5	0.000000	0.000000	6.962016	9.638593	NaN	0.000000	0.001521	0.001754	28.0821	10.8741	0.001626	6689.57	11.1217	-175.209	9.580321	0.961065	0.009812	0.009550	9.638593	6689.57	0.008732	0.007806	1234.78	69176.7
537	2.000000	0.963334	7.37031e+06	-50239.1	1005.82	-29756.5	0.000000	0.000000	6.964189	13.6902	NaN	0.000000	0.001542	0.001786	28.0819	12.9045	0.001685	7657.05	5.244293	-172.45	13.5013	0.963067	0.011819	0.011552	13.6902	7657.05	0.010478	0.009718	1408.78	70966.1
537	2.000000	0.965366	7.37031e+06	-50239.1	1005.82	-29756.5	0.000000	0.000000	6.966281	15.1408	NaN	0.000000	0.001563	0.001766	28.0821	15.7028	0.001778	8831.49	10.5385	-177.47	16.3565	0.965011	0.013852	0.013496	15.1408	8831.49	0.012566	0.012175	1243.61	73126.5
537	2.000000	0.967268	7.37031e+06	-50239.1	1005.82	-29756.5	0.000000	0.000000	6.968392	20.2333	NaN	0.000000	0.001581	0.001776	28.0821	17.5135	0.001819	9629.49	8.283919	-177.509	19.9517	0.967032	0.015753	0.015517	20.2333	9629.49	0.014177	0.014203	1424.55	73821.3
537	2.000000	0.969322	7.37031e+06	-50239.1	1005.82	-29756.5	0.000000	0.000000	6.970575	23.3723	NaN	0.000000	0.001560	0.001729	28.0821	19.8732	0.001791	11094.6	7.802895	-178.004	24.0048	0.968991	0.017807	0.017476	23.3723	11094.6	0.016227	0.016956	1378.38	77843.1
537	2.000000	0.971295	7.37031e+06	-50239.1	1005.82	-29756.5	0.000000	0.000000	6.972691	26.8559	NaN	0.000000	0.001552	0.001747	28.0823	20.6869	0.001738	11901.8	1.661514	-173.829	25.5872	0.970958	0.019780	0.019443	26.8559	11901.8	0.018088	0.019626	1368.4	77619.6
537	2.000000	0.973293	7.37031e+06	-50239.1	1005.82	-29756.5	0.000000	0.000000	6.974653	25.9735	NaN	0.000000	0.001545	0.001788	28.0821	22.4399	0.001738	12914.4	3.910506	-176.383	24.9633	0.973032	0.021778	0.021517	25.9735	12914.4	0.020270	0.022968	1130.87	77855.4
537	2.000000	0.975372	7.37031e+06	-50239.1	1005.82	-29756.5	0.000000	0.000000	6.977037	33.3836	NaN	0.000000	0.001582	0.001761	28.081	25.0483	0.001946	12874	7.522615	-179.182	36.2662	0.975023	0.023857	0.023508	33.3836	12874	0.021912	0.025637	1302.18	73460.7
537	2.000000	0.977295	7.37031e+06	-50239.1	1005.82	-29756.5	0.000000	0.000000	6.979117	37.2086	NaN	0.000000	0.001553	0.001772	28.0808	26.7669	0.001779	15042.4	8.889937	176.93	37.5967	0.976978	0.025780	0.025463	37.2086	15042.4	0.023925	0.029089	1279.14	80580
537	2.000000	0.979277	7.37031e+06	-50239.1	1005.82	-29756.5	0.000000	0.000000	6.981243	40.7018	NaN	0.000000	0.001564	0.001752	28.0806	29.0692	0.001793	16210.4	5.801972	178.672	38.8299	0.978978	0.027762	0.027463	40.7018	16210.4	0.025879	0.032634	1247.21	81984.1
537	2.000000	0.981195	7.37031e+06	-50239.1	1005.82	-29756.5	0.000000	0.000000	6.983534	49.7742	NaN	0.000000	0.001559	0.001777	28.0815	30.0321	0.001731	17349.2	4.133040	-179.531	45.9549	0.980888	0.029680	0.029373	49.7742	17349.2	0.027529	0.035777	1391.23	83801.5
537	2.000000	0.983213	7.37031e+06	-50239.1	1005.82	-29756.5	0.000000	0.000000	6.985629	51.6435	NaN	0.000000	0.001573	0.001773	28.0807	32.4563	0.001757	18470	6.946937	176.375	48.1398	0.982975	0.031698	0.031460	51.6435	18470	0.029601	0.039921	1293.63	84457.7
537	2.000000	0.985284	7.37031e+06	-50239.1	1005.82	-29756.5	0.000000	0.000000	6.987918	56.9314	NaN	0.000000	0.001543	0.001778	28.0806	34.5688	0.001735	19920	7.026616	176.249	55.6375	0.985017	0.033769	0.033502	56.9314	19920	0.031626	0.044181	1288.59	86585.5
537	2.000000	0.987220	7.37031e+06	-50239.1	1005.82	-29756.5	0.000000	0.000000	6.990107	63.0936	NaN	0.000000	0.001535	0.001752	28.0805	35.6129	0.001725	20640.6	5.016886	177.765	61.8016	0.987000	0.035706	0.035485	63.0936	20640.6	0.033413	0.048115	1311.3	85971.3
537	2.000000	0.989247	7.37031e+06	-50239.1	1005.82	-29756.5	0.000000	0.000000	6.992521	72.5078	NaN	0.000000	0.001559	0.001742	28.0804	38.5823	0.001752	22027.7	2.222894	179.234	71.435	0.988969	0.037732	0.037454	72.5078	22027.7	0.035263	0.052360	1384.78	87950.9
537	2.000000	0.991196	7.37031e+06	-50239.1	1005.82	-29756.5	0.000000	0.000000	6.994765	79.685	NaN	0.000000	0.001588	0.001776	28.0806	39.3081	0.001696	23180.6	3.341651	178.225	77.7994	0.990898	0.039681	0.039383	79.685	23180.6	0.037103	0.056757	1403.98	88897.4
537	2.000000	0.993286	7.37031e+06	-50239.1	1005.82	-29756.5	0.000000	0.000000	6.997056	84.567	NaN	0.000000	0.001595	0.001749	28.0809	43.3046	0.001839	23551.7	7.147202	175.32	85.8723	0.992906	0.041771	0.041391	84.567	23551.7	0.039078	0.061667	1371.35	86650.2
537	2.000000	0.995299	7.37031e+06	-50239.1	1005.82	-29756.5	0.000000	0.000000	6.999313	90.4997	NaN	0.000000	0.001594	0.001767	28.0809	45.2484	0.001808	25029.1	9.708618	172.228	93.6157	0.994943	0.043784	0.043428	90.4997	25029.1	0.041072	0.066828	1354.21	88458
537	2.000000	0.997233	7.37031e+06	-50239.1	1005.82	-29756.5	0.000000	0.000000	7.001551	97.9088	NaN	0.000000	0.001585	0.001776	28.0804	45.8204	0.001767	25934	5.000398	175.883	94.9413	0.996914	0.045718	0.045400	97.9088	25934	0.042886	0.071700	1365.53	88487.5
537	2.000000	0.999238	7.37031e+06	-50239.1	1005.82	-29756.5	0.000000	0.000000	7.003827	104.478	NaN	0.000000	0.001562	0.001769	28.0803	48.2086	0.001779	27098	4.937343	175.843	102.78	0.998949	0.047723	0.047434	104.478	27098	0.044832	0.077110	1354.92	89156.6
537	2.000000	1.001191	7.37031e+06	-50239.1	1005.82	-29756.5	0.000000	0.000000	7.006384	119.172	NaN	0.000000	0.001574	0.001768	28.0803	48.8948	0.001684	29041.6	0.499700	179.449	116.386	1.000850	0.049676	0.049335	119.172	29041.6	0.046599	0.082190	1449.96	92551.6
537	2.000000	1.003201	7.37031e+06	-50239.1	1005.82	-29756.5	0.000000	0.000000	7.008728	127.302	NaN	0.000000	0.001596	0.001775	28.0804	52.4309	0.001804	29062.8	6.051718	174.002	125.039	1.002930	0.051686	0.051415	127.302	29062.8	0.048401	0.087535	1454.3	89747
537	2.000000	1.005283	7.37031e+06	-50239.1	1005.82	-29756.5	0.000000	0.000000	7.010988	131.607	NaN	0.000000	0.001572	0.001807	28.081	53.6633	0.001712	31348.4	5.752545	174.451	132.707	1.004869	0.053769	0.053354	131.607	31348.4	0.050620	0.094339	1395.04	93248.6
537	2.000000	1.007245	7.37031e+06	-50239.1	1005.82	-29756.5	0.000000	0.000000	7.013422	143.119	NaN	0.000000	0.001542	0.001816	28.0803	55.3364	0.001774	31193.8	4.068274	176.346	142.481	1.006891	0.055730	0.055376	143.119	31193.8	0.052289	0.099619	1436.67	90296.6
537	2.000000	1.009250	7.37031e+06	-50239.1	1005.82	-29756.5	0.000000	0.000000	7.015839	153.13	NaN	0.000000	0.001530	0.001771	28.0817	57.7591	0.001814	31848.3	4.721867	175.184	152.993	1.008882	0.057735	0.057367	153.13	31848.3	0.054129	0.105602	1450.07	89541.4
537	2.000000	1.011203	7.37031e+06	-50239.1	1005.82	-29756.5	0.000000	0.000000	7.018089	160.352	NaN	0.000000	0.001542	0.001757	28.0817	58.2702	0.001779	32754.2	4.278100	174.933	158.945	1.010924	0.059688	0.059410	160.352	32754.2	0.056017	0.111913	1432.83	89454.2
537	2.000000	1.013377	7.37031e+06	-50239.1	1005.82	-29756.5	0.000000	0.000000	7.020378	163.135	NaN	0.000000	0.001536	0.001754	28.0817	61.9477	0.001746	35471.3	6.570377	172.276	172.072	1.013038	0.061862	0.061524	163.135	35471.3	0.058413	0.120179	1357.44	93483.8
537	2.000000	1.015244	7.37031e+06	-50239.1	1005.82	-29756.5	0.000000	0.000000	7.022985	181.143	NaN	0.000000	0.001543	0.001748	28.0817	63.3133	0.001804	35089.8	5.477350	173.508	180.997	1.014909	0.063729	0.063394	181.143	35089.8	0.059857	0.125296	1445.72	90570.2
537	2.000000	1.017205	7.37031e+06	-50239.1	1005.82	-29756.5	0.000000	0.000000	7.025393	192.013	NaN	0.000000	0.001547	0.001772	28.0817	65.3396	0.001825	35793.2	4.725809	173.72	189.564	1.016926	0.065690	0.065411	192.013	35793.2	0.061667	0.131854	1456.26	90059.2
537	2.000000	1.019256	7.37031e+06	-50239.1	1005.82	-29756.5	0.000000	0.000000	7.027702	198.274	NaN	0.000000	0.001549	0.001762	28.082	67.8102	0.001736	39054.6	7.996989	169.775	200.711	1.018947	0.067741	0.067432	198.274	39054.6	0.063934	0.140291	1413.31	95264.6
537	2.000000	1.021271	7.37031e+06	-50239.1	1005.82	-29756.5	0.000000	0.000000	7.030050	206.391	NaN	0.000000	0.001590	0.001816	28.0816	68.0646	0.001736	39215.8	0.689169	176.963	207.083	1.021069	0.069756	0.069554	206.391	39215.8	0.065809	0.147457	1399.67	93304.1
537	2.000000	1.023266	7.37031e+06	-50239.1	1005.82	-29756.5	0.000000	0.000000	7.032797	224.673	NaN	0.000000	0.001592	0.001811	28.0818	71.8755	0.001925	37333.4	5.216227	173.829	227.292	1.022821	0.071751	0.071306	224.673	37333.4	0.067237	0.153032	1468.14	87192.5
537	2.000000	1.025355	7.37031e+06	-50239.1	1005.82	-29756.5	0.000000	0.000000	7.035291	234.524	NaN	0.000000	0.001615	0.001801	28.0821	72.2556	0.001729	41793.8	4.305231	173.604	239.951	1.024817	0.073840	0.073302	234.524	41793.8	0.069632	0.162594	1442.39	94696.2
537	2.000000	1.027059	7.37031e+06	-50239.1	1005.82	-29756.5	0.000000	0.000000	7.037785	253.73	NaN	0.000000	0.001606	0.001783	28.0817	73.4406	0.001758	41776.1	6.662171	170.718	245.815	1.026765	0.075544	0.075250	253.73	41776.1	0.070989	0.168135	1509.08	93083.2
537	2.000000	1.029283	7.37031e+06	-50239.1	1005.82	-29756.5	0.000000	0.000000	7.040208	258.583	NaN	0.000000	0.001608	0.001795	28.0818	76.486	0.001665	45939.9	4.710544	172.189	261.574	1.028791	0.077768	0.077276	258.583	45939.9	0.073546	0.178813	1446.11	99257.7
537	2.000000	1.031182	7.37031e+06	-50239.1	1005.82	-29756.5	0.000000	0.000000	7.042168	260.038	NaN	0.000000	0.001592	0.001819	28.082	77.2492	0.001763	43808.8	2.724402	174.219	259.171	1.031055	0.079667	0.079540	260.038	43808.8	0.075216	0.185949	1398.44	92819.2
537	2.000000	1.033153	7.37031e+06	-50239.1	1005.82	-29756.5	0.000000	0.000000	7.045057	282.374	NaN	0.000000	0.001605	0.001780	28.0821	79.3749	0.001801	44070.5	1.398034	175.895	278.413	1.032770	0.081638	0.081255	282.374	44070.5	0.076833	0.192988	1463.17	91655.1
537	2.000000	1.035164	7.37031e+06	-50239.1	1005.82	-29756.5	0.000000	0.000000	7.047583	294.895	NaN	0.000000	0.001628	0.001775	28.0819	81.7188	0.001851	44141.2	4.080111	173.229	291.795	1.034812	0.083649	0.083297	294.895	44141.2	0.078639	0.200994	1467.18	89955.1
537	2.000000	1.037243	7.37031e+06	-50239.1	1005.82	-29756.5	0.000000	0.000000	7.049954	302.012	NaN	0.000000	0.001553	0.001774	28.0816	83.5136	0.001872	44623.2	7.397706	169.636	303.109	1.036894	0.085728	0.085379	302.012	44623.2	0.080652	0.210096	1437.49	88945.6
537	2.000000	1.039111	7.37031e+06	-50239.1	1005.82	-29756.5	0.000000	0.000000	7.052366	315.221	NaN	0.000000	0.001573	0.001768	28.0817	85.3381	0.001852	46076.5	4.003092	172.482	310.98	1.038847	0.087596	0.087332	315.221	46076.5	0.082465	0.218459	1442.93	90067.3
537	2.000000	1.041091	7.37031e+06	-50239.1	1005.82	-29756.5	0.000000	0.000000	7.054787	325.962	NaN	0.000000	0.001591	0.001785	28.0818	85.5824	0.001769	48377.1	5.086226	170.853	321.786	1.040920	0.089576	0.089405	325.962	48377.1	0.084523	0.228130	1428.84	92538.3
537	2.000000	1.043102	7.37031e+06	-50239.1	1005.82	-29756.5	0.000000	0.000000	7.057288	337.885	NaN	0.000000	0.001555	0.001819	28.0816	88.2329	0.001763	50052	2.575666	173.341	331.684	1.042787	0.091587	0.091273	337.885	50052	0.086524	0.237726	1421.32	93789.9
537	2.000000	1.045112	7.37031e+06	-50239.1	1005.82	-29756.5	0.000000	0.000000	7.059900	352.526	NaN	0.000000	0.001581	0.001860	28.0806	90.2885	0.001728	52236.6	4.464938	171.582	346.274	1.044830	0.093597	0.093315	352.526	52236.6	0.088535	0.247554	1424.03	95920.9
537	2.000000	1.047078	7.37031e+06	-50239.1	1005.82	-29756.5	0.000000	0.000000	7.062355	364.409	NaN	0.000000	0.001533	0.001804	28.0805	92.8997	0.001785	52038.2	5.707081	170.389	358.163	1.046713	0.095563	0.095198	364.409	52038.2	0.090311	0.256386	1421.33	93896.2
537	2.000000	1.049158	7.37031e+06	-50239.1	1005.82	-29756.5	0.000000	0.000000	7.065214	383.336	NaN	0.000000	0.001569	0.001799	28.0806	95.7264	0.001886	50755.8	3.015246	173.143	383.043	1.048898	0.097643	0.097384	383.336	50755.8	0.091979	0.264814	1447.56	90113.2
537	2.000000	1.051203	7.37031e+06	-50239.1	1005.82	-29756.5	0.000000	0.000000	7.067981	400.913	NaN	0.000000	0.001556	0.001813	28.0807	97.8311	0.001867	52411.5	9.558101	166.685	400.468	1.050774	0.099688	0.099259	400.913	52411.5	0.093951	0.274945	1458.16	91322.3
537	2.000000	1.053120	7.37031e+06	-50239.1	1005.82	-29756.5	0.000000	0.000000	7.070164	407.392	NaN	0.000000	0.001599	0.001817	28.0807	98.3555	0.001822	53987.7	5.303934	170.855	401.971	1.052725	0.101605	0.101210	407.392	53987.7	0.095945	0.285367	1427.61	92335
537	2.000000	1.055272	7.37031e+06	-50239.1	1005.82	-29756.5	0.000000	0.000000	7.073036	424.887	NaN	0.000000	0.001599	0.001809	28.0804	99.9977	0.001875	53336.4	5.477845	171.468	428.981	1.054864	0.103757	0.103349	424.887	53336.4	0.097783	0.295131	1439.66	89699.4
537	2.000000	1.056649	7.37031e+06	-50239.1	1005.82	-29756.5	0.000000	0.000000	7.074673	431.212	NaN	0.000000	0.001537	0.001760	28.0807	100.759	0.001798	56038.6	6.150586	-10.5618	426.888	1.056220	0.105134	0.104705	431.212	56038.6	0.099363	0.303650	1420.1	92912.5