File: remote_trans/data/nanoindenter/0828-1/data/Data_2025-08-06,11h17m57s/2025-07-22_16-23-58_1_191.txt
2025-07-22, 16:23:58, 1
Index	Phase	Displacement	Time	Pos X	Pos Y	Pos Z	Rot A	Rot B	Piezo Z	Force A	Force B	Gripper	Voltage A	Voltage B	Temperature	Amplitude force	Amplitude pos	Stiffness	Phase shift	Phase excitation	Force A raw	Displacement raw	HMax	HMax raw	Real Force	Real Stiffness	Contact Depth	Area	Hardness	Reduced Mod.
[#]	[#]	[um]	[s]	[um]	[um]	[um]	[m°]	[m°]	[um]	[uN]	[uN]	[V]	[V]	[V]	[°C]	[uN]	[um]	[N/m]	[°]	[°]	[uN]	[um]	[um]	[um]	[uN]	[N/m]	[um]	[um^2]	[MPa]	[MPa]
191	1.000000	0.003176	7.36691e+06	-48189.1	955.818	-29763.7	0.000000	0.000000	6.002823	0.021631	NaN	0.000000	0.001670	0.001764	28.0791	0.068238	0.001029	66.3101	-22.2833	-164.944	-0.106829	0.001899	-1.091642	-1.092920	0.021631	66.3101	-1.091887	-3.900775E+14	-5.545381E-17	NaN
191	1.000000	0.013213	7.36691e+06	-48189.1	955.818	-29763.7	0.000000	0.000000	6.012860	0.021646	NaN	0.000000	0.001649	0.001762	28.079	0.139986	0.001247	112.276	-1.424353	21.7509	0.061766	0.011848	-1.081605	-1.082970	0.021646	112.276	-1.081750	-2.851160E+14	-7.591914E-17	NaN
191	1.000000	0.023135	7.36691e+06	-48189.1	955.819	-29763.7	0.000000	0.000000	6.022781	0.009046	NaN	0.000000	0.001609	0.001735	28.0789	0.079148	0.001631	48.5252	-142.271	-165.355	0.090825	0.021839	-1.071684	-1.072980	0.009046	48.5252	-1.071824	-2.097441E+14	-4.312809E-17	NaN
191	1.000000	0.033117	7.36691e+06	-48189.1	955.818	-29763.7	0.000000	0.000000	6.032760	-0.057950	NaN	0.000000	0.001661	0.001735	28.0787	0.031672	0.001952	16.2271	82.4757	14.0214	0.004304	0.031821	-1.061702	-1.062998	-0.057950	16.2271	-1.059023	-1.411546E+14	4.105406E-16	NaN
191	1.000000	0.043116	7.36691e+06	-48189.1	955.819	-29763.7	0.000000	0.000000	6.042760	-0.049568	NaN	0.000000	0.001684	0.001697	28.079	0.061806	0.001856	33.3048	113.609	-167.806	0.038889	0.041816	-1.051702	-1.053003	-0.049568	33.3048	-1.050586	-1.087158E+14	4.559380E-16	NaN
191	1.000000	0.053094	7.36691e+06	-48189.1	955.818	-29763.7	0.000000	0.000000	6.052740	0.008876	NaN	0.000000	0.001683	0.001713	28.0787	0.067073	0.001939	34.5901	123.461	19.1916	-0.066291	0.051746	-1.041724	-1.043073	0.008876	34.5901	-1.041917	-8.312658E+13	-1.067764E-16	NaN
191	1.000000	0.063091	7.36691e+06	-48189.1	955.819	-29763.7	0.000000	0.000000	6.062737	0.027330	NaN	0.000000	0.001672	0.001726	28.0782	0.020498	0.001961	10.4513	29.3328	-161.925	0.030463	0.061772	-1.031728	-1.033047	0.027330	10.4513	-1.033689	-6.443180E+13	-4.241698E-16	NaN
191	1.000000	0.073106	7.36691e+06	-48189.1	955.819	-29763.7	0.000000	0.000000	6.072752	0.004099	NaN	0.000000	0.001682	0.001706	28.0787	0.114172	0.001977	57.7368	-129.055	15.2017	-0.033554	0.071827	-1.021712	-1.022992	0.004099	57.7368	-1.021766	-4.453554E+13	-9.203081E-17	NaN
191	1.000000	0.083115	7.36691e+06	-48189.1	955.817	-29763.7	0.000000	0.000000	6.082764	0.085646	NaN	0.000000	0.001680	0.001682	28.079	0.099535	0.001929	51.5868	-84.9451	-168.165	0.004986	0.081781	-1.011703	-1.013038	0.085646	51.5868	-1.012949	-3.388957E+13	-2.527213E-15	NaN
191	1.000000	0.093119	7.36691e+06	-48189.1	955.817	-29763.7	0.000000	0.000000	6.092763	-0.018980	NaN	0.000000	0.001644	0.001705	28.0787	0.045912	0.001972	23.2827	1.603493	14.0906	-0.052163	0.091761	-1.001700	-1.003058	-0.018980	23.2827	-1.001089	-2.346540E+13	8.088644E-16	NaN
191	1.000000	0.103099	7.36691e+06	-48189.1	955.819	-29763.7	0.000000	0.000000	6.102746	0.024900	NaN	0.000000	0.001690	0.001685	28.079	0.056063	0.002013	27.8565	-90.8663	-167.303	0.003585	0.101794	-0.991720	-0.993025	0.024900	27.8565	-0.992390	-1.791842E+13	-1.389627E-15	NaN
191	1.000000	0.113118	7.36691e+06	-48189.1	955.818	-29763.7	0.000000	0.000000	6.112766	0.065571	NaN	0.000000	0.001716	0.001651	28.0789	0.081815	0.001944	42.083	-82.1236	16.8869	0.050809	0.111757	-0.981701	-0.983062	0.065571	42.083	-0.982870	-1.333732E+13	-4.916366E-15	NaN
191	1.000000	0.123139	7.36691e+06	-48189.1	955.818	-29763.7	0.000000	0.000000	6.122786	0.027469	NaN	0.000000	0.001676	0.001718	28.079	0.070251	0.002047	34.3258	79.0882	-162.061	0.062546	0.121892	-0.971680	-0.972927	0.027469	34.3258	-0.972280	-9.602549E+12	-2.860548E-15	NaN
191	1.000000	0.133131	7.36691e+06	-48189.1	955.818	-29763.7	0.000000	0.000000	6.132781	0.106739	NaN	0.000000	0.001670	0.001706	28.0787	0.023418	0.001902	12.3095	-144.423	14.2375	0.044301	0.131782	-0.961688	-0.963036	0.106739	12.3095	-0.968192	-8.458454E+12	-1.261927E-14	NaN
191	1.000000	0.143171	7.36691e+06	-48189.1	955.818	-29763.7	0.000000	0.000000	6.142818	0.040467	NaN	0.000000	0.001705	0.001712	28.0803	0.057043	0.001966	29.0205	34.8764	-165.902	0.015586	0.141807	-0.951648	-0.953012	0.040467	29.0205	-0.952694	-5.228225E+12	-7.740076E-15	NaN
191	1.000000	0.153140	7.36691e+06	-48189.1	955.818	-29763.7	0.000000	0.000000	6.152786	0.016521	NaN	0.000000	0.001647	0.001714	28.0801	0.079525	0.002055	38.7023	54.3184	12.9084	0.054741	0.151728	-0.941679	-0.943091	0.016521	38.7023	-0.941999	-3.750678E+12	-4.404701E-15	NaN
191	1.000000	0.163154	7.36691e+06	-48189.1	955.818	-29763.7	0.000000	0.000000	6.162801	0.019230	NaN	0.000000	0.001702	0.001737	28.0804	0.043248	0.002058	21.0133	-146.173	-165.408	0.050270	0.161866	-0.931664	-0.932952	0.019230	21.0133	-0.932351	-2.779224E+12	-6.919153E-15	NaN
191	1.000000	0.173166	7.36691e+06	-48189.1	955.818	-29763.7	0.000000	0.000000	6.172811	-0.036657	NaN	0.000000	0.001626	0.001713	28.08	0.065504	0.002009	32.6103	-135.771	15.8709	0.005329	0.171791	-0.921652	-0.923028	-0.036657	32.6103	-0.920809	-1.941471E+12	1.888128E-14	NaN
191	1.000000	0.183137	7.36691e+06	-48189.1	955.818	-29763.7	0.000000	0.000000	6.182787	0.112308	NaN	0.000000	0.001647	0.001737	28.0801	0.033533	0.002038	16.4579	147.637	-166.125	0.185671	0.181875	-0.911682	-0.912944	0.112308	16.4579	-0.916800	-1.713941E+12	-6.552596E-14	NaN
191	1.000000	0.193186	7.36691e+06	-48189.1	955.818	-29763.7	0.000000	0.000000	6.192833	0.032834	NaN	0.000000	0.001623	0.001703	28.0801	0.056196	0.002039	27.5553	57.5076	13.3646	0.098081	0.191796	-0.901633	-0.903023	0.032834	27.5553	-0.902526	-1.099517E+12	-2.986231E-14	NaN
191	1.000000	0.203159	7.36691e+06	-48189.1	955.819	-29763.7	0.000000	0.000000	6.202806	0.029009	NaN	0.000000	0.001653	0.001709	28.0803	0.051409	0.001858	27.671	-145.578	-164.983	0.041100	0.201902	-0.891659	-0.892916	0.029009	27.671	-0.892446	-8.034793E+11	-3.610398E-14	NaN
191	1.000000	0.213154	7.36691e+06	-48189.1	955.819	-29763.7	0.000000	0.000000	6.212802	0.061934	NaN	0.000000	0.001657	0.001711	28.0801	0.049290	0.001893	26.0445	107.034	13.5254	0.105913	0.211797	-0.881665	-0.883022	0.061934	26.0445	-0.883449	-6.072132E+11	-1.019966E-13	NaN
191	1.000000	0.223167	7.36691e+06	-48189.1	955.818	-29763.7	0.000000	0.000000	6.222816	0.062495	NaN	0.000000	0.001615	0.001682	28.0806	0.029052	0.001992	14.5867	-35.828	-164.956	0.043184	0.221895	-0.871651	-0.872924	0.062495	14.5867	-0.874865	-4.647836E+11	-1.344600E-13	NaN
191	1.000000	0.233157	7.36691e+06	-48189.1	955.818	-29763.7	0.000000	0.000000	6.232806	0.069389	NaN	0.000000	0.001632	0.001692	28.0802	0.052015	0.002164	24.0316	-60.0393	16.439	0.027728	0.231807	-0.861661	-0.863012	0.069389	24.0316	-0.863827	-3.295454E+11	-2.105583E-13	NaN
191	1.000000	0.243161	7.36691e+06	-48189.1	955.818	-29763.7	0.000000	0.000000	6.242808	0.033384	NaN	0.000000	0.001621	0.001796	28.0804	0.036802	0.001963	18.7479	-136.552	-165.189	0.019550	0.241895	-0.851658	-0.852924	0.033384	18.7479	-0.852994	-2.351109E+11	-1.419916E-13	NaN
191	1.000000	0.253209	7.36691e+06	-48189.1	955.818	-29763.7	0.000000	0.000000	6.252857	0.044120	NaN	0.000000	0.001679	0.001753	28.0802	0.021629	0.002015	10.7346	19.8173	15.3944	-0.040218	0.251780	-0.841610	-0.843039	0.044120	10.7346	-0.844692	-1.814900E+11	-2.430975E-13	NaN
191	1.000000	0.263182	7.36691e+06	-48189.1	955.818	-29763.7	0.000000	0.000000	6.262830	0.056156	NaN	0.000000	0.001657	0.001776	28.0806	0.043066	0.002075	20.7556	-130.08	-166.617	0.100844	0.261890	-0.831636	-0.832929	0.056156	20.7556	-0.833666	-1.286661E+11	-4.364446E-13	NaN
191	1.000000	0.273173	7.36691e+06	-48189.1	955.818	-29763.7	0.000000	0.000000	6.272821	0.054810	NaN	0.000000	0.001672	0.001782	28.0791	0.123894	0.001889	65.5849	138.888	13.8146	0.040356	0.271829	-0.821645	-0.822990	0.054810	65.5849	-0.822272	-9.016155E+10	-6.079140E-13	NaN
191	1.000000	0.283206	7.36691e+06	-48189.1	955.818	-29763.7	0.000000	0.000000	6.282852	0.004704	NaN	0.000000	0.001676	0.001773	28.079	0.109683	0.002112	51.9244	173.595	-166.853	-0.053795	0.281923	-0.811612	-0.812896	0.004704	51.9244	-0.811680	-6.476899E+10	-7.263234E-14	NaN
191	1.000000	0.293185	7.36691e+06	-48189.1	955.819	-29763.7	0.000000	0.000000	6.292833	0.045212	NaN	0.000000	0.001604	0.001775	28.079	0.034428	0.001931	17.8272	166.438	13.4241	0.011385	0.291840	-0.801633	-0.802979	0.045212	17.8272	-0.803536	-5.021705E+10	-9.003398E-13	NaN
191	1.000000	0.303222	7.36691e+06	-48189.1	955.818	-29763.7	0.000000	0.000000	6.302869	0.031329	NaN	0.000000	0.001594	0.001750	28.0791	0.020400	0.001954	10.4425	149.012	-167.642	-0.084150	0.301879	-0.791596	-0.792940	0.031329	10.4425	-0.793846	-3.709528E+10	-8.445422E-13	NaN
191	1.000000	0.313206	7.36691e+06	-48189.1	955.819	-29763.7	0.000000	0.000000	6.312852	0.010103	NaN	0.000000	0.001595	0.001780	28.0788	0.032899	0.002004	16.4204	155.314	16.2724	-0.049981	0.311830	-0.781613	-0.782989	0.010103	16.4204	-0.782075	-2.566971E+10	-3.935581E-13	NaN
191	1.000000	0.323215	7.36691e+06	-48189.1	955.819	-29763.7	0.000000	0.000000	6.322861	0.016404	NaN	0.000000	0.001629	0.001753	28.0787	0.072157	0.001849	39.0276	176.997	-165.966	0.040561	0.321894	-0.771604	-0.772925	0.016404	39.0276	-0.771919	-1.868082E+10	-8.781045E-13	NaN
191	1.000000	0.333253	7.36691e+06	-48189.1	955.817	-29763.7	0.000000	0.000000	6.332899	0.005880	NaN	0.000000	0.001597	0.001782	28.0787	0.023665	0.002074	11.4103	-71.0795	15.8202	-0.012230	0.331838	-0.761565	-0.762981	0.005880	11.4103	-0.761952	-1.367266E+10	-4.300501E-13	NaN
191	1.000000	0.343236	7.36691e+06	-48189.1	955.818	-29763.7	0.000000	0.000000	6.342881	-0.022800	NaN	0.000000	0.001626	0.001804	28.0788	0.123780	0.001936	63.9229	46.2651	-163.968	0.044386	0.341974	-0.751583	-0.752844	-0.022800	63.9229	-0.751315	-9.797667E+9	2.327105E-12	NaN
191	1.000000	0.353226	7.36691e+06	-48189.1	955.818	-29763.7	0.000000	0.000000	6.352873	0.017361	NaN	0.000000	0.001614	0.001791	28.0789	0.065777	0.002025	32.4814	-171.368	12.8865	0.026379	0.351895	-0.741592	-0.742924	0.017361	32.4814	-0.741993	-7.314839E+9	-2.373459E-12	NaN
191	1.000000	0.363224	7.36691e+06	-48189.1	955.818	-29763.7	0.000000	0.000000	6.362870	0.007765	NaN	0.000000	0.001642	0.001778	28.0789	0.086231	0.001911	45.1333	126.669	-167.019	-0.014104	0.361925	-0.731594	-0.732893	0.007765	45.1333	-0.731723	-5.300247E+9	-1.464983E-12	NaN
191	1.000000	0.373248	7.36691e+06	-48189.1	955.818	-29763.7	0.000000	0.000000	6.372897	0.075453	NaN	0.000000	0.001640	0.001761	28.0789	0.035795	0.001842	19.4367	-75.5576	10.3347	-0.000650	0.371853	-0.721571	-0.722966	0.075453	19.4367	-0.724482	-4.222708E+9	-1.786844E-11	NaN
191	1.000000	0.383231	7.36691e+06	-48189.1	955.818	-29763.7	0.000000	0.000000	6.382881	0.120356	NaN	0.000000	0.001639	0.001772	28.0788	0.074728	0.001993	37.4968	165.764	-162.494	0.005047	0.381915	-0.711588	-0.712904	0.120356	37.4968	-0.713996	-3.037862E+9	-3.961874E-11	NaN
191	1.000000	0.393247	7.36691e+06	-48189.1	955.818	-29763.7	0.000000	0.000000	6.392896	0.081480	NaN	0.000000	0.001620	0.001792	28.0788	0.008295	0.002039	4.068460	-43.6252	14.8715	0.037538	0.391848	-0.701572	-0.702971	0.081480	4.068460	-0.716592	-3.296012E+9	-2.472071E-11	NaN
191	1.000000	0.403256	7.36691e+06	-48189.1	955.818	-29763.7	0.000000	0.000000	6.402901	0.002386	NaN	0.000000	0.001608	0.001778	28.0785	0.091735	0.001899	48.2975	-69.9318	-165.081	0.068581	0.401929	-0.691563	-0.692890	0.002386	48.2975	-0.691600	-1.502397E+9	-1.587940E-12	NaN
191	1.000000	0.413267	7.36691e+06	-48189.1	955.818	-29763.7	0.000000	0.000000	6.412916	0.089428	NaN	0.000000	0.001580	0.001802	28.0801	0.019709	0.001940	10.1602	107.683	12.9202	0.030397	0.411909	-0.681552	-0.682909	0.089428	10.1602	-0.688153	-1.347955E+9	-6.634314E-11	NaN
191	1.000000	0.423304	7.36691e+06	-48189.1	955.818	-29763.7	0.000000	0.000000	6.422950	0.015882	NaN	0.000000	0.001599	0.001754	28.0799	0.129407	0.002050	63.1289	145.698	-168.49	0.118153	0.421933	-0.671515	-0.672886	0.015882	63.1289	-0.671704	-8.029863E+8	-1.977817E-11	NaN
191	1.000000	0.433247	7.36691e+06	-48189.1	955.82	-29763.7	0.000000	0.000000	6.432891	-0.046705	NaN	0.000000	0.001601	0.001818	28.0799	0.079871	0.002064	38.699	41.09	12.1182	-0.091242	0.431922	-0.661571	-0.662897	-0.046705	38.699	-0.660666	-5.670157E+8	8.236908E-11	NaN
191	1.000000	0.443272	7.36691e+06	-48189.1	955.819	-29763.7	0.000000	0.000000	6.442917	-0.021533	NaN	0.000000	0.001617	0.001795	28.0797	0.045028	0.001895	23.7627	-103.518	-166.232	-0.094890	0.441963	-0.651546	-0.652856	-0.021533	23.7627	-0.650867	-4.162141E+8	5.173454E-11	NaN
191	1.000000	0.453268	7.36691e+06	-48189.1	955.818	-29763.7	0.000000	0.000000	6.452916	0.057443	NaN	0.000000	0.001608	0.001763	28.0802	0.111961	0.001962	57.0786	137.166	13.9013	0.048041	0.451853	-0.641551	-0.642966	0.057443	57.0786	-0.642306	-3.176309E+8	-1.808478E-10	NaN
191	1.000000	0.463241	7.36691e+06	-48189.1	955.818	-29763.7	0.000000	0.000000	6.462888	0.028952	NaN	0.000000	0.001616	0.001767	28.0799	0.051886	0.002042	25.4053	86.2133	-165.464	0.037755	0.461931	-0.631578	-0.632888	0.028952	25.4053	-0.632433	-2.325014E+8	-1.245235E-10	NaN
191	1.000000	0.473276	7.36691e+06	-48189.1	955.818	-29763.7	0.000000	0.000000	6.472920	-0.035745	NaN	0.000000	0.001559	0.001789	28.0797	0.018326	0.002012	9.109582	-173.66	14.0065	0.007022	0.471913	-0.621543	-0.622906	-0.035745	9.109582	-0.618600	-1.501018E+8	2.381380E-10	NaN
191	1.000000	0.483296	7.36691e+06	-48189.1	955.819	-29763.7	0.000000	0.000000	6.482943	0.054505	NaN	0.000000	0.001623	0.001754	28.0793	0.079072	0.001968	40.1728	13.8364	-164.409	0.102415	0.481956	-0.611523	-0.612863	0.054505	40.1728	-0.612541	-1.238986E+8	-4.399144E-10	NaN
191	1.000000	0.493287	7.36691e+06	-48189.1	955.818	-29763.7	0.000000	0.000000	6.492935	0.068708	NaN	0.000000	0.001574	0.001771	28.0801	0.138307	0.001984	69.7264	115.991	14.4037	0.050092	0.491929	-0.601532	-0.602890	0.068708	69.7264	-0.602271	-8.948122E+7	-7.678468E-10	NaN
191	1.000000	0.503306	7.36691e+06	-48189.1	955.817	-29763.7	0.000000	0.000000	6.502952	0.012159	NaN	0.000000	0.001624	0.001782	28.0799	0.009768	0.002091	4.672182	155.438	-161.143	0.017342	0.501992	-0.591513	-0.592827	0.012159	4.672182	-0.593465	-6.767417E+7	-1.796683E-10	NaN
191	1.000000	0.513316	7.36691e+06	-48189.1	955.818	-29763.7	0.000000	0.000000	6.512964	0.057984	NaN	0.000000	0.001592	0.001770	28.0802	0.118393	0.002012	58.8507	18.826	14.9519	0.075109	0.511921	-0.581503	-0.582898	0.057984	58.8507	-0.582242	-4.738770E+7	-1.223604E-9	NaN
191	1.000000	0.523302	7.36691e+06	-48189.1	955.819	-29763.7	0.000000	0.000000	6.522951	0.089267	NaN	0.000000	0.001629	0.001772	28.0801	0.027554	0.001995	13.8114	95.7523	-165.398	0.084971	0.522001	-0.571517	-0.572818	0.089267	13.8114	-0.576364	-3.931333E+7	-2.270644E-9	NaN
191	1.000000	0.533302	7.36691e+06	-48189.1	955.818	-29763.7	0.000000	0.000000	6.532949	0.021301	NaN	0.000000	0.001614	0.001788	28.0802	0.071435	0.002056	34.751	133.834	14.6427	-0.032327	0.531988	-0.561517	-0.562831	0.021301	34.751	-0.561976	-2.487219E+7	-8.564201E-10	NaN
191	1.000000	0.543279	7.36691e+06	-48189.1	955.818	-29763.7	0.000000	0.000000	6.542924	-0.017196	NaN	0.000000	0.001626	0.001770	28.0799	0.011654	0.001951	5.973125	-166.616	-166.862	-0.019675	0.542025	-0.551540	-0.552793	-0.017196	5.973125	-0.549381	-1.664863E+7	1.032897E-9	NaN
191	1.000000	0.553295	7.36691e+06	-48189.1	955.817	-29763.7	0.000000	0.000000	6.552941	0.004997	NaN	0.000000	0.001615	0.001773	28.0787	0.080351	0.001985	40.4892	100.244	16.261	-0.030149	0.551947	-0.541524	-0.542872	0.004997	40.4892	-0.541616	-1.299487E+7	-3.845088E-10	NaN
191	1.000000	0.563308	7.36691e+06	-48189.1	955.818	-29763.7	0.000000	0.000000	6.562952	-0.038672	NaN	0.000000	0.001614	0.001784	28.0789	0.034141	0.002036	16.7684	92.4111	-164.838	-0.021389	0.562004	-0.531511	-0.532815	-0.038672	16.7684	-0.529781	-8.90302e+06	4.343721E-9	NaN
191	1.000000	0.573328	7.36691e+06	-48189.1	955.817	-29763.7	0.000000	0.000000	6.572973	-0.014913	NaN	0.000000	0.001588	0.001749	28.0789	0.074700	0.002024	36.9154	-108.955	17.2296	-0.062213	0.571942	-0.521491	-0.522876	-0.014913	36.9154	-0.521188	-6.76266e+06	2.205204E-9	NaN
191	1.000000	0.583336	7.36691e+06	-48189.1	955.818	-29763.7	0.000000	0.000000	6.582983	0.031159	NaN	0.000000	0.001588	0.001789	28.0789	0.147487	0.001926	76.5785	78.5764	-166.495	0.042288	0.582013	-0.511483	-0.512806	0.031159	76.5785	-0.511788	-5.00397e+06	-6.226809E-9	NaN
191	1.000000	0.593328	7.36691e+06	-48189.1	955.818	-29763.7	0.000000	0.000000	6.592975	0.022521	NaN	0.000000	0.001584	0.001793	28.0789	0.059053	0.001973	29.9381	-60.3261	15.9351	0.030668	0.591973	-0.501490	-0.502846	0.022521	29.9381	-0.502055	-3.66164e+06	-6.150490E-9	NaN
191	1.000000	0.603344	7.36691e+06	-48189.1	955.818	-29763.7	0.000000	0.000000	6.602991	0.039250	NaN	0.000000	0.001571	0.001745	28.0794	0.035111	0.002058	17.0617	122.135	-163.835	0.113684	0.602014	-0.491475	-0.492804	0.039250	17.0617	-0.493200	-2.75487e+06	-1.424753E-8	NaN
191	1.000000	0.613326	7.36691e+06	-48189.1	955.818	-29763.7	0.000000	0.000000	6.612971	-0.017545	NaN	0.000000	0.001589	0.001763	28.0789	0.072899	0.001987	36.6916	-89.5561	17.5312	0.030312	0.611941	-0.481493	-0.482877	-0.017545	36.6916	-0.481134	-1.86811e+06	9.391598E-9	NaN
191	1.000000	0.623353	7.36691e+06	-48189.1	955.817	-29763.7	0.000000	0.000000	6.623001	0.060372	NaN	0.000000	0.001613	0.001779	28.0793	0.084467	0.002018	41.8526	-175.095	-161.717	0.043572	0.622001	-0.471466	-0.472817	0.060372	41.8526	-0.472548	-1.41623e+06	-4.262843E-8	NaN
191	1.000000	0.633353	7.36691e+06	-48189.1	955.817	-29763.7	0.000000	0.000000	6.632997	-0.014279	NaN	0.000000	0.001615	0.001807	28.0788	0.061845	0.002054	30.1054	70.7155	13.7074	-0.021080	0.632023	-0.461466	-0.462796	-0.014279	30.1054	-0.461111	-978638	1.459022E-8	NaN
191	1.000000	0.643343	7.36691e+06	-48189.1	955.818	-29763.7	0.000000	0.000000	6.642989	0.028349	NaN	0.000000	0.001605	0.001807	28.0793	0.028286	0.001997	14.1678	-97.1148	-163.45	0.116390	0.642038	-0.451476	-0.452780	0.028349	14.1678	-0.452977	-752053	-3.769487E-8	NaN
191	1.000000	0.653355	7.36691e+06	-48189.1	955.819	-29763.7	0.000000	0.000000	6.653003	0.053575	NaN	0.000000	0.001587	0.001773	28.0787	0.033263	0.002191	15.1822	-73.8747	14.2096	0.096994	0.651977	-0.441463	-0.442842	0.053575	15.1822	-0.444110	-564085	-9.497675E-8	NaN
191	1.000000	0.663353	7.36691e+06	-48189.1	955.818	-29763.7	0.000000	0.000000	6.662999	0.005639	NaN	0.000000	0.001618	0.001803	28.0787	0.081228	0.001937	41.9427	21.3593	-162.001	-0.038749	0.662034	-0.431465	-0.432784	0.005639	41.9427	-0.431566	-375159	-1.503093E-8	NaN
191	1.000000	0.673361	7.36691e+06	-48189.1	955.817	-29763.7	0.000000	0.000000	6.673009	0.053025	NaN	0.000000	0.001539	0.001806	28.0787	0.071265	0.001961	36.348	-18.4939	15.9248	0.038296	0.672028	-0.421458	-0.422791	0.053025	36.348	-0.422552	-279636	-1.896210E-7	NaN
191	1.000000	0.683372	7.36691e+06	-48189.1	955.818	-29763.7	0.000000	0.000000	6.683018	-0.007838	NaN	0.000000	0.001580	0.001773	28.08	0.036247	0.002046	17.7177	-169.62	-165.061	0.032371	0.682037	-0.411446	-0.412781	-0.007838	17.7177	-0.411115	-192419	4.073590E-8	NaN
191	1.000000	0.693362	7.36691e+06	-48189.1	955.818	-29763.7	0.000000	0.000000	6.693008	0.019119	NaN	0.000000	0.001640	0.001697	28.08	0.073591	0.002105	34.9532	-41.3198	14.7741	-0.012832	0.692007	-0.401457	-0.402811	0.019119	34.9532	-0.401867	-142106	-1.345396E-7	NaN
191	1.000000	0.703361	7.36691e+06	-48189.1	955.819	-29763.7	0.000000	0.000000	6.703010	0.083417	NaN	0.000000	0.001603	0.001739	28.08	0.048177	0.002140	22.5138	26.5897	-164.432	0.092502	0.702065	-0.391458	-0.392753	0.083417	22.5138	-0.394237	-110595	-7.542594E-7	NaN
191	1.000000	0.713380	7.36691e+06	-48189.1	955.819	-29763.7	0.000000	0.000000	6.713026	-0.006969	NaN	0.000000	0.001628	0.001721	28.0802	0.100432	0.001918	52.3749	-164.296	17.4182	-0.015520	0.712037	-0.381438	-0.382781	-0.006969	52.3749	-0.381339	-72292.8	9.639795E-8	NaN
191	1.000000	0.723413	7.36691e+06	-48189.1	955.819	-29763.7	0.000000	0.000000	6.723058	-0.006995	NaN	0.000000	0.001612	0.001715	28.08	0.118652	0.002041	58.1447	112.31	-167.812	0.030068	0.722024	-0.371406	-0.372795	-0.006995	58.1447	-0.371315	-51888.1	1.348018E-7	NaN
191	1.000000	0.733399	7.36691e+06	-48189.1	955.817	-29763.7	0.000000	0.000000	6.733044	0.005332	NaN	0.000000	0.001592	0.001713	28.0797	0.043798	0.002065	21.2125	150.803	11.7937	0.009840	0.731993	-0.361420	-0.362826	0.005332	21.2125	-0.361609	-37591.6	-1.418315E-7	NaN
191	1.000000	0.743382	7.36692e+06	-48189.1	955.818	-29763.7	0.000000	0.000000	6.743029	0.025244	NaN	0.000000	0.001617	0.001727	28.0799	0.080697	0.002069	39.0024	-118.323	-167.171	0.060161	0.742062	-0.351436	-0.352757	0.025244	39.0024	-0.351922	-27219.6	-9.274044E-7	NaN
191	1.000000	0.753418	7.36692e+06	-48189.1	955.819	-29763.7	0.000000	0.000000	6.753066	0.043041	NaN	0.000000	0.001611	0.001719	28.0801	0.041112	0.002049	20.0635	-66.4652	11.9964	0.030528	0.751988	-0.341401	-0.342831	0.043041	20.0635	-0.343009	-20201.9	-2.130529E-6	NaN
191	1.000000	0.763379	7.36692e+06	-48189.1	955.818	-29763.7	0.000000	0.000000	6.763027	0.057937	NaN	0.000000	0.001620	0.001680	28.0801	0.029098	0.001925	15.1195	37.4504	-165.624	-0.043129	0.762082	-0.331440	-0.332737	0.057937	15.1195	-0.334314	-15085.6	-3.840577E-6	NaN
191	1.000000	0.773380	7.36692e+06	-48189.1	955.818	-29763.7	0.000000	0.000000	6.773027	0.032003	NaN	0.000000	0.001615	0.001690	28.08	0.052862	0.001987	26.6027	140.251	12.7813	0.043052	0.772073	-0.321439	-0.322745	0.032003	26.6027	-0.322341	-10070.9	-3.177713E-6	NaN
191	1.000000	0.783432	7.36692e+06	-48189.1	955.818	-29763.7	0.000000	0.000000	6.783078	-0.004581	NaN	0.000000	0.001624	0.001750	28.0802	0.030706	0.001892	16.2308	-92.6702	-165.862	0.040569	0.782105	-0.311386	-0.312714	-0.004581	16.2308	-0.311175	-6893.44	6.646134E-7	NaN
191	1.000000	0.793396	7.36692e+06	-48189.1	955.818	-29763.7	0.000000	0.000000	6.793042	0.012845	NaN	0.000000	0.001618	0.001679	28.08	0.027066	0.002116	12.7906	77.8378	14.7618	-0.032547	0.792055	-0.301423	-0.302764	0.012845	12.7906	-0.302176	-5069.96	-2.533483E-6	NaN
191	1.000000	0.803413	7.36692e+06	-48189.1	955.818	-29763.7	0.000000	0.000000	6.803060	0.025429	NaN	0.000000	0.001601	0.001703	28.0798	0.056440	0.002027	27.843	6.102427	-171.004	0.041650	0.802157	-0.291406	-0.292661	0.025429	27.843	-0.292090	-3585.91	-7.091283E-6	NaN
191	1.000000	0.813431	7.36692e+06	-48189.1	955.818	-29763.7	0.000000	0.000000	6.813080	0.074904	NaN	0.000000	0.001587	0.001710	28.0799	0.055791	0.002024	27.5701	33.4051	16.6926	0.081658	0.812004	-0.281387	-0.282815	0.074904	27.5701	-0.283425	-2658.13	-2.817924E-5	NaN
191	1.000000	0.823448	7.36692e+06	-48189.1	955.818	-29763.7	0.000000	0.000000	6.823094	0.004108	NaN	0.000000	0.001588	0.001701	28.0789	0.070219	0.001863	37.6924	63.6349	-165.095	0.014790	0.822096	-0.271371	-0.272723	0.004108	37.6924	-0.271453	-1752.31	-2.344287E-6	NaN
191	1.000000	0.833446	7.36692e+06	-48189.1	955.818	-29763.7	0.000000	0.000000	6.833091	-0.010558	NaN	0.000000	0.001570	0.001716	28.0788	0.038430	0.001972	19.4895	78.9393	12.3806	-0.050042	0.832073	-0.261373	-0.262746	-0.010558	19.4895	-0.260966	-1212.62	8.706641E-6	NaN
191	1.000000	0.843456	7.36692e+06	-48189.1	955.818	-29763.7	0.000000	0.000000	6.843100	-0.030810	NaN	0.000000	0.001559	0.001747	28.0788	0.120557	0.002059	58.5558	147.475	-164.95	0.009301	0.842164	-0.251363	-0.252654	-0.030810	58.5558	-0.250968	-851.011	3.620426E-5	NaN
191	1.000000	0.853429	7.36692e+06	-48189.1	955.817	-29763.7	0.000000	0.000000	6.853079	0.115742	NaN	0.000000	0.001620	0.001741	28.0788	0.023665	0.001988	11.9045	-81.8431	13.7407	0.096706	0.852072	-0.241390	-0.242747	0.115742	11.9045	-0.248682	-784.45	-0.000148	NaN
191	1.000000	0.863442	7.36692e+06	-48189.1	955.818	-29763.7	0.000000	0.000000	6.863090	0.051532	NaN	0.000000	0.001578	0.001740	28.079	0.111503	0.002094	53.2399	134.603	-164.959	0.029739	0.862133	-0.231376	-0.232686	0.051532	53.2399	-0.232102	-432.189	-0.000119	NaN
191	1.000000	0.873442	7.36692e+06	-48189.1	955.818	-29763.7	0.000000	0.000000	6.873091	0.083541	NaN	0.000000	0.001624	0.001737	28.0787	0.134847	0.001920	70.2164	114.69	9.978515	0.040815	0.872079	-0.221376	-0.222740	0.083541	70.2164	-0.222269	-301.913	-0.000277	NaN
191	1.000000	0.883431	7.36692e+06	-48189.1	955.818	-29763.7	0.000000	0.000000	6.883077	0.014070	NaN	0.000000	0.001583	0.001700	28.0789	0.026531	0.001975	13.4344	30.7768	-163.74	0.032290	0.882131	-0.211388	-0.212688	0.014070	13.4344	-0.212173	-207.95	-6.765920E-5	NaN
191	1.000000	0.893478	7.36692e+06	-48189.1	955.818	-29763.7	0.000000	0.000000	6.893123	-0.010826	NaN	0.000000	0.001581	0.001710	28.0787	0.084843	0.002043	41.5309	107.969	14.7367	-0.041610	0.892099	-0.201341	-0.202719	-0.010826	41.5309	-0.201145	-137.563	7.869785E-5	NaN
191	1.000000	0.903436	7.36692e+06	-48189.1	955.819	-29763.7	0.000000	0.000000	6.903083	0.019243	NaN	0.000000	0.001573	0.001714	28.0789	0.080245	0.002029	39.5534	63.3791	-167.366	0.059461	0.902161	-0.191382	-0.192658	0.019243	39.5534	-0.191747	-96.1999	-0.000200	NaN
191	1.000000	0.913472	7.36692e+06	-48189.1	955.818	-29763.7	0.000000	0.000000	6.913118	0.027637	NaN	0.000000	0.001570	0.001718	28.0786	0.035226	0.001968	17.9008	147.071	15.5283	-0.054762	0.912090	-0.181347	-0.182728	0.027637	17.9008	-0.182505	-67.2953	-0.000411	NaN
191	1.000000	0.923477	7.36692e+06	-48189.1	955.818	-29763.7	0.000000	0.000000	6.923123	0.016356	NaN	0.000000	0.001621	0.001710	28.0786	0.035379	0.001967	17.9832	-45.3505	-166.918	0.052845	0.922194	-0.171342	-0.172625	0.016356	17.9832	-0.172024	-44.5331	-0.000367	NaN
191	1.000000	0.933485	7.36692e+06	-48189.1	955.818	-29763.7	0.000000	0.000000	6.933131	0.006792	NaN	0.000000	0.001589	0.001717	28.0789	0.077884	0.002028	38.4106	150.381	12.3804	0.057395	0.932122	-0.161334	-0.162696	0.006792	38.4106	-0.161467	-29.1073	-0.000233	NaN
191	1.000000	0.943490	7.36692e+06	-48189.1	955.819	-29763.7	0.000000	0.000000	6.943137	0.039681	NaN	0.000000	0.001567	0.001717	28.0787	0.066803	0.002048	32.6245	75.238	-163.625	0.041078	0.942214	-0.151329	-0.152605	0.039681	32.6245	-0.152241	-19.8952	-0.001995	NaN
191	1.000000	0.953479	7.36692e+06	-48189.1	955.818	-29763.7	0.000000	0.000000	6.953127	0.041873	NaN	0.000000	0.001540	0.001702	28.0787	0.065726	0.001953	33.6516	151.278	13.297	0.140440	0.952173	-0.141339	-0.142646	0.041873	33.6516	-0.142273	-13.0468	-0.003209	NaN
191	1.000000	0.963494	7.36692e+06	-48189.1	955.818	-29763.7	0.000000	0.000000	6.963142	0.043883	NaN	0.000000	0.001575	0.001676	28.0797	0.081996	0.002035	40.2969	-27.7924	-166.014	0.098542	0.962165	-0.131324	-0.132654	0.043883	40.2969	-0.132141	-8.383913	-0.005234	NaN
191	1.000000	0.973492	7.36692e+06	-48189.1	955.82	-29763.7	0.000000	0.000000	6.973140	0.069298	NaN	0.000000	0.001593	0.001683	28.08	0.068036	0.002037	33.3948	-87.0427	17.6896	-0.041370	0.972124	-0.121327	-0.122695	0.069298	33.3948	-0.122883	-5.520022	-0.012554	NaN
191	1.000000	0.983499	7.36692e+06	-48189.1	955.819	-29763.7	0.000000	0.000000	6.983147	0.062003	NaN	0.000000	0.001579	0.001673	28.0797	0.113828	0.001957	58.1698	-64.6143	-167.993	0.044551	0.982176	-0.111320	-0.112643	0.062003	58.1698	-0.112119	-3.329181	-0.018624	NaN
191	1.000000	0.993515	7.36692e+06	-48189.1	955.818	-29763.7	0.000000	0.000000	6.993162	0.035961	NaN	0.000000	0.001570	0.001702	28.0799	0.043595	0.001998	21.8231	171.724	14.4934	0.031160	0.992117	-0.101303	-0.102702	0.035961	21.8231	-0.102539	-2.078196	-0.017304	NaN
191	1.000000	1.003497	7.36692e+06	-48189.1	955.817	-29763.7	0.000000	0.000000	7.003145	0.076837	NaN	0.000000	0.001582	0.001696	28.0802	0.086485	0.002056	42.0728	-154.192	-168.256	0.060396	1.002214	-0.091322	-0.092604	0.076837	42.0728	-0.092692	-1.248727	-0.061532	NaN
191	1.000000	1.013497	7.36692e+06	-48189.1	955.819	-29763.7	0.000000	0.000000	7.013142	-0.009754	NaN	0.000000	0.001569	0.001687	28.08	0.054022	0.002048	26.377	150.109	13.1017	0.076658	1.012174	-0.081322	-0.082645	-0.009754	26.377	-0.081045	-0.657238	0.014841	NaN
191	1.000000	1.023503	7.36692e+06	-48189.1	955.819	-29763.7	0.000000	0.000000	7.023149	-0.007007	NaN	0.000000	0.001582	0.001724	28.0797	0.055301	0.002015	27.4495	150.257	-164.455	-0.007842	1.022147	-0.071315	-0.072671	-0.007007	27.4495	-0.071124	-0.365495	0.019172	NaN
191	1.000000	1.033531	7.36692e+06	-48189.1	955.82	-29763.7	0.000000	0.000000	7.033178	0.024877	NaN	0.000000	0.001573	0.001693	28.0796	0.059026	0.001892	31.1995	-146.631	16.4158	-0.023571	1.032187	-0.061287	-0.062632	0.024877	31.1995	-0.061885	-0.203820	-0.122053	NaN
191	1.000000	1.043512	7.36692e+06	-48189.1	955.82	-29763.7	0.000000	0.000000	7.043160	0.056461	NaN	0.000000	0.001589	0.001702	28.0799	0.013505	0.002041	6.617395	-80.8525	-166.541	-0.048675	1.042239	-0.051307	-0.052579	0.056461	6.617395	-0.057706	-0.154602	-0.365204	NaN
191	1.000000	1.053549	7.36692e+06	-48189.1	955.817	-29763.7	0.000000	0.000000	7.053192	-0.053982	NaN	0.000000	0.001641	0.001674	28.0795	0.131266	0.002009	65.3398	-79.9941	15.8797	0.092867	1.052203	-0.041270	-0.042616	-0.053982	65.3398	-0.040650	-0.047328	1.140585	NaN
191	1.000000	1.063546	7.36692e+06	-48189.1	955.819	-29763.7	0.000000	0.000000	7.063193	0.044458	NaN	0.000000	0.001590	0.001682	28.0794	0.036117	0.001884	19.174	-62.8983	-163.876	0.052504	1.062218	-0.031273	-0.032601	0.044458	19.174	-0.033012	-0.028020	-1.586640	NaN
191	1.000000	1.073519	7.36692e+06	-48189.1	955.818	-29763.7	0.000000	0.000000	7.073165	0.007550	NaN	0.000000	0.001607	0.001682	28.0794	0.015725	0.001955	8.045046	145.205	17.9082	-0.073683	1.072174	-0.021299	-0.022645	0.007550	8.045046	-0.022003	-0.014124	-0.534532	NaN
191	1.000000	1.083496	7.36692e+06	-48189.1	955.82	-29763.7	0.000000	0.000000	7.083140	-0.021591	NaN	0.000000	0.001590	0.001703	28.0797	0.023166	0.002003	11.5642	-143.97	-163.041	0.013751	1.082247	-0.011323	-0.012571	-0.021591	11.5642	-0.009923	-0.006343	3.403847	NaN
191	1.000000	1.093489	7.36692e+06	-48189.1	955.819	-29763.7	0.000000	0.000000	7.093136	0.025601	NaN	0.000000	0.001628	0.001703	28.0781	0.132688	0.002046	64.8598	-95.8304	11.9272	-0.035376	1.092181	-0.001329	-0.002638	0.025601	64.8598	-0.001625	-0.001178	-21.7348	NaN
191	1.000000	1.103419	7.36692e+06	-48189.1	955.819	-29763.7	0.000000	0.000000	7.103395	8.033930	NaN	0.000000	0.001647	0.001746	28.0784	8.159775	0.001700	4798.62	13.3081	-175.366	6.388120	1.102166	0.008600	0.007348	8.033930	4798.62	0.007345	0.006377	1259.85	54901.6
191	2.000000	1.106589	7.36692e+06	-48189.1	955.82	-29763.7	0.000000	0.000000	7.106673	10.6544	NaN	0.000000	0.001595	0.001729	28.0783	11.2003	0.001674	6691.61	7.352732	6.294931	10.4992	1.106156	0.011771	0.011337	10.6544	6691.61	0.010577	0.009829	1083.95	61665.5
191	2.000000	1.109058	7.36692e+06	-48189.1	955.819	-29763.7	0.000000	0.000000	7.109283	14.0828	NaN	0.000000	0.001625	0.001729	28.0785	14.348	0.001849	7758.48	9.834308	-175.742	14.2626	1.108722	0.014239	0.013903	14.0828	7758.48	0.012878	0.012559	1121.36	63252.5
191	2.000000	1.111551	7.36692e+06	-48189.1	955.819	-29763.7	0.000000	0.000000	7.111953	18.3992	NaN	0.000000	0.001625	0.001693	28.0784	16.1983	0.001722	9405.5	3.046236	8.315145	17.1846	1.111216	0.016732	0.016397	18.3992	9405.5	0.015265	0.015641	1176.37	68711.4
191	2.000000	1.114027	7.36692e+06	-48189.1	955.819	-29763.7	0.000000	0.000000	7.114627	23.2155	NaN	0.000000	0.001596	0.001704	28.0783	19.4102	0.001810	10726.6	6.152162	-175.644	23.1807	1.113709	0.019208	0.018890	23.2155	10726.6	0.017585	0.018889	1229.06	71306.9
191	2.000000	1.116552	7.36692e+06	-48189.1	955.819	-29763.7	0.000000	0.000000	7.117298	26.7782	NaN	0.000000	0.001596	0.001661	28.0786	22.1546	0.001940	11419.4	4.878043	6.057810	27.6977	1.116085	0.021733	0.021267	26.7782	11419.4	0.019974	0.022502	1190.04	69551.6
191	2.000000	1.118999	7.36692e+06	-48189.1	955.818	-29763.7	0.000000	0.000000	7.119901	30.5704	NaN	0.000000	0.001594	0.001705	28.0782	24.4709	0.001883	12995.6	5.886271	-177.394	30.208	1.118647	0.024180	0.023828	30.5704	12995.6	0.022416	0.026482	1154.39	72962.1
191	2.000000	1.121527	7.36692e+06	-48189.1	955.818	-29763.7	0.000000	0.000000	7.122739	38.0938	NaN	0.000000	0.001623	0.001706	28.0785	26.1408	0.001824	14334.6	7.496820	1.530519	36.9251	1.121132	0.026708	0.026313	38.0938	14334.6	0.024715	0.030499	1249.01	74992
191	2.000000	1.123962	7.36692e+06	-48189.1	955.819	-29763.7	0.000000	0.000000	7.125425	44.2061	NaN	0.000000	0.001627	0.001672	28.0784	27.7658	0.001728	16064	0.720292	-174.052	43.339	1.123660	0.029144	0.028841	44.2061	16064	0.027080	0.034908	1266.36	78553.4
191	2.000000	1.126493	7.36692e+06	-48189.1	955.818	-29763.7	0.000000	0.000000	7.128239	51.0863	NaN	0.000000	0.001608	0.001695	28.0787	31.911	0.001928	16550.1	6.461309	-0.214143	50.1008	1.126182	0.031675	0.031363	51.0863	16550.1	0.029360	0.039427	1295.73	76151.5
191	2.000000	1.128944	7.36692e+06	-48189.1	955.819	-29763.7	0.000000	0.000000	7.130866	55.3719	NaN	0.000000	0.001559	0.001667	28.0782	33.8059	0.001867	18110.5	7.857644	177.337	53.801	1.128704	0.034125	0.033885	55.3719	18110.5	0.031832	0.044626	1240.8	78326.9
191	2.000000	1.131509	7.36692e+06	-48189.1	955.819	-29763.7	0.000000	0.000000	7.133820	64.8213	NaN	0.000000	0.001621	0.001684	28.0784	35.7894	0.001943	18421.2	6.166052	-0.353279	63.9063	1.131180	0.036690	0.036362	64.8213	18421.2	0.034051	0.049559	1307.95	75601.1
191	2.000000	1.133937	7.36692e+06	-48189.1	955.82	-29763.7	0.000000	0.000000	7.136568	72.6275	NaN	0.000000	0.001615	0.001724	28.0785	37.8357	0.001790	21132.7	5.696660	177.791	72.2644	1.133710	0.039118	0.038891	72.6275	21132.7	0.036541	0.055394	1311.11	82034.6
191	2.000000	1.136406	7.36692e+06	-48189.1	955.819	-29763.7	0.000000	0.000000	7.139378	80.9016	NaN	0.000000	0.001568	0.001702	28.0797	40.2555	0.001710	23535.2	5.090206	-2.812203	76.8271	1.136085	0.041587	0.041266	80.9016	23535.2	0.039009	0.061493	1315.62	86711.7
191	2.000000	1.138922	7.36692e+06	-48189.1	955.82	-29763.7	0.000000	0.000000	7.142010	83.7319	NaN	0.000000	0.001630	0.001716	28.0797	43.6892	0.001822	23976.5	3.936351	178.482	80.746	1.138769	0.044103	0.043950	83.7319	23976.5	0.041484	0.067920	1232.81	84054.5
191	2.000000	1.141524	7.36692e+06	-48189.1	955.819	-29763.7	0.000000	0.000000	7.145159	97.0501	NaN	0.000000	0.001596	0.001739	28.0795	46.3204	0.001827	25355.4	8.273878	-5.496926	98.3381	1.141065	0.046705	0.046247	97.0501	25355.4	0.043834	0.074312	1305.97	84979.2
191	2.000000	1.143934	7.36692e+06	-48189.1	955.819	-29763.7	0.000000	0.000000	7.148042	108.531	NaN	0.000000	0.001574	0.001691	28.0798	48.2351	0.001624	29708.4	9.176835	170.781	107.426	1.143615	0.049116	0.048796	108.531	29708.4	0.046376	0.081541	1331	95052.5
191	2.000000	1.146468	7.36692e+06	-48189.1	955.819	-29763.7	0.000000	0.000000	7.150913	116.736	NaN	0.000000	0.001576	0.001740	28.0798	51.0899	0.001813	28172.7	6.927132	-5.593708	117.246	1.146120	0.051650	0.051301	116.736	28172.7	0.048542	0.087959	1327.15	86788.2
191	2.000000	1.148935	7.36692e+06	-48189.1	955.819	-29763.7	0.000000	0.000000	7.153811	127.212	NaN	0.000000	0.001579	0.001752	28.0797	52.3615	0.001719	30453.3	4.404177	175.67	124.567	1.148620	0.054116	0.053801	127.212	30453.3	0.050983	0.095476	1332.4	90045.1
191	2.000000	1.151514	7.36692e+06	-48189.1	955.82	-29763.7	0.000000	0.000000	7.156909	139.821	NaN	0.000000	0.001581	0.001702	28.0796	54.9719	0.001786	30775.9	6.940529	-5.892626	142.693	1.151005	0.056696	0.056186	139.821	30775.9	0.053288	0.102847	1359.5	87677.4
191	2.000000	1.153863	7.36692e+06	-48189.1	955.819	-29763.7	0.000000	0.000000	7.159702	150.632	NaN	0.000000	0.001621	0.001721	28.0798	56.5283	0.001765	32018.4	5.384940	174.165	146.356	1.153617	0.059044	0.058798	150.632	32018.4	0.055516	0.110221	1366.64	88113.1
191	2.000000	1.156380	7.36692e+06	-48189.1	955.819	-29763.7	0.000000	0.000000	7.162918	167.65	NaN	0.000000	0.001558	0.001727	28.0797	58.3772	0.001644	35498.8	1.529835	-2.392107	162.03	1.155989	0.061561	0.061170	167.65	35498.8	0.058019	0.118801	1411.19	94097.3
191	2.000000	1.158931	7.36692e+06	-48189.1	955.82	-29763.7	0.000000	0.000000	7.165979	180.027	NaN	0.000000	0.001585	0.001725	28.0798	62.1978	0.001906	32632.1	2.260735	178.61	178.16	1.158543	0.064113	0.063724	180.027	32632.1	0.059975	0.125718	1431.99	84085
191	2.000000	1.161451	7.36692e+06	-48189.1	955.82	-29763.7	0.000000	0.000000	7.169021	192.726	NaN	0.000000	0.001572	0.001712	28.0795	65.0414	0.001833	35477.6	8.667332	-9.143371	192.478	1.161017	0.066633	0.066199	192.726	35477.6	0.062558	0.135142	1426.1	88172.4
191	2.000000	1.163928	7.36692e+06	-48189.1	955.819	-29763.7	0.000000	0.000000	7.172091	207.164	NaN	0.000000	0.001581	0.001719	28.0799	65.9549	0.001759	37486.6	7.657448	171.813	206.072	1.163550	0.069110	0.068731	207.164	37486.6	0.064965	0.144211	1436.53	90188.2
191	2.000000	1.166376	7.36692e+06	-48189.1	955.819	-29763.7	0.000000	0.000000	7.175094	220.66	NaN	0.000000	0.001568	0.001724	28.0795	68.0107	0.001738	39121.2	5.862231	-7.146150	216.857	1.166018	0.071557	0.071199	220.66	39121.2	0.067327	0.153385	1438.61	91263
191	2.000000	1.168902	7.36692e+06	-48189.1	955.82	-29763.7	0.000000	0.000000	7.178197	234.705	NaN	0.000000	0.001561	0.001697	28.0797	71.0143	0.001835	38699.9	3.647486	174.862	231.305	1.168623	0.074083	0.073804	234.705	38699.9	0.069534	0.162199	1447.02	87792.8
191	2.000000	1.171356	7.36692e+06	-48189.1	955.819	-29763.7	0.000000	0.000000	7.181382	252.478	NaN	0.000000	0.001589	0.001725	28.0782	70.7907	0.001640	43163.4	-1.260521	-0.496072	246.208	1.171049	0.076537	0.076230	252.478	43163.4	0.072150	0.172945	1459.87	94827.7
191	2.000000	1.173989	7.36692e+06	-48189.1	955.819	-29763.7	0.000000	0.000000	7.184500	264.263	NaN	0.000000	0.001602	0.001736	28.0789	75.3292	0.001811	41585.5	7.257812	170.839	267.893	1.173603	0.079170	0.078784	264.263	41585.5	0.074404	0.182465	1448.29	88945.9
191	2.000000	1.176384	7.36692e+06	-48189.1	955.821	-29763.7	0.000000	0.000000	7.187664	282.98	NaN	0.000000	0.001580	0.001738	28.0778	76.1521	0.001716	44387.8	3.822055	-6.186717	280.965	1.176056	0.081565	0.081238	282.98	44387.8	0.076784	0.192772	1467.95	92366.5
191	2.000000	1.178964	7.36692e+06	-48189.1	955.819	-29763.7	0.000000	0.000000	7.190312	284.638	NaN	0.000000	0.001622	0.001712	28.0786	80.7632	0.001796	44965.5	5.455826	171.453	284.784	1.178768	0.084145	0.083950	284.638	44965.5	0.079398	0.204403	1392.53	90867.6
191	2.000000	1.181384	7.36692e+06	-48189.1	955.819	-29763.7	0.000000	0.000000	7.193868	312.264	NaN	0.000000	0.001661	0.001691	28.0782	82.2351	0.001827	45002.9	7.000980	-9.564733	308.461	1.181029	0.086565	0.086210	312.264	45002.9	0.081361	0.213349	1463.63	89016.1
191	2.000000	1.183777	7.36692e+06	-48189.1	955.819	-29763.7	0.000000	0.000000	7.197084	332.272	NaN	0.000000	0.001650	0.001704	28.0796	82.0534	0.001673	49039.4	2.923668	173.966	324.946	1.183529	0.088958	0.088710	332.272	49039.4	0.083877	0.225071	1476.3	94440.4
191	2.000000	1.186340	7.36692e+06	-48189.1	955.82	-29763.7	0.000000	0.000000	7.200390	350.348	NaN	0.000000	0.001658	0.001716	28.0782	85.9941	0.001835	46855.5	4.255492	-6.485033	345.45	1.185981	0.091522	0.091162	350.348	46855.5	0.085914	0.234779	1492.24	88349.5
191	2.000000	1.189029	7.36692e+06	-48189.1	955.82	-29763.7	0.000000	0.000000	7.203381	357.698	NaN	0.000000	0.001675	0.001750	28.0787	89.4442	0.001719	52034.4	4.903470	171.734	366.52	1.188648	0.094210	0.093829	357.698	52034.4	0.089054	0.250122	1430.1	95057.9
191	2.000000	1.191475	7.36692e+06	-48189.1	955.821	-29763.7	0.000000	0.000000	7.206952	385.062	NaN	0.000000	0.001657	0.001740	28.0782	91.4112	0.001739	52562.8	7.054799	-10.2449	385.392	1.190964	0.096656	0.096145	385.062	52562.8	0.091162	0.260671	1477.2	94060.1
191	2.000000	1.193874	7.36692e+06	-48189.1	955.82	-29763.7	0.000000	0.000000	7.210193	405.538	NaN	0.000000	0.001609	0.001732	28.0787	93.5074	0.001803	51868.9	8.802563	167.971	404.639	1.193501	0.099055	0.098682	405.538	51868.9	0.093191	0.271020	1496.34	91028.9
191	2.000000	1.196378	7.36692e+06	-48189.1	955.819	-29763.7	0.000000	0.000000	7.213530	425.815	NaN	0.000000	0.001607	0.001730	28.0783	95.6531	0.001785	53574.8	6.486291	-10.0496	423.435	1.195925	0.101559	0.101106	425.815	53574.8	0.095598	0.283538	1501.79	91923.9
191	2.000000	1.198914	7.36692e+06	-48189.1	955.82	-29763.7	0.000000	0.000000	7.216748	442.383	NaN	0.000000	0.001619	0.001742	28.0784	99.321	0.001788	55539.5	7.532566	168.741	443.68	1.198487	0.104095	0.103668	442.383	55539.5	0.098121	0.296948	1489.77	93118.4
191	2.000000	1.201371	7.36692e+06	-48189.1	955.82	-29763.7	0.000000	0.000000	7.219965	460.859	NaN	0.000000	0.001634	0.001709	28.0783	101.019	0.001883	53640.4	8.339556	-11.4042	457.217	1.201048	0.106553	0.106229	460.859	53640.4	0.100109	0.307714	1497.69	88347
191	2.000000	1.202762	7.36692e+06	-48189.1	955.819	-29763.7	0.000000	0.000000	7.221765	470.808	NaN	0.000000	0.001627	0.001731	28.0784	102.534	0.001892	54202.6	1.894800	174.741	464.233	1.202524	0.107943	0.107705	470.808	54202.6	0.101429	0.314961	1494.81	88239.9