File: remote_trans/data/nanoindenter/0828-1/data/Data_2025-08-06,11h17m57s/2025-07-22_16-23-58_1_513.txt
2025-07-22, 16:23:58, 1
Index	Phase	Displacement	Time	Pos X	Pos Y	Pos Z	Rot A	Rot B	Piezo Z	Force A	Force B	Gripper	Voltage A	Voltage B	Temperature	Amplitude force	Amplitude pos	Stiffness	Phase shift	Phase excitation	Force A raw	Displacement raw	HMax	HMax raw	Real Force	Real Stiffness	Contact Depth	Area	Hardness	Reduced Mod.
[#]	[#]	[um]	[s]	[um]	[um]	[um]	[m°]	[m°]	[um]	[uN]	[uN]	[V]	[V]	[V]	[°C]	[uN]	[um]	[N/m]	[°]	[°]	[uN]	[um]	[um]	[um]	[uN]	[N/m]	[um]	[um^2]	[MPa]	[MPa]
513	1.000000	0.002159	7.37007e+06	-51439.1	1005.82	-29752.3	0.000000	0.000000	6.002826	-0.097878	NaN	0.000000	0.001562	0.001649	28.0821	0.062526	0.000918	68.0872	126.719	-173.135	-0.083398	0.000859	-1.074953	-1.076253	-0.097878	68.0872	-1.073875	-2.234817E+14	4.379693E-16	NaN
513	1.000000	0.012192	7.37007e+06	-51439.1	1005.82	-29752.3	0.000000	0.000000	6.012862	-0.046925	NaN	0.000000	0.001581	0.001666	28.0821	0.046467	0.001343	34.5997	-158.22	14.1233	-0.116661	0.010767	-1.064919	-1.066345	-0.046925	34.5997	-1.063902	-1.641563E+14	2.858539E-16	NaN
513	1.000000	0.022126	7.37007e+06	-51439.1	1005.82	-29752.3	0.000000	0.000000	6.022793	-0.096544	NaN	0.000000	0.001550	0.001718	28.082	0.055117	0.001779	30.9799	-103.242	-163.622	-0.024784	0.020760	-1.054986	-1.056352	-0.096544	30.9799	-1.052649	-1.158823E+14	8.331222E-16	NaN
513	1.000000	0.032070	7.37007e+06	-51439.1	1005.82	-29752.3	0.000000	0.000000	6.032740	-0.032903	NaN	0.000000	0.001587	0.001703	28.082	0.077083	0.001902	40.5351	154.465	18.0242	-0.089114	0.030699	-1.045041	-1.046413	-0.032903	40.5351	-1.044433	-8.986041E+13	3.661542E-16	NaN
513	1.000000	0.042081	7.37007e+06	-51439.1	1005.82	-29752.3	0.000000	0.000000	6.042750	-0.077382	NaN	0.000000	0.001583	0.001720	28.0822	0.067286	0.001902	35.382	4.193141	-166.965	-0.019429	0.040732	-1.035030	-1.036380	-0.077382	35.382	-1.033390	-6.383763E+13	1.212175E-15	NaN
513	1.000000	0.052093	7.37007e+06	-51439.1	1005.82	-29752.3	0.000000	0.000000	6.052761	-0.105848	NaN	0.000000	0.001636	0.001714	28.0823	0.049124	0.002022	24.2915	126.795	14.087	-0.120754	0.050741	-1.025018	-1.026371	-0.105848	24.2915	-1.021750	-4.451458E+13	2.377823E-15	NaN
513	1.000000	0.062080	7.37007e+06	-51439.1	1005.82	-29752.3	0.000000	0.000000	6.062746	-0.128646	NaN	0.000000	0.001590	0.001681	28.0806	0.140234	0.001947	72.0292	145.056	-164.566	-0.134219	0.060790	-1.015032	-1.016321	-0.128646	72.0292	-1.013692	-3.467969E+13	3.709535E-15	NaN
513	1.000000	0.072078	7.37007e+06	-51439.1	1005.82	-29752.3	0.000000	0.000000	6.072746	-0.079205	NaN	0.000000	0.001589	0.001710	28.0809	0.048445	0.002082	23.2736	-154.4	14.3806	-0.090424	0.070756	-1.005034	-1.006356	-0.079205	23.2736	-1.002481	-2.450060E+13	3.232766E-15	NaN
513	1.000000	0.082117	7.37007e+06	-51439.1	1005.82	-29752.3	0.000000	0.000000	6.082784	-0.089644	NaN	0.000000	0.001581	0.001741	28.0809	0.051810	0.001920	26.9877	-175.878	-164.059	-0.051159	0.080784	-0.994995	-0.996328	-0.089644	26.9877	-0.992504	-1.798179E+13	4.985285E-15	NaN
513	1.000000	0.092083	7.37007e+06	-51439.1	1005.82	-29752.3	0.000000	0.000000	6.092750	-0.114323	NaN	0.000000	0.001621	0.001702	28.0807	0.055699	0.001927	28.9047	17.4298	15.6783	-0.092844	0.090706	-0.985029	-0.986406	-0.114323	28.9047	-0.982063	-1.300763E+13	8.788888E-15	NaN
513	1.000000	0.102085	7.37007e+06	-51439.1	1005.82	-29752.3	0.000000	0.000000	6.102750	-0.147486	NaN	0.000000	0.001578	0.001749	28.0809	0.065797	0.001877	35.0475	44.0197	-166.278	-0.143932	0.100748	-0.975027	-0.976364	-0.147486	35.0475	-0.971871	-9.481478E+12	1.555514E-14	NaN
513	1.000000	0.112110	7.37007e+06	-51439.1	1005.82	-29752.3	0.000000	0.000000	6.112778	-0.077637	NaN	0.000000	0.001573	0.001740	28.0811	0.242879	0.002239	108.492	-69.5604	16.0064	-0.077249	0.110717	-0.965002	-0.966395	-0.077637	108.492	-0.964465	-7.534694E+12	1.030387E-14	NaN
513	1.000000	0.122100	7.37007e+06	-51439.1	1005.82	-29752.3	0.000000	0.000000	6.122770	-0.025316	NaN	0.000000	0.001563	0.001735	28.0811	0.049851	0.001933	25.7952	-67.4197	-166.277	-0.073732	0.120803	-0.955012	-0.956309	-0.025316	25.7952	-0.954276	-5.491528E+12	4.610036E-15	NaN
513	1.000000	0.132104	7.37007e+06	-51439.1	1005.82	-29752.3	0.000000	0.000000	6.132773	-0.060744	NaN	0.000000	0.001551	0.001745	28.081	0.066428	0.001777	37.3847	-130.762	14.1796	-0.084647	0.130752	-0.945008	-0.946360	-0.060744	37.3847	-0.943789	-3.965077E+12	1.531975E-14	NaN
513	1.000000	0.142091	7.37007e+06	-51439.1	1005.82	-29752.3	0.000000	0.000000	6.142762	-0.003023	NaN	0.000000	0.001535	0.001714	28.0812	0.038980	0.002062	18.9054	97.4632	-164.071	0.013794	0.140780	-0.935021	-0.936331	-0.003023	18.9054	-0.934901	-3.008398E+12	1.004692E-15	NaN
513	1.000000	0.152108	7.37007e+06	-51439.1	1005.82	-29752.3	0.000000	0.000000	6.152777	-0.058947	NaN	0.000000	0.001598	0.001720	28.0813	0.011646	0.001918	6.072754	-141.618	16.9684	-0.092927	0.150734	-0.925003	-0.926378	-0.058947	6.072754	-0.917723	-1.763864E+12	3.341906E-14	NaN
513	1.000000	0.162110	7.37007e+06	-51439.1	1005.82	-29752.3	0.000000	0.000000	6.162780	-0.022748	NaN	0.000000	0.001568	0.001734	28.0811	0.082924	0.002056	40.3383	-141.906	-165.705	-0.044472	0.160867	-0.915002	-0.916244	-0.022748	40.3383	-0.914579	-1.599583E+12	1.422094E-14	NaN
513	1.000000	0.172112	7.37007e+06	-51439.1	1005.82	-29752.3	0.000000	0.000000	6.172783	-0.015675	NaN	0.000000	0.001552	0.001753	28.0811	0.077039	0.001917	40.1973	-133.512	14.9114	-0.111158	0.170780	-0.905000	-0.906331	-0.015675	40.1973	-0.904707	-1.176699E+12	1.332091E-14	NaN
513	1.000000	0.182104	7.37007e+06	-51439.1	1005.82	-29752.3	0.000000	0.000000	6.182771	-0.102119	NaN	0.000000	0.001578	0.001723	28.0812	0.025215	0.001979	12.7398	-68.5821	-164.107	-0.112650	0.180797	-0.895008	-0.896315	-0.102119	12.7398	-0.888996	-7.216846E+11	1.415003E-13	NaN
513	1.000000	0.192160	7.37007e+06	-51439.1	1005.82	-29752.3	0.000000	0.000000	6.192826	-0.118770	NaN	0.000000	0.001608	0.001743	28.0818	0.029712	0.001943	15.2936	100.688	13.7985	-0.018546	0.190759	-0.884952	-0.886352	-0.118770	15.2936	-0.879128	-5.307746E+11	2.237666E-13	NaN
513	1.000000	0.202157	7.37007e+06	-51439.1	1005.82	-29752.3	0.000000	0.000000	6.202827	-0.043357	NaN	0.000000	0.001607	0.001719	28.0821	0.065589	0.001948	33.6681	-52.6185	-168.431	-0.028623	0.200792	-0.874954	-0.876320	-0.043357	33.6681	-0.873988	-4.522719E+11	9.586538E-14	NaN
513	1.000000	0.212143	7.37007e+06	-51439.1	1005.82	-29752.3	0.000000	0.000000	6.212810	-0.114448	NaN	0.000000	0.001580	0.001721	28.0823	0.014900	0.002191	6.800119	-138.039	15.572	-0.066257	0.210776	-0.864969	-0.866335	-0.114448	6.800119	-0.852346	-2.304114E+11	4.967096E-13	NaN
513	1.000000	0.222145	7.37007e+06	-51439.1	1005.82	-29752.3	0.000000	0.000000	6.222815	-0.039198	NaN	0.000000	0.001588	0.001705	28.0823	0.049721	0.002014	24.693	-93.5341	-161.568	-0.031611	0.220866	-0.854966	-0.856246	-0.039198	24.693	-0.853776	-2.409133E+11	1.627074E-13	NaN
513	1.000000	0.232151	7.37007e+06	-51439.1	1005.82	-29752.3	0.000000	0.000000	6.232819	-0.076240	NaN	0.000000	0.001566	0.001734	28.0822	0.082477	0.002064	39.951	120.08	14.1325	-0.093256	0.230798	-0.844961	-0.846314	-0.076240	39.951	-0.843529	-1.750270E+11	4.355874E-13	NaN
513	1.000000	0.242168	7.37007e+06	-51439.1	1005.82	-29752.3	0.000000	0.000000	6.242839	-0.008032	NaN	0.000000	0.001555	0.001698	28.0825	0.100495	0.002074	48.4658	-117.19	-165.239	-0.005501	0.240837	-0.834944	-0.836275	-0.008032	48.4658	-0.834820	-1.333840E+11	6.021436E-14	NaN
513	1.000000	0.252179	7.37007e+06	-51439.1	1005.82	-29752.3	0.000000	0.000000	6.252849	-0.027864	NaN	0.000000	0.001577	0.001762	28.0824	0.070835	0.002065	34.3074	9.504972	14.1355	-0.059758	0.250834	-0.824933	-0.826277	-0.027864	34.3074	-0.824324	-9.612563E+10	2.898667E-13	NaN
513	1.000000	0.262159	7.37007e+06	-51439.1	1005.82	-29752.3	0.000000	0.000000	6.262827	-0.076921	NaN	0.000000	0.001548	0.001731	28.0822	0.113251	0.002126	53.2782	-161.306	-163.93	-0.037857	0.260852	-0.814953	-0.816259	-0.076921	53.2782	-0.813870	-6.935375E+10	1.109109E-12	NaN
513	1.000000	0.272200	7.37007e+06	-51439.1	1005.82	-29752.3	0.000000	0.000000	6.272868	-0.101806	NaN	0.000000	0.001585	0.001690	28.082	0.150118	0.002023	74.1911	137.658	11.4147	-0.049562	0.270797	-0.804911	-0.806314	-0.101806	74.1911	-0.803882	-5.076419E+10	2.005460E-12	NaN
513	1.000000	0.282144	7.37007e+06	-51439.1	1005.82	-29752.3	0.000000	0.000000	6.282812	-0.070508	NaN	0.000000	0.001594	0.001749	28.0819	0.029821	0.001898	15.708	73.9745	-164.947	-0.068862	0.280845	-0.794968	-0.796267	-0.070508	15.708	-0.791601	-3.458060E+10	2.038954E-12	NaN
513	1.000000	0.292166	7.37007e+06	-51439.1	1005.82	-29752.3	0.000000	0.000000	6.292836	-0.038441	NaN	0.000000	0.001563	0.001744	28.0821	0.025989	0.002024	12.8374	30.1005	12.2303	-0.031126	0.290857	-0.784945	-0.786255	-0.038441	12.8374	-0.782700	-2.617655E+10	1.468535E-12	NaN
513	1.000000	0.302190	7.37007e+06	-51439.1	1005.82	-29752.3	0.000000	0.000000	6.302859	-0.068496	NaN	0.000000	0.001560	0.001716	28.0822	0.072047	0.001910	37.7129	45.0159	-165.207	-0.023092	0.300895	-0.774922	-0.776217	-0.068496	37.7129	-0.773560	-1.966515E+10	3.483113E-12	NaN
513	1.000000	0.312198	7.37007e+06	-51439.1	1005.82	-29752.3	0.000000	0.000000	6.312866	-0.086914	NaN	0.000000	0.001579	0.001723	28.0821	0.050398	0.002100	23.9948	148.023	14.9533	-0.058264	0.310871	-0.764913	-0.766241	-0.086914	23.9948	-0.762197	-1.377797E+10	6.308194E-12	NaN
513	1.000000	0.322203	7.37007e+06	-51439.1	1005.82	-29752.3	0.000000	0.000000	6.322873	-0.056987	NaN	0.000000	0.001563	0.001712	28.0817	0.077591	0.002030	38.2152	-95.7935	-165.331	-0.120673	0.320879	-0.754908	-0.756233	-0.056987	38.2152	-0.753790	-1.058777E+10	5.382317E-12	NaN
513	1.000000	0.332167	7.37007e+06	-51439.1	1005.82	-29752.3	0.000000	0.000000	6.332835	-0.097515	NaN	0.000000	0.001578	0.001726	28.0809	0.069068	0.002006	34.4296	-72.8292	17.0223	-0.014092	0.330859	-0.744945	-0.746253	-0.097515	34.4296	-0.742820	-7.507033E+9	1.298981E-11	NaN
513	1.000000	0.342209	7.37007e+06	-51439.1	1005.82	-29752.3	0.000000	0.000000	6.342878	-0.060977	NaN	0.000000	0.001583	0.001745	28.0808	0.163717	0.001977	82.7993	73.1318	-166.593	0.036440	0.340911	-0.734903	-0.736201	-0.060977	82.7993	-0.734350	-5.755582E+9	1.059449E-11	NaN
513	1.000000	0.352203	7.37007e+06	-51439.1	1005.82	-29752.3	0.000000	0.000000	6.352874	-0.016749	NaN	0.000000	0.001584	0.001705	28.0808	0.087479	0.001796	48.7124	-39.1794	17.1972	-0.084653	0.350874	-0.724909	-0.726238	-0.016749	48.7124	-0.724651	-4.245111E+9	3.945552E-12	NaN
513	1.000000	0.362196	7.37007e+06	-51439.1	1005.82	-29752.3	0.000000	0.000000	6.362863	-0.116360	NaN	0.000000	0.001595	0.001694	28.0808	0.065148	0.002038	31.9742	162.054	-163.354	-0.086051	0.360926	-0.714916	-0.716185	-0.116360	31.9742	-0.712186	-2.869995E+9	4.054365E-11	NaN
513	1.000000	0.372231	7.37007e+06	-51439.1	1005.82	-29752.3	0.000000	0.000000	6.372899	-0.078480	NaN	0.000000	0.001532	0.001713	28.0811	0.085447	0.001996	42.8157	-104.882	14.8614	-0.127583	0.370855	-0.704881	-0.706257	-0.078480	42.8157	-0.703506	-2.184755E+9	3.592185E-11	NaN
513	1.000000	0.382200	7.37007e+06	-51439.1	1005.82	-29752.3	0.000000	0.000000	6.382870	-0.037561	NaN	0.000000	0.001532	0.001724	28.0809	0.038003	0.002098	18.1119	-63.4227	-166.016	-0.037015	0.380931	-0.694912	-0.696180	-0.037561	18.1119	-0.693356	-1.587739E+9	2.365700E-11	NaN
513	1.000000	0.392194	7.37007e+06	-51439.1	1005.82	-29752.3	0.000000	0.000000	6.392861	-0.107307	NaN	0.000000	0.001537	0.001736	28.0811	0.025147	0.002037	12.3447	-133.955	14.8536	-0.042931	0.390835	-0.684917	-0.686277	-0.107307	12.3447	-0.678398	-9.915040E+8	1.082262E-10	NaN
513	1.000000	0.402234	7.37007e+06	-51439.1	1005.82	-29752.3	0.000000	0.000000	6.402903	-0.056062	NaN	0.000000	0.001547	0.001713	28.081	0.076299	0.002105	36.2442	-179.793	-163.742	0.007051	0.400946	-0.674878	-0.676166	-0.056062	36.2442	-0.673718	-8.555935E+8	6.552358E-11	NaN
513	1.000000	0.412239	7.37007e+06	-51439.1	1005.82	-29752.3	0.000000	0.000000	6.412906	-0.127990	NaN	0.000000	0.001583	0.001722	28.0812	0.031550	0.002011	15.6865	-0.448013	15.5691	-0.115045	0.410885	-0.664872	-0.666226	-0.127990	15.6865	-0.658753	-5.338076E+8	2.397677E-10	NaN
513	1.000000	0.422250	7.37007e+06	-51439.1	1005.82	-29752.3	0.000000	0.000000	6.422920	-0.048984	NaN	0.000000	0.001593	0.001733	28.0809	0.005456	0.001933	2.822523	117.655	-165.056	-0.005824	0.420911	-0.654862	-0.656201	-0.048984	2.822523	-0.641846	-3.130476E+8	1.564754E-10	NaN
513	1.000000	0.432240	7.37007e+06	-51439.1	1005.82	-29752.3	0.000000	0.000000	6.432907	-0.100344	NaN	0.000000	0.001584	0.001702	28.0808	0.064461	0.001936	33.2889	170.151	16.585	-0.175333	0.430872	-0.644872	-0.646240	-0.100344	33.2889	-0.642611	-3.207109E+8	3.128808E-10	NaN
513	1.000000	0.442246	7.37007e+06	-51439.1	1005.82	-29752.3	0.000000	0.000000	6.442914	-0.086994	NaN	0.000000	0.001586	0.001713	28.0812	0.009032	0.002138	4.224056	155.947	-163.022	-0.045131	0.440956	-0.634866	-0.636156	-0.086994	4.224056	-0.619420	-1.540486E+8	5.647187E-10	NaN
513	1.000000	0.452240	7.37007e+06	-51439.1	1005.82	-29752.3	0.000000	0.000000	6.452910	-0.043820	NaN	0.000000	0.001596	0.001688	28.081	0.052984	0.002024	26.1718	26.518	13.2417	-0.046695	0.450913	-0.624871	-0.626199	-0.043820	26.1718	-0.623615	-1.759225E+8	2.490845E-10	NaN
513	1.000000	0.462243	7.37007e+06	-51439.1	1005.82	-29752.3	0.000000	0.000000	6.462913	-0.046400	NaN	0.000000	0.001576	0.001689	28.0809	0.085190	0.001886	45.1583	-44.8852	-165.787	0.061987	0.460914	-0.614869	-0.616198	-0.046400	45.1583	-0.614098	-1.301626E+8	3.564745E-10	NaN
513	1.000000	0.472263	7.37007e+06	-51439.1	1005.82	-29752.3	0.000000	0.000000	6.472934	-0.030299	NaN	0.000000	0.001580	0.001735	28.0821	0.049236	0.001915	25.7078	-5.286734	13.9064	-0.109173	0.470838	-0.604848	-0.606274	-0.030299	25.7078	-0.603964	-9.441621E+7	3.209063E-10	NaN
513	1.000000	0.482238	7.37007e+06	-51439.1	1005.82	-29752.3	0.000000	0.000000	6.482908	-0.045705	NaN	0.000000	0.001616	0.001748	28.0825	0.112974	0.001984	56.9409	44.952	-166.268	-0.054922	0.480984	-0.594874	-0.596128	-0.045705	56.9409	-0.594272	-6.942943E+7	6.582995E-10	NaN
513	1.000000	0.492268	7.37007e+06	-51439.1	1005.82	-29752.3	0.000000	0.000000	6.492936	-0.085856	NaN	0.000000	0.001625	0.001689	28.082	0.094027	0.002017	46.6065	22.734	13.0285	-0.078673	0.490852	-0.584844	-0.586260	-0.085856	46.6065	-0.583462	-4.926090E+7	1.742883E-9	NaN
513	1.000000	0.502292	7.37007e+06	-51439.1	1005.82	-29752.3	0.000000	0.000000	6.502961	-0.046098	NaN	0.000000	0.001597	0.001701	28.0822	0.076003	0.002102	36.1538	-88.0839	-164.022	-0.031736	0.500952	-0.574820	-0.576160	-0.046098	36.1538	-0.573864	-3.630837E+7	1.269626E-9	NaN
513	1.000000	0.512273	7.37007e+06	-51439.1	1005.82	-29752.3	0.000000	0.000000	6.512943	-0.056156	NaN	0.000000	0.001547	0.001730	28.082	0.084875	0.002191	38.7399	-128.939	12.8015	-0.037623	0.510897	-0.564838	-0.566215	-0.056156	38.7399	-0.563751	-2.631841E+7	2.133714E-9	NaN
513	1.000000	0.522290	7.37007e+06	-51439.1	1005.82	-29752.3	0.000000	0.000000	6.522957	-0.106504	NaN	0.000000	0.001609	0.001687	28.0822	0.082948	0.002030	40.8603	30.121	-164.673	-0.145355	0.520982	-0.554822	-0.556129	-0.106504	40.8603	-0.552867	-1.860605E+7	5.724148E-9	NaN
513	1.000000	0.532256	7.37007e+06	-51439.1	1005.82	-29752.3	0.000000	0.000000	6.532923	-0.109876	NaN	0.000000	0.001590	0.001731	28.082	0.060870	0.001945	31.2942	-58.6688	16.188	-0.106864	0.530961	-0.544856	-0.546151	-0.109876	31.2942	-0.542222	-1.324873E+7	8.293305E-9	NaN
513	1.000000	0.542287	7.37007e+06	-51439.1	1005.82	-29752.3	0.000000	0.000000	6.542955	-0.069869	NaN	0.000000	0.001527	0.001697	28.0823	0.052773	0.001987	26.5648	4.245587	-163.951	-0.075808	0.540946	-0.534825	-0.536166	-0.069869	26.5648	-0.532853	-9.82162e+06	7.113789E-9	NaN
513	1.000000	0.552267	7.37007e+06	-51439.1	1005.82	-29752.3	0.000000	0.000000	6.552936	-0.069489	NaN	0.000000	0.001520	0.001674	28.0823	0.018255	0.001867	9.780018	-64.4986	16.1621	-0.078822	0.550928	-0.524845	-0.526184	-0.069489	9.780018	-0.519516	-6.4101e+06	1.084056E-8	NaN
513	1.000000	0.562294	7.37007e+06	-51439.1	1005.82	-29752.3	0.000000	0.000000	6.562963	-0.060225	NaN	0.000000	0.001557	0.001686	28.0821	0.099200	0.002106	47.0996	126.867	-168.987	-0.070538	0.560974	-0.514818	-0.516137	-0.060225	47.0996	-0.513859	-5.34751e+06	1.126216E-8	NaN
513	1.000000	0.572298	7.37007e+06	-51439.1	1005.82	-29752.3	0.000000	0.000000	6.572969	-0.016511	NaN	0.000000	0.001541	0.001728	28.0821	0.080636	0.001964	41.062	135.471	13.6683	-0.031295	0.570926	-0.504814	-0.506185	-0.016511	41.062	-0.504512	-3.96225e+06	4.167137E-9	NaN
513	1.000000	0.582292	7.37007e+06	-51439.1	1005.82	-29752.3	0.000000	0.000000	6.582961	-0.067195	NaN	0.000000	0.001523	0.001717	28.0823	0.045105	0.002069	21.7999	-41.4622	-165.066	-0.157513	0.581011	-0.494820	-0.496100	-0.067195	21.7999	-0.492508	-2.69422e+06	2.494027E-8	NaN
513	1.000000	0.592293	7.37007e+06	-51439.1	1005.82	-29752.3	0.000000	0.000000	6.592960	-0.131646	NaN	0.000000	0.001580	0.001708	28.0823	0.097887	0.002042	47.9445	150.013	15.5617	-0.118995	0.591000	-0.484818	-0.486112	-0.131646	47.9445	-0.482759	-1.96852e+06	6.687583E-8	NaN
513	1.000000	0.602317	7.37007e+06	-51439.1	1005.82	-29752.3	0.000000	0.000000	6.602985	-0.089276	NaN	0.000000	0.001536	0.001740	28.0816	0.033130	0.001863	17.7798	134.534	-166.982	-0.097458	0.601007	-0.474794	-0.476105	-0.089276	17.7798	-0.471029	-1.34844e+06	6.620676E-8	NaN
513	1.000000	0.612318	7.37007e+06	-51439.1	1005.82	-29752.3	0.000000	0.000000	6.612984	-0.138996	NaN	0.000000	0.001569	0.001716	28.0809	0.139889	0.001946	71.9014	-40.7516	17.8885	-0.099087	0.610934	-0.464794	-0.466178	-0.138996	71.9014	-0.463344	-1.05195e+06	1.321323E-7	NaN
513	1.000000	0.622294	7.37007e+06	-51439.1	1005.82	-29752.3	0.000000	0.000000	6.622964	-0.043029	NaN	0.000000	0.001558	0.001688	28.081	0.040055	0.001977	20.258	69.6214	-165.026	-0.079163	0.621069	-0.454817	-0.456043	-0.043029	20.258	-0.453224	-758108	5.675812E-8	NaN
513	1.000000	0.632325	7.37007e+06	-51439.1	1005.82	-29752.3	0.000000	0.000000	6.632992	-0.097259	NaN	0.000000	0.001559	0.001690	28.0809	0.092949	0.002036	45.6497	-171.642	18.1429	-0.136957	0.630953	-0.444787	-0.446159	-0.097259	45.6497	-0.443189	-547468	1.776529E-7	NaN
513	1.000000	0.642348	7.37007e+06	-51439.1	1005.82	-29752.3	0.000000	0.000000	6.643018	-0.027823	NaN	0.000000	0.001583	0.001732	28.0814	0.154880	0.001800	86.0214	96.1434	-167.213	-0.069582	0.641002	-0.434764	-0.436110	-0.027823	86.0214	-0.434521	-413034	6.736331E-8	NaN
513	1.000000	0.652340	7.37007e+06	-51439.1	1005.82	-29752.3	0.000000	0.000000	6.653008	-0.099565	NaN	0.000000	0.001559	0.001722	28.081	0.153662	0.001847	83.215	35.7162	15.1689	-0.072999	0.651005	-0.424772	-0.426106	-0.099565	83.215	-0.423874	-291968	3.410133E-7	NaN
513	1.000000	0.662346	7.37007e+06	-51439.1	1005.82	-29752.3	0.000000	0.000000	6.663015	-0.075657	NaN	0.000000	0.001550	0.001739	28.0811	0.014695	0.002067	7.110485	-149.822	-161.943	-0.048838	0.661058	-0.414766	-0.416054	-0.075657	7.110485	-0.406785	-166981	4.530913E-7	NaN
513	1.000000	0.672325	7.37007e+06	-51439.1	1005.82	-29752.3	0.000000	0.000000	6.672993	-0.087887	NaN	0.000000	0.001571	0.001709	28.0807	0.053822	0.002085	25.809	52.7935	14.7106	-0.135748	0.670991	-0.404786	-0.406121	-0.087887	25.809	-0.402232	-143820	6.110891E-7	NaN
513	1.000000	0.682374	7.37007e+06	-51439.1	1005.82	-29752.3	0.000000	0.000000	6.683044	-0.038193	NaN	0.000000	0.001662	0.001714	28.0808	0.155821	0.001888	82.5253	172.6	-165.019	-0.049881	0.680995	-0.394737	-0.396116	-0.038193	82.5253	-0.394390	-111154	3.436067E-7	NaN
513	1.000000	0.692336	7.37007e+06	-51439.1	1005.82	-29752.3	0.000000	0.000000	6.693003	-0.111420	NaN	0.000000	0.001643	0.001721	28.0808	0.023740	0.001876	12.6523	-115.571	15.8868	-0.138927	0.691004	-0.384776	-0.386108	-0.111420	12.6523	-0.378171	-65107.9	1.711312E-6	NaN
513	1.000000	0.702346	7.37007e+06	-51439.1	1005.82	-29752.3	0.000000	0.000000	6.703015	-0.070245	NaN	0.000000	0.001652	0.001710	28.0811	0.099426	0.001809	54.9496	83.4379	-166.069	-0.019588	0.701043	-0.374765	-0.376069	-0.070245	54.9496	-0.373807	-56352.4	1.246537E-6	NaN
513	1.000000	0.712352	7.37007e+06	-51439.1	1005.82	-29752.3	0.000000	0.000000	6.713020	-0.099044	NaN	0.000000	0.001638	0.001718	28.0809	0.103745	0.001986	52.2328	178.549	16.9319	-0.091883	0.711006	-0.364760	-0.366106	-0.099044	52.2328	-0.363338	-39816.2	2.487529E-6	NaN
513	1.000000	0.722377	7.37007e+06	-51439.1	1005.82	-29752.3	0.000000	0.000000	6.723046	-0.075599	NaN	0.000000	0.001563	0.001722	28.0809	0.084179	0.002037	41.3293	-39.0955	-164.794	-0.108841	0.721080	-0.354734	-0.356032	-0.075599	41.3293	-0.353362	-28560.8	2.646944E-6	NaN
513	1.000000	0.732391	7.37007e+06	-51439.1	1005.82	-29752.3	0.000000	0.000000	6.733060	-0.059560	NaN	0.000000	0.001536	0.001729	28.081	0.061241	0.001897	32.2853	9.256018	17.6723	-0.054734	0.731052	-0.344720	-0.346060	-0.059560	32.2853	-0.343337	-20424.8	2.916038E-6	NaN
513	1.000000	0.742372	7.37007e+06	-51439.1	1005.82	-29752.3	0.000000	0.000000	6.743039	-0.101657	NaN	0.000000	0.001571	0.001712	28.0822	0.072127	0.001890	38.1579	22.8212	-162.855	-0.092972	0.741062	-0.334740	-0.336049	-0.101657	38.1579	-0.332742	-14307.9	7.104949E-6	NaN
513	1.000000	0.752386	7.37007e+06	-51439.1	1005.82	-29752.3	0.000000	0.000000	6.753052	-0.146212	NaN	0.000000	0.001589	0.001774	28.0821	0.013344	0.002082	6.408106	127.489	12.0873	-0.140047	0.751000	-0.324725	-0.326111	-0.146212	6.408106	-0.307613	-6105.28	2.394837E-5	NaN
513	1.000000	0.762362	7.37007e+06	-51439.1	1005.82	-29752.3	0.000000	0.000000	6.763031	-0.053023	NaN	0.000000	0.001593	0.001715	28.0821	0.108914	0.001991	54.7051	99.2522	-163.987	-0.046586	0.761057	-0.314750	-0.316055	-0.053023	54.7051	-0.314023	-7594.87	6.981441E-6	NaN
513	1.000000	0.772378	7.37007e+06	-51439.1	1005.82	-29752.3	0.000000	0.000000	6.773047	-0.065042	NaN	0.000000	0.001623	0.001721	28.0823	0.067233	0.001972	34.0909	-176.625	12.7575	-0.058905	0.771097	-0.304733	-0.306015	-0.065042	34.0909	-0.303303	-5269.26	1.234376E-5	NaN
513	1.000000	0.782397	7.37007e+06	-51439.1	1005.82	-29752.3	0.000000	0.000000	6.783064	-0.124524	NaN	0.000000	0.001550	0.001746	28.0821	0.066962	0.002132	31.4087	-148.406	-166.417	-0.205479	0.781080	-0.294714	-0.296032	-0.124524	31.4087	-0.291741	-3542.98	3.514663E-5	NaN
513	1.000000	0.792380	7.37007e+06	-51439.1	1005.82	-29752.3	0.000000	0.000000	6.793047	-0.105126	NaN	0.000000	0.001547	0.001709	28.0821	0.093120	0.002032	45.8224	93.3749	15.3781	-0.111621	0.791028	-0.284732	-0.286084	-0.105126	45.8224	-0.283011	-2620.27	4.012019E-5	NaN
513	1.000000	0.802384	7.37007e+06	-51439.1	1005.82	-29752.3	0.000000	0.000000	6.803049	-0.158748	NaN	0.000000	0.001595	0.001739	28.0821	0.039562	0.001927	20.5313	-136.445	-164.778	-0.168543	0.801062	-0.274727	-0.276050	-0.158748	20.5313	-0.268928	-1604.16	9.895981E-5	NaN
513	1.000000	0.812393	7.37007e+06	-51439.1	1005.82	-29752.3	0.000000	0.000000	6.813061	-0.086075	NaN	0.000000	0.001594	0.001706	28.0824	0.074654	0.001943	38.4162	-72.7042	16.6189	-0.109611	0.811047	-0.264719	-0.266064	-0.086075	38.4162	-0.263038	-1304.43	6.598647E-5	NaN
513	1.000000	0.822382	7.37007e+06	-51439.1	1005.82	-29752.3	0.000000	0.000000	6.823052	-0.043293	NaN	0.000000	0.001640	0.001694	28.0821	0.144060	0.001958	73.5639	114.982	-166.32	-0.050987	0.821114	-0.254729	-0.255997	-0.043293	73.5639	-0.254288	-957.528	4.521370E-5	NaN
513	1.000000	0.832414	7.37007e+06	-51439.1	1005.82	-29752.3	0.000000	0.000000	6.833081	-0.091792	NaN	0.000000	0.001584	0.001752	28.0823	0.064868	0.001891	34.3068	-165.279	10.3261	-0.073842	0.831066	-0.244698	-0.246045	-0.091792	34.3068	-0.242691	-633.189	0.000145	NaN
513	1.000000	0.842416	7.37007e+06	-51439.1	1005.82	-29752.3	0.000000	0.000000	6.843080	-0.175420	NaN	0.000000	0.001598	0.001756	28.0826	0.044163	0.001962	22.5089	84.6152	-161.983	-0.158642	0.841151	-0.234696	-0.235960	-0.175420	22.5089	-0.228851	-384.027	0.000457	NaN
513	1.000000	0.852440	7.37007e+06	-51439.1	1005.82	-29752.3	0.000000	0.000000	6.853106	-0.135900	NaN	0.000000	0.001558	0.001736	28.0823	0.065778	0.001932	34.045	103.134	15.1189	-0.069863	0.851089	-0.224672	-0.226023	-0.135900	34.045	-0.221678	-295.438	0.000460	NaN
513	1.000000	0.862402	7.37007e+06	-51439.1	1005.82	-29752.3	0.000000	0.000000	6.863071	-0.073588	NaN	0.000000	0.001563	0.001712	28.0821	0.112029	0.002036	55.0165	28.8418	-166.053	-0.007121	0.861080	-0.214709	-0.216032	-0.073588	55.0165	-0.213706	-220.133	0.000334	NaN
513	1.000000	0.872430	7.37007e+06	-51439.1	1005.82	-29752.3	0.000000	0.000000	6.873100	-0.041249	NaN	0.000000	0.001542	0.001749	28.0823	0.145134	0.001969	73.6947	-175.029	15.3246	-0.089561	0.871078	-0.204682	-0.206034	-0.041249	73.6947	-0.204262	-154.709	0.000267	NaN
513	1.000000	0.882444	7.37007e+06	-51439.1	1005.82	-29752.3	0.000000	0.000000	6.883113	-0.067323	NaN	0.000000	0.001541	0.001728	28.0811	0.028233	0.002059	13.7126	16.8156	-165.833	-0.070023	0.881126	-0.194667	-0.195985	-0.067323	13.7126	-0.190985	-93.4273	0.000721	NaN
513	1.000000	0.892425	7.37007e+06	-51439.1	1005.82	-29752.3	0.000000	0.000000	6.893092	-0.116297	NaN	0.000000	0.001526	0.001744	28.0813	0.080653	0.002030	39.7396	-141.775	14.8075	-0.116956	0.891073	-0.184686	-0.186038	-0.116297	39.7396	-0.182492	-67.2601	0.001729	NaN
513	1.000000	0.902447	7.37007e+06	-51439.1	1005.82	-29752.3	0.000000	0.000000	6.903116	-0.061475	NaN	0.000000	0.001545	0.001713	28.081	0.104445	0.002010	51.9693	-38.7275	-164.923	-0.063481	0.901202	-0.174665	-0.175910	-0.061475	51.9693	-0.173778	-47.7476	0.001287	NaN
513	1.000000	0.912436	7.37007e+06	-51439.1	1005.82	-29752.3	0.000000	0.000000	6.913104	-0.083251	NaN	0.000000	0.001573	0.001743	28.0812	0.095707	0.002091	45.7603	-52.6971	16.4875	-0.066847	0.911061	-0.164676	-0.166050	-0.083251	45.7603	-0.163311	-31.3757	0.002653	NaN
513	1.000000	0.922461	7.37007e+06	-51439.1	1005.82	-29752.3	0.000000	0.000000	6.923130	-0.066708	NaN	0.000000	0.001587	0.001724	28.081	0.048795	0.001901	25.6637	82.2785	-168.148	-0.071236	0.921079	-0.154651	-0.156033	-0.066708	25.6637	-0.152701	-20.281	0.003289	NaN
513	1.000000	0.932447	7.37007e+06	-51439.1	1005.82	-29752.3	0.000000	0.000000	6.933113	-0.147448	NaN	0.000000	0.001564	0.001746	28.0809	0.039533	0.001856	21.2994	-94.1897	11.1686	-0.150157	0.931043	-0.144665	-0.146068	-0.147448	21.2994	-0.139473	-11.5625	0.012752	NaN
513	1.000000	0.942454	7.37007e+06	-51439.1	1005.82	-29752.3	0.000000	0.000000	6.943124	-0.056207	NaN	0.000000	0.001572	0.001784	28.0808	0.038244	0.001993	19.1915	-51.9219	-167.388	-0.025891	0.941154	-0.134657	-0.135958	-0.056207	19.1915	-0.132461	-8.503577	0.006610	NaN
513	1.000000	0.952447	7.37007e+06	-51439.1	1005.82	-29752.3	0.000000	0.000000	6.953115	-0.089126	NaN	0.000000	0.001582	0.001765	28.081	0.073079	0.002015	36.2609	-84.0603	15.5365	-0.069785	0.951090	-0.124665	-0.126022	-0.089126	36.2609	-0.122821	-5.504284	0.016192	NaN
513	1.000000	0.962444	7.37007e+06	-51439.1	1005.82	-29752.3	0.000000	0.000000	6.963113	-0.073281	NaN	0.000000	0.001628	0.001763	28.0809	0.062451	0.002087	29.9288	-162.88	-162.606	-0.147109	0.961189	-0.114667	-0.115923	-0.073281	29.9288	-0.112831	-3.444893	0.021272	NaN
513	1.000000	0.972478	7.37007e+06	-51439.1	1005.82	-29752.3	0.000000	0.000000	6.973148	-0.026207	NaN	0.000000	0.001630	0.001736	28.0809	0.105103	0.001991	52.7916	154.14	13.6294	-0.048004	0.971113	-0.104634	-0.105999	-0.026207	52.7916	-0.104261	-2.265627	0.011567	NaN
513	1.000000	0.982474	7.37007e+06	-51439.1	1005.82	-29752.3	0.000000	0.000000	6.983143	-0.067408	NaN	0.000000	0.001624	0.001775	28.0808	0.056198	0.002001	28.0781	-116.162	-162.441	-0.076313	0.981165	-0.094638	-0.095947	-0.067408	28.0781	-0.092837	-1.258417	0.053566	NaN
513	1.000000	0.992445	7.37007e+06	-51439.1	1005.82	-29752.3	0.000000	0.000000	6.993111	-0.130934	NaN	0.000000	0.001607	0.001701	28.081	0.124546	0.002098	59.3515	173.664	14.5671	-0.124804	0.991149	-0.084667	-0.085963	-0.130934	59.3515	-0.083012	-0.734961	0.178150	NaN
513	1.000000	1.002515	7.37007e+06	-51439.1	1005.82	-29752.3	0.000000	0.000000	7.003180	-0.149480	NaN	0.000000	0.001662	0.001730	28.0807	0.079916	0.002076	38.4864	75.9956	-167.401	-0.174588	1.001175	-0.074597	-0.075937	-0.149480	38.4864	-0.071684	-0.378210	0.395230	NaN
513	1.000000	1.012474	7.37007e+06	-51439.1	1005.82	-29752.3	0.000000	0.000000	7.013143	-0.073132	NaN	0.000000	0.001625	0.001699	28.0819	0.080150	0.001917	41.8193	-70.2347	13.3354	-0.043509	1.011186	-0.064637	-0.065926	-0.073132	41.8193	-0.063326	-0.223803	0.326771	NaN
513	1.000000	1.022496	7.37007e+06	-51439.1	1005.82	-29752.3	0.000000	0.000000	7.023164	-0.086731	NaN	0.000000	0.001623	0.001732	28.0822	0.079036	0.001972	40.0809	-134.245	-165.673	-0.093581	1.021182	-0.054616	-0.055929	-0.086731	40.0809	-0.052993	-0.112253	0.772640	NaN
513	1.000000	1.032504	7.37007e+06	-51439.1	1005.82	-29752.3	0.000000	0.000000	7.033170	-0.131394	NaN	0.000000	0.001604	0.001747	28.0821	0.121177	0.002136	56.7333	-104.113	15.3068	-0.113556	1.031162	-0.044608	-0.045950	-0.131394	56.7333	-0.042871	-0.055318	2.375227	NaN
513	1.000000	1.042486	7.37007e+06	-51439.1	1005.82	-29752.3	0.000000	0.000000	7.043154	-0.078623	NaN	0.000000	0.001639	0.001710	28.0825	0.096201	0.001900	50.6282	-41.1302	-163.203	-0.115354	1.041202	-0.034626	-0.035909	-0.078623	50.6282	-0.033461	-0.028873	2.723080	NaN
513	1.000000	1.052506	7.37007e+06	-51439.1	1005.82	-29752.3	0.000000	0.000000	7.053173	-0.107529	NaN	0.000000	0.001651	0.001701	28.0822	0.103947	0.001996	52.0646	161.979	15.3551	-0.081666	1.051173	-0.024606	-0.025939	-0.107529	52.0646	-0.023057	-0.015027	7.155719	NaN
513	1.000000	1.062492	7.37007e+06	-51439.1	1005.82	-29752.3	0.000000	0.000000	7.063161	-0.074207	NaN	0.000000	0.001658	0.001743	28.0824	0.029254	0.001985	14.7402	31.2725	-161.455	-0.070694	1.061199	-0.014619	-0.015913	-0.074207	14.7402	-0.010844	-0.006869	10.8033	NaN
513	1.000000	1.072482	7.37007e+06	-51439.1	1005.82	-29752.3	0.000000	0.000000	7.073151	-0.065018	NaN	0.000000	0.001643	0.001743	28.0823	0.023586	0.002058	11.4627	172.255	12.5012	-0.032085	1.071191	-0.004630	-0.005921	-0.065018	11.4627	-0.000375	-0.000279	233.443	NaN
513	1.000000	1.082492	7.37007e+06	-51439.1	1005.82	-29752.3	0.000000	0.000000	7.083170	0.179009	NaN	0.000000	0.001666	0.001733	28.082	0.552386	0.001927	286.647	15.2415	-166.05	0.052945	1.081224	0.005380	0.004112	0.179009	286.647	0.004911	0.004053	44.1699	4113.83
513	2.000000	1.091587	7.37007e+06	-51439.1	1005.82	-29752.3	0.000000	0.000000	7.092597	8.230158	NaN	0.000000	0.001653	0.001714	28.0821	8.434260	0.001730	4873.94	10.1878	9.136646	7.555100	1.090969	0.014475	0.013857	8.230158	4873.94	0.013209	0.012970	634.533	39100
513	2.000000	1.094145	7.37007e+06	-51439.1	1005.82	-29752.3	0.000000	0.000000	7.095267	10.97	NaN	0.000000	0.001638	0.001747	28.0822	10.4965	0.001637	6410.81	5.986935	-171.178	10.6448	1.093828	0.017033	0.016716	10.97	6410.81	0.015749	0.016298	673.097	45879.8
513	2.000000	1.096629	7.37007e+06	-51439.1	1005.82	-29752.3	0.000000	0.000000	7.097850	13.357	NaN	0.000000	0.001656	0.001758	28.0822	13.3579	0.001863	7171.28	4.867344	8.582135	12.834	1.096298	0.019518	0.019186	13.357	7171.28	0.018121	0.019675	678.88	46710.2
513	2.000000	1.099105	7.37007e+06	-51439.1	1005.82	-29752.3	0.000000	0.000000	7.100408	15.3721	NaN	0.000000	0.001693	0.001735	28.0819	15.0241	0.001734	8664.46	10.279	-176.309	15.8361	1.098752	0.021993	0.021641	15.3721	8664.46	0.020662	0.023594	651.534	51536.7
513	2.000000	1.101635	7.37007e+06	-51439.1	1005.82	-29752.3	0.000000	0.000000	7.103230	22.4569	NaN	0.000000	0.001603	0.001747	28.0821	17.2041	0.001713	10041.1	1.023240	10.2969	21.4657	1.101250	0.024523	0.024139	22.4569	10041.1	0.022846	0.027213	825.216	55611.5
513	2.000000	1.104067	7.37007e+06	-51439.1	1005.82	-29752.3	0.000000	0.000000	7.105742	24.4076	NaN	0.000000	0.001613	0.001715	28.0822	19.7407	0.001757	11237.3	3.640877	-174.609	23.5228	1.103787	0.026955	0.026675	24.4076	11237.3	0.025326	0.031611	772.114	57745
513	2.000000	1.106542	7.37007e+06	-51439.1	1005.82	-29752.3	0.000000	0.000000	7.108487	30.9611	NaN	0.000000	0.001555	0.001752	28.0808	22.6859	0.001686	13451.7	7.279956	0.642122	29.527	1.106183	0.029430	0.029071	30.9611	13451.7	0.027704	0.036119	857.187	64666.5
513	2.000000	1.109063	7.37007e+06	-51439.1	1005.82	-29752.3	0.000000	0.000000	7.111131	33.9639	NaN	0.000000	0.001547	0.001742	28.081	25.982	0.001882	13805.7	7.689161	-179.282	33.8282	1.108673	0.031951	0.031561	33.9639	13805.7	0.030106	0.040964	829.11	62320.1
513	2.000000	1.111542	7.37007e+06	-51439.1	1005.82	-29752.3	0.000000	0.000000	7.113762	37.6557	NaN	0.000000	0.001562	0.001736	28.0811	27.7202	0.001777	15600	4.973116	2.341309	35.6957	1.111275	0.034430	0.034163	37.6557	15600	0.032620	0.046349	812.435	66203.1
513	2.000000	1.114024	7.37007e+06	-51439.1	1005.82	-29752.3	0.000000	0.000000	7.116582	45.8701	NaN	0.000000	0.001545	0.001742	28.0809	30.1306	0.001707	17650.5	5.563652	179.99	44.7848	1.113761	0.036912	0.036650	45.8701	17650.5	0.034963	0.051660	887.922	70949.9
513	2.000000	1.116516	7.37008e+06	-51439.1	1005.82	-29752.3	0.000000	0.000000	7.119533	57.0237	NaN	0.000000	0.001569	0.001770	28.0807	33.3936	0.001803	18519.3	2.964203	2.362113	54.6599	1.116147	0.039405	0.039036	57.0237	18519.3	0.037095	0.056737	1005.05	71033.6
513	2.000000	1.119045	7.37008e+06	-51439.1	1005.82	-29752.3	0.000000	0.000000	7.122043	56.5835	NaN	0.000000	0.001558	0.001690	28.0811	36.5732	0.001931	18944	7.473336	178.283	57.0401	1.118776	0.041933	0.041665	56.5835	18944	0.039693	0.063237	894.786	68827.3
513	2.000000	1.121554	7.37008e+06	-51439.1	1005.82	-29752.3	0.000000	0.000000	7.124983	67.0577	NaN	0.000000	0.001560	0.001716	28.0811	37.7678	0.001862	20279.1	2.660652	1.870179	65.1963	1.121214	0.044442	0.044102	67.0577	20279.1	0.041962	0.069197	969.083	70433.4
513	2.000000	1.124019	7.37008e+06	-51439.1	1005.82	-29752.3	0.000000	0.000000	7.127768	74.8361	NaN	0.000000	0.001533	0.001732	28.0813	39.0671	0.001663	23491.5	6.014683	177.559	73.9898	1.123701	0.046907	0.046590	74.8361	23491.5	0.044518	0.076225	981.784	77738.4
513	2.000000	1.126553	7.37008e+06	-51439.1	1005.82	-29752.3	0.000000	0.000000	7.130548	80.8065	NaN	0.000000	0.001551	0.001727	28.0809	41.4972	0.001797	23094.5	4.326387	-0.133814	80.5798	1.126215	0.049441	0.049103	80.8065	23094.5	0.046817	0.082830	975.572	73314.4
513	2.000000	1.129066	7.37008e+06	-51439.1	1005.82	-29752.3	0.000000	0.000000	7.133467	90.6798	NaN	0.000000	0.001541	0.001747	28.0822	44.1286	0.001733	25466	6.054162	176.615	91.9024	1.128786	0.051954	0.051674	90.6798	25466	0.049284	0.090212	1005.19	77464.4
513	2.000000	1.131544	7.37008e+06	-51439.1	1005.82	-29752.3	0.000000	0.000000	7.136435	102.605	NaN	0.000000	0.001584	0.001742	28.0813	46.6709	0.001779	26231.6	6.489244	-4.247909	101.193	1.131223	0.054432	0.054111	102.605	26231.6	0.051498	0.097100	1056.69	76910.9
513	2.000000	1.134034	7.37008e+06	-51439.1	1005.82	-29752.3	0.000000	0.000000	7.139343	112.773	NaN	0.000000	0.001566	0.001697	28.0812	48.8042	0.001783	27370	4.196291	178.145	114.362	1.133677	0.056922	0.056565	112.773	27370	0.053832	0.104625	1077.87	77309
513	2.000000	1.136566	7.37008e+06	-51439.1	1005.82	-29752.3	0.000000	0.000000	7.141918	113.811	NaN	0.000000	0.001528	0.001741	28.081	51.5234	0.001893	27213.8	4.930856	-2.352922	114.474	1.136205	0.059455	0.059093	113.811	27213.8	0.056318	0.112938	1007.74	73985
513	2.000000	1.138979	7.37008e+06	-51439.1	1005.82	-29752.3	0.000000	0.000000	7.144867	126.843	NaN	0.000000	0.001604	0.001748	28.0817	54.4235	0.001959	27774.9	5.518171	176.21	125.704	1.138764	0.061867	0.061652	126.843	27774.9	0.058442	0.120281	1054.55	73168.9
513	2.000000	1.141498	7.37008e+06	-51439.1	1005.82	-29752.3	0.000000	0.000000	7.147861	138.375	NaN	0.000000	0.001564	0.001753	28.0822	55.1582	0.001751	31503.7	3.308924	-2.410899	136.955	1.141228	0.064387	0.064116	138.375	31503.7	0.061092	0.129755	1066.44	79904.7
513	2.000000	1.143970	7.37008e+06	-51439.1	1005.82	-29752.3	0.000000	0.000000	7.150808	149.96	NaN	0.000000	0.001575	0.001714	28.0825	57.3249	0.001765	32484	6.438434	174.699	149.024	1.143630	0.066858	0.066518	149.96	32484	0.063396	0.138265	1084.58	79815.2
513	2.000000	1.146448	7.37008e+06	-51439.1	1005.82	-29752.3	0.000000	0.000000	7.153647	158.723	NaN	0.000000	0.001565	0.001692	28.0823	60.4045	0.001828	33038.7	2.612378	-2.539180	154.058	1.146131	0.069336	0.069019	158.723	33038.7	0.065733	0.147165	1078.53	78685.2
513	2.000000	1.149067	7.37008e+06	-51439.1	1005.82	-29752.3	0.000000	0.000000	7.156492	164.224	NaN	0.000000	0.001575	0.001723	28.0829	62.9218	0.001812	34717.2	4.449251	176.095	169.31	1.148693	0.071955	0.071581	164.224	34717.2	0.068408	0.157671	1041.56	79880.7
513	2.000000	1.151569	7.37008e+06	-51439.1	1005.82	-29752.3	0.000000	0.000000	7.159438	175.038	NaN	0.000000	0.001539	0.001719	28.082	64.3371	0.001780	36144.4	4.619384	-4.112700	175.44	1.151299	0.074457	0.074188	175.038	36144.4	0.070825	0.167459	1045.25	80697.3
513	2.000000	1.154021	7.37008e+06	-51439.1	1005.82	-29752.3	0.000000	0.000000	7.162630	193.01	NaN	0.000000	0.001556	0.001740	28.0823	67.2402	0.001850	36339.7	9.735193	170.764	193.776	1.153586	0.076910	0.076474	193.01	36339.7	0.072926	0.176194	1095.44	79096.7
513	2.000000	1.156560	7.37008e+06	-51439.1	1005.82	-29752.3	0.000000	0.000000	7.165714	206.252	NaN	0.000000	0.001521	0.001730	28.082	69.2942	0.001807	38356.8	9.357953	-9.058337	208.592	1.156064	0.079448	0.078953	206.252	38356.8	0.075415	0.186813	1104.06	81079.8
513	2.000000	1.159129	7.37008e+06	-51439.1	1005.82	-29752.3	0.000000	0.000000	7.168482	211.093	NaN	0.000000	0.001563	0.001756	28.0826	71.7122	0.001707	42022.7	4.495351	174.386	218.213	1.158825	0.082018	0.081713	211.093	42022.7	0.078250	0.199258	1059.39	86010
513	2.000000	1.161468	7.37008e+06	-51439.1	1005.82	-29752.3	0.000000	0.000000	7.171345	223.838	NaN	0.000000	0.001578	0.001749	28.0821	73.7824	0.001879	39275.2	4.705553	-5.567456	219.464	1.161166	0.084356	0.084054	223.838	39275.2	0.080082	0.207500	1078.73	78773.9
513	2.000000	1.164047	7.37008e+06	-51439.1	1005.82	-29752.3	0.000000	0.000000	7.174644	241.346	NaN	0.000000	0.001584	0.001732	28.0824	75.9277	0.001881	40355.6	8.423315	172.12	243.889	1.163611	0.086935	0.086499	241.346	40355.6	0.082450	0.218386	1105.14	78897.7
513	2.000000	1.166457	7.37008e+06	-51439.1	1005.82	-29752.3	0.000000	0.000000	7.177558	253.619	NaN	0.000000	0.001637	0.001755	28.082	79.3049	0.001807	43885.7	5.189037	-6.621263	253.467	1.166138	0.089345	0.089027	253.619	43885.7	0.085011	0.230453	1100.52	83522.6
513	2.000000	1.169030	7.37008e+06	-51439.1	1005.82	-29752.3	0.000000	0.000000	7.180729	268.133	NaN	0.000000	0.001595	0.001764	28.0822	81.1419	0.001771	45822.2	0.544989	178.11	270.387	1.168700	0.091919	0.091588	268.133	45822.2	0.087530	0.242618	1105.17	84993.9
513	2.000000	1.171399	7.37008e+06	-51439.1	1005.82	-29752.3	0.000000	0.000000	7.183783	284.812	NaN	0.000000	0.001615	0.001757	28.082	83.7801	0.001904	43998.6	5.863971	-7.097190	276.462	1.171016	0.094287	0.093904	284.812	43998.6	0.089432	0.251996	1130.22	80078.3
513	2.000000	1.173940	7.37008e+06	-51439.1	1005.82	-29752.3	0.000000	0.000000	7.186862	297.892	NaN	0.000000	0.001682	0.001748	28.0809	85.0526	0.001792	47462.6	0.229547	177.614	294.004	1.173760	0.096828	0.096649	297.892	47462.6	0.092121	0.265537	1121.84	84151.5
513	2.000000	1.176508	7.37008e+06	-51439.1	1005.82	-29752.3	0.000000	0.000000	7.190368	320.691	NaN	0.000000	0.001688	0.001727	28.0812	89.32	0.001772	50402	7.519412	-9.728191	322.041	1.176104	0.099396	0.098992	320.691	50402	0.094624	0.278441	1151.74	87267.8
513	2.000000	1.179078	7.37008e+06	-51439.1	1005.82	-29752.3	0.000000	0.000000	7.193539	335.312	NaN	0.000000	0.001690	0.001710	28.0812	91.7848	0.001801	50953.6	9.900345	168.308	339.434	1.178518	0.101966	0.101407	335.312	50953.6	0.097031	0.291116	1151.81	86280.9
513	2.000000	1.181512	7.37008e+06	-51439.1	1005.82	-29752.3	0.000000	0.000000	7.196583	350.145	NaN	0.000000	0.001681	0.001752	28.0809	92.6865	0.001824	50823.3	5.954306	-7.971838	348.276	1.180960	0.104400	0.103849	350.145	50823.3	0.099233	0.302949	1155.79	84362.9
513	2.000000	1.183980	7.37008e+06	-51439.1	1005.82	-29752.3	0.000000	0.000000	7.199636	364.369	NaN	0.000000	0.001686	0.001745	28.0809	94.8078	0.001827	51893.4	6.410434	170.987	365.415	1.183701	0.106869	0.106589	364.369	51893.4	0.101603	0.315922	1153.35	84351.9
513	2.000000	1.186755	7.37008e+06	-51439.1	1005.82	-29752.3	0.000000	0.000000	7.202054	355.684	NaN	0.000000	0.001649	0.001750	28.0811	97.4621	0.001892	51517.8	2.600003	-5.477891	368.468	1.186592	0.109643	0.109480	355.684	51517.8	0.104465	0.331938	1071.54	81696.2
513	2.000000	1.189004	7.37008e+06	-51439.1	1005.82	-29752.3	0.000000	0.000000	7.205847	393.215	NaN	0.000000	0.001673	0.001707	28.0809	99.8551	0.001777	56184.6	5.284629	171.579	398.531	1.188701	0.111893	0.111590	393.215	56184.6	0.106644	0.344375	1141.82	87473.1
513	2.000000	1.189908	7.37008e+06	-51439.1	1005.82	-29752.3	0.000000	0.000000	7.207243	405.194	NaN	0.000000	0.001656	0.001746	28.081	99.4164	0.001764	56366.8	4.350930	172.902	401.631	1.189594	0.112797	0.112483	405.194	56366.8	0.107405	0.348774	1161.77	87201.7