File: remote_trans/data/nanoindenter/0828-1/data/Data_2025-08-06,11h17m57s/2025-07-22_16-23-58_1_59.txt
2025-07-22, 16:23:58, 1
Index	Phase	Displacement	Time	Pos X	Pos Y	Pos Z	Rot A	Rot B	Piezo Z	Force A	Force B	Gripper	Voltage A	Voltage B	Temperature	Amplitude force	Amplitude pos	Stiffness	Phase shift	Phase excitation	Force A raw	Displacement raw	HMax	HMax raw	Real Force	Real Stiffness	Contact Depth	Area	Hardness	Reduced Mod.
[#]	[#]	[um]	[s]	[um]	[um]	[um]	[m°]	[m°]	[um]	[uN]	[uN]	[V]	[V]	[V]	[°C]	[uN]	[um]	[N/m]	[°]	[°]	[uN]	[um]	[um]	[um]	[uN]	[N/m]	[um]	[um^2]	[MPa]	[MPa]
59	1.000000	0.002369	7.36562e+06	-41589.1	955.819	-29786.4	0.000000	0.000000	6.002804	-0.052312	NaN	0.000000	0.001592	0.001766	28.0857	0.060449	0.000967	62.5397	97.959	-162.974	-0.092976	0.001094	-1.072031	-1.073306	-0.052312	62.5397	-1.071403	-2.070340E+14	2.526740E-16	NaN
59	1.000000	0.010363	7.36562e+06	-41589.1	955.819	-29786.4	0.000000	0.000000	6.010798	-0.051795	NaN	0.000000	0.001594	0.001729	28.086	0.018326	0.001083	16.9284	-25.5279	-165.823	-0.053537	0.009044	-1.064037	-1.065356	-0.051795	16.9284	-1.061742	-1.535431E+14	3.373350E-16	NaN
59	1.000000	0.018331	7.36562e+06	-41589.1	955.818	-29786.4	0.000000	0.000000	6.018772	0.088089	NaN	0.000000	0.001605	0.001735	28.0847	0.052394	0.001657	31.6232	-128.533	-163.969	0.056510	0.016981	-1.056069	-1.057419	0.088089	31.6232	-1.058158	-1.374249E+14	-6.409949E-16	NaN
59	1.000000	0.026366	7.36562e+06	-41589.1	955.819	-29786.4	0.000000	0.000000	6.026802	-0.025202	NaN	0.000000	0.001611	0.001706	28.0842	0.087332	0.001677	52.0702	-60.1223	-162.852	0.015262	0.025057	-1.048034	-1.049343	-0.025202	52.0702	-1.047671	-9.933541E+13	2.537091E-16	NaN
59	1.000000	0.034337	7.36562e+06	-41589.1	955.818	-29786.4	0.000000	0.000000	6.034775	0.024137	NaN	0.000000	0.001600	0.001720	28.0838	0.095283	0.002006	47.5081	-73.9417	-162.85	-0.025954	0.032992	-1.040063	-1.041407	0.024137	47.5081	-1.040444	-7.942172E+13	-3.039041E-16	NaN
59	1.000000	0.042327	7.36562e+06	-41589.1	955.818	-29786.4	0.000000	0.000000	6.042768	0.083833	NaN	0.000000	0.001583	0.001713	28.0837	0.035174	0.001936	18.1695	13.3394	-166.023	0.001660	0.041017	-1.032073	-1.033383	0.083833	18.1695	-1.035533	-6.821808E+13	-1.228901E-15	NaN
59	1.000000	0.050318	7.36562e+06	-41589.1	955.818	-29786.4	0.000000	0.000000	6.050756	0.029690	NaN	0.000000	0.001577	0.001722	28.084	0.137006	0.001831	74.8105	156.493	-163.731	0.038895	0.048982	-1.024082	-1.025418	0.029690	74.8105	-1.024379	-4.829175E+13	-6.148128E-16	NaN
59	1.000000	0.058323	7.36562e+06	-41589.1	955.819	-29786.4	0.000000	0.000000	6.058761	-0.003426	NaN	0.000000	0.001579	0.001704	28.0851	0.060511	0.002129	28.4253	-82.9005	-166.925	0.006131	0.056999	-1.016076	-1.017401	-0.003426	28.4253	-1.015986	-3.723407E+13	9.200125E-17	NaN
59	1.000000	0.066315	7.36562e+06	-41589.1	955.818	-29786.4	0.000000	0.000000	6.066751	-0.029495	NaN	0.000000	0.001590	0.001730	28.086	0.066574	0.002014	33.0579	-168.865	-161.536	-0.025392	0.065046	-1.008085	-1.009353	-0.029495	33.0579	-1.007415	-2.854922E+13	1.033118E-15	NaN
59	1.000000	0.074326	7.36562e+06	-41589.1	955.818	-29786.4	0.000000	0.000000	6.074763	-0.021187	NaN	0.000000	0.001597	0.001719	28.0854	0.042872	0.001819	23.5693	88.4421	-169.45	0.014544	0.073021	-1.000074	-1.001379	-0.021187	23.5693	-0.999399	-2.226806E+13	9.514320E-16	NaN
59	1.000000	0.082339	7.36562e+06	-41589.1	955.818	-29786.4	0.000000	0.000000	6.082776	-0.002146	NaN	0.000000	0.001569	0.001681	28.0851	0.041934	0.002084	20.1261	-128.829	-164.417	-0.046693	0.081010	-0.992061	-0.993390	-0.002146	20.1261	-0.991981	-1.769256E+13	1.213201E-16	NaN
59	1.000000	0.090340	7.36562e+06	-41589.1	955.818	-29786.4	0.000000	0.000000	6.090776	-0.032317	NaN	0.000000	0.001596	0.001775	28.0865	0.064971	0.002079	31.257	-164.36	-164.882	-0.012807	0.089065	-0.984059	-0.985335	-0.032317	31.257	-0.983284	-1.350978E+13	2.392113E-15	NaN
59	1.000000	0.098297	7.36562e+06	-41589.1	955.818	-29786.4	0.000000	0.000000	6.098732	-0.045937	NaN	0.000000	0.001604	0.001736	28.0838	0.054674	0.002006	27.254	3.822292	-163.169	-0.015142	0.097050	-0.976103	-0.977350	-0.045937	27.254	-0.974839	-1.039604E+13	4.418679E-15	NaN
59	1.000000	0.106337	7.36562e+06	-41589.1	955.818	-29786.4	0.000000	0.000000	6.106772	-0.053589	NaN	0.000000	0.001570	0.001773	28.084	0.020811	0.002123	9.804756	-51.4678	-165.754	-0.032451	0.105026	-0.968062	-0.969373	-0.053589	9.804756	-0.963963	-7.418154E+12	7.223984E-15	NaN
59	1.000000	0.114343	7.36562e+06	-41589.1	955.818	-29786.4	0.000000	0.000000	6.114779	-0.020239	NaN	0.000000	0.001593	0.001739	28.0822	0.069643	0.002028	34.341	92.1107	-167.119	-0.061376	0.113047	-0.960057	-0.961352	-0.020239	34.341	-0.959615	-6.481499E+12	3.122551E-15	NaN
59	1.000000	0.122345	7.36562e+06	-41589.1	955.818	-29786.4	0.000000	0.000000	6.122784	0.049551	NaN	0.000000	0.001549	0.001736	28.0835	0.081423	0.001993	40.8591	102.125	-166.642	-0.022211	0.121019	-0.952055	-0.953381	0.049551	40.8591	-0.952964	-5.272344E+12	-9.398211E-15	NaN
59	1.000000	0.130345	7.36562e+06	-41589.1	955.818	-29786.4	0.000000	0.000000	6.130783	0.032274	NaN	0.000000	0.001611	0.001745	28.0832	0.044276	0.001923	23.0279	-158.08	-164.612	0.005037	0.129037	-0.944055	-0.945362	0.032274	23.0279	-0.945106	-4.130678E+12	-7.813342E-15	NaN
59	1.000000	0.138344	7.36562e+06	-41589.1	955.818	-29786.4	0.000000	0.000000	6.138783	0.042671	NaN	0.000000	0.001585	0.001770	28.0834	0.111848	0.002054	54.4644	-131.718	-163.983	0.120711	0.137045	-0.936056	-0.937355	0.042671	54.4644	-0.936643	-3.175769E+12	-1.343652E-14	NaN
59	1.000000	0.146362	7.36562e+06	-41589.1	955.817	-29786.4	0.000000	0.000000	6.146798	-0.022096	NaN	0.000000	0.001563	0.001751	28.083	0.085996	0.001916	44.8841	-149.672	-164.611	0.028765	0.145058	-0.928038	-0.929342	-0.022096	44.8841	-0.927668	-2.402853E+12	9.195688E-15	NaN
59	1.000000	0.154379	7.36562e+06	-41589.1	955.819	-29786.4	0.000000	0.000000	6.154814	-0.044211	NaN	0.000000	0.001608	0.001733	28.0834	0.073606	0.002089	35.2396	136.046	-165.74	0.002761	0.153054	-0.920021	-0.921345	-0.044211	35.2396	-0.919080	-1.839867E+12	2.402947E-14	NaN
59	1.000000	0.162349	7.36562e+06	-41589.1	955.819	-29786.4	0.000000	0.000000	6.162784	-0.049398	NaN	0.000000	0.001576	0.001720	28.0845	0.036789	0.002020	18.2093	-35.595	-167.073	-0.056620	0.161051	-0.912051	-0.913349	-0.049398	18.2093	-0.910016	-1.387963E+12	3.559040E-14	NaN
59	1.000000	0.170365	7.36562e+06	-41589.1	955.819	-29786.4	0.000000	0.000000	6.170802	-0.024592	NaN	0.000000	0.001580	0.001745	28.0845	0.026377	0.002089	12.6258	106.718	-167.434	-0.029436	0.169067	-0.904034	-0.905333	-0.024592	12.6258	-0.902573	-1.101129E+12	2.233310E-14	NaN
59	1.000000	0.178387	7.36562e+06	-41589.1	955.819	-29786.4	0.000000	0.000000	6.178825	0.014184	NaN	0.000000	0.001617	0.001736	28.084	0.141112	0.002099	67.2395	138.565	-162.643	0.013201	0.177070	-0.896013	-0.897329	0.014184	67.2395	-0.896171	-9.022404E+11	-1.572116E-14	NaN
59	1.000000	0.186392	7.36562e+06	-41589.1	955.819	-29786.4	0.000000	0.000000	6.186828	-0.036656	NaN	0.000000	0.001599	0.001736	28.0839	0.025794	0.002034	12.681	-130.722	-164.528	0.006470	0.185054	-0.888008	-0.889345	-0.036656	12.681	-0.885840	-6.541384E+11	5.603752E-14	NaN
59	1.000000	0.194386	7.36562e+06	-41589.1	955.818	-29786.4	0.000000	0.000000	6.194822	-0.032487	NaN	0.000000	0.001641	0.001733	28.0821	0.033374	0.002067	16.1437	156.359	-164.925	-0.014456	0.193052	-0.880014	-0.881348	-0.032487	16.1437	-0.878505	-5.205781E+11	6.240565E-14	NaN
59	1.000000	0.202381	7.36562e+06	-41589.1	955.819	-29786.4	0.000000	0.000000	6.202815	-0.086435	NaN	0.000000	0.001603	0.001675	28.0838	0.058350	0.001966	29.6846	67.3605	-165.6	-0.015834	0.201056	-0.872018	-0.873344	-0.086435	29.6846	-0.869834	-3.973781E+11	2.175144E-13	NaN
59	1.000000	0.210379	7.36562e+06	-41589.1	955.817	-29786.4	0.000000	0.000000	6.210816	-0.005596	NaN	0.000000	0.001597	0.001687	28.083	0.077674	0.001991	39.0187	-168.669	-164.995	0.087279	0.209081	-0.864020	-0.865318	-0.005596	39.0187	-0.863913	-3.304279E+11	1.693656E-14	NaN
59	1.000000	0.218368	7.36562e+06	-41589.1	955.818	-29786.4	0.000000	0.000000	6.218805	-0.002155	NaN	0.000000	0.001593	0.001706	28.0829	0.058494	0.001917	30.5105	99.7316	-162.571	-0.032168	0.217099	-0.856032	-0.857300	-0.002155	30.5105	-0.855979	-2.580395E+11	8.352482E-15	NaN
59	1.000000	0.226396	7.36562e+06	-41589.1	955.818	-29786.4	0.000000	0.000000	6.226832	-0.032707	NaN	0.000000	0.001609	0.001728	28.0845	0.104404	0.002001	52.1774	122.121	-166.944	-0.019110	0.225032	-0.848004	-0.849367	-0.032707	52.1774	-0.847534	-1.983089E+11	1.649281E-13	NaN
59	1.000000	0.234409	7.36562e+06	-41589.1	955.818	-29786.4	0.000000	0.000000	6.234846	-0.009224	NaN	0.000000	0.001591	0.001731	28.0842	0.060608	0.002057	29.47	17.7535	-164.318	-0.052581	0.233066	-0.839990	-0.841334	-0.009224	29.47	-0.839756	-1.555900E+11	5.928668E-14	NaN
59	1.000000	0.242392	7.36562e+06	-41589.1	955.818	-29786.4	0.000000	0.000000	6.242831	0.020397	NaN	0.000000	0.001608	0.001721	28.0846	0.046832	0.002049	22.8574	-158.133	-163.9	0.052404	0.241036	-0.832007	-0.833364	0.020397	22.8574	-0.832677	-1.247555E+11	-1.634928E-13	NaN
59	1.000000	0.250376	7.36562e+06	-41589.1	955.818	-29786.4	0.000000	0.000000	6.250812	-0.022067	NaN	0.000000	0.001616	0.001723	28.0853	0.028154	0.001971	14.2855	13.5359	-164.984	-0.012891	0.249163	-0.824024	-0.825236	-0.022067	14.2855	-0.822865	-9.184664E+10	2.402630E-13	NaN
59	1.000000	0.258422	7.36562e+06	-41589.1	955.819	-29786.4	0.000000	0.000000	6.258857	-0.054851	NaN	0.000000	0.001612	0.001693	28.0856	0.082920	0.001989	41.6984	68.3852	-165.432	-0.061615	0.257152	-0.815978	-0.817248	-0.054851	41.6984	-0.814991	-7.182641E+10	7.636623E-13	NaN
59	1.000000	0.266414	7.36562e+06	-41589.1	955.817	-29786.4	0.000000	0.000000	6.266848	-0.078533	NaN	0.000000	0.001589	0.001721	28.0843	0.063345	0.002037	31.0965	-26.1804	-164.409	-0.012412	0.265095	-0.807986	-0.809305	-0.078533	31.0965	-0.806092	-5.439299E+10	1.443805E-12	NaN
59	1.000000	0.274425	7.36562e+06	-41589.1	955.818	-29786.4	0.000000	0.000000	6.274860	-0.063462	NaN	0.000000	0.001581	0.001719	28.0848	0.032799	0.002028	16.176	62.0087	-166.065	-0.058623	0.273102	-0.799974	-0.801298	-0.063462	16.176	-0.797032	-4.097964E+10	1.548616E-12	NaN
59	1.000000	0.282415	7.36562e+06	-41589.1	955.818	-29786.4	0.000000	0.000000	6.282852	-0.002895	NaN	0.000000	0.001579	0.001724	28.0841	0.146214	0.001973	74.1141	-177.774	-159.28	-0.058594	0.281057	-0.791985	-0.793343	-0.002895	74.1141	-0.791955	-3.496557E+10	8.279583E-14	NaN
59	1.000000	0.290431	7.36562e+06	-41589.1	955.818	-29786.4	0.000000	0.000000	6.290865	-0.068876	NaN	0.000000	0.001578	0.001732	28.0833	0.013428	0.002058	6.523914	-85.2509	-164.978	-0.076789	0.289135	-0.783969	-0.785265	-0.068876	6.523914	-0.776051	-2.125999E+10	3.239682E-12	NaN
59	1.000000	0.298427	7.36562e+06	-41589.1	955.819	-29786.4	0.000000	0.000000	6.298863	-0.021880	NaN	0.000000	0.001602	0.001723	28.0838	0.108614	0.002053	52.9107	-89.1654	-163.583	0.033211	0.297155	-0.775973	-0.777245	-0.021880	52.9107	-0.775663	-2.100332E+10	1.041733E-12	NaN
59	1.000000	0.306404	7.36562e+06	-41589.1	955.818	-29786.4	0.000000	0.000000	6.306840	-0.035251	NaN	0.000000	0.001650	0.001741	28.086	0.108105	0.001947	55.5142	31.0844	-164.947	-0.014961	0.305069	-0.767996	-0.769331	-0.035251	55.5142	-0.767520	-1.627725E+10	2.165669E-12	NaN
59	1.000000	0.314460	7.36562e+06	-41589.1	955.818	-29786.4	0.000000	0.000000	6.314896	-0.043743	NaN	0.000000	0.001627	0.001739	28.0844	0.105370	0.001957	53.837	-8.859944	-164.998	-0.081045	0.313115	-0.759939	-0.761285	-0.043743	53.837	-0.759330	-1.259466E+10	3.473169E-12	NaN
59	1.000000	0.322432	7.36562e+06	-41589.1	955.818	-29786.4	0.000000	0.000000	6.322871	0.040798	NaN	0.000000	0.001659	0.001747	28.0849	0.130680	0.002049	63.7648	-149.755	-168.069	-0.030682	0.321149	-0.751968	-0.753251	0.040798	63.7648	-0.752448	-1.015159E+10	-4.018857E-12	NaN
59	1.000000	0.330426	7.36562e+06	-41589.1	955.819	-29786.4	0.000000	0.000000	6.330864	0.036880	NaN	0.000000	0.001659	0.001695	28.0852	0.053891	0.001953	27.5963	83.5954	-164.174	0.001352	0.329144	-0.743974	-0.745256	0.036880	27.5963	-0.744976	-8.032050E+9	-4.591592E-12	NaN
59	1.000000	0.338441	7.36562e+06	-41589.1	955.818	-29786.4	0.000000	0.000000	6.338875	-0.079309	NaN	0.000000	0.001603	0.001730	28.0842	0.047264	0.002023	23.367	30.1917	-164.85	-0.014965	0.337134	-0.735959	-0.737266	-0.079309	23.367	-0.733413	-5.588808E+9	1.419064E-11	NaN
59	1.000000	0.346447	7.36562e+06	-41589.1	955.817	-29786.4	0.000000	0.000000	6.346885	0.021385	NaN	0.000000	0.001668	0.001731	28.0844	0.038648	0.002119	18.2397	-179.73	-165.872	-0.023420	0.345139	-0.727953	-0.729260	0.021385	18.2397	-0.728832	-4.840523E+9	-4.418008E-12	NaN
59	1.000000	0.354453	7.36562e+06	-41589.1	955.819	-29786.4	0.000000	0.000000	6.354888	-0.069243	NaN	0.000000	0.001653	0.001752	28.0851	0.005618	0.002148	2.615947	-145.77	-160.265	-0.140177	0.353106	-0.719947	-0.721294	-0.069243	2.615947	-0.700094	-1.962550E+9	3.528220E-11	NaN
59	1.000000	0.362432	7.36562e+06	-41589.1	955.819	-29786.4	0.000000	0.000000	6.362867	-0.051088	NaN	0.000000	0.001633	0.001749	28.0845	0.051203	0.001962	26.0944	-91.3485	-165.304	-0.006319	0.361133	-0.711967	-0.713267	-0.051088	26.0944	-0.710499	-2.721818E+9	1.876984E-11	NaN
59	1.000000	0.370445	7.36562e+06	-41589.1	955.818	-29786.4	0.000000	0.000000	6.370880	-0.048522	NaN	0.000000	0.001631	0.001737	28.0839	0.120678	0.001951	61.8431	105.14	-164.332	-0.104928	0.369194	-0.703955	-0.705206	-0.048522	61.8431	-0.703366	-2.175187E+9	2.230704E-11	NaN
59	1.000000	0.378464	7.36562e+06	-41589.1	955.817	-29786.4	0.000000	0.000000	6.378900	-0.017619	NaN	0.000000	0.001639	0.001758	28.0827	0.044837	0.002008	22.3327	131.678	-163.365	-0.045743	0.377147	-0.695936	-0.697252	-0.017619	22.3327	-0.695344	-1.690207E+9	1.042435E-11	NaN
59	1.000000	0.386467	7.36562e+06	-41589.1	955.818	-29786.4	0.000000	0.000000	6.386903	-0.015093	NaN	0.000000	0.001640	0.001744	28.0838	0.125541	0.001894	66.2922	-51.0665	-167.11	0.041195	0.385135	-0.687933	-0.689264	-0.015093	66.2922	-0.687762	-1.331477E+9	1.133530E-11	NaN
59	1.000000	0.394484	7.36562e+06	-41589.1	955.819	-29786.4	0.000000	0.000000	6.394917	-0.102442	NaN	0.000000	0.001644	0.001777	28.0848	0.063034	0.002033	31.0052	-103.059	-162.832	-0.071725	0.393145	-0.679916	-0.681255	-0.102442	31.0052	-0.677438	-9.619665E+8	1.064924E-10	NaN
59	1.000000	0.402466	7.36562e+06	-41589.1	955.818	-29786.4	0.000000	0.000000	6.402902	-0.034079	NaN	0.000000	0.001651	0.001713	28.0835	0.123125	0.001915	64.2796	-121.833	-163.515	0.023619	0.401199	-0.671934	-0.673201	-0.034079	64.2796	-0.671536	-7.987504E+8	4.266552E-11	NaN
59	1.000000	0.410463	7.36562e+06	-41589.1	955.818	-29786.4	0.000000	0.000000	6.410897	-0.062998	NaN	0.000000	0.001657	0.001725	28.0851	0.039462	0.001915	20.6061	151.878	-166.22	-0.059109	0.409180	-0.663937	-0.665220	-0.062998	20.6061	-0.661644	-5.847735E+8	1.077306E-10	NaN
59	1.000000	0.418464	7.36562e+06	-41589.1	955.819	-29786.4	0.000000	0.000000	6.418902	0.011469	NaN	0.000000	0.001655	0.001730	28.0847	0.025371	0.002044	12.4131	156.778	-163.816	-0.038611	0.417183	-0.655936	-0.657217	0.011469	12.4131	-0.656629	-4.992122E+8	-2.297400E-11	NaN
59	1.000000	0.426480	7.36562e+06	-41589.1	955.818	-29786.4	0.000000	0.000000	6.426919	0.030144	NaN	0.000000	0.001624	0.001717	28.0838	0.054760	0.002008	27.2647	-146.385	-163.872	-0.003333	0.425187	-0.647919	-0.649213	0.030144	27.2647	-0.648748	-3.892935E+8	-7.743321E-11	NaN
59	1.000000	0.434490	7.36562e+06	-41589.1	955.818	-29786.4	0.000000	0.000000	6.434922	-0.109893	NaN	0.000000	0.001632	0.001728	28.0839	0.066182	0.002030	32.6033	140.689	-162.684	-0.080352	0.433195	-0.639910	-0.641205	-0.109893	32.6033	-0.637382	-2.718734E+8	4.042071E-10	NaN
59	1.000000	0.442469	7.36562e+06	-41589.1	955.818	-29786.4	0.000000	0.000000	6.442904	-0.039723	NaN	0.000000	0.001638	0.001775	28.084	0.036046	0.002098	17.1826	150.556	-168.54	-0.098429	0.441154	-0.631931	-0.633245	-0.039723	17.1826	-0.630197	-2.166360E+8	1.833644E-10	NaN
59	1.000000	0.450429	7.36562e+06	-41589.1	955.818	-29786.4	0.000000	0.000000	6.450868	0.027997	NaN	0.000000	0.001675	0.001737	28.0841	0.088368	0.002031	43.5115	67.6856	-166.071	0.013822	0.449170	-0.623970	-0.625230	0.027997	43.5115	-0.624453	-1.806456E+8	-1.549834E-10	NaN
59	1.000000	0.458489	7.36562e+06	-41589.1	955.818	-29786.4	0.000000	0.000000	6.458927	0.032160	NaN	0.000000	0.001656	0.001747	28.0833	0.127946	0.001949	65.6475	-137.645	-166.27	0.056784	0.457143	-0.615911	-0.617257	0.032160	65.6475	-0.616278	-1.394661E+8	-2.305922E-10	NaN
59	1.000000	0.466493	7.36562e+06	-41589.1	955.818	-29786.4	0.000000	0.000000	6.466929	-0.038146	NaN	0.000000	0.001654	0.001724	28.084	0.080905	0.002142	37.7626	-46.8866	-161.095	0.003786	0.465153	-0.607907	-0.609246	-0.038146	37.7626	-0.607149	-1.044445E+8	3.652309E-10	NaN
59	1.000000	0.474500	7.36562e+06	-41589.1	955.819	-29786.4	0.000000	0.000000	6.474936	-0.040246	NaN	0.000000	0.001648	0.001718	28.0846	0.102725	0.002075	49.5148	157.357	-163.189	-0.029870	0.473165	-0.599899	-0.601234	-0.040246	49.5148	-0.599290	-8.140981E+7	4.943619E-10	NaN
59	1.000000	0.482507	7.36562e+06	-41589.1	955.818	-29786.4	0.000000	0.000000	6.482943	-0.033877	NaN	0.000000	0.001637	0.001737	28.0845	0.041233	0.002050	20.1168	73.0112	-161.059	-0.004702	0.481208	-0.591893	-0.593191	-0.033877	20.1168	-0.590630	-6.185160E+7	5.477136E-10	NaN
59	1.000000	0.490489	7.36562e+06	-41589.1	955.818	-29786.4	0.000000	0.000000	6.490923	-0.081348	NaN	0.000000	0.001585	0.001733	28.0849	0.043190	0.001921	22.4802	52.2494	-160.607	-0.063690	0.489237	-0.583911	-0.585162	-0.081348	22.4802	-0.581197	-4.583985E+7	1.774605E-9	NaN
59	1.000000	0.498510	7.36562e+06	-41589.1	955.819	-29786.4	0.000000	0.000000	6.498947	-0.018529	NaN	0.000000	0.001626	0.001708	28.0837	0.099762	0.001914	52.1249	-43.0845	-163.998	-0.036641	0.497220	-0.575889	-0.577179	-0.018529	52.1249	-0.575623	-3.839686E+7	4.825690E-10	NaN
59	1.000000	0.506497	7.36562e+06	-41589.1	955.819	-29786.4	0.000000	0.000000	6.506935	0.012829	NaN	0.000000	0.001618	0.001731	28.0833	0.077934	0.001939	40.1885	-3.285099	-167.476	-0.044801	0.505232	-0.567902	-0.569167	0.012829	40.1885	-0.568142	-3.026575E+7	-4.238707E-10	NaN
59	1.000000	0.514523	7.36562e+06	-41589.1	955.818	-29786.4	0.000000	0.000000	6.514961	0.005609	NaN	0.000000	0.001624	0.001712	28.0841	0.079966	0.002053	38.9446	-40.432	-165.059	0.018131	0.513165	-0.559877	-0.561235	0.005609	38.9446	-0.559985	-2.334348E+7	-2.402712E-10	NaN
59	1.000000	0.522517	7.36562e+06	-41589.1	955.819	-29786.4	0.000000	0.000000	6.522954	-0.011873	NaN	0.000000	0.001611	0.001711	28.084	0.123652	0.002078	59.5026	177.321	-164.408	0.042473	0.521235	-0.551882	-0.553164	-0.011873	59.5026	-0.551733	-1.794541E+7	6.616145E-10	NaN
59	1.000000	0.530535	7.36562e+06	-41589.1	955.818	-29786.4	0.000000	0.000000	6.530972	-0.022373	NaN	0.000000	0.001569	0.001733	28.0843	0.172248	0.001931	89.2006	-137.765	-163.539	-0.079247	0.529194	-0.543865	-0.545206	-0.022373	89.2006	-0.543676	-1.387822E+7	1.612129E-9	NaN
59	1.000000	0.538499	7.36562e+06	-41589.1	955.819	-29786.4	0.000000	0.000000	6.538936	-0.013746	NaN	0.000000	0.001612	0.001698	28.0852	0.070327	0.002090	33.645	-169.825	-163.75	-0.101907	0.537212	-0.535901	-0.537188	-0.013746	33.645	-0.535594	-1.072109E+7	1.282192E-9	NaN
59	1.000000	0.546533	7.36562e+06	-41589.1	955.819	-29786.4	0.000000	0.000000	6.546970	0.009251	NaN	0.000000	0.001598	0.001721	28.0858	0.042673	0.001952	21.8633	178.073	-165.49	0.044364	0.545224	-0.527867	-0.529175	0.009251	21.8633	-0.528184	-8.45972e+06	-1.093555E-9	NaN
59	1.000000	0.554505	7.36562e+06	-41589.1	955.819	-29786.4	0.000000	0.000000	6.554940	-0.057049	NaN	0.000000	0.001602	0.001692	28.0848	0.113299	0.001956	57.9241	-160.686	-167.279	-0.014503	0.553159	-0.519895	-0.521241	-0.057049	57.9241	-0.519156	-6.33669e+06	9.002902E-9	NaN
59	1.000000	0.562504	7.36562e+06	-41589.1	955.818	-29786.4	0.000000	0.000000	6.562944	0.082564	NaN	0.000000	0.001598	0.001749	28.0855	0.009004	0.002081	4.327798	-63.7429	-161.539	0.001603	0.561225	-0.511896	-0.513175	0.082564	4.327798	-0.526204	-7.94041e+06	-1.039790E-8	NaN
59	1.000000	0.570543	7.36562e+06	-41589.1	955.818	-29786.4	0.000000	0.000000	6.570981	0.013724	NaN	0.000000	0.001623	0.001718	28.0857	0.041527	0.002104	19.7377	128.052	-165.986	0.032316	0.569225	-0.503856	-0.505174	0.013724	19.7377	-0.504378	-3.94523e+06	-3.478580E-9	NaN
59	1.000000	0.578537	7.36562e+06	-41589.1	955.818	-29786.4	0.000000	0.000000	6.578975	0.014576	NaN	0.000000	0.001605	0.001734	28.0859	0.094635	0.002050	46.1733	144.312	-168.705	-0.078350	0.577267	-0.495862	-0.497133	0.014576	46.1733	-0.496099	-3.02399e+06	-4.820024E-9	NaN
59	1.000000	0.586536	7.36562e+06	-41589.1	955.818	-29786.4	0.000000	0.000000	6.586972	-0.023589	NaN	0.000000	0.001615	0.001726	28.0846	0.068111	0.001969	34.5903	54.0951	-166.029	-0.046949	0.585211	-0.487864	-0.489188	-0.023589	34.5903	-0.487352	-2.28237e+06	1.033525E-8	NaN
59	1.000000	0.594560	7.36562e+06	-41589.1	955.818	-29786.4	0.000000	0.000000	6.594995	-0.059296	NaN	0.000000	0.001587	0.001733	28.0854	0.058717	0.002014	29.1559	93.0553	-167.888	-0.020130	0.593246	-0.479839	-0.481154	-0.059296	29.1559	-0.478314	-1.70578e+06	3.476148E-8	NaN
59	1.000000	0.602535	7.36562e+06	-41589.1	955.818	-29786.4	0.000000	0.000000	6.602970	-0.062106	NaN	0.000000	0.001590	0.001727	28.0844	0.031829	0.002114	15.0547	56.3234	-163.456	0.021515	0.601248	-0.471865	-0.473152	-0.062106	15.0547	-0.468771	-1.25362e+06	4.954169E-8	NaN
59	1.000000	0.610567	7.36562e+06	-41589.1	955.818	-29786.4	0.000000	0.000000	6.611002	-0.052761	NaN	0.000000	0.001609	0.001725	28.0851	0.031702	0.001940	16.3425	-3.419064	-163.308	-0.127129	0.609207	-0.463832	-0.465193	-0.052761	16.3425	-0.461411	-988202	5.339125E-8	NaN
59	1.000000	0.618575	7.36562e+06	-41589.1	955.818	-29786.4	0.000000	0.000000	6.619011	-0.021776	NaN	0.000000	0.001561	0.001747	28.0852	0.082300	0.002008	40.9937	84.1224	-165.919	0.030901	0.617240	-0.455825	-0.457160	-0.021776	40.9937	-0.455426	-814168	2.674681E-8	NaN
59	1.000000	0.626571	7.36562e+06	-41589.1	955.817	-29786.4	0.000000	0.000000	6.627009	0.023364	NaN	0.000000	0.001603	0.001720	28.0858	0.047760	0.001937	24.6618	-17.5135	-168.762	-0.017745	0.625244	-0.447829	-0.449156	0.023364	24.6618	-0.448539	-651278	-3.587398E-8	NaN
59	1.000000	0.634569	7.36562e+06	-41589.1	955.818	-29786.4	0.000000	0.000000	6.635005	-0.042508	NaN	0.000000	0.001563	0.001745	28.0863	0.032016	0.001924	16.6416	127.474	-163.866	-0.078481	0.633214	-0.439831	-0.441185	-0.042508	16.6416	-0.437915	-461239	9.216117E-8	NaN
59	1.000000	0.642541	7.36562e+06	-41589.1	955.819	-29786.4	0.000000	0.000000	6.642978	-0.001828	NaN	0.000000	0.001572	0.001747	28.0857	0.072058	0.001961	36.746	-52.7111	-163.459	0.029050	0.641291	-0.431859	-0.433108	-0.001828	36.746	-0.431821	-378290	4.831440E-9	NaN
59	1.000000	0.650562	7.36562e+06	-41589.1	955.818	-29786.4	0.000000	0.000000	6.651000	0.018427	NaN	0.000000	0.001542	0.001746	28.0847	0.079939	0.001977	40.4284	-78.5962	-165.828	0.014911	0.649261	-0.423838	-0.425138	0.018427	40.4284	-0.424180	-294891	-6.248667E-8	NaN
59	1.000000	0.658578	7.36562e+06	-41589.1	955.818	-29786.4	0.000000	0.000000	6.659013	-0.062503	NaN	0.000000	0.001552	0.001750	28.0859	0.019481	0.001984	9.819128	123.662	-169.041	-0.064110	0.657288	-0.415822	-0.417112	-0.062503	9.819128	-0.411048	-191999	3.255367E-7	NaN
59	1.000000	0.666559	7.36562e+06	-41589.1	955.818	-29786.4	0.000000	0.000000	6.666994	-0.058443	NaN	0.000000	0.001560	0.001733	28.083	0.015166	0.001964	7.724114	10.9886	-165.336	-0.009627	0.665266	-0.407840	-0.409134	-0.058443	7.724114	-0.402165	-143504	4.072592E-7	NaN
59	1.000000	0.674597	7.36562e+06	-41589.1	955.818	-29786.4	0.000000	0.000000	6.675032	-0.049752	NaN	0.000000	0.001581	0.001722	28.0838	0.052458	0.002102	24.9516	-119.858	-166.697	-0.049584	0.673250	-0.399803	-0.401150	-0.049752	24.9516	-0.398307	-126429	3.935193E-7	NaN
59	1.000000	0.682594	7.36562e+06	-41589.1	955.818	-29786.4	0.000000	0.000000	6.683033	0.034284	NaN	0.000000	0.001559	0.001738	28.0827	0.073501	0.002028	36.2463	87.143	-165.478	-0.018326	0.681303	-0.391805	-0.393096	0.034284	36.2463	-0.392515	-104502	-3.280706E-7	NaN
59	1.000000	0.690598	7.36562e+06	-41589.1	955.818	-29786.4	0.000000	0.000000	6.691032	-0.069768	NaN	0.000000	0.001574	0.001709	28.0843	0.140561	0.001893	74.2443	-152.49	-164.689	-0.106436	0.689230	-0.383802	-0.385169	-0.069768	74.2443	-0.383097	-76615	9.106256E-7	NaN
59	1.000000	0.698604	7.36562e+06	-41589.1	955.818	-29786.4	0.000000	0.000000	6.699040	-0.037364	NaN	0.000000	0.001578	0.001736	28.0846	0.136963	0.002041	67.0899	-9.269958	-160.49	-0.003970	0.697226	-0.375795	-0.377173	-0.037364	67.0899	-0.375378	-59360.9	6.294345E-7	NaN
59	1.000000	0.706588	7.36562e+06	-41589.1	955.818	-29786.4	0.000000	0.000000	6.707022	-0.075633	NaN	0.000000	0.001556	0.001726	28.0849	0.118602	0.002105	56.3528	-122.972	-165.311	-0.021997	0.705269	-0.367812	-0.369131	-0.075633	56.3528	-0.366805	-44677.7	1.692864E-6	NaN
59	1.000000	0.714612	7.36562e+06	-41589.1	955.817	-29786.4	0.000000	0.000000	6.715046	-0.066562	NaN	0.000000	0.001563	0.001717	28.0852	0.031530	0.001961	16.0745	112.249	-167.668	-0.056114	0.713303	-0.359788	-0.361097	-0.066562	16.0745	-0.356682	-31904.7	2.086264E-6	NaN
59	1.000000	0.722590	7.36562e+06	-41589.1	955.819	-29786.4	0.000000	0.000000	6.723025	-0.056693	NaN	0.000000	0.001534	0.001754	28.0849	0.010905	0.002080	5.242455	177.64	-162.463	-0.032462	0.721328	-0.351809	-0.353072	-0.056693	5.242455	-0.343699	-20674	2.742235E-6	NaN
59	1.000000	0.730594	7.36562e+06	-41589.1	955.818	-29786.4	0.000000	0.000000	6.731033	0.062443	NaN	0.000000	0.001511	0.001754	28.0847	0.131316	0.002002	65.6009	-155.137	-164.766	-0.027606	0.729310	-0.343806	-0.345089	0.062443	65.6009	-0.344520	-21250.8	-2.938367E-6	NaN
59	1.000000	0.738587	7.36562e+06	-41589.1	955.818	-29786.4	0.000000	0.000000	6.739020	-0.095609	NaN	0.000000	0.001566	0.001761	28.0858	0.093903	0.002045	45.9264	7.507233	-166.61	-0.040080	0.737315	-0.335813	-0.337085	-0.095609	45.9264	-0.334251	-15053.9	6.351116E-6	NaN
59	1.000000	0.746617	7.36562e+06	-41589.1	955.818	-29786.4	0.000000	0.000000	6.747053	-0.038032	NaN	0.000000	0.001577	0.001765	28.0842	0.202460	0.002051	98.7207	-65.8213	-164.959	0.028811	0.745305	-0.327782	-0.329094	-0.038032	98.7207	-0.327493	-11987.2	3.172709E-6	NaN
59	1.000000	0.754599	7.36562e+06	-41589.1	955.818	-29786.4	0.000000	0.000000	6.755037	0.011622	NaN	0.000000	0.001552	0.001719	28.0835	0.081154	0.001938	41.8656	167.228	-162.534	-0.029833	0.753297	-0.319801	-0.321103	0.011622	41.8656	-0.320009	-9306.21	-1.248878E-6	NaN
59	1.000000	0.762609	7.36562e+06	-41589.1	955.818	-29786.4	0.000000	0.000000	6.763046	0.003138	NaN	0.000000	0.001591	0.001692	28.0842	0.045751	0.002008	22.7876	47.8226	-163.369	-0.024467	0.761326	-0.311791	-0.313073	0.003138	22.7876	-0.311894	-7064.35	-4.441382E-7	NaN
59	1.000000	0.770627	7.36562e+06	-41589.1	955.818	-29786.4	0.000000	0.000000	6.771067	0.052978	NaN	0.000000	0.001544	0.001718	28.0835	0.027915	0.001973	14.1467	47.8204	-166.375	-0.021866	0.769295	-0.303772	-0.305105	0.052978	14.1467	-0.306581	-5893.99	-8.988548E-6	NaN
59	1.000000	0.778623	7.36562e+06	-41589.1	955.818	-29786.4	0.000000	0.000000	6.779062	0.044072	NaN	0.000000	0.001596	0.001714	28.0841	0.111818	0.002154	51.9012	152.482	-163.468	-0.036061	0.777336	-0.295777	-0.297063	0.044072	51.9012	-0.296414	-4160.94	-1.059191E-5	NaN
59	1.000000	0.786615	7.36562e+06	-41589.1	955.818	-29786.4	0.000000	0.000000	6.787051	-0.029749	NaN	0.000000	0.001604	0.001730	28.0857	0.108260	0.002004	54.0246	-89.5073	-164.929	-0.043255	0.785291	-0.287785	-0.289109	-0.029749	54.0246	-0.287372	-3047.12	9.763056E-6	NaN
59	1.000000	0.794637	7.36562e+06	-41589.1	955.818	-29786.4	0.000000	0.000000	6.795073	-0.055126	NaN	0.000000	0.001600	0.001719	28.0868	0.011031	0.001963	5.618694	13.7582	-165.498	-0.044081	0.793281	-0.279762	-0.281118	-0.055126	5.618694	-0.272404	-1811.55	3.043053E-5	NaN
59	1.000000	0.802629	7.36562e+06	-41589.1	955.819	-29786.4	0.000000	0.000000	6.803065	-0.039517	NaN	0.000000	0.001555	0.001694	28.0866	0.045502	0.001841	24.7155	59.6079	-165.56	-0.099663	0.801341	-0.271770	-0.273059	-0.039517	24.7155	-0.270571	-1699.12	2.325715E-5	NaN
59	1.000000	0.810647	7.36562e+06	-41589.1	955.818	-29786.4	0.000000	0.000000	6.811082	-0.041106	NaN	0.000000	0.001611	0.001724	28.0862	0.108394	0.001916	56.5836	-106.552	-163.884	-0.047890	0.809382	-0.263753	-0.265018	-0.041106	56.5836	-0.263208	-1312.26	3.132467E-5	NaN
59	1.000000	0.818650	7.36562e+06	-41589.1	955.818	-29786.4	0.000000	0.000000	6.819087	0.000580	NaN	0.000000	0.001586	0.001734	28.0863	0.088615	0.001982	44.7026	-139.368	-164.909	0.031438	0.817317	-0.255750	-0.257082	0.000580	44.7026	-0.255760	-1008.8	-5.749356E-7	NaN
59	1.000000	0.826636	7.36562e+06	-41589.1	955.818	-29786.4	0.000000	0.000000	6.827074	0.015233	NaN	0.000000	0.001583	0.001718	28.0855	0.129599	0.002088	62.0735	137.178	-167.223	0.025944	0.825324	-0.247763	-0.249075	0.015233	62.0735	-0.247947	-764.173	-1.993368E-5	NaN
59	1.000000	0.834661	7.36562e+06	-41589.1	955.818	-29786.4	0.000000	0.000000	6.835098	-0.018618	NaN	0.000000	0.001595	0.001762	28.0855	0.034541	0.002146	16.0943	-125.242	-166.378	-0.064401	0.833344	-0.239738	-0.241055	-0.018618	16.0943	-0.238871	-551.951	3.373134E-5	NaN
59	1.000000	0.842635	7.36562e+06	-41589.1	955.818	-29786.4	0.000000	0.000000	6.843072	-0.018690	NaN	0.000000	0.001600	0.001712	28.0847	0.030814	0.002028	15.196	48.097	-164.86	0.038407	0.841299	-0.231765	-0.233101	-0.018690	15.196	-0.230842	-412.866	4.526874E-5	NaN
59	1.000000	0.850663	7.36562e+06	-41589.1	955.818	-29786.4	0.000000	0.000000	6.851100	-0.008106	NaN	0.000000	0.001606	0.001742	28.0857	0.066521	0.002165	30.7309	-119.769	-165.705	-0.100836	0.849392	-0.223737	-0.225007	-0.008106	30.7309	-0.223539	-316.308	2.562791E-5	NaN
59	1.000000	0.858657	7.36562e+06	-41589.1	955.819	-29786.4	0.000000	0.000000	6.859093	-0.031817	NaN	0.000000	0.001597	0.001734	28.0863	0.128141	0.001845	69.4482	168.904	-165.572	-0.028012	0.857384	-0.215743	-0.217016	-0.031817	69.4482	-0.215399	-234.386	0.000136	NaN
59	1.000000	0.866673	7.36562e+06	-41589.1	955.819	-29786.4	0.000000	0.000000	6.867109	-0.023375	NaN	0.000000	0.001616	0.001726	28.0872	0.087636	0.001924	45.5474	54.1043	-163.842	-0.049389	0.865302	-0.207727	-0.209098	-0.023375	45.5474	-0.207342	-173.657	0.000135	NaN
59	1.000000	0.874667	7.36562e+06	-41589.1	955.817	-29786.4	0.000000	0.000000	6.875103	-0.022987	NaN	0.000000	0.001608	0.001755	28.087	0.100917	0.002084	48.4269	157.081	-166.672	0.033404	0.873392	-0.199733	-0.201007	-0.022987	48.4269	-0.199377	-128.662	0.000179	NaN
59	1.000000	0.882638	7.36562e+06	-41589.1	955.818	-29786.4	0.000000	0.000000	6.883072	-0.082583	NaN	0.000000	0.001592	0.001717	28.0865	0.120364	0.001932	62.2892	-114.417	-167.602	-0.066877	0.881365	-0.191762	-0.193034	-0.082583	62.2892	-0.190767	-92.6481	0.000891	NaN
59	1.000000	0.890693	7.36562e+06	-41589.1	955.819	-29786.4	0.000000	0.000000	6.891131	0.004529	NaN	0.000000	0.001603	0.001753	28.0867	0.020441	0.002008	10.1821	-97.4139	-160.981	0.024022	0.889348	-0.183706	-0.185051	0.004529	10.1821	-0.184040	-71.4392	-6.339557E-5	NaN
59	1.000000	0.898656	7.36562e+06	-41589.1	955.819	-29786.4	0.000000	0.000000	6.899093	-0.003026	NaN	0.000000	0.001637	0.001722	28.0863	0.096416	0.001982	48.6448	-147.821	-165.308	0.044439	0.897323	-0.175744	-0.177076	-0.003026	48.6448	-0.175697	-51.5169	5.873879E-5	NaN
59	1.000000	0.906711	7.36562e+06	-41589.1	955.818	-29786.4	0.000000	0.000000	6.907147	-0.042088	NaN	0.000000	0.001683	0.001715	28.0854	0.088546	0.002056	43.0683	-70.3876	-166.286	0.029681	0.905384	-0.167689	-0.169016	-0.042088	43.0683	-0.166956	-36.3555	0.001158	NaN
59	1.000000	0.914659	7.36562e+06	-41589.1	955.818	-29786.4	0.000000	0.000000	6.915095	-0.050684	NaN	0.000000	0.001680	0.001721	28.0847	0.081199	0.001947	41.7099	129.803	-164.376	-0.007183	0.913346	-0.159740	-0.161054	-0.050684	41.7099	-0.158829	-26.1303	0.001940	NaN
59	1.000000	0.922657	7.36562e+06	-41589.1	955.819	-29786.4	0.000000	0.000000	6.923095	0.018368	NaN	0.000000	0.001670	0.001711	28.0847	0.042110	0.001936	21.7473	161.064	-165.077	0.052344	0.921374	-0.151743	-0.153025	0.018368	21.7473	-0.152376	-20.0081	-0.000918	NaN
59	1.000000	0.930694	7.36562e+06	-41589.1	955.818	-29786.4	0.000000	0.000000	6.931133	0.043892	NaN	0.000000	0.001649	0.001755	28.0847	0.032292	0.002010	16.0624	55.9716	-167.881	0.010888	0.929431	-0.143706	-0.144969	0.043892	16.0624	-0.145755	-15.1399	-0.002899	NaN
59	1.000000	0.938705	7.36562e+06	-41589.1	955.819	-29786.4	0.000000	0.000000	6.939141	-0.023841	NaN	0.000000	0.001638	0.001720	28.0844	0.065809	0.002194	29.9946	59.8091	-165.889	0.033752	0.937405	-0.135695	-0.136995	-0.023841	29.9946	-0.135099	-9.553711	0.002495	NaN
59	1.000000	0.946672	7.36562e+06	-41589.1	955.818	-29786.4	0.000000	0.000000	6.947109	-0.004825	NaN	0.000000	0.001686	0.001700	28.0851	0.040284	0.001991	20.2292	57.0274	-164.022	-0.010533	0.945366	-0.127728	-0.129033	-0.004825	20.2292	-0.127549	-6.826268	0.000707	NaN
59	1.000000	0.954715	7.36562e+06	-41589.1	955.819	-29786.4	0.000000	0.000000	6.955151	-0.045693	NaN	0.000000	0.001666	0.001703	28.0858	0.037712	0.002004	18.8142	167.102	-163.706	-0.025630	0.953379	-0.119685	-0.121021	-0.045693	18.8142	-0.117863	-4.372818	0.010449	NaN
59	1.000000	0.962671	7.36562e+06	-41589.1	955.819	-29786.4	0.000000	0.000000	6.963105	-0.077936	NaN	0.000000	0.001659	0.001676	28.087	0.142050	0.001984	71.6018	146.411	-164.072	-0.129000	0.961374	-0.111729	-0.113026	-0.077936	71.6018	-0.110912	-3.141027	0.024812	NaN
59	1.000000	0.970674	7.36562e+06	-41589.1	955.817	-29786.4	0.000000	0.000000	6.971111	0.011799	NaN	0.000000	0.001674	0.001708	28.086	0.094759	0.002019	46.93	43.2474	-162.896	-0.029955	0.969359	-0.103726	-0.105041	0.011799	46.93	-0.103915	-2.226706	-0.005299	NaN
59	1.000000	0.978711	7.36562e+06	-41589.1	955.817	-29786.4	0.000000	0.000000	6.979146	-0.054323	NaN	0.000000	0.001652	0.001701	28.0851	0.024896	0.002025	12.2916	16.175	-163.028	-0.033728	0.977422	-0.095688	-0.096978	-0.054323	12.2916	-0.092374	-1.227776	0.044245	NaN
59	1.000000	0.986706	7.36562e+06	-41589.1	955.817	-29786.4	0.000000	0.000000	6.987141	-0.063626	NaN	0.000000	0.001659	0.001687	28.0848	0.049346	0.001977	24.9638	-20.3121	-166.01	-0.014814	0.985430	-0.087694	-0.088969	-0.063626	24.9638	-0.085782	-0.858146	0.074143	NaN
59	1.000000	0.994721	7.36562e+06	-41589.1	955.818	-29786.4	0.000000	0.000000	6.995154	-0.123971	NaN	0.000000	0.001666	0.001673	28.0843	0.070581	0.001831	38.5538	61.7367	-166.81	-0.034863	0.993395	-0.079678	-0.081005	-0.123971	38.5538	-0.077267	-0.528084	0.234756	NaN
59	1.000000	1.002695	7.36562e+06	-41589.1	955.819	-29786.4	0.000000	0.000000	7.003133	0.013015	NaN	0.000000	0.001652	0.001734	28.0858	0.031269	0.002056	15.2103	-162.842	-165.547	0.044592	1.001368	-0.071704	-0.073032	0.013015	15.2103	-0.072346	-0.393756	-0.033053	NaN
59	1.000000	1.010767	7.36562e+06	-41589.1	955.818	-29786.4	0.000000	0.000000	7.011201	-0.078667	NaN	0.000000	0.001680	0.001753	28.0841	0.105492	0.001974	53.4451	161.477	-166.018	-0.016232	1.009430	-0.063633	-0.064969	-0.078667	53.4451	-0.062529	-0.212538	0.370132	NaN
59	1.000000	1.018740	7.36562e+06	-41589.1	955.818	-29786.4	0.000000	0.000000	7.019177	-0.018862	NaN	0.000000	0.001668	0.001733	28.0849	0.131561	0.001899	69.2899	150.129	-166.972	-0.028858	1.017427	-0.055660	-0.056973	-0.018862	69.2899	-0.055455	-0.132826	0.142003	NaN
59	1.000000	1.026713	7.36562e+06	-41589.1	955.818	-29786.4	0.000000	0.000000	7.027150	-0.010529	NaN	0.000000	0.001703	0.001738	28.0855	0.069906	0.002171	32.2048	-133.777	-163.944	-0.029829	1.025468	-0.047687	-0.048932	-0.010529	32.2048	-0.047442	-0.076305	0.137990	NaN
59	1.000000	1.034711	7.36562e+06	-41589.1	955.818	-29786.4	0.000000	0.000000	7.035148	-0.002093	NaN	0.000000	0.001723	0.001744	28.0862	0.057139	0.001991	28.7019	-89.8579	-167.418	-0.019378	1.033433	-0.039689	-0.040967	-0.002093	28.7019	-0.039634	-0.044080	0.047475	NaN
59	1.000000	1.042761	7.36562e+06	-41589.1	955.819	-29786.4	0.000000	0.000000	7.043196	-0.059477	NaN	0.000000	0.001633	0.001742	28.0856	0.040760	0.002070	19.6956	-164.264	-163.563	-0.033663	1.041460	-0.031639	-0.032939	-0.059477	19.6956	-0.029374	-0.022110	2.690003	NaN
59	1.000000	1.050744	7.36562e+06	-41589.1	955.819	-29786.4	0.000000	0.000000	7.051180	-0.032595	NaN	0.000000	0.001615	0.001765	28.0849	0.029824	0.002113	14.1123	137.294	-165.298	0.047982	1.049441	-0.023656	-0.024959	-0.032595	14.1123	-0.021923	-0.014058	2.318682	NaN
59	1.000000	1.058738	7.36562e+06	-41589.1	955.819	-29786.4	0.000000	0.000000	7.059174	-0.025006	NaN	0.000000	0.001606	0.001786	28.087	0.128771	0.002131	60.429	-160.552	-166.203	-0.003387	1.057493	-0.015662	-0.016907	-0.025006	60.429	-0.015351	-0.009487	2.635805	NaN
59	1.000000	1.066723	7.36562e+06	-41589.1	955.818	-29786.4	0.000000	0.000000	7.067158	-0.056077	NaN	0.000000	0.001605	0.001765	28.0854	0.033258	0.002060	16.1461	104.28	-163.734	-0.155509	1.065439	-0.007677	-0.008960	-0.056077	16.1461	-0.005072	-0.003462	16.1995	NaN
59	1.000000	1.074743	7.36562e+06	-41589.1	955.818	-29786.4	0.000000	0.000000	7.075186	0.142200	NaN	0.000000	0.001612	0.001735	28.0859	0.150717	0.001878	80.2632	-0.543325	-164.434	0.003618	1.073429	0.000343	-0.000970	0.142200	80.2632	-0.000986	-0.000723	-196.685	NaN
59	1.000000	1.082698	7.36562e+06	-41589.1	955.818	-29786.4	0.000000	0.000000	7.083345	5.103671	NaN	0.000000	0.001623	0.001750	28.0867	6.082192	0.001949	3120.24	14.6355	-170.105	3.643201	1.081432	0.008298	0.007033	5.103671	3120.24	0.007072	0.006105	836.028	36486.3
59	2.000000	1.087311	7.36562e+06	-41589.1	955.819	-29786.4	0.000000	0.000000	7.088119	9.023303	NaN	0.000000	0.001595	0.001724	28.0857	9.753524	0.001603	6085.47	5.917913	-171.788	8.554432	1.086968	0.012911	0.012568	9.023303	6085.47	0.011799	0.011250	802.049	52418.6
59	2.000000	1.089286	7.36562e+06	-41589.1	955.819	-29786.4	0.000000	0.000000	7.090177	11.0283	NaN	0.000000	0.001590	0.001732	28.0865	11.6016	0.001631	7113.18	7.513756	-172.737	11.6215	1.088961	0.014886	0.014561	11.0283	7113.18	0.013724	0.013621	809.661	55684.6
59	2.000000	1.091289	7.36562e+06	-41589.1	955.818	-29786.4	0.000000	0.000000	7.092356	15.3183	NaN	0.000000	0.001633	0.001709	28.0876	14.3417	0.001793	7999.73	9.086951	-175.293	15.149	1.090913	0.016889	0.016513	15.3183	7999.73	0.015453	0.015894	963.763	57973.4
59	2.000000	1.093228	7.36562e+06	-41589.1	955.818	-29786.4	0.000000	0.000000	7.094452	19.1577	NaN	0.000000	0.001619	0.001725	28.0883	16.6314	0.001812	9178.64	8.989755	-177.394	18.5278	1.092969	0.018828	0.018570	19.1577	9178.64	0.017263	0.018422	1039.93	61784.9
59	2.000000	1.095216	7.36562e+06	-41589.1	955.818	-29786.4	0.000000	0.000000	7.096619	23.5068	NaN	0.000000	0.001607	0.001738	28.0881	19.1193	0.001824	10484	5.180073	-175.58	21.948	1.094825	0.020816	0.020426	23.5068	10484	0.019135	0.021201	1108.78	65785
59	2.000000	1.097204	7.36562e+06	-41589.1	955.819	-29786.4	0.000000	0.000000	7.098773	27.5227	NaN	0.000000	0.001610	0.001733	28.0871	20.5179	0.001780	11529.3	9.913078	-179.579	27.5889	1.096884	0.022805	0.022484	27.5227	11529.3	0.021014	0.024161	1139.14	67767
59	2.000000	1.099191	7.36562e+06	-41589.1	955.819	-29786.4	0.000000	0.000000	7.100934	31.7737	NaN	0.000000	0.001562	0.001707	28.0875	22.9515	0.001701	13494.7	4.385392	-177.826	31.8637	1.098905	0.024791	0.024505	31.7737	13494.7	0.023025	0.027520	1154.55	74320.7
59	2.000000	1.101221	7.36562e+06	-41589.1	955.82	-29786.4	0.000000	0.000000	7.103157	36.4722	NaN	0.000000	0.001564	0.001734	28.0864	24.841	0.001821	13643.6	3.613608	-175.202	35.0465	1.100947	0.026822	0.026548	36.4722	13643.6	0.024817	0.030683	1188.68	71163.1
59	2.000000	1.103181	7.36562e+06	-41589.1	955.819	-29786.4	0.000000	0.000000	7.105294	40.7528	NaN	0.000000	0.001575	0.001739	28.0869	26.0587	0.001713	15214.5	2.430017	-175.343	40.3041	1.102859	0.028782	0.028459	40.7528	15214.5	0.026773	0.034320	1187.43	75033.7
59	2.000000	1.105184	7.36563e+06	-41589.1	955.818	-29786.4	0.000000	0.000000	7.107557	47.1093	NaN	0.000000	0.001593	0.001723	28.088	29.0669	0.001879	15471.7	4.755372	-178.26	45.4877	1.104877	0.030784	0.030477	47.1093	15471.7	0.028500	0.037693	1249.82	72808.3
59	2.000000	1.107218	7.36563e+06	-41589.1	955.818	-29786.4	0.000000	0.000000	7.109758	51.1583	NaN	0.000000	0.001580	0.001734	28.0851	30.1438	0.001768	17046.3	5.831024	179.091	51.6178	1.106909	0.032818	0.032510	51.1583	17046.3	0.030567	0.041928	1220.15	76059
59	2.000000	1.109199	7.36563e+06	-41589.1	955.818	-29786.4	0.000000	0.000000	7.112033	58.3117	NaN	0.000000	0.001594	0.001735	28.0865	32.7368	0.001912	17124.5	4.500681	-178.88	58.5882	1.108852	0.034799	0.034453	58.3117	17124.5	0.032245	0.045526	1280.84	73326.3
59	2.000000	1.111199	7.36563e+06	-41589.1	955.819	-29786.4	0.000000	0.000000	7.114300	64.7902	NaN	0.000000	0.001583	0.001738	28.0878	35.5099	0.001824	19467.9	10.3169	174.759	65.0338	1.110815	0.036800	0.036415	64.7902	19467.9	0.034304	0.050137	1292.26	79435.1
59	2.000000	1.113159	7.36563e+06	-41589.1	955.818	-29786.4	0.000000	0.000000	7.116591	72.8826	NaN	0.000000	0.001622	0.001712	28.0865	35.6963	0.001772	20150	2.365505	-177.801	71.6488	1.112820	0.038759	0.038420	72.8826	20150	0.036046	0.054210	1344.45	79069.3
59	2.000000	1.115149	7.36563e+06	-41589.1	955.818	-29786.4	0.000000	0.000000	7.118908	80.8302	NaN	0.000000	0.001572	0.001734	28.086	39.736	0.001853	21445.4	6.708690	177.546	80.6665	1.114812	0.040749	0.040413	80.8302	21445.4	0.037922	0.058769	1375.4	80823
59	2.000000	1.117174	7.36563e+06	-41589.1	955.818	-29786.4	0.000000	0.000000	7.121169	86.5511	NaN	0.000000	0.001623	0.001734	28.0851	40.0483	0.001856	21580.9	4.268596	-179.689	85.9244	1.116806	0.042775	0.042406	86.5511	21580.9	0.039767	0.063427	1364.57	78289.5
59	2.000000	1.119170	7.36563e+06	-41589.1	955.818	-29786.4	0.000000	0.000000	7.123375	91.6588	NaN	0.000000	0.001586	0.001721	28.0875	43.0728	0.001889	22807.8	4.711939	178.555	91.1722	1.118893	0.044771	0.044493	91.6588	22807.8	0.041757	0.068647	1335.22	79532.8
59	2.000000	1.121236	7.36563e+06	-41589.1	955.819	-29786.4	0.000000	0.000000	7.125943	103.89	NaN	0.000000	0.001591	0.001718	28.0848	44.5473	0.001888	23597	6.164385	177.836	105.985	1.120797	0.046836	0.046398	103.89	23597	0.043534	0.073480	1413.86	79532.7
59	2.000000	1.123068	7.36563e+06	-41589.1	955.819	-29786.4	0.000000	0.000000	7.128219	114.686	NaN	0.000000	0.001614	0.001755	28.0854	44.5578	0.001749	25479.2	3.158646	178.951	110.713	1.122801	0.048668	0.048401	114.686	25479.2	0.045292	0.078420	1462.46	83128
59	2.000000	1.125158	7.36563e+06	-41589.1	955.819	-29786.4	0.000000	0.000000	7.130454	118.224	NaN	0.000000	0.001603	0.001719	28.0855	47.991	0.001806	26577.2	5.632259	176.573	118.153	1.124808	0.050758	0.050408	118.224	26577.2	0.047422	0.084611	1397.26	83477.6
59	2.000000	1.127128	7.36563e+06	-41589.1	955.819	-29786.4	0.000000	0.000000	7.133025	132.849	NaN	0.000000	0.001609	0.001674	28.0854	48.9047	0.001756	27857.1	7.641121	173.9	131.336	1.126736	0.052728	0.052337	132.849	27857.1	0.049151	0.089808	1479.26	84928.1
59	2.000000	1.129129	7.36563e+06	-41589.1	955.819	-29786.4	0.000000	0.000000	7.135224	137.676	NaN	0.000000	0.001574	0.001699	28.0854	51.6523	0.001905	27109.2	9.619296	172.649	136.571	1.128869	0.054729	0.054470	137.676	27109.2	0.050920	0.095279	1444.98	80240
59	2.000000	1.131189	7.36563e+06	-41589.1	955.82	-29786.4	0.000000	0.000000	7.137832	150.985	NaN	0.000000	0.001565	0.001687	28.0869	52.4781	0.001915	27401.2	6.924370	177.397	152.298	1.130723	0.056790	0.056323	150.985	27401.2	0.052657	0.100803	1497.82	78850.7
59	2.000000	1.133103	7.36563e+06	-41589.1	955.819	-29786.4	0.000000	0.000000	7.140118	160.048	NaN	0.000000	0.001600	0.001685	28.0865	53.1482	0.001749	30384.8	-0.271984	-178.776	157.079	1.132804	0.058703	0.058405	160.048	30384.8	0.054753	0.107668	1486.49	84603.2
59	2.000000	1.135122	7.36563e+06	-41589.1	955.819	-29786.4	0.000000	0.000000	7.142443	167.497	NaN	0.000000	0.001593	0.001729	28.0867	56.7695	0.001895	29952	3.953432	177.377	166.537	1.134935	0.060722	0.060535	167.497	29952	0.056528	0.113654	1473.74	81172.2
59	2.000000	1.137195	7.36563e+06	-41589.1	955.819	-29786.4	0.000000	0.000000	7.145091	181.481	NaN	0.000000	0.001594	0.001723	28.0877	57.6447	0.001763	32705	7.126825	174.465	184.155	1.136806	0.062796	0.062406	181.481	32705	0.058634	0.120955	1500.4	85916.3
59	2.000000	1.139173	7.36563e+06	-41589.1	955.819	-29786.4	0.000000	0.000000	7.147533	192.76	NaN	0.000000	0.001590	0.001706	28.087	60.9735	0.001824	33419.6	9.419333	171.247	193.435	1.138719	0.064774	0.064320	192.76	33419.6	0.060448	0.127419	1512.81	85537.9
59	2.000000	1.141175	7.36563e+06	-41589.1	955.82	-29786.4	0.000000	0.000000	7.149992	203.909	NaN	0.000000	0.001579	0.001713	28.0861	62.0429	0.001912	32444.4	4.729933	176.505	205.569	1.140803	0.066775	0.066403	203.909	32444.4	0.062061	0.133304	1529.65	81187.9
59	2.000000	1.143095	7.36563e+06	-41589.1	955.82	-29786.4	0.000000	0.000000	7.152488	217.899	NaN	0.000000	0.001595	0.001711	28.0863	63.4805	0.001774	35778	7.062115	172.631	213.772	1.142672	0.068695	0.068273	217.899	35778	0.064128	0.141024	1545.12	87044.7
59	2.000000	1.145122	7.36563e+06	-41589.1	955.82	-29786.4	0.000000	0.000000	7.154862	226.351	NaN	0.000000	0.001592	0.001706	28.0858	65.9586	0.001842	35814	3.254842	176.796	223.939	1.144832	0.070722	0.070432	226.351	35814	0.065982	0.148128	1528.08	85017.3
59	2.000000	1.147168	7.36563e+06	-41589.1	955.82	-29786.4	0.000000	0.000000	7.157271	235.185	NaN	0.000000	0.001605	0.001689	28.0877	67.474	0.001768	38156.1	7.930944	171.59	237.298	1.146851	0.072768	0.072451	235.185	38156.1	0.068146	0.156626	1501.57	88085.5
59	2.000000	1.149031	7.36563e+06	-41589.1	955.82	-29786.4	0.000000	0.000000	7.159710	249.204	NaN	0.000000	0.001587	0.001722	28.0878	70.3512	0.001837	38307.2	8.239377	170.907	244.268	1.148749	0.074631	0.074350	249.204	38307.2	0.069752	0.163081	1528.1	86666.5
59	2.000000	1.151132	7.36563e+06	-41589.1	955.819	-29786.4	0.000000	0.000000	7.162129	256.946	NaN	0.000000	0.001618	0.001732	28.0875	71.0566	0.001744	40746	1.509278	176.687	255.349	1.151009	0.076733	0.076610	256.946	40746	0.072003	0.172331	1491	89676
59	2.000000	1.153101	7.36563e+06	-41589.1	955.819	-29786.4	0.000000	0.000000	7.165117	281.714	NaN	0.000000	0.001586	0.001707	28.0887	72.4178	0.001820	39795.8	1.703029	177.628	279.647	1.152719	0.078702	0.078320	281.714	39795.8	0.073392	0.178161	1581.23	86139.8
59	2.000000	1.155070	7.36563e+06	-41589.1	955.819	-29786.4	0.000000	0.000000	7.167412	289.665	NaN	0.000000	0.001591	0.001688	28.0878	73.9614	0.001814	40771.4	1.875097	176.641	287.935	1.154833	0.080670	0.080433	289.665	40771.4	0.075342	0.186495	1553.21	86257.2
59	2.000000	1.157052	7.36563e+06	-41589.1	955.82	-29786.4	0.000000	0.000000	7.169981	303.94	NaN	0.000000	0.001581	0.001671	28.0888	74.7807	0.001794	41691.1	2.022582	176.435	299.27	1.156825	0.082653	0.082426	303.94	41691.1	0.077185	0.194537	1562.38	86360.5
59	2.000000	1.159057	7.36563e+06	-41589.1	955.819	-29786.4	0.000000	0.000000	7.172614	319.229	NaN	0.000000	0.001575	0.001676	28.0886	78.2824	0.001795	43618.5	6.847959	171.535	316.049	1.158624	0.084657	0.084225	319.229	43618.5	0.079168	0.203371	1569.69	88368.9
59	2.000000	1.161016	7.36563e+06	-41589.1	955.82	-29786.4	0.000000	0.000000	7.175218	334.928	NaN	0.000000	0.001610	0.001687	28.0876	79.7122	0.001841	43288.6	5.555110	172.968	329.67	1.160762	0.086616	0.086362	334.928	43288.6	0.080814	0.210836	1588.57	86133.9
59	2.000000	1.163050	7.36563e+06	-41589.1	955.819	-29786.4	0.000000	0.000000	7.177734	346.651	NaN	0.000000	0.001595	0.001703	28.0879	81.2864	0.001749	46466.4	8.212142	169.409	341.226	1.162675	0.088650	0.088275	346.651	46466.4	0.083055	0.221212	1567.06	90262.6
59	2.000000	1.165064	7.36563e+06	-41589.1	955.82	-29786.4	0.000000	0.000000	7.180370	361.78	NaN	0.000000	0.001601	0.001714	28.087	84.352	0.001790	47128.9	4.685925	172.829	359.042	1.164754	0.090664	0.090354	361.78	47128.9	0.084907	0.229959	1573.24	89791.5
59	2.000000	1.167055	7.36563e+06	-41589.1	955.819	-29786.4	0.000000	0.000000	7.183155	381.091	NaN	0.000000	0.001574	0.001703	28.0879	85.4574	0.001721	49663.2	6.816321	170.077	378.362	1.166703	0.092656	0.092303	381.091	49663.2	0.086901	0.239551	1590.85	92706.2
59	2.000000	1.169146	7.36563e+06	-41589.1	955.819	-29786.4	0.000000	0.000000	7.185139	378.518	NaN	0.000000	0.001581	0.001726	28.0865	86.8805	0.001853	46898.8	0.448434	177.074	379.096	1.168851	0.094746	0.094452	378.518	46898.8	0.088693	0.248332	1524.24	85984.2
59	2.000000	1.171084	7.36563e+06	-41589.1	955.819	-29786.4	0.000000	0.000000	7.188269	407.506	NaN	0.000000	0.001613	0.001684	28.0882	89.7108	0.001727	51954.9	6.704431	170.986	403.643	1.170597	0.096684	0.096198	407.506	51954.9	0.090802	0.258852	1574.28	93298.3
59	2.000000	1.173000	7.36563e+06	-41589.1	955.82	-29786.4	0.000000	0.000000	7.190785	422.107	NaN	0.000000	0.001625	0.001655	28.0884	90.141	0.001767	51021.1	2.806010	173.982	416.467	1.172798	0.098600	0.098398	422.107	51021.1	0.092395	0.266937	1581.3	90223.3
59	2.000000	1.175089	7.36563e+06	-41589.1	955.819	-29786.4	0.000000	0.000000	7.193424	435.495	NaN	0.000000	0.001600	0.001656	28.0877	93.601	0.001830	51144.8	4.447602	172.663	433.472	1.174790	0.100689	0.100390	435.495	51144.8	0.094303	0.276771	1573.49	88820.8
59	2.000000	1.177081	7.36563e+06	-41589.1	955.82	-29786.4	0.000000	0.000000	7.195839	445.798	NaN	0.000000	0.001578	0.001673	28.0894	93.4175	0.001730	54010.6	0.384519	176.164	444.956	1.176888	0.102681	0.102488	445.798	54010.6	0.096491	0.288249	1546.57	91911.1
59	2.000000	1.179117	7.36563e+06	-41589.1	955.82	-29786.4	0.000000	0.000000	7.198913	471.019	NaN	0.000000	0.001609	0.001721	28.0876	97.6435	0.001797	54325.1	8.030748	169.379	472.173	1.178610	0.104718	0.104210	471.019	54325.1	0.098215	0.297451	1583.52	91005.2
59	2.000000	1.181050	7.36563e+06	-41589.1	955.82	-29786.4	0.000000	0.000000	7.201573	488.745	NaN	0.000000	0.001606	0.001683	28.0863	99.6169	0.001727	57673	5.173876	171.468	487.431	1.180687	0.106650	0.106287	488.745	57673	0.100294	0.308726	1583.1	94832.9
59	2.000000	1.183053	7.36563e+06	-41589.1	955.82	-29786.4	0.000000	0.000000	7.204267	505.542	NaN	0.000000	0.001583	0.001679	28.0874	101.263	0.001824	55511.9	7.528635	169.758	501.998	1.182650	0.108654	0.108250	505.542	55511.9	0.101823	0.317144	1594.04	90059.7
59	2.000000	1.184517	7.36563e+06	-41589.1	955.821	-29786.4	0.000000	0.000000	7.206338	520.31	NaN	0.000000	0.001573	0.001731	28.1255	102.49	0.001694	60504.1	2.931480	-6.730818	513.96	1.184139	0.110117	0.109739	520.31	60504.1	0.103667	0.327437	1589.04	96603.9