File: remote_trans/data/nanoindenter/0828-1/data/Data_2025-08-06,11h17m57s/2025-07-22_16-23-58_1_497.txt
2025-07-22, 16:23:58, 1
Index	Phase	Displacement	Time	Pos X	Pos Y	Pos Z	Rot A	Rot B	Piezo Z	Force A	Force B	Gripper	Voltage A	Voltage B	Temperature	Amplitude force	Amplitude pos	Stiffness	Phase shift	Phase excitation	Force A raw	Displacement raw	HMax	HMax raw	Real Force	Real Stiffness	Contact Depth	Area	Hardness	Reduced Mod.
[#]	[#]	[um]	[s]	[um]	[um]	[um]	[m°]	[m°]	[um]	[uN]	[uN]	[V]	[V]	[V]	[°C]	[uN]	[um]	[N/m]	[°]	[°]	[uN]	[um]	[um]	[um]	[uN]	[N/m]	[um]	[um^2]	[MPa]	[MPa]
497	1.000000	0.002508	7.36991e+06	-52239.1	1005.82	-29749.8	0.000000	0.000000	6.002801	0.020876	NaN	0.000000	0.001528	0.001741	28.0815	0.042546	0.000945	45.0286	151.213	-162.366	-0.027649	0.001241	-1.095166	-1.096434	0.020876	45.0286	-1.095514	-4.363629E+14	-4.784070E-17	NaN
497	1.000000	0.012571	7.36991e+06	-52239.1	1005.82	-29749.8	0.000000	0.000000	6.012864	0.007461	NaN	0.000000	0.001540	0.001721	28.0814	0.046300	0.001206	38.3972	133.845	10.9067	-0.005462	0.011117	-1.085103	-1.086557	0.007461	38.3972	-1.085249	-3.176990E+14	-2.348596E-17	NaN
497	1.000000	0.022442	7.36991e+06	-52239.1	1005.82	-29749.8	0.000000	0.000000	6.022737	0.047892	NaN	0.000000	0.001516	0.001738	28.0809	0.021421	0.001713	12.5016	-73.6919	-166.147	-0.007616	0.021154	-1.075232	-1.076520	0.047892	12.5016	-1.078105	-2.547213E+14	-1.880162E-16	NaN
497	1.000000	0.032443	7.36991e+06	-52239.1	1005.82	-29749.8	0.000000	0.000000	6.032738	0.046902	NaN	0.000000	0.001550	0.001770	28.0815	0.056239	0.001898	29.6331	126.206	16.4471	0.036868	0.031068	-1.065231	-1.066606	0.046902	29.6331	-1.066418	-1.774436E+14	-2.643192E-16	NaN
497	1.000000	0.042457	7.36991e+06	-52239.1	1005.82	-29749.8	0.000000	0.000000	6.042753	0.081334	NaN	0.000000	0.001552	0.001715	28.0815	0.114274	0.001982	57.6595	172.783	-164.675	0.111967	0.041128	-1.055217	-1.056546	0.081334	57.6595	-1.056275	-1.296465E+14	-6.273527E-16	NaN
497	1.000000	0.052427	7.36991e+06	-52239.1	1005.82	-29749.9	0.000000	0.000000	6.052719	-0.019010	NaN	0.000000	0.001531	0.001783	28.08	0.078919	0.001918	41.1543	105.476	10.8675	-0.099919	0.051111	-1.045247	-1.046563	-0.019010	41.1543	-1.044901	-9.117138E+13	2.085084E-16	NaN
497	1.000000	0.062463	7.36991e+06	-52239.1	1005.82	-29749.9	0.000000	0.000000	6.062755	-0.006650	NaN	0.000000	0.001580	0.001738	28.08	0.064845	0.002040	31.7809	-111.132	-164.447	0.037774	0.061173	-1.035211	-1.036501	-0.006650	31.7809	-1.035054	-6.721415E+13	9.893207E-17	NaN
497	1.000000	0.072451	7.36991e+06	-52239.1	1005.82	-29749.9	0.000000	0.000000	6.072745	0.036275	NaN	0.000000	0.001547	0.001746	28.0801	0.108122	0.001874	57.685	-163.541	13.3759	0.077208	0.071151	-1.025223	-1.026523	0.036275	57.685	-1.025694	-5.029943E+13	-7.211786E-16	NaN
497	1.000000	0.082444	7.36991e+06	-52239.1	1005.82	-29749.9	0.000000	0.000000	6.082739	0.053802	NaN	0.000000	0.001529	0.001723	28.0799	0.011779	0.001992	5.913243	-95.0589	-165.837	-0.027621	0.081149	-1.015230	-1.016526	0.053802	5.913243	-1.022054	-4.493526E+13	-1.197319E-15	NaN
497	1.000000	0.092481	7.36991e+06	-52239.1	1005.82	-29749.9	0.000000	0.000000	6.092777	0.068478	NaN	0.000000	0.001551	0.001743	28.0799	0.080602	0.001925	41.8678	138.983	11.763	0.025172	0.091140	-1.005193	-1.006534	0.068478	41.8678	-1.006420	-2.768151E+13	-2.473775E-15	NaN
497	1.000000	0.102473	7.36991e+06	-52239.1	1005.82	-29749.9	0.000000	0.000000	6.102766	0.010948	NaN	0.000000	0.001618	0.001772	28.08	0.078033	0.002052	38.0276	-22.6473	-164.518	-0.029355	0.101180	-0.995201	-0.996494	0.010948	38.0276	-0.995417	-1.968165E+13	-5.562622E-16	NaN
497	1.000000	0.112487	7.36991e+06	-52239.1	1005.82	-29749.9	0.000000	0.000000	6.112784	0.103373	NaN	0.000000	0.001583	0.001703	28.0799	0.027754	0.002040	13.6061	26.42	12.344	0.089535	0.111071	-0.985187	-0.986603	0.103373	13.6061	-0.990885	-1.710143E+13	-6.044720E-15	NaN
497	1.000000	0.122479	7.36991e+06	-52239.1	1005.82	-29749.9	0.000000	0.000000	6.122775	0.089610	NaN	0.000000	0.001565	0.001721	28.0798	0.102010	0.001995	51.1286	87.5019	-165.294	0.020168	0.121193	-0.975195	-0.976481	0.089610	51.1286	-0.976510	-1.094929E+13	-8.184098E-15	NaN
497	1.000000	0.132491	7.36991e+06	-52239.1	1005.82	-29749.9	0.000000	0.000000	6.132784	0.026836	NaN	0.000000	0.001606	0.001768	28.0799	0.041856	0.001944	21.5351	15.055	13.1466	0.021327	0.131153	-0.965183	-0.966522	0.026836	21.5351	-0.966118	-7.931221E+12	-3.383632E-15	NaN
497	1.000000	0.142486	7.36991e+06	-52239.1	1005.82	-29749.9	0.000000	0.000000	6.142780	0.041520	NaN	0.000000	0.001677	0.001773	28.0801	0.018669	0.002041	9.145244	123.733	-165.945	0.054653	0.141164	-0.955189	-0.956511	0.041520	9.145244	-0.958594	-6.279285E+12	-6.612270E-15	NaN
497	1.000000	0.152486	7.36991e+06	-52239.1	1005.82	-29749.9	0.000000	0.000000	6.152779	0.015319	NaN	0.000000	0.001673	0.001741	28.0798	0.142529	0.001939	73.4965	153.888	14.5133	0.021395	0.151120	-0.945188	-0.946554	0.015319	73.4965	-0.945345	-4.161368E+12	-3.681304E-15	NaN
497	1.000000	0.162454	7.36991e+06	-52239.1	1005.82	-29749.9	0.000000	0.000000	6.162748	0.041151	NaN	0.000000	0.001634	0.001757	28.0799	0.071316	0.001919	37.1543	102.266	-162.859	-0.007481	0.161160	-0.935220	-0.936514	0.041151	37.1543	-0.936051	-3.117829E+12	-1.319854E-14	NaN
497	1.000000	0.172509	7.36991e+06	-52239.1	1005.82	-29749.9	0.000000	0.000000	6.172801	0.000519	NaN	0.000000	0.001652	0.001711	28.0799	0.059937	0.002022	29.6465	156.391	12.8827	-0.026069	0.171136	-0.925165	-0.926538	0.000519	29.6465	-0.925178	-2.223898E+12	-2.333151E-16	NaN
497	1.000000	0.182502	7.36991e+06	-52239.1	1005.82	-29749.9	0.000000	0.000000	6.182796	0.043528	NaN	0.000000	0.001614	0.001723	28.0799	0.039508	0.002116	18.6725	87.9987	-164.741	0.085919	0.181217	-0.915172	-0.916457	0.043528	18.6725	-0.916920	-1.720374E+12	-2.530176E-14	NaN
497	1.000000	0.192552	7.36991e+06	-52239.1	1005.82	-29749.9	0.000000	0.000000	6.192845	0.025865	NaN	0.000000	0.001623	0.001719	28.0811	0.070019	0.002039	34.3346	155.682	9.575927	0.005542	0.191104	-0.905123	-0.906570	0.025865	34.3346	-0.905688	-1.213140E+12	-2.132108E-14	NaN
497	1.000000	0.202517	7.36991e+06	-52239.1	1005.82	-29749.9	0.000000	0.000000	6.202810	0.010487	NaN	0.000000	0.001637	0.001734	28.0811	0.036190	0.001997	18.1225	71.6778	-169.716	-0.001323	0.201228	-0.895157	-0.896446	0.010487	18.1225	-0.895591	-8.861164E+11	-1.183501E-14	NaN
497	1.000000	0.212530	7.36991e+06	-52239.1	1005.82	-29749.9	0.000000	0.000000	6.212824	0.030387	NaN	0.000000	0.001595	0.001747	28.0814	0.051177	0.002010	25.4639	7.986133	15.2245	0.043887	0.211127	-0.885144	-0.886548	0.030387	25.4639	-0.886039	-6.582128E+11	-4.616545E-14	NaN
497	1.000000	0.222529	7.36991e+06	-52239.1	1005.82	-29749.9	0.000000	0.000000	6.222822	0.003589	NaN	0.000000	0.001611	0.001747	28.0811	0.083603	0.002039	40.9939	140.38	-164.969	-0.039534	0.221196	-0.875145	-0.876479	0.003589	40.9939	-0.875211	-4.698244E+11	-7.639678E-15	NaN
497	1.000000	0.232533	7.36991e+06	-52239.1	1005.82	-29749.9	0.000000	0.000000	6.232828	0.077879	NaN	0.000000	0.001632	0.001766	28.0815	0.033150	0.002010	16.491	7.602282	12.1313	0.008715	0.231161	-0.865141	-0.866513	0.077879	16.491	-0.868683	-3.833788E+11	-2.031384E-13	NaN
497	1.000000	0.242545	7.36991e+06	-52239.1	1005.82	-29749.9	0.000000	0.000000	6.242838	0.028172	NaN	0.000000	0.001647	0.001771	28.0811	0.066422	0.001970	33.7218	36.5383	-167.144	0.058763	0.241232	-0.855129	-0.856443	0.028172	33.7218	-0.855756	-2.562548E+11	-1.099371E-13	NaN
497	1.000000	0.252527	7.36991e+06	-52239.1	1005.82	-29749.9	0.000000	0.000000	6.252818	-0.010618	NaN	0.000000	0.001623	0.001716	28.0816	0.037604	0.002067	18.1934	174.788	14.818	0.012635	0.251215	-0.845148	-0.846459	-0.010618	18.1934	-0.844710	-1.815913E+11	5.847337E-14	NaN
497	1.000000	0.262546	7.36991e+06	-52239.1	1005.82	-29749.9	0.000000	0.000000	6.262842	0.085463	NaN	0.000000	0.001614	0.001705	28.081	0.034271	0.001970	17.4001	-102.001	-167.782	0.050741	0.261220	-0.835128	-0.836454	0.085463	17.4001	-0.838812	-1.510761E+11	-5.656969E-13	NaN
497	1.000000	0.272558	7.36991e+06	-52239.1	1005.82	-29749.9	0.000000	0.000000	6.272851	0.015981	NaN	0.000000	0.001610	0.001705	28.0813	0.063176	0.002036	31.0244	-170.854	13.3892	0.019616	0.271201	-0.825116	-0.826473	0.015981	31.0244	-0.825502	-9.972796E+10	-1.602423E-13	NaN
497	1.000000	0.282547	7.36991e+06	-52239.1	1005.82	-29749.9	0.000000	0.000000	6.282842	0.064419	NaN	0.000000	0.001623	0.001716	28.081	0.048033	0.002012	23.8751	-101.371	-166.291	0.131263	0.281233	-0.815127	-0.816441	0.064419	23.8751	-0.817151	-7.683669E+10	-8.383908E-13	NaN
497	1.000000	0.292571	7.36991e+06	-52239.1	1005.82	-29749.9	0.000000	0.000000	6.292867	0.080019	NaN	0.000000	0.001611	0.001758	28.0813	0.113019	0.001865	60.584	167.595	13.6929	0.092805	0.291199	-0.805103	-0.806475	0.080019	60.584	-0.806093	-5.439575E+10	-1.471051E-12	NaN
497	1.000000	0.302552	7.36991e+06	-52239.1	1005.82	-29749.9	0.000000	0.000000	6.302843	-0.018330	NaN	0.000000	0.001628	0.001734	28.0812	0.095740	0.002052	46.6679	-175.363	-164.122	0.008040	0.301249	-0.795122	-0.796425	-0.018330	46.6679	-0.794828	-3.825117E+10	4.792120E-13	NaN
497	1.000000	0.312576	7.36992e+06	-52239.1	1005.82	-29749.9	0.000000	0.000000	6.312868	0.006129	NaN	0.000000	0.001631	0.001755	28.0814	0.045730	0.002205	20.7415	23.0559	13.0226	0.062847	0.311198	-0.785099	-0.786476	0.006129	20.7415	-0.785320	-2.841305E+10	-2.157134E-13	NaN
497	1.000000	0.322533	7.36992e+06	-52239.1	1005.82	-29749.9	0.000000	0.000000	6.322827	0.052201	NaN	0.000000	0.001689	0.001770	28.0801	0.073240	0.001893	38.6905	-175.943	-165.183	0.074532	0.321250	-0.775141	-0.776424	0.052201	38.6905	-0.776153	-2.132816E+10	-2.447527E-12	NaN
497	1.000000	0.332583	7.36992e+06	-52239.1	1005.82	-29749.9	0.000000	0.000000	6.332877	0.057533	NaN	0.000000	0.001684	0.001740	28.0802	0.101946	0.001997	51.0577	-109.106	17.0048	0.100863	0.331216	-0.765092	-0.766458	0.057533	51.0577	-0.765937	-1.549003E+10	-3.714194E-12	NaN
497	1.000000	0.342576	7.36992e+06	-52239.1	1005.82	-29749.9	0.000000	0.000000	6.342869	0.028173	NaN	0.000000	0.001653	0.001769	28.0798	0.042383	0.001999	21.2015	-84.3988	-163.228	-0.035673	0.341299	-0.755098	-0.756375	0.028173	21.2015	-0.756095	-1.138078E+10	-2.475505E-12	NaN
497	1.000000	0.352608	7.36992e+06	-52239.1	1005.82	-29749.9	0.000000	0.000000	6.352900	0.001212	NaN	0.000000	0.001687	0.001739	28.0799	0.144808	0.001879	77.0562	-138.669	13.2114	-0.025757	0.351202	-0.745066	-0.746472	0.001212	77.0562	-0.745078	-8.057763E+9	-1.503694E-13	NaN
497	1.000000	0.362571	7.36992e+06	-52239.1	1005.82	-29749.9	0.000000	0.000000	6.362863	-0.003207	NaN	0.000000	0.001689	0.001718	28.0803	0.085180	0.002109	40.3887	155.131	-166.491	0.001166	0.361316	-0.735103	-0.736359	-0.003207	40.3887	-0.735044	-5.882197E+9	5.451941E-13	NaN
497	1.000000	0.372597	7.36992e+06	-52239.1	1005.82	-29749.9	0.000000	0.000000	6.372889	0.000569	NaN	0.000000	0.001708	0.001759	28.0799	0.091565	0.002086	43.8978	-3.161794	15.5899	0.056509	0.371216	-0.725078	-0.726458	0.000569	43.8978	-0.725087	-4.303718E+9	-1.323159E-13	NaN
497	1.000000	0.382596	7.36992e+06	-52239.1	1005.82	-29749.9	0.000000	0.000000	6.382891	0.072485	NaN	0.000000	0.001706	0.001728	28.0801	0.071597	0.002106	34.0004	-173.467	-165.621	0.056423	0.381307	-0.715079	-0.716367	0.072485	34.0004	-0.716678	-3.304899E+9	-2.193264E-11	NaN
497	1.000000	0.392596	7.36992e+06	-52239.1	1005.82	-29749.9	0.000000	0.000000	6.392891	0.068663	NaN	0.000000	0.001679	0.001749	28.08	0.012311	0.001912	6.438549	-133.447	11.0271	0.118600	0.391244	-0.705078	-0.706430	0.068663	6.438549	-0.713076	-2.951394E+9	-2.326475E-11	NaN
497	1.000000	0.402600	7.36992e+06	-52239.1	1005.82	-29749.9	0.000000	0.000000	6.402894	0.050945	NaN	0.000000	0.001636	0.001706	28.0802	0.012990	0.002004	6.481184	154.82	-161.209	-0.002739	0.401258	-0.695075	-0.696416	0.050945	6.481184	-0.700970	-2.017335E+9	-2.525349E-11	NaN
497	1.000000	0.412618	7.36992e+06	-52239.1	1005.82	-29749.9	0.000000	0.000000	6.412913	0.077450	NaN	0.000000	0.001632	0.001733	28.0796	0.044405	0.002080	21.3462	-176.866	15.961	-0.049306	0.411242	-0.685056	-0.686432	0.077450	21.3462	-0.687778	-1.332123E+9	-5.813992E-11	NaN
497	1.000000	0.422638	7.36992e+06	-52239.1	1005.82	-29749.9	0.000000	0.000000	6.422931	0.002305	NaN	0.000000	0.001647	0.001725	28.08	0.052179	0.001994	26.1739	-2.247622	-167.906	0.022885	0.421321	-0.675036	-0.676353	0.002305	26.1739	-0.675102	-8.937265E+8	-2.579095E-12	NaN
497	1.000000	0.432630	7.36992e+06	-52239.1	1005.82	-29749.9	0.000000	0.000000	6.432924	0.036438	NaN	0.000000	0.001631	0.001705	28.0802	0.051548	0.001980	26.0301	141.232	17.1768	0.025227	0.431309	-0.665044	-0.666365	0.036438	26.0301	-0.666094	-6.728510E+8	-5.415531E-11	NaN
497	1.000000	0.442589	7.36992e+06	-52239.1	1005.82	-29749.9	0.000000	0.000000	6.442879	-0.077074	NaN	0.000000	0.001635	0.001748	28.08	0.021142	0.001966	10.7546	151.416	-163.568	-0.103302	0.441364	-0.655085	-0.656310	-0.077074	10.7546	-0.649710	-4.012904E+8	1.920655E-10	NaN
497	1.000000	0.452601	7.36992e+06	-52239.1	1005.82	-29749.9	0.000000	0.000000	6.452896	0.066915	NaN	0.000000	0.001668	0.001718	28.0798	0.037494	0.002015	18.6031	113.157	13.7418	0.031942	0.451261	-0.645074	-0.646414	0.066915	18.6031	-0.647771	-3.774700E+8	-1.772726E-10	NaN
497	1.000000	0.462638	7.36992e+06	-52239.1	1005.82	-29749.9	0.000000	0.000000	6.462930	-0.016858	NaN	0.000000	0.001603	0.001744	28.0813	0.088520	0.001996	44.342	-67.4463	-167.84	-0.039839	0.461318	-0.635036	-0.636356	-0.016858	44.342	-0.634751	-2.501812E+8	6.738180E-11	NaN
497	1.000000	0.472620	7.36992e+06	-52239.1	1005.82	-29749.9	0.000000	0.000000	6.472914	0.034107	NaN	0.000000	0.001613	0.001719	28.0814	0.103429	0.002025	51.0805	-104.971	15.7429	-0.032799	0.471244	-0.625054	-0.626430	0.034107	51.0805	-0.625555	-1.870559E+8	-1.823378E-10	NaN
497	1.000000	0.482618	7.36992e+06	-52239.1	1005.82	-29749.9	0.000000	0.000000	6.482910	-0.016781	NaN	0.000000	0.001621	0.001753	28.0814	0.107659	0.001955	55.0667	-163.628	-168.144	-0.024486	0.481296	-0.615056	-0.616378	-0.016781	55.0667	-0.614828	-1.332049E+8	1.259806E-10	NaN
497	1.000000	0.492606	7.36992e+06	-52239.1	1005.82	-29749.9	0.000000	0.000000	6.492901	0.054283	NaN	0.000000	0.001614	0.001731	28.0812	0.055260	0.002024	27.3076	-120.248	16.7657	-0.028169	0.491270	-0.605068	-0.606404	0.054283	27.3076	-0.606559	-1.025084E+8	-5.295496E-10	NaN
497	1.000000	0.502642	7.36992e+06	-52239.1	1005.82	-29749.9	0.000000	0.000000	6.502937	0.060320	NaN	0.000000	0.001602	0.001806	28.0816	0.131332	0.002061	63.714	84.894	-168.912	0.023321	0.501324	-0.595033	-0.596350	0.060320	63.714	-0.595743	-7.274670E+7	-8.291740E-10	NaN
497	1.000000	0.512657	7.36992e+06	-52239.1	1005.82	-29749.9	0.000000	0.000000	6.512951	0.044570	NaN	0.000000	0.001622	0.001745	28.081	0.033210	0.002156	15.4061	17.8729	15.7412	0.043529	0.511231	-0.585017	-0.586443	0.044570	15.4061	-0.587187	-5.544723E+7	-8.038196E-10	NaN
497	1.000000	0.522682	7.36992e+06	-52239.1	1005.82	-29749.9	0.000000	0.000000	6.522975	-0.006139	NaN	0.000000	0.001634	0.001709	28.0814	0.038093	0.001871	20.3548	97.5129	-160.307	-0.064782	0.521308	-0.574992	-0.576366	-0.006139	20.3548	-0.574766	-3.736463E+7	1.643111E-10	NaN
497	1.000000	0.532663	7.36992e+06	-52239.1	1005.82	-29749.9	0.000000	0.000000	6.532960	0.103262	NaN	0.000000	0.001607	0.001747	28.0813	0.051496	0.001944	26.4841	-177.088	10.9023	0.015998	0.531279	-0.565011	-0.566395	0.103262	26.4841	-0.567935	-3.006787E+7	-3.434286E-9	NaN
497	1.000000	0.542654	7.36992e+06	-52239.1	1005.82	-29749.9	0.000000	0.000000	6.542948	0.047205	NaN	0.000000	0.001611	0.001770	28.0823	0.047576	0.001919	24.79	-19.1857	-164.606	0.040826	0.541350	-0.555020	-0.556324	0.047205	24.79	-0.556448	-2.085625E+7	-2.263332E-9	NaN
497	1.000000	0.552678	7.36992e+06	-52239.1	1005.82	-29749.9	0.000000	0.000000	6.552971	0.005378	NaN	0.000000	0.001604	0.001751	28.081	0.023821	0.001853	12.8541	-76.5384	18.2186	0.032834	0.551309	-0.544996	-0.546366	0.005378	12.8541	-0.545310	-1.462093E+7	-3.678518E-10	NaN
497	1.000000	0.562680	7.36992e+06	-52239.1	1005.82	-29749.9	0.000000	0.000000	6.562975	0.062879	NaN	0.000000	0.001641	0.001696	28.0815	0.038789	0.001894	20.4744	119.1	-166.057	-0.053159	0.561333	-0.534994	-0.536341	0.062879	20.4744	-0.537297	-1.132053E+7	-5.554404E-9	NaN
497	1.000000	0.572681	7.36992e+06	-52239.1	1005.82	-29749.9	0.000000	0.000000	6.572972	-0.020909	NaN	0.000000	0.001622	0.001712	28.0812	0.141292	0.002033	69.5015	138.013	15.4837	0.040940	0.571302	-0.524993	-0.526372	-0.020909	69.5015	-0.524768	-7.58373e+06	2.757100E-9	NaN
497	1.000000	0.582643	7.36992e+06	-52239.1	1005.82	-29749.9	0.000000	0.000000	6.582938	0.044705	NaN	0.000000	0.001614	0.001734	28.0814	0.045560	0.001997	22.8196	0.317267	-164.414	0.112141	0.581362	-0.515031	-0.516312	0.044705	22.8196	-0.516500	-5.81981e+06	-7.681466E-9	NaN
497	1.000000	0.592664	7.36992e+06	-52239.1	1005.82	-29749.9	0.000000	0.000000	6.592957	-0.000431	NaN	0.000000	0.001614	0.001744	28.081	0.064488	0.002025	31.8447	177.328	14.6524	-0.050256	0.591294	-0.505010	-0.506380	-0.000431	31.8447	-0.505000	-4.02476e+06	1.072009E-10	NaN
497	1.000000	0.602702	7.36992e+06	-52239.1	1005.82	-29749.9	0.000000	0.000000	6.602995	0.022904	NaN	0.000000	0.001612	0.001722	28.08	0.066593	0.002098	31.7441	-142.637	-166.253	-0.054953	0.601378	-0.494973	-0.496296	0.022904	31.7441	-0.495514	-2.96761e+06	-7.717961E-9	NaN
497	1.000000	0.612672	7.36992e+06	-52239.1	1005.82	-29749.9	0.000000	0.000000	6.612964	-0.017404	NaN	0.000000	0.001613	0.001712	28.08	0.082690	0.002009	41.1574	-18.0223	15.0687	-0.004754	0.611276	-0.485002	-0.486398	-0.017404	41.1574	-0.484685	-2.09453e+06	8.309460E-9	NaN
497	1.000000	0.622718	7.36992e+06	-52239.1	1005.82	-29749.9	0.000000	0.000000	6.623011	0.011327	NaN	0.000000	0.001610	0.001701	28.08	0.006169	0.002026	3.044662	65.9969	-167.603	0.056251	0.621366	-0.474956	-0.476309	0.011327	3.044662	-0.477746	-1.67483e+06	-6.763189E-9	NaN
497	1.000000	0.632705	7.36992e+06	-52239.1	1005.82	-29749.9	0.000000	0.000000	6.632998	0.027091	NaN	0.000000	0.001649	0.001704	28.0798	0.032282	0.001957	16.4921	9.091672	14.4298	0.033280	0.631362	-0.464969	-0.466313	0.027091	16.4921	-0.466201	-1.15375e+06	-2.348050E-8	NaN
497	1.000000	0.642674	7.36992e+06	-52239.1	1005.82	-29749.9	0.000000	0.000000	6.642967	0.004840	NaN	0.000000	0.001609	0.001710	28.08	0.062934	0.001838	34.2416	123.354	-164.872	-0.068077	0.641399	-0.455000	-0.456275	0.004840	34.2416	-0.455106	-805761	-6.006817E-9	NaN
497	1.000000	0.652706	7.36992e+06	-52239.1	1005.82	-29749.9	0.000000	0.000000	6.652998	-0.022778	NaN	0.000000	0.001613	0.001708	28.0804	0.044901	0.002014	22.2903	64.3039	10.605	-0.020009	0.651376	-0.444968	-0.446298	-0.022778	22.2903	-0.444201	-565760	4.026112E-8	NaN
497	1.000000	0.662720	7.36992e+06	-52239.1	1005.82	-29749.9	0.000000	0.000000	6.663014	0.038383	NaN	0.000000	0.001605	0.001704	28.0801	0.042412	0.002049	20.6938	102.759	-167.31	0.101703	0.661389	-0.434954	-0.436286	0.038383	20.6938	-0.436345	-438284	-8.757573E-8	NaN
497	1.000000	0.672718	7.36992e+06	-52239.1	1005.82	-29749.9	0.000000	0.000000	6.673011	0.004585	NaN	0.000000	0.001644	0.001729	28.0804	0.087098	0.001914	45.5042	-99.2396	15.498	-0.089961	0.671371	-0.424956	-0.426303	0.004585	45.5042	-0.425032	-303202	-1.512249E-8	NaN
497	1.000000	0.682708	7.36992e+06	-52239.1	1005.82	-29749.9	0.000000	0.000000	6.682999	-0.028601	NaN	0.000000	0.001603	0.001707	28.0803	0.104937	0.001970	53.2744	-50.442	-164.181	-0.025240	0.681379	-0.414966	-0.416295	-0.028601	53.2744	-0.414564	-215406	1.327763E-7	NaN
497	1.000000	0.692725	7.36992e+06	-52239.1	1005.82	-29749.9	0.000000	0.000000	6.693020	0.048634	NaN	0.000000	0.001661	0.001692	28.0802	0.126216	0.002001	63.0772	18.2992	14.8618	0.030167	0.691378	-0.404949	-0.406296	0.048634	63.0772	-0.405527	-160233	-3.035197E-7	NaN
497	1.000000	0.702724	7.36992e+06	-52239.1	1005.82	-29749.9	0.000000	0.000000	6.703018	0.026439	NaN	0.000000	0.001605	0.001703	28.08	0.030126	0.001990	15.1364	-144.224	-166.149	-0.071324	0.701407	-0.394950	-0.396267	0.026439	15.1364	-0.396260	-118203	-2.236733E-7	NaN
497	1.000000	0.712753	7.36992e+06	-52239.1	1005.82	-29749.9	0.000000	0.000000	6.713046	0.007056	NaN	0.000000	0.001626	0.001708	28.0803	0.064128	0.002036	31.5039	-86.0198	14.0768	-0.049845	0.711348	-0.384921	-0.386326	0.007056	31.5039	-0.385089	-81820.1	-8.623798E-8	NaN
497	1.000000	0.722727	7.36992e+06	-52239.1	1005.82	-29749.9	0.000000	0.000000	6.723019	-0.021139	NaN	0.000000	0.001639	0.001721	28.0802	0.011035	0.001997	5.525392	-105.802	-164.015	0.041830	0.721417	-0.374947	-0.376257	-0.021139	5.525392	-0.372077	-53215.1	3.972393E-7	NaN
497	1.000000	0.732727	7.36992e+06	-52239.1	1005.82	-29749.9	0.000000	0.000000	6.733024	0.102988	NaN	0.000000	0.001650	0.001726	28.0812	0.021716	0.002009	10.8067	-5.055823	13.5495	0.105131	0.731381	-0.364947	-0.366293	0.102988	10.8067	-0.372094	-53244.9	-1.934227E-6	NaN
497	1.000000	0.742767	7.36992e+06	-52239.1	1005.82	-29749.9	0.000000	0.000000	6.743062	0.074848	NaN	0.000000	0.001654	0.001752	28.0813	0.111463	0.002003	55.6546	85.1319	-163.52	0.071063	0.741470	-0.354907	-0.356205	0.074848	55.6546	-0.355916	-31100	-2.406701E-6	NaN
497	1.000000	0.752750	7.36992e+06	-52239.1	1005.82	-29749.9	0.000000	0.000000	6.753046	0.079260	NaN	0.000000	0.001640	0.001764	28.0815	0.043310	0.001982	21.8535	-118.77	14.2323	-0.014039	0.751414	-0.344924	-0.346260	0.079260	21.8535	-0.347644	-23593.6	-3.359385E-6	NaN
497	1.000000	0.762747	7.36992e+06	-52239.1	1005.82	-29749.9	0.000000	0.000000	6.763042	0.052692	NaN	0.000000	0.001623	0.001731	28.0814	0.111782	0.002080	53.7398	-153.329	-166.547	0.036372	0.761411	-0.334927	-0.336263	0.052692	53.7398	-0.335662	-15785.7	-3.337985E-6	NaN
497	1.000000	0.772756	7.36992e+06	-52239.1	1005.82	-29749.9	0.000000	0.000000	6.773051	0.074656	NaN	0.000000	0.001635	0.001737	28.0813	0.008341	0.002038	4.093239	134.415	12.2579	0.094247	0.771406	-0.324918	-0.326268	0.074656	4.093239	-0.338598	-17422.3	-4.285090E-6	NaN
497	1.000000	0.782762	7.36992e+06	-52239.1	1005.82	-29749.9	0.000000	0.000000	6.783056	0.054686	NaN	0.000000	0.001648	0.001740	28.0813	0.015522	0.002001	7.757871	40.719	-165.981	-0.000230	0.781503	-0.314912	-0.316171	0.054686	7.757871	-0.320199	-9366.35	-5.838551E-6	NaN
497	1.000000	0.792766	7.36992e+06	-52239.1	1005.82	-29749.9	0.000000	0.000000	6.793060	0.040767	NaN	0.000000	0.001628	0.001713	28.0817	0.010998	0.001944	5.656787	-175.262	18.2724	0.017196	0.791432	-0.304908	-0.306242	0.040767	5.656787	-0.310313	-6694.08	-6.089955E-6	NaN
497	1.000000	0.802777	7.36992e+06	-52239.1	1005.82	-29749.9	0.000000	0.000000	6.803069	-0.001911	NaN	0.000000	0.001637	0.001728	28.0815	0.051787	0.002116	24.4779	175.975	-164.642	-0.007440	0.801475	-0.294898	-0.296199	-0.001911	24.4779	-0.294839	-3941.72	4.847988E-7	NaN
497	1.000000	0.812789	7.36992e+06	-52239.1	1005.82	-29749.9	0.000000	0.000000	6.813081	0.001685	NaN	0.000000	0.001610	0.001692	28.0814	0.089078	0.002076	42.9115	25.4076	13.1865	-0.004685	0.811381	-0.284885	-0.286293	0.001685	42.9115	-0.284915	-2798.88	-6.021169E-7	NaN
497	1.000000	0.822801	7.36992e+06	-52239.1	1005.82	-29749.9	0.000000	0.000000	6.823097	0.073195	NaN	0.000000	0.001657	0.001718	28.0812	0.084406	0.002005	42.0978	-104.914	-164.005	0.055123	0.821436	-0.274873	-0.276238	0.073195	42.0978	-0.276177	-2066.38	-3.542153E-5	NaN
497	1.000000	0.832786	7.36992e+06	-52239.1	1005.82	-29749.9	0.000000	0.000000	6.833082	0.095184	NaN	0.000000	0.001643	0.001697	28.0817	0.062805	0.002029	30.9558	127.02	15.8332	0.104314	0.831405	-0.264888	-0.266270	0.095184	30.9558	-0.267194	-1509.56	-6.305397E-5	NaN
497	1.000000	0.842775	7.36992e+06	-52239.1	1005.82	-29749.9	0.000000	0.000000	6.843068	0.015703	NaN	0.000000	0.001631	0.001715	28.0813	0.037104	0.001943	19.0927	-1.866106	-167.976	0.003296	0.841493	-0.254900	-0.256181	0.015703	19.0927	-0.255516	-1000.15	-1.570024E-5	NaN
497	1.000000	0.852783	7.36992e+06	-52239.1	1005.82	-29749.9	0.000000	0.000000	6.853076	0.019794	NaN	0.000000	0.001647	0.001722	28.0814	0.076102	0.001895	40.1645	99.1026	16.517	0.026873	0.851458	-0.244892	-0.246216	0.019794	40.1645	-0.245261	-694.245	-2.851176E-5	NaN
497	1.000000	0.862776	7.36992e+06	-52239.1	1005.82	-29749.9	0.000000	0.000000	6.863069	0.025769	NaN	0.000000	0.001633	0.001714	28.0813	0.124214	0.001961	63.3472	-30.7734	-169.248	0.093259	0.861492	-0.234898	-0.236182	0.025769	63.3472	-0.235204	-483.554	-5.329072E-5	NaN
497	1.000000	0.872802	7.36992e+06	-52239.1	1005.82	-29749.9	0.000000	0.000000	6.873095	0.009043	NaN	0.000000	0.001629	0.001727	28.0804	0.035966	0.001964	18.3146	106.642	13.6762	-0.008701	0.871472	-0.224872	-0.226202	0.009043	18.3146	-0.225242	-336.652	-2.686097E-5	NaN
497	1.000000	0.882791	7.36992e+06	-52239.1	1005.82	-29749.9	0.000000	0.000000	6.883087	0.069742	NaN	0.000000	0.001643	0.001736	28.08	0.045266	0.001986	22.7957	145.455	-166.175	0.082139	0.881447	-0.214883	-0.216227	0.069742	22.7957	-0.217178	-250.316	-0.000279	NaN
497	1.000000	0.892797	7.36992e+06	-52239.1	1005.82	-29749.9	0.000000	0.000000	6.893090	0.009902	NaN	0.000000	0.001657	0.001753	28.0804	0.008409	0.001997	4.210117	-36.8084	14.0121	0.053207	0.891466	-0.204877	-0.206208	0.009902	4.210117	-0.206641	-169.16	-5.853641E-5	NaN
497	1.000000	0.902801	7.36992e+06	-52239.1	1005.82	-29749.9	0.000000	0.000000	6.903098	0.104966	NaN	0.000000	0.001656	0.001735	28.0801	0.048175	0.001988	24.2311	-89.0386	-164.576	0.070343	0.901529	-0.194873	-0.196145	0.104966	24.2311	-0.198122	-122.685	-0.000856	NaN
497	1.000000	0.912802	7.36992e+06	-52239.1	1005.82	-29749.9	0.000000	0.000000	6.913094	-0.013974	NaN	0.000000	0.001638	0.001738	28.0804	0.041900	0.001975	21.2156	63.8307	16.01	0.041934	0.911456	-0.184872	-0.186218	-0.013974	21.2156	-0.184378	-72.3854	0.000193	NaN
497	1.000000	0.922828	7.36992e+06	-52239.1	1005.82	-29749.9	0.000000	0.000000	6.923118	-0.044012	NaN	0.000000	0.001663	0.001758	28.0801	0.062891	0.002044	30.7723	-12.3147	-164.477	-0.062185	0.921504	-0.174846	-0.176170	-0.044012	30.7723	-0.173774	-47.7398	0.000922	NaN
497	1.000000	0.932803	7.36992e+06	-52239.1	1005.82	-29749.9	0.000000	0.000000	6.933097	0.041192	NaN	0.000000	0.001625	0.001759	28.0803	0.065886	0.002009	32.7924	-57.2214	16.4827	0.055619	0.931487	-0.164871	-0.166187	0.041192	32.7924	-0.165813	-34.7192	-0.001186	NaN
497	1.000000	0.942821	7.36992e+06	-52239.1	1005.82	-29749.9	0.000000	0.000000	6.943116	0.055730	NaN	0.000000	0.001630	0.001724	28.0804	0.028644	0.001918	14.9327	4.010918	-166.839	0.115395	0.941555	-0.154853	-0.156119	0.055730	14.9327	-0.157652	-24.8968	-0.002238	NaN
497	1.000000	0.952811	7.36992e+06	-52239.1	1005.82	-29749.9	0.000000	0.000000	6.953104	0.011757	NaN	0.000000	0.001687	0.001737	28.0802	0.042509	0.001886	22.5412	-38.5275	14.7005	-0.048586	0.951479	-0.144863	-0.146196	0.011757	22.5412	-0.145254	-14.8206	-0.000793	NaN
497	1.000000	0.962833	7.36992e+06	-52239.1	1005.82	-29749.9	0.000000	0.000000	6.963127	0.036569	NaN	0.000000	0.001726	0.001759	28.0801	0.028928	0.001854	15.6023	1.097963	-166.252	0.080117	0.961530	-0.134841	-0.136144	0.036569	15.6023	-0.136599	-10.2033	-0.003584	NaN
497	1.000000	0.972836	7.36992e+06	-52239.1	1005.82	-29749.9	0.000000	0.000000	6.973131	0.066979	NaN	0.000000	0.001680	0.001757	28.0802	0.053383	0.001963	27.1895	-88.9829	11.4777	0.007726	0.971478	-0.124838	-0.126196	0.066979	27.1895	-0.126686	-6.565094	-0.010202	NaN
497	1.000000	0.982858	7.36992e+06	-52239.1	1005.82	-29749.9	0.000000	0.000000	6.983151	0.011258	NaN	0.000000	0.001698	0.001753	28.0804	0.114781	0.001904	60.2715	83.9166	-166.793	-0.010574	0.981489	-0.114816	-0.116185	0.011258	60.2715	-0.114956	-3.812454	-0.002953	NaN
497	1.000000	0.992838	7.36992e+06	-52239.1	1005.82	-29749.9	0.000000	0.000000	6.993131	0.018662	NaN	0.000000	0.001742	0.001741	28.0799	0.040580	0.002021	20.075	-96.3126	14.2696	0.117389	0.991479	-0.104836	-0.106195	0.018662	20.075	-0.105534	-2.413707	-0.007732	NaN
497	1.000000	1.002862	7.36992e+06	-52239.1	1005.82	-29749.9	0.000000	0.000000	7.003153	-0.041450	NaN	0.000000	0.001709	0.001702	28.0801	0.031182	0.002012	15.5015	144.173	-163.356	-0.037895	1.001604	-0.094812	-0.096070	-0.041450	15.5015	-0.092806	-1.256364	0.032992	NaN
497	1.000000	1.012874	7.36992e+06	-52239.1	1005.82	-29749.9	0.000000	0.000000	7.013166	-0.013228	NaN	0.000000	0.001686	0.001729	28.0813	0.074072	0.002113	35.0594	-148.306	15.4785	-0.055454	1.011474	-0.084800	-0.086200	-0.013228	35.0594	-0.084517	-0.799774	0.016540	NaN
497	1.000000	1.022850	7.36992e+06	-52239.1	1005.82	-29749.9	0.000000	0.000000	7.023144	0.042114	NaN	0.000000	0.001722	0.001747	28.0814	0.048293	0.001963	24.605	-85.02	-166.294	0.021197	1.021567	-0.074825	-0.076107	0.042114	24.605	-0.076108	-0.493269	-0.085377	NaN
497	1.000000	1.032867	7.36992e+06	-52239.1	1005.82	-29749.9	0.000000	0.000000	7.033159	-0.004136	NaN	0.000000	0.001630	0.001736	28.0812	0.067594	0.002113	31.9954	-167.142	15.6133	0.072845	1.031525	-0.064807	-0.066149	-0.004136	31.9954	-0.064710	-0.244639	0.016907	NaN
497	1.000000	1.042873	7.36992e+06	-52239.1	1005.82	-29749.9	0.000000	0.000000	7.043166	0.027981	NaN	0.000000	0.001691	0.001723	28.0815	0.059067	0.001891	31.2293	-31.7985	-166.273	-0.014773	1.041544	-0.054802	-0.056131	0.027981	31.2293	-0.055474	-0.132991	-0.210400	NaN
497	1.000000	1.052882	7.36992e+06	-52239.1	1005.82	-29749.9	0.000000	0.000000	7.053175	0.012539	NaN	0.000000	0.001645	0.001748	28.0813	0.065566	0.001947	33.6699	-81.3777	15.4172	-0.042118	1.051466	-0.044793	-0.046208	0.012539	33.6699	-0.045072	-0.064594	-0.194116	NaN
497	1.000000	1.062872	7.36992e+06	-52239.1	1005.82	-29749.9	0.000000	0.000000	7.063166	0.024909	NaN	0.000000	0.001664	0.001703	28.0813	0.087271	0.001935	45.0909	159.299	-163.643	0.073331	1.061596	-0.034802	-0.036078	0.024909	45.0909	-0.035216	-0.032498	-0.766487	NaN
497	1.000000	1.072891	7.36992e+06	-52239.1	1005.82	-29749.9	0.000000	0.000000	7.073184	0.022583	NaN	0.000000	0.001669	0.001703	28.0813	0.023128	0.001989	11.6291	-95.2715	14.9188	0.038635	1.071522	-0.024784	-0.026152	0.022583	11.6291	-0.026240	-0.018187	-1.241739	NaN
497	1.000000	1.082881	7.36992e+06	-52239.1	1005.82	-29749.9	0.000000	0.000000	7.083175	0.042566	NaN	0.000000	0.001648	0.001714	28.0812	0.080544	0.001944	41.4374	-41.1862	-163.869	0.151602	1.081557	-0.014793	-0.016117	0.042566	41.4374	-0.015564	-0.009616	-4.426714	NaN
497	1.000000	1.092864	7.36992e+06	-52239.1	1005.82	-29749.9	0.000000	0.000000	7.093160	0.090045	NaN	0.000000	0.001663	0.001742	28.0813	0.068779	0.001967	34.9672	179.692	13.6752	0.056232	1.091506	-0.004811	-0.006168	0.090045	34.9672	-0.006742	-0.004486	-20.073	NaN
497	1.000000	1.102778	7.36992e+06	-52239.1	1005.82	-29749.9	0.000000	0.000000	7.103362	7.088361	NaN	0.000000	0.001666	0.001716	28.0811	7.432556	0.001682	4417.58	13.0026	-174.276	5.866908	1.101503	0.005104	0.003829	7.088361	4417.58	0.003901	0.003152	2248.85	71889.5
497	2.000000	1.106032	7.36992e+06	-52239.1	1005.82	-29749.9	0.000000	0.000000	7.106709	9.357815	NaN	0.000000	0.001659	0.001732	28.0811	10.4472	0.001680	6218.52	7.608611	7.473517	9.404516	1.105683	0.008358	0.008009	9.357815	6218.52	0.007229	0.006262	1494.48	71798.8
497	2.000000	1.108481	7.36992e+06	-52239.1	1005.82	-29749.9	0.000000	0.000000	7.109341	13.8077	NaN	0.000000	0.001632	0.001733	28.0815	13.6741	0.001808	7563.2	9.684013	-174.504	13.5188	1.108207	0.010806	0.010533	13.8077	7563.2	0.009437	0.008563	1612.54	74674.8
497	2.000000	1.110983	7.36992e+06	-52239.1	1005.82	-29749.9	0.000000	0.000000	7.112013	17.9373	NaN	0.000000	0.001641	0.001743	28.0811	15.7671	0.001678	9397.53	7.523869	6.213085	17.1329	1.110599	0.013309	0.012925	17.9373	9397.53	0.011877	0.011343	1581.34	80616
497	2.000000	1.113435	7.36992e+06	-52239.1	1005.82	-29749.9	0.000000	0.000000	7.114643	22.2513	NaN	0.000000	0.001625	0.001735	28.0801	19.1141	0.001771	10790	10.0814	-179.532	21.0543	1.113105	0.015761	0.015430	22.2513	10790	0.014214	0.014252	1561.29	82577
497	2.000000	1.115929	7.36992e+06	-52239.1	1005.82	-29749.9	0.000000	0.000000	7.117305	26.3436	NaN	0.000000	0.001636	0.001755	28.0799	20.7746	0.001725	12042.4	5.579769	4.632213	24.6188	1.115621	0.018255	0.017947	26.3436	12042.4	0.016614	0.017499	1505.45	83173.1
497	2.000000	1.118511	7.36992e+06	-52239.1	1005.82	-29749.9	0.000000	0.000000	7.120060	30.5768	NaN	0.000000	0.001612	0.001739	28.0808	24.0147	0.001760	13644.8	7.165576	-179.667	32.0232	1.118127	0.020836	0.020453	30.5768	13644.8	0.019156	0.021233	1440.07	85553.3
497	2.000000	1.120999	7.36992e+06	-52239.1	1005.82	-29749.9	0.000000	0.000000	7.122821	37.2125	NaN	0.000000	0.001604	0.001740	28.0799	26.6208	0.001800	14788.6	7.768621	0.250843	36.558	1.120571	0.023324	0.022896	37.2125	14788.6	0.021437	0.024851	1497.41	85709.1
497	2.000000	1.123418	7.36992e+06	-52239.1	1005.82	-29749.9	0.000000	0.000000	7.125403	41.1481	NaN	0.000000	0.001610	0.001735	28.08	28.2613	0.001725	16383.9	4.877026	-178.995	40.5181	1.123164	0.025744	0.025489	41.1481	16383.9	0.023860	0.028975	1420.12	87938.3
497	2.000000	1.125901	7.36992e+06	-52239.1	1005.82	-29749.9	0.000000	0.000000	7.128255	50.1193	NaN	0.000000	0.001649	0.001730	28.0798	31.6159	0.001817	17402.2	5.220146	0.167148	48.4187	1.125544	0.028227	0.027870	50.1193	17402.2	0.026067	0.032985	1519.45	87542.6
497	2.000000	1.128404	7.36992e+06	-52239.1	1005.82	-29749.9	0.000000	0.000000	7.130845	52.2459	NaN	0.000000	0.001670	0.001713	28.0802	34.7291	0.001956	17752.3	4.438750	-178.458	52.8768	1.128157	0.030730	0.030483	52.2459	17752.3	0.028522	0.037737	1384.48	83492.2
497	2.000000	1.130932	7.36992e+06	-52239.1	1005.82	-29749.9	0.000000	0.000000	7.133727	60.8501	NaN	0.000000	0.001671	0.001723	28.0798	36.0877	0.001805	19991.2	3.749812	0.971733	58.8161	1.130588	0.033258	0.032914	60.8501	19991.2	0.030975	0.042789	1422.11	88297.5
497	2.000000	1.133436	7.36992e+06	-52239.1	1005.82	-29749.9	0.000000	0.000000	7.136556	68.7643	NaN	0.000000	0.001660	0.001705	28.08	38.2359	0.001788	21383.2	3.064666	-179.103	68.1963	1.133162	0.035762	0.035488	68.7643	21383.2	0.033350	0.047974	1433.38	89196
497	2.000000	1.135864	7.36992e+06	-52239.1	1005.82	-29749.9	0.000000	0.000000	7.139374	78.2383	NaN	0.000000	0.001727	0.001729	28.0801	41.1061	0.001737	23658.9	7.006820	-4.733694	75.0322	1.135525	0.038190	0.037851	78.2383	23658.9	0.035709	0.053411	1464.84	93530.4
497	2.000000	1.138379	7.36992e+06	-52239.1	1005.82	-29749.9	0.000000	0.000000	7.142400	90.6683	NaN	0.000000	0.001721	0.001729	28.0802	44.4571	0.002003	22197.7	6.254636	178.196	90.4948	1.138041	0.040705	0.040366	90.6683	22197.7	0.037641	0.058075	1561.22	84156.2
497	2.000000	1.140881	7.36992e+06	-52239.1	1005.82	-29749.9	0.000000	0.000000	7.145225	98.5077	NaN	0.000000	0.001718	0.001745	28.0799	45.7748	0.001790	25572.1	4.816129	-2.076468	95.8656	1.140469	0.043207	0.042795	98.5077	25572.1	0.040318	0.064852	1518.96	91744.2
497	2.000000	1.143359	7.36992e+06	-52239.1	1005.82	-29749.9	0.000000	0.000000	7.148057	107.117	NaN	0.000000	0.001674	0.001757	28.0801	47.3986	0.001798	26368.5	3.633148	178.151	105.175	1.143117	0.045685	0.045443	107.117	26368.5	0.042638	0.071024	1508.18	90397.6
497	2.000000	1.145874	7.36992e+06	-52239.1	1005.82	-29749.9	0.000000	0.000000	7.150918	115.524	NaN	0.000000	0.001663	0.001758	28.08	49.6377	0.001797	27625.2	1.059699	1.114972	113.703	1.145521	0.048200	0.047847	115.524	27625.2	0.045063	0.077767	1485.51	90506.7
497	2.000000	1.148417	7.36992e+06	-52239.1	1005.82	-29749.9	0.000000	0.000000	7.153928	126.893	NaN	0.000000	0.001649	0.001732	28.0813	52.6337	0.001777	29616.3	2.814035	178.288	127.279	1.148089	0.050742	0.050414	126.893	29616.3	0.047529	0.084928	1494.12	92849.2
497	2.000000	1.150897	7.36992e+06	-52239.1	1005.82	-29749.9	0.000000	0.000000	7.156797	136.34	NaN	0.000000	0.001616	0.001722	28.0811	54.112	0.001758	30777.8	0.436752	0.114280	133.278	1.150592	0.053223	0.052918	136.34	30777.8	0.049901	0.092106	1480.24	92654.3
497	2.000000	1.153394	7.36992e+06	-52239.1	1005.82	-29749.9	0.000000	0.000000	7.159850	149.864	NaN	0.000000	0.001618	0.001733	28.0812	56.7594	0.001766	32136.9	4.810702	175.734	149.823	1.153040	0.055720	0.055366	149.864	32136.9	0.052223	0.099407	1507.58	93125.4
497	2.000000	1.156014	7.36992e+06	-52239.1	1005.82	-29749.9	0.000000	0.000000	7.162877	159.765	NaN	0.000000	0.001661	0.001721	28.0814	59.4256	0.001805	32924.5	4.789885	-4.214502	164.92	1.155620	0.058340	0.057946	159.765	32924.5	0.054701	0.107495	1486.25	91748.5
497	2.000000	1.158350	7.36992e+06	-52239.1	1005.82	-29749.9	0.000000	0.000000	7.165847	175.173	NaN	0.000000	0.001620	0.001718	28.0811	61.168	0.001728	35391.2	1.029417	178.703	172.711	1.158011	0.060676	0.060337	175.173	35391.2	0.056964	0.115146	1521.31	95289.3
497	2.000000	1.160879	7.36992e+06	-52239.1	1005.82	-29749.9	0.000000	0.000000	7.168992	190.15	NaN	0.000000	0.001659	0.001688	28.081	64.2458	0.001607	39972.8	6.987142	-7.676821	187.086	1.160397	0.063205	0.062723	190.15	39972.8	0.059637	0.124509	1527.19	103499
497	2.000000	1.163319	7.36992e+06	-52239.1	1005.82	-29749.9	0.000000	0.000000	7.171956	202.903	NaN	0.000000	0.001656	0.001711	28.0811	67.5283	0.001895	35642.1	8.172851	171.692	199.723	1.163021	0.065645	0.065347	202.903	35642.1	0.061375	0.130785	1551.42	90044.3
497	2.000000	1.165826	7.36992e+06	-52239.1	1005.82	-29749.9	0.000000	0.000000	7.174954	214.835	NaN	0.000000	0.001634	0.001734	28.0813	70.5325	0.001862	37886.5	9.062013	-9.587159	211.79	1.165590	0.068152	0.067916	214.835	37886.5	0.063899	0.140160	1532.78	92458.3
497	2.000000	1.168301	7.36992e+06	-52239.1	1005.82	-29749.9	0.000000	0.000000	7.178326	236.648	NaN	0.000000	0.001628	0.001759	28.0812	71.7142	0.001685	42566.4	2.847703	175.874	234.036	1.167961	0.070627	0.070287	236.648	42566.4	0.066457	0.149977	1577.9	100422
497	2.000000	1.170919	7.36992e+06	-52239.1	1005.82	-29749.9	0.000000	0.000000	7.181385	247.373	NaN	0.000000	0.001645	0.001733	28.0809	74.1232	0.001765	42002.7	5.214190	-6.730224	246.727	1.170518	0.073244	0.072844	247.373	42002.7	0.068827	0.159351	1552.38	96133.3
497	2.000000	1.173360	7.36992e+06	-52239.1	1005.82	-29749.9	0.000000	0.000000	7.184340	259.874	NaN	0.000000	0.001629	0.001696	28.0812	76.1518	0.001724	44162.2	5.389926	172.794	257.52	1.173067	0.075686	0.075392	259.874	44162.2	0.071272	0.169302	1534.97	98060.3
497	2.000000	1.175786	7.36992e+06	-52239.1	1005.82	-29749.9	0.000000	0.000000	7.187673	281.924	NaN	0.000000	0.001582	0.001736	28.081	79.8198	0.001919	41595.1	4.726547	-5.385089	278.085	1.175358	0.078112	0.077684	281.924	41595.1	0.073029	0.176626	1596.17	90425
497	2.000000	1.178453	7.36992e+06	-52239.1	1005.82	-29749.9	0.000000	0.000000	7.190689	290.414	NaN	0.000000	0.001604	0.001704	28.081	81.702	0.001809	45153.8	4.280134	174.125	294.08	1.178055	0.080779	0.080381	290.414	45153.8	0.075955	0.189153	1535.33	94855
497	2.000000	1.180936	7.36992e+06	-52239.1	1005.82	-29749.9	0.000000	0.000000	7.193484	297.988	NaN	0.000000	0.001631	0.001684	28.0807	83.0757	0.001766	47029.4	1.172825	-3.573999	299.511	1.180683	0.083262	0.083009	297.988	47029.4	0.078510	0.200416	1486.84	95979.1
497	2.000000	1.183372	7.36992e+06	-52239.1	1005.82	-29749.9	0.000000	0.000000	7.197009	324.467	NaN	0.000000	0.001631	0.001708	28.08	85.508	0.001767	48384.4	4.867125	172.568	325.156	1.183076	0.085698	0.085402	324.467	48384.4	0.080669	0.210173	1543.81	96425.1
497	2.000000	1.185819	7.36992e+06	-52239.1	1005.82	-29749.9	0.000000	0.000000	7.200067	339.328	NaN	0.000000	0.001626	0.001745	28.0796	88.0666	0.001757	50133.1	5.285103	-8.438709	335.497	1.185539	0.088145	0.087864	339.328	50133.1	0.083068	0.221273	1533.53	97371.9
497	2.000000	1.188341	7.36992e+06	-52239.1	1005.82	-29749.9	0.000000	0.000000	7.203266	355.787	NaN	0.000000	0.001666	0.001714	28.0797	90.8001	0.001770	51291.4	2.233172	174.557	352.739	1.188038	0.090667	0.090364	355.787	51291.4	0.085464	0.232622	1529.47	97161.1
497	2.000000	1.190769	7.36992e+06	-52239.1	1005.82	-29749.9	0.000000	0.000000	7.206734	381.076	NaN	0.000000	0.001647	0.001747	28.0809	92.4198	0.001797	51417.5	5.383347	-8.160058	372.213	1.190447	0.093095	0.092773	381.076	51417.5	0.087536	0.242648	1570.49	95366.5
497	2.000000	1.193301	7.36992e+06	-52239.1	1005.82	-29749.9	0.000000	0.000000	7.209927	397.14	NaN	0.000000	0.001594	0.001744	28.08	96.3404	0.001829	52685.3	8.868845	168.793	393.569	1.193000	0.095627	0.095326	397.14	52685.3	0.089973	0.254696	1559.27	95378.7
497	2.000000	1.195912	7.36992e+06	-52239.1	1005.82	-29749.9	0.000000	0.000000	7.213191	413.022	NaN	0.000000	0.001604	0.001758	28.08	97.6354	0.001811	53911.3	8.467002	-11.1244	416.484	1.195393	0.098238	0.097719	413.022	53911.3	0.092492	0.267435	1544.39	95245.5
497	2.000000	1.198303	7.36992e+06	-52239.1	1005.82	-29749.9	0.000000	0.000000	7.216198	428.021	NaN	0.000000	0.001640	0.001696	28.0798	100.464	0.001840	54607.5	5.023742	171.792	425.328	1.198095	0.100629	0.100421	428.021	54607.5	0.094750	0.279098	1533.59	94438
497	2.000000	1.200853	7.36992e+06	-52239.1	1005.82	-29749.9	0.000000	0.000000	7.219411	444.125	NaN	0.000000	0.001637	0.001719	28.0802	101.163	0.001768	57203.1	3.885630	-6.912780	441.679	1.200423	0.103179	0.102749	444.125	57203.1	0.097356	0.292848	1516.57	96576.5
497	2.000000	1.202285	7.36992e+06	-52239.1	1005.82	-29749.9	0.000000	0.000000	7.221342	456.259	NaN	0.000000	0.001628	0.001706	28.0797	103.505	0.001812	57110.1	5.106808	171.333	454.818	1.202018	0.104611	0.104343	456.259	57110.1	0.098619	0.299628	1522.75	95322.4