File: remote_trans/data/nanoindenter/0828-1/data/Data_2025-08-06,11h17m57s/2025-07-22_16-23-58_1_577.txt
2025-07-22, 16:23:58, 1
Index	Phase	Displacement	Time	Pos X	Pos Y	Pos Z	Rot A	Rot B	Piezo Z	Force A	Force B	Gripper	Voltage A	Voltage B	Temperature	Amplitude force	Amplitude pos	Stiffness	Phase shift	Phase excitation	Force A raw	Displacement raw	HMax	HMax raw	Real Force	Real Stiffness	Contact Depth	Area	Hardness	Reduced Mod.
[#]	[#]	[um]	[s]	[um]	[um]	[um]	[m°]	[m°]	[um]	[uN]	[uN]	[V]	[V]	[V]	[°C]	[uN]	[um]	[N/m]	[°]	[°]	[uN]	[um]	[um]	[um]	[uN]	[N/m]	[um]	[um^2]	[MPa]	[MPa]
577	1.000000	0.002700	7.37069e+06	-48239.1	1005.82	-29763.1	0.000000	0.000000	6.002779	-0.030162	NaN	0.000000	0.001600	0.001721	28.0807	0.116005	0.000986	117.624	-15.822	-161.301	-0.028676	0.001431	-1.150406	-1.151675	-0.030162	117.624	-1.150214	-2.364201E+15	1.275792E-17	NaN
577	1.000000	0.012775	7.37069e+06	-48239.1	1005.82	-29763.1	0.000000	0.000000	6.012855	-0.002198	NaN	0.000000	0.001614	0.001692	28.0818	0.105206	0.001282	82.0859	35.5512	21.1344	0.008748	0.011304	-1.140331	-1.141802	-0.002198	82.0859	-1.140311	-1.741450E+15	1.262123E-18	NaN
577	1.000000	0.022701	7.37069e+06	-48239.1	1005.82	-29763.1	0.000000	0.000000	6.022782	0.006536	NaN	0.000000	0.001610	0.001696	28.082	0.081655	0.001707	47.8289	42.1681	-165.322	0.033881	0.021328	-1.130405	-1.131778	0.006536	47.8289	-1.130507	-1.286540E+15	-5.080441E-18	NaN
577	1.000000	0.032669	7.37069e+06	-48239.1	1005.82	-29763.1	0.000000	0.000000	6.032750	0.011799	NaN	0.000000	0.001571	0.001666	28.0821	0.044055	0.001857	23.7213	-88.1467	16.0788	-0.000664	0.031327	-1.120437	-1.121779	0.011799	23.7213	-1.120810	-9.535471E+14	-1.237372E-17	NaN
577	1.000000	0.042685	7.37069e+06	-48239.1	1005.82	-29763.1	0.000000	0.000000	6.042763	-0.049038	NaN	0.000000	0.001579	0.001691	28.0821	0.050944	0.002011	25.3304	114.852	-163.061	0.040681	0.041353	-1.110421	-1.111754	-0.049038	25.3304	-1.108969	-6.613856E+14	7.414466E-17	NaN
577	1.000000	0.052648	7.37069e+06	-48239.1	1005.82	-29763.1	0.000000	0.000000	6.052728	0.002341	NaN	0.000000	0.001591	0.001744	28.0821	0.089328	0.001966	45.433	139.289	12.7014	-0.002073	0.051343	-1.100458	-1.101763	0.002341	45.433	-1.100497	-5.090230E+14	-4.598907E-18	NaN
577	1.000000	0.062656	7.37069e+06	-48239.1	1005.82	-29763.1	0.000000	0.000000	6.062739	0.063641	NaN	0.000000	0.001598	0.001696	28.0819	0.041668	0.001864	22.3598	-19.2976	-163.814	0.025347	0.061361	-1.090450	-1.091745	0.063641	22.3598	-1.092585	-3.985843E+14	-1.596665E-16	NaN
577	1.000000	0.072679	7.37069e+06	-48239.1	1005.82	-29763.1	0.000000	0.000000	6.072759	-0.007707	NaN	0.000000	0.001594	0.001760	28.0823	0.014929	0.001942	7.687476	24.8467	13.3691	0.062310	0.071254	-1.080427	-1.081852	-0.007707	7.687476	-1.079675	-2.673978E+14	2.882299E-17	NaN
577	1.000000	0.082653	7.37069e+06	-48239.1	1005.82	-29763.1	0.000000	0.000000	6.082734	0.020569	NaN	0.000000	0.001570	0.001742	28.0821	0.092081	0.001992	46.2168	-142.806	-164.396	-0.046679	0.081376	-1.070453	-1.071730	0.020569	46.2168	-1.070787	-2.031249E+14	-1.012619E-16	NaN
577	1.000000	0.092687	7.37069e+06	-48239.1	1005.82	-29763.1	0.000000	0.000000	6.092767	-0.013967	NaN	0.000000	0.001569	0.001750	28.0822	0.065895	0.002141	30.7743	171.788	15.4444	-0.052490	0.091232	-1.060419	-1.061874	-0.013967	30.7743	-1.060079	-1.458412E+14	9.576722E-17	NaN
577	1.000000	0.102688	7.37069e+06	-48239.1	1005.82	-29763.1	0.000000	0.000000	6.102765	-0.067398	NaN	0.000000	0.001568	0.001738	28.0821	0.085140	0.001983	42.9246	-53.3717	-164.601	-0.061230	0.101355	-1.050418	-1.051751	-0.067398	42.9246	-1.049241	-1.042818E+14	6.463048E-16	NaN
577	1.000000	0.112706	7.37069e+06	-48239.1	1005.82	-29763.1	0.000000	0.000000	6.112785	-0.028582	NaN	0.000000	0.001598	0.001704	28.0824	0.019674	0.002025	9.716223	97.4777	15.906	-0.091771	0.111327	-1.040401	-1.041779	-0.028582	9.716223	-1.038194	-7.407745E+13	3.858418E-16	NaN
577	1.000000	0.122697	7.37069e+06	-48239.1	1005.82	-29763.1	0.000000	0.000000	6.122778	0.006638	NaN	0.000000	0.001598	0.001730	28.0821	0.098442	0.001994	49.3771	50.6034	-163.047	0.059065	0.121351	-1.030409	-1.031755	0.006638	49.3771	-1.030510	-5.839000E+13	-1.136821E-16	NaN
577	1.000000	0.132684	7.37069e+06	-48239.1	1005.82	-29763.1	0.000000	0.000000	6.132764	-0.032949	NaN	0.000000	0.001598	0.001748	28.082	0.094307	0.002044	46.1348	-7.147059	16.0704	0.039295	0.131323	-1.020422	-1.021783	-0.032949	46.1348	-1.019886	-4.201641E+13	7.841862E-16	NaN
577	1.000000	0.142719	7.37069e+06	-48239.1	1005.82	-29763.1	0.000000	0.000000	6.142797	-0.059453	NaN	0.000000	0.001613	0.001719	28.082	0.088175	0.001928	45.7332	-158.368	-162.075	-0.097625	0.141381	-1.010387	-1.011725	-0.059453	45.7332	-1.009412	-3.037195E+13	1.957493E-15	NaN
577	1.000000	0.152713	7.37069e+06	-48239.1	1005.82	-29763.1	0.000000	0.000000	6.152791	-0.054495	NaN	0.000000	0.001612	0.001707	28.0809	0.060871	0.001965	30.9791	170.135	15.2395	-0.082982	0.151437	-1.000393	-1.001670	-0.054495	30.9791	-0.999074	-2.204454E+13	2.472028E-15	NaN
577	1.000000	0.162690	7.37069e+06	-48239.1	1005.82	-29763.1	0.000000	0.000000	6.162770	-0.017080	NaN	0.000000	0.001597	0.001764	28.0807	0.049594	0.002039	24.3184	-7.701105	-163.033	-0.044556	0.161365	-0.990416	-0.991741	-0.017080	24.3184	-0.989889	-1.658133E+13	1.030082E-15	NaN
577	1.000000	0.172706	7.37069e+06	-48239.1	1005.82	-29763.1	0.000000	0.000000	6.172786	-0.001680	NaN	0.000000	0.001607	0.001742	28.0807	0.124901	0.001985	62.9158	131.44	15.7305	-0.003481	0.171356	-0.980400	-0.981750	-0.001680	62.9158	-0.980380	-1.234609E+13	1.360477E-16	NaN
577	1.000000	0.182727	7.37069e+06	-48239.1	1005.82	-29763.1	0.000000	0.000000	6.182807	0.002641	NaN	0.000000	0.001574	0.001692	28.0806	0.112142	0.001980	56.6267	31.1019	-168.838	-0.056487	0.181412	-0.970379	-0.971694	0.002641	56.6267	-0.970414	-9.062522E+12	-2.914733E-16	NaN
577	1.000000	0.192720	7.37069e+06	-48239.1	1005.82	-29763.1	0.000000	0.000000	6.192798	-0.062114	NaN	0.000000	0.001584	0.001727	28.0807	0.012005	0.001986	6.045076	-113.897	15.633	0.056350	0.191387	-0.960386	-0.961719	-0.062114	6.045076	-0.952680	-5.226030E+12	1.188545E-14	NaN
577	1.000000	0.202741	7.37069e+06	-48239.1	1005.82	-29763.1	0.000000	0.000000	6.202820	-0.029651	NaN	0.000000	0.001583	0.001717	28.0805	0.103700	0.002056	50.4343	101.31	-166.415	-0.024604	0.201406	-0.950365	-0.951700	-0.029651	50.4343	-0.949924	-4.797416E+12	6.180717E-15	NaN
577	1.000000	0.212762	7.37069e+06	-48239.1	1005.82	-29763.1	0.000000	0.000000	6.212842	-0.007219	NaN	0.000000	0.001593	0.001722	28.0806	0.079387	0.001950	40.7034	-73.7939	13.6719	-0.058969	0.211403	-0.940344	-0.941703	-0.007219	40.7034	-0.940211	-3.548001E+12	2.034591E-15	NaN
577	1.000000	0.222730	7.37069e+06	-48239.1	1005.82	-29763.1	0.000000	0.000000	6.222808	-0.057876	NaN	0.000000	0.001596	0.001729	28.0809	0.061110	0.001909	32.0182	-85.5743	-167.084	-0.083924	0.221408	-0.930376	-0.931698	-0.057876	32.0182	-0.929021	-2.505991E+12	2.309519E-14	NaN
577	1.000000	0.232742	7.37069e+06	-48239.1	1005.82	-29763.1	0.000000	0.000000	6.232819	-0.087725	NaN	0.000000	0.001568	0.001706	28.081	0.080468	0.001973	40.7886	82.4096	15.2992	-0.115833	0.231400	-0.920364	-0.921706	-0.087725	40.7886	-0.918751	-1.821132E+12	4.817037E-14	NaN
577	1.000000	0.242776	7.37069e+06	-48239.1	1005.82	-29763.1	0.000000	0.000000	6.242855	-0.032925	NaN	0.000000	0.001577	0.001702	28.0809	0.107914	0.002020	53.4152	-102.452	-167.225	0.011848	0.241426	-0.910330	-0.911680	-0.032925	53.4152	-0.909868	-1.381584E+12	2.383150E-14	NaN
577	1.000000	0.252740	7.37069e+06	-48239.1	1005.82	-29763.1	0.000000	0.000000	6.252818	-0.063848	NaN	0.000000	0.001576	0.001719	28.0807	0.018711	0.002046	9.146744	-124.173	15.4074	-0.025068	0.251407	-0.900366	-0.901699	-0.063848	9.146744	-0.895131	-8.734992E+11	7.309409E-14	NaN
577	1.000000	0.262765	7.37069e+06	-48239.1	1005.82	-29763.1	0.000000	0.000000	6.262843	-0.045488	NaN	0.000000	0.001567	0.001714	28.0808	0.072957	0.001987	36.718	-88.6887	-165.741	-0.051895	0.261446	-0.890341	-0.891660	-0.045488	36.718	-0.889412	-7.310858E+11	6.222031E-14	NaN
577	1.000000	0.272782	7.37069e+06	-48239.1	1005.82	-29763.1	0.000000	0.000000	6.272857	-0.128392	NaN	0.000000	0.001583	0.001706	28.0807	0.041120	0.001974	20.836	130.929	13.0059	-0.058714	0.271396	-0.880324	-0.881711	-0.128392	20.836	-0.875703	-4.770786E+11	2.691213E-13	NaN
577	1.000000	0.282741	7.37069e+06	-48239.1	1005.82	-29763.1	0.000000	0.000000	6.282823	0.049219	NaN	0.000000	0.001588	0.001720	28.0808	0.072396	0.002185	33.1343	10.8849	-164.384	-0.051503	0.281477	-0.870365	-0.871629	0.049219	33.1343	-0.871479	-4.182712E+11	-1.176720E-13	NaN
577	1.000000	0.292776	7.37069e+06	-48239.1	1005.82	-29763.1	0.000000	0.000000	6.292854	-0.047850	NaN	0.000000	0.001600	0.001716	28.082	0.052788	0.002072	25.4784	-108.019	14.5641	-0.017284	0.291397	-0.860331	-0.861710	-0.047850	25.4784	-0.858922	-2.828322E+11	1.691824E-13	NaN
577	1.000000	0.302791	7.37069e+06	-48239.1	1005.82	-29763.1	0.000000	0.000000	6.302870	-0.026899	NaN	0.000000	0.001605	0.001702	28.0824	0.090181	0.001976	45.6371	-129.761	-163.145	-0.077709	0.301509	-0.850315	-0.851597	-0.026899	45.6371	-0.849873	-2.133127E+11	1.261036E-13	NaN
577	1.000000	0.312783	7.37069e+06	-48239.1	1005.82	-29763.1	0.000000	0.000000	6.312861	-0.055011	NaN	0.000000	0.001604	0.001697	28.0818	0.071309	0.002039	34.9794	-129.944	16.7643	-0.071819	0.311430	-0.840323	-0.841676	-0.055011	34.9794	-0.839144	-1.526475E+11	3.603777E-13	NaN
577	1.000000	0.322805	7.37069e+06	-48239.1	1005.82	-29763.1	0.000000	0.000000	6.322883	-0.048349	NaN	0.000000	0.001640	0.001675	28.0819	0.017118	0.002049	8.356037	33.8999	-162.68	-0.104508	0.321497	-0.830301	-0.831609	-0.048349	8.356037	-0.825962	-1.011683E+11	4.779042E-13	NaN
577	1.000000	0.332769	7.37069e+06	-48239.1	1005.82	-29763.1	0.000000	0.000000	6.332847	-0.064695	NaN	0.000000	0.001586	0.001698	28.0816	0.166274	0.001923	86.4862	152.086	14.1904	0.032581	0.331399	-0.820337	-0.821707	-0.064695	86.4862	-0.819776	-8.340240E+10	7.756940E-13	NaN
577	1.000000	0.342777	7.37069e+06	-48239.1	1005.82	-29763.1	0.000000	0.000000	6.342860	0.061682	NaN	0.000000	0.001568	0.001714	28.0819	0.051512	0.002041	25.2437	-52.093	-162.979	-0.018206	0.341541	-0.810329	-0.811565	0.061682	25.2437	-0.812162	-6.575081E+10	-9.381126E-13	NaN
577	1.000000	0.352794	7.37069e+06	-48239.1	1005.82	-29763.1	0.000000	0.000000	6.352876	0.037157	NaN	0.000000	0.001626	0.001683	28.0817	0.102467	0.002021	50.6991	136.931	14.4778	0.002706	0.351444	-0.800312	-0.801662	0.037157	50.6991	-0.800862	-4.619164E+10	-8.044040E-13	NaN
577	1.000000	0.362829	7.37069e+06	-48239.1	1005.82	-29763.1	0.000000	0.000000	6.362908	-0.038024	NaN	0.000000	0.001594	0.001718	28.0816	0.025688	0.001987	12.928	96.5796	-166.55	0.004607	0.361445	-0.790277	-0.791661	-0.038024	12.928	-0.788071	-3.096620E+10	1.227925E-12	NaN
577	1.000000	0.372807	7.37069e+06	-48239.1	1005.82	-29763.1	0.000000	0.000000	6.372885	-0.062934	NaN	0.000000	0.001566	0.001687	28.0817	0.100295	0.001939	51.715	-162.822	15.1887	-0.046554	0.371431	-0.780299	-0.781675	-0.062934	51.715	-0.779386	-2.359867E+10	2.666839E-12	NaN
577	1.000000	0.382829	7.37069e+06	-48239.1	1005.82	-29763.1	0.000000	0.000000	6.382907	-0.066675	NaN	0.000000	0.001578	0.001709	28.082	0.088643	0.002103	42.1562	-148.165	-169.647	-0.047676	0.381490	-0.770277	-0.771616	-0.066675	42.1562	-0.769091	-1.709803E+10	3.899545E-12	NaN
577	1.000000	0.392818	7.37069e+06	-48239.1	1005.82	-29763.1	0.000000	0.000000	6.392898	-0.018886	NaN	0.000000	0.001597	0.001713	28.0818	0.047624	0.001879	25.3516	141.636	12.6948	-0.064339	0.391443	-0.760288	-0.761664	-0.018886	25.3516	-0.759729	-1.275322E+10	1.480861E-12	NaN
577	1.000000	0.402818	7.37069e+06	-48239.1	1005.82	-29763.1	0.000000	0.000000	6.402900	0.031533	NaN	0.000000	0.001585	0.001739	28.0817	0.112499	0.002168	51.8838	-100.967	-164.959	0.050874	0.401520	-0.750288	-0.751586	0.031533	51.8838	-0.750744	-9.623706E+9	-3.276571E-12	NaN
577	1.000000	0.412833	7.37069e+06	-48239.1	1005.82	-29763.1	0.000000	0.000000	6.412915	0.033531	NaN	0.000000	0.001569	0.001726	28.0822	0.158698	0.002160	73.4602	75.1342	12.2368	0.051529	0.411460	-0.740273	-0.741646	0.033531	73.4602	-0.740615	-7.005450E+9	-4.786480E-12	NaN
577	1.000000	0.422823	7.37069e+06	-48239.1	1005.82	-29763.1	0.000000	0.000000	6.422903	-0.010044	NaN	0.000000	0.001581	0.001743	28.0806	0.027654	0.002088	13.2447	-18.1335	-163.616	-0.034105	0.421499	-0.730283	-0.731607	-0.010044	13.2447	-0.729714	-4.976358E+9	2.018253E-12	NaN
577	1.000000	0.432798	7.37069e+06	-48239.1	1005.82	-29763.1	0.000000	0.000000	6.432877	-0.035944	NaN	0.000000	0.001547	0.001753	28.0806	0.087350	0.001956	44.6554	168.142	14.9165	-0.039398	0.431497	-0.720308	-0.721610	-0.035944	44.6554	-0.719704	-3.634461E+9	9.889653E-12	NaN
577	1.000000	0.442821	7.37069e+06	-48239.1	1005.82	-29763.1	0.000000	0.000000	6.442900	-0.033492	NaN	0.000000	0.001547	0.001747	28.0806	0.027783	0.001928	14.4086	55.3129	-161.945	-0.012259	0.441568	-0.710285	-0.711538	-0.033492	14.4086	-0.708542	-2.559468E+9	1.308549E-11	NaN
577	1.000000	0.452859	7.37069e+06	-48239.1	1005.82	-29763.1	0.000000	0.000000	6.452939	-0.021490	NaN	0.000000	0.001590	0.001721	28.081	0.035797	0.001951	18.3522	92.3456	15.3319	-0.032667	0.451454	-0.700247	-0.701653	-0.021490	18.3522	-0.699369	-1.918265E+9	1.120285E-11	NaN
577	1.000000	0.462825	7.37069e+06	-48239.1	1005.82	-29763.1	0.000000	0.000000	6.462904	-0.026082	NaN	0.000000	0.001580	0.001760	28.0805	0.055345	0.002055	26.9371	178.435	-164.915	-0.053657	0.461494	-0.690281	-0.691612	-0.026082	26.9371	-0.689555	-1.408767E+9	1.851438E-11	NaN
577	1.000000	0.472847	7.37069e+06	-48239.1	1005.82	-29763.1	0.000000	0.000000	6.472925	-0.063608	NaN	0.000000	0.001575	0.001721	28.0806	0.197528	0.002095	94.3047	164.754	15.9228	-0.054568	0.471438	-0.680259	-0.681668	-0.063608	94.3047	-0.679753	-1.034726E+9	6.147300E-11	NaN
577	1.000000	0.482833	7.37069e+06	-48239.1	1005.82	-29763.1	0.000000	0.000000	6.482907	-0.147115	NaN	0.000000	0.001551	0.001727	28.0808	0.042393	0.001943	21.8228	158.927	-166.316	-0.111669	0.481564	-0.670273	-0.671542	-0.147115	21.8228	-0.665217	-6.545112E+8	2.247700E-10	NaN
577	1.000000	0.492841	7.37069e+06	-48239.1	1005.82	-29763.1	0.000000	0.000000	6.492919	-0.053693	NaN	0.000000	0.001560	0.001730	28.0806	0.079279	0.002011	39.4223	146.495	13.8871	0.009492	0.491463	-0.660265	-0.661643	-0.053693	39.4223	-0.659244	-5.421418E+8	9.903918E-11	NaN
577	1.000000	0.502869	7.37069e+06	-48239.1	1005.82	-29763.1	0.000000	0.000000	6.502947	-0.045820	NaN	0.000000	0.001581	0.001712	28.0806	0.016713	0.002034	8.218735	-139.321	-167.342	-0.087461	0.501546	-0.650237	-0.651560	-0.045820	8.218735	-0.646056	-3.575704E+8	1.281429E-10	NaN
577	1.000000	0.512862	7.37069e+06	-48239.1	1005.82	-29763.1	0.000000	0.000000	6.512942	-0.000641	NaN	0.000000	0.001572	0.001722	28.0805	0.048993	0.002044	23.9716	83.0806	16.0352	0.073536	0.511490	-0.640244	-0.641616	-0.000641	23.9716	-0.640224	-2.974170E+8	2.156856E-12	NaN
577	1.000000	0.522856	7.37069e+06	-48239.1	1005.82	-29763.1	0.000000	0.000000	6.522934	-0.059832	NaN	0.000000	0.001578	0.001734	28.0809	0.054413	0.002007	27.1181	-71.5696	-162.571	-0.068101	0.521594	-0.630250	-0.631512	-0.059832	27.1181	-0.628595	-2.059335E+8	2.905383E-10	NaN
577	1.000000	0.532903	7.37069e+06	-48239.1	1005.82	-29763.1	0.000000	0.000000	6.532983	-0.020153	NaN	0.000000	0.001551	0.001691	28.0807	0.110602	0.001906	58.0333	103.078	15.5402	-0.028904	0.531481	-0.620203	-0.621625	-0.020153	58.0333	-0.619943	-1.566198E+8	1.286749E-10	NaN
577	1.000000	0.542893	7.37069e+06	-48239.1	1005.82	-29763.1	0.000000	0.000000	6.542973	-0.001995	NaN	0.000000	0.001573	0.001710	28.0807	0.130698	0.001927	67.8305	176.536	-165.59	-0.056305	0.541583	-0.610213	-0.611523	-0.001995	67.8305	-0.610191	-1.150124E+8	1.734359E-11	NaN
577	1.000000	0.552885	7.37069e+06	-48239.1	1005.82	-29763.1	0.000000	0.000000	6.552963	-0.067468	NaN	0.000000	0.001584	0.001687	28.0807	0.047739	0.001883	25.3546	155.084	13.1466	-0.086011	0.551515	-0.600221	-0.601591	-0.067468	25.3546	-0.598225	-7.870712E+7	8.572057E-10	NaN
577	1.000000	0.562878	7.37069e+06	-48239.1	1005.82	-29763.1	0.000000	0.000000	6.562956	-0.044137	NaN	0.000000	0.001564	0.001723	28.0819	0.048127	0.002135	22.5383	158.548	-165.518	-0.031410	0.561611	-0.590228	-0.591495	-0.044137	22.5383	-0.588760	-5.828611E+7	7.572457E-10	NaN
577	1.000000	0.572920	7.37069e+06	-48239.1	1005.82	-29763.1	0.000000	0.000000	6.572998	-0.072014	NaN	0.000000	0.001589	0.001737	28.0819	0.074460	0.002184	34.0862	60.2201	14.1016	0.052149	0.571566	-0.580186	-0.581541	-0.072014	34.0862	-0.578601	-4.221030E+7	1.706069E-9	NaN
577	1.000000	0.582940	7.37069e+06	-48239.1	1005.82	-29763.1	0.000000	0.000000	6.583021	0.000538	NaN	0.000000	0.001598	0.001705	28.0818	0.084165	0.002000	42.0909	-113.841	-169.874	0.025741	0.581566	-0.570166	-0.571540	0.000538	42.0909	-0.570175	-3.228885E+7	-1.666286E-11	NaN
577	1.000000	0.592884	7.37069e+06	-48239.1	1005.82	-29763.1	0.000000	0.000000	6.592963	-0.022708	NaN	0.000000	0.001574	0.001699	28.0818	0.034373	0.001978	17.3742	-99.8599	18.0816	-0.029672	0.591530	-0.560222	-0.561576	-0.022708	17.3742	-0.559242	-2.279775E+7	9.960611E-10	NaN
577	1.000000	0.602878	7.37069e+06	-48239.1	1005.82	-29763.1	0.000000	0.000000	6.602958	0.003263	NaN	0.000000	0.001576	0.001776	28.0819	0.030380	0.002002	15.1758	-10.5958	-162.879	0.006701	0.601575	-0.550228	-0.551531	0.003263	15.1758	-0.550390	-1.719302E+7	-1.898083E-10	NaN
577	1.000000	0.612905	7.37069e+06	-48239.1	1005.82	-29763.1	0.000000	0.000000	6.612984	-0.046761	NaN	0.000000	0.001618	0.001711	28.0817	0.129332	0.002072	62.4108	51.5724	15.6678	-0.019362	0.611529	-0.540201	-0.541577	-0.046761	62.4108	-0.539639	-1.219968E+7	3.832951E-9	NaN
577	1.000000	0.622879	7.37069e+06	-48239.1	1005.82	-29763.1	0.000000	0.000000	6.622958	-0.052433	NaN	0.000000	0.001573	0.001726	28.0817	0.030959	0.001952	15.8571	45.6076	-164.079	-0.066597	0.621628	-0.530227	-0.531478	-0.052433	15.8571	-0.527747	-8.34215e+06	6.285354E-9	NaN
577	1.000000	0.632920	7.37069e+06	-48239.1	1005.82	-29763.1	0.000000	0.000000	6.632998	-0.071934	NaN	0.000000	0.001567	0.001758	28.0818	0.131113	0.002049	64.0029	174.925	16.7014	-0.107266	0.631561	-0.520186	-0.521546	-0.071934	64.0029	-0.519343	-6.37467e+06	1.128436E-8	NaN
577	1.000000	0.642932	7.37069e+06	-48239.1	1005.82	-29763.1	0.000000	0.000000	6.643012	-0.003114	NaN	0.000000	0.001609	0.001756	28.0819	0.049918	0.001966	25.3924	-129.113	-165.144	-0.018475	0.641645	-0.510174	-0.511461	-0.003114	25.3924	-0.510082	-4.73762e+06	6.572778E-10	NaN
577	1.000000	0.652893	7.37069e+06	-48239.1	1005.82	-29763.1	0.000000	0.000000	6.652974	0.012477	NaN	0.000000	0.001590	0.001722	28.0818	0.084761	0.001993	42.5295	38.6748	15.9215	0.009987	0.651600	-0.500213	-0.501506	0.012477	42.5295	-0.500433	-3.47588e+06	-3.589490E-9	NaN
577	1.000000	0.662909	7.37069e+06	-48239.1	1005.82	-29763.1	0.000000	0.000000	6.662989	0.003610	NaN	0.000000	0.001601	0.001720	28.0821	0.044601	0.001935	23.0542	106.64	-165.755	0.042949	0.661631	-0.490197	-0.491475	0.003610	23.0542	-0.490315	-2.51067e+06	-1.437707E-9	NaN
577	1.000000	0.672934	7.37069e+06	-48239.1	1005.82	-29763.1	0.000000	0.000000	6.673013	-0.044983	NaN	0.000000	0.001598	0.001711	28.0819	0.085029	0.001920	44.2763	-162.092	14.1302	-0.031039	0.671562	-0.480172	-0.481544	-0.044983	44.2763	-0.479410	-1.76711e+06	2.545580E-8	NaN
577	1.000000	0.682943	7.37069e+06	-48239.1	1005.82	-29763.1	0.000000	0.000000	6.683020	-0.083104	NaN	0.000000	0.001599	0.001731	28.0819	0.055436	0.001894	29.2721	-177.165	-163.075	-0.066018	0.681602	-0.470163	-0.471504	-0.083104	29.2721	-0.468034	-1.22414e+06	6.788755E-8	NaN
577	1.000000	0.692931	7.37069e+06	-48239.1	1005.82	-29763.1	0.000000	0.000000	6.693009	-0.060476	NaN	0.000000	0.001563	0.001753	28.0819	0.075056	0.002118	35.4395	76.0053	17.8409	-0.017085	0.691569	-0.460175	-0.461537	-0.060476	35.4395	-0.458895	-910934	6.638888E-8	NaN
577	1.000000	0.702960	7.37069e+06	-48239.1	1005.82	-29763.1	0.000000	0.000000	6.703039	-0.050738	NaN	0.000000	0.001575	0.001700	28.081	0.058969	0.002009	29.351	-20.5521	-165.418	-0.051422	0.701683	-0.450146	-0.451423	-0.050738	29.351	-0.448849	-657862	7.712515E-8	NaN
577	1.000000	0.712937	7.37069e+06	-48239.1	1005.82	-29763.1	0.000000	0.000000	6.713013	-0.112068	NaN	0.000000	0.001573	0.001735	28.0806	0.100879	0.002042	49.3945	-165.674	15.3083	-0.018125	0.711563	-0.440169	-0.441543	-0.112068	49.3945	-0.438467	-469596	2.386484E-7	NaN
577	1.000000	0.722964	7.37069e+06	-48239.1	1005.82	-29763.1	0.000000	0.000000	6.723043	-0.044379	NaN	0.000000	0.001574	0.001742	28.081	0.125590	0.001971	63.7347	-139.407	-164.94	-0.067386	0.721672	-0.430142	-0.431434	-0.044379	63.7347	-0.429620	-352111	1.260365E-7	NaN
577	1.000000	0.732981	7.37069e+06	-48239.1	1005.82	-29763.1	0.000000	0.000000	6.733062	-0.006358	NaN	0.000000	0.001594	0.001759	28.0807	0.064709	0.002065	31.332	128.514	17.2283	-0.000558	0.731611	-0.420125	-0.421495	-0.006358	31.332	-0.419972	-257054	2.473300E-8	NaN
577	1.000000	0.742958	7.37069e+06	-48239.1	1005.82	-29763.1	0.000000	0.000000	6.743040	0.041797	NaN	0.000000	0.001596	0.001730	28.0809	0.035840	0.001969	18.1986	68.0621	-163.951	0.060478	0.741675	-0.410149	-0.411431	0.041797	18.1986	-0.411871	-197243	-2.119085E-7	NaN
577	1.000000	0.752963	7.37069e+06	-48239.1	1005.82	-29763.1	0.000000	0.000000	6.753041	-0.061785	NaN	0.000000	0.001590	0.001694	28.0806	0.096013	0.001956	49.0941	104.274	16.0381	-0.096462	0.751690	-0.400143	-0.401416	-0.061785	49.0941	-0.399199	-130189	4.745814E-7	NaN
577	1.000000	0.762970	7.37069e+06	-48239.1	1005.82	-29763.1	0.000000	0.000000	6.763050	-0.012616	NaN	0.000000	0.001612	0.001718	28.0809	0.104782	0.001957	53.5463	-177.779	-167.129	-0.060071	0.761624	-0.390136	-0.391482	-0.012616	53.5463	-0.389959	-96068.9	1.313227E-7	NaN
577	1.000000	0.772980	7.3707e+06	-48239.1	1005.82	-29763.1	0.000000	0.000000	6.773057	-0.069859	NaN	0.000000	0.001598	0.001709	28.0808	0.091507	0.001814	50.4505	-153.169	16.639	-0.020578	0.771627	-0.380126	-0.381479	-0.069859	50.4505	-0.379088	-67111.3	1.040942E-6	NaN
577	1.000000	0.782992	7.3707e+06	-48239.1	1005.82	-29763.1	0.000000	0.000000	6.783070	-0.044353	NaN	0.000000	0.001605	0.001673	28.0806	0.044139	0.002087	21.1516	-76.2664	-167.238	-0.040215	0.781656	-0.370114	-0.371450	-0.044353	21.1516	-0.368542	-47328	9.371481E-7	NaN
577	1.000000	0.792989	7.3707e+06	-48239.1	1005.82	-29763.1	0.000000	0.000000	6.793067	-0.080054	NaN	0.000000	0.001605	0.001716	28.0807	0.010209	0.001889	5.405512	-3.874877	17.4899	-0.008290	0.791619	-0.360117	-0.361487	-0.080054	5.405512	-0.349009	-24695.7	3.241623E-6	NaN
577	1.000000	0.802989	7.3707e+06	-48239.1	1005.82	-29763.1	0.000000	0.000000	6.803068	-0.040338	NaN	0.000000	0.001604	0.001707	28.0808	0.111542	0.002038	54.74	-99.2008	-162.4	-0.054820	0.801691	-0.350117	-0.351415	-0.040338	54.74	-0.349564	-25158.2	1.603377E-6	NaN
577	1.000000	0.812964	7.3707e+06	-48239.1	1005.82	-29763.1	0.000000	0.000000	6.813041	-0.096395	NaN	0.000000	0.001645	0.001696	28.0809	0.027329	0.002008	13.6112	164.698	15.1354	-0.087388	0.811602	-0.340142	-0.341504	-0.096395	13.6112	-0.334830	-15350	6.279821E-6	NaN
577	1.000000	0.822965	7.3707e+06	-48239.1	1005.82	-29763.1	0.000000	0.000000	6.823043	-0.047031	NaN	0.000000	0.001613	0.001698	28.0808	0.071264	0.001944	36.658	-56.9453	-163.299	-0.018362	0.821723	-0.330142	-0.331383	-0.047031	36.658	-0.329179	-12689.1	3.706438E-6	NaN
577	1.000000	0.832979	7.3707e+06	-48239.1	1005.82	-29763.1	0.000000	0.000000	6.833058	-0.030502	NaN	0.000000	0.001600	0.001703	28.0821	0.107845	0.002009	53.668	-176.508	13.1402	0.022057	0.831673	-0.320127	-0.321433	-0.030502	53.668	-0.319701	-9209.39	3.312068E-6	NaN
577	1.000000	0.842995	7.3707e+06	-48239.1	1005.82	-29763.1	0.000000	0.000000	6.843073	-0.052053	NaN	0.000000	0.001606	0.001716	28.0821	0.136008	0.001985	68.5096	151.143	-164.289	-0.049668	0.841686	-0.310111	-0.311420	-0.052053	68.5096	-0.309542	-6520.35	7.983162E-6	NaN
577	1.000000	0.853016	7.3707e+06	-48239.1	1005.82	-29763.1	0.000000	0.000000	6.853096	-0.019520	NaN	0.000000	0.001591	0.001708	28.0819	0.049215	0.002075	23.7133	-81.8017	11.6064	-0.034724	0.851606	-0.300090	-0.301500	-0.019520	23.7133	-0.299472	-4621.48	4.223817E-6	NaN
577	1.000000	0.863007	7.3707e+06	-48239.1	1005.82	-29763.1	0.000000	0.000000	6.863086	-0.024059	NaN	0.000000	0.001589	0.001718	28.0819	0.042258	0.002052	20.5934	-91.9209	-162.481	0.011246	0.861711	-0.290099	-0.291395	-0.024059	20.5934	-0.289223	-3248.33	7.406589E-6	NaN
577	1.000000	0.873023	7.3707e+06	-48239.1	1005.82	-29763.1	0.000000	0.000000	6.873101	-0.045593	NaN	0.000000	0.001597	0.001710	28.0818	0.056116	0.002080	26.9834	104.817	12.0784	-0.024743	0.871632	-0.280083	-0.281474	-0.045593	26.9834	-0.278816	-2265.17	2.012779E-5	NaN
577	1.000000	0.883016	7.3707e+06	-48239.1	1005.82	-29763.1	0.000000	0.000000	6.883097	0.022686	NaN	0.000000	0.001602	0.001725	28.082	0.032755	0.001931	16.9607	-34.9367	-163.424	-0.051005	0.881694	-0.270090	-0.271412	0.022686	16.9607	-0.271093	-1730.44	-1.310984E-5	NaN
577	1.000000	0.893043	7.3707e+06	-48239.1	1005.82	-29763.1	0.000000	0.000000	6.893121	-0.075373	NaN	0.000000	0.001566	0.001704	28.0819	0.052924	0.001917	27.6025	-130.271	12.6629	-0.054961	0.891674	-0.260063	-0.261432	-0.075373	27.6025	-0.258015	-1092.61	6.898424E-5	NaN
577	1.000000	0.903035	7.3707e+06	-48239.1	1005.82	-29763.1	0.000000	0.000000	6.903111	-0.095530	NaN	0.000000	0.001591	0.001691	28.0818	0.051363	0.001922	26.7218	25.45	-167.01	-0.053327	0.901733	-0.250071	-0.251373	-0.095530	26.7218	-0.247390	-749.12	0.000128	NaN
577	1.000000	0.913038	7.3707e+06	-48239.1	1005.82	-29763.1	0.000000	0.000000	6.913112	-0.144478	NaN	0.000000	0.001583	0.001757	28.0819	0.106596	0.002035	52.3932	-98.1538	15.0906	-0.089034	0.911624	-0.240069	-0.241482	-0.144478	52.3932	-0.238000	-534.917	0.000270	NaN
577	1.000000	0.923022	7.3707e+06	-48239.1	1005.82	-29763.1	0.000000	0.000000	6.923101	-0.034131	NaN	0.000000	0.001537	0.001703	28.0817	0.137025	0.002038	67.2489	29.0921	-164.478	-0.033791	0.921697	-0.230084	-0.231409	-0.034131	67.2489	-0.229703	-396.125	8.616199E-5	NaN
577	1.000000	0.933053	7.3707e+06	-48239.1	1005.82	-29763.1	0.000000	0.000000	6.933132	-0.044939	NaN	0.000000	0.001542	0.001704	28.0818	0.081813	0.001997	40.9583	-117.311	16.9203	-0.053592	0.931667	-0.220053	-0.221439	-0.044939	40.9583	-0.219230	-270	0.000166	NaN
577	1.000000	0.943069	7.3707e+06	-48239.1	1005.82	-29763.1	0.000000	0.000000	6.943148	-0.035192	NaN	0.000000	0.001544	0.001731	28.0816	0.106989	0.002056	52.0315	-34.8297	-168.171	0.031030	0.941731	-0.210037	-0.211375	-0.035192	52.0315	-0.209530	-188.454	0.000187	NaN
577	1.000000	0.953052	7.3707e+06	-48239.1	1005.82	-29763.1	0.000000	0.000000	6.953130	-0.070486	NaN	0.000000	0.001551	0.001763	28.0819	0.067116	0.002071	32.4072	-164.13	12.8093	-0.133740	0.951700	-0.200054	-0.201406	-0.070486	32.4072	-0.198422	-124.091	0.000568	NaN
577	1.000000	0.963068	7.3707e+06	-48239.1	1005.82	-29763.1	0.000000	0.000000	6.963148	-0.013213	NaN	0.000000	0.001574	0.001708	28.0817	0.137060	0.001959	69.9629	-128.657	-168.392	0.015163	0.961713	-0.190038	-0.191393	-0.013213	69.9629	-0.189897	-89.5982	0.000147	NaN
577	1.000000	0.973030	7.3707e+06	-48239.1	1005.82	-29763.1	0.000000	0.000000	6.973110	-0.019816	NaN	0.000000	0.001621	0.001752	28.0806	0.030866	0.001966	15.6962	-77.383	15.1896	-0.106262	0.971688	-0.180076	-0.181418	-0.019816	15.6962	-0.179129	-58.9708	0.000336	NaN
577	1.000000	0.983021	7.3707e+06	-48239.1	1005.82	-29763.1	0.000000	0.000000	6.983099	-0.057332	NaN	0.000000	0.001563	0.001730	28.0804	0.109966	0.001996	55.0898	126.086	-166.367	-0.106943	0.981745	-0.170085	-0.171361	-0.057332	55.0898	-0.169305	-39.9515	0.001435	NaN
577	1.000000	0.993026	7.3707e+06	-48239.1	1005.82	-29763.1	0.000000	0.000000	6.993102	-0.096331	NaN	0.000000	0.001569	0.001717	28.0807	0.133504	0.002047	65.2297	73.6787	13.4157	-0.036529	0.991710	-0.160080	-0.161396	-0.096331	65.2297	-0.158973	-26.2851	0.003665	NaN
577	1.000000	1.003071	7.3707e+06	-48239.1	1005.82	-29763.1	0.000000	0.000000	7.003152	-0.002749	NaN	0.000000	0.001585	0.001722	28.0802	0.013415	0.002044	6.561988	22.017	-164.998	0.004959	1.001815	-0.150035	-0.151291	-0.002749	6.561988	-0.149720	-17.9021	0.000154	NaN
577	1.000000	1.013077	7.3707e+06	-48239.1	1005.82	-29763.1	0.000000	0.000000	7.013157	-0.021770	NaN	0.000000	0.001531	0.001717	28.0807	0.043940	0.002051	21.4275	-108.268	14.4448	-0.006026	1.011768	-0.140029	-0.141338	-0.021770	21.4275	-0.139267	-11.4599	0.001900	NaN
577	1.000000	1.023048	7.3707e+06	-48239.1	1005.82	-29763.1	0.000000	0.000000	7.023129	0.019303	NaN	0.000000	0.001534	0.001740	28.0806	0.024638	0.002027	12.1569	28.2921	-165.961	0.030399	1.021787	-0.130058	-0.131319	0.019303	12.1569	-0.131249	-8.057830	-0.002395	NaN
577	1.000000	1.033081	7.3707e+06	-48239.1	1005.82	-29763.1	0.000000	0.000000	7.033160	-0.026216	NaN	0.000000	0.001608	0.001744	28.0805	0.024218	0.001973	12.2779	40.7212	13.2001	-0.040861	1.031716	-0.120025	-0.121390	-0.026216	12.2779	-0.118424	-4.489198	0.005840	NaN
577	1.000000	1.043105	7.3707e+06	-48239.1	1005.82	-29763.1	0.000000	0.000000	7.043184	-0.038279	NaN	0.000000	0.001578	0.001740	28.08	0.110803	0.001930	57.4014	-7.342004	-165.093	-0.103417	1.041723	-0.110001	-0.111383	-0.038279	57.4014	-0.109500	-2.933108	0.013051	NaN
577	1.000000	1.053092	7.3707e+06	-48239.1	1005.82	-29763.1	0.000000	0.000000	7.053168	-0.097136	NaN	0.000000	0.001565	0.001724	28.0802	0.078595	0.001990	39.4985	107.303	15.5917	-0.085829	1.051724	-0.100014	-0.101382	-0.097136	39.4985	-0.098170	-1.663439	0.058395	NaN
577	1.000000	1.063094	7.3707e+06	-48239.1	1005.82	-29763.1	0.000000	0.000000	7.063174	-0.025946	NaN	0.000000	0.001579	0.001710	28.0805	0.107528	0.001888	56.9477	124.708	-168.89	-0.066855	1.061829	-0.090012	-0.091277	-0.025946	56.9477	-0.089670	-1.061859	0.024434	NaN
577	1.000000	1.073079	7.3707e+06	-48239.1	1005.82	-29763.1	0.000000	0.000000	7.073160	0.010110	NaN	0.000000	0.001611	0.001791	28.0802	0.036103	0.001982	18.2191	164.326	15.9757	-0.009021	1.071719	-0.080027	-0.081387	0.010110	18.2191	-0.080443	-0.634956	-0.015922	NaN
577	1.000000	1.083108	7.3707e+06	-48239.1	1005.82	-29763.1	0.000000	0.000000	7.083184	-0.113648	NaN	0.000000	0.001580	0.001759	28.0804	0.072662	0.001959	37.09	-150.737	-162.072	-0.086377	1.081775	-0.069998	-0.071331	-0.113648	37.09	-0.067700	-0.295654	0.384395	NaN
577	1.000000	1.093081	7.3707e+06	-48239.1	1005.82	-29763.1	0.000000	0.000000	7.093159	-0.050188	NaN	0.000000	0.001570	0.001777	28.0805	0.106672	0.001885	56.601	124.592	15.935	-0.074643	1.091736	-0.060025	-0.061370	-0.050188	56.601	-0.059360	-0.172626	0.290732	NaN
577	1.000000	1.103108	7.3707e+06	-48239.1	1005.82	-29763.1	0.000000	0.000000	7.103188	-0.021167	NaN	0.000000	0.001569	0.001718	28.0808	0.165155	0.002133	77.4122	81.6888	-165.093	0.020667	1.101777	-0.049998	-0.051329	-0.021167	77.4122	-0.049793	-0.089943	0.235334	NaN
577	1.000000	1.113104	7.3707e+06	-48239.1	1005.82	-29763.1	0.000000	0.000000	7.113183	-0.031267	NaN	0.000000	0.001572	0.001739	28.0818	0.057754	0.001951	29.6057	178.427	17.1341	0.037959	1.111754	-0.040002	-0.041352	-0.031267	29.6057	-0.039210	-0.042796	0.730596	NaN
577	1.000000	1.123126	7.3707e+06	-48239.1	1005.82	-29763.1	0.000000	0.000000	7.123203	-0.087564	NaN	0.000000	0.001586	0.001722	28.082	0.018790	0.001898	9.898668	-178.607	-165.599	-0.036234	1.121842	-0.029980	-0.031264	-0.087564	9.898668	-0.023346	-0.015286	5.728568	NaN
577	1.000000	1.133100	7.3707e+06	-48239.1	1005.82	-29763.1	0.000000	0.000000	7.133178	-0.050748	NaN	0.000000	0.001571	0.001739	28.082	0.069177	0.002149	32.1852	8.500422	15.2707	0.011321	1.131718	-0.020006	-0.021388	-0.050748	32.1852	-0.018824	-0.011722	4.329408	NaN
577	1.000000	1.143142	7.3707e+06	-48239.1	1005.82	-29763.1	0.000000	0.000000	7.143222	-0.028122	NaN	0.000000	0.001599	0.001711	28.082	0.079683	0.001964	40.5661	-150.95	-162.202	-0.064979	1.141781	-0.009964	-0.011325	-0.028122	40.5661	-0.009444	-0.006069	4.634045	NaN
577	1.000000	1.153104	7.3707e+06	-48239.1	1005.82	-29763.1	0.000000	0.000000	7.153300	2.815738	NaN	0.000000	0.001502	0.001627	28.0819	3.655784	0.001826	2001.89	11.8911	12.6748	1.446353	1.151764	-2.525730E-6	-0.001342	2.815738	2001.89	-0.001057	-0.000774	-3635.88	NaN
577	2.000000	1.159670	7.3707e+06	-48239.1	1005.82	-29763.1	0.000000	0.000000	7.160181	10.4613	NaN	0.000000	0.001481	0.001662	28.0819	10.9309	0.001725	6336.18	8.456559	-174.792	10.0929	1.159322	0.006564	0.006216	10.4613	6336.18	0.005326	0.004433	2360.01	86949.2
577	2.000000	1.162214	7.3707e+06	-48239.1	1005.82	-29763.1	0.000000	0.000000	7.162967	16.3478	NaN	0.000000	0.001449	0.001669	28.0822	13.5911	0.001684	8073.05	10.9501	3.240371	17.0145	1.161767	0.009108	0.008661	16.3478	8073.05	0.007589	0.006623	2468.16	90629.2
577	2.000000	1.164620	7.3707e+06	-48239.1	1005.82	-29763.1	0.000000	0.000000	7.165581	21.4266	NaN	0.000000	0.001526	0.001671	28.0818	16.7498	0.001665	10061.8	2.105655	-171.819	20.559	1.164231	0.011514	0.011125	21.4266	10061.8	0.009917	0.009089	2357.4	96424.9
577	2.000000	1.167128	7.3707e+06	-48239.1	1005.82	-29763.1	0.000000	0.000000	7.168412	29.2656	NaN	0.000000	0.001507	0.001670	28.0819	19.4855	0.001736	11225.4	2.647526	6.937260	28.8198	1.166723	0.014022	0.013617	29.2656	11225.4	0.012066	0.011570	2529.5	95348.8
577	2.000000	1.169598	7.3707e+06	-48239.1	1005.82	-29763.1	0.000000	0.000000	7.171170	36.29	NaN	0.000000	0.001539	0.001672	28.0826	22.6918	0.001904	11917.7	2.510484	-172.105	36.0949	1.169316	0.016492	0.016210	36.29	11917.7	0.014208	0.014244	2547.82	91233.8
577	2.000000	1.172081	7.3707e+06	-48239.1	1005.82	-29763.1	0.000000	0.000000	7.174078	46.6346	NaN	0.000000	0.001578	0.001667	28.0818	24.8473	0.001757	14143.8	-0.120712	7.698539	44.5219	1.171701	0.018974	0.018595	46.6346	14143.8	0.016502	0.017340	2689.4	98132.2
577	2.000000	1.174548	7.3707e+06	-48239.1	1005.82	-29763.1	0.000000	0.000000	7.176930	55.9788	NaN	0.000000	0.001572	0.001694	28.0832	26.9385	0.001644	16387	0.108651	-174.357	53.943	1.174291	0.021442	0.021185	55.9788	16387	0.018880	0.020813	2689.66	103779
577	2.000000	1.177088	7.3707e+06	-48239.1	1005.82	-29763.1	0.000000	0.000000	7.179845	65.1115	NaN	0.000000	0.001615	0.001666	28.0819	30.7219	0.001693	18142.1	4.763765	-0.212797	64.1806	1.176859	0.023982	0.023753	65.1115	18142.1	0.021290	0.024610	2645.71	105658
577	2.000000	1.179550	7.3707e+06	-48239.1	1005.82	-29763.1	0.000000	0.000000	7.182845	78.1962	NaN	0.000000	0.001601	0.001679	28.0821	34.1928	0.001886	18134.2	5.433986	-179.754	77.0876	1.179279	0.026444	0.026173	78.1962	18134.2	0.023210	0.027839	2808.87	99298.9
577	2.000000	1.182100	7.3707e+06	-48239.1	1005.82	-29763.1	0.000000	0.000000	7.185934	91.2956	NaN	0.000000	0.001563	0.001654	28.0807	36.2038	0.001886	19192.9	7.796378	-2.955461	90.1187	1.181759	0.028994	0.028653	91.2956	19192.9	0.025427	0.031796	2871.25	98338.7
577	2.000000	1.184528	7.3707e+06	-48239.1	1005.82	-29763.1	0.000000	0.000000	7.188787	101.639	NaN	0.000000	0.001619	0.001652	28.0818	39.0194	0.001966	19846.1	6.788040	178.198	100.484	1.184199	0.031422	0.031093	101.639	19846.1	0.027581	0.035879	2832.85	95725.9
577	2.000000	1.187043	7.3707e+06	-48239.1	1005.82	-29763.1	0.000000	0.000000	7.192020	119.086	NaN	0.000000	0.001602	0.001657	28.0807	40.6436	0.001839	22097.4	4.991462	-0.561791	116.403	1.186601	0.033937	0.033495	119.086	22097.4	0.029895	0.040527	2938.43	100286
577	2.000000	1.189485	7.3707e+06	-48239.1	1005.82	-29763.1	0.000000	0.000000	7.195007	132.362	NaN	0.000000	0.001577	0.001693	28.0815	42.8158	0.001755	24403	3.312591	179.508	128.517	1.189160	0.036379	0.036054	132.362	24403	0.032311	0.045670	2898.24	104328
577	2.000000	1.192026	7.3707e+06	-48239.1	1005.82	-29763.1	0.000000	0.000000	7.198177	147.642	NaN	0.000000	0.001605	0.001664	28.0807	44.259	0.001633	27107.4	1.223947	0.288136	144.159	1.191700	0.038920	0.038594	147.642	27107.4	0.034835	0.051362	2874.53	109280
577	2.000000	1.194529	7.3707e+06	-48239.1	1005.82	-29763.1	0.000000	0.000000	7.201293	162.54	NaN	0.000000	0.001597	0.001667	28.0815	48.0226	0.001721	27903.9	7.053186	174.849	163.241	1.194237	0.041423	0.041131	162.54	27903.9	0.037054	0.056638	2869.81	107124
577	2.000000	1.197040	7.3707e+06	-48239.1	1005.82	-29763.1	0.000000	0.000000	7.204616	182.319	NaN	0.000000	0.001597	0.001694	28.0808	50.9177	0.001811	28116.8	6.061373	-5.031767	179.972	1.196628	0.043934	0.043522	182.319	28116.8	0.039070	0.061648	2957.44	103462
577	2.000000	1.199569	7.3707e+06	-48239.1	1005.82	-29763.1	0.000000	0.000000	7.207778	197.695	NaN	0.000000	0.001585	0.001649	28.0816	53.475	0.001846	28962.2	4.750086	176.563	197.533	1.199261	0.046463	0.046155	197.695	28962.2	0.041344	0.067547	2926.76	101812
577	2.000000	1.202042	7.3707e+06	-48239.1	1005.82	-29763.1	0.000000	0.000000	7.211224	221.355	NaN	0.000000	0.001621	0.001672	28.0808	54.5126	0.001754	31081.7	1.717719	-0.489105	219.186	1.201648	0.048936	0.048542	221.355	31081.7	0.043595	0.073648	3005.57	104640
577	2.000000	1.204537	7.3707e+06	-48239.1	1005.82	-29763.1	0.000000	0.000000	7.214736	246.1	NaN	0.000000	0.001616	0.001666	28.0811	58.0333	0.001812	32029.4	6.369641	174.327	246.193	1.204146	0.051431	0.051040	246.1	32029.4	0.045669	0.079497	3095.73	103788
577	2.000000	1.206944	7.3707e+06	-48239.1	1005.82	-29763.1	0.000000	0.000000	7.217968	266.157	NaN	0.000000	0.001636	0.001677	28.0811	60.0414	0.001702	35271.8	6.097242	-6.584559	260.66	1.206568	0.053838	0.053462	266.157	35271.8	0.048179	0.086867	3063.97	109339
577	2.000000	1.209419	7.3707e+06	-48239.1	1005.82	-29763.1	0.000000	0.000000	7.221333	287.81	NaN	0.000000	0.001655	0.001636	28.0818	62.0317	0.001695	36604.7	0.120785	179.069	282.623	1.209176	0.056313	0.056070	287.81	36604.7	0.050416	0.093704	3071.47	109252
577	2.000000	1.212067	7.3707e+06	-48239.1	1005.82	-29763.1	0.000000	0.000000	7.224354	296.874	NaN	0.000000	0.001661	0.001675	28.081	65.241	0.001800	36253.5	3.431296	-3.984310	294.122	1.211778	0.058961	0.058672	296.874	36253.5	0.052820	0.101328	2929.84	104054
577	2.000000	1.214469	7.3707e+06	-48239.1	1005.82	-29763.1	0.000000	0.000000	7.228128	330.255	NaN	0.000000	0.001657	0.001687	28.0824	67.5484	0.001799	37546.1	4.717690	174.427	327.862	1.214202	0.061363	0.061096	330.255	37546.1	0.054766	0.107711	3066.13	104522
577	2.000000	1.217043	7.3707e+06	-48239.1	1005.82	-29763.1	0.000000	0.000000	7.231496	349.581	NaN	0.000000	0.001650	0.001687	28.0822	70.729	0.001795	39405.8	2.245238	-2.712702	350.153	1.216500	0.063937	0.063394	349.581	39405.8	0.057283	0.116247	3007.23	105595
577	2.000000	1.219565	7.3707e+06	-48239.1	1005.82	-29763.1	0.000000	0.000000	7.235095	375.748	NaN	0.000000	0.001625	0.001668	28.0824	74.5807	0.001822	40927.2	5.275993	173.517	379.457	1.219244	0.066459	0.066138	375.748	40927.2	0.059574	0.124284	3023.3	106066
577	2.000000	1.221998	7.3707e+06	-48239.1	1005.82	-29763.1	0.000000	0.000000	7.238769	405.935	NaN	0.000000	0.001630	0.001663	28.0822	76.3922	0.001900	40207.4	5.406290	-6.357300	402.127	1.221683	0.068892	0.068577	405.935	40207.4	0.061320	0.130585	3108.59	101656
577	2.000000	1.224430	7.3707e+06	-48239.1	1005.82	-29763.1	0.000000	0.000000	7.242483	437.138	NaN	0.000000	0.001658	0.001657	28.0822	77.6484	0.001862	41708.5	0.713099	178.006	432.606	1.224185	0.071324	0.071079	437.138	41708.5	0.063463	0.138520	3155.78	102386
577	2.000000	1.226930	7.3707e+06	-48239.1	1005.82	-29763.1	0.000000	0.000000	7.246298	469.129	NaN	0.000000	0.001621	0.001675	28.0823	81.3557	0.001717	47386.6	3.710118	-6.454412	462.81	1.226572	0.073824	0.073466	469.129	47386.6	0.066399	0.149747	3132.8	111879
577	2.000000	1.229461	7.3707e+06	-48239.1	1005.82	-29763.1	0.000000	0.000000	7.250230	503.198	NaN	0.000000	0.001682	0.001663	28.0822	84.5845	0.001706	49573.8	4.608757	172.81	501.022	1.229159	0.076355	0.076053	503.198	49573.8	0.068742	0.159008	3164.6	113584
577	2.000000	1.231931	7.3707e+06	-48239.1	1005.82	-29763.1	0.000000	0.000000	7.254032	535.585	NaN	0.000000	0.001676	0.001660	28.082	85.9297	0.001760	48836.2	1.317076	-3.539089	530.372	1.231603	0.078825	0.078497	535.585	48836.2	0.070600	0.166535	3216.04	109336
577	2.000000	1.234448	7.3707e+06	-48239.1	1005.82	-29763.1	0.000000	0.000000	7.257909	568.651	NaN	0.000000	0.001648	0.001676	28.0823	88.746	0.001842	48186.5	4.953070	172.727	564.981	1.234090	0.081342	0.080984	568.651	48186.5	0.072491	0.174369	3261.19	105430
577	2.000000	1.236814	7.3707e+06	-48239.1	1005.82	-29763.1	0.000000	0.000000	7.261409	596.232	NaN	0.000000	0.001613	0.001689	28.0819	91.865	0.001804	50919.1	5.102535	-8.189092	583.656	1.236543	0.083708	0.083437	596.232	50919.1	0.074926	0.184701	3228.09	108248
577	2.000000	1.239386	7.3707e+06	-48239.1	1005.82	-29763.1	0.000000	0.000000	7.265781	640.01	NaN	0.000000	0.001557	0.001654	28.0819	93.815	0.001868	50219.4	2.908337	174.781	634.953	1.239062	0.086280	0.085956	640.01	50219.4	0.076722	0.192501	3324.7	104575
577	2.000000	1.242223	7.3707e+06	-48239.1	1005.82	-29763.1	0.000000	0.000000	7.268455	636.052	NaN	0.000000	0.001560	0.001676	28.0818	95.6138	0.001673	57151.4	3.438852	-7.088849	644.289	1.242173	0.089117	0.089067	636.052	57151.4	0.080770	0.210638	3019.64	113771
577	2.000000	1.244440	7.3707e+06	-48239.1	1005.82	-29763.1	0.000000	0.000000	7.271861	664.985	NaN	0.000000	0.001584	0.001670	28.082	97.5925	0.001730	56411	1.620022	174.856	661.827	1.244297	0.091334	0.091191	664.985	56411	0.082493	0.218587	3042.2	110236
577	2.000000	1.247000	7.3707e+06	-48239.1	1005.82	-29763.1	0.000000	0.000000	7.276022	703.926	NaN	0.000000	0.001547	0.001687	28.0815	102.111	0.001876	54442.8	3.174499	-6.100749	704.299	1.246842	0.093893	0.093736	703.926	54442.8	0.084196	0.226582	3106.71	104496
577	2.000000	1.249316	7.3707e+06	-48239.1	1005.82	-29763.1	0.000000	0.000000	7.280085	746.411	NaN	0.000000	0.001571	0.001670	28.0806	103.752	0.001874	55361.9	3.811787	173.01	738.097	1.249129	0.096209	0.096023	746.411	55361.9	0.086098	0.235666	3167.24	104192
577	2.000000	1.251928	7.3707e+06	-48239.1	1005.82	-29763.1	0.000000	0.000000	7.284095	780.426	NaN	0.000000	0.001559	0.001687	28.0807	105.18	0.001823	57692.1	4.754724	-8.074960	774.153	1.251512	0.098822	0.098405	780.426	57692.1	0.088676	0.248249	3143.72	105790
577	2.000000	1.254383	7.3707e+06	-48239.1	1005.82	-29763.1	0.000000	0.000000	7.288249	821.742	NaN	0.000000	0.001579	0.001708	28.0805	106.933	0.001782	60000.6	4.292165	171.678	814.256	1.254062	0.101277	0.100956	821.742	60000.6	0.091005	0.259879	3162.02	107533
577	2.000000	1.256853	7.3707e+06	-48239.1	1005.82	-29763.1	0.000000	0.000000	7.291780	847.535	NaN	0.000000	0.001608	0.001706	28.0806	110.002	0.001883	58417.3	3.943945	-7.670758	838.362	1.256599	0.103747	0.103493	847.535	58417.3	0.092866	0.269346	3146.64	102839