File: remote_trans/data/nanoindenter/0828-1/data/Data_2025-08-06,11h17m57s/2025-07-22_16-23-58_1_613.txt
2025-07-22, 16:23:58, 1
Index	Phase	Displacement	Time	Pos X	Pos Y	Pos Z	Rot A	Rot B	Piezo Z	Force A	Force B	Gripper	Voltage A	Voltage B	Temperature	Amplitude force	Amplitude pos	Stiffness	Phase shift	Phase excitation	Force A raw	Displacement raw	HMax	HMax raw	Real Force	Real Stiffness	Contact Depth	Area	Hardness	Reduced Mod.
[#]	[#]	[um]	[s]	[um]	[um]	[um]	[m°]	[m°]	[um]	[uN]	[uN]	[V]	[V]	[V]	[°C]	[uN]	[um]	[N/m]	[°]	[°]	[uN]	[um]	[um]	[um]	[uN]	[N/m]	[um]	[um^2]	[MPa]	[MPa]
613	1.000000	0.002930	7.37105e+06	-46439.1	1005.82	-29769.1	0.000000	0.000000	6.002785	-0.051864	NaN	0.000000	0.001543	0.001674	28.0827	0.122013	0.000965	126.39	39.1478	-165.99	0.042940	0.001712	-1.065814	-1.067032	-0.051864	126.39	-1.065506	-1.725097E+14	3.006454E-16	NaN
613	1.000000	0.010896	7.37105e+06	-46439.1	1005.82	-29769.1	0.000000	0.000000	6.010752	-0.018691	NaN	0.000000	0.001548	0.001676	28.0827	0.079957	0.000936	85.3984	-43.6458	-168.409	-0.124047	0.009589	-1.057848	-1.059155	-0.018691	85.3984	-1.057684	-1.354246E+14	1.380203E-16	NaN
613	1.000000	0.018901	7.37105e+06	-46439.1	1005.82	-29769.1	0.000000	0.000000	6.018757	-0.044334	NaN	0.000000	0.001541	0.001696	28.0828	0.080660	0.001722	46.8352	42.6172	-166.031	-0.038007	0.017610	-1.049843	-1.051134	-0.044334	46.8352	-1.049133	-1.039338E+14	4.265603E-16	NaN
613	1.000000	0.026957	7.37105e+06	-46439.1	1005.82	-29769.1	0.000000	0.000000	6.026813	-0.033854	NaN	0.000000	0.001573	0.001709	28.083	0.062944	0.001680	37.4581	151.371	-164.246	-0.051685	0.025612	-1.041787	-1.043132	-0.033854	37.4581	-1.041109	-8.107326E+13	4.175766E-16	NaN
613	1.000000	0.034906	7.37105e+06	-46439.1	1005.82	-29769.1	0.000000	0.000000	6.034762	-0.050792	NaN	0.000000	0.001582	0.001697	28.0829	0.030159	0.001898	15.891	-138.723	-167.441	-0.040409	0.033570	-1.033838	-1.035174	-0.050792	15.891	-1.031441	-6.009750E+13	8.451680E-16	NaN
613	1.000000	0.042899	7.37105e+06	-46439.1	1005.82	-29769.1	0.000000	0.000000	6.042759	0.063397	NaN	0.000000	0.001560	0.001656	28.0843	0.047516	0.001972	24.0899	-26.3128	-168.785	0.019105	0.041590	-1.025845	-1.027154	0.063397	24.0899	-1.027819	-5.372069E+13	-1.180127E-15	NaN
613	1.000000	0.050866	7.37105e+06	-46439.1	1005.82	-29769.1	0.000000	0.000000	6.050724	0.024478	NaN	0.000000	0.001564	0.001657	28.0842	0.055788	0.001914	29.1431	81.5299	-165.499	0.037749	0.049534	-1.017878	-1.019210	0.024478	29.1431	-1.018508	-4.026045E+13	-6.079923E-16	NaN
613	1.000000	0.058897	7.37105e+06	-46439.1	1005.82	-29769.1	0.000000	0.000000	6.058750	-0.096264	NaN	0.000000	0.001567	0.001672	28.0843	0.050377	0.001957	25.7451	-31.2566	-166.578	0.007016	0.057609	-1.009847	-1.011135	-0.096264	25.7451	-1.007043	-2.822143E+13	3.411035E-15	NaN
613	1.000000	0.066902	7.37105e+06	-46439.1	1005.82	-29769.1	0.000000	0.000000	6.066760	0.005081	NaN	0.000000	0.001553	0.001686	28.0839	0.088531	0.001966	45.0402	-105.052	-165.553	-0.018450	0.065555	-1.001842	-1.003189	0.005081	45.0402	-1.001926	-2.408256E+13	-2.109881E-16	NaN
613	1.000000	0.074893	7.37105e+06	-46439.1	1005.82	-29769.1	0.000000	0.000000	6.074750	-0.024491	NaN	0.000000	0.001562	0.001627	28.0842	0.105986	0.002096	50.5706	-3.789480	-164.319	-0.003543	0.073590	-0.993851	-0.995154	-0.024491	50.5706	-0.993488	-1.853871E+13	1.321088E-15	NaN
613	1.000000	0.082888	7.37105e+06	-46439.1	1005.82	-29769.1	0.000000	0.000000	6.082746	0.000101	NaN	0.000000	0.001570	0.001691	28.0841	0.023466	0.002102	11.1639	137.816	-165.962	-0.005139	0.081588	-0.985856	-0.987156	0.000101	11.1639	-0.985862	-1.463467E+13	-6.870680E-18	NaN
613	1.000000	0.090902	7.37105e+06	-46439.1	1005.82	-29769.1	0.000000	0.000000	6.090758	-0.040556	NaN	0.000000	0.001541	0.001681	28.0843	0.053128	0.002039	26.0571	173.303	-163.655	-0.037664	0.089611	-0.977842	-0.979133	-0.040556	26.0571	-0.976675	-1.100544E+13	3.685066E-15	NaN
613	1.000000	0.098889	7.37105e+06	-46439.1	1005.82	-29769.1	0.000000	0.000000	6.098744	-0.063494	NaN	0.000000	0.001542	0.001648	28.0843	0.143973	0.002059	69.9155	10.6933	-163.478	-0.082394	0.097583	-0.969855	-0.971161	-0.063494	69.9155	-0.969174	-8.720254E+12	7.281203E-15	NaN
613	1.000000	0.106886	7.37105e+06	-46439.1	1005.82	-29769.1	0.000000	0.000000	6.106741	-0.051933	NaN	0.000000	0.001584	0.001643	28.0839	0.074415	0.001994	37.3168	-163.707	-164.936	-0.087746	0.105593	-0.961858	-0.963151	-0.051933	37.3168	-0.960815	-6.727471E+12	7.719582E-15	NaN
613	1.000000	0.114939	7.37105e+06	-46439.1	1005.82	-29769.1	0.000000	0.000000	6.114797	-0.004587	NaN	0.000000	0.001607	0.001690	28.0843	0.111575	0.001961	56.8916	-141.753	-163.037	-0.002649	0.113580	-0.953805	-0.955164	-0.004587	56.8916	-0.953744	-5.401580E+12	8.492434E-16	NaN
613	1.000000	0.122898	7.37105e+06	-46439.1	1005.82	-29769.1	0.000000	0.000000	6.122754	-0.038651	NaN	0.000000	0.001634	0.001666	28.0842	0.107634	0.001976	54.4705	-22.8004	-165.299	-0.117975	0.121645	-0.945846	-0.947099	-0.038651	54.4705	-0.945313	-4.157340E+12	9.296970E-15	NaN
613	1.000000	0.130904	7.37105e+06	-46439.1	1005.82	-29769.2	0.000000	0.000000	6.130759	-0.072919	NaN	0.000000	0.001634	0.001659	28.0844	0.018634	0.001995	9.339000	28.4622	-164.363	-0.063146	0.129633	-0.937840	-0.939111	-0.072919	9.339000	-0.931984	-2.747693E+12	2.653826E-14	NaN
613	1.000000	0.138914	7.37105e+06	-46439.1	1005.82	-29769.2	0.000000	0.000000	6.138771	-0.026396	NaN	0.000000	0.001613	0.001678	28.0844	0.049454	0.001818	27.196	14.8296	-166.25	-0.014940	0.137648	-0.929830	-0.931096	-0.026396	27.196	-0.929102	-2.512326E+12	1.050663E-14	NaN
613	1.000000	0.146917	7.37105e+06	-46439.1	1005.82	-29769.2	0.000000	0.000000	6.146776	0.031727	NaN	0.000000	0.001600	0.001636	28.0844	0.111337	0.001896	58.7272	88.7428	-168.364	0.065743	0.145607	-0.921827	-0.923137	0.031727	58.7272	-0.922232	-2.029267E+12	-1.563465E-14	NaN
613	1.000000	0.154972	7.37105e+06	-46439.1	1005.82	-29769.2	0.000000	0.000000	6.154829	-0.020668	NaN	0.000000	0.001618	0.001644	28.0845	0.059292	0.002059	28.7915	-125.798	-166.014	-0.039561	0.153589	-0.913772	-0.915155	-0.020668	28.7915	-0.913234	-1.534038E+12	1.347292E-14	NaN
613	1.000000	0.162930	7.37105e+06	-46439.1	1005.82	-29769.2	0.000000	0.000000	6.162787	-0.003389	NaN	0.000000	0.001596	0.001667	28.0843	0.068791	0.002004	34.3189	-135.176	-165.954	0.015598	0.161640	-0.905814	-0.907104	-0.003389	34.3189	-0.905740	-1.215128E+12	2.789347E-15	NaN
613	1.000000	0.170949	7.37105e+06	-46439.1	1005.82	-29769.2	0.000000	0.000000	6.170804	-0.069524	NaN	0.000000	0.001599	0.001687	28.0843	0.113215	0.002095	54.0432	103.785	-166.154	-0.039356	0.169583	-0.897795	-0.899161	-0.069524	54.0432	-0.896830	-9.209363E+11	7.549281E-14	NaN
613	1.000000	0.178927	7.37105e+06	-46439.1	1005.82	-29769.2	0.000000	0.000000	6.178786	0.025271	NaN	0.000000	0.001606	0.001669	28.0833	0.032481	0.002013	16.1381	147.152	-164.874	-0.052514	0.177626	-0.889817	-0.891118	0.025271	16.1381	-0.890991	-7.679147E+11	-3.290802E-14	NaN
613	1.000000	0.186925	7.37105e+06	-46439.1	1005.82	-29769.2	0.000000	0.000000	6.186783	0.000400	NaN	0.000000	0.001601	0.001654	28.0828	0.053324	0.002009	26.5461	-110.172	-167.526	0.036951	0.185641	-0.881819	-0.883103	0.000400	26.5461	-0.881830	-5.773730E+11	-6.926655E-16	NaN
613	1.000000	0.194946	7.37105e+06	-46439.1	1005.82	-29769.2	0.000000	0.000000	6.194799	-0.095247	NaN	0.000000	0.001613	0.001671	28.0832	0.066844	0.002073	32.2437	-1.025319	-167.25	-0.103841	0.193638	-0.873799	-0.875106	-0.095247	32.2437	-0.871583	-4.196244E+11	2.269814E-13	NaN
613	1.000000	0.202950	7.37105e+06	-46439.1	1005.82	-29769.2	0.000000	0.000000	6.202805	-0.061698	NaN	0.000000	0.001598	0.001660	28.0827	0.054731	0.001954	28.0072	-176.564	-165.798	-0.153357	0.201647	-0.865794	-0.867097	-0.061698	28.0072	-0.864142	-3.327927E+11	1.853932E-13	NaN
613	1.000000	0.210955	7.37105e+06	-46439.1	1005.82	-29769.2	0.000000	0.000000	6.210811	-0.021112	NaN	0.000000	0.001621	0.001668	28.0828	0.046004	0.002014	22.8437	-113.89	-166.475	0.033899	0.209625	-0.857790	-0.859119	-0.021112	22.8437	-0.857096	-2.671881E+11	7.901640E-14	NaN
613	1.000000	0.218998	7.37105e+06	-46439.1	1005.82	-29769.2	0.000000	0.000000	6.218853	-0.042714	NaN	0.000000	0.001551	0.001654	28.0831	0.033437	0.001866	17.9202	-89.8071	-169.265	-0.070160	0.217665	-0.849746	-0.851079	-0.042714	17.9202	-0.847959	-2.009522E+11	2.125564E-13	NaN
613	1.000000	0.226965	7.37105e+06	-46439.1	1005.82	-29769.2	0.000000	0.000000	6.226820	-0.049852	NaN	0.000000	0.001559	0.001667	28.0829	0.125570	0.001994	62.9844	152.436	-167.139	-0.138335	0.225660	-0.841779	-0.843084	-0.049852	62.9844	-0.841186	-1.626884E+11	3.064285E-13	NaN
613	1.000000	0.234938	7.37105e+06	-46439.1	1005.82	-29769.2	0.000000	0.000000	6.234793	-0.044042	NaN	0.000000	0.001550	0.001711	28.0832	0.036484	0.001976	18.466	0.655805	-165.399	-0.059317	0.233677	-0.833806	-0.835067	-0.044042	18.466	-0.832018	-1.222169E+11	3.603602E-13	NaN
613	1.000000	0.242974	7.37105e+06	-46439.1	1005.82	-29769.2	0.000000	0.000000	6.242829	-0.045802	NaN	0.000000	0.001559	0.001705	28.083	0.048101	0.001998	24.0754	-70.222	-167.109	-0.044678	0.241637	-0.825771	-0.827107	-0.045802	24.0754	-0.824344	-9.618522E+10	4.761826E-13	NaN
613	1.000000	0.250979	7.37105e+06	-46439.1	1005.82	-29769.2	0.000000	0.000000	6.250835	-0.031371	NaN	0.000000	0.001585	0.001676	28.0831	0.091328	0.002043	44.7037	89.816	-165.572	-0.016527	0.249623	-0.817765	-0.819121	-0.031371	44.7037	-0.817239	-7.704890E+10	4.071531E-13	NaN
613	1.000000	0.258972	7.37105e+06	-46439.1	1005.82	-29769.2	0.000000	0.000000	6.258827	-0.063483	NaN	0.000000	0.001574	0.001697	28.0829	0.123123	0.002197	56.0465	18.4138	-167.385	-0.107250	0.257608	-0.809772	-0.811136	-0.063483	56.0465	-0.808923	-5.942298E+10	1.068326E-12	NaN
613	1.000000	0.266951	7.37105e+06	-46439.1	1005.82	-29769.2	0.000000	0.000000	6.266812	0.070637	NaN	0.000000	0.001528	0.001699	28.0831	0.123061	0.001946	63.2351	133.933	-163.247	-0.045985	0.265658	-0.801793	-0.803086	0.070637	63.2351	-0.802630	-4.881658E+10	-1.446978E-12	NaN
613	1.000000	0.274985	7.37105e+06	-46439.1	1005.82	-29769.2	0.000000	0.000000	6.274840	-0.057215	NaN	0.000000	0.001519	0.001647	28.0833	0.178391	0.001924	92.6952	-5.288389	-163.698	-0.012536	0.273721	-0.793759	-0.795023	-0.057215	92.6952	-0.793296	-3.646214E+10	1.569159E-12	NaN
613	1.000000	0.282982	7.37105e+06	-46439.1	1005.82	-29769.2	0.000000	0.000000	6.282839	-0.019639	NaN	0.000000	0.001532	0.001640	28.083	0.111549	0.001850	60.3078	-100.332	-163.518	0.002648	0.281713	-0.785762	-0.787031	-0.019639	60.3078	-0.785517	-2.858877E+10	6.869650E-13	NaN
613	1.000000	0.290977	7.37105e+06	-46439.1	1005.82	-29769.2	0.000000	0.000000	6.290832	-0.045732	NaN	0.000000	0.001517	0.001683	28.0831	0.099282	0.001934	51.3396	-175.498	-163.853	0.015645	0.289682	-0.777767	-0.779062	-0.045732	51.3396	-0.777099	-2.196895E+10	2.081676E-12	NaN
613	1.000000	0.298987	7.37105e+06	-46439.1	1005.82	-29769.2	0.000000	0.000000	6.298842	-0.065426	NaN	0.000000	0.001538	0.001691	28.0832	0.095493	0.002220	43.0108	2.188689	-165.007	-0.076727	0.297718	-0.769757	-0.771026	-0.065426	43.0108	-0.768616	-1.684570E+10	3.883818E-12	NaN
613	1.000000	0.306981	7.37105e+06	-46439.1	1005.82	-29769.2	0.000000	0.000000	6.306840	0.042876	NaN	0.000000	0.001524	0.001678	28.083	0.050005	0.001940	25.7768	19.692	-162.569	0.095587	0.305684	-0.761763	-0.763060	0.042876	25.7768	-0.763011	-1.413370E+10	-3.033578E-12	NaN
613	1.000000	0.314992	7.37105e+06	-46439.1	1005.82	-29769.2	0.000000	0.000000	6.314846	-0.094058	NaN	0.000000	0.001509	0.001674	28.0841	0.041864	0.001890	22.1477	-3.400609	-167.07	-0.095722	0.313658	-0.753752	-0.755086	-0.094058	22.1477	-0.750567	-9.570469E+9	9.827897E-12	NaN
613	1.000000	0.323018	7.37105e+06	-46439.1	1005.82	-29769.2	0.000000	0.000000	6.322871	-0.098907	NaN	0.000000	0.001492	0.001676	28.0841	0.152074	0.001978	76.8841	-158.763	-163.517	-0.071849	0.321655	-0.745726	-0.747089	-0.098907	76.8841	-0.744761	-7.978118E+9	1.239725E-11	NaN
613	1.000000	0.331037	7.37105e+06	-46439.1	1005.82	-29769.2	0.000000	0.000000	6.330894	0.003038	NaN	0.000000	0.001490	0.001659	28.0842	0.103784	0.002115	49.067	66.8224	-165.454	0.026308	0.329716	-0.737707	-0.739028	0.003038	49.067	-0.737754	-6.404103E+9	-4.744494E-13	NaN
613	1.000000	0.339019	7.37105e+06	-46439.1	1005.82	-29769.2	0.000000	0.000000	6.338874	-0.061210	NaN	0.000000	0.001566	0.001673	28.0843	0.077009	0.002063	37.3331	108.467	-165.108	-0.018781	0.337647	-0.729725	-0.731097	-0.061210	37.3331	-0.728495	-4.789559E+9	1.277984E-11	NaN
613	1.000000	0.347002	7.37105e+06	-46439.1	1005.82	-29769.2	0.000000	0.000000	6.346859	-0.013453	NaN	0.000000	0.001525	0.001644	28.0842	0.134126	0.001971	68.0448	-169.757	-168.025	-0.052918	0.345690	-0.721742	-0.723054	-0.013453	68.0448	-0.721593	-3.856582E+9	3.488381E-12	NaN
613	1.000000	0.355015	7.37105e+06	-46439.1	1005.82	-29769.2	0.000000	0.000000	6.354872	-0.024465	NaN	0.000000	0.001562	0.001666	28.0839	0.063188	0.002026	31.1946	-39.764	-165.26	0.033056	0.353705	-0.713729	-0.715039	-0.024465	31.1946	-0.713141	-2.957365E+9	8.272607E-12	NaN
613	1.000000	0.363028	7.37105e+06	-46439.1	1005.82	-29769.2	0.000000	0.000000	6.362885	-0.015867	NaN	0.000000	0.001566	0.001671	28.084	0.084733	0.001920	44.1244	-41.8024	-162.337	-0.014418	0.361658	-0.705716	-0.707086	-0.015867	44.1244	-0.705446	-2.322169E+9	6.832905E-12	NaN
613	1.000000	0.371022	7.37105e+06	-46439.1	1005.82	-29769.2	0.000000	0.000000	6.370878	-0.047801	NaN	0.000000	0.001516	0.001658	28.0839	0.085468	0.001917	44.5778	35.5212	-163.693	-0.091351	0.369666	-0.697722	-0.699078	-0.047801	44.5778	-0.696918	-1.775952E+9	2.691551E-11	NaN
613	1.000000	0.379016	7.37105e+06	-46439.1	1005.82	-29769.2	0.000000	0.000000	6.378874	0.003566	NaN	0.000000	0.001552	0.001701	28.0842	0.038683	0.002074	18.6481	-24.0146	-165.156	-0.142223	0.377711	-0.689728	-0.691033	0.003566	18.6481	-0.689871	-1.422857E+9	-2.506515E-12	NaN
613	1.000000	0.387012	7.37105e+06	-46439.1	1005.82	-29769.2	0.000000	0.000000	6.386865	-0.105354	NaN	0.000000	0.001520	0.001687	28.084	0.065087	0.002073	31.3917	-166.834	-165.877	-0.064373	0.385708	-0.681732	-0.683036	-0.105354	31.3917	-0.679215	-1.017336E+9	1.035590E-10	NaN
613	1.000000	0.395034	7.37105e+06	-46439.1	1005.82	-29769.2	0.000000	0.000000	6.394890	-0.030008	NaN	0.000000	0.001559	0.001714	28.0839	0.088400	0.002177	40.6014	148.605	-164.834	-0.036908	0.393705	-0.673710	-0.675039	-0.030008	40.6014	-0.673156	-8.405798E+8	3.569884E-11	NaN
613	1.000000	0.403037	7.37105e+06	-46439.1	1005.82	-29769.2	0.000000	0.000000	6.402895	0.008250	NaN	0.000000	0.001530	0.001705	28.0841	0.071935	0.001996	36.0403	5.570333	-166.715	0.033668	0.401762	-0.665707	-0.666982	0.008250	36.0403	-0.665879	-6.682999E+8	-1.234422E-11	NaN
613	1.000000	0.411052	7.37105e+06	-46439.1	1005.82	-29769.2	0.000000	0.000000	6.410906	-0.089094	NaN	0.000000	0.001579	0.001662	28.0838	0.043955	0.002029	21.6668	-132.836	-166.842	0.011632	0.409776	-0.657692	-0.658968	-0.089094	21.6668	-0.654608	-4.683720E+8	1.902201E-10	NaN
613	1.000000	0.419062	7.37105e+06	-46439.1	1005.82	-29769.2	0.000000	0.000000	6.418921	0.046463	NaN	0.000000	0.001542	0.001671	28.0836	0.134533	0.001923	69.9577	102.817	-163.103	-0.036133	0.417727	-0.649682	-0.651017	0.046463	69.9577	-0.650180	-4.072922E+8	-1.140790E-10	NaN
613	1.000000	0.427075	7.37105e+06	-46439.1	1005.82	-29769.2	0.000000	0.000000	6.426930	-0.058306	NaN	0.000000	0.001593	0.001691	28.0838	0.079901	0.001995	40.0498	-32.7541	-168.248	-0.006273	0.425722	-0.641669	-0.643022	-0.058306	40.0498	-0.640577	-3.007524E+8	1.938677E-10	NaN
613	1.000000	0.435067	7.37105e+06	-46439.1	1005.82	-29769.2	0.000000	0.000000	6.434921	-0.069355	NaN	0.000000	0.001536	0.001720	28.0836	0.060507	0.002041	29.6392	92.4556	-167.694	-0.023124	0.433785	-0.633677	-0.634959	-0.069355	29.6392	-0.631922	-2.287809E+8	3.031492E-10	NaN
613	1.000000	0.443052	7.37105e+06	-46439.1	1005.82	-29769.2	0.000000	0.000000	6.442906	-0.077017	NaN	0.000000	0.001573	0.001681	28.0839	0.060295	0.002000	30.1402	145.334	-165.639	-0.048433	0.441710	-0.625692	-0.627034	-0.077017	30.1402	-0.623776	-1.768178E+8	4.355709E-10	NaN
613	1.000000	0.451045	7.37105e+06	-46439.1	1005.82	-29769.2	0.000000	0.000000	6.450902	-0.022826	NaN	0.000000	0.001503	0.001696	28.0827	0.081706	0.001896	43.0985	-50.7483	-162.93	-0.034174	0.449713	-0.617699	-0.619031	-0.022826	43.0985	-0.617301	-1.440578E+8	1.584529E-10	NaN
613	1.000000	0.459056	7.37105e+06	-46439.1	1005.82	-29769.2	0.000000	0.000000	6.458913	-0.016561	NaN	0.000000	0.001526	0.001693	28.0827	0.045874	0.002018	22.731	-94.7373	-164.396	-0.042878	0.457776	-0.609688	-0.610968	-0.016561	22.731	-0.609142	-1.112509E+8	1.488584E-10	NaN
613	1.000000	0.467076	7.37105e+06	-46439.1	1005.82	-29769.2	0.000000	0.000000	6.466933	-0.013630	NaN	0.000000	0.001517	0.001681	28.0831	0.039795	0.001832	21.7233	121.056	-165.206	0.024573	0.465814	-0.601668	-0.602930	-0.013630	21.7233	-0.601198	-8.648745E+7	1.575895E-10	NaN
613	1.000000	0.475056	7.37105e+06	-46439.1	1005.82	-29769.2	0.000000	0.000000	6.474913	-0.018125	NaN	0.000000	0.001523	0.001702	28.0826	0.031447	0.001897	16.5809	-11.23	-164.569	-0.113965	0.473820	-0.593688	-0.594924	-0.018125	16.5809	-0.592868	-6.640564E+7	2.729469E-10	NaN
613	1.000000	0.483055	7.37105e+06	-46439.1	1005.82	-29769.2	0.000000	0.000000	6.482913	0.011007	NaN	0.000000	0.001580	0.001685	28.0829	0.080773	0.002064	39.1387	28.2304	-167.632	-0.022606	0.481757	-0.585689	-0.586987	0.011007	39.1387	-0.585899	-5.322573E+7	-2.067912E-10	NaN
613	1.000000	0.491077	7.37105e+06	-46439.1	1005.82	-29769.2	0.000000	0.000000	6.490933	-0.034348	NaN	0.000000	0.001569	0.001701	28.0826	0.078400	0.002019	38.8229	-141.374	-168.269	-0.058596	0.489749	-0.577667	-0.578995	-0.034348	38.8229	-0.577003	-4.011953E+7	8.561539E-10	NaN
613	1.000000	0.499090	7.37105e+06	-46439.1	1005.82	-29769.2	0.000000	0.000000	6.498950	0.076523	NaN	0.000000	0.001533	0.001720	28.0828	0.039720	0.001988	19.9775	70.7258	-160.95	0.000339	0.497756	-0.569654	-0.570988	0.076523	19.9775	-0.572527	-3.479744E+7	-2.199088E-9	NaN
613	1.000000	0.507064	7.37105e+06	-46439.1	1005.82	-29769.2	0.000000	0.000000	6.506921	-0.022263	NaN	0.000000	0.001535	0.001738	28.0827	0.115555	0.002132	54.1904	3.557858	-164.473	-0.027852	0.505760	-0.561680	-0.562984	-0.022263	54.1904	-0.561372	-2.439787E+7	9.124849E-10	NaN
613	1.000000	0.515084	7.37105e+06	-46439.1	1005.82	-29769.2	0.000000	0.000000	6.514940	-0.039783	NaN	0.000000	0.001536	0.001702	28.0827	0.085786	0.002072	41.3984	-120.069	-168.303	0.007886	0.513780	-0.553660	-0.554964	-0.039783	41.3984	-0.552939	-1.864892E+7	2.133260E-9	NaN
613	1.000000	0.523095	7.37105e+06	-46439.1	1005.82	-29769.2	0.000000	0.000000	6.522947	-0.135402	NaN	0.000000	0.001546	0.001718	28.0828	0.061707	0.001907	32.3649	-34.7389	-168.226	-0.137749	0.521784	-0.545649	-0.546960	-0.135402	32.3649	-0.542511	-1.337156E+7	1.012615E-8	NaN
613	1.000000	0.531120	7.37105e+06	-46439.1	1005.82	-29769.2	0.000000	0.000000	6.530976	-0.039203	NaN	0.000000	0.001590	0.001702	28.0827	0.064670	0.002006	32.2429	-45.0938	-167.402	-0.012124	0.529789	-0.537624	-0.538955	-0.039203	32.2429	-0.536712	-1.111093E+7	3.528360E-9	NaN
613	1.000000	0.539099	7.37105e+06	-46439.1	1005.82	-29769.2	0.000000	0.000000	6.538954	-0.068640	NaN	0.000000	0.001561	0.001718	28.0829	0.064076	0.002071	30.9461	25.037	-167.416	-0.128430	0.537791	-0.529645	-0.530953	-0.068640	30.9461	-0.527981	-8.405e+06	8.166613E-9	NaN
613	1.000000	0.547112	7.37105e+06	-46439.1	1005.82	-29769.2	0.000000	0.000000	6.546969	0.000142	NaN	0.000000	0.001556	0.001680	28.0829	0.139532	0.002009	69.4592	82.4416	-163.27	-9.062638E-6	0.545770	-0.521632	-0.522974	0.000142	69.4592	-0.521634	-6.85989e+06	-2.073973E-11	NaN
613	1.000000	0.555093	7.37105e+06	-46439.1	1005.82	-29769.2	0.000000	0.000000	6.554946	-0.107533	NaN	0.000000	0.001587	0.001728	28.0829	0.017545	0.002114	8.300290	123.269	-166.662	-0.057756	0.553827	-0.513651	-0.514917	-0.107533	8.300290	-0.503935	-3.88947e+06	2.764726E-8	NaN
613	1.000000	0.563105	7.37105e+06	-46439.1	1005.82	-29769.2	0.000000	0.000000	6.562960	-0.044602	NaN	0.000000	0.001549	0.001669	28.0829	0.042375	0.001901	22.2914	153.285	-165.22	0.006102	0.561791	-0.505639	-0.506953	-0.044602	22.2914	-0.504139	-3.91504e+06	1.139257E-8	NaN
613	1.000000	0.571095	7.37105e+06	-46439.1	1005.82	-29769.2	0.000000	0.000000	6.570950	-0.057029	NaN	0.000000	0.001579	0.001678	28.0826	0.080510	0.001950	41.2778	111.491	-168.372	-0.049884	0.569799	-0.497649	-0.498945	-0.057029	41.2778	-0.496613	-3.07435e+06	1.854989E-8	NaN
613	1.000000	0.579140	7.37105e+06	-46439.1	1005.82	-29769.2	0.000000	0.000000	6.578999	0.033336	NaN	0.000000	0.001578	0.001678	28.0827	0.063242	0.002001	31.6061	-63.6786	-167.062	0.037420	0.577816	-0.489604	-0.490928	0.033336	31.6061	-0.490395	-2.51719e+06	-1.324335E-8	NaN
613	1.000000	0.587159	7.37105e+06	-46439.1	1005.82	-29769.2	0.000000	0.000000	6.587014	-0.048086	NaN	0.000000	0.001535	0.001718	28.0842	0.044410	0.002096	21.1915	-46.7221	-165.725	-0.101344	0.585867	-0.481585	-0.482877	-0.048086	21.1915	-0.479883	-1.79431e+06	2.679918E-8	NaN
613	1.000000	0.595119	7.37105e+06	-46439.1	1005.82	-29769.2	0.000000	0.000000	6.594977	0.019047	NaN	0.000000	0.001572	0.001680	28.0844	0.030357	0.002080	14.593	-103.412	-164.403	-0.054828	0.593805	-0.473625	-0.474939	0.019047	14.593	-0.474604	-1.5134e+06	-1.258537E-8	NaN
613	1.000000	0.603107	7.37105e+06	-46439.1	1005.82	-29769.2	0.000000	0.000000	6.602965	0.014433	NaN	0.000000	0.001574	0.001719	28.0844	0.106233	0.002047	51.8885	-64.2893	-164.86	-0.061634	0.601825	-0.465637	-0.466919	0.014433	51.8885	-0.465846	-1.14056e+06	-1.265468E-8	NaN
613	1.000000	0.611122	7.37105e+06	-46439.1	1005.82	-29769.2	0.000000	0.000000	6.610981	0.016081	NaN	0.000000	0.001547	0.001721	28.0842	0.074240	0.002041	36.3789	-158.896	-165.895	-0.048671	0.609808	-0.457622	-0.458936	0.016081	36.3789	-0.457953	-883584	-1.820012E-8	NaN
613	1.000000	0.619147	7.37105e+06	-46439.1	1005.82	-29769.2	0.000000	0.000000	6.619004	-0.014865	NaN	0.000000	0.001565	0.001703	28.084	0.105790	0.002071	51.0719	73.0699	-165.843	-0.092228	0.617848	-0.449597	-0.450896	-0.014865	51.0719	-0.449379	-669257	2.221083E-8	NaN
613	1.000000	0.627117	7.37105e+06	-46439.1	1005.82	-29769.2	0.000000	0.000000	6.626976	0.029226	NaN	0.000000	0.001547	0.001729	28.0843	0.019527	0.001926	10.1391	-16.1149	-163.806	0.027087	0.625805	-0.441627	-0.442939	0.029226	10.1391	-0.443789	-558232	-5.235513E-8	NaN
613	1.000000	0.635128	7.37105e+06	-46439.1	1005.82	-29769.2	0.000000	0.000000	6.634984	-0.038675	NaN	0.000000	0.001513	0.001705	28.0844	0.054643	0.001985	27.5274	-158.694	-162.064	-0.022479	0.633797	-0.433616	-0.434947	-0.038675	27.5274	-0.432562	-387521	9.980219E-8	NaN
613	1.000000	0.643132	7.37105e+06	-46439.1	1005.82	-29769.2	0.000000	0.000000	6.642989	-0.020832	NaN	0.000000	0.001552	0.001710	28.0844	0.067040	0.002030	33.0268	-162.214	-165.986	-0.006510	0.641789	-0.425612	-0.426956	-0.020832	33.0268	-0.425139	-304264	6.846556E-8	NaN
613	1.000000	0.651136	7.37105e+06	-46439.1	1005.82	-29769.2	0.000000	0.000000	6.650993	-0.023315	NaN	0.000000	0.001558	0.001670	28.0845	0.164133	0.001990	82.4893	150.64	-167.099	-0.040955	0.649794	-0.417608	-0.418950	-0.023315	82.4893	-0.417396	-236302	9.866524E-8	NaN
613	1.000000	0.659142	7.37105e+06	-46439.1	1005.82	-29769.2	0.000000	0.000000	6.658997	-0.057357	NaN	0.000000	0.001527	0.001647	28.0843	0.078077	0.001973	39.5812	136.801	-164.48	-0.033894	0.657806	-0.409602	-0.410938	-0.057357	39.5812	-0.408515	-176717	3.245713E-7	NaN
613	1.000000	0.667146	7.37105e+06	-46439.1	1005.82	-29769.2	0.000000	0.000000	6.667003	-0.012258	NaN	0.000000	0.001615	0.001666	28.0844	0.020359	0.002042	9.971053	21.4903	-167.628	-0.057480	0.665912	-0.401598	-0.402832	-0.012258	9.971053	-0.400676	-136658	8.969942E-8	NaN
613	1.000000	0.675171	7.37105e+06	-46439.1	1005.82	-29769.2	0.000000	0.000000	6.675027	-0.042114	NaN	0.000000	0.001587	0.001685	28.0843	0.019546	0.001989	9.824637	110.877	-164.88	-0.031694	0.673815	-0.393573	-0.394929	-0.042114	9.824637	-0.390358	-97340.2	4.326500E-7	NaN
613	1.000000	0.683188	7.37105e+06	-46439.1	1005.82	-29769.2	0.000000	0.000000	6.683044	-0.035678	NaN	0.000000	0.001597	0.001726	28.0847	0.083311	0.002002	41.6085	137.539	-163.905	0.013650	0.681886	-0.385556	-0.386858	-0.035678	41.6085	-0.384913	-81346	4.385995E-7	NaN
613	1.000000	0.691188	7.37105e+06	-46439.1	1005.82	-29769.2	0.000000	0.000000	6.691044	-0.034420	NaN	0.000000	0.001591	0.001700	28.0849	0.074135	0.001949	38.0322	-92.8143	-168.048	-0.078975	0.689837	-0.377556	-0.378907	-0.034420	38.0322	-0.376877	-62379.8	5.517823E-7	NaN
613	1.000000	0.699187	7.37105e+06	-46439.1	1005.82	-29769.2	0.000000	0.000000	6.699043	-0.047246	NaN	0.000000	0.001536	0.001696	28.0845	0.068646	0.002113	32.4823	51.1322	-167.857	-0.099574	0.697815	-0.369557	-0.370929	-0.047246	32.4823	-0.368466	-47209.7	1.000778E-6	NaN
613	1.000000	0.707169	7.37105e+06	-46439.1	1005.82	-29769.2	0.000000	0.000000	6.707027	0.016600	NaN	0.000000	0.001535	0.001729	28.0845	0.026360	0.001972	13.3652	92.9823	-169.091	0.008392	0.705893	-0.361575	-0.362851	0.016600	13.3652	-0.362507	-38731.5	-4.285887E-7	NaN
613	1.000000	0.715196	7.37105e+06	-46439.1	1005.82	-29769.2	0.000000	0.000000	6.715054	0.001374	NaN	0.000000	0.001534	0.001703	28.0843	0.034878	0.001961	17.7846	-29.3835	-166.618	-0.017016	0.713918	-0.353548	-0.354826	0.001374	17.7846	-0.353606	-28793.8	-4.772864E-8	NaN
613	1.000000	0.723170	7.37105e+06	-46439.1	1005.82	-29769.2	0.000000	0.000000	6.723025	-0.044033	NaN	0.000000	0.001543	0.001705	28.083	0.042251	0.001935	21.8298	158.469	-164.174	-0.051152	0.721867	-0.345574	-0.346877	-0.044033	21.8298	-0.344061	-20926.8	2.104122E-6	NaN
613	1.000000	0.731157	7.37105e+06	-46439.1	1005.82	-29769.2	0.000000	0.000000	6.731017	0.049531	NaN	0.000000	0.001546	0.001716	28.0831	0.010701	0.001992	5.371763	130.486	-166.342	-0.019977	0.729894	-0.337587	-0.338850	0.049531	5.371763	-0.344502	-21238.2	-2.332179E-6	NaN
613	1.000000	0.739164	7.37105e+06	-46439.1	1005.82	-29769.2	0.000000	0.000000	6.739021	-0.024202	NaN	0.000000	0.001540	0.001704	28.0832	0.037053	0.001885	19.6613	141.14	-168.984	-0.002653	0.737860	-0.329580	-0.330884	-0.024202	19.6613	-0.328656	-12467.2	1.941265E-6	NaN
613	1.000000	0.747187	7.37105e+06	-46439.1	1005.82	-29769.2	0.000000	0.000000	6.747041	-0.097862	NaN	0.000000	0.001554	0.001676	28.0831	0.110988	0.002007	55.3039	96.8523	-169.27	-0.107532	0.745854	-0.321557	-0.322890	-0.097862	55.3039	-0.320230	-9376.03	1.043748E-5	NaN
613	1.000000	0.755164	7.37105e+06	-46439.1	1005.82	-29769.2	0.000000	0.000000	6.755023	0.045793	NaN	0.000000	0.001519	0.001670	28.0829	0.050745	0.002034	24.9493	97.9956	-165.505	-0.001394	0.753849	-0.313580	-0.314895	0.045793	24.9493	-0.314957	-7839.83	-5.841114E-6	NaN
613	1.000000	0.763194	7.37105e+06	-46439.1	1005.82	-29769.2	0.000000	0.000000	6.763051	-0.004761	NaN	0.000000	0.001551	0.001708	28.0829	0.069106	0.002088	33.0935	-144.045	-169.69	0.059524	0.761825	-0.305550	-0.306919	-0.004761	33.0935	-0.305442	-5669.11	8.398580E-7	NaN
613	1.000000	0.771214	7.37105e+06	-46439.1	1005.82	-29769.2	0.000000	0.000000	6.771070	-0.051992	NaN	0.000000	0.001529	0.001682	28.083	0.010149	0.001993	5.092031	146.193	-163.978	-0.011225	0.769934	-0.297530	-0.298810	-0.051992	5.092031	-0.289872	-3321.86	1.565164E-5	NaN
613	1.000000	0.779220	7.37105e+06	-46439.1	1005.82	-29769.2	0.000000	0.000000	6.779076	-0.042874	NaN	0.000000	0.001570	0.001680	28.0833	0.082604	0.002008	41.138	106.881	-164.68	-0.023137	0.777876	-0.289524	-0.290868	-0.042874	41.138	-0.288742	-3194.87	1.341956E-5	NaN
613	1.000000	0.787218	7.37105e+06	-46439.1	1005.82	-29769.2	0.000000	0.000000	6.787075	-0.004839	NaN	0.000000	0.001538	0.001686	28.0832	0.138041	0.002001	68.9851	2.593368	-166.677	-0.020678	0.785893	-0.281526	-0.282851	-0.004839	68.9851	-0.281474	-2484.23	1.948025E-6	NaN
613	1.000000	0.795220	7.37105e+06	-46439.1	1005.82	-29769.2	0.000000	0.000000	6.795076	-0.043055	NaN	0.000000	0.001539	0.001659	28.0832	0.064237	0.001907	33.6872	134.472	-166.447	0.003545	0.793928	-0.273524	-0.274816	-0.043055	33.6872	-0.272565	-1821.81	2.363321E-5	NaN
613	1.000000	0.803198	7.37105e+06	-46439.1	1005.82	-29769.2	0.000000	0.000000	6.803052	-0.094697	NaN	0.000000	0.001513	0.001705	28.0831	0.131877	0.002143	61.5494	100.653	-165.505	-0.101046	0.801877	-0.265546	-0.266867	-0.094697	61.5494	-0.264392	-1368.06	6.922008E-5	NaN
613	1.000000	0.811202	7.37105e+06	-46439.1	1005.82	-29769.2	0.000000	0.000000	6.811058	-0.042711	NaN	0.000000	0.001554	0.001726	28.0828	0.053300	0.002143	24.8734	42.2599	-165.537	0.016038	0.809858	-0.257542	-0.258886	-0.042711	24.8734	-0.256254	-1026.61	4.160411E-5	NaN
613	1.000000	0.819190	7.37105e+06	-46439.1	1005.82	-29769.2	0.000000	0.000000	6.819049	0.029454	NaN	0.000000	0.001568	0.001685	28.083	0.029023	0.002016	14.3981	124.84	-166.69	0.055412	0.817926	-0.249554	-0.250818	0.029454	14.3981	-0.251088	-854.655	-3.446332E-5	NaN
613	1.000000	0.827222	7.37105e+06	-46439.1	1005.82	-29769.2	0.000000	0.000000	6.827082	0.046165	NaN	0.000000	0.001552	0.001690	28.0826	0.095862	0.002022	47.4207	166.544	-163.007	0.010300	0.825911	-0.241522	-0.242833	0.046165	47.4207	-0.242252	-623.281	-7.406788E-5	NaN
613	1.000000	0.835230	7.37105e+06	-46439.1	1005.82	-29769.2	0.000000	0.000000	6.835087	-0.021078	NaN	0.000000	0.001510	0.001683	28.0832	0.103604	0.002019	51.3125	40.387	-167.242	-0.108629	0.833975	-0.233514	-0.234769	-0.021078	51.3125	-0.233206	-449.829	4.685718E-5	NaN
613	1.000000	0.843226	7.37105e+06	-46439.1	1005.82	-29769.2	0.000000	0.000000	6.843084	0.006874	NaN	0.000000	0.001568	0.001698	28.0831	0.056562	0.001908	29.6481	-117.174	-164.925	-0.004014	0.842007	-0.225518	-0.226737	0.006874	29.6481	-0.225692	-342.234	-2.008432E-5	NaN
613	1.000000	0.851237	7.37105e+06	-46439.1	1005.82	-29769.2	0.000000	0.000000	6.851094	0.001139	NaN	0.000000	0.001552	0.001699	28.0829	0.074048	0.002014	36.7687	-133.366	-162.429	-0.071676	0.849842	-0.217507	-0.218902	0.001139	36.7687	-0.217530	-253.598	-4.492061E-6	NaN
613	1.000000	0.859221	7.37105e+06	-46439.1	1005.82	-29769.2	0.000000	0.000000	6.859076	-0.063273	NaN	0.000000	0.001504	0.001709	28.0841	0.091476	0.002000	45.7309	-143.704	-168.038	-0.124428	0.857974	-0.209523	-0.210770	-0.063273	45.7309	-0.208485	-181.244	0.000349	NaN
613	1.000000	0.867196	7.37105e+06	-46439.1	1005.82	-29769.2	0.000000	0.000000	6.867053	-0.010159	NaN	0.000000	0.001527	0.001690	28.0843	0.089735	0.001980	45.3275	88.8466	-164.989	-0.034067	0.865914	-0.201548	-0.202830	-0.010159	45.3275	-0.201380	-138.787	7.320207E-5	NaN
613	1.000000	0.875241	7.37105e+06	-46439.1	1005.82	-29769.2	0.000000	0.000000	6.875094	-0.115237	NaN	0.000000	0.001552	0.001718	28.0844	0.067936	0.001981	34.2896	-61.1839	-165.689	-0.082182	0.873952	-0.193503	-0.194792	-0.115237	34.2896	-0.190982	-93.4159	0.001234	NaN
613	1.000000	0.883229	7.37105e+06	-46439.1	1005.82	-29769.2	0.000000	0.000000	6.883084	-0.056727	NaN	0.000000	0.001529	0.001708	28.0844	0.067780	0.001921	35.2903	-81.3728	-164.09	-0.027600	0.881939	-0.185515	-0.186805	-0.056727	35.2903	-0.184309	-72.1913	0.000786	NaN
613	1.000000	0.891226	7.37105e+06	-46439.1	1005.82	-29769.2	0.000000	0.000000	6.891083	-0.010308	NaN	0.000000	0.001575	0.001701	28.0838	0.130081	0.002120	61.3513	-155.931	-161.869	-0.074513	0.889955	-0.177518	-0.178789	-0.010308	61.3513	-0.177392	-55.079	0.000187	NaN
613	1.000000	0.899236	7.37105e+06	-46439.1	1005.82	-29769.2	0.000000	0.000000	6.899093	-0.014188	NaN	0.000000	0.001544	0.001697	28.0842	0.027901	0.001918	14.5442	145.856	-163.79	-0.007055	0.897938	-0.169508	-0.170806	-0.014188	14.5442	-0.168776	-39.1145	0.000363	NaN
613	1.000000	0.907251	7.37105e+06	-46439.1	1005.82	-29769.2	0.000000	0.000000	6.907108	-0.007377	NaN	0.000000	0.001524	0.001677	28.0841	0.083044	0.002037	40.7746	60.3439	-162.597	-0.039746	0.905894	-0.161493	-0.162850	-0.007377	40.7746	-0.161357	-28.9776	0.000255	NaN
613	1.000000	0.915222	7.37105e+06	-46439.1	1005.82	-29769.2	0.000000	0.000000	6.915077	-0.063047	NaN	0.000000	0.001538	0.001737	28.0843	0.099482	0.002020	49.2458	166.258	-166.649	0.052222	0.913961	-0.153522	-0.154783	-0.063047	49.2458	-0.152562	-20.1635	0.003127	NaN
613	1.000000	0.923263	7.37105e+06	-46439.1	1005.82	-29769.2	0.000000	0.000000	6.923120	-0.014923	NaN	0.000000	0.001539	0.001710	28.0841	0.042767	0.001943	22.0115	-37.8693	-161.935	0.042630	0.921969	-0.145481	-0.146775	-0.014923	22.0115	-0.144972	-14.6439	0.001019	NaN
613	1.000000	0.931216	7.37105e+06	-46439.1	1005.82	-29769.2	0.000000	0.000000	6.931075	0.025538	NaN	0.000000	0.001485	0.001678	28.0841	0.126951	0.002101	60.4172	-32.554	-165.844	0.013621	0.929970	-0.137528	-0.138774	0.025538	60.4172	-0.137845	-10.7732	-0.002371	NaN
613	1.000000	0.939273	7.37105e+06	-46439.1	1005.82	-29769.2	0.000000	0.000000	6.939127	-0.069657	NaN	0.000000	0.001532	0.001739	28.0844	0.163416	0.001962	83.2799	161.563	-162.045	-0.078813	0.937916	-0.129471	-0.130828	-0.069657	83.2799	-0.128844	-7.236236	0.009626	NaN
613	1.000000	0.947270	7.37105e+06	-46439.1	1005.82	-29769.2	0.000000	0.000000	6.947126	-0.025587	NaN	0.000000	0.001549	0.001718	28.084	0.073288	0.002019	36.305	139.484	-165.451	-0.063890	0.945989	-0.121474	-0.122755	-0.025587	36.305	-0.120946	-5.048156	0.005069	NaN
613	1.000000	0.955248	7.37105e+06	-46439.1	1005.82	-29769.2	0.000000	0.000000	6.955103	-0.056602	NaN	0.000000	0.001538	0.001735	28.0843	0.065210	0.002022	32.2456	-137.046	-163.924	-0.045030	0.953909	-0.113496	-0.114835	-0.056602	32.2456	-0.112179	-3.338833	0.016953	NaN
613	1.000000	0.963267	7.37105e+06	-46439.1	1005.82	-29769.2	0.000000	0.000000	6.963123	-0.048262	NaN	0.000000	0.001560	0.001706	28.084	0.060681	0.002133	28.4536	-48.9056	-165.526	-0.014454	0.961973	-0.105477	-0.106771	-0.048262	28.4536	-0.104204	-2.259203	0.021362	NaN
613	1.000000	0.971262	7.37105e+06	-46439.1	1005.82	-29769.2	0.000000	0.000000	6.971117	-0.082219	NaN	0.000000	0.001564	0.001765	28.0841	0.015992	0.002005	7.977116	-137.487	-166.316	-0.121670	0.969990	-0.097482	-0.098754	-0.082219	7.977116	-0.089751	-1.066551	0.077088	NaN
613	1.000000	0.979260	7.37105e+06	-46439.1	1005.82	-29769.2	0.000000	0.000000	6.979116	-0.035159	NaN	0.000000	0.001569	0.001761	28.085	0.063490	0.001934	32.8211	165.676	-169.123	0.030314	0.977865	-0.089484	-0.090879	-0.035159	32.8211	-0.088681	-1.006327	0.034938	NaN
613	1.000000	0.987258	7.37105e+06	-46439.1	1005.82	-29769.2	0.000000	0.000000	6.987115	-0.016027	NaN	0.000000	0.001537	0.001729	28.0843	0.098230	0.001954	50.2635	87.366	-165.316	-0.070800	0.985974	-0.081486	-0.082770	-0.016027	50.2635	-0.081247	-0.664869	0.024106	NaN
613	1.000000	0.995246	7.37105e+06	-46439.1	1005.82	-29769.2	0.000000	0.000000	6.995103	-0.026801	NaN	0.000000	0.001589	0.001731	28.0831	0.078806	0.001961	40.195	-23.5374	-167.178	-0.047979	0.993933	-0.073498	-0.074811	-0.026801	40.195	-0.072998	-0.409600	0.065431	NaN
613	1.000000	1.003299	7.37105e+06	-46439.1	1005.82	-29769.2	0.000000	0.000000	7.003152	-0.092239	NaN	0.000000	0.001582	0.001756	28.0829	0.086913	0.002037	42.658	16.2403	-167.519	-0.148563	1.001948	-0.065445	-0.066796	-0.092239	42.658	-0.063824	-0.231107	0.399118	NaN
613	1.000000	1.011269	7.37105e+06	-46439.1	1005.82	-29769.2	0.000000	0.000000	7.011124	-0.046985	NaN	0.000000	0.001508	0.001727	28.083	0.024205	0.001959	12.3538	34.5791	-167.666	-0.079581	1.009985	-0.057475	-0.058759	-0.046985	12.3538	-0.054623	-0.125511	0.374347	NaN
613	1.000000	1.019299	7.37105e+06	-46439.1	1005.82	-29769.2	0.000000	0.000000	7.019154	-0.059691	NaN	0.000000	0.001535	0.001740	28.083	0.094710	0.001866	50.7456	-64.1836	-162.959	-0.110553	1.017956	-0.049445	-0.050788	-0.059691	50.7456	-0.048563	-0.082542	0.723158	NaN
613	1.000000	1.027334	7.37105e+06	-46439.1	1005.82	-29769.2	0.000000	0.000000	7.027188	-0.059891	NaN	0.000000	0.001522	0.001717	28.0825	0.148358	0.001993	74.454	-3.121931	-164.315	-0.126673	1.025961	-0.041411	-0.042783	-0.059891	74.454	-0.040807	-0.047852	1.251590	NaN
613	1.000000	1.035328	7.37105e+06	-46439.1	1005.82	-29769.2	0.000000	0.000000	7.035187	0.042567	NaN	0.000000	0.001533	0.001723	28.0828	0.013281	0.002014	6.593702	-44.347	-165.039	-0.020326	1.033994	-0.033416	-0.034750	0.042567	6.593702	-0.038258	-0.040053	-1.062772	NaN
613	1.000000	1.043299	7.37105e+06	-46439.1	1005.82	-29769.2	0.000000	0.000000	7.043155	-0.034511	NaN	0.000000	0.001574	0.001741	28.0829	0.024319	0.001869	13.0096	26.7987	-164.85	-0.036777	1.041980	-0.025445	-0.026764	-0.034511	13.0096	-0.023456	-0.015385	2.243127	NaN
613	1.000000	1.051315	7.37105e+06	-46439.1	1005.82	-29769.2	0.000000	0.000000	7.051170	-0.069511	NaN	0.000000	0.001581	0.001774	28.0831	0.095142	0.002001	47.549	44.0111	-163.149	-0.142588	1.049939	-0.017429	-0.018806	-0.069511	47.549	-0.016333	-0.010089	6.889576	NaN
613	1.000000	1.059311	7.37105e+06	-46439.1	1005.82	-29769.2	0.000000	0.000000	7.059168	-0.014648	NaN	0.000000	0.001540	0.001745	28.0827	0.081589	0.002009	40.6191	-156.651	-165.392	-0.056222	1.058037	-0.009433	-0.010707	-0.014648	40.6191	-0.009162	-0.005907	2.479971	NaN
613	1.000000	1.067301	7.37105e+06	-46439.1	1005.82	-29769.2	0.000000	0.000000	7.067249	2.187973	NaN	0.000000	0.001564	0.001767	28.0826	2.870654	0.001863	1540.61	6.276043	-166.494	0.982530	1.065965	-0.001443	-0.002779	2.187973	1540.61	-0.002508	-0.001788	-1223.42	NaN
613	2.000000	1.073875	7.37105e+06	-46439.1	1005.82	-29769.2	0.000000	0.000000	7.074105	9.069078	NaN	0.000000	0.001565	0.001772	28.0825	8.785191	0.001521	5774.8	6.191883	-172.81	9.309276	1.073485	0.005131	0.004741	9.069078	5774.8	0.003953	0.003198	2836.17	93302.7
613	2.000000	1.075853	7.37105e+06	-46439.1	1005.82	-29769.2	0.000000	0.000000	7.076199	11.8767	NaN	0.000000	0.001550	0.001742	28.0828	11.5477	0.001727	6686.46	3.682195	-169.659	11.968	1.075584	0.007109	0.006839	11.8767	6686.46	0.005777	0.004854	2446.99	87687.5
613	2.000000	1.077814	7.37105e+06	-46439.1	1005.82	-29769.2	0.000000	0.000000	7.078277	14.7253	NaN	0.000000	0.001543	0.001741	28.0837	13.4775	0.001639	8225.11	9.983650	-177.929	14.8874	1.077500	0.009070	0.008756	14.7253	8225.11	0.007727	0.006763	2177.2	91376
613	2.000000	1.079805	7.37105e+06	-46439.1	1005.82	-29769.2	0.000000	0.000000	7.080481	19.9126	NaN	0.000000	0.001564	0.001699	28.0829	16.2055	0.001694	9567.71	2.652062	-171.322	19.8648	1.079490	0.011061	0.010746	19.9126	9567.71	0.009500	0.008631	2307.1	94091.6
613	2.000000	1.081827	7.37105e+06	-46439.1	1005.82	-29769.2	0.000000	0.000000	7.082521	20.3397	NaN	0.000000	0.001566	0.001723	28.0829	18.4538	0.001869	9873.2	1.952155	-170.272	19.6233	1.081489	0.013083	0.012745	20.3397	9873.2	0.011538	0.010941	1858.99	86237.7
613	2.000000	1.083773	7.37105e+06	-46439.1	1005.82	-29769.2	0.000000	0.000000	7.084759	27.467	NaN	0.000000	0.001554	0.001711	28.0828	21.2738	0.001847	11520.2	8.816316	-179.115	26.7902	1.083456	0.015029	0.014712	27.467	11520.2	0.013241	0.013010	2111.18	92276.5
613	2.000000	1.085731	7.37105e+06	-46439.1	1005.82	-29769.2	0.000000	0.000000	7.086919	32.3574	NaN	0.000000	0.001558	0.001734	28.0827	23.4756	0.001750	13414.7	5.434246	-178.893	29.8503	1.085487	0.016987	0.016743	32.3574	13414.7	0.015178	0.015524	2084.39	98368.9
613	2.000000	1.087774	7.37105e+06	-46439.1	1005.82	-29769.2	0.000000	0.000000	7.089122	36.2662	NaN	0.000000	0.001559	0.001701	28.0842	24.3459	0.001709	14249.8	2.248312	-175.162	34.9014	1.087494	0.019030	0.018750	36.2662	14249.8	0.017121	0.018219	1990.62	96454.7
613	2.000000	1.089789	7.37105e+06	-46439.1	1005.82	-29769.2	0.000000	0.000000	7.091480	44.5872	NaN	0.000000	0.001548	0.001698	28.0839	27.1072	0.001707	15876.6	8.849660	179.284	45.8948	1.089417	0.021045	0.020673	44.5872	15876.6	0.018939	0.020903	2133.09	100330
613	2.000000	1.091825	7.37105e+06	-46439.1	1005.82	-29769.2	0.000000	0.000000	7.093615	47.0044	NaN	0.000000	0.001573	0.001707	28.085	29.3891	0.001748	16814.5	7.179802	-179.973	47.6678	1.091439	0.023081	0.022695	47.0044	16814.5	0.020984	0.024113	1949.37	98931.6
613	2.000000	1.093707	7.37105e+06	-46439.1	1005.82	-29769.2	0.000000	0.000000	7.095862	55.8921	NaN	0.000000	0.001531	0.001731	28.0839	30.8271	0.001597	19297.6	3.300315	-179.513	52.9208	1.093389	0.024963	0.024645	55.8921	19297.6	0.022791	0.027119	2060.99	107063
613	2.000000	1.095763	7.37105e+06	-46439.1	1005.82	-29769.2	0.000000	0.000000	7.098081	59.8482	NaN	0.000000	0.001572	0.001688	28.0839	34.5208	0.001840	18763.2	8.859251	176.74	59.642	1.095395	0.027019	0.026650	59.8482	18763.2	0.024627	0.030340	1972.57	98417
613	2.000000	1.097759	7.37105e+06	-46439.1	1005.82	-29769.2	0.000000	0.000000	7.100371	66.9953	NaN	0.000000	0.001579	0.001692	28.084	35.271	0.001691	20856.3	3.111270	-179.089	66.1252	1.097452	0.029015	0.028708	66.9953	20856.3	0.026606	0.034002	1970.32	103337
613	2.000000	1.099734	7.37105e+06	-46439.1	1005.82	-29769.2	0.000000	0.000000	7.102760	77.0764	NaN	0.000000	0.001564	0.001669	28.084	38.1093	0.001670	22824.2	5.002263	178.066	76.5514	1.099436	0.030990	0.030692	77.0764	22824.2	0.028457	0.037606	2049.58	107533
613	2.000000	1.101780	7.37105e+06	-46439.1	1005.82	-29769.2	0.000000	0.000000	7.105365	90.6569	NaN	0.000000	0.001575	0.001691	28.0847	40.787	0.001903	21431.9	8.960606	176.757	91.8376	1.101364	0.033036	0.032620	90.6569	21431.9	0.029864	0.040462	2240.54	97344.3
613	2.000000	1.103744	7.37105e+06	-46439.1	1005.82	-29769.2	0.000000	0.000000	7.107622	97.7998	NaN	0.000000	0.001594	0.001651	28.0837	43.0371	0.001806	23823.6	7.350685	175.355	97.3388	1.103528	0.035000	0.034784	97.7998	23823.6	0.031921	0.044819	2182.11	102813
613	2.000000	1.105660	7.37105e+06	-46439.1	1005.82	-29769.2	0.000000	0.000000	7.109954	107.902	NaN	0.000000	0.001564	0.001716	28.0839	45.2381	0.001800	25133.7	3.934330	178.18	104.309	1.105373	0.036916	0.036629	107.902	25133.7	0.033696	0.048754	2213.18	103997
613	2.000000	1.107642	7.37105e+06	-46439.1	1005.82	-29769.2	0.000000	0.000000	7.112460	120.66	NaN	0.000000	0.001555	0.001723	28.084	45.9428	0.001675	27425.2	2.758661	178.925	116.575	1.107321	0.038898	0.038577	120.66	27425.2	0.035598	0.053148	2270.25	108687
613	2.000000	1.109749	7.37105e+06	-46439.1	1005.82	-29769.2	0.000000	0.000000	7.114949	129.957	NaN	0.000000	0.001568	0.001674	28.0838	49.7017	0.001763	28186	5.991683	176.291	131.14	1.109354	0.041005	0.040610	129.957	28186	0.037547	0.057842	2246.75	107074
613	2.000000	1.111715	7.37105e+06	-46439.1	1005.82	-29769.2	0.000000	0.000000	7.117409	141.996	NaN	0.000000	0.001571	0.001699	28.0843	51.6825	0.001844	28028.6	7.817429	174.57	137.638	1.111253	0.042971	0.042509	141.996	28028.6	0.039171	0.061903	2293.84	102924
613	2.000000	1.113698	7.37105e+06	-46439.1	1005.82	-29769.2	0.000000	0.000000	7.119879	153.841	NaN	0.000000	0.001554	0.001669	28.084	52.7457	0.001916	27525.3	6.935752	175.642	152.318	1.113332	0.044954	0.044588	153.841	27525.3	0.040762	0.066012	2330.52	97880.2
613	2.000000	1.115745	7.37105e+06	-46439.1	1005.82	-29769.2	0.000000	0.000000	7.122038	156.552	NaN	0.000000	0.001582	0.001672	28.084	54.4103	0.001712	31789.9	1.806089	178.591	158.996	1.115469	0.047001	0.046725	156.552	31789.9	0.043307	0.072855	2148.82	107605
613	2.000000	1.117653	7.37105e+06	-46439.1	1005.82	-29769.2	0.000000	0.000000	7.124507	170.19	NaN	0.000000	0.001605	0.001673	28.084	55.4483	0.001795	30884.6	2.965149	177.7	166.223	1.117344	0.048909	0.048600	170.19	30884.6	0.044776	0.076953	2211.63	101719
613	2.000000	1.119696	7.37105e+06	-46439.1	1005.82	-29769.2	0.000000	0.000000	7.126927	179.348	NaN	0.000000	0.001544	0.001655	28.084	59.008	0.001746	33790.1	6.140318	173.545	177.562	1.119398	0.050952	0.050654	179.348	33790.1	0.046972	0.083283	2153.48	106976
613	2.000000	1.121763	7.37105e+06	-46439.1	1005.82	-29769.2	0.000000	0.000000	7.129426	189.866	NaN	0.000000	0.001516	0.001657	28.0832	61.1259	0.001788	34179.6	7.291124	173.407	189.233	1.121374	0.053019	0.052630	189.866	34179.6	0.048853	0.088902	2135.69	104734
613	2.000000	1.123712	7.37105e+06	-46439.1	1005.82	-29769.2	0.000000	0.000000	7.131667	196.984	NaN	0.000000	0.001527	0.001658	28.0829	62.5819	0.001805	34662.3	3.207917	176.636	197.405	1.123416	0.054968	0.054672	196.984	34662.3	0.050705	0.094606	2082.14	102960
613	2.000000	1.125687	7.37105e+06	-46439.1	1005.82	-29769.2	0.000000	0.000000	7.134231	211.312	NaN	0.000000	0.001535	0.001670	28.083	64.6554	0.001781	36310.6	4.091647	175.459	209.995	1.125410	0.056943	0.056666	211.312	36310.6	0.052578	0.100549	2101.59	104621
613	2.000000	1.127732	7.37105e+06	-46439.1	1005.82	-29769.2	0.000000	0.000000	7.136789	223.779	NaN	0.000000	0.001539	0.001668	28.083	65.8176	0.001758	37437.7	6.887472	172.853	224.832	1.127373	0.058988	0.058629	223.779	37437.7	0.054505	0.106844	2094.46	104642
613	2.000000	1.129649	7.37105e+06	-46439.1	1005.82	-29769.2	0.000000	0.000000	7.139156	234.716	NaN	0.000000	0.001492	0.001725	28.0828	67.0096	0.001765	37975.8	1.614112	177.403	230.854	1.129346	0.060905	0.060602	234.716	37975.8	0.056270	0.112773	2081.31	103319
613	2.000000	1.131683	7.37105e+06	-46439.1	1005.82	-29769.2	0.000000	0.000000	7.141414	240.175	NaN	0.000000	0.001532	0.001709	28.0833	69.9156	0.001886	37071.4	2.347300	177.13	237.272	1.131445	0.062939	0.062701	240.175	37071.4	0.058080	0.119014	2018.04	98177.9
613	2.000000	1.133650	7.37105e+06	-46439.1	1005.82	-29769.2	0.000000	0.000000	7.143978	254.682	NaN	0.000000	0.001518	0.001667	28.0829	70.9821	0.001773	40044.7	4.373928	174.73	251.26	1.133300	0.064906	0.064556	254.682	40044.7	0.060136	0.126297	2016.53	102949
613	2.000000	1.135794	7.37105e+06	-46439.1	1005.82	-29769.2	0.000000	0.000000	7.146420	261.947	NaN	0.000000	0.001556	0.001688	28.083	74.0029	0.001761	42033.2	1.930598	176.942	268.109	1.135362	0.067050	0.066617	261.947	42033.2	0.062376	0.134467	1948.04	104727
613	2.000000	1.137617	7.37105e+06	-46439.1	1005.82	-29769.2	0.000000	0.000000	7.149029	281.074	NaN	0.000000	0.001513	0.001720	28.083	74.9781	0.001923	39000.3	6.150631	173.328	277.893	1.137309	0.068873	0.068565	281.074	39000.3	0.063468	0.138537	2028.88	95732.4
613	2.000000	1.139748	7.37105e+06	-46439.1	1005.82	-29769.2	0.000000	0.000000	7.151702	294.243	NaN	0.000000	0.001547	0.001674	28.0827	77.1232	0.001935	39854.2	7.846670	172.131	295.622	1.139284	0.071004	0.070540	294.243	39854.2	0.065467	0.146140	2013.44	95249.7
613	2.000000	1.141627	7.37105e+06	-46439.1	1005.82	-29769.2	0.000000	0.000000	7.154225	309.92	NaN	0.000000	0.001525	0.001691	28.0827	78.2495	0.001832	42710.1	5.779131	172.691	305.326	1.141289	0.072883	0.072545	309.92	42710.1	0.067440	0.153831	2014.67	99490.4
613	2.000000	1.143641	7.37105e+06	-46439.1	1005.82	-29769.2	0.000000	0.000000	7.156703	321.22	NaN	0.000000	0.001566	0.001670	28.0828	78.6672	0.001747	45017.4	2.605700	175.078	319.808	1.143317	0.074897	0.074573	321.22	45017.4	0.069545	0.162242	1979.88	102111
613	2.000000	1.145689	7.37105e+06	-46439.1	1005.82	-29769.2	0.000000	0.000000	7.159130	330.417	NaN	0.000000	0.001558	0.001702	28.0829	80.7722	0.001727	46763.4	3.708392	174.064	330.537	1.145303	0.076945	0.076559	330.417	46763.4	0.071645	0.170846	1934.01	103366
613	2.000000	1.147749	7.37105e+06	-46439.1	1005.82	-29769.2	0.000000	0.000000	7.161797	345.191	NaN	0.000000	0.001559	0.001668	28.0829	82.4316	0.001873	44011.2	6.252650	172.393	348.488	1.147334	0.079005	0.078590	345.191	44011.2	0.073123	0.177022	1949.99	95570.4
613	2.000000	1.149636	7.37105e+06	-46439.1	1005.82	-29769.2	0.000000	0.000000	7.164251	358.984	NaN	0.000000	0.001580	0.001678	28.0831	85.0774	0.001868	45549.3	8.578633	169.782	357.413	1.149268	0.080892	0.080524	358.984	45549.3	0.074981	0.184939	1941.1	96770
613	2.000000	1.151799	7.37105e+06	-46439.1	1005.82	-29769.2	0.000000	0.000000	7.166959	372.235	NaN	0.000000	0.001549	0.001669	28.0827	87.1398	0.001871	46564.8	9.172091	169.735	377.252	1.151294	0.083055	0.082550	372.235	46564.8	0.077059	0.193985	1918.89	96593.3
613	2.000000	1.153743	7.37105e+06	-46439.1	1005.82	-29769.2	0.000000	0.000000	7.169476	386.164	NaN	0.000000	0.001549	0.001637	28.0828	87.9256	0.001753	50168.4	3.446493	174.571	390.087	1.153285	0.084999	0.084541	386.164	50168.4	0.079226	0.203630	1896.4	101574
613	2.000000	1.155616	7.37105e+06	-46439.1	1005.82	-29769.2	0.000000	0.000000	7.171754	396.011	NaN	0.000000	0.001544	0.001685	28.084	89.9475	0.001760	51113	3.813770	172.952	391.685	1.155432	0.086872	0.086688	396.011	51113	0.081062	0.211973	1868.21	101430
613	2.000000	1.157724	7.37105e+06	-46439.1	1005.82	-29769.2	0.000000	0.000000	7.174509	411.754	NaN	0.000000	0.001579	0.001713	28.0842	90.8721	0.001756	51745.5	5.536922	171.723	414.406	1.157268	0.088980	0.088524	411.754	51745.5	0.083012	0.221011	1863.05	100563
613	2.000000	1.159598	7.37105e+06	-46439.1	1005.82	-29769.2	0.000000	0.000000	7.177270	433.338	NaN	0.000000	0.001617	0.001693	28.0843	92.4363	0.001720	53735.6	4.075886	172.898	429.4	1.159291	0.090854	0.090546	433.338	53735.6	0.084806	0.229476	1888.38	102487
613	2.000000	1.161723	7.37105e+06	-46439.1	1005.82	-29769.2	0.000000	0.000000	7.179664	439.899	NaN	0.000000	0.001595	0.001707	28.084	95.3099	0.001766	53979.2	8.156376	169.363	440.895	1.161256	0.092979	0.092511	439.899	53979.2	0.086867	0.239386	1837.61	100798
613	2.000000	1.163622	7.37105e+06	-46439.1	1005.82	-29769.2	0.000000	0.000000	7.182071	452.23	NaN	0.000000	0.001596	0.001657	28.0839	97.0025	0.001792	54141.3	5.529059	170.909	449.109	1.163364	0.094878	0.094620	452.23	54141.3	0.088613	0.247940	1823.95	99341
613	2.000000	1.165598	7.37105e+06	-46439.1	1005.82	-29769.2	0.000000	0.000000	7.184637	466.61	NaN	0.000000	0.001549	0.001676	28.084	98.3159	0.001746	56317	2.636862	173.761	460.045	1.165271	0.096854	0.096527	466.61	56317	0.090640	0.258037	1808.3	101291
613	2.000000	1.167671	7.37105e+06	-46439.1	1005.82	-29769.2	0.000000	0.000000	7.187596	488.153	NaN	0.000000	0.001632	0.001702	28.0839	100.256	0.001728	58026	7.559505	168.337	489.189	1.167357	0.098927	0.098613	488.153	58026	0.092617	0.268074	1820.96	102393
613	2.000000	1.169535	7.37105e+06	-46439.1	1005.82	-29769.2	0.000000	0.000000	7.190181	505.688	NaN	0.000000	0.001639	0.001678	28.0837	101.507	0.001725	58843.2	4.998305	171.214	498.826	1.169236	0.100791	0.100492	505.688	58843.2	0.094345	0.276991	1825.65	102150
613	2.000000	1.171687	7.37105e+06	-46439.1	1005.82	-29769.2	0.000000	0.000000	7.192996	521.808	NaN	0.000000	0.001624	0.001659	28.0837	105.307	0.001743	60411.5	8.321427	168.419	521.623	1.171283	0.102943	0.102539	521.808	60411.5	0.096465	0.288114	1811.11	102828