File: remote_trans/data/nanoindenter/0828-1/data/Data_2025-08-06,11h17m57s/2025-07-22_16-23-58_1_457.txt
2025-07-22, 16:23:58, 1
Index	Phase	Displacement	Time	Pos X	Pos Y	Pos Z	Rot A	Rot B	Piezo Z	Force A	Force B	Gripper	Voltage A	Voltage B	Temperature	Amplitude force	Amplitude pos	Stiffness	Phase shift	Phase excitation	Force A raw	Displacement raw	HMax	HMax raw	Real Force	Real Stiffness	Contact Depth	Area	Hardness	Reduced Mod.
[#]	[#]	[um]	[s]	[um]	[um]	[um]	[m°]	[m°]	[um]	[uN]	[uN]	[V]	[V]	[V]	[°C]	[uN]	[um]	[N/m]	[°]	[°]	[uN]	[um]	[um]	[um]	[uN]	[N/m]	[um]	[um^2]	[MPa]	[MPa]
457	1.000000	0.003299	7.36953e+06	-54239.1	1005.82	-29744.2	0.000000	0.000000	6.002765	-0.018707	NaN	0.000000	0.001621	0.001734	28.082	0.026513	0.000970	27.3205	-131.389	-166.846	-0.022844	0.002096	-1.072403	-1.073606	-0.018707	27.3205	-1.071890	-2.101725E+14	8.900574E-17	NaN
457	1.000000	0.011301	7.36953e+06	-54239.1	1005.82	-29744.2	0.000000	0.000000	6.010769	0.003824	NaN	0.000000	0.001606	0.001721	28.0821	0.033926	0.000871	38.9681	-39.7341	-164.373	0.034908	0.010024	-1.064401	-1.065678	0.003824	38.9681	-1.064474	-1.670890E+14	-2.288888E-17	NaN
457	1.000000	0.019293	7.36953e+06	-54239.1	1005.82	-29744.2	0.000000	0.000000	6.018759	-0.026611	NaN	0.000000	0.001604	0.001747	28.0818	0.089255	0.001753	50.9042	167.784	-166.888	0.044880	0.017991	-1.056409	-1.057711	-0.026611	50.9042	-1.056017	-1.286149E+14	2.069063E-16	NaN
457	1.000000	0.027310	7.36953e+06	-54239.1	1005.82	-29744.2	0.000000	0.000000	6.026774	-0.057893	NaN	0.000000	0.001585	0.001727	28.0819	0.066587	0.001740	38.2637	24.9628	-163.079	0.014715	0.025968	-1.048392	-1.049735	-0.057893	38.2637	-1.047258	-9.807289E+13	5.903007E-16	NaN
457	1.000000	0.035281	7.36953e+06	-54239.1	1005.82	-29744.2	0.000000	0.000000	6.034748	-0.007754	NaN	0.000000	0.001597	0.001712	28.082	0.063505	0.001923	33.0199	-54.0683	-165.17	-0.078076	0.033979	-1.040421	-1.041723	-0.007754	33.0199	-1.040245	-7.893356E+13	9.823453E-17	NaN
457	1.000000	0.043277	7.36953e+06	-54239.1	1005.82	-29744.2	0.000000	0.000000	6.042746	0.032968	NaN	0.000000	0.001610	0.001706	28.0821	0.032366	0.001803	17.9498	106.012	-164.179	-0.032507	0.041932	-1.032425	-1.033770	0.032968	17.9498	-1.033802	-6.465813E+13	-5.098819E-16	NaN
457	1.000000	0.051265	7.36953e+06	-54239.1	1005.82	-29744.2	0.000000	0.000000	6.050731	-0.024888	NaN	0.000000	0.001584	0.001742	28.0812	0.034185	0.001913	17.8697	111.669	-164.937	-0.102427	0.050028	-1.024437	-1.025674	-0.024888	17.8697	-1.023393	-4.683783E+13	5.313585E-16	NaN
457	1.000000	0.059301	7.36953e+06	-54239.1	1005.82	-29744.2	0.000000	0.000000	6.058769	0.030781	NaN	0.000000	0.001545	0.001709	28.0809	0.022937	0.001986	11.5466	-38.2332	-166.043	0.006843	0.057978	-1.016401	-1.017724	0.030781	11.5466	-1.018401	-4.012653E+13	-7.671007E-16	NaN
457	1.000000	0.067255	7.36953e+06	-54239.1	1005.82	-29744.2	0.000000	0.000000	6.066718	-0.101920	NaN	0.000000	0.001582	0.001711	28.0808	0.091711	0.002039	44.9691	38.7889	-169.101	-0.094783	0.066028	-1.008447	-1.009675	-0.101920	44.9691	-1.006747	-2.796399E+13	3.644689E-15	NaN
457	1.000000	0.075290	7.36953e+06	-54239.1	1005.82	-29744.2	0.000000	0.000000	6.074757	-0.009131	NaN	0.000000	0.001638	0.001690	28.0808	0.076614	0.001943	39.4271	21.7829	-167.937	-0.081179	0.073969	-1.000412	-1.001733	-0.009131	39.4271	-1.000238	-2.285457E+13	3.995298E-16	NaN
457	1.000000	0.083269	7.36953e+06	-54239.1	1005.82	-29744.2	0.000000	0.000000	6.082736	0.014699	NaN	0.000000	0.001629	0.001756	28.0809	0.017500	0.002030	8.619888	48.9969	-161.798	0.007801	0.082024	-0.992433	-0.993678	0.014699	8.619888	-0.993712	-1.866832E+13	-7.873623E-16	NaN
457	1.000000	0.091319	7.36953e+06	-54239.1	1005.82	-29744.2	0.000000	0.000000	6.090783	-0.066769	NaN	0.000000	0.001570	0.001740	28.0807	0.111108	0.002010	55.2694	17.2595	-165.507	-0.060350	0.089984	-0.984383	-0.985718	-0.066769	55.2694	-0.983477	-1.359116E+13	4.912646E-15	NaN
457	1.000000	0.099290	7.36953e+06	-54239.1	1005.82	-29744.2	0.000000	0.000000	6.098756	-0.027895	NaN	0.000000	0.001574	0.001687	28.0808	0.091632	0.001851	49.5118	-32.0917	-162.842	-0.031471	0.097963	-0.976412	-0.977739	-0.027895	49.5118	-0.975990	-1.077407E+13	2.589093E-15	NaN
457	1.000000	0.107330	7.36953e+06	-54239.1	1005.82	-29744.2	0.000000	0.000000	6.106798	0.027201	NaN	0.000000	0.001585	0.001709	28.0808	0.165495	0.002041	81.0942	44.5526	-166.261	-0.006659	0.106039	-0.968372	-0.969663	0.027201	81.0942	-0.968623	-8.572567E+12	-3.172999E-15	NaN
457	1.000000	0.115304	7.36953e+06	-54239.1	1005.82	-29744.2	0.000000	0.000000	6.114771	-0.003242	NaN	0.000000	0.001570	0.001690	28.0808	0.096053	0.002040	47.0871	86.479	-165.567	-0.026851	0.114010	-0.960398	-0.961692	-0.003242	47.0871	-0.960346	-6.630369E+12	4.890069E-16	NaN
457	1.000000	0.123303	7.36953e+06	-54239.1	1005.82	-29744.2	0.000000	0.000000	6.122769	-0.004813	NaN	0.000000	0.001590	0.001674	28.0806	0.040925	0.001967	20.8037	85.7457	-161.245	0.012094	0.121988	-0.952400	-0.953714	-0.004813	20.8037	-0.952226	-5.152850E+12	9.340190E-16	NaN
457	1.000000	0.131305	7.36953e+06	-54239.1	1005.82	-29744.2	0.000000	0.000000	6.130770	-0.049798	NaN	0.000000	0.001603	0.001702	28.081	0.059703	0.002096	28.4887	-74.5623	-165.083	-0.072812	0.130040	-0.944398	-0.945662	-0.049798	28.4887	-0.943087	-3.879512E+12	1.283620E-14	NaN
457	1.000000	0.139297	7.36953e+06	-54239.1	1005.82	-29744.2	0.000000	0.000000	6.138763	-0.042703	NaN	0.000000	0.001577	0.001704	28.0806	0.173584	0.002074	83.7075	133.254	-165.699	-0.028942	0.138073	-0.936405	-0.937629	-0.042703	83.7075	-0.936022	-3.115069E+12	1.370846E-14	NaN
457	1.000000	0.147325	7.36953e+06	-54239.1	1005.82	-29744.2	0.000000	0.000000	6.146788	-0.090699	NaN	0.000000	0.001592	0.001693	28.0807	0.033704	0.001976	17.0536	-169.472	-162.942	-0.156471	0.146011	-0.928377	-0.929691	-0.090699	17.0536	-0.924388	-2.169964E+12	4.179760E-14	NaN
457	1.000000	0.155341	7.36953e+06	-54239.1	1005.82	-29744.2	0.000000	0.000000	6.154808	-0.014214	NaN	0.000000	0.001599	0.001696	28.0809	0.136716	0.002015	67.8373	111.204	-163.635	-0.038454	0.154073	-0.920361	-0.921629	-0.014214	67.8373	-0.920204	-1.905274E+12	7.460534E-15	NaN
457	1.000000	0.163330	7.36953e+06	-54239.1	1005.82	-29744.2	0.000000	0.000000	6.162796	-0.033372	NaN	0.000000	0.001613	0.001711	28.0808	0.064512	0.002028	31.8144	-79.9007	-164.022	0.019971	0.162013	-0.912372	-0.913689	-0.033372	31.8144	-0.911586	-1.457399E+12	2.289856E-14	NaN
457	1.000000	0.171346	7.36953e+06	-54239.1	1005.82	-29744.2	0.000000	0.000000	6.170811	-0.045003	NaN	0.000000	0.001596	0.001719	28.0812	0.098045	0.002086	47.0075	132.383	-164.478	-0.056885	0.170009	-0.904356	-0.905693	-0.045003	47.0075	-0.903638	-1.138217E+12	3.953831E-14	NaN
457	1.000000	0.179357	7.36953e+06	-54239.1	1005.82	-29744.2	0.000000	0.000000	6.178824	-0.009216	NaN	0.000000	0.001600	0.001694	28.0805	0.068062	0.001995	34.1081	18.0057	-162.898	-0.059640	0.177981	-0.896345	-0.897721	-0.009216	34.1081	-0.896142	-9.014293E+11	1.022348E-14	NaN
457	1.000000	0.187321	7.36953e+06	-54239.1	1005.82	-29744.2	0.000000	0.000000	6.186787	-0.025936	NaN	0.000000	0.001640	0.001726	28.0812	0.109073	0.002059	52.9767	157.356	-161.874	0.009288	0.186040	-0.888381	-0.889662	-0.025936	52.9767	-0.888014	-6.999421E+11	3.705406E-14	NaN
457	1.000000	0.195370	7.36953e+06	-54239.1	1005.82	-29744.2	0.000000	0.000000	6.194834	-0.082415	NaN	0.000000	0.001569	0.001748	28.0818	0.100516	0.002142	46.9211	153.044	-163.095	-0.094880	0.193973	-0.880332	-0.881729	-0.082415	46.9211	-0.879015	-5.289113E+11	1.558198E-13	NaN
457	1.000000	0.203325	7.36953e+06	-54239.1	1005.82	-29744.2	0.000000	0.000000	6.202792	0.006840	NaN	0.000000	0.001611	0.001768	28.0817	0.081958	0.001982	41.3476	-103.985	-162.95	0.050883	0.202018	-0.872377	-0.873684	0.006840	41.3476	-0.872501	-4.318002E+11	-1.584020E-14	NaN
457	1.000000	0.211339	7.36953e+06	-54239.1	1005.82	-29744.2	0.000000	0.000000	6.210807	0.002782	NaN	0.000000	0.001640	0.001732	28.0821	0.093975	0.001922	48.8838	96.5133	-162.918	-0.013320	0.210031	-0.864363	-0.865671	0.002782	48.8838	-0.864405	-3.355380E+11	-8.290260E-15	NaN
457	1.000000	0.219371	7.36953e+06	-54239.1	1005.82	-29744.2	0.000000	0.000000	6.218836	-0.040547	NaN	0.000000	0.001655	0.001753	28.0818	0.050586	0.002058	24.5813	169.51	-163.175	-0.027135	0.218000	-0.856331	-0.857702	-0.040547	24.5813	-0.855094	-2.510222E+11	1.615257E-13	NaN
457	1.000000	0.227364	7.36953e+06	-54239.1	1005.82	-29744.2	0.000000	0.000000	6.226830	-0.023892	NaN	0.000000	0.001609	0.001799	28.0821	0.102495	0.001997	51.3274	122.418	-161.407	-0.089961	0.226048	-0.848338	-0.849654	-0.023892	51.3274	-0.847989	-2.011434E+11	1.187798E-13	NaN
457	1.000000	0.235360	7.36953e+06	-54239.1	1005.82	-29744.2	0.000000	0.000000	6.234827	-0.008161	NaN	0.000000	0.001616	0.001758	28.082	0.199876	0.001915	104.397	-50.6486	-160.807	0.031025	0.234071	-0.840342	-0.841631	-0.008161	104.397	-0.840284	-1.581740E+11	5.159400E-14	NaN
457	1.000000	0.243365	7.36953e+06	-54239.1	1005.82	-29744.2	0.000000	0.000000	6.242832	0.005342	NaN	0.000000	0.001589	0.001766	28.0819	0.020523	0.002123	9.664597	93.0929	-164.532	0.006381	0.242066	-0.832337	-0.833636	0.005342	9.664597	-0.832752	-1.250494E+11	-4.271600E-14	NaN
457	1.000000	0.251379	7.36953e+06	-54239.1	1005.82	-29744.2	0.000000	0.000000	6.250844	-0.067315	NaN	0.000000	0.001587	0.001767	28.0822	0.098046	0.001930	50.7984	95.6855	-165.619	-0.097550	0.250059	-0.824323	-0.825643	-0.067315	50.7984	-0.823329	-9.318619E+10	7.223758E-13	NaN
457	1.000000	0.259371	7.36953e+06	-54239.1	1005.82	-29744.2	0.000000	0.000000	6.258837	-0.037685	NaN	0.000000	0.001670	0.001770	28.0819	0.051182	0.001965	26.0488	22.4685	-163.924	0.031618	0.258080	-0.816331	-0.817622	-0.037685	26.0488	-0.815246	-7.239986E+10	5.205059E-13	NaN
457	1.000000	0.267368	7.36953e+06	-54239.1	1005.82	-29744.2	0.000000	0.000000	6.266832	-0.073283	NaN	0.000000	0.001670	0.001758	28.0822	0.030814	0.001999	15.4147	-72.6385	-163.943	-0.115386	0.266047	-0.808334	-0.809656	-0.073283	15.4147	-0.804768	-5.218908E+10	1.404187E-12	NaN
457	1.000000	0.275379	7.36953e+06	-54239.1	1005.82	-29744.2	0.000000	0.000000	6.274849	0.066664	NaN	0.000000	0.001688	0.001694	28.082	0.078611	0.002056	38.2418	-9.927384	-164.621	0.039135	0.274057	-0.800323	-0.801645	0.066664	38.2418	-0.801631	-4.731496E+10	-1.408938E-12	NaN
457	1.000000	0.283419	7.36953e+06	-54239.1	1005.82	-29744.2	0.000000	0.000000	6.282883	-0.067619	NaN	0.000000	0.001636	0.001712	28.082	0.081377	0.001850	43.986	134.856	-162.527	-0.028610	0.282072	-0.792283	-0.793630	-0.067619	43.986	-0.791130	-3.407497E+10	1.984407E-12	NaN
457	1.000000	0.291382	7.36953e+06	-54239.1	1005.82	-29744.2	0.000000	0.000000	6.290846	-0.072447	NaN	0.000000	0.001744	0.001709	28.0821	0.085298	0.002001	42.632	-33.2835	-166.018	-0.070569	0.290097	-0.784320	-0.785605	-0.072447	42.632	-0.783045	-2.646121E+10	2.737861E-12	NaN
457	1.000000	0.299371	7.36953e+06	-54239.1	1005.82	-29744.2	0.000000	0.000000	6.298834	-0.079813	NaN	0.000000	0.001694	0.001720	28.0819	0.067906	0.002046	33.1941	85.9819	-166.323	-0.058938	0.298082	-0.776331	-0.777620	-0.079813	33.1941	-0.774528	-2.027049E+10	3.937406E-12	NaN
457	1.000000	0.307378	7.36953e+06	-54239.1	1005.82	-29744.2	0.000000	0.000000	6.306844	-0.022820	NaN	0.000000	0.001710	0.001738	28.0822	0.068485	0.002130	32.1585	-75.6174	-164.606	-0.025539	0.306103	-0.768324	-0.769599	-0.022820	32.1585	-0.767792	-1.641658E+10	1.390065E-12	NaN
457	1.000000	0.315404	7.36953e+06	-54239.1	1005.82	-29744.2	0.000000	0.000000	6.314872	0.018439	NaN	0.000000	0.001732	0.001732	28.082	0.064800	0.001905	34.0134	-78.996	-161.987	0.026726	0.314065	-0.760298	-0.761637	0.018439	34.0134	-0.760704	-1.314877E+10	-1.402321E-12	NaN
457	1.000000	0.323387	7.36953e+06	-54239.1	1005.82	-29744.2	0.000000	0.000000	6.322854	-0.003395	NaN	0.000000	0.001662	0.001774	28.082	0.007940	0.002081	3.814993	-80.458	-167.747	-0.101822	0.322150	-0.752315	-0.753552	-0.003395	3.814993	-0.751647	-9.900145E+9	3.429423E-13	NaN
457	1.000000	0.331395	7.36953e+06	-54239.1	1005.82	-29744.2	0.000000	0.000000	6.330863	0.016815	NaN	0.000000	0.001604	0.001786	28.0807	0.020353	0.002091	9.735390	-32.6484	-167.362	-0.007243	0.330106	-0.744307	-0.745596	0.016815	9.735390	-0.745602	-8.191167E+9	-2.052840E-12	NaN
457	1.000000	0.339396	7.36953e+06	-54239.1	1005.82	-29744.2	0.000000	0.000000	6.338861	-0.050286	NaN	0.000000	0.001631	0.001762	28.0807	0.015479	0.001930	8.018397	-0.621687	-162.276	-0.026235	0.338042	-0.736306	-0.737660	-0.050286	8.018397	-0.731603	-5.280185E+9	9.523468E-12	NaN
457	1.000000	0.347368	7.36953e+06	-54239.1	1005.82	-29744.2	0.000000	0.000000	6.346834	-0.031908	NaN	0.000000	0.001639	0.001726	28.0806	0.121514	0.002051	59.2374	-48.0482	-164.303	-0.122902	0.346124	-0.728334	-0.729578	-0.031908	59.2374	-0.727930	-4.705361E+9	6.781121E-12	NaN
457	1.000000	0.355413	7.36953e+06	-54239.1	1005.82	-29744.2	0.000000	0.000000	6.354879	-0.035673	NaN	0.000000	0.001646	0.001744	28.0806	0.077571	0.002107	36.8086	150.103	-164.521	-0.058739	0.354122	-0.720289	-0.721580	-0.035673	36.8086	-0.719562	-3.618248E+9	9.859175E-12	NaN
457	1.000000	0.363408	7.36953e+06	-54239.1	1005.82	-29744.2	0.000000	0.000000	6.362873	-0.047271	NaN	0.000000	0.001655	0.001771	28.081	0.058796	0.002095	28.0598	134.112	-167.072	-0.065344	0.362104	-0.712294	-0.713598	-0.047271	28.0598	-0.711031	-2.767678E+9	1.707973E-11	NaN
457	1.000000	0.371440	7.36953e+06	-54239.1	1005.82	-29744.2	0.000000	0.000000	6.370903	-0.092440	NaN	0.000000	0.001661	0.001775	28.0808	0.090308	0.001989	45.3971	163.924	-166.49	-0.069368	0.370118	-0.704262	-0.705584	-0.092440	45.3971	-0.702735	-2.132445E+9	4.334928E-11	NaN
457	1.000000	0.379410	7.36953e+06	-54239.1	1005.82	-29744.2	0.000000	0.000000	6.378872	-0.128832	NaN	0.000000	0.001629	0.001750	28.0809	0.042104	0.002012	20.9232	71.2099	-163.11	-0.148059	0.378136	-0.696292	-0.697566	-0.128832	20.9232	-0.691674	-1.505888E+9	8.555213E-11	NaN
457	1.000000	0.387428	7.36953e+06	-54239.1	1005.82	-29744.2	0.000000	0.000000	6.386893	-0.040532	NaN	0.000000	0.001685	0.001731	28.0807	0.123055	0.001928	63.8372	-13.9901	-162.15	0.025411	0.386136	-0.688274	-0.689566	-0.040532	63.8372	-0.687798	-1.332974E+9	3.040754E-11	NaN
457	1.000000	0.395423	7.36953e+06	-54239.1	1005.82	-29744.2	0.000000	0.000000	6.394888	-0.052367	NaN	0.000000	0.001642	0.001744	28.0809	0.042262	0.002042	20.6958	146.621	-163.648	-0.051319	0.394143	-0.680279	-0.681559	-0.052367	20.6958	-0.678381	-9.909712E+8	5.284386E-11	NaN
457	1.000000	0.403412	7.36953e+06	-54239.1	1005.82	-29744.2	0.000000	0.000000	6.402879	0.005568	NaN	0.000000	0.001648	0.001731	28.0809	0.044473	0.002024	21.9752	-73.3489	-164.573	0.047319	0.402092	-0.672290	-0.673611	0.005568	21.9752	-0.672480	-8.228696E+8	-6.766893E-12	NaN
457	1.000000	0.411429	7.36953e+06	-54239.1	1005.82	-29744.2	0.000000	0.000000	6.410893	-0.077093	NaN	0.000000	0.001665	0.001721	28.0808	0.064978	0.002067	31.4385	-51.4063	-165.396	-0.025224	0.410057	-0.664273	-0.665645	-0.077093	31.4385	-0.662434	-5.995278E+8	1.285898E-10	NaN
457	1.000000	0.419431	7.36953e+06	-54239.1	1005.82	-29744.2	0.000000	0.000000	6.418897	-0.008271	NaN	0.000000	0.001653	0.001701	28.081	0.056127	0.001974	28.4329	-143.641	-164.188	-0.008448	0.418132	-0.656272	-0.657570	-0.008271	28.4329	-0.656053	-4.902312E+8	1.687093E-11	NaN
457	1.000000	0.427449	7.36953e+06	-54239.1	1005.82	-29744.2	0.000000	0.000000	6.426918	0.056791	NaN	0.000000	0.001656	0.001724	28.0807	0.166321	0.002037	81.6303	-109.119	-164.891	0.039501	0.426125	-0.648253	-0.649577	0.056791	81.6303	-0.648775	-3.896207E+8	-1.457600E-10	NaN
457	1.000000	0.435438	7.36953e+06	-54239.1	1005.82	-29744.2	0.000000	0.000000	6.434906	0.040203	NaN	0.000000	0.001636	0.001750	28.081	0.026905	0.002054	13.1003	-68.5861	-164.46	0.113797	0.434160	-0.640264	-0.641542	0.040203	13.1003	-0.642566	-3.202543E+8	-1.255357E-10	NaN
457	1.000000	0.443435	7.36953e+06	-54239.1	1005.82	-29744.2	0.000000	0.000000	6.442901	-0.045301	NaN	0.000000	0.001673	0.001720	28.081	0.065733	0.002050	32.064	-150.314	-163.506	0.003970	0.442106	-0.632267	-0.633596	-0.045301	32.064	-0.631207	-2.236659E+8	2.025402E-10	NaN
457	1.000000	0.451439	7.36953e+06	-54239.1	1005.82	-29744.2	0.000000	0.000000	6.450905	-0.038802	NaN	0.000000	0.001669	0.001742	28.0808	0.020117	0.002043	9.848902	92.9377	-164.961	-0.029285	0.450149	-0.624263	-0.625553	-0.038802	9.848902	-0.621308	-1.635340E+8	2.372744E-10	NaN
457	1.000000	0.459458	7.36953e+06	-54239.1	1005.82	-29744.2	0.000000	0.000000	6.458924	-0.028424	NaN	0.000000	0.001662	0.001686	28.0811	0.077680	0.001990	39.0385	89.3902	-162.56	-0.069589	0.458188	-0.616244	-0.617514	-0.028424	39.0385	-0.615698	-1.369274E+8	2.075854E-10	NaN
457	1.000000	0.467446	7.36953e+06	-54239.1	1005.82	-29744.2	0.000000	0.000000	6.466913	-0.009670	NaN	0.000000	0.001643	0.001693	28.082	0.082192	0.002101	39.1236	144.767	-161.876	-0.036540	0.466158	-0.608256	-0.609544	-0.009670	39.1236	-0.608070	-1.075377E+8	8.992355E-11	NaN
457	1.000000	0.475463	7.36953e+06	-54239.1	1005.82	-29744.2	0.000000	0.000000	6.474930	0.002225	NaN	0.000000	0.001648	0.001718	28.0823	0.064260	0.002121	30.2919	45.547	-164.764	0.010156	0.474170	-0.600239	-0.601532	0.002225	30.2919	-0.600294	-8.404527E+7	-2.647973E-11	NaN
457	1.000000	0.483483	7.36953e+06	-54239.1	1005.82	-29744.2	0.000000	0.000000	6.482949	-0.029276	NaN	0.000000	0.001638	0.001676	28.0822	0.021433	0.001828	11.7235	-120.404	-165.871	-0.084754	0.482111	-0.592219	-0.593591	-0.029276	11.7235	-0.590346	-6.129689E+7	4.776030E-10	NaN
457	1.000000	0.491494	7.36953e+06	-54239.1	1005.82	-29744.2	0.000000	0.000000	6.490958	-0.063999	NaN	0.000000	0.001623	0.001707	28.082	0.058156	0.001939	29.9871	143.659	-164.949	-0.084554	0.490185	-0.584208	-0.585517	-0.063999	29.9871	-0.582608	-4.794160E+7	1.334942E-9	NaN
457	1.000000	0.499465	7.36953e+06	-54239.1	1005.82	-29744.2	0.000000	0.000000	6.498931	-0.044691	NaN	0.000000	0.001639	0.001696	28.0822	0.087532	0.002078	42.1135	140.809	-164.447	0.007399	0.498164	-0.576237	-0.577538	-0.044691	42.1135	-0.575441	-3.817569E+7	1.170658E-9	NaN
457	1.000000	0.507444	7.36953e+06	-54239.1	1005.82	-29744.2	0.000000	0.000000	6.506907	-0.097572	NaN	0.000000	0.001680	0.001709	28.082	0.109580	0.001995	54.921	69.1704	-165.114	0.045504	0.506152	-0.568258	-0.569550	-0.097572	54.921	-0.566926	-2.911681E+7	3.351037E-9	NaN
457	1.000000	0.515486	7.36953e+06	-54239.1	1005.82	-29744.2	0.000000	0.000000	6.514955	0.050016	NaN	0.000000	0.001667	0.001718	28.0823	0.064917	0.002038	31.8469	89.9403	-163.51	-0.013422	0.514153	-0.560216	-0.561549	0.050016	31.8469	-0.561394	-2.441492E+7	-2.048578E-9	NaN
457	1.000000	0.523487	7.36953e+06	-54239.1	1005.82	-29744.2	0.000000	0.000000	6.522953	-0.012642	NaN	0.000000	0.001666	0.001708	28.0821	0.076182	0.001963	38.8073	74.3165	-169.486	0.005772	0.522182	-0.552215	-0.553520	-0.012642	38.8073	-0.551971	-1.808230E+7	6.991312E-10	NaN
457	1.000000	0.531486	7.36953e+06	-54239.1	1005.82	-29744.2	0.000000	0.000000	6.530950	-0.070579	NaN	0.000000	0.001635	0.001718	28.0824	0.038448	0.001919	20.0316	142.837	-165.581	-0.044650	0.530169	-0.544216	-0.545534	-0.070579	20.0316	-0.541574	-1.297719E+7	5.438735E-9	NaN
457	1.000000	0.539501	7.36953e+06	-54239.1	1005.82	-29744.2	0.000000	0.000000	6.538967	-0.022828	NaN	0.000000	0.001660	0.001732	28.0823	0.092448	0.001987	46.5306	83.7018	-170.506	-0.044043	0.538205	-0.536202	-0.537498	-0.022828	46.5306	-0.535834	-1.080334E+7	2.113059E-9	NaN
457	1.000000	0.547487	7.36953e+06	-54239.1	1005.82	-29744.2	0.000000	0.000000	6.546954	-0.006145	NaN	0.000000	0.001646	0.001756	28.0822	0.088930	0.002034	43.7234	-30.1543	-165.74	-0.027683	0.546148	-0.528215	-0.529554	-0.006145	43.7234	-0.528109	-8.43942e+06	7.280960E-10	NaN
457	1.000000	0.555510	7.36953e+06	-54239.1	1005.82	-29744.2	0.000000	0.000000	6.554976	-0.033769	NaN	0.000000	0.001640	0.001739	28.0821	0.041591	0.002018	20.6053	-16.1868	-165.569	-0.042054	0.554136	-0.520192	-0.521566	-0.033769	20.6053	-0.518963	-6.29761e+06	5.362122E-9	NaN
457	1.000000	0.563502	7.36953e+06	-54239.1	1005.82	-29744.2	0.000000	0.000000	6.562969	0.014614	NaN	0.000000	0.001641	0.001736	28.082	0.022615	0.001906	11.8648	-52.3676	-164.546	-0.013866	0.562174	-0.512200	-0.513528	0.014614	11.8648	-0.513124	-5.22302e+06	-2.797981E-9	NaN
457	1.000000	0.571492	7.36953e+06	-54239.1	1005.82	-29744.2	0.000000	0.000000	6.570955	-0.090805	NaN	0.000000	0.001621	0.001733	28.0821	0.031790	0.001958	16.2401	-23.7708	-166.266	-0.074435	0.570216	-0.504210	-0.505486	-0.090805	16.2401	-0.500017	-3.42965e+06	2.647651E-8	NaN
457	1.000000	0.579507	7.36953e+06	-54239.1	1005.82	-29744.2	0.000000	0.000000	6.578974	-0.005813	NaN	0.000000	0.001649	0.001719	28.082	0.133947	0.002078	64.4474	-39.8286	-166.647	0.033463	0.578200	-0.496195	-0.497502	-0.005813	64.4474	-0.496128	-3.02675e+06	1.920661E-9	NaN
457	1.000000	0.587496	7.36953e+06	-54239.1	1005.82	-29744.2	0.000000	0.000000	6.586959	-0.086542	NaN	0.000000	0.001596	0.001704	28.0825	0.073160	0.001874	39.0368	-2.097082	-164.979	-0.054871	0.586148	-0.488206	-0.489554	-0.086542	39.0368	-0.486544	-2.22371e+06	3.891770E-8	NaN
457	1.000000	0.595494	7.36953e+06	-54239.1	1005.82	-29744.2	0.000000	0.000000	6.594958	-0.066087	NaN	0.000000	0.001664	0.001736	28.0822	0.045018	0.001993	22.5865	-168.765	-165.519	-0.087376	0.594267	-0.480209	-0.481435	-0.066087	22.5865	-0.478014	-1.68936e+06	3.911975E-8	NaN
457	1.000000	0.603518	7.36953e+06	-54239.1	1005.82	-29744.2	0.000000	0.000000	6.602984	-0.043778	NaN	0.000000	0.001658	0.001724	28.0807	0.083937	0.001902	44.1345	-79.1084	-164.372	-0.020474	0.602235	-0.472184	-0.473467	-0.043778	44.1345	-0.471440	-1.36646e+06	3.203753E-8	NaN
457	1.000000	0.611511	7.36953e+06	-54239.1	1005.82	-29744.2	0.000000	0.000000	6.610979	0.029944	NaN	0.000000	0.001647	0.001739	28.0807	0.036738	0.001927	19.0613	-90.7049	-164.873	0.046491	0.610268	-0.464191	-0.465435	0.029944	19.0613	-0.465370	-1.12315e+06	-2.666109E-8	NaN
457	1.000000	0.619513	7.36953e+06	-54239.1	1005.82	-29744.2	0.000000	0.000000	6.618978	-0.033740	NaN	0.000000	0.001631	0.001718	28.081	0.046029	0.002019	22.8008	-4.373166	-162.657	-0.108995	0.618223	-0.456189	-0.457479	-0.033740	22.8008	-0.455079	-805073	4.190925E-8	NaN
457	1.000000	0.627514	7.36953e+06	-54239.1	1005.82	-29744.2	0.000000	0.000000	6.626979	-0.059125	NaN	0.000000	0.001617	0.001709	28.0809	0.053863	0.002056	26.2025	6.224467	-162.793	-0.033906	0.626226	-0.448188	-0.449477	-0.059125	26.2025	-0.446496	-609501	9.700583E-8	NaN
457	1.000000	0.635525	7.36953e+06	-54239.1	1005.82	-29744.2	0.000000	0.000000	6.634989	-0.070914	NaN	0.000000	0.001643	0.001726	28.0808	0.103583	0.001960	52.8607	131.507	-167.231	-0.018369	0.634249	-0.440177	-0.441453	-0.070914	52.8607	-0.439171	-480463	1.475948E-7	NaN
457	1.000000	0.643513	7.36953e+06	-54239.1	1005.82	-29744.2	0.000000	0.000000	6.642980	0.005339	NaN	0.000000	0.001615	0.001752	28.081	0.103741	0.001993	52.0534	-54.1674	-166.772	0.021585	0.642243	-0.432189	-0.433459	0.005339	52.0534	-0.432266	-383807	-1.391121E-8	NaN
457	1.000000	0.651568	7.36953e+06	-54239.1	1005.82	-29744.2	0.000000	0.000000	6.651034	-0.024051	NaN	0.000000	0.001646	0.001692	28.081	0.089409	0.001964	45.5202	27.7511	-165.109	-0.017380	0.650249	-0.424134	-0.425453	-0.024051	45.5202	-0.423738	-290670	8.274207E-8	NaN
457	1.000000	0.659545	7.36953e+06	-54239.1	1005.82	-29744.2	0.000000	0.000000	6.659013	0.017500	NaN	0.000000	0.001625	0.001718	28.0809	0.158543	0.002021	78.4345	-71.6074	-165.838	0.062194	0.658233	-0.416157	-0.417469	0.017500	78.4345	-0.416324	-228169	-7.669790E-8	NaN
457	1.000000	0.667518	7.36953e+06	-54239.1	1005.82	-29744.2	0.000000	0.000000	6.666985	-0.003080	NaN	0.000000	0.001606	0.001710	28.0805	0.067815	0.001910	35.5134	-27.9128	-163.384	-0.090127	0.666234	-0.408184	-0.409468	-0.003080	35.5134	-0.408119	-174440	1.765485E-8	NaN
457	1.000000	0.675555	7.36953e+06	-54239.1	1005.82	-29744.2	0.000000	0.000000	6.675021	-0.018720	NaN	0.000000	0.001590	0.001701	28.0811	0.027135	0.001916	14.1616	-138.031	-167.003	-0.062374	0.674234	-0.400147	-0.401468	-0.018720	14.1616	-0.399156	-130004	1.439927E-7	NaN
457	1.000000	0.683546	7.36953e+06	-54239.1	1005.82	-29744.2	0.000000	0.000000	6.683010	-0.077098	NaN	0.000000	0.001655	0.001712	28.0812	0.047286	0.001919	24.6365	-159.207	-168.749	-0.050461	0.682263	-0.392156	-0.393439	-0.077098	24.6365	-0.389809	-95593.9	8.065118E-7	NaN
457	1.000000	0.691519	7.36953e+06	-54239.1	1005.82	-29744.2	0.000000	0.000000	6.690986	-0.000531	NaN	0.000000	0.001617	0.001713	28.0812	0.058853	0.001877	31.356	174.959	-166.667	-0.116178	0.690274	-0.384183	-0.385428	-0.000531	31.356	-0.384171	-79378.3	6.687592E-9	NaN
457	1.000000	0.699549	7.36953e+06	-54239.1	1005.82	-29744.2	0.000000	0.000000	6.699016	0.001540	NaN	0.000000	0.001655	0.001742	28.081	0.069802	0.001960	35.6092	42.1505	-164.263	-0.017290	0.698273	-0.376153	-0.377429	0.001540	35.6092	-0.376185	-60968.8	-2.525401E-8	NaN
457	1.000000	0.707579	7.36953e+06	-54239.1	1005.82	-29744.2	0.000000	0.000000	6.707047	0.024961	NaN	0.000000	0.001613	0.001752	28.0809	0.021623	0.001992	10.8543	100.07	-169	-0.012201	0.706228	-0.368124	-0.369474	0.024961	10.8543	-0.369848	-49424.5	-5.050364E-7	NaN
457	1.000000	0.715550	7.36953e+06	-54239.1	1005.82	-29744.2	0.000000	0.000000	6.715014	-0.068590	NaN	0.000000	0.001655	0.001795	28.0811	0.110200	0.001935	56.9648	66.449	-164.193	-0.039350	0.714237	-0.360153	-0.361465	-0.068590	56.9648	-0.359249	-34753.1	1.973643E-6	NaN
457	1.000000	0.723555	7.36953e+06	-54239.1	1005.82	-29744.2	0.000000	0.000000	6.723023	0.026396	NaN	0.000000	0.001618	0.001779	28.081	0.063896	0.001986	32.1775	-150.618	-165.664	0.048813	0.722254	-0.352147	-0.353448	0.026396	32.1775	-0.352762	-27994.4	-9.429167E-7	NaN
457	1.000000	0.731584	7.36953e+06	-54239.1	1005.82	-29744.2	0.000000	0.000000	6.731049	-0.043010	NaN	0.000000	0.001637	0.001723	28.081	0.092289	0.001995	46.2645	-175.238	-165.106	-0.132772	0.730281	-0.344118	-0.345421	-0.043010	46.2645	-0.343421	-20482.5	2.099820E-6	NaN
457	1.000000	0.739574	7.36953e+06	-54239.1	1005.82	-29744.2	0.000000	0.000000	6.739039	-0.052646	NaN	0.000000	0.001634	0.001720	28.0822	0.083084	0.001975	42.0623	83.5411	-164.543	-0.045400	0.738256	-0.336128	-0.337446	-0.052646	42.0623	-0.335189	-15536.4	3.388586E-6	NaN
457	1.000000	0.747569	7.36953e+06	-54239.1	1005.82	-29744.2	0.000000	0.000000	6.747035	-0.023448	NaN	0.000000	0.001653	0.001674	28.0821	0.076539	0.002000	38.267	154.33	-161.695	0.076624	0.746261	-0.328133	-0.329442	-0.023448	38.267	-0.327673	-12060.3	1.944223E-6	NaN
457	1.000000	0.755588	7.36953e+06	-54239.1	1005.82	-29744.2	0.000000	0.000000	6.755056	0.025987	NaN	0.000000	0.001665	0.001678	28.0823	0.061673	0.002151	28.6673	100.498	-162.873	-0.016866	0.754257	-0.320114	-0.321445	0.025987	28.6673	-0.320794	-9557.01	-2.719138E-6	NaN
457	1.000000	0.763583	7.36953e+06	-54239.1	1005.82	-29744.2	0.000000	0.000000	6.763048	-0.056764	NaN	0.000000	0.001672	0.001665	28.0822	0.069974	0.002159	32.408	99.47	-162.216	-0.071729	0.762278	-0.312119	-0.313424	-0.056764	32.408	-0.310805	-6807.16	8.338839E-6	NaN
457	1.000000	0.771577	7.36953e+06	-54239.1	1005.82	-29744.2	0.000000	0.000000	6.771044	0.003792	NaN	0.000000	0.001636	0.001681	28.0822	0.067314	0.002132	31.567	167.456	-163.555	-0.039106	0.770234	-0.304126	-0.305468	0.003792	31.567	-0.304216	-5436.39	-6.975684E-7	NaN
457	1.000000	0.779574	7.36953e+06	-54239.1	1005.82	-29744.2	0.000000	0.000000	6.779044	0.074012	NaN	0.000000	0.001661	0.001735	28.0821	0.029613	0.001878	15.7675	35.9797	-167.672	0.007564	0.778286	-0.296128	-0.297416	0.074012	15.7675	-0.299649	-4649.49	-1.591832E-5	NaN
457	1.000000	0.787600	7.36953e+06	-54239.1	1005.82	-29744.2	0.000000	0.000000	6.787071	0.089959	NaN	0.000000	0.001646	0.001710	28.0829	0.038301	0.002022	18.9434	134.621	-160.304	0.072099	0.786304	-0.288102	-0.289398	0.089959	18.9434	-0.291664	-3533.57	-2.545832E-5	NaN
457	1.000000	0.795608	7.36953e+06	-54239.1	1005.82	-29744.2	0.000000	0.000000	6.795075	-0.010085	NaN	0.000000	0.001655	0.001710	28.0821	0.014161	0.002064	6.861499	-16.89	-168.307	-0.070602	0.794259	-0.280094	-0.281443	-0.010085	6.861499	-0.278992	-2279.06	4.424985E-6	NaN
457	1.000000	0.803598	7.36953e+06	-54239.1	1005.82	-29744.2	0.000000	0.000000	6.803064	-0.036651	NaN	0.000000	0.001634	0.001733	28.0821	0.101889	0.002091	48.719	-135.789	-163.927	-0.022462	0.802298	-0.272104	-0.273404	-0.036651	48.719	-0.271539	-1757.64	2.085228E-5	NaN
457	1.000000	0.811610	7.36953e+06	-54239.1	1005.82	-29744.2	0.000000	0.000000	6.811076	-0.020860	NaN	0.000000	0.001642	0.001737	28.0822	0.083858	0.002056	40.7815	-49.7101	-165.058	-0.062946	0.810306	-0.264092	-0.265396	-0.020860	40.7815	-0.263709	-1335.59	1.561890E-5	NaN
457	1.000000	0.819606	7.36953e+06	-54239.1	1005.82	-29744.2	0.000000	0.000000	6.819072	-0.030429	NaN	0.000000	0.001640	0.001716	28.0818	0.051970	0.001971	26.3704	90.4251	-166.357	0.023882	0.818337	-0.256096	-0.257365	-0.030429	26.3704	-0.255231	-990.067	3.073447E-5	NaN
457	1.000000	0.827607	7.36953e+06	-54239.1	1005.82	-29744.2	0.000000	0.000000	6.827072	-0.067950	NaN	0.000000	0.001651	0.001714	28.0827	0.102238	0.001873	54.5709	121.742	-168.272	-0.062772	0.826297	-0.248095	-0.249405	-0.067950	54.5709	-0.247161	-743.011	9.145210E-5	NaN
457	1.000000	0.835592	7.36953e+06	-54239.1	1005.82	-29744.2	0.000000	0.000000	6.835061	0.051108	NaN	0.000000	0.001639	0.001673	28.0821	0.079496	0.001870	42.5081	-156.801	-168.074	0.036656	0.834361	-0.240111	-0.241341	0.051108	42.5081	-0.241012	-596.151	-8.572993E-5	NaN
457	1.000000	0.843635	7.36953e+06	-54239.1	1005.82	-29744.2	0.000000	0.000000	6.843101	-0.044373	NaN	0.000000	0.001640	0.001709	28.0821	0.098258	0.002060	47.7067	-57.1237	-162.877	-0.038563	0.842334	-0.232067	-0.233368	-0.044373	47.7067	-0.231369	-420.843	0.000105	NaN
457	1.000000	0.851614	7.36953e+06	-54239.1	1005.82	-29744.2	0.000000	0.000000	6.851080	-0.038594	NaN	0.000000	0.001597	0.001682	28.0821	0.047477	0.002010	23.6225	97.7823	-165.268	-0.082207	0.850295	-0.224088	-0.225407	-0.038594	23.6225	-0.222862	-308.561	0.000125	NaN
457	1.000000	0.859648	7.36953e+06	-54239.1	1005.82	-29744.2	0.000000	0.000000	6.859114	-0.018708	NaN	0.000000	0.001628	0.001692	28.0821	0.049738	0.002007	24.786	-13.8855	-161.382	0.031716	0.858308	-0.216054	-0.217394	-0.018708	24.786	-0.215488	-235.158	7.955616E-5	NaN
457	1.000000	0.867636	7.36953e+06	-54239.1	1005.82	-29744.2	0.000000	0.000000	6.867106	0.074909	NaN	0.000000	0.001621	0.001706	28.0825	0.219162	0.001941	112.906	36.744	-166.747	-0.018340	0.866340	-0.208066	-0.209362	0.074909	112.906	-0.208564	-181.777	-0.000412	NaN
457	1.000000	0.875635	7.36953e+06	-54239.1	1005.82	-29744.2	0.000000	0.000000	6.875101	-0.024991	NaN	0.000000	0.001615	0.001699	28.0809	0.101944	0.001949	52.2971	-117.484	-160.943	-0.068657	0.874336	-0.200067	-0.201366	-0.024991	52.2971	-0.199709	-130.29	0.000192	NaN
457	1.000000	0.883639	7.36953e+06	-54239.1	1005.82	-29744.2	0.000000	0.000000	6.883102	-0.094631	NaN	0.000000	0.001601	0.001710	28.0809	0.146941	0.001997	73.5962	-81.4275	-165.505	-0.124014	0.882348	-0.192063	-0.193354	-0.094631	73.5962	-0.191099	-93.8357	0.001008	NaN
457	1.000000	0.891617	7.36953e+06	-54239.1	1005.82	-29744.2	0.000000	0.000000	6.891083	-0.022297	NaN	0.000000	0.001633	0.001736	28.0808	0.073167	0.002055	35.6115	99.0385	-166.98	-0.040847	0.890312	-0.184085	-0.185390	-0.022297	35.6115	-0.183616	-70.2708	0.000317	NaN
457	1.000000	0.899643	7.36953e+06	-54239.1	1005.82	-29744.2	0.000000	0.000000	6.899109	-0.030186	NaN	0.000000	0.001596	0.001727	28.0808	0.087143	0.001975	44.1134	-105.411	-162.672	-0.075925	0.898325	-0.176059	-0.177377	-0.030186	44.1134	-0.175546	-51.2103	0.000589	NaN
457	1.000000	0.907632	7.36953e+06	-54239.1	1005.82	-29744.2	0.000000	0.000000	6.907096	-0.087564	NaN	0.000000	0.001615	0.001717	28.081	0.138754	0.001992	69.6512	-132.122	-166.977	-0.047569	0.906319	-0.168070	-0.169383	-0.087564	69.6512	-0.167127	-36.6073	0.002392	NaN
457	1.000000	0.915680	7.36953e+06	-54239.1	1005.82	-29744.2	0.000000	0.000000	6.915147	-0.002602	NaN	0.000000	0.001623	0.001722	28.0808	0.004119	0.001892	2.177152	-15.9722	-163.619	-0.082745	0.914314	-0.160022	-0.161388	-0.002602	2.177152	-0.159126	-26.4503	9.835477E-5	NaN
457	1.000000	0.923638	7.36953e+06	-54239.1	1005.82	-29744.2	0.000000	0.000000	6.923102	-0.075562	NaN	0.000000	0.001593	0.001704	28.0811	0.055993	0.001965	28.5007	-36.4214	-163.873	-0.146507	0.922312	-0.152064	-0.153390	-0.075562	28.5007	-0.150076	-18.1713	0.004158	NaN
457	1.000000	0.931660	7.36953e+06	-54239.1	1005.82	-29744.2	0.000000	0.000000	6.931122	-0.127820	NaN	0.000000	0.001600	0.001695	28.0808	0.059096	0.001899	31.1169	7.581104	-166.767	-0.042854	0.930363	-0.144042	-0.145339	-0.127820	31.1169	-0.140961	-12.3307	0.010366	NaN
457	1.000000	0.939685	7.36953e+06	-54239.1	1005.82	-29744.2	0.000000	0.000000	6.939150	-0.041583	NaN	0.000000	0.001626	0.001688	28.0808	0.061957	0.001952	31.7411	158.188	-163.612	-0.081722	0.938346	-0.136017	-0.137356	-0.041583	31.7411	-0.135034	-9.526817	0.004365	NaN
457	1.000000	0.947627	7.36953e+06	-54239.1	1005.82	-29744.2	0.000000	0.000000	6.947091	-0.093213	NaN	0.000000	0.001599	0.001693	28.081	0.076441	0.001982	38.5611	62.0896	-165.267	-0.021153	0.946373	-0.128075	-0.129330	-0.093213	38.5611	-0.126262	-6.440238	0.014474	NaN
457	1.000000	0.955677	7.36953e+06	-54239.1	1005.82	-29744.2	0.000000	0.000000	6.955142	-0.051520	NaN	0.000000	0.001623	0.001728	28.0808	0.101375	0.001956	51.8156	-108.198	-164.29	-0.075668	0.954320	-0.120025	-0.121382	-0.051520	51.8156	-0.119279	-4.672046	0.011027	NaN
457	1.000000	0.963635	7.36953e+06	-54239.1	1005.82	-29744.2	0.000000	0.000000	6.963096	-0.140886	NaN	0.000000	0.001628	0.001747	28.081	0.134526	0.002035	66.1051	114.5	-165.058	-0.113445	0.962368	-0.112068	-0.113334	-0.140886	66.1051	-0.110469	-3.074349	0.045826	NaN
457	1.000000	0.971676	7.36953e+06	-54239.1	1005.82	-29744.2	0.000000	0.000000	6.971140	-0.077983	NaN	0.000000	0.001615	0.001687	28.0808	0.135249	0.002033	66.5328	-86.3487	-167.766	-0.065609	0.970340	-0.104026	-0.105362	-0.077983	66.5328	-0.103147	-2.142686	0.036395	NaN
457	1.000000	0.979683	7.36953e+06	-54239.1	1005.82	-29744.2	0.000000	0.000000	6.979151	0.004522	NaN	0.000000	0.001634	0.001732	28.0812	0.094545	0.001924	49.1428	-156.108	-167.183	-0.027951	0.978397	-0.096019	-0.097305	0.004522	49.1428	-0.096088	-1.493212	-0.003029	NaN
457	1.000000	0.987662	7.36953e+06	-54239.1	1005.82	-29744.2	0.000000	0.000000	6.987125	-0.078783	NaN	0.000000	0.001582	0.001704	28.0808	0.064106	0.002114	30.3184	-89.1518	-165.548	-0.063214	0.986389	-0.088040	-0.089313	-0.078783	30.3184	-0.086092	-0.872986	0.090245	NaN
457	1.000000	0.995661	7.36953e+06	-54239.1	1005.82	-29744.2	0.000000	0.000000	6.995126	-0.045209	NaN	0.000000	0.001643	0.001683	28.081	0.107806	0.002130	50.6175	-169.546	-165.456	-0.045605	0.994383	-0.080041	-0.081319	-0.045209	50.6175	-0.079371	-0.596946	0.075733	NaN
457	1.000000	1.003707	7.36953e+06	-54239.1	1005.82	-29744.2	0.000000	0.000000	7.003172	-0.052113	NaN	0.000000	0.001617	0.001738	28.0811	0.053393	0.002138	24.9709	31.3863	-162.588	-0.023313	1.002369	-0.071995	-0.073333	-0.052113	24.9709	-0.070430	-0.350264	0.148782	NaN
457	1.000000	1.011677	7.36953e+06	-54239.1	1005.82	-29744.2	0.000000	0.000000	7.011142	-0.064270	NaN	0.000000	0.001567	0.001707	28.0824	0.035653	0.001954	18.2493	102.527	-159.712	-0.114099	1.010378	-0.064025	-0.065324	-0.064270	18.2493	-0.061384	-0.197246	0.325838	NaN
457	1.000000	1.019710	7.36953e+06	-54239.1	1005.82	-29744.2	0.000000	0.000000	7.019176	-0.021612	NaN	0.000000	0.001610	0.001720	28.0827	0.038100	0.002044	18.6397	-176.737	-167.41	-0.003436	1.018355	-0.055992	-0.057347	-0.021612	18.6397	-0.055122	-0.129853	0.166434	NaN
457	1.000000	1.027686	7.36953e+06	-54239.1	1005.82	-29744.2	0.000000	0.000000	7.027151	-0.049861	NaN	0.000000	0.001628	0.001758	28.0821	0.045546	0.001922	23.6968	-75.2152	-166.231	-0.123275	1.026358	-0.048016	-0.049344	-0.049861	23.6968	-0.046438	-0.071112	0.701156	NaN
457	1.000000	1.035663	7.36953e+06	-54239.1	1005.82	-29744.2	0.000000	0.000000	7.035129	-0.029349	NaN	0.000000	0.001654	0.001760	28.0822	0.174629	0.001943	89.8769	-48.014	-163.081	0.028842	1.034378	-0.040039	-0.041325	-0.029349	89.8769	-0.039794	-0.044576	0.658408	NaN
457	1.000000	1.043697	7.36953e+06	-54239.1	1005.82	-29744.2	0.000000	0.000000	7.043164	-0.009431	NaN	0.000000	0.001603	0.001719	28.082	0.023314	0.002040	11.4263	-167.274	-162.888	0.035806	1.042384	-0.032005	-0.033318	-0.009431	11.4263	-0.031386	-0.025173	0.374656	NaN
457	1.000000	1.051711	7.36953e+06	-54239.1	1005.82	-29744.2	0.000000	0.000000	7.051177	-0.042366	NaN	0.000000	0.001640	0.001718	28.0823	0.058074	0.001912	30.3721	-163.332	-166.275	-0.091516	1.050390	-0.023991	-0.025312	-0.042366	30.3721	-0.022944	-0.014928	2.838092	NaN
457	1.000000	1.059705	7.36953e+06	-54239.1	1005.82	-29744.2	0.000000	0.000000	7.059171	-0.027805	NaN	0.000000	0.001616	0.001697	28.0824	0.029344	0.002007	14.6194	145.759	-164.806	-0.013426	1.058423	-0.015997	-0.017279	-0.027805	14.6194	-0.014571	-0.009020	3.082747	NaN
457	1.000000	1.067697	7.36953e+06	-54239.1	1005.82	-29744.2	0.000000	0.000000	7.067161	-0.065458	NaN	0.000000	0.001594	0.001645	28.0818	0.084129	0.001975	42.5975	147.942	-162.256	-0.050289	1.066432	-0.008005	-0.009270	-0.065458	42.5975	-0.006853	-0.004552	14.3791	NaN
457	1.000000	1.075703	7.36953e+06	-54239.1	1005.82	-29744.2	0.000000	0.000000	7.075174	0.087810	NaN	0.000000	0.001666	0.001707	28.082	0.311200	0.002041	152.494	22.7617	-164.338	-0.087492	1.074384	9.359907E-7	-0.001318	0.087810	152.494	-0.000431	-0.000319	-274.939	NaN
457	1.000000	1.083714	7.36953e+06	-54239.1	1005.82	-29744.2	0.000000	0.000000	7.083459	6.770548	NaN	0.000000	0.001622	0.001682	28.082	7.395444	0.001811	4082.69	21.3539	-175.702	6.966794	1.082440	0.008012	0.006738	6.770548	4082.69	0.006768	0.005806	1166.22	48955.1
457	2.000000	1.087333	7.36953e+06	-54239.1	1005.82	-29744.2	0.000000	0.000000	7.087294	12.0048	NaN	0.000000	0.001644	0.001662	28.0819	10.5493	0.001468	7183.91	7.827125	-174.544	12.873	1.086943	0.011631	0.011241	12.0048	7183.91	0.010378	0.009604	1249.96	66973.6
457	2.000000	1.089289	7.36953e+06	-54239.1	1005.82	-29744.2	0.000000	0.000000	7.089284	12.8199	NaN	0.000000	0.001613	0.001734	28.0821	13.0951	0.001744	7508.85	13.5084	-178.771	12.8587	1.089039	0.013587	0.013337	12.8199	7508.85	0.012307	0.011860	1080.97	62995.9
457	2.000000	1.091302	7.36953e+06	-54239.1	1005.82	-29744.2	0.000000	0.000000	7.091443	16.391	NaN	0.000000	0.001621	0.001778	28.082	15.2442	0.001862	8185.63	11.4638	-177.986	16.6827	1.090923	0.015600	0.015221	16.391	8185.63	0.014098	0.014102	1162.35	62978.3
457	2.000000	1.093207	7.36953e+06	-54239.1	1005.82	-29744.2	0.000000	0.000000	7.093440	18.6377	NaN	0.000000	0.001646	0.001778	28.0822	16.9776	0.001747	9719.16	6.575383	-176.077	17.3889	1.092983	0.017505	0.017281	18.6377	9719.16	0.016066	0.016734	1113.77	68644.2
457	2.000000	1.095235	7.36953e+06	-54239.1	1005.82	-29744.2	0.000000	0.000000	7.095636	22.6972	NaN	0.000000	0.001634	0.001774	28.0821	19.2588	0.001784	10793.4	6.129901	-176.152	22.7162	1.094915	0.019533	0.019213	22.6972	10793.4	0.017956	0.019432	1168.03	70741.4
457	2.000000	1.097230	7.36953e+06	-54239.1	1005.82	-29744.2	0.000000	0.000000	7.097774	26.1772	NaN	0.000000	0.001639	0.001788	28.0821	19.9659	0.001740	11473.2	6.545580	-176.447	25.9256	1.096877	0.021528	0.021175	26.1772	11473.2	0.019817	0.022256	1176.21	70264.9
457	2.000000	1.099191	7.36953e+06	-54239.1	1005.82	-29744.2	0.000000	0.000000	7.099844	28.8202	NaN	0.000000	0.001596	0.001802	28.0821	22.1831	0.001795	12356.6	3.305689	-173.731	27.6551	1.098875	0.023489	0.023173	28.8202	12356.6	0.021740	0.025350	1136.89	70906.1
457	2.000000	1.101244	7.36953e+06	-54239.1	1005.82	-29744.2	0.000000	0.000000	7.102112	34.0746	NaN	0.000000	0.001640	0.001770	28.0808	25.1165	0.001802	13940	11.1735	177.423	34.5177	1.100890	0.025542	0.025188	34.0746	13940	0.023708	0.028708	1186.94	75168.7
457	2.000000	1.103160	7.36953e+06	-54239.1	1005.82	-29744.2	0.000000	0.000000	7.104161	37.2831	NaN	0.000000	0.001644	0.001773	28.0818	26.3907	0.001761	14989.9	6.700431	179.473	35.2585	1.102900	0.027458	0.027198	37.2831	14989.9	0.025593	0.032103	1161.37	76437
457	2.000000	1.105241	7.36953e+06	-54239.1	1005.82	-29744.2	0.000000	0.000000	7.106448	42.2963	NaN	0.000000	0.001636	0.001761	28.0808	27.8783	0.001780	15660.1	2.823870	-176.075	42.7037	1.104967	0.029539	0.029265	42.2963	15660.1	0.027514	0.035748	1183.19	75673.5
457	2.000000	1.107159	7.36953e+06	-54239.1	1005.82	-29744.2	0.000000	0.000000	7.108586	47.6327	NaN	0.000000	0.001674	0.001738	28.0807	29.8719	0.001782	16758.8	6.919535	178.757	46.1251	1.106883	0.031457	0.031181	47.6327	16758.8	0.029325	0.039357	1210.26	77179.9
457	2.000000	1.109164	7.36953e+06	-54239.1	1005.82	-29744.2	0.000000	0.000000	7.110806	52.8706	NaN	0.000000	0.001640	0.001770	28.0809	31.8213	0.001843	17267.9	3.887767	-178.057	51.0293	1.108882	0.033462	0.033180	52.8706	17267.9	0.031166	0.043195	1224	75909.3
457	2.000000	1.111258	7.36953e+06	-54239.1	1005.82	-29744.2	0.000000	0.000000	7.113210	60.3966	NaN	0.000000	0.001643	0.001770	28.0806	34.2091	0.001792	19089.2	8.128614	177.482	62.0361	1.110813	0.035556	0.035111	60.3966	19089.2	0.033183	0.047600	1268.83	79938.6
457	2.000000	1.113185	7.36953e+06	-54239.1	1005.82	-29744.2	0.000000	0.000000	7.115408	67.0105	NaN	0.000000	0.001663	0.001773	28.0823	35.3634	0.001896	18651.9	4.608171	-178.55	67.0029	1.112877	0.037483	0.037175	67.0105	18651.9	0.034788	0.051254	1307.41	75271.5
457	2.000000	1.115170	7.36953e+06	-54239.1	1005.82	-29744.2	0.000000	0.000000	7.117600	72.03	NaN	0.000000	0.001636	0.001777	28.0809	37.271	0.001831	20356.9	1.796911	-177.328	70.4998	1.114844	0.039468	0.039142	72.03	20356.9	0.036814	0.056054	1285.02	78556.5
457	2.000000	1.117196	7.36953e+06	-54239.1	1005.82	-29744.2	0.000000	0.000000	7.119946	79.816	NaN	0.000000	0.001659	0.001741	28.0809	39.0607	0.001775	22002	8.226892	175.342	80.3261	1.116914	0.041494	0.041212	79.816	22002	0.038773	0.060896	1310.68	81459.2
457	2.000000	1.119143	7.36953e+06	-54239.1	1005.82	-29744.2	0.000000	0.000000	7.122253	88.5743	NaN	0.000000	0.001685	0.001730	28.0808	42.2288	0.001834	23023.9	7.694853	175.326	87.2823	1.118904	0.043441	0.043202	88.5743	23023.9	0.040555	0.065471	1352.88	82210.4
457	2.000000	1.121221	7.36953e+06	-54239.1	1005.82	-29744.2	0.000000	0.000000	7.124629	95.7901	NaN	0.000000	0.001619	0.001760	28.0807	43.6947	0.001890	23117.4	8.516537	176.079	95.7483	1.120720	0.045519	0.045018	95.7901	23117.4	0.042412	0.070409	1360.48	79597.1
457	2.000000	1.123199	7.36953e+06	-54239.1	1005.82	-29744.2	0.000000	0.000000	7.126799	100.462	NaN	0.000000	0.001705	0.001755	28.0821	44.3631	0.001702	26060.4	4.920770	178.138	102.061	1.122795	0.047497	0.047093	100.462	26060.4	0.044606	0.076473	1313.69	86099.6
457	2.000000	1.125130	7.36953e+06	-54239.1	1005.82	-29744.2	0.000000	0.000000	7.128958	106.034	NaN	0.000000	0.001683	0.001722	28.0807	48.1085	0.001853	25962.6	4.031201	177.546	102.708	1.124947	0.049428	0.049245	106.034	25962.6	0.046365	0.081508	1300.9	83084.4
457	2.000000	1.127174	7.36953e+06	-54239.1	1005.82	-29744.2	0.000000	0.000000	7.131335	114.093	NaN	0.000000	0.001661	0.001760	28.0811	49.4172	0.001792	27575.8	5.553562	175.269	113.086	1.126930	0.051472	0.051228	114.093	27575.8	0.048369	0.087440	1304.82	85201.6
457	2.000000	1.129183	7.36953e+06	-54239.1	1005.82	-29744.2	0.000000	0.000000	7.133825	125.827	NaN	0.000000	0.001660	0.001701	28.0807	50.7262	0.001713	29619.3	3.290054	178.513	126.097	1.128820	0.053480	0.053118	125.827	29619.3	0.050294	0.093325	1348.27	88582.6
457	2.000000	1.131267	7.36953e+06	-54239.1	1005.82	-29744.2	0.000000	0.000000	7.136260	134.332	NaN	0.000000	0.001642	0.001724	28.0807	54.6543	0.001967	27780.1	9.103830	174.126	136.652	1.130855	0.055565	0.055153	134.332	27780.1	0.051939	0.098500	1363.78	80870.4
457	2.000000	1.133219	7.36953e+06	-54239.1	1005.82	-29744.2	0.000000	0.000000	7.138459	140.357	NaN	0.000000	0.001645	0.001730	28.0815	55.4263	0.001829	30310.8	6.106286	175.363	143.178	1.132805	0.057516	0.057103	140.357	30310.8	0.054044	0.105320	1332.67	85332.7
457	2.000000	1.135107	7.36953e+06	-54239.1	1005.82	-29744.2	0.000000	0.000000	7.140733	149.725	NaN	0.000000	0.001629	0.001699	28.082	57.0509	0.001839	31014.8	3.265239	177.055	145.142	1.134904	0.059405	0.059202	149.725	31014.8	0.055784	0.111126	1347.34	85002.8
457	2.000000	1.137162	7.36953e+06	-54239.1	1005.82	-29744.2	0.000000	0.000000	7.143147	158.457	NaN	0.000000	0.001631	0.001742	28.0823	58.1514	0.001793	32439.6	4.030991	175.92	157.521	1.136836	0.061460	0.061134	158.457	32439.6	0.057796	0.118024	1342.58	86270.9
457	2.000000	1.139184	7.36953e+06	-54239.1	1005.82	-29744.2	0.000000	0.000000	7.145680	170.874	NaN	0.000000	0.001673	0.001733	28.0821	59.6063	0.001815	32842.2	4.474905	177.504	171.324	1.138719	0.063482	0.063017	170.874	32842.2	0.059580	0.124307	1374.61	85105.5
457	2.000000	1.141168	7.36953e+06	-54239.1	1005.82	-29744.2	0.000000	0.000000	7.148095	181.35	NaN	0.000000	0.001644	0.001719	28.0821	62.5241	0.001814	34470.2	6.122473	174.737	182.088	1.140801	0.065466	0.065099	181.35	34470.2	0.061520	0.131316	1381.03	86908
457	2.000000	1.143159	7.36953e+06	-54239.1	1005.82	-29744.2	0.000000	0.000000	7.150492	191.236	NaN	0.000000	0.001651	0.001769	28.082	63.6455	0.001773	35902.6	8.125174	172.228	189.897	1.142754	0.067457	0.067052	191.236	35902.6	0.063462	0.138515	1380.62	88135.6
457	2.000000	1.145138	7.36953e+06	-54239.1	1005.82	-29744.2	0.000000	0.000000	7.152961	203.129	NaN	0.000000	0.001606	0.001760	28.0818	65.961	0.001789	36879.6	2.734053	176.599	201.329	1.144822	0.069436	0.069120	203.129	36879.6	0.065305	0.145516	1395.92	88329.2
457	2.000000	1.147100	7.36953e+06	-54239.1	1005.82	-29744.2	0.000000	0.000000	7.155303	212.376	NaN	0.000000	0.001612	0.001738	28.082	67.5372	0.001766	38247.1	6.347182	172.42	210.663	1.146889	0.071398	0.071187	212.376	38247.1	0.067233	0.153016	1387.93	89331.2
457	2.000000	1.149119	7.36953e+06	-54239.1	1005.82	-29744.2	0.000000	0.000000	7.157772	223.316	NaN	0.000000	0.001610	0.001722	28.082	69.2459	0.001687	41040.2	4.792129	174.06	221.684	1.148852	0.073417	0.073150	223.316	41040.2	0.069336	0.161397	1383.64	93333
457	2.000000	1.151236	7.36953e+06	-54239.1	1005.82	-29744.2	0.000000	0.000000	7.160365	234.891	NaN	0.000000	0.001665	0.001769	28.0821	72.2362	0.001834	39388.4	6.553666	173.084	237.429	1.150800	0.075534	0.075098	234.891	39388.4	0.071061	0.168431	1394.59	87686
457	2.000000	1.153095	7.36953e+06	-54239.1	1005.82	-29744.2	0.000000	0.000000	7.162754	247.765	NaN	0.000000	0.001648	0.001803	28.0819	72.826	0.001826	39892.4	3.035664	176.245	246.24	1.152847	0.077393	0.077145	247.765	39892.4	0.072735	0.175392	1412.64	87028
457	2.000000	1.155132	7.36953e+06	-54239.1	1005.82	-29744.2	0.000000	0.000000	7.165224	258.312	NaN	0.000000	0.001644	0.001777	28.0819	74.9047	0.001766	42412.7	3.438816	174.917	258.794	1.154844	0.079429	0.079142	258.312	42412.7	0.074862	0.184425	1400.64	90231.8
457	2.000000	1.157060	7.36953e+06	-54239.1	1005.82	-29744.2	0.000000	0.000000	7.167815	274.41	NaN	0.000000	0.001656	0.001752	28.0821	75.7463	0.001808	41893.1	2.171066	176.847	271.702	1.156705	0.081358	0.081003	274.41	41893.1	0.076446	0.191292	1434.51	87512.1
457	2.000000	1.159053	7.36953e+06	-54239.1	1005.82	-29744.2	0.000000	0.000000	7.170155	282.874	NaN	0.000000	0.001667	0.001760	28.0821	78.627	0.001792	43870.3	6.530440	172.082	279.333	1.158746	0.083350	0.083044	282.874	43870.3	0.078514	0.200438	1411.28	89526.9
457	2.000000	1.161098	7.36953e+06	-54239.1	1005.82	-29744.2	0.000000	0.000000	7.172815	297.817	NaN	0.000000	0.001648	0.001740	28.0818	80.294	0.001757	45709.4	5.415321	172.797	293.486	1.160748	0.085396	0.085046	297.817	45709.4	0.080509	0.209445	1421.93	91252.1
457	2.000000	1.163091	7.36953e+06	-54239.1	1005.82	-29744.2	0.000000	0.000000	7.175279	309.273	NaN	0.000000	0.001674	0.001712	28.082	81.6546	0.001765	46266.2	6.294046	171.149	307.169	1.162855	0.087389	0.087153	309.273	46266.2	0.082375	0.218039	1418.43	90525.3
457	2.000000	1.165100	7.36953e+06	-54239.1	1005.82	-29744.2	0.000000	0.000000	7.177737	320.178	NaN	0.000000	0.001665	0.001740	28.0821	85.3949	0.001735	49223.8	6.418902	170.663	316.15	1.164746	0.089398	0.089044	320.178	49223.8	0.084519	0.228114	1403.59	94161.3
457	2.000000	1.166987	7.36953e+06	-54239.1	1005.82	-29744.2	0.000000	0.000000	7.179957	328.273	NaN	0.000000	0.001657	0.001719	28.0822	84.897	0.001696	50055.5	1.850353	175.013	321.563	1.166882	0.091285	0.091180	328.273	50055.5	0.086366	0.236962	1385.34	93947.6
457	2.000000	1.169086	7.36953e+06	-54239.1	1005.82	-29744.2	0.000000	0.000000	7.182985	350.847	NaN	0.000000	0.001667	0.001732	28.0806	89.5742	0.001741	51464	8.042953	169.056	350.315	1.168831	0.093384	0.093129	350.847	51464	0.088271	0.246253	1424.74	94751.6
457	2.000000	1.171159	7.36953e+06	-54239.1	1005.82	-29744.2	0.000000	0.000000	7.185789	368.636	NaN	0.000000	0.001663	0.001712	28.0806	91.5941	0.001870	48984.8	5.745281	171.898	367.636	1.170863	0.095457	0.095161	368.636	48984.8	0.089812	0.253892	1451.94	88819.7
457	2.000000	1.173030	7.36953e+06	-54239.1	1005.82	-29744.2	0.000000	0.000000	7.188151	380.57	NaN	0.000000	0.001661	0.001716	28.0807	92.4403	0.001791	51599.8	2.697844	174.271	376.144	1.172784	0.097328	0.097082	380.57	51599.8	0.091796	0.263885	1442.18	91772.9
457	2.000000	1.175128	7.36953e+06	-54239.1	1005.82	-29744.2	0.000000	0.000000	7.190539	387.608	NaN	0.000000	0.001630	0.001763	28.0806	94.9827	0.001866	50904.3	1.628236	175.513	385.682	1.174943	0.099426	0.099241	387.608	50904.3	0.093715	0.273721	1416.07	88894.2
457	2.000000	1.177102	7.36953e+06	-54239.1	1005.82	-29744.2	0.000000	0.000000	7.193591	413.814	NaN	0.000000	0.001625	0.001730	28.0807	96.3154	0.001921	50129	4.373958	173.501	414.393	1.176721	0.101400	0.101019	413.814	50129	0.095209	0.281496	1470.05	86322.9
457	2.000000	1.179209	7.36953e+06	-54239.1	1005.82	-29744.2	0.000000	0.000000	7.196110	423.838	NaN	0.000000	0.001632	0.001730	28.0808	98.7522	0.001822	54212.1	6.169950	170.925	429.335	1.178857	0.103507	0.103155	423.838	54212.1	0.097643	0.294383	1439.75	91287.9
457	2.000000	1.181212	7.36953e+06	-54239.1	1005.82	-29744.2	0.000000	0.000000	7.198938	443.877	NaN	0.000000	0.001660	0.001741	28.0806	101.019	0.001863	54224	9.667137	167.853	448.197	1.180715	0.105510	0.105013	443.877	54224	0.099371	0.303694	1461.59	89897.3
457	2.000000	1.183066	7.36953e+06	-54239.1	1005.82	-29744.2	0.000000	0.000000	7.201570	462.807	NaN	0.000000	0.001640	0.001730	28.0807	100.625	0.001733	58058.7	4.965911	172.117	461.099	1.182645	0.107364	0.106943	462.807	58058.7	0.101385	0.314722	1470.53	94553.4
457	2.000000	1.184102	7.36953e+06	-54239.1	1005.82	-29744.2	0.000000	0.000000	7.202865	469.121	NaN	0.000000	0.001645	0.001720	28.0805	101.585	0.001782	56995.4	4.320710	172.669	466.597	1.183703	0.108399	0.108001	469.121	56995.4	0.102226	0.319380	1468.85	92142.3