File: remote_trans/data/nanoindenter/0828-1/data/Data_2025-08-06,11h17m57s/2025-07-22_16-23-58_1_1184.txt
2025-07-22, 16:23:58, 1
Index	Phase	Displacement	Time	Pos X	Pos Y	Pos Z	Rot A	Rot B	Piezo Z	Force A	Force B	Gripper	Voltage A	Voltage B	Temperature	Amplitude force	Amplitude pos	Stiffness	Phase shift	Phase excitation	Force A raw	Displacement raw	HMax	HMax raw	Real Force	Real Stiffness	Contact Depth	Area	Hardness	Reduced Mod.
[#]	[#]	[um]	[s]	[um]	[um]	[um]	[m°]	[m°]	[um]	[uN]	[uN]	[V]	[V]	[V]	[°C]	[uN]	[um]	[N/m]	[°]	[°]	[uN]	[um]	[um]	[um]	[uN]	[N/m]	[um]	[um^2]	[MPa]	[MPa]
1184	1.000000	0.003118	7.37663e+06	-56389.1	1105.82	-29739	0.000000	0.000000	6.002804	-0.082186	NaN	0.000000	0.001679	0.001653	28.081	0.073451	0.000966	75.9999	-73.2747	-170.255	-0.091297	0.001822	-1.011200	-1.012496	-0.082186	75.9999	-1.010389	-3.130555E+13	2.625289E-15	NaN
1184	1.000000	0.011050	7.37663e+06	-56389.1	1105.82	-29739	0.000000	0.000000	6.010744	0.094825	NaN	0.000000	0.001653	0.001694	28.0809	0.110822	0.000862	128.517	-152.444	-169.132	0.037632	0.009769	-1.003268	-1.004549	0.094825	128.517	-1.003822	-2.553978E+13	-3.712854E-15	NaN
1184	1.000000	0.019062	7.37663e+06	-56389.1	1105.82	-29739	0.000000	0.000000	6.018750	-0.060141	NaN	0.000000	0.001648	0.001683	28.081	0.028463	0.001640	17.3565	132.583	-162.656	-0.009463	0.017716	-0.995256	-0.996602	-0.060141	17.3565	-0.992657	-1.806724E+13	3.328736E-15	NaN
1184	1.000000	0.027100	7.37663e+06	-56389.1	1105.82	-29739	0.000000	0.000000	6.026791	0.024110	NaN	0.000000	0.001690	0.001669	28.0813	0.027018	0.001937	13.9518	72.8452	-167.565	0.027675	0.025725	-0.987218	-0.988593	0.024110	13.9518	-0.988514	-1.588908E+13	-1.517376E-15	NaN
1184	1.000000	0.035079	7.37663e+06	-56389.1	1105.82	-29739	0.000000	0.000000	6.034767	-0.046132	NaN	0.000000	0.001657	0.001707	28.0819	0.088771	0.001783	49.7781	-35.245	-163.811	-0.001784	0.033744	-0.979239	-0.980574	-0.046132	49.7781	-0.978544	-1.166251E+13	3.955617E-15	NaN
1184	1.000000	0.043065	7.37663e+06	-56389.1	1105.82	-29739	0.000000	0.000000	6.042754	-0.042167	NaN	0.000000	0.001658	0.001693	28.0819	0.129514	0.002006	64.5492	117.507	-165.62	-0.029162	0.041856	-0.971253	-0.972462	-0.042167	64.5492	-0.970763	-9.160965E+12	4.602864E-15	NaN
1184	1.000000	0.051047	7.37663e+06	-56389.1	1105.82	-29739	0.000000	0.000000	6.050737	-0.009189	NaN	0.000000	0.001653	0.001670	28.082	0.034244	0.002117	16.179	106.118	-164.379	0.014181	0.049768	-0.963271	-0.964550	-0.009189	16.179	-0.962845	-7.165068E+12	1.282478E-15	NaN
1184	1.000000	0.059041	7.37663e+06	-56389.1	1105.82	-29739	0.000000	0.000000	6.058730	-0.027403	NaN	0.000000	0.001651	0.001672	28.0819	0.050847	0.002101	24.2022	-39.4532	-166.746	-0.056918	0.057738	-0.955277	-0.956580	-0.027403	24.2022	-0.954427	-5.517384E+12	4.966593E-15	NaN
1184	1.000000	0.067053	7.37663e+06	-56389.1	1105.82	-29739	0.000000	0.000000	6.066743	-0.002391	NaN	0.000000	0.001698	0.001671	28.0824	0.102629	0.001956	52.4811	-166.717	-166.361	0.078224	0.065783	-0.947265	-0.948535	-0.002391	52.4811	-0.947231	-4.412416E+12	5.419414E-16	NaN
1184	1.000000	0.075074	7.37663e+06	-56389.1	1105.82	-29739	0.000000	0.000000	6.074764	-0.005573	NaN	0.000000	0.001666	0.001699	28.0826	0.030184	0.002041	14.7862	-69.8792	-163.168	-0.055487	0.073780	-0.939244	-0.940538	-0.005573	14.7862	-0.938962	-3.412930E+12	1.632980E-15	NaN
1184	1.000000	0.083086	7.37663e+06	-56389.1	1105.82	-29739	0.000000	0.000000	6.082775	-0.035092	NaN	0.000000	0.001679	0.001670	28.0822	0.051335	0.002024	25.3681	-105.948	-165.801	0.034062	0.081755	-0.931232	-0.932563	-0.035092	25.3681	-0.930194	-2.599083E+12	1.350177E-14	NaN
1184	1.000000	0.091075	7.37663e+06	-56389.1	1105.82	-29739	0.000000	0.000000	6.090764	-0.029886	NaN	0.000000	0.001686	0.001714	28.0822	0.074987	0.002057	36.4527	150.236	-167.818	-0.040491	0.089731	-0.923243	-0.924587	-0.029886	36.4527	-0.922628	-2.054398E+12	1.454748E-14	NaN
1184	1.000000	0.099066	7.37663e+06	-56389.1	1105.82	-29739	0.000000	0.000000	6.098758	0.031257	NaN	0.000000	0.001685	0.001696	28.0821	0.124167	0.001944	63.8767	-151.966	-162.599	0.068302	0.097766	-0.915252	-0.916552	0.031257	63.8767	-0.915619	-1.652130E+12	-1.891942E-14	NaN
1184	1.000000	0.107073	7.37663e+06	-56389.1	1105.82	-29739	0.000000	0.000000	6.106760	-0.075917	NaN	0.000000	0.001704	0.001719	28.0821	0.062235	0.002022	30.7817	-18.4295	-166.852	-0.071723	0.105797	-0.907245	-0.908521	-0.075917	30.7817	-0.905395	-1.202150E+12	6.315132E-14	NaN
1184	1.000000	0.115106	7.37663e+06	-56389.1	1105.82	-29739	0.000000	0.000000	6.114795	-0.040467	NaN	0.000000	0.001728	0.001689	28.0822	0.009265	0.001952	4.745955	33.9469	-164.438	-0.097808	0.113748	-0.899212	-0.900570	-0.040467	4.745955	-0.892817	-8.128049E+11	4.978723E-14	NaN
1184	1.000000	0.123093	7.37663e+06	-56389.1	1105.82	-29739	0.000000	0.000000	6.122784	0.006017	NaN	0.000000	0.001720	0.001666	28.0819	0.077606	0.002248	34.5287	145.021	-166.721	0.098705	0.121731	-0.891224	-0.892587	0.006017	34.5287	-0.891355	-7.766655E+11	-7.747363E-15	NaN
1184	1.000000	0.131104	7.37663e+06	-56389.1	1105.82	-29739	0.000000	0.000000	6.130796	0.034008	NaN	0.000000	0.001700	0.001681	28.0821	0.121497	0.001974	61.5466	-70.7995	-164.033	0.121170	0.129744	-0.883214	-0.884573	0.034008	61.5466	-0.883628	-6.106195E+11	-5.569395E-14	NaN
1184	1.000000	0.139109	7.37663e+06	-56389.1	1105.82	-29739	0.000000	0.000000	6.138799	0.016753	NaN	0.000000	0.001674	0.001657	28.0818	0.080407	0.002051	39.206	-17.5023	-165.24	-0.035763	0.137783	-0.875209	-0.876535	0.016753	39.206	-0.875530	-4.745161E+11	-3.530516E-14	NaN
1184	1.000000	0.147101	7.37663e+06	-56389.1	1105.82	-29739	0.000000	0.000000	6.146794	0.054691	NaN	0.000000	0.001710	0.001683	28.082	0.189840	0.002014	94.2669	12.0314	-166.118	-0.015885	0.145758	-0.867217	-0.868560	0.054691	94.2669	-0.867652	-3.712566E+11	-1.473131E-13	NaN
1184	1.000000	0.155113	7.37663e+06	-56389.1	1105.82	-29739	0.000000	0.000000	6.154800	-0.089208	NaN	0.000000	0.001667	0.001655	28.082	0.038312	0.001895	20.2125	35.5297	-168.202	-0.037750	0.153805	-0.859205	-0.860513	-0.089208	20.2125	-0.855895	-2.573651E+11	3.466216E-13	NaN
1184	1.000000	0.163117	7.37663e+06	-56389.1	1105.82	-29739	0.000000	0.000000	6.162806	-0.037844	NaN	0.000000	0.001695	0.001694	28.0816	0.093075	0.002004	46.4402	-113.684	-168.554	-0.069889	0.161784	-0.851201	-0.852534	-0.037844	46.4402	-0.850589	-2.181316E+11	1.734902E-13	NaN
1184	1.000000	0.171103	7.37663e+06	-56389.1	1105.82	-29739	0.000000	0.000000	6.170793	0.000714	NaN	0.000000	0.001653	0.001671	28.0811	0.135967	0.002111	64.4207	-88.2745	-164.527	0.021682	0.169845	-0.843215	-0.844473	0.000714	64.4207	-0.843224	-1.733653E+11	-4.115742E-15	NaN
1184	1.000000	0.179092	7.37663e+06	-56389.1	1105.82	-29739	0.000000	0.000000	6.178780	-0.032336	NaN	0.000000	0.001682	0.001663	28.0809	0.066281	0.002154	30.7729	-21.4891	-166.412	-0.042595	0.177837	-0.835226	-0.836481	-0.032336	30.7729	-0.834438	-1.318060E+11	2.453271E-13	NaN
1184	1.000000	0.187127	7.37663e+06	-56389.1	1105.82	-29739	0.000000	0.000000	6.186816	-0.029111	NaN	0.000000	0.001674	0.001661	28.081	0.038488	0.001848	20.8244	-21.5985	-167.026	0.031378	0.185799	-0.827191	-0.828519	-0.029111	20.8244	-0.826142	-1.017401E+11	2.861314E-13	NaN
1184	1.000000	0.195127	7.37663e+06	-56389.1	1105.82	-29739	0.000000	0.000000	6.194816	-0.028711	NaN	0.000000	0.001665	0.001678	28.081	0.064304	0.002001	32.1285	-158.016	-165.315	-0.049617	0.193755	-0.819191	-0.820563	-0.028711	32.1285	-0.818521	-8.019545E+10	3.580158E-13	NaN
1184	1.000000	0.203103	7.37663e+06	-56389.1	1105.82	-29739	0.000000	0.000000	6.202793	0.004082	NaN	0.000000	0.001671	0.001676	28.0811	0.058279	0.001974	29.5298	-25.8108	-163.736	0.030500	0.201752	-0.811215	-0.812566	0.004082	29.5298	-0.811319	-6.404164E+10	-6.374210E-14	NaN
1184	1.000000	0.211121	7.37663e+06	-56389.1	1105.82	-29739	0.000000	0.000000	6.210809	-0.056562	NaN	0.000000	0.001672	0.001637	28.0813	0.067449	0.002010	33.5569	-62.5022	-167.449	-0.102086	0.209834	-0.803197	-0.804484	-0.056562	33.5569	-0.801933	-4.776352E+10	1.184206E-12	NaN
1184	1.000000	0.219148	7.37663e+06	-56389.1	1105.82	-29739	0.000000	0.000000	6.218837	-0.041021	NaN	0.000000	0.001651	0.001694	28.0811	0.075487	0.001875	40.2688	-84.5206	-166.542	-0.040037	0.217851	-0.795170	-0.796467	-0.041021	40.2688	-0.794406	-3.774960E+10	1.086649E-12	NaN
1184	1.000000	0.227160	7.37663e+06	-56389.1	1105.82	-29739	0.000000	0.000000	6.226850	-0.001680	NaN	0.000000	0.001680	0.001687	28.081	0.044830	0.002012	22.2778	-120.753	-164.744	-0.057235	0.225810	-0.787158	-0.788508	-0.001680	22.2778	-0.787101	-3.004075E+10	5.591975E-14	NaN
1184	1.000000	0.235152	7.37663e+06	-56389.1	1105.82	-29739	0.000000	0.000000	6.234839	-0.054533	NaN	0.000000	0.001653	0.001674	28.081	0.092567	0.002066	44.8098	34.611	-165.746	-0.042435	0.233877	-0.779166	-0.780441	-0.054533	44.8098	-0.778254	-2.277718E+10	2.394199E-12	NaN
1184	1.000000	0.243160	7.37663e+06	-56389.1	1105.82	-29739	0.000000	0.000000	6.242851	0.023617	NaN	0.000000	0.001639	0.001664	28.081	0.127872	0.001975	64.7487	-165.749	-165.984	0.040439	0.241827	-0.771158	-0.772491	0.023617	64.7487	-0.771432	-1.839796E+10	-1.283666E-12	NaN
1184	1.000000	0.251124	7.37663e+06	-56389.1	1105.82	-29739	0.000000	0.000000	6.250815	0.003088	NaN	0.000000	0.001674	0.001657	28.081	0.025565	0.001989	12.8532	-63.8386	-165.625	0.015399	0.249871	-0.763194	-0.764447	0.003088	12.8532	-0.763374	-1.429543E+10	-2.160210E-13	NaN
1184	1.000000	0.259126	7.37663e+06	-56389.1	1105.82	-29739	0.000000	0.000000	6.258816	-0.006829	NaN	0.000000	0.001706	0.001680	28.0811	0.009621	0.002006	4.796297	96.9452	-169.787	0.001441	0.257880	-0.755192	-0.756438	-0.006829	4.796297	-0.754124	-1.069909E+10	6.382397E-13	NaN
1184	1.000000	0.267144	7.37663e+06	-56389.1	1105.82	-29739	0.000000	0.000000	6.266834	0.001453	NaN	0.000000	0.001700	0.001666	28.0809	0.018398	0.002071	8.885872	-124.006	-168.471	-0.040633	0.265803	-0.747174	-0.748515	0.001453	8.885872	-0.747296	-8.638050E+9	-1.682175E-13	NaN
1184	1.000000	0.275159	7.37663e+06	-56389.1	1105.82	-29739	0.000000	0.000000	6.274846	-0.078067	NaN	0.000000	0.001695	0.001655	28.0808	0.067135	0.001948	34.4605	75.5459	-161.852	-0.063579	0.273845	-0.739159	-0.740473	-0.078067	34.4605	-0.737459	-6.345272E+9	1.230313E-11	NaN
1184	1.000000	0.283141	7.37663e+06	-56389.1	1105.82	-29739	0.000000	0.000000	6.282831	-0.002712	NaN	0.000000	0.001722	0.001681	28.0809	0.074268	0.001992	37.2742	5.903605	-167.799	-0.070530	0.281874	-0.731177	-0.732444	-0.002712	37.2742	-0.731122	-5.201180E+9	5.214888E-13	NaN
1184	1.000000	0.291118	7.37663e+06	-56389.1	1105.82	-29739	0.000000	0.000000	6.290806	-0.054613	NaN	0.000000	0.001669	0.001698	28.0808	0.134838	0.001987	67.8677	-172.731	-164.388	-0.047705	0.289802	-0.723200	-0.724516	-0.054613	67.8677	-0.722597	-3.980015E+9	1.372175E-11	NaN
1184	1.000000	0.299176	7.37663e+06	-56389.1	1105.82	-29739	0.000000	0.000000	6.298865	-0.011193	NaN	0.000000	0.001656	0.001712	28.0811	0.077003	0.001980	38.8998	-64.4937	-166.011	-0.035583	0.297876	-0.715142	-0.716442	-0.011193	38.8998	-0.714927	-3.128036E+9	3.578158E-12	NaN
1184	1.000000	0.307142	7.37663e+06	-56389.1	1105.82	-29739	0.000000	0.000000	6.306831	-0.031595	NaN	0.000000	0.001662	0.001717	28.0821	0.074729	0.002023	36.9441	-62.4941	-166.975	0.000687	0.305841	-0.707176	-0.708477	-0.031595	36.9441	-0.706535	-2.402983E+9	1.314808E-11	NaN
1184	1.000000	0.315150	7.37663e+06	-56389.1	1105.82	-29739	0.000000	0.000000	6.314839	-0.014300	NaN	0.000000	0.001687	0.001710	28.0821	0.024904	0.002021	12.3214	167.985	-167.13	-0.109399	0.313877	-0.699168	-0.700441	-0.014300	12.3214	-0.698298	-1.854734E+9	7.709962E-12	NaN
1184	1.000000	0.323192	7.37663e+06	-56389.1	1105.82	-29739	0.000000	0.000000	6.322885	0.067001	NaN	0.000000	0.001639	0.001707	28.082	0.058202	0.002040	28.5262	179.669	-164.452	0.066191	0.321894	-0.691126	-0.692424	0.067001	28.5262	-0.692888	-1.564509E+9	-4.282588E-11	NaN
1184	1.000000	0.331183	7.37663e+06	-56389.1	1105.82	-29739	0.000000	0.000000	6.330871	-0.059999	NaN	0.000000	0.001663	0.001699	28.0821	0.056059	0.001941	28.8811	179.563	-167.804	-0.010417	0.329888	-0.683135	-0.684429	-0.059999	28.8811	-0.681577	-1.095894E+9	5.474934E-11	NaN
1184	1.000000	0.339179	7.37663e+06	-56389.1	1105.82	-29739	0.000000	0.000000	6.338869	-0.001367	NaN	0.000000	0.001630	0.001677	28.0818	0.039416	0.002138	18.435	-173.938	-164.385	-0.007641	0.337872	-0.675139	-0.676446	-0.001367	18.435	-0.675083	-8.931997E+8	1.529922E-12	NaN
1184	1.000000	0.347165	7.37663e+06	-56389.1	1105.82	-29739	0.000000	0.000000	6.346856	0.033188	NaN	0.000000	0.001628	0.001664	28.082	0.042507	0.001959	21.695	171.217	-163.259	0.037658	0.345860	-0.667153	-0.668458	0.033188	21.695	-0.668301	-7.213251E+8	-4.600964E-11	NaN
1184	1.000000	0.355197	7.37663e+06	-56389.1	1105.82	-29739	0.000000	0.000000	6.354885	-0.044989	NaN	0.000000	0.001582	0.001668	28.0821	0.029210	0.001877	15.5594	-120.193	-165.814	0.030092	0.353897	-0.659121	-0.660421	-0.044989	15.5594	-0.656952	-5.043320E+8	8.920561E-11	NaN
1184	1.000000	0.363204	7.37663e+06	-56389.1	1105.82	-29739	0.000000	0.000000	6.362894	-0.007870	NaN	0.000000	0.001631	0.001657	28.0822	0.103359	0.001896	54.5256	150.397	-164.974	-0.066942	0.361909	-0.651114	-0.652408	-0.007870	54.5256	-0.651006	-4.180424E+8	1.882533E-11	NaN
1184	1.000000	0.371200	7.37663e+06	-56389.1	1105.82	-29739	0.000000	0.000000	6.370888	-0.043124	NaN	0.000000	0.001616	0.001670	28.0818	0.100035	0.002013	49.6915	-58.9698	-166.021	-0.027280	0.369877	-0.643118	-0.644441	-0.043124	49.6915	-0.642467	-3.192553E+8	1.350779E-10	NaN
1184	1.000000	0.379175	7.37663e+06	-56389.1	1105.82	-29739	0.000000	0.000000	6.378860	-0.107725	NaN	0.000000	0.001618	0.001658	28.082	0.091624	0.001950	46.9763	2.654372	-165.627	-0.111949	0.377897	-0.635143	-0.636421	-0.107725	46.9763	-0.633424	-2.399007E+8	4.490403E-10	NaN
1184	1.000000	0.387222	7.37663e+06	-56389.1	1105.82	-29739	0.000000	0.000000	6.386913	0.011673	NaN	0.000000	0.001638	0.001691	28.0819	0.042724	0.001864	22.9221	-46.44	-165.627	0.041615	0.385912	-0.627096	-0.628406	0.011673	22.9221	-0.627478	-1.987838E+8	-5.871975E-11	NaN
1184	1.000000	0.395198	7.37663e+06	-56389.1	1105.82	-29739	0.000000	0.000000	6.394887	-0.031079	NaN	0.000000	0.001629	0.001645	28.082	0.026903	0.002171	12.3942	32.8939	-166.129	0.037001	0.393869	-0.619120	-0.620449	-0.031079	12.3942	-0.617240	-1.437759E+8	2.161641E-10	NaN
1184	1.000000	0.403205	7.37663e+06	-56389.1	1105.82	-29739	0.000000	0.000000	6.402893	-0.043668	NaN	0.000000	0.001621	0.001662	28.0821	0.071839	0.001932	37.1847	-38.2586	-163.494	-0.022421	0.401932	-0.611113	-0.612386	-0.043668	37.1847	-0.610232	-1.151623E+8	3.791877E-10	NaN
1184	1.000000	0.411214	7.37663e+06	-56389.1	1105.82	-29739	0.000000	0.000000	6.410905	0.005759	NaN	0.000000	0.001618	0.001686	28.0821	0.058587	0.001993	29.4036	84.0592	-169.241	0.086508	0.409903	-0.603104	-0.604415	0.005759	29.4036	-0.603251	-9.230427E+7	-6.238825E-11	NaN
1184	1.000000	0.419219	7.37663e+06	-56389.1	1105.82	-29739	0.000000	0.000000	6.418912	0.065142	NaN	0.000000	0.001614	0.001667	28.0822	0.074275	0.002051	36.2069	-166.761	-164.877	0.006795	0.417953	-0.595099	-0.596365	0.065142	36.2069	-0.596449	-7.439458E+7	-8.756283E-10	NaN
1184	1.000000	0.427213	7.37663e+06	-56389.1	1105.82	-29739	0.000000	0.000000	6.426905	0.045309	NaN	0.000000	0.001617	0.001673	28.0819	0.062705	0.001975	31.7424	-122.41	-167.347	-0.018350	0.425883	-0.587105	-0.588435	0.045309	31.7424	-0.588175	-5.721430E+7	-7.919107E-10	NaN
1184	1.000000	0.435203	7.37663e+06	-56389.1	1105.82	-29739	0.000000	0.000000	6.434894	0.013008	NaN	0.000000	0.001604	0.001645	28.0819	0.095387	0.002003	47.6323	141.82	-165.856	0.042882	0.433883	-0.579115	-0.580435	0.013008	47.6323	-0.579320	-4.318510E+7	-3.012205E-10	NaN
1184	1.000000	0.443225	7.37663e+06	-56389.1	1105.82	-29739	0.000000	0.000000	6.442914	-0.014098	NaN	0.000000	0.001633	0.001683	28.0807	0.009672	0.001902	5.084322	-82.7591	-163.085	0.000646	0.441933	-0.571093	-0.572385	-0.014098	5.084322	-0.569013	-3.111719E+7	4.530751E-10	NaN
1184	1.000000	0.451248	7.37663e+06	-56389.1	1105.82	-29739	0.000000	0.000000	6.450936	-0.054412	NaN	0.000000	0.001618	0.001672	28.0807	0.133597	0.002004	66.6575	86.3523	-168.069	-0.098076	0.449945	-0.563070	-0.564373	-0.054412	66.6575	-0.562458	-2.525653E+7	2.154390E-9	NaN
1184	1.000000	0.459217	7.37663e+06	-56389.1	1105.82	-29739	0.000000	0.000000	6.458905	-0.054568	NaN	0.000000	0.001634	0.001668	28.0808	0.124845	0.001942	64.2923	-7.824011	-166.771	-0.047525	0.457911	-0.555100	-0.556407	-0.054568	64.2923	-0.554464	-1.957798E+7	2.787212E-9	NaN
1184	1.000000	0.467222	7.37663e+06	-56389.1	1105.82	-29739	0.000000	0.000000	6.466912	-0.008153	NaN	0.000000	0.001633	0.001666	28.0809	0.055725	0.001894	29.4161	-142.58	-167.074	0.004663	0.465926	-0.547096	-0.548392	-0.008153	29.4161	-0.546888	-1.537591E+7	5.302345E-10	NaN
1184	1.000000	0.475267	7.37663e+06	-56389.1	1105.82	-29739	0.000000	0.000000	6.474956	-0.025290	NaN	0.000000	0.001634	0.001704	28.0808	0.012760	0.002019	6.319324	-73.1871	-166.941	-0.033979	0.473946	-0.539051	-0.540372	-0.025290	6.319324	-0.536050	-1.087817E+7	2.324843E-9	NaN
1184	1.000000	0.483237	7.37663e+06	-56389.1	1105.82	-29739	0.000000	0.000000	6.482924	-0.055067	NaN	0.000000	0.001643	0.001727	28.0807	0.022011	0.001888	11.659	68.4387	-166.106	-0.100442	0.481866	-0.531081	-0.532452	-0.055067	11.659	-0.527539	-8.2869e+06	6.645110E-9	NaN
1184	1.000000	0.491250	7.37663e+06	-56389.1	1105.82	-29739	0.000000	0.000000	6.490938	-0.071107	NaN	0.000000	0.001650	0.001721	28.081	0.145754	0.001962	74.2762	57.318	-163.933	-0.046098	0.489924	-0.523068	-0.524394	-0.071107	74.2762	-0.522350	-7.0189e+06	1.013074E-8	NaN
1184	1.000000	0.499258	7.37663e+06	-56389.1	1105.82	-29739	0.000000	0.000000	6.498947	-0.044531	NaN	0.000000	0.001671	0.001715	28.081	0.090911	0.002008	45.2636	71.1096	-165.873	-0.061198	0.497992	-0.515060	-0.516326	-0.044531	45.2636	-0.514322	-5.42741e+06	8.204801E-9	NaN
1184	1.000000	0.507226	7.37663e+06	-56389.1	1105.82	-29739	0.000000	0.000000	6.506912	-0.084324	NaN	0.000000	0.001659	0.001708	28.0809	0.060416	0.002031	29.743	3.232443	-166.621	-0.085430	0.505966	-0.507092	-0.508352	-0.084324	29.743	-0.504966	-4.02039e+06	2.097407E-8	NaN
1184	1.000000	0.515239	7.37663e+06	-56389.1	1105.82	-29739	0.000000	0.000000	6.514931	0.028666	NaN	0.000000	0.001647	0.001701	28.0808	0.047464	0.002096	22.6447	169.382	-164.17	0.002634	0.513997	-0.499079	-0.500321	0.028666	22.6447	-0.500028	-3.43093e+06	-8.355249E-9	NaN
1184	1.000000	0.523258	7.37663e+06	-56389.1	1105.82	-29739	0.000000	0.000000	6.522947	-0.021255	NaN	0.000000	0.001657	0.001688	28.0809	0.050589	0.001893	26.7215	-65.3786	-163.224	-0.049114	0.521957	-0.491060	-0.492361	-0.021255	26.7215	-0.490464	-2.52274e+06	8.425452E-9	NaN
1184	1.000000	0.531263	7.37663e+06	-56389.1	1105.82	-29739	0.000000	0.000000	6.530951	-0.056818	NaN	0.000000	0.001622	0.001681	28.0806	0.082009	0.001940	42.2655	-72.806	-164.356	-0.004496	0.529971	-0.483055	-0.484347	-0.056818	42.2655	-0.482047	-1.92386e+06	2.953351E-8	NaN
1184	1.000000	0.539261	7.37663e+06	-56389.1	1105.82	-29739	0.000000	0.000000	6.538949	-0.051501	NaN	0.000000	0.001620	0.001695	28.0809	0.025579	0.002031	12.5951	-5.937649	-166.745	-0.050956	0.537969	-0.475057	-0.476349	-0.051501	12.5951	-0.471990	-1.39096e+06	3.702552E-8	NaN
1184	1.000000	0.547267	7.37663e+06	-56389.1	1105.82	-29739	0.000000	0.000000	6.546957	-0.024677	NaN	0.000000	0.001634	0.001687	28.081	0.053969	0.002100	25.7041	112.122	-167.581	-0.038025	0.545942	-0.467051	-0.468376	-0.024677	25.7041	-0.466331	-1.15857e+06	2.129953E-8	NaN
1184	1.000000	0.555268	7.37663e+06	-56389.1	1105.82	-29739	0.000000	0.000000	6.554957	-0.022128	NaN	0.000000	0.001628	0.001647	28.0809	0.052441	0.001920	27.3103	-104.678	-162.617	-0.035330	0.553979	-0.459050	-0.460339	-0.022128	27.3103	-0.458442	-897688	2.464957E-8	NaN
1184	1.000000	0.563270	7.37663e+06	-56389.1	1105.82	-29739	0.000000	0.000000	6.562960	-0.009608	NaN	0.000000	0.001625	0.001684	28.0808	0.072635	0.001951	37.2213	174.287	-165.021	-0.008869	0.561957	-0.451048	-0.452360	-0.009608	37.2213	-0.450854	-702061	1.368473E-8	NaN
1184	1.000000	0.571266	7.37663e+06	-56389.1	1105.82	-29739	0.000000	0.000000	6.570956	0.013193	NaN	0.000000	0.001648	0.001685	28.0807	0.106530	0.002008	53.0551	94.0194	-167.552	-0.036938	0.569992	-0.443052	-0.444326	0.013193	53.0551	-0.443239	-548351	-2.405863E-8	NaN
1184	1.000000	0.579285	7.37663e+06	-56389.1	1105.82	-29739	0.000000	0.000000	6.578974	-0.028156	NaN	0.000000	0.001646	0.001630	28.0818	0.070469	0.002050	34.3705	-131.464	-162.935	-0.029415	0.577969	-0.435033	-0.436349	-0.028156	34.3705	-0.434419	-411659	6.839605E-8	NaN
1184	1.000000	0.587285	7.37663e+06	-56389.1	1105.82	-29739	0.000000	0.000000	6.586974	-0.036879	NaN	0.000000	0.001671	0.001670	28.0821	0.105586	0.002073	50.9263	-35.2841	-167.255	-0.056901	0.585985	-0.427033	-0.428333	-0.036879	50.9263	-0.426490	-317964	1.159859E-7	NaN
1184	1.000000	0.595274	7.37663e+06	-56389.1	1105.82	-29739	0.000000	0.000000	6.594965	0.028279	NaN	0.000000	0.001613	0.001670	28.082	0.037645	0.001987	18.9463	114.458	-165.719	0.053528	0.593945	-0.419044	-0.420373	0.028279	18.9463	-0.420163	-258661	-1.093296E-7	NaN
1184	1.000000	0.603289	7.37663e+06	-56389.1	1105.82	-29739	0.000000	0.000000	6.602979	-0.015287	NaN	0.000000	0.001613	0.001682	28.0819	0.167911	0.002053	81.7794	-13.4917	-166.913	-0.044659	0.602000	-0.411029	-0.412318	-0.015287	81.7794	-0.410889	-191002	8.003454E-8	NaN
1184	1.000000	0.611261	7.37663e+06	-56389.1	1105.82	-29739	0.000000	0.000000	6.610948	-0.076607	NaN	0.000000	0.001616	0.001677	28.082	0.033135	0.002039	16.2464	31.1654	-168.03	-0.030163	0.610019	-0.403057	-0.404299	-0.076607	16.2464	-0.399521	-131571	5.822455E-7	NaN
1184	1.000000	0.619300	7.37663e+06	-56389.1	1105.82	-29739	0.000000	0.000000	6.618987	-0.084454	NaN	0.000000	0.001613	0.001647	28.0818	0.081023	0.002045	39.6185	-10.1891	-165.748	-0.099201	0.618015	-0.395018	-0.396303	-0.084454	39.6185	-0.393419	-107658	7.844665E-7	NaN
1184	1.000000	0.627295	7.37663e+06	-56389.1	1105.82	-29739	0.000000	0.000000	6.626984	-0.009573	NaN	0.000000	0.001636	0.001667	28.082	0.008038	0.001985	4.048283	-69.9701	-165.608	-0.055747	0.625977	-0.387023	-0.388341	-0.009573	4.048283	-0.385250	-82255.3	1.163862E-7	NaN
1184	1.000000	0.635282	7.37663e+06	-56389.1	1105.82	-29739	0.000000	0.000000	6.634971	-0.038719	NaN	0.000000	0.001661	0.001658	28.0821	0.013702	0.001899	7.214664	-171.479	-167.796	0.019077	0.634034	-0.379036	-0.380284	-0.038719	7.214664	-0.375011	-58644	6.602379E-7	NaN
1184	1.000000	0.643307	7.37663e+06	-56389.1	1105.82	-29739	0.000000	0.000000	6.642993	-0.086957	NaN	0.000000	0.001601	0.001679	28.0821	0.116225	0.002068	56.1956	-112.929	-164.334	-0.059721	0.642063	-0.371011	-0.372255	-0.086957	56.1956	-0.369850	-49428.2	1.759264E-6	NaN
1184	1.000000	0.651320	7.37663e+06	-56389.1	1105.82	-29739	0.000000	0.000000	6.651009	-0.014848	NaN	0.000000	0.001639	0.001668	28.0823	0.061078	0.002030	30.0906	152.637	-164.884	-0.000496	0.649968	-0.362998	-0.364350	-0.014848	30.0906	-0.362628	-38888.3	3.818193E-7	NaN
1184	1.000000	0.659312	7.37663e+06	-56389.1	1105.82	-29739	0.000000	0.000000	6.659001	-0.013748	NaN	0.000000	0.001655	0.001672	28.0818	0.073389	0.002082	35.2457	-153.352	-161.947	-0.085132	0.657959	-0.355006	-0.356359	-0.013748	35.2457	-0.354714	-29878	4.601513E-7	NaN
1184	1.000000	0.667310	7.37663e+06	-56389.1	1105.82	-29739	0.000000	0.000000	6.667003	0.062544	NaN	0.000000	0.001647	0.001654	28.082	0.117959	0.001914	61.6415	-16.317	-167.783	-0.106080	0.666034	-0.347008	-0.348284	0.062544	61.6415	-0.347769	-23692	-2.639878E-6	NaN
1184	1.000000	0.675319	7.37663e+06	-56389.1	1105.82	-29739	0.000000	0.000000	6.675007	-0.053871	NaN	0.000000	0.001629	0.001692	28.082	0.101049	0.001989	50.792	-6.718093	-165.254	-0.009107	0.674008	-0.338999	-0.340310	-0.053871	50.792	-0.338203	-17192.9	3.133329E-6	NaN
1184	1.000000	0.683345	7.37663e+06	-56389.1	1105.82	-29739	0.000000	0.000000	6.683033	-0.053670	NaN	0.000000	0.001597	0.001708	28.0821	0.036029	0.001973	18.2647	3.057772	-167.943	-0.166416	0.681961	-0.330973	-0.332356	-0.053670	18.2647	-0.328769	-12514.6	4.288601E-6	NaN
1184	1.000000	0.691318	7.37663e+06	-56389.1	1105.82	-29739	0.000000	0.000000	6.691007	-0.030366	NaN	0.000000	0.001636	0.001714	28.0822	0.123475	0.001975	62.508	-143.213	-167.033	0.032191	0.689997	-0.323000	-0.324321	-0.030366	62.508	-0.322635	-10171.8	2.985335E-6	NaN
1184	1.000000	0.699332	7.37663e+06	-56389.1	1105.82	-29739	0.000000	0.000000	6.699023	0.017742	NaN	0.000000	0.001611	0.001680	28.0818	0.134019	0.002026	66.1649	126.101	-167.109	0.074619	0.698007	-0.314985	-0.316311	0.017742	66.1649	-0.315187	-7901.35	-2.245402E-6	NaN
1184	1.000000	0.707338	7.37663e+06	-56389.1	1105.82	-29739	0.000000	0.000000	6.707027	-0.027427	NaN	0.000000	0.001588	0.001670	28.0819	0.025379	0.001939	13.0876	38.0947	-163.005	-0.034017	0.706024	-0.306980	-0.308294	-0.027427	13.0876	-0.305409	-5662.64	4.843459E-6	NaN
1184	1.000000	0.715372	7.37663e+06	-56389.1	1105.82	-29739	0.000000	0.000000	6.715061	-0.047411	NaN	0.000000	0.001626	0.001665	28.0807	0.047717	0.001914	24.9341	72.9523	-166.349	0.067653	0.714034	-0.298946	-0.300284	-0.047411	24.9341	-0.297520	-4321.98	1.096983E-5	NaN
1184	1.000000	0.723378	7.37663e+06	-56389.1	1105.82	-29739	0.000000	0.000000	6.723067	-0.023750	NaN	0.000000	0.001650	0.001689	28.0807	0.153163	0.002069	74.0328	97.1335	-163.108	-0.016811	0.722095	-0.290940	-0.292223	-0.023750	74.0328	-0.290699	-3418.04	6.948525E-6	NaN
1184	1.000000	0.731331	7.37663e+06	-56389.1	1105.82	-29739	0.000000	0.000000	6.731020	-0.042905	NaN	0.000000	0.001633	0.001664	28.0807	0.027950	0.002067	13.525	-93.5556	-165.451	-0.075797	0.730027	-0.282987	-0.284291	-0.042905	13.525	-0.280607	-2410.64	1.779801E-5	NaN
1184	1.000000	0.739335	7.37663e+06	-56389.1	1105.82	-29739	0.000000	0.000000	6.739028	0.061190	NaN	0.000000	0.001632	0.001638	28.0808	0.029465	0.001980	14.8847	-97.1825	-165.533	0.048184	0.738044	-0.274983	-0.276274	0.061190	14.8847	-0.278066	-2206.87	-2.772694E-5	NaN
1184	1.000000	0.747347	7.37663e+06	-56389.1	1105.82	-29739	0.000000	0.000000	6.747038	0.018183	NaN	0.000000	0.001645	0.001668	28.0809	0.038239	0.002009	19.038	32.7198	-165.137	0.006937	0.746053	-0.266971	-0.268265	0.018183	19.038	-0.267687	-1535.87	-1.183909E-5	NaN
1184	1.000000	0.755344	7.37663e+06	-56389.1	1105.82	-29739	0.000000	0.000000	6.755035	0.003513	NaN	0.000000	0.001672	0.001682	28.0807	0.021495	0.002092	10.2725	-88.3506	-166.141	-0.019499	0.754069	-0.258974	-0.260249	0.003513	10.2725	-0.259230	-1140.55	-3.080188E-6	NaN
1184	1.000000	0.763356	7.37663e+06	-56389.1	1105.82	-29739	0.000000	0.000000	6.763044	-0.050500	NaN	0.000000	0.001645	0.001676	28.0806	0.043954	0.001984	22.1577	-78.4796	-163.397	0.033590	0.762081	-0.250962	-0.252237	-0.050500	22.1577	-0.249253	-800.585	6.307831E-5	NaN
1184	1.000000	0.771351	7.37663e+06	-56389.1	1105.82	-29739	0.000000	0.000000	6.771041	0.010573	NaN	0.000000	0.001625	0.001670	28.0809	0.019743	0.001807	10.9267	146.707	-163.483	-0.070186	0.770061	-0.242967	-0.244257	0.010573	10.9267	-0.243693	-656.338	-1.610870E-5	NaN
1184	1.000000	0.779355	7.37663e+06	-56389.1	1105.82	-29739	0.000000	0.000000	6.779045	0.000637	NaN	0.000000	0.001609	0.001667	28.0808	0.106302	0.001989	53.4536	-132.479	-166.138	-0.018280	0.778059	-0.234963	-0.236258	0.000637	53.4536	-0.234972	-479.52	-1.327623E-6	NaN
1184	1.000000	0.787390	7.37663e+06	-56389.1	1105.82	-29739	0.000000	0.000000	6.787077	-0.086581	NaN	0.000000	0.001578	0.001682	28.0812	0.077738	0.001896	41.0055	61.4247	-165.296	-0.097125	0.786058	-0.226928	-0.228260	-0.086581	41.0055	-0.225344	-337.913	0.000256	NaN
1184	1.000000	0.795360	7.37663e+06	-56389.1	1105.82	-29739	0.000000	0.000000	6.795052	0.053296	NaN	0.000000	0.001593	0.001677	28.0808	0.046453	0.001949	23.837	166.223	-167.136	0.074048	0.794020	-0.218958	-0.220298	0.053296	23.837	-0.220635	-284.328	-0.000187	NaN
1184	1.000000	0.803365	7.37663e+06	-56389.1	1105.82	-29739	0.000000	0.000000	6.803053	-0.063243	NaN	0.000000	0.001582	0.001654	28.0808	0.046479	0.002007	23.164	143.845	-166.974	0.013743	0.802101	-0.210953	-0.212217	-0.063243	23.164	-0.208905	-184.108	0.000344	NaN
1184	1.000000	0.811399	7.37663e+06	-56389.1	1105.82	-29739	0.000000	0.000000	6.811089	-0.009520	NaN	0.000000	0.001582	0.001682	28.0808	0.155721	0.002058	75.6805	-164.013	-167.467	-0.088169	0.810042	-0.202919	-0.204276	-0.009520	75.6805	-0.202825	-146.561	6.495818E-5	NaN
1184	1.000000	0.819401	7.37663e+06	-56389.1	1105.82	-29739	0.000000	0.000000	6.819094	0.077804	NaN	0.000000	0.001590	0.001691	28.0808	0.016821	0.002005	8.391145	-135.575	-164.136	0.102373	0.818042	-0.194917	-0.196276	0.077804	8.391145	-0.201872	-141.388	-0.000550	NaN
1184	1.000000	0.827364	7.37663e+06	-56389.1	1105.82	-29739	0.000000	0.000000	6.827055	0.034835	NaN	0.000000	0.001611	0.001684	28.081	0.079828	0.002057	38.815	22.2846	-162.132	0.017736	0.826072	-0.186954	-0.188246	0.034835	38.815	-0.187627	-82.0935	-0.000424	NaN
1184	1.000000	0.835382	7.37663e+06	-56389.1	1105.82	-29739	0.000000	0.000000	6.835071	-0.035588	NaN	0.000000	0.001612	0.001652	28.0811	0.121792	0.002025	60.1309	-83.6986	-165.097	0.049490	0.834120	-0.178936	-0.180198	-0.035588	60.1309	-0.178492	-57.5131	0.000619	NaN
1184	1.000000	0.843382	7.37663e+06	-56389.1	1105.82	-29739	0.000000	0.000000	6.843070	-0.048085	NaN	0.000000	0.001636	0.001660	28.0808	0.067690	0.002005	33.7563	68.0357	-166.246	-0.090819	0.842112	-0.170936	-0.172206	-0.048085	33.7563	-0.169868	-40.8617	0.001177	NaN
1184	1.000000	0.851404	7.37663e+06	-56389.1	1105.82	-29739	0.000000	0.000000	6.851093	-0.025234	NaN	0.000000	0.001605	0.001679	28.0819	0.056555	0.002071	27.3092	27.5729	-165.057	-0.000520	0.850080	-0.162914	-0.164238	-0.025234	27.3092	-0.162221	-30.0156	0.000841	NaN
1184	1.000000	0.859417	7.37663e+06	-56389.1	1105.82	-29739	0.000000	0.000000	6.859106	-0.010467	NaN	0.000000	0.001631	0.001706	28.082	0.019778	0.002051	9.643836	-48.669	-170.304	0.039769	0.858109	-0.154901	-0.156209	-0.010467	9.643836	-0.154087	-21.4852	0.000487	NaN
1184	1.000000	0.867402	7.37663e+06	-56389.1	1105.82	-29739	0.000000	0.000000	6.867092	-0.016089	NaN	0.000000	0.001639	0.001704	28.082	0.064337	0.002004	32.1024	-72.6074	-165.967	-0.059895	0.866064	-0.146916	-0.148254	-0.016089	32.1024	-0.146540	-15.6526	0.001028	NaN
1184	1.000000	0.875418	7.37663e+06	-56389.1	1105.82	-29739	0.000000	0.000000	6.875108	-0.004922	NaN	0.000000	0.001626	0.001688	28.0823	0.027998	0.002056	13.6191	137.889	-164.806	-0.012216	0.874125	-0.138900	-0.140193	-0.004922	13.6191	-0.138629	-11.1471	0.000442	NaN
1184	1.000000	0.883404	7.37663e+06	-56389.1	1105.82	-29739	0.000000	0.000000	6.883093	-0.012814	NaN	0.000000	0.001612	0.001680	28.0823	0.084304	0.001989	42.3766	-12.2032	-164.212	-0.051784	0.882077	-0.130914	-0.132241	-0.012814	42.3766	-0.130687	-7.858641	0.001631	NaN
1184	1.000000	0.891390	7.37663e+06	-56389.1	1105.82	-29739	0.000000	0.000000	6.891079	-0.022141	NaN	0.000000	0.001613	0.001648	28.082	0.049217	0.001994	24.6863	157.499	-170.016	0.056390	0.890114	-0.122928	-0.124204	-0.022141	24.6863	-0.122255	-5.362839	0.004129	NaN
1184	1.000000	0.899379	7.37663e+06	-56389.1	1105.82	-29739	0.000000	0.000000	6.899071	0.052365	NaN	0.000000	0.001656	0.001668	28.0821	0.078635	0.002088	37.657	-14.307	-165.322	-0.017244	0.898118	-0.114939	-0.116200	0.052365	37.657	-0.115982	-4.002289	-0.013084	NaN
1184	1.000000	0.907370	7.37663e+06	-56389.1	1105.82	-29739	0.000000	0.000000	6.907059	-0.011912	NaN	0.000000	0.001614	0.001688	28.082	0.061885	0.002156	28.7022	-7.517806	-163.945	-0.027874	0.906116	-0.106948	-0.108202	-0.011912	28.7022	-0.106637	-2.549161	0.004673	NaN
1184	1.000000	0.915437	7.37663e+06	-56389.1	1105.82	-29739	0.000000	0.000000	6.915127	0.015863	NaN	0.000000	0.001654	0.001686	28.082	0.040600	0.001913	21.2182	7.887189	-162.419	-0.090059	0.914116	-0.098881	-0.100202	0.015863	21.2182	-0.099442	-1.775770	-0.008933	NaN
1184	1.000000	0.923406	7.37663e+06	-56389.1	1105.82	-29739	0.000000	0.000000	6.923095	-0.027819	NaN	0.000000	0.001616	0.001701	28.0822	0.043706	0.001949	22.4198	-3.770219	-162.387	-0.092661	0.922074	-0.090912	-0.092244	-0.027819	22.4198	-0.089981	-1.079888	0.025761	NaN
1184	1.000000	0.931422	7.37663e+06	-56389.1	1105.82	-29739	0.000000	0.000000	6.931111	-0.037161	NaN	0.000000	0.001653	0.001687	28.082	0.052495	0.002018	26.0088	-150.798	-165.647	-0.024782	0.930152	-0.082896	-0.084166	-0.037161	26.0088	-0.081824	-0.687106	0.054083	NaN
1184	1.000000	0.939433	7.37663e+06	-56389.1	1105.82	-29739	0.000000	0.000000	6.939119	-0.105151	NaN	0.000000	0.001608	0.001682	28.0823	0.108199	0.002053	52.7132	79.7906	-165.557	-0.095485	0.938132	-0.074885	-0.076186	-0.105151	52.7132	-0.073389	-0.419375	0.250734	NaN
1184	1.000000	0.947405	7.37663e+06	-56389.1	1105.82	-29739	0.000000	0.000000	6.947093	-0.061755	NaN	0.000000	0.001636	0.001688	28.082	0.077162	0.001938	39.8236	59.7861	-165.573	-0.031465	0.946129	-0.066913	-0.068189	-0.061755	39.8236	-0.065750	-0.261413	0.236236	NaN
1184	1.000000	0.955428	7.37663e+06	-56389.1	1105.82	-29739	0.000000	0.000000	6.955116	-0.047659	NaN	0.000000	0.001631	0.001660	28.0821	0.021096	0.002026	10.4124	-38.132	-162.942	-0.028978	0.954101	-0.058890	-0.060217	-0.047659	10.4124	-0.055457	-0.132843	0.358757	NaN
1184	1.000000	0.963416	7.37663e+06	-56389.1	1105.82	-29739	0.000000	0.000000	6.963101	-0.126353	NaN	0.000000	0.001649	0.001649	28.0821	0.062435	0.002029	30.7783	-67.1019	-164.879	-0.151908	0.962119	-0.050902	-0.052198	-0.126353	30.7783	-0.047823	-0.078372	1.612226	NaN
1184	1.000000	0.971472	7.37663e+06	-56389.1	1105.82	-29739	0.000000	0.000000	6.971161	-0.034517	NaN	0.000000	0.001646	0.001701	28.0821	0.128040	0.001893	67.6511	-153.942	-161.522	0.017039	0.970141	-0.042846	-0.044177	-0.034517	67.6511	-0.042463	-0.053755	0.642121	NaN
1184	1.000000	0.979439	7.37663e+06	-56389.1	1105.82	-29739	0.000000	0.000000	6.979129	0.006724	NaN	0.000000	0.001635	0.001675	28.0824	0.040698	0.001924	21.1496	57.328	-167.261	0.006238	0.978153	-0.034879	-0.036165	0.006724	21.1496	-0.035118	-0.032281	-0.208284	NaN
1184	1.000000	0.987450	7.37663e+06	-56389.1	1105.82	-29739	0.000000	0.000000	6.987139	-0.031618	NaN	0.000000	0.001653	0.001669	28.0809	0.084881	0.001944	43.6521	-48.0121	-168.106	0.018946	0.986112	-0.026868	-0.028206	-0.031618	43.6521	-0.026325	-0.018281	1.729532	NaN
1184	1.000000	0.995462	7.37663e+06	-56389.1	1105.82	-29739	0.000000	0.000000	6.995149	-0.079145	NaN	0.000000	0.001638	0.001712	28.0809	0.081860	0.001928	42.4477	-122.926	-164.55	-0.080088	0.994157	-0.018856	-0.020161	-0.079145	42.4477	-0.017457	-0.010805	7.324617	NaN
1184	1.000000	1.003444	7.37663e+06	-56389.1	1105.82	-29739	0.000000	0.000000	7.003135	0.002299	NaN	0.000000	0.001625	0.001669	28.0809	0.047784	0.001978	24.163	-104.031	-167.438	0.009898	1.002167	-0.010873	-0.012151	0.002299	24.163	-0.010945	-0.006927	-0.331918	NaN
1184	1.000000	1.011473	7.37663e+06	-56389.1	1105.82	-29739	0.000000	0.000000	7.011188	0.595563	NaN	0.000000	0.001637	0.001683	28.0809	1.056948	0.001977	534.678	11.1581	-165.747	0.046547	1.010133	-0.002845	-0.004185	0.595563	534.678	-0.003680	-0.002571	-231.667	NaN
1184	1.000000	1.019318	7.37663e+06	-56389.1	1105.82	-29739	0.000000	0.000000	7.019373	8.853095	NaN	0.000000	0.001649	0.001670	28.0811	8.455957	0.001623	5209.95	14.0787	-175.76	7.117684	1.018139	0.005001	0.003821	8.853095	5209.95	0.003726	0.003000	2950.85	86902.7
1184	2.000000	1.022026	7.37663e+06	-56389.1	1105.82	-29739	0.000000	0.000000	7.022240	12.7363	NaN	0.000000	0.001676	0.001675	28.0811	10.9916	0.001753	6269.86	10.4537	-173.787	12.4972	1.021658	0.007708	0.007340	12.7363	6269.86	0.006185	0.005241	2430.32	79130.1
1184	2.000000	1.023940	7.37663e+06	-56389.1	1105.82	-29739	0.000000	0.000000	7.024225	14.4723	NaN	0.000000	0.001635	0.001726	28.0811	12.6694	0.001747	7251.82	3.945298	-170.39	13.4656	1.023714	0.009622	0.009396	14.4723	7251.82	0.008125	0.007171	2018.09	78238.8
1184	2.000000	1.025956	7.37663e+06	-56389.1	1105.82	-29739	0.000000	0.000000	7.026402	18.3736	NaN	0.000000	0.001671	0.001671	28.081	15.8839	0.001743	9111.62	6.730814	-176.157	18.0611	1.025648	0.011638	0.011330	18.3736	9111.62	0.010126	0.009322	1971.04	86222.2
1184	2.000000	1.027932	7.37663e+06	-56389.1	1105.82	-29739	0.000000	0.000000	7.028467	20.5395	NaN	0.000000	0.001625	0.001684	28.0809	16.989	0.001864	9116.28	5.927982	-173.987	19.3083	1.027652	0.013614	0.013334	20.5395	9116.28	0.011924	0.011399	1801.82	78010.4
1184	2.000000	1.029899	7.37663e+06	-56389.1	1105.82	-29739	0.000000	0.000000	7.030672	26.3186	NaN	0.000000	0.001613	0.001632	28.0808	19.637	0.001742	11272.3	6.384737	-177.765	25.31	1.029580	0.015581	0.015262	26.3186	11272.3	0.013830	0.013757	1913.15	87807.1
1184	2.000000	1.031925	7.37663e+06	-56389.1	1105.82	-29739	0.000000	0.000000	7.032831	29.5588	NaN	0.000000	0.001618	0.001656	28.0816	21.5278	0.001798	11971.6	5.640321	-176.552	29.4571	1.031605	0.017607	0.017287	29.5588	11971.6	0.015755	0.016306	1812.76	85655
1184	2.000000	1.033889	7.37663e+06	-56389.1	1105.82	-29739	0.000000	0.000000	7.034993	34.3552	NaN	0.000000	0.001626	0.001677	28.0811	22.6926	0.001702	13331.6	5.456910	-178.547	33.3678	1.033568	0.019571	0.019250	34.3552	13331.6	0.017638	0.018966	1811.38	88443.4
1184	2.000000	1.035918	7.37663e+06	-56389.1	1105.82	-29739	0.000000	0.000000	7.037230	39.4196	NaN	0.000000	0.001603	0.001656	28.081	25.4433	0.001762	14435.9	3.548015	-177.595	39.7186	1.035560	0.021600	0.021242	39.4196	14435.9	0.019552	0.021843	1804.69	89240.5
1184	2.000000	1.037894	7.37663e+06	-56389.1	1105.82	-29739	0.000000	0.000000	7.039375	43.5263	NaN	0.000000	0.001643	0.001668	28.081	26.4452	0.001849	14301.2	4.966014	-177.039	43.4252	1.037636	0.023576	0.023318	43.5263	14301.2	0.021293	0.024615	1768.28	83280.9
1184	2.000000	1.039869	7.37663e+06	-56389.1	1105.82	-29739	0.000000	0.000000	7.041562	48.6695	NaN	0.000000	0.001645	0.001681	28.0809	28.9752	0.001810	16009.6	3.806736	-176.879	46.9946	1.039552	0.025551	0.025234	48.6695	16009.6	0.023271	0.027945	1741.6	87498.5
1184	2.000000	1.041962	7.37663e+06	-56389.1	1105.82	-29739	0.000000	0.000000	7.043851	53.434	NaN	0.000000	0.001655	0.001668	28.0811	31.9448	0.001954	16349.2	6.999904	179.277	53.4826	1.041635	0.027644	0.027317	53.434	16349.2	0.025193	0.031368	1703.46	84338.7
1184	2.000000	1.043891	7.37663e+06	-56389.1	1105.82	-29739	0.000000	0.000000	7.045994	58.6544	NaN	0.000000	0.001638	0.001695	28.081	33.5386	0.001900	17655.6	6.716785	178.927	58.6019	1.043555	0.029573	0.029237	58.6544	17655.6	0.027081	0.034911	1680.13	86333
1184	2.000000	1.045866	7.37663e+06	-56389.1	1105.82	-29739	0.000000	0.000000	7.048149	63.0347	NaN	0.000000	0.001664	0.001714	28.082	36.2095	0.001953	18543	7.331159	177.526	61.9837	1.045632	0.031548	0.031314	63.0347	18543	0.028998	0.038693	1629.11	86127.1
1184	2.000000	1.047877	7.37663e+06	-56389.1	1105.82	-29739	0.000000	0.000000	7.050563	72.8131	NaN	0.000000	0.001694	0.001684	28.0821	36.2174	0.001832	19767.5	4.512483	-179.21	72.1654	1.047466	0.033559	0.033148	72.8131	19767.5	0.030797	0.042411	1716.84	87697.3
1184	2.000000	1.049841	7.37663e+06	-56389.1	1105.82	-29739	0.000000	0.000000	7.052628	75.2729	NaN	0.000000	0.001741	0.001689	28.082	39.0134	0.001855	21034.4	6.248365	177.431	73.9188	1.049623	0.035523	0.035305	75.2729	21034.4	0.032839	0.046834	1607.21	88801.5
1184	2.000000	1.051889	7.37663e+06	-56389.1	1105.82	-29739	0.000000	0.000000	7.055094	85.4392	NaN	0.000000	0.001707	0.001696	28.082	40.8234	0.001889	21609.5	4.315694	179.921	84.8083	1.051548	0.037571	0.037230	85.4392	21609.5	0.034606	0.050832	1680.81	87568.8
1184	2.000000	1.053860	7.37663e+06	-56389.1	1105.82	-29739	0.000000	0.000000	7.057367	92.7722	NaN	0.000000	0.001720	0.001692	28.0821	42.1947	0.001797	23476	4.650928	178.168	91.7513	1.053619	0.039542	0.039301	92.7722	23476	0.036579	0.055486	1672	91055.7
1184	2.000000	1.055858	7.37663e+06	-56389.1	1105.82	-29739	0.000000	0.000000	7.059581	98.0381	NaN	0.000000	0.001560	0.001682	28.0821	45.1873	0.001847	24470	6.087381	176.245	96.5096	1.055571	0.041540	0.041253	98.0381	24470	0.038535	0.060296	1625.94	91046
1184	2.000000	1.057882	7.37663e+06	-56389.1	1105.82	-29739	0.000000	0.000000	7.062054	108.953	NaN	0.000000	0.001559	0.001674	28.0822	46.2535	0.001845	25072.2	6.828773	175.624	108.629	1.057557	0.043564	0.043239	108.953	25072.2	0.040304	0.064817	1680.92	89974.6
1184	2.000000	1.059873	7.37663e+06	-56389.1	1105.82	-29739	0.000000	0.000000	7.064434	118.384	NaN	0.000000	0.001546	0.001701	28.0819	48.3712	0.001727	28016.6	7.861367	174.05	117.743	1.059502	0.045555	0.045184	118.384	28016.6	0.042386	0.070341	1683.01	96512.7
1184	2.000000	1.061919	7.37663e+06	-56389.1	1105.82	-29739	0.000000	0.000000	7.066783	125.746	NaN	0.000000	0.001535	0.001680	28.0823	50.5278	0.001836	27526.1	5.487385	176.544	126.837	1.061545	0.047601	0.047227	125.746	27526.1	0.044175	0.075263	1670.76	91670
1184	2.000000	1.063901	7.37663e+06	-56389.1	1105.82	-29739	0.000000	0.000000	7.068960	130.501	NaN	0.000000	0.001560	0.001675	28.0821	51.564	0.001759	29321.4	0.695903	179.467	131.266	1.063586	0.049583	0.049268	130.501	29321.4	0.046245	0.081160	1607.93	94034.3
1184	2.000000	1.065824	7.37663e+06	-56389.1	1105.82	-29739	0.000000	0.000000	7.071294	140.477	NaN	0.000000	0.001549	0.001697	28.0823	54.5969	0.001961	27837.8	5.961938	175.133	137.581	1.065623	0.051506	0.051305	140.477	27837.8	0.047722	0.085501	1642.99	86980.6
1184	2.000000	1.067829	7.37663e+06	-56389.1	1105.82	-29739	0.000000	0.000000	7.073821	153.182	NaN	0.000000	0.001550	0.001670	28.0822	54.5563	0.001822	29943.4	5.870107	175.399	152.918	1.067511	0.053511	0.053193	153.182	29943.4	0.049674	0.091408	1675.82	90486.3
1184	2.000000	1.069887	7.37664e+06	-56389.1	1105.82	-29739	0.000000	0.000000	7.076032	156.901	NaN	0.000000	0.001573	0.001694	28.082	56.7966	0.001727	32891.6	4.041548	176.127	159.338	1.069555	0.055569	0.055237	156.901	32891.6	0.051992	0.098668	1590.19	95668.7
1184	2.000000	1.071906	7.37664e+06	-56389.1	1105.82	-29739	0.000000	0.000000	7.078606	170.383	NaN	0.000000	0.001591	0.001721	28.0823	58.9511	0.001781	33098.6	6.309847	173.972	168.864	1.071560	0.057588	0.057242	170.383	33098.6	0.053727	0.104282	1633.87	93643.7
1184	2.000000	1.073897	7.37664e+06	-56389.1	1105.82	-29739	0.000000	0.000000	7.080746	174.004	NaN	0.000000	0.001601	0.001723	28.082	61.3532	0.001861	32974	5.180856	174.688	178.063	1.073640	0.059579	0.059322	174.004	32974	0.055621	0.110576	1573.62	90597
1184	2.000000	1.075841	7.37664e+06	-56389.1	1105.82	-29739	0.000000	0.000000	7.083396	191.156	NaN	0.000000	0.001572	0.001738	28.0823	62.5368	0.001774	35245.2	4.233640	175.023	188.744	1.075506	0.061523	0.061188	191.156	35245.2	0.057456	0.116843	1636.01	94204.5
1184	2.000000	1.077845	7.37664e+06	-56389.1	1105.82	-29739	0.000000	0.000000	7.085930	204.053	NaN	0.000000	0.001568	0.001717	28.0822	63.7903	0.001781	35813	6.572217	172.782	203.149	1.077460	0.063527	0.063142	204.053	35813	0.059254	0.123145	1657.01	93240.6
1184	2.000000	1.079841	7.37664e+06	-56389.1	1105.82	-29739	0.000000	0.000000	7.088296	213.042	NaN	0.000000	0.001608	0.001741	28.0809	65.4569	0.001743	37558.8	4.818576	174.161	210.693	1.079493	0.065523	0.065175	213.042	37558.8	0.061268	0.130396	1633.81	95028.1
1184	2.000000	1.081897	7.37664e+06	-56389.1	1105.82	-29739	0.000000	0.000000	7.090772	223.251	NaN	0.000000	0.001567	0.001759	28.081	68.6075	0.001789	38351.7	7.976780	171.524	223.368	1.081432	0.067579	0.067114	223.251	38351.7	0.063213	0.137582	1622.68	94466.4
1184	2.000000	1.083821	7.37664e+06	-56389.1	1105.82	-29739	0.000000	0.000000	7.093141	234.058	NaN	0.000000	0.001525	0.001748	28.0807	69.7373	0.001899	36718.3	4.606244	174.634	232.119	1.083567	0.069503	0.069249	234.058	36718.3	0.064722	0.143285	1633.51	88624.9
1184	2.000000	1.085892	7.37664e+06	-56389.1	1105.82	-29739	0.000000	0.000000	7.095610	243.742	NaN	0.000000	0.001517	0.001731	28.0811	72.2329	0.001798	40182	2.973092	175.856	245.834	1.085483	0.071574	0.071165	243.742	40182	0.067025	0.152197	1601.49	94102.7
1184	2.000000	1.087749	7.37664e+06	-56389.1	1105.82	-29739	0.000000	0.000000	7.098203	261.637	NaN	0.000000	0.001557	0.001695	28.0809	73.0196	0.001851	39447	3.630688	174.878	256.4	1.087481	0.073431	0.073163	261.637	39447	0.068456	0.157864	1657.35	90707.8
1184	2.000000	1.089717	7.37664e+06	-56389.1	1105.82	-29739	0.000000	0.000000	7.100621	272.57	NaN	0.000000	0.001606	0.001714	28.0808	75.9891	0.001866	40727.4	3.405087	174.759	265.908	1.089418	0.075399	0.075100	272.57	40727.4	0.070379	0.165635	1645.61	91429.1
1184	2.000000	1.091816	7.37664e+06	-56389.1	1105.82	-29739	0.000000	0.000000	7.103254	285.549	NaN	0.000000	0.001557	0.001713	28.0811	77.2433	0.001798	42964.7	3.067506	175.979	282.158	1.091373	0.077498	0.077055	285.549	42964.7	0.072514	0.174463	1636.73	93979.6
1184	2.000000	1.093808	7.37664e+06	-56389.1	1105.82	-29739	0.000000	0.000000	7.105842	300.028	NaN	0.000000	0.001559	0.001720	28.0809	78.987	0.001833	43095.9	5.307262	173.523	299.668	1.093421	0.079490	0.079103	300.028	43095.9	0.074269	0.181885	1649.54	92323.1
1184	2.000000	1.095867	7.37664e+06	-56389.1	1105.82	-29739	0.000000	0.000000	7.108323	310.308	NaN	0.000000	0.001652	0.001733	28.081	81.8661	0.001834	44644.6	5.861836	171.494	311.605	1.095446	0.081549	0.081128	310.308	44644.6	0.076336	0.190812	1626.25	93377
1184	2.000000	1.097836	7.37664e+06	-56389.1	1105.82	-29739	0.000000	0.000000	7.110973	326.836	NaN	0.000000	0.001632	0.001696	28.0809	82.081	0.001741	47150.5	5.431003	172.608	325.859	1.097453	0.083518	0.083135	326.836	47150.5	0.078320	0.199568	1637.71	96430.4
1184	2.000000	1.099901	7.37664e+06	-56389.1	1105.82	-29739	0.000000	0.000000	7.113678	342.402	NaN	0.000000	0.001659	0.001719	28.0808	84.2628	0.001833	45960	4.729413	173.846	346.189	1.099484	0.085583	0.085166	342.402	45960	0.079995	0.207107	1653.26	92269.1
1184	2.000000	1.101774	7.37664e+06	-56389.1	1105.82	-29739	0.000000	0.000000	7.115983	352.898	NaN	0.000000	0.001602	0.001724	28.0811	86.1116	0.001817	47401.6	5.097126	172.48	350.73	1.101461	0.087456	0.087143	352.898	47401.6	0.081872	0.215708	1636	93246.6
1184	2.000000	1.103768	7.37664e+06	-56389.1	1105.82	-29739	0.000000	0.000000	7.118593	367.898	NaN	0.000000	0.001547	0.001708	28.0807	87.6584	0.001749	50129.8	6.164457	171.1	365.167	1.103435	0.089450	0.089117	367.898	50129.8	0.083945	0.225396	1632.23	96470.7
1184	2.000000	1.105805	7.37664e+06	-56389.1	1105.82	-29739	0.000000	0.000000	7.120861	373.485	NaN	0.000000	0.001557	0.001703	28.081	91.1397	0.001763	51688.3	5.302691	170.879	373.015	1.105600	0.091487	0.091282	373.485	51688.3	0.086068	0.235521	1585.79	97308.6
1184	2.000000	1.107710	7.37664e+06	-56389.1	1105.82	-29739	0.000000	0.000000	7.123624	394.334	NaN	0.000000	0.001525	0.001698	28.0809	91.0561	0.001776	51278.7	3.810608	172.721	389.111	1.107464	0.093392	0.093146	394.334	51278.7	0.087625	0.243082	1622.23	95024.1
1184	2.000000	1.109840	7.37664e+06	-56389.1	1105.82	-29739	0.000000	0.000000	7.126344	408.685	NaN	0.000000	0.001528	0.001700	28.0808	93.5059	0.001885	49598.2	0.426080	177.151	411.353	1.109413	0.095522	0.095095	408.685	49598.2	0.089342	0.251550	1624.67	90349.7
1184	2.000000	1.111753	7.37664e+06	-56389.1	1105.82	-29739	0.000000	0.000000	7.128800	421.897	NaN	0.000000	0.001573	0.001724	28.0809	95.7151	0.001752	54637.4	6.139383	170.58	415.463	1.111454	0.097435	0.097136	421.897	54637.4	0.091644	0.263110	1603.5	97318.3
1184	2.000000	1.113799	7.37664e+06	-56389.1	1105.82	-29739	0.000000	0.000000	7.131674	442.021	NaN	0.000000	0.001549	0.001736	28.0821	96.5822	0.001667	57953.5	6.595766	169.964	441.012	1.113406	0.099481	0.099088	442.021	57953.5	0.093761	0.273959	1613.46	101160
1184	2.000000	1.115831	7.37664e+06	-56389.1	1105.82	-29739	0.000000	0.000000	7.134083	451.176	NaN	0.000000	0.001546	0.001711	28.0823	100.201	0.001729	57964.7	6.152247	169.814	454.498	1.115512	0.101513	0.101194	451.176	57964.7	0.095675	0.283946	1588.95	99384.7
1184	2.000000	1.117741	7.37664e+06	-56389.1	1105.82	-29739	0.000000	0.000000	7.136705	468.486	NaN	0.000000	0.001564	0.001756	28.0821	100.732	0.001767	56996.8	5.096860	170.907	464.181	1.117466	0.103423	0.103149	468.486	56996.8	0.097259	0.292330	1602.59	96313.3
1184	2.000000	1.118883	7.37664e+06	-56389.1	1105.82	-29739	0.000000	0.000000	7.138111	474.904	NaN	0.000000	0.001553	0.001728	28.0821	104.046	0.001824	57052.5	6.612262	169.611	479.293	1.118518	0.104565	0.104200	474.904	57052.5	0.098322	0.298029	1593.48	95481.4