File: remote_trans/data/nanoindenter/0828-1/data/Data_2025-08-06,11h17m57s/2025-07-22_16-23-58_1_241.txt
2025-07-22, 16:23:58, 1
Index	Phase	Displacement	Time	Pos X	Pos Y	Pos Z	Rot A	Rot B	Piezo Z	Force A	Force B	Gripper	Voltage A	Voltage B	Temperature	Amplitude force	Amplitude pos	Stiffness	Phase shift	Phase excitation	Force A raw	Displacement raw	HMax	HMax raw	Real Force	Real Stiffness	Contact Depth	Area	Hardness	Reduced Mod.
[#]	[#]	[um]	[s]	[um]	[um]	[um]	[m°]	[m°]	[um]	[uN]	[uN]	[V]	[V]	[V]	[°C]	[uN]	[um]	[N/m]	[°]	[°]	[uN]	[um]	[um]	[um]	[uN]	[N/m]	[um]	[um^2]	[MPa]	[MPa]
241	1.000000	0.002779	7.3674e+06	-50689.1	955.818	-29755	0.000000	0.000000	6.002816	0.015830	NaN	0.000000	0.001616	0.001686	28.0814	0.098353	0.000840	117.13	-16.3023	-159.047	0.042396	0.001495	-1.237224	-1.238508	0.015830	117.13	-1.237325	-3.470177E+16	-4.561716E-19	NaN
241	1.000000	0.012815	7.3674e+06	-50689.1	955.819	-29755	0.000000	0.000000	6.012853	0.047916	NaN	0.000000	0.001573	0.001688	28.0814	0.112483	0.001197	93.9756	-54.1211	17.9217	0.034675	0.011408	-1.227188	-1.228594	0.047916	93.9756	-1.227570	-2.569329E+16	-1.864936E-18	NaN
241	1.000000	0.022729	7.3674e+06	-50689.1	955.818	-29755	0.000000	0.000000	6.022764	-0.026159	NaN	0.000000	0.001615	0.001723	28.0814	0.111922	0.001765	63.3997	-77.1378	-165.7	0.028865	0.021399	-1.217274	-1.218604	-0.026159	63.3997	-1.216964	-1.852968E+16	1.411744E-18	NaN
241	1.000000	0.032702	7.3674e+06	-50689.1	955.819	-29755	0.000000	0.000000	6.032740	0.051160	NaN	0.000000	0.001564	0.001703	28.0813	0.075837	0.001925	39.4008	-157.288	14.8392	0.042095	0.031360	-1.207301	-1.208643	0.051160	39.4008	-1.208275	-1.417577E+16	-3.608988E-18	NaN
241	1.000000	0.042702	7.3674e+06	-50689.1	955.819	-29755	0.000000	0.000000	6.042735	-0.072521	NaN	0.000000	0.001591	0.001704	28.0816	0.029883	0.002041	14.6399	-66.2682	-167.948	-0.083219	0.041424	-1.197300	-1.198579	-0.072521	14.6399	-1.193585	-9.012393E+15	8.046845E-18	NaN
241	1.000000	0.052714	7.3674e+06	-50689.1	955.818	-29755	0.000000	0.000000	6.052754	0.099810	NaN	0.000000	0.001593	0.001653	28.0815	0.099322	0.002052	48.41	10.4727	18.0996	0.086045	0.051350	-1.187289	-1.188652	0.099810	48.41	-1.188835	-7.784290E+15	-1.282194E-17	NaN
241	1.000000	0.062720	7.3674e+06	-50689.1	955.818	-29755	0.000000	0.000000	6.062754	-0.046462	NaN	0.000000	0.001587	0.001700	28.08	0.094493	0.002113	44.7234	-168.891	-164.692	-0.061236	0.061410	-1.177283	-1.178593	-0.046462	44.7234	-1.176504	-5.321480E+15	8.731115E-18	NaN
241	1.000000	0.072748	7.3674e+06	-50689.1	955.818	-29755	0.000000	0.000000	6.072784	0.000772	NaN	0.000000	0.001619	0.001709	28.0804	0.084918	0.002239	37.9273	104.752	15.6937	0.055963	0.071383	-1.167254	-1.168620	0.000772	37.9273	-1.167270	-4.002182E+15	-1.928308E-19	NaN
241	1.000000	0.082727	7.3674e+06	-50689.1	955.818	-29755	0.000000	0.000000	6.082762	-0.025125	NaN	0.000000	0.001597	0.001696	28.0802	0.088248	0.001919	45.9892	142.752	-165.575	-0.009752	0.081429	-1.157275	-1.158574	-0.025125	45.9892	-1.156866	-2.903064E+15	8.654702E-18	NaN
241	1.000000	0.092721	7.3674e+06	-50689.1	955.819	-29755	0.000000	0.000000	6.092755	-0.036447	NaN	0.000000	0.001589	0.001711	28.08	0.102531	0.001922	53.3376	144.177	14.2939	-0.031035	0.091377	-1.147282	-1.148626	-0.036447	53.3376	-1.146770	-2.125743E+15	1.714550E-17	NaN
241	1.000000	0.102752	7.3674e+06	-50689.1	955.819	-29755	0.000000	0.000000	6.102788	-0.007796	NaN	0.000000	0.001627	0.001720	28.08	0.020484	0.001900	10.7833	-112.268	-164.787	-0.052431	0.101420	-1.137251	-1.138583	-0.007796	10.7833	-1.136708	-1.558106E+15	5.003404E-18	NaN
241	1.000000	0.112760	7.3674e+06	-50689.1	955.818	-29755	0.000000	0.000000	6.112792	-0.108467	NaN	0.000000	0.001602	0.001705	28.0803	0.093678	0.001960	47.8006	179.621	14.4703	-0.064285	0.111305	-1.127242	-1.128698	-0.108467	47.8006	-1.125540	-1.103576E+15	9.828670E-17	NaN
241	1.000000	0.122748	7.3674e+06	-50689.1	955.819	-29755	0.000000	0.000000	6.122783	-0.016473	NaN	0.000000	0.001584	0.001712	28.08	0.100234	0.001967	50.9684	-142.341	-163.346	-0.076996	0.121442	-1.117255	-1.118561	-0.016473	50.9684	-1.117013	-8.479858E+14	1.942617E-17	NaN
241	1.000000	0.132729	7.3674e+06	-50689.1	955.819	-29755	0.000000	0.000000	6.132765	-0.006628	NaN	0.000000	0.001600	0.001717	28.0798	0.063427	0.001942	32.666	-153.334	16.1042	-0.016954	0.131413	-1.107274	-1.108590	-0.006628	32.666	-1.107121	-6.246773E+14	1.061002E-17	NaN
241	1.000000	0.142755	7.3674e+06	-50689.1	955.818	-29755	0.000000	0.000000	6.142790	-0.026079	NaN	0.000000	0.001605	0.001736	28.08	0.052553	0.002016	26.0686	-135.346	-165.299	-0.095411	0.141425	-1.097248	-1.098578	-0.026079	26.0686	-1.096498	-4.498317E+14	5.797446E-17	NaN
241	1.000000	0.152738	7.3674e+06	-50689.1	955.819	-29755	0.000000	0.000000	6.152775	0.007257	NaN	0.000000	0.001592	0.001687	28.08	0.146586	0.001952	75.0868	156.814	16.8707	0.012366	0.151373	-1.087264	-1.088630	0.007257	75.0868	-1.087337	-3.388829E+14	-2.141436E-17	NaN
241	1.000000	0.162745	7.3674e+06	-50689.1	955.818	-29755	0.000000	0.000000	6.162779	-0.041664	NaN	0.000000	0.001548	0.001713	28.0803	0.088221	0.001947	45.3199	-117.322	-162.783	0.056260	0.161456	-1.077258	-1.078546	-0.041664	45.3199	-1.076568	-2.428993E+14	1.715274E-16	NaN
241	1.000000	0.172766	7.3674e+06	-50689.1	955.818	-29755	0.000000	0.000000	6.172800	-0.058098	NaN	0.000000	0.001579	0.001715	28.0801	0.060929	0.002016	30.2177	13.4673	17.0718	-0.032235	0.171368	-1.067237	-1.068634	-0.058098	30.2177	-1.065795	-1.740547E+14	3.337925E-16	NaN
241	1.000000	0.182786	7.3674e+06	-50689.1	955.819	-29755	0.000000	0.000000	6.182819	-0.066923	NaN	0.000000	0.001580	0.001665	28.0807	0.080218	0.002041	39.3057	113.223	-163.409	-0.094904	0.181530	-1.057217	-1.058473	-0.066923	39.3057	-1.055940	-1.283093E+14	5.215756E-16	NaN
241	1.000000	0.192784	7.3674e+06	-50689.1	955.818	-29755	0.000000	0.000000	6.192818	-0.051399	NaN	0.000000	0.001594	0.001698	28.0812	0.086233	0.001984	43.4678	112.668	14.2068	-0.061496	0.191438	-1.047219	-1.048564	-0.051399	43.4678	-1.046332	-9.530181E+13	5.393300E-16	NaN
241	1.000000	0.202772	7.3674e+06	-50689.1	955.819	-29755	0.000000	0.000000	6.202806	-0.041368	NaN	0.000000	0.001606	0.001663	28.0816	0.069859	0.001947	35.8806	77.565	-167.689	-0.060338	0.201445	-1.037231	-1.038558	-0.041368	35.8806	-1.036366	-7.000092E+13	5.909684E-16	NaN
241	1.000000	0.212770	7.3674e+06	-50689.1	955.819	-29755	0.000000	0.000000	6.212804	-0.037561	NaN	0.000000	0.001620	0.001674	28.0814	0.030246	0.002188	13.8264	-56.4999	13.1137	-0.059829	0.211431	-1.027233	-1.028572	-0.037561	13.8264	-1.025196	-4.952842E+13	7.583668E-16	NaN
241	1.000000	0.222796	7.3674e+06	-50689.1	955.819	-29755	0.000000	0.000000	6.222830	-0.041536	NaN	0.000000	0.001616	0.001696	28.0817	0.085541	0.002047	41.7894	-50.8021	-163.429	-0.106600	0.221486	-1.017207	-1.018517	-0.041536	41.7894	-1.016462	-3.778702E+13	1.099216E-15	NaN
241	1.000000	0.232798	7.3674e+06	-50689.1	955.819	-29755	0.000000	0.000000	6.232832	-0.040173	NaN	0.000000	0.001555	0.001714	28.0812	0.062499	0.002019	30.9508	-154.552	14.9015	-0.003266	0.231419	-1.007205	-1.008584	-0.040173	30.9508	-1.006232	-2.752069E+13	1.459749E-15	NaN
241	1.000000	0.242813	7.3674e+06	-50689.1	955.818	-29755	0.000000	0.000000	6.242850	0.017190	NaN	0.000000	0.001604	0.001705	28.0812	0.151465	0.001891	80.1091	-162.353	-159.937	0.066949	0.241482	-0.997190	-0.998520	0.017190	80.1091	-0.997351	-2.089772E+13	-8.225569E-16	NaN
241	1.000000	0.252812	7.3674e+06	-50689.1	955.819	-29755	0.000000	0.000000	6.252845	-0.054299	NaN	0.000000	0.001555	0.001730	28.0816	0.076046	0.001974	38.5269	56.87	16.5838	-0.119960	0.251422	-0.987191	-0.988581	-0.054299	38.5269	-0.986134	-1.475857E+13	3.679157E-15	NaN
241	1.000000	0.262810	7.3674e+06	-50689.1	955.819	-29755	0.000000	0.000000	6.262847	0.020587	NaN	0.000000	0.001594	0.001680	28.0814	0.030823	0.002000	15.414	-178.846	-166.693	0.004691	0.261507	-0.977193	-0.978496	0.020587	15.414	-0.978195	-1.153685E+13	-1.784458E-15	NaN
241	1.000000	0.272808	7.3674e+06	-50689.1	955.819	-29755	0.000000	0.000000	6.272844	0.011322	NaN	0.000000	0.001577	0.001700	28.0813	0.043383	0.002090	20.7619	11.7159	16.6447	-0.042898	0.271484	-0.967195	-0.968519	0.011322	20.7619	-0.967604	-8.305637E+12	-1.363154E-15	NaN
241	1.000000	0.282827	7.3674e+06	-50689.1	955.819	-29755	0.000000	0.000000	6.282863	0.011074	NaN	0.000000	0.001608	0.001721	28.0813	0.028845	0.001904	15.153	106.302	-165.312	-0.050778	0.281497	-0.957176	-0.958505	0.011074	15.153	-0.957724	-6.111982E+12	-1.811824E-15	NaN
241	1.000000	0.292847	7.3674e+06	-50689.1	955.818	-29755	0.000000	0.000000	6.292882	-0.023245	NaN	0.000000	0.001590	0.001688	28.0815	0.019227	0.001989	9.666238	99.0229	15.5182	-0.005185	0.291445	-0.947156	-0.948558	-0.023245	9.666238	-0.945353	-4.162406E+12	5.584519E-15	NaN
241	1.000000	0.302832	7.3674e+06	-50689.1	955.82	-29755	0.000000	0.000000	6.302865	-0.074322	NaN	0.000000	0.001573	0.001708	28.0813	0.109990	0.002041	53.8958	132.948	-169.41	-0.056559	0.301537	-0.937170	-0.938466	-0.074322	53.8958	-0.936136	-3.126116E+12	2.377463E-14	NaN
241	1.000000	0.312817	7.3674e+06	-50689.1	955.82	-29755	0.000000	0.000000	6.312854	0.016517	NaN	0.000000	0.001555	0.001709	28.0814	0.046923	0.001998	23.4851	-94.2147	16.6565	-0.005425	0.311456	-0.927185	-0.928547	0.016517	23.4851	-0.927713	-2.406178E+12	-6.864413E-15	NaN
241	1.000000	0.322862	7.3674e+06	-50689.1	955.818	-29755	0.000000	0.000000	6.322895	-0.073082	NaN	0.000000	0.001570	0.001689	28.0813	0.060309	0.001890	31.9051	-115.084	-165.631	-0.099077	0.321522	-0.917141	-0.918480	-0.073082	31.9051	-0.915423	-1.642119E+12	4.450471E-14	NaN
241	1.000000	0.332855	7.3674e+06	-50689.1	955.819	-29755	0.000000	0.000000	6.332891	0.020366	NaN	0.000000	0.001552	0.001661	28.0803	0.067541	0.001934	34.9169	176.593	18.5887	-0.012540	0.331506	-0.907148	-0.908497	0.020366	34.9169	-0.907585	-1.286910E+12	-1.582586E-14	NaN
241	1.000000	0.342850	7.3674e+06	-50689.1	955.819	-29755	0.000000	0.000000	6.342885	-0.036867	NaN	0.000000	0.001571	0.001680	28.0801	0.069747	0.001919	36.3404	102.774	-165.573	0.001389	0.341498	-0.897153	-0.898505	-0.036867	36.3404	-0.896392	-9.084606E+11	4.058145E-14	NaN
241	1.000000	0.352836	7.3674e+06	-50689.1	955.819	-29755	0.000000	0.000000	6.352870	-0.041557	NaN	0.000000	0.001624	0.001736	28.0797	0.153307	0.002090	73.3666	-33.7728	14.9255	-0.082903	0.351444	-0.887167	-0.888559	-0.041557	73.3666	-0.886742	-6.727828E+11	6.176886E-14	NaN
241	1.000000	0.362813	7.3674e+06	-50689.1	955.818	-29755	0.000000	0.000000	6.362848	-0.030642	NaN	0.000000	0.001662	0.001689	28.0801	0.050629	0.002027	24.9812	133.869	-161.129	0.004017	0.361536	-0.877189	-0.878467	-0.030642	24.9812	-0.876269	-4.855727E+11	6.310525E-14	NaN
241	1.000000	0.372826	7.3674e+06	-50689.1	955.819	-29755	0.000000	0.000000	6.372862	-0.011441	NaN	0.000000	0.001674	0.001699	28.08	0.045949	0.001973	23.2865	119.852	15.9383	0.014763	0.371507	-0.867176	-0.868496	-0.011441	23.2865	-0.866808	-3.616208E+11	3.163702E-14	NaN
241	1.000000	0.382870	7.3674e+06	-50689.1	955.819	-29755	0.000000	0.000000	6.382905	-0.005332	NaN	0.000000	0.001704	0.001681	28.08	0.027947	0.002008	13.916	-83.5325	-166.413	-0.117394	0.381587	-0.857133	-0.858416	-0.005332	13.916	-0.856846	-2.651076E+11	2.011398E-14	NaN
241	1.000000	0.392840	7.3674e+06	-50689.1	955.818	-29755	0.000000	0.000000	6.392874	-0.043462	NaN	0.000000	0.001638	0.001713	28.0797	0.057233	0.002007	28.5112	136.522	13.5833	-0.027108	0.391468	-0.847163	-0.848534	-0.043462	28.5112	-0.846020	-1.891614E+11	2.297588E-13	NaN
241	1.000000	0.402854	7.3674e+06	-50689.1	955.818	-29755	0.000000	0.000000	6.402892	0.058327	NaN	0.000000	0.001667	0.001744	28.08	0.116253	0.001965	59.1651	81.7612	-163.187	-0.102155	0.401579	-0.837149	-0.838424	0.058327	59.1651	-0.837888	-1.467847E+11	-3.973666E-13	NaN
241	1.000000	0.412869	7.3674e+06	-50689.1	955.818	-29755	0.000000	0.000000	6.412906	0.009621	NaN	0.000000	0.001620	0.001685	28.0813	0.048139	0.001934	24.8968	94.9673	13.7668	-0.020897	0.411502	-0.827133	-0.828500	0.009621	24.8968	-0.827423	-1.058906E+11	-9.086083E-14	NaN
241	1.000000	0.422878	7.3674e+06	-50689.1	955.818	-29755	0.000000	0.000000	6.422913	-0.035658	NaN	0.000000	0.001632	0.001699	28.0801	0.064108	0.002045	31.3532	-79.799	-163.545	-0.033660	0.421592	-0.817124	-0.818410	-0.035658	31.3532	-0.816271	-7.475550E+10	4.769905E-13	NaN
241	1.000000	0.432895	7.3674e+06	-50689.1	955.818	-29755	0.000000	0.000000	6.432931	-0.005905	NaN	0.000000	0.001648	0.001722	28.0802	0.049365	0.001933	25.5366	-95.4707	18.5239	-0.056094	0.431511	-0.807108	-0.808492	-0.005905	25.5366	-0.806934	-5.584375E+10	1.057431E-13	NaN
241	1.000000	0.442870	7.3674e+06	-50689.1	955.819	-29755	0.000000	0.000000	6.442904	-0.051642	NaN	0.000000	0.001673	0.001722	28.0802	0.087690	0.002047	42.8404	-170.648	-166.272	-0.100036	0.441573	-0.797132	-0.798430	-0.051642	42.8404	-0.796228	-3.996310E+10	1.292252E-12	NaN
241	1.000000	0.452877	7.3674e+06	-50689.1	955.819	-29755	0.000000	0.000000	6.452913	0.005396	NaN	0.000000	0.001664	0.001708	28.0803	0.011371	0.002025	5.614857	163.566	14.3079	0.045433	0.451550	-0.787125	-0.788452	0.005396	5.614857	-0.787846	-3.074902E+10	-1.754983E-13	NaN
241	1.000000	0.462870	7.3674e+06	-50689.1	955.817	-29755	0.000000	0.000000	6.462907	0.014624	NaN	0.000000	0.001671	0.001653	28.0802	0.092060	0.002045	45.0175	115.086	-162.273	0.031267	0.461601	-0.777133	-0.778402	0.014624	45.0175	-0.777376	-2.216036E+10	-6.599287E-13	NaN
241	1.000000	0.472919	7.3674e+06	-50689.1	955.819	-29755	0.000000	0.000000	6.472951	-0.092650	NaN	0.000000	0.001645	0.001680	28.0816	0.121713	0.001912	63.6627	67.1101	15.1865	-0.054099	0.471522	-0.767084	-0.768480	-0.092650	63.6627	-0.765993	-1.551722E+10	5.970782E-12	NaN
241	1.000000	0.482909	7.3674e+06	-50689.1	955.818	-29755	0.000000	0.000000	6.482944	-0.019997	NaN	0.000000	0.001637	0.001692	28.0814	0.063986	0.001999	32.0074	-105.494	-166.282	-0.014091	0.481590	-0.757094	-0.758412	-0.019997	32.0074	-0.756625	-1.157131E+10	1.728182E-12	NaN
241	1.000000	0.492894	7.36741e+06	-50689.1	955.819	-29755	0.000000	0.000000	6.492927	-0.072657	NaN	0.000000	0.001648	0.001683	28.0814	0.086080	0.001984	43.3893	-111.178	14.9472	-0.023979	0.491489	-0.747108	-0.748513	-0.072657	43.3893	-0.745853	-8.255748E+9	8.800745E-12	NaN
241	1.000000	0.502909	7.36741e+06	-50689.1	955.818	-29755	0.000000	0.000000	6.502944	-0.019156	NaN	0.000000	0.001659	0.001716	28.0813	0.062435	0.001986	31.4409	-111.307	-162.072	-0.097255	0.501605	-0.737094	-0.738398	-0.019156	31.4409	-0.736637	-6.183614E+9	3.097918E-12	NaN
241	1.000000	0.512886	7.36741e+06	-50689.1	955.819	-29755	0.000000	0.000000	6.512922	0.017365	NaN	0.000000	0.001664	0.001717	28.0815	0.135758	0.001869	72.6321	88.1798	14.287	-0.012213	0.511536	-0.727117	-0.728467	0.017365	72.6321	-0.727297	-4.612737E+9	-3.764601E-12	NaN
241	1.000000	0.522923	7.36741e+06	-50689.1	955.818	-29755	0.000000	0.000000	6.522959	-0.017614	NaN	0.000000	0.001654	0.001729	28.0815	0.050541	0.002063	24.4999	-12.2328	-163.429	-0.074610	0.521597	-0.717079	-0.718406	-0.017614	24.4999	-0.716540	-3.290652E+9	5.352855E-12	NaN
241	1.000000	0.532935	7.36741e+06	-50689.1	955.819	-29755	0.000000	0.000000	6.532968	-0.048686	NaN	0.000000	0.001659	0.001654	28.0815	0.062668	0.002026	30.9282	83.2494	12.9086	-0.029339	0.531574	-0.707068	-0.708429	-0.048686	30.9282	-0.705888	-2.354605E+9	2.067695E-11	NaN
241	1.000000	0.542939	7.36741e+06	-50689.1	955.818	-29755	0.000000	0.000000	6.542976	0.019101	NaN	0.000000	0.001701	0.001662	28.0813	0.064978	0.002193	29.6262	29.0702	-163.515	0.030590	0.541625	-0.697064	-0.698378	0.019101	29.6262	-0.697547	-1.811485E+9	-1.054454E-11	NaN
241	1.000000	0.552930	7.36741e+06	-50689.1	955.819	-29755	0.000000	0.000000	6.552969	0.056568	NaN	0.000000	0.001676	0.001688	28.0816	0.109130	0.001976	55.2411	-165.046	16.8617	0.041935	0.551587	-0.687072	-0.688416	0.056568	55.2411	-0.687840	-1.334752E+9	-4.238092E-11	NaN
241	1.000000	0.562917	7.36741e+06	-50689.1	955.819	-29755	0.000000	0.000000	6.562951	-0.050604	NaN	0.000000	0.001657	0.001698	28.0813	0.036992	0.001902	19.4495	87.3683	-164.406	-0.004122	0.561608	-0.677085	-0.678394	-0.050604	19.4495	-0.675134	-8.946311E+8	5.656404E-11	NaN
241	1.000000	0.572952	7.36741e+06	-50689.1	955.819	-29755	0.000000	0.000000	6.572985	-0.064028	NaN	0.000000	0.001666	0.001669	28.0814	0.114058	0.001872	60.9244	46.7445	11.3711	-0.038183	0.571597	-0.667051	-0.668405	-0.064028	60.9244	-0.666262	-6.764376E+8	9.465478E-11	NaN
241	1.000000	0.582939	7.36741e+06	-50689.1	955.819	-29755	0.000000	0.000000	6.582973	-0.047941	NaN	0.000000	0.001654	0.001689	28.0813	0.058768	0.001857	31.6509	42.0293	-165.594	-0.047684	0.581652	-0.657063	-0.658351	-0.047941	31.6509	-0.655927	-4.882842E+8	9.818197E-11	NaN
241	1.000000	0.592968	7.36741e+06	-50689.1	955.817	-29755	0.000000	0.000000	6.593004	0.026662	NaN	0.000000	0.001657	0.001691	28.0819	0.041746	0.001878	22.2299	35.4942	14.9259	-2.909179E-5	0.591571	-0.647035	-0.648432	0.026662	22.2299	-0.647935	-3.794215E+8	-7.027066E-11	NaN
241	1.000000	0.602938	7.36741e+06	-50689.1	955.818	-29755	0.000000	0.000000	6.602972	-0.065853	NaN	0.000000	0.001690	0.001673	28.0801	0.060007	0.002069	29.0091	46.7037	-161.778	-0.073293	0.601587	-0.637064	-0.638416	-0.065853	29.0091	-0.635362	-2.550567E+8	2.581905E-10	NaN
241	1.000000	0.612932	7.36741e+06	-50689.1	955.818	-29755	0.000000	0.000000	6.612970	0.034648	NaN	0.000000	0.001687	0.001686	28.0802	0.037535	0.002040	18.3965	-33.7394	17.1169	0.071153	0.611626	-0.627071	-0.628377	0.034648	18.3965	-0.628483	-2.052063E+8	-1.688453E-10	NaN
241	1.000000	0.622948	7.36741e+06	-50689.1	955.819	-29755	0.000000	0.000000	6.622981	-0.055967	NaN	0.000000	0.001653	0.001722	28.0802	0.058219	0.001913	30.4295	95.7639	-163.713	-0.100932	0.621607	-0.617055	-0.618396	-0.055967	30.4295	-0.615676	-1.368303E+8	4.090258E-10	NaN
241	1.000000	0.632976	7.36741e+06	-50689.1	955.819	-29755	0.000000	0.000000	6.633012	0.010144	NaN	0.000000	0.001630	0.001702	28.0804	0.032178	0.002066	15.5749	20.0581	15.0364	0.142689	0.631616	-0.607027	-0.608387	0.010144	15.5749	-0.607515	-1.056628E+8	-9.599914E-11	NaN
241	1.000000	0.642956	7.36741e+06	-50689.1	955.818	-29755	0.000000	0.000000	6.642987	-0.108729	NaN	0.000000	0.001677	0.001721	28.0801	0.090122	0.002087	43.1805	84.353	-164.2	-0.139532	0.641668	-0.597047	-0.598335	-0.108729	43.1805	-0.595158	-7.141036E+7	1.522599E-9	NaN
241	1.000000	0.652977	7.36741e+06	-50689.1	955.818	-29755	0.000000	0.000000	6.653012	-0.030001	NaN	0.000000	0.001661	0.001699	28.08	0.071228	0.001989	35.8097	3.574647	12.5797	-0.073857	0.651599	-0.587026	-0.588404	-0.030001	35.8097	-0.586397	-5.407371E+7	5.548096E-10	NaN
241	1.000000	0.662948	7.36741e+06	-50689.1	955.82	-29755	0.000000	0.000000	6.662982	-0.045686	NaN	0.000000	0.001670	0.001745	28.0802	0.107459	0.001928	55.7346	148.514	-164.059	-0.012391	0.661641	-0.577055	-0.578361	-0.045686	55.7346	-0.576440	-3.940811E+7	1.159304E-9	NaN
241	1.000000	0.672966	7.36741e+06	-50689.1	955.819	-29755	0.000000	0.000000	6.673002	0.013556	NaN	0.000000	0.001675	0.001692	28.0802	0.024779	0.002154	11.5026	45.829	14.6537	0.038749	0.671602	-0.567037	-0.568401	0.013556	11.5026	-0.567921	-3.005411E+7	-4.510677E-10	NaN
241	1.000000	0.682962	7.36741e+06	-50689.1	955.817	-29755	0.000000	0.000000	6.682996	-0.049380	NaN	0.000000	0.001687	0.001713	28.0803	0.035819	0.002010	17.8221	-161.273	-166.162	-0.008165	0.681675	-0.557041	-0.558328	-0.049380	17.8221	-0.554963	-1.989177E+7	2.482411E-9	NaN
241	1.000000	0.692983	7.36741e+06	-50689.1	955.819	-29755	0.000000	0.000000	6.693017	-0.056982	NaN	0.000000	0.001643	0.001708	28.08	0.163652	0.002022	80.9527	-78.1991	16.9161	-0.051892	0.691594	-0.547020	-0.548409	-0.056982	80.9527	-0.546492	-1.518279E+7	3.753053E-9	NaN
241	1.000000	0.702977	7.36741e+06	-50689.1	955.818	-29755	0.000000	0.000000	6.703011	-0.046475	NaN	0.000000	0.001638	0.001735	28.0801	0.132920	0.002103	63.2107	58.996	-164.281	-0.071137	0.701681	-0.537026	-0.538322	-0.046475	63.2107	-0.536475	-1.102695E+7	4.214685E-9	NaN
241	1.000000	0.712969	7.36741e+06	-50689.1	955.818	-29755	0.000000	0.000000	6.713003	-0.049018	NaN	0.000000	0.001604	0.001654	28.0801	0.055927	0.002046	27.3409	-104.173	18.5191	-0.044572	0.711629	-0.527033	-0.528373	-0.049018	27.3409	-0.525689	-7.81058e+06	6.275820E-9	NaN
241	1.000000	0.722957	7.36741e+06	-50689.1	955.818	-29755	0.000000	0.000000	6.722994	0.019525	NaN	0.000000	0.001591	0.001680	28.08	0.046239	0.001933	23.9235	19.9576	-164.367	0.087698	0.721672	-0.517046	-0.518331	0.019525	23.9235	-0.517658	-6.03974e+06	-3.232706E-9	NaN
241	1.000000	0.733028	7.36741e+06	-50689.1	955.82	-29755	0.000000	0.000000	6.733063	-0.032473	NaN	0.000000	0.001639	0.001718	28.0799	0.007373	0.001989	3.707223	-169.304	12.0632	-0.132691	0.731631	-0.506974	-0.508371	-0.032473	3.707223	-0.500405	-3.47267e+06	9.351156E-9	NaN
241	1.000000	0.742974	7.36741e+06	-50689.1	955.819	-29755	0.000000	0.000000	6.743010	0.008628	NaN	0.000000	0.001596	0.001710	28.0814	0.107543	0.001966	54.6927	77.6368	-165.117	0.006605	0.741728	-0.497029	-0.498274	0.008628	54.6927	-0.497147	-3.12761e+06	-2.758537E-9	NaN
241	1.000000	0.752998	7.36741e+06	-50689.1	955.82	-29755	0.000000	0.000000	6.753034	0.007894	NaN	0.000000	0.001627	0.001703	28.0812	0.086169	0.001947	44.2601	-10.7683	15.3424	-0.020517	0.751607	-0.487005	-0.488396	0.007894	44.2601	-0.487138	-2.26669e+06	-3.482784E-9	NaN
241	1.000000	0.763005	7.36741e+06	-50689.1	955.819	-29755	0.000000	0.000000	6.763038	-0.061776	NaN	0.000000	0.001580	0.001686	28.0811	0.054509	0.001922	28.3663	-70.8064	-164.179	-0.049984	0.761724	-0.476998	-0.478279	-0.061776	28.3663	-0.475365	-1.551e+06	3.983001E-8	NaN
241	1.000000	0.773019	7.36741e+06	-50689.1	955.818	-29755	0.000000	0.000000	6.773053	-0.043698	NaN	0.000000	0.001574	0.001708	28.0811	0.071560	0.001951	36.6812	-82.079	16.8803	-0.078936	0.771667	-0.466983	-0.468336	-0.043698	36.6812	-0.466090	-1.1496e+06	3.801126E-8	NaN
241	1.000000	0.783005	7.36741e+06	-50689.1	955.819	-29755	0.000000	0.000000	6.783040	-0.036947	NaN	0.000000	0.001563	0.001669	28.0812	0.114565	0.002064	55.5132	-135.149	-164.617	-0.036989	0.781759	-0.456997	-0.458244	-0.036947	55.5132	-0.456498	-842924	4.383230E-8	NaN
241	1.000000	0.793037	7.36741e+06	-50689.1	955.819	-29755	0.000000	0.000000	6.793071	-0.033417	NaN	0.000000	0.001605	0.001658	28.0809	0.013946	0.001868	7.466820	15.3512	13.9182	-0.062932	0.791688	-0.446966	-0.448314	-0.033417	7.466820	-0.443609	-554986	6.021320E-8	NaN
241	1.000000	0.803011	7.36741e+06	-50689.1	955.819	-29755	0.000000	0.000000	6.803047	-0.013738	NaN	0.000000	0.001591	0.001651	28.0811	0.057630	0.002146	26.8567	-89.5477	-161.916	-0.030487	0.801742	-0.436991	-0.438261	-0.013738	26.8567	-0.436608	-442048	3.107767E-8	NaN
241	1.000000	0.813032	7.36741e+06	-50689.1	955.818	-29755	0.000000	0.000000	6.813063	-0.124539	NaN	0.000000	0.001614	0.001711	28.081	0.035500	0.002027	17.5144	-28.1723	11.2065	-0.096232	0.811697	-0.426971	-0.428306	-0.124539	17.5144	-0.421638	-271416	4.588493E-7	NaN
241	1.000000	0.823042	7.36741e+06	-50689.1	955.818	-29755	0.000000	0.000000	6.823081	0.064476	NaN	0.000000	0.001571	0.001702	28.0811	0.088041	0.002135	41.2297	23.1377	-165.014	-0.035510	0.821714	-0.416961	-0.418289	0.064476	41.2297	-0.418133	-242067	-2.663563E-7	NaN
241	1.000000	0.833050	7.36741e+06	-50689.1	955.82	-29755	0.000000	0.000000	6.833082	-0.080168	NaN	0.000000	0.001606	0.001703	28.0807	0.036912	0.002046	18.0374	85.3861	13.9289	-0.109523	0.831654	-0.406953	-0.408348	-0.080168	18.0374	-0.403620	-150518	5.326137E-7	NaN
241	1.000000	0.843047	7.36741e+06	-50689.1	955.82	-29755	0.000000	0.000000	6.843081	-0.047796	NaN	0.000000	0.001569	0.001691	28.0809	0.079359	0.002080	38.1605	106.329	-165.83	-6.736946E-5	0.841738	-0.396955	-0.398265	-0.047796	38.1605	-0.396016	-117259	4.076081E-7	NaN
241	1.000000	0.853005	7.36741e+06	-50689.1	955.819	-29755	0.000000	0.000000	6.853040	-0.031161	NaN	0.000000	0.001571	0.001714	28.0809	0.037309	0.001901	19.628	98.6713	16.5671	-0.004931	0.851677	-0.386998	-0.388326	-0.031161	19.628	-0.385807	-83780.9	3.719329E-7	NaN
241	1.000000	0.863048	7.36741e+06	-50689.1	955.818	-29755	0.000000	0.000000	6.863084	-0.008440	NaN	0.000000	0.001608	0.001707	28.081	0.048938	0.001844	26.535	106.107	-163.811	-0.008686	0.861742	-0.376955	-0.378261	-0.008440	26.535	-0.376716	-62049	1.360159E-7	NaN
241	1.000000	0.873066	7.36741e+06	-50689.1	955.819	-29755	0.000000	0.000000	6.873102	0.004617	NaN	0.000000	0.001568	0.001696	28.0808	0.064827	0.002128	30.4699	-77.86	16.3582	0.011150	0.871723	-0.366937	-0.368279	0.004617	30.4699	-0.367051	-45043.6	-1.025037E-7	NaN
241	1.000000	0.883070	7.36741e+06	-50689.1	955.818	-29755	0.000000	0.000000	6.883104	-0.036582	NaN	0.000000	0.001591	0.001710	28.0797	0.027466	0.001949	14.0958	176.189	-163.05	-0.022775	0.881743	-0.356933	-0.358260	-0.036582	14.0958	-0.354986	-30150.9	1.213287E-6	NaN
241	1.000000	0.893091	7.36741e+06	-50689.1	955.818	-29755	0.000000	0.000000	6.893128	0.018431	NaN	0.000000	0.001621	0.001687	28.08	0.031685	0.001992	15.9027	-147.271	16.5426	-0.042168	0.891701	-0.346912	-0.348302	0.018431	15.9027	-0.347781	-23701.7	-7.776412E-7	NaN
241	1.000000	0.903061	7.36741e+06	-50689.1	955.819	-29755	0.000000	0.000000	6.903094	-0.073491	NaN	0.000000	0.001609	0.001736	28.0796	0.116884	0.001903	61.4328	-121.383	-163.092	-0.065299	0.901726	-0.336942	-0.338276	-0.073491	61.4328	-0.336045	-15989.9	4.596087E-6	NaN
241	1.000000	0.913085	7.36741e+06	-50689.1	955.818	-29755	0.000000	0.000000	6.913118	-0.061397	NaN	0.000000	0.001634	0.001707	28.0799	0.021769	0.001989	10.9446	160.59	12.773	0.045752	0.911750	-0.326918	-0.328253	-0.061397	10.9446	-0.322710	-10197.7	6.020660E-6	NaN
241	1.000000	0.923055	7.36741e+06	-50689.1	955.818	-29755	0.000000	0.000000	6.923090	-0.010534	NaN	0.000000	0.001589	0.001724	28.0798	0.014334	0.002087	6.867134	37.0786	-162.724	0.002548	0.921779	-0.316948	-0.318223	-0.010534	6.867134	-0.315797	-8066.99	1.305838E-6	NaN
241	1.000000	0.933081	7.36741e+06	-50689.1	955.818	-29755	0.000000	0.000000	6.933116	-0.017482	NaN	0.000000	0.001587	0.001696	28.0804	0.098331	0.001970	49.9226	-111	12.9542	0.013766	0.931726	-0.306922	-0.308276	-0.017482	49.9226	-0.306659	-5909.78	2.958220E-6	NaN
241	1.000000	0.943083	7.36741e+06	-50689.1	955.82	-29755	0.000000	0.000000	6.943115	-0.096384	NaN	0.000000	0.001632	0.001704	28.0799	0.043676	0.001968	22.1882	-134.395	-166.319	0.000332	0.941745	-0.296920	-0.298258	-0.096384	22.1882	-0.293662	-3785.3	2.546271E-5	NaN
241	1.000000	0.953095	7.36741e+06	-50689.1	955.818	-29755	0.000000	0.000000	6.953129	-0.043946	NaN	0.000000	0.001626	0.001735	28.0801	0.054696	0.002059	26.5588	2.392860	17.6858	-0.087286	0.951758	-0.286908	-0.288245	-0.043946	26.5588	-0.285667	-2872.67	1.529789E-5	NaN
241	1.000000	0.963095	7.36741e+06	-50689.1	955.819	-29755	0.000000	0.000000	6.963132	0.042533	NaN	0.000000	0.001616	0.001699	28.08	0.048299	0.001948	24.796	126.237	-163.544	-0.046551	0.961784	-0.276908	-0.278219	0.042533	24.796	-0.278195	-2216.74	-1.918727E-5	NaN
241	1.000000	0.973098	7.36741e+06	-50689.1	955.819	-29755	0.000000	0.000000	6.973133	-0.026139	NaN	0.000000	0.001626	0.001715	28.0801	0.046672	0.002123	21.9842	25.0615	15.5625	-0.109932	0.971729	-0.266905	-0.268274	-0.026139	21.9842	-0.266013	-1448.24	1.804896E-5	NaN
241	1.000000	0.983129	7.36741e+06	-50689.1	955.819	-29755	0.000000	0.000000	6.983163	-0.047352	NaN	0.000000	0.001613	0.001704	28.0801	0.089458	0.001900	47.0724	136.237	-163.093	-0.027159	0.981747	-0.256874	-0.258256	-0.047352	47.0724	-0.256119	-1021.74	4.634428E-5	NaN
241	1.000000	0.993086	7.36741e+06	-50689.1	955.819	-29755	0.000000	0.000000	6.993123	0.020155	NaN	0.000000	0.001602	0.001693	28.0801	0.035396	0.001899	18.6346	147.067	14.2677	0.006054	0.991757	-0.246917	-0.248246	0.020155	18.6346	-0.247728	-758.206	-2.658206E-5	NaN
241	1.000000	1.003124	7.36741e+06	-50689.1	955.819	-29755	0.000000	0.000000	7.003159	-0.003731	NaN	0.000000	0.001610	0.001707	28.0802	0.084726	0.001976	42.8727	61.9343	-164.269	0.025183	1.001794	-0.236879	-0.238208	-0.003731	42.8727	-0.236814	-512.513	7.278896E-6	NaN
241	1.000000	1.013105	7.36741e+06	-50689.1	955.818	-29755	0.000000	0.000000	7.013141	0.005039	NaN	0.000000	0.001628	0.001714	28.0815	0.067092	0.002008	33.4154	160.992	14.786	-0.026471	1.011749	-0.226897	-0.228254	0.005039	33.4154	-0.227010	-359.112	-1.403267E-5	NaN
241	1.000000	1.023125	7.36741e+06	-50689.1	955.82	-29755	0.000000	0.000000	7.023159	-0.055500	NaN	0.000000	0.001549	0.001675	28.0814	0.032520	0.001817	17.9025	-31.479	-164.995	-0.030704	1.021774	-0.216878	-0.218229	-0.055500	17.9025	-0.214553	-227.152	0.000244	NaN
241	1.000000	1.033150	7.36741e+06	-50689.1	955.818	-29755	0.000000	0.000000	7.033185	-0.033062	NaN	0.000000	0.001549	0.001700	28.0814	0.008244	0.001969	4.186556	-20.0645	13.9279	-0.007455	1.031719	-0.206852	-0.208284	-0.033062	4.186556	-0.200929	-136.446	0.000242	NaN
241	1.000000	1.043143	7.36741e+06	-50689.1	955.819	-29755	0.000000	0.000000	7.043180	0.013995	NaN	0.000000	0.001587	0.001692	28.0814	0.083888	0.002045	41.0137	-9.409216	-164.088	0.026350	1.041832	-0.196860	-0.198170	0.013995	41.0137	-0.197115	-118.083	-0.000119	NaN
241	1.000000	1.053114	7.36741e+06	-50689.1	955.819	-29755	0.000000	0.000000	7.053151	0.012071	NaN	0.000000	0.001606	0.001668	28.0815	0.103151	0.001922	53.6626	139.564	15.8318	-0.025940	1.051779	-0.186889	-0.188224	0.012071	53.6626	-0.187057	-80.3049	-0.000150	NaN
241	1.000000	1.063131	7.36741e+06	-50689.1	955.818	-29755	0.000000	0.000000	7.063166	-0.035781	NaN	0.000000	0.001585	0.001656	28.0809	0.098390	0.002006	49.0565	123.411	-163.435	-0.083122	1.061850	-0.176871	-0.178152	-0.035781	49.0565	-0.176324	-52.8089	0.000678	NaN
241	1.000000	1.073149	7.36741e+06	-50689.1	955.819	-29755	0.000000	0.000000	7.073184	-0.022311	NaN	0.000000	0.001646	0.001686	28.0811	0.072691	0.001901	38.2483	-99.3656	15.5927	-0.002506	1.071822	-0.166854	-0.168181	-0.022311	38.2483	-0.166416	-35.574	0.000627	NaN
241	1.000000	1.083126	7.36741e+06	-50689.1	955.82	-29755	0.000000	0.000000	7.083162	-0.008846	NaN	0.000000	0.001642	0.001700	28.0816	0.022480	0.001983	11.3384	-166.227	-162.017	-0.068887	1.081855	-0.156877	-0.158148	-0.008846	11.3384	-0.156291	-23.5386	0.000376	NaN
241	1.000000	1.093141	7.36741e+06	-50689.1	955.82	-29755	0.000000	0.000000	7.093176	-0.021641	NaN	0.000000	0.001672	0.001708	28.0814	0.049466	0.001927	25.6759	46.7164	13.1769	-0.059909	1.091779	-0.146861	-0.148224	-0.021641	25.6759	-0.146229	-15.4478	0.001401	NaN
241	1.000000	1.103140	7.36741e+06	-50689.1	955.819	-29755	0.000000	0.000000	7.103178	0.036465	NaN	0.000000	0.001651	0.001661	28.0811	0.081798	0.002077	39.3762	-58.2885	-165.47	0.003824	1.101840	-0.136862	-0.138163	0.036465	39.3762	-0.137557	-10.639	-0.003428	NaN
241	1.000000	1.113181	7.36741e+06	-50689.1	955.819	-29755	0.000000	0.000000	7.113216	-0.033542	NaN	0.000000	0.001687	0.001687	28.081	0.063676	0.002077	30.6556	-96.9161	17.2727	-0.051149	1.111782	-0.126822	-0.128221	-0.033542	30.6556	-0.126001	-6.364506	0.005270	NaN
241	1.000000	1.123149	7.36741e+06	-50689.1	955.821	-29755	0.000000	0.000000	7.123182	-0.066665	NaN	0.000000	0.001667	0.001685	28.0812	0.045337	0.002056	22.0566	7.269608	-164.001	0.030674	1.121874	-0.116854	-0.118129	-0.066665	22.0566	-0.114587	-3.746118	0.017796	NaN
241	1.000000	1.133179	7.36741e+06	-50689.1	955.82	-29755	0.000000	0.000000	7.133217	0.055895	NaN	0.000000	0.001668	0.001706	28.081	0.060812	0.001971	30.8499	-159.904	16.629	-0.018865	1.131791	-0.106824	-0.108212	0.055895	30.8499	-0.108183	-2.750399	-0.020323	NaN
241	1.000000	1.143182	7.36741e+06	-50689.1	955.821	-29755	0.000000	0.000000	7.143217	-0.015068	NaN	0.000000	0.001666	0.001688	28.081	0.109038	0.002034	53.6197	61.0174	-162.259	0.008814	1.141849	-0.096821	-0.098154	-0.015068	53.6197	-0.096610	-1.534373	0.009820	NaN
241	1.000000	1.153154	7.36741e+06	-50689.1	955.819	-29755	0.000000	0.000000	7.153189	-0.026530	NaN	0.000000	0.001642	0.001701	28.0799	0.097157	0.001947	49.9079	97.1648	16.464	-0.012079	1.151766	-0.086849	-0.088237	-0.026530	49.9079	-0.086450	-0.890472	0.029793	NaN
241	1.000000	1.163170	7.36741e+06	-50689.1	955.82	-29755	0.000000	0.000000	7.163206	0.007641	NaN	0.000000	0.001671	0.001706	28.0799	0.049496	0.002009	24.6317	-138.32	-164.469	0.035362	1.161889	-0.076833	-0.078113	0.007641	24.6317	-0.077066	-0.521889	-0.014640	NaN
241	1.000000	1.173170	7.36741e+06	-50689.1	955.821	-29755	0.000000	0.000000	7.173206	0.002250	NaN	0.000000	0.001656	0.001661	28.0799	0.065835	0.002005	32.8362	147.565	13.1778	-0.057486	1.171810	-0.066833	-0.068192	0.002250	32.8362	-0.066884	-0.280872	-0.008010	NaN
241	1.000000	1.183187	7.36741e+06	-50689.1	955.819	-29755	0.000000	0.000000	7.183222	-0.034339	NaN	0.000000	0.001645	0.001679	28.08	0.191847	0.001976	97.0739	-159.807	-163.042	-0.038327	1.181874	-0.056816	-0.058128	-0.034339	97.0739	-0.056550	-0.143043	0.240063	NaN
241	1.000000	1.193191	7.36741e+06	-50689.1	955.819	-29755	0.000000	0.000000	7.193227	-0.017945	NaN	0.000000	0.001665	0.001689	28.0803	0.073275	0.002082	35.1907	-113.081	17.7284	-0.075817	1.191826	-0.046811	-0.048177	-0.017945	35.1907	-0.046429	-0.071065	0.252517	NaN
241	1.000000	1.203188	7.36741e+06	-50689.1	955.819	-29755	0.000000	0.000000	7.203224	-0.001666	NaN	0.000000	0.001687	0.001678	28.0801	0.149030	0.001974	75.5001	-18.7193	-164.939	-0.017648	1.201888	-0.036815	-0.038115	-0.001666	75.5001	-0.036798	-0.036210	0.046007	NaN
241	1.000000	1.213218	7.36741e+06	-50689.1	955.82	-29755	0.000000	0.000000	7.213254	-0.017650	NaN	0.000000	0.001657	0.001691	28.0801	0.044928	0.002033	22.1048	76.1722	16.5732	0.029106	1.211860	-0.026784	-0.028143	-0.017650	22.1048	-0.026185	-0.018126	0.973733	NaN
241	1.000000	1.223205	7.36741e+06	-50689.1	955.82	-29755	0.000000	0.000000	7.223238	-0.054705	NaN	0.000000	0.001674	0.001694	28.0802	0.058199	0.002092	27.8237	80.4703	-162.106	-0.016864	1.221898	-0.016798	-0.018105	-0.054705	27.8237	-0.015323	-0.009470	5.776635	NaN
241	1.000000	1.233201	7.36741e+06	-50689.1	955.819	-29755	0.000000	0.000000	7.233238	0.046467	NaN	0.000000	0.001665	0.001725	28.0805	0.036197	0.001796	20.1587	17.4918	12.6594	-0.045274	1.231807	-0.006802	-0.008196	0.046467	20.1587	-0.008531	-0.005541	-8.385397	NaN
241	1.000000	1.243172	7.36741e+06	-50689.1	955.82	-29755	0.000000	0.000000	7.243310	2.483030	NaN	0.000000	0.001653	0.001688	28.0804	3.461015	0.001946	1778.67	11.351	-171.599	1.072620	1.241906	0.003169	0.001903	2.483030	1778.67	0.002122	0.001654	1501.43	39960.4
241	2.000000	1.249437	7.36741e+06	-50689.1	955.82	-29755	0.000000	0.000000	7.249887	10.0728	NaN	0.000000	0.001683	0.001693	28.0805	9.994319	0.001622	6162.75	3.479626	11.9015	9.910676	1.249074	0.009434	0.009071	10.0728	6162.75	0.008208	0.007257	1388	66094.8
241	2.000000	1.251849	7.36741e+06	-50689.1	955.82	-29755	0.000000	0.000000	7.252422	13.0754	NaN	0.000000	0.001651	0.001718	28.0803	12.623	0.001743	7240.16	4.728558	-171.015	11.9235	1.251626	0.011846	0.011623	13.0754	7240.16	0.010491	0.009733	1343.45	67050.9
241	2.000000	1.254330	7.36741e+06	-50689.1	955.821	-29755	0.000000	0.000000	7.255075	17.2471	NaN	0.000000	0.001652	0.001679	28.08	16.063	0.001723	9320.49	7.035666	2.358938	15.3942	1.253957	0.014327	0.013954	17.2471	9320.49	0.012939	0.012635	1365.03	75757.5
241	2.000000	1.256836	7.36741e+06	-50689.1	955.82	-29755	0.000000	0.000000	7.257700	20.1485	NaN	0.000000	0.001674	0.001687	28.0806	19.0576	0.001894	10060.9	8.897142	-178.12	19.8372	1.256540	0.016833	0.016537	20.1485	10060.9	0.015331	0.015730	1280.93	73291.3
241	2.000000	1.259342	7.36741e+06	-50689.1	955.82	-29755	0.000000	0.000000	7.260460	26.316	NaN	0.000000	0.001694	0.001730	28.0811	20.5944	0.001783	11550.8	2.713704	7.064879	24.5981	1.258997	0.019340	0.018995	26.316	11550.8	0.017631	0.018955	1388.31	76651.3
241	2.000000	1.261839	7.36741e+06	-50689.1	955.82	-29755	0.000000	0.000000	7.263172	31.5546	NaN	0.000000	0.001643	0.001715	28.0821	23.1835	0.001728	13415.7	4.827317	-176.461	30.8722	1.261423	0.021836	0.021421	31.5546	13415.7	0.020072	0.022655	1392.81	81433.2
241	2.000000	1.264305	7.36741e+06	-50689.1	955.82	-29755	0.000000	0.000000	7.265810	35.7335	NaN	0.000000	0.001641	0.001687	28.0811	25.8814	0.001772	14606.2	9.406847	-1.995888	34.3536	1.264027	0.024302	0.024024	35.7335	14606.2	0.022467	0.026568	1344.97	81870.7
241	2.000000	1.266821	7.36741e+06	-50689.1	955.82	-29755	0.000000	0.000000	7.268733	45.6214	NaN	0.000000	0.001677	0.001689	28.0811	28.2431	0.001739	16240.8	3.453361	-177.335	44.6778	1.266515	0.026818	0.026512	45.6214	16240.8	0.024711	0.030492	1496.17	84974.2
241	2.000000	1.269320	7.36741e+06	-50689.1	955.821	-29755	0.000000	0.000000	7.271492	51.9411	NaN	0.000000	0.001631	0.001720	28.0812	31.4319	0.001877	16744.5	8.498241	-0.939531	50.2387	1.268911	0.029317	0.028908	51.9411	16744.5	0.026991	0.034737	1495.28	82082.5
241	2.000000	1.271812	7.36741e+06	-50689.1	955.819	-29755	0.000000	0.000000	7.274317	60.0391	NaN	0.000000	0.001653	0.001710	28.0816	33.7482	0.001741	19381.7	7.821850	177.097	59.7868	1.271455	0.031810	0.031452	60.0391	19381.7	0.029486	0.039686	1512.85	88888.7
241	2.000000	1.274319	7.36741e+06	-50689.1	955.819	-29755	0.000000	0.000000	7.277165	68.3423	NaN	0.000000	0.001616	0.001681	28.0811	36.3201	0.001911	19010.7	7.087508	-2.206585	68.5561	1.274030	0.034316	0.034028	68.3423	19010.7	0.031620	0.044169	1547.31	82644.8
241	2.000000	1.276749	7.36741e+06	-50689.1	955.819	-29755	0.000000	0.000000	7.279862	74.842	NaN	0.000000	0.001655	0.001700	28.0811	38.147	0.001740	21923.7	5.186942	178.371	73.4511	1.276479	0.036746	0.036476	74.842	21923.7	0.034186	0.049867	1500.85	89697.9
241	2.000000	1.279249	7.36741e+06	-50689.1	955.82	-29755	0.000000	0.000000	7.282973	89.7037	NaN	0.000000	0.001676	0.001686	28.0812	39.7801	0.001724	23072.7	5.680364	-1.484487	87.1182	1.278850	0.039246	0.038847	89.7037	23072.7	0.036330	0.054888	1634.31	89977.5
241	2.000000	1.281779	7.36741e+06	-50689.1	955.82	-29755	0.000000	0.000000	7.285962	100.842	NaN	0.000000	0.001626	0.001697	28.0813	41.8574	0.001771	23629.9	4.651517	-179.979	100.658	1.281404	0.041776	0.041401	100.842	23629.9	0.038576	0.060399	1669.6	87845.6
241	2.000000	1.284222	7.36741e+06	-50689.1	955.82	-29755	0.000000	0.000000	7.288823	111.019	NaN	0.000000	0.001597	0.001708	28.0808	46.6195	0.001671	27896.5	9.529164	-7.872409	107.701	1.283898	0.044219	0.043895	111.019	27896.5	0.041234	0.067257	1650.68	98277.6
241	2.000000	1.286785	7.36741e+06	-50689.1	955.82	-29755	0.000000	0.000000	7.291675	118.023	NaN	0.000000	0.001555	0.001734	28.0809	48.4347	0.001812	26732.3	0.755754	-178.561	116.042	1.286605	0.046783	0.046602	118.023	26732.3	0.043471	0.073307	1609.98	90206.4
241	2.000000	1.289265	7.36741e+06	-50689.1	955.819	-29755	0.000000	0.000000	7.294786	133.38	NaN	0.000000	0.001634	0.001714	28.0811	51.3004	0.001824	28130.8	5.130894	-3.296653	131.479	1.288965	0.049263	0.048963	133.38	28130.8	0.045707	0.079606	1675.51	91092.4
241	2.000000	1.291791	7.36741e+06	-50689.1	955.818	-29755	0.000000	0.000000	7.297899	147.653	NaN	0.000000	0.001611	0.001701	28.08	53.0365	0.001694	31314	3.592939	177.432	147.187	1.291469	0.051789	0.051467	147.653	31314	0.048252	0.087088	1695.46	96946.7
241	2.000000	1.294263	7.36741e+06	-50689.1	955.818	-29755	0.000000	0.000000	7.301048	164.118	NaN	0.000000	0.001580	0.001707	28.0796	56.1829	0.001782	31534.4	6.052982	-4.765257	162.601	1.293863	0.054260	0.053860	164.118	31534.4	0.050357	0.093519	1754.92	94212.3
241	2.000000	1.296743	7.36741e+06	-50689.1	955.818	-29755	0.000000	0.000000	7.304082	177.606	NaN	0.000000	0.001600	0.001724	28.0797	59.265	0.001775	33388.2	4.637974	175.074	174.646	1.296454	0.056740	0.056451	177.606	33388.2	0.052750	0.101103	1756.67	95936.4
241	2.000000	1.299239	7.36741e+06	-50689.1	955.818	-29755	0.000000	0.000000	7.307246	193.852	NaN	0.000000	0.001598	0.001722	28.0798	60.0249	0.001783	33658.2	2.977151	-2.543129	190.208	1.298875	0.059236	0.058872	193.852	33658.2	0.054917	0.108213	1791.39	93481.2
241	2.000000	1.301735	7.36741e+06	-50689.1	955.818	-29755	0.000000	0.000000	7.310457	211.245	NaN	0.000000	0.001624	0.001723	28.0799	60.9539	0.001765	34530.5	2.936006	176.959	209.805	1.301371	0.061732	0.061369	211.245	34530.5	0.057144	0.115765	1824.77	92722.9
241	2.000000	1.304210	7.36741e+06	-50689.1	955.818	-29755	0.000000	0.000000	7.313512	225.341	NaN	0.000000	0.001622	0.001707	28.0798	63.7197	0.001786	35681.9	1.149536	-1.285478	222.53	1.303952	0.064207	0.063949	225.341	35681.9	0.059471	0.123917	1818.48	92609.6
241	2.000000	1.306734	7.36741e+06	-50689.1	955.819	-29755	0.000000	0.000000	7.316705	241.602	NaN	0.000000	0.001634	0.001747	28.0798	67.6274	0.001812	37329.1	6.802509	172.429	238.347	1.306401	0.066731	0.066398	241.602	37329.1	0.061877	0.132624	1821.7	93650.4
241	2.000000	1.309272	7.36741e+06	-50689.1	955.819	-29755	0.000000	0.000000	7.319868	256.79	NaN	0.000000	0.001571	0.001675	28.0799	68.7293	0.001719	39992.1	1.951600	-2.313640	254.226	1.308914	0.069269	0.068911	256.79	39992.1	0.064454	0.142261	1805.06	96873.2
241	2.000000	1.311732	7.36741e+06	-50689.1	955.818	-29755	0.000000	0.000000	7.322955	272.036	NaN	0.000000	0.001609	0.001714	28.0799	72.6153	0.001753	41413.2	6.085932	172.762	271.063	1.311401	0.071730	0.071399	272.036	41413.2	0.066803	0.151326	1797.68	97264.6
241	2.000000	1.314144	7.36741e+06	-50689.1	955.82	-29755	0.000000	0.000000	7.326151	291.118	NaN	0.000000	0.001613	0.001702	28.0798	74.5342	0.001868	39896.2	1.437404	-2.032525	284.07	1.313837	0.074141	0.073834	291.118	39896.2	0.068668	0.158713	1834.25	91495.5
241	2.000000	1.316705	7.36741e+06	-50689.1	955.82	-29755	0.000000	0.000000	7.329235	303.828	NaN	0.000000	0.001639	0.001701	28.0798	76.7694	0.001747	43938.9	2.272290	175.449	300.435	1.316591	0.076703	0.076588	303.828	43938.9	0.071517	0.170312	1783.95	97274.7
241	2.000000	1.319207	7.36741e+06	-50689.1	955.82	-29755	0.000000	0.000000	7.332667	326.438	NaN	0.000000	0.001582	0.001699	28.0802	78.7	0.001782	44165.1	3.891851	-5.280363	321.628	1.318856	0.079204	0.078853	326.438	44165.1	0.073661	0.179298	1820.65	95294
241	2.000000	1.321664	7.36741e+06	-50689.1	955.819	-29755	0.000000	0.000000	7.335904	345.41	NaN	0.000000	0.001604	0.001674	28.0802	81.1988	0.001815	44734.3	3.701175	174.289	343.108	1.321374	0.081661	0.081372	345.41	44734.3	0.075870	0.188784	1829.66	94065.8
241	2.000000	1.324249	7.36741e+06	-50689.1	955.819	-29755	0.000000	0.000000	7.339189	362.415	NaN	0.000000	0.001557	0.001702	28.08	84.4542	0.001718	49165.2	5.791935	-8.128751	362.641	1.323742	0.084247	0.083739	362.415	49165.2	0.078718	0.201349	1799.93	100105
241	2.000000	1.326623	7.36741e+06	-50689.1	955.82	-29755	0.000000	0.000000	7.342295	380.222	NaN	0.000000	0.001649	0.001676	28.0814	87.5624	0.001641	53355.7	3.355657	173.437	373.85	1.326383	0.086621	0.086380	380.222	53355.7	0.081276	0.212957	1785.44	105635
241	2.000000	1.329198	7.36741e+06	-50689.1	955.82	-29755	0.000000	0.000000	7.345653	399.27	NaN	0.000000	0.001624	0.001695	28.0814	89.7847	0.001804	49781.5	3.792680	-6.547702	393.643	1.328921	0.089195	0.088918	399.27	49781.5	0.083180	0.221796	1800.17	96574.9
241	2.000000	1.331708	7.36741e+06	-50689.1	955.818	-29755	0.000000	0.000000	7.349296	426.831	NaN	0.000000	0.001559	0.001701	28.0813	92.2209	0.001827	50488.2	3.197088	174.154	424.17	1.331346	0.091705	0.091343	426.831	50488.2	0.085364	0.232143	1838.65	95738.2
241	2.000000	1.334124	7.36741e+06	-50689.1	955.819	-29755	0.000000	0.000000	7.352711	451.118	NaN	0.000000	0.001602	0.001706	28.0812	94.947	0.001719	55222.4	4.196256	-7.096906	445.67	1.333695	0.094121	0.093692	451.118	55222.4	0.087994	0.244891	1842.12	101953
241	2.000000	1.336713	7.36741e+06	-50689.1	955.819	-29755	0.000000	0.000000	7.356217	473.414	NaN	0.000000	0.001605	0.001688	28.0819	98.718	0.001801	54826.4	6.613664	170.125	474.005	1.336421	0.096710	0.096419	473.414	54826.4	0.090234	0.256003	1849.25	99001.2
241	2.000000	1.339162	7.36741e+06	-50689.1	955.82	-29755	0.000000	0.000000	7.359700	498.574	NaN	0.000000	0.001636	0.001718	28.0813	100.052	0.001774	56404.4	7.252144	-10.0791	492.89	1.338701	0.099159	0.098698	498.574	56404.4	0.092530	0.267625	1862.96	99614.6
241	2.000000	1.341717	7.36741e+06	-50689.1	955.82	-29755	0.000000	0.000000	7.362725	510.008	NaN	0.000000	0.001665	0.001695	28.0815	102.119	0.001740	58686.4	5.566741	170.665	509.849	1.341444	0.101714	0.101441	510.008	58686.4	0.095196	0.281431	1812.2	101071
241	2.000000	1.344078	7.36741e+06	-50689.1	955.819	-29755	0.000000	0.000000	7.366280	539.044	NaN	0.000000	0.001648	0.001712	28.0812	105.377	0.001818	57964.4	5.927208	-9.486501	530.507	1.343730	0.104075	0.103727	539.044	57964.4	0.097100	0.291488	1849.29	98089.9
241	2.000000	1.346549	7.36741e+06	-50689.1	955.818	-29755	0.000000	0.000000	7.369832	565.309	NaN	0.000000	0.001627	0.001713	28.0815	107.4	0.001847	58139.9	3.919191	172.885	557.422	1.346333	0.106546	0.106330	565.309	58139.9	0.099254	0.303060	1865.33	96490.1