File: remote_trans/data/nanoindenter/0828-1/data/Data_2025-08-06,11h17m57s/2025-07-22_16-23-58_1_381.txt
2025-07-22, 16:23:58, 1
Index	Phase	Displacement	Time	Pos X	Pos Y	Pos Z	Rot A	Rot B	Piezo Z	Force A	Force B	Gripper	Voltage A	Voltage B	Temperature	Amplitude force	Amplitude pos	Stiffness	Phase shift	Phase excitation	Force A raw	Displacement raw	HMax	HMax raw	Real Force	Real Stiffness	Contact Depth	Area	Hardness	Reduced Mod.
[#]	[#]	[um]	[s]	[um]	[um]	[um]	[m°]	[m°]	[um]	[uN]	[uN]	[V]	[V]	[V]	[°C]	[uN]	[um]	[N/m]	[°]	[°]	[uN]	[um]	[um]	[um]	[uN]	[N/m]	[um]	[um^2]	[MPa]	[MPa]
381	1.000000	0.002740	7.36879e+06	-57689.1	955.82	-29736.9	0.000000	0.000000	6.002811	0.041790	NaN	0.000000	0.001604	0.001731	28.0799	0.132838	0.000950	139.776	29.1678	-161.155	0.042313	0.001504	-0.994884	-0.996120	0.041790	139.776	-0.995109	-1.949429E+13	-2.143708E-15	NaN
381	1.000000	0.010708	7.36879e+06	-57689.1	955.819	-29736.9	0.000000	0.000000	6.010781	0.088722	NaN	0.000000	0.001678	0.001731	28.0795	0.030698	0.000913	33.6325	145.005	-163.933	0.141156	0.009359	-0.986916	-0.988265	0.088722	33.6325	-0.988895	-1.607784E+13	-5.518308E-15	NaN
381	1.000000	0.018700	7.36879e+06	-57689.1	955.818	-29736.9	0.000000	0.000000	6.018772	0.047464	NaN	0.000000	0.001650	0.001731	28.0796	0.114971	0.001699	67.6502	-100.933	-169.136	0.148346	0.017342	-0.978924	-0.980282	0.047464	67.6502	-0.979450	-1.199499E+13	-3.956954E-15	NaN
381	1.000000	0.026742	7.36879e+06	-57689.1	955.82	-29736.9	0.000000	0.000000	6.026813	0.040368	NaN	0.000000	0.001610	0.001723	28.08	0.107250	0.001872	57.3069	23.2891	-167.162	0.046098	0.025434	-0.970882	-0.972190	0.040368	57.3069	-0.971411	-9.347075E+12	-4.318758E-15	NaN
381	1.000000	0.034673	7.36879e+06	-57689.1	955.82	-29736.9	0.000000	0.000000	6.034743	0.002300	NaN	0.000000	0.001603	0.001710	28.0797	0.024825	0.001971	12.5976	-125.325	-164.811	0.060058	0.033378	-0.962951	-0.964246	0.002300	12.5976	-0.963088	-7.219330E+12	-3.186487E-16	NaN
381	1.000000	0.042697	7.36879e+06	-57689.1	955.819	-29736.9	0.000000	0.000000	6.042768	0.040626	NaN	0.000000	0.001593	0.001761	28.0802	0.004338	0.002077	2.088642	-26.7103	-165.193	0.101239	0.041429	-0.954927	-0.956195	0.040626	2.088642	-0.969515	-8.812995E+12	-4.609739E-15	NaN
381	1.000000	0.050655	7.36879e+06	-57689.1	955.819	-29736.9	0.000000	0.000000	6.050724	-0.006272	NaN	0.000000	0.001632	0.001735	28.0796	0.124673	0.002006	62.1529	-144.437	-167.36	0.007405	0.049333	-0.946969	-0.948291	-0.006272	62.1529	-0.946893	-4.366414E+12	1.436369E-15	NaN
381	1.000000	0.058662	7.36879e+06	-57689.1	955.818	-29736.9	0.000000	0.000000	6.058735	0.095485	NaN	0.000000	0.001646	0.001733	28.0797	0.022340	0.001898	11.7705	8.339354	-164.771	0.089616	0.057383	-0.938963	-0.940241	0.095485	11.7705	-0.945047	-4.123054E+12	-2.315885E-14	NaN
381	1.000000	0.066695	7.36879e+06	-57689.1	955.819	-29736.9	0.000000	0.000000	6.066767	0.051013	NaN	0.000000	0.001548	0.001693	28.0799	0.058325	0.002012	28.9917	-17.4319	-166.007	0.019627	0.065331	-0.930929	-0.932293	0.051013	28.9917	-0.932249	-2.770419E+12	-1.841353E-14	NaN
381	1.000000	0.074672	7.36879e+06	-57689.1	955.819	-29736.9	0.000000	0.000000	6.074741	0.012994	NaN	0.000000	0.001568	0.001688	28.0795	0.023396	0.002095	11.1658	-166.075	-166.371	0.022659	0.073431	-0.922953	-0.924193	0.012994	11.1658	-0.923825	-2.132311E+12	-6.093715E-15	NaN
381	1.000000	0.082687	7.36879e+06	-57689.1	955.819	-29736.9	0.000000	0.000000	6.082758	0.032724	NaN	0.000000	0.001602	0.001749	28.0801	0.024656	0.001826	13.5045	68.8654	-168.545	-0.053701	0.081330	-0.914937	-0.916294	0.032724	13.5045	-0.916754	-1.711502E+12	-1.912016E-14	NaN
381	1.000000	0.090704	7.36879e+06	-57689.1	955.819	-29736.9	0.000000	0.000000	6.090774	0.017193	NaN	0.000000	0.001601	0.001740	28.0794	0.095587	0.002029	47.1045	123.184	-165.093	0.059958	0.089384	-0.906920	-0.908240	0.017193	47.1045	-0.907194	-1.271341E+12	-1.352313E-14	NaN
381	1.000000	0.098700	7.36879e+06	-57689.1	955.818	-29736.9	0.000000	0.000000	6.098771	0.060314	NaN	0.000000	0.001598	0.001747	28.0795	0.048373	0.001993	24.2738	143.209	-170.885	-0.006974	0.097399	-0.898924	-0.900225	0.060314	24.2738	-0.900788	-1.041632E+12	-5.790374E-14	NaN
381	1.000000	0.106687	7.36879e+06	-57689.1	955.818	-29736.9	0.000000	0.000000	6.106761	0.134371	NaN	0.000000	0.001606	0.001738	28.0795	0.059700	0.002026	29.4644	137.808	-163.432	0.121789	0.105400	-0.890938	-0.892224	0.134371	29.4644	-0.894358	-8.527453E+11	-1.575749E-13	NaN
381	1.000000	0.114693	7.36879e+06	-57689.1	955.819	-29736.9	0.000000	0.000000	6.114764	0.049338	NaN	0.000000	0.001608	0.001715	28.0795	0.109797	0.002035	53.9645	122.295	-166.477	-0.051047	0.113423	-0.882931	-0.884201	0.049338	53.9645	-0.883617	-6.104060E+11	-8.082788E-14	NaN
381	1.000000	0.122735	7.36879e+06	-57689.1	955.819	-29736.9	0.000000	0.000000	6.122807	0.051804	NaN	0.000000	0.001632	0.001757	28.0794	0.016240	0.002108	7.702361	-112.552	-166.975	0.041821	0.121416	-0.874889	-0.876208	0.051804	7.702361	-0.879933	-5.442540E+11	-9.518332E-14	NaN
381	1.000000	0.130702	7.36879e+06	-57689.1	955.819	-29736.9	0.000000	0.000000	6.130773	0.044952	NaN	0.000000	0.001636	0.001762	28.078	0.031186	0.002171	14.3663	157.535	-166.839	-0.027657	0.129397	-0.866922	-0.868227	0.044952	14.3663	-0.869269	-3.904370E+11	-1.151330E-13	NaN
381	1.000000	0.138683	7.36879e+06	-57689.1	955.818	-29736.9	0.000000	0.000000	6.138755	0.058171	NaN	0.000000	0.001648	0.001733	28.0784	0.044171	0.001963	22.5028	-49.8447	-168.561	0.040351	0.137390	-0.858941	-0.860234	0.058171	22.5028	-0.860880	-3.006286E+11	-1.934969E-13	NaN
381	1.000000	0.146721	7.36879e+06	-57689.1	955.818	-29736.9	0.000000	0.000000	6.146791	0.017530	NaN	0.000000	0.001604	0.001723	28.0783	0.056250	0.002098	26.8062	-96.7417	-170.315	-0.020069	0.145430	-0.850904	-0.852194	0.017530	26.8062	-0.851394	-2.236733E+11	-7.837200E-14	NaN
381	1.000000	0.154729	7.36879e+06	-57689.1	955.818	-29736.9	0.000000	0.000000	6.154797	-0.022997	NaN	0.000000	0.001608	0.001713	28.0782	0.024423	0.001972	12.3845	29.9858	-165.379	-0.032485	0.153416	-0.842895	-0.844208	-0.022997	12.3845	-0.841502	-1.643030E+11	1.399649E-13	NaN
381	1.000000	0.162713	7.36879e+06	-57689.1	955.819	-29736.9	0.000000	0.000000	6.162782	-0.005789	NaN	0.000000	0.001637	0.001721	28.0783	0.041971	0.001967	21.3395	75.3341	-168.652	0.009274	0.161388	-0.834911	-0.836236	-0.005789	21.3395	-0.834708	-1.329192E+11	4.355597E-14	NaN
381	1.000000	0.170687	7.36879e+06	-57689.1	955.818	-29736.9	0.000000	0.000000	6.170757	0.027613	NaN	0.000000	0.001628	0.001726	28.0783	0.044928	0.002024	22.1998	162.23	-164.335	0.087259	0.169439	-0.826937	-0.828185	0.027613	22.1998	-0.827870	-1.073780E+11	-2.571579E-13	NaN
381	1.000000	0.178747	7.36879e+06	-57689.1	955.818	-29736.9	0.000000	0.000000	6.178820	0.107103	NaN	0.000000	0.001632	0.001734	28.0786	0.040044	0.002136	18.7462	6.613652	-167.427	0.000103	0.177436	-0.818878	-0.820188	0.107103	18.7462	-0.823163	-9.270315E+10	-1.155337E-12	NaN
381	1.000000	0.186729	7.36879e+06	-57689.1	955.818	-29736.9	0.000000	0.000000	6.186799	0.027899	NaN	0.000000	0.001609	0.001751	28.0786	0.014956	0.002178	6.865210	38.5621	-164.505	-0.010248	0.185408	-0.810895	-0.812216	0.027899	6.865210	-0.813943	-6.951309E+10	-4.013508E-13	NaN
381	1.000000	0.194729	7.36879e+06	-57689.1	955.819	-29736.9	0.000000	0.000000	6.194798	-0.013554	NaN	0.000000	0.001631	0.001764	28.0784	0.136146	0.001969	69.1374	59.3695	-167.369	0.053108	0.193441	-0.802895	-0.804183	-0.013554	69.1374	-0.802748	-4.899597E+10	2.766400E-13	NaN
381	1.000000	0.202740	7.36879e+06	-57689.1	955.819	-29736.9	0.000000	0.000000	6.202810	0.017446	NaN	0.000000	0.001643	0.001739	28.0783	0.212670	0.002092	101.643	118.63	-164.01	-0.009258	0.201391	-0.794884	-0.796233	0.017446	101.643	-0.795012	-3.847252E+10	-4.534679E-13	NaN
381	1.000000	0.210743	7.36879e+06	-57689.1	955.819	-29736.9	0.000000	0.000000	6.210814	0.050038	NaN	0.000000	0.001611	0.001733	28.0784	0.010090	0.002075	4.862921	-97.3841	-167.598	0.003904	0.209486	-0.786881	-0.788138	0.050038	4.862921	-0.794598	-3.797764E+10	-1.317561E-12	NaN
381	1.000000	0.218748	7.36879e+06	-57689.1	955.819	-29736.9	0.000000	0.000000	6.218818	0.030192	NaN	0.000000	0.001664	0.001724	28.0786	0.075821	0.002036	37.2426	24.5892	-164.307	0.096198	0.217425	-0.778876	-0.780199	0.030192	37.2426	-0.779484	-2.367139E+10	-1.275461E-12	NaN
381	1.000000	0.226752	7.36879e+06	-57689.1	955.818	-29736.9	0.000000	0.000000	6.226821	-0.003202	NaN	0.000000	0.001660	0.001732	28.0784	0.085452	0.001974	43.2879	-42.4042	-165.772	0.038425	0.225440	-0.770872	-0.772184	-0.003202	43.2879	-0.770816	-1.804698E+10	1.774355E-13	NaN
381	1.000000	0.234748	7.36879e+06	-57689.1	955.818	-29736.9	0.000000	0.000000	6.234821	0.073190	NaN	0.000000	0.001690	0.001712	28.0784	0.053289	0.001998	26.6742	85.7402	-165.852	-0.035386	0.233437	-0.762876	-0.764187	0.073190	26.6742	-0.764934	-1.501104E+10	-4.875758E-12	NaN
381	1.000000	0.242772	7.36879e+06	-57689.1	955.819	-29736.9	0.000000	0.000000	6.242843	0.032746	NaN	0.000000	0.001695	0.001746	28.0783	0.029299	0.002003	14.6292	40.9677	-166.171	0.042075	0.241435	-0.754852	-0.756189	0.032746	14.6292	-0.756531	-1.153725E+10	-2.838323E-12	NaN
381	1.000000	0.250776	7.36879e+06	-57689.1	955.819	-29736.9	0.000000	0.000000	6.250850	0.110444	NaN	0.000000	0.001670	0.001747	28.0783	0.063101	0.001975	31.9558	128.9	-168.497	0.120596	0.249479	-0.746848	-0.748145	0.110444	31.9558	-0.749440	-9.238325E+9	-1.195501E-11	NaN
381	1.000000	0.258764	7.36879e+06	-57689.1	955.819	-29736.9	0.000000	0.000000	6.258833	0.000108	NaN	0.000000	0.001614	0.001744	28.0784	0.038301	0.001953	19.6125	140.076	-165.899	0.013552	0.257440	-0.738860	-0.740184	0.000108	19.6125	-0.738864	-6.631111E+9	-1.635146E-14	NaN
381	1.000000	0.266771	7.36879e+06	-57689.1	955.818	-29736.9	0.000000	0.000000	6.266840	0.008048	NaN	0.000000	0.001608	0.001732	28.0795	0.046978	0.001907	24.634	-130.756	-163.064	-0.022958	0.265443	-0.730853	-0.732182	0.008048	24.634	-0.731098	-5.197296E+9	-1.548589E-12	NaN
381	1.000000	0.274775	7.36879e+06	-57689.1	955.819	-29736.9	0.000000	0.000000	6.274847	0.067586	NaN	0.000000	0.001631	0.001693	28.0797	0.077484	0.002092	37.0416	94.8855	-164.7	0.070989	0.273486	-0.722849	-0.724138	0.067586	37.0416	-0.724217	-4.187735E+9	-1.613911E-11	NaN
381	1.000000	0.282794	7.36879e+06	-57689.1	955.818	-29736.9	0.000000	0.000000	6.282869	0.115613	NaN	0.000000	0.001596	0.001747	28.0796	0.051544	0.001995	25.8354	71.0783	-166.563	0.134573	0.281453	-0.714830	-0.716171	0.115613	25.8354	-0.718186	-3.465223E+9	-3.336387E-11	NaN
381	1.000000	0.290805	7.36879e+06	-57689.1	955.819	-29736.9	0.000000	0.000000	6.290875	0.024553	NaN	0.000000	0.001573	0.001748	28.0797	0.140818	0.001986	70.892	127.059	-165.466	-0.006841	0.289470	-0.706819	-0.708154	0.024553	70.892	-0.707079	-2.444433E+9	-1.004434E-11	NaN
381	1.000000	0.298781	7.36879e+06	-57689.1	955.817	-29736.9	0.000000	0.000000	6.298850	0.012420	NaN	0.000000	0.001591	0.001738	28.0797	0.084858	0.002000	42.4217	-46.1472	-166.999	0.020181	0.297492	-0.698844	-0.700132	0.012420	42.4217	-0.699063	-1.899926E+9	-6.537108E-12	NaN
381	1.000000	0.306767	7.36879e+06	-57689.1	955.817	-29736.9	0.000000	0.000000	6.306841	0.097458	NaN	0.000000	0.001586	0.001751	28.0798	0.041007	0.002129	19.2567	-67.7516	-166.022	0.004141	0.305490	-0.690857	-0.692134	0.097458	19.2567	-0.694653	-1.653832E+9	-5.892879E-11	NaN
381	1.000000	0.314787	7.36879e+06	-57689.1	955.819	-29736.9	0.000000	0.000000	6.314861	0.111803	NaN	0.000000	0.001602	0.001726	28.0798	0.057352	0.002125	26.9909	83.3551	-165.602	0.116467	0.313504	-0.682837	-0.684120	0.111803	26.9909	-0.685943	-1.257397E+9	-8.891609E-11	NaN
381	1.000000	0.322779	7.36879e+06	-57689.1	955.819	-29736.9	0.000000	0.000000	6.322853	0.105317	NaN	0.000000	0.001629	0.001673	28.0797	0.071629	0.002085	34.3493	167.081	-161.813	0.089267	0.321492	-0.674845	-0.676132	0.105317	34.3493	-0.677144	-9.531142E+8	-1.104976E-10	NaN
381	1.000000	0.330791	7.36879e+06	-57689.1	955.819	-29736.9	0.000000	0.000000	6.330862	0.044086	NaN	0.000000	0.001605	0.001721	28.0802	0.071438	0.002066	34.5743	-70.2292	-167.147	0.037876	0.329493	-0.666834	-0.668131	0.044086	34.5743	-0.667790	-7.098038E+8	-6.210944E-11	NaN
381	1.000000	0.338807	7.36879e+06	-57689.1	955.819	-29736.9	0.000000	0.000000	6.338878	0.031255	NaN	0.000000	0.001615	0.001675	28.0797	0.037597	0.002006	18.7421	128.964	-167.075	0.023612	0.337478	-0.658817	-0.660146	0.031255	18.7421	-0.660067	-5.564069E+8	-5.617377E-11	NaN
381	1.000000	0.346780	7.36879e+06	-57689.1	955.819	-29736.9	0.000000	0.000000	6.346850	0.031036	NaN	0.000000	0.001622	0.001713	28.0798	0.087789	0.002050	42.8343	55.4922	-165.545	0.115504	0.345524	-0.650844	-0.652100	0.031036	42.8343	-0.651388	-4.231165E+8	-7.335203E-11	NaN
381	1.000000	0.354805	7.36879e+06	-57689.1	955.818	-29736.9	0.000000	0.000000	6.354873	-0.028814	NaN	0.000000	0.001615	0.001703	28.0796	0.105538	0.001947	54.1979	-167.867	-164.991	-0.077015	0.353479	-0.642819	-0.644145	-0.028814	54.1979	-0.642420	-3.187831E+8	9.038753E-11	NaN
381	1.000000	0.362801	7.36879e+06	-57689.1	955.818	-29736.9	0.000000	0.000000	6.362871	0.013642	NaN	0.000000	0.001618	0.001687	28.0795	0.117577	0.001916	61.3523	-59.6536	-166.906	0.065611	0.361489	-0.634823	-0.636135	0.013642	61.3523	-0.634990	-2.520746E+8	-5.412070E-11	NaN
381	1.000000	0.370813	7.36879e+06	-57689.1	955.818	-29736.9	0.000000	0.000000	6.370886	0.081085	NaN	0.000000	0.001634	0.001664	28.0798	0.067913	0.001964	34.5714	160.588	-165.556	0.065904	0.369503	-0.626811	-0.628121	0.081085	34.5714	-0.628570	-2.057718E+8	-3.940530E-10	NaN
381	1.000000	0.378830	7.36879e+06	-57689.1	955.819	-29736.9	0.000000	0.000000	6.378901	0.043558	NaN	0.000000	0.001636	0.001693	28.0795	0.078671	0.002133	36.8803	119.343	-167.704	0.088400	0.377531	-0.618794	-0.620093	0.043558	36.8803	-0.619680	-1.553210E+8	-2.804389E-10	NaN
381	1.000000	0.386805	7.36879e+06	-57689.1	955.819	-29736.9	0.000000	0.000000	6.386875	0.004394	NaN	0.000000	0.001632	0.001725	28.0796	0.037500	0.001881	19.9313	-34.8958	-164.61	0.069708	0.385480	-0.610819	-0.612145	0.004394	19.9313	-0.610984	-1.179379E+8	-3.725313E-11	NaN
381	1.000000	0.394824	7.36879e+06	-57689.1	955.819	-29736.9	0.000000	0.000000	6.394895	0.037692	NaN	0.000000	0.001645	0.001696	28.0797	0.070416	0.001972	35.6994	141.825	-170.614	0.058121	0.393522	-0.602800	-0.604102	0.037692	35.6994	-0.603592	-9.330941E+7	-4.039497E-10	NaN
381	1.000000	0.402836	7.36879e+06	-57689.1	955.819	-29736.9	0.000000	0.000000	6.402907	0.043367	NaN	0.000000	0.001727	0.001681	28.0784	0.048812	0.002017	24.2056	-163.627	-165.367	0.004778	0.401537	-0.594788	-0.596087	0.043367	24.2056	-0.596132	-7.365034E+7	-5.888192E-10	NaN
381	1.000000	0.410820	7.36879e+06	-57689.1	955.819	-29736.9	0.000000	0.000000	6.410891	0.038497	NaN	0.000000	0.001700	0.001691	28.0787	0.142056	0.002136	66.515	63.4638	-167.432	0.031235	0.409566	-0.586804	-0.588058	0.038497	66.515	-0.587238	-5.553726E+7	-6.931666E-10	NaN
381	1.000000	0.418832	7.36879e+06	-57689.1	955.819	-29736.9	0.000000	0.000000	6.418902	0.028231	NaN	0.000000	0.001692	0.001659	28.0783	0.055978	0.002099	26.6685	-10.01	-168.271	0.019270	0.417533	-0.578792	-0.580091	0.028231	26.6685	-0.579586	-4.355254E+7	-6.482134E-10	NaN
381	1.000000	0.426836	7.36879e+06	-57689.1	955.819	-29736.9	0.000000	0.000000	6.426908	0.056054	NaN	0.000000	0.001723	0.001668	28.0786	0.012259	0.002050	5.980850	106.973	-166.657	0.088176	0.425539	-0.570788	-0.572085	0.056054	5.980850	-0.577817	-4.117176E+7	-1.361475E-9	NaN
381	1.000000	0.434848	7.36879e+06	-57689.1	955.819	-29736.9	0.000000	0.000000	6.434920	0.046960	NaN	0.000000	0.001693	0.001692	28.0784	0.037117	0.001938	19.1524	-135.356	-169.98	-0.000647	0.433587	-0.562776	-0.564037	0.046960	19.1524	-0.564615	-2.705185E+7	-1.735932E-9	NaN
381	1.000000	0.442848	7.36879e+06	-57689.1	955.819	-29736.9	0.000000	0.000000	6.442918	0.018413	NaN	0.000000	0.001739	0.001672	28.0783	0.029073	0.001947	14.9316	-29.0313	-164.599	0.008998	0.441575	-0.554776	-0.556049	0.018413	14.9316	-0.555701	-2.036535E+7	-9.041416E-10	NaN
381	1.000000	0.450849	7.36879e+06	-57689.1	955.819	-29736.9	0.000000	0.000000	6.450921	0.051297	NaN	0.000000	0.001727	0.001703	28.0784	0.035655	0.001999	17.8373	-85.5927	-167.758	0.029661	0.449531	-0.546775	-0.548093	0.051297	17.8373	-0.548931	-1.641175E+7	-3.125621E-9	NaN
381	1.000000	0.458854	7.36879e+06	-57689.1	955.818	-29736.9	0.000000	0.000000	6.458924	0.031018	NaN	0.000000	0.001693	0.001733	28.0782	0.046771	0.001865	25.0745	91.8739	-169.896	-0.035893	0.457541	-0.538770	-0.540083	0.031018	25.0745	-0.539698	-1.222280E+7	-2.537757E-9	NaN
381	1.000000	0.466883	7.36879e+06	-57689.1	955.818	-29736.9	0.000000	0.000000	6.466953	0.011565	NaN	0.000000	0.001668	0.001755	28.0786	0.068218	0.002036	33.5022	-23.8783	-166.929	0.023953	0.465571	-0.530741	-0.532053	0.011565	33.5022	-0.531000	-9.25684e+06	-1.249334E-9	NaN
381	1.000000	0.474834	7.36879e+06	-57689.1	955.818	-29736.9	0.000000	0.000000	6.474905	0.037592	NaN	0.000000	0.001668	0.001696	28.0786	0.026501	0.001932	13.7178	-94.3934	-165.995	0.009565	0.473520	-0.522790	-0.524104	0.037592	13.7178	-0.524845	-7.60248e+06	-4.944672E-9	NaN
381	1.000000	0.482866	7.36879e+06	-57689.1	955.82	-29736.9	0.000000	0.000000	6.482940	0.115271	NaN	0.000000	0.001667	0.001715	28.0784	0.089018	0.001991	44.7041	101.922	-164.967	0.062437	0.481558	-0.514758	-0.516066	0.115271	44.7041	-0.516692	-5.85563e+06	-1.968551E-8	NaN
381	1.000000	0.490850	7.36879e+06	-57689.1	955.819	-29736.9	0.000000	0.000000	6.490920	0.039054	NaN	0.000000	0.001594	0.001683	28.0782	0.112469	0.001986	56.6196	-76.8549	-165.139	0.091739	0.489513	-0.506775	-0.508111	0.039054	56.6196	-0.507292	-4.33198e+06	-9.015235E-9	NaN
381	1.000000	0.498862	7.36879e+06	-57689.1	955.818	-29736.9	0.000000	0.000000	6.498935	0.069974	NaN	0.000000	0.001610	0.001681	28.0781	0.083596	0.002054	40.6985	-150.371	-164.658	0.039744	0.497567	-0.498762	-0.500057	0.069974	40.6985	-0.500051	-3.43347e+06	-2.037995E-8	NaN
381	1.000000	0.506873	7.36879e+06	-57689.1	955.818	-29736.9	0.000000	0.000000	6.506942	-0.024455	NaN	0.000000	0.001640	0.001702	28.0784	0.054885	0.001989	27.6009	23.7856	-166.152	-0.032004	0.505567	-0.490751	-0.492057	-0.024455	27.6009	-0.490086	-2.49229e+06	9.812177E-9	NaN
381	1.000000	0.514890	7.36879e+06	-57689.1	955.819	-29736.9	0.000000	0.000000	6.514962	0.073581	NaN	0.000000	0.001594	0.001675	28.0782	0.014351	0.001873	7.662276	-91.2781	-164.043	0.056697	0.513483	-0.482735	-0.484141	0.073581	7.662276	-0.489937	-2.48033e+06	-2.966586E-8	NaN
381	1.000000	0.522906	7.36879e+06	-57689.1	955.818	-29736.9	0.000000	0.000000	6.522976	0.016455	NaN	0.000000	0.001622	0.001689	28.0782	0.098980	0.002001	49.4626	114.577	-166.614	0.041761	0.521589	-0.474718	-0.476035	0.016455	49.4626	-0.474967	-1.53123e+06	-1.074653E-8	NaN
381	1.000000	0.530881	7.36879e+06	-57689.1	955.818	-29736.9	0.000000	0.000000	6.530954	0.090461	NaN	0.000000	0.001612	0.001714	28.0782	0.041038	0.002078	19.7483	95.2786	-167.08	0.201549	0.529627	-0.466743	-0.467997	0.090461	19.7483	-0.470179	-1.31195e+06	-6.895143E-8	NaN
381	1.000000	0.538885	7.36879e+06	-57689.1	955.818	-29736.9	0.000000	0.000000	6.538956	0.018824	NaN	0.000000	0.001626	0.001696	28.0795	0.098680	0.001999	49.3528	130.531	-164.957	-0.023294	0.537590	-0.458739	-0.460034	0.018824	49.3528	-0.459025	-914767	-2.057765E-8	NaN
381	1.000000	0.546876	7.36879e+06	-57689.1	955.819	-29736.9	0.000000	0.000000	6.546947	0.042438	NaN	0.000000	0.001618	0.001677	28.0797	0.029067	0.002062	14.0937	-78.5965	-162.454	-0.012527	0.545588	-0.450749	-0.452037	0.042438	14.0937	-0.453007	-752790	-5.637474E-8	NaN
381	1.000000	0.554892	7.36879e+06	-57689.1	955.819	-29736.9	0.000000	0.000000	6.554963	0.032091	NaN	0.000000	0.001620	0.001678	28.0794	0.016019	0.002156	7.431252	-95.8662	-168.274	-0.009875	0.553587	-0.442732	-0.444037	0.032091	7.431252	-0.445971	-599211	-5.355480E-8	NaN
381	1.000000	0.562918	7.36879e+06	-57689.1	955.819	-29736.9	0.000000	0.000000	6.562990	0.064179	NaN	0.000000	0.001630	0.001675	28.0797	0.122753	0.001966	62.4354	76.9423	-167.434	0.059736	0.561575	-0.434706	-0.436049	0.064179	62.4354	-0.435477	-426083	-1.506247E-7	NaN
381	1.000000	0.570910	7.36879e+06	-57689.1	955.819	-29736.9	0.000000	0.000000	6.570983	0.077147	NaN	0.000000	0.001588	0.001702	28.0796	0.095288	0.001968	48.416	-89.7396	-163.297	0.013574	0.569534	-0.426714	-0.428090	0.077147	48.416	-0.427909	-333020	-2.316582E-7	NaN
381	1.000000	0.578887	7.36879e+06	-57689.1	955.819	-29736.9	0.000000	0.000000	6.578956	-0.005454	NaN	0.000000	0.001640	0.001709	28.0798	0.053184	0.002059	25.8305	122.329	-168.156	0.102543	0.577612	-0.418737	-0.420013	-0.005454	25.8305	-0.418579	-245614	2.220590E-8	NaN
381	1.000000	0.586891	7.36879e+06	-57689.1	955.82	-29736.9	0.000000	0.000000	6.586960	0.007025	NaN	0.000000	0.001638	0.001695	28.0798	0.107860	0.002028	53.194	-125.786	-167.952	0.003384	0.585581	-0.410733	-0.412043	0.007025	53.194	-0.410832	-190650	-3.684577E-8	NaN
381	1.000000	0.594932	7.36879e+06	-57689.1	955.819	-29736.9	0.000000	0.000000	6.595003	0.032482	NaN	0.000000	0.001608	0.001651	28.0797	0.102109	0.002052	49.7687	91.9786	-164.401	0.063692	0.593659	-0.402692	-0.403965	0.032482	49.7687	-0.403182	-148371	-2.189254E-7	NaN
381	1.000000	0.602924	7.36879e+06	-57689.1	955.819	-29736.9	0.000000	0.000000	6.602993	-0.017949	NaN	0.000000	0.001622	0.001667	28.0799	0.132080	0.001907	69.2581	-34.1304	-165.674	-0.012352	0.601627	-0.394700	-0.395997	-0.017949	69.2581	-0.394506	-111577	1.608674E-7	NaN
381	1.000000	0.610925	7.36879e+06	-57689.1	955.819	-29736.9	0.000000	0.000000	6.610996	0.031985	NaN	0.000000	0.001624	0.001689	28.0796	0.021707	0.001883	11.5258	26.095	-169.258	-0.024671	0.609695	-0.386699	-0.387929	0.031985	11.5258	-0.388780	-92410	-3.461194E-7	NaN
381	1.000000	0.618903	7.36879e+06	-57689.1	955.819	-29736.9	0.000000	0.000000	6.618976	0.073051	NaN	0.000000	0.001609	0.001716	28.0797	0.019735	0.002082	9.480927	47.9896	-165.786	-0.004443	0.617552	-0.378721	-0.380072	0.073051	9.480927	-0.384500	-80244.8	-9.103551E-7	NaN
381	1.000000	0.626926	7.36879e+06	-57689.1	955.818	-29736.9	0.000000	0.000000	6.626993	-0.057827	NaN	0.000000	0.001640	0.001675	28.0798	0.046866	0.001997	23.4663	59.4645	-166.817	-0.049002	0.625563	-0.370698	-0.372061	-0.057827	23.4663	-0.368850	-47815.1	1.209387E-6	NaN
381	1.000000	0.634907	7.36879e+06	-57689.1	955.819	-29736.9	0.000000	0.000000	6.634976	-0.008316	NaN	0.000000	0.001637	0.001701	28.0796	0.035819	0.001914	18.7149	169.156	-166.068	-0.028086	0.633591	-0.362717	-0.364033	-0.008316	18.7149	-0.362384	-38573.8	2.155873E-7	NaN
381	1.000000	0.642940	7.36879e+06	-57689.1	955.819	-29736.9	0.000000	0.000000	6.643009	-0.009815	NaN	0.000000	0.001674	0.001711	28.0797	0.046994	0.001978	23.7548	128.918	-170.035	0.018674	0.641616	-0.354684	-0.356008	-0.009815	23.7548	-0.354374	-29541.3	3.322369E-7	NaN
381	1.000000	0.650913	7.36879e+06	-57689.1	955.819	-29736.9	0.000000	0.000000	6.650982	0.001759	NaN	0.000000	0.001599	0.001718	28.0794	0.048089	0.001897	25.3473	92.3904	-165.132	0.010849	0.649613	-0.346711	-0.348011	0.001759	25.3473	-0.346763	-22908.4	-7.678546E-8	NaN
381	1.000000	0.658952	7.36879e+06	-57689.1	955.819	-29736.9	0.000000	0.000000	6.659026	0.096685	NaN	0.000000	0.001639	0.001678	28.0794	0.099662	0.001864	53.4587	-114.308	-168.286	0.035606	0.657626	-0.338672	-0.339998	0.096685	53.4587	-0.340028	-18279.4	-5.289280E-6	NaN
381	1.000000	0.666907	7.36879e+06	-57689.1	955.818	-29736.9	0.000000	0.000000	6.666977	0.019836	NaN	0.000000	0.001662	0.001685	28.0794	0.120758	0.001946	62.0591	145.996	-167.404	0.046045	0.665563	-0.330717	-0.332061	0.019836	62.0591	-0.330957	-13472.9	-1.472297E-6	NaN
381	1.000000	0.674938	7.36879e+06	-57689.1	955.819	-29736.9	0.000000	0.000000	6.675005	-0.043312	NaN	0.000000	0.001643	0.001686	28.0781	0.096426	0.001868	51.6244	-77.6554	-165.401	0.043403	0.673647	-0.322686	-0.323977	-0.043312	51.6244	-0.322057	-9974.67	4.342210E-6	NaN
381	1.000000	0.682942	7.36879e+06	-57689.1	955.818	-29736.9	0.000000	0.000000	6.683010	-0.032975	NaN	0.000000	0.001630	0.001698	28.0792	0.096363	0.001895	50.8417	-112.019	-166.668	0.022081	0.681678	-0.314682	-0.315946	-0.032975	50.8417	-0.314196	-7639.66	4.316307E-6	NaN
381	1.000000	0.690953	7.36879e+06	-57689.1	955.819	-29736.9	0.000000	0.000000	6.691026	0.067983	NaN	0.000000	0.001665	0.001673	28.0782	0.077287	0.002159	35.8041	-109.934	-168.012	0.125500	0.689657	-0.306671	-0.307968	0.067983	35.8041	-0.308095	-6206.46	-1.095353E-5	NaN
381	1.000000	0.698960	7.36879e+06	-57689.1	955.819	-29736.9	0.000000	0.000000	6.699030	0.008658	NaN	0.000000	0.001658	0.001690	28.0783	0.038993	0.002120	18.3914	-115.245	-165.281	-0.042387	0.697630	-0.298664	-0.299994	0.008658	18.3914	-0.299017	-4549.86	-1.903015E-6	NaN
381	1.000000	0.706950	7.36879e+06	-57689.1	955.818	-29736.9	0.000000	0.000000	6.707023	0.081738	NaN	0.000000	0.001635	0.001708	28.0783	0.052976	0.001946	27.227	-122.223	-166.45	-0.011961	0.705622	-0.290674	-0.292002	0.081738	27.227	-0.292926	-3690.56	-2.214787E-5	NaN
381	1.000000	0.714956	7.36879e+06	-57689.1	955.818	-29736.9	0.000000	0.000000	6.715030	0.102898	NaN	0.000000	0.001579	0.001705	28.0781	0.037783	0.002054	18.3955	46.3029	-166.427	0.021460	0.713679	-0.282668	-0.283945	0.102898	18.3955	-0.286863	-2994.03	-3.436758E-5	NaN
381	1.000000	0.722945	7.36879e+06	-57689.1	955.819	-29736.9	0.000000	0.000000	6.723014	-0.001366	NaN	0.000000	0.001586	0.001715	28.0785	0.082530	0.002068	39.9054	-101.813	-168.546	0.114851	0.721642	-0.274679	-0.275982	-0.001366	39.9054	-0.274653	-1959.52	6.971834E-7	NaN
381	1.000000	0.730950	7.36879e+06	-57689.1	955.819	-29736.9	0.000000	0.000000	6.731023	0.087612	NaN	0.000000	0.001612	0.001745	28.0782	0.027783	0.001965	14.1355	88.9373	-167.066	0.051871	0.729647	-0.266674	-0.267977	0.087612	14.1355	-0.271323	-1744.39	-5.022511E-5	NaN
381	1.000000	0.738943	7.36879e+06	-57689.1	955.819	-29736.9	0.000000	0.000000	6.739011	-0.024080	NaN	0.000000	0.001633	0.001725	28.0781	0.018194	0.001931	9.421796	-162.055	-162.774	-0.012548	0.737665	-0.258681	-0.259959	-0.024080	9.421796	-0.256765	-1045.34	2.303564E-5	NaN
381	1.000000	0.746993	7.36879e+06	-57689.1	955.819	-29736.9	0.000000	0.000000	6.747064	0.039761	NaN	0.000000	0.001654	0.001702	28.0782	0.029202	0.001870	15.6187	-86.756	-164.776	0.071230	0.745649	-0.250631	-0.251975	0.039761	15.6187	-0.252540	-899.923	-4.418289E-5	NaN
381	1.000000	0.755000	7.36879e+06	-57689.1	955.819	-29736.9	0.000000	0.000000	6.755070	0.000955	NaN	0.000000	0.001632	0.001752	28.0783	0.068460	0.002005	34.1371	177.256	-166.495	0.021992	0.753696	-0.242624	-0.243928	0.000955	34.1371	-0.242645	-632.128	-1.510047E-6	NaN
381	1.000000	0.762987	7.36879e+06	-57689.1	955.818	-29736.9	0.000000	0.000000	6.763057	0.021868	NaN	0.000000	0.001643	0.001734	28.0783	0.143043	0.001840	77.7199	126.496	-169.538	-0.045942	0.761663	-0.234637	-0.235961	0.021868	77.7199	-0.234848	-477.381	-4.580897E-5	NaN
381	1.000000	0.770988	7.36879e+06	-57689.1	955.818	-29736.9	0.000000	0.000000	6.771060	0.069854	NaN	0.000000	0.001616	0.001778	28.0782	0.030242	0.001870	16.169	-58.968	-168.747	0.085503	0.769669	-0.226636	-0.227955	0.069854	16.169	-0.229877	-398.63	-0.000175	NaN
381	1.000000	0.778969	7.36879e+06	-57689.1	955.818	-29736.9	0.000000	0.000000	6.779040	0.028795	NaN	0.000000	0.001638	0.001743	28.0783	0.054358	0.002154	25.238	90.1589	-162.664	0.096686	0.777680	-0.218655	-0.219944	0.028795	25.238	-0.219510	-272.804	-0.000106	NaN
381	1.000000	0.786972	7.36879e+06	-57689.1	955.819	-29736.9	0.000000	0.000000	6.787042	0.029921	NaN	0.000000	0.001673	0.001735	28.0783	0.113676	0.001918	59.2624	-68.7346	-165.608	0.077782	0.785686	-0.210652	-0.211938	0.029921	59.2624	-0.211031	-199.299	-0.000150	NaN
381	1.000000	0.794991	7.36879e+06	-57689.1	955.818	-29736.9	0.000000	0.000000	6.795060	0.002879	NaN	0.000000	0.001652	0.001727	28.0783	0.043750	0.001849	23.6627	-90.1931	-170.092	0.077975	0.793727	-0.202633	-0.203897	0.002879	23.6627	-0.202725	-146.011	-1.971710E-5	NaN
381	1.000000	0.803005	7.36879e+06	-57689.1	955.819	-29736.9	0.000000	0.000000	6.803074	-0.004378	NaN	0.000000	0.001633	0.001742	28.0783	0.052085	0.001935	26.9237	-170.708	-164.921	-0.001125	0.801674	-0.194619	-0.195950	-0.004378	26.9237	-0.194497	-106.874	4.096060E-5	NaN
381	1.000000	0.811014	7.36879e+06	-57689.1	955.818	-29736.9	0.000000	0.000000	6.811082	-0.036515	NaN	0.000000	0.001638	0.001758	28.0794	0.019001	0.001911	9.943120	57.5226	-160.481	-0.037469	0.809690	-0.186610	-0.187934	-0.036515	9.943120	-0.183855	-70.9285	0.000515	NaN
381	1.000000	0.819015	7.36879e+06	-57689.1	955.818	-29736.9	0.000000	0.000000	6.819085	0.013925	NaN	0.000000	0.001658	0.001708	28.0794	0.093815	0.002014	46.571	5.141338	-164.354	-0.004049	0.817643	-0.178609	-0.179981	0.013925	46.571	-0.178833	-58.2902	-0.000239	NaN
381	1.000000	0.827025	7.36879e+06	-57689.1	955.819	-29736.9	0.000000	0.000000	6.827096	0.039081	NaN	0.000000	0.001616	0.001726	28.0796	0.113199	0.001932	58.5856	-27.3927	-164.401	0.045992	0.825657	-0.170600	-0.171967	0.039081	58.5856	-0.171100	-42.9229	-0.000910	NaN
381	1.000000	0.835003	7.36879e+06	-57689.1	955.819	-29736.9	0.000000	0.000000	6.835072	-0.016377	NaN	0.000000	0.001586	0.001682	28.0794	0.080240	0.002087	38.4426	-120.905	-165.478	-0.058586	0.833702	-0.162621	-0.163922	-0.016377	38.4426	-0.162301	-30.1137	0.000544	NaN
381	1.000000	0.842998	7.36879e+06	-57689.1	955.82	-29736.9	0.000000	0.000000	6.843066	-0.023269	NaN	0.000000	0.001635	0.001688	28.0794	0.053110	0.001917	27.709	-146.357	-165.871	0.003675	0.841696	-0.154626	-0.155928	-0.023269	27.709	-0.153996	-21.4041	0.001087	NaN
381	1.000000	0.851008	7.36879e+06	-57689.1	955.819	-29736.9	0.000000	0.000000	6.851080	0.057188	NaN	0.000000	0.001635	0.001700	28.0796	0.044173	0.001977	22.3386	115.758	-165.667	-0.024409	0.849764	-0.146616	-0.147860	0.057188	22.3386	-0.148536	-17.0314	-0.003358	NaN
381	1.000000	0.859017	7.36879e+06	-57689.1	955.818	-29736.9	0.000000	0.000000	6.859092	0.120999	NaN	0.000000	0.001645	0.001650	28.0796	0.091434	0.002065	44.2863	45.3123	-166.508	0.062088	0.857721	-0.138607	-0.139903	0.120999	44.2863	-0.140656	-12.1695	-0.009943	NaN
381	1.000000	0.867015	7.36879e+06	-57689.1	955.819	-29736.9	0.000000	0.000000	6.867083	-0.036870	NaN	0.000000	0.001670	0.001704	28.0796	0.121387	0.001961	61.9134	-127.584	-167.606	0.000414	0.865692	-0.130609	-0.131932	-0.036870	61.9134	-0.130163	-7.676571	0.004803	NaN
381	1.000000	0.875037	7.36879e+06	-57689.1	955.818	-29736.9	0.000000	0.000000	6.875107	-0.004131	NaN	0.000000	0.001654	0.001699	28.0797	0.056452	0.001908	29.5913	-48.2735	-163.837	-0.066018	0.873695	-0.122587	-0.123929	-0.004131	29.5913	-0.122482	-5.419072	0.000762	NaN
381	1.000000	0.883016	7.36879e+06	-57689.1	955.818	-29736.9	0.000000	0.000000	6.883083	-0.059128	NaN	0.000000	0.001654	0.001681	28.0795	0.130674	0.002003	65.2458	130.37	-165.761	-0.078595	0.881752	-0.114608	-0.115872	-0.059128	65.2458	-0.113928	-3.630423	0.016287	NaN
381	1.000000	0.891055	7.36879e+06	-57689.1	955.819	-29736.9	0.000000	0.000000	6.891126	0.041680	NaN	0.000000	0.001619	0.001694	28.0798	0.052125	0.001872	27.8412	135.432	-166.231	-0.005659	0.889722	-0.106569	-0.107902	0.041680	27.8412	-0.107692	-2.684954	-0.015523	NaN
381	1.000000	0.899069	7.36879e+06	-57689.1	955.82	-29736.9	0.000000	0.000000	6.899136	-0.068662	NaN	0.000000	0.001576	0.001727	28.0796	0.042863	0.002066	20.7436	-8.476507	-165.212	-0.056218	0.897703	-0.098555	-0.099921	-0.068662	20.7436	-0.096072	-1.492022	0.046019	NaN
381	1.000000	0.907031	7.36879e+06	-57689.1	955.819	-29736.9	0.000000	0.000000	6.907099	-0.030206	NaN	0.000000	0.001561	0.001675	28.0795	0.133737	0.002012	66.4675	55.7432	-167.747	0.021646	0.905734	-0.090593	-0.091890	-0.030206	66.4675	-0.090253	-1.095819	0.027565	NaN
381	1.000000	0.915033	7.36879e+06	-57689.1	955.819	-29736.9	0.000000	0.000000	6.915105	0.066838	NaN	0.000000	0.001598	0.001680	28.0797	0.015964	0.001814	8.798990	-103.345	-164.755	0.111996	0.913713	-0.082592	-0.083911	0.066838	8.798990	-0.088289	-0.985040	-0.067853	NaN
381	1.000000	0.923073	7.36879e+06	-57689.1	955.819	-29736.9	0.000000	0.000000	6.923143	0.004841	NaN	0.000000	0.001598	0.001696	28.0795	0.013185	0.001990	6.626083	179.361	-163.889	0.087316	0.921674	-0.074551	-0.075950	0.004841	6.626083	-0.075099	-0.464590	-0.010419	NaN
381	1.000000	0.931050	7.36879e+06	-57689.1	955.818	-29736.9	0.000000	0.000000	6.931121	0.021879	NaN	0.000000	0.001590	0.001663	28.0796	0.136436	0.001974	69.1066	60.4442	-167.091	-0.026974	0.929681	-0.066574	-0.067943	0.021879	69.1066	-0.066811	-0.279579	-0.078257	NaN
381	1.000000	0.939060	7.36879e+06	-57689.1	955.82	-29736.9	0.000000	0.000000	6.939130	0.011840	NaN	0.000000	0.001628	0.001696	28.0794	0.130600	0.002090	62.5018	158.181	-165.354	0.032105	0.937764	-0.058564	-0.059860	0.011840	62.5018	-0.058706	-0.165282	-0.071633	NaN
381	1.000000	0.947021	7.36879e+06	-57689.1	955.82	-29736.9	0.000000	0.000000	6.947095	0.098944	NaN	0.000000	0.001612	0.001701	28.078	0.028812	0.002016	14.2931	-95.4021	-167.06	0.009464	0.945724	-0.050603	-0.051900	0.098944	14.2931	-0.055795	-0.135917	-0.727977	NaN
381	1.000000	0.955036	7.36879e+06	-57689.1	955.819	-29736.9	0.000000	0.000000	6.955108	0.063331	NaN	0.000000	0.001594	0.001714	28.0784	0.040486	0.001874	21.6064	-170.906	-167.264	0.050321	0.953737	-0.042588	-0.043887	0.063331	21.6064	-0.044787	-0.063311	-1.000322	NaN
381	1.000000	0.963033	7.36879e+06	-57689.1	955.82	-29736.9	0.000000	0.000000	6.963106	0.079728	NaN	0.000000	0.001604	0.001674	28.0779	0.077336	0.001992	38.8306	152.814	-168.991	0.038591	0.961791	-0.034591	-0.035833	0.079728	38.8306	-0.036131	-0.034590	-2.304947	NaN
381	1.000000	0.971079	7.36879e+06	-57689.1	955.819	-29736.9	0.000000	0.000000	6.971148	0.001015	NaN	0.000000	0.001571	0.001674	28.0786	0.014720	0.001923	7.656352	167.188	-167.429	-0.010588	0.969690	-0.026545	-0.027934	0.001015	7.656352	-0.026645	-0.018643	-0.054440	NaN
381	1.000000	0.979086	7.36879e+06	-57689.1	955.819	-29736.9	0.000000	0.000000	6.979153	-0.047293	NaN	0.000000	0.001577	0.001731	28.0782	0.062901	0.002092	30.0708	-158.067	-166.248	-0.000524	0.977730	-0.018538	-0.019894	-0.047293	30.0708	-0.017359	-0.010741	4.402848	NaN
381	1.000000	0.987077	7.36879e+06	-57689.1	955.819	-29736.9	0.000000	0.000000	6.987146	-0.010054	NaN	0.000000	0.001615	0.001744	28.0783	0.033848	0.002028	16.6922	-72.6749	-168.569	-0.001743	0.985756	-0.010547	-0.011868	-0.010054	16.6922	-0.010095	-0.006442	1.560803	NaN
381	1.000000	0.995077	7.36879e+06	-57689.1	955.819	-29736.9	0.000000	0.000000	6.995148	0.021125	NaN	0.000000	0.001630	0.001679	28.0782	0.036883	0.001888	19.5318	-154.081	-164.801	-0.042245	0.993783	-0.002547	-0.003841	0.021125	19.5318	-0.003358	-0.002359	-8.956593	NaN
381	1.000000	1.003060	7.36879e+06	-57689.1	955.819	-29736.9	0.000000	0.000000	7.003305	4.255746	NaN	0.000000	0.001612	0.001665	28.078	5.443066	0.001888	2882.45	14.6536	-172.609	3.262067	1.001727	0.005436	0.004103	4.255746	2882.45	0.004329	0.003529	1205.87	44330
381	2.000000	1.007728	7.36879e+06	-57689.1	955.819	-29736.9	0.000000	0.000000	7.008160	8.831550	NaN	0.000000	0.001598	0.001700	28.0784	9.818472	0.001774	5533.41	9.314442	-175.686	9.068911	1.007444	0.010104	0.009820	8.831550	5533.41	0.008907	0.007991	1105.13	56552.8
381	2.000000	1.009701	7.36879e+06	-57689.1	955.82	-29736.9	0.000000	0.000000	7.010204	10.5276	NaN	0.000000	0.001578	0.001673	28.0778	11.8842	0.001844	6446.07	8.365287	-173.904	10.1722	1.009363	0.012077	0.011739	10.5276	6446.07	0.010852	0.010144	1037.83	58474.3
381	2.000000	1.011709	7.36879e+06	-57689.1	955.821	-29736.9	0.000000	0.000000	7.012271	11.9762	NaN	0.000000	0.001582	0.001693	28.0783	13.2745	0.001964	6760.24	12.4872	-177.229	11.6185	1.011300	0.014085	0.013676	11.9762	6760.24	0.012757	0.012409	965.123	55445.6
381	2.000000	1.013656	7.36879e+06	-57689.1	955.82	-29736.9	0.000000	0.000000	7.014329	14.6839	NaN	0.000000	0.001568	0.001670	28.0781	15.094	0.001908	7912.99	8.474554	-177.006	14.055	1.013362	0.016031	0.015738	14.6839	7912.99	0.014640	0.014808	991.619	59410.9
381	2.000000	1.015661	7.36879e+06	-57689.1	955.821	-29736.9	0.000000	0.000000	7.016360	15.2995	NaN	0.000000	0.001570	0.001672	28.0779	16.8652	0.001787	9439.09	6.035840	-176.861	14.8209	1.015374	0.018037	0.017750	15.2995	9439.09	0.016821	0.017792	859.935	64654.2
381	2.000000	1.017687	7.36879e+06	-57689.1	955.82	-29736.9	0.000000	0.000000	7.018514	18.4219	NaN	0.000000	0.001612	0.001698	28.0782	18.2421	0.001734	10521	9.652290	179.171	18.2961	1.017331	0.020063	0.019707	18.4219	10521	0.018749	0.020615	893.616	66948.1
381	2.000000	1.019636	7.36879e+06	-57689.1	955.82	-29736.9	0.000000	0.000000	7.020737	25.0763	NaN	0.000000	0.001584	0.001678	28.078	20.5507	0.001702	12073.3	6.274354	-177.487	25.5212	1.019341	0.022012	0.021717	25.0763	12073.3	0.020454	0.023261	1078.04	72324.3
381	2.000000	1.021670	7.36879e+06	-57689.1	955.821	-29736.9	0.000000	0.000000	7.022963	29.7415	NaN	0.000000	0.001583	0.001658	28.0788	22.8167	0.001709	13347	7.322266	179.665	30.5517	1.021374	0.024046	0.023750	29.7415	13347	0.022375	0.026413	1126.04	75033
381	2.000000	1.023559	7.36879e+06	-57689.1	955.82	-29736.9	0.000000	0.000000	7.024974	32.7048	NaN	0.000000	0.001607	0.001657	28.0781	24.7129	0.001673	14772.3	5.310862	179.344	29.8089	1.023241	0.025935	0.025617	32.7048	14772.3	0.024274	0.029708	1100.86	78303.6
381	2.000000	1.025654	7.36879e+06	-57689.1	955.819	-29736.9	0.000000	0.000000	7.027075	32.8576	NaN	0.000000	0.001633	0.001681	28.0793	26.5659	0.001744	15234.4	6.655161	179.043	35.1091	1.025347	0.028030	0.027723	32.8576	15234.4	0.026412	0.033635	976.883	75893.2
381	2.000000	1.027622	7.36879e+06	-57689.1	955.82	-29736.9	0.000000	0.000000	7.029330	39.8237	NaN	0.000000	0.001575	0.001681	28.0795	27.2964	0.001739	15697.2	2.992568	-176.58	39.5743	1.027213	0.029998	0.029589	39.8237	15697.2	0.028095	0.036887	1079.6	74671.5
381	2.000000	1.029619	7.36879e+06	-57689.1	955.819	-29736.9	0.000000	0.000000	7.031378	41.0758	NaN	0.000000	0.001614	0.001706	28.0795	30.6724	0.001787	17168.7	6.624271	177.45	41.6579	1.029302	0.031995	0.031678	41.0758	17168.7	0.030200	0.041160	997.96	77317.1
381	2.000000	1.031634	7.36879e+06	-57689.1	955.82	-29736.9	0.000000	0.000000	7.033821	51.4614	NaN	0.000000	0.001622	0.001702	28.0798	32.0902	0.001662	19306.7	6.157514	177.473	51.122	1.031269	0.034010	0.033645	51.4614	19306.7	0.032011	0.045014	1143.22	83139.2
381	2.000000	1.033600	7.36879e+06	-57689.1	955.82	-29736.9	0.000000	0.000000	7.035906	54.3805	NaN	0.000000	0.001607	0.001716	28.0795	33.7921	0.001763	19163.7	3.491541	179.603	53.7143	1.033295	0.035976	0.035671	54.3805	19163.7	0.033847	0.049096	1107.64	79018.8
381	2.000000	1.035609	7.36879e+06	-57689.1	955.82	-29736.9	0.000000	0.000000	7.038126	59.4736	NaN	0.000000	0.001641	0.001719	28.0793	36.0002	0.001822	19753.2	5.579633	178.81	58.9706	1.035252	0.037985	0.037627	59.4736	19753.2	0.035727	0.053453	1112.64	78059.6
381	2.000000	1.037574	7.36879e+06	-57689.1	955.821	-29736.9	0.000000	0.000000	7.040252	63.401	NaN	0.000000	0.001643	0.001699	28.0795	37.1813	0.001703	21827.7	1.778844	179.959	62.857	1.037314	0.039949	0.039690	63.401	21827.7	0.037771	0.058395	1085.73	82526.5
381	2.000000	1.039549	7.36879e+06	-57689.1	955.82	-29736.9	0.000000	0.000000	7.042602	72.5063	NaN	0.000000	0.001604	0.001689	28.0794	39.4176	0.001699	23193.9	0.889919	-179.34	70.0162	1.039289	0.041925	0.041665	72.5063	23193.9	0.039581	0.062949	1151.82	84460.3
381	2.000000	1.041677	7.36879e+06	-57689.1	955.82	-29736.9	0.000000	0.000000	7.044989	78.8015	NaN	0.000000	0.001605	0.001673	28.0798	42.8959	0.001773	24197.8	7.452990	174.372	81.7165	1.041342	0.044053	0.043718	78.8015	24197.8	0.041611	0.068257	1154.49	84620.7
381	2.000000	1.043571	7.36879e+06	-57689.1	955.82	-29736.9	0.000000	0.000000	7.047164	85.6453	NaN	0.000000	0.001596	0.001654	28.0796	45.2012	0.001786	25301.7	10.0497	171.98	83.6134	1.043188	0.045947	0.045564	85.6453	25301.7	0.043408	0.073132	1171.11	85481.1
381	2.000000	1.045603	7.36879e+06	-57689.1	955.82	-29736.9	0.000000	0.000000	7.049257	87.1064	NaN	0.000000	0.001686	0.001700	28.0794	48.0586	0.001880	25562.4	6.921099	173.708	88.4603	1.045380	0.047979	0.047756	87.1064	25562.4	0.045424	0.078795	1105.49	83200.7
381	2.000000	1.047521	7.36879e+06	-57689.1	955.82	-29736.9	0.000000	0.000000	7.051839	103.245	NaN	0.000000	0.001737	0.001686	28.0795	48.6967	0.001736	28048.3	5.114863	173.944	100.878	1.047228	0.049897	0.049604	103.245	28048.3	0.047137	0.083768	1232.5	88540
381	2.000000	1.049538	7.36879e+06	-57689.1	955.821	-29736.9	0.000000	0.000000	7.054126	109.841	NaN	0.000000	0.001741	0.001730	28.0794	50.6021	0.001741	29065	2.972309	177.465	107.81	1.049209	0.051913	0.051585	109.841	29065	0.049079	0.089588	1226.06	88719.4
381	2.000000	1.051632	7.36879e+06	-57689.1	955.82	-29736.9	0.000000	0.000000	7.056524	117.204	NaN	0.000000	0.001709	0.001722	28.0801	53.2139	0.001765	30157.8	4.020415	175.617	116.618	1.051299	0.054008	0.053675	117.204	30157.8	0.051093	0.095823	1223.13	89010
381	2.000000	1.053503	7.36879e+06	-57689.1	955.822	-29736.9	0.000000	0.000000	7.058700	124.621	NaN	0.000000	0.001711	0.001747	28.0796	54.196	0.001588	34118.6	1.443422	176.362	120.079	1.053301	0.055879	0.055677	124.621	34118.6	0.053140	0.102364	1217.42	97429.4
381	2.000000	1.055575	7.36879e+06	-57689.1	955.82	-29736.9	0.000000	0.000000	7.061348	138.639	NaN	0.000000	0.001686	0.001731	28.0796	59.2537	0.001909	31031.2	7.225835	172.032	137.186	1.055226	0.057950	0.057601	138.639	31031.2	0.054600	0.107159	1293.77	86607.9
381	2.000000	1.057486	7.36879e+06	-57689.1	955.822	-29736.9	0.000000	0.000000	7.063318	140.044	NaN	0.000000	0.001651	0.001752	28.0794	59.6719	0.001818	32823.4	3.792031	174.752	135.429	1.057175	0.059862	0.059551	140.044	32823.4	0.056662	0.114112	1227.26	88775.3
381	2.000000	1.059525	7.36879e+06	-57689.1	955.821	-29736.9	0.000000	0.000000	7.065958	154.664	NaN	0.000000	0.001642	0.001765	28.0783	61.8181	0.001805	34246.8	4.602654	173.612	153.415	1.059186	0.061901	0.061562	154.664	34246.8	0.058514	0.120534	1283.15	90123.5
381	2.000000	1.061495	7.36879e+06	-57689.1	955.822	-29736.9	0.000000	0.000000	7.068282	163.274	NaN	0.000000	0.001658	0.001720	28.0784	63.2144	0.001837	34419.3	2.792594	175.556	159.628	1.061318	0.063870	0.063694	163.274	34419.3	0.060313	0.126932	1286.31	88265.3
381	2.000000	1.063514	7.36879e+06	-57689.1	955.821	-29736.9	0.000000	0.000000	7.070907	178.01	NaN	0.000000	0.001727	0.001718	28.078	64.325	0.001776	36212.3	3.799062	174.143	175.431	1.063116	0.065890	0.065492	178.01	36212.3	0.062203	0.133826	1330.17	90439.8
381	2.000000	1.065618	7.36879e+06	-57689.1	955.821	-29736.9	0.000000	0.000000	7.072938	176.222	NaN	0.000000	0.001768	0.001690	28.0784	67.473	0.001775	38016.3	5.157861	171.85	178.455	1.065511	0.067994	0.067887	176.222	38016.3	0.064517	0.142502	1236.63	92009.5
381	2.000000	1.067542	7.36879e+06	-57689.1	955.821	-29736.9	0.000000	0.000000	7.075324	187.443	NaN	0.000000	0.001686	0.001699	28.0781	68.4881	0.001844	37144.2	5.698126	171.577	184.915	1.067282	0.069918	0.069658	187.443	37144.2	0.066133	0.148714	1260.43	88001.3
381	2.000000	1.069466	7.36879e+06	-57689.1	955.82	-29736.9	0.000000	0.000000	7.078234	211.405	NaN	0.000000	0.001674	0.001692	28.0784	70.4854	0.001771	39789.7	4.832799	172.568	207.998	1.069193	0.071842	0.071569	211.405	39789.7	0.067857	0.155482	1359.68	92194.4
381	2.000000	1.071515	7.36879e+06	-57689.1	955.82	-29736.9	0.000000	0.000000	7.080633	219.902	NaN	0.000000	0.001652	0.001733	28.0783	72.6454	0.001781	40790.2	1.096340	175.905	215.57	1.071223	0.073891	0.073599	219.902	40790.2	0.069848	0.163470	1345.22	92174.5
381	2.000000	1.073492	7.36879e+06	-57689.1	955.821	-29736.9	0.000000	0.000000	7.082896	226.869	NaN	0.000000	0.001640	0.001692	28.0781	74.2656	0.001753	42356.6	1.468680	175.37	221.026	1.073208	0.075868	0.075584	226.869	42356.6	0.071851	0.171700	1321.31	93391.9
381	2.000000	1.075498	7.36879e+06	-57689.1	955.82	-29736.9	0.000000	0.000000	7.085354	237.844	NaN	0.000000	0.001672	0.001716	28.0786	79.1671	0.001949	40626.4	6.749141	170.368	234.607	1.075211	0.077874	0.077587	237.844	40626.4	0.073483	0.178545	1332.13	87843.1
381	2.000000	1.077529	7.36879e+06	-57689.1	955.822	-29736.9	0.000000	0.000000	7.087851	249.162	NaN	0.000000	0.001621	0.001707	28.0782	79.2909	0.001809	43829	4.558205	172.105	246.758	1.077181	0.079905	0.079557	249.162	43829	0.075642	0.187792	1326.8	92405.1
381	2.000000	1.079487	7.36879e+06	-57689.1	955.821	-29736.9	0.000000	0.000000	7.090343	262.16	NaN	0.000000	0.001661	0.001724	28.0782	82.0097	0.001897	43236.8	4.089562	172.129	258.113	1.079253	0.081863	0.081629	262.16	43236.8	0.077315	0.195112	1343.64	89430.3
381	2.000000	1.081519	7.36879e+06	-57689.1	955.821	-29736.9	0.000000	0.000000	7.092877	274.358	NaN	0.000000	0.001647	0.001706	28.0782	82.2147	0.001623	50645.1	3.319878	172.099	269.003	1.081138	0.083895	0.083514	274.358	50645.1	0.079832	0.206369	1329.46	101857
381	2.000000	1.083638	7.36879e+06	-57689.1	955.821	-29736.9	0.000000	0.000000	7.095538	287.534	NaN	0.000000	0.001675	0.001685	28.0782	85.0612	0.001721	49434.2	6.960689	168.604	292.842	1.083271	0.086014	0.085647	287.534	49434.2	0.081651	0.214686	1339.32	97476.2
381	2.000000	1.085504	7.36879e+06	-57689.1	955.822	-29736.9	0.000000	0.000000	7.098062	303.527	NaN	0.000000	0.001647	0.001677	28.0791	87.1924	0.001857	46956.5	5.565687	170.457	300.122	1.085269	0.087880	0.087645	303.527	46956.5	0.083032	0.221103	1372.79	91237.2
381	2.000000	1.087578	7.36879e+06	-57689.1	955.821	-29736.9	0.000000	0.000000	7.100687	316.909	NaN	0.000000	0.001676	0.001731	28.0782	88.0163	0.001835	47955.4	11.3311	165.697	318.242	1.087058	0.089954	0.089434	316.909	47955.4	0.084998	0.230390	1375.53	91280.6
381	2.000000	1.089449	7.36879e+06	-57689.1	955.821	-29736.9	0.000000	0.000000	7.102892	325.033	NaN	0.000000	0.001644	0.001701	28.0784	90.1535	0.001871	48174.7	2.897636	172.865	321.145	1.089200	0.091825	0.091576	325.033	48174.7	0.086765	0.238892	1360.59	90051.7
381	2.000000	1.091470	7.36879e+06	-57689.1	955.822	-29736.9	0.000000	0.000000	7.105658	343.136	NaN	0.000000	0.001692	0.001704	28.0782	92.0168	0.001782	51647.7	6.909319	168.166	338.998	1.091217	0.093846	0.093593	343.136	51647.7	0.088863	0.249172	1377.11	94531.1
381	2.000000	1.093501	7.36879e+06	-57689.1	955.822	-29736.9	0.000000	0.000000	7.108142	354.155	NaN	0.000000	0.001684	0.001731	28.079	93.3502	0.001864	50084	7.907070	167.904	351.589	1.093175	0.095877	0.095551	354.155	50084	0.090573	0.257704	1374.27	90138.8
381	2.000000	1.095703	7.36879e+06	-57689.1	955.821	-29736.9	0.000000	0.000000	7.110440	356.477	NaN	0.000000	0.001669	0.001729	28.0802	96.0451	0.001742	55140.5	7.483137	167.558	366.982	1.095285	0.098079	0.097661	356.477	55140.5	0.093230	0.271222	1314.34	96734.5
381	2.000000	1.097488	7.36879e+06	-57689.1	955.82	-29736.9	0.000000	0.000000	7.113316	382.981	NaN	0.000000	0.001663	0.001736	28.0794	95.7181	0.001740	54995	5.614991	169.563	381.379	1.097174	0.099864	0.099550	382.981	54995	0.094641	0.278531	1375.01	95205
381	2.000000	1.099475	7.36879e+06	-57689.1	955.82	-29736.9	0.000000	0.000000	7.115786	394.76	NaN	0.000000	0.001640	0.001710	28.0795	98.2052	0.001818	54020.9	-0.589201	176.154	390.888	1.099148	0.101850	0.101524	394.76	54020.9	0.096370	0.287609	1372.55	92030.8
381	2.000000	1.101504	7.36879e+06	-57689.1	955.821	-29736.9	0.000000	0.000000	7.118271	405.829	NaN	0.000000	0.001642	0.001701	28.0793	101.932	0.001804	56494.9	6.203176	168.829	401.292	1.101218	0.103880	0.103594	405.829	56494.9	0.098492	0.298942	1357.55	94403.8
381	2.000000	1.103458	7.36879e+06	-57689.1	955.821	-29736.9	0.000000	0.000000	7.120880	421.741	NaN	0.000000	0.001637	0.001763	28.0794	101.984	0.001764	57822.7	2.356145	171.98	418.078	1.103227	0.105834	0.105603	421.741	57822.7	0.100364	0.309106	1364.39	95020.6
381	2.000000	1.105030	7.3688e+06	-57689.1	955.821	-29736.9	0.000000	0.000000	7.122837	431.099	NaN	0.000000	0.001658	0.001730	28.0801	105.052	0.001824	57587.3	1.188679	-6.603564	427.083	1.104749	0.107406	0.107125	431.099	57587.3	0.101791	0.316967	1360.07	93452.9