File: remote_trans/data/nanoindenter/0828-1/data/Data_2025-08-06,11h17m57s/2025-07-22_16-23-58_1_151.txt
2025-07-22, 16:23:58, 1
Index	Phase	Displacement	Time	Pos X	Pos Y	Pos Z	Rot A	Rot B	Piezo Z	Force A	Force B	Gripper	Voltage A	Voltage B	Temperature	Amplitude force	Amplitude pos	Stiffness	Phase shift	Phase excitation	Force A raw	Displacement raw	HMax	HMax raw	Real Force	Real Stiffness	Contact Depth	Area	Hardness	Reduced Mod.
[#]	[#]	[um]	[s]	[um]	[um]	[um]	[m°]	[m°]	[um]	[uN]	[uN]	[V]	[V]	[V]	[°C]	[uN]	[um]	[N/m]	[°]	[°]	[uN]	[um]	[um]	[um]	[uN]	[N/m]	[um]	[um^2]	[MPa]	[MPa]
151	1.000000	0.002659	7.36651e+06	-46189.1	955.818	-29770.4	0.000000	0.000000	6.002806	-0.025132	NaN	0.000000	0.001718	0.001591	28.1225	0.013579	0.001006	13.4914	155.37	-162.231	-0.035844	0.001432	-1.136049	-1.137276	-0.025132	13.4914	-1.134651	-1.462209E+15	1.718768E-17	NaN
151	1.000000	0.012721	7.36651e+06	-46189.1	955.819	-29770.4	0.000000	0.000000	6.012869	0.000207	NaN	0.000000	0.001709	0.001641	28.085	0.057159	0.001255	45.5343	-112.478	14.9325	-0.041715	0.011270	-1.125987	-1.127438	0.000207	45.5343	-1.125990	-1.119012E+15	-1.847156E-19	NaN
151	1.000000	0.022608	7.36651e+06	-46189.1	955.818	-29770.4	0.000000	0.000000	6.022752	-0.088578	NaN	0.000000	0.001715	0.001592	28.0824	0.093131	0.001605	58.037	44.3671	-163.508	-0.093180	0.021304	-1.116100	-1.117404	-0.088578	58.037	-1.114955	-7.957617E+14	1.113120E-16	NaN
151	1.000000	0.032635	7.36651e+06	-46189.1	955.818	-29770.4	0.000000	0.000000	6.032782	-0.008456	NaN	0.000000	0.001660	0.001603	28.1172	0.068473	0.001884	36.3405	-176.087	17.8811	-0.031786	0.031233	-1.106073	-1.107475	-0.008456	36.3405	-1.105898	-6.015057E+14	1.405737E-17	NaN
151	1.000000	0.042619	7.36651e+06	-46189.1	955.818	-29770.4	0.000000	0.000000	6.042770	0.098577	NaN	0.000000	0.001765	0.001638	28.1235	0.045006	0.002029	22.1793	-73.7689	-165.455	0.073861	0.041328	-1.096089	-1.097380	0.098577	22.1793	-1.099423	-4.923981E+14	-2.001978E-16	NaN
151	1.000000	0.052602	7.36651e+06	-46189.1	955.818	-29770.4	0.000000	0.000000	6.052749	-0.006193	NaN	0.000000	0.001745	0.001669	28.0836	0.006507	0.001968	3.306290	106.48	13.5469	-0.028520	0.051296	-1.086106	-1.087412	-0.006193	3.306290	-1.084701	-3.123574E+14	1.982591E-17	NaN
151	1.000000	0.062589	7.36651e+06	-46189.1	955.818	-29770.4	0.000000	0.000000	6.062737	0.022740	NaN	0.000000	0.001736	0.001622	28.0828	0.104684	0.001979	52.8858	146.407	-164.625	0.047435	0.061281	-1.076119	-1.077427	0.022740	52.8858	-1.076442	-2.419488E+14	-9.398510E-17	NaN
151	1.000000	0.072614	7.36651e+06	-46189.1	955.818	-29770.4	0.000000	0.000000	6.072761	-0.002694	NaN	0.000000	0.001717	0.001594	28.1167	0.161055	0.001985	81.1544	-114.81	15.8329	-0.071020	0.071290	-1.066094	-1.067418	-0.002694	81.1544	-1.066069	-1.755405E+14	1.534950E-17	NaN
151	1.000000	0.082638	7.36651e+06	-46189.1	955.818	-29770.4	0.000000	0.000000	6.082786	0.022756	NaN	0.000000	0.001736	0.001636	28.1215	0.071373	0.002018	35.3637	-129.341	-166.312	0.047745	0.081345	-1.056070	-1.057363	0.022756	35.3637	-1.056552	-1.307638E+14	-1.740209E-16	NaN
151	1.000000	0.092580	7.36651e+06	-46189.1	955.817	-29770.4	0.000000	0.000000	6.092728	0.038208	NaN	0.000000	0.001745	0.001609	28.0841	0.080794	0.002109	38.3022	88.5877	15.4526	0.022834	0.091302	-1.046128	-1.047406	0.038208	38.3022	-1.046877	-9.692245E+13	-3.942119E-16	NaN
151	1.000000	0.102604	7.36651e+06	-46189.1	955.818	-29770.4	0.000000	0.000000	6.102751	-0.024223	NaN	0.000000	0.001698	0.001625	28.0809	0.086795	0.001999	43.4293	43.0047	-166.019	-0.006953	0.101333	-1.036104	-1.037375	-0.024223	43.4293	-1.035685	-6.854024E+13	3.534151E-16	NaN
151	1.000000	0.112638	7.36651e+06	-46189.1	955.819	-29770.4	0.000000	0.000000	6.112784	-0.027822	NaN	0.000000	0.001661	0.001626	28.1154	0.063172	0.002180	28.9844	-93.6679	16.2896	-0.028771	0.111284	-1.026070	-1.027424	-0.027822	28.9844	-1.025350	-4.976610E+13	5.590630E-16	NaN
151	1.000000	0.122639	7.36651e+06	-46189.1	955.818	-29770.4	0.000000	0.000000	6.122788	0.026826	NaN	0.000000	0.001649	0.001646	28.1229	0.103437	0.002016	51.3167	-102.149	-163.57	0.007582	0.121309	-1.016069	-1.017399	0.026826	51.3167	-1.016461	-3.778577E+13	-7.099595E-16	NaN
151	1.000000	0.132625	7.36651e+06	-46189.1	955.819	-29770.4	0.000000	0.000000	6.132774	0.044737	NaN	0.000000	0.001637	0.001629	28.0844	0.009004	0.001943	4.633341	-134.858	16.5821	0.062390	0.131294	-1.006083	-1.007414	0.044737	4.633341	-1.013324	-3.428640E+13	-1.304795E-15	NaN
151	1.000000	0.142628	7.36651e+06	-46189.1	955.818	-29770.4	0.000000	0.000000	6.142777	0.043758	NaN	0.000000	0.001694	0.001667	28.0819	0.082946	0.001918	43.241	43.1316	-164.175	0.062339	0.141351	-0.996080	-0.997357	0.043758	43.241	-0.996839	-2.056871E+13	-2.127384E-15	NaN
151	1.000000	0.152653	7.36651e+06	-46189.1	955.818	-29770.4	0.000000	0.000000	6.152802	0.023294	NaN	0.000000	0.001708	0.001661	28.1153	0.088948	0.001972	45.1171	117.549	17.1218	-0.008101	0.151289	-0.986055	-0.987419	0.023294	45.1171	-0.986442	-1.490003E+13	-1.563346E-15	NaN
151	1.000000	0.162632	7.36651e+06	-46189.1	955.818	-29770.4	0.000000	0.000000	6.162781	0.042943	NaN	0.000000	0.001646	0.001630	28.1221	0.026696	0.001967	13.5752	51.9793	-164.36	-0.026588	0.161339	-0.976076	-0.977369	0.042943	13.5752	-0.978448	-1.162797E+13	-3.693061E-15	NaN
151	1.000000	0.172656	7.36651e+06	-46189.1	955.819	-29770.4	0.000000	0.000000	6.172805	0.036526	NaN	0.000000	0.001691	0.001643	28.0827	0.093473	0.001939	48.1963	-165.059	15.3872	0.028431	0.171329	-0.966052	-0.967379	0.036526	48.1963	-0.966620	-8.055806E+12	-4.534099E-15	NaN
151	1.000000	0.182637	7.36651e+06	-46189.1	955.818	-29770.4	0.000000	0.000000	6.182785	-0.001900	NaN	0.000000	0.001686	0.001621	28.0825	0.012432	0.002099	5.922133	-54.8314	-166.156	-0.064781	0.181301	-0.956071	-0.957406	-0.001900	5.922133	-0.955830	-5.762960E+12	3.297410E-16	NaN
151	1.000000	0.192668	7.36651e+06	-46189.1	955.819	-29770.4	0.000000	0.000000	6.192817	0.019197	NaN	0.000000	0.001697	0.001637	28.1157	0.035743	0.001924	18.5734	-85.1109	13.3692	0.021796	0.191341	-0.946040	-0.947367	0.019197	18.5734	-0.946815	-4.355787E+12	-4.407257E-15	NaN
151	1.000000	0.202664	7.36651e+06	-46189.1	955.818	-29770.4	0.000000	0.000000	6.202809	-0.043966	NaN	0.000000	0.001693	0.001619	28.1236	0.064864	0.002041	31.7863	-84.7793	-162.413	-0.071615	0.201408	-0.936044	-0.937300	-0.043966	31.7863	-0.935007	-3.018303E+12	1.456648E-14	NaN
151	1.000000	0.212642	7.36651e+06	-46189.1	955.819	-29770.4	0.000000	0.000000	6.212790	0.013495	NaN	0.000000	0.001703	0.001618	28.0843	0.049990	0.002019	24.764	-170.581	16.1598	0.005975	0.211322	-0.926066	-0.927386	0.013495	24.764	-0.926475	-2.315329E+12	-5.828402E-15	NaN
151	1.000000	0.222679	7.36651e+06	-46189.1	955.817	-29770.4	0.000000	0.000000	6.222827	0.017546	NaN	0.000000	0.001679	0.001620	28.0829	0.035252	0.001897	18.5813	116.836	-164.288	0.007101	0.221383	-0.916029	-0.917324	0.017546	18.5813	-0.916737	-1.710607E+12	-1.025745E-14	NaN
151	1.000000	0.232655	7.36651e+06	-46189.1	955.819	-29770.4	0.000000	0.000000	6.232802	-0.012141	NaN	0.000000	0.001687	0.001650	28.1168	0.022234	0.001993	11.1564	-170.281	15.1384	-0.017252	0.231361	-0.906053	-0.907347	-0.012141	11.1564	-0.905237	-1.196251E+12	1.014923E-14	NaN
151	1.000000	0.242700	7.36651e+06	-46189.1	955.818	-29770.4	0.000000	0.000000	6.242846	-0.024592	NaN	0.000000	0.001727	0.001626	28.1231	0.043487	0.001980	21.9612	-64.4879	-166.45	0.033397	0.241424	-0.896008	-0.897284	-0.024592	21.9612	-0.895168	-8.745174E+11	2.812062E-14	NaN
151	1.000000	0.252676	7.36652e+06	-46189.1	955.818	-29770.4	0.000000	0.000000	6.252825	0.044444	NaN	0.000000	0.001689	0.001676	28.0835	0.018612	0.002031	9.165009	134.071	17.9812	0.046448	0.251376	-0.886032	-0.887332	0.044444	9.165009	-0.889669	-7.369576E+11	-6.030796E-14	NaN
151	1.000000	0.262660	7.36652e+06	-46189.1	955.818	-29770.4	0.000000	0.000000	6.262807	-0.005816	NaN	0.000000	0.001711	0.001655	28.0813	0.030576	0.002008	15.226	138.426	-165.669	-0.053240	0.261381	-0.876048	-0.877327	-0.005816	15.226	-0.875762	-4.779544E+11	1.216802E-14	NaN
151	1.000000	0.272703	7.36652e+06	-46189.1	955.818	-29770.4	0.000000	0.000000	6.272850	-0.011381	NaN	0.000000	0.001699	0.001628	28.1153	0.068384	0.002107	32.4605	119.32	12.6023	-0.053520	0.271304	-0.866005	-0.867404	-0.011381	32.4605	-0.865742	-3.498069E+11	3.253371E-14	NaN
151	1.000000	0.282705	7.36652e+06	-46189.1	955.819	-29770.4	0.000000	0.000000	6.282853	0.025032	NaN	0.000000	0.001719	0.001636	28.1247	0.141004	0.001960	71.9482	92.7598	-164.115	0.046814	0.281416	-0.856003	-0.857292	0.025032	71.9482	-0.856264	-2.603445E+11	-9.615029E-14	NaN
151	1.000000	0.292727	7.36652e+06	-46189.1	955.818	-29770.4	0.000000	0.000000	6.292874	-0.011709	NaN	0.000000	0.001665	0.001659	28.0844	0.109826	0.002036	53.9452	19.0859	15.4581	0.081036	0.291324	-0.845981	-0.847384	-0.011709	53.9452	-0.845818	-1.879776E+11	6.229014E-14	NaN
151	1.000000	0.302717	7.36652e+06	-46189.1	955.817	-29770.4	0.000000	0.000000	6.302865	0.030971	NaN	0.000000	0.001658	0.001624	28.0821	0.056577	0.002016	28.0636	153.844	-162.949	0.059723	0.301398	-0.835991	-0.837310	0.030971	28.0636	-0.836819	-1.419685E+11	-2.181519E-13	NaN
151	1.000000	0.312704	7.36652e+06	-46189.1	955.818	-29770.4	0.000000	0.000000	6.312854	0.051521	NaN	0.000000	0.001678	0.001643	28.1168	0.073881	0.001946	37.9678	-172.492	14.697	0.030698	0.311353	-0.826004	-0.827355	0.051521	37.9678	-0.827021	-1.045706E+11	-4.926933E-13	NaN
151	1.000000	0.322691	7.36652e+06	-46189.1	955.819	-29770.4	0.000000	0.000000	6.322838	-0.006008	NaN	0.000000	0.001659	0.001594	28.1224	0.057703	0.002005	28.7825	-2.056805	-166.845	-0.088178	0.321369	-0.816017	-0.817339	-0.006008	28.7825	-0.815860	-7.380212E+10	8.140282E-14	NaN
151	1.000000	0.332763	7.36652e+06	-46189.1	955.818	-29770.4	0.000000	0.000000	6.332909	-0.020518	NaN	0.000000	0.001714	0.001607	28.0843	0.091280	0.001863	49.0024	142.931	14.3209	-0.054787	0.331372	-0.805945	-0.807336	-0.020518	49.0024	-0.805631	-5.361517E+10	3.826810E-13	NaN
151	1.000000	0.342712	7.36652e+06	-46189.1	955.818	-29770.4	0.000000	0.000000	6.342858	-0.029974	NaN	0.000000	0.001764	0.001643	28.0802	0.060442	0.002082	29.0284	-162.299	-164.792	-0.048767	0.341407	-0.795996	-0.797301	-0.029974	29.0284	-0.795222	-3.872530E+10	7.740256E-13	NaN
151	1.000000	0.352738	7.36652e+06	-46189.1	955.818	-29770.4	0.000000	0.000000	6.352885	-0.010729	NaN	0.000000	0.001777	0.001648	28.1137	0.092177	0.002059	44.775	-83.0109	15.3432	0.020419	0.351408	-0.785970	-0.787300	-0.010729	44.775	-0.785790	-2.883368E+10	3.720887E-13	NaN
151	1.000000	0.362757	7.36652e+06	-46189.1	955.819	-29770.4	0.000000	0.000000	6.362904	-0.021914	NaN	0.000000	0.001732	0.001665	28.1234	0.119163	0.002002	59.5308	-153.688	-164.394	-0.011445	0.361397	-0.775951	-0.777311	-0.021914	59.5308	-0.775675	-2.101112E+10	1.042959E-12	NaN
151	1.000000	0.372728	7.36652e+06	-46189.1	955.818	-29770.4	0.000000	0.000000	6.372876	0.015498	NaN	0.000000	0.001715	0.001663	28.0852	0.046491	0.001981	23.4643	-120.325	14.5793	0.006145	0.371355	-0.765980	-0.767353	0.015498	23.4643	-0.766475	-1.575349E+10	-9.837639E-13	NaN
151	1.000000	0.382712	7.36652e+06	-46189.1	955.818	-29770.4	0.000000	0.000000	6.382859	-0.000654	NaN	0.000000	0.001756	0.001625	28.0809	0.069629	0.002065	33.7245	7.772408	-161.652	0.025536	0.381432	-0.755996	-0.757275	-0.000654	33.7245	-0.755982	-1.134045E+10	5.766074E-14	NaN
151	1.000000	0.392744	7.36652e+06	-46189.1	955.818	-29770.4	0.000000	0.000000	6.392890	-0.017062	NaN	0.000000	0.001753	0.001624	28.1151	0.104595	0.002117	49.4108	-155.112	15.2864	-0.051830	0.391439	-0.745964	-0.747269	-0.017062	49.4108	-0.745705	-8.217709E+9	2.076263E-12	NaN
151	1.000000	0.402742	7.36652e+06	-46189.1	955.819	-29770.4	0.000000	0.000000	6.402891	0.019057	NaN	0.000000	0.001743	0.001631	28.1226	0.022813	0.002072	11.0078	-20.6944	-161.784	-0.015850	0.401456	-0.735965	-0.737252	0.019057	11.0078	-0.737264	-6.306460E+9	-3.021790E-12	NaN
151	1.000000	0.412764	7.36652e+06	-46189.1	955.818	-29770.4	0.000000	0.000000	6.412909	-0.069509	NaN	0.000000	0.001728	0.001666	28.0838	0.025407	0.001890	13.4393	-136.335	12.7803	-0.010640	0.411433	-0.725943	-0.727274	-0.069509	13.4393	-0.722064	-3.914039E+9	1.775896E-11	NaN
151	1.000000	0.422743	7.36652e+06	-46189.1	955.819	-29770.4	0.000000	0.000000	6.422891	0.008978	NaN	0.000000	0.001724	0.001611	28.0793	0.067507	0.001910	35.337	161.29	-163.791	0.008695	0.421428	-0.715965	-0.717279	0.008978	35.337	-0.716155	-3.251104E+9	-2.761386E-12	NaN
151	1.000000	0.432756	7.36652e+06	-46189.1	955.819	-29770.4	0.000000	0.000000	6.432901	-0.049201	NaN	0.000000	0.001719	0.001658	28.1136	0.100210	0.001938	51.7167	3.146151	17.6613	-0.017125	0.431395	-0.705952	-0.707313	-0.049201	51.7167	-0.705238	-2.307051E+9	2.132649E-11	NaN
151	1.000000	0.442756	7.36652e+06	-46189.1	955.818	-29770.4	0.000000	0.000000	6.442902	-0.056425	NaN	0.000000	0.001737	0.001597	28.1243	0.016142	0.002041	7.910099	-123.966	-166.892	-0.076879	0.441515	-0.695951	-0.697193	-0.056425	7.910099	-0.690601	-1.455922E+9	3.875532E-11	NaN
151	1.000000	0.452781	7.36652e+06	-46189.1	955.819	-29770.4	0.000000	0.000000	6.452928	0.006555	NaN	0.000000	0.001737	0.001628	28.0849	0.094531	0.002019	46.8115	-110.033	16.567	-0.026130	0.451420	-0.685927	-0.687288	0.006555	46.8115	-0.686032	-1.260921E+9	-5.198897E-12	NaN
151	1.000000	0.462791	7.36652e+06	-46189.1	955.819	-29770.4	0.000000	0.000000	6.462940	0.051658	NaN	0.000000	0.001777	0.001633	28.0826	0.029627	0.001979	14.9737	175.156	-162.032	0.059227	0.461484	-0.675917	-0.677224	0.051658	14.9737	-0.678505	-9.948371E+8	-5.192571E-11	NaN
151	1.000000	0.472780	7.36652e+06	-46189.1	955.819	-29770.4	0.000000	0.000000	6.472930	0.064249	NaN	0.000000	0.001773	0.001670	28.1157	0.022500	0.001788	12.5848	-107.274	13.469	-0.079146	0.471463	-0.665928	-0.667245	0.064249	12.5848	-0.669757	-7.551930E+8	-8.507588E-11	NaN
151	1.000000	0.482780	7.36652e+06	-46189.1	955.82	-29770.4	0.000000	0.000000	6.482926	-0.043535	NaN	0.000000	0.001774	0.001646	28.1251	0.065683	0.001984	33.1104	73.6755	-168.234	-0.086227	0.481500	-0.655928	-0.657208	-0.043535	33.1104	-0.654942	-4.733362E+8	9.197469E-11	NaN
151	1.000000	0.492807	7.36652e+06	-46189.1	955.818	-29770.4	0.000000	0.000000	6.492952	-0.061861	NaN	0.000000	0.001733	0.001651	28.086	0.178555	0.001968	90.7381	164.098	15.2068	-0.099546	0.491444	-0.645901	-0.647264	-0.061861	90.7381	-0.645390	-3.501247E+8	1.766814E-10	NaN
151	1.000000	0.502764	7.36652e+06	-46189.1	955.818	-29770.4	0.000000	0.000000	6.502912	0.021533	NaN	0.000000	0.001716	0.001632	28.0808	0.147929	0.002175	68.0208	104.246	-167.001	-0.045086	0.501499	-0.635944	-0.637209	0.021533	68.0208	-0.636181	-2.617482E+8	-8.226468E-11	NaN
151	1.000000	0.512829	7.36652e+06	-46189.1	955.818	-29770.4	0.000000	0.000000	6.512975	-0.039506	NaN	0.000000	0.001646	0.001653	28.1151	0.040651	0.001967	20.6662	78.4417	14.9696	-0.092439	0.511423	-0.625879	-0.627284	-0.039506	20.6662	-0.624445	-1.806008E+8	2.187489E-10	NaN
151	1.000000	0.522804	7.36652e+06	-46189.1	955.818	-29770.4	0.000000	0.000000	6.522952	0.024713	NaN	0.000000	0.001641	0.001653	28.1259	0.124572	0.002011	61.9488	-49.9816	-161.858	0.059599	0.521488	-0.615904	-0.617220	0.024713	61.9488	-0.616203	-1.391359E+8	-1.776208E-10	NaN
151	1.000000	0.532815	7.36652e+06	-46189.1	955.818	-29770.4	0.000000	0.000000	6.532964	0.037226	NaN	0.000000	0.001675	0.001612	28.0864	0.076364	0.001962	38.9205	178.058	13.5728	-0.014850	0.531421	-0.605893	-0.607287	0.037226	38.9205	-0.606611	-1.026771E+8	-3.625496E-10	NaN
151	1.000000	0.542808	7.36652e+06	-46189.1	955.818	-29770.4	0.000000	0.000000	6.542956	0.008041	NaN	0.000000	0.001675	0.001600	28.0827	0.092478	0.001852	49.934	-153.991	-167.061	-0.003794	0.541474	-0.595900	-0.597234	0.008041	49.934	-0.596021	-7.339155E+7	-1.095651E-10	NaN
151	1.000000	0.552775	7.36652e+06	-46189.1	955.819	-29770.4	0.000000	0.000000	6.552924	0.045204	NaN	0.000000	0.001690	0.001626	28.1153	0.083010	0.002083	39.8584	-162.685	16.2271	0.091211	0.551476	-0.585933	-0.587232	0.045204	39.8584	-0.586784	-5.474156E+7	-8.257714E-10	NaN
151	1.000000	0.562792	7.36652e+06	-46189.1	955.818	-29770.4	0.000000	0.000000	6.562938	-0.022558	NaN	0.000000	0.001692	0.001647	28.1247	0.109026	0.001893	57.6022	-168.532	-165.091	0.064956	0.561492	-0.575916	-0.577216	-0.022558	57.6022	-0.575622	-3.839634E+7	5.874966E-10	NaN
151	1.000000	0.572834	7.36652e+06	-46189.1	955.818	-29770.4	0.000000	0.000000	6.572982	0.018242	NaN	0.000000	0.001658	0.001652	28.0863	0.032061	0.001984	16.1607	-141.273	14.9114	0.060414	0.571433	-0.565874	-0.567275	0.018242	16.1607	-0.566720	-2.892721E+7	-6.306238E-10	NaN
151	1.000000	0.582813	7.36652e+06	-46189.1	955.817	-29770.4	0.000000	0.000000	6.582963	0.068200	NaN	0.000000	0.001664	0.001652	28.0811	0.068510	0.001940	35.3122	-133.808	-164.038	-0.037312	0.581575	-0.555895	-0.557133	0.068200	35.3122	-0.557343	-2.145945E+7	-3.178080E-9	NaN
151	1.000000	0.592864	7.36652e+06	-46189.1	955.818	-29770.4	0.000000	0.000000	6.593012	0.014108	NaN	0.000000	0.001661	0.001673	28.1126	0.023138	0.001890	12.2412	-169.31	16.7172	0.093261	0.591455	-0.545844	-0.547253	0.014108	12.2412	-0.546709	-1.528823E+7	-9.227965E-10	NaN
151	1.000000	0.602835	7.36652e+06	-46189.1	955.819	-29770.4	0.000000	0.000000	6.602984	0.044164	NaN	0.000000	0.001704	0.001639	28.1244	0.037914	0.001966	19.2855	123.987	-163.519	0.099054	0.601585	-0.535873	-0.537123	0.044164	19.2855	-0.537590	-1.142701E+7	-3.864885E-9	NaN
151	1.000000	0.612823	7.36652e+06	-46189.1	955.818	-29770.4	0.000000	0.000000	6.612971	0.018466	NaN	0.000000	0.001711	0.001655	28.0856	0.072480	0.002048	35.3954	-38.6374	15.6898	0.014305	0.611463	-0.525885	-0.527245	0.018466	35.3954	-0.526277	-7.95885e+06	-2.320152E-9	NaN
151	1.000000	0.622870	7.36652e+06	-46189.1	955.818	-29770.4	0.000000	0.000000	6.623018	0.022389	NaN	0.000000	0.001717	0.001673	28.0801	0.045631	0.002058	22.1776	100.419	-167.031	0.043752	0.621549	-0.515838	-0.517159	0.022389	22.1776	-0.516595	-5.83763e+06	-3.835257E-9	NaN
151	1.000000	0.632848	7.36652e+06	-46189.1	955.819	-29770.4	0.000000	0.000000	6.632997	0.032914	NaN	0.000000	0.001697	0.001674	28.1132	0.051825	0.001958	26.4706	144.83	17.3014	-0.022528	0.631492	-0.505860	-0.507215	0.032914	26.4706	-0.506792	-4.26311e+06	-7.720632E-9	NaN
151	1.000000	0.642827	7.36652e+06	-46189.1	955.818	-29770.4	0.000000	0.000000	6.642976	0.025897	NaN	0.000000	0.001702	0.001681	28.1232	0.079621	0.001990	40.0143	175.044	-165.227	-0.038402	0.641541	-0.495881	-0.497166	0.025897	40.0143	-0.496366	-3.05003e+06	-8.490840E-9	NaN
151	1.000000	0.652854	7.36652e+06	-46189.1	955.818	-29770.4	0.000000	0.000000	6.652999	-0.071998	NaN	0.000000	0.001717	0.001668	28.0846	0.206911	0.001998	103.552	33.6465	12.5381	-0.087554	0.651509	-0.485854	-0.487199	-0.071998	103.552	-0.485332	-2.13863e+06	3.366530E-8	NaN
151	1.000000	0.662872	7.36652e+06	-46189.1	955.818	-29770.4	0.000000	0.000000	6.663022	0.076736	NaN	0.000000	0.001691	0.001675	28.0809	0.075212	0.001997	37.6547	-172.275	-165.427	0.065860	0.661525	-0.475836	-0.477182	0.076736	37.6547	-0.477365	-1.65435e+06	-4.638439E-8	NaN
151	1.000000	0.672880	7.36652e+06	-46189.1	955.818	-29770.4	0.000000	0.000000	6.673028	0.018731	NaN	0.000000	0.001706	0.001642	28.1128	0.039375	0.002072	19.0033	-67.8126	16.0942	0.022993	0.671505	-0.465828	-0.467203	0.018731	19.0033	-0.466567	-1.16746e+06	-1.604449E-8	NaN
151	1.000000	0.682861	7.36652e+06	-46189.1	955.819	-29770.4	0.000000	0.000000	6.683009	0.017722	NaN	0.000000	0.001681	0.001658	28.125	0.055587	0.002019	27.53	-85.2245	-163.36	-0.042916	0.681590	-0.455847	-0.457118	0.017722	27.53	-0.456330	-838343	-2.113921E-8	NaN
151	1.000000	0.692877	7.36652e+06	-46189.1	955.819	-29770.4	0.000000	0.000000	6.693024	-0.013557	NaN	0.000000	0.001689	0.001676	28.0859	0.088361	0.002027	43.6006	62.4055	14.6587	0.011975	0.691502	-0.445830	-0.447206	-0.013557	43.6006	-0.445597	-591986	2.290033E-8	NaN
151	1.000000	0.702903	7.36652e+06	-46189.1	955.818	-29770.4	0.000000	0.000000	6.703050	0.002626	NaN	0.000000	0.001713	0.001665	28.0805	0.131825	0.002041	64.5969	-56.0227	-164.318	0.062072	0.701614	-0.435805	-0.437094	0.002626	64.5969	-0.435836	-431081	-6.092641E-9	NaN
151	1.000000	0.712897	7.36652e+06	-46189.1	955.818	-29770.4	0.000000	0.000000	6.713043	-0.037090	NaN	0.000000	0.001723	0.001642	28.1132	0.121527	0.001934	62.8312	-93.6902	12.1741	0.051089	0.711520	-0.425811	-0.427188	-0.037090	62.8312	-0.425368	-306550	1.209909E-7	NaN
151	1.000000	0.722886	7.36652e+06	-46189.1	955.819	-29770.4	0.000000	0.000000	6.723031	-0.043580	NaN	0.000000	0.001723	0.001628	28.1239	0.103669	0.001979	52.3732	-26.8197	-163.457	-0.001749	0.721551	-0.415822	-0.417157	-0.043580	52.3732	-0.415198	-219921	1.981605E-7	NaN
151	1.000000	0.732898	7.36652e+06	-46189.1	955.818	-29770.4	0.000000	0.000000	6.733044	-0.028454	NaN	0.000000	0.001695	0.001633	28.0869	0.098747	0.002076	47.5557	-127.76	19.2493	-0.032921	0.731515	-0.405810	-0.407193	-0.028454	47.5557	-0.405361	-159363	1.785511E-7	NaN
151	1.000000	0.742885	7.36652e+06	-46189.1	955.818	-29770.4	0.000000	0.000000	6.743034	0.035913	NaN	0.000000	0.001719	0.001740	28.0815	0.128053	0.002030	63.0651	-148.293	-164.882	0.027905	0.741564	-0.395823	-0.397144	0.035913	63.0651	-0.396250	-118162	-3.039319E-7	NaN
151	1.000000	0.752877	7.36652e+06	-46189.1	955.818	-29770.4	0.000000	0.000000	6.753025	0.003059	NaN	0.000000	0.001727	0.001693	28.1131	0.073398	0.001932	37.9863	-138.389	13.7112	-0.001196	0.751507	-0.385831	-0.387201	0.003059	37.9863	-0.385891	-84013.7	-3.641310E-8	NaN
151	1.000000	0.762891	7.36652e+06	-46189.1	955.818	-29770.4	0.000000	0.000000	6.763036	-0.047182	NaN	0.000000	0.001675	0.001695	28.1266	0.066710	0.002008	33.2288	-85.1532	-166.38	-0.068298	0.761616	-0.375817	-0.377092	-0.047182	33.2288	-0.374752	-58144.7	8.114594E-7	NaN
151	1.000000	0.772915	7.36652e+06	-46189.1	955.818	-29770.4	0.000000	0.000000	6.773062	-0.023790	NaN	0.000000	0.001691	0.001699	28.0872	0.022902	0.002104	10.8846	-89.8387	14.9317	0.003824	0.771562	-0.365793	-0.367146	-0.023790	10.8846	-0.364153	-40910.6	5.815225E-7	NaN
151	1.000000	0.782889	7.36652e+06	-46189.1	955.818	-29770.4	0.000000	0.000000	6.783035	-0.041657	NaN	0.000000	0.001698	0.001707	28.0817	0.061067	0.001955	31.2357	-14.1041	-169.773	-0.105870	0.781638	-0.355819	-0.357070	-0.041657	31.2357	-0.354818	-29982.4	1.389400E-6	NaN
151	1.000000	0.792903	7.36652e+06	-46189.1	955.818	-29770.4	0.000000	0.000000	6.793050	-0.001065	NaN	0.000000	0.001720	0.001685	28.114	0.104616	0.002035	51.4171	146.589	13.8386	-0.040969	0.791514	-0.345805	-0.347193	-0.001065	51.4171	-0.345790	-22173.8	4.802928E-8	NaN
151	1.000000	0.802909	7.36652e+06	-46189.1	955.817	-29770.4	0.000000	0.000000	6.803056	-0.006977	NaN	0.000000	0.001752	0.001702	28.1254	0.077577	0.002109	36.7845	-167.934	-165.633	0.084461	0.801645	-0.335799	-0.337063	-0.006977	36.7845	-0.335657	-15782.6	4.420868E-7	NaN
151	1.000000	0.812924	7.36652e+06	-46189.1	955.818	-29770.4	0.000000	0.000000	6.813071	0.007837	NaN	0.000000	0.001684	0.001672	28.0857	0.085148	0.002011	42.3491	-53.0779	13.7291	-0.056842	0.811526	-0.325784	-0.327182	0.007837	42.3491	-0.325923	-11368	-6.894167E-7	NaN
151	1.000000	0.822929	7.36652e+06	-46189.1	955.818	-29770.4	0.000000	0.000000	6.823076	-0.007802	NaN	0.000000	0.001694	0.001630	28.0818	0.065178	0.001986	32.8262	177.748	-161.421	0.000521	0.821628	-0.315779	-0.317080	-0.007802	32.8262	-0.315600	-8013.21	9.736820E-7	NaN
151	1.000000	0.832929	7.36652e+06	-46189.1	955.818	-29770.4	0.000000	0.000000	6.833075	-0.029028	NaN	0.000000	0.001674	0.001654	28.1124	0.045562	0.001832	24.8703	-6.222684	11.3764	0.021580	0.831519	-0.305779	-0.307189	-0.029028	24.8703	-0.304904	-5565.78	5.215402E-6	NaN
151	1.000000	0.842919	7.36652e+06	-46189.1	955.819	-29770.4	0.000000	0.000000	6.843064	-0.051262	NaN	0.000000	0.001718	0.001660	28.1268	0.044378	0.002125	20.8874	97.9831	-162.13	-0.009361	0.841589	-0.295789	-0.297119	-0.051262	20.8874	-0.293948	-3822.78	1.340949E-5	NaN
151	1.000000	0.852920	7.36652e+06	-46189.1	955.818	-29770.4	0.000000	0.000000	6.853068	0.032998	NaN	0.000000	0.001649	0.001660	28.0872	0.110221	0.002096	52.5981	51.72	15.3348	-0.041770	0.851595	-0.285788	-0.287113	0.032998	52.5981	-0.286259	-2932.12	-1.125397E-5	NaN
151	1.000000	0.862932	7.36652e+06	-46189.1	955.818	-29770.4	0.000000	0.000000	6.863080	0.027235	NaN	0.000000	0.001704	0.001655	28.0823	0.037923	0.001989	19.0625	157.127	-166.513	0.058385	0.861631	-0.275776	-0.277076	0.027235	19.0625	-0.276848	-2115.24	-1.287553E-5	NaN
151	1.000000	0.872933	7.36652e+06	-46189.1	955.818	-29770.4	0.000000	0.000000	6.873083	0.045420	NaN	0.000000	0.001689	0.001684	28.1123	0.142846	0.002088	68.4238	-13.2795	11.8039	-0.027070	0.871588	-0.265774	-0.267120	0.045420	68.4238	-0.266272	-1461.49	-3.107772E-5	NaN
151	1.000000	0.882962	7.36652e+06	-46189.1	955.819	-29770.4	0.000000	0.000000	6.883110	0.010452	NaN	0.000000	0.001704	0.001646	28.1246	0.049458	0.002022	24.4598	69.0743	-161.607	-0.035930	0.881675	-0.255746	-0.257032	0.010452	24.4598	-0.256066	-1019.82	-1.024925E-5	NaN
151	1.000000	0.892982	7.36652e+06	-46189.1	955.819	-29770.4	0.000000	0.000000	6.893130	0.006023	NaN	0.000000	0.001656	0.001648	28.0853	0.032912	0.001944	16.9272	24.058	14.6542	0.078258	0.891539	-0.245726	-0.247169	0.006023	16.9272	-0.245992	-712.635	-8.451039E-6	NaN
151	1.000000	0.902954	7.36652e+06	-46189.1	955.818	-29770.4	0.000000	0.000000	6.903102	0.003770	NaN	0.000000	0.001674	0.001641	28.0808	0.089191	0.001996	44.6938	26.4365	-165.966	-0.026458	0.901624	-0.235754	-0.237084	0.003770	44.6938	-0.235817	-494.394	-7.625037E-6	NaN
151	1.000000	0.912965	7.36652e+06	-46189.1	955.818	-29770.4	0.000000	0.000000	6.913111	-0.024736	NaN	0.000000	0.001670	0.001688	28.1109	0.068024	0.001925	35.3285	70.4199	18.2707	-0.019283	0.911587	-0.225743	-0.227121	-0.024736	35.3285	-0.225218	-336.357	7.354190E-5	NaN
151	1.000000	0.922976	7.36652e+06	-46189.1	955.819	-29770.4	0.000000	0.000000	6.923124	0.031330	NaN	0.000000	0.001672	0.001658	28.1259	0.035040	0.002097	16.7133	159.628	-166.53	0.066163	0.921641	-0.215732	-0.217067	0.031330	16.7133	-0.217138	-249.951	-0.000125	NaN
151	1.000000	0.932987	7.36652e+06	-46189.1	955.819	-29770.4	0.000000	0.000000	6.933133	-0.025034	NaN	0.000000	0.001657	0.001673	28.0854	0.067256	0.002009	33.4731	-140.276	18.0806	-0.017934	0.931602	-0.205721	-0.207106	-0.025034	33.4731	-0.205160	-160.018	0.000156	NaN
151	1.000000	0.942976	7.36652e+06	-46189.1	955.819	-29770.4	0.000000	0.000000	6.943123	-0.006442	NaN	0.000000	0.001682	0.001683	28.0824	0.058513	0.002063	28.3692	-43.6345	-162.671	0.045558	0.941659	-0.195732	-0.197049	-0.006442	28.3692	-0.195561	-111.301	5.788076E-5	NaN
151	1.000000	0.952956	7.36652e+06	-46189.1	955.818	-29770.4	0.000000	0.000000	6.953104	0.020564	NaN	0.000000	0.001689	0.001665	28.1123	0.067389	0.002022	33.3277	-167.037	15.0608	0.020048	0.951622	-0.185752	-0.187086	0.020564	33.3277	-0.186215	-77.7288	-0.000265	NaN
151	1.000000	0.962992	7.36652e+06	-46189.1	955.819	-29770.4	0.000000	0.000000	6.963140	0.015747	NaN	0.000000	0.001685	0.001676	28.1244	0.076660	0.001884	40.6955	62.9845	-163.07	0.027124	0.961661	-0.175716	-0.177047	0.015747	40.6955	-0.176006	-52.1502	-0.000302	NaN
151	1.000000	0.972993	7.36652e+06	-46189.1	955.817	-29770.4	0.000000	0.000000	6.973142	0.020558	NaN	0.000000	0.001697	0.001712	28.0846	0.127499	0.002104	60.5898	137.823	13.1633	0.100356	0.971582	-0.165715	-0.167125	0.020558	60.5898	-0.165969	-34.9384	-0.000588	NaN
151	1.000000	0.982977	7.36652e+06	-46189.1	955.817	-29770.4	0.000000	0.000000	6.983124	-0.013352	NaN	0.000000	0.001735	0.001699	28.0794	0.027015	0.001933	13.975	131.729	-164.676	-0.010083	0.981672	-0.155731	-0.157036	-0.013352	13.975	-0.155015	-22.3276	0.000598	NaN
151	1.000000	0.993018	7.36652e+06	-46189.1	955.817	-29770.4	0.000000	0.000000	6.993166	0.013227	NaN	0.000000	0.001711	0.001703	28.1106	0.045268	0.002083	21.7305	135.398	18.0788	-0.024314	0.991621	-0.145690	-0.147087	0.013227	21.7305	-0.146146	-15.3934	-0.000859	NaN
151	1.000000	1.002974	7.36652e+06	-46189.1	955.818	-29770.4	0.000000	0.000000	7.003116	-0.124620	NaN	0.000000	0.001685	0.001719	28.1272	0.095206	0.001982	48.0294	6.029676	-166.074	-0.088404	1.001689	-0.135734	-0.137019	-0.124620	48.0294	-0.133788	-9.017886	0.013819	NaN
151	1.000000	1.012982	7.36652e+06	-46189.1	955.818	-29770.4	0.000000	0.000000	7.013129	-0.014064	NaN	0.000000	0.001652	0.001707	28.0871	0.060350	0.002002	30.1379	75.2411	16.4868	0.033211	1.011646	-0.125726	-0.127061	-0.014064	30.1379	-0.125376	-6.186200	0.002273	NaN
151	1.000000	1.023009	7.36652e+06	-46189.1	955.818	-29770.4	0.000000	0.000000	7.023156	-0.029632	NaN	0.000000	0.001672	0.001691	28.0818	0.066924	0.001991	33.6084	97.9553	-163.581	0.019388	1.021713	-0.115698	-0.116995	-0.029632	33.6084	-0.115037	-3.827111	0.007743	NaN
151	1.000000	1.032988	7.36652e+06	-46189.1	955.818	-29770.4	0.000000	0.000000	7.033137	0.042232	NaN	0.000000	0.001659	0.001695	28.1123	0.073212	0.001995	36.7023	-138.987	16.2128	-0.033091	1.031628	-0.105720	-0.107080	0.042232	36.7023	-0.106583	-2.542295	-0.016612	NaN
151	1.000000	1.042997	7.36652e+06	-46189.1	955.818	-29770.4	0.000000	0.000000	7.043145	-0.003507	NaN	0.000000	0.001681	0.001688	28.1264	0.030925	0.001840	16.806	-101.85	-161.404	0.028418	1.041677	-0.095710	-0.097031	-0.003507	16.806	-0.095554	-1.452164	0.002415	NaN
151	1.000000	1.053033	7.36652e+06	-46189.1	955.819	-29770.4	0.000000	0.000000	7.053177	-0.078649	NaN	0.000000	0.001676	0.001762	28.0872	0.128685	0.001940	66.3492	102.528	15.8842	-0.038219	1.051705	-0.085675	-0.087003	-0.078649	66.3492	-0.084786	-0.811878	0.096873	NaN
151	1.000000	1.063008	7.36652e+06	-46189.1	955.819	-29770.4	0.000000	0.000000	7.063156	0.026102	NaN	0.000000	0.001630	0.001797	28.0802	0.027435	0.001974	13.8961	-35.9111	-167.568	0.030385	1.061694	-0.075700	-0.077014	0.026102	13.8961	-0.077109	-0.523225	-0.049888	NaN
151	1.000000	1.073039	7.36652e+06	-46189.1	955.819	-29770.4	0.000000	0.000000	7.073186	-0.011551	NaN	0.000000	0.001617	0.001715	28.1109	0.046774	0.002039	22.9373	-89.7935	16.1161	0.040668	1.071651	-0.065669	-0.067057	-0.011551	22.9373	-0.065291	-0.253887	0.045495	NaN
151	1.000000	1.083023	7.36652e+06	-46189.1	955.819	-29770.4	0.000000	0.000000	7.083168	-0.046754	NaN	0.000000	0.001707	0.001705	28.1274	0.072573	0.001955	37.1297	90.5916	-164.934	-0.078616	1.081776	-0.055685	-0.056932	-0.046754	37.1297	-0.054741	-0.126523	0.369526	NaN
151	1.000000	1.093041	7.36652e+06	-46189.1	955.819	-29770.4	0.000000	0.000000	7.093188	-0.007850	NaN	0.000000	0.001688	0.001714	28.0874	0.083019	0.002051	40.481	162.261	11.142	0.020857	1.091653	-0.045667	-0.047054	-0.007850	40.481	-0.045521	-0.066671	0.117747	NaN
151	1.000000	1.103039	7.36652e+06	-46189.1	955.819	-29770.4	0.000000	0.000000	7.103184	-0.048413	NaN	0.000000	0.001699	0.001699	28.0812	0.041326	0.001958	21.1044	-77.9059	-162.142	0.006285	1.101664	-0.035669	-0.037044	-0.048413	21.1044	-0.033949	-0.029831	1.622886	NaN
151	1.000000	1.113051	7.36652e+06	-46189.1	955.819	-29770.4	0.000000	0.000000	7.113200	0.036512	NaN	0.000000	0.001683	0.001724	28.1121	0.050604	0.002008	25.2055	87.0238	14.9679	-0.066935	1.111667	-0.025657	-0.027041	0.036512	25.2055	-0.026743	-0.018756	-1.946681	NaN
151	1.000000	1.123044	7.36652e+06	-46189.1	955.818	-29770.4	0.000000	0.000000	7.123193	0.049338	NaN	0.000000	0.001674	0.001663	28.1269	0.034540	0.001915	18.0389	61.188	-169.1	0.010938	1.121717	-0.015664	-0.016991	0.049338	18.0389	-0.017716	-0.010974	-4.495782	NaN
151	1.000000	1.133066	7.36652e+06	-46189.1	955.819	-29770.4	0.000000	0.000000	7.133214	0.024776	NaN	0.000000	0.001699	0.001697	28.0876	0.073974	0.001918	38.5583	151.299	14.4005	0.047146	1.131670	-0.005642	-0.007037	0.024776	38.5583	-0.006124	-0.004112	-6.025403	NaN
151	1.000000	1.143024	7.36652e+06	-46189.1	955.819	-29770.4	0.000000	0.000000	7.143250	1.917256	NaN	0.000000	0.001699	0.001682	28.0804	2.762057	0.002009	1374.76	8.062803	-166.868	0.754788	1.141782	0.004316	0.003074	1.917256	1374.76	0.003270	0.002608	735.042	24593.2
151	2.000000	1.150194	7.36652e+06	-46189.1	955.818	-29770.4	0.000000	0.000000	7.150746	9.860514	NaN	0.000000	0.001721	0.001680	28.1097	9.367469	0.001612	5812.09	5.566536	10.5785	9.577647	1.149870	0.011486	0.011162	9.860514	5812.09	0.010213	0.009420	1046.8	54712.8
151	2.000000	1.152703	7.36652e+06	-46189.1	955.818	-29770.4	0.000000	0.000000	7.153339	11.8901	NaN	0.000000	0.001626	0.001703	28.1271	12.2307	0.001814	6741.85	8.757501	-173.518	11.9531	1.152394	0.013995	0.013686	11.8901	6741.85	0.012672	0.012305	966.274	55527.7
151	2.000000	1.155201	7.36652e+06	-46189.1	955.819	-29770.4	0.000000	0.000000	7.156023	16.4086	NaN	0.000000	0.001675	0.001728	28.0874	14.2347	0.001700	8373.52	2.949036	10.5318	16.5638	1.154794	0.016493	0.016086	16.4086	8373.52	0.015024	0.015317	1071.28	61815.3
151	2.000000	1.157646	7.36652e+06	-46189.1	955.819	-29770.4	0.000000	0.000000	7.158574	18.9821	NaN	0.000000	0.001640	0.001707	28.0809	16.9329	0.001713	9883.68	6.731268	-175.766	18.9438	1.157279	0.018938	0.018571	18.9821	9883.68	0.017498	0.018762	1011.73	65925.2
151	2.000000	1.160145	7.36652e+06	-46189.1	955.819	-29770.4	0.000000	0.000000	7.161239	23.0228	NaN	0.000000	0.001668	0.001672	28.1104	19.755	0.001837	10756.6	8.326594	3.279324	23.3192	1.159758	0.021437	0.021050	23.0228	10756.6	0.019832	0.022279	1033.39	65841.7
151	2.000000	1.162612	7.36652e+06	-46189.1	955.818	-29770.4	0.000000	0.000000	7.163802	25.3509	NaN	0.000000	0.001676	0.001647	28.1254	22.083	0.001863	11851.3	6.604254	-177.993	24.6591	1.162374	0.023904	0.023666	25.3509	11851.3	0.022300	0.026286	964.41	66784
151	2.000000	1.165119	7.36652e+06	-46189.1	955.818	-29770.4	0.000000	0.000000	7.166572	31.761	NaN	0.000000	0.001653	0.001633	28.0853	23.557	0.001736	13567.8	4.255583	3.922174	30.8484	1.164770	0.026411	0.026062	31.761	13567.8	0.024655	0.030391	1045.08	71106.3
151	2.000000	1.167654	7.36652e+06	-46189.1	955.819	-29770.4	0.000000	0.000000	7.169364	38.0082	NaN	0.000000	0.001691	0.001688	28.0791	26.0083	0.001714	15177.2	6.282689	-178.66	39.1649	1.167262	0.028946	0.028554	38.0082	15177.2	0.027068	0.034885	1089.53	74241.6
151	2.000000	1.170067	7.36652e+06	-46189.1	955.817	-29770.4	0.000000	0.000000	7.172009	43.661	NaN	0.000000	0.001688	0.001672	28.1087	29.6444	0.001913	15492.6	6.407637	0.824481	41.4936	1.169743	0.031359	0.031035	43.661	15492.6	0.029245	0.039194	1113.97	71496.9
151	2.000000	1.172581	7.36652e+06	-46189.1	955.819	-29770.4	0.000000	0.000000	7.174812	50.6922	NaN	0.000000	0.001647	0.001680	28.1266	31.685	0.001820	17404.8	5.014249	-179.265	49.7186	1.172270	0.033873	0.033562	50.6922	17404.8	0.031688	0.044316	1143.89	75537.8
151	2.000000	1.175124	7.36652e+06	-46189.1	955.818	-29770.4	0.000000	0.000000	7.177764	60.6449	NaN	0.000000	0.001671	0.001677	28.087	33.3396	0.001811	18406.4	7.529844	-1.734618	59.1031	1.174719	0.036416	0.036011	60.6449	18406.4	0.033945	0.049317	1229.69	75725.6
151	2.000000	1.177571	7.36652e+06	-46189.1	955.818	-29770.4	0.000000	0.000000	7.180414	65.5519	NaN	0.000000	0.001646	0.001648	28.0814	35.2563	0.001801	19572	5.556021	179.679	63.9057	1.177262	0.038863	0.038554	65.5519	19572	0.036351	0.054940	1193.16	76289.5
151	2.000000	1.180039	7.36652e+06	-46189.1	955.818	-29770.4	0.000000	0.000000	7.183167	72.5238	NaN	0.000000	0.001674	0.001671	28.1104	38.8243	0.001938	20034.5	3.471196	1.211309	69.4299	1.179763	0.041331	0.041055	72.5238	20034.5	0.038616	0.060500	1198.75	74417.6
151	2.000000	1.182571	7.36652e+06	-46189.1	955.818	-29770.4	0.000000	0.000000	7.186140	83.2305	NaN	0.000000	0.001672	0.001677	28.1266	40.3736	0.001764	22893.4	3.526224	179.821	81.3488	1.182272	0.043863	0.043564	83.2305	22893.4	0.041136	0.066998	1242.28	80807.8
151	2.000000	1.185064	7.36652e+06	-46189.1	955.818	-29770.4	0.000000	0.000000	7.188991	91.9405	NaN	0.000000	0.001657	0.001700	28.0878	41.9626	0.001812	23158.6	4.691775	-0.641526	89.8296	1.184737	0.046356	0.046029	91.9405	23158.6	0.043379	0.073051	1258.57	78283.8
151	2.000000	1.187594	7.36652e+06	-46189.1	955.817	-29770.4	0.000000	0.000000	7.191987	103.267	NaN	0.000000	0.001667	0.001673	28.0797	43.8732	0.001827	24014.9	3.999463	178.991	102.512	1.187236	0.048887	0.048528	103.267	24014.9	0.045661	0.079476	1299.35	77827.9
151	2.000000	1.190050	7.36652e+06	-46189.1	955.818	-29770.4	0.000000	0.000000	7.194935	115.246	NaN	0.000000	0.001668	0.001691	28.1099	46.9171	0.001814	25861.9	2.615448	-0.366752	112.127	1.189589	0.051342	0.050882	115.246	25861.9	0.048000	0.086332	1334.91	80417
151	2.000000	1.192578	7.36652e+06	-46189.1	955.817	-29770.4	0.000000	0.000000	7.197733	121.822	NaN	0.000000	0.001672	0.001643	28.1279	50.3418	0.001877	26820.5	7.146340	175.296	123.042	1.192194	0.053870	0.053486	121.822	26820.5	0.050464	0.093851	1298.04	79987.2
151	2.000000	1.195076	7.36652e+06	-46189.1	955.817	-29770.4	0.000000	0.000000	7.200756	134.587	NaN	0.000000	0.001661	0.001691	28.088	51.9408	0.001776	29246.8	7.218725	-6.044872	133.691	1.194787	0.056368	0.056079	134.587	29246.8	0.052917	0.101641	1324.13	83813.9
151	2.000000	1.197587	7.36652e+06	-46189.1	955.817	-29770.4	0.000000	0.000000	7.203752	146.382	NaN	0.000000	0.001668	0.001690	28.0813	53.947	0.001742	30970.8	5.276418	175.221	146.876	1.197213	0.058879	0.058505	146.382	30970.8	0.055334	0.109612	1335.46	85466.5
151	2.000000	1.200019	7.36652e+06	-46189.1	955.818	-29770.4	0.000000	0.000000	7.206652	157.776	NaN	0.000000	0.001677	0.001677	28.1097	57.7415	0.001910	30227.4	6.556699	-5.586434	155.115	1.199689	0.061311	0.060981	157.776	30227.4	0.057396	0.116637	1352.71	80864
151	2.000000	1.202563	7.36652e+06	-46189.1	955.819	-29770.4	0.000000	0.000000	7.209711	170.286	NaN	0.000000	0.001649	0.001668	28.1268	60.3414	0.001836	32865.2	7.215893	173.229	169.489	1.202230	0.063855	0.063522	170.286	32865.2	0.059969	0.125698	1354.72	84692.6
151	2.000000	1.205038	7.36652e+06	-46189.1	955.819	-29770.4	0.000000	0.000000	7.212932	188.426	NaN	0.000000	0.001699	0.001649	28.0883	60.3631	0.001774	34023.9	2.528843	-1.957118	183.677	1.204691	0.066330	0.065983	188.426	34023.9	0.062177	0.133730	1409.01	85004.8
151	2.000000	1.207508	7.36652e+06	-46189.1	955.819	-29770.4	0.000000	0.000000	7.216008	203.172	NaN	0.000000	0.001648	0.001689	28.0803	62.4744	0.001815	34424.8	4.669479	175.084	201.193	1.207201	0.068800	0.068493	203.172	34424.8	0.064374	0.141958	1431.21	83476.7
151	2.000000	1.209936	7.36652e+06	-46189.1	955.82	-29770.4	0.000000	0.000000	7.218870	213.735	NaN	0.000000	0.001669	0.001662	28.1096	64.9138	0.001753	37036.5	2.688057	-3.059633	207.869	1.209629	0.071228	0.070922	213.735	37036.5	0.066900	0.151706	1408.87	86876.3
151	2.000000	1.212478	7.36652e+06	-46189.1	955.819	-29770.4	0.000000	0.000000	7.221914	225.957	NaN	0.000000	0.001649	0.001692	28.128	68.8898	0.001732	39781.8	3.240185	175.509	222.289	1.212243	0.073770	0.073535	225.957	39781.8	0.069510	0.162099	1393.94	90274.9
151	2.000000	1.214963	7.36652e+06	-46189.1	955.82	-29770.4	0.000000	0.000000	7.225230	246.147	NaN	0.000000	0.001656	0.001674	28.0877	71.1178	0.001794	39638.1	4.924124	-5.530676	239.265	1.214651	0.076256	0.075943	246.147	39638.1	0.071598	0.170650	1442.41	87666.3
151	2.000000	1.217526	7.36652e+06	-46189.1	955.818	-29770.4	0.000000	0.000000	7.228185	255.681	NaN	0.000000	0.001661	0.001661	28.0808	74.154	0.001784	41568.7	6.967908	171.242	255.279	1.217299	0.078818	0.078592	255.681	41568.7	0.074205	0.181614	1407.82	89117.8
151	2.000000	1.219998	7.36652e+06	-46189.1	955.818	-29770.4	0.000000	0.000000	7.231587	278.318	NaN	0.000000	0.001663	0.001650	28.1093	75.036	0.001610	46594.4	2.620313	-5.463963	274.022	1.219648	0.081290	0.080940	278.318	46594.4	0.076810	0.192888	1442.9	96929.2
151	2.000000	1.222458	7.36652e+06	-46189.1	955.82	-29770.4	0.000000	0.000000	7.234710	294.449	NaN	0.000000	0.001641	0.001707	28.1264	79.955	0.001771	45156.9	2.414739	174.707	288.54	1.222126	0.083750	0.083418	294.449	45156.9	0.078860	0.201983	1457.79	91799.5
151	2.000000	1.224967	7.36652e+06	-46189.1	955.818	-29770.4	0.000000	0.000000	7.237868	310.234	NaN	0.000000	0.001620	0.001678	28.0861	82.9371	0.001944	42669.8	5.519146	-7.628696	305.414	1.224653	0.086259	0.085945	310.234	42669.8	0.080806	0.210801	1471.69	84909.7
151	2.000000	1.227497	7.36652e+06	-46189.1	955.819	-29770.4	0.000000	0.000000	7.241208	329.95	NaN	0.000000	0.001616	0.001672	28.0788	83.6536	0.001832	45667.4	3.967090	173.523	329.11	1.227224	0.088789	0.088516	329.95	45667.4	0.083370	0.222687	1481.68	88416.2
151	2.000000	1.230042	7.36652e+06	-46189.1	955.819	-29770.4	0.000000	0.000000	7.244389	345.425	NaN	0.000000	0.001643	0.001669	28.1081	86.1788	0.001820	47357.8	6.170648	-8.723759	345.669	1.229565	0.091334	0.090857	345.425	47357.8	0.085863	0.234537	1472.79	89342.6
151	2.000000	1.232495	7.36652e+06	-46189.1	955.819	-29770.4	0.000000	0.000000	7.247495	361.285	NaN	0.000000	0.001634	0.001721	28.1273	87.9054	0.001700	51706.6	2.374972	173.77	358.042	1.232237	0.093787	0.093529	361.285	51706.6	0.088547	0.247613	1459.07	94936.5
151	2.000000	1.235012	7.36652e+06	-46189.1	955.819	-29770.4	0.000000	0.000000	7.250872	382.229	NaN	0.000000	0.001678	0.001712	28.0877	88.7945	0.001772	50100	0.715815	-4.232231	379.462	1.234738	0.096304	0.096030	382.229	50100	0.090582	0.257747	1482.96	90160
151	2.000000	1.237472	7.36652e+06	-46189.1	955.819	-29770.4	0.000000	0.000000	7.254049	399.668	NaN	0.000000	0.001653	0.001688	28.0805	91.341	0.001724	52980.8	2.138906	173.654	397.927	1.237241	0.098764	0.098534	399.668	52980.8	0.093106	0.270581	1477.07	93055.6
151	2.000000	1.239859	7.36652e+06	-46189.1	955.818	-29770.4	0.000000	0.000000	7.257388	422.806	NaN	0.000000	0.001638	0.001664	28.1079	95.5718	0.001783	53611.8	4.452239	-8.771962	413.845	1.239523	0.101151	0.100815	422.806	53611.8	0.095236	0.281641	1501.23	92296.6
151	2.000000	1.242453	7.36652e+06	-46189.1	955.819	-29770.4	0.000000	0.000000	7.260832	443.483	NaN	0.000000	0.001658	0.001693	28.1262	98.0477	0.001779	55125.5	5.323679	170.309	439.752	1.242112	0.103745	0.103404	443.483	55125.5	0.097711	0.294749	1504.61	92768.3
151	2.000000	1.244936	7.36652e+06	-46189.1	955.819	-29770.4	0.000000	0.000000	7.263939	458.682	NaN	0.000000	0.001634	0.001679	28.087	100.133	0.001775	56410.2	5.079974	-10.3287	451.915	1.244721	0.106228	0.106013	458.682	56410.2	0.100130	0.307827	1490.06	92891.8
151	2.000000	1.247444	7.36652e+06	-46189.1	955.82	-29770.4	0.000000	0.000000	7.267354	480.731	NaN	0.000000	0.001641	0.001689	28.08	101.27	0.001805	56104.7	6.733037	168.38	476.076	1.247121	0.108736	0.108414	480.731	56104.7	0.102310	0.319846	1503.01	90636.2