File: remote_trans/data/nanoindenter/0828-1/data/Data_2025-08-06,11h17m57s/2025-07-22_16-23-58_1_1063.txt
2025-07-22, 16:23:58, 1
Index	Phase	Displacement	Time	Pos X	Pos Y	Pos Z	Rot A	Rot B	Piezo Z	Force A	Force B	Gripper	Voltage A	Voltage B	Temperature	Amplitude force	Amplitude pos	Stiffness	Phase shift	Phase excitation	Force A raw	Displacement raw	HMax	HMax raw	Real Force	Real Stiffness	Contact Depth	Area	Hardness	Reduced Mod.
[#]	[#]	[um]	[s]	[um]	[um]	[um]	[m°]	[m°]	[um]	[uN]	[uN]	[V]	[V]	[V]	[°C]	[uN]	[um]	[N/m]	[°]	[°]	[uN]	[um]	[um]	[um]	[uN]	[N/m]	[um]	[um^2]	[MPa]	[MPa]
1063	1.000000	0.002556	7.37544e+06	-53289.1	1055.82	-29746.6	0.000000	0.000000	6.002784	0.050810	NaN	0.000000	0.001663	0.001632	28.0834	0.041190	0.001022	40.3017	99.9707	-162.714	-0.042391	0.001308	-1.106737	-1.107985	0.050810	40.3017	-1.107682	-6.356008E+14	-7.993981E-17	NaN
1063	1.000000	0.012630	7.37544e+06	-53289.1	1055.82	-29746.6	0.000000	0.000000	6.012856	0.024900	NaN	0.000000	0.001595	0.001665	28.0836	0.050701	0.001101	46.0368	-28.2608	21.1316	0.064646	0.011264	-1.096663	-1.098029	0.024900	46.0368	-1.097069	-4.578490E+14	-5.438417E-17	NaN
1063	1.000000	0.022530	7.37544e+06	-53289.1	1055.82	-29746.6	0.000000	0.000000	6.022759	0.063082	NaN	0.000000	0.001614	0.001615	28.0833	0.086000	0.001640	52.4253	175.161	-165.67	0.066135	0.021186	-1.086763	-1.088107	0.063082	52.4253	-1.087665	-3.423414E+14	-1.842665E-16	NaN
1063	1.000000	0.032519	7.37544e+06	-53289.1	1055.82	-29746.6	0.000000	0.000000	6.032747	0.059617	NaN	0.000000	0.001617	0.001657	28.0821	0.012462	0.001889	6.595802	-165.675	14.064	0.076422	0.031193	-1.076774	-1.078100	0.059617	6.595802	-1.083553	-3.014641E+14	-1.977595E-16	NaN
1063	1.000000	0.042514	7.37544e+06	-53289.1	1055.82	-29746.6	0.000000	0.000000	6.042740	0.001893	NaN	0.000000	0.001643	0.001652	28.0824	0.070363	0.001867	37.6945	-155.227	-166.221	0.096691	0.041194	-1.066779	-1.068099	0.001893	37.6945	-1.066816	-1.796453E+14	-1.053746E-17	NaN
1063	1.000000	0.052570	7.37544e+06	-53289.1	1055.82	-29746.6	0.000000	0.000000	6.052794	-0.040741	NaN	0.000000	0.001609	0.001658	28.0823	0.103638	0.002088	49.6233	150.137	12.4919	0.013258	0.051086	-1.056723	-1.058207	-0.040741	49.6233	-1.056107	-1.289749E+14	3.158844E-16	NaN
1063	1.000000	0.062518	7.37544e+06	-53289.1	1055.82	-29746.6	0.000000	0.000000	6.062745	0.038871	NaN	0.000000	0.001576	0.001658	28.082	0.056850	0.001929	29.4675	108.495	-169.359	-0.015237	0.061243	-1.046775	-1.048050	0.038871	29.4675	-1.047764	-9.962211E+13	-3.901808E-16	NaN
1063	1.000000	0.072565	7.37544e+06	-53289.1	1055.82	-29746.6	0.000000	0.000000	6.072790	-0.003255	NaN	0.000000	0.001582	0.001663	28.0821	0.152820	0.002153	70.9835	3.338292	11.6129	-0.000450	0.071129	-1.036729	-1.038164	-0.003255	70.9835	-1.036694	-7.071514E+13	4.602715E-17	NaN
1063	1.000000	0.082517	7.37544e+06	-53289.1	1055.82	-29746.6	0.000000	0.000000	6.082742	-0.022855	NaN	0.000000	0.001599	0.001648	28.0824	0.037409	0.002001	18.6906	-176.293	-167.452	-0.023675	0.081232	-1.026776	-1.028061	-0.022855	18.6906	-1.025859	-5.055635E+13	4.520725E-16	NaN
1063	1.000000	0.092514	7.37544e+06	-53289.1	1055.82	-29746.6	0.000000	0.000000	6.092740	0.022366	NaN	0.000000	0.001604	0.001682	28.0821	0.031687	0.001914	16.5528	-92.4284	15.5046	0.022807	0.091208	-1.016779	-1.018085	0.022366	16.5528	-1.017793	-3.937768E+13	-5.679882E-16	NaN
1063	1.000000	0.102534	7.37545e+06	-53289.1	1055.82	-29746.6	0.000000	0.000000	6.102761	0.019018	NaN	0.000000	0.001607	0.001760	28.0821	0.082085	0.001982	41.4056	138.477	-165.267	0.030960	0.101255	-1.006759	-1.008039	0.019018	41.4056	-1.007103	-2.827428E+13	-6.726101E-16	NaN
1063	1.000000	0.112570	7.37545e+06	-53289.1	1055.82	-29746.6	0.000000	0.000000	6.112798	0.079032	NaN	0.000000	0.001610	0.001761	28.0822	0.070519	0.001940	36.3552	105.899	14.7736	0.067051	0.111150	-0.996724	-0.998144	0.079032	36.3552	-0.998354	-2.155796E+13	-3.666021E-15	NaN
1063	1.000000	0.122540	7.37545e+06	-53289.1	1055.82	-29746.6	0.000000	0.000000	6.122770	0.123078	NaN	0.000000	0.001596	0.001769	28.0824	0.022685	0.001922	11.8016	148.582	-166.381	0.059494	0.121242	-0.986753	-0.988051	0.123078	11.8016	-0.994575	-1.917452E+13	-6.418829E-15	NaN
1063	1.000000	0.132559	7.37545e+06	-53289.1	1055.82	-29746.6	0.000000	0.000000	6.132787	0.056842	NaN	0.000000	0.001577	0.001766	28.0824	0.068032	0.001971	34.5197	-3.351203	15.634	0.091903	0.131189	-0.976734	-0.978104	0.056842	34.5197	-0.977969	-1.145639E+13	-4.961642E-15	NaN
1063	1.000000	0.142588	7.37545e+06	-53289.1	1055.82	-29746.6	0.000000	0.000000	6.142814	0.015526	NaN	0.000000	0.001648	0.001721	28.0824	0.078816	0.001927	40.9085	-60.7175	-163.012	0.029131	0.141238	-0.966705	-0.968055	0.015526	40.9085	-0.966990	-8.148745E+12	-1.905326E-15	NaN
1063	1.000000	0.152530	7.37545e+06	-53289.1	1055.82	-29746.6	0.000000	0.000000	6.152757	0.022499	NaN	0.000000	0.001616	0.001711	28.0826	0.053477	0.001968	27.1775	160.574	10.8469	0.029173	0.151185	-0.956763	-0.958108	0.022499	27.1775	-0.957384	-6.047759E+12	-3.720179E-15	NaN
1063	1.000000	0.162584	7.37545e+06	-53289.1	1055.82	-29746.6	0.000000	0.000000	6.162811	0.042474	NaN	0.000000	0.001640	0.001762	28.0834	0.016882	0.002075	8.135449	-135.39	-168.081	-0.005689	0.161278	-0.946710	-0.948015	0.042474	8.135449	-0.950625	-4.902976E+12	-8.662843E-15	NaN
1063	1.000000	0.172557	7.37545e+06	-53289.1	1055.82	-29746.6	0.000000	0.000000	6.172786	0.070989	NaN	0.000000	0.001624	0.001767	28.0836	0.012293	0.002031	6.051507	173.037	13.7327	0.020466	0.171229	-0.936736	-0.938064	0.070989	6.051507	-0.945534	-4.185909E+12	-1.695896E-14	NaN
1063	1.000000	0.182595	7.37545e+06	-53289.1	1055.82	-29746.6	0.000000	0.000000	6.182821	0.014664	NaN	0.000000	0.001643	0.001691	28.0837	0.040837	0.002110	19.3514	143.263	-165.966	-0.019356	0.181258	-0.926698	-0.928035	0.014664	19.3514	-0.927266	-2.373018E+12	-6.179495E-15	NaN
1063	1.000000	0.192571	7.37545e+06	-53289.1	1055.82	-29746.6	0.000000	0.000000	6.192798	0.049459	NaN	0.000000	0.001654	0.001722	28.0842	0.049823	0.001933	25.7801	151.876	10.9973	0.031355	0.191202	-0.916722	-0.918091	0.049459	25.7801	-0.918161	-1.788042E+12	-2.766072E-14	NaN
1063	1.000000	0.202590	7.37545e+06	-53289.1	1055.82	-29746.6	0.000000	0.000000	6.202816	0.009061	NaN	0.000000	0.001627	0.001713	28.0839	0.039157	0.002113	18.5307	-143.651	-164.702	0.032251	0.201284	-0.906703	-0.908009	0.009061	18.5307	-0.907070	-1.266437E+12	-7.154678E-15	NaN
1063	1.000000	0.212580	7.37545e+06	-53289.1	1055.82	-29746.6	0.000000	0.000000	6.212808	0.064476	NaN	0.000000	0.001615	0.001689	28.0839	0.032419	0.002007	16.1558	79.1768	16.3049	0.058659	0.211199	-0.896713	-0.898094	0.064476	16.1558	-0.899706	-1.007160E+12	-6.401791E-14	NaN
1063	1.000000	0.222587	7.37545e+06	-53289.1	1055.82	-29746.6	0.000000	0.000000	6.222813	0.024931	NaN	0.000000	0.001662	0.001711	28.0839	0.022964	0.002099	10.9392	125.216	-166.59	0.027854	0.221344	-0.886707	-0.887949	0.024931	10.9392	-0.888416	-7.087620E+11	-3.517535E-14	NaN
1063	1.000000	0.232608	7.37545e+06	-53289.1	1055.82	-29746.6	0.000000	0.000000	6.232836	0.055214	NaN	0.000000	0.001632	0.001697	28.0837	0.053940	0.002042	26.4209	96.9646	14.1229	0.009518	0.231280	-0.876685	-0.878013	0.055214	26.4209	-0.878252	-5.165045E+11	-1.069000E-13	NaN
1063	1.000000	0.242618	7.37545e+06	-53289.1	1055.82	-29746.6	0.000000	0.000000	6.242846	0.077836	NaN	0.000000	0.001583	0.001719	28.0837	0.026398	0.001956	13.4969	-20.8174	-167.76	0.069512	0.241272	-0.866675	-0.868021	0.077836	13.4969	-0.871001	-4.120805E+11	-1.888862E-13	NaN
1063	1.000000	0.252617	7.37545e+06	-53289.1	1055.82	-29746.6	0.000000	0.000000	6.252845	0.062729	NaN	0.000000	0.001621	0.001727	28.0835	0.071762	0.002020	35.5292	-132.338	14.6232	0.049688	0.251224	-0.856676	-0.858070	0.062729	35.5292	-0.858001	-2.748251E+11	-2.282513E-13	NaN
1063	1.000000	0.262603	7.37545e+06	-53289.1	1055.82	-29746.6	0.000000	0.000000	6.262828	-0.019425	NaN	0.000000	0.001574	0.001730	28.0841	0.033374	0.001989	16.7791	118.241	-164.036	0.060751	0.261359	-0.846690	-0.847934	-0.019425	16.7791	-0.845822	-1.879980E+11	1.033232E-13	NaN
1063	1.000000	0.272592	7.37545e+06	-53289.1	1055.82	-29746.6	0.000000	0.000000	6.272818	0.016296	NaN	0.000000	0.001613	0.001755	28.0837	0.064795	0.002008	32.2626	50.7761	14.4945	0.034510	0.271266	-0.836701	-0.838027	0.016296	32.2626	-0.837080	-1.431299E+11	-1.138513E-13	NaN
1063	1.000000	0.282611	7.37545e+06	-53289.1	1055.82	-29746.6	0.000000	0.000000	6.282841	0.104052	NaN	0.000000	0.001587	0.001772	28.0837	0.098309	0.002043	48.1197	124.903	-166.03	0.034518	0.281291	-0.826682	-0.828002	0.104052	48.1197	-0.828304	-1.088418E+11	-9.559940E-13	NaN
1063	1.000000	0.292601	7.37545e+06	-53289.1	1055.82	-29746.6	0.000000	0.000000	6.292829	0.055887	NaN	0.000000	0.001626	0.001786	28.0835	0.103512	0.002014	51.4088	154.793	16.2223	-0.020800	0.291260	-0.816692	-0.818034	0.055887	51.4088	-0.817507	-7.769743E+10	-7.192953E-13	NaN
1063	1.000000	0.302606	7.37545e+06	-53289.1	1055.82	-29746.6	0.000000	0.000000	6.302836	0.120868	NaN	0.000000	0.001574	0.001771	28.0823	0.071370	0.001947	36.6612	114.105	-163.83	0.060238	0.301328	-0.806687	-0.807965	0.120868	36.6612	-0.809160	-5.986482E+10	-2.019020E-12	NaN
1063	1.000000	0.312611	7.37545e+06	-53289.1	1055.82	-29746.6	0.000000	0.000000	6.312840	0.075956	NaN	0.000000	0.001575	0.001793	28.0821	0.014272	0.002041	6.991270	108.905	14.8955	0.052241	0.311274	-0.796682	-0.798019	0.075956	6.991270	-0.804830	-5.229067E+10	-1.452577E-12	NaN
1063	1.000000	0.322626	7.37545e+06	-53289.1	1055.82	-29746.6	0.000000	0.000000	6.322852	0.023827	NaN	0.000000	0.001576	0.001745	28.0825	0.121910	0.001990	61.2672	-77.9154	-163.944	0.150901	0.321313	-0.786667	-0.787980	0.023827	61.2672	-0.786959	-2.990724E+10	-7.966971E-13	NaN
1063	1.000000	0.332638	7.37545e+06	-53289.1	1055.82	-29746.6	0.000000	0.000000	6.332863	-0.012855	NaN	0.000000	0.001581	0.001671	28.0821	0.038279	0.001927	19.868	-81.1481	10.6889	0.021949	0.331292	-0.776655	-0.778001	-0.012855	19.868	-0.776170	-2.133939E+10	6.023993E-13	NaN
1063	1.000000	0.342635	7.37545e+06	-53289.1	1055.82	-29746.6	0.000000	0.000000	6.342864	0.072626	NaN	0.000000	0.001569	0.001714	28.0825	0.070330	0.001992	35.3111	-94.1109	-167.21	0.039707	0.341309	-0.766658	-0.767985	0.072626	35.3111	-0.768200	-1.662787E+10	-4.367726E-12	NaN
1063	1.000000	0.352624	7.37545e+06	-53289.1	1055.82	-29746.6	0.000000	0.000000	6.352851	0.039707	NaN	0.000000	0.001617	0.001704	28.082	0.054356	0.001944	27.9574	-172.202	15.4218	0.107933	0.351262	-0.756669	-0.758031	0.039707	27.9574	-0.757734	-1.198063E+10	-3.314277E-12	NaN
1063	1.000000	0.362618	7.37545e+06	-53289.1	1055.82	-29746.6	0.000000	0.000000	6.362846	0.067583	NaN	0.000000	0.001624	0.001677	28.0821	0.071538	0.001927	37.1326	-89.5003	-167.55	0.051189	0.361318	-0.746675	-0.747975	0.067583	37.1326	-0.748040	-8.841853E+9	-7.643481E-12	NaN
1063	1.000000	0.372639	7.37545e+06	-53289.1	1055.82	-29746.6	0.000000	0.000000	6.372871	0.153225	NaN	0.000000	0.001600	0.001681	28.0822	0.025211	0.002040	12.3598	-42.887	11.5973	0.061701	0.371288	-0.736654	-0.738005	0.153225	12.3598	-0.745951	-8.281400E+9	-1.850234E-11	NaN
1063	1.000000	0.382657	7.37545e+06	-53289.1	1055.82	-29746.6	0.000000	0.000000	6.382885	0.075189	NaN	0.000000	0.001612	0.001640	28.0823	0.053009	0.001876	28.2629	-4.271173	-163.508	0.033748	0.381392	-0.726636	-0.727901	0.075189	28.2629	-0.728632	-4.810124E+9	-1.563144E-11	NaN
1063	1.000000	0.392678	7.37545e+06	-53289.1	1055.82	-29746.6	0.000000	0.000000	6.392903	0.001619	NaN	0.000000	0.001616	0.001674	28.0821	0.124634	0.002143	58.154	-76.3467	10.2781	-0.081110	0.391343	-0.716615	-0.717950	0.001619	58.154	-0.716636	-3.300608E+9	-4.906447E-13	NaN
1063	1.000000	0.402665	7.37545e+06	-53289.1	1055.82	-29746.6	0.000000	0.000000	6.402895	0.106025	NaN	0.000000	0.001566	0.001692	28.0822	0.039483	0.002035	19.4039	29.7682	-163.953	0.072346	0.401333	-0.706628	-0.707960	0.106025	19.4039	-0.710726	-2.741307E+9	-3.867681E-11	NaN
1063	1.000000	0.412675	7.37545e+06	-53289.1	1055.82	-29746.6	0.000000	0.000000	6.412900	-0.017130	NaN	0.000000	0.001615	0.001679	28.0823	0.063719	0.001943	32.7991	70.8925	14.6181	0.024309	0.411292	-0.696618	-0.698001	-0.017130	32.7991	-0.696226	-1.737746E+9	9.857326E-12	NaN
1063	1.000000	0.422675	7.37545e+06	-53289.1	1055.82	-29746.6	0.000000	0.000000	6.422901	0.004180	NaN	0.000000	0.001633	0.001685	28.0821	0.093806	0.002063	45.4638	-117.693	-168.415	-0.031715	0.421384	-0.686618	-0.687909	0.004180	45.4638	-0.686687	-1.287173E+9	-3.247386E-12	NaN
1063	1.000000	0.432698	7.37545e+06	-53289.1	1055.82	-29746.6	0.000000	0.000000	6.432924	0.011529	NaN	0.000000	0.001620	0.001688	28.0822	0.071483	0.001966	36.3536	117.88	13.9957	0.053829	0.431335	-0.676595	-0.677958	0.011529	36.3536	-0.676833	-9.438221E+8	-1.221552E-11	NaN
1063	1.000000	0.442697	7.37545e+06	-53289.1	1055.82	-29746.6	0.000000	0.000000	6.442925	0.056613	NaN	0.000000	0.001598	0.001645	28.0836	0.024959	0.002044	12.2102	-177.014	-164.484	0.055691	0.441349	-0.666596	-0.667944	0.056613	12.2102	-0.670073	-7.627742E+8	-7.422026E-11	NaN
1063	1.000000	0.452714	7.37545e+06	-53289.1	1055.82	-29746.6	0.000000	0.000000	6.452941	0.041749	NaN	0.000000	0.001611	0.001643	28.0835	0.058753	0.001987	29.5756	-123.639	10.1839	0.063640	0.451341	-0.656579	-0.657952	0.041749	29.5756	-0.657638	-5.153558E+8	-8.100987E-11	NaN
1063	1.000000	0.462696	7.37545e+06	-53289.1	1055.82	-29746.6	0.000000	0.000000	6.462924	0.055871	NaN	0.000000	0.001604	0.001650	28.0834	0.010039	0.002059	4.876186	-56.2849	-165.193	0.035362	0.461351	-0.646597	-0.647942	0.055871	4.876186	-0.655190	-4.770621E+8	-1.171142E-10	NaN
1063	1.000000	0.472668	7.37545e+06	-53289.1	1055.82	-29746.6	0.000000	0.000000	6.472894	0.023416	NaN	0.000000	0.001615	0.001674	28.0836	0.086177	0.002032	42.4039	-110.104	12.7234	0.018212	0.471385	-0.636625	-0.637908	0.023416	42.4039	-0.637040	-2.689467E+8	-8.706400E-11	NaN
1063	1.000000	0.482697	7.37545e+06	-53289.1	1055.82	-29746.6	0.000000	0.000000	6.482923	0.029030	NaN	0.000000	0.001603	0.001660	28.0837	0.078413	0.002017	38.8852	133.336	-164.462	0.049049	0.481406	-0.626596	-0.627887	0.029030	38.8852	-0.627156	-1.967742E+8	-1.475300E-10	NaN
1063	1.000000	0.492711	7.37545e+06	-53289.1	1055.82	-29746.6	0.000000	0.000000	6.492939	0.078336	NaN	0.000000	0.001605	0.001661	28.0836	0.101270	0.002018	50.1845	-110.171	13.0158	0.067344	0.491315	-0.616582	-0.617978	0.078336	50.1845	-0.617753	-1.461319E+8	-5.360620E-10	NaN
1063	1.000000	0.502722	7.37545e+06	-53289.1	1055.82	-29746.6	0.000000	0.000000	6.502946	-0.037198	NaN	0.000000	0.001592	0.001666	28.0835	0.045412	0.001905	23.8383	-28.5433	-165.744	-0.058278	0.501395	-0.606571	-0.607898	-0.037198	23.8383	-0.605400	-9.881371E+7	3.764418E-10	NaN
1063	1.000000	0.512687	7.37545e+06	-53289.1	1055.82	-29746.6	0.000000	0.000000	6.512913	0.002119	NaN	0.000000	0.001572	0.001633	28.0839	0.029565	0.002038	14.5048	5.057616	13.5261	0.015777	0.511382	-0.596606	-0.597912	0.002119	14.5048	-0.596716	-7.502705E+7	-2.824334E-11	NaN
1063	1.000000	0.522744	7.37545e+06	-53289.1	1055.82	-29746.6	0.000000	0.000000	6.522972	0.071381	NaN	0.000000	0.001590	0.001669	28.0836	0.026164	0.001859	14.0711	-42.2555	-165.14	0.037089	0.521393	-0.586549	-0.587901	0.071381	14.0711	-0.590354	-6.131208E+7	-1.164219E-9	NaN
1063	1.000000	0.532743	7.37545e+06	-53289.1	1055.82	-29746.6	0.000000	0.000000	6.532970	0.038002	NaN	0.000000	0.001605	0.001642	28.0837	0.102982	0.001872	54.9991	9.309450	14.1538	0.073778	0.531389	-0.576550	-0.577904	0.038002	54.9991	-0.577068	-4.020312E+7	-9.452440E-10	NaN
1063	1.000000	0.542746	7.37545e+06	-53289.1	1055.82	-29746.6	0.000000	0.000000	6.542971	-0.011693	NaN	0.000000	0.001564	0.001700	28.0836	0.122693	0.002085	58.8472	-13.9743	-169.689	-0.009392	0.541457	-0.566548	-0.567836	-0.011693	58.8472	-0.566399	-2.863251E+7	4.083907E-10	NaN
1063	1.000000	0.552749	7.37545e+06	-53289.1	1055.82	-29746.6	0.000000	0.000000	6.552974	-0.008047	NaN	0.000000	0.001604	0.001681	28.0841	0.072893	0.001983	36.7609	100.924	12.7235	0.063004	0.551393	-0.556544	-0.557900	-0.008047	36.7609	-0.556380	-2.081082E+7	3.866839E-10	NaN
1063	1.000000	0.562744	7.37545e+06	-53289.1	1055.82	-29746.6	0.000000	0.000000	6.562970	0.017018	NaN	0.000000	0.001602	0.001652	28.0838	0.071619	0.001989	36.0166	-77.6276	-167.082	0.071312	0.561378	-0.546549	-0.547915	0.017018	36.0166	-0.546904	-1.538377E+7	-1.106218E-9	NaN
1063	1.000000	0.572730	7.37545e+06	-53289.1	1055.82	-29746.6	0.000000	0.000000	6.572960	0.100775	NaN	0.000000	0.001608	0.001621	28.0828	0.025064	0.001987	12.6126	60.6805	13.2503	0.065436	0.571405	-0.536563	-0.537888	0.100775	12.6126	-0.542555	-1.339033E+7	-7.525953E-9	NaN
1063	1.000000	0.582715	7.37545e+06	-53289.1	1055.82	-29746.6	0.000000	0.000000	6.582940	-0.024292	NaN	0.000000	0.001597	0.001663	28.0825	0.019824	0.001891	10.4837	-147.166	-166.891	0.039324	0.581416	-0.526578	-0.527877	-0.024292	10.4837	-0.524840	-7.60133e+06	3.195729E-9	NaN
1063	1.000000	0.592746	7.37545e+06	-53289.1	1055.82	-29746.6	0.000000	0.000000	6.592972	0.016069	NaN	0.000000	0.001630	0.001656	28.0831	0.074414	0.001891	39.342	-107.999	11.6216	0.016717	0.591412	-0.516548	-0.517881	0.016069	39.342	-0.516854	-5.88616e+06	-2.730046E-9	NaN
1063	1.000000	0.602751	7.37545e+06	-53289.1	1055.82	-29746.6	0.000000	0.000000	6.602977	0.015555	NaN	0.000000	0.001614	0.001714	28.0825	0.192241	0.002187	87.8974	-131.746	-164.779	0.027279	0.601459	-0.506542	-0.507834	0.015555	87.8974	-0.506675	-4.24706e+06	-3.662494E-9	NaN
1063	1.000000	0.612750	7.37545e+06	-53289.1	1055.82	-29746.6	0.000000	0.000000	6.612976	0.000524	NaN	0.000000	0.001605	0.001640	28.0827	0.099627	0.002138	46.5971	120.918	12.6745	0.139743	0.611369	-0.496543	-0.497925	0.000524	46.5971	-0.496551	-3.06824e+06	-1.707732E-10	NaN
1063	1.000000	0.622803	7.37545e+06	-53289.1	1055.82	-29746.6	0.000000	0.000000	6.623028	-0.002533	NaN	0.000000	0.001631	0.001678	28.0826	0.079099	0.001971	40.1254	-61.0175	-164.476	0.003852	0.621466	-0.486490	-0.487827	-0.002533	40.1254	-0.486443	-2.2165e+06	1.142612E-9	NaN
1063	1.000000	0.632784	7.37545e+06	-53289.1	1055.82	-29746.6	0.000000	0.000000	6.633009	0.010858	NaN	0.000000	0.001616	0.001657	28.0826	0.035611	0.002032	17.527	-108.334	16.3699	0.048299	0.631431	-0.476510	-0.477862	0.010858	17.527	-0.476974	-1.63364e+06	-6.646620E-9	NaN
1063	1.000000	0.642779	7.37545e+06	-53289.1	1055.82	-29746.6	0.000000	0.000000	6.643006	0.045475	NaN	0.000000	0.001608	0.001645	28.0824	0.079295	0.002047	38.7421	-65.1619	-166.629	0.101433	0.641459	-0.466514	-0.467834	0.045475	38.7421	-0.467395	-1.19911e+06	-3.792381E-8	NaN
1063	1.000000	0.652742	7.37545e+06	-53289.1	1055.82	-29746.6	0.000000	0.000000	6.652971	0.073707	NaN	0.000000	0.001643	0.001666	28.0827	0.089256	0.002014	44.3162	-140.622	15.6652	0.008005	0.651432	-0.456551	-0.457861	0.073707	44.3162	-0.457798	-879170	-8.383755E-8	NaN
1063	1.000000	0.662797	7.37545e+06	-53289.1	1055.82	-29746.6	0.000000	0.000000	6.663024	0.029459	NaN	0.000000	0.001616	0.001695	28.0825	0.057794	0.002048	28.2214	159.968	-165.482	-0.041445	0.661498	-0.446496	-0.447795	0.029459	28.2214	-0.447279	-625186	-4.712058E-8	NaN
1063	1.000000	0.672795	7.37545e+06	-53289.1	1055.82	-29746.6	0.000000	0.000000	6.673022	0.042098	NaN	0.000000	0.001638	0.001662	28.0823	0.085016	0.001901	44.7288	-174.124	13.351	0.016156	0.671434	-0.436498	-0.437859	0.042098	44.7288	-0.437204	-450703	-9.340585E-8	NaN
1063	1.000000	0.682790	7.37545e+06	-53289.1	1055.82	-29746.6	0.000000	0.000000	6.683016	0.022901	NaN	0.000000	0.001621	0.001738	28.0826	0.116124	0.001985	58.4865	-177.166	-168.868	0.009370	0.681506	-0.426503	-0.427787	0.022901	58.4865	-0.426797	-321168	-7.130492E-8	NaN
1063	1.000000	0.692780	7.37545e+06	-53289.1	1055.82	-29746.6	0.000000	0.000000	6.693007	0.028336	NaN	0.000000	0.001610	0.001656	28.0827	0.030776	0.002005	15.3468	175.267	12.7677	0.007251	0.691426	-0.416513	-0.417867	0.028336	15.3468	-0.417898	-240211	-1.179649E-7	NaN
1063	1.000000	0.702797	7.37545e+06	-53289.1	1055.82	-29746.6	0.000000	0.000000	6.703025	0.048951	NaN	0.000000	0.001644	0.001663	28.0828	0.101567	0.001975	51.4184	-14.0556	-165.464	0.006283	0.701491	-0.406496	-0.407802	0.048951	51.4184	-0.407210	-169320	-2.891050E-7	NaN
1063	1.000000	0.712793	7.37545e+06	-53289.1	1055.82	-29746.6	0.000000	0.000000	6.713017	-0.022928	NaN	0.000000	0.001622	0.001660	28.084	0.078760	0.001959	40.2095	-26.8652	16.8322	-0.021327	0.711431	-0.396501	-0.397862	-0.022928	40.2095	-0.396073	-117478	1.951681E-7	NaN
1063	1.000000	0.722807	7.37545e+06	-53289.1	1055.82	-29746.6	0.000000	0.000000	6.723034	0.042493	NaN	0.000000	0.001653	0.001678	28.084	0.098430	0.002089	47.1192	167.359	-164.594	0.033467	0.721463	-0.386487	-0.387830	0.042493	47.1192	-0.387163	-87612.2	-4.850090E-7	NaN
1063	1.000000	0.732800	7.37545e+06	-53289.1	1055.82	-29746.6	0.000000	0.000000	6.733026	0.022991	NaN	0.000000	0.001640	0.001679	28.084	0.044180	0.001960	22.5356	63.3065	17.2953	-0.028121	0.731478	-0.376493	-0.377815	0.022991	22.5356	-0.377259	-63172.6	-3.639341E-7	NaN
1063	1.000000	0.742810	7.37545e+06	-53289.1	1055.82	-29746.6	0.000000	0.000000	6.743038	0.078707	NaN	0.000000	0.001647	0.001691	28.0842	0.056509	0.002013	28.0751	-168.774	-167.06	0.045907	0.741522	-0.366483	-0.367771	0.078707	28.0751	-0.368586	-47397.9	-1.660563E-6	NaN
1063	1.000000	0.752842	7.37545e+06	-53289.1	1055.82	-29746.6	0.000000	0.000000	6.753068	0.021602	NaN	0.000000	0.001670	0.001720	28.0838	0.130377	0.001948	66.9204	132.512	10.7359	0.041854	0.751502	-0.356452	-0.357791	0.021602	66.9204	-0.356694	-31916.8	-6.768135E-7	NaN
1063	1.000000	0.762832	7.37545e+06	-53289.1	1055.82	-29746.6	0.000000	0.000000	6.763062	0.119741	NaN	0.000000	0.001637	0.001700	28.0839	0.063872	0.002029	31.4839	73.597	-165.509	0.049305	0.761479	-0.346461	-0.347814	0.119741	31.4839	-0.349314	-24948.1	-4.799581E-6	NaN
1063	1.000000	0.772824	7.37545e+06	-53289.1	1055.82	-29746.6	0.000000	0.000000	6.773050	0.011418	NaN	0.000000	0.001637	0.001709	28.0842	0.157702	0.001964	80.3164	79.4541	16.1937	0.090734	0.771487	-0.336469	-0.337806	0.011418	80.3164	-0.336576	-16278.1	-7.014542E-7	NaN
1063	1.000000	0.782838	7.37545e+06	-53289.1	1055.82	-29746.6	0.000000	0.000000	6.783066	0.056870	NaN	0.000000	0.001622	0.001705	28.0841	0.060257	0.001973	30.5465	-120.097	-167.586	0.084329	0.781527	-0.326455	-0.327766	0.056870	30.5465	-0.327851	-12133	-4.687238E-6	NaN
1063	1.000000	0.792826	7.37545e+06	-53289.1	1055.82	-29746.6	0.000000	0.000000	6.793051	-0.007503	NaN	0.000000	0.001628	0.001690	28.084	0.046678	0.002019	23.123	154.013	13.0505	0.006557	0.791454	-0.316468	-0.317839	-0.007503	23.123	-0.316224	-8184.81	9.166896E-7	NaN
1063	1.000000	0.802837	7.37545e+06	-53289.1	1055.82	-29746.6	0.000000	0.000000	6.803065	0.057806	NaN	0.000000	0.001626	0.001673	28.0841	0.045753	0.002001	22.8689	-132.731	-160.698	0.066929	0.801579	-0.306456	-0.307714	0.057806	22.8689	-0.308352	-6261.15	-9.232451E-6	NaN
1063	1.000000	0.812849	7.37545e+06	-53289.1	1055.82	-29746.6	0.000000	0.000000	6.813077	0.038899	NaN	0.000000	0.001581	0.001699	28.0843	0.124339	0.001980	62.7916	-130.198	16.715	-0.047957	0.811539	-0.296444	-0.297755	0.038899	62.7916	-0.296908	-4232.21	-9.191087E-6	NaN
1063	1.000000	0.822842	7.37545e+06	-53289.1	1055.82	-29746.6	0.000000	0.000000	6.823069	0.035874	NaN	0.000000	0.001657	0.001610	28.0841	0.122076	0.001981	61.6267	89.6282	-167.473	0.059423	0.821577	-0.286451	-0.287716	0.035874	61.6267	-0.286887	-2996.56	-1.197170E-5	NaN
1063	1.000000	0.832822	7.37545e+06	-53289.1	1055.82	-29746.6	0.000000	0.000000	6.833051	0.090387	NaN	0.000000	0.001659	0.001662	28.0842	0.039088	0.001942	20.125	108.374	15.2367	0.045541	0.831437	-0.276471	-0.277856	0.090387	20.125	-0.279840	-2347.2	-3.850846E-5	NaN
1063	1.000000	0.842876	7.37545e+06	-53289.1	1055.82	-29746.6	0.000000	0.000000	6.843105	0.085092	NaN	0.000000	0.001580	0.001673	28.084	0.037110	0.002091	17.7485	-36.4436	-165.027	0.059188	0.841585	-0.266417	-0.267708	0.085092	17.7485	-0.270013	-1666.23	-5.106854E-5	NaN
1063	1.000000	0.852870	7.37545e+06	-53289.1	1055.82	-29746.6	0.000000	0.000000	6.853095	-0.008129	NaN	0.000000	0.001616	0.001672	28.0829	0.033066	0.001967	16.8075	77.6587	13.2143	-0.004803	0.851481	-0.256424	-0.257812	-0.008129	16.8075	-0.256061	-1019.62	7.972938E-6	NaN
1063	1.000000	0.862854	7.37545e+06	-53289.1	1055.82	-29746.6	0.000000	0.000000	6.863082	0.056556	NaN	0.000000	0.001619	0.001635	28.0828	0.114748	0.002033	56.4308	124.691	-166.197	0.031602	0.861544	-0.246439	-0.247749	0.056556	56.4308	-0.247191	-743.81	-7.603523E-5	NaN
1063	1.000000	0.872855	7.37545e+06	-53289.1	1055.82	-29746.6	0.000000	0.000000	6.873083	0.056128	NaN	0.000000	0.001601	0.001720	28.0829	0.016346	0.002035	8.032114	0.719494	14.5167	-0.039985	0.871511	-0.236438	-0.237782	0.056128	8.032114	-0.241679	-610.598	-9.192357E-5	NaN
1063	1.000000	0.882823	7.37545e+06	-53289.1	1055.82	-29746.6	0.000000	0.000000	6.883048	-0.004927	NaN	0.000000	0.001568	0.001666	28.083	0.113139	0.001966	57.5586	-29.968	-166.952	0.012223	0.881591	-0.226470	-0.227703	-0.004927	57.5586	-0.226406	-351.272	1.402499E-5	NaN
1063	1.000000	0.892885	7.37545e+06	-53289.1	1055.82	-29746.6	0.000000	0.000000	6.893112	0.038413	NaN	0.000000	0.001613	0.001680	28.0827	0.083730	0.002029	41.27	-101.353	15.1158	0.118169	0.891512	-0.216408	-0.217781	0.038413	41.27	-0.217106	-249.655	-0.000154	NaN
1063	1.000000	0.902872	7.37545e+06	-53289.1	1055.82	-29746.6	0.000000	0.000000	6.903096	-0.040834	NaN	0.000000	0.001625	0.001685	28.0827	0.063765	0.001981	32.1826	66.5995	-165.691	-0.018894	0.901599	-0.206421	-0.207695	-0.040834	32.1826	-0.205470	-161.889	0.000252	NaN
1063	1.000000	0.912854	7.37545e+06	-53289.1	1055.82	-29746.6	0.000000	0.000000	6.913081	0.037003	NaN	0.000000	0.001610	0.001670	28.0827	0.058398	0.001997	29.2407	118.242	14.4604	0.066369	0.911471	-0.196439	-0.197822	0.037003	29.2407	-0.197388	-119.313	-0.000310	NaN
1063	1.000000	0.922868	7.37545e+06	-53289.1	1055.82	-29746.6	0.000000	0.000000	6.923093	-0.017351	NaN	0.000000	0.001609	0.001649	28.0829	0.062909	0.001856	33.8946	174.834	-162.423	0.096427	0.921631	-0.186425	-0.187662	-0.017351	33.8946	-0.186041	-77.2077	0.000225	NaN
1063	1.000000	0.932904	7.37545e+06	-53289.1	1055.82	-29746.6	0.000000	0.000000	6.933131	0.050036	NaN	0.000000	0.001618	0.001699	28.0827	0.109556	0.002147	51.0265	-157.997	13.3309	0.096649	0.931551	-0.176389	-0.177742	0.050036	51.0265	-0.177125	-54.502	-0.000918	NaN
1063	1.000000	0.942919	7.37545e+06	-53289.1	1055.82	-29746.6	0.000000	0.000000	6.943145	0.017586	NaN	0.000000	0.001619	0.001655	28.0828	0.083624	0.002196	38.0848	29.5002	-165.873	-0.025999	0.941610	-0.166374	-0.167683	0.017586	38.0848	-0.166721	-36.0133	-0.000488	NaN
1063	1.000000	0.952900	7.37545e+06	-53289.1	1055.82	-29746.6	0.000000	0.000000	6.953126	0.016393	NaN	0.000000	0.001564	0.001696	28.0828	0.082442	0.001885	43.725	56.616	16.2217	-0.013465	0.951513	-0.156394	-0.157780	0.016393	43.725	-0.156675	-23.9141	-0.000685	NaN
1063	1.000000	0.962902	7.37545e+06	-53289.1	1055.82	-29746.6	0.000000	0.000000	6.963129	0.050865	NaN	0.000000	0.001560	0.001637	28.0826	0.126211	0.002067	61.0652	-163.658	-163.599	0.079518	0.961582	-0.146391	-0.147711	0.050865	61.0652	-0.147016	-15.9718	-0.003185	NaN
1063	1.000000	0.972919	7.37545e+06	-53289.1	1055.82	-29746.6	0.000000	0.000000	6.973146	0.026183	NaN	0.000000	0.001596	0.001682	28.0825	0.070196	0.002119	33.1301	178.023	11.0971	-0.029164	0.971551	-0.136374	-0.137742	0.026183	33.1301	-0.136967	-10.3685	-0.002525	NaN
1063	1.000000	0.982913	7.37545e+06	-53289.1	1055.82	-29746.6	0.000000	0.000000	6.983136	-0.061588	NaN	0.000000	0.001591	0.001704	28.0838	0.110507	0.002095	52.7457	-24.0286	-164.117	0.033325	0.981655	-0.126380	-0.127638	-0.061588	52.7457	-0.125505	-6.222609	0.009897	NaN
1063	1.000000	0.992911	7.37545e+06	-53289.1	1055.82	-29746.6	0.000000	0.000000	6.993132	-0.106795	NaN	0.000000	0.001595	0.001715	28.0841	0.096519	0.002094	46.0853	95.9532	15.8793	-0.118162	0.991563	-0.116382	-0.117731	-0.106795	46.0853	-0.114644	-3.756302	0.028431	NaN
1063	1.000000	1.002956	7.37545e+06	-53289.1	1055.82	-29746.6	0.000000	0.000000	7.003183	0.057520	NaN	0.000000	0.001562	0.001698	28.0839	0.012815	0.001974	6.490988	66.3399	-164.881	0.004380	1.001607	-0.106338	-0.107686	0.057520	6.490988	-0.112984	-3.470206	-0.016575	NaN
1063	1.000000	1.012955	7.37545e+06	-53289.1	1055.82	-29746.6	0.000000	0.000000	7.013179	-0.023074	NaN	0.000000	0.001575	0.001695	28.084	0.061812	0.002034	30.3838	-48.7033	15.7647	-0.029324	1.011567	-0.096338	-0.097726	-0.023074	30.3838	-0.095769	-1.468578	0.015712	NaN
1063	1.000000	1.022920	7.37545e+06	-53289.1	1055.82	-29746.6	0.000000	0.000000	7.023146	0.018922	NaN	0.000000	0.001560	0.001708	28.0838	0.020582	0.001907	10.7922	-137.577	-167.162	-0.012658	1.021569	-0.086373	-0.087725	0.018922	10.7922	-0.087688	-0.953205	-0.019851	NaN
1063	1.000000	1.032944	7.37545e+06	-53289.1	1055.82	-29746.6	0.000000	0.000000	7.033170	0.008163	NaN	0.000000	0.001544	0.001729	28.0838	0.089013	0.002057	43.2716	-160.861	15.8352	0.090806	1.031607	-0.076349	-0.077686	0.008163	43.2716	-0.076491	-0.504526	-0.016179	NaN
1063	1.000000	1.042937	7.37545e+06	-53289.1	1055.82	-29746.6	0.000000	0.000000	7.043165	0.069283	NaN	0.000000	0.001586	0.001701	28.0837	0.025297	0.001967	12.8626	12.3058	-166.73	0.100359	1.041718	-0.066356	-0.067575	0.069283	12.8626	-0.070396	-0.349532	-0.198216	NaN
1063	1.000000	1.052937	7.37545e+06	-53289.1	1055.82	-29746.6	0.000000	0.000000	7.053164	0.029018	NaN	0.000000	0.001601	0.001695	28.0839	0.154231	0.002025	76.1659	-143.985	17.5083	-0.018510	1.051593	-0.056356	-0.057700	0.029018	76.1659	-0.056641	-0.143924	-0.201620	NaN
1063	1.000000	1.062971	7.37545e+06	-53289.1	1055.82	-29746.6	0.000000	0.000000	7.063197	0.011780	NaN	0.000000	0.001605	0.001660	28.0839	0.064713	0.002054	31.5082	75.4264	-168.415	0.048830	1.061600	-0.046322	-0.047693	0.011780	31.5082	-0.046602	-0.071938	-0.163745	NaN
1063	1.000000	1.072977	7.37545e+06	-53289.1	1055.82	-29746.6	0.000000	0.000000	7.073208	0.118267	NaN	0.000000	0.001569	0.001635	28.0839	0.113133	0.002031	55.7127	126.917	12.9159	0.129173	1.071603	-0.036316	-0.037690	0.118267	55.7127	-0.037908	-0.039093	-3.025290	NaN
1063	1.000000	1.082957	7.37545e+06	-53289.1	1055.82	-29746.6	0.000000	0.000000	7.083183	0.016943	NaN	0.000000	0.001573	0.001689	28.0837	0.107232	0.001951	54.9718	-72.5077	-165.439	0.080333	1.081637	-0.026337	-0.027656	0.016943	54.9718	-0.026568	-0.018555	-0.913129	NaN
1063	1.000000	1.092973	7.37545e+06	-53289.1	1055.82	-29746.6	0.000000	0.000000	7.093201	0.051198	NaN	0.000000	0.001576	0.001698	28.0839	0.039414	0.001916	20.5699	-115.788	15.9086	0.118844	1.091568	-0.016320	-0.017725	0.051198	20.5699	-0.018187	-0.011287	-4.535870	NaN
1063	1.000000	1.102971	7.37545e+06	-53289.1	1055.82	-29746.6	0.000000	0.000000	7.103197	0.005225	NaN	0.000000	0.001620	0.001687	28.084	0.024154	0.001982	12.1861	86.8019	-165.635	-0.013994	1.101649	-0.006322	-0.007644	0.005225	12.1861	-0.006644	-0.004427	-1.180283	NaN
1063	1.000000	1.112972	7.37545e+06	-53289.1	1055.82	-29746.6	0.000000	0.000000	7.113203	0.128187	NaN	0.000000	0.001572	0.001685	28.0841	0.149448	0.002099	71.1958	-7.582580	13.7676	0.003590	1.111563	0.003679	0.002270	0.128187	71.1958	0.002329	0.001822	70.3457	1523.78
1063	1.000000	1.122823	7.37545e+06	-53289.1	1055.82	-29746.6	0.000000	0.000000	7.123409	8.775992	NaN	0.000000	0.001615	0.001659	28.0826	8.395486	0.001581	5309.9	9.485334	-171.127	7.151465	1.121566	0.013530	0.012273	8.775992	5309.9	0.012290	0.011839	741.247	44585.4
1063	2.000000	1.125986	7.37545e+06	-53289.1	1055.82	-29746.6	0.000000	0.000000	7.126686	11.5405	NaN	0.000000	0.001585	0.001636	28.0836	11.1854	0.001577	7092.32	14.2747	1.852525	11.4897	1.125567	0.016693	0.016274	11.5405	7092.32	0.015472	0.015920	724.891	51355.3
1063	2.000000	1.128408	7.37545e+06	-53289.1	1055.82	-29746.6	0.000000	0.000000	7.129233	14.5712	NaN	0.000000	0.001580	0.001660	28.0826	14.2277	0.001619	8789.77	9.518579	-177.763	15.2633	1.128151	0.019115	0.018858	14.5712	8789.77	0.017872	0.019308	754.671	57793.8
1063	2.000000	1.130904	7.37545e+06	-53289.1	1055.82	-29746.6	0.000000	0.000000	7.131907	18.9092	NaN	0.000000	0.001553	0.001686	28.0836	16.8584	0.001875	8990.34	7.939357	3.156997	17.7829	1.130539	0.021611	0.021246	18.9092	8990.34	0.020033	0.022595	836.889	54644.5
1063	2.000000	1.133384	7.37545e+06	-53289.1	1055.82	-29746.6	0.000000	0.000000	7.134557	23.035	NaN	0.000000	0.001566	0.001676	28.0828	18.8871	0.001637	11538.6	3.794919	-175.979	22.006	1.133045	0.024090	0.023752	23.035	11538.6	0.022593	0.026782	860.089	64417.3
1063	2.000000	1.135891	7.37545e+06	-53289.1	1055.82	-29746.6	0.000000	0.000000	7.137274	28.1402	NaN	0.000000	0.001561	0.001668	28.0833	20.8309	0.001687	12350.7	2.213450	5.519438	25.7969	1.135551	0.026598	0.026258	28.1402	12350.7	0.024889	0.030815	913.209	64281.6
1063	2.000000	1.138375	7.37545e+06	-53289.1	1055.82	-29746.6	0.000000	0.000000	7.140007	34.1902	NaN	0.000000	0.001573	0.001714	28.0826	23.2589	0.001696	13715.3	5.926991	-177.531	34.0009	1.137984	0.029082	0.028690	34.1902	13715.3	0.027213	0.035164	972.302	66823.4
1063	2.000000	1.140883	7.37545e+06	-53289.1	1055.82	-29746.6	0.000000	0.000000	7.142640	37.2381	NaN	0.000000	0.001596	0.001683	28.0826	26.9989	0.001837	14696.9	6.566253	-0.010534	36.5438	1.140531	0.031590	0.031238	37.2381	14696.9	0.029689	0.040102	928.581	67052.6
1063	2.000000	1.143324	7.37545e+06	-53289.1	1055.82	-29746.6	0.000000	0.000000	7.145329	43.2861	NaN	0.000000	0.001606	0.001716	28.0828	29.693	0.001901	15615.6	7.170002	179.387	41.9518	1.143019	0.034030	0.033726	43.2861	15615.6	0.031951	0.044885	964.368	67341
1063	2.000000	1.145824	7.37545e+06	-53289.1	1055.82	-29746.6	0.000000	0.000000	7.148160	51.3022	NaN	0.000000	0.001614	0.001725	28.0836	30.4787	0.001807	16871.2	2.780936	3.794090	48.8722	1.145460	0.036531	0.036167	51.3022	16871.2	0.034251	0.050016	1025.72	68923.3
1063	2.000000	1.148362	7.37545e+06	-53289.1	1055.82	-29746.6	0.000000	0.000000	7.150884	55.8185	NaN	0.000000	0.001585	0.001705	28.0826	33.2631	0.001764	18858.8	10.3098	175.149	56.2991	1.147962	0.039069	0.038669	55.8185	18858.8	0.036849	0.056140	994.281	72719.7
1063	2.000000	1.150833	7.37545e+06	-53289.1	1055.82	-29746.6	0.000000	0.000000	7.153681	63.7599	NaN	0.000000	0.001599	0.001716	28.0835	35.2228	0.001778	19807.1	2.655183	1.259374	61.1568	1.150511	0.041540	0.041217	63.7599	19807.1	0.039126	0.061788	1031.91	72801.9
1063	2.000000	1.153281	7.37545e+06	-53289.1	1055.82	-29746.6	0.000000	0.000000	7.156289	67.6704	NaN	0.000000	0.001592	0.001673	28.0827	37.3995	0.001795	20836.2	4.027214	178.045	64.9013	1.153164	0.043987	0.043871	67.6704	20836.2	0.041552	0.068100	993.694	72948.9
1063	2.000000	1.155820	7.37545e+06	-53289.1	1055.82	-29746.6	0.000000	0.000000	7.159429	82.2446	NaN	0.000000	0.001563	0.001678	28.0828	38.8065	0.001776	21851.4	4.837221	-0.800942	79.4388	1.155353	0.046527	0.046060	82.2446	21851.4	0.043704	0.073952	1112.13	73413.6
1063	2.000000	1.158326	7.37545e+06	-53289.1	1055.82	-29746.6	0.000000	0.000000	7.162165	87.8631	NaN	0.000000	0.001573	0.001654	28.0838	41.9092	0.001901	22040.1	9.238508	174.799	87.5432	1.157976	0.049033	0.048683	87.8631	22040.1	0.046043	0.080575	1090.45	70939
1063	2.000000	1.160780	7.37545e+06	-53289.1	1055.82	-29746.6	0.000000	0.000000	7.164914	95.0342	NaN	0.000000	0.001576	0.001659	28.0847	44.0116	0.001841	23904.9	9.174247	-5.979216	91.379	1.160466	0.051487	0.051173	95.0342	23904.9	0.048505	0.087848	1081.8	73687.4
1063	2.000000	1.163371	7.37545e+06	-53289.1	1055.82	-29746.6	0.000000	0.000000	7.167657	98.7032	NaN	0.000000	0.001548	0.001661	28.0836	47.1163	0.001785	26394.3	4.866013	176.751	102.279	1.163123	0.054078	0.053830	98.7032	26394.3	0.051274	0.096390	1024	77672.3
1063	2.000000	1.165876	7.37545e+06	-53289.1	1055.82	-29746.6	0.000000	0.000000	7.170762	113.33	NaN	0.000000	0.001587	0.001672	28.0838	48.873	0.001829	26718.4	5.210902	-3.048664	113.79	1.165453	0.056583	0.056160	113.33	26718.4	0.053401	0.103216	1098	75981.9
1063	2.000000	1.168294	7.37545e+06	-53289.1	1055.82	-29746.6	0.000000	0.000000	7.173618	123.956	NaN	0.000000	0.001579	0.001590	28.0836	50.4306	0.001753	28769.9	3.075083	177.38	121.671	1.168024	0.059001	0.058731	123.956	28769.9	0.055769	0.111076	1115.95	78868.1
1063	2.000000	1.170803	7.37545e+06	-53289.1	1055.82	-29746.6	0.000000	0.000000	7.176611	135.736	NaN	0.000000	0.001598	0.001653	28.0843	52.8983	0.001699	31138.2	0.311050	-0.366565	132.429	1.170450	0.061510	0.061157	135.736	31138.2	0.058241	0.119575	1135.16	82271
1063	2.000000	1.173326	7.37545e+06	-53289.1	1055.82	-29746.6	0.000000	0.000000	7.179199	137.314	NaN	0.000000	0.001574	0.001702	28.0834	56.6879	0.001857	30522.6	1.571494	178.321	136.624	1.173068	0.064033	0.063775	137.314	30522.6	0.060659	0.128182	1071.25	77889.9
1063	2.000000	1.175755	7.37545e+06	-53289.1	1055.82	-29746.6	0.000000	0.000000	7.182336	154.501	NaN	0.000000	0.001612	0.001711	28.0836	57.4916	0.001666	34504.3	3.038465	-4.576596	150.337	1.175510	0.066462	0.066217	154.501	34504.3	0.063104	0.137174	1126.32	85115.9
1063	2.000000	1.178273	7.37545e+06	-53289.1	1055.82	-29746.6	0.000000	0.000000	7.185400	167.802	NaN	0.000000	0.001581	0.001677	28.0834	59.1608	0.001692	34973.5	1.925458	177.85	165.843	1.177962	0.068980	0.068669	167.802	34973.5	0.065382	0.145810	1150.83	83679.6
1063	2.000000	1.180702	7.37545e+06	-53289.1	1055.82	-29746.6	0.000000	0.000000	7.188273	178.594	NaN	0.000000	0.001565	0.001667	28.0838	62.4524	0.001814	34437.1	2.939113	-3.266907	171.964	1.180426	0.071409	0.071133	178.594	34437.1	0.067519	0.154142	1158.63	80138.2
1063	2.000000	1.183241	7.37545e+06	-53289.1	1055.82	-29746.6	0.000000	0.000000	7.191381	192.426	NaN	0.000000	0.001596	0.001653	28.0834	65.7207	0.001797	36562.8	4.488975	174.415	189.379	1.182954	0.073947	0.073661	192.426	36562.8	0.070000	0.164089	1172.69	82465.7
1063	2.000000	1.185756	7.37545e+06	-53289.1	1055.82	-29746.6	0.000000	0.000000	7.194473	206.434	NaN	0.000000	0.001642	0.001658	28.0836	68.0997	0.001925	35372.7	7.278025	-7.801046	200.82	1.185396	0.076463	0.076103	206.434	35372.7	0.072086	0.172678	1195.48	77772
1063	2.000000	1.188314	7.37545e+06	-53289.1	1055.82	-29746.6	0.000000	0.000000	7.197482	217.439	NaN	0.000000	0.001595	0.001631	28.0836	69.6303	0.001827	38121.7	4.763359	174.902	216.857	1.187908	0.079020	0.078615	217.439	38121.7	0.074743	0.183913	1182.29	81215.4
1063	2.000000	1.190713	7.37545e+06	-53289.1	1055.82	-29746.6	0.000000	0.000000	7.200519	232.923	NaN	0.000000	0.001569	0.001658	28.0823	71.3673	0.001680	42477.8	3.743828	-5.593629	228.251	1.190324	0.081420	0.081031	232.923	42477.8	0.077308	0.195079	1193.99	87867.9
1063	2.000000	1.193418	7.37545e+06	-53289.1	1055.82	-29746.6	0.000000	0.000000	7.203668	243.744	NaN	0.000000	0.001566	0.001705	28.0822	76.1734	0.001815	41975.1	4.855914	174.06	250.282	1.192971	0.084125	0.083678	243.744	41975.1	0.079769	0.206083	1182.74	84477.9
1063	2.000000	1.195719	7.37545e+06	-53289.1	1055.82	-29746.6	0.000000	0.000000	7.206716	261.898	NaN	0.000000	0.001559	0.001643	28.0821	76.5573	0.001760	43491.5	4.130189	-5.580307	256.009	1.195332	0.086426	0.086038	261.898	43491.5	0.081909	0.215878	1213.17	85521
1063	2.000000	1.198255	7.37545e+06	-53289.1	1055.82	-29746.6	0.000000	0.000000	7.209683	272.373	NaN	0.000000	0.001591	0.001636	28.0825	79.8778	0.001706	46811.4	3.830954	173.317	271.653	1.197925	0.088962	0.088632	272.373	46811.4	0.084598	0.228488	1192.07	89473.3
1063	2.000000	1.200836	7.37545e+06	-53289.1	1055.82	-29746.6	0.000000	0.000000	7.212757	284.354	NaN	0.000000	0.001593	0.001652	28.0821	83.2243	0.001778	46815.9	3.482835	-6.325905	283.956	1.200543	0.091543	0.091250	284.354	46815.9	0.086987	0.239973	1184.94	87314.3
1063	2.000000	1.203287	7.37545e+06	-53289.1	1055.82	-29746.6	0.000000	0.000000	7.216330	311.652	NaN	0.000000	0.001610	0.001623	28.0822	85.3752	0.001807	47254.9	2.665502	174.883	312.248	1.202850	0.093993	0.093557	311.652	47254.9	0.089047	0.250085	1246.18	86332.8
1063	2.000000	1.205830	7.37545e+06	-53289.1	1055.82	-29746.6	0.000000	0.000000	7.218927	312.952	NaN	0.000000	0.001623	0.001669	28.0822	87.2594	0.001742	50104	3.456159	-6.826455	312.328	1.205586	0.096536	0.096292	312.952	50104	0.091852	0.264168	1184.67	89064.5
1063	2.000000	1.208161	7.37545e+06	-53289.1	1055.82	-29746.6	0.000000	0.000000	7.222207	336.005	NaN	0.000000	0.001567	0.001678	28.0824	89.2487	0.001826	48876.9	3.603167	173.314	330.39	1.207924	0.098868	0.098631	336.005	48876.9	0.093712	0.273707	1227.61	85356.1
1063	2.000000	1.210808	7.37545e+06	-53289.1	1055.82	-29746.6	0.000000	0.000000	7.225474	351.093	NaN	0.000000	0.001553	0.001615	28.0821	92.5793	0.001852	49994.9	4.485605	-7.955128	350.172	1.210397	0.101515	0.101104	351.093	49994.9	0.096248	0.286964	1223.48	85268
1063	2.000000	1.213283	7.37545e+06	-53289.1	1055.82	-29746.6	0.000000	0.000000	7.228202	357.236	NaN	0.000000	0.001571	0.001645	28.082	94.5555	0.001736	54453.4	3.774732	171.894	357.367	1.213153	0.103990	0.103860	357.236	54453.4	0.099070	0.302064	1182.65	90520.8
1063	2.000000	1.215778	7.37545e+06	-53289.1	1055.82	-29746.6	0.000000	0.000000	7.232212	394.078	NaN	0.000000	0.001569	0.001663	28.0821	95.3762	0.001735	54969.1	1.950577	-5.502690	391.697	1.215335	0.106485	0.106042	394.078	54969.1	0.101108	0.313192	1258.26	89740.1
1063	2.000000	1.218126	7.37545e+06	-53289.1	1055.82	-29746.6	0.000000	0.000000	7.234919	402.806	NaN	0.000000	0.001575	0.001648	28.0823	97.7246	0.001795	54440.8	2.419459	173.358	393.48	1.217794	0.108833	0.108501	402.806	54440.8	0.103283	0.325281	1238.33	87210.5
1063	2.000000	1.220663	7.37545e+06	-53289.1	1055.82	-29746.6	0.000000	0.000000	7.238325	423.939	NaN	0.000000	0.001586	0.001684	28.0821	100.531	0.001790	56152.3	5.083613	-9.066924	417.02	1.220359	0.111370	0.111066	423.939	56152.3	0.105707	0.339003	1250.55	88112.8
1063	2.000000	1.222177	7.37545e+06	-53289.1	1055.82	-29746.6	0.000000	0.000000	7.240693	444.71	NaN	0.000000	0.001609	0.001640	28.0823	101.275	0.001831	55314.4	5.713303	170.556	439.957	1.221937	0.112884	0.112644	444.71	55314.4	0.106854	0.345586	1286.83	85967.4