File: remote_trans/data/nanoindenter/0828-1/data/Data_2025-08-06,11h17m57s/2025-07-22_16-23-58_1_407.txt
2025-07-22, 16:23:58, 1
Index	Phase	Displacement	Time	Pos X	Pos Y	Pos Z	Rot A	Rot B	Piezo Z	Force A	Force B	Gripper	Voltage A	Voltage B	Temperature	Amplitude force	Amplitude pos	Stiffness	Phase shift	Phase excitation	Force A raw	Displacement raw	HMax	HMax raw	Real Force	Real Stiffness	Contact Depth	Area	Hardness	Reduced Mod.
[#]	[#]	[um]	[s]	[um]	[um]	[um]	[m°]	[m°]	[um]	[uN]	[uN]	[V]	[V]	[V]	[°C]	[uN]	[um]	[N/m]	[°]	[°]	[uN]	[um]	[um]	[um]	[uN]	[N/m]	[um]	[um^2]	[MPa]	[MPa]
407	1.000000	0.002556	7.36904e+06	-56739.1	1005.82	-29738.3	0.000000	0.000000	6.002780	-0.030364	NaN	0.000000	0.001576	0.001588	28.0798	0.021068	0.000895	23.5356	-111.063	-166.208	0.035917	0.001295	-1.097388	-1.098649	-0.030364	23.5356	-1.096420	-4.487564E+14	6.766226E-17	NaN
407	1.000000	0.012617	7.36904e+06	-56739.1	1005.82	-29738.3	0.000000	0.000000	6.012841	-0.037850	NaN	0.000000	0.001593	0.001587	28.0796	0.061299	0.001241	49.4096	176.977	18.6973	-0.041349	0.011175	-1.087326	-1.088769	-0.037850	49.4096	-1.086752	-3.328096E+14	1.137280E-16	NaN
407	1.000000	0.022508	7.36904e+06	-56739.1	1005.82	-29738.3	0.000000	0.000000	6.022734	0.014382	NaN	0.000000	0.001596	0.001599	28.0795	0.018403	0.001724	10.6731	46.1583	-164.401	0.024845	0.021160	-1.077435	-1.078783	0.014382	10.6731	-1.078446	-2.574234E+14	-5.586882E-17	NaN
407	1.000000	0.032530	7.36904e+06	-56739.1	1005.82	-29738.3	0.000000	0.000000	6.032755	-0.024342	NaN	0.000000	0.001583	0.001663	28.081	0.016250	0.001929	8.424508	44.1627	13.96	0.023958	0.031176	-1.067413	-1.068767	-0.024342	8.424508	-1.065246	-1.711271E+14	1.422472E-16	NaN
407	1.000000	0.042524	7.36904e+06	-56739.1	1005.82	-29738.3	0.000000	0.000000	6.042749	-0.019722	NaN	0.000000	0.001595	0.001642	28.081	0.119910	0.002047	58.5782	173.574	-168.476	-0.043386	0.041277	-1.057419	-1.058667	-0.019722	58.5782	-1.057167	-1.332734E+14	1.479788E-16	NaN
407	1.000000	0.052513	7.36904e+06	-56739.1	1005.82	-29738.3	0.000000	0.000000	6.052740	0.033526	NaN	0.000000	0.001600	0.001648	28.0807	0.112424	0.001940	57.9587	-94.3338	17.9057	0.048758	0.051197	-1.047431	-1.048746	0.033526	57.9587	-1.047865	-9.993295E+13	-3.354822E-16	NaN
407	1.000000	0.062503	7.36904e+06	-56739.1	1005.82	-29738.3	0.000000	0.000000	6.062730	0.051036	NaN	0.000000	0.001605	0.001626	28.0807	0.089251	0.001968	45.3507	-78.6918	-163.592	0.001021	0.061197	-1.037441	-1.038747	0.051036	45.3507	-1.038285	-7.428519E+13	-6.870285E-16	NaN
407	1.000000	0.072526	7.36904e+06	-56739.1	1005.82	-29738.3	0.000000	0.000000	6.072755	0.076575	NaN	0.000000	0.001597	0.001625	28.0805	0.022864	0.002074	11.0216	-54.3384	14.2594	0.028935	0.071108	-1.027417	-1.028836	0.076575	11.0216	-1.032628	-6.234876E+13	-1.228174E-15	NaN
407	1.000000	0.082567	7.36904e+06	-56739.1	1005.82	-29738.3	0.000000	0.000000	6.082789	-0.086589	NaN	0.000000	0.001612	0.001638	28.081	0.061394	0.002042	30.0658	93.3532	-165.503	-0.101398	0.081232	-1.017376	-1.018711	-0.086589	30.0658	-1.015216	-3.635661E+13	2.381668E-15	NaN
407	1.000000	0.092525	7.36904e+06	-56739.1	1005.82	-29738.3	0.000000	0.000000	6.092750	-0.008066	NaN	0.000000	0.001614	0.001621	28.0806	0.118113	0.001870	63.164	127.77	15.0791	-0.035114	0.091177	-1.007418	-1.008766	-0.008066	63.164	-1.007323	-2.846719E+13	2.833412E-16	NaN
407	1.000000	0.102535	7.36904e+06	-56739.1	1005.82	-29738.3	0.000000	0.000000	6.102759	-0.035289	NaN	0.000000	0.001633	0.001641	28.0808	0.073045	0.002097	34.8357	-164.651	-164.379	-0.055425	0.101217	-0.997409	-0.998726	-0.035289	34.8357	-0.996649	-2.044791E+13	1.725810E-15	NaN
407	1.000000	0.112536	7.36904e+06	-56739.1	1005.82	-29738.3	0.000000	0.000000	6.112761	-0.016061	NaN	0.000000	0.001585	0.001633	28.0806	0.078728	0.001962	40.1253	75.5692	15.4822	-0.122856	0.111221	-0.987407	-0.988723	-0.016061	40.1253	-0.987107	-1.521071E+13	1.055877E-15	NaN
407	1.000000	0.122540	7.36904e+06	-56739.1	1005.82	-29738.3	0.000000	0.000000	6.122765	0.005489	NaN	0.000000	0.001588	0.001649	28.0809	0.139176	0.001881	74.0017	156.026	-164.053	-0.038885	0.121213	-0.977404	-0.978730	0.005489	74.0017	-0.977459	-1.127669E+13	-4.867698E-16	NaN
407	1.000000	0.132544	7.36904e+06	-56739.1	1005.82	-29738.3	0.000000	0.000000	6.132771	0.031668	NaN	0.000000	0.001644	0.001642	28.0806	0.032909	0.002100	15.6733	93.6559	17.4457	0.035539	0.131198	-0.967400	-0.968745	0.031668	15.6733	-0.968915	-8.650504E+12	-3.660853E-15	NaN
407	1.000000	0.142544	7.36904e+06	-56739.1	1005.82	-29738.3	0.000000	0.000000	6.142769	-0.003404	NaN	0.000000	0.001632	0.001644	28.0806	0.104226	0.002066	50.4579	90.7653	-167.547	0.035657	0.141267	-0.957400	-0.958677	-0.003404	50.4579	-0.957349	-6.041270E+12	5.634248E-16	NaN
407	1.000000	0.152534	7.36904e+06	-56739.1	1005.82	-29738.3	0.000000	0.000000	6.152760	0.016212	NaN	0.000000	0.001631	0.001630	28.0808	0.104579	0.002103	49.7238	-126.094	14.436	0.086764	0.151181	-0.947410	-0.948762	0.016212	49.7238	-0.947654	-4.470833E+12	-3.626279E-15	NaN
407	1.000000	0.162560	7.36904e+06	-56739.1	1005.82	-29738.3	0.000000	0.000000	6.162786	0.018921	NaN	0.000000	0.001642	0.001629	28.0797	0.096171	0.001947	49.3884	-123.899	-162.724	0.052292	0.161231	-0.937383	-0.938713	0.018921	49.3884	-0.937671	-3.278763E+12	-5.770697E-15	NaN
407	1.000000	0.172565	7.36904e+06	-56739.1	1005.82	-29738.3	0.000000	0.000000	6.172789	-0.040143	NaN	0.000000	0.001643	0.001653	28.0797	0.094588	0.001935	48.8926	-40.7326	12.6576	-0.080614	0.171256	-0.927379	-0.928687	-0.040143	48.8926	-0.926763	-2.336169E+12	1.718327E-14	NaN
407	1.000000	0.182589	7.36904e+06	-56739.1	1005.82	-29738.3	0.000000	0.000000	6.182814	-0.001019	NaN	0.000000	0.001647	0.001699	28.0797	0.022644	0.001994	11.3534	158.283	-165.857	0.006292	0.181218	-0.917355	-0.918726	-0.001019	11.3534	-0.917288	-1.740131E+12	5.857939E-16	NaN
407	1.000000	0.192601	7.36904e+06	-56739.1	1005.82	-29738.3	0.000000	0.000000	6.192827	0.024716	NaN	0.000000	0.001629	0.001681	28.0798	0.123947	0.001865	66.4691	-43.2486	19.5313	0.002568	0.191203	-0.907343	-0.908740	0.024716	66.4691	-0.907622	-1.288370E+12	-1.918417E-14	NaN
407	1.000000	0.202544	7.36904e+06	-56739.1	1005.82	-29738.3	0.000000	0.000000	6.202772	0.051585	NaN	0.000000	0.001654	0.001670	28.0796	0.064393	0.002064	31.1973	47.4811	-164.478	-0.018392	0.201345	-0.897399	-0.898598	0.051585	31.1973	-0.898639	-9.742690E+11	-5.294771E-14	NaN
407	1.000000	0.212605	7.36904e+06	-56739.1	1005.82	-29738.3	0.000000	0.000000	6.212828	-0.071261	NaN	0.000000	0.001660	0.001657	28.0795	0.082972	0.002131	38.9368	93.1743	16.6752	0.007686	0.211241	-0.887338	-0.888703	-0.071261	38.9368	-0.885966	-6.567131E+11	1.085119E-13	NaN
407	1.000000	0.222574	7.36904e+06	-56739.1	1005.82	-29738.3	0.000000	0.000000	6.222799	-0.020482	NaN	0.000000	0.001684	0.001704	28.0796	0.079011	0.002010	39.3176	-91.8907	-165.09	0.029587	0.221337	-0.877369	-0.878606	-0.020482	39.3176	-0.876979	-4.964161E+11	4.126057E-14	NaN
407	1.000000	0.232593	7.36904e+06	-56739.1	1005.82	-29738.3	0.000000	0.000000	6.232820	0.015938	NaN	0.000000	0.001633	0.001674	28.0798	0.049564	0.001993	24.8635	-144.086	17.8703	0.043442	0.231268	-0.867350	-0.868676	0.015938	24.8635	-0.867831	-3.733336E+11	-4.269179E-14	NaN
407	1.000000	0.242601	7.36904e+06	-56739.1	1005.82	-29738.3	0.000000	0.000000	6.242824	-0.065027	NaN	0.000000	0.001679	0.001701	28.0799	0.066102	0.002031	32.5495	-126.482	-166.441	0.014785	0.241263	-0.857342	-0.858680	-0.065027	32.5495	-0.855844	-2.569577E+11	2.530643E-13	NaN
407	1.000000	0.252622	7.36904e+06	-56739.1	1005.82	-29738.3	0.000000	0.000000	6.252847	-0.019804	NaN	0.000000	0.001648	0.001627	28.0799	0.036980	0.002093	17.6728	36.7385	20.1014	0.016181	0.251216	-0.847321	-0.848727	-0.019804	17.6728	-0.846481	-1.919028E+11	1.032000E-13	NaN
407	1.000000	0.262609	7.36904e+06	-56739.1	1005.82	-29738.3	0.000000	0.000000	6.262835	-0.008472	NaN	0.000000	0.001671	0.001683	28.08	0.133193	0.001969	67.6309	143.798	-163.97	-0.025977	0.261256	-0.837334	-0.838688	-0.008472	67.6309	-0.837240	-1.438471E+11	5.889448E-14	NaN
407	1.000000	0.272626	7.36904e+06	-56739.1	1005.82	-29738.3	0.000000	0.000000	6.272853	0.036438	NaN	0.000000	0.001669	0.001647	28.0797	0.101240	0.002032	49.8196	-3.562111	19.4582	-0.049101	0.271233	-0.827317	-0.828710	0.036438	49.8196	-0.827866	-1.073629E+11	-3.393898E-13	NaN
407	1.000000	0.282602	7.36904e+06	-56739.1	1005.82	-29738.3	0.000000	0.000000	6.282826	-0.033017	NaN	0.000000	0.001686	0.001648	28.0798	0.039025	0.001855	21.0342	-119.666	-160.505	0.007550	0.281351	-0.817342	-0.818593	-0.033017	21.0342	-0.816165	-7.450695E+10	4.431421E-13	NaN
407	1.000000	0.292574	7.36904e+06	-56739.1	1005.82	-29738.3	0.000000	0.000000	6.292801	0.023855	NaN	0.000000	0.001662	0.001663	28.0801	0.105383	0.001779	59.2243	-18.1244	11.1603	0.055695	0.291250	-0.807369	-0.808694	0.023855	59.2243	-0.807671	-5.714485E+10	-4.174534E-13	NaN
407	1.000000	0.302626	7.36904e+06	-56739.1	1005.82	-29738.3	0.000000	0.000000	6.302851	-0.022113	NaN	0.000000	0.001648	0.001653	28.0814	0.107088	0.002059	52.0135	-31.8851	-165.404	-0.056481	0.301342	-0.797317	-0.798601	-0.022113	52.0135	-0.796998	-4.093695E+10	5.401705E-13	NaN
407	1.000000	0.312636	7.36904e+06	-56739.1	1005.82	-29738.3	0.000000	0.000000	6.312861	-0.013124	NaN	0.000000	0.001608	0.001677	28.081	0.095027	0.001896	50.1193	-127.47	17.6383	0.011669	0.311311	-0.787308	-0.788632	-0.013124	50.1193	-0.787111	-3.005024E+10	4.367387E-13	NaN
407	1.000000	0.322618	7.36904e+06	-56739.1	1005.82	-29738.3	0.000000	0.000000	6.322844	0.016129	NaN	0.000000	0.001639	0.001674	28.081	0.114339	0.001896	60.3041	-93.9943	-166.514	0.015633	0.321334	-0.777326	-0.778609	0.016129	60.3041	-0.777526	-2.226456E+10	-7.244047E-13	NaN
407	1.000000	0.332639	7.36904e+06	-56739.1	1005.82	-29738.3	0.000000	0.000000	6.332860	-0.102459	NaN	0.000000	0.001655	0.001685	28.0813	0.044478	0.001982	22.4466	36.2866	15.4541	0.022955	0.331270	-0.767305	-0.768673	-0.102459	22.4466	-0.763881	-1.452442E+10	7.054285E-12	NaN
407	1.000000	0.342677	7.36904e+06	-56739.1	1005.82	-29738.3	0.000000	0.000000	6.342901	-0.038203	NaN	0.000000	0.001607	0.001687	28.081	0.043638	0.002054	21.2414	-140.621	-166.542	-0.027887	0.341311	-0.757267	-0.758632	-0.038203	21.2414	-0.755918	-1.131785E+10	3.375447E-12	NaN
407	1.000000	0.352645	7.36904e+06	-56739.1	1005.82	-29738.3	0.000000	0.000000	6.352869	-0.027162	NaN	0.000000	0.001633	0.001675	28.081	0.113922	0.001925	59.1654	-151.209	11.2605	-0.073583	0.351302	-0.747299	-0.748641	-0.027162	59.1654	-0.746954	-8.545927E+9	3.178363E-12	NaN
407	1.000000	0.362657	7.36904e+06	-56739.1	1005.82	-29738.3	0.000000	0.000000	6.362883	0.004336	NaN	0.000000	0.001597	0.001660	28.0808	0.068822	0.002189	31.4332	164.607	-162.956	0.021276	0.361289	-0.737286	-0.738654	0.004336	31.4332	-0.737390	-6.331402E+9	-6.847861E-13	NaN
407	1.000000	0.372636	7.36904e+06	-56739.1	1005.82	-29738.3	0.000000	0.000000	6.372860	-0.049382	NaN	0.000000	0.001655	0.001696	28.0815	0.056911	0.002012	28.2898	-43.8328	16.4446	-0.171783	0.371317	-0.727307	-0.728627	-0.049382	28.2898	-0.725998	-4.428541E+9	1.115078E-11	NaN
407	1.000000	0.382674	7.36904e+06	-56739.1	1005.82	-29738.3	0.000000	0.000000	6.382901	0.024846	NaN	0.000000	0.001608	0.001701	28.0809	0.164315	0.001996	82.3196	-161.293	-162.772	0.021599	0.381356	-0.717270	-0.718587	0.024846	82.3196	-0.717496	-3.390932E+9	-7.327049E-12	NaN
407	1.000000	0.392676	7.36904e+06	-56739.1	1005.82	-29738.3	0.000000	0.000000	6.392897	-0.107147	NaN	0.000000	0.001621	0.001710	28.0809	0.002336	0.002012	1.161313	20.0896	16.2362	-0.048025	0.391295	-0.707268	-0.708649	-0.107147	1.161313	-0.638070	-2.778479E+8	3.856315E-10	NaN
407	1.000000	0.402648	7.36904e+06	-56739.1	1005.82	-29738.4	0.000000	0.000000	6.402872	-0.046386	NaN	0.000000	0.001611	0.001672	28.081	0.071606	0.001919	37.3057	-175.466	-164.673	-0.027746	0.401352	-0.697295	-0.698592	-0.046386	37.3057	-0.696363	-1.745230E+9	2.657872E-11	NaN
407	1.000000	0.412671	7.36904e+06	-56739.1	1005.82	-29738.4	0.000000	0.000000	6.412897	0.004026	NaN	0.000000	0.001604	0.001670	28.0809	0.095900	0.001959	48.9656	127.627	13.4283	0.004993	0.411290	-0.687272	-0.688654	0.004026	48.9656	-0.687334	-1.313643E+9	-3.064400E-12	NaN
407	1.000000	0.422658	7.36904e+06	-56739.1	1005.82	-29738.4	0.000000	0.000000	6.422882	-0.033247	NaN	0.000000	0.001609	0.001667	28.0806	0.036783	0.001865	19.7276	85.9207	-163.087	-0.012729	0.421349	-0.677285	-0.678595	-0.033247	19.7276	-0.676021	-9.199965E+8	3.613774E-11	NaN
407	1.000000	0.432692	7.36904e+06	-56739.1	1005.82	-29738.4	0.000000	0.000000	6.432919	0.022461	NaN	0.000000	0.001623	0.001684	28.0805	0.071823	0.002080	34.5363	-69.0812	18.4244	0.013707	0.431344	-0.667251	-0.668600	0.022461	34.5363	-0.667739	-7.086658E+8	-3.169536E-11	NaN
407	1.000000	0.442680	7.36904e+06	-56739.1	1005.82	-29738.4	0.000000	0.000000	6.442902	-0.085245	NaN	0.000000	0.001586	0.001675	28.0795	0.053297	0.002027	26.2943	72.6917	-164.184	0.001738	0.441375	-0.657263	-0.658569	-0.085245	26.2943	-0.654832	-4.716954E+8	1.807200E-10	NaN
407	1.000000	0.452714	7.36904e+06	-56739.1	1005.82	-29738.4	0.000000	0.000000	6.452937	-0.055625	NaN	0.000000	0.001608	0.001688	28.0796	0.021898	0.002006	10.9154	127.559	16.6911	0.012016	0.451305	-0.647230	-0.648638	-0.055625	10.9154	-0.643408	-3.288802E+8	1.691339E-10	NaN
407	1.000000	0.462706	7.36904e+06	-56739.1	1005.82	-29738.4	0.000000	0.000000	6.462930	-0.020859	NaN	0.000000	0.001636	0.001688	28.0796	0.096025	0.002087	46.0076	92.6339	-164.097	-0.129392	0.461394	-0.637238	-0.638549	-0.020859	46.0076	-0.636898	-2.677440E+8	7.790777E-11	NaN
407	1.000000	0.472731	7.36904e+06	-56739.1	1005.82	-29738.4	0.000000	0.000000	6.472956	-0.011140	NaN	0.000000	0.001618	0.001692	28.0795	0.132902	0.001982	67.0459	-173.91	12.857	-0.012800	0.471366	-0.627212	-0.628578	-0.011140	67.0459	-0.627088	-1.963478E+8	5.673770E-11	NaN
407	1.000000	0.482713	7.36904e+06	-56739.1	1005.82	-29738.4	0.000000	0.000000	6.482937	-0.026964	NaN	0.000000	0.001599	0.001714	28.0797	0.125805	0.002103	59.8277	107.523	-162.19	-0.050123	0.481425	-0.617231	-0.618519	-0.026964	59.8277	-0.616893	-1.422059E+8	1.896143E-10	NaN
407	1.000000	0.492716	7.36904e+06	-56739.1	1005.82	-29738.4	0.000000	0.000000	6.492937	-0.105832	NaN	0.000000	0.001612	0.001689	28.0794	0.066746	0.002026	32.947	114.682	14.8062	-0.005385	0.491381	-0.607228	-0.608563	-0.105832	32.947	-0.604818	-9.700728E+7	1.090974E-9	NaN
407	1.000000	0.502690	7.36904e+06	-56739.1	1005.82	-29738.4	0.000000	0.000000	6.502917	0.026509	NaN	0.000000	0.001587	0.001691	28.0796	0.056994	0.001962	29.0548	-58.0403	-162.765	0.040065	0.501367	-0.597253	-0.598577	0.026509	29.0548	-0.597937	-7.799223E+7	-3.398896E-10	NaN
407	1.000000	0.512720	7.36904e+06	-56739.1	1005.82	-29738.4	0.000000	0.000000	6.512947	0.022949	NaN	0.000000	0.001620	0.001675	28.0797	0.045640	0.002018	22.6216	15.8754	13.6796	0.100186	0.511367	-0.587223	-0.588577	0.022949	22.6216	-0.587984	-5.686837E+7	-4.035517E-10	NaN
407	1.000000	0.522741	7.36904e+06	-56739.1	1005.82	-29738.4	0.000000	0.000000	6.522966	-0.007932	NaN	0.000000	0.001625	0.001658	28.0799	0.027019	0.002101	12.8627	-116.794	-168.661	-0.037984	0.521475	-0.577203	-0.578468	-0.007932	12.8627	-0.576740	-3.978591E+7	1.993575E-10	NaN
407	1.000000	0.532729	7.36904e+06	-56739.1	1005.82	-29738.4	0.000000	0.000000	6.532955	0.009813	NaN	0.000000	0.001642	0.001688	28.0798	0.079998	0.002075	38.5596	-129.965	13.786	0.011890	0.531397	-0.567214	-0.568547	0.009813	38.5596	-0.567405	-2.956449E+7	-3.319305E-10	NaN
407	1.000000	0.542730	7.36904e+06	-56739.1	1005.82	-29738.4	0.000000	0.000000	6.542950	-0.142547	NaN	0.000000	0.001612	0.001705	28.0796	0.147363	0.001999	73.7326	-165.761	-163.898	-0.081149	0.541446	-0.557214	-0.558498	-0.142547	73.7326	-0.555764	-2.040600E+7	6.985548E-9	NaN
407	1.000000	0.552713	7.36904e+06	-56739.1	1005.82	-29738.4	0.000000	0.000000	6.552937	-0.044109	NaN	0.000000	0.001681	0.001680	28.0795	0.037019	0.001801	20.5581	105.787	15.8618	-0.003392	0.551310	-0.547230	-0.548633	-0.044109	20.5581	-0.545621	-1.476684E+7	2.987061E-9	NaN
407	1.000000	0.562752	7.36904e+06	-56739.1	1005.82	-29738.4	0.000000	0.000000	6.562976	-0.053433	NaN	0.000000	0.001682	0.001695	28.0797	0.025198	0.002005	12.5683	54.5472	-160.793	-0.072038	0.561420	-0.537191	-0.538524	-0.053433	12.5683	-0.534003	-1.018939E+7	5.243947E-9	NaN
407	1.000000	0.572711	7.36904e+06	-56739.1	1005.82	-29738.4	0.000000	0.000000	6.572937	-0.000354	NaN	0.000000	0.001618	0.001700	28.081	0.062489	0.002140	29.2006	-16.6018	15.812	0.073354	0.571418	-0.527233	-0.528526	-0.000354	29.2006	-0.527223	-8.20364e+06	4.315567E-11	NaN
407	1.000000	0.582748	7.36904e+06	-56739.1	1005.82	-29738.4	0.000000	0.000000	6.582975	0.052118	NaN	0.000000	0.001651	0.001672	28.081	0.070946	0.002066	34.3479	31.2711	-164.467	0.060727	0.581434	-0.517196	-0.518510	0.052118	34.3479	-0.518334	-6.17198e+06	-8.444215E-9	NaN
407	1.000000	0.592793	7.36904e+06	-56739.1	1005.82	-29738.4	0.000000	0.000000	6.593018	-0.002864	NaN	0.000000	0.001691	0.001658	28.0811	0.044640	0.001931	23.1132	-72.7373	16.9991	0.048164	0.591407	-0.507151	-0.508537	-0.002864	23.1132	-0.507058	-4.29962e+06	6.660521E-10	NaN
407	1.000000	0.602757	7.36904e+06	-56739.1	1005.82	-29738.4	0.000000	0.000000	6.602983	0.011680	NaN	0.000000	0.001674	0.001687	28.0811	0.019990	0.002083	9.595891	124.831	-164.954	0.081475	0.601447	-0.497187	-0.498497	0.011680	9.595891	-0.498099	-3.22478e+06	-3.622052E-9	NaN
407	1.000000	0.612766	7.36904e+06	-56739.1	1005.82	-29738.4	0.000000	0.000000	6.612992	0.013140	NaN	0.000000	0.001631	0.001660	28.081	0.200723	0.001931	103.949	114.974	12.7677	0.044758	0.611429	-0.487177	-0.488514	0.013140	103.949	-0.487272	-2.27647e+06	-5.772268E-9	NaN
407	1.000000	0.622765	7.36904e+06	-56739.1	1005.82	-29738.4	0.000000	0.000000	6.622990	-0.011818	NaN	0.000000	0.001607	0.001630	28.0812	0.009778	0.001902	5.141909	-19.598	-168.694	0.030701	0.621460	-0.477179	-0.478483	-0.011818	5.141909	-0.475455	-1.55553e+06	7.597282E-9	NaN
407	1.000000	0.632794	7.36904e+06	-56739.1	1005.82	-29738.4	0.000000	0.000000	6.633021	0.022570	NaN	0.000000	0.001671	0.001669	28.081	0.080059	0.002101	38.114	-56.6045	16.156	0.058440	0.631393	-0.467149	-0.468551	0.022570	38.114	-0.467593	-1.20683e+06	-1.870151E-8	NaN
407	1.000000	0.642812	7.36904e+06	-56739.1	1005.82	-29738.4	0.000000	0.000000	6.643039	0.023259	NaN	0.000000	0.001684	0.001701	28.081	0.046473	0.002020	23.0062	-163.433	-166.819	-0.071793	0.641402	-0.457131	-0.458541	0.023259	23.0062	-0.457890	-881767	-2.637818E-8	NaN
407	1.000000	0.652789	7.36904e+06	-56739.1	1005.82	-29738.4	0.000000	0.000000	6.653010	-0.104504	NaN	0.000000	0.001682	0.001704	28.0807	0.037782	0.001918	19.6967	-172.458	16.6629	-0.056010	0.651453	-0.447154	-0.448491	-0.104504	19.6967	-0.443175	-547219	1.909723E-7	NaN
407	1.000000	0.662785	7.36904e+06	-56739.1	1005.82	-29738.4	0.000000	0.000000	6.663008	-0.059864	NaN	0.000000	0.001665	0.001693	28.0811	0.025359	0.001958	12.9483	96.8002	-168.156	0.027916	0.661472	-0.437158	-0.438472	-0.059864	12.9483	-0.433691	-402025	1.489057E-7	NaN
407	1.000000	0.672795	7.36904e+06	-56739.1	1005.82	-29738.4	0.000000	0.000000	6.673019	-0.034593	NaN	0.000000	0.001686	0.001634	28.0811	0.082543	0.001960	42.1127	12.2167	19.0176	-0.024695	0.671417	-0.427148	-0.428526	-0.034593	42.1127	-0.426532	-318408	1.086440E-7	NaN
407	1.000000	0.682802	7.36904e+06	-56739.1	1005.82	-29738.4	0.000000	0.000000	6.683025	-0.074909	NaN	0.000000	0.001664	0.001645	28.0809	0.103676	0.001975	52.5041	92.0542	-166.644	-0.073655	0.681521	-0.417141	-0.418422	-0.074909	52.5041	-0.416071	-226291	3.310296E-7	NaN
407	1.000000	0.692772	7.36904e+06	-56739.1	1005.82	-29738.4	0.000000	0.000000	6.692997	-0.011026	NaN	0.000000	0.001681	0.001606	28.081	0.052267	0.001889	27.6663	144.832	13.2432	-0.037982	0.691473	-0.407171	-0.408471	-0.011026	27.6663	-0.406872	-167457	6.584304E-8	NaN
407	1.000000	0.702793	7.36904e+06	-56739.1	1005.82	-29738.4	0.000000	0.000000	6.703016	-0.055783	NaN	0.000000	0.001572	0.001633	28.0812	0.100148	0.001873	53.46	-7.354856	-166.27	-0.056213	0.701503	-0.397150	-0.398440	-0.055783	53.46	-0.396368	-118622	4.702571E-7	NaN
407	1.000000	0.712787	7.36904e+06	-56739.1	1005.82	-29738.4	0.000000	0.000000	6.713015	0.062345	NaN	0.000000	0.001593	0.001617	28.0796	0.061600	0.002014	30.5923	-147.306	17.5122	0.011194	0.711458	-0.387156	-0.388485	0.062345	30.5923	-0.388685	-92119	-6.767868E-7	NaN
407	1.000000	0.722835	7.36904e+06	-56739.1	1005.82	-29738.4	0.000000	0.000000	6.723059	-0.036599	NaN	0.000000	0.001598	0.001595	28.0799	0.039174	0.001986	19.7293	-31.469	-167.111	-0.053611	0.721502	-0.377109	-0.378442	-0.036599	19.7293	-0.375717	-60031.7	6.096532E-7	NaN
407	1.000000	0.732833	7.36904e+06	-56739.1	1005.82	-29738.4	0.000000	0.000000	6.733061	0.042004	NaN	0.000000	0.001616	0.001637	28.0799	0.051083	0.001987	25.7082	-104.118	12.3685	-0.006976	0.731461	-0.367110	-0.368483	0.042004	25.7082	-0.368336	-47005.5	-8.936032E-7	NaN
407	1.000000	0.742849	7.36904e+06	-56739.1	1005.82	-29738.4	0.000000	0.000000	6.743075	0.017762	NaN	0.000000	0.001620	0.001591	28.08	0.075588	0.001873	40.3489	3.246313	-168.422	-0.048919	0.741531	-0.357094	-0.358413	0.017762	40.3489	-0.357424	-32703.6	-5.431185E-7	NaN
407	1.000000	0.752828	7.36904e+06	-56739.1	1005.82	-29738.4	0.000000	0.000000	6.753055	0.036795	NaN	0.000000	0.001611	0.001587	28.0795	0.108211	0.002050	52.7795	-27.9267	12.402	-0.019903	0.751477	-0.347116	-0.348467	0.036795	52.7795	-0.347638	-23589	-1.559848E-6	NaN
407	1.000000	0.762807	7.36904e+06	-56739.1	1005.82	-29738.4	0.000000	0.000000	6.763034	0.041623	NaN	0.000000	0.001631	0.001592	28.0796	0.008389	0.001982	4.233244	24.7406	-163.131	0.019337	0.761531	-0.337136	-0.338413	0.041623	4.233244	-0.344511	-21244.1	-1.959275E-6	NaN
407	1.000000	0.772827	7.36904e+06	-56739.1	1005.82	-29738.4	0.000000	0.000000	6.773052	-0.018093	NaN	0.000000	0.001610	0.001610	28.0796	0.065955	0.001899	34.7278	58.5485	14.1174	-0.029543	0.771521	-0.327116	-0.328423	-0.018093	34.7278	-0.326725	-11680.4	1.548971E-6	NaN
407	1.000000	0.782824	7.36904e+06	-56739.1	1005.82	-29738.4	0.000000	0.000000	6.783049	-0.001912	NaN	0.000000	0.001607	0.001600	28.0799	0.085929	0.001939	44.3127	153.72	-160.545	-0.137675	0.781548	-0.317120	-0.318396	-0.001912	44.3127	-0.317088	-8428.25	2.268791E-7	NaN
407	1.000000	0.792858	7.36904e+06	-56739.1	1005.82	-29738.4	0.000000	0.000000	6.793082	-0.038928	NaN	0.000000	0.001630	0.001582	28.0796	0.026218	0.001843	14.2254	-33.2319	13.0084	0.002198	0.791443	-0.307085	-0.308501	-0.038928	14.2254	-0.305033	-5590.38	6.963469E-6	NaN
407	1.000000	0.802876	7.36904e+06	-56739.1	1005.82	-29738.4	0.000000	0.000000	6.803100	-0.024222	NaN	0.000000	0.001628	0.001593	28.0798	0.089335	0.001989	44.9148	138.983	-164.663	0.049037	0.801530	-0.297068	-0.298413	-0.024222	44.9148	-0.296663	-4196.74	5.771530E-6	NaN
407	1.000000	0.812837	7.36904e+06	-56739.1	1005.82	-29738.4	0.000000	0.000000	6.813064	0.022278	NaN	0.000000	0.001622	0.001647	28.0798	0.075216	0.001911	39.3573	161.896	16.7239	0.012193	0.811428	-0.287106	-0.288516	0.022278	39.3573	-0.287531	-3063.91	-7.271082E-6	NaN
407	1.000000	0.822882	7.36904e+06	-56739.1	1005.82	-29738.4	0.000000	0.000000	6.823112	0.098388	NaN	0.000000	0.001612	0.001597	28.0798	0.041340	0.002163	19.1092	-104.917	-163.931	0.063770	0.821529	-0.277061	-0.278415	0.098388	19.1092	-0.280923	-2437.17	-4.036990E-5	NaN
407	1.000000	0.832837	7.36904e+06	-56739.1	1005.82	-29738.4	0.000000	0.000000	6.833060	-0.055448	NaN	0.000000	0.001616	0.001640	28.0798	0.050923	0.002110	24.1394	58.0084	13.1745	0.003583	0.831482	-0.267107	-0.268462	-0.055448	24.1394	-0.265384	-1416.59	3.914185E-5	NaN
407	1.000000	0.842853	7.36904e+06	-56739.1	1005.82	-29738.4	0.000000	0.000000	6.843077	-0.052689	NaN	0.000000	0.001624	0.001575	28.0799	0.126545	0.002035	62.1727	50.3393	-164.548	-0.064986	0.841575	-0.257090	-0.258369	-0.052689	62.1727	-0.256455	-1033.93	5.096018E-5	NaN
407	1.000000	0.852857	7.36904e+06	-56739.1	1005.82	-29738.4	0.000000	0.000000	6.853081	-0.037677	NaN	0.000000	0.001612	0.001582	28.0814	0.036926	0.002003	18.4315	-135.235	14.939	-0.030724	0.851520	-0.247087	-0.248424	-0.037677	18.4315	-0.245554	-701.542	5.370577E-5	NaN
407	1.000000	0.862869	7.36904e+06	-56739.1	1005.82	-29738.4	0.000000	0.000000	6.863093	-0.029174	NaN	0.000000	0.001627	0.001614	28.081	0.124470	0.001988	62.6003	150.713	-166.268	-0.028989	0.861549	-0.237075	-0.238394	-0.029174	62.6003	-0.236725	-510.873	5.710528E-5	NaN
407	1.000000	0.872872	7.36904e+06	-56739.1	1005.82	-29738.4	0.000000	0.000000	6.873098	0.010226	NaN	0.000000	0.001623	0.001627	28.0816	0.051312	0.001957	26.2238	8.290172	19.3057	0.008137	0.871475	-0.227071	-0.228468	0.010226	26.2238	-0.227364	-363.767	-2.811144E-5	NaN
407	1.000000	0.882882	7.36904e+06	-56739.1	1005.82	-29738.4	0.000000	0.000000	6.883105	-0.060053	NaN	0.000000	0.001623	0.001621	28.0811	0.058867	0.001905	30.8946	-1.633252	-161.737	0.000476	0.881536	-0.217062	-0.218408	-0.060053	30.8946	-0.215604	-236.172	0.000254	NaN
407	1.000000	0.892895	7.36904e+06	-56739.1	1005.82	-29738.4	0.000000	0.000000	6.893118	-0.041431	NaN	0.000000	0.001626	0.001566	28.0817	0.051347	0.002080	24.6907	-68.3084	13.4574	-0.098822	0.891506	-0.207049	-0.208438	-0.041431	24.6907	-0.205791	-163.85	0.000253	NaN
407	1.000000	0.902883	7.36904e+06	-56739.1	1005.82	-29738.4	0.000000	0.000000	6.903110	0.018431	NaN	0.000000	0.001643	0.001613	28.0812	0.045275	0.002001	22.6217	178.672	-162.487	0.033477	0.901562	-0.197060	-0.198381	0.018431	22.6217	-0.197671	-120.603	-0.000153	NaN
407	1.000000	0.912880	7.36904e+06	-56739.1	1005.82	-29738.4	0.000000	0.000000	6.913107	0.033911	NaN	0.000000	0.001651	0.001622	28.081	0.085769	0.002164	39.6396	56.8888	14.0221	-0.040458	0.911498	-0.187063	-0.188446	0.033911	39.6396	-0.187705	-82.3402	-0.000412	NaN
407	1.000000	0.922889	7.36905e+06	-56739.1	1005.82	-29738.4	0.000000	0.000000	6.923109	-0.136902	NaN	0.000000	0.001617	0.001595	28.0809	0.021815	0.001957	11.1495	-68.7314	-165.558	-0.010034	0.921550	-0.177055	-0.178394	-0.136902	11.1495	-0.167846	-37.6802	0.003633	NaN
407	1.000000	0.932904	7.36905e+06	-56739.1	1005.82	-29738.4	0.000000	0.000000	6.933130	-0.005316	NaN	0.000000	0.001635	0.001594	28.0812	0.049244	0.002033	24.2219	171.99	14.6021	0.040530	0.931584	-0.167039	-0.168359	-0.005316	24.2219	-0.166875	-36.2371	0.000147	NaN
407	1.000000	0.942894	7.36905e+06	-56739.1	1005.82	-29738.4	0.000000	0.000000	6.943121	0.038118	NaN	0.000000	0.001598	0.001587	28.0809	0.051245	0.002172	23.5922	-62.0652	-164.727	0.016552	0.941571	-0.157049	-0.158373	0.038118	23.5922	-0.158261	-25.5281	-0.001493	NaN
407	1.000000	0.952898	7.36905e+06	-56739.1	1005.82	-29738.4	0.000000	0.000000	6.953125	0.044593	NaN	0.000000	0.001629	0.001557	28.0809	0.063323	0.001925	32.9016	128.614	17.2711	0.064531	0.951525	-0.147046	-0.148419	0.044593	32.9016	-0.148062	-16.6944	-0.002671	NaN
407	1.000000	0.962915	7.36905e+06	-56739.1	1005.82	-29738.4	0.000000	0.000000	6.963140	-0.001768	NaN	0.000000	0.001600	0.001603	28.0809	0.066813	0.001982	33.7017	-55.3826	-165.951	-0.036138	0.961627	-0.137029	-0.138317	-0.001768	33.7017	-0.136990	-10.3788	0.000170	NaN
407	1.000000	0.972911	7.36905e+06	-56739.1	1005.82	-29738.4	0.000000	0.000000	6.973140	0.080354	NaN	0.000000	0.001605	0.001571	28.081	0.034836	0.001973	17.6539	-122.176	16.6235	0.090923	0.971600	-0.127032	-0.128344	0.080354	17.6539	-0.130446	-7.774389	-0.010336	NaN
407	1.000000	0.982901	7.36905e+06	-56739.1	1005.82	-29738.4	0.000000	0.000000	6.983128	0.021828	NaN	0.000000	0.001611	0.001599	28.0794	0.045065	0.002027	22.2349	-153.122	-167.296	-0.065499	0.981632	-0.117042	-0.118311	0.021828	22.2349	-0.117778	-4.355501	-0.005012	NaN
407	1.000000	0.992921	7.36905e+06	-56739.1	1005.82	-29738.4	0.000000	0.000000	6.993143	-0.084625	NaN	0.000000	0.001606	0.001611	28.0795	0.090366	0.002054	43.9854	-55.8894	17.0181	-0.103756	0.991568	-0.107023	-0.108375	-0.084625	43.9854	-0.105580	-2.419238	0.034980	NaN
407	1.000000	1.002895	7.36905e+06	-56739.1	1005.82	-29738.4	0.000000	0.000000	7.003121	0.013723	NaN	0.000000	0.001592	0.001613	28.0795	0.059035	0.001973	29.9187	-34.9298	-167.014	-0.016968	1.001606	-0.097048	-0.098337	0.013723	29.9187	-0.097392	-1.597937	-0.008588	NaN
407	1.000000	1.012904	7.36905e+06	-56739.1	1005.82	-29738.4	0.000000	0.000000	7.013127	-0.048502	NaN	0.000000	0.001582	0.001611	28.0795	0.020959	0.001946	10.7711	140.963	14.0872	-0.039140	1.011611	-0.087040	-0.088333	-0.048502	10.7711	-0.083662	-0.762374	0.063620	NaN
407	1.000000	1.022932	7.36905e+06	-56739.1	1005.82	-29738.4	0.000000	0.000000	7.023154	-0.074271	NaN	0.000000	0.001640	0.001647	28.0793	0.149842	0.001969	76.108	-74.3341	-167.479	-0.080166	1.021593	-0.077012	-0.078351	-0.074271	76.108	-0.076280	-0.498291	0.149051	NaN
407	1.000000	1.032938	7.36905e+06	-56739.1	1005.82	-29738.4	0.000000	0.000000	7.033162	-0.031484	NaN	0.000000	0.001652	0.001638	28.0795	0.041237	0.001932	21.3441	79.191	14.3132	-0.046695	1.031520	-0.067005	-0.068424	-0.031484	21.3441	-0.065899	-0.263900	0.119301	NaN
407	1.000000	1.042940	7.36905e+06	-56739.1	1005.82	-29738.4	0.000000	0.000000	7.043165	-0.019991	NaN	0.000000	0.001655	0.001635	28.0796	0.098642	0.002104	46.8821	35.5896	-162.604	-0.059866	1.041621	-0.057003	-0.058322	-0.019991	46.8821	-0.056683	-0.144333	0.138508	NaN
407	1.000000	1.052985	7.36905e+06	-56739.1	1005.82	-29738.4	0.000000	0.000000	7.053209	-0.052963	NaN	0.000000	0.001627	0.001606	28.0795	0.043921	0.001969	22.3012	68.8366	14.6935	-0.050143	1.051579	-0.046958	-0.048365	-0.052963	22.3012	-0.045177	-0.065074	0.813888	NaN
407	1.000000	1.062933	7.36905e+06	-56739.1	1005.82	-29738.4	0.000000	0.000000	7.063158	-0.020910	NaN	0.000000	0.001638	0.001633	28.0793	0.083469	0.002046	40.7903	47.74	-164.41	0.085910	1.061631	-0.037011	-0.038312	-0.020910	40.7903	-0.036626	-0.035785	0.584320	NaN
407	1.000000	1.072933	7.36905e+06	-56739.1	1005.82	-29738.4	0.000000	0.000000	7.073157	-0.016540	NaN	0.000000	0.001609	0.001638	28.0794	0.009340	0.001986	4.703225	64.2474	15.3976	0.017908	1.071593	-0.027011	-0.028350	-0.016540	4.703225	-0.024373	-0.016249	1.017925	NaN
407	1.000000	1.082953	7.36905e+06	-56739.1	1005.82	-29738.4	0.000000	0.000000	7.083179	0.016940	NaN	0.000000	0.001580	0.001648	28.0796	0.092755	0.001889	49.1108	27.5128	-165.201	0.025966	1.081594	-0.016991	-0.018349	0.016940	49.1108	-0.017250	-0.010671	-1.587533	NaN
407	1.000000	1.092969	7.36905e+06	-56739.1	1005.82	-29738.4	0.000000	0.000000	7.093201	0.165757	NaN	0.000000	0.001563	0.001689	28.0795	0.074913	0.002097	35.7227	48.4636	14.4587	0.154269	1.091575	-0.006975	-0.008369	0.165757	35.7227	-0.010455	-0.006647	-24.9359	NaN
407	1.000000	1.102934	7.36905e+06	-56739.1	1005.82	-29738.4	0.000000	0.000000	7.103190	0.721976	NaN	0.000000	0.001599	0.001681	28.0793	1.145979	0.002044	560.773	19.4978	-166.065	0.326959	1.101613	0.002991	0.001670	0.721976	560.773	0.002025	0.001575	458.349	12909.1
407	2.000000	1.111097	7.36905e+06	-56739.1	1005.82	-29738.4	0.000000	0.000000	7.111671	8.472392	NaN	0.000000	0.001554	0.001675	28.0794	8.326272	0.001664	5004.4	9.826995	7.220411	8.066168	1.110697	0.011153	0.010753	8.472392	5004.4	0.009883	0.009052	935.967	48056.6
407	2.000000	1.113556	7.36905e+06	-56739.1	1005.82	-29738.4	0.000000	0.000000	7.114228	10.8448	NaN	0.000000	0.001569	0.001698	28.0806	10.9685	0.001854	5917.33	10.2079	-172.48	10.2372	1.113259	0.013613	0.013316	10.8448	5917.33	0.012238	0.011776	920.893	49818.7
407	2.000000	1.116091	7.36905e+06	-56739.1	1005.82	-29738.4	0.000000	0.000000	7.116914	14.5215	NaN	0.000000	0.001579	0.001695	28.0807	13.9202	0.001859	7489.79	10.1501	5.139223	13.8346	1.115671	0.016147	0.015727	14.5215	7489.79	0.014693	0.014878	976.026	56100.5
407	2.000000	1.118501	7.36905e+06	-56739.1	1005.82	-29738.4	0.000000	0.000000	7.119525	19.4183	NaN	0.000000	0.001588	0.001677	28.0805	16.5778	0.001738	9535.8	6.043762	-175.793	18.4956	1.118224	0.018557	0.018280	19.4183	9535.8	0.017030	0.018089	1073.51	64777.9
407	2.000000	1.121017	7.36905e+06	-56739.1	1005.82	-29738.4	0.000000	0.000000	7.122219	23.749	NaN	0.000000	0.001569	0.001635	28.081	19.293	0.001823	10583.2	7.795875	3.247048	22.9039	1.120617	0.021073	0.020673	23.749	10583.2	0.019390	0.021593	1099.86	65801.5
407	2.000000	1.123516	7.36905e+06	-56739.1	1005.82	-29738.4	0.000000	0.000000	7.124920	28.6463	NaN	0.000000	0.001617	0.001639	28.0806	21.6126	0.001759	12289.3	3.919647	-174.622	27.5922	1.123178	0.023572	0.023234	28.6463	12289.3	0.021824	0.025490	1123.83	70326.1
407	2.000000	1.125989	7.36905e+06	-56739.1	1005.82	-29738.4	0.000000	0.000000	7.127710	36.3485	NaN	0.000000	0.001646	0.001645	28.0808	23.7268	0.001812	13093.9	3.277548	5.365322	34.3932	1.125657	0.026046	0.025713	36.3485	13093.9	0.023964	0.029157	1246.64	70060
407	2.000000	1.128469	7.36905e+06	-56739.1	1005.82	-29738.4	0.000000	0.000000	7.130394	41.3174	NaN	0.000000	0.001634	0.001618	28.0807	26.102	0.001634	15973.1	6.081635	-179.354	39.7672	1.128173	0.028525	0.028229	41.3174	15973.1	0.026585	0.033963	1216.56	79188.4
407	2.000000	1.130980	7.36905e+06	-56739.1	1005.82	-29738.4	0.000000	0.000000	7.133214	48.8157	NaN	0.000000	0.001644	0.001646	28.0809	29.0306	0.001748	16611.4	2.870856	3.422161	47.8354	1.130674	0.031037	0.030730	48.8157	16611.4	0.028833	0.038359	1272.6	77490.2
407	2.000000	1.133470	7.36905e+06	-56739.1	1005.82	-29738.4	0.000000	0.000000	7.136031	56.7543	NaN	0.000000	0.001627	0.001655	28.0808	32.4554	0.001900	17082.1	5.656857	-179.368	54.4014	1.133221	0.033526	0.033278	56.7543	17082.1	0.031035	0.042915	1322.47	75336.8
407	2.000000	1.136019	7.36905e+06	-56739.1	1005.82	-29738.4	0.000000	0.000000	7.138932	65.3205	NaN	0.000000	0.001684	0.001635	28.0809	34.9821	0.001794	19500.3	8.844474	-3.488287	64.7636	1.135616	0.036076	0.035672	65.3205	19500.3	0.033563	0.048454	1348.11	80938
407	2.000000	1.138416	7.36905e+06	-56739.1	1005.82	-29738.4	0.000000	0.000000	7.141806	76.9223	NaN	0.000000	0.001705	0.001662	28.081	36.491	0.001832	19923.4	5.761189	179.752	73.696	1.138154	0.038473	0.038210	76.9223	19923.4	0.035577	0.053098	1448.69	78994.6
407	2.000000	1.140993	7.36905e+06	-56739.1	1005.82	-29738.4	0.000000	0.000000	7.144843	88.09	NaN	0.000000	0.001679	0.001669	28.0807	38.8807	0.001689	23023.8	5.879808	-1.878274	86.4641	1.140599	0.041050	0.040656	88.09	23023.8	0.038180	0.059410	1482.74	86301.8
407	2.000000	1.143449	7.36905e+06	-56739.1	1005.82	-29738.4	0.000000	0.000000	7.147630	96.1609	NaN	0.000000	0.001681	0.001703	28.0809	42.6304	0.001862	22890.1	5.681332	177.833	93.5817	1.143193	0.043505	0.043250	96.1609	22890.1	0.040354	0.064947	1480.61	82061.7
407	2.000000	1.146007	7.36905e+06	-56739.1	1005.82	-29738.4	0.000000	0.000000	7.150592	105.959	NaN	0.000000	0.001658	0.001648	28.0802	44.1377	0.001765	25005.8	4.141546	-1.288160	103.148	1.145558	0.046064	0.045614	105.959	25005.8	0.042886	0.071698	1477.85	85321.7
407	2.000000	1.148477	7.36905e+06	-56739.1	1005.82	-29738.4	0.000000	0.000000	7.153638	119.963	NaN	0.000000	0.001661	0.001656	28.0798	47.2292	0.001808	26122.5	6.715134	175.596	119.627	1.148148	0.048534	0.048205	119.963	26122.5	0.045089	0.077841	1541.12	85542.7
407	2.000000	1.150989	7.36905e+06	-56739.1	1005.82	-29738.4	0.000000	0.000000	7.156572	130.207	NaN	0.000000	0.001647	0.001680	28.0794	48.8211	0.001806	27033.5	3.407315	-1.586957	128.611	1.150610	0.051046	0.050666	130.207	27033.5	0.047433	0.084645	1538.27	84893.5
407	2.000000	1.153460	7.36905e+06	-56739.1	1005.82	-29738.4	0.000000	0.000000	7.159591	143.546	NaN	0.000000	0.001643	0.001638	28.0797	51.4493	0.001710	30087.3	4.062747	177.233	141.837	1.153141	0.053516	0.053198	143.546	30087.3	0.049938	0.092221	1556.54	90519.4
407	2.000000	1.155960	7.36905e+06	-56739.1	1005.82	-29738.4	0.000000	0.000000	7.162561	154.95	NaN	0.000000	0.001670	0.001612	28.0796	52.7868	0.001883	28033.6	1.843886	0.546490	152.517	1.155621	0.056017	0.055677	154.95	28033.6	0.051871	0.098285	1576.53	81697.3
407	2.000000	1.158434	7.36905e+06	-56739.1	1005.82	-29738.4	0.000000	0.000000	7.165793	173.39	NaN	0.000000	0.001613	0.001656	28.0799	55.142	0.001738	31724.2	6.006263	174.745	171.803	1.158089	0.058491	0.058146	173.39	31724.2	0.054392	0.106469	1628.55	88828.5
407	2.000000	1.160897	7.36905e+06	-56739.1	1005.82	-29738.4	0.000000	0.000000	7.168647	182.893	NaN	0.000000	0.001628	0.001646	28.0794	58.3643	0.001753	33293.6	4.448893	-3.921563	177.895	1.160562	0.060954	0.060618	182.893	33293.6	0.056833	0.114699	1594.55	89816
407	2.000000	1.163467	7.36905e+06	-56739.1	1005.82	-29738.4	0.000000	0.000000	7.171966	201.099	NaN	0.000000	0.001604	0.001672	28.0795	60.0799	0.001653	36346.4	0.223672	-179.522	200.427	1.163085	0.063523	0.063141	201.099	36346.4	0.059374	0.123572	1627.38	94465.7
407	2.000000	1.165949	7.36905e+06	-56739.1	1005.82	-29738.4	0.000000	0.000000	7.174939	213.035	NaN	0.000000	0.001602	0.001674	28.0796	63.5037	0.001861	34114.9	5.130873	-4.612837	209.104	1.165628	0.066005	0.065684	213.035	34114.9	0.061322	0.130590	1631.32	86250.6
407	2.000000	1.168446	7.36905e+06	-56739.1	1005.82	-29738.4	0.000000	0.000000	7.178024	227.307	NaN	0.000000	0.001590	0.001684	28.0795	65.2671	0.001741	37493	3.927256	175.687	225.328	1.168212	0.068503	0.068268	227.307	37493	0.063956	0.140374	1619.29	91428.2
407	2.000000	1.170938	7.36905e+06	-56739.1	1005.82	-29738.4	0.000000	0.000000	7.181455	250.133	NaN	0.000000	0.001628	0.001669	28.0792	68.9491	0.001842	37433.3	7.593094	-7.282865	246.11	1.170491	0.070995	0.070547	250.133	37433.3	0.065983	0.148133	1688.57	88859.7
407	2.000000	1.173335	7.36905e+06	-56739.1	1005.82	-29738.4	0.000000	0.000000	7.184414	263.805	NaN	0.000000	0.001615	0.001676	28.0796	71.288	0.001781	40032.7	5.468473	173.865	258.182	1.173059	0.073392	0.073115	263.805	40032.7	0.068450	0.157838	1671.37	92062.3
407	2.000000	1.175907	7.36905e+06	-56739.1	1005.82	-29738.4	0.000000	0.000000	7.187737	282.041	NaN	0.000000	0.001591	0.001694	28.0796	73.2771	0.001837	39887.8	3.511825	-3.671706	276.955	1.175596	0.075964	0.075653	282.041	39887.8	0.070661	0.166786	1691.03	89234.7
407	2.000000	1.178351	7.36905e+06	-56739.1	1005.82	-29738.4	0.000000	0.000000	7.190809	297.315	NaN	0.000000	0.001636	0.001700	28.0796	75.5625	0.001832	41250.3	1.384194	177.663	291.332	1.178054	0.078408	0.078110	297.315	41250.3	0.073002	0.176514	1684.38	89703.8
407	2.000000	1.180878	7.36905e+06	-56739.1	1005.82	-29738.4	0.000000	0.000000	7.194178	317.8	NaN	0.000000	0.001608	0.001613	28.0807	78.7103	0.001807	43568.9	5.539605	-6.765774	313.024	1.180570	0.080934	0.080626	317.8	43568.9	0.075463	0.187020	1699.28	92046.1
407	2.000000	1.183361	7.36905e+06	-56739.1	1005.82	-29738.4	0.000000	0.000000	7.197198	330.828	NaN	0.000000	0.001623	0.001656	28.0812	81.4958	0.001787	45615.1	2.235200	175.655	325.071	1.183084	0.083418	0.083140	330.828	45615.1	0.077978	0.198048	1670.44	93647.6
407	2.000000	1.185952	7.36905e+06	-56739.1	1005.82	-29738.4	0.000000	0.000000	7.200713	353.291	NaN	0.000000	0.001633	0.001666	28.0804	83.283	0.001817	45837.3	3.600339	-5.317938	350.621	1.185552	0.086008	0.085608	353.291	45837.3	0.080228	0.208163	1697.18	91788.8
407	2.000000	1.188394	7.36905e+06	-56739.1	1005.82	-29738.4	0.000000	0.000000	7.203784	368.594	NaN	0.000000	0.001647	0.001668	28.0808	86.4574	0.001747	49491	8.173094	168.719	367.114	1.188262	0.088450	0.088318	368.594	49491	0.082865	0.220320	1672.99	96332.3
407	2.000000	1.190883	7.36905e+06	-56739.1	1005.82	-29738.4	0.000000	0.000000	7.207052	387.527	NaN	0.000000	0.001583	0.001644	28.0806	88.9248	0.001874	47460.3	4.001918	-6.127558	382.917	1.190578	0.090939	0.090634	387.527	47460.3	0.084815	0.229520	1688.42	90509.3
407	2.000000	1.193357	7.36905e+06	-56739.1	1005.82	-29738.4	0.000000	0.000000	7.210570	412.892	NaN	0.000000	0.001589	0.001666	28.0809	90.8284	0.001784	50905	-0.383133	177.994	409.651	1.193128	0.093413	0.093185	412.892	50905	0.087330	0.241642	1708.69	94612.3
407	2.000000	1.195986	7.36905e+06	-56739.1	1005.82	-29738.4	0.000000	0.000000	7.214030	433.104	NaN	0.000000	0.001597	0.001687	28.0805	93.928	0.001811	51872.5	6.758863	-8.989001	433.911	1.195461	0.096042	0.095517	433.104	51872.5	0.089780	0.253732	1706.94	94085.5
407	2.000000	1.198471	7.36905e+06	-56739.1	1005.82	-29738.4	0.000000	0.000000	7.217089	447.036	NaN	0.000000	0.001599	0.001640	28.0808	96.1905	0.001823	52770.7	6.251124	171.101	449.436	1.198045	0.098528	0.098102	447.036	52770.7	0.092174	0.265809	1681.79	93515
407	2.000000	1.200788	7.36905e+06	-56739.1	1005.82	-29738.4	0.000000	0.000000	7.220725	479.112	NaN	0.000000	0.001596	0.001625	28.0805	99.0453	0.001688	58665.2	8.248260	-12.1931	470.108	1.200498	0.100844	0.100555	479.112	58665.2	0.094719	0.278935	1717.65	101485
407	2.000000	1.203451	7.36905e+06	-56739.1	1005.82	-29738.4	0.000000	0.000000	7.224266	500.446	NaN	0.000000	0.001566	0.001611	28.0808	102.618	0.001840	55760.7	5.853289	171.013	502.533	1.203106	0.103507	0.103162	500.446	55760.7	0.096776	0.289763	1727.09	94641.2
407	2.000000	1.206046	7.36905e+06	-56739.1	1005.82	-29738.4	0.000000	0.000000	7.227816	523.656	NaN	0.000000	0.001576	0.001618	28.0804	104.09	0.001743	59711.6	6.054517	-9.271204	526.955	1.205586	0.106103	0.105643	523.656	59711.6	0.099525	0.304534	1719.53	98858.6
407	2.000000	1.208453	7.36905e+06	-56739.1	1005.82	-29738.4	0.000000	0.000000	7.231231	548.17	NaN	0.000000	0.001539	0.001646	28.0806	105.953	0.001750	60555.5	5.445430	171.05	550.37	1.208068	0.108509	0.108124	548.17	60555.5	0.101720	0.316573	1731.58	98331
407	2.000000	1.208853	7.36905e+06	-56739.1	1005.82	-29738.4	0.000000	0.000000	7.231715	550.21	NaN	0.000000	0.001563	0.001623	28.0805	106.288	0.001908	55711.4	2.577332	-5.741440	546.656	1.208606	0.108909	0.108662	550.21	55711.4	0.101502	0.315367	1744.67	90637.8