File: remote_trans/data/nanoindenter/0828-1/data/Data_2025-08-06,11h17m57s/2025-07-22_16-23-58_1_150.txt
2025-07-22, 16:23:58, 1
Index	Phase	Displacement	Time	Pos X	Pos Y	Pos Z	Rot A	Rot B	Piezo Z	Force A	Force B	Gripper	Voltage A	Voltage B	Temperature	Amplitude force	Amplitude pos	Stiffness	Phase shift	Phase excitation	Force A raw	Displacement raw	HMax	HMax raw	Real Force	Real Stiffness	Contact Depth	Area	Hardness	Reduced Mod.
[#]	[#]	[um]	[s]	[um]	[um]	[um]	[m°]	[m°]	[um]	[uN]	[uN]	[V]	[V]	[V]	[°C]	[uN]	[um]	[N/m]	[°]	[°]	[uN]	[um]	[um]	[um]	[uN]	[N/m]	[um]	[um^2]	[MPa]	[MPa]
150	1.000000	0.002911	7.3665e+06	-46139.1	955.818	-29770.6	0.000000	0.000000	6.002823	-0.040229	NaN	0.000000	0.001605	0.001716	28.0808	0.102724	0.001020	100.73	-124.58	-164.272	-0.027098	0.001634	-1.005848	-1.007126	-0.040229	100.73	-1.005549	-2.694437E+13	1.493032E-15	NaN
150	1.000000	0.010871	7.3665e+06	-46139.1	955.819	-29770.6	0.000000	0.000000	6.010784	-0.006937	NaN	0.000000	0.001584	0.001719	28.08	0.054274	0.000943	57.5728	-22.7175	-168.226	0.015945	0.009534	-0.997888	-0.999226	-0.006937	57.5728	-0.997798	-2.118944E+13	3.273606E-16	NaN
150	1.000000	0.018860	7.3665e+06	-46139.1	955.819	-29770.6	0.000000	0.000000	6.018772	-0.040464	NaN	0.000000	0.001537	0.001734	28.0811	0.021160	0.001724	12.2747	-130.395	-166.978	-0.073994	0.017576	-0.989899	-0.991183	-0.040464	12.2747	-0.987427	-1.536221E+13	2.634001E-15	NaN
150	1.000000	0.026871	7.3665e+06	-46139.1	955.817	-29770.6	0.000000	0.000000	6.026787	0.062992	NaN	0.000000	0.001545	0.001756	28.0818	0.088114	0.001689	52.1588	-131.38	-165.858	0.076556	0.025569	-0.981888	-0.983190	0.062992	52.1588	-0.982794	-1.330605E+13	-4.734115E-15	NaN
150	1.000000	0.034847	7.3665e+06	-46139.1	955.818	-29770.6	0.000000	0.000000	6.034763	0.063618	NaN	0.000000	0.001585	0.001747	28.0821	0.045347	0.002067	21.9346	-138.993	-167.772	0.101264	0.033466	-0.973913	-0.975293	0.063618	21.9346	-0.976088	-1.080687E+13	-5.886828E-15	NaN
150	1.000000	0.042860	7.3665e+06	-46139.1	955.818	-29770.6	0.000000	0.000000	6.042777	0.105616	NaN	0.000000	0.001576	0.001729	28.0825	0.058694	0.001966	29.8617	-127.011	-167.024	0.098063	0.041465	-0.965900	-0.967294	0.105616	29.8617	-0.968552	-8.553624E+12	-1.234746E-14	NaN
150	1.000000	0.050819	7.3665e+06	-46139.1	955.819	-29770.6	0.000000	0.000000	6.050734	0.038173	NaN	0.000000	0.001556	0.001724	28.0825	0.102852	0.001897	54.2063	106.36	-172.574	0.048781	0.049517	-0.957940	-0.959243	0.038173	54.2063	-0.958468	-6.254878E+12	-6.102890E-15	NaN
150	1.000000	0.058807	7.3665e+06	-46139.1	955.818	-29770.6	0.000000	0.000000	6.058721	0.027063	NaN	0.000000	0.001580	0.001737	28.0816	0.158293	0.001875	84.4252	170.274	-162.656	0.006287	0.057528	-0.949952	-0.951232	0.027063	84.4252	-0.950193	-4.837572E+12	-5.594394E-15	NaN
150	1.000000	0.066837	7.3665e+06	-46139.1	955.818	-29770.6	0.000000	0.000000	6.066753	0.062266	NaN	0.000000	0.001590	0.001725	28.0823	0.028686	0.002074	13.8319	-29.3349	-166.367	-0.022488	0.065546	-0.941923	-0.943213	0.062266	13.8319	-0.945299	-4.155471E+12	-1.498408E-14	NaN
150	1.000000	0.074845	7.36651e+06	-46139.1	955.817	-29770.7	0.000000	0.000000	6.074760	0.044263	NaN	0.000000	0.001587	0.001731	28.0809	0.068076	0.001987	34.2622	3.093317	-167.225	0.080291	0.073547	-0.933914	-0.935213	0.044263	34.2622	-0.934883	-3.006757E+12	-1.472116E-14	NaN
150	1.000000	0.082854	7.36651e+06	-46139.1	955.818	-29770.7	0.000000	0.000000	6.082768	0.017468	NaN	0.000000	0.001579	0.001740	28.0818	0.022510	0.001957	11.5019	99.0116	-166.857	0.012543	0.081543	-0.925905	-0.927216	0.017468	11.5019	-0.927045	-2.356712E+12	-7.412205E-15	NaN
150	1.000000	0.090841	7.36651e+06	-46139.1	955.818	-29770.7	0.000000	0.000000	6.090752	-0.046457	NaN	0.000000	0.001557	0.001757	28.0815	0.054640	0.002019	27.0696	-146.522	-162.772	-0.005992	0.089501	-0.917919	-0.919258	-0.046457	27.0696	-0.916632	-1.704997E+12	2.724733E-14	NaN
150	1.000000	0.098860	7.36651e+06	-46139.1	955.819	-29770.7	0.000000	0.000000	6.098777	0.092487	NaN	0.000000	0.001577	0.001745	28.083	0.102036	0.001978	51.588	-151.854	-167.75	0.028895	0.097544	-0.909899	-0.911216	0.092487	51.588	-0.911244	-1.441989E+12	-6.413834E-14	NaN
150	1.000000	0.106857	7.36651e+06	-46139.1	955.818	-29770.7	0.000000	0.000000	6.106771	0.012154	NaN	0.000000	0.001609	0.001767	28.0848	0.043318	0.001852	23.3904	-112.38	-166.687	0.018522	0.105561	-0.901902	-0.903198	0.012154	23.3904	-0.902292	-1.091526E+12	-1.113491E-14	NaN
150	1.000000	0.114861	7.36651e+06	-46139.1	955.818	-29770.7	0.000000	0.000000	6.114774	-0.019008	NaN	0.000000	0.001591	0.001728	28.0831	0.051763	0.001980	26.1386	137.997	-164.576	0.082996	0.113535	-0.893898	-0.895224	-0.019008	26.1386	-0.893353	-8.264818E+11	2.299883E-14	NaN
150	1.000000	0.122856	7.36651e+06	-46139.1	955.819	-29770.7	0.000000	0.000000	6.122768	-0.021380	NaN	0.000000	0.001550	0.001713	28.0835	0.121953	0.001999	61.0149	-26.6859	-166.562	-0.015736	0.121519	-0.885904	-0.887240	-0.021380	61.0149	-0.885641	-6.501082E+11	3.288708E-14	NaN
150	1.000000	0.130876	7.36651e+06	-46139.1	955.819	-29770.7	0.000000	0.000000	6.130791	0.033692	NaN	0.000000	0.001557	0.001709	28.0843	0.053807	0.001871	28.7601	-168.193	-169.002	0.048649	0.129529	-0.877883	-0.879230	0.033692	28.7601	-0.878762	-5.247610E+11	-6.420523E-14	NaN
150	1.000000	0.138868	7.36651e+06	-46139.1	955.818	-29770.7	0.000000	0.000000	6.138783	0.055999	NaN	0.000000	0.001613	0.001724	28.0844	0.083777	0.002063	40.6185	14.6908	-165.196	0.098805	0.137540	-0.869892	-0.871220	0.055999	40.6185	-0.870926	-4.111212E+11	-1.362095E-13	NaN
150	1.000000	0.146859	7.36651e+06	-46139.1	955.818	-29770.7	0.000000	0.000000	6.146773	0.020935	NaN	0.000000	0.001601	0.001698	28.0827	0.029278	0.002104	13.9125	-134.967	-170.078	0.025034	0.145559	-0.861901	-0.863200	0.020935	13.9125	-0.863029	-3.214539E+11	-6.512534E-14	NaN
150	1.000000	0.154873	7.36651e+06	-46139.1	955.819	-29770.7	0.000000	0.000000	6.154787	0.002173	NaN	0.000000	0.001596	0.001717	28.0818	0.055791	0.001912	29.1767	-33.0874	-164.553	-0.049372	0.153549	-0.853886	-0.855211	0.002173	29.1767	-0.853942	-2.421652E+11	-8.973672E-15	NaN
150	1.000000	0.162868	7.36651e+06	-46139.1	955.817	-29770.7	0.000000	0.000000	6.162780	-0.026002	NaN	0.000000	0.001625	0.001734	28.083	0.072745	0.001879	38.7211	138.769	-169.394	0.033273	0.161542	-0.845892	-0.847217	-0.026002	38.7211	-0.845388	-1.854715E+11	1.401954E-13	NaN
150	1.000000	0.170873	7.36651e+06	-46139.1	955.819	-29770.7	0.000000	0.000000	6.170788	0.023393	NaN	0.000000	0.001581	0.001735	28.0823	0.103911	0.001971	52.7128	-135.306	-165.369	0.022718	0.169548	-0.837886	-0.839212	0.023393	52.7128	-0.838219	-1.483074E+11	-1.577326E-13	NaN
150	1.000000	0.178873	7.36651e+06	-46139.1	955.817	-29770.7	0.000000	0.000000	6.178788	0.042037	NaN	0.000000	0.001596	0.001707	28.0826	0.129550	0.001925	67.287	-156.431	-165.356	0.062195	0.177609	-0.829887	-0.831151	0.042037	67.287	-0.830355	-1.160384E+11	-3.622645E-13	NaN
150	1.000000	0.186877	7.36651e+06	-46139.1	955.817	-29770.7	0.000000	0.000000	6.186792	0.039061	NaN	0.000000	0.001584	0.001728	28.0849	0.036700	0.002013	18.2307	133.552	-168.592	0.093276	0.185614	-0.821882	-0.823146	0.039061	18.2307	-0.823489	-9.365318E+10	-4.170854E-13	NaN
150	1.000000	0.194875	7.36651e+06	-46139.1	955.817	-29770.7	0.000000	0.000000	6.194788	0.007031	NaN	0.000000	0.001608	0.001730	28.084	0.051107	0.002107	24.2514	20.6408	-164.772	0.016600	0.193569	-0.813885	-0.815190	0.007031	24.2514	-0.814102	-6.985898E+10	-1.006484E-13	NaN
150	1.000000	0.202894	7.36651e+06	-46139.1	955.818	-29770.7	0.000000	0.000000	6.202806	-0.036346	NaN	0.000000	0.001581	0.001729	28.083	0.110393	0.001877	58.7988	128.699	-169.324	-0.060328	0.201619	-0.805865	-0.807141	-0.036346	58.7988	-0.805402	-5.323278E+10	6.827687E-13	NaN
150	1.000000	0.210913	7.36651e+06	-46139.1	955.818	-29770.7	0.000000	0.000000	6.210828	0.026436	NaN	0.000000	0.001596	0.001711	28.0828	0.054079	0.001977	27.3561	172.135	-164.513	0.015558	0.209631	-0.797846	-0.799129	0.026436	27.3561	-0.798571	-4.299955E+10	-6.148082E-13	NaN
150	1.000000	0.218870	7.36651e+06	-46139.1	955.819	-29770.7	0.000000	0.000000	6.218784	0.026758	NaN	0.000000	0.001576	0.001726	28.0834	0.100302	0.001953	51.3593	-11.5905	-165.018	0.101904	0.217518	-0.789890	-0.791242	0.026758	51.3593	-0.790280	-3.318107E+10	-8.064282E-13	NaN
150	1.000000	0.226955	7.36651e+06	-46139.1	955.818	-29770.7	0.000000	0.000000	6.226868	-0.006524	NaN	0.000000	0.001609	0.001752	28.0814	0.096310	0.001983	48.5758	-19.8218	-167.174	0.015760	0.225633	-0.781804	-0.783126	-0.006524	48.5758	-0.781704	-2.537357E+10	2.571182E-13	NaN
150	1.000000	0.234930	7.36651e+06	-46139.1	955.818	-29770.7	0.000000	0.000000	6.234841	-0.038976	NaN	0.000000	0.001606	0.001706	28.0822	0.052829	0.002047	25.8042	165.649	-166.611	0.046583	0.233562	-0.773830	-0.775198	-0.038976	25.8042	-0.772697	-1.914125E+10	2.036245E-12	NaN
150	1.000000	0.242905	7.36651e+06	-46139.1	955.818	-29770.7	0.000000	0.000000	6.242819	0.030228	NaN	0.000000	0.001583	0.001748	28.0797	0.052082	0.001976	26.3569	169.126	-163.303	0.076633	0.241601	-0.765855	-0.767159	0.030228	26.3569	-0.766715	-1.587204E+10	-1.904478E-12	NaN
150	1.000000	0.250964	7.36651e+06	-46139.1	955.818	-29770.7	0.000000	0.000000	6.250878	0.028788	NaN	0.000000	0.001618	0.001787	28.0806	0.017976	0.002140	8.401277	-141.802	-165.446	-0.059708	0.249605	-0.757796	-0.759154	0.028788	8.401277	-0.760366	-1.300994E+10	-2.212754E-12	NaN
150	1.000000	0.258936	7.36651e+06	-46139.1	955.818	-29770.7	0.000000	0.000000	6.258850	0.021832	NaN	0.000000	0.001609	0.001713	28.0808	0.113108	0.001972	57.3578	-156.26	-167.853	0.023279	0.257635	-0.749824	-0.751124	0.021832	57.3578	-0.750109	-9.434190E+9	-2.314189E-12	NaN
150	1.000000	0.266945	7.36651e+06	-46139.1	955.819	-29770.7	0.000000	0.000000	6.266857	-0.028089	NaN	0.000000	0.001564	0.001724	28.0813	0.117843	0.001912	61.6345	-3.097009	-167.696	-0.000443	0.265645	-0.741814	-0.743114	-0.028089	61.6345	-0.741472	-7.196298E+9	3.903220E-12	NaN
150	1.000000	0.274937	7.36651e+06	-46139.1	955.818	-29770.7	0.000000	0.000000	6.274854	0.107981	NaN	0.000000	0.001588	0.001744	28.0822	0.043629	0.001951	22.3669	179.417	-168.529	0.157256	0.273615	-0.733823	-0.735144	0.107981	22.3669	-0.737443	-6.342074E+9	-1.702614E-11	NaN
150	1.000000	0.282937	7.36651e+06	-46139.1	955.818	-29770.7	0.000000	0.000000	6.282850	-0.025445	NaN	0.000000	0.001603	0.001746	28.0814	0.073779	0.002083	35.4145	-151.403	-164.211	-0.027132	0.281585	-0.725822	-0.727175	-0.025445	35.4145	-0.725283	-4.330253E+9	5.876025E-12	NaN
150	1.000000	0.290953	7.36651e+06	-46139.1	955.818	-29770.7	0.000000	0.000000	6.290867	0.017694	NaN	0.000000	0.001612	0.001762	28.0818	0.108563	0.002027	53.5702	-108.793	-168.177	0.050091	0.289625	-0.717806	-0.719134	0.017694	53.5702	-0.718054	-3.450883E+9	-5.127432E-12	NaN
150	1.000000	0.298929	7.36651e+06	-46139.1	955.817	-29770.7	0.000000	0.000000	6.298843	0.002399	NaN	0.000000	0.001575	0.001726	28.083	0.082390	0.002007	41.0574	105	-165.624	-0.014580	0.297587	-0.709830	-0.711172	0.002399	41.0574	-0.709874	-2.668870E+9	-8.989015E-13	NaN
150	1.000000	0.306949	7.36651e+06	-46139.1	955.818	-29770.7	0.000000	0.000000	6.306864	0.038482	NaN	0.000000	0.001609	0.001725	28.0808	0.057192	0.002032	28.1425	-31.4566	-167.055	0.046671	0.305632	-0.701810	-0.703127	0.038482	28.1425	-0.702836	-2.139209E+9	-1.798903E-11	NaN
150	1.000000	0.314961	7.36651e+06	-46139.1	955.818	-29770.7	0.000000	0.000000	6.314878	0.079032	NaN	0.000000	0.001584	0.001732	28.0811	0.083011	0.002095	39.6223	47.7542	-167.129	-0.010417	0.313712	-0.693798	-0.695048	0.079032	39.6223	-0.695294	-1.687554E+9	-4.683223E-11	NaN
150	1.000000	0.322956	7.36651e+06	-46139.1	955.817	-29770.7	0.000000	0.000000	6.322869	-0.014551	NaN	0.000000	0.001606	0.001784	28.0817	0.010925	0.001837	5.945998	13.5808	-168.25	-0.023565	0.321652	-0.685804	-0.687107	-0.014551	5.945998	-0.683968	-1.181593E+9	1.231457E-11	NaN
150	1.000000	0.330947	7.36651e+06	-46139.1	955.818	-29770.7	0.000000	0.000000	6.330861	0.023695	NaN	0.000000	0.001569	0.001751	28.0815	0.080006	0.002028	39.4584	109.725	-164.664	0.034552	0.329652	-0.677812	-0.679107	0.023695	39.4584	-0.678263	-9.872856E+8	-2.400010E-11	NaN
150	1.000000	0.338968	7.36651e+06	-46139.1	955.819	-29770.7	0.000000	0.000000	6.338882	0.018725	NaN	0.000000	0.001587	0.001732	28.0809	0.067829	0.002027	33.4579	88.3617	-166.074	-0.009838	0.337652	-0.669792	-0.671107	0.018725	33.4579	-0.670211	-7.660987E+8	-2.444198E-11	NaN
150	1.000000	0.346971	7.36651e+06	-46139.1	955.818	-29770.7	0.000000	0.000000	6.346888	0.091537	NaN	0.000000	0.001582	0.001735	28.0819	0.095258	0.002003	47.5683	16.1538	-169.248	0.067881	0.345642	-0.661788	-0.663118	0.091537	47.5683	-0.663231	-6.147882E+8	-1.488913E-10	NaN
150	1.000000	0.354983	7.36651e+06	-46139.1	955.818	-29770.7	0.000000	0.000000	6.354899	0.066493	NaN	0.000000	0.001592	0.001721	28.0821	0.073771	0.001770	41.6893	-105.508	-167.349	0.083488	0.353666	-0.653776	-0.655094	0.066493	41.6893	-0.654973	-4.737952E+8	-1.403402E-10	NaN
150	1.000000	0.362967	7.36651e+06	-46139.1	955.819	-29770.7	0.000000	0.000000	6.362880	-0.011651	NaN	0.000000	0.001635	0.001728	28.0814	0.134652	0.002128	63.2849	74.4283	-169.696	0.067295	0.361659	-0.645793	-0.647100	-0.011651	63.2849	-0.645654	-3.530636E+8	3.299835E-11	NaN
150	1.000000	0.370974	7.36651e+06	-46139.1	955.819	-29770.7	0.000000	0.000000	6.370885	-0.041030	NaN	0.000000	0.001621	0.001712	28.0827	0.086837	0.002115	41.0588	-88.7436	-166.512	-0.049538	0.369625	-0.637786	-0.639135	-0.041030	41.0588	-0.637036	-2.689199E+8	1.525735E-10	NaN
150	1.000000	0.378962	7.36651e+06	-46139.1	955.819	-29770.7	0.000000	0.000000	6.378872	-0.078556	NaN	0.000000	0.001604	0.001747	28.0827	0.055232	0.001951	28.3147	164.608	-168.553	-0.078988	0.377701	-0.629797	-0.631058	-0.078556	28.3147	-0.627716	-2.002895E+8	3.922100E-10	NaN
150	1.000000	0.386952	7.36651e+06	-46139.1	955.818	-29770.7	0.000000	0.000000	6.386870	0.122412	NaN	0.000000	0.001614	0.001743	28.0831	0.099966	0.001914	52.2401	127.325	-168.721	0.019888	0.385700	-0.621808	-0.623059	0.122412	52.2401	-0.623565	-1.756418E+8	-6.969397E-10	NaN
150	1.000000	0.394976	7.36651e+06	-46139.1	955.819	-29770.7	0.000000	0.000000	6.394892	0.070674	NaN	0.000000	0.001608	0.001712	28.0823	0.049096	0.001970	24.9216	3.926741	-167.544	0.030396	0.393720	-0.613783	-0.615040	0.070674	24.9216	-0.615910	-1.378496E+8	-5.126923E-10	NaN
150	1.000000	0.402985	7.36651e+06	-46139.1	955.818	-29770.7	0.000000	0.000000	6.402902	0.099217	NaN	0.000000	0.001580	0.001737	28.0817	0.118577	0.002103	56.3799	-85.2502	-165.075	0.119390	0.401742	-0.605774	-0.607018	0.099217	56.3799	-0.607094	-1.042626E+8	-9.516021E-10	NaN
150	1.000000	0.410980	7.36651e+06	-46139.1	955.818	-29770.7	0.000000	0.000000	6.410896	0.089460	NaN	0.000000	0.001584	0.001706	28.0824	0.073514	0.001994	36.8683	-12.1156	-160.821	0.016241	0.409645	-0.597780	-0.599114	0.089460	36.8683	-0.599600	-8.221457E+7	-1.088134E-9	NaN
150	1.000000	0.418998	7.36651e+06	-46139.1	955.818	-29770.7	0.000000	0.000000	6.418911	0.011284	NaN	0.000000	0.001566	0.001725	28.0825	0.108839	0.001992	54.6418	140.421	-165.268	0.056841	0.417713	-0.589762	-0.591047	0.011284	54.6418	-0.589917	-6.046687E+7	-1.866066E-10	NaN
150	1.000000	0.426983	7.36651e+06	-46139.1	955.819	-29770.7	0.000000	0.000000	6.426896	-8.322786E-6	NaN	0.000000	0.001577	0.001746	28.0838	0.173382	0.002022	85.7683	-100.936	-167.4	0.092576	0.425705	-0.581776	-0.583055	-8.322786E-6	85.7683	-0.581776	-4.669179E+7	1.782495E-13	NaN
150	1.000000	0.435010	7.36651e+06	-46139.1	955.818	-29770.7	0.000000	0.000000	6.434925	0.037749	NaN	0.000000	0.001534	0.001705	28.0823	0.059104	0.002026	29.1691	58.3031	-166.767	0.098651	0.433658	-0.573749	-0.575101	0.037749	29.1691	-0.574720	-3.731009E+7	-1.011764E-9	NaN
150	1.000000	0.443006	7.36651e+06	-46139.1	955.817	-29770.7	0.000000	0.000000	6.442919	-0.011824	NaN	0.000000	0.001554	0.001774	28.0837	0.041771	0.002036	20.5201	169.437	-165.549	-0.038710	0.441695	-0.565753	-0.567065	-0.011824	20.5201	-0.565321	-2.766696E+7	4.273648E-10	NaN
150	1.000000	0.451016	7.36651e+06	-46139.1	955.818	-29770.7	0.000000	0.000000	6.450931	0.037284	NaN	0.000000	0.001561	0.001742	28.0826	0.012522	0.002057	6.087511	-160.499	-166.455	0.010891	0.449694	-0.557744	-0.559066	0.037284	6.087511	-0.562337	-2.515960E+7	-1.481916E-9	NaN
150	1.000000	0.459044	7.36651e+06	-46139.1	955.818	-29770.7	0.000000	0.000000	6.458959	0.040562	NaN	0.000000	0.001557	0.001746	28.0847	0.056154	0.001996	28.1329	159.955	-165.465	0.031592	0.457728	-0.549715	-0.551032	0.040562	28.1329	-0.550796	-1.741748E+7	-2.328826E-9	NaN
150	1.000000	0.467014	7.36651e+06	-46139.1	955.818	-29770.7	0.000000	0.000000	6.466930	0.068877	NaN	0.000000	0.001542	0.001732	28.0816	0.049240	0.002023	24.3409	105.097	-166.756	0.074827	0.465737	-0.541745	-0.543022	0.068877	24.3409	-0.543868	-1.396317E+7	-4.932733E-9	NaN
150	1.000000	0.475007	7.36651e+06	-46139.1	955.819	-29770.7	0.000000	0.000000	6.474922	0.031136	NaN	0.000000	0.001590	0.001695	28.0818	0.083208	0.002041	40.7613	-136.752	-168.067	0.041084	0.473755	-0.533752	-0.535004	0.031136	40.7613	-0.534325	-1.029493E+7	-3.024426E-9	NaN
150	1.000000	0.483017	7.36651e+06	-46139.1	955.818	-29770.7	0.000000	0.000000	6.482932	0.041776	NaN	0.000000	0.001573	0.001712	28.0819	0.034412	0.001929	17.8359	-121.914	-170.028	0.071846	0.481706	-0.525743	-0.527054	0.041776	17.8359	-0.527500	-8.27644e+06	-5.047614E-9	NaN
150	1.000000	0.491050	7.36651e+06	-46139.1	955.818	-29770.7	0.000000	0.000000	6.490964	0.000921	NaN	0.000000	0.001599	0.001754	28.0819	0.049925	0.001977	25.2544	-114.673	-167.321	0.136512	0.489684	-0.517709	-0.519075	0.000921	25.2544	-0.517737	-6.05498e+06	-1.521307E-10	NaN
150	1.000000	0.499000	7.36651e+06	-46139.1	955.818	-29770.7	0.000000	0.000000	6.498916	0.072477	NaN	0.000000	0.001636	0.001759	28.0813	0.140008	0.001921	72.8788	-109.019	-165.31	0.109491	0.497648	-0.509759	-0.511112	0.072477	72.8788	-0.510505	-4.80231e+06	-1.509214E-8	NaN
150	1.000000	0.507017	7.36651e+06	-46139.1	955.819	-29770.7	0.000000	0.000000	6.506930	-0.003010	NaN	0.000000	0.001566	0.001760	28.0836	0.087108	0.002003	43.4924	92.377	-167.162	0.019841	0.505727	-0.501743	-0.503032	-0.003010	43.4924	-0.501691	-3.61913e+06	8.316187E-10	NaN
150	1.000000	0.515003	7.36651e+06	-46139.1	955.818	-29770.7	0.000000	0.000000	6.514916	0.002426	NaN	0.000000	0.001604	0.001739	28.0832	0.034177	0.002034	16.8029	104.757	-168.002	-0.025341	0.513706	-0.493756	-0.495054	0.002426	16.8029	-0.493865	-2.81437e+06	-8.620085E-10	NaN
150	1.000000	0.523011	7.36651e+06	-46139.1	955.818	-29770.7	0.000000	0.000000	6.522924	-0.013767	NaN	0.000000	0.001594	0.001755	28.0816	0.040423	0.001914	21.1204	63.0774	-165.663	0.043516	0.521694	-0.485748	-0.487066	-0.013767	21.1204	-0.485259	-2.13361e+06	6.452348E-9	NaN
150	1.000000	0.531049	7.36651e+06	-46139.1	955.818	-29770.7	0.000000	0.000000	6.530962	-0.021509	NaN	0.000000	0.001585	0.001739	28.0813	0.014708	0.001955	7.522128	16.7553	-166.51	-0.021011	0.529680	-0.477710	-0.479080	-0.021509	7.522128	-0.475566	-1.56108e+06	1.377804E-8	NaN
150	1.000000	0.539047	7.36651e+06	-46139.1	955.818	-29770.7	0.000000	0.000000	6.538962	0.059784	NaN	0.000000	0.001555	0.001753	28.0813	0.106500	0.001946	54.7145	4.316331	-166.285	0.010606	0.537750	-0.469713	-0.471010	0.059784	54.7145	-0.470532	-1.32701e+06	-4.505133E-8	NaN
150	1.000000	0.547074	7.36651e+06	-46139.1	955.818	-29770.7	0.000000	0.000000	6.546990	0.061886	NaN	0.000000	0.001595	0.001772	28.0817	0.049421	0.001971	25.0745	73.0197	-166.427	0.092377	0.545712	-0.461685	-0.463048	0.061886	25.0745	-0.463536	-1.05851e+06	-5.846532E-8	NaN
150	1.000000	0.555042	7.36651e+06	-46139.1	955.818	-29770.7	0.000000	0.000000	6.554954	-0.023781	NaN	0.000000	0.001578	0.001744	28.0808	0.089791	0.001876	47.8512	-15.7898	-169.161	-0.018282	0.553706	-0.453717	-0.455053	-0.023781	47.8512	-0.453345	-761074	3.124694E-8	NaN
150	1.000000	0.563054	7.36651e+06	-46139.1	955.818	-29770.7	0.000000	0.000000	6.562968	0.014821	NaN	0.000000	0.001602	0.001733	28.0816	0.141829	0.001994	71.1207	19.2415	-166.117	0.039969	0.561728	-0.445706	-0.447031	0.014821	71.1207	-0.445862	-597097	-2.482259E-8	NaN
150	1.000000	0.571058	7.36651e+06	-46139.1	955.819	-29770.7	0.000000	0.000000	6.570970	-0.024544	NaN	0.000000	0.001567	0.001725	28.0815	0.056179	0.002115	26.5662	105.376	-164.787	-0.002598	0.569765	-0.437702	-0.438994	-0.024544	26.5662	-0.437009	-447850	5.480443E-8	NaN
150	1.000000	0.579088	7.36651e+06	-46139.1	955.819	-29770.7	0.000000	0.000000	6.579003	0.048486	NaN	0.000000	0.001585	0.001740	28.0806	0.085480	0.002072	41.2493	-174.862	-167.817	0.084045	0.577754	-0.429672	-0.431006	0.048486	41.2493	-0.430553	-362987	-1.335754E-7	NaN
150	1.000000	0.587073	7.36651e+06	-46139.1	955.818	-29770.7	0.000000	0.000000	6.586988	0.038152	NaN	0.000000	0.001577	0.001731	28.0827	0.105020	0.001969	53.3248	-141.015	-161.423	0.109922	0.585742	-0.421687	-0.423018	0.038152	53.3248	-0.422223	-276654	-1.379055E-7	NaN
150	1.000000	0.595095	7.36651e+06	-46139.1	955.818	-29770.7	0.000000	0.000000	6.595011	0.064952	NaN	0.000000	0.001608	0.001716	28.0831	0.123453	0.002073	59.5538	-123.17	-166.297	0.098737	0.593706	-0.413664	-0.415054	0.064952	59.5538	-0.414482	-214832	-3.023391E-7	NaN
150	1.000000	0.603037	7.36651e+06	-46139.1	955.817	-29770.7	0.000000	0.000000	6.602951	0.007204	NaN	0.000000	0.001626	0.001711	28.0831	0.074855	0.001837	40.7554	6.923274	-167.571	0.008427	0.601771	-0.405722	-0.406989	0.007204	40.7554	-0.405855	-161964	-4.448077E-8	NaN
150	1.000000	0.611048	7.36651e+06	-46139.1	955.82	-29770.7	0.000000	0.000000	6.610965	0.076538	NaN	0.000000	0.001615	0.001749	28.0817	0.062092	0.002000	31.0383	162.467	-165.698	0.061736	0.609749	-0.397711	-0.399011	0.076538	31.0383	-0.399561	-131743	-5.809643E-7	NaN
150	1.000000	0.619079	7.36651e+06	-46139.1	955.819	-29770.7	0.000000	0.000000	6.618993	0.024637	NaN	0.000000	0.001587	0.001693	28.082	0.083656	0.002044	40.9345	-103.358	-165.464	0.070513	0.617730	-0.389681	-0.391030	0.024637	40.9345	-0.390132	-96618.4	-2.549934E-7	NaN
150	1.000000	0.627080	7.36651e+06	-46139.1	955.818	-29770.7	0.000000	0.000000	6.626995	0.032267	NaN	0.000000	0.001594	0.001757	28.0813	0.105822	0.001928	54.9	132.047	-169.218	-0.026878	0.625785	-0.381679	-0.382975	0.032267	54.9	-0.382120	-74183.1	-4.349651E-7	NaN
150	1.000000	0.635073	7.36651e+06	-46139.1	955.818	-29770.7	0.000000	0.000000	6.634989	0.065841	NaN	0.000000	0.001584	0.001744	28.0812	0.049358	0.002042	24.1664	-149.714	-162.781	0.000498	0.633782	-0.373686	-0.374977	0.065841	24.1664	-0.375730	-60056.3	-1.096323E-6	NaN
150	1.000000	0.643095	7.36651e+06	-46139.1	955.817	-29770.7	0.000000	0.000000	6.643008	-0.014814	NaN	0.000000	0.001566	0.001740	28.0814	0.085573	0.002000	42.7915	-165.932	-163.348	0.034178	0.641750	-0.365664	-0.367009	-0.014814	42.7915	-0.365405	-42647.5	3.473688E-7	NaN
150	1.000000	0.651089	7.36651e+06	-46139.1	955.818	-29770.7	0.000000	0.000000	6.651001	-0.022323	NaN	0.000000	0.001578	0.001716	28.0829	0.040932	0.001873	21.852	42.4827	-166.377	-0.108891	0.649773	-0.357671	-0.358987	-0.022323	21.852	-0.356904	-32141.8	6.945069E-7	NaN
150	1.000000	0.659107	7.36651e+06	-46139.1	955.819	-29770.7	0.000000	0.000000	6.659020	-0.002084	NaN	0.000000	0.001564	0.001744	28.083	0.033954	0.001899	17.878	-77.2114	-167.015	-0.009297	0.657739	-0.349652	-0.351020	-0.002084	17.878	-0.349565	-25158.8	8.282713E-8	NaN
150	1.000000	0.667106	7.36651e+06	-46139.1	955.819	-29770.7	0.000000	0.000000	6.667019	-0.000557	NaN	0.000000	0.001583	0.001730	28.0836	0.077719	0.001923	40.4123	-59.3361	-166.501	0.062654	0.665774	-0.341653	-0.342985	-0.000557	40.4123	-0.341643	-19297.3	2.888042E-8	NaN
150	1.000000	0.675099	7.36651e+06	-46139.1	955.818	-29770.7	0.000000	0.000000	6.675013	0.028154	NaN	0.000000	0.001616	0.001702	28.084	0.018768	0.001922	9.767059	-35.469	-166.748	0.062890	0.673774	-0.333661	-0.334986	0.028154	9.767059	-0.335823	-15871	-1.773898E-6	NaN
150	1.000000	0.683134	7.36651e+06	-46139.1	955.818	-29770.7	0.000000	0.000000	6.683048	0.030820	NaN	0.000000	0.001575	0.001677	28.0832	0.026816	0.002083	12.8733	152.119	-164.644	-0.007930	0.681790	-0.325626	-0.326970	0.030820	12.8733	-0.327421	-11958	-2.577319E-6	NaN
150	1.000000	0.691114	7.36651e+06	-46139.1	955.818	-29770.7	0.000000	0.000000	6.691029	0.029610	NaN	0.000000	0.001578	0.001689	28.0841	0.143055	0.001950	73.3653	14.9249	-165.666	0.055441	0.689777	-0.317645	-0.318982	0.029610	73.3653	-0.317948	-8677.93	-3.412083E-6	NaN
150	1.000000	0.699107	7.36651e+06	-46139.1	955.818	-29770.7	0.000000	0.000000	6.699018	-0.047711	NaN	0.000000	0.001631	0.001658	28.0834	0.029925	0.002021	14.8055	146.377	-166.868	-0.025166	0.697802	-0.309653	-0.310958	-0.047711	14.8055	-0.307236	-6027.18	7.915956E-6	NaN
150	1.000000	0.707122	7.36651e+06	-46139.1	955.819	-29770.7	0.000000	0.000000	6.707039	0.087702	NaN	0.000000	0.001549	0.001760	28.0832	0.063465	0.002094	30.3145	0.881228	-166.814	0.007312	0.705854	-0.301637	-0.302906	0.087702	30.3145	-0.303807	-5360.99	-1.635922E-5	NaN
150	1.000000	0.715127	7.36651e+06	-46139.1	955.819	-29770.7	0.000000	0.000000	6.715041	0.013727	NaN	0.000000	0.001611	0.001758	28.0809	0.107954	0.001982	54.457	121.926	-164.581	-0.029792	0.713809	-0.293632	-0.294951	0.013727	54.457	-0.293821	-3806.12	-3.606583E-6	NaN
150	1.000000	0.723109	7.36651e+06	-46139.1	955.819	-29770.7	0.000000	0.000000	6.723020	-0.042194	NaN	0.000000	0.001578	0.001763	28.0839	0.033762	0.002220	15.2117	101.917	-166.966	0.050655	0.721776	-0.285651	-0.286983	-0.042194	15.2117	-0.283570	-2671.57	1.579364E-5	NaN
150	1.000000	0.731126	7.36651e+06	-46139.1	955.818	-29770.7	0.000000	0.000000	6.731039	-0.007135	NaN	0.000000	0.001614	0.001752	28.0826	0.177896	0.002049	86.8172	64.9503	-164.198	-0.017245	0.729782	-0.277633	-0.278978	-0.007135	86.8172	-0.277572	-2169.23	3.289346E-6	NaN
150	1.000000	0.739137	7.36651e+06	-46139.1	955.818	-29770.7	0.000000	0.000000	6.739052	0.024997	NaN	0.000000	0.001634	0.001704	28.0827	0.097919	0.002040	47.9892	74.7197	-161.741	0.031325	0.737832	-0.269622	-0.270928	0.024997	47.9892	-0.270013	-1666.24	-1.500190E-5	NaN
150	1.000000	0.747121	7.36651e+06	-46139.1	955.818	-29770.7	0.000000	0.000000	6.747036	0.044925	NaN	0.000000	0.001608	0.001720	28.0839	0.028273	0.001962	14.4097	60.9178	-168.735	0.036201	0.745797	-0.261639	-0.262962	0.044925	14.4097	-0.263977	-1348.24	-3.332104E-5	NaN
150	1.000000	0.755111	7.36651e+06	-46139.1	955.818	-29770.7	0.000000	0.000000	6.755024	-0.015968	NaN	0.000000	0.001645	0.001729	28.0825	0.012976	0.001905	6.810092	-143.858	-166.949	0.043206	0.753821	-0.253648	-0.254939	-0.015968	6.810092	-0.251890	-879.36	1.815836E-5	NaN
150	1.000000	0.763115	7.36651e+06	-46139.1	955.819	-29770.7	0.000000	0.000000	6.763027	-0.030977	NaN	0.000000	0.001620	0.001728	28.0836	0.124493	0.001834	67.8771	60.7267	-166.189	0.031440	0.761818	-0.245644	-0.246942	-0.030977	67.8771	-0.245302	-695.255	4.455480E-5	NaN
150	1.000000	0.771138	7.36651e+06	-46139.1	955.819	-29770.7	0.000000	0.000000	6.771050	-0.022536	NaN	0.000000	0.001602	0.001698	28.0836	0.101174	0.001976	51.2002	-136.818	-165.276	-0.014210	0.769818	-0.237622	-0.238942	-0.022536	51.2002	-0.237292	-521.425	4.322069E-5	NaN
150	1.000000	0.779152	7.36651e+06	-46139.1	955.818	-29770.7	0.000000	0.000000	6.779063	-0.038409	NaN	0.000000	0.001619	0.001719	28.0832	0.049269	0.001844	26.7165	173.454	-163.528	-0.102350	0.777819	-0.229608	-0.230940	-0.038409	26.7165	-0.228530	-379.56	0.000101	NaN
150	1.000000	0.787163	7.36651e+06	-46139.1	955.818	-29770.7	0.000000	0.000000	6.787076	0.003849	NaN	0.000000	0.001632	0.001727	28.0821	0.135885	0.002015	67.4394	84.3409	-167.774	0.003226	0.785842	-0.221597	-0.222917	0.003849	67.4394	-0.221639	-295.018	-1.304626E-5	NaN
150	1.000000	0.795167	7.36651e+06	-46139.1	955.818	-29770.7	0.000000	0.000000	6.795082	0.045684	NaN	0.000000	0.001600	0.001732	28.0817	0.094213	0.002178	43.2575	-35.8314	-163.906	0.046061	0.793877	-0.213593	-0.214882	0.045684	43.2575	-0.214385	-225.742	-0.000202	NaN
150	1.000000	0.803161	7.36651e+06	-46139.1	955.818	-29770.7	0.000000	0.000000	6.803073	-0.019174	NaN	0.000000	0.001546	0.001726	28.0808	0.031492	0.001917	16.4279	87.4773	-166.668	-0.051019	0.801880	-0.205599	-0.206880	-0.019174	16.4279	-0.204723	-157.415	0.000122	NaN
150	1.000000	0.811154	7.36651e+06	-46139.1	955.818	-29770.7	0.000000	0.000000	6.811070	0.063075	NaN	0.000000	0.001598	0.001725	28.0813	0.076613	0.001913	40.0548	-156.319	-168.422	0.002927	0.809845	-0.197605	-0.198915	0.063075	40.0548	-0.198786	-125.815	-0.000501	NaN
150	1.000000	0.819163	7.36651e+06	-46139.1	955.818	-29770.7	0.000000	0.000000	6.819075	-0.021822	NaN	0.000000	0.001615	0.001730	28.0811	0.066513	0.001981	33.5831	-23.4938	-165.931	-0.034169	0.817868	-0.189597	-0.190892	-0.021822	33.5831	-0.189109	-86.9238	0.000251	NaN
150	1.000000	0.827175	7.36651e+06	-46139.1	955.818	-29770.7	0.000000	0.000000	6.827088	0.002210	NaN	0.000000	0.001594	0.001703	28.0828	0.103652	0.002011	51.5348	-45.5124	-166.774	-0.059934	0.825859	-0.181585	-0.182900	0.002210	51.5348	-0.181617	-65.0031	-3.399077E-5	NaN
150	1.000000	0.835152	7.36651e+06	-46139.1	955.818	-29770.7	0.000000	0.000000	6.835066	0.020019	NaN	0.000000	0.001625	0.001720	28.0818	0.029400	0.002011	14.619	147.865	-166.089	0.046353	0.833858	-0.173608	-0.174902	0.020019	14.619	-0.174635	-49.3971	-0.000405	NaN
150	1.000000	0.843178	7.36651e+06	-46139.1	955.818	-29770.7	0.000000	0.000000	6.843092	0.031860	NaN	0.000000	0.001603	0.001768	28.0824	0.071079	0.002065	34.418	177.777	-168.128	0.058415	0.841853	-0.165582	-0.166906	0.031860	34.418	-0.166276	-35.3736	-0.000901	NaN
150	1.000000	0.851146	7.36651e+06	-46139.1	955.818	-29770.7	0.000000	0.000000	6.851057	-0.038536	NaN	0.000000	0.001597	0.001732	28.0834	0.196645	0.002174	90.4476	99.6814	-164.581	0.033619	0.849873	-0.157614	-0.158886	-0.038536	90.4476	-0.157294	-24.5325	0.001571	NaN
150	1.000000	0.859191	7.36651e+06	-46139.1	955.818	-29770.7	0.000000	0.000000	6.859105	0.017388	NaN	0.000000	0.001618	0.001740	28.0833	0.051476	0.001904	27.0299	-106.526	-164.164	0.028821	0.857882	-0.149569	-0.150878	0.017388	27.0299	-0.150051	-18.1526	-0.000958	NaN
150	1.000000	0.867193	7.36651e+06	-46139.1	955.818	-29770.7	0.000000	0.000000	6.867106	-0.013594	NaN	0.000000	0.001626	0.001728	28.0817	0.138286	0.001943	71.1825	126.597	-165.579	-0.025720	0.865823	-0.141566	-0.142937	-0.013594	71.1825	-0.141423	-12.5787	0.001081	NaN
150	1.000000	0.875153	7.36651e+06	-46139.1	955.818	-29770.7	0.000000	0.000000	6.875066	0.010597	NaN	0.000000	0.001637	0.001725	28.0818	0.059891	0.001928	31.0625	-49.6628	-167.363	-0.046326	0.873827	-0.133607	-0.134933	0.010597	31.0625	-0.133863	-9.047682	-0.001171	NaN
150	1.000000	0.883179	7.36651e+06	-46139.1	955.818	-29770.7	0.000000	0.000000	6.883092	-0.016470	NaN	0.000000	0.001708	0.001727	28.0805	0.050699	0.002025	25.0355	-70.3731	-163.625	0.003737	0.881821	-0.125580	-0.126938	-0.016470	25.0355	-0.125087	-6.105378	0.002698	NaN
150	1.000000	0.891184	7.36651e+06	-46139.1	955.818	-29770.7	0.000000	0.000000	6.891100	0.060076	NaN	0.000000	0.001675	0.001751	28.0834	0.082870	0.002110	39.2732	-130.229	-166.89	0.018076	0.889877	-0.117575	-0.118883	0.060076	39.2732	-0.118723	-4.552336	-0.013197	NaN
150	1.000000	0.899194	7.36651e+06	-46139.1	955.818	-29770.7	0.000000	0.000000	6.899110	0.052487	NaN	0.000000	0.001700	0.001737	28.0823	0.096343	0.002022	47.6472	-176.49	-166.84	0.127345	0.897889	-0.109565	-0.110870	0.052487	47.6472	-0.110391	-3.062781	-0.017137	NaN
150	1.000000	0.907208	7.36651e+06	-46139.1	955.818	-29770.7	0.000000	0.000000	6.907125	0.082420	NaN	0.000000	0.001695	0.001738	28.0836	0.113672	0.002089	54.412	167.82	-169.572	0.067033	0.905834	-0.101551	-0.102926	0.082420	54.412	-0.102687	-2.093760	-0.039365	NaN
150	1.000000	0.915191	7.36651e+06	-46139.1	955.818	-29770.7	0.000000	0.000000	6.915105	0.011904	NaN	0.000000	0.001664	0.001750	28.0832	0.017132	0.001927	8.892156	-6.794494	-163.712	0.009748	0.913943	-0.093569	-0.094816	0.011904	8.892156	-0.094573	-1.379314	-0.008630	NaN
150	1.000000	0.923204	7.36651e+06	-46139.1	955.818	-29770.7	0.000000	0.000000	6.923119	0.043228	NaN	0.000000	0.001669	0.001756	28.0827	0.086726	0.001970	44.0169	112.568	-168.737	0.093897	0.921879	-0.085555	-0.086881	0.043228	44.0169	-0.086292	-0.882704	-0.048972	NaN
150	1.000000	0.931217	7.36651e+06	-46139.1	955.819	-29770.7	0.000000	0.000000	6.931130	-0.007509	NaN	0.000000	0.001690	0.001740	28.0856	0.113418	0.002028	55.9273	-115.476	-167.54	-0.034275	0.929910	-0.077542	-0.078849	-0.007509	55.9273	-0.077441	-0.533525	0.014074	NaN
150	1.000000	0.939219	7.36651e+06	-46139.1	955.818	-29770.7	0.000000	0.000000	6.939135	0.054604	NaN	0.000000	0.001703	0.001768	28.084	0.030451	0.002025	15.037	63.0933	-167.712	-0.024261	0.937943	-0.069540	-0.070817	0.054604	15.037	-0.072264	-0.391790	-0.139370	NaN
150	1.000000	0.947195	7.36651e+06	-46139.1	955.818	-29770.7	0.000000	0.000000	6.947110	0.049921	NaN	0.000000	0.001688	0.001748	28.083	0.102034	0.001942	52.5439	-145.674	-168.5	0.039266	0.945953	-0.061565	-0.062807	0.049921	52.5439	-0.062277	-0.209093	-0.238750	NaN
150	1.000000	0.955213	7.36651e+06	-46139.1	955.818	-29770.7	0.000000	0.000000	6.955127	0.020532	NaN	0.000000	0.001665	0.001719	28.0836	0.026324	0.001980	13.2977	-156.758	-164.575	-0.000685	0.953887	-0.053547	-0.054873	0.020532	13.2977	-0.054705	-0.126214	-0.162680	NaN
150	1.000000	0.963224	7.36651e+06	-46139.1	955.818	-29770.7	0.000000	0.000000	6.963138	0.016949	NaN	0.000000	0.001590	0.001772	28.083	0.032553	0.001926	16.9026	91.5696	-168.306	-0.037134	0.961995	-0.045536	-0.046764	0.016949	16.9026	-0.046288	-0.070364	-0.240876	NaN
150	1.000000	0.971222	7.36651e+06	-46139.1	955.818	-29770.7	0.000000	0.000000	6.971137	0.026504	NaN	0.000000	0.001573	0.001753	28.0843	0.097752	0.001980	49.3731	85.2209	-162.331	0.024153	0.969895	-0.037537	-0.038864	0.026504	49.3731	-0.037940	-0.039179	-0.676503	NaN
150	1.000000	0.979237	7.36651e+06	-46139.1	955.818	-29770.7	0.000000	0.000000	6.979150	-0.014897	NaN	0.000000	0.001595	0.001745	28.0828	0.046879	0.002014	23.278	71.06	-166.83	-0.056416	0.977933	-0.029522	-0.030826	-0.014897	23.278	-0.029042	-0.021650	0.688104	NaN
150	1.000000	0.987230	7.36651e+06	-46139.1	955.819	-29770.7	0.000000	0.000000	6.987144	0.006786	NaN	0.000000	0.001656	0.001735	28.0839	0.044936	0.002014	22.31	109.713	-162.72	0.059586	0.985916	-0.021529	-0.022844	0.006786	22.31	-0.021758	-0.013922	-0.487444	NaN
150	1.000000	0.995217	7.36651e+06	-46139.1	955.818	-29770.7	0.000000	0.000000	6.995133	0.065442	NaN	0.000000	0.001640	0.001693	28.0842	0.131660	0.002042	64.4663	-78.7783	-160.854	0.070129	0.993906	-0.013542	-0.014853	0.065442	64.4663	-0.014303	-0.008862	-7.384930	NaN
150	1.000000	1.003220	7.36651e+06	-46139.1	955.818	-29770.7	0.000000	0.000000	7.003134	0.016639	NaN	0.000000	0.001583	0.001712	28.0845	0.118707	0.001920	61.8345	-106.649	-164.681	0.021131	1.001913	-0.005539	-0.006846	0.016639	61.8345	-0.005741	-0.003877	-4.291269	NaN
150	1.000000	1.011205	7.36651e+06	-46139.1	955.819	-29770.7	0.000000	0.000000	7.011160	1.025832	NaN	0.000000	0.001596	0.001682	28.0851	1.594548	0.001916	832.39	10.172	-165.413	0.282804	1.009962	0.002446	0.001203	1.025832	832.39	0.001521	0.001171	875.793	22221
150	2.000000	1.018602	7.36651e+06	-46139.1	955.819	-29770.7	0.000000	0.000000	7.018919	9.830155	NaN	0.000000	0.001591	0.001699	28.0837	9.500845	0.001651	5755.16	9.647685	-173.227	9.036708	1.017856	0.009843	0.009096	9.830155	5755.16	0.008562	0.007626	1288.96	60210.2
150	2.000000	1.020757	7.36651e+06	-46139.1	955.819	-29770.7	0.000000	0.000000	7.021243	13.9227	NaN	0.000000	0.001546	0.001687	28.0832	12.2764	0.001678	7314.33	8.927945	-176.712	13.6361	1.020439	0.011998	0.011679	13.9227	7314.33	0.010570	0.009822	1417.46	67428.4
150	2.000000	1.022698	7.36651e+06	-46139.1	955.819	-29770.7	0.000000	0.000000	7.023311	17.0307	NaN	0.000000	0.001595	0.001659	28.0836	13.95	0.001556	8968	6.184523	-176.3	16.5282	1.022349	0.013938	0.013590	17.0307	8968	0.012514	0.012111	1406.18	74451.5
150	2.000000	1.024670	7.36651e+06	-46139.1	955.819	-29770.7	0.000000	0.000000	7.025458	21.2736	NaN	0.000000	0.001610	0.001689	28.0827	17.1733	0.001645	10438.4	7.163098	-178.94	21.032	1.024432	0.015911	0.015672	21.2736	10438.4	0.014382	0.014470	1470.14	79280.4
150	2.000000	1.026651	7.36651e+06	-46139.1	955.819	-29770.7	0.000000	0.000000	7.027611	25.4583	NaN	0.000000	0.001622	0.001684	28.0837	19.0985	0.001768	10801.7	8.796966	179.578	24.0671	1.026394	0.017891	0.017635	25.4583	10801.7	0.016124	0.016813	1514.19	76109.6
150	2.000000	1.028660	7.36651e+06	-46139.1	955.818	-29770.7	0.000000	0.000000	7.029734	28.2369	NaN	0.000000	0.001584	0.001719	28.0819	21.2074	0.001771	11975.6	6.999807	-178.991	27.9079	1.028309	0.019900	0.019549	28.2369	11975.6	0.018132	0.019691	1433.98	77970.9
150	2.000000	1.030665	7.36651e+06	-46139.1	955.818	-29770.7	0.000000	0.000000	7.032049	35.7699	NaN	0.000000	0.001563	0.001685	28.0838	22.7763	0.001710	13317.8	1.374608	-173.404	34.605	1.030328	0.021906	0.021569	35.7699	13317.8	0.019891	0.022372	1598.88	81349.2
150	2.000000	1.032647	7.36651e+06	-46139.1	955.818	-29770.7	0.000000	0.000000	7.034234	40.7123	NaN	0.000000	0.001594	0.001711	28.0835	25.4923	0.001707	14929.8	6.699495	178.629	39.434	1.032321	0.023887	0.023561	40.7123	14929.8	0.021842	0.025520	1595.3	85385.8
150	2.000000	1.034659	7.36651e+06	-46139.1	955.819	-29770.7	0.000000	0.000000	7.036436	45.3398	NaN	0.000000	0.001676	0.001714	28.0826	27.9784	0.001789	15642.1	5.977126	179.801	45.1303	1.034353	0.025899	0.025593	45.3398	15642.1	0.023725	0.028737	1577.75	84303.7
150	2.000000	1.036642	7.36651e+06	-46139.1	955.819	-29770.7	0.000000	0.000000	7.038692	51.9584	NaN	0.000000	0.001577	0.001692	28.0828	28.8733	0.001636	17645	2.278574	-178.302	51.3521	1.036316	0.027883	0.027557	51.9584	17645	0.025675	0.032254	1610.9	89764.1
150	2.000000	1.038623	7.36651e+06	-46139.1	955.818	-29770.7	0.000000	0.000000	7.040934	58.3166	NaN	0.000000	0.001575	0.001731	28.0829	32.1246	0.001881	17076.3	5.971664	179.598	56.9584	1.038279	0.029864	0.029519	58.3166	17076.3	0.027302	0.035338	1650.26	82994.1
150	2.000000	1.040642	7.36651e+06	-46139.1	955.819	-29770.7	0.000000	0.000000	7.043221	64.8454	NaN	0.000000	0.001584	0.001703	28.0826	33.8396	0.001795	18850.8	6.269710	177.983	65.1579	1.040291	0.031882	0.031531	64.8454	18850.8	0.029302	0.039310	1649.58	86866.2
150	2.000000	1.042591	7.36651e+06	-46139.1	955.819	-29770.7	0.000000	0.000000	7.045517	73.2655	NaN	0.000000	0.001570	0.001687	28.0821	34.7667	0.001772	19624.5	6.645268	177.876	70.962	1.042242	0.033832	0.033482	73.2655	19624.5	0.031032	0.042910	1707.43	86555.3
150	2.000000	1.044612	7.36651e+06	-46139.1	955.819	-29770.7	0.000000	0.000000	7.047792	79.4691	NaN	0.000000	0.001556	0.001691	28.0826	37.7264	0.001834	20567	5.829032	177.232	77.951	1.044288	0.035852	0.035528	79.4691	20567	0.032954	0.047090	1687.59	86592.3
150	2.000000	1.046644	7.36651e+06	-46139.1	955.819	-29770.7	0.000000	0.000000	7.050207	88.794	NaN	0.000000	0.001559	0.001682	28.0828	39.1763	0.001819	21533.8	8.664014	174.573	89.1017	1.046221	0.037884	0.037461	88.794	21533.8	0.034792	0.051262	1732.16	86895.5
150	2.000000	1.048590	7.36651e+06	-46139.1	955.82	-29770.7	0.000000	0.000000	7.052315	92.7272	NaN	0.000000	0.001576	0.001690	28.0821	41.5806	0.001674	24837.9	4.874745	175.193	91.2761	1.048283	0.039830	0.039523	92.7272	24837.9	0.037030	0.056579	1638.89	95402.6
150	2.000000	1.050686	7.36651e+06	-46139.1	955.82	-29770.7	0.000000	0.000000	7.054825	102.784	NaN	0.000000	0.001633	0.001702	28.0828	44.6306	0.001838	24288.4	5.109834	176.883	104.492	1.050356	0.041927	0.041597	102.784	24288.4	0.038753	0.060846	1689.25	89961.7
150	2.000000	1.052592	7.36651e+06	-46139.1	955.82	-29770.7	0.000000	0.000000	7.057150	112.979	NaN	0.000000	0.001655	0.001707	28.082	45.7777	0.001783	25673.5	4.041246	176.983	111.222	1.052254	0.043832	0.043495	112.979	25673.5	0.040532	0.065410	1727.24	91713.9
150	2.000000	1.054581	7.36651e+06	-46139.1	955.819	-29770.7	0.000000	0.000000	7.059386	118.989	NaN	0.000000	0.001650	0.001703	28.0833	48.5661	0.001761	27575.4	5.559837	175.53	118.68	1.054386	0.045822	0.045627	118.989	27575.4	0.042585	0.070881	1678.72	94630.3
150	2.000000	1.056580	7.36651e+06	-46139.1	955.82	-29770.7	0.000000	0.000000	7.062045	135.052	NaN	0.000000	0.001659	0.001722	28.0836	48.3712	0.001730	27960.6	2.000076	179.171	132.536	1.056154	0.047821	0.047395	135.052	27960.6	0.044198	0.075327	1792.88	93077.7
150	2.000000	1.058519	7.36651e+06	-46139.1	955.819	-29770.7	0.000000	0.000000	7.064337	143.646	NaN	0.000000	0.001635	0.001685	28.083	51.7211	0.001766	29294.6	6.358535	174.808	140.908	1.058236	0.049759	0.049476	143.646	29294.6	0.046082	0.080688	1780.25	94222.5
150	2.000000	1.060587	7.36651e+06	-46139.1	955.819	-29770.7	0.000000	0.000000	7.066704	150.916	NaN	0.000000	0.001635	0.001688	28.0826	55.111	0.001862	29602.6	8.793014	170.551	149.954	1.060301	0.051828	0.051542	150.916	29602.6	0.048004	0.086344	1747.85	92042.3
150	2.000000	1.062569	7.36651e+06	-46139.1	955.82	-29770.7	0.000000	0.000000	7.069227	164.069	NaN	0.000000	0.001618	0.001696	28.0838	56.2554	0.001795	31340.1	7.743898	172.954	163.57	1.062225	0.053810	0.053466	164.069	31340.1	0.049883	0.092053	1782.33	94374.3
150	2.000000	1.064579	7.36651e+06	-46139.1	955.82	-29770.7	0.000000	0.000000	7.071684	174.949	NaN	0.000000	0.001663	0.001712	28.0837	57.5478	0.001790	32151.4	2.147911	177.099	175.655	1.064240	0.055819	0.055481	174.949	32151.4	0.051738	0.097862	1787.71	93900.1
150	2.000000	1.066583	7.36651e+06	-46139.1	955.821	-29770.7	0.000000	0.000000	7.074196	187.294	NaN	0.000000	0.001649	0.001716	28.0817	58.7653	0.001690	34779.8	8.329081	171.614	186.783	1.066174	0.057824	0.057415	187.294	34779.8	0.053785	0.104470	1792.81	98311.7
150	2.000000	1.068544	7.36651e+06	-46139.1	955.82	-29770.7	0.000000	0.000000	7.076464	194.759	NaN	0.000000	0.001672	0.001712	28.0841	61.1428	0.001793	34105.9	5.063915	173.393	192.199	1.068373	0.059784	0.059614	194.759	34105.9	0.055502	0.110174	1767.74	93878
150	2.000000	1.070637	7.36651e+06	-46139.1	955.82	-29770.7	0.000000	0.000000	7.079237	211.323	NaN	0.000000	0.001674	0.001670	28.0845	64.2069	0.001794	35795.4	8.464692	170.975	212.235	1.070243	0.061877	0.061484	211.323	35795.4	0.057450	0.116822	1808.93	95683.5
150	2.000000	1.072589	7.36651e+06	-46139.1	955.819	-29770.7	0.000000	0.000000	7.081866	227.78	NaN	0.000000	0.001647	0.001696	28.085	65.2267	0.001911	34135.6	5.660601	173.84	227.069	1.072210	0.063830	0.063451	227.78	34135.6	0.058825	0.121630	1872.73	89425.2
150	2.000000	1.074517	7.36651e+06	-46139.1	955.82	-29770.7	0.000000	0.000000	7.084185	237.276	NaN	0.000000	0.001658	0.001697	28.0838	66.7203	0.001770	37693.4	1.423019	177.096	232.974	1.074257	0.065758	0.065498	237.276	37693.4	0.061037	0.129552	1831.5	95678.9
150	2.000000	1.076622	7.36651e+06	-46139.1	955.82	-29770.7	0.000000	0.000000	7.086840	250.673	NaN	0.000000	0.001660	0.001675	28.0836	68.1222	0.001726	39465.1	6.303777	171.934	253.839	1.076245	0.067863	0.067486	250.673	39465.1	0.063099	0.137154	1827.67	97360.3
150	2.000000	1.078527	7.36651e+06	-46139.1	955.82	-29770.7	0.000000	0.000000	7.089334	264.984	NaN	0.000000	0.001660	0.001727	28.084	71.1182	0.001671	42572.7	4.961804	172.292	264.064	1.078291	0.069768	0.069532	264.984	42572.7	0.065100	0.144727	1830.92	102242
150	2.000000	1.080576	7.36651e+06	-46139.1	955.82	-29770.7	0.000000	0.000000	7.092326	287.943	NaN	0.000000	0.001609	0.001744	28.0826	73.6777	0.001784	41294.6	6.254457	171.643	284.541	1.080210	0.071817	0.071451	287.943	41294.6	0.066587	0.150482	1913.47	97257.7
150	2.000000	1.082528	7.36651e+06	-46139.1	955.82	-29770.7	0.000000	0.000000	7.094401	290.927	NaN	0.000000	0.001614	0.001731	28.0834	75.2004	0.001651	45559.5	1.548965	174.922	288.75	1.082292	0.073768	0.073533	290.927	45559.5	0.068979	0.159960	1818.75	104075
150	2.000000	1.084608	7.36651e+06	-46139.1	955.82	-29770.7	0.000000	0.000000	7.097017	303.975	NaN	0.000000	0.001581	0.001706	28.0829	79.3583	0.001797	44152.4	7.382229	169.407	308.398	1.084382	0.075849	0.075623	303.975	44152.4	0.070685	0.166886	1821.45	98745.6
150	2.000000	1.086473	7.36651e+06	-46139.1	955.82	-29770.7	0.000000	0.000000	7.099499	318.983	NaN	0.000000	0.001591	0.001713	28.0839	78.5917	0.001710	45947.2	2.256089	174.525	313.917	1.086221	0.077713	0.077461	318.983	45947.2	0.072507	0.174433	1828.68	100512
150	2.000000	1.088421	7.36651e+06	-46139.1	955.821	-29770.7	0.000000	0.000000	7.102302	339.771	NaN	0.000000	0.001527	0.001718	28.0837	81.9157	0.001775	46151.5	3.464660	173.104	333.308	1.088146	0.079662	0.079387	339.771	46151.5	0.074140	0.181336	1873.71	99018.7
150	2.000000	1.090599	7.36651e+06	-46139.1	955.819	-29770.7	0.000000	0.000000	7.104816	347.948	NaN	0.000000	0.001548	0.001735	28.0846	85.4284	0.001975	43261.9	6.232573	171.282	348.111	1.090249	0.081840	0.081490	347.948	43261.9	0.075807	0.188511	1845.77	91035.5
150	2.000000	1.092470	7.36651e+06	-46139.1	955.821	-29770.7	0.000000	0.000000	7.107402	365.332	NaN	0.000000	0.001546	0.001730	28.0851	84.2963	0.001660	50773.3	0.532146	175.628	359.944	1.092136	0.083711	0.083376	365.332	50773.3	0.078314	0.199543	1830.84	103846
150	2.000000	1.094615	7.36651e+06	-46139.1	955.82	-29770.7	0.000000	0.000000	7.110152	380.063	NaN	0.000000	0.001563	0.001745	28.0836	88.7504	0.001874	47360	1.856204	174.622	381.162	1.094249	0.085855	0.085490	380.063	47360	0.079837	0.206388	1841.5	95245.2
150	2.000000	1.096457	7.36651e+06	-46139.1	955.82	-29770.7	0.000000	0.000000	7.112857	401.045	NaN	0.000000	0.001609	0.001686	28.0845	88.5919	0.001721	51489.2	3.470826	172.88	395.628	1.096167	0.087698	0.087408	401.045	51489.2	0.081856	0.215632	1859.86	101305
150	2.000000	1.098571	7.36651e+06	-46139.1	955.82	-29770.7	0.000000	0.000000	7.115397	411.403	NaN	0.000000	0.001580	0.001698	28.0836	93.3883	0.001837	50828.3	3.291678	173.122	413.775	1.098146	0.089812	0.089387	411.403	50828.3	0.083741	0.224433	1833.07	98024.6
150	2.000000	1.100506	7.36651e+06	-46139.1	955.821	-29770.7	0.000000	0.000000	7.118010	427.92	NaN	0.000000	0.001568	0.001703	28.0814	94.5904	0.001858	50904.1	4.022207	172.56	425.875	1.100226	0.091746	0.091467	427.92	50904.1	0.085442	0.232512	1840.42	96450.2
150	2.000000	1.102435	7.36651e+06	-46139.1	955.82	-29770.7	0.000000	0.000000	7.120592	443.785	NaN	0.000000	0.001575	0.001687	28.0823	96.2837	0.001855	51902.4	3.511661	172.029	436.743	1.102170	0.093675	0.093411	443.785	51902.4	0.087262	0.241313	1839.05	96531.9
150	2.000000	1.104576	7.36651e+06	-46139.1	955.82	-29770.7	0.000000	0.000000	7.123123	453.267	NaN	0.000000	0.001591	0.001716	28.0823	97.9824	0.001753	55909.3	0.010985	175.355	454.103	1.104347	0.095817	0.095587	453.267	55909.3	0.089736	0.253512	1787.95	101451
150	2.000000	1.106557	7.36651e+06	-46139.1	955.82	-29770.7	0.000000	0.000000	7.126291	482.147	NaN	0.000000	0.001614	0.001669	28.0838	99.9903	0.001754	57002.4	5.605534	170.021	483.82	1.106157	0.097798	0.097398	482.147	57002.4	0.091454	0.262149	1839.21	101717
150	2.000000	1.108600	7.36651e+06	-46139.1	955.82	-29770.7	0.000000	0.000000	7.128690	490.825	NaN	0.000000	0.001576	0.001608	28.0822	104.065	0.001862	55876.6	7.494312	168.178	494.079	1.108130	0.099840	0.099370	490.825	55876.6	0.093252	0.271334	1808.94	98005.8
150	2.000000	1.110606	7.36651e+06	-46139.1	955.82	-29770.7	0.000000	0.000000	7.131258	504.464	NaN	0.000000	0.001597	0.001619	28.0823	105.771	0.001788	59159.4	6.363916	168.931	508.895	1.110246	0.101847	0.101487	504.464	59159.4	0.095451	0.282769	1784.02	101644
150	2.000000	1.112520	7.36651e+06	-46139.1	955.821	-29770.7	0.000000	0.000000	7.134059	526.053	NaN	0.000000	0.001572	0.001625	28.0847	105.554	0.001659	63613.1	4.794416	169.902	525.005	1.112382	0.103760	0.103623	526.053	63613.1	0.097558	0.293930	1789.72	107201
150	2.000000	1.114375	7.36651e+06	-46139.1	955.821	-29770.7	0.000000	0.000000	7.136844	548.671	NaN	0.000000	0.001570	0.001632	28.084	109.125	0.001883	57937.8	1.990860	173.297	541.641	1.114114	0.105616	0.105354	548.671	57937.8	0.098513	0.299057	1834.67	96796.2
150	2.000000	1.116442	7.36651e+06	-46139.1	955.82	-29770.7	0.000000	0.000000	7.139679	567.363	NaN	0.000000	0.001567	0.001644	28.0826	109.504	0.001772	61788.9	4.089908	170.826	561.135	1.116143	0.107682	0.107383	567.363	61788.9	0.100796	0.311476	1821.53	101151
150	2.000000	1.117036	7.36651e+06	-46139.1	955.821	-29770.7	0.000000	0.000000	7.140446	571.558	NaN	0.000000	0.001547	0.001624	28.0811	110.331	0.001821	60590.8	3.179861	-7.446164	569.518	1.116646	0.108277	0.107886	571.558	60590.8	0.101202	0.313711	1821.93	98835.9