File: remote_trans/data/nanoindenter/0828-1/data/Data_2025-08-06,11h17m57s/2025-07-22_16-23-58_1_256.txt
2025-07-22, 16:23:58, 1
Index	Phase	Displacement	Time	Pos X	Pos Y	Pos Z	Rot A	Rot B	Piezo Z	Force A	Force B	Gripper	Voltage A	Voltage B	Temperature	Amplitude force	Amplitude pos	Stiffness	Phase shift	Phase excitation	Force A raw	Displacement raw	HMax	HMax raw	Real Force	Real Stiffness	Contact Depth	Area	Hardness	Reduced Mod.
[#]	[#]	[um]	[s]	[um]	[um]	[um]	[m°]	[m°]	[um]	[uN]	[uN]	[V]	[V]	[V]	[°C]	[uN]	[um]	[N/m]	[°]	[°]	[uN]	[um]	[um]	[um]	[uN]	[N/m]	[um]	[um^2]	[MPa]	[MPa]
256	1.000000	0.002719	7.36756e+06	-51439.1	955.818	-29752.5	0.000000	0.000000	6.002802	0.046366	NaN	0.000000	0.001605	0.001680	28.0791	0.049327	0.000927	53.1946	16.4538	-163.808	0.055679	0.001476	-1.148153	-1.149396	0.046366	53.1946	-1.148806	-2.263700E+15	-2.048251E-17	NaN
256	1.000000	0.012789	7.36756e+06	-51439.1	955.819	-29752.5	0.000000	0.000000	6.012867	-0.046754	NaN	0.000000	0.001623	0.001671	28.0792	0.019113	0.001326	14.4151	167.327	17.7726	-0.031750	0.011352	-1.138083	-1.139520	-0.046754	14.4151	-1.135651	-1.508032E+15	3.100356E-17	NaN
256	1.000000	0.022681	7.36756e+06	-51439.1	955.819	-29752.5	0.000000	0.000000	6.022763	0.026269	NaN	0.000000	0.001575	0.001659	28.0791	0.111579	0.001650	67.6351	-80.9202	-165.446	0.016016	0.021309	-1.128191	-1.129563	0.026269	67.6351	-1.128482	-1.208551E+15	-2.173627E-17	NaN
256	1.000000	0.032690	7.36756e+06	-51439.1	955.819	-29752.5	0.000000	0.000000	6.032772	0.025686	NaN	0.000000	0.001550	0.001695	28.0787	0.063732	0.001943	32.7961	38.583	18.1664	0.057941	0.031313	-1.118182	-1.119559	0.025686	32.7961	-1.118769	-8.952834E+14	-2.869040E-17	NaN
256	1.000000	0.042671	7.36756e+06	-51439.1	955.82	-29752.5	0.000000	0.000000	6.042751	-0.009914	NaN	0.000000	0.001586	0.001669	28.0778	0.011198	0.002077	5.391220	24.116	-166.541	0.010067	0.041365	-1.108201	-1.109507	-0.009914	5.391220	-1.106822	-6.189276E+14	1.601864E-17	NaN
256	1.000000	0.052664	7.36756e+06	-51439.1	955.818	-29752.5	0.000000	0.000000	6.052745	0.011309	NaN	0.000000	0.001540	0.001684	28.0776	0.033895	0.002018	16.7943	-77.0868	15.2864	0.045728	0.051335	-1.098208	-1.099537	0.011309	16.7943	-1.098713	-4.817140E+14	-2.347694E-17	NaN
256	1.000000	0.062686	7.36756e+06	-51439.1	955.818	-29752.5	0.000000	0.000000	6.062764	-0.043005	NaN	0.000000	0.001597	0.001700	28.0777	0.042515	0.001854	22.9345	10.5193	-166.849	-0.059379	0.061337	-1.088186	-1.089535	-0.043005	22.9345	-1.086780	-3.331001E+14	1.291055E-16	NaN
256	1.000000	0.072697	7.36756e+06	-51439.1	955.819	-29752.5	0.000000	0.000000	6.072777	-0.017397	NaN	0.000000	0.001613	0.001664	28.0775	0.095546	0.001959	48.7714	108.391	16.3085	0.035617	0.071336	-1.078175	-1.079536	-0.017397	48.7714	-1.077908	-2.531712E+14	6.871831E-17	NaN
256	1.000000	0.082657	7.36756e+06	-51439.1	955.819	-29752.5	0.000000	0.000000	6.082736	-0.045149	NaN	0.000000	0.001593	0.001704	28.0773	0.154435	0.002063	74.8657	161.775	-166.632	-0.086819	0.081355	-1.068215	-1.069517	-0.045149	74.8657	-1.067763	-1.849819E+14	2.440729E-16	NaN
256	1.000000	0.092666	7.36756e+06	-51439.1	955.818	-29752.5	0.000000	0.000000	6.092746	-0.012284	NaN	0.000000	0.001565	0.001730	28.0774	0.021084	0.002101	10.0372	179.847	16.6894	-0.085786	0.091342	-1.058206	-1.059530	-0.012284	10.0372	-1.057288	-1.337744E+14	9.182574E-17	NaN
256	1.000000	0.102696	7.36756e+06	-51439.1	955.818	-29752.5	0.000000	0.000000	6.102777	0.008438	NaN	0.000000	0.001577	0.001652	28.0774	0.130784	0.002159	60.59	125.87	-165.969	0.066064	0.101369	-1.048176	-1.049503	0.008438	60.59	-1.048280	-1.012271E+14	-8.335679E-17	NaN
256	1.000000	0.112699	7.36756e+06	-51439.1	955.819	-29752.5	0.000000	0.000000	6.112779	-0.009832	NaN	0.000000	0.001607	0.001682	28.0775	0.033535	0.001996	16.7978	-10.6547	15.614	0.090300	0.111336	-1.038173	-1.039536	-0.009832	16.7978	-1.037734	-7.302994E+13	1.346346E-16	NaN
256	1.000000	0.122689	7.36756e+06	-51439.1	955.817	-29752.5	0.000000	0.000000	6.122772	0.042925	NaN	0.000000	0.001588	0.001657	28.0778	0.029220	0.001964	14.881	20.8887	-166.575	0.058252	0.121438	-1.028183	-1.029434	0.042925	14.881	-1.030346	-5.809447E+13	-7.388912E-16	NaN
256	1.000000	0.132685	7.36756e+06	-51439.1	955.818	-29752.5	0.000000	0.000000	6.132765	-0.001001	NaN	0.000000	0.001599	0.001708	28.0776	0.044497	0.001938	22.9648	-38.6632	16.0845	-0.062045	0.131332	-1.018187	-1.019540	-0.001001	22.9648	-1.018155	-3.982178E+13	2.514469E-17	NaN
256	1.000000	0.142724	7.36756e+06	-51439.1	955.819	-29752.5	0.000000	0.000000	6.142804	0.002209	NaN	0.000000	0.001597	0.001665	28.0777	0.021025	0.001896	11.0872	-42.3087	-168.424	-0.011254	0.141418	-1.008148	-1.009454	0.002209	11.0872	-1.008298	-2.934079E+13	-7.527394E-17	NaN
256	1.000000	0.152734	7.36756e+06	-51439.1	955.819	-29752.5	0.000000	0.000000	6.152815	0.012165	NaN	0.000000	0.001573	0.001690	28.0773	0.088233	0.002014	43.8078	-77.0041	14.1559	0.025718	0.151373	-0.998138	-0.999499	0.012165	43.8078	-0.998346	-2.155278E+13	-5.644361E-16	NaN
256	1.000000	0.162707	7.36756e+06	-51439.1	955.819	-29752.5	0.000000	0.000000	6.162788	-0.001435	NaN	0.000000	0.001640	0.001699	28.0775	0.023435	0.002005	11.686	-36.4786	-163.822	0.006579	0.161420	-0.988165	-0.989452	-0.001435	11.686	-0.988073	-1.567300E+13	9.157907E-17	NaN
256	1.000000	0.172700	7.36756e+06	-51439.1	955.819	-29752.5	0.000000	0.000000	6.172781	-0.004398	NaN	0.000000	0.001723	0.001688	28.0786	0.053750	0.001938	27.7384	-80.6711	15.4302	0.031242	0.171374	-0.978172	-0.979498	-0.004398	27.7384	-0.978053	-1.148615E+13	3.828876E-16	NaN
256	1.000000	0.182723	7.36756e+06	-51439.1	955.818	-29752.5	0.000000	0.000000	6.182802	-0.049982	NaN	0.000000	0.001673	0.001670	28.0786	0.132327	0.002029	65.2163	-106.562	-162.603	0.052842	0.181414	-0.968149	-0.969458	-0.049982	65.2163	-0.967574	-8.297869E+12	6.023528E-15	NaN
256	1.000000	0.192718	7.36756e+06	-51439.1	955.819	-29752.5	0.000000	0.000000	6.192799	0.029841	NaN	0.000000	0.001705	0.001700	28.0787	0.031224	0.002015	15.4956	-23.5582	13.6727	0.041438	0.191412	-0.958154	-0.959460	0.029841	15.4956	-0.959599	-6.478277E+12	-4.606355E-15	NaN
256	1.000000	0.202724	7.36756e+06	-51439.1	955.818	-29752.5	0.000000	0.000000	6.202808	0.070008	NaN	0.000000	0.001681	0.001657	28.0787	0.108607	0.002104	51.6252	3.156490	-165.874	-0.093239	0.201477	-0.948148	-0.949395	0.070008	51.6252	-0.949165	-4.685561E+12	-1.494128E-14	NaN
256	1.000000	0.212729	7.36756e+06	-51439.1	955.818	-29752.5	0.000000	0.000000	6.212809	-0.011255	NaN	0.000000	0.001682	0.001689	28.0787	0.025133	0.002114	11.8877	97.679	13.021	-0.013491	0.211339	-0.938143	-0.939533	-0.011255	11.8877	-0.937433	-3.254635E+12	3.458149E-15	NaN
256	1.000000	0.222723	7.36756e+06	-51439.1	955.819	-29752.5	0.000000	0.000000	6.222802	-0.038554	NaN	0.000000	0.001694	0.001678	28.0786	0.084418	0.002020	41.7974	-119.131	-167.402	0.005650	0.221484	-0.928149	-0.929388	-0.038554	41.7974	-0.927457	-2.387123E+12	1.615083E-14	NaN
256	1.000000	0.232766	7.36756e+06	-51439.1	955.818	-29752.5	0.000000	0.000000	6.232845	-0.049674	NaN	0.000000	0.001650	0.001639	28.0792	0.073533	0.001914	38.4154	-18.71	14.9507	-0.061231	0.231388	-0.918106	-0.919484	-0.049674	38.4154	-0.917136	-1.731945E+12	2.868134E-14	NaN
256	1.000000	0.242757	7.36756e+06	-51439.1	955.818	-29752.5	0.000000	0.000000	6.242837	-0.010867	NaN	0.000000	0.001587	0.001660	28.0787	0.042176	0.002048	20.5984	67.6936	-165.987	0.018026	0.241432	-0.908115	-0.909440	-0.010867	20.5984	-0.907719	-1.292265E+12	8.409487E-15	NaN
256	1.000000	0.252773	7.36756e+06	-51439.1	955.819	-29752.5	0.000000	0.000000	6.252854	-0.001579	NaN	0.000000	0.001649	0.001633	28.0789	0.091615	0.001923	47.6421	-33.8724	16.2033	0.042575	0.251399	-0.898099	-0.899473	-0.001579	47.6421	-0.898074	-9.572792E+11	1.649126E-15	NaN
256	1.000000	0.262762	7.36756e+06	-51439.1	955.818	-29752.5	0.000000	0.000000	6.262844	0.052873	NaN	0.000000	0.001655	0.001623	28.0786	0.092578	0.001964	47.1381	135.266	-166.168	0.035307	0.261431	-0.888111	-0.889441	0.052873	47.1381	-0.888952	-7.206839E+11	-7.336467E-14	NaN
256	1.000000	0.272766	7.36756e+06	-51439.1	955.819	-29752.5	0.000000	0.000000	6.272848	0.025849	NaN	0.000000	0.001645	0.001671	28.0798	0.027764	0.002004	13.8554	-177.87	15.2688	-0.008557	0.271438	-0.878106	-0.879434	0.025849	13.8554	-0.879505	-5.370529E+11	-4.813145E-14	NaN
256	1.000000	0.282746	7.36756e+06	-51439.1	955.819	-29752.5	0.000000	0.000000	6.282825	-0.039930	NaN	0.000000	0.001576	0.001648	28.0789	0.076163	0.002137	35.643	25.7468	-165.179	0.019736	0.281506	-0.868126	-0.869366	-0.039930	35.643	-0.867286	-3.670472E+11	1.087858E-13	NaN
256	1.000000	0.292753	7.36756e+06	-51439.1	955.818	-29752.5	0.000000	0.000000	6.292834	0.010446	NaN	0.000000	0.001583	0.001668	28.0792	0.071609	0.001902	37.6528	-111.017	15.9998	0.072224	0.291412	-0.858119	-0.859460	0.010446	37.6528	-0.858327	-2.776333E+11	-3.762440E-14	NaN
256	1.000000	0.302775	7.36756e+06	-51439.1	955.818	-29752.5	0.000000	0.000000	6.302854	-0.023095	NaN	0.000000	0.001608	0.001662	28.0788	0.110626	0.001885	58.681	-116.996	-165.896	0.022412	0.301469	-0.848097	-0.849403	-0.023095	58.681	-0.847802	-1.999728E+11	1.154916E-13	NaN
256	1.000000	0.312778	7.36756e+06	-51439.1	955.819	-29752.5	0.000000	0.000000	6.312861	0.068567	NaN	0.000000	0.001632	0.001655	28.0783	0.044101	0.002014	21.9005	122.638	15.0425	0.056065	0.311428	-0.838094	-0.839445	0.068567	21.9005	-0.840442	-1.589586E+11	-4.313525E-13	NaN
256	1.000000	0.322767	7.36756e+06	-51439.1	955.818	-29752.5	0.000000	0.000000	6.322846	-0.046575	NaN	0.000000	0.001626	0.001633	28.0774	0.081720	0.002017	40.5205	26.2193	-169.578	-0.085629	0.321526	-0.828105	-0.829346	-0.046575	40.5205	-0.827243	-1.052965E+11	4.423229E-13	NaN
256	1.000000	0.332788	7.36756e+06	-51439.1	955.819	-29752.5	0.000000	0.000000	6.332867	-0.049646	NaN	0.000000	0.001642	0.001652	28.0777	0.072280	0.002014	35.8832	-108.555	15.3782	0.027208	0.331471	-0.818084	-0.819401	-0.049646	35.8832	-0.817046	-7.658590E+10	6.482453E-13	NaN
256	1.000000	0.342843	7.36756e+06	-51439.1	955.818	-29752.5	0.000000	0.000000	6.342924	0.024716	NaN	0.000000	0.001607	0.001676	28.0774	0.100634	0.001950	51.5973	5.472848	-160.136	0.018704	0.341451	-0.808029	-0.809421	0.024716	51.5973	-0.808388	-5.843924E+10	-4.229409E-13	NaN
256	1.000000	0.352811	7.36756e+06	-51439.1	955.819	-29752.5	0.000000	0.000000	6.352892	-0.007024	NaN	0.000000	0.001647	0.001702	28.0776	0.087796	0.001961	44.7611	107.477	13.3453	0.021619	0.351444	-0.798061	-0.799428	-0.007024	44.7611	-0.797943	-4.216357E+10	1.665965E-13	NaN
256	1.000000	0.362806	7.36756e+06	-51439.1	955.818	-29752.5	0.000000	0.000000	6.362886	-0.011572	NaN	0.000000	0.001616	0.001672	28.0774	0.144763	0.001907	75.93	-133.72	-163.656	-0.008754	0.361497	-0.788066	-0.789375	-0.011572	75.93	-0.787952	-3.085049E+10	3.751076E-13	NaN
256	1.000000	0.372798	7.36756e+06	-51439.1	955.818	-29752.5	0.000000	0.000000	6.372879	0.005311	NaN	0.000000	0.001620	0.001683	28.0774	0.149570	0.001958	76.3847	-103.935	11.1706	0.021532	0.371471	-0.778074	-0.779401	0.005311	76.3847	-0.778126	-2.268625E+10	-2.341192E-13	NaN
256	1.000000	0.382817	7.36756e+06	-51439.1	955.818	-29752.5	0.000000	0.000000	6.382897	-0.017484	NaN	0.000000	0.001621	0.001679	28.0775	0.020616	0.002124	9.707750	23.7942	-164.273	0.088653	0.381526	-0.768055	-0.769346	-0.017484	9.707750	-0.766704	-1.586674E+10	1.101917E-12	NaN
256	1.000000	0.392829	7.36756e+06	-51439.1	955.818	-29752.5	0.000000	0.000000	6.392910	0.004384	NaN	0.000000	0.001633	0.001658	28.0775	0.045145	0.001920	23.5125	-93.9062	14.3913	-0.075192	0.391466	-0.758043	-0.759406	0.004384	23.5125	-0.758182	-1.214993E+10	-3.608002E-13	NaN
256	1.000000	0.402820	7.36756e+06	-51439.1	955.818	-29752.5	0.000000	0.000000	6.402900	-0.022300	NaN	0.000000	0.001620	0.001649	28.0776	0.039663	0.002048	19.3628	-116.454	-162.561	-0.038138	0.401492	-0.748052	-0.749380	-0.022300	19.3628	-0.747188	-8.608805E+9	2.590416E-12	NaN
256	1.000000	0.412811	7.36756e+06	-51439.1	955.818	-29752.5	0.000000	0.000000	6.412889	-0.064217	NaN	0.000000	0.001622	0.001663	28.0775	0.021143	0.002052	10.3046	-93.1863	13.3014	-0.046899	0.411509	-0.738061	-0.739363	-0.064217	10.3046	-0.733387	-5.584335E+9	1.149952E-11	NaN
256	1.000000	0.422816	7.36756e+06	-51439.1	955.818	-29752.5	0.000000	0.000000	6.422896	0.003134	NaN	0.000000	0.001606	0.001672	28.0776	0.156981	0.002064	76.0702	89.5738	-165.674	-0.035491	0.421549	-0.728056	-0.729323	0.003134	76.0702	-0.728087	-4.728671E+9	-6.627807E-13	NaN
256	1.000000	0.432838	7.36756e+06	-51439.1	955.818	-29752.5	0.000000	0.000000	6.432920	0.038872	NaN	0.000000	0.001634	0.001650	28.0776	0.114904	0.002027	56.6988	40.9391	9.371646	0.029330	0.431435	-0.718034	-0.719437	0.038872	56.6988	-0.718549	-3.504910E+9	-1.109060E-11	NaN
256	1.000000	0.442863	7.36756e+06	-51439.1	955.818	-29752.5	0.000000	0.000000	6.442945	0.033670	NaN	0.000000	0.001629	0.001630	28.0773	0.027353	0.002001	13.6671	-3.582041	-164.602	0.021714	0.441495	-0.708009	-0.709377	0.033670	13.6671	-0.709857	-2.667432E+9	-1.262248E-11	NaN
256	1.000000	0.452840	7.36756e+06	-51439.1	955.818	-29752.5	0.000000	0.000000	6.452918	-0.044770	NaN	0.000000	0.001567	0.001677	28.0787	0.033446	0.001908	17.5261	37.9025	15.8845	-0.054786	0.451517	-0.698032	-0.699355	-0.044770	17.5261	-0.696117	-1.731768E+9	2.585229E-11	NaN
256	1.000000	0.462835	7.36756e+06	-51439.1	955.819	-29752.5	0.000000	0.000000	6.462914	-0.045359	NaN	0.000000	0.001607	0.001638	28.0788	0.214120	0.001978	108.224	134.987	-160.492	-0.004068	0.461536	-0.688037	-0.689336	-0.045359	108.224	-0.687722	-1.329801E+9	3.410955E-11	NaN
256	1.000000	0.472853	7.36756e+06	-51439.1	955.819	-29752.5	0.000000	0.000000	6.472934	0.029738	NaN	0.000000	0.001593	0.001611	28.0787	0.022791	0.001971	11.5617	127.44	13.8772	-0.030495	0.471505	-0.678019	-0.679367	0.029738	11.5617	-0.679949	-1.041122E+9	-2.856385E-11	NaN
256	1.000000	0.482855	7.36756e+06	-51439.1	955.817	-29752.5	0.000000	0.000000	6.482935	-0.008271	NaN	0.000000	0.001625	0.001682	28.0788	0.052458	0.002107	24.9021	93.7237	-164.517	0.066678	0.481566	-0.668017	-0.669306	-0.008271	24.9021	-0.667768	-7.093146E+8	1.166018E-11	NaN
256	1.000000	0.492869	7.36756e+06	-51439.1	955.818	-29752.5	0.000000	0.000000	6.492949	-0.010230	NaN	0.000000	0.001605	0.001664	28.0788	0.095822	0.002016	47.5325	-93.6529	16.7462	-0.031147	0.491485	-0.658003	-0.659387	-0.010230	47.5325	-0.657842	-5.186878E+8	1.972240E-11	NaN
256	1.000000	0.502859	7.36756e+06	-51439.1	955.819	-29752.5	0.000000	0.000000	6.502938	-0.030954	NaN	0.000000	0.001620	0.001663	28.0791	0.095195	0.002134	44.6045	-29.2232	-167.208	-0.035322	0.501546	-0.648014	-0.649327	-0.030954	44.6045	-0.647493	-3.741670E+8	8.272650E-11	NaN
256	1.000000	0.512865	7.36756e+06	-51439.1	955.818	-29752.5	0.000000	0.000000	6.512944	-0.032194	NaN	0.000000	0.001623	0.001664	28.0787	0.126511	0.002009	62.9689	67.5258	9.156346	-0.008037	0.511570	-0.638007	-0.639302	-0.032194	62.9689	-0.637623	-2.739551E+8	1.175171E-10	NaN
256	1.000000	0.522880	7.36756e+06	-51439.1	955.817	-29752.5	0.000000	0.000000	6.522959	-0.030015	NaN	0.000000	0.001617	0.001679	28.0787	0.113985	0.002061	55.3179	44.2675	-166.186	-0.000678	0.521561	-0.627992	-0.629311	-0.030015	55.3179	-0.627585	-1.994602E+8	1.504789E-10	NaN
256	1.000000	0.532884	7.36756e+06	-51439.1	955.818	-29752.5	0.000000	0.000000	6.532967	0.070341	NaN	0.000000	0.001564	0.001669	28.0786	0.035099	0.002001	17.5431	38.2084	15.4527	0.081420	0.531518	-0.617988	-0.619354	0.070341	17.5431	-0.620995	-1.619246E+8	-4.344047E-10	NaN
256	1.000000	0.542890	7.36756e+06	-51439.1	955.818	-29752.5	0.000000	0.000000	6.542971	0.020460	NaN	0.000000	0.001606	0.001674	28.079	0.047824	0.001894	25.2539	121.946	-166.974	-0.047298	0.541579	-0.607982	-0.609293	0.020460	25.2539	-0.608590	-1.093231E+8	-1.871544E-10	NaN
256	1.000000	0.552889	7.36756e+06	-51439.1	955.818	-29752.5	0.000000	0.000000	6.552967	-0.046833	NaN	0.000000	0.001600	0.001683	28.0785	0.018601	0.001974	9.420582	-0.514639	12.1104	-0.035340	0.551473	-0.597984	-0.599399	-0.046833	9.420582	-0.594255	-6.939309E+7	6.748890E-10	NaN
256	1.000000	0.562880	7.36756e+06	-51439.1	955.819	-29752.5	0.000000	0.000000	6.562961	-0.003229	NaN	0.000000	0.001614	0.001670	28.0788	0.048959	0.001948	25.1289	-116.786	-166.072	0.021189	0.561608	-0.587992	-0.589264	-0.003229	25.1289	-0.587896	-5.670867E+7	5.694349E-11	NaN
256	1.000000	0.572893	7.36756e+06	-51439.1	955.817	-29752.5	0.000000	0.000000	6.572973	-0.009216	NaN	0.000000	0.001615	0.001697	28.0786	0.088752	0.001982	44.7767	-2.309990	15.1107	-0.006777	0.571552	-0.577979	-0.579321	-0.009216	44.7767	-0.577825	-4.118128E+7	2.238013E-10	NaN
256	1.000000	0.582923	7.36756e+06	-51439.1	955.818	-29752.5	0.000000	0.000000	6.583005	0.045853	NaN	0.000000	0.001630	0.001659	28.0775	0.072828	0.001998	36.4551	14.1972	-164.883	0.032034	0.581640	-0.567949	-0.569232	0.045853	36.4551	-0.568893	-3.099775E+7	-1.479250E-9	NaN
256	1.000000	0.592901	7.36756e+06	-51439.1	955.819	-29752.5	0.000000	0.000000	6.592982	-0.006405	NaN	0.000000	0.001601	0.001652	28.0776	0.040585	0.002120	19.1397	-163.678	15.3046	-0.096339	0.591529	-0.557971	-0.559343	-0.006405	19.1397	-0.557720	-2.171851E+7	2.949010E-10	NaN
256	1.000000	0.602904	7.36756e+06	-51439.1	955.819	-29752.5	0.000000	0.000000	6.602988	0.072459	NaN	0.000000	0.001602	0.001669	28.0777	0.054300	0.001947	27.8866	-70.748	-161.431	-0.004705	0.601606	-0.547968	-0.549266	0.072459	27.8866	-0.549917	-1.693566E+7	-4.278496E-9	NaN
256	1.000000	0.612904	7.36756e+06	-51439.1	955.817	-29752.5	0.000000	0.000000	6.612983	-0.028373	NaN	0.000000	0.001593	0.001678	28.0774	0.076843	0.001937	39.6614	-59.7055	13.5289	-0.020721	0.611578	-0.537968	-0.539294	-0.028373	39.6614	-0.537431	-1.136917E+7	2.495620E-9	NaN
256	1.000000	0.622907	7.36756e+06	-51439.1	955.817	-29752.5	0.000000	0.000000	6.622986	-0.026155	NaN	0.000000	0.001623	0.001666	28.0774	0.062428	0.001826	34.1949	47.7835	-162.628	0.025219	0.621552	-0.527965	-0.529320	-0.026155	34.1949	-0.527391	-8.24784e+06	3.171127E-9	NaN
256	1.000000	0.632918	7.36756e+06	-51439.1	955.818	-29752.5	0.000000	0.000000	6.632999	0.016210	NaN	0.000000	0.001633	0.001706	28.0774	0.097084	0.002009	48.3299	-42.1015	14.8267	0.064787	0.631557	-0.517954	-0.519315	0.016210	48.3299	-0.518206	-6.14668e+06	-2.637197E-9	NaN
256	1.000000	0.642899	7.36756e+06	-51439.1	955.818	-29752.5	0.000000	0.000000	6.642982	0.052574	NaN	0.000000	0.001628	0.001660	28.0774	0.135878	0.001925	70.6037	132.35	-166.262	-0.020196	0.641616	-0.507973	-0.509257	0.052574	70.6037	-0.508531	-4.50772e+06	-1.166319E-8	NaN
256	1.000000	0.652919	7.36756e+06	-51439.1	955.818	-29752.5	0.000000	0.000000	6.652997	-0.051346	NaN	0.000000	0.001617	0.001715	28.0777	0.133463	0.002096	63.6786	117.744	15.5922	-0.024457	0.651620	-0.497953	-0.499252	-0.051346	63.6786	-0.497348	-3.14785e+06	1.631133E-8	NaN
256	1.000000	0.662921	7.36756e+06	-51439.1	955.818	-29752.5	0.000000	0.000000	6.663001	-0.024026	NaN	0.000000	0.001668	0.001654	28.0774	0.016853	0.002022	8.333241	91.7522	-165.427	0.022752	0.661624	-0.487951	-0.489249	-0.024026	8.333241	-0.485788	-2.17027e+06	1.107049E-8	NaN
256	1.000000	0.672932	7.36756e+06	-51439.1	955.818	-29752.5	0.000000	0.000000	6.673013	-0.000957	NaN	0.000000	0.001686	0.001662	28.0776	0.022673	0.002085	10.8745	91.3726	19.327	-0.022705	0.671583	-0.477940	-0.479289	-0.000957	10.8745	-0.477874	-1.68172e+06	5.690092E-10	NaN
256	1.000000	0.682920	7.36756e+06	-51439.1	955.818	-29752.5	0.000000	0.000000	6.683000	-0.021276	NaN	0.000000	0.001689	0.001667	28.0775	0.066674	0.001899	35.1087	10.6264	-167.076	0.045244	0.681615	-0.467952	-0.469257	-0.021276	35.1087	-0.467497	-1.20309e+06	1.768439E-8	NaN
256	1.000000	0.692958	7.36756e+06	-51439.1	955.819	-29752.5	0.000000	0.000000	6.693036	-0.056183	NaN	0.000000	0.001665	0.001687	28.0777	0.054379	0.002013	27.0141	90.8588	14.9271	0.024245	0.691555	-0.457914	-0.459317	-0.056183	27.0141	-0.456355	-839014	6.696361E-8	NaN
256	1.000000	0.702951	7.36756e+06	-51439.1	955.819	-29752.5	0.000000	0.000000	6.703030	-0.035467	NaN	0.000000	0.001678	0.001689	28.0774	0.035661	0.002087	17.0848	-4.445640	-164.033	-0.039351	0.701607	-0.447921	-0.449265	-0.035467	17.0848	-0.446364	-606900	5.843938E-8	NaN
256	1.000000	0.712947	7.36756e+06	-51439.1	955.818	-29752.5	0.000000	0.000000	6.713028	0.016288	NaN	0.000000	0.001664	0.001672	28.0774	0.034748	0.002045	16.9899	-48.7462	15.3014	-0.052125	0.711604	-0.437925	-0.439268	0.016288	16.9899	-0.438644	-472306	-3.448538E-8	NaN
256	1.000000	0.722941	7.36756e+06	-51439.1	955.819	-29752.5	0.000000	0.000000	6.723025	0.087297	NaN	0.000000	0.001669	0.001703	28.0785	0.035555	0.001872	18.995	-17.569	-164.603	0.034526	0.721682	-0.427931	-0.429190	0.087297	18.995	-0.431378	-372860	-2.341268E-7	NaN
256	1.000000	0.732987	7.36756e+06	-51439.1	955.818	-29752.5	0.000000	0.000000	6.733068	0.006509	NaN	0.000000	0.001676	0.001636	28.0787	0.079728	0.001968	40.5095	-99.7419	14.5599	0.072416	0.731649	-0.417885	-0.419223	0.006509	40.5095	-0.418006	-241060	-2.700194E-8	NaN
256	1.000000	0.742995	7.36756e+06	-51439.1	955.818	-29752.5	0.000000	0.000000	6.743077	0.029749	NaN	0.000000	0.001695	0.001648	28.0786	0.051395	0.001978	25.9899	-145.718	-166.736	0.095437	0.741632	-0.407877	-0.409240	0.029749	25.9899	-0.408735	-177996	-1.671302E-7	NaN
256	1.000000	0.752964	7.36756e+06	-51439.1	955.818	-29752.5	0.000000	0.000000	6.753044	-0.014568	NaN	0.000000	0.001736	0.001663	28.079	0.055865	0.001828	30.5582	53.9667	13.905	-0.042458	0.751599	-0.397908	-0.399273	-0.014568	30.5582	-0.397551	-123325	1.181303E-7	NaN
256	1.000000	0.762994	7.36756e+06	-51439.1	955.819	-29752.5	0.000000	0.000000	6.763072	-0.052766	NaN	0.000000	0.001671	0.001652	28.0788	0.059489	0.002021	29.4303	-126.042	-164.703	-0.009582	0.761655	-0.387879	-0.389217	-0.052766	29.4303	-0.386534	-85813.8	6.148898E-7	NaN
256	1.000000	0.772978	7.36756e+06	-51439.1	955.819	-29752.5	0.000000	0.000000	6.773056	-0.059931	NaN	0.000000	0.001626	0.001666	28.0785	0.118085	0.002062	57.271	101.652	13.3569	-0.018038	0.771555	-0.377894	-0.379317	-0.059931	57.271	-0.377109	-62861.1	9.533836E-7	NaN
256	1.000000	0.782967	7.36756e+06	-51439.1	955.819	-29752.5	0.000000	0.000000	6.783046	-0.019731	NaN	0.000000	0.001620	0.001649	28.0784	0.012422	0.002091	5.940554	-122.963	-165.142	-0.091015	0.781686	-0.367906	-0.369186	-0.019731	5.940554	-0.365414	-42661.2	4.625060E-7	NaN
256	1.000000	0.793026	7.36756e+06	-51439.1	955.819	-29752.5	0.000000	0.000000	6.793104	-0.062585	NaN	0.000000	0.001631	0.001661	28.0787	0.136402	0.001958	69.6791	38.0397	14.4603	-0.056295	0.791599	-0.357846	-0.359273	-0.062585	69.6791	-0.357172	-32429.8	1.929865E-6	NaN
256	1.000000	0.802997	7.36756e+06	-51439.1	955.818	-29752.5	0.000000	0.000000	6.803076	-0.041055	NaN	0.000000	0.001606	0.001669	28.0787	0.118039	0.002047	57.6674	103.931	-165.362	0.017461	0.801662	-0.347875	-0.349210	-0.041055	57.6674	-0.347341	-23355.7	1.757808E-6	NaN
256	1.000000	0.812966	7.36756e+06	-51439.1	955.818	-29752.5	0.000000	0.000000	6.813045	-0.040919	NaN	0.000000	0.001605	0.001680	28.0787	0.107369	0.001988	54.0043	148.095	16.8798	-0.026534	0.811635	-0.337906	-0.339237	-0.040919	54.0043	-0.337338	-16700.4	2.450200E-6	NaN
256	1.000000	0.822972	7.36756e+06	-51439.1	955.818	-29752.5	0.000000	0.000000	6.823051	-0.030393	NaN	0.000000	0.001589	0.001671	28.0786	0.052645	0.001968	26.7465	-116.639	-162.158	0.030519	0.821698	-0.327900	-0.329174	-0.030393	26.7465	-0.327048	-11808.3	2.573856E-6	NaN
256	1.000000	0.833001	7.36756e+06	-51439.1	955.819	-29752.5	0.000000	0.000000	6.833079	-0.066851	NaN	0.000000	0.001612	0.001679	28.079	0.086975	0.002108	41.2678	-80.741	15.3008	-0.029418	0.831597	-0.317871	-0.319275	-0.066851	41.2678	-0.316656	-8305.71	8.048859E-6	NaN
256	1.000000	0.842996	7.36756e+06	-51439.1	955.817	-29752.5	0.000000	0.000000	6.843079	0.063295	NaN	0.000000	0.001602	0.001654	28.0786	0.028941	0.001878	15.4139	51.7266	-164.193	0.028545	0.841682	-0.307876	-0.309190	0.063295	15.4139	-0.310956	-6842.31	-9.250526E-6	NaN
256	1.000000	0.853031	7.36756e+06	-51439.1	955.819	-29752.5	0.000000	0.000000	6.853110	-0.039060	NaN	0.000000	0.001612	0.001663	28.0784	0.091082	0.001981	45.967	-108.756	17.4177	-0.048906	0.851620	-0.297841	-0.299253	-0.039060	45.967	-0.297203	-4275.33	9.136212E-6	NaN
256	1.000000	0.863002	7.36756e+06	-51439.1	955.819	-29752.5	0.000000	0.000000	6.863082	0.000299	NaN	0.000000	0.001608	0.001676	28.0774	0.134427	0.001989	67.5816	-130.305	-165.153	0.041370	0.861658	-0.287870	-0.289214	0.000299	67.5816	-0.287873	-3100.42	-9.630066E-8	NaN
256	1.000000	0.873027	7.36756e+06	-51439.1	955.818	-29752.5	0.000000	0.000000	6.873106	-0.036081	NaN	0.000000	0.001612	0.001652	28.0776	0.047449	0.001996	23.7681	164.027	14.3723	0.062483	0.871609	-0.277845	-0.279263	-0.036081	23.7681	-0.276707	-2104.87	1.714172E-5	NaN
256	1.000000	0.883043	7.36756e+06	-51439.1	955.819	-29752.5	0.000000	0.000000	6.883121	-0.059120	NaN	0.000000	0.001655	0.001647	28.0773	0.059807	0.002133	28.0379	169.346	-165.117	-0.061934	0.881740	-0.267829	-0.269132	-0.059120	28.0379	-0.266248	-1460.23	4.048710E-5	NaN
256	1.000000	0.893037	7.36756e+06	-51439.1	955.819	-29752.5	0.000000	0.000000	6.893117	-0.001712	NaN	0.000000	0.001623	0.001666	28.0775	0.062556	0.002187	28.6051	-52.6535	15.2903	-0.012081	0.891650	-0.257835	-0.259222	-0.001712	28.6051	-0.257790	-1083.98	1.579337E-6	NaN
256	1.000000	0.903024	7.36756e+06	-51439.1	955.818	-29752.5	0.000000	0.000000	6.903103	-0.039582	NaN	0.000000	0.001643	0.001656	28.0774	0.079011	0.002114	37.37	62.3562	-167.561	-0.128724	0.901704	-0.247848	-0.249168	-0.039582	37.37	-0.247053	-740.172	5.347713E-5	NaN
256	1.000000	0.913029	7.36756e+06	-51439.1	955.818	-29752.5	0.000000	0.000000	6.913111	0.033973	NaN	0.000000	0.001619	0.001644	28.0779	0.072868	0.001914	38.075	-143.519	17.41	0.086931	0.911651	-0.237843	-0.239221	0.033973	38.075	-0.238512	-544.87	-6.235052E-5	NaN
256	1.000000	0.923050	7.36756e+06	-51439.1	955.818	-29752.5	0.000000	0.000000	6.923130	-0.007358	NaN	0.000000	0.001638	0.001631	28.0776	0.108079	0.002049	52.7499	-79.1528	-166.387	0.055973	0.921727	-0.227822	-0.229145	-0.007358	52.7499	-0.227718	-368.494	1.996763E-5	NaN
256	1.000000	0.933031	7.36756e+06	-51439.1	955.818	-29752.5	0.000000	0.000000	6.933111	-0.011639	NaN	0.000000	0.001639	0.001652	28.0779	0.117249	0.002120	55.3166	-154.91	14.7646	-0.082237	0.931702	-0.217841	-0.219170	-0.011639	55.3166	-0.217684	-255.036	4.563828E-5	NaN
256	1.000000	0.943024	7.36756e+06	-51439.1	955.818	-29752.5	0.000000	0.000000	6.943103	-0.024999	NaN	0.000000	0.001632	0.001667	28.0777	0.012468	0.002020	6.171765	97.9613	-163.032	-0.053024	0.941769	-0.207848	-0.209103	-0.024999	6.171765	-0.204810	-157.931	0.000158	NaN
256	1.000000	0.953057	7.36756e+06	-51439.1	955.818	-29752.5	0.000000	0.000000	6.953136	-0.031141	NaN	0.000000	0.001642	0.001647	28.0778	0.043312	0.001862	23.258	-168.794	17.1596	-0.065289	0.951686	-0.197815	-0.199186	-0.031141	23.258	-0.196811	-116.725	0.000267	NaN
256	1.000000	0.963050	7.36756e+06	-51439.1	955.819	-29752.5	0.000000	0.000000	6.963132	0.033915	NaN	0.000000	0.001638	0.001647	28.0777	0.042277	0.002012	21.0131	-39.8432	-163.841	-0.010946	0.961731	-0.187822	-0.189141	0.033915	21.0131	-0.189033	-86.6678	-0.000391	NaN
256	1.000000	0.973042	7.36756e+06	-51439.1	955.817	-29752.5	0.000000	0.000000	6.973125	0.057059	NaN	0.000000	0.001631	0.001660	28.0776	0.007103	0.001940	3.661814	82.6853	14.5755	0.034596	0.971723	-0.177830	-0.179149	0.057059	3.661814	-0.189517	-88.2975	-0.000646	NaN
256	1.000000	0.983036	7.36756e+06	-51439.1	955.818	-29752.5	0.000000	0.000000	6.983118	0.043875	NaN	0.000000	0.001646	0.001693	28.0778	0.067348	0.002090	32.2253	-9.189458	-166.72	0.072726	0.981714	-0.167836	-0.169159	0.043875	32.2253	-0.168857	-39.2416	-0.001118	NaN
256	1.000000	0.993068	7.36756e+06	-51439.1	955.818	-29752.5	0.000000	0.000000	6.993148	-0.032076	NaN	0.000000	0.001632	0.001685	28.0789	0.070290	0.002077	33.8491	-170.798	14.275	-0.026760	0.991709	-0.157804	-0.159163	-0.032076	33.8491	-0.157093	-24.33	0.001318	NaN
256	1.000000	1.003095	7.36756e+06	-51439.1	955.817	-29752.5	0.000000	0.000000	7.003174	-0.038444	NaN	0.000000	0.001630	0.001654	28.0789	0.157748	0.001924	81.9823	96.1342	-164.249	-0.013762	1.001745	-0.147777	-0.149127	-0.038444	81.9823	-0.147425	-16.2509	0.002366	NaN
256	1.000000	1.013064	7.36756e+06	-51439.1	955.817	-29752.5	0.000000	0.000000	7.013143	-0.043992	NaN	0.000000	0.001612	0.001644	28.0789	0.048416	0.002075	23.3317	-98.3923	13.2755	-0.003716	1.011744	-0.137808	-0.139128	-0.043992	23.3317	-0.136394	-10.1119	0.004351	NaN
256	1.000000	1.023078	7.36756e+06	-51439.1	955.817	-29752.5	0.000000	0.000000	7.023159	0.008568	NaN	0.000000	0.001627	0.001646	28.079	0.073315	0.002032	36.0816	-153.522	-164.094	-0.015902	1.021765	-0.127794	-0.129107	0.008568	36.0816	-0.127972	-6.957785	-0.001231	NaN
256	1.000000	1.033093	7.36756e+06	-51439.1	955.818	-29752.5	0.000000	0.000000	7.033175	0.047741	NaN	0.000000	0.001724	0.001610	28.0789	0.033739	0.002074	16.2715	83.4373	12.8942	-0.047153	1.031692	-0.117779	-0.119180	0.047741	16.2715	-0.119980	-4.826947	-0.009890	NaN
256	1.000000	1.043071	7.36756e+06	-51439.1	955.817	-29752.5	0.000000	0.000000	7.043151	-0.009272	NaN	0.000000	0.001659	0.001622	28.0789	0.079495	0.001979	40.1615	-157.746	-166.03	-0.001437	1.041806	-0.107801	-0.109066	-0.009272	40.1615	-0.107628	-2.676531	0.003464	NaN
256	1.000000	1.053078	7.36756e+06	-51439.1	955.819	-29752.5	0.000000	0.000000	7.053159	0.012952	NaN	0.000000	0.001660	0.001635	28.0788	0.108163	0.002004	53.9804	105.669	11.4626	0.007025	1.051721	-0.097794	-0.099151	0.012952	53.9804	-0.097974	-1.646696	-0.007866	NaN
256	1.000000	1.063096	7.36756e+06	-51439.1	955.817	-29752.5	0.000000	0.000000	7.063174	-0.069816	NaN	0.000000	0.001642	0.001602	28.0788	0.050801	0.001898	26.7631	-83.7157	-166.09	-0.085908	1.061759	-0.087776	-0.089113	-0.069816	26.7631	-0.085819	-0.859906	0.081190	NaN
256	1.000000	1.073101	7.36756e+06	-51439.1	955.818	-29752.5	0.000000	0.000000	7.073180	-0.039223	NaN	0.000000	0.001633	0.001626	28.0787	0.157288	0.001986	79.1893	-74.671	16.293	-0.054524	1.071723	-0.077771	-0.079149	-0.039223	79.1893	-0.077400	-0.532220	0.073696	NaN
256	1.000000	1.083095	7.36756e+06	-51439.1	955.818	-29752.5	0.000000	0.000000	7.083175	-0.019030	NaN	0.000000	0.001615	0.001597	28.0787	0.031185	0.002027	15.3851	-89.3397	-160.99	-0.078715	1.081771	-0.067777	-0.069101	-0.019030	15.3851	-0.066849	-0.280246	0.067906	NaN
256	1.000000	1.093116	7.36756e+06	-51439.1	955.818	-29752.5	0.000000	0.000000	7.093197	0.026415	NaN	0.000000	0.001616	0.001651	28.0788	0.096302	0.002041	47.1903	-38.1952	20.5924	-0.032343	1.091752	-0.057757	-0.059120	0.026415	47.1903	-0.058176	-0.159544	-0.165568	NaN
256	1.000000	1.103099	7.36756e+06	-51439.1	955.816	-29752.5	0.000000	0.000000	7.103181	0.034179	NaN	0.000000	0.001628	0.001646	28.0787	0.067816	0.001915	35.4073	106.958	-165.513	0.057904	1.101819	-0.047773	-0.049053	0.034179	35.4073	-0.048497	-0.082160	-0.416011	NaN
256	1.000000	1.113111	7.36756e+06	-51439.1	955.817	-29752.5	0.000000	0.000000	7.113190	-0.030369	NaN	0.000000	0.001623	0.001620	28.0787	0.045816	0.001923	23.8224	-103.268	13.9007	-0.005347	1.111733	-0.037761	-0.039139	-0.030369	23.8224	-0.036805	-0.036228	0.838290	NaN
256	1.000000	1.123106	7.36756e+06	-51439.1	955.816	-29752.5	0.000000	0.000000	7.123187	0.019481	NaN	0.000000	0.001620	0.001659	28.0787	0.095472	0.002052	46.5262	-108.994	-165.56	-0.069077	1.121843	-0.027766	-0.029029	0.019481	46.5262	-0.028080	-0.020377	-0.956045	NaN
256	1.000000	1.133091	7.36756e+06	-51439.1	955.817	-29752.5	0.000000	0.000000	7.133171	-0.024524	NaN	0.000000	0.001627	0.001621	28.0775	0.158264	0.002055	77.006	-50.78	15.3596	-0.014319	1.131795	-0.017781	-0.019077	-0.024524	77.006	-0.017542	-0.010861	2.258084	NaN
256	1.000000	1.143138	7.36756e+06	-51439.1	955.817	-29752.5	0.000000	0.000000	7.143218	-0.007364	NaN	0.000000	0.001630	0.001630	28.0774	0.092090	0.001865	49.3793	96.8999	-165.382	-0.063996	1.141787	-0.007734	-0.009085	-0.007364	49.3793	-0.007622	-0.005010	1.469897	NaN
256	1.000000	1.153082	7.36756e+06	-51439.1	955.816	-29752.5	0.000000	0.000000	7.153214	1.274448	NaN	0.000000	0.001660	0.001610	28.0773	1.970901	0.001853	1063.66	9.887989	12.8313	0.337645	1.151770	0.002209	0.000898	1.274448	1063.66	0.001311	0.001005	1267.94	30652.4
256	2.000000	1.160669	7.36756e+06	-51439.1	955.818	-29752.5	0.000000	0.000000	7.161117	8.953107	NaN	0.000000	0.001666	0.001630	28.0778	9.544501	0.001721	5545.7	9.934286	-175.457	8.782359	1.160390	0.009797	0.009518	8.953107	5545.7	0.008586	0.007652	1170.07	57922.8
256	2.000000	1.163182	7.36756e+06	-51439.1	955.817	-29752.5	0.000000	0.000000	7.163805	13.1967	NaN	0.000000	0.001620	0.001628	28.0778	11.9848	0.001661	7215.42	4.562743	7.885477	12.2555	1.162783	0.012310	0.011911	13.1967	7215.42	0.010938	0.010243	1288.41	65137.1
256	2.000000	1.165604	7.36756e+06	-51439.1	955.818	-29752.5	0.000000	0.000000	7.166387	17.0704	NaN	0.000000	0.001608	0.001589	28.0776	14.2547	0.001701	8380.66	7.957674	-174.822	16.8639	1.165319	0.014732	0.014446	17.0704	8380.66	0.013204	0.012965	1316.66	67246
256	2.000000	1.168109	7.36756e+06	-51439.1	955.819	-29752.5	0.000000	0.000000	7.169062	21.2172	NaN	0.000000	0.001595	0.001601	28.0776	17.178	0.001782	9640.39	6.176057	5.656565	20.5888	1.167776	0.017237	0.016904	21.2172	9640.39	0.015587	0.016076	1319.83	69467.7
256	2.000000	1.170619	7.36756e+06	-51439.1	955.819	-29752.5	0.000000	0.000000	7.171770	26.0205	NaN	0.000000	0.001651	0.001607	28.0778	20.2334	0.001842	10981.9	7.161183	-177.841	24.3751	1.170270	0.019747	0.019398	26.0205	10981.9	0.017970	0.019452	1337.67	71939.7
256	2.000000	1.173100	7.36756e+06	-51439.1	955.818	-29752.5	0.000000	0.000000	7.174529	32.797	NaN	0.000000	0.001627	0.001621	28.0778	21.8691	0.001715	12753.7	3.309779	4.698153	29.9955	1.172720	0.022228	0.021848	32.797	12753.7	0.020299	0.023014	1425.07	76808.8
256	2.000000	1.175544	7.36756e+06	-51439.1	955.818	-29752.5	0.000000	0.000000	7.177181	37.8469	NaN	0.000000	0.001629	0.001653	28.0776	24.4345	0.001781	13716.2	5.395532	-178.435	35.502	1.175338	0.024672	0.024466	37.8469	13716.2	0.022602	0.026798	1412.33	76552.4
256	2.000000	1.178017	7.36756e+06	-51439.1	955.818	-29752.5	0.000000	0.000000	7.180034	47.0933	NaN	0.000000	0.001636	0.001603	28.0777	26.828	0.001821	14729.1	6.514003	0.470403	44.493	1.177689	0.027145	0.026817	47.0933	14729.1	0.024747	0.030557	1541.17	76983
256	2.000000	1.180541	7.36756e+06	-51439.1	955.818	-29752.5	0.000000	0.000000	7.182814	53.315	NaN	0.000000	0.001620	0.001589	28.0778	29.2408	0.001881	15544.7	6.070160	-178.555	51.8277	1.180296	0.029669	0.029424	53.315	15544.7	0.027097	0.034941	1525.84	75977.8
256	2.000000	1.183061	7.36756e+06	-51439.1	955.819	-29752.5	0.000000	0.000000	7.185605	59.9055	NaN	0.000000	0.001635	0.001584	28.0778	31.4942	0.001920	16406.5	5.077590	2.718536	59.6792	1.182723	0.032189	0.031851	59.9055	16406.5	0.029451	0.039613	1512.28	75313.4
256	2.000000	1.185553	7.36756e+06	-51439.1	955.817	-29752.5	0.000000	0.000000	7.188421	67.774	NaN	0.000000	0.001608	0.001611	28.0782	33.4491	0.001815	18426.6	5.840772	179.709	67.5808	1.185272	0.034681	0.034400	67.774	18426.6	0.031923	0.044823	1512.04	79518.6
256	2.000000	1.188037	7.36756e+06	-51439.1	955.819	-29752.5	0.000000	0.000000	7.191406	79.9528	NaN	0.000000	0.001614	0.001607	28.0788	36.2505	0.001933	18754.3	4.943895	1.319366	78.7054	1.187687	0.037165	0.036815	79.9528	18754.3	0.033968	0.049370	1619.48	77115.9
256	2.000000	1.190533	7.36756e+06	-51439.1	955.819	-29752.5	0.000000	0.000000	7.194178	86.6792	NaN	0.000000	0.001604	0.001617	28.079	37.917	0.001758	21571.9	5.173196	179.149	86.9326	1.190226	0.039661	0.039354	86.6792	21571.9	0.036647	0.055651	1557.55	83545.8
256	2.000000	1.193067	7.36756e+06	-51439.1	955.818	-29752.5	0.000000	0.000000	7.197034	94.5029	NaN	0.000000	0.001615	0.001610	28.0789	39.4992	0.001815	21761.7	3.149704	1.782647	94.2804	1.192729	0.042195	0.041857	94.5029	21761.7	0.038938	0.061312	1541.34	80295.6
256	2.000000	1.195535	7.36756e+06	-51439.1	955.818	-29752.5	0.000000	0.000000	7.200015	106.975	NaN	0.000000	0.001570	0.001635	28.0789	41.4563	0.001665	24902.6	4.038814	179.044	106.364	1.195220	0.044663	0.044348	106.975	24902.6	0.041441	0.067807	1577.65	87374.1
256	2.000000	1.197989	7.36756e+06	-51439.1	955.817	-29752.5	0.000000	0.000000	7.202728	113.291	NaN	0.000000	0.001673	0.001593	28.0787	44.6375	0.001750	25512.9	3.805889	-1.381319	110.458	1.197689	0.047117	0.046817	113.291	25512.9	0.043786	0.074179	1527.27	85583.9
256	2.000000	1.200491	7.36756e+06	-51439.1	955.818	-29752.5	0.000000	0.000000	7.205854	128.458	NaN	0.000000	0.001663	0.001620	28.079	47.7354	0.001791	26654.1	3.577397	177.869	125.264	1.200252	0.049619	0.049380	128.458	26654.1	0.046004	0.080463	1596.47	85849.6
256	2.000000	1.203036	7.36756e+06	-51439.1	955.818	-29752.5	0.000000	0.000000	7.208791	137.998	NaN	0.000000	0.001651	0.001604	28.0812	49.4765	0.001918	25791.8	2.861371	0.333356	134.212	1.202722	0.052164	0.051850	137.998	25791.8	0.048151	0.086783	1590.14	79990.1
256	2.000000	1.205430	7.36756e+06	-51439.1	955.817	-29752.5	0.000000	0.000000	7.211657	149.48	NaN	0.000000	0.001679	0.001595	28.0823	51.4779	0.001786	28828.7	4.303789	178.117	145.23	1.205208	0.054557	0.054336	149.48	28828.7	0.050669	0.094491	1581.95	85684.5
256	2.000000	1.208022	7.36756e+06	-51439.1	955.816	-29752.5	0.000000	0.000000	7.214716	160.822	NaN	0.000000	0.001653	0.001629	28.0792	55.0042	0.001820	30227.8	7.481203	-6.616987	159.413	1.207715	0.057150	0.056843	160.822	30227.8	0.053160	0.102429	1570.07	86291.4
256	2.000000	1.210519	7.36756e+06	-51439.1	955.819	-29752.5	0.000000	0.000000	7.217986	179.627	NaN	0.000000	0.001686	0.001566	28.0793	57.0294	0.001803	31636.4	5.062213	175.833	178.206	1.210213	0.059647	0.059341	179.627	31636.4	0.055388	0.109793	1636.05	87231.3
256	2.000000	1.213098	7.36756e+06	-51439.1	955.819	-29752.5	0.000000	0.000000	7.220858	186.739	NaN	0.000000	0.001647	0.001626	28.0788	58.5157	0.001830	31968	4.755368	-2.601990	189.213	1.212541	0.062226	0.061669	186.739	31968	0.057845	0.118194	1579.93	84955.3
256	2.000000	1.215511	7.36756e+06	-51439.1	955.818	-29752.5	0.000000	0.000000	7.223800	199.599	NaN	0.000000	0.001591	0.001591	28.0787	60.371	0.001726	34986.6	1.647101	178.432	198.243	1.215148	0.064639	0.064276	199.599	34986.6	0.060361	0.127104	1570.36	89659.2
256	2.000000	1.218021	7.36756e+06	-51439.1	955.818	-29752.5	0.000000	0.000000	7.226797	211.445	NaN	0.000000	0.001602	0.001627	28.0786	62.6446	0.001789	35023.8	4.010735	-3.863138	210.035	1.217649	0.067149	0.066777	211.445	35023.8	0.062621	0.135373	1561.94	86969.9
256	2.000000	1.220449	7.36756e+06	-51439.1	955.819	-29752.5	0.000000	0.000000	7.229875	227.255	NaN	0.000000	0.001586	0.001608	28.0774	64.7839	0.001690	38344.1	3.409990	175.772	223.056	1.220093	0.069577	0.069221	227.255	38344.1	0.065132	0.144850	1568.9	92047.6
256	2.000000	1.222977	7.36756e+06	-51439.1	955.821	-29752.5	0.000000	0.000000	7.233022	242.316	NaN	0.000000	0.001660	0.001596	28.0775	67.9705	0.001732	39246.4	7.175828	-8.166782	240.123	1.222752	0.072104	0.071880	242.316	39246.4	0.067474	0.153964	1573.85	91382.6
256	2.000000	1.225451	7.36756e+06	-51439.1	955.818	-29752.5	0.000000	0.000000	7.236397	264.223	NaN	0.000000	0.001658	0.001582	28.078	69.7704	0.001643	42460.5	6.527856	172.467	262.053	1.225141	0.074578	0.074269	264.223	42460.5	0.069911	0.163727	1613.8	95873.3
256	2.000000	1.227946	7.36756e+06	-51439.1	955.818	-29752.5	0.000000	0.000000	7.239337	275.021	NaN	0.000000	0.001684	0.001625	28.0772	72.2372	0.001745	41390.5	4.404064	-6.067810	269.152	1.227631	0.077074	0.076759	275.021	41390.5	0.072091	0.172696	1592.52	90998.1
256	2.000000	1.230440	7.36756e+06	-51439.1	955.818	-29752.5	0.000000	0.000000	7.242777	298.038	NaN	0.000000	0.001653	0.001600	28.0773	76.3071	0.001815	42044.7	7.619220	171.103	296.076	1.230150	0.079568	0.079278	298.038	42044.7	0.074251	0.181810	1639.28	90089.7
256	2.000000	1.232949	7.36756e+06	-51439.1	955.818	-29752.5	0.000000	0.000000	7.245760	309.568	NaN	0.000000	0.001642	0.001606	28.0772	76.7298	0.001760	43595.2	3.145198	-4.806699	304.515	1.232621	0.082077	0.081749	309.568	43595.2	0.076751	0.192631	1607.06	90750.6
256	2.000000	1.235586	7.36756e+06	-51439.1	955.818	-29752.5	0.000000	0.000000	7.249246	330.196	NaN	0.000000	0.001647	0.001586	28.0773	79.9704	0.001917	41709.2	6.522036	172.261	333.771	1.235212	0.084714	0.084340	330.196	41709.2	0.078777	0.201611	1637.79	84868.6
256	2.000000	1.237917	7.36756e+06	-51439.1	955.819	-29752.5	0.000000	0.000000	7.252331	348.531	NaN	0.000000	0.001624	0.001606	28.0771	80.7139	0.001693	47686.6	1.291549	-3.570732	342.808	1.237613	0.087045	0.086741	348.531	47686.6	0.081563	0.214281	1626.51	94119.1
256	2.000000	1.240465	7.36756e+06	-51439.1	955.819	-29752.5	0.000000	0.000000	7.255484	363.247	NaN	0.000000	0.001636	0.001647	28.0772	85.1768	0.001778	47894.1	3.048394	174.577	361.603	1.240160	0.089593	0.089288	363.247	47894.1	0.083905	0.225204	1612.97	92207.8
256	2.000000	1.242982	7.36756e+06	-51439.1	955.819	-29752.5	0.000000	0.000000	7.259112	390.271	NaN	0.000000	0.001626	0.001599	28.0774	86.592	0.001889	45838.5	3.230143	-4.702779	386.196	1.242565	0.092110	0.091693	390.271	45838.5	0.085724	0.233868	1668.77	86600
256	2.000000	1.245386	7.36756e+06	-51439.1	955.819	-29752.5	0.000000	0.000000	7.262126	405.109	NaN	0.000000	0.001567	0.001620	28.0772	88.8287	0.001786	49742.1	5.792930	171.421	399.542	1.245126	0.094514	0.094254	405.109	49742.1	0.088406	0.246916	1640.67	91458.1
256	2.000000	1.247954	7.36756e+06	-51439.1	955.819	-29752.5	0.000000	0.000000	7.265484	424.303	NaN	0.000000	0.001679	0.001603	28.0772	90.9733	0.001793	50751.3	4.645623	-7.159439	421.252	1.247575	0.097082	0.096703	424.303	50751.3	0.090812	0.258905	1638.83	91127.5
256	2.000000	1.250468	7.36756e+06	-51439.1	955.818	-29752.5	0.000000	0.000000	7.268925	446.848	NaN	0.000000	0.001630	0.001630	28.0772	93.5973	0.001836	50974.8	5.697921	171.663	445.723	1.250113	0.099596	0.099241	446.848	50974.8	0.093021	0.270147	1654.09	89604.3
256	2.000000	1.253052	7.36756e+06	-51439.1	955.818	-29752.5	0.000000	0.000000	7.272211	463.93	NaN	0.000000	0.001628	0.001609	28.0775	94.6237	0.001749	54110.4	3.387565	-6.377705	464.76	1.252714	0.102180	0.101842	463.93	54110.4	0.095750	0.284337	1631.62	92712.3
256	2.000000	1.255508	7.36756e+06	-51439.1	955.819	-29752.5	0.000000	0.000000	7.275442	482.772	NaN	0.000000	0.001687	0.001616	28.0784	95.2689	0.001712	55640.6	2.729042	174.848	483.718	1.255150	0.104636	0.104278	482.772	55640.6	0.098128	0.296985	1625.58	93282
256	2.000000	1.258038	7.36756e+06	-51439.1	955.818	-29752.5	0.000000	0.000000	7.278656	499.402	NaN	0.000000	0.001672	0.001575	28.0787	98.2008	0.001701	57731.4	3.984826	-7.636259	501.772	1.257832	0.107166	0.106960	499.402	57731.4	0.100678	0.310829	1606.68	94607.3
256	2.000000	1.258353	7.36756e+06	-51439.1	955.818	-29752.5	0.000000	0.000000	7.279323	507.948	NaN	0.000000	0.001686	0.001592	28.0787	98.052	0.001667	58831.1	3.497898	172.722	500.679	1.258103	0.107481	0.107231	507.948	58831.1	0.101006	0.312630	1624.76	96131.4