File: remote_trans/data/nanoindenter/0828-1/data/Data_2025-08-06,11h17m57s/2025-07-22_16-23-58_1_426.txt
2025-07-22, 16:23:58, 1
Index	Phase	Displacement	Time	Pos X	Pos Y	Pos Z	Rot A	Rot B	Piezo Z	Force A	Force B	Gripper	Voltage A	Voltage B	Temperature	Amplitude force	Amplitude pos	Stiffness	Phase shift	Phase excitation	Force A raw	Displacement raw	HMax	HMax raw	Real Force	Real Stiffness	Contact Depth	Area	Hardness	Reduced Mod.
[#]	[#]	[um]	[s]	[um]	[um]	[um]	[m°]	[m°]	[um]	[uN]	[uN]	[V]	[V]	[V]	[°C]	[uN]	[um]	[N/m]	[°]	[°]	[uN]	[um]	[um]	[um]	[uN]	[N/m]	[um]	[um^2]	[MPa]	[MPa]
426	1.000000	0.003048	7.36922e+06	-55789.1	1005.82	-29740.7	0.000000	0.000000	6.002782	-0.037543	NaN	0.000000	0.001769	0.001742	28.0799	0.036800	0.001019	36.1263	87.0542	-170.013	-0.077115	0.001839	-1.140911	-1.142120	-0.037543	36.1263	-1.140131	-1.731792E+15	2.167894E-17	NaN
426	1.000000	0.013145	7.36922e+06	-55789.1	1005.82	-29740.7	0.000000	0.000000	6.012878	-0.026002	NaN	0.000000	0.001736	0.001772	28.0797	0.040759	0.001138	35.8004	20.9828	18.508	-0.035146	0.011710	-1.130814	-1.132249	-0.026002	35.8004	-1.130270	-1.277139E+15	2.035948E-17	NaN
426	1.000000	0.023004	7.36922e+06	-55789.1	1005.82	-29740.7	0.000000	0.000000	6.022735	-0.099889	NaN	0.000000	0.001746	0.001758	28.0798	0.081762	0.001603	50.9906	142.74	-168.724	-0.054227	0.021728	-1.120955	-1.122231	-0.099889	50.9906	-1.119485	-9.153067E+14	1.091321E-16	NaN
426	1.000000	0.033014	7.36922e+06	-55789.1	1005.82	-29740.7	0.000000	0.000000	6.032747	-0.028519	NaN	0.000000	0.001731	0.001775	28.0798	0.064321	0.001874	34.3168	81.8475	15.8466	0.050288	0.031650	-1.110945	-1.112309	-0.028519	34.3168	-1.110322	-6.896189E+14	4.135477E-17	NaN
426	1.000000	0.043039	7.36922e+06	-55789.1	1005.82	-29740.7	0.000000	0.000000	6.042774	-0.001338	NaN	0.000000	0.001734	0.001754	28.0801	0.056675	0.001972	28.7366	-81.3939	-170.421	-0.081909	0.041704	-1.100919	-1.102255	-0.001338	28.7366	-1.100885	-5.151595E+14	2.596432E-18	NaN
426	1.000000	0.053027	7.36922e+06	-55789.1	1005.82	-29740.7	0.000000	0.000000	6.052761	-0.018956	NaN	0.000000	0.001659	0.001757	28.08	0.108666	0.001880	57.7895	-148.04	14.4094	0.038569	0.051657	-1.090932	-1.092302	-0.018956	57.7895	-1.090686	-3.758569E+14	5.043313E-17	NaN
426	1.000000	0.063031	7.36922e+06	-55789.1	1005.82	-29740.7	0.000000	0.000000	6.062767	0.010193	NaN	0.000000	0.001690	0.001752	28.08	0.034972	0.002072	16.8789	-76.9533	-168.128	0.025320	0.061758	-1.080928	-1.082201	0.010193	16.8789	-1.081380	-2.818776E+14	-3.616158E-17	NaN
426	1.000000	0.073032	7.36922e+06	-55789.1	1005.82	-29740.7	0.000000	0.000000	6.072768	0.034023	NaN	0.000000	0.001691	0.001764	28.0802	0.042233	0.001990	21.2264	-178.473	15.8396	0.005160	0.071665	-1.070927	-1.072294	0.034023	21.2264	-1.072129	-2.117348E+14	-1.606854E-16	NaN
426	1.000000	0.083017	7.36922e+06	-55789.1	1005.82	-29740.7	0.000000	0.000000	6.082749	-0.061761	NaN	0.000000	0.001654	0.001820	28.0803	0.150468	0.001981	75.9509	-62.3564	-166.46	-0.112493	0.081761	-1.060942	-1.062198	-0.061761	75.9509	-1.060332	-1.469881E+14	4.201758E-16	NaN
426	1.000000	0.092998	7.36922e+06	-55789.1	1005.82	-29740.7	0.000000	0.000000	6.092730	-0.068806	NaN	0.000000	0.001637	0.001773	28.0803	0.045179	0.002000	22.5865	57.5756	12.7057	-0.072368	0.091680	-1.050961	-1.052279	-0.068806	22.5865	-1.048676	-1.024755E+14	6.714421E-16	NaN
426	1.000000	0.103033	7.36922e+06	-55789.1	1005.82	-29740.7	0.000000	0.000000	6.102768	-0.009050	NaN	0.000000	0.001667	0.001762	28.0816	0.028250	0.001946	14.5201	156.089	-166.818	-0.066499	0.101636	-1.040926	-1.042323	-0.009050	14.5201	-1.040458	-7.945635E+13	1.138967E-16	NaN
426	1.000000	0.113034	7.36922e+06	-55789.1	1005.82	-29740.7	0.000000	0.000000	6.112768	-0.016184	NaN	0.000000	0.001595	0.001756	28.0817	0.057843	0.002001	28.9083	141.946	10.6583	0.032527	0.111676	-1.030925	-1.032282	-0.016184	28.9083	-1.030505	-5.838154E+13	2.772119E-16	NaN
426	1.000000	0.123041	7.36922e+06	-55789.1	1005.82	-29740.7	0.000000	0.000000	6.122774	-0.035544	NaN	0.000000	0.001629	0.001780	28.0815	0.040141	0.002033	19.7431	-169.617	-165.335	-0.009990	0.121715	-1.020918	-1.022244	-0.035544	19.7431	-1.019568	-4.160416E+13	8.543264E-16	NaN
426	1.000000	0.133054	7.36923e+06	-55789.1	1005.82	-29740.7	0.000000	0.000000	6.132786	-0.082771	NaN	0.000000	0.001620	0.001751	28.0815	0.067912	0.001983	34.2545	-179.434	11.5494	-0.096976	0.131717	-1.010905	-1.012242	-0.082771	34.2545	-1.009092	-3.007237E+13	2.752402E-15	NaN
426	1.000000	0.143042	7.36923e+06	-55789.1	1005.82	-29740.7	0.000000	0.000000	6.142777	-0.010382	NaN	0.000000	0.001629	0.001786	28.0814	0.029562	0.002015	14.6719	133.425	-168.546	-0.050521	0.141799	-1.000917	-1.002160	-0.010382	14.6719	-1.000386	-2.295967E+13	4.521947E-16	NaN
426	1.000000	0.153056	7.36923e+06	-55789.1	1005.82	-29740.7	0.000000	0.000000	6.152789	-0.045779	NaN	0.000000	0.001633	0.001755	28.082	0.027934	0.001916	14.5786	55.317	14.7311	-0.007429	0.151716	-0.990903	-0.992243	-0.045779	14.5786	-0.988548	-1.590561E+13	2.878138E-15	NaN
426	1.000000	0.163055	7.36923e+06	-55789.1	1005.82	-29740.7	0.000000	0.000000	6.162790	-0.010075	NaN	0.000000	0.001601	0.001751	28.0817	0.012919	0.002178	5.930475	-53.5091	-164.102	0.070459	0.161752	-0.980904	-0.982207	-0.010075	5.930475	-0.979629	-1.206197E+13	8.352457E-16	NaN
426	1.000000	0.173069	7.36923e+06	-55789.1	1005.82	-29740.7	0.000000	0.000000	6.172804	0.009597	NaN	0.000000	0.001607	0.001727	28.0815	0.064464	0.002011	32.0553	-60.9654	12.8522	-0.058153	0.171710	-0.970890	-0.972249	0.009597	32.0553	-0.971114	-9.261472E+12	-1.036208E-15	NaN
426	1.000000	0.183061	7.36923e+06	-55789.1	1005.82	-29740.7	0.000000	0.000000	6.182792	-0.101761	NaN	0.000000	0.001640	0.001768	28.0815	0.056066	0.002026	27.6672	-16.3487	-166.334	-0.094750	0.181785	-0.960897	-0.962174	-0.101761	27.6672	-0.958139	-6.191243E+12	1.643623E-14	NaN
426	1.000000	0.193057	7.36923e+06	-55789.1	1005.82	-29740.7	0.000000	0.000000	6.192789	-0.067760	NaN	0.000000	0.001638	0.001738	28.0816	0.089374	0.002019	44.2678	-34.3276	14.1584	-0.064502	0.191720	-0.950901	-0.952239	-0.067760	44.2678	-0.949753	-4.772015E+12	1.419954E-14	NaN
426	1.000000	0.203091	7.36923e+06	-55789.1	1005.82	-29740.7	0.000000	0.000000	6.202823	-0.081381	NaN	0.000000	0.001665	0.001741	28.0814	0.018750	0.002058	9.109147	-70.2632	-167.543	-0.130885	0.201770	-0.940867	-0.942189	-0.081381	9.109147	-0.934167	-2.940576E+12	2.767526E-14	NaN
426	1.000000	0.213072	7.36923e+06	-55789.1	1005.82	-29740.7	0.000000	0.000000	6.212803	-0.080897	NaN	0.000000	0.001631	0.001781	28.0815	0.052988	0.001937	27.3546	-69.4255	14.5329	-0.065186	0.211759	-0.930887	-0.932200	-0.080897	27.3546	-0.928669	-2.478762E+12	3.263606E-14	NaN
426	1.000000	0.223109	7.36923e+06	-55789.1	1005.82	-29740.7	0.000000	0.000000	6.222841	-0.073003	NaN	0.000000	0.001662	0.001777	28.0817	0.079752	0.002099	37.9918	-124.061	-166.288	-0.089289	0.221752	-0.920850	-0.922207	-0.073003	37.9918	-0.919409	-1.858749E+12	3.927544E-14	NaN
426	1.000000	0.233084	7.36923e+06	-55789.1	1005.82	-29740.7	0.000000	0.000000	6.232821	0.046027	NaN	0.000000	0.001651	0.001771	28.0814	0.122057	0.002005	60.8858	146.117	14.4541	0.031437	0.231716	-0.910875	-0.912243	0.046027	60.8858	-0.911442	-1.450897E+12	-3.172285E-14	NaN
426	1.000000	0.243093	7.36923e+06	-55789.1	1005.82	-29740.7	0.000000	0.000000	6.242828	-0.006912	NaN	0.000000	0.001665	0.001737	28.0802	0.037935	0.002012	18.8514	-137.86	-169.655	0.012104	0.241808	-0.900866	-0.902151	-0.006912	18.8514	-0.900591	-1.035252E+12	6.676401E-15	NaN
426	1.000000	0.253103	7.36923e+06	-55789.1	1005.82	-29740.7	0.000000	0.000000	6.252835	-0.073786	NaN	0.000000	0.001648	0.001769	28.0812	0.089897	0.001981	45.3854	41.9561	12.7113	-0.086049	0.251714	-0.890856	-0.892245	-0.073786	45.3854	-0.889637	-7.362135E+11	1.002234E-13	NaN
426	1.000000	0.263103	7.36923e+06	-55789.1	1005.82	-29740.7	0.000000	0.000000	6.262839	0.029400	NaN	0.000000	0.001648	0.001741	28.0804	0.115873	0.001978	58.592	29.5618	-164.99	-0.040912	0.261806	-0.880856	-0.882153	0.029400	58.592	-0.881232	-5.667197E+11	-5.187798E-14	NaN
426	1.000000	0.273149	7.36923e+06	-55789.1	1005.82	-29740.7	0.000000	0.000000	6.272883	-0.000657	NaN	0.000000	0.001633	0.001765	28.08	0.064888	0.001986	32.6692	-68.4022	14.907	0.041806	0.271766	-0.870810	-0.872193	-0.000657	32.6692	-0.870795	-4.094506E+11	1.605575E-15	NaN
426	1.000000	0.283075	7.36923e+06	-55789.1	1005.82	-29740.7	0.000000	0.000000	6.282809	-0.030195	NaN	0.000000	0.001622	0.001725	28.0802	0.120953	0.002061	58.699	47.9632	-167.477	-0.042425	0.281758	-0.860884	-0.862201	-0.030195	58.699	-0.860498	-2.970699E+11	1.016438E-13	NaN
426	1.000000	0.293085	7.36923e+06	-55789.1	1005.82	-29740.7	0.000000	0.000000	6.292818	-0.044290	NaN	0.000000	0.001673	0.001771	28.0801	0.096771	0.001898	50.9893	46.063	11.6864	-0.016065	0.291773	-0.850874	-0.852186	-0.044290	50.9893	-0.850222	-2.156481E+11	2.053812E-13	NaN
426	1.000000	0.303153	7.36923e+06	-55789.1	1005.82	-29740.7	0.000000	0.000000	6.302888	-0.004473	NaN	0.000000	0.001680	0.001755	28.0802	0.057471	0.001941	29.6036	112.676	-167.899	0.037445	0.301756	-0.840805	-0.842203	-0.004473	29.6036	-0.840692	-1.602024E+11	2.791915E-14	NaN
426	1.000000	0.313155	7.36923e+06	-55789.1	1005.82	-29740.7	0.000000	0.000000	6.312889	-0.015194	NaN	0.000000	0.001685	0.001759	28.0799	0.005452	0.002032	2.683825	-7.648430	13.3129	-0.012025	0.311719	-0.830804	-0.832240	-0.015194	2.683825	-0.826558	-1.030680E+11	1.474183E-13	NaN
426	1.000000	0.323112	7.36923e+06	-55789.1	1005.82	-29740.7	0.000000	0.000000	6.322844	-0.081016	NaN	0.000000	0.001663	0.001752	28.0802	0.074644	0.001981	37.6726	-93.3584	-164.86	-0.047079	0.321826	-0.820847	-0.822133	-0.081016	37.6726	-0.819234	-8.200093E+10	9.879914E-13	NaN
426	1.000000	0.333130	7.36923e+06	-55789.1	1005.82	-29740.7	0.000000	0.000000	6.332859	-0.141532	NaN	0.000000	0.001707	0.001746	28.0802	0.076106	0.001893	40.1946	-157.359	15.1676	-0.076804	0.331778	-0.810828	-0.812181	-0.141532	40.1946	-0.808188	-5.807381E+10	2.437113E-12	NaN
426	1.000000	0.343151	7.36923e+06	-55789.1	1005.82	-29740.7	0.000000	0.000000	6.342884	-0.040505	NaN	0.000000	0.001716	0.001779	28.0801	0.006686	0.001929	3.466171	22.4861	-167.143	-0.029592	0.341828	-0.800808	-0.802131	-0.040505	3.466171	-0.792044	-3.506203E+10	1.155243E-12	NaN
426	1.000000	0.353110	7.36923e+06	-55789.1	1005.82	-29740.7	0.000000	0.000000	6.352841	-0.083084	NaN	0.000000	0.001712	0.001786	28.0804	0.064180	0.001972	32.5472	-136.97	13.7078	-0.081322	0.351791	-0.790849	-0.792168	-0.083084	32.5472	-0.788935	-3.181358E+10	2.611594E-12	NaN
426	1.000000	0.363166	7.36923e+06	-55789.1	1005.82	-29740.7	0.000000	0.000000	6.362901	0.001497	NaN	0.000000	0.001712	0.001800	28.0802	0.079860	0.002051	38.932	-130.319	-168.273	0.002884	0.361805	-0.780793	-0.782154	0.001497	38.932	-0.780821	-2.468281E+10	-6.066389E-14	NaN
426	1.000000	0.373145	7.36923e+06	-55789.1	1005.82	-29740.7	0.000000	0.000000	6.372881	0.016278	NaN	0.000000	0.001665	0.001787	28.0815	0.056895	0.001993	28.5503	114.575	13.9941	0.052659	0.371786	-0.770814	-0.772173	0.016278	28.5503	-0.771241	-1.828872E+10	-8.900526E-13	NaN
426	1.000000	0.383174	7.36923e+06	-55789.1	1005.82	-29740.7	0.000000	0.000000	6.382907	-0.047615	NaN	0.000000	0.001677	0.001794	28.0814	0.027365	0.001940	14.1021	-32.361	-169.955	-0.040024	0.381828	-0.760784	-0.762130	-0.047615	14.1021	-0.758252	-1.217652E+10	3.910391E-12	NaN
426	1.000000	0.393179	7.36923e+06	-55789.1	1005.82	-29740.7	0.000000	0.000000	6.392912	-0.052975	NaN	0.000000	0.001714	0.001769	28.0815	0.032878	0.002142	15.3523	86.7679	12.1496	-0.081395	0.391796	-0.750780	-0.752163	-0.052975	15.3523	-0.748192	-8.883917E+9	5.963055E-12	NaN
426	1.000000	0.403141	7.36923e+06	-55789.1	1005.82	-29740.7	0.000000	0.000000	6.402874	-0.029786	NaN	0.000000	0.001700	0.001766	28.0814	0.041592	0.001836	22.6527	62.4924	-171.057	0.000510	0.401848	-0.740818	-0.742111	-0.029786	22.6527	-0.739832	-6.835422E+9	4.357582E-12	NaN
426	1.000000	0.413171	7.36923e+06	-55789.1	1005.82	-29740.7	0.000000	0.000000	6.412903	-0.059754	NaN	0.000000	0.001720	0.001787	28.0817	0.083433	0.001975	42.2433	108.273	9.689219	-0.102060	0.411711	-0.730788	-0.732248	-0.059754	42.2433	-0.729727	-4.978409E+9	1.200262E-11	NaN
426	1.000000	0.423187	7.36923e+06	-55789.1	1005.82	-29740.7	0.000000	0.000000	6.422921	-0.017331	NaN	0.000000	0.001680	0.001763	28.0814	0.034108	0.001979	17.2355	98.4839	-166.465	-0.108407	0.421870	-0.720772	-0.722089	-0.017331	17.2355	-0.720018	-3.670400E+9	4.721957E-12	NaN
426	1.000000	0.433175	7.36923e+06	-55789.1	1005.82	-29740.7	0.000000	0.000000	6.432907	-0.050996	NaN	0.000000	0.001649	0.001744	28.0815	0.091535	0.001982	46.1886	-54.0314	14.3187	-0.115581	0.431869	-0.710784	-0.712090	-0.050996	46.1886	-0.709956	-2.675792E+9	1.905839E-11	NaN
426	1.000000	0.443170	7.36923e+06	-55789.1	1005.82	-29740.7	0.000000	0.000000	6.442902	-0.053929	NaN	0.000000	0.001649	0.001778	28.0819	0.050796	0.001990	25.5299	43.6481	-163.28	-0.002445	0.441845	-0.700789	-0.702114	-0.053929	25.5299	-0.699205	-1.908426E+9	2.825835E-11	NaN
426	1.000000	0.453188	7.36923e+06	-55789.1	1005.82	-29740.7	0.000000	0.000000	6.452924	0.042366	NaN	0.000000	0.001671	0.001778	28.0814	0.095886	0.001924	49.845	-157.325	13.3946	0.035639	0.451773	-0.690771	-0.692186	0.042366	49.845	-0.691409	-1.493378E+9	-2.836939E-11	NaN
426	1.000000	0.463203	7.36923e+06	-55789.1	1005.82	-29740.7	0.000000	0.000000	6.462936	-0.031924	NaN	0.000000	0.001659	0.001738	28.0814	0.104064	0.001970	52.8169	-118.126	-167.75	0.082351	0.461890	-0.680756	-0.682068	-0.031924	52.8169	-0.680303	-1.052800E+9	3.032297E-11	NaN
426	1.000000	0.473210	7.36923e+06	-55789.1	1005.82	-29740.7	0.000000	0.000000	6.472944	-0.025724	NaN	0.000000	0.001660	0.001768	28.0813	0.049999	0.001889	26.4644	84.973	14.0828	0.011810	0.471858	-0.670749	-0.672101	-0.025724	26.4644	-0.670020	-7.614888E+8	3.378162E-11	NaN
426	1.000000	0.483226	7.36923e+06	-55789.1	1005.82	-29740.7	0.000000	0.000000	6.482959	-0.040809	NaN	0.000000	0.001595	0.001743	28.0817	0.077491	0.002163	35.8276	-90.0385	-165.177	-0.061049	0.481857	-0.660733	-0.662102	-0.040809	35.8276	-0.659879	-5.531119E+8	7.378116E-11	NaN
426	1.000000	0.493197	7.36923e+06	-55789.1	1005.82	-29740.7	0.000000	0.000000	6.492929	-0.056359	NaN	0.000000	0.001660	0.001809	28.0813	0.035607	0.002000	17.8069	80.6322	13.932	-0.069866	0.491873	-0.650762	-0.652086	-0.056359	17.8069	-0.648388	-3.848944E+8	1.464260E-10	NaN
426	1.000000	0.503239	7.36923e+06	-55789.1	1005.82	-29740.7	0.000000	0.000000	6.502974	-0.000172	NaN	0.000000	0.001660	0.001803	28.0811	0.057550	0.001934	29.7567	-152.795	-164.507	-0.047587	0.501859	-0.640720	-0.642100	-0.000172	29.7567	-0.640716	-3.020707E+8	5.707913E-13	NaN
426	1.000000	0.513213	7.36923e+06	-55789.1	1005.82	-29740.7	0.000000	0.000000	6.512946	-0.038867	NaN	0.000000	0.001613	0.001787	28.0804	0.104389	0.001944	53.7114	147.735	11.8842	-0.054383	0.511824	-0.630746	-0.632135	-0.038867	53.7114	-0.630203	-2.166781E+8	1.793746E-10	NaN
426	1.000000	0.523244	7.36923e+06	-55789.1	1005.82	-29740.7	0.000000	0.000000	6.522978	-0.025041	NaN	0.000000	0.001648	0.001762	28.0804	0.066482	0.002046	32.4993	-124.41	-164.304	-0.003054	0.521899	-0.620715	-0.622060	-0.025041	32.4993	-0.620137	-1.575852E+8	1.589054E-10	NaN
426	1.000000	0.533222	7.36923e+06	-55789.1	1005.82	-29740.7	0.000000	0.000000	6.532956	-0.016548	NaN	0.000000	0.001632	0.001738	28.0801	0.104861	0.001992	52.6458	-128.988	17.9516	-0.031575	0.531832	-0.610737	-0.612127	-0.016548	52.6458	-0.610502	-1.161491E+8	1.424738E-10	NaN
426	1.000000	0.543206	7.36923e+06	-55789.1	1005.82	-29740.7	0.000000	0.000000	6.542936	-0.113524	NaN	0.000000	0.001664	0.001738	28.0801	0.038095	0.002012	18.9334	109.281	-168.93	-0.127772	0.541896	-0.600753	-0.602063	-0.113524	18.9334	-0.596256	-7.394142E+7	1.535326E-9	NaN
426	1.000000	0.553227	7.36923e+06	-55789.1	1005.82	-29740.7	0.000000	0.000000	6.552959	-0.059789	NaN	0.000000	0.001651	0.001756	28.0806	0.059286	0.002090	28.3698	166.383	12.2464	0.023901	0.551828	-0.590732	-0.592131	-0.059789	28.3698	-0.589152	-5.901616E+7	1.013102E-9	NaN
426	1.000000	0.563245	7.36923e+06	-55789.1	1005.82	-29740.7	0.000000	0.000000	6.562976	-0.094562	NaN	0.000000	0.001618	0.001789	28.0801	0.060655	0.002106	28.7974	119.178	-167.483	-0.052458	0.561931	-0.580714	-0.582028	-0.094562	28.7974	-0.578251	-4.174304E+7	2.265338E-9	NaN
426	1.000000	0.573234	7.36923e+06	-55789.1	1005.82	-29740.7	0.000000	0.000000	6.572965	-0.095797	NaN	0.000000	0.001648	0.001752	28.0804	0.083397	0.002073	40.2297	31.7203	15.5042	0.000858	0.571870	-0.570725	-0.572089	-0.095797	40.2297	-0.568939	-3.104324E+7	3.085918E-9	NaN
426	1.000000	0.583227	7.36923e+06	-55789.1	1005.82	-29740.7	0.000000	0.000000	6.582960	-0.045740	NaN	0.000000	0.001650	0.001783	28.0801	0.079012	0.001977	39.9651	-57.1044	-165.733	-0.113370	0.581903	-0.560732	-0.562056	-0.045740	39.9651	-0.559874	-2.326101E+7	1.966379E-9	NaN
426	1.000000	0.593266	7.36923e+06	-55789.1	1005.82	-29740.7	0.000000	0.000000	6.593001	0.007326	NaN	0.000000	0.001630	0.001745	28.0804	0.079597	0.002063	38.5811	-79.6729	14.8735	0.000168	0.591898	-0.550693	-0.552060	0.007326	38.5811	-0.550835	-1.743923E+7	-4.200692E-10	NaN
426	1.000000	0.603259	7.36923e+06	-55789.1	1005.82	-29740.7	0.000000	0.000000	6.602991	-0.067782	NaN	0.000000	0.001641	0.001731	28.08	0.037815	0.002063	18.3321	-67.6215	-165.721	-0.020373	0.601944	-0.540700	-0.542015	-0.067782	18.3321	-0.537926	-1.155039E+7	5.868413E-9	NaN
426	1.000000	0.613263	7.36923e+06	-55789.1	1005.82	-29740.7	0.000000	0.000000	6.612997	-0.006857	NaN	0.000000	0.001677	0.001797	28.0803	0.038128	0.001969	19.363	-143.745	18.2694	-0.046811	0.611948	-0.530696	-0.532011	-0.006857	19.363	-0.530431	-9.0898e+06	7.544033E-10	NaN
426	1.000000	0.623216	7.36923e+06	-55789.1	1005.82	-29740.7	0.000000	0.000000	6.622947	-0.099237	NaN	0.000000	0.001649	0.001826	28.0802	0.088966	0.001958	45.4431	-45.1333	-170.838	-0.043522	0.621973	-0.520743	-0.521986	-0.099237	45.4431	-0.519105	-6.32624e+06	1.568659E-8	NaN
426	1.000000	0.633245	7.36923e+06	-55789.1	1005.82	-29740.7	0.000000	0.000000	6.632981	0.038655	NaN	0.000000	0.001657	0.001740	28.0802	0.072064	0.001866	38.611	-78.5601	13.6278	-0.056623	0.631919	-0.510714	-0.512040	0.038655	38.611	-0.511465	-4.95244e+06	-7.805208E-9	NaN
426	1.000000	0.643274	7.36923e+06	-55789.1	1005.82	-29740.7	0.000000	0.000000	6.643010	0.013500	NaN	0.000000	0.001584	0.001789	28.0802	0.117160	0.001957	59.8794	74.6107	-165.129	0.017925	0.641934	-0.500685	-0.502025	0.013500	59.8794	-0.500854	-3.52312e+06	-3.831738E-9	NaN
426	1.000000	0.653281	7.36923e+06	-55789.1	1005.82	-29740.7	0.000000	0.000000	6.653013	-0.060124	NaN	0.000000	0.001676	0.001749	28.0814	0.200569	0.002014	99.6086	-30.9683	11.8225	-0.100194	0.651952	-0.490678	-0.492007	-0.060124	99.6086	-0.490225	-2.50345e+06	2.401632E-8	NaN
426	1.000000	0.663280	7.36923e+06	-55789.1	1005.82	-29740.7	0.000000	0.000000	6.663013	-0.057061	NaN	0.000000	0.001624	0.001758	28.0815	0.063180	0.001940	32.5676	-98.0855	-166.249	-0.028496	0.661956	-0.480678	-0.482003	-0.057061	32.5676	-0.479364	-1.76453e+06	3.233767E-8	NaN
426	1.000000	0.673284	7.36923e+06	-55789.1	1005.82	-29740.7	0.000000	0.000000	6.673017	-0.037332	NaN	0.000000	0.001606	0.001721	28.0813	0.086431	0.001959	44.1179	-82.3901	14.5469	-0.010868	0.671930	-0.470675	-0.472029	-0.037332	44.1179	-0.470040	-1.3061e+06	2.858295E-8	NaN
426	1.000000	0.683292	7.36923e+06	-55789.1	1005.82	-29740.7	0.000000	0.000000	6.683024	-0.075979	NaN	0.000000	0.001631	0.001694	28.0813	0.075780	0.002006	37.7783	143.402	-162.838	-0.075357	0.681959	-0.460666	-0.462000	-0.075979	37.7783	-0.459158	-918725	8.270100E-8	NaN
426	1.000000	0.693272	7.36923e+06	-55789.1	1005.82	-29740.7	0.000000	0.000000	6.693007	-0.007955	NaN	0.000000	0.001618	0.001720	28.0814	0.107893	0.002054	52.5306	-179.731	14.8625	-0.073071	0.691977	-0.450686	-0.451982	-0.007955	52.5306	-0.450573	-695681	1.143540E-8	NaN
426	1.000000	0.703308	7.36923e+06	-55789.1	1005.82	-29740.7	0.000000	0.000000	6.703040	-0.076897	NaN	0.000000	0.001613	0.001670	28.0813	0.093677	0.001941	48.2565	98.9603	-167.921	-0.044551	0.701991	-0.440651	-0.441968	-0.076897	48.2565	-0.439456	-484930	1.585741E-7	NaN
426	1.000000	0.713301	7.36923e+06	-55789.1	1005.82	-29740.7	0.000000	0.000000	6.713031	-0.113488	NaN	0.000000	0.001640	0.001681	28.0808	0.140100	0.001973	70.998	64.8105	16.3608	-0.169941	0.711894	-0.430658	-0.432065	-0.113488	70.998	-0.429459	-350279	3.239923E-7	NaN
426	1.000000	0.723293	7.36923e+06	-55789.1	1005.82	-29740.7	0.000000	0.000000	6.723026	-0.039452	NaN	0.000000	0.001571	0.001679	28.0813	0.068014	0.001920	35.4237	179.853	-165.784	-0.001491	0.722021	-0.420666	-0.421938	-0.039452	35.4237	-0.419831	-255866	1.541910E-7	NaN
426	1.000000	0.733344	7.36923e+06	-55789.1	1005.82	-29740.7	0.000000	0.000000	6.733077	-0.033786	NaN	0.000000	0.001649	0.001678	28.0814	0.072273	0.002068	34.9558	-23.3689	13.7889	-0.045246	0.731963	-0.410615	-0.411996	-0.033786	34.9558	-0.409890	-184858	1.827671E-7	NaN
426	1.000000	0.743280	7.36923e+06	-55789.1	1005.82	-29740.7	0.000000	0.000000	6.743013	-0.038872	NaN	0.000000	0.001642	0.001712	28.0812	0.074005	0.002136	34.6413	167.238	-167.869	-0.046701	0.741988	-0.400679	-0.401970	-0.038872	34.6413	-0.399838	-132947	2.923870E-7	NaN
426	1.000000	0.753323	7.36923e+06	-55789.1	1005.82	-29740.7	0.000000	0.000000	6.753056	-0.049245	NaN	0.000000	0.001663	0.001703	28.0816	0.098585	0.001981	49.7691	142.804	12.2912	-0.024920	0.751945	-0.390636	-0.392014	-0.049245	49.7691	-0.389894	-95862.5	5.137078E-7	NaN
426	1.000000	0.763328	7.36923e+06	-55789.1	1005.82	-29740.7	0.000000	0.000000	6.763060	-0.057440	NaN	0.000000	0.001644	0.001729	28.0814	0.166492	0.001847	90.147	-21.5905	-162.322	-0.097868	0.762017	-0.380631	-0.381942	-0.057440	90.147	-0.380153	-69516.7	8.262741E-7	NaN
426	1.000000	0.773295	7.36923e+06	-55789.1	1005.82	-29740.7	0.000000	0.000000	6.773028	-0.040928	NaN	0.000000	0.001657	0.001695	28.0815	0.071037	0.001933	36.7534	-60.3683	13.6416	-0.104877	0.771982	-0.370664	-0.371977	-0.040928	36.7534	-0.369829	-49393.1	8.286272E-7	NaN
426	1.000000	0.783312	7.36923e+06	-55789.1	1005.82	-29740.7	0.000000	0.000000	6.783048	0.028577	NaN	0.000000	0.001625	0.001714	28.08	0.049406	0.002023	24.4235	-125.022	-165.898	0.063648	0.782012	-0.360647	-0.361947	0.028577	24.4235	-0.361525	-37486.7	-7.623152E-7	NaN
426	1.000000	0.793321	7.36923e+06	-55789.1	1005.82	-29740.7	0.000000	0.000000	6.793057	0.041696	NaN	0.000000	0.001625	0.001699	28.0797	0.034428	0.001975	17.4304	-104.445	14.1672	-0.007229	0.791964	-0.350638	-0.351994	0.041696	17.4304	-0.352432	-27687.5	-1.505933E-6	NaN
426	1.000000	0.803302	7.36923e+06	-55789.1	1005.82	-29740.7	0.000000	0.000000	6.803032	-0.117028	NaN	0.000000	0.001652	0.001741	28.08	0.145202	0.002008	72.3052	-33.6271	-168.508	-0.204049	0.802016	-0.340657	-0.341943	-0.117028	72.3052	-0.339443	-17924.1	6.529090E-6	NaN
426	1.000000	0.813320	7.36923e+06	-55789.1	1005.82	-29740.7	0.000000	0.000000	6.813053	-0.031365	NaN	0.000000	0.001648	0.001693	28.08	0.219141	0.002125	103.107	159.455	14.8242	-0.059763	0.811944	-0.330639	-0.332015	-0.031365	103.107	-0.330411	-13227.1	2.371235E-6	NaN
426	1.000000	0.823337	7.36923e+06	-55789.1	1005.82	-29740.7	0.000000	0.000000	6.823071	-0.026074	NaN	0.000000	0.001670	0.001690	28.0801	0.028458	0.001933	14.7221	-119.777	-166.028	-0.048289	0.821999	-0.320622	-0.321960	-0.026074	14.7221	-0.319293	-9083.14	2.870539E-6	NaN
426	1.000000	0.833345	7.36923e+06	-55789.1	1005.82	-29740.7	0.000000	0.000000	6.833078	-0.035860	NaN	0.000000	0.001643	0.001750	28.08	0.038884	0.002006	19.3843	25.7867	13.9365	-0.076182	0.831935	-0.310614	-0.312024	-0.035860	19.3843	-0.309227	-6450.73	5.559075E-6	NaN
426	1.000000	0.843361	7.36923e+06	-55789.1	1005.82	-29740.7	0.000000	0.000000	6.843094	-0.047660	NaN	0.000000	0.001646	0.001711	28.0804	0.088930	0.002034	43.7255	-138.603	-168.433	-0.055718	0.842097	-0.300597	-0.301862	-0.047660	43.7255	-0.299780	-4670.47	1.020465E-5	NaN
426	1.000000	0.853364	7.36923e+06	-55789.1	1005.82	-29740.7	0.000000	0.000000	6.853098	-0.005374	NaN	0.000000	0.001602	0.001708	28.0799	0.072452	0.002094	34.5936	-129.12	13.3195	0.008037	0.852001	-0.290595	-0.291958	-0.005374	34.5936	-0.290479	-3392.13	1.584167E-6	NaN
426	1.000000	0.863357	7.36923e+06	-55789.1	1005.82	-29740.7	0.000000	0.000000	6.863090	-0.029405	NaN	0.000000	0.001600	0.001728	28.0803	0.042234	0.002032	20.787	-178.709	-168.824	-0.005389	0.862044	-0.280602	-0.281915	-0.029405	20.787	-0.279541	-2322.98	1.265839E-5	NaN
426	1.000000	0.873323	7.36923e+06	-55789.1	1005.82	-29740.7	0.000000	0.000000	6.873058	0.010970	NaN	0.000000	0.001647	0.001711	28.0799	0.017959	0.002080	8.635279	160.29	10.4038	-0.066236	0.872001	-0.270636	-0.271958	0.010970	8.635279	-0.271588	-1760.66	-6.230552E-6	NaN
426	1.000000	0.883365	7.36923e+06	-55789.1	1005.82	-29740.7	0.000000	0.000000	6.883099	-0.035413	NaN	0.000000	0.001629	0.001707	28.0807	0.054561	0.001810	30.1509	10.8734	-164.756	-0.005829	0.882040	-0.260594	-0.261919	-0.035413	30.1509	-0.259713	-1160.15	3.052484E-5	NaN
426	1.000000	0.893375	7.36923e+06	-55789.1	1005.82	-29740.7	0.000000	0.000000	6.893109	-0.033455	NaN	0.000000	0.001616	0.001704	28.0799	0.144937	0.001828	79.2934	-59.3213	13.9395	-0.047856	0.891993	-0.250584	-0.251966	-0.033455	79.2934	-0.250267	-830.039	4.030582E-5	NaN
426	1.000000	0.903379	7.36923e+06	-55789.1	1005.82	-29740.7	0.000000	0.000000	6.903110	-0.083972	NaN	0.000000	0.001627	0.001714	28.0803	0.044275	0.002066	21.427	175.202	-165.047	-0.082293	0.902071	-0.240580	-0.241888	-0.083972	21.427	-0.237641	-528.032	0.000159	NaN
426	1.000000	0.913378	7.36923e+06	-55789.1	1005.82	-29740.7	0.000000	0.000000	6.913113	0.013428	NaN	0.000000	0.001674	0.001725	28.0799	0.039149	0.001920	20.3858	-117.677	12.7694	-0.031121	0.912047	-0.230581	-0.231912	0.013428	20.3858	-0.231075	-416.377	-3.224993E-5	NaN
426	1.000000	0.923388	7.36923e+06	-55789.1	1005.82	-29740.7	0.000000	0.000000	6.923121	-0.030856	NaN	0.000000	0.001636	0.001733	28.0815	0.101916	0.002135	47.7441	-89.9616	-166.116	-0.025903	0.922085	-0.220571	-0.221874	-0.030856	47.7441	-0.220087	-278.65	0.000111	NaN
426	1.000000	0.933411	7.36923e+06	-55789.1	1005.82	-29740.7	0.000000	0.000000	6.933145	-0.015262	NaN	0.000000	0.001650	0.001729	28.0812	0.041691	0.001933	21.5659	-37.2924	12.9186	0.035703	0.932020	-0.210548	-0.211939	-0.015262	21.5659	-0.210018	-191.913	7.952399E-5	NaN
426	1.000000	0.943390	7.36923e+06	-55789.1	1005.82	-29740.7	0.000000	0.000000	6.943122	-0.064962	NaN	0.000000	0.001607	0.001661	28.0813	0.180443	0.002098	86.0232	-81.9194	-164.698	-0.051572	0.942075	-0.200569	-0.201884	-0.064962	86.0232	-0.200002	-131.746	0.000493	NaN
426	1.000000	0.953365	7.36923e+06	-55789.1	1005.82	-29740.7	0.000000	0.000000	6.953097	-0.048012	NaN	0.000000	0.001639	0.001670	28.0813	0.109426	0.001869	58.5629	165.299	10.3255	-0.032194	0.952038	-0.190594	-0.191920	-0.048012	58.5629	-0.189980	-89.8848	0.000534	NaN
426	1.000000	0.963428	7.36923e+06	-55789.1	1005.82	-29740.7	0.000000	0.000000	6.963160	-0.064215	NaN	0.000000	0.001610	0.001655	28.0813	0.042272	0.002002	21.1137	34.8917	-167.466	-0.089719	0.962158	-0.180531	-0.181801	-0.064215	21.1137	-0.178250	-56.9695	0.001127	NaN
426	1.000000	0.973388	7.36923e+06	-55789.1	1005.82	-29740.7	0.000000	0.000000	6.973120	-0.052060	NaN	0.000000	0.001629	0.001668	28.0811	0.050817	0.001976	25.7156	150.871	12.7049	-0.057431	0.972004	-0.170571	-0.171955	-0.052060	25.7156	-0.169053	-39.5504	0.001316	NaN
426	1.000000	0.983424	7.36923e+06	-55789.1	1005.82	-29740.7	0.000000	0.000000	6.983158	-0.019113	NaN	0.000000	0.001626	0.001648	28.0813	0.040941	0.002009	20.3759	6.741598	-163.854	-0.054421	0.982072	-0.160535	-0.161887	-0.019113	20.3759	-0.159831	-27.2263	0.000702	NaN
426	1.000000	0.993371	7.36923e+06	-55789.1	1005.82	-29740.7	0.000000	0.000000	6.993105	-0.017429	NaN	0.000000	0.001612	0.001690	28.0812	0.084947	0.001973	43.0476	-59.2092	15.297	-0.071967	0.992015	-0.150588	-0.151944	-0.017429	43.0476	-0.150284	-18.3309	0.000951	NaN
426	1.000000	1.003413	7.36923e+06	-55789.1	1005.82	-29740.7	0.000000	0.000000	7.003147	-0.025231	NaN	0.000000	0.001592	0.001730	28.0814	0.123824	0.002012	61.5578	120.214	-169.812	0.008338	1.002157	-0.140546	-0.141802	-0.025231	61.5578	-0.140238	-11.952	0.002111	NaN
426	1.000000	1.013411	7.36923e+06	-55789.1	1005.82	-29740.7	0.000000	0.000000	7.013142	-0.086329	NaN	0.000000	0.001651	0.001668	28.0812	0.130839	0.002026	64.5783	-131.244	13.6231	-0.002874	1.012130	-0.130548	-0.131829	-0.086329	64.5783	-0.129545	-7.467434	0.011561	NaN
426	1.000000	1.023453	7.36923e+06	-55789.1	1005.82	-29740.7	0.000000	0.000000	7.023189	0.008259	NaN	0.000000	0.001703	0.001719	28.0812	0.138739	0.002070	67.0128	-8.707077	-167.485	-0.103553	1.022124	-0.120505	-0.121835	0.008259	67.0128	-0.120598	-4.967474	-0.001663	NaN
426	1.000000	1.033437	7.36923e+06	-55789.1	1005.82	-29740.7	0.000000	0.000000	7.033170	-0.044678	NaN	0.000000	0.001675	0.001707	28.0813	0.076272	0.002029	37.5852	-100.285	8.995054	0.001701	1.032019	-0.110522	-0.111940	-0.044678	37.5852	-0.109630	-2.951718	0.015136	NaN
426	1.000000	1.043440	7.36923e+06	-55789.1	1005.82	-29740.7	0.000000	0.000000	7.043172	-0.049568	NaN	0.000000	0.001695	0.001659	28.0811	0.053350	0.001871	28.5142	-147.081	-166.179	-0.062829	1.042119	-0.100519	-0.101840	-0.049568	28.5142	-0.099215	-1.755272	0.028239	NaN
426	1.000000	1.053456	7.36923e+06	-55789.1	1005.82	-29740.7	0.000000	0.000000	7.053189	-0.056598	NaN	0.000000	0.001687	0.001665	28.0809	0.084689	0.002039	41.5302	158.145	14.0339	-0.125427	1.052085	-0.090503	-0.091874	-0.056598	41.5302	-0.089481	-1.051027	0.053850	NaN
426	1.000000	1.063436	7.36923e+06	-55789.1	1005.82	-29740.7	0.000000	0.000000	7.063171	0.006611	NaN	0.000000	0.001685	0.001663	28.0799	0.070599	0.002128	33.1739	-105.733	-166.074	-0.000569	1.062119	-0.080523	-0.081840	0.006611	33.1739	-0.080672	-0.643359	-0.010276	NaN
426	1.000000	1.073441	7.36923e+06	-55789.1	1005.82	-29740.7	0.000000	0.000000	7.073175	-0.017376	NaN	0.000000	0.001697	0.001690	28.0799	0.062585	0.001917	32.6493	173.776	13.6254	0.007908	1.072097	-0.070518	-0.071862	-0.017376	32.6493	-0.070119	-0.343619	0.050568	NaN
426	1.000000	1.083446	7.36923e+06	-55789.1	1005.82	-29740.7	0.000000	0.000000	7.083178	-0.064667	NaN	0.000000	0.001712	0.001670	28.0798	0.145852	0.002103	69.3676	151.907	-168.932	-0.082680	1.082134	-0.060513	-0.061824	-0.064667	69.3676	-0.059814	-0.177896	0.363509	NaN
426	1.000000	1.093471	7.36923e+06	-55789.1	1005.82	-29740.7	0.000000	0.000000	7.093202	-0.079909	NaN	0.000000	0.001715	0.001690	28.08	0.079503	0.002120	37.5081	28.609	12.465	-0.086014	1.092078	-0.050488	-0.051881	-0.079909	37.5081	-0.048890	-0.084453	0.946200	NaN
426	1.000000	1.103469	7.36923e+06	-55789.1	1005.82	-29740.7	0.000000	0.000000	7.103203	-0.019663	NaN	0.000000	0.001637	0.001689	28.08	0.031351	0.001982	15.8199	-109.783	-169.816	-0.020409	1.102156	-0.040490	-0.041803	-0.019663	15.8199	-0.039558	-0.043845	0.448470	NaN
426	1.000000	1.113441	7.36923e+06	-55789.1	1005.82	-29740.7	0.000000	0.000000	7.113173	-0.067283	NaN	0.000000	0.001699	0.001668	28.0799	0.071737	0.002046	35.0688	-168.888	12.6875	-0.090167	1.112056	-0.030518	-0.031902	-0.067283	35.0688	-0.029079	-0.021700	3.100600	NaN
426	1.000000	1.123477	7.36923e+06	-55789.1	1005.82	-29740.7	0.000000	0.000000	7.123211	-0.014433	NaN	0.000000	0.001751	0.001662	28.0798	0.036386	0.002043	17.8076	-163.088	-166.972	-0.004141	1.122135	-0.020482	-0.021824	-0.014433	17.8076	-0.019874	-0.012469	1.157524	NaN
426	1.000000	1.133478	7.36923e+06	-55789.1	1005.82	-29740.7	0.000000	0.000000	7.133208	-0.120134	NaN	0.000000	0.001742	0.001697	28.0801	0.072236	0.001926	37.5124	-45.2297	14.6562	-0.159171	1.132095	-0.010481	-0.011864	-0.120134	37.5124	-0.008079	-0.005278	22.7618	NaN
426	1.000000	1.143452	7.36923e+06	-55789.1	1005.82	-29740.7	0.000000	0.000000	7.143185	-0.052207	NaN	0.000000	0.001724	0.001678	28.0803	0.111777	0.002022	55.2769	1.229637	-168.283	-0.086482	1.142178	-0.000507	-0.001781	-0.052207	55.2769	0.000201	0.000151	-345.625	4109.18
426	1.000000	1.153427	7.36923e+06	-55789.1	1005.82	-29740.7	0.000000	0.000000	7.153465	7.376202	NaN	0.000000	0.001705	0.001652	28.0807	7.692414	0.001634	4707.16	13.0126	7.936514	6.797742	1.152112	0.009468	0.008153	7.376202	4707.16	0.008292	0.007345	1004.28	50181.4
426	2.000000	1.157045	7.36923e+06	-55789.1	1005.82	-29740.7	0.000000	0.000000	7.157240	11.17	NaN	0.000000	0.001676	0.001669	28.0799	11.5087	0.001673	6879.11	2.911986	-171.753	10.9319	1.156707	0.013087	0.012748	11.17	6879.11	0.011869	0.011333	985.597	59037.6
426	2.000000	1.159562	7.36923e+06	-55789.1	1005.82	-29740.7	0.000000	0.000000	7.159841	13.2297	NaN	0.000000	0.001659	0.001705	28.0808	13.4293	0.001761	7626.88	3.727487	9.483588	12.7515	1.159174	0.015603	0.015216	13.2297	7626.88	0.014302	0.014366	920.906	58137.1
426	2.000000	1.162013	7.36923e+06	-55789.1	1005.82	-29740.7	0.000000	0.000000	7.162281	12.9613	NaN	0.000000	0.001693	0.001653	28.0798	15.0935	0.001750	8625.32	12.1194	179.644	13.2307	1.161765	0.018054	0.017806	12.9613	8625.32	0.016927	0.017941	722.432	58833.2
426	2.000000	1.164523	7.36923e+06	-55789.1	1005.82	-29740.7	0.000000	0.000000	7.164928	16.2892	NaN	0.000000	0.001720	0.001689	28.0821	18.064	0.001829	9875.58	5.757189	3.772354	15.3411	1.164160	0.020564	0.020201	16.2892	9875.58	0.019327	0.021496	757.773	61539.7
426	2.000000	1.167002	7.36923e+06	-55789.1	1005.82	-29740.7	0.000000	0.000000	7.167659	22.4089	NaN	0.000000	0.001695	0.001655	28.0809	21.0069	0.001685	12467.7	6.525588	-179.773	22.2834	1.166679	0.023043	0.022720	22.4089	12467.7	0.021695	0.025276	886.563	71647.8
426	2.000000	1.169476	7.36923e+06	-55789.1	1005.82	-29740.7	0.000000	0.000000	7.170237	24.948	NaN	0.000000	0.001690	0.001652	28.0821	23.3069	0.001766	13196.4	6.992818	0.722803	23.3054	1.169043	0.025517	0.025084	24.948	13196.4	0.024099	0.029397	848.645	70319
426	2.000000	1.172005	7.36923e+06	-55789.1	1005.82	-29740.7	0.000000	0.000000	7.173022	31.1552	NaN	0.000000	0.001690	0.001623	28.0811	25.4166	0.001740	14605.8	5.338884	-178.513	33.4446	1.171706	0.028046	0.027747	31.1552	14605.8	0.026446	0.033700	924.497	72691.7
426	2.000000	1.174424	7.36923e+06	-55789.1	1005.82	-29740.7	0.000000	0.000000	7.175585	34.6711	NaN	0.000000	0.001726	0.001656	28.0816	28.4462	0.001768	16089.9	3.850626	0.742614	32.271	1.174119	0.030465	0.030160	34.6711	16089.9	0.028849	0.038391	903.098	75025.8
426	2.000000	1.176940	7.36923e+06	-55789.1	1005.82	-29740.7	0.000000	0.000000	7.178372	41.2695	NaN	0.000000	0.001701	0.001655	28.0811	31.4089	0.001823	17233.4	6.872618	177.013	40.2122	1.176579	0.032981	0.032620	41.2695	17233.4	0.031185	0.043235	954.532	75722.5
426	2.000000	1.179486	7.36923e+06	-55789.1	1005.82	-29740.7	0.000000	0.000000	7.180984	42.8467	NaN	0.000000	0.001689	0.001645	28.0829	33.6954	0.001879	17930.6	4.863748	0.336400	41.5281	1.179198	0.035527	0.035239	42.8467	17930.6	0.033735	0.048842	877.252	74126.1
426	2.000000	1.181959	7.36923e+06	-55789.1	1005.82	-29740.7	0.000000	0.000000	7.183733	49.5569	NaN	0.000000	0.001677	0.001666	28.0811	35.4729	0.001883	18836.2	3.574088	-178.258	48.6365	1.181631	0.038000	0.037672	49.5569	18836.2	0.036027	0.054165	914.927	73944.7
426	2.000000	1.184381	7.36923e+06	-55789.1	1005.82	-29740.7	0.000000	0.000000	7.186404	55.6119	NaN	0.000000	0.001682	0.001689	28.0824	38.9926	0.001911	20399.8	6.475144	-3.362269	53.1576	1.184124	0.040423	0.040165	55.6119	20399.8	0.038378	0.059904	928.357	76150.4
426	2.000000	1.186943	7.36923e+06	-55789.1	1005.82	-29740.7	0.000000	0.000000	7.189212	61.5976	NaN	0.000000	0.001723	0.001697	28.0812	40.4273	0.001669	24227.1	3.175575	177.461	62.3375	1.186711	0.042984	0.042752	61.5976	24227.1	0.041077	0.066842	921.542	85615
426	2.000000	1.189427	7.36923e+06	-55789.1	1005.82	-29740.7	0.000000	0.000000	7.192293	76.1191	NaN	0.000000	0.001677	0.001671	28.0815	42.5611	0.001786	23828.8	5.189358	-3.470224	72.9106	1.189026	0.045468	0.045068	76.1191	23828.8	0.043072	0.072208	1054.17	81018.4
426	2.000000	1.191952	7.36923e+06	-55789.1	1005.82	-29740.7	0.000000	0.000000	7.194912	78.392	NaN	0.000000	0.001651	0.001700	28.0811	44.7699	0.001728	25910.5	7.410707	173.392	78.08	1.191662	0.047993	0.047703	78.392	25910.5	0.045724	0.079657	984.121	83875.9
426	2.000000	1.194307	7.36923e+06	-55789.1	1005.82	-29740.7	0.000000	0.000000	7.197540	85.0267	NaN	0.000000	0.001695	0.001660	28.0812	47.8356	0.001783	26823.2	6.631110	-6.465591	78.1126	1.194086	0.050348	0.050127	85.0267	26823.2	0.047971	0.086245	985.876	83448.2
426	2.000000	1.196913	7.36923e+06	-55789.1	1005.82	-29740.7	0.000000	0.000000	7.200355	90.1181	NaN	0.000000	0.001676	0.001699	28.0812	50.5426	0.001777	28445.4	3.638905	175.652	88.2038	1.196779	0.052954	0.052820	90.1181	28445.4	0.050578	0.094207	956.601	84673.1
426	2.000000	1.199394	7.36923e+06	-55789.1	1005.82	-29740.7	0.000000	0.000000	7.203454	105.143	NaN	0.000000	0.001688	0.001703	28.0812	52.3454	0.001717	30486.9	5.048209	-5.364927	101.903	1.198965	0.055435	0.055006	105.143	30486.9	0.052848	0.101420	1036.71	87463
426	2.000000	1.201934	7.36923e+06	-55789.1	1005.82	-29740.7	0.000000	0.000000	7.206316	112.965	NaN	0.000000	0.001706	0.001704	28.0797	54.8433	0.001802	30434.5	4.615808	174.913	111.947	1.201601	0.057975	0.057642	112.965	30434.5	0.055191	0.109132	1035.12	84171.3
426	2.000000	1.204455	7.36923e+06	-55789.1	1005.82	-29740.7	0.000000	0.000000	7.209386	126.331	NaN	0.000000	0.001678	0.001680	28.0807	57.2571	0.001745	32804.4	5.360015	-5.919804	127.579	1.204038	0.060496	0.060079	126.331	32804.4	0.057607	0.117369	1076.36	87484.1
426	2.000000	1.206801	7.36923e+06	-55789.1	1005.82	-29740.7	0.000000	0.000000	7.212270	139.378	NaN	0.000000	0.001710	0.001682	28.0798	60.71	0.001739	34916.1	2.933085	175.51	132.99	1.206588	0.062842	0.062630	139.378	34916.1	0.059848	0.125265	1112.67	90133.1
426	2.000000	1.209437	7.36923e+06	-55789.1	1005.82	-29740.7	0.000000	0.000000	7.215772	160.426	NaN	0.000000	0.001690	0.001694	28.0804	62.5428	0.001943	32190.4	7.847415	-6.962703	157.102	1.208944	0.065478	0.064985	160.426	32190.4	0.061740	0.132123	1214.21	80911.4
426	2.000000	1.211792	7.36923e+06	-55789.1	1005.82	-29740.7	0.000000	0.000000	7.218549	170.71	NaN	0.000000	0.001696	0.001698	28.0795	65.1272	0.001688	38573.6	4.699475	172.903	164.723	1.211476	0.067833	0.067517	170.71	38573.6	0.064513	0.142489	1198.06	93362.6
426	2.000000	1.214349	7.36923e+06	-55789.1	1005.82	-29740.7	0.000000	0.000000	7.221281	174.946	NaN	0.000000	0.001690	0.001658	28.0801	66.6779	0.001681	39660.1	1.484360	-4.644023	169.364	1.214085	0.070390	0.070126	174.946	39660.1	0.067082	0.152420	1147.79	92812.5
426	2.000000	1.216798	7.36923e+06	-55789.1	1005.82	-29740.7	0.000000	0.000000	7.224244	187.442	NaN	0.000000	0.001671	0.001683	28.0797	71.023	0.001819	39047.2	7.152751	169.961	182.112	1.216596	0.072839	0.072637	187.442	39047.2	0.069239	0.161006	1164.19	88908.4
426	2.000000	1.219384	7.36923e+06	-55789.1	1005.82	-29740.7	0.000000	0.000000	7.227423	201.865	NaN	0.000000	0.001679	0.001686	28.0799	72.4568	0.001936	37420	6.000038	-7.267426	198.162	1.218924	0.075425	0.074965	201.865	37420	0.071379	0.169743	1189.24	82981.5
426	2.000000	1.221984	7.36923e+06	-55789.1	1005.82	-29740.7	0.000000	0.000000	7.230394	210.881	NaN	0.000000	0.001679	0.001718	28.0796	75.5411	0.001941	38909.2	9.885387	168.838	214.291	1.221541	0.078025	0.077582	210.881	38909.2	0.073960	0.180571	1167.86	83656.8
426	2.000000	1.224321	7.36923e+06	-55789.1	1005.82	-29740.7	0.000000	0.000000	7.233180	221.806	NaN	0.000000	0.001699	0.001722	28.08	76.9671	0.001721	44711.4	5.792846	-9.231768	216.067	1.223980	0.080362	0.080021	221.806	44711.4	0.076641	0.192148	1154.35	93190.9
426	2.000000	1.226829	7.36923e+06	-55789.1	1005.82	-29740.7	0.000000	0.000000	7.235900	226.947	NaN	0.000000	0.001666	0.001762	28.0798	80.5071	0.001881	42795.8	3.432002	173.084	223.659	1.226738	0.082870	0.082779	226.947	42795.8	0.078893	0.202132	1122.76	86967.4
426	2.000000	1.229333	7.36923e+06	-55789.1	1005.82	-29740.7	0.000000	0.000000	7.239181	245.843	NaN	0.000000	0.001657	0.001743	28.0798	80.9012	0.001789	45225.2	2.526750	-5.594730	238.886	1.228987	0.085374	0.085028	245.843	45225.2	0.081297	0.213054	1153.9	89517.7
426	2.000000	1.231754	7.36923e+06	-55789.1	1005.82	-29740.7	0.000000	0.000000	7.242178	259.836	NaN	0.000000	0.001677	0.001703	28.08	82.8876	0.001872	44282.1	2.366008	174.213	251.875	1.231516	0.087795	0.087557	259.836	44282.1	0.083394	0.222802	1166.22	85712
426	2.000000	1.234318	7.36923e+06	-55789.1	1005.82	-29740.7	0.000000	0.000000	7.245682	282.688	NaN	0.000000	0.001666	0.001714	28.0811	84.9314	0.001868	45462.8	6.397169	-9.486103	275.759	1.233872	0.090359	0.089913	282.688	45462.8	0.085695	0.233730	1209.46	85915.6
426	2.000000	1.236799	7.36923e+06	-55789.1	1005.82	-29740.7	0.000000	0.000000	7.248650	294.531	NaN	0.000000	0.001704	0.001710	28.0812	87.3352	0.001753	49812.1	2.491304	173.431	289.503	1.236624	0.092840	0.092665	294.531	49812.1	0.088405	0.246912	1192.86	91587.6
426	2.000000	1.239355	7.36923e+06	-55789.1	1005.82	-29740.7	0.000000	0.000000	7.251622	304.628	NaN	0.000000	0.001744	0.001705	28.0808	89.8758	0.001761	51024.8	7.104925	-11.9222	299.901	1.239142	0.095396	0.095183	304.628	51024.8	0.090918	0.259440	1174.18	91524.3
426	2.000000	1.241794	7.36923e+06	-55789.1	1005.82	-29740.7	0.000000	0.000000	7.255012	327.772	NaN	0.000000	0.001761	0.001728	28.081	90.2487	0.001783	50608	-0.889526	176.711	321.872	1.241497	0.097835	0.097538	327.772	50608	0.092977	0.269919	1214.34	88997
426	2.000000	1.244594	7.36923e+06	-55789.1	1005.82	-29740.7	0.000000	0.000000	7.257515	320.519	NaN	0.000000	0.001749	0.001696	28.081	94.286	0.001809	52127.3	2.271770	-6.704613	329.122	1.244481	0.100635	0.100522	320.519	52127.3	0.096024	0.285780	1121.56	89088.6
426	2.000000	1.246810	7.36923e+06	-55789.1	1005.82	-29740.7	0.000000	0.000000	7.261302	358.721	NaN	0.000000	0.001709	0.001752	28.0809	96.525	0.001780	54225.1	3.504604	171.204	353.903	1.246617	0.102851	0.102658	358.721	54225.1	0.097889	0.295704	1213.11	91105.6
426	2.000000	1.249299	7.36923e+06	-55789.1	1005.82	-29740.7	0.000000	0.000000	7.264648	379.545	NaN	0.000000	0.001693	0.001726	28.081	98.1281	0.001757	55834.8	5.521751	-10.1537	371.25	1.248956	0.105340	0.104997	379.545	55834.8	0.100242	0.308440	1230.53	91852.9
426	2.000000	1.251728	7.36923e+06	-55789.1	1005.82	-29740.7	0.000000	0.000000	7.267432	388.175	NaN	0.000000	0.001720	0.001754	28.0809	99.4249	0.001775	56006.4	2.241770	172.659	380.607	1.251619	0.107769	0.107660	388.175	56006.4	0.102571	0.321299	1208.14	90272.5
426	2.000000	1.253405	7.36923e+06	-55789.1	1005.82	-29740.7	0.000000	0.000000	7.269693	402.389	NaN	0.000000	0.001682	0.001751	28.0811	102.351	0.001737	58931.7	4.383289	-10.0443	401.363	1.253164	0.109446	0.109205	402.389	58931.7	0.104325	0.331144	1215.15	93565.1