File: remote_trans/data/nanoindenter/0828-1/data/Data_2025-08-06,11h17m57s/2025-07-22_16-23-58_1_1121.txt
2025-07-22, 16:23:58, 1
Index	Phase	Displacement	Time	Pos X	Pos Y	Pos Z	Rot A	Rot B	Piezo Z	Force A	Force B	Gripper	Voltage A	Voltage B	Temperature	Amplitude force	Amplitude pos	Stiffness	Phase shift	Phase excitation	Force A raw	Displacement raw	HMax	HMax raw	Real Force	Real Stiffness	Contact Depth	Area	Hardness	Reduced Mod.
[#]	[#]	[um]	[s]	[um]	[um]	[um]	[m°]	[m°]	[um]	[uN]	[uN]	[V]	[V]	[V]	[°C]	[uN]	[um]	[N/m]	[°]	[°]	[uN]	[um]	[um]	[um]	[uN]	[N/m]	[um]	[um^2]	[MPa]	[MPa]
1121	1.000000	0.002548	7.37602e+06	-56189.1	1055.82	-29739.5	0.000000	0.000000	6.002764	0.040834	NaN	0.000000	0.001672	0.001751	28.0807	0.052172	0.000961	54.2789	-43.6407	-167.447	0.047652	0.001320	-1.143901	-1.145129	0.040834	54.2789	-1.144465	-1.979733E+15	-2.062578E-17	NaN
1121	1.000000	0.012646	7.37602e+06	-56189.1	1055.82	-29739.5	0.000000	0.000000	6.012859	-0.032158	NaN	0.000000	0.001663	0.001703	28.0804	0.080192	0.001193	67.2333	-44.5451	18.7652	-0.043292	0.011217	-1.133803	-1.135232	-0.032158	67.2333	-1.133444	-1.408692E+15	2.282849E-17	NaN
1121	1.000000	0.022552	7.37602e+06	-56189.1	1055.82	-29739.5	0.000000	0.000000	6.022767	0.025687	NaN	0.000000	0.001655	0.001744	28.0803	0.103941	0.001737	59.8329	-139.327	-169.877	0.041300	0.021215	-1.123897	-1.125234	0.025687	59.8329	-1.124219	-1.059445E+15	-2.424538E-17	NaN
1121	1.000000	0.032561	7.37602e+06	-56189.1	1055.82	-29739.5	0.000000	0.000000	6.032775	-0.010331	NaN	0.000000	0.001658	0.001755	28.0805	0.031097	0.001942	16.011	77.0875	11.6538	0.035347	0.031152	-1.113888	-1.115297	-0.010331	16.011	-1.113404	-7.585239E+14	1.362025E-17	NaN
1121	1.000000	0.042520	7.37602e+06	-56189.1	1055.82	-29739.5	0.000000	0.000000	6.042734	-0.012532	NaN	0.000000	0.001650	0.001761	28.0807	0.110593	0.001990	55.573	21.1178	-166.451	0.031823	0.041262	-1.103929	-1.105186	-0.012532	55.573	-1.103760	-5.630386E+14	2.225790E-17	NaN
1121	1.000000	0.052539	7.37602e+06	-56189.1	1055.82	-29739.5	0.000000	0.000000	6.052754	0.018469	NaN	0.000000	0.001668	0.001756	28.0804	0.017596	0.002040	8.623561	19.4838	12.4803	-0.070643	0.051203	-1.093910	-1.095246	0.018469	8.623561	-1.095517	-4.363942E+14	-4.232161E-17	NaN
1121	1.000000	0.062511	7.37602e+06	-56189.1	1055.82	-29739.5	0.000000	0.000000	6.062725	-0.002386	NaN	0.000000	0.001634	0.001775	28.0804	0.094235	0.001956	48.1679	78.131	-169.042	0.032716	0.061233	-1.083938	-1.085216	-0.002386	48.1679	-1.083901	-3.047233E+14	7.829678E-18	NaN
1121	1.000000	0.072563	7.37602e+06	-56189.1	1055.82	-29739.5	0.000000	0.000000	6.072779	0.061052	NaN	0.000000	0.001629	0.001754	28.0804	0.067442	0.002103	32.0692	83.334	14.2603	0.030556	0.071194	-1.073886	-1.075255	0.061052	32.0692	-1.075314	-2.336574E+14	-2.612882E-16	NaN
1121	1.000000	0.082550	7.37602e+06	-56189.1	1055.82	-29739.5	0.000000	0.000000	6.082763	-0.029263	NaN	0.000000	0.001644	0.001744	28.0806	0.062172	0.001849	33.6216	133.584	-163.132	-0.053113	0.081242	-1.063899	-1.065207	-0.029263	33.6216	-1.063247	-1.608605E+14	1.819137E-16	NaN
1121	1.000000	0.092553	7.37602e+06	-56189.1	1055.82	-29739.5	0.000000	0.000000	6.092770	0.062916	NaN	0.000000	0.001603	0.001763	28.0819	0.054746	0.001903	28.7685	118.964	13.6131	0.047903	0.091187	-1.053896	-1.055262	0.062916	28.7685	-1.055536	-1.267145E+14	-4.965157E-16	NaN
1121	1.000000	0.102539	7.37602e+06	-56189.1	1055.82	-29739.5	0.000000	0.000000	6.102752	-0.036812	NaN	0.000000	0.001664	0.001767	28.0819	0.069580	0.002110	32.9729	76.74	-166.397	-0.014671	0.101210	-1.043910	-1.045239	-0.036812	32.9729	-1.043072	-8.615470E+13	4.272758E-16	NaN
1121	1.000000	0.112582	7.37602e+06	-56189.1	1055.82	-29739.5	0.000000	0.000000	6.112796	-0.006209	NaN	0.000000	0.001651	0.001775	28.0821	0.106664	0.001801	59.2311	-148.69	12.5391	-0.117173	0.111255	-1.033867	-1.035194	-0.006209	59.2311	-1.033788	-6.462936E+13	9.607337E-17	NaN
1121	1.000000	0.122543	7.37602e+06	-56189.1	1055.82	-29739.5	0.000000	0.000000	6.122757	-0.014767	NaN	0.000000	0.001625	0.001744	28.082	0.014222	0.002009	7.078436	-145.343	-167.024	-0.050325	0.121241	-1.023906	-1.025207	-0.014767	7.078436	-1.022341	-4.533686E+13	3.257227E-16	NaN
1121	1.000000	0.132572	7.37602e+06	-56189.1	1055.82	-29739.5	0.000000	0.000000	6.132783	-0.076383	NaN	0.000000	0.001618	0.001773	28.0819	0.106898	0.002062	51.8483	49.5976	14.909	-0.044196	0.131191	-1.013877	-1.015258	-0.076383	51.8483	-1.012772	-3.370463E+13	2.266241E-15	NaN
1121	1.000000	0.142573	7.37602e+06	-56189.1	1055.82	-29739.5	0.000000	0.000000	6.142787	-0.006584	NaN	0.000000	0.001590	0.001796	28.082	0.087149	0.001979	44.0302	176.666	-167.476	-0.028077	0.141256	-1.003876	-1.005193	-0.006584	44.0302	-1.003764	-2.549414E+13	2.582619E-16	NaN
1121	1.000000	0.152566	7.37602e+06	-56189.1	1055.82	-29739.5	0.000000	0.000000	6.152779	-0.033889	NaN	0.000000	0.001563	0.001763	28.082	0.092187	0.001941	47.4867	-106.553	13.9982	-0.013391	0.151219	-0.993882	-0.995230	-0.033889	47.4867	-0.993347	-1.845820E+13	1.835978E-15	NaN
1121	1.000000	0.162578	7.37602e+06	-56189.1	1055.82	-29739.5	0.000000	0.000000	6.162793	0.008502	NaN	0.000000	0.001605	0.001740	28.0815	0.066104	0.001987	33.2622	82.8054	-168.999	0.002099	0.161304	-0.983871	-0.985145	0.008502	33.2622	-0.984063	-1.384013E+13	-6.142755E-16	NaN
1121	1.000000	0.172557	7.37602e+06	-56189.1	1055.82	-29739.5	0.000000	0.000000	6.172774	0.067122	NaN	0.000000	0.001590	0.001776	28.0818	0.047259	0.002006	23.5599	-59.5101	15.5665	0.038076	0.171228	-0.973892	-0.975221	0.067122	23.5599	-0.976029	-1.078721E+13	-6.222376E-15	NaN
1121	1.000000	0.182576	7.37602e+06	-56189.1	1055.82	-29739.5	0.000000	0.000000	6.182794	0.091109	NaN	0.000000	0.001556	0.001769	28.0818	0.054400	0.001989	27.3444	72.0135	-165.608	0.075237	0.181290	-0.963873	-0.965159	0.091109	27.3444	-0.966372	-7.993949E+12	-1.139730E-14	NaN
1121	1.000000	0.192568	7.37602e+06	-56189.1	1055.82	-29739.5	0.000000	0.000000	6.192781	-0.028676	NaN	0.000000	0.001601	0.001744	28.0822	0.047635	0.001981	24.0414	-71.7613	13.7983	-0.058993	0.191226	-0.953881	-0.955222	-0.028676	24.0414	-0.952986	-5.275890E+12	5.435247E-15	NaN
1121	1.000000	0.202582	7.37602e+06	-56189.1	1055.82	-29739.5	0.000000	0.000000	6.202795	-0.034282	NaN	0.000000	0.001594	0.001685	28.0817	0.057004	0.001939	29.3992	102.26	-163.142	0.039096	0.201286	-0.943867	-0.945162	-0.034282	29.3992	-0.942992	-3.868177E+12	8.862553E-15	NaN
1121	1.000000	0.212616	7.37602e+06	-56189.1	1055.82	-29739.5	0.000000	0.000000	6.212832	0.034673	NaN	0.000000	0.001575	0.001726	28.0819	0.022215	0.002137	10.3964	93.5327	12.6917	0.107455	0.211258	-0.933833	-0.935191	0.034673	10.3964	-0.936334	-3.145398E+12	-1.102350E-14	NaN
1121	1.000000	0.222568	7.37602e+06	-56189.1	1055.82	-29739.5	0.000000	0.000000	6.222784	0.049550	NaN	0.000000	0.001589	0.001721	28.0811	0.035564	0.002139	16.6234	94.0069	-164.973	0.022362	0.221307	-0.923881	-0.925142	0.049550	16.6234	-0.926117	-2.289706E+12	-2.164030E-14	NaN
1121	1.000000	0.232633	7.37602e+06	-56189.1	1055.82	-29739.5	0.000000	0.000000	6.232847	-0.001730	NaN	0.000000	0.001575	0.001695	28.0806	0.109996	0.001930	56.9953	48.0858	12.6488	0.073438	0.231260	-0.913816	-0.915189	-0.001730	56.9953	-0.913793	-1.560963E+12	1.108071E-15	NaN
1121	1.000000	0.242635	7.37602e+06	-56189.1	1055.82	-29739.5	0.000000	0.000000	6.242848	-0.022361	NaN	0.000000	0.001558	0.001723	28.0801	0.071756	0.002051	34.9794	118.629	-166.185	0.041401	0.241283	-0.903814	-0.905166	-0.022361	34.9794	-0.903335	-1.127524E+12	1.983152E-14	NaN
1121	1.000000	0.252599	7.37602e+06	-56189.1	1055.82	-29739.5	0.000000	0.000000	6.252811	-0.064478	NaN	0.000000	0.001580	0.001738	28.0806	0.091710	0.002094	43.7866	138.154	13.3114	-0.075515	0.251269	-0.893850	-0.895180	-0.064478	43.7866	-0.892745	-8.110061E+11	7.950336E-14	NaN
1121	1.000000	0.262602	7.37602e+06	-56189.1	1055.82	-29739.5	0.000000	0.000000	6.262816	-0.001628	NaN	0.000000	0.001581	0.001717	28.0808	0.053998	0.002065	26.1478	118.569	-165.006	-0.033595	0.261304	-0.883847	-0.885145	-0.001628	26.1478	-0.883801	-6.139040E+11	2.651388E-15	NaN
1121	1.000000	0.272607	7.37602e+06	-56189.1	1055.82	-29739.5	0.000000	0.000000	6.272821	-0.010299	NaN	0.000000	0.001578	0.001743	28.0806	0.029387	0.002047	14.3547	-144.628	14.2193	-0.012882	0.271284	-0.873842	-0.875165	-0.010299	14.3547	-0.873304	-4.427304E+11	2.326149E-14	NaN
1121	1.000000	0.282627	7.37602e+06	-56189.1	1055.82	-29739.5	0.000000	0.000000	6.282838	-0.071217	NaN	0.000000	0.001564	0.001721	28.0806	0.115962	0.001900	61.0361	76.5956	-169.307	0.063276	0.281329	-0.863822	-0.865119	-0.071217	61.0361	-0.862947	-3.206289E+11	2.221178E-13	NaN
1121	1.000000	0.292668	7.37602e+06	-56189.1	1055.82	-29739.5	0.000000	0.000000	6.292880	-0.046544	NaN	0.000000	0.001559	0.001722	28.0808	0.056953	0.001974	28.8572	15.1969	15.3546	-0.017850	0.291299	-0.853781	-0.855150	-0.046544	28.8572	-0.852572	-2.320378E+11	2.005895E-13	NaN
1121	1.000000	0.302601	7.37602e+06	-56189.1	1055.82	-29739.5	0.000000	0.000000	6.302813	-0.052006	NaN	0.000000	0.001626	0.001718	28.0807	0.074761	0.002127	35.1432	-95.8525	-167.241	-0.104019	0.301314	-0.843848	-0.845135	-0.052006	35.1432	-0.842738	-1.707577E+11	3.045621E-13	NaN
1121	1.000000	0.312646	7.37602e+06	-56189.1	1055.82	-29739.5	0.000000	0.000000	6.312860	-0.002667	NaN	0.000000	0.001592	0.001707	28.0806	0.118785	0.002151	55.2332	47.4125	16.1265	0.001997	0.311253	-0.833803	-0.835196	-0.002667	55.2332	-0.833767	-1.290740E+11	2.066170E-14	NaN
1121	1.000000	0.322608	7.37602e+06	-56189.1	1055.82	-29739.5	0.000000	0.000000	6.322821	-0.035179	NaN	0.000000	0.001622	0.001711	28.0807	0.078742	0.001923	40.9514	76.4206	-167.526	-0.066757	0.321376	-0.823841	-0.825073	-0.035179	40.9514	-0.823196	-9.280063E+10	3.790819E-13	NaN
1121	1.000000	0.332650	7.37602e+06	-56189.1	1055.82	-29739.5	0.000000	0.000000	6.332865	0.009060	NaN	0.000000	0.001604	0.001741	28.081	0.061610	0.001966	31.331	67.1555	12.4737	-0.010698	0.331296	-0.813799	-0.815153	0.009060	31.331	-0.814016	-6.967053E+10	-1.300375E-13	NaN
1121	1.000000	0.342639	7.37602e+06	-56189.1	1055.82	-29739.5	0.000000	0.000000	6.342851	-0.064106	NaN	0.000000	0.001585	0.001754	28.0808	0.092938	0.001948	47.7049	-123.783	-165.985	-0.019588	0.341335	-0.803810	-0.805114	-0.064106	47.7049	-0.802802	-4.907854E+10	1.306183E-12	NaN
1121	1.000000	0.352659	7.37602e+06	-56189.1	1055.82	-29739.5	0.000000	0.000000	6.352876	0.060508	NaN	0.000000	0.001623	0.001676	28.0808	0.087611	0.002078	42.1595	-82.2266	11.99	0.013859	0.351318	-0.793789	-0.795131	0.060508	42.1595	-0.794866	-3.829666E+10	-1.579968E-12	NaN
1121	1.000000	0.362682	7.37602e+06	-56189.1	1055.82	-29739.5	0.000000	0.000000	6.362896	0.006608	NaN	0.000000	0.001587	0.001710	28.0824	0.077590	0.001879	41.2939	-125.739	-167.521	-0.005290	0.361358	-0.783767	-0.785090	0.006608	41.2939	-0.783887	-2.716759E+10	-2.432310E-13	NaN
1121	1.000000	0.372659	7.37602e+06	-56189.1	1055.82	-29739.5	0.000000	0.000000	6.372872	-0.036625	NaN	0.000000	0.001583	0.001679	28.0821	0.072529	0.001809	40.0951	-134.914	13.9046	-0.078526	0.371241	-0.773790	-0.775208	-0.036625	40.0951	-0.773105	-1.938717E+10	1.889111E-12	NaN
1121	1.000000	0.382665	7.37602e+06	-56189.1	1055.82	-29739.5	0.000000	0.000000	6.382878	-0.031454	NaN	0.000000	0.001604	0.001710	28.0818	0.023656	0.002008	11.7787	24.6297	-167.826	0.005533	0.381389	-0.763784	-0.765060	-0.031454	11.7787	-0.761781	-1.359965E+10	2.312880E-12	NaN
1121	1.000000	0.392695	7.37602e+06	-56189.1	1055.82	-29739.5	0.000000	0.000000	6.392910	0.027022	NaN	0.000000	0.001588	0.001722	28.0821	0.028847	0.002048	14.0884	80.8882	11.6809	-0.052352	0.391301	-0.753754	-0.755148	0.027022	14.0884	-0.755193	-1.106353E+10	-2.442449E-12	NaN
1121	1.000000	0.402699	7.37602e+06	-56189.1	1055.82	-29739.5	0.000000	0.000000	6.402915	0.042805	NaN	0.000000	0.001610	0.001749	28.0819	0.054324	0.001967	27.6137	-82.5166	-166.514	0.070398	0.401372	-0.743750	-0.745077	0.042805	27.6137	-0.744912	-8.015898E+9	-5.339965E-12	NaN
1121	1.000000	0.412676	7.37602e+06	-56189.1	1055.82	-29739.5	0.000000	0.000000	6.412888	-0.067272	NaN	0.000000	0.001597	0.001743	28.082	0.052583	0.002088	25.1815	-138.75	16.5066	-0.029894	0.411339	-0.733773	-0.735110	-0.067272	25.1815	-0.731769	-5.307807E+9	1.267419E-11	NaN
1121	1.000000	0.422696	7.37602e+06	-56189.1	1055.82	-29739.5	0.000000	0.000000	6.422910	0.000167	NaN	0.000000	0.001592	0.001746	28.0816	0.219497	0.002168	101.231	122.261	-167.861	-0.003814	0.421402	-0.723753	-0.725047	0.000167	101.231	-0.723754	-4.127336E+9	-4.048295E-14	NaN
1121	1.000000	0.432703	7.37602e+06	-56189.1	1055.82	-29739.5	0.000000	0.000000	6.432918	0.015312	NaN	0.000000	0.001604	0.001753	28.082	0.095820	0.002040	46.9788	-3.328362	17.0413	-0.018852	0.431346	-0.713746	-0.715103	0.015312	46.9788	-0.713991	-3.037399E+9	-5.041019E-12	NaN
1121	1.000000	0.442683	7.37602e+06	-56189.1	1055.82	-29739.5	0.000000	0.000000	6.442897	-0.009703	NaN	0.000000	0.001580	0.001708	28.082	0.065877	0.001942	33.9271	-12.9019	-166.049	0.051184	0.441392	-0.703766	-0.705057	-0.009703	33.9271	-0.703552	-2.187913E+9	4.434602E-12	NaN
1121	1.000000	0.452713	7.37602e+06	-56189.1	1055.82	-29739.5	0.000000	0.000000	6.452927	0.002657	NaN	0.000000	0.001561	0.001724	28.0817	0.022732	0.001923	11.8215	44.5886	16.0679	-0.011855	0.451356	-0.693736	-0.695093	0.002657	11.8215	-0.693905	-1.615383E+9	-1.644908E-12	NaN
1121	1.000000	0.462721	7.37602e+06	-56189.1	1055.82	-29739.5	0.000000	0.000000	6.462933	-0.069225	NaN	0.000000	0.001615	0.001745	28.0818	0.035560	0.001987	17.8918	-69.7434	-166.167	-0.008668	0.461380	-0.683728	-0.685069	-0.069225	17.8918	-0.680826	-1.070288E+9	6.467880E-11	NaN
1121	1.000000	0.472712	7.37602e+06	-56189.1	1055.82	-29739.5	0.000000	0.000000	6.472925	-0.028272	NaN	0.000000	0.001560	0.001764	28.0817	0.065188	0.001964	33.1887	9.052716	13.0503	-0.054391	0.471288	-0.673737	-0.675161	-0.028272	33.1887	-0.673098	-8.390555E+8	3.369488E-11	NaN
1121	1.000000	0.482723	7.37602e+06	-56189.1	1055.82	-29739.5	0.000000	0.000000	6.482937	0.008681	NaN	0.000000	0.001575	0.001706	28.0821	0.072031	0.002014	35.7718	-172.703	-165.54	0.061408	0.481366	-0.663726	-0.665083	0.008681	35.7718	-0.663908	-6.280472E+8	-1.382220E-11	NaN
1121	1.000000	0.492749	7.37602e+06	-56189.1	1055.82	-29739.5	0.000000	0.000000	6.492965	0.052996	NaN	0.000000	0.001580	0.001731	28.0819	0.058825	0.001953	30.1129	10.3121	14.3609	0.046767	0.491308	-0.653700	-0.655141	0.052996	30.1129	-0.655020	-4.745083E+8	-1.116856E-10	NaN
1121	1.000000	0.502715	7.37602e+06	-56189.1	1055.82	-29739.5	0.000000	0.000000	6.502930	0.027115	NaN	0.000000	0.001586	0.001743	28.0807	0.069476	0.002042	34.0234	56.1729	-168.809	0.017954	0.501433	-0.643734	-0.645016	0.027115	34.0234	-0.644332	-3.386177E+8	-8.007579E-11	NaN
1121	1.000000	0.512740	7.37602e+06	-56189.1	1055.82	-29739.5	0.000000	0.000000	6.512953	-0.030891	NaN	0.000000	0.001604	0.001750	28.0808	0.054436	0.001874	29.0532	165.528	12.457	0.007538	0.511403	-0.633709	-0.635046	-0.030891	29.0532	-0.632911	-2.360459E+8	1.308695E-10	NaN
1121	1.000000	0.522754	7.37602e+06	-56189.1	1055.82	-29739.5	0.000000	0.000000	6.522969	0.033235	NaN	0.000000	0.001581	0.001775	28.081	0.079466	0.002046	38.8363	-169.111	-168.26	-0.031973	0.521479	-0.623695	-0.624970	0.033235	38.8363	-0.624337	-1.799845E+8	-1.846574E-10	NaN
1121	1.000000	0.532738	7.37602e+06	-56189.1	1055.82	-29739.5	0.000000	0.000000	6.532949	-0.073714	NaN	0.000000	0.001572	0.001759	28.0807	0.010237	0.002108	4.856815	-71.8115	13.5354	-0.063966	0.531384	-0.613711	-0.615065	-0.073714	4.856815	-0.602328	-8.964256E+7	8.223115E-10	NaN
1121	1.000000	0.542758	7.37602e+06	-56189.1	1055.82	-29739.5	0.000000	0.000000	6.542972	-0.009440	NaN	0.000000	0.001594	0.001748	28.0807	0.068443	0.002012	34.0156	77.1971	-169.614	0.040062	0.541411	-0.603690	-0.605038	-0.009440	34.0156	-0.603482	-9.298455E+7	1.015207E-10	NaN
1121	1.000000	0.552727	7.37602e+06	-56189.1	1055.82	-29739.5	0.000000	0.000000	6.552943	0.032376	NaN	0.000000	0.001561	0.001768	28.0808	0.127618	0.001878	67.9556	-153.191	11.5614	0.048379	0.551398	-0.593722	-0.595051	0.032376	67.9556	-0.594079	-6.900690E+7	-4.691641E-10	NaN
1121	1.000000	0.562716	7.37602e+06	-56189.1	1055.82	-29739.5	0.000000	0.000000	6.562929	-0.025576	NaN	0.000000	0.001572	0.001790	28.0808	0.039332	0.002081	18.898	85.2789	-165.699	0.088750	0.561449	-0.583733	-0.585000	-0.025576	18.898	-0.582718	-4.810935E+7	5.316283E-10	NaN
1121	1.000000	0.572734	7.37602e+06	-56189.1	1055.82	-29739.5	0.000000	0.000000	6.572945	-0.063345	NaN	0.000000	0.001585	0.001784	28.0809	0.018224	0.001947	9.362345	-17.6861	14.0393	-0.065672	0.571370	-0.573715	-0.575079	-0.063345	9.362345	-0.568641	-3.075031E+7	2.059993E-9	NaN
1121	1.000000	0.582739	7.37602e+06	-56189.1	1055.82	-29739.5	0.000000	0.000000	6.582952	-0.023423	NaN	0.000000	0.001607	0.001749	28.0808	0.019546	0.001960	9.973684	-161.641	-166.277	-0.041424	0.581399	-0.563710	-0.565050	-0.023423	9.973684	-0.561949	-2.485051E+7	9.425621E-10	NaN
1121	1.000000	0.592765	7.37602e+06	-56189.1	1055.82	-29739.5	0.000000	0.000000	6.592975	-0.105329	NaN	0.000000	0.001610	0.001772	28.081	0.067819	0.001693	40.0521	124.313	13.1987	-0.072705	0.591400	-0.553684	-0.555049	-0.105329	40.0521	-0.551712	-1.793334E+7	5.873351E-9	NaN
1121	1.000000	0.602751	7.37602e+06	-56189.1	1055.82	-29739.5	0.000000	0.000000	6.602967	0.043712	NaN	0.000000	0.001627	0.001745	28.0807	0.077146	0.002224	34.693	-165.605	-166.054	0.053401	0.601462	-0.543698	-0.544987	0.043712	34.693	-0.544643	-1.431294E+7	-3.054008E-9	NaN
1121	1.000000	0.612732	7.37602e+06	-56189.1	1055.82	-29739.5	0.000000	0.000000	6.612947	0.037805	NaN	0.000000	0.001578	0.001787	28.081	0.069043	0.002081	33.1726	6.432953	13.6375	-0.053567	0.611372	-0.533717	-0.535077	0.037805	33.1726	-0.534572	-1.037648E+7	-3.643301E-9	NaN
1121	1.000000	0.622754	7.37602e+06	-56189.1	1055.82	-29739.5	0.000000	0.000000	6.622970	0.041945	NaN	0.000000	0.001552	0.001754	28.0811	0.113046	0.001999	56.5488	117.56	-165.437	0.023605	0.621480	-0.523695	-0.524968	0.041945	56.5488	-0.524251	-7.45932e+06	-5.623110E-9	NaN
1121	1.000000	0.632768	7.37602e+06	-56189.1	1055.82	-29739.5	0.000000	0.000000	6.632984	0.042184	NaN	0.000000	0.001570	0.001724	28.0819	0.023547	0.002100	11.2137	81.8997	12.7168	0.022991	0.631420	-0.513681	-0.515029	0.042184	11.2137	-0.516503	-5.82031e+06	-7.247754E-9	NaN
1121	1.000000	0.642779	7.37602e+06	-56189.1	1055.82	-29739.5	0.000000	0.000000	6.642995	0.038820	NaN	0.000000	0.001594	0.001714	28.082	0.106958	0.001964	54.472	71.9377	-169.153	-0.026152	0.641432	-0.503670	-0.505017	0.038820	54.472	-0.504205	-3.92334e+06	-9.894669E-9	NaN
1121	1.000000	0.652827	7.37602e+06	-56189.1	1055.82	-29739.5	0.000000	0.000000	6.653040	-0.029831	NaN	0.000000	0.001584	0.001682	28.0818	0.092148	0.002029	45.421	126.366	16.3231	-0.068024	0.651445	-0.493622	-0.495003	-0.029831	45.421	-0.493129	-2.74857e+06	1.085345E-8	NaN
1121	1.000000	0.662804	7.37602e+06	-56189.1	1055.82	-29739.5	0.000000	0.000000	6.663016	-0.061486	NaN	0.000000	0.001565	0.001748	28.082	0.091131	0.002064	44.143	154.679	-162.091	-0.063814	0.661491	-0.483645	-0.484958	-0.061486	44.143	-0.482600	-1.9585e+06	3.139464E-8	NaN
1121	1.000000	0.672780	7.37602e+06	-56189.1	1055.82	-29739.5	0.000000	0.000000	6.672997	0.051838	NaN	0.000000	0.001612	0.001716	28.082	0.040781	0.002049	19.901	121.836	12.3498	0.036849	0.671368	-0.473669	-0.475081	0.051838	19.901	-0.475622	-1.56393e+06	-3.314591E-8	NaN
1121	1.000000	0.682820	7.37602e+06	-56189.1	1055.82	-29739.5	0.000000	0.000000	6.683036	0.047327	NaN	0.000000	0.001621	0.001770	28.0821	0.109339	0.002033	53.7864	-172.716	-169.255	-0.019904	0.681506	-0.463629	-0.464943	0.047327	53.7864	-0.464289	-1.08459e+06	-4.363539E-8	NaN
1121	1.000000	0.692796	7.37602e+06	-56189.1	1055.82	-29739.5	0.000000	0.000000	6.693009	-0.022946	NaN	0.000000	0.001587	0.001721	28.0819	0.090386	0.002018	44.7791	-103.751	13.7981	-0.067418	0.691419	-0.453653	-0.455030	-0.022946	44.7791	-0.453269	-759199	3.022455E-8	NaN
1121	1.000000	0.702795	7.37602e+06	-56189.1	1055.82	-29739.5	0.000000	0.000000	6.703007	-0.044498	NaN	0.000000	0.001589	0.001762	28.0822	0.064316	0.001975	32.559	-135.517	-162.155	-0.026377	0.701451	-0.443654	-0.444998	-0.044498	32.559	-0.442629	-537604	8.277049E-8	NaN
1121	1.000000	0.712811	7.37602e+06	-56189.1	1055.82	-29739.5	0.000000	0.000000	6.713024	-0.032145	NaN	0.000000	0.001559	0.001745	28.082	0.152242	0.001948	78.1478	171.079	17.363	0.011982	0.711436	-0.433638	-0.435013	-0.032145	78.1478	-0.433329	-397318	8.090584E-8	NaN
1121	1.000000	0.722798	7.37602e+06	-56189.1	1055.82	-29739.5	0.000000	0.000000	6.723012	-0.011145	NaN	0.000000	0.001559	0.001749	28.0819	0.023451	0.001899	12.3505	141.121	-168.778	-0.032587	0.721526	-0.423651	-0.424923	-0.011145	12.3505	-0.422974	-283517	3.931151E-8	NaN
1121	1.000000	0.732806	7.37602e+06	-56189.1	1055.82	-29739.5	0.000000	0.000000	6.733020	-0.010310	NaN	0.000000	0.001553	0.001774	28.0818	0.046063	0.002096	21.9762	100.351	16.207	0.020938	0.731460	-0.413642	-0.414989	-0.010310	21.9762	-0.413291	-206620	4.990045E-8	NaN
1121	1.000000	0.742792	7.37602e+06	-56189.1	1055.82	-29739.5	0.000000	0.000000	6.743006	-0.007934	NaN	0.000000	0.001617	0.001789	28.0819	0.030510	0.002040	14.9546	-121.118	-164.745	-0.035285	0.741564	-0.403657	-0.404885	-0.007934	14.9546	-0.403259	-148746	5.333667E-8	NaN
1121	1.000000	0.752816	7.37602e+06	-56189.1	1055.82	-29739.5	0.000000	0.000000	6.753033	0.084101	NaN	0.000000	0.001595	0.001820	28.0819	0.020247	0.002035	9.947972	-126.492	11.2393	0.126543	0.751465	-0.393633	-0.394984	0.084101	9.947972	-0.399974	-133543	-6.297698E-7	NaN
1121	1.000000	0.762830	7.37602e+06	-56189.1	1055.82	-29739.5	0.000000	0.000000	6.763044	-0.010169	NaN	0.000000	0.001581	0.001803	28.0818	0.049217	0.002112	23.3059	-176.486	-166.386	-0.046791	0.761576	-0.383619	-0.384873	-0.010169	23.3059	-0.383292	-77108.4	1.318847E-7	NaN
1121	1.000000	0.772845	7.37602e+06	-56189.1	1055.82	-29739.5	0.000000	0.000000	6.773057	-0.062488	NaN	0.000000	0.001569	0.001837	28.0808	0.081527	0.001857	43.8972	-172.838	16.1437	0.045147	0.771429	-0.373604	-0.375020	-0.062488	43.8972	-0.372536	-54030.7	1.156530E-6	NaN
1121	1.000000	0.782840	7.37602e+06	-56189.1	1055.82	-29739.5	0.000000	0.000000	6.783055	0.024944	NaN	0.000000	0.001571	0.001804	28.0808	0.033874	0.001967	17.2243	95.3219	-168.398	-0.001227	0.781550	-0.363609	-0.364899	0.024944	17.2243	-0.364695	-41653.6	-5.988463E-7	NaN
1121	1.000000	0.792834	7.37602e+06	-56189.1	1055.82	-29739.5	0.000000	0.000000	6.793048	-0.018545	NaN	0.000000	0.001548	0.001805	28.0808	0.128782	0.001912	67.3721	-146.402	10.6035	-0.062254	0.791492	-0.353615	-0.354957	-0.018545	67.3721	-0.353408	-28604.6	6.483098E-7	NaN
1121	1.000000	0.802871	7.37602e+06	-56189.1	1055.82	-29739.5	0.000000	0.000000	6.803086	0.014393	NaN	0.000000	0.001569	0.001823	28.0804	0.025579	0.002013	12.7057	-55.6365	-161.413	0.029061	0.801570	-0.343577	-0.344879	0.014393	12.7057	-0.344427	-21184.7	-6.794271E-7	NaN
1121	1.000000	0.812872	7.37602e+06	-56189.1	1055.82	-29739.5	0.000000	0.000000	6.813087	0.019226	NaN	0.000000	0.001547	0.001811	28.0809	0.036993	0.001920	19.2669	-78.8896	11.6585	0.038715	0.811462	-0.333577	-0.334987	0.019226	19.2669	-0.334326	-15091.6	-1.273953E-6	NaN
1121	1.000000	0.822877	7.37602e+06	-56189.1	1055.82	-29739.5	0.000000	0.000000	6.823093	0.023639	NaN	0.000000	0.001546	0.001792	28.0805	0.045530	0.002090	21.7849	109.359	-165.901	0.045847	0.821588	-0.323572	-0.324861	0.023639	21.7849	-0.324385	-10792.2	-2.190336E-6	NaN
1121	1.000000	0.832847	7.37602e+06	-56189.1	1055.82	-29739.5	0.000000	0.000000	6.833059	-0.042828	NaN	0.000000	0.001536	0.001778	28.0807	0.085397	0.001986	42.9941	-154.977	14.5379	-0.021909	0.831484	-0.313602	-0.314965	-0.042828	42.9941	-0.312855	-7299.14	5.867481E-6	NaN
1121	1.000000	0.842857	7.37602e+06	-56189.1	1055.82	-29739.5	0.000000	0.000000	6.843071	-0.006732	NaN	0.000000	0.001521	0.001769	28.0806	0.040692	0.002110	19.2827	54.0407	-165.966	-0.028960	0.841567	-0.303592	-0.304882	-0.006732	19.2827	-0.303330	-5274.2	1.276321E-6	NaN
1121	1.000000	0.852857	7.37602e+06	-56189.1	1055.82	-29739.5	0.000000	0.000000	6.853069	-0.065071	NaN	0.000000	0.001534	0.001778	28.0809	0.032187	0.001991	16.1636	116.557	14.1569	-0.004254	0.851488	-0.293592	-0.294961	-0.065071	16.1636	-0.290573	-3403.13	1.912089E-5	NaN
1121	1.000000	0.862872	7.37602e+06	-56189.1	1055.82	-29739.5	0.000000	0.000000	6.863084	-0.064896	NaN	0.000000	0.001535	0.001765	28.0806	0.077284	0.001868	41.3811	57.6712	-166.472	-0.049940	0.861565	-0.283577	-0.284884	-0.064896	41.3811	-0.282401	-2565.41	2.529663E-5	NaN
1121	1.000000	0.872859	7.37602e+06	-56189.1	1055.82	-29739.5	0.000000	0.000000	6.873073	0.001207	NaN	0.000000	0.001519	0.001712	28.0804	0.019297	0.001911	10.1	144.903	11.2631	-0.026451	0.871523	-0.273590	-0.274926	0.001207	10.1	-0.273680	-1894.07	-6.372933E-7	NaN
1121	1.000000	0.882882	7.37602e+06	-56189.1	1055.82	-29739.5	0.000000	0.000000	6.883096	-0.004242	NaN	0.000000	0.001573	0.001756	28.0806	0.010612	0.001967	5.395655	-163.426	-170.39	0.062298	0.881570	-0.263567	-0.264879	-0.004242	5.395655	-0.262977	-1301.63	3.258648E-6	NaN
1121	1.000000	0.892883	7.37602e+06	-56189.1	1055.82	-29739.5	0.000000	0.000000	6.893097	-4.999856E-5	NaN	0.000000	0.001595	0.001754	28.0807	0.045545	0.002110	21.5902	165.744	18.0184	0.013321	0.891534	-0.253566	-0.254915	-4.999856E-5	21.5902	-0.253564	-933.252	5.357456E-8	NaN
1121	1.000000	0.902859	7.37602e+06	-56189.1	1055.82	-29739.5	0.000000	0.000000	6.903072	-0.015448	NaN	0.000000	0.001590	0.001747	28.0805	0.082303	0.001997	41.2143	177.463	-167.877	-0.089040	0.901621	-0.243590	-0.244828	-0.015448	41.2143	-0.243309	-647.368	2.386296E-5	NaN
1121	1.000000	0.912899	7.37602e+06	-56189.1	1055.82	-29739.5	0.000000	0.000000	6.913114	0.010611	NaN	0.000000	0.001565	0.001764	28.0819	0.073972	0.002012	36.7581	-106.374	15.8217	-0.025139	0.911556	-0.233550	-0.234893	0.010611	36.7581	-0.233766	-459.053	-2.311484E-5	NaN
1121	1.000000	0.922881	7.37602e+06	-56189.1	1055.82	-29739.5	0.000000	0.000000	6.923096	0.023266	NaN	0.000000	0.001588	0.001756	28.082	0.011784	0.002110	5.583798	-138.383	-164.956	0.057965	0.921530	-0.223568	-0.224919	0.023266	5.583798	-0.226693	-354.973	-6.554289E-5	NaN
1121	1.000000	0.932909	7.37602e+06	-56189.1	1055.82	-29739.5	0.000000	0.000000	6.933125	0.049642	NaN	0.000000	0.001592	0.001810	28.0821	0.044896	0.002026	22.1624	111.081	11.0974	0.000257	0.931500	-0.213540	-0.214949	0.049642	22.1624	-0.215220	-232.837	-0.000213	NaN
1121	1.000000	0.942908	7.37602e+06	-56189.1	1055.82	-29739.5	0.000000	0.000000	6.943123	0.008930	NaN	0.000000	0.001535	0.001749	28.0817	0.091122	0.002070	44.0104	-73.5369	-164.926	-0.081421	0.941589	-0.203541	-0.204859	0.008930	44.0104	-0.203693	-151.433	-5.896859E-5	NaN
1121	1.000000	0.952914	7.37602e+06	-56189.1	1055.82	-29739.5	0.000000	0.000000	6.953129	0.017272	NaN	0.000000	0.001568	0.001780	28.0822	0.056896	0.001940	29.3307	160.824	15.533	0.025954	0.951592	-0.193535	-0.194857	0.017272	29.3307	-0.193976	-104.769	-0.000165	NaN
1121	1.000000	0.962917	7.37602e+06	-56189.1	1055.82	-29739.5	0.000000	0.000000	6.963130	-0.039982	NaN	0.000000	0.001528	0.001756	28.0819	0.077774	0.002081	37.38	131.176	-165.207	-0.070316	0.961597	-0.183532	-0.184852	-0.039982	37.38	-0.182730	-67.8874	0.000589	NaN
1121	1.000000	0.972912	7.37602e+06	-56189.1	1055.82	-29739.5	0.000000	0.000000	6.973128	0.031152	NaN	0.000000	0.001561	0.001797	28.0821	0.031086	0.001991	15.6149	-166.525	12.584	0.062224	0.971582	-0.173537	-0.174867	0.031152	15.6149	-0.175033	-50.1814	-0.000621	NaN
1121	1.000000	0.982914	7.37602e+06	-56189.1	1055.82	-29739.5	0.000000	0.000000	6.983127	-0.021346	NaN	0.000000	0.001559	0.001805	28.0818	0.099385	0.001972	50.4078	49.6702	-167.409	0.005529	0.981581	-0.163535	-0.164868	-0.021346	50.4078	-0.163217	-31.2563	0.000683	NaN
1121	1.000000	0.992922	7.37602e+06	-56189.1	1055.82	-29739.5	0.000000	0.000000	6.993139	0.067417	NaN	0.000000	0.001547	0.001775	28.082	0.073615	0.002011	36.6024	-59.0392	12.9955	0.013641	0.991586	-0.153527	-0.154863	0.067417	36.6024	-0.154908	-22.2293	-0.003033	NaN
1121	1.000000	1.002946	7.37602e+06	-56189.1	1055.82	-29739.5	0.000000	0.000000	7.003157	-0.098115	NaN	0.000000	0.001582	0.001762	28.082	0.034905	0.002065	16.9004	55.3019	-167.282	-0.063832	1.001571	-0.143502	-0.144878	-0.098115	16.9004	-0.139148	-11.4011	0.008606	NaN
1121	1.000000	1.012926	7.37602e+06	-56189.1	1055.82	-29739.5	0.000000	0.000000	7.013138	-0.068797	NaN	0.000000	0.001565	0.001735	28.0818	0.042594	0.002011	21.1752	-134.333	12.5362	-0.020184	1.011547	-0.133523	-0.134902	-0.068797	21.1752	-0.131086	-7.999511	0.008600	NaN
1121	1.000000	1.022938	7.37602e+06	-56189.1	1055.82	-29739.5	0.000000	0.000000	7.023152	-0.009839	NaN	0.000000	0.001551	0.001785	28.0815	0.076008	0.002016	37.7097	-175.84	-166.996	0.064234	1.021636	-0.123511	-0.124813	-0.009839	37.7097	-0.123315	-5.630580	0.001747	NaN
1121	1.000000	1.032945	7.37602e+06	-56189.1	1055.82	-29739.5	0.000000	0.000000	7.033160	0.005361	NaN	0.000000	0.001517	0.001705	28.082	0.037463	0.001903	19.6813	83.6114	14.9628	0.041544	1.031598	-0.113504	-0.114851	0.005361	19.6813	-0.113708	-3.592478	-0.001492	NaN
1121	1.000000	1.042934	7.37602e+06	-56189.1	1055.82	-29739.5	0.000000	0.000000	7.043148	-0.007592	NaN	0.000000	0.001499	0.001810	28.0805	0.068965	0.002036	33.8667	130.82	-165.251	0.040795	1.041636	-0.103514	-0.104813	-0.007592	33.8667	-0.103346	-2.164228	0.003508	NaN
1121	1.000000	1.052921	7.37602e+06	-56189.1	1055.82	-29739.5	0.000000	0.000000	7.053136	0.017900	NaN	0.000000	0.001513	0.001750	28.0806	0.033006	0.002214	14.9091	-62.4451	13.9326	-0.074584	1.051559	-0.093528	-0.094890	0.017900	14.9091	-0.094428	-1.368871	-0.013077	NaN
1121	1.000000	1.062924	7.37602e+06	-56189.1	1055.82	-29739.5	0.000000	0.000000	7.063137	-0.026260	NaN	0.000000	0.001546	0.001770	28.0804	0.059269	0.001995	29.7117	86.6706	-166.244	0.001231	1.061648	-0.083525	-0.084801	-0.026260	29.7117	-0.082862	-0.728752	0.036034	NaN
1121	1.000000	1.072940	7.37602e+06	-56189.1	1055.82	-29739.5	0.000000	0.000000	7.073153	-0.031451	NaN	0.000000	0.001579	0.001717	28.0806	0.043841	0.001979	22.1497	-174.975	15.8053	-0.031834	1.071623	-0.073509	-0.074826	-0.031451	22.1497	-0.072444	-0.396104	0.079400	NaN
1121	1.000000	1.082959	7.37602e+06	-56189.1	1055.82	-29739.5	0.000000	0.000000	7.083174	0.016425	NaN	0.000000	0.001568	0.001736	28.0803	0.118343	0.001919	61.6716	-171.421	-162.982	0.035478	1.081646	-0.063490	-0.064803	0.016425	61.6716	-0.063690	-0.229123	-0.071686	NaN
1121	1.000000	1.092970	7.37602e+06	-56189.1	1055.82	-29739.5	0.000000	0.000000	7.093183	-0.016057	NaN	0.000000	0.001645	0.001709	28.0804	0.023253	0.001895	12.2734	-67.895	15.3441	0.038662	1.091613	-0.053479	-0.054836	-0.016057	12.2734	-0.052498	-0.108495	0.147997	NaN
1121	1.000000	1.102962	7.37602e+06	-56189.1	1055.82	-29739.5	0.000000	0.000000	7.103177	0.002743	NaN	0.000000	0.001639	0.001779	28.0807	0.064864	0.002064	31.4334	55.7366	-163.593	0.029206	1.101684	-0.043487	-0.044765	0.002743	31.4334	-0.043552	-0.058037	-0.047266	NaN
1121	1.000000	1.112948	7.37602e+06	-56189.1	1055.82	-29739.5	0.000000	0.000000	7.113162	0.011867	NaN	0.000000	0.001638	0.001793	28.0803	0.086011	0.002030	42.3777	27.6297	11.4978	-0.010855	1.111684	-0.033501	-0.034765	0.011867	42.3777	-0.033711	-0.029360	-0.404180	NaN
1121	1.000000	1.122960	7.37602e+06	-56189.1	1055.82	-29739.5	0.000000	0.000000	7.123175	0.023412	NaN	0.000000	0.001656	0.001787	28.0805	0.032526	0.002077	15.6609	167.714	-169.519	0.051295	1.121720	-0.023489	-0.024729	0.023412	15.6609	-0.024610	-0.016480	-1.420644	NaN
1121	1.000000	1.132971	7.37602e+06	-56189.1	1055.82	-29739.5	0.000000	0.000000	7.133182	-0.074208	NaN	0.000000	0.001646	0.001789	28.0805	0.006680	0.001920	3.480219	-17.561	13.0636	-0.042946	1.131642	-0.013478	-0.014806	-0.074208	3.480219	0.002514	0.001975	-37.5772	71.5511
1121	1.000000	1.142981	7.37602e+06	-56189.1	1055.82	-29739.5	0.000000	0.000000	7.143195	-0.000640	NaN	0.000000	0.001648	0.001780	28.0807	0.060837	0.001762	34.5308	174.57	-167.435	0.049353	1.141666	-0.003468	-0.004783	-0.000640	34.5308	-0.003454	-0.002422	0.264080	NaN
1121	1.000000	1.152931	7.37602e+06	-56189.1	1055.82	-29739.5	0.000000	0.000000	7.153439	7.134935	NaN	0.000000	0.001625	0.001755	28.0805	7.522015	0.001771	4248.34	13.8345	4.884241	5.029879	1.151592	0.006482	0.005143	7.134935	4248.34	0.005223	0.004337	1644.95	58935
1121	2.000000	1.156528	7.37602e+06	-56189.1	1055.82	-29739.5	0.000000	0.000000	7.157170	10.4086	NaN	0.000000	0.001605	0.001726	28.0806	10.9005	0.001757	6204.32	10.2369	-175.099	10.0381	1.156254	0.010079	0.009805	10.4086	6204.32	0.008821	0.007900	1317.5	63774.4
1121	2.000000	1.159062	7.37602e+06	-56189.1	1055.82	-29739.5	0.000000	0.000000	7.159844	13.7942	NaN	0.000000	0.001608	0.001734	28.0813	12.8321	0.001701	7545.19	7.483876	6.551094	12.8855	1.158714	0.012613	0.012265	13.7942	7545.19	0.011242	0.010595	1301.95	66971.8
1121	2.000000	1.161542	7.37602e+06	-56189.1	1055.82	-29739.5	0.000000	0.000000	7.162453	16.942	NaN	0.000000	0.001621	0.001773	28.0819	15.2984	0.001662	9204.35	9.606430	-177.572	16.4458	1.161196	0.015093	0.014747	16.942	9204.35	0.013712	0.013606	1245.16	72093.6
1121	2.000000	1.163992	7.37602e+06	-56189.1	1055.82	-29739.5	0.000000	0.000000	7.165027	19.9476	NaN	0.000000	0.001639	0.001755	28.082	17.776	0.001675	10613.1	8.046794	1.538478	18.3976	1.163708	0.017543	0.017259	19.9476	10613.1	0.016133	0.016827	1185.49	74751.2
1121	2.000000	1.166548	7.37602e+06	-56189.1	1055.82	-29739.5	0.000000	0.000000	7.167818	25.6434	NaN	0.000000	0.001607	0.001755	28.0818	21.0803	0.001793	11754	7.066526	-177.507	25.9592	1.166167	0.020100	0.019718	25.6434	11754	0.018463	0.020185	1270.43	75586.7
1121	2.000000	1.169039	7.37602e+06	-56189.1	1055.82	-29739.5	0.000000	0.000000	7.170545	31.4	NaN	0.000000	0.001637	0.001723	28.0823	23.1363	0.001669	13863.5	7.798083	-0.490616	30.2858	1.168601	0.022590	0.022153	31.4	13863.5	0.020891	0.023963	1310.38	81823.7
1121	2.000000	1.171458	7.37602e+06	-56189.1	1055.82	-29739.5	0.000000	0.000000	7.173177	36.5649	NaN	0.000000	0.001617	0.001740	28.082	25.0623	0.001775	14122.9	6.024534	-179.095	35.1676	1.171177	0.025009	0.024728	36.5649	14122.9	0.023068	0.027594	1325.12	77676.8
1121	2.000000	1.173977	7.37602e+06	-56189.1	1055.82	-29739.5	0.000000	0.000000	7.175937	42.422	NaN	0.000000	0.001593	0.001734	28.082	28.3422	0.001876	15111.5	4.567751	1.918920	40.739	1.173590	0.027528	0.027141	42.422	15111.5	0.025423	0.031789	1334.48	77435.5
1121	2.000000	1.176461	7.37602e+06	-56189.1	1055.82	-29739.5	0.000000	0.000000	7.178812	51.9454	NaN	0.000000	0.001624	0.001774	28.0819	31.1543	0.001872	16642.4	7.230816	178.692	50.9603	1.176162	0.030012	0.029713	51.9454	16642.4	0.027671	0.036054	1440.75	80077.5
1121	2.000000	1.178960	7.37602e+06	-56189.1	1055.82	-29739.5	0.000000	0.000000	7.181531	57.2923	NaN	0.000000	0.001647	0.001770	28.082	32.5496	0.001856	17533.2	6.799668	-0.011113	55.0582	1.178626	0.032511	0.032177	57.2923	17533.2	0.030060	0.040868	1401.88	79239.2
1121	2.000000	1.181458	7.37602e+06	-56189.1	1055.82	-29739.5	0.000000	0.000000	7.184309	64.0899	NaN	0.000000	0.001629	0.001756	28.0822	34.7477	0.001802	19282.7	3.975663	-179.989	62.6624	1.181215	0.035009	0.034766	64.0899	19282.7	0.032516	0.046121	1389.6	82033.6
1121	2.000000	1.183960	7.37602e+06	-56189.1	1055.82	-29739.5	0.000000	0.000000	7.187209	73.7581	NaN	0.000000	0.001640	0.001754	28.0819	37.9758	0.001848	20549.5	5.989551	-2.311561	71.7932	1.183603	0.037511	0.037154	73.7581	20549.5	0.034819	0.051326	1437.04	82871.1
1121	2.000000	1.186461	7.37602e+06	-56189.1	1055.82	-29739.5	0.000000	0.000000	7.190151	84.5018	NaN	0.000000	0.001675	0.001754	28.0825	39.735	0.001738	22860.6	4.992588	176.984	82.6349	1.186145	0.040012	0.039696	84.5018	22860.6	0.037239	0.057089	1480.19	87414.8
1121	2.000000	1.188982	7.37602e+06	-56189.1	1055.82	-29739.5	0.000000	0.000000	7.192971	91.7466	NaN	0.000000	0.001614	0.001716	28.082	41.261	0.001856	22228.9	2.421282	1.439104	89.9691	1.188643	0.042533	0.042194	91.7466	22228.9	0.039437	0.062583	1466.01	81183
1121	2.000000	1.191462	7.37602e+06	-56189.1	1055.82	-29739.5	0.000000	0.000000	7.195879	102.142	NaN	0.000000	0.001678	0.001695	28.0825	43.7926	0.001757	24920.5	5.871726	175.928	101.893	1.191083	0.045013	0.044634	102.142	24920.5	0.041939	0.069136	1477.4	86592
1121	2.000000	1.193906	7.37602e+06	-56189.1	1055.82	-29739.5	0.000000	0.000000	7.198644	109.957	NaN	0.000000	0.001664	0.001740	28.0817	46.2683	0.001665	27794.3	2.161189	-1.569426	107.058	1.193639	0.047457	0.047190	109.957	27794.3	0.044490	0.076147	1444.01	92024.3
1121	2.000000	1.196442	7.37602e+06	-56189.1	1055.82	-29739.5	0.000000	0.000000	7.201637	121.057	NaN	0.000000	0.001600	0.001730	28.0812	51.2735	0.001765	29045.3	8.368398	171.869	120.002	1.196197	0.049993	0.049748	121.057	29045.3	0.046867	0.082977	1458.93	92123.3
1121	2.000000	1.198929	7.37602e+06	-56189.1	1055.82	-29739.5	0.000000	0.000000	7.204548	131.371	NaN	0.000000	0.001583	0.001741	28.0809	52.3657	0.001839	28476	7.194536	-5.946286	128.183	1.198576	0.052481	0.052127	131.371	28476	0.049020	0.089409	1469.32	87008.3
1121	2.000000	1.201415	7.37602e+06	-56189.1	1055.82	-29739.5	0.000000	0.000000	7.207411	140.54	NaN	0.000000	0.001568	0.001746	28.0846	54.4123	0.001870	29100.6	1.643010	178.57	137.253	1.201210	0.054966	0.054761	140.54	29100.6	0.051344	0.096614	1454.67	85537.4
1121	2.000000	1.203922	7.37602e+06	-56189.1	1055.82	-29739.5	0.000000	0.000000	7.210488	154.406	NaN	0.000000	0.001553	0.001735	28.0815	56.9493	0.001840	30946.3	4.213512	-3.413136	152.387	1.203540	0.057473	0.057091	154.406	30946.3	0.053731	0.104293	1480.51	87549.8
1121	2.000000	1.206410	7.37602e+06	-56189.1	1055.82	-29739.5	0.000000	0.000000	7.213686	171.636	NaN	0.000000	0.001531	0.001763	28.0817	59.0145	0.001773	33286.6	3.207411	176.76	171.143	1.206128	0.059961	0.059679	171.636	33286.6	0.056094	0.112176	1530.06	90801.3
1121	2.000000	1.208892	7.37602e+06	-56189.1	1055.82	-29739.5	0.000000	0.000000	7.216765	186.152	NaN	0.000000	0.001552	0.001745	28.0808	61.7799	0.001803	34266.1	3.789876	-4.124399	180.002	1.208593	0.062443	0.062144	186.152	34266.1	0.058369	0.120023	1550.96	90366
1121	2.000000	1.211504	7.37602e+06	-56189.1	1055.82	-29739.5	0.000000	0.000000	7.219636	192.45	NaN	0.000000	0.001577	0.001783	28.081	64.3223	0.001702	37790.3	5.159455	173.898	197.359	1.211181	0.065055	0.064732	192.45	37790.3	0.061236	0.130277	1477.24	95657.5
1121	2.000000	1.213909	7.37602e+06	-56189.1	1055.82	-29739.5	0.000000	0.000000	7.222914	213.672	NaN	0.000000	0.001564	0.001778	28.0807	66.8944	0.001782	37545.2	2.051286	-3.486419	210.277	1.213611	0.067460	0.067162	213.672	37545.2	0.063192	0.137502	1553.95	92506.7
1121	2.000000	1.216465	7.37602e+06	-56189.1	1055.82	-29739.5	0.000000	0.000000	7.226068	228.212	NaN	0.000000	0.001602	0.001738	28.0808	70.9267	0.001938	36604.4	5.226629	174.565	229.183	1.216009	0.070017	0.069560	228.212	36604.4	0.065341	0.145653	1566.82	87628.8
1121	2.000000	1.218980	7.37602e+06	-56189.1	1055.82	-29739.5	0.000000	0.000000	7.229024	238.936	NaN	0.000000	0.001595	0.001773	28.0807	70.9816	0.001810	39213.3	2.115398	-3.451156	239.711	1.218773	0.072531	0.072324	238.936	39213.3	0.067961	0.155892	1532.7	90739.3
1121	2.000000	1.221419	7.37602e+06	-56189.1	1055.82	-29739.5	0.000000	0.000000	7.232356	260.657	NaN	0.000000	0.001573	0.001776	28.0808	73.1948	0.001782	41063.9	2.705942	175.915	260.206	1.221076	0.074970	0.074627	260.657	41063.9	0.070209	0.164939	1580.32	92378.6
1121	2.000000	1.223881	7.37602e+06	-56189.1	1055.82	-29739.5	0.000000	0.000000	7.235430	275.499	NaN	0.000000	0.001579	0.001785	28.0809	76.2051	0.001839	41441.6	1.421182	-3.021002	272.029	1.223543	0.077432	0.077094	275.499	41441.6	0.072446	0.174182	1581.67	90721.1
1121	2.000000	1.226462	7.37602e+06	-56189.1	1055.82	-29739.5	0.000000	0.000000	7.238353	283.838	NaN	0.000000	0.001558	0.001733	28.0806	78.7366	0.001802	43696	3.755395	173.998	286.111	1.226190	0.080013	0.079741	283.838	43696	0.075141	0.185627	1529.08	92660.5
1121	2.000000	1.228946	7.37602e+06	-56189.1	1055.82	-29739.5	0.000000	0.000000	7.241778	306.699	NaN	0.000000	0.001550	0.001754	28.082	81.1785	0.001832	44319	6.588058	-8.765469	305.269	1.228513	0.082497	0.082064	306.699	44319	0.077307	0.195075	1572.21	91677.2
1121	2.000000	1.231444	7.37602e+06	-56189.1	1055.82	-29739.5	0.000000	0.000000	7.244686	316.668	NaN	0.000000	0.001537	0.001757	28.0821	83.0231	0.001757	47260.3	3.279565	174.194	318.667	1.231130	0.084995	0.084681	316.668	47260.3	0.079970	0.206992	1529.86	94905.9
1121	2.000000	1.233889	7.37602e+06	-56189.1	1055.82	-29739.5	0.000000	0.000000	7.248162	341.728	NaN	0.000000	0.001541	0.001790	28.0822	86.4924	0.001784	48495	6.878022	-9.858051	339.539	1.233518	0.087440	0.087069	341.728	48495	0.082155	0.217017	1574.66	95109.4
1121	2.000000	1.236432	7.37602e+06	-56189.1	1055.82	-29739.5	0.000000	0.000000	7.251134	352.163	NaN	0.000000	0.001606	0.001759	28.0819	89.042	0.001778	50091.3	1.938993	174.397	353.15	1.236304	0.089983	0.089855	352.163	50091.3	0.084710	0.229020	1537.69	95630.9
1121	2.000000	1.238825	7.37602e+06	-56189.1	1055.82	-29739.5	0.000000	0.000000	7.254602	378.289	NaN	0.000000	0.001612	0.001765	28.0818	90.373	0.001719	52580.1	5.579416	-9.211061	370.977	1.238573	0.092376	0.092124	378.289	52580.1	0.086980	0.239940	1576.6	98071.7
1121	2.000000	1.241355	7.37602e+06	-56189.1	1055.82	-29739.5	0.000000	0.000000	7.257889	396.684	NaN	0.000000	0.001589	0.001763	28.0821	90.7179	0.001651	54937.2	2.434751	173.546	394.892	1.241181	0.094906	0.094732	396.684	54937.2	0.089490	0.252287	1572.35	99929.3
1121	2.000000	1.244104	7.37602e+06	-56189.1	1055.82	-29739.5	0.000000	0.000000	7.261162	409.41	NaN	0.000000	0.001568	0.001799	28.0819	94.9617	0.001780	53358.4	6.795999	-9.616552	419.384	1.243473	0.097655	0.097024	409.41	53358.4	0.091901	0.264417	1548.35	94805
1121	2.000000	1.246471	7.37602e+06	-56189.1	1055.82	-29739.5	0.000000	0.000000	7.263858	417.414	NaN	0.000000	0.001588	0.001773	28.0819	97.9786	0.001909	51320	3.752776	172.85	419.39	1.246197	0.100022	0.099749	417.414	51320	0.093922	0.274795	1519	89445
1121	2.000000	1.248838	7.37602e+06	-56189.1	1055.82	-29739.5	0.000000	0.000000	7.267882	457.695	NaN	0.000000	0.001647	0.001795	28.0818	98.9954	0.001815	54552.1	2.111045	-5.494558	450.934	1.248458	0.102389	0.102010	457.695	54552.1	0.096097	0.286167	1599.4	93169.9
1121	2.000000	1.251358	7.37602e+06	-56189.1	1055.82	-29739.5	0.000000	0.000000	7.271127	475.309	NaN	0.000000	0.001636	0.001770	28.0821	100.799	0.001726	58404.1	1.019232	175.419	471.664	1.251001	0.104910	0.104552	475.309	58404.1	0.098806	0.300635	1581.02	97318.8
1121	2.000000	1.252924	7.37602e+06	-56189.1	1055.82	-29739.5	0.000000	0.000000	7.272717	475.879	NaN	0.000000	0.001675	0.001778	28.0819	105.089	0.001874	56073.4	2.169729	-5.894741	475.492	1.252666	0.106476	0.106217	475.879	56073.4	0.100111	0.307722	1546.46	92352.8