File: remote_trans/data/nanoindenter/0828-1/data/Data_2025-08-06,11h17m57s/2025-07-22_16-23-58_1_297.txt
2025-07-22, 16:23:58, 1
Index	Phase	Displacement	Time	Pos X	Pos Y	Pos Z	Rot A	Rot B	Piezo Z	Force A	Force B	Gripper	Voltage A	Voltage B	Temperature	Amplitude force	Amplitude pos	Stiffness	Phase shift	Phase excitation	Force A raw	Displacement raw	HMax	HMax raw	Real Force	Real Stiffness	Contact Depth	Area	Hardness	Reduced Mod.
[#]	[#]	[um]	[s]	[um]	[um]	[um]	[m°]	[m°]	[um]	[uN]	[uN]	[V]	[V]	[V]	[°C]	[uN]	[um]	[N/m]	[°]	[°]	[uN]	[um]	[um]	[um]	[uN]	[N/m]	[um]	[um^2]	[MPa]	[MPa]
297	1.000000	0.002425	7.36796e+06	-53489.1	955.819	-29745.9	0.000000	0.000000	6.002784	-0.001164	NaN	0.000000	0.001639	0.001725	28.077	0.059134	0.000912	64.8555	-50.8512	-165.454	-0.024499	0.001146	-1.706699	-1.707979	-0.001164	64.8555	-1.706686	-6.240966E+22	1.865720E-26	NaN
297	1.000000	0.014441	7.36796e+06	-53489.1	955.819	-29745.9	0.000000	0.000000	6.014802	0.032689	NaN	0.000000	0.001621	0.001776	28.0765	0.088423	0.001611	54.8712	24.8146	-165.967	0.077668	0.013281	-1.694683	-1.695843	0.032689	54.8712	-1.695130	-4.382663E+22	-7.458804E-25	NaN
297	1.000000	0.026431	7.36796e+06	-53489.1	955.82	-29745.9	0.000000	0.000000	6.026792	0.040104	NaN	0.000000	0.001597	0.001727	28.0761	0.037934	0.001978	19.1765	69.3897	-166.363	-0.068083	0.025047	-1.682693	-1.684077	0.040104	19.1765	-1.684261	-3.142989E+22	-1.275986E-24	NaN
297	1.000000	0.038379	7.36796e+06	-53489.1	955.818	-29745.9	0.000000	0.000000	6.038741	0.061985	NaN	0.000000	0.001580	0.001697	28.0762	0.023038	0.001918	12.0116	3.395270	-164.513	0.090607	0.037084	-1.670745	-1.672040	0.061985	12.0116	-1.674616	-2.339775E+22	-2.649194E-24	NaN
297	1.000000	0.050390	7.36796e+06	-53489.1	955.819	-29745.9	0.000000	0.000000	6.050750	0.034794	NaN	0.000000	0.001591	0.001761	28.0763	0.202623	0.001909	106.124	71.5201	-165.34	0.041914	0.049069	-1.658735	-1.660055	0.034794	106.124	-1.658981	-1.450088E+22	-2.399468E-24	NaN
297	1.000000	0.062391	7.36796e+06	-53489.1	955.818	-29745.9	0.000000	0.000000	6.062749	-0.028312	NaN	0.000000	0.001628	0.001753	28.0762	0.135477	0.001946	69.6193	-88.254	-167.942	-0.128046	0.061022	-1.646733	-1.648102	-0.028312	69.6193	-1.646428	-9.875442E+21	2.866865E-24	NaN
297	1.000000	0.074406	7.36796e+06	-53489.1	955.819	-29745.9	0.000000	0.000000	6.074766	-0.000526	NaN	0.000000	0.001647	0.001736	28.0762	0.027144	0.001988	13.6554	129.662	-167.114	-0.065037	0.073029	-1.634718	-1.636096	-0.000526	13.6554	-1.634689	-6.894433E+21	7.633697E-26	NaN
297	1.000000	0.086389	7.36796e+06	-53489.1	955.818	-29745.9	0.000000	0.000000	6.086748	0.003554	NaN	0.000000	0.001641	0.001713	28.0776	0.025726	0.001931	13.3205	141.729	-163.88	0.041143	0.085059	-1.622736	-1.624066	0.003554	13.3205	-1.622936	-4.810971E+21	-7.388019E-25	NaN
297	1.000000	0.098394	7.36796e+06	-53489.1	955.818	-29745.9	0.000000	0.000000	6.098753	-0.001576	NaN	0.000000	0.001591	0.001701	28.078	0.073866	0.002006	36.8291	-68.0206	-162.677	0.058679	0.097105	-1.610730	-1.612019	-0.001576	36.8291	-1.610698	-3.307546E+21	4.765625E-25	NaN
297	1.000000	0.110382	7.36796e+06	-53489.1	955.818	-29745.9	0.000000	0.000000	6.110740	-0.019191	NaN	0.000000	0.001607	0.001698	28.0781	0.086881	0.001843	47.1529	-62.0295	-167.994	-0.047131	0.109080	-1.598743	-1.600044	-0.019191	47.1529	-1.598437	-2.272175E+21	8.445891E-24	NaN
297	1.000000	0.122402	7.36796e+06	-53489.1	955.819	-29745.9	0.000000	0.000000	6.122761	0.006551	NaN	0.000000	0.001624	0.001713	28.0778	0.080152	0.001994	40.1897	-84.1936	-165.944	0.019782	0.121143	-1.586723	-1.587981	0.006551	40.1897	-1.586845	-1.593101E+21	-4.111835E-24	NaN
297	1.000000	0.134427	7.36796e+06	-53489.1	955.819	-29745.9	0.000000	0.000000	6.134788	0.026169	NaN	0.000000	0.001632	0.001643	28.0777	0.084182	0.001966	42.8224	-100.153	-164.429	0.004714	0.133146	-1.574697	-1.575978	0.026169	42.8224	-1.575155	-1.113603E+21	-2.349931E-23	NaN
297	1.000000	0.146415	7.36796e+06	-53489.1	955.818	-29745.9	0.000000	0.000000	6.146773	-0.016576	NaN	0.000000	0.001646	0.001643	28.0777	0.033599	0.001994	16.8528	85.8982	-166.877	0.070224	0.145093	-1.562710	-1.564031	-0.016576	16.8528	-1.561972	-7.435629E+20	2.229323E-23	NaN
297	1.000000	0.158416	7.36797e+06	-53489.1	955.818	-29745.9	0.000000	0.000000	6.158774	-0.016330	NaN	0.000000	0.001628	0.001674	28.0778	0.032883	0.001934	17.0059	-170.658	-167.164	-0.097075	0.157170	-1.550708	-1.551954	-0.016330	17.0059	-1.549988	-5.150381E+20	3.170689E-23	NaN
297	1.000000	0.170451	7.36797e+06	-53489.1	955.819	-29745.9	0.000000	0.000000	6.170811	0.023537	NaN	0.000000	0.001635	0.001630	28.078	0.104318	0.001853	56.2897	122.362	-168.266	0.025875	0.169126	-1.538673	-1.539998	0.023537	56.2897	-1.538987	-3.676318E+20	-6.402208E-23	NaN
297	1.000000	0.182440	7.36797e+06	-53489.1	955.819	-29745.9	0.000000	0.000000	6.182800	0.003851	NaN	0.000000	0.001590	0.001691	28.078	0.066136	0.002083	31.7476	-1.074679	-165.029	0.008791	0.181120	-1.526684	-1.528004	0.003851	31.7476	-1.526775	-2.528390E+20	-1.523058E-23	NaN
297	1.000000	0.194448	7.36797e+06	-53489.1	955.818	-29745.9	0.000000	0.000000	6.194807	-0.000756	NaN	0.000000	0.001601	0.001655	28.0779	0.023008	0.002042	11.2697	-76.773	-164.906	0.056220	0.193131	-1.514676	-1.515993	-0.000756	11.2697	-1.514626	-1.742160E+20	4.337191E-24	NaN
297	1.000000	0.206442	7.36797e+06	-53489.1	955.819	-29745.9	0.000000	0.000000	6.206800	-0.030661	NaN	0.000000	0.001613	0.001697	28.0782	0.033481	0.001938	17.2734	93.4428	-166.531	-0.058491	0.205143	-1.502682	-1.503982	-0.030661	17.2734	-1.501351	-1.159581E+20	2.644143E-22	NaN
297	1.000000	0.218452	7.36797e+06	-53489.1	955.818	-29745.9	0.000000	0.000000	6.218810	-0.046792	NaN	0.000000	0.001604	0.001637	28.078	0.069508	0.002113	32.8981	125.631	-165.588	-0.014302	0.217123	-1.490672	-1.492001	-0.046792	32.8981	-1.489605	-8.088393E+19	5.785025E-22	NaN
297	1.000000	0.230457	7.36797e+06	-53489.1	955.817	-29745.9	0.000000	0.000000	6.230818	0.028497	NaN	0.000000	0.001640	0.001648	28.0766	0.050025	0.002098	23.8413	94.4803	-167.532	0.080186	0.229125	-1.478667	-1.479999	0.028497	23.8413	-1.479563	-5.944133E+19	-4.794139E-22	NaN
297	1.000000	0.242452	7.36797e+06	-53489.1	955.82	-29745.9	0.000000	0.000000	6.242809	-0.046912	NaN	0.000000	0.001670	0.001639	28.0765	0.080266	0.001918	41.8419	42.476	-165.063	-0.031002	0.241174	-1.466673	-1.467950	-0.046912	41.8419	-1.465832	-3.900631E+19	1.202666E-21	NaN
297	1.000000	0.254449	7.36797e+06	-53489.1	955.818	-29745.9	0.000000	0.000000	6.254803	-0.122047	NaN	0.000000	0.001689	0.001658	28.0765	0.018706	0.001885	9.922804	-83.9389	-165.301	-0.068598	0.253160	-1.454675	-1.455964	-0.122047	9.922804	-1.445450	-2.086929E+19	5.848175E-21	NaN
297	1.000000	0.266502	7.36797e+06	-53489.1	955.818	-29745.9	0.000000	0.000000	6.266862	0.023760	NaN	0.000000	0.001620	0.001653	28.0765	0.100765	0.002021	49.8698	80.2395	-167.836	0.020409	0.265183	-1.442622	-1.443942	0.023760	49.8698	-1.442980	-1.934529E+19	-1.228203E-21	NaN
297	1.000000	0.278458	7.36797e+06	-53489.1	955.82	-29745.8	0.000000	0.000000	6.278817	-0.003803	NaN	0.000000	0.001607	0.001637	28.0765	0.046306	0.002002	23.1256	68.4535	-164.918	0.024261	0.277176	-1.430666	-1.431948	-0.003803	23.1256	-1.430543	-1.320615E+19	2.880057E-22	NaN
297	1.000000	0.290480	7.36797e+06	-53489.1	955.82	-29745.8	0.000000	0.000000	6.290840	0.026720	NaN	0.000000	0.001619	0.001679	28.0766	0.057672	0.001908	30.2198	-125.088	-168.495	0.080666	0.289156	-1.418645	-1.419968	0.026720	30.2198	-1.419308	-9.353468E+18	-2.856748E-21	NaN
297	1.000000	0.302490	7.36797e+06	-53489.1	955.818	-29745.8	0.000000	0.000000	6.302850	0.003677	NaN	0.000000	0.001598	0.001651	28.0765	0.005911	0.002047	2.887471	-62.3464	-165.546	0.042775	0.301181	-1.406634	-1.407943	0.003677	2.887471	-1.407589	-6.526632E+18	-5.633499E-22	NaN
297	1.000000	0.314485	7.36797e+06	-53489.1	955.818	-29745.8	0.000000	0.000000	6.314843	-0.031010	NaN	0.000000	0.001609	0.001627	28.0767	0.068125	0.002036	33.4611	-112.751	-163.254	-0.063861	0.313168	-1.394639	-1.395956	-0.031010	33.4611	-1.393944	-4.292238E+18	7.224730E-21	NaN
297	1.000000	0.326512	7.36797e+06	-53489.1	955.817	-29745.8	0.000000	0.000000	6.326869	-0.044762	NaN	0.000000	0.001608	0.001662	28.0765	0.078990	0.002119	37.2753	-101.102	-166.27	-0.026697	0.325200	-1.382613	-1.383925	-0.044762	37.2753	-1.381712	-2.947704E+18	1.518534E-20	NaN
297	1.000000	0.338507	7.36797e+06	-53489.1	955.817	-29745.8	0.000000	0.000000	6.338867	0.033229	NaN	0.000000	0.001623	0.001664	28.0766	0.077602	0.001980	39.1914	79.3608	-167.346	-0.041345	0.337190	-1.370617	-1.371934	0.033229	39.1914	-1.371253	-2.137566E+18	-1.554502E-20	NaN
297	1.000000	0.350535	7.36797e+06	-53489.1	955.819	-29745.8	0.000000	0.000000	6.350894	-0.017564	NaN	0.000000	0.001660	0.001716	28.0767	0.089050	0.001914	46.5313	-104.144	-164.905	-0.098908	0.349197	-1.358589	-1.359927	-0.017564	46.5313	-1.358306	-1.435844E+18	1.223243E-20	NaN
297	1.000000	0.362505	7.36797e+06	-53489.1	955.819	-29745.8	0.000000	0.000000	6.362862	-0.043994	NaN	0.000000	0.001686	0.001604	28.0775	0.039675	0.001948	20.3674	171.334	-164.994	-0.083060	0.361210	-1.346619	-1.347915	-0.043994	20.3674	-1.344999	-9.538175E+17	4.612426E-20	NaN
297	1.000000	0.374496	7.36797e+06	-53489.1	955.818	-29745.8	0.000000	0.000000	6.374855	-0.011697	NaN	0.000000	0.001663	0.001623	28.0779	0.076364	0.001946	39.2395	129.879	-165.297	-0.105450	0.373225	-1.334628	-1.335899	-0.011697	39.2395	-1.334405	-6.886464E+17	1.698558E-20	NaN
297	1.000000	0.386528	7.36797e+06	-53489.1	955.817	-29745.8	0.000000	0.000000	6.386884	-0.071211	NaN	0.000000	0.001687	0.001652	28.0776	0.095362	0.002058	46.3353	146.339	-166.984	-0.073565	0.385257	-1.322596	-1.323868	-0.071211	46.3353	-1.321444	-4.622645E+17	1.540492E-19	NaN
297	1.000000	0.398531	7.36797e+06	-53489.1	955.819	-29745.8	0.000000	0.000000	6.398890	0.004978	NaN	0.000000	0.001697	0.001659	28.0779	0.060400	0.002031	29.7397	60.3176	-169.158	0.055260	0.397207	-1.310593	-1.311917	0.004978	29.7397	-1.310719	-3.323680E+17	-1.497766E-20	NaN
297	1.000000	0.410546	7.36797e+06	-53489.1	955.817	-29745.8	0.000000	0.000000	6.410905	-0.006107	NaN	0.000000	0.001577	0.001648	28.078	0.097965	0.002097	46.7154	-45.946	-163.982	-0.053453	0.409195	-1.298578	-1.299929	-0.006107	46.7154	-1.298480	-2.280805E+17	2.677682E-20	NaN
297	1.000000	0.422544	7.36797e+06	-53489.1	955.818	-29745.8	0.000000	0.000000	6.422903	-0.018128	NaN	0.000000	0.001684	0.001705	28.0777	0.020038	0.002050	9.772814	-133.152	-167.57	-0.052876	0.421191	-1.286580	-1.287933	-0.018128	9.772814	-1.285189	-1.515115E+17	1.196504E-19	NaN
297	1.000000	0.434565	7.36797e+06	-53489.1	955.818	-29745.8	0.000000	0.000000	6.434920	-0.097983	NaN	0.000000	0.001667	0.001700	28.0779	0.139244	0.002043	68.1659	-177.745	-167.184	-0.111508	0.433282	-1.274560	-1.275842	-0.097983	68.1659	-1.273481	-1.056671E+17	9.272824E-19	NaN
297	1.000000	0.446556	7.36797e+06	-53489.1	955.818	-29745.8	0.000000	0.000000	6.446916	0.012990	NaN	0.000000	0.001631	0.001670	28.0778	0.082063	0.001961	41.8524	-86.6421	-163.897	-0.002574	0.445240	-1.262568	-1.263884	0.012990	41.8524	-1.262801	-7.605399E+16	-1.707960E-19	NaN
297	1.000000	0.458563	7.36797e+06	-53489.1	955.818	-29745.8	0.000000	0.000000	6.458922	-0.013749	NaN	0.000000	0.001631	0.001635	28.0779	0.077757	0.001947	39.9351	-138.15	-164.668	0.048141	0.457259	-1.250561	-1.251866	-0.013749	39.9351	-1.250303	-5.175729E+16	2.656430E-19	NaN
297	1.000000	0.470572	7.36797e+06	-53489.1	955.82	-29745.8	0.000000	0.000000	6.470932	0.020165	NaN	0.000000	0.001629	0.001661	28.0779	0.065101	0.002211	29.4454	74.5217	-166.936	0.039281	0.469193	-1.238552	-1.239932	0.020165	29.4454	-1.239066	-3.661371E+16	-5.507600E-19	NaN
297	1.000000	0.482568	7.36797e+06	-53489.1	955.818	-29745.8	0.000000	0.000000	6.482927	-0.028119	NaN	0.000000	0.001652	0.001648	28.078	0.046207	0.002025	22.8193	-1.017354	-161.34	-0.070061	0.481260	-1.226556	-1.227864	-0.028119	22.8193	-1.225632	-2.420350E+16	1.161755E-18	NaN
297	1.000000	0.494576	7.36797e+06	-53489.1	955.819	-29745.8	0.000000	0.000000	6.494936	-0.005735	NaN	0.000000	0.001643	0.001678	28.0768	0.075803	0.001928	39.3186	-67.52	-163.077	-0.031989	0.493258	-1.214548	-1.215866	-0.005735	39.3186	-1.214438	-1.714189E+16	3.345489E-19	NaN
297	1.000000	0.506571	7.36797e+06	-53489.1	955.818	-29745.8	0.000000	0.000000	6.506931	0.017338	NaN	0.000000	0.001656	0.001680	28.0768	0.017532	0.001982	8.844904	82.0874	-166.276	-0.001057	0.505294	-1.202553	-1.203830	0.017338	8.844904	-1.204023	-1.243433E+16	-1.394391E-18	NaN
297	1.000000	0.518599	7.36797e+06	-53489.1	955.818	-29745.8	0.000000	0.000000	6.518957	-0.045322	NaN	0.000000	0.001655	0.001695	28.0767	0.053288	0.001914	27.834	56.334	-168.629	0.004626	0.517282	-1.190525	-1.191843	-0.045322	27.834	-1.189304	-7.897686E+15	5.738691E-18	NaN
297	1.000000	0.530607	7.36797e+06	-53489.1	955.818	-29745.8	0.000000	0.000000	6.530963	-0.066208	NaN	0.000000	0.001663	0.001684	28.0767	0.045240	0.002033	22.2573	-71.5161	-168.342	-0.032656	0.529281	-1.178517	-1.179843	-0.066208	22.2573	-1.176286	-5.285875E+15	1.252553E-17	NaN
297	1.000000	0.542625	7.36797e+06	-53489.1	955.818	-29745.8	0.000000	0.000000	6.542985	0.003786	NaN	0.000000	0.001680	0.001658	28.0766	0.046449	0.002024	22.9491	25.2107	-168.48	-0.006643	0.541328	-1.166499	-1.167796	0.003786	22.9491	-1.166623	-3.923097E+15	-9.651467E-19	NaN
297	1.000000	0.554611	7.36797e+06	-53489.1	955.819	-29745.8	0.000000	0.000000	6.554970	-0.008318	NaN	0.000000	0.001650	0.001664	28.0769	0.023329	0.001967	11.859	86.8711	-170.661	0.051979	0.553313	-1.154513	-1.155811	-0.008318	11.859	-1.153987	-2.656240E+15	3.131366E-18	NaN
297	1.000000	0.566603	7.36797e+06	-53489.1	955.817	-29745.8	0.000000	0.000000	6.566960	-0.043679	NaN	0.000000	0.001591	0.001650	28.0769	0.105399	0.001937	54.4045	127.238	-165.844	-0.032647	0.565331	-1.142521	-1.143794	-0.043679	54.4045	-1.141919	-1.830090E+15	2.386713E-17	NaN
297	1.000000	0.578583	7.36797e+06	-53489.1	955.819	-29745.8	0.000000	0.000000	6.578942	-0.009920	NaN	0.000000	0.001612	0.001653	28.0779	0.017057	0.001976	8.630719	109.361	-163.553	0.048146	0.577316	-1.130541	-1.131808	-0.009920	8.630719	-1.129679	-1.254062E+15	7.910597E-18	NaN
297	1.000000	0.590607	7.36797e+06	-53489.1	955.818	-29745.8	0.000000	0.000000	6.590963	-0.082561	NaN	0.000000	0.001587	0.001657	28.0772	0.079623	0.001944	40.968	-114.038	-166.849	0.013578	0.589334	-1.118517	-1.119790	-0.082561	40.968	-1.117006	-8.478117E+14	9.738135E-17	NaN
297	1.000000	0.602612	7.36797e+06	-53489.1	955.818	-29745.8	0.000000	0.000000	6.602973	0.019610	NaN	0.000000	0.001634	0.001645	28.0768	0.070417	0.002175	32.37	-122.928	-165.959	0.032809	0.601318	-1.106512	-1.107806	0.019610	32.37	-1.106966	-6.216858E+14	-3.154359E-17	NaN
297	1.000000	0.614617	7.36797e+06	-53489.1	955.818	-29745.8	0.000000	0.000000	6.614977	0.026171	NaN	0.000000	0.001640	0.001667	28.0767	0.037635	0.001941	19.3926	47.7677	-165.816	0.006428	0.613273	-1.094507	-1.095851	0.026171	19.3926	-1.095520	-4.364355E+14	-5.996445E-17	NaN
297	1.000000	0.626664	7.36797e+06	-53489.1	955.818	-29745.8	0.000000	0.000000	6.627023	-0.002760	NaN	0.000000	0.001619	0.001651	28.0767	0.057981	0.001930	30.0479	70.812	-165.034	0.074372	0.625364	-1.082461	-1.083760	-0.002760	30.0479	-1.082392	-2.908325E+14	9.489806E-18	NaN
297	1.000000	0.638638	7.36797e+06	-53489.1	955.818	-29745.8	0.000000	0.000000	6.638998	0.027523	NaN	0.000000	0.001616	0.001644	28.078	0.102787	0.001898	54.1417	18.7879	-165.101	0.019938	0.637284	-1.070486	-1.071840	0.027523	54.1417	-1.070868	-2.036316E+14	-1.351625E-16	NaN
297	1.000000	0.650641	7.36797e+06	-53489.1	955.818	-29745.8	0.000000	0.000000	6.651001	0.004006	NaN	0.000000	0.001627	0.001671	28.0779	0.066546	0.001918	34.687	85.6866	-164.873	-0.007120	0.649329	-1.058483	-1.059795	0.004006	34.687	-1.058570	-1.391864E+14	-2.878035E-17	NaN
297	1.000000	0.662647	7.36797e+06	-53489.1	955.817	-29745.8	0.000000	0.000000	6.663004	-0.053288	NaN	0.000000	0.001629	0.001701	28.0782	0.141657	0.001987	71.3083	159.303	-165.822	0.043652	0.661352	-1.046477	-1.047772	-0.053288	71.3083	-1.045917	-9.408503E+13	5.663820E-16	NaN
297	1.000000	0.674645	7.36797e+06	-53489.1	955.819	-29745.8	0.000000	0.000000	6.675005	0.020833	NaN	0.000000	0.001611	0.001658	28.0779	0.114738	0.001933	59.3661	88.3906	-164.122	-0.024580	0.673323	-1.034479	-1.035801	0.020833	59.3661	-1.034743	-6.656812E+13	-3.129599E-16	NaN
297	1.000000	0.686657	7.36797e+06	-53489.1	955.818	-29745.8	0.000000	0.000000	6.687013	-0.080480	NaN	0.000000	0.001611	0.001630	28.078	0.120090	0.002036	58.9806	146.149	-168.222	-0.055304	0.685363	-1.022468	-1.023762	-0.080480	58.9806	-1.021444	-4.409446E+13	1.825164E-15	NaN
297	1.000000	0.698654	7.36797e+06	-53489.1	955.818	-29745.8	0.000000	0.000000	6.699014	0.020341	NaN	0.000000	0.001596	0.001689	28.0781	0.076836	0.001975	38.901	131.937	-162.532	-0.008010	0.697332	-1.010470	-1.011792	0.020341	38.901	-1.010862	-3.176799E+13	-6.403093E-16	NaN
297	1.000000	0.710688	7.36797e+06	-53489.1	955.818	-29745.8	0.000000	0.000000	6.711049	0.027926	NaN	0.000000	0.001607	0.001728	28.0781	0.078299	0.002045	38.2963	175.115	-165.797	0.034093	0.709380	-0.998436	-0.999744	0.027926	38.2963	-0.998983	-2.198239E+13	-1.270402E-15	NaN
297	1.000000	0.722669	7.36797e+06	-53489.1	955.819	-29745.8	0.000000	0.000000	6.723029	0.008354	NaN	0.000000	0.001599	0.001695	28.0779	0.055169	0.001991	27.7041	-55.8197	-167.811	0.044789	0.721392	-0.986455	-0.987733	0.008354	27.7041	-0.986681	-1.501109E+13	-5.565136E-16	NaN
297	1.000000	0.734684	7.36797e+06	-53489.1	955.817	-29745.8	0.000000	0.000000	6.735045	0.036172	NaN	0.000000	0.001585	0.001693	28.0778	0.029682	0.002044	14.5225	114.45	-168.556	0.014759	0.733375	-0.974440	-0.975750	0.036172	14.5225	-0.976308	-1.088103E+13	-3.324301E-15	NaN
297	1.000000	0.746673	7.36797e+06	-53489.1	955.82	-29745.8	0.000000	0.000000	6.747032	-0.006481	NaN	0.000000	0.001602	0.001729	28.0779	0.066460	0.001968	33.7728	-105.296	-169.267	0.018774	0.745353	-0.962451	-0.963771	-0.006481	33.7728	-0.962307	-7.046516E+12	9.196932E-16	NaN
297	1.000000	0.758683	7.36797e+06	-53489.1	955.818	-29745.8	0.000000	0.000000	6.759044	0.035619	NaN	0.000000	0.001601	0.001668	28.078	0.026191	0.001879	13.9362	-42.8958	-167.333	0.040539	0.757373	-0.950441	-0.951751	0.035619	13.9362	-0.952358	-5.173976E+12	-6.884195E-15	NaN
297	1.000000	0.770676	7.36797e+06	-53489.1	955.817	-29745.8	0.000000	0.000000	6.771037	0.038686	NaN	0.000000	0.001557	0.001673	28.0766	0.106216	0.002112	50.2807	-87.285	-167.356	0.001736	0.769426	-0.938448	-0.939698	0.038686	50.2807	-0.939025	-3.419659E+12	-1.131272E-14	NaN
297	1.000000	0.782703	7.36797e+06	-53489.1	955.818	-29745.8	0.000000	0.000000	6.783065	0.064609	NaN	0.000000	0.001595	0.001641	28.0767	0.064670	0.002006	32.2414	-39.0386	-164.732	0.052343	0.781364	-0.926421	-0.927760	0.064609	32.2414	-0.927924	-2.422032E+12	-2.667538E-14	NaN
297	1.000000	0.794681	7.36797e+06	-53489.1	955.818	-29745.8	0.000000	0.000000	6.795040	0.010237	NaN	0.000000	0.001602	0.001655	28.0766	0.073135	0.001987	36.7984	-4.877460	-165.849	0.034083	0.793324	-0.914444	-0.915800	0.010237	36.7984	-0.914652	-1.603229E+12	-6.385393E-15	NaN
297	1.000000	0.806725	7.36797e+06	-53489.1	955.818	-29745.8	0.000000	0.000000	6.807084	-0.008415	NaN	0.000000	0.001574	0.001707	28.0765	0.023143	0.002062	11.2244	0.642549	-169.109	0.057338	0.805455	-0.902399	-0.903669	-0.008415	11.2244	-0.901837	-1.076172E+12	7.819575E-15	NaN
297	1.000000	0.818700	7.36797e+06	-53489.1	955.818	-29745.8	0.000000	0.000000	6.819062	0.055849	NaN	0.000000	0.001578	0.001703	28.0765	0.009918	0.002044	4.851752	-5.501965	-166.425	-0.004396	0.817395	-0.890424	-0.891729	0.055849	4.851752	-0.899057	-9.870203E+11	-5.658326E-14	NaN
297	1.000000	0.830736	7.36797e+06	-53489.1	955.819	-29745.8	0.000000	0.000000	6.831097	0.041028	NaN	0.000000	0.001574	0.001661	28.0766	0.076023	0.001933	39.338	-117.672	-166.223	0.004406	0.829367	-0.878389	-0.879757	0.041028	39.338	-0.879171	-5.314881E+11	-7.719465E-14	NaN
297	1.000000	0.842724	7.36797e+06	-53489.1	955.818	-29745.8	0.000000	0.000000	6.843084	0.018550	NaN	0.000000	0.001593	0.001686	28.0767	0.074523	0.001964	37.9466	143.421	-165.537	0.004032	0.841409	-0.866400	-0.867716	0.018550	37.9466	-0.866766	-3.611545E+11	-5.136314E-14	NaN
297	1.000000	0.854719	7.36797e+06	-53489.1	955.819	-29745.8	0.000000	0.000000	6.855079	0.022893	NaN	0.000000	0.001611	0.001656	28.0767	0.089107	0.001956	45.5629	163.955	-166.801	0.015254	0.853444	-0.854406	-0.855680	0.022893	45.5629	-0.854782	-2.485939E+11	-9.209026E-14	NaN
297	1.000000	0.866739	7.36797e+06	-53489.1	955.818	-29745.8	0.000000	0.000000	6.867097	-0.015678	NaN	0.000000	0.001589	0.001699	28.0766	0.068478	0.001964	34.8705	-129.34	-166.543	0.003681	0.865405	-0.842386	-0.843720	-0.015678	34.8705	-0.842049	-1.671260E+11	9.380957E-14	NaN
297	1.000000	0.878748	7.36797e+06	-53489.1	955.819	-29745.8	0.000000	0.000000	6.879109	0.026187	NaN	0.000000	0.001604	0.001705	28.0766	0.162590	0.002014	80.7411	-68.5882	-164.195	-0.001251	0.877417	-0.830376	-0.831707	0.026187	80.7411	-0.830619	-1.169970E+11	-2.238250E-13	NaN
297	1.000000	0.890788	7.36797e+06	-53489.1	955.818	-29745.8	0.000000	0.000000	6.891148	0.013080	NaN	0.000000	0.001590	0.001717	28.0768	0.074120	0.002033	36.458	105.747	-164.816	-0.003879	0.889356	-0.818336	-0.819768	0.013080	36.458	-0.818606	-8.040832E+10	-1.626662E-13	NaN
297	1.000000	0.902745	7.36797e+06	-53489.1	955.819	-29745.8	0.000000	0.000000	6.903108	0.095875	NaN	0.000000	0.001658	0.001703	28.0773	0.083737	0.001975	42.4041	129.063	-167.54	0.089883	0.901422	-0.806379	-0.807703	0.095875	42.4041	-0.808075	-5.786992E+10	-1.656734E-12	NaN
297	1.000000	0.914724	7.36797e+06	-53489.1	955.818	-29745.8	0.000000	0.000000	6.915085	0.027661	NaN	0.000000	0.001625	0.001671	28.0779	0.084486	0.002050	41.2059	-149.742	-168.53	-0.013167	0.913457	-0.794400	-0.795667	0.027661	41.2059	-0.794903	-3.834141E+10	-7.214301E-13	NaN
297	1.000000	0.926732	7.36797e+06	-53489.1	955.818	-29745.8	0.000000	0.000000	6.927089	-0.054510	NaN	0.000000	0.001663	0.001673	28.0778	0.067004	0.001896	35.3455	83.9824	-163.876	-0.099273	0.925467	-0.782392	-0.783657	-0.054510	35.3455	-0.781235	-2.500441E+10	2.180026E-12	NaN
297	1.000000	0.938781	7.36797e+06	-53489.1	955.817	-29745.8	0.000000	0.000000	6.939141	0.008449	NaN	0.000000	0.001675	0.001706	28.0775	0.104771	0.002102	49.8358	-65.7275	-163.338	-0.069941	0.937458	-0.770343	-0.771666	0.008449	49.8358	-0.770470	-1.785240E+10	-4.732861E-13	NaN
297	1.000000	0.950737	7.36797e+06	-53489.1	955.819	-29745.8	0.000000	0.000000	6.951096	-0.022474	NaN	0.000000	0.001673	0.001738	28.0777	0.133451	0.001893	70.4941	176.175	-165.434	-0.006335	0.949454	-0.758387	-0.759670	-0.022474	70.4941	-0.758148	-1.213678E+10	1.851742E-12	NaN
297	1.000000	0.962757	7.36797e+06	-53489.1	955.818	-29745.8	0.000000	0.000000	6.963117	0.024085	NaN	0.000000	0.001632	0.001663	28.0775	0.067235	0.001982	33.9296	161.608	-168.051	-0.024551	0.961473	-0.746367	-0.747651	0.024085	33.9296	-0.746900	-8.531243E+9	-2.823153E-12	NaN
297	1.000000	0.974758	7.36797e+06	-53489.1	955.818	-29745.8	0.000000	0.000000	6.975117	-0.011670	NaN	0.000000	0.001683	0.001695	28.0777	0.097700	0.002002	48.8065	163.179	-164.304	-0.021403	0.973475	-0.734366	-0.735649	-0.011670	48.8065	-0.734187	-5.726126E+9	2.038031E-12	NaN
297	1.000000	0.986762	7.36797e+06	-53489.1	955.818	-29745.8	0.000000	0.000000	6.987122	0.026227	NaN	0.000000	0.001635	0.001719	28.0776	0.106670	0.001855	57.4914	-48.5539	-168.594	-0.074929	0.985458	-0.722362	-0.723666	0.026227	57.4914	-0.722705	-3.993514E+9	-6.567294E-12	NaN
297	1.000000	0.998768	7.36797e+06	-53489.1	955.819	-29745.8	0.000000	0.000000	6.999129	0.037013	NaN	0.000000	0.001617	0.001706	28.0778	0.011776	0.001917	6.142830	-108.944	-167.421	-0.006166	0.997449	-0.710356	-0.711675	0.037013	6.142830	-0.714875	-3.122985E+9	-1.185191E-11	NaN
297	1.000000	1.010806	7.36797e+06	-53489.1	955.817	-29745.8	0.000000	0.000000	7.011164	-0.013541	NaN	0.000000	0.001668	0.001708	28.0777	0.082782	0.001995	41.4927	-53.2899	-166.492	0.028807	1.009468	-0.698319	-0.699656	-0.013541	41.4927	-0.698074	-1.841732E+9	7.352483E-12	NaN
297	1.000000	1.022757	7.36797e+06	-53489.1	955.819	-29745.8	0.000000	0.000000	7.023114	-0.066361	NaN	0.000000	0.001647	0.001686	28.0776	0.112403	0.002075	54.1666	-72.6592	-169.773	-0.065029	1.021477	-0.686367	-0.687648	-0.066361	54.1666	-0.685448	-1.237941E+9	5.360613E-11	NaN
297	1.000000	1.034791	7.36797e+06	-53489.1	955.818	-29745.8	0.000000	0.000000	7.035150	0.008758	NaN	0.000000	0.001648	0.001678	28.0776	0.046356	0.002033	22.8049	35.6694	-162.536	0.035059	1.033450	-0.674334	-0.675674	0.008758	22.8049	-0.674622	-8.803109E+8	-9.949143E-12	NaN
297	1.000000	1.046801	7.36797e+06	-53489.1	955.819	-29745.8	0.000000	0.000000	7.047158	-0.053678	NaN	0.000000	0.001614	0.001692	28.0766	0.032930	0.001943	16.9506	45.134	-165.669	-0.035208	1.045482	-0.662324	-0.663642	-0.053678	16.9506	-0.659949	-5.543271E+8	9.683396E-11	NaN
297	1.000000	1.058813	7.36797e+06	-53489.1	955.817	-29745.8	0.000000	0.000000	7.059169	-0.066382	NaN	0.000000	0.001655	0.001669	28.0764	0.131282	0.001996	65.7804	-136.092	-167.786	-0.058565	1.057463	-0.650311	-0.651662	-0.066382	65.7804	-0.649555	-3.993289E+8	1.662336E-10	NaN
297	1.000000	1.070790	7.36797e+06	-53489.1	955.818	-29745.8	0.000000	0.000000	7.071152	0.056575	NaN	0.000000	0.001653	0.001671	28.0765	0.095273	0.002064	46.1611	-29.2824	-167.382	0.104011	1.069513	-0.638334	-0.639612	0.056575	46.1611	-0.639253	-2.884324E+8	-1.961449E-10	NaN
297	1.000000	1.082816	7.36797e+06	-53489.1	955.819	-29745.8	0.000000	0.000000	7.083173	-0.040465	NaN	0.000000	0.001614	0.001691	28.0765	0.083137	0.001926	43.1645	84.9107	-165.568	0.068919	1.081505	-0.626309	-0.627619	-0.040465	43.1645	-0.625605	-1.873540E+8	2.159802E-10	NaN
297	1.000000	1.094838	7.36797e+06	-53489.1	955.82	-29745.8	0.000000	0.000000	7.095198	0.018530	NaN	0.000000	0.001655	0.001704	28.0765	0.089808	0.002154	41.6913	10.9782	-167.104	0.014844	1.093503	-0.614287	-0.615621	0.018530	41.6913	-0.614620	-1.323320E+8	-1.400298E-10	NaN
297	1.000000	1.106815	7.36797e+06	-53489.1	955.819	-29745.8	0.000000	0.000000	7.107174	-0.011964	NaN	0.000000	0.001621	0.001686	28.0765	0.115122	0.002103	54.7521	143.63	-167.283	0.071455	1.105501	-0.602309	-0.603623	-0.011964	54.7521	-0.602145	-8.912555E+7	1.342421E-10	NaN
297	1.000000	1.118826	7.36797e+06	-53489.1	955.818	-29745.8	0.000000	0.000000	7.119184	-0.030915	NaN	0.000000	0.001618	0.001680	28.0764	0.058924	0.001998	29.4888	116.36	-168.611	0.026634	1.117521	-0.590298	-0.591603	-0.030915	29.4888	-0.589512	-5.969546E+7	5.178756E-10	NaN
297	1.000000	1.130812	7.36797e+06	-53489.1	955.819	-29745.8	0.000000	0.000000	7.131171	-0.009910	NaN	0.000000	0.001695	0.001682	28.0763	0.059355	0.001955	30.3588	151.319	-166.51	0.011620	1.129563	-0.578312	-0.579561	-0.009910	30.3588	-0.578067	-4.149995E+7	2.387989E-10	NaN
297	1.000000	1.142862	7.36797e+06	-53489.1	955.82	-29745.8	0.000000	0.000000	7.143224	0.062663	NaN	0.000000	0.001655	0.001683	28.0767	0.104021	0.002055	50.609	-90.0411	-167.206	0.029246	1.141511	-0.566262	-0.567614	0.062663	50.609	-0.567191	-2.936348E+7	-2.134040E-9	NaN
297	1.000000	1.154852	7.36797e+06	-53489.1	955.82	-29745.8	0.000000	0.000000	7.155209	-0.039942	NaN	0.000000	0.001672	0.001661	28.0764	0.132216	0.002052	64.4171	102.467	-167.397	-0.060980	1.153563	-0.554272	-0.555561	-0.039942	64.4171	-0.553807	-1.917251E+7	2.083286E-9	NaN
297	1.000000	1.166870	7.36797e+06	-53489.1	955.819	-29745.8	0.000000	0.000000	7.167227	-0.052933	NaN	0.000000	0.001669	0.001694	28.0764	0.075139	0.001962	38.2996	32.0227	-170.363	-0.057861	1.165579	-0.542255	-0.543545	-0.052933	38.2996	-0.541218	-1.283067E+7	4.125482E-9	NaN
297	1.000000	1.178842	7.36797e+06	-53489.1	955.819	-29745.8	0.000000	0.000000	7.179199	-0.040050	NaN	0.000000	0.001700	0.001683	28.0778	0.082443	0.001983	41.5667	15.2018	-167.157	-0.110740	1.177569	-0.530283	-0.531555	-0.040050	41.5667	-0.529560	-8.84027e+06	4.530444E-9	NaN
297	1.000000	1.190886	7.36797e+06	-53489.1	955.819	-29745.8	0.000000	0.000000	7.191245	-0.012176	NaN	0.000000	0.001667	0.001680	28.0776	0.032308	0.002013	16.0532	-44.1524	-163.309	-0.000934	1.189499	-0.518238	-0.519626	-0.012176	16.0532	-0.517670	-6.04199e+06	2.015297E-9	NaN
297	1.000000	1.202872	7.36797e+06	-53489.1	955.819	-29745.8	0.000000	0.000000	7.203234	0.051202	NaN	0.000000	0.001573	0.001687	28.0781	0.059641	0.001906	31.2902	-148.011	-167.523	-0.051652	1.201550	-0.506252	-0.507574	0.051202	31.2902	-0.507479	-4.3581e+06	-1.174866E-8	NaN
297	1.000000	1.214903	7.36797e+06	-53489.1	955.82	-29745.8	0.000000	0.000000	7.215261	-0.022461	NaN	0.000000	0.001597	0.001681	28.078	0.064415	0.002154	29.8984	-112.434	-165.782	0.038047	1.213564	-0.494222	-0.495560	-0.022461	29.8984	-0.493658	-2.79574e+06	8.034163E-9	NaN
297	1.000000	1.226894	7.36797e+06	-53489.1	955.818	-29745.8	0.000000	0.000000	7.227252	-0.037188	NaN	0.000000	0.001618	0.001683	28.0776	0.056487	0.002002	28.217	123.816	-166.6	0.059175	1.225549	-0.482230	-0.483575	-0.037188	28.217	-0.481242	-1.87462e+06	1.983773E-8	NaN
297	1.000000	1.238887	7.36797e+06	-53489.1	955.819	-29745.8	0.000000	0.000000	7.239244	-0.042232	NaN	0.000000	0.001588	0.001691	28.078	0.217403	0.002005	108.438	10.5563	-168.591	-0.067569	1.237556	-0.470238	-0.471569	-0.042232	108.438	-0.469945	-1.30209e+06	3.243426E-8	NaN
297	1.000000	1.250889	7.36797e+06	-53489.1	955.821	-29745.8	0.000000	0.000000	7.251246	-0.063685	NaN	0.000000	0.001688	0.001667	28.0776	0.027921	0.001991	14.0241	-176.785	-166.835	-0.000684	1.249608	-0.458235	-0.459516	-0.063685	14.0241	-0.454829	-798567	7.974953E-8	NaN
297	1.000000	1.262891	7.36797e+06	-53489.1	955.819	-29745.8	0.000000	0.000000	7.263253	0.063834	NaN	0.000000	0.001666	0.001702	28.0777	0.052799	0.001956	26.9888	-29.7459	-165.229	0.056382	1.261586	-0.446233	-0.447538	0.063834	26.9888	-0.448007	-640133	-9.972038E-8	NaN
297	1.000000	1.274887	7.36797e+06	-53489.1	955.821	-29745.8	0.000000	0.000000	7.275245	-0.025061	NaN	0.000000	0.001685	0.001663	28.0772	0.069345	0.002080	33.346	-137.677	-167.382	-0.113934	1.273603	-0.434237	-0.435521	-0.025061	33.346	-0.433674	-401801	6.237081E-8	NaN
297	1.000000	1.286908	7.36797e+06	-53489.1	955.82	-29745.8	0.000000	0.000000	7.287268	0.018130	NaN	0.000000	0.001668	0.001737	28.0775	0.064098	0.001917	33.4375	40.126	-165.027	0.080154	1.285562	-0.422216	-0.423562	0.018130	33.4375	-0.422623	-280289	-6.468292E-8	NaN
297	1.000000	1.298913	7.36797e+06	-53489.1	955.82	-29745.8	0.000000	0.000000	7.299275	0.061279	NaN	0.000000	0.001642	0.001724	28.0787	0.132168	0.001924	68.7088	-117.563	-168.497	0.061381	1.297542	-0.410211	-0.411582	0.061279	68.7088	-0.410880	-190949	-3.209169E-7	NaN
297	1.000000	1.310919	7.36797e+06	-53489.1	955.819	-29745.8	0.000000	0.000000	7.311277	-0.023720	NaN	0.000000	0.001667	0.001752	28.0776	0.072568	0.002048	35.4301	158.154	-165.573	-0.068498	1.309593	-0.398205	-0.399531	-0.023720	35.4301	-0.397703	-123944	1.913792E-7	NaN
297	1.000000	1.322936	7.36797e+06	-53489.1	955.82	-29745.8	0.000000	0.000000	7.323293	-0.057034	NaN	0.000000	0.001697	0.001755	28.0764	0.116383	0.001985	58.6195	-142.867	-167.353	-0.056955	1.321549	-0.386188	-0.387575	-0.057034	58.6195	-0.385459	-82824.4	6.886186E-7	NaN
297	1.000000	1.334907	7.36797e+06	-53489.1	955.821	-29745.8	0.000000	0.000000	7.335265	-0.040992	NaN	0.000000	0.001624	0.001705	28.0764	0.104326	0.001861	56.0585	50.622	-163.167	0.009166	1.333671	-0.374217	-0.375453	-0.040992	56.0585	-0.373668	-56095	7.307679E-7	NaN
297	1.000000	1.346959	7.36797e+06	-53489.1	955.819	-29745.8	0.000000	0.000000	7.347315	-0.088607	NaN	0.000000	0.001629	0.001688	28.0762	0.130225	0.001978	65.8439	-48.1664	-163.601	-0.117504	1.345639	-0.362165	-0.363486	-0.088607	65.8439	-0.361156	-37029.9	2.392841E-6	NaN
297	1.000000	1.358944	7.36797e+06	-53489.1	955.82	-29745.8	0.000000	0.000000	7.359307	0.093311	NaN	0.000000	0.001551	0.001750	28.0763	0.055229	0.002008	27.4995	-42.3809	-166.458	0.001900	1.357664	-0.350181	-0.351461	0.093311	27.4995	-0.352725	-27959.9	-3.337317E-6	NaN
297	1.000000	1.370937	7.36797e+06	-53489.1	955.82	-29745.8	0.000000	0.000000	7.371296	0.004207	NaN	0.000000	0.001579	0.001676	28.0762	0.108297	0.002091	51.7895	63.9032	-168.46	-0.031538	1.369627	-0.338187	-0.339498	0.004207	51.7895	-0.338248	-17219	-2.443364E-7	NaN
297	1.000000	1.382910	7.36797e+06	-53489.1	955.82	-29745.8	0.000000	0.000000	7.383270	0.008085	NaN	0.000000	0.001560	0.001721	28.0765	0.023427	0.002056	11.3947	-168.189	-168.56	0.015557	1.381629	-0.326214	-0.327495	0.008085	11.3947	-0.326746	-11688.5	-6.917216E-7	NaN
297	1.000000	1.394965	7.36797e+06	-53489.1	955.82	-29745.8	0.000000	0.000000	7.395325	0.007141	NaN	0.000000	0.001610	0.001767	28.0765	0.090687	0.002038	44.4944	-86.3617	-163.131	0.045754	1.393679	-0.314159	-0.315445	0.007141	44.4944	-0.314280	-7661.48	-9.321019E-7	NaN
297	1.000000	1.406967	7.36797e+06	-53489.1	955.819	-29745.8	0.000000	0.000000	7.407325	-0.037063	NaN	0.000000	0.001628	0.001705	28.0763	0.141557	0.002023	69.9601	-155.329	-166.993	0.022413	1.405670	-0.302157	-0.303455	-0.037063	69.9601	-0.301760	-4998.22	7.415247E-6	NaN
297	1.000000	1.418982	7.36797e+06	-53489.1	955.82	-29745.8	0.000000	0.000000	7.419338	-0.081916	NaN	0.000000	0.001597	0.001701	28.0767	0.052677	0.001954	26.9528	34.6629	-165.534	0.003052	1.417660	-0.290143	-0.291464	-0.081916	26.9528	-0.287863	-3099.32	2.643035E-5	NaN
297	1.000000	1.430947	7.36797e+06	-53489.1	955.82	-29745.8	0.000000	0.000000	7.431305	-0.022635	NaN	0.000000	0.001576	0.001675	28.0764	0.055467	0.001948	28.4749	129.567	-167.204	-0.061739	1.429696	-0.278177	-0.279428	-0.022635	28.4749	-0.277581	-2169.94	1.043135E-5	NaN
297	1.000000	1.442953	7.36797e+06	-53489.1	955.821	-29745.8	0.000000	0.000000	7.443312	-0.020183	NaN	0.000000	0.001581	0.001670	28.0763	0.048169	0.002095	22.9908	-107.603	-164.318	-0.023391	1.441666	-0.266171	-0.267458	-0.020183	22.9908	-0.265513	-1423.01	1.418300E-5	NaN
297	1.000000	1.454944	7.36797e+06	-53489.1	955.82	-29745.8	0.000000	0.000000	7.455301	-0.047062	NaN	0.000000	0.001577	0.001709	28.0776	0.071302	0.002119	33.6458	-144.976	-168.388	-0.076293	1.453666	-0.254181	-0.255458	-0.047062	33.6458	-0.253131	-919.022	5.120865E-5	NaN
297	1.000000	1.466988	7.36797e+06	-53489.1	955.82	-29745.8	0.000000	0.000000	7.467345	-0.048048	NaN	0.000000	0.001617	0.001673	28.0776	0.103256	0.002115	48.8309	-25.051	-165.626	-0.075159	1.465676	-0.242136	-0.243448	-0.048048	48.8309	-0.241398	-604.475	7.948754E-5	NaN
297	1.000000	1.478964	7.36797e+06	-53489.1	955.821	-29745.8	0.000000	0.000000	7.479323	-0.022416	NaN	0.000000	0.001641	0.001688	28.0776	0.082263	0.001984	41.4632	-104.075	-167.689	-0.055121	1.477716	-0.230160	-0.231408	-0.022416	41.4632	-0.229755	-396.863	5.648265E-5	NaN
297	1.000000	1.491015	7.36797e+06	-53489.1	955.821	-29745.8	0.000000	0.000000	7.491375	0.027400	NaN	0.000000	0.001631	0.001700	28.0776	0.126699	0.001917	66.1083	-5.085660	-166.862	-0.015944	1.489646	-0.218110	-0.219478	0.027400	66.1083	-0.218420	-262.065	-0.000105	NaN
297	1.000000	1.503022	7.36797e+06	-53489.1	955.82	-29745.8	0.000000	0.000000	7.503380	-0.016913	NaN	0.000000	0.001601	0.001726	28.0776	0.017866	0.002007	8.903286	119.004	-166.46	-0.021902	1.501684	-0.206102	-0.207440	-0.016913	8.903286	-0.204678	-157.145	0.000108	NaN
297	1.000000	1.515003	7.36797e+06	-53489.1	955.821	-29745.8	0.000000	0.000000	7.515359	-0.093072	NaN	0.000000	0.001609	0.001697	28.0777	0.064117	0.002019	31.7491	-172.992	-164.671	-0.070546	1.513732	-0.194121	-0.195392	-0.093072	31.7491	-0.191922	-96.847	0.000961	NaN
297	1.000000	1.527017	7.36797e+06	-53489.1	955.82	-29745.8	0.000000	0.000000	7.527379	0.061452	NaN	0.000000	0.001611	0.001696	28.0776	0.184603	0.001996	92.5068	24.1635	-168.802	0.013202	1.525711	-0.182107	-0.183414	0.061452	92.5068	-0.182605	-67.5591	-0.000910	NaN
297	1.000000	1.539046	7.36797e+06	-53489.1	955.821	-29745.8	0.000000	0.000000	7.539403	-0.045273	NaN	0.000000	0.001598	0.001694	28.0776	0.023743	0.002084	11.3953	30.648	-161.956	0.039332	1.537692	-0.170078	-0.171432	-0.045273	11.3953	-0.167099	-36.5655	0.001238	NaN
297	1.000000	1.551032	7.36797e+06	-53489.1	955.822	-29745.8	0.000000	0.000000	7.551392	-0.003179	NaN	0.000000	0.001605	0.001723	28.0776	0.150307	0.002097	71.6885	80.5505	-165.943	-0.057284	1.549758	-0.158092	-0.159367	-0.003179	71.6885	-0.158059	-25.3166	0.000126	NaN
297	1.000000	1.563044	7.36797e+06	-53489.1	955.821	-29745.8	0.000000	0.000000	7.563404	0.007047	NaN	0.000000	0.001599	0.001707	28.0775	0.066925	0.001945	34.4037	31.2025	-165.515	-0.067163	1.561722	-0.146080	-0.147403	0.007047	34.4037	-0.146234	-15.4509	-0.000456	NaN
297	1.000000	1.575029	7.36797e+06	-53489.1	955.821	-29745.8	0.000000	0.000000	7.575391	0.062820	NaN	0.000000	0.001594	0.001686	28.0776	0.089949	0.001992	45.1526	175.36	-166.973	0.097019	1.573735	-0.134095	-0.135389	0.062820	45.1526	-0.135139	-9.570641	-0.006564	NaN
297	1.000000	1.587061	7.36797e+06	-53489.1	955.822	-29745.8	0.000000	0.000000	7.587420	-0.020441	NaN	0.000000	0.001616	0.001718	28.0765	0.023319	0.002065	11.2925	123.449	-168.421	0.025354	1.585712	-0.122063	-0.123412	-0.020441	11.2925	-0.120706	-4.992320	0.004095	NaN
297	1.000000	1.599019	7.36797e+06	-53489.1	955.821	-29745.8	0.000000	0.000000	7.599380	0.038605	NaN	0.000000	0.001621	0.001699	28.0763	0.057975	0.001910	30.3502	-9.780285	-165.965	0.051402	1.597749	-0.110105	-0.111375	0.038605	30.3502	-0.111059	-3.163413	-0.012203	NaN
297	1.000000	1.611102	7.36797e+06	-53489.1	955.821	-29745.8	0.000000	0.000000	7.611457	-0.095416	NaN	0.000000	0.001603	0.001714	28.0766	0.038879	0.002001	19.4325	10.9579	-171.79	-0.079988	1.609769	-0.098023	-0.099355	-0.095416	19.4325	-0.094340	-1.362545	0.070028	NaN
297	1.000000	1.623070	7.36797e+06	-53489.1	955.821	-29745.8	0.000000	0.000000	7.623426	-0.097910	NaN	0.000000	0.001618	0.001735	28.0764	0.041817	0.002050	20.3968	32.4127	-166.206	-0.060623	1.621748	-0.086054	-0.087376	-0.097910	20.3968	-0.082454	-0.712107	0.137493	NaN
297	1.000000	1.635072	7.36797e+06	-53489.1	955.821	-29745.8	0.000000	0.000000	7.635431	-0.013436	NaN	0.000000	0.001613	0.001683	28.0764	0.069290	0.001958	35.3968	-65.5434	-168.286	-0.085323	1.633732	-0.074052	-0.075393	-0.013436	35.3968	-0.073767	-0.429035	0.031316	NaN
297	1.000000	1.647052	7.36797e+06	-53489.1	955.821	-29745.8	0.000000	0.000000	7.647414	0.062033	NaN	0.000000	0.001645	0.001684	28.0768	0.103754	0.002019	51.3834	-153.185	-164.103	0.113137	1.645689	-0.062072	-0.063435	0.062033	51.3834	-0.062977	-0.218814	-0.283498	NaN
297	1.000000	1.659055	7.36797e+06	-53489.1	955.822	-29745.8	0.000000	0.000000	7.659414	0.008645	NaN	0.000000	0.001653	0.001673	28.0764	0.144881	0.002098	69.06	149.447	-168.443	-0.021143	1.657752	-0.050070	-0.051373	0.008645	69.06	-0.050163	-0.092295	-0.093673	NaN
297	1.000000	1.671087	7.36797e+06	-53489.1	955.821	-29745.8	0.000000	0.000000	7.671447	0.001612	NaN	0.000000	0.001577	0.001708	28.0765	0.055292	0.002058	26.8672	153.459	-165.623	-0.022668	1.669736	-0.038037	-0.039388	0.001612	26.8672	-0.038082	-0.039567	-0.040738	NaN
297	1.000000	1.683114	7.36797e+06	-53489.1	955.821	-29745.8	0.000000	0.000000	7.683469	-0.094616	NaN	0.000000	0.001596	0.001717	28.0763	0.038685	0.001941	19.9311	-178.691	-167.01	-0.036731	1.681780	-0.026011	-0.027345	-0.094616	19.9311	-0.022450	-0.014499	6.525534	NaN
297	1.000000	1.695051	7.36797e+06	-53489.1	955.822	-29745.8	0.000000	0.000000	7.695409	-0.037363	NaN	0.000000	0.001635	0.001655	28.0763	0.054341	0.001984	27.3842	-25.6694	-165.837	0.014708	1.693771	-0.014073	-0.015353	-0.037363	27.3842	-0.013050	-0.008131	4.594965	NaN
297	1.000000	1.707098	7.36797e+06	-53489.1	955.822	-29745.8	0.000000	0.000000	7.707458	0.010523	NaN	0.000000	0.001618	0.001700	28.0767	0.010859	0.001980	5.485744	41.212	-167.173	-0.046249	1.705799	-0.002026	-0.003325	0.010523	5.485744	-0.003465	-0.002429	-4.332067	NaN
297	2.000000	1.717685	7.36797e+06	-53489.1	955.822	-29745.8	0.000000	0.000000	7.718437	9.542357	NaN	0.000000	0.001638	0.001697	28.0764	9.678655	0.001531	6323.37	7.268431	-173.566	9.700098	1.717327	0.008561	0.008203	9.542357	6323.37	0.007429	0.006462	1476.72	71869.4
297	2.000000	1.720656	7.36797e+06	-53489.1	955.822	-29745.8	0.000000	0.000000	7.721627	14.8783	NaN	0.000000	0.001627	0.001699	28.0775	12.9195	0.001506	8577.76	5.660369	-175.875	14.5296	1.720376	0.011532	0.011252	14.8783	8577.76	0.010231	0.009439	1576.2	80663.5
297	2.000000	1.723644	7.36797e+06	-53489.1	955.822	-29745.8	0.000000	0.000000	7.724844	20.4421	NaN	0.000000	0.001616	0.001718	28.0776	16.8947	0.001770	9546.46	4.852756	-175.265	20.0822	1.723282	0.014520	0.014157	20.4421	9546.46	0.012914	0.012603	1622.02	77692.8
297	2.000000	1.726621	7.36797e+06	-53489.1	955.822	-29745.8	0.000000	0.000000	7.727990	24.5424	NaN	0.000000	0.001615	0.001664	28.0778	19.0426	0.001689	11276.6	0.977696	-172.197	24.1185	1.726389	0.017497	0.017264	24.5424	11276.6	0.015864	0.016455	1491.46	80315.3
297	2.000000	1.729593	7.36797e+06	-53489.1	955.821	-29745.8	0.000000	0.000000	7.731225	30.9543	NaN	0.000000	0.001589	0.001689	28.0787	22.7505	0.001822	12484.6	5.906016	-178.511	30.1176	1.729290	0.020469	0.020166	30.9543	12484.6	0.018609	0.020404	1517.09	79853.5
297	2.000000	1.732574	7.36797e+06	-53489.1	955.822	-29745.8	0.000000	0.000000	7.734355	34.5786	NaN	0.000000	0.001620	0.001666	28.0777	25.4137	0.001876	13550.1	4.706786	-177.717	33.3114	1.732266	0.023449	0.023142	34.5786	13550.1	0.021535	0.025013	1382.44	78277
297	2.000000	1.735613	7.36797e+06	-53489.1	955.823	-29745.8	0.000000	0.000000	7.737760	43.4566	NaN	0.000000	0.001624	0.001680	28.0777	28.4159	0.001787	15901.1	8.586986	176.956	44.1115	1.735251	0.026489	0.026127	43.4566	15901.1	0.024439	0.030003	1448.4	83872
297	2.000000	1.738547	7.36797e+06	-53489.1	955.823	-29745.8	0.000000	0.000000	7.740960	49.9195	NaN	0.000000	0.001616	0.001639	28.0776	31.3914	0.001875	16738.3	7.260845	176.889	48.1884	1.738264	0.029423	0.029140	49.9195	16738.3	0.027186	0.035114	1421.66	81610.5
297	2.000000	1.741576	7.36797e+06	-53489.1	955.823	-29745.8	0.000000	0.000000	7.744218	55.4873	NaN	0.000000	0.001596	0.001659	28.0777	33.0612	0.001763	18756	2.930835	-179.387	55.5258	1.741353	0.032452	0.032229	55.4873	18756	0.030233	0.041229	1345.84	84394.4
297	2.000000	1.744634	7.36797e+06	-53489.1	955.824	-29745.8	0.000000	0.000000	7.747786	67.8863	NaN	0.000000	0.001621	0.001703	28.0779	35.9813	0.001864	19307.7	5.796934	179.263	69.0596	1.744185	0.035510	0.035061	67.8863	19307.7	0.032873	0.046909	1447.18	81446.9
297	2.000000	1.747532	7.36797e+06	-53489.1	955.822	-29745.8	0.000000	0.000000	7.751118	78.4499	NaN	0.000000	0.001696	0.001667	28.0778	37.9892	0.001795	21160.9	6.003801	176.849	77.3645	1.747210	0.038408	0.038086	78.4499	21160.9	0.035627	0.053217	1474.16	83807.7
297	2.000000	1.750530	7.36797e+06	-53489.1	955.823	-29745.8	0.000000	0.000000	7.754322	83.4612	NaN	0.000000	0.001725	0.001692	28.0776	39.7419	0.001815	21901.2	-0.166732	-177.534	80.4924	1.750195	0.041406	0.041071	83.4612	21901.2	0.038548	0.060329	1383.44	81466.4
297	2.000000	1.753581	7.36797e+06	-53489.1	955.823	-29745.8	0.000000	0.000000	7.757790	93.5917	NaN	0.000000	0.001636	0.001719	28.0763	43.7142	0.001743	25080.8	7.158631	173.13	93.1696	1.753227	0.044457	0.044103	93.5917	25080.8	0.041658	0.068384	1368.61	87626.5
297	2.000000	1.756535	7.36797e+06	-53489.1	955.822	-29745.8	0.000000	0.000000	7.761095	102.125	NaN	0.000000	0.001642	0.001666	28.0763	46.6474	0.001895	24612.4	4.190711	177.179	102.046	1.756251	0.047411	0.047126	102.125	24612.4	0.044299	0.075609	1350.69	81778.7
297	2.000000	1.759508	7.36797e+06	-53489.1	955.823	-29745.8	0.000000	0.000000	7.764822	120.475	NaN	0.000000	0.001625	0.001691	28.0767	47.9317	0.001842	26021.9	3.449651	177.505	118.541	1.759157	0.050383	0.050033	120.475	26021.9	0.046911	0.083105	1449.67	82470.4
297	2.000000	1.762519	7.36797e+06	-53489.1	955.822	-29745.8	0.000000	0.000000	7.768088	126.665	NaN	0.000000	0.001642	0.001698	28.0766	51.3831	0.001851	27755.5	7.691944	172.872	125.527	1.762139	0.053395	0.053015	126.665	27755.5	0.049972	0.092327	1371.92	83456.2
297	2.000000	1.765511	7.36797e+06	-53489.1	955.822	-29745.8	0.000000	0.000000	7.771535	137.71	NaN	0.000000	0.001630	0.001656	28.0765	53.8276	0.001826	29478.8	5.120381	174.377	136.399	1.765277	0.056387	0.056153	137.71	29478.8	0.052883	0.101533	1356.31	84523.9
297	2.000000	1.768484	7.36797e+06	-53489.1	955.822	-29745.8	0.000000	0.000000	7.775116	152.504	NaN	0.000000	0.001626	0.001687	28.0763	57.4901	0.001883	30539.1	7.233224	171.825	149.736	1.768219	0.059360	0.059095	152.504	30539.1	0.055614	0.110553	1379.46	83915.9
297	2.000000	1.771524	7.36797e+06	-53489.1	955.823	-29745.8	0.000000	0.000000	7.778961	172.081	NaN	0.000000	0.001650	0.001702	28.0764	59.2214	0.001832	32326.4	5.018119	174.569	170.509	1.771169	0.062400	0.062045	172.081	32326.4	0.058407	0.120159	1432.12	85202.6
297	2.000000	1.774572	7.36797e+06	-53489.1	955.822	-29745.8	0.000000	0.000000	7.782686	188.541	NaN	0.000000	0.001682	0.001693	28.0766	62.8841	0.001863	33752.9	7.203001	171.51	189.691	1.774208	0.065447	0.065084	188.541	33752.9	0.061258	0.130358	1446.33	85411.4
297	2.000000	1.777448	7.36797e+06	-53489.1	955.822	-29745.8	0.000000	0.000000	7.786010	199.42	NaN	0.000000	0.001636	0.001685	28.0762	63.1685	0.001687	37436	0.617663	177.108	196.18	1.777299	0.068324	0.068175	199.42	37436	0.064328	0.141786	1406.49	90833.7
297	2.000000	1.780451	7.36797e+06	-53489.1	955.824	-29745.8	0.000000	0.000000	7.789856	219.921	NaN	0.000000	0.001610	0.001696	28.0762	66.3614	0.001801	36842.8	3.979395	174.021	217.404	1.780243	0.071327	0.071119	219.921	36842.8	0.066850	0.151509	1451.53	86478.1
297	2.000000	1.783600	7.36797e+06	-53489.1	955.824	-29745.8	0.000000	0.000000	7.793529	232.672	NaN	0.000000	0.001605	0.001681	28.0759	69.7489	0.001843	37838	-0.375950	178.927	236.392	1.783259	0.074476	0.074135	232.672	37838	0.069864	0.163534	1422.77	85486.4
297	2.000000	1.786509	7.36797e+06	-53489.1	955.824	-29745.8	0.000000	0.000000	7.797359	255.06	NaN	0.000000	0.001638	0.001678	28.0767	73.0148	0.001742	41907.3	3.605528	173.549	254.897	1.786106	0.077384	0.076982	255.06	41907.3	0.072820	0.175746	1451.3	91331.4
297	2.000000	1.789496	7.36797e+06	-53489.1	955.824	-29745.8	0.000000	0.000000	7.800892	268.329	NaN	0.000000	0.001605	0.001717	28.0775	77.2244	0.001840	41974.1	5.406391	171.221	266.896	1.789302	0.080372	0.080178	268.329	41974.1	0.075577	0.187512	1431	88560.5
297	2.000000	1.792453	7.36797e+06	-53489.1	955.823	-29745.8	0.000000	0.000000	7.804830	292.194	NaN	0.000000	0.001620	0.001704	28.0775	79.216	0.001806	43851.3	5.804789	170.796	289.269	1.792116	0.083328	0.082992	292.194	43851.3	0.078331	0.199619	1463.76	89671.7
297	2.000000	1.795515	7.36797e+06	-53489.1	955.824	-29745.8	0.000000	0.000000	7.808459	305.953	NaN	0.000000	0.001592	0.001699	28.0777	82.3146	0.001918	42919.9	5.544496	171.144	305.889	1.795236	0.086391	0.086112	305.953	42919.9	0.081045	0.211896	1443.88	85186.4
297	2.000000	1.798407	7.36797e+06	-53489.1	955.823	-29745.8	0.000000	0.000000	7.812354	330.345	NaN	0.000000	0.001641	0.001679	28.0778	84.2106	0.001802	46731.7	5.237311	171.375	325.832	1.798148	0.089283	0.089024	330.345	46731.7	0.083981	0.225565	1464.52	89897.7
297	2.000000	1.801576	7.36797e+06	-53489.1	955.823	-29745.8	0.000000	0.000000	7.816242	347.823	NaN	0.000000	0.001603	0.001675	28.0774	87.6598	0.001825	48032.8	6.757567	169.484	354.437	1.801211	0.092452	0.092087	347.823	48032.8	0.087021	0.240137	1448.43	89553.3
297	2.000000	1.804511	7.36797e+06	-53489.1	955.824	-29745.8	0.000000	0.000000	7.820122	370.805	NaN	0.000000	0.001632	0.001712	28.0775	91.0993	0.001856	49087.9	11.4587	165.536	371	1.804070	0.095387	0.094946	370.805	49087.9	0.089722	0.253440	1463.09	89086.2
297	2.000000	1.807597	7.36797e+06	-53489.1	955.823	-29745.8	0.000000	0.000000	7.823923	388.188	NaN	0.000000	0.001652	0.001690	28.0773	91.583	0.001790	51171	5.135698	170.624	395.08	1.807213	0.098473	0.098089	388.188	51171	0.092783	0.268924	1443.48	90153.4
297	2.000000	1.810409	7.36797e+06	-53489.1	955.823	-29745.8	0.000000	0.000000	7.827955	417.867	NaN	0.000000	0.001642	0.001668	28.0773	92.6382	0.001700	54492.5	2.665624	172.371	413.235	1.810171	0.101284	0.101047	417.867	54492.5	0.095533	0.283198	1475.53	93554.5
297	2.000000	1.813407	7.36797e+06	-53489.1	955.823	-29745.8	0.000000	0.000000	7.831780	437.97	NaN	0.000000	0.001618	0.001664	28.0781	95.9615	0.001818	52794.1	2.990123	173.014	433.64	1.813048	0.104282	0.103924	437.97	52794.1	0.098061	0.296622	1476.53	88564
297	2.000000	1.815955	7.36797e+06	-53489.1	955.823	-29745.8	0.000000	0.000000	7.834931	452.624	NaN	0.000000	0.001636	0.001666	28.0775	97.7669	0.001816	53832.7	-0.736467	-3.607501	449.343	1.815613	0.106831	0.106489	452.624	53832.7	0.100525	0.309988	1460.14	88337.9